StudyTrials.thisRepN,StudyTrials.thisTrialN,StudyTrials.thisN,StudyTrials.thisIndex,TestTrials.thisRepN,TestTrials.thisTrialN,TestTrials.thisN,TestTrials.thisIndex,textWelcome.started,textWelcome.stopped,keyWelcome.keys,keyWelcome.rt,keyWelcome.started,keyWelcome.stopped,textReady.started,textReady.stopped,keyReady.keys,keyReady.rt,keyReady.started,keyReady.stopped,polyback_2.started,polyback_2.stopped,studyPic,studyWord,studyType,studyN,studyOrder,polyback_3.started,polyback_3.stopped,studyPicChoice.started,studyPicChoice.stopped,polyback_4.started,polyback_4.stopped,polyback.started,polyback.stopped,studyWords.started,studyWords.stopped,getResearcher.started,getResearcher.stopped,kPress2.keys,kPress2.rt,kPress2.started,kPress2.stopped,testWord,testType,testN,testOrder,polyback_5.started,polyback_5.stopped,testWords.started,testWords.stopped,textScale.started,textScale.stopped,keyConf.keys,keyConf.rt,keyConf.started,keyConf.stopped,polyback_6.started,polyback_6.stopped,studyWords_2.started,studyWords_2.stopped,polyback_7.started,polyback_7.stopped,testWords_2.started,testWords_2.stopped,textScale_2.started,textScale_2.stopped,keyRKN.keys,keyRKN.rt,keyRKN.started,keyRKN.stopped,participant,session,date,expName,psychopyVersion,frameRate,
,,,,,,,,13.187523480737582,None,space,567.4417888909229,13.187523480737582,None,,,,,,,,,,,,,,,,,,,,,,,,,,,,,,,,,,,,,,,,,,,,,,,,,,,,,,,,,,base9,001,2019_Oct_29_1355,ProdFawcett_Revision2019,3.2.4,59.98175587585188,
,,,,,,,,,,,,,,580.6456260496052,None,space,14.91049076319905,580.6456260496052,None,,,,,,,,,,,,,,,,,,,,,,,,,,,,,,,,,,,,,,,,,,,,,,,,,,,,base9,001,2019_Oct_29_1355,ProdFawcett_Revision2019,3.2.4,59.98175587585188,
0,0,0,0,,,,,,,,,,,,,,,,,600.3683871368994,None,materials/mumblePic.jpg,angle,C_aloud2,0,7,596.6674370217952,None,596.6674370217952,None,597.6185155812418,None,597.8842137836618,None,597.8842137836618,None,,,,,,,,,,,,,,,,,,,,,,,,,,,,,,,,,,,base9,001,2019_Oct_29_1355,ProdFawcett_Revision2019,3.2.4,59.98175587585188,
1,0,1,0,,,,,,,,,,,,,,,,,604.6364315481624,None,materials/mumblePic.jpg,short,C_aloud2,1,285,600.9189040243509,None,600.9189040243509,None,601.8856543509173,None,602.1522006593295,None,602.1522006593295,None,,,,,,,,,,,,,,,,,,,,,,,,,,,,,,,,,,,base9,001,2019_Oct_29_1355,ProdFawcett_Revision2019,3.2.4,59.98175587585188,
2,0,2,0,,,,,,,,,,,,,,,,,608.9044075387064,None,materials/readPic.jpg,interior,A_silent,2,164,605.2371680039796,None,605.2371680039796,None,606.1536692169029,None,606.420522796514,None,606.420522796514,None,,,,,,,,,,,,,,,,,,,,,,,,,,,,,,,,,,,base9,001,2019_Oct_29_1355,ProdFawcett_Revision2019,3.2.4,59.98175587585188,
3,0,3,0,,,,,,,,,,,,,,,,,613.1723913043388,None,materials/readPic.jpg,people,A_silent,3,216,609.4784602226573,None,609.4784602226573,None,610.4218227902893,None,610.6881765876315,None,610.6881765876315,None,,,,,,,,,,,,,,,,,,,,,,,,,,,,,,,,,,,base9,001,2019_Oct_29_1355,ProdFawcett_Revision2019,3.2.4,59.98175587585188,
4,0,4,0,,,,,,,,,,,,,,,,,617.4403635628405,None,materials/mumblePic.jpg,article,C_aloud2,4,11,613.7301499035675,None,613.7301499035675,None,614.6896348820883,None,614.956156932225,None,614.956156932225,None,,,,,,,,,,,,,,,,,,,,,,,,,,,,,,,,,,,base9,001,2019_Oct_29_1355,ProdFawcett_Revision2019,3.2.4,59.98175587585188,
5,0,5,0,,,,,,,,,,,,,,,,,621.7083753187326,None,materials/readPic.jpg,addition,A_silent,5,2,618.0464442992816,None,618.0464442992816,None,618.9595935186953,None,619.2241708652,None,619.2241708652,None,,,,,,,,,,,,,,,,,,,,,,,,,,,,,,,,,,,base9,001,2019_Oct_29_1355,ProdFawcett_Revision2019,3.2.4,59.98175587585188,
6,0,6,0,,,,,,,,,,,,,,,,,625.9763656154391,None,materials/speakPic.jpg,direction,B_aloud1,6,94,622.3097704795655,None,622.3097704795655,None,623.2258076755679,None,623.4921605398995,None,623.4921605398995,None,,,,,,,,,,,,,,,,,,,,,,,,,,,,,,,,,,,base9,001,2019_Oct_29_1355,ProdFawcett_Revision2019,3.2.4,59.98175587585188,
7,0,7,0,,,,,,,,,,,,,,,,,630.244359022181,None,materials/speakPic.jpg,principal,B_aloud1,7,236,626.5442616781802,None,626.5442616781802,None,627.4936054612044,None,627.760145549546,None,627.760145549546,None,,,,,,,,,,,,,,,,,,,,,,,,,,,,,,,,,,,base9,001,2019_Oct_29_1355,ProdFawcett_Revision2019,3.2.4,59.98175587585188,
8,0,8,0,,,,,,,,,,,,,,,,,634.5123247496085,None,materials/mumblePic.jpg,little,C_aloud2,8,174,630.7996697144699,None,630.7996697144699,None,631.7615805187379,None,632.0281286931713,None,632.0281286931713,None,,,,,,,,,,,,,,,,,,,,,,,,,,,,,,,,,,,base9,001,2019_Oct_29_1355,ProdFawcett_Revision2019,3.2.4,59.98175587585188,
9,0,9,0,,,,,,,,,,,,,,,,,638.7803060272126,None,materials/speakPic.jpg,quantity,B_aloud1,9,245,635.1128543882514,None,635.1128543882514,None,636.029616843909,None,636.2966041549807,None,636.2966041549807,None,,,,,,,,,,,,,,,,,,,,,,,,,,,,,,,,,,,base9,001,2019_Oct_29_1355,ProdFawcett_Revision2019,3.2.4,59.98175587585188,
10,0,10,0,,,,,,,,,,,,,,,,,643.048333022336,None,materials/readPic.jpg,fellow,A_silent,10,126,639.3814778876258,None,639.3814778876258,None,640.2975608011475,None,640.5641226596781,None,640.5641226596781,None,,,,,,,,,,,,,,,,,,,,,,,,,,,,,,,,,,,base9,001,2019_Oct_29_1355,ProdFawcett_Revision2019,3.2.4,59.98175587585188,
11,0,11,0,,,,,,,,,,,,,,,,,647.3164561174344,None,materials/readPic.jpg,danger,A_silent,11,85,643.623223860166,None,643.623223860166,None,644.5655563848559,None,644.8321005162434,None,644.8321005162434,None,,,,,,,,,,,,,,,,,,,,,,,,,,,,,,,,,,,base9,001,2019_Oct_29_1355,ProdFawcett_Revision2019,3.2.4,59.98175587585188,
12,0,12,0,,,,,,,,,,,,,,,,,651.5842769173323,None,materials/mumblePic.jpg,native,C_aloud2,12,199,647.8865646575578,None,647.8865646575578,None,648.8335743608768,None,649.100091434957,None,649.100091434957,None,,,,,,,,,,,,,,,,,,,,,,,,,,,,,,,,,,,base9,001,2019_Oct_29_1355,ProdFawcett_Revision2019,3.2.4,59.98175587585188,
13,0,13,0,,,,,,,,,,,,,,,,,655.8523676680634,None,materials/mumblePic.jpg,century,C_aloud2,13,45,652.1342644771794,None,652.1342644771794,None,653.1015208060853,None,653.3680851527024,None,653.3680851527024,None,,,,,,,,,,,,,,,,,,,,,,,,,,,,,,,,,,,base9,001,2019_Oct_29_1355,ProdFawcett_Revision2019,3.2.4,59.98175587585188,
14,0,14,0,,,,,,,,,,,,,,,,,660.1202565776766,None,materials/readPic.jpg,height,A_silent,14,152,656.4530279280734,None,656.4530279280734,None,657.3695235429332,None,657.636060832243,None,657.636060832243,None,,,,,,,,,,,,,,,,,,,,,,,,,,,,,,,,,,,base9,001,2019_Oct_29_1355,ProdFawcett_Revision2019,3.2.4,59.98175587585188,
15,0,15,0,,,,,,,,,,,,,,,,,664.3882580705103,None,materials/readPic.jpg,answer,A_silent,15,8,660.6943067736574,None,660.6943067736574,None,661.6375695092138,None,661.9040598369902,None,661.9040598369902,None,,,,,,,,,,,,,,,,,,,,,,,,,,,,,,,,,,,base9,001,2019_Oct_29_1355,ProdFawcett_Revision2019,3.2.4,59.98175587585188,
16,0,16,0,,,,,,,,,,,,,,,,,668.6562412141357,None,materials/speakPic.jpg,damage,B_aloud1,16,83,664.9896491882391,None,664.9896491882391,None,665.9055271505495,None,666.1720348945237,None,666.1720348945237,None,,,,,,,,,,,,,,,,,,,,,,,,,,,,,,,,,,,base9,001,2019_Oct_29_1355,ProdFawcett_Revision2019,3.2.4,59.98175587585188,
17,0,17,0,,,,,,,,,,,,,,,,,672.9242445729906,None,materials/mumblePic.jpg,welcome,C_aloud2,17,354,669.2242022764985,None,669.2242022764985,None,670.1735289543867,None,670.4400202151737,None,670.4400202151737,None,,,,,,,,,,,,,,,,,,,,,,,,,,,,,,,,,,,base9,001,2019_Oct_29_1355,ProdFawcett_Revision2019,3.2.4,59.98175587585188,
18,0,18,0,,,,,,,,,,,,,,,,,677.1922280276194,None,materials/readPic.jpg,error,A_silent,18,117,673.5248336131917,None,673.5248336131917,None,674.4415117870085,None,674.7079968277249,None,674.7079968277249,None,,,,,,,,,,,,,,,,,,,,,,,,,,,,,,,,,,,base9,001,2019_Oct_29_1355,ProdFawcett_Revision2019,3.2.4,59.98175587585188,
19,0,19,0,,,,,,,,,,,,,,,,,681.460208372213,None,materials/mumblePic.jpg,agreement,C_aloud2,19,5,677.7633600796107,None,677.7633600796107,None,678.7096351931104,None,678.976017291774,None,678.976017291774,None,,,,,,,,,,,,,,,,,,,,,,,,,,,,,,,,,,,base9,001,2019_Oct_29_1355,ProdFawcett_Revision2019,3.2.4,59.98175587585188,
20,0,20,0,,,,,,,,,,,,,,,,,685.7282142190379,None,materials/mumblePic.jpg,rough,C_aloud2,20,266,682.0101623436785,None,682.0101623436785,None,682.9775107295718,None,683.2440032344311,None,683.2440032344311,None,,,,,,,,,,,,,,,,,,,,,,,,,,,,,,,,,,,base9,001,2019_Oct_29_1355,ProdFawcett_Revision2019,3.2.4,59.98175587585188,
21,0,21,0,,,,,,,,,,,,,,,,,689.9962113578222,None,materials/speakPic.jpg,brief,B_aloud1,21,28,686.3139976363746,None,686.3139976363746,None,687.2454176773899,None,687.5119842010317,None,687.5119842010317,None,,,,,,,,,,,,,,,,,,,,,,,,,,,,,,,,,,,base9,001,2019_Oct_29_1355,ProdFawcett_Revision2019,3.2.4,59.98175587585188,
22,0,22,0,,,,,,,,,,,,,,,,,694.2642035205499,None,materials/mumblePic.jpg,medicine,C_aloud2,22,186,690.5527747714077,None,690.5527747714077,None,691.5135093611898,None,691.7799505504663,None,691.7799505504663,None,,,,,,,,,,,,,,,,,,,,,,,,,,,,,,,,,,,base9,001,2019_Oct_29_1355,ProdFawcett_Revision2019,3.2.4,59.98175587585188,
23,0,23,0,,,,,,,,,,,,,,,,,698.5321592958644,None,materials/speakPic.jpg,music,B_aloud1,23,196,694.8647132549668,None,694.8647132549668,None,695.7814946818398,None,696.0479439572082,None,696.0479439572082,None,,,,,,,,,,,,,,,,,,,,,,,,,,,,,,,,,,,base9,001,2019_Oct_29_1355,ProdFawcett_Revision2019,3.2.4,59.98175587585188,
24,0,24,0,,,,,,,,,,,,,,,,,702.8001352864085,None,materials/mumblePic.jpg,fight,C_aloud2,24,127,699.1001309323474,None,699.1001309323474,None,700.0495742364437,None,700.3160281768651,None,700.3160281768651,None,,,,,,,,,,,,,,,,,,,,,,,,,,,,,,,,,,,base9,001,2019_Oct_29_1355,ProdFawcett_Revision2019,3.2.4,59.98175587585188,
25,0,25,0,,,,,,,,,,,,,,,,,707.0681140759843,None,materials/speakPic.jpg,passage,B_aloud1,25,212,703.3849558375077,None,703.3849558375077,None,704.3177390060155,None,704.5839404117432,None,704.5839404117432,None,,,,,,,,,,,,,,,,,,,,,,,,,,,,,,,,,,,base9,001,2019_Oct_29_1355,ProdFawcett_Revision2019,3.2.4,59.98175587585188,
26,0,26,0,,,,,,,,,,,,,,,,,711.3361351620406,None,materials/mumblePic.jpg,company,C_aloud2,26,64,707.623847110779,None,707.623847110779,None,708.5854795670602,None,708.8519870000309,None,708.8519870000309,None,,,,,,,,,,,,,,,,,,,,,,,,,,,,,,,,,,,base9,001,2019_Oct_29_1355,ProdFawcett_Revision2019,3.2.4,59.98175587585188,
27,0,27,0,,,,,,,,,,,,,,,,,715.6040962244151,None,materials/readPic.jpg,swift,A_silent,27,320,711.9379610623582,None,711.9379610623582,None,712.8535152702243,None,713.1198899048031,None,713.1198899048031,None,,,,,,,,,,,,,,,,,,,,,,,,,,,,,,,,,,,base9,001,2019_Oct_29_1355,ProdFawcett_Revision2019,3.2.4,59.98175587585188,
28,0,28,0,,,,,,,,,,,,,,,,,719.8720877651358,None,materials/readPic.jpg,brilliant,A_silent,28,30,716.187335323717,None,716.187335323717,None,717.1214741556323,None,717.3878817565273,None,717.3878817565273,None,,,,,,,,,,,,,,,,,,,,,,,,,,,,,,,,,,,base9,001,2019_Oct_29_1355,ProdFawcett_Revision2019,3.2.4,59.98175587585188,
29,0,29,0,,,,,,,,,,,,,,,,,724.1400559805916,None,materials/mumblePic.jpg,concern,C_aloud2,29,65,720.4294156247634,None,720.4294156247634,None,721.3894684953266,None,721.6558947564918,None,721.6558947564918,None,,,,,,,,,,,,,,,,,,,,,,,,,,,,,,,,,,,base9,001,2019_Oct_29_1355,ProdFawcett_Revision2019,3.2.4,59.98175587585188,
30,0,30,0,,,,,,,,,,,,,,,,,728.4080817316426,None,materials/readPic.jpg,trash,A_silent,30,337,724.7479206319549,None,724.7479206319549,None,725.6574469738989,None,725.9238511538133,None,725.9238511538133,None,,,,,,,,,,,,,,,,,,,,,,,,,,,,,,,,,,,base9,001,2019_Oct_29_1355,ProdFawcett_Revision2019,3.2.4,59.98175587585188,
31,0,31,0,,,,,,,,,,,,,,,,,732.6760794924339,None,materials/speakPic.jpg,reach,B_aloud1,31,253,729.0094756484032,None,729.0094756484032,None,729.9254419356585,None,730.1824416868621,None,730.1824416868621,None,,,,,,,,,,,,,,,,,,,,,,,,,,,,,,,,,,,base9,001,2019_Oct_29_1355,ProdFawcett_Revision2019,3.2.4,59.98175587585188,
32,0,32,0,,,,,,,,,,,,,,,,,736.9440449088579,None,materials/speakPic.jpg,growth,B_aloud1,32,144,733.2450796168414,None,733.2450796168414,None,734.1934197922237,None,734.4434306773474,None,734.4434306773474,None,,,,,,,,,,,,,,,,,,,,,,,,,,,,,,,,,,,base9,001,2019_Oct_29_1355,ProdFawcett_Revision2019,3.2.4,59.98175587585188,
33,0,33,0,,,,,,,,,,,,,,,,,741.2120439136634,None,materials/mumblePic.jpg,youth,C_aloud2,33,359,737.5006465758197,None,737.5006465758197,None,738.4613970267819,None,738.7185466815718,None,738.7185466815718,None,,,,,,,,,,,,,,,,,,,,,,,,,,,,,,,,,,,base9,001,2019_Oct_29_1355,ProdFawcett_Revision2019,3.2.4,59.98175587585188,
34,0,34,0,,,,,,,,,,,,,,,,,745.4800419854,None,materials/speakPic.jpg,country,B_aloud1,34,73,741.8126329538645,None,741.8126329538645,None,742.729387634492,None,742.9958154506166,None,742.9958154506166,None,,,,,,,,,,,,,,,,,,,,,,,,,,,,,,,,,,,base9,001,2019_Oct_29_1355,ProdFawcett_Revision2019,3.2.4,59.98175587585188,
35,0,35,0,,,,,,,,,,,,,,,,,749.7480154879158,None,materials/readPic.jpg,finance,A_silent,35,129,746.0812685824349,None,746.0812685824349,None,746.9973763761809,None,747.2637936181854,None,747.2637936181854,None,,,,,,,,,,,,,,,,,,,,,,,,,,,,,,,,,,,base9,001,2019_Oct_29_1355,ProdFawcett_Revision2019,3.2.4,59.98175587585188,
36,0,36,0,,,,,,,,,,,,,,,,,754.015990856511,None,materials/readPic.jpg,drove,A_silent,36,106,750.3213335821056,None,750.3213335821056,None,751.2653700939263,None,751.5317916899803,None,751.5317916899803,None,,,,,,,,,,,,,,,,,,,,,,,,,,,,,,,,,,,base9,001,2019_Oct_29_1355,ProdFawcett_Revision2019,3.2.4,59.98175587585188,
37,0,37,0,,,,,,,,,,,,,,,,,758.2839861292159,None,materials/mumblePic.jpg,curve,C_aloud2,37,82,754.573598619143,None,754.573598619143,None,755.5333712756983,None,755.7997689245385,None,755.7997689245385,None,,,,,,,,,,,,,,,,,,,,,,,,,,,,,,,,,,,base9,001,2019_Oct_29_1355,ProdFawcett_Revision2019,3.2.4,59.98175587585188,
38,0,38,0,,,,,,,,,,,,,,,,,762.5519801579649,None,materials/speakPic.jpg,conference,B_aloud1,38,66,758.8846295950352,None,758.8846295950352,None,759.8014094669488,None,760.0677592212451,None,760.0677592212451,None,,,,,,,,,,,,,,,,,,,,,,,,,,,,,,,,,,,base9,001,2019_Oct_29_1355,ProdFawcett_Revision2019,3.2.4,59.98175587585188,
39,0,39,0,,,,,,,,,,,,,,,,,766.8199573925231,None,materials/speakPic.jpg,phrase,B_aloud1,39,220,763.1251169372117,None,763.1251169372117,None,764.0694321079645,None,764.3357594700065,None,764.3357594700065,None,,,,,,,,,,,,,,,,,,,,,,,,,,,,,,,,,,,base9,001,2019_Oct_29_1355,ProdFawcett_Revision2019,3.2.4,59.98175587585188,
40,0,40,0,,,,,,,,,,,,,,,,,771.0879626173992,None,materials/mumblePic.jpg,trail,C_aloud2,40,336,767.3766333892709,None,767.3766333892709,None,768.3373552279663,None,768.6037180444109,None,768.6037180444109,None,,,,,,,,,,,,,,,,,,,,,,,,,,,,,,,,,,,base9,001,2019_Oct_29_1355,ProdFawcett_Revision2019,3.2.4,59.98175587585188,
41,0,41,0,,,,,,,,,,,,,,,,,775.3559566461481,None,materials/mumblePic.jpg,tough,C_aloud2,41,333,771.6405672699912,None,771.6405672699912,None,772.6053648068337,None,772.8717189151794,None,772.8717189151794,None,,,,,,,,,,,,,,,,,,,,,,,,,,,,,,,,,,,base9,001,2019_Oct_29_1355,ProdFawcett_Revision2019,3.2.4,59.98175587585188,
42,0,42,0,,,,,,,,,,,,,,,,,779.6239127324661,None,materials/mumblePic.jpg,evidence,C_aloud2,42,120,775.9059560241294,None,775.9059560241294,None,776.8733815388405,None,777.1397001927835,None,777.1397001927835,None,,,,,,,,,,,,,,,,,,,,,,,,,,,,,,,,,,,base9,001,2019_Oct_29_1355,ProdFawcett_Revision2019,3.2.4,59.98175587585188,
43,0,43,0,,,,,,,,,,,,,,,,,783.8919139142963,None,materials/readPic.jpg,citizen,A_silent,43,50,780.2157924363855,None,780.2157924363855,None,781.1413307830808,None,781.409039932827,None,781.409039932827,None,,,,,,,,,,,,,,,,,,,,,,,,,,,,,,,,,,,base9,001,2019_Oct_29_1355,ProdFawcett_Revision2019,3.2.4,59.98175587585188,
44,0,44,0,,,,,,,,,,,,,,,,,788.1599091870012,None,materials/readPic.jpg,discussion,A_silent,44,96,784.465233874449,None,784.465233874449,None,785.4093826584285,None,785.675783417304,None,785.675783417304,None,,,,,,,,,,,,,,,,,,,,,,,,,,,,,,,,,,,base9,001,2019_Oct_29_1355,ProdFawcett_Revision2019,3.2.4,59.98175587585188,
45,0,45,0,,,,,,,,,,,,,,,,,792.4279156558914,None,materials/mumblePic.jpg,travel,C_aloud2,45,338,788.7281818747288,None,788.7281818747288,None,789.6773539839196,None,789.9436766809667,None,789.9436766809667,None,,,,,,,,,,,,,,,,,,,,,,,,,,,,,,,,,,,base9,001,2019_Oct_29_1355,ProdFawcett_Revision2019,3.2.4,59.98175587585188,
46,0,46,0,,,,,,,,,,,,,,,,,796.6959040865768,None,materials/readPic.jpg,heavy,A_silent,46,151,793.0285099832108,None,793.0285099832108,None,793.9453069602605,None,794.2116747527616,None,794.2116747527616,None,,,,,,,,,,,,,,,,,,,,,,,,,,,,,,,,,,,base9,001,2019_Oct_29_1355,ProdFawcett_Revision2019,3.2.4,59.98175587585188,
47,0,47,0,,,,,,,,,,,,,,,,,800.9638691919972,None,materials/speakPic.jpg,permit,B_aloud1,47,218,797.2835473035811,None,797.2835473035811,None,798.2132705106633,None,798.479661006364,None,798.479661006364,None,,,,,,,,,,,,,,,,,,,,,,,,,,,,,,,,,,,base9,001,2019_Oct_29_1355,ProdFawcett_Revision2019,3.2.4,59.98175587585188,
48,0,48,0,,,,,,,,,,,,,,,,,805.2318678857991,None,materials/readPic.jpg,material,A_silent,48,182,801.5650164831313,None,801.5650164831313,None,802.4812816445483,None,802.7476618771907,None,802.7476618771907,None,,,,,,,,,,,,,,,,,,,,,,,,,,,,,,,,,,,base9,001,2019_Oct_29_1355,ProdFawcett_Revision2019,3.2.4,59.98175587585188,
49,0,49,0,,,,,,,,,,,,,,,,,809.4998333022231,None,materials/speakPic.jpg,surprise,B_aloud1,49,317,805.8332698886516,None,805.8332698886516,None,806.7494050506502,None,807.0156388007454,None,807.0156388007454,None,,,,,,,,,,,,,,,,,,,,,,,,,,,,,,,,,,,base9,001,2019_Oct_29_1355,ProdFawcett_Revision2019,3.2.4,59.98175587585188,
50,0,50,0,,,,,,,,,,,,,,,,,813.7678326180321,None,materials/speakPic.jpg,shock,B_aloud1,50,284,810.0720100142644,None,810.0720100142644,None,811.0172641039826,None,811.2836132362718,None,811.2836132362718,None,,,,,,,,,,,,,,,,,,,,,,,,,,,,,,,,,,,base9,001,2019_Oct_29_1355,ProdFawcett_Revision2019,3.2.4,59.98175587585188,
51,0,51,0,,,,,,,,,,,,,,,,,818.0358409528853,None,materials/mumblePic.jpg,childhood,C_aloud2,51,49,814.3245748584741,None,814.3245748584741,None,815.2852668408304,None,815.5516315232962,None,815.5516315232962,None,,,,,,,,,,,,,,,,,,,,,,,,,,,,,,,,,,,base9,001,2019_Oct_29_1355,ProdFawcett_Revision2019,3.2.4,59.98175587585188,
52,0,52,0,,,,,,,,,,,,,,,,,822.3038069913164,None,materials/mumblePic.jpg,cross,C_aloud2,52,80,818.5877035516314,None,818.5877035516314,None,819.5533093860722,None,819.8196155999321,None,819.8196155999321,None,,,,,,,,,,,,,,,,,,,,,,,,,,,,,,,,,,,base9,001,2019_Oct_29_1355,ProdFawcett_Revision2019,3.2.4,59.98175587585188,
53,0,53,0,,,,,,,,,,,,,,,,,826.5718059961218,None,materials/speakPic.jpg,style,B_aloud1,53,311,822.8941360328463,None,822.8941360328463,None,823.8212573862984,None,824.0876096286229,None,824.0876096286229,None,,,,,,,,,,,,,,,,,,,,,,,,,,,,,,,,,,,base9,001,2019_Oct_29_1355,ProdFawcett_Revision2019,3.2.4,59.98175587585188,
54,0,54,0,,,,,,,,,,,,,,,,,830.8398034459096,None,materials/readPic.jpg,marriage,A_silent,54,179,827.1731290041353,None,827.1731290041353,None,828.0892881134059,None,828.3555787770892,None,828.3555787770892,None,,,,,,,,,,,,,,,,,,,,,,,,,,,,,,,,,,,base9,001,2019_Oct_29_1355,ProdFawcett_Revision2019,3.2.4,59.98175587585188,
55,0,55,0,,,,,,,,,,,,,,,,,835.107772594376,None,materials/speakPic.jpg,corner,B_aloud1,55,69,831.4609333208646,None,831.4609333208646,None,832.3572793431231,None,832.6235644087428,None,832.6235644087428,None,,,,,,,,,,,,,,,,,,,,,,,,,,,,,,,,,,,base9,001,2019_Oct_29_1355,ProdFawcett_Revision2019,3.2.4,59.98175587585188,
56,0,56,0,,,,,,,,,,,,,,,,,839.3757821732434,None,materials/mumblePic.jpg,piece,C_aloud2,56,221,835.693561609718,None,835.693561609718,None,836.6252578216954,None,836.8915590594988,None,836.8915590594988,None,,,,,,,,,,,,,,,,,,,,,,,,,,,,,,,,,,,base9,001,2019_Oct_29_1355,ProdFawcett_Revision2019,3.2.4,59.98175587585188,
57,0,57,0,,,,,,,,,,,,,,,,,843.6437488337397,None,materials/speakPic.jpg,region,B_aloud1,57,256,839.9636953411391,None,839.9636953411391,None,840.8932216831017,None,841.1595397150959,None,841.1595397150959,None,,,,,,,,,,,,,,,,,,,,,,,,,,,,,,,,,,,base9,001,2019_Oct_29_1355,ProdFawcett_Revision2019,3.2.4,59.98175587585188,
58,0,58,0,,,,,,,,,,,,,,,,,847.9117360204109,None,materials/speakPic.jpg,general,B_aloud1,58,135,844.2109118616208,None,844.2109118616208,None,845.1611979847075,None,845.4275284567848,None,845.4275284567848,None,,,,,,,,,,,,,,,,,,,,,,,,,,,,,,,,,,,base9,001,2019_Oct_29_1355,ProdFawcett_Revision2019,3.2.4,59.98175587585188,
59,0,59,0,,,,,,,,,,,,,,,,,852.1797297380981,None,materials/mumblePic.jpg,business,C_aloud2,59,38,848.4797319151112,None,848.4797319151112,None,849.4292719412479,None,849.6955122224172,None,849.6955122224172,None,,,,,,,,,,,,,,,,,,,,,,,,,,,,,,,,,,,base9,001,2019_Oct_29_1355,ProdFawcett_Revision2019,3.2.4,59.98175587585188,
60,0,60,0,,,,,,,,,,,,,,,,,856.4477222118294,None,materials/mumblePic.jpg,goose,C_aloud2,60,138,852.7297595944256,None,852.7297595944256,None,853.6971736020059,None,853.9635183803039,None,853.9635183803039,None,,,,,,,,,,,,,,,,,,,,,,,,,,,,,,,,,,,base9,001,2019_Oct_29_1355,ProdFawcett_Revision2019,3.2.4,59.98175587585188,
61,0,61,0,,,,,,,,,,,,,,,,,860.7156913602958,None,materials/readPic.jpg,junior,A_silent,61,167,857.0484005100443,None,857.0484005100443,None,857.9651458605076,None,858.2315680786269,None,858.2315680786269,None,,,,,,,,,,,,,,,,,,,,,,,,,,,,,,,,,,,base9,001,2019_Oct_29_1355,ProdFawcett_Revision2019,3.2.4,59.98175587585188,
62,0,62,0,,,,,,,,,,,,,,,,,864.9836888100835,None,materials/readPic.jpg,atmosphere,A_silent,62,12,861.2989879952511,None,861.2989879952511,None,862.233168190578,None,862.4994936865987,None,862.4994936865987,None,,,,,,,,,,,,,,,,,,,,,,,,,,,,,,,,,,,base9,001,2019_Oct_29_1355,ProdFawcett_Revision2019,3.2.4,59.98175587585188,
63,0,63,0,,,,,,,,,,,,,,,,,869.2516896809102,None,materials/readPic.jpg,audience,A_silent,63,14,865.5711239658995,None,865.5711239658995,None,866.5011370280408,None,866.7674709211569,None,866.7674709211569,None,,,,,,,,,,,,,,,,,,,,,,,,,,,,,,,,,,,base9,001,2019_Oct_29_1355,ProdFawcett_Revision2019,3.2.4,59.98175587585188,
64,0,64,0,,,,,,,,,,,,,,,,,873.5196703365073,None,materials/readPic.jpg,meeting,A_silent,64,187,869.8349776077666,None,869.8349776077666,None,870.7691674441448,None,871.0354655719129,None,871.0354655719129,None,,,,,,,,,,,,,,,,,,,,,,,,,,,,,,,,,,,base9,001,2019_Oct_29_1355,ProdFawcett_Revision2019,3.2.4,59.98175587585188,
65,0,65,0,,,,,,,,,,,,,,,,,877.787657834182,None,materials/readPic.jpg,review,A_silent,65,263,874.0941217266954,None,874.0941217266954,None,875.0371325495653,None,875.3035830689478,None,875.3035830689478,None,,,,,,,,,,,,,,,,,,,,,,,,,,,,,,,,,,,base9,001,2019_Oct_29_1355,ProdFawcett_Revision2019,3.2.4,59.98175587585188,
66,0,66,0,,,,,,,,,,,,,,,,,882.0556338247261,None,materials/readPic.jpg,build,A_silent,66,35,878.3602481806302,None,878.3602481806302,None,879.3056254276307,None,879.5714374572271,None,879.5714374572271,None,,,,,,,,,,,,,,,,,,,,,,,,,,,,,,,,,,,base9,001,2019_Oct_29_1355,ProdFawcett_Revision2019,3.2.4,59.98175587585188,
67,0,67,0,,,,,,,,,,,,,,,,,886.323634384491,None,materials/speakPic.jpg,touch,B_aloud1,67,332,882.6571533867973,None,882.6571533867973,None,883.5731535733794,None,883.8394184238277,None,883.8394184238277,None,,,,,,,,,,,,,,,,,,,,,,,,,,,,,,,,,,,base9,001,2019_Oct_29_1355,ProdFawcett_Revision2019,3.2.4,59.98175587585188,
68,0,68,0,,,,,,,,,,,,,,,,,890.5916514275013,None,materials/readPic.jpg,prime,A_silent,68,235,886.9584577346104,None,886.9584577346104,None,887.8410807364271,None,888.1074311127304,None,888.1074311127304,None,,,,,,,,,,,,,,,,,,,,,,,,,,,,,,,,,,,base9,001,2019_Oct_29_1355,ProdFawcett_Revision2019,3.2.4,59.98175587585188,
69,0,69,0,,,,,,,,,,,,,,,,,894.8596028487664,None,materials/mumblePic.jpg,place,C_aloud2,69,222,891.1765124090016,None,891.1765124090016,None,892.1090943583986,None,892.3754127013381,None,892.3754127013381,None,,,,,,,,,,,,,,,,,,,,,,,,,,,,,,,,,,,base9,001,2019_Oct_29_1355,ProdFawcett_Revision2019,3.2.4,59.98175587585188,
70,0,70,0,,,,,,,,,,,,,,,,,899.1275455619907,None,materials/readPic.jpg,congress,A_silent,70,67,895.5103029172169,None,895.5103029172169,None,896.377010947268,None,896.6434092181153,None,896.6434092181153,None,,,,,,,,,,,,,,,,,,,,,,,,,,,,,,,,,,,base9,001,2019_Oct_29_1355,ProdFawcett_Revision2019,3.2.4,59.98175587585188,
71,0,71,0,,,,,,,,,,,,,,,,,903.395604901365,None,materials/mumblePic.jpg,bitter,C_aloud2,71,23,899.6959619331756,None,899.6959619331756,None,900.6450715307146,None,900.9113886296982,None,900.9113886296982,None,,,,,,,,,,,,,,,,,,,,,,,,,,,,,,,,,,,base9,001,2019_Oct_29_1355,ProdFawcett_Revision2019,3.2.4,59.98175587585188,
72,0,72,0,,,,,,,,,,,,,,,,,907.663590222015,None,materials/speakPic.jpg,quick,B_aloud1,72,248,903.9816147290985,None,903.9816147290985,None,904.913019530999,None,905.1793590221787,None,905.1793590221787,None,,,,,,,,,,,,,,,,,,,,,,,,,,,,,,,,,,,base9,001,2019_Oct_29_1355,ProdFawcett_Revision2019,3.2.4,59.98175587585188,
73,0,73,0,,,,,,,,,,,,,,,,,911.9315313802217,None,materials/speakPic.jpg,watch,B_aloud1,73,351,908.2318762828945,None,908.2318762828945,None,909.1809790383559,None,909.4473546059453,None,909.4473546059453,None,,,,,,,,,,,,,,,,,,,,,,,,,,,,,,,,,,,base9,001,2019_Oct_29_1355,ProdFawcett_Revision2019,3.2.4,59.98175587585188,
74,0,74,0,,,,,,,,,,,,,,,,,916.1995390930679,None,materials/speakPic.jpg,match,B_aloud1,74,181,912.5148572494509,None,912.5148572494509,None,913.4490800522035,None,913.7153644958162,None,913.7153644958162,None,,,,,,,,,,,,,,,,,,,,,,,,,,,,,,,,,,,base9,001,2019_Oct_29_1355,ProdFawcett_Revision2019,3.2.4,59.98175587585188,
75,0,75,0,,,,,,,,,,,,,,,,,920.4675405859016,None,materials/mumblePic.jpg,resistance,C_aloud2,75,262,916.7675368538476,None,916.7675368538476,None,917.7171484107384,None,917.9833271132666,None,917.9833271132666,None,,,,,,,,,,,,,,,,,,,,,,,,,,,,,,,,,,,base9,001,2019_Oct_29_1355,ProdFawcett_Revision2019,3.2.4,59.98175587585188,
76,0,76,0,,,,,,,,,,,,,,,,,924.7354842321365,None,materials/speakPic.jpg,private,B_aloud1,76,237,921.0536256764317,None,921.0536256764317,None,921.9849925359013,None,922.2513183429837,None,922.2513183429837,None,,,,,,,,,,,,,,,,,,,,,,,,,,,,,,,,,,,base9,001,2019_Oct_29_1355,ProdFawcett_Revision2019,3.2.4,59.98175587585188,
77,0,77,0,,,,,,,,,,,,,,,,,929.0034938110039,None,materials/readPic.jpg,provision,A_silent,77,243,925.3369070721674,None,925.3369070721674,None,926.2529921627138,None,926.5193232567981,None,926.5193232567981,None,,,,,,,,,,,,,,,,,,,,,,,,,,,,,,,,,,,base9,001,2019_Oct_29_1355,ProdFawcett_Revision2019,3.2.4,59.98175587585188,
78,0,78,0,,,,,,,,,,,,,,,,,933.2715099210036,None,materials/readPic.jpg,space,A_silent,78,297,929.588021086005,None,929.588021086005,None,930.52095073706,None,930.787293338275,None,930.787293338275,None,,,,,,,,,,,,,,,,,,,,,,,,,,,,,,,,,,,base9,001,2019_Oct_29_1355,ProdFawcett_Revision2019,3.2.4,59.98175587585188,
79,0,79,0,,,,,,,,,,,,,,,,,937.5394986626925,None,materials/speakPic.jpg,accident,B_aloud1,79,0,933.859321701806,None,933.859321701806,None,934.7891095975647,None,935.0552786589251,None,935.0552786589251,None,,,,,,,,,,,,,,,,,,,,,,,,,,,,,,,,,,,base9,001,2019_Oct_29_1355,ProdFawcett_Revision2019,3.2.4,59.98175587585188,
80,0,80,0,,,,,,,,,,,,,,,,,941.8074488399434,None,materials/readPic.jpg,career,A_silent,80,42,938.1410315979156,None,938.1410315979156,None,939.0569142252789,None,939.3232969459496,None,939.3232969459496,None,,,,,,,,,,,,,,,,,,,,,,,,,,,,,,,,,,,base9,001,2019_Oct_29_1355,ProdFawcett_Revision2019,3.2.4,59.98175587585188,
81,0,81,0,,,,,,,,,,,,,,,,,946.0754556198372,None,materials/mumblePic.jpg,split,C_aloud2,81,299,942.3761547552422,None,942.3761547552422,None,943.3249427753617,None,943.5912433911581,None,943.5912433911581,None,,,,,,,,,,,,,,,,,,,,,,,,,,,,,,,,,,,base9,001,2019_Oct_29_1355,ProdFawcett_Revision2019,3.2.4,59.98175587585188,
82,0,82,0,,,,,,,,,,,,,,,,,950.3434711077716,None,materials/mumblePic.jpg,whole,C_aloud2,82,355,946.6255168874632,None,946.6255168874632,None,947.5929716365063,None,947.8592548361048,None,947.8592548361048,None,,,,,,,,,,,,,,,,,,,,,,,,,,,,,,,,,,,base9,001,2019_Oct_29_1355,ProdFawcett_Revision2019,3.2.4,59.98175587585188,
83,0,83,0,,,,,,,,,,,,,,,,,954.6114415002521,None,materials/speakPic.jpg,crowd,B_aloud1,83,81,950.9305137774209,None,950.9305137774209,None,951.8608891583863,None,952.1272423337214,None,952.1272423337214,None,,,,,,,,,,,,,,,,,,,,,,,,,,,,,,,,,,,base9,001,2019_Oct_29_1355,ProdFawcett_Revision2019,3.2.4,59.98175587585188,
84,0,84,0,,,,,,,,,,,,,,,,,958.8794165577856,None,materials/readPic.jpg,portion,A_silent,84,228,955.2029122348758,None,955.2029122348758,None,956.1289907942992,None,956.3952217453043,None,956.3952217453043,None,,,,,,,,,,,,,,,,,,,,,,,,,,,,,,,,,,,base9,001,2019_Oct_29_1355,ProdFawcett_Revision2019,3.2.4,59.98175587585188,
85,0,85,0,,,,,,,,,,,,,,,,,963.1474146295805,None,materials/speakPic.jpg,foundation,B_aloud1,85,132,959.4810241338564,None,959.4810241338564,None,960.396916402271,None,960.6633096970618,None,960.6633096970618,None,,,,,,,,,,,,,,,,,,,,,,,,,,,,,,,,,,,base9,001,2019_Oct_29_1355,ProdFawcett_Revision2019,3.2.4,59.98175587585188,
86,0,86,0,,,,,,,,,,,,,,,,,967.4154210984707,None,materials/speakPic.jpg,opening,B_aloud1,86,205,963.7215938918525,None,963.7215938918525,None,964.664870622626,None,964.9311948746326,None,964.9311948746326,None,,,,,,,,,,,,,,,,,,,,,,,,,,,,,,,,,,,base9,001,2019_Oct_29_1355,ProdFawcett_Revision2019,3.2.4,59.98175587585188,
87,0,87,0,,,,,,,,,,,,,,,,,971.6834166821791,None,materials/speakPic.jpg,rural,B_aloud1,87,269,967.9536738819443,None,967.9536738819443,None,968.9329489332158,None,969.1992056975723,None,969.1992056975723,None,,,,,,,,,,,,,,,,,,,,,,,,,,,,,,,,,,,base9,001,2019_Oct_29_1355,ProdFawcett_Revision2019,3.2.4,59.98175587585188,
88,0,88,0,,,,,,,,,,,,,,,,,975.9513830316137,None,materials/mumblePic.jpg,south,C_aloud2,88,296,972.2401107171318,None,972.2401107171318,None,973.2010008085635,None,973.4671608508797,None,973.4671608508797,None,,,,,,,,,,,,,,,,,,,,,,,,,,,,,,,,,,,base9,001,2019_Oct_29_1355,ProdFawcett_Revision2019,3.2.4,59.98175587585188,
89,0,89,0,,,,,,,,,,,,,,,,,980.2193695962778,None,materials/speakPic.jpg,mankind,B_aloud1,89,178,976.543389624916,None,976.543389624916,None,977.4689786651288,None,977.7351769608795,None,977.7351769608795,None,,,,,,,,,,,,,,,,,,,,,,,,,,,,,,,,,,,base9,001,2019_Oct_29_1355,ProdFawcett_Revision2019,3.2.4,59.98175587585188,
,,,,,,,,,,,,,,,,,,,,,,,,,,,,,,,,,,,,,980.7195238539134,None,k,84.15330161096063,980.7195238539134,None,,,,,,,,,,,,,,,,,,,,,,,,,,,,,base9,001,2019_Oct_29_1355,ProdFawcett_Revision2019,3.2.4,59.98175587585188,
,,,,,,,,,,,,,,1064.895601791388,None,space,3.4011479131877422,1064.895601791388,None,,,,,,,,,,,,,,,,,,,,,,,,,,,,,,,,,,,,,,,,,,,,,,,,,,,,base9,001,2019_Oct_29_1355,ProdFawcett_Revision2019,3.2.4,59.98175587585188,
,,,,0,0,0,0,,,,,,,,,,,,,1078.6510496361298,None,,,,,,,,,,,,,,,,,,,,,,atmosphere,A_silent,0,12,1068.8351629656972,None,1068.8351629656972,None,1068.8351629656972,None,6,7.532767307362519,1068.8351629656972,None,1076.4323825962492,None,1076.4323825962492,None,1076.9517431734712,None,1076.9517431734712,None,1076.9517431734712,None,r,1.664586987637449,1076.9517431734712,None,base9,001,2019_Oct_29_1355,ProdFawcett_Revision2019,3.2.4,59.98175587585188,
,,,,1,0,1,0,,,,,,,,,,,,,1083.417895751656,None,,,,,,,,,,,,,,,,,,,,,,dream,D_new,1,104,1079.1666259252233,None,1079.1666259252233,None,1079.1666259252233,None,1,2.2578431921429,1079.1666259252233,None,1081.4838956272579,None,1081.4838956272579,None,1082.0007921253564,None,1082.0007921253564,None,1082.0007921253564,None,n,1.3756534178974107,1082.0007921253564,None,base9,001,2019_Oct_29_1355,ProdFawcett_Revision2019,3.2.4,59.98175587585188,
,,,,2,0,2,0,,,,,,,,,,,,,1090.2867077190895,None,,,,,,,,,,,,,,,,,,,,,,birth,D_new,2,22,1083.937246998772,None,1083.937246998772,None,1083.937246998772,None,2,4.317983143613674,1083.937246998772,None,1088.3192853144137,None,1088.3192853144137,None,1088.83626422839,None,1088.83626422839,None,1088.83626422839,None,f,1.4028553212992847,1088.83626422839,None,base9,001,2019_Oct_29_1355,ProdFawcett_Revision2019,3.2.4,59.98175587585188,
,,,,3,0,3,0,,,,,,,,,,,,,1096.0717882689205,None,,,,,,,,,,,,,,,,,,,,,,population,D_new,3,227,1090.8055479878094,None,1090.8055479878094,None,1090.8055479878094,None,5,3.090223611390684,1090.8055479878094,None,1093.9545067487634,None,1093.9545067487634,None,1094.4711678173626,None,1094.4711678173626,None,1094.4711678173626,None,f,1.5676118056289852,1094.4711678173626,None,base9,001,2019_Oct_29_1355,ProdFawcett_Revision2019,3.2.4,59.98175587585188,
,,,,4,0,4,0,,,,,,,,,,,,,1101.173419170198,None,,,,,,,,,,,,,,,,,,,,,,harmony,D_new,4,148,1096.5887199104181,None,1096.5887199104181,None,1096.5887199104181,None,1,2.8266162841464393,1096.5887199104181,None,1099.4728578092763,None,1099.4728578092763,None,1099.989533184038,None,1099.989533184038,None,1099.989533184038,None,n,1.1453794240369461,1099.989533184038,None,base9,001,2019_Oct_29_1355,ProdFawcett_Revision2019,3.2.4,59.98175587585188,
,,,,5,0,5,0,,,,,,,,,,,,,1106.091595135862,None,,,,,,,,,,,,,,,,,,,,,,debate,D_new,5,87,1101.6905097343842,None,1101.6905097343842,None,1101.6905097343842,None,1,2.932036449550651,1101.6905097343842,None,1104.6744342849706,None,1104.6744342849706,None,1105.191441811272,None,1105.191441811272,None,1105.191441811272,None,n,0.8628839335869998,1105.191441811272,None,base9,001,2019_Oct_29_1355,ProdFawcett_Revision2019,3.2.4,59.98175587585188,
,,,,6,0,6,0,,,,,,,,,,,,,1112.6269391055102,None,,,,,,,,,,,,,,,,,,,,,,household,D_new,6,154,1106.6091133295558,None,1106.6091133295558,None,1106.6091133295558,None,1,4.917349940922577,1106.6091133295558,None,1111.5765379112563,None,1111.5765379112563,None,1112.0934487155173,None,1112.0934487155173,None,1112.0934487155173,None,n,0.4883697206969373,1112.0934487155173,None,base9,001,2019_Oct_29_1355,ProdFawcett_Revision2019,3.2.4,59.98175587585188,
,,,,7,0,7,0,,,,,,,,,,,,,1116.3613643714343,None,,,,,,,,,,,,,,,,,,,,,,bureau,D_new,7,37,1113.1437112023123,None,1113.1437112023123,None,1113.1437112023123,None,1,2.182244510797318,1113.1437112023123,None,1115.377654724114,None,1115.377654724114,None,1115.8945866766153,None,1115.8945866766153,None,1115.8945866766153,None,n,0.43118741060607135,1115.8945866766153,None,base9,001,2019_Oct_29_1355,ProdFawcett_Revision2019,3.2.4,59.98175587585188,
,,,,8,0,8,0,,,,,,,,,,,,,1122.0465478633996,None,,,,,,,,,,,,,,,,,,,,,,capital,D_new,8,40,1116.878430055338,None,1116.878430055338,None,1116.878430055338,None,2,3.815303539216984,1116.878430055338,None,1120.7318361634389,None,1120.7318361634389,None,1121.2462906636647,None,1121.2462906636647,None,1121.2462906636647,None,f,0.767149654799141,1121.2462906636647,None,base9,001,2019_Oct_29_1355,ProdFawcett_Revision2019,3.2.4,59.98175587585188,
,,,,9,0,9,0,,,,,,,,,,,,,1125.4308064315119,None,,,,,,,,,,,,,,,,,,,,,,south,C_aloud2,9,296,1122.5635507245897,None,1122.5635507245897,None,1122.5635507245897,None,6,1.850121291296091,1122.5635507245897,None,1124.4639497418539,None,1124.4639497418539,None,1124.9806571499212,None,1124.9806571499212,None,1124.9806571499212,None,r,0.41697113891132176,1124.9806571499212,None,base9,001,2019_Oct_29_1355,ProdFawcett_Revision2019,3.2.4,59.98175587585188,
,,,,10,0,10,0,,,,,,,,,,,,,1128.9985180692747,None,,,,,,,,,,,,,,,,,,,,,,rapid,D_new,10,252,1125.9476783603895,None,1125.9476783603895,None,1125.9476783603895,None,1,1.5853256204281934,1125.9476783603895,None,1127.5882170180557,None,1127.5882170180557,None,1128.1150799278403,None,1128.1150799278403,None,1128.1150799278403,None,n,0.8503256204421632,1128.1150799278403,None,base9,001,2019_Oct_29_1355,ProdFawcett_Revision2019,3.2.4,59.98175587585188,
,,,,11,0,11,0,,,,,,,,,,,,,1141.3691428749007,None,,,,,,,,,,,,,,,,,,,,,,detective,D_new,11,92,1129.5172407787177,None,1129.5172407787177,None,1129.5172407787177,None,1,10.527326304640155,1129.5172407787177,None,1140.1020352055784,None,1140.1020352055784,None,1140.6188900292036,None,1140.6188900292036,None,1140.6188900292036,None,n,0.7055022703134455,1140.6188900292036,None,base9,001,2019_Oct_29_1355,ProdFawcett_Revision2019,3.2.4,59.98175587585188,
,,,,12,0,12,0,,,,,,,,,,,,,1145.3536334515084,None,,,,,,,,,,,,,,,,,,,,,,error,A_silent,12,117,1141.8863637494505,None,1141.8863637494505,None,1141.8863637494505,None,1,2.317714436794631,1141.8863637494505,None,1144.2700167941512,None,1144.2700167941512,None,1144.7869002301013,None,1144.7869002301013,None,1144.7869002301013,None,n,0.5210225788177922,1144.7869002301013,None,base9,001,2019_Oct_29_1355,ProdFawcett_Revision2019,3.2.4,59.98175587585188,
,,,,13,0,13,0,,,,,,,,,,,,,1148.8214010698139,None,,,,,,,,,,,,,,,,,,,,,,angle,C_aloud2,13,7,1145.8710636312608,None,1145.8710636312608,None,1145.8710636312608,None,6,1.957554270105902,1145.8710636312608,None,1147.887879268499,None,1147.887879268499,None,1148.4045761025045,None,1148.4045761025045,None,1148.4045761025045,None,r,0.3757594700437039,1148.4045761025045,None,base9,001,2019_Oct_29_1355,ProdFawcett_Revision2019,3.2.4,59.98175587585188,
,,,,14,0,14,0,,,,,,,,,,,,,1152.7726802263642,None,,,,,,,,,,,,,,,,,,,,,,little,C_aloud2,14,174,1149.338262735575,None,1149.338262735575,None,1149.338262735575,None,1,2.281507743988186,1149.338262735575,None,1151.6723741991445,None,1151.6723741991445,None,1152.1890458418638,None,1152.1890458418638,None,1152.1890458418638,None,n,0.5506254276260734,1152.1890458418638,None,base9,001,2019_Oct_29_1355,ProdFawcett_Revision2019,3.2.4,59.98175587585188,
,,,,15,0,15,0,,,,,,,,,,,,,1156.5571652049548,None,,,,,,,,,,,,,,,,,,,,,,colonel,D_new,15,55,1153.290702245431,None,1153.290702245431,None,1153.290702245431,None,1,2.280941718025133,1153.290702245431,None,1155.6113531753072,None,1155.6113531753072,None,1156.1236782359774,None,1156.1236782359774,None,1156.1236782359774,None,n,0.400180070893839,1156.1236782359774,None,base9,001,2019_Oct_29_1355,ProdFawcett_Revision2019,3.2.4,59.98175587585188,
,,,,16,0,16,0,,,,,,,,,,,,,1159.8582201281097,None,,,,,,,,,,,,,,,,,,,,,,suspect,D_new,16,318,1157.07526777382,None,1157.07526777382,None,1157.07526777382,None,1,1.5359056415618397,1157.07526777382,None,1158.6744787584757,None,1158.6744787584757,None,1159.1913746345672,None,1159.1913746345672,None,1159.1913746345672,None,n,0.6197138769784942,1159.1913746345672,None,base9,001,2019_Oct_29_1355,ProdFawcett_Revision2019,3.2.4,59.98175587585188,
,,,,17,0,17,0,,,,,,,,,,,,,1169.86134726624,None,,,,,,,,,,,,,,,,,,,,,,course,D_new,17,74,1160.376089755504,None,1160.376089755504,None,1160.376089755504,None,2,5.5308826273540035,1160.376089755504,None,1165.960351744725,None,1165.960351744725,None,1166.4769403495593,None,1166.4769403495593,None,1166.4769403495593,None,f,3.3424864713451825,1166.4769403495593,None,base9,001,2019_Oct_29_1355,ProdFawcett_Revision2019,3.2.4,59.98175587585188,
,,,,18,0,18,0,,,,,,,,,,,,,1177.7136194563354,None,,,,,,,,,,,,,,,,,,,,,,citizen,A_silent,18,50,1170.3837718479335,None,1170.3837718479335,None,1170.3837718479335,None,3,6.418853952840436,1170.3837718479335,None,1176.8513043478015,None,1176.8513043478015,None,1177.367265658977,None,1177.367265658977,None,1177.367265658977,None,f,0.30733065865933895,1177.367265658977,None,base9,001,2019_Oct_29_1355,ProdFawcett_Revision2019,3.2.4,59.98175587585188,
,,,,19,0,19,0,,,,,,,,,,,,,1185.082696709549,None,,,,,,,,,,,,,,,,,,,,,,territory,D_new,19,324,1178.2309056415688,None,1178.2309056415688,None,1178.2309056415688,None,1,5.538770915009081,1178.2309056415688,None,1183.832221496501,None,1183.832221496501,None,1184.3490483298665,None,1184.3490483298665,None,1184.3490483298665,None,n,0.6932188841165043,1184.3490483298665,None,base9,001,2019_Oct_29_1355,ProdFawcett_Revision2019,3.2.4,59.98175587585188,
,,,,20,0,20,0,,,,,,,,,,,,,1188.4670628848253,None,,,,,,,,,,,,,,,,,,,,,,owner,D_new,20,208,1185.599502705736,None,1185.599502705736,None,1185.599502705736,None,1,1.7066106860875152,1185.599502705736,None,1187.3668877899763,None,1187.3668877899763,None,1187.8834406294627,None,1187.8834406294627,None,1187.8834406294627,None,n,0.5427517571952194,1187.8834406294627,None,base9,001,2019_Oct_29_1355,ProdFawcett_Revision2019,3.2.4,59.98175587585188,
,,,,21,0,21,0,,,,,,,,,,,,,1193.9521319275955,None,,,,,,,,,,,,,,,,,,,,,,order,D_new,21,207,1188.9845484232064,None,1188.9845484232064,None,1188.9845484232064,None,3,4.0889391677919775,1188.9845484232064,None,1193.1350746407988,None,1193.1350746407988,None,1193.652042980655,None,1193.652042980655,None,1193.652042980655,None,f,0.2530674255103804,1193.652042980655,None,base9,001,2019_Oct_29_1355,ProdFawcett_Revision2019,3.2.4,59.98175587585188,
,,,,22,0,22,0,,,,,,,,,,,,,1200.1040327797527,None,,,,,,,,,,,,,,,,,,,,,,broke,D_new,22,32,1194.4693733283202,None,1194.4693733283202,None,1194.4693733283202,None,2,4.676355663337745,1194.4693733283202,None,1199.2036975181545,None,1199.2036975181545,None,1199.7205738010816,None,1199.7205738010816,None,1199.7205738010816,None,f,0.3361783914733678,1199.7205738010816,None,base9,001,2019_Oct_29_1355,ProdFawcett_Revision2019,3.2.4,59.98175587585188,
,,,,23,0,23,0,,,,,,,,,,,,,1204.9721925732447,None,,,,,,,,,,,,,,,,,,,,,,tragedy,D_new,23,335,1200.6213466442423,None,1200.6213466442423,None,1200.6213466442423,None,5,3.355201219150331,1200.6213466442423,None,1204.0272370466846,None,1204.0272370466846,None,1204.5553542327252,None,1204.5553542327252,None,1204.5553542327252,None,f,0.3739338807063177,1204.5553542327252,None,base9,001,2019_Oct_29_1355,ProdFawcett_Revision2019,3.2.4,59.98175587585188,
,,,,24,0,24,0,,,,,,,,,,,,,1209.140189711994,None,,,,,,,,,,,,,,,,,,,,,,tough,C_aloud2,24,333,1205.4893369409256,None,1205.4893369409256,None,1205.4893369409256,None,6,2.167279965186026,1205.4893369409256,None,1207.6926248677773,None,1207.6926248677773,None,1208.2232282141922,None,1208.2232282141922,None,1208.2232282141922,None,r,0.8737979722791351,1208.2232282141922,None,base9,001,2019_Oct_29_1355,ProdFawcett_Revision2019,3.2.4,59.98175587585188,
,,,,25,0,25,0,,,,,,,,,,,,,1219.3432860607863,None,,,,,,,,,,,,,,,,,,,,,,industry,D_new,25,161,1209.6575831933878,None,1209.6575831933878,None,1209.6575831933878,None,3,8.806127386982553,1209.6575831933878,None,1218.5159594451543,None,1218.5159594451543,None,1219.0432132860296,None,1219.0432132860296,None,1219.0432132860296,None,f,0.2608288237825036,1219.0432132860296,None,base9,001,2019_Oct_29_1355,ProdFawcett_Revision2019,3.2.4,59.98175587585188,
,,,,26,0,26,0,,,,,,,,,,,,,1222.3442470610025,None,,,,,,,,,,,,,,,,,,,,,,resistance,C_aloud2,26,262,1219.8620989612537,None,1219.8620989612537,None,1219.8620989612537,None,6,1.5775169496773742,1219.8620989612537,None,1221.493885053147,None,1221.493885053147,None,1222.0140875162906,None,1222.0140875162906,None,1222.0140875162906,None,r,0.2896202649571933,1222.0140875162906,None,base9,001,2019_Oct_29_1355,ProdFawcett_Revision2019,3.2.4,59.98175587585188,
,,,,27,0,27,0,,,,,,,,,,,,,1225.845335883554,None,,,,,,,,,,,,,,,,,,,,,,height,A_silent,27,152,1222.8609501150786,None,1222.8609501150786,None,1222.8609501150786,None,6,2.0184449835214764,1222.8609501150786,None,1224.9345947626862,None,1224.9345947626862,None,1225.461878148897,None,1225.461878148897,None,1225.461878148897,None,r,0.345473658060655,1225.461878148897,None,base9,001,2019_Oct_29_1355,ProdFawcett_Revision2019,3.2.4,59.98175587585188,
,,,,28,0,28,0,,,,,,,,,,,,,1229.3464016918442,None,,,,,,,,,,,,,,,,,,,,,,testimony,D_new,28,325,1226.3629585743183,None,1226.3629585743183,None,1226.3629585743183,None,1,1.7569733159034513,1226.3629585743183,None,1228.1793957205955,None,1228.1793957205955,None,1228.696248989203,None,1228.696248989203,None,1228.696248989203,None,n,0.6077788144466467,1228.696248989203,None,base9,001,2019_Oct_29_1355,ProdFawcett_Revision2019,3.2.4,59.98175587585188,
,,,,29,0,29,0,,,,,,,,,,,,,1232.480752938951,None,,,,,,,,,,,,,,,,,,,,,,people,A_silent,29,216,1229.8638045032858,None,1229.8638045032858,None,1229.8638045032858,None,6,1.8632817067555152,1229.8638045032858,None,1231.7804481557105,None,1231.7804481557105,None,1232.2973508738796,None,1232.2973508738796,None,1232.2973508738796,None,r,0.14241587358992547,1232.2973508738796,None,base9,001,2019_Oct_29_1355,ProdFawcett_Revision2019,3.2.4,59.98175587585188,
,,,,30,0,30,0,,,,,,,,,,,,,1235.2815466193715,None,,,,,,,,,,,,,,,,,,,,,,medicine,C_aloud2,30,186,1232.9979946507374,None,1232.9979946507374,None,1232.9979946507374,None,6,1.3527872115373611,1232.9979946507374,None,1234.414775766607,None,1234.414775766607,None,1234.9314943708014,None,1234.9314943708014,None,1234.9314943708014,None,r,0.3157296137069352,1234.9314943708014,None,base9,001,2019_Oct_29_1355,ProdFawcett_Revision2019,3.2.4,59.98175587585188,
,,,,31,0,31,0,,,,,,,,,,,,,1238.465895067493,None,,,,,,,,,,,,,,,,,,,,,,junior,A_silent,31,167,1235.7991969894501,None,1235.7991969894501,None,1235.7991969894501,None,6,1.4159103066194803,1235.7991969894501,None,1237.2654714809614,None,1237.2654714809614,None,1237.7827679293114,None,1237.7827679293114,None,1237.7827679293114,None,r,0.648022641078569,1237.7827679293114,None,base9,001,2019_Oct_29_1355,ProdFawcett_Revision2019,3.2.4,59.98175587585188,
,,,,32,0,32,0,,,,,,,,,,,,,1242.300298252143,None,,,,,,,,,,,,,,,,,,,,,,region,B_aloud1,32,256,1238.9827019966324,None,1238.9827019966324,None,1238.9827019966324,None,6,2.4085672078072093,1238.9827019966324,None,1241.45019220002,None,1241.45019220002,None,1241.966890589043,None,1241.966890589043,None,1241.966890589043,None,r,0.2874342228169553,1241.966890589043,None,base9,001,2019_Oct_29_1355,ProdFawcett_Revision2019,3.2.4,59.98175587585188,
,,,,33,0,33,0,,,,,,,,,,,,,1245.201326429029,None,,,,,,,,,,,,,,,,,,,,,,military,D_new,33,190,1242.817887354584,None,1242.817887354584,None,1242.817887354584,None,1,1.4446706474991515,1242.817887354584,None,1244.317645083007,None,1244.317645083007,None,1244.8345499782008,None,1244.8345499782008,None,1244.8345499782008,None,n,0.32452758599538356,1244.8345499782008,None,base9,001,2019_Oct_29_1355,ProdFawcett_Revision2019,3.2.4,59.98175587585188,
,,,,34,0,34,0,,,,,,,,,,,,,1248.4855545188766,None,,,,,,,,,,,,,,,,,,,,,,afternoon,D_new,34,3,1245.7185242893174,None,1245.7185242893174,None,1245.7185242893174,None,1,1.631748771527782,1245.7185242893174,None,1247.402013746323,None,1247.402013746323,None,1247.9188346706214,None,1247.9188346706214,None,1247.9188346706214,None,n,0.5192678982857615,1247.9188346706214,None,base9,001,2019_Oct_29_1355,ProdFawcett_Revision2019,3.2.4,59.98175587585188,
,,,,35,0,35,0,,,,,,,,,,,,,1251.253222305153,None,,,,,,,,,,,,,,,,,,,,,,tennis,D_new,35,323,1249.0024846052984,None,1249.0024846052984,None,1249.0024846052984,None,1,1.267367979104165,1249.0024846052984,None,1250.3195412701461,None,1250.3195412701461,None,1250.8363522423315,None,1250.8363522423315,None,1250.8363522423315,None,n,0.36945107916835696,1250.8363522423315,None,base9,001,2019_Oct_29_1355,ProdFawcett_Revision2019,3.2.4,59.98175587585188,
,,,,36,0,36,0,,,,,,,,,,,,,1253.8598152640043,None,,,,,,,,,,,,,,,,,,,,,,murder,D_new,36,195,1251.7700976550113,None,1251.7700976550113,None,1251.7700976550113,None,1,1.171579896705225,1251.7700976550113,None,1253.0037497667363,None,1253.0037497667363,None,1253.5204307395616,None,1253.5204307395616,None,1253.5204307395616,None,n,0.31738850532565266,1253.5204307395616,None,base9,001,2019_Oct_29_1355,ProdFawcett_Revision2019,3.2.4,59.98175587585188,
,,,,37,0,37,0,,,,,,,,,,,,,1256.671398270817,None,,,,,,,,,,,,,,,,,,,,,,running,D_new,37,268,1254.3873549169512,None,1254.3873549169512,None,1254.3873549169512,None,1,1.2182745537138544,1254.3873549169512,None,1255.6545686384197,None,1255.6545686384197,None,1256.1713506872766,None,1256.1713506872766,None,1256.1713506872766,None,n,0.4588785220985301,1256.1713506872766,None,base9,001,2019_Oct_29_1355,ProdFawcett_Revision2019,3.2.4,59.98175587585188,
,,,,38,0,38,0,,,,,,,,,,,,,1259.7725007775007,None,,,,,,,,,,,,,,,,,,,,,,trash,A_silent,38,337,1257.1885037631146,None,1257.1885037631146,None,1257.1885037631146,None,6,1.649109908612445,1257.1885037631146,None,1258.8887569198268,None,1258.8887569198268,None,1259.4057230826584,None,1259.4057230826584,None,1259.4057230826584,None,r,0.3279265410383232,1259.4057230826584,None,base9,001,2019_Oct_29_1355,ProdFawcett_Revision2019,3.2.4,59.98175587585188,
,,,,39,0,39,0,,,,,,,,,,,,,1263.2735634757555,None,,,,,,,,,,,,,,,,,,,,,,crowd,B_aloud1,39,81,1260.2893518690835,None,1260.2893518690835,None,1260.2893518690835,None,3,2.332053243764676,1260.2893518690835,None,1262.6601514585782,None,1262.6601514585782,None,1263.1734480935265,None,1263.1734480935265,None,1263.1734480935265,None,f,0.05631429993081838,1263.1734480935265,None,base9,001,2019_Oct_29_1355,ProdFawcett_Revision2019,3.2.4,59.98175587585188,
,,,,40,0,40,0,,,,,,,,,,,,,1266.2911559992353,None,,,,,,,,,,,,,,,,,,,,,,display,D_new,40,98,1263.7907065994805,None,1263.7907065994805,None,1263.7907065994805,None,1,1.4862601853674278,1263.7907065994805,None,1265.3407656900818,None,1265.3407656900818,None,1265.8577125707525,None,1265.8577125707525,None,1265.8577125707525,None,n,0.3872028363402933,1265.8577125707525,None,base9,001,2019_Oct_29_1355,ProdFawcett_Revision2019,3.2.4,59.98175587585188,
,,,,41,0,41,0,,,,,,,,,,,,,1270.775898799533,None,,,,,,,,,,,,,,,,,,,,,,heavy,A_silent,41,151,1266.8081196740386,None,1266.8081196740386,None,1266.8081196740386,None,6,3.1967120731133036,1266.8081196740386,None,1270.0589808421792,None,1270.0589808421792,None,1270.5758720532176,None,1270.5758720532176,None,1270.5758720532176,None,r,0.15772407792974263,1270.5758720532176,None,base9,001,2019_Oct_29_1355,ProdFawcett_Revision2019,3.2.4,59.98175587585188,
,,,,42,0,42,0,,,,,,,,,,,,,1275.660680475179,None,,,,,,,,,,,,,,,,,,,,,,audience,A_silent,42,14,1271.2941935684066,None,1271.2941935684066,None,1271.2941935684066,None,6,3.4783072090358473,1271.2941935684066,None,1274.8271138893906,None,1274.8271138893906,None,1275.34399110527,None,1275.34399110527,None,1275.34399110527,None,r,0.2768706848146394,1275.34399110527,None,base9,001,2019_Oct_29_1355,ProdFawcett_Revision2019,3.2.4,59.98175587585188,
,,,,43,0,43,0,,,,,,,,,,,,,1279.2787460347172,None,,,,,,,,,,,,,,,,,,,,,,short,C_aloud2,43,285,1276.177649748046,None,1276.177649748046,None,1276.177649748046,None,6,2.1626432170160115,1276.177649748046,None,1278.394866890565,None,1278.394866890565,None,1278.911763699667,None,1278.911763699667,None,1278.911763699667,None,r,0.32529109908500686,1278.911763699667,None,base9,001,2019_Oct_29_1355,ProdFawcett_Revision2019,3.2.4,59.98175587585188,
,,,,44,0,44,0,,,,,,,,,,,,,1286.7193129936932,None,,,,,,,,,,,,,,,,,,,,,,reading,D_new,44,254,1279.7960975306341,None,1279.7960975306341,None,1279.7960975306341,None,3,6.224540648167022,1279.7960975306341,None,1286.0708863593754,None,1286.0708863593754,None,1286.5979175218963,None,1286.5979175218963,None,1286.5979175218963,None,f,0.09381103439955041,1286.5979175218963,None,base9,001,2019_Oct_29_1355,ProdFawcett_Revision2019,3.2.4,59.98175587585188,
,,,,45,0,45,0,,,,,,,,,,,,,1291.0153648068663,None,,,,,,,,,,,,,,,,,,,,,,addition,A_silent,45,2,1287.2477237668354,None,1287.2477237668354,None,1287.2477237668354,None,5,2.500389998080209,1287.2477237668354,None,1289.7984443614841,None,1289.7984443614841,None,1290.3153402375756,None,1290.3153402375756,None,1290.3153402375756,None,f,0.6643294768873602,1290.3153402375756,None,base9,001,2019_Oct_29_1355,ProdFawcett_Revision2019,3.2.4,59.98175587585188,
,,,,46,0,46,0,,,,,,,,,,,,,1296.934019406559,None,,,,,,,,,,,,,,,,,,,,,,reach,B_aloud1,46,253,1291.5333065870218,None,1291.5333065870218,None,1291.5333065870218,None,4,4.685872675268911,1291.5333065870218,None,1296.271767120692,None,1296.271767120692,None,1296.8005293275928,None,1296.8005293275928,None,1296.8005293275928,None,f,0.09886110597290099,1296.8005293275928,None,base9,001,2019_Oct_29_1355,ProdFawcett_Revision2019,3.2.4,59.98175587585188,
,,,,47,0,47,0,,,,,,,,,,,,,1300.3017332213349,None,,,,,,,,,,,,,,,,,,,,,,space,A_silent,47,297,1297.4508521489915,None,1297.4508521489915,None,1297.4508521489915,None,6,1.944598805741407,1297.4508521489915,None,1299.4420103252633,None,1299.4420103252633,None,1299.9682792187668,None,1299.9682792187668,None,1299.9682792187668,None,r,0.2915627915645018,1299.9682792187668,None,base9,001,2019_Oct_29_1355,ProdFawcett_Revision2019,3.2.4,59.98175587585188,
,,,,48,0,48,0,,,,,,,,,,,,,1304.1028957516537,None,,,,,,,,,,,,,,,,,,,,,,congress,A_silent,48,67,1300.8202590657165,None,1300.8202590657165,None,1300.8202590657165,None,1,2.1590243826503865,1300.8202590657165,None,1303.0241397648351,None,1303.0241397648351,None,1303.5525701312,None,1303.5525701312,None,1303.5525701312,None,n,0.514384213485755,1303.5525701312,None,base9,001,2019_Oct_29_1355,ProdFawcett_Revision2019,3.2.4,59.98175587585188,
,,,,49,0,49,0,,,,,,,,,,,,,1309.2210555451456,None,,,,,,,,,,,,,,,,,,,,,,speech,D_new,49,298,1304.6200059090625,None,1304.6200059090625,None,1304.6200059090625,None,3,3.975292343122419,1304.6200059090625,None,1308.6541733532213,None,1308.6541733532213,None,1309.171047148062,None,1309.171047148062,None,1309.171047148062,None,f,0.008220750140026212,1309.171047148062,None,base9,001,2019_Oct_29_1355,ProdFawcett_Revision2019,3.2.4,59.98175587585188,
,,,,50,0,50,0,,,,,,,,,,,,,1313.622520992707,None,,,,,,,,,,,,,,,,,,,,,,nation,D_new,50,198,1309.7379638613784,None,1309.7379638613784,None,1309.7379638613784,None,1,2.648465820704587,1309.7379638613784,None,1312.4387541207834,None,1312.4387541207834,None,1312.9556269826135,None,1312.9556269826135,None,1312.9556269826135,None,n,0.6230487652937882,1312.9556269826135,None,base9,001,2019_Oct_29_1355,ProdFawcett_Revision2019,3.2.4,59.98175587585188,
,,,,51,0,51,0,,,,,,,,,,,,,1318.77415251598,None,,,,,,,,,,,,,,,,,,,,,,fight,C_aloud2,51,127,1314.1392654101946,None,1314.1392654101946,None,1314.1392654101946,None,6,3.9671851091552526,1314.1392654101946,None,1318.144282826397,None,1318.144282826397,None,1318.6739836412016,None,1318.6739836412016,None,1318.6739836412016,None,r,0.0567618336644955,1318.6739836412016,None,base9,001,2019_Oct_29_1355,ProdFawcett_Revision2019,3.2.4,59.98175587585188,
,,,,52,0,52,0,,,,,,,,,,,,,1322.8086614417844,None,,,,,,,,,,,,,,,,,,,,,,portion,A_silent,52,228,1319.2960001865868,None,1319.2960001865868,None,1319.2960001865868,None,6,2.657755178224761,1319.2960001865868,None,1322.0084107731236,None,1322.0084107731236,None,1322.5252329414361,None,1322.5252329414361,None,1322.5252329414361,None,r,0.23641848599072546,1322.5252329414361,None,base9,001,2019_Oct_29_1355,ProdFawcett_Revision2019,3.2.4,59.98175587585188,
,,,,53,0,53,0,,,,,,,,,,,,,1325.5595117248013,None,,,,,,,,,,,,,,,,,,,,,,month,D_new,53,193,1323.3253520557191,None,1323.3253520557191,None,1323.3253520557191,None,1,1.3963279841118492,1323.3253520557191,None,1324.7759264787892,None,1324.7759264787892,None,1325.2927813024726,None,1325.2927813024726,None,1325.2927813024726,None,n,0.22887541208183393,1325.2927813024726,None,base9,001,2019_Oct_29_1355,ProdFawcett_Revision2019,3.2.4,59.98175587585188,
,,,,54,0,54,0,,,,,,,,,,,,,1328.093525222328,None,,,,,,,,,,,,,,,,,,,,,,childhood,C_aloud2,54,49,1326.0764573613997,None,1326.0764573613997,None,1326.0764573613997,None,6,1.3095670834300108,1326.0764573613997,None,1327.4433921129094,None,1327.4433921129094,None,1327.9602615537588,None,1327.9602615537588,None,1327.9602615537588,None,r,0.08977172360755503,1327.9602615537588,None,base9,001,2019_Oct_29_1355,ProdFawcett_Revision2019,3.2.4,59.98175587585188,
,,,,55,0,55,0,,,,,,,,,,,,,1330.8945194999105,None,,,,,,,,,,,,,,,,,,,,,,pattern,D_new,55,214,1328.6104490887374,None,1328.6104490887374,None,1328.6104490887374,None,1,1.3988956272951327,1328.6104490887374,None,1330.0500634446507,None,1330.0500634446507,None,1330.5777243888588,None,1330.5777243888588,None,1330.5777243888588,None,n,0.2714626484666951,1330.5777243888588,None,base9,001,2019_Oct_29_1355,ProdFawcett_Revision2019,3.2.4,59.98175587585188,
,,,,56,0,56,0,,,,,,,,,,,,,1335.145723082649,None,,,,,,,,,,,,,,,,,,,,,,cross,C_aloud2,56,80,1331.411387385684,None,1331.411387385684,None,1331.411387385684,None,3,2.5585600547492504,1331.411387385684,None,1334.02884897677,None,1334.02884897677,None,1334.5455193754751,None,1334.5455193754751,None,1334.5455193754751,None,f,0.5597502643358894,1334.5455193754751,None,base9,001,2019_Oct_29_1355,ProdFawcett_Revision2019,3.2.4,59.98175587585188,
,,,,57,0,57,0,,,,,,,,,,,,,1338.5967692977283,None,,,,,,,,,,,,,,,,,,,,,,split,C_aloud2,57,299,1335.6629753684974,None,1335.6629753684974,None,1335.6629753684974,None,6,2.0019005411304533,1335.6629753684974,None,1337.7165714996518,None,1337.7165714996518,None,1338.230035454384,None,1338.230035454384,None,1338.230035454384,None,r,0.3309243018156849,1338.230035454384,None,base9,001,2019_Oct_29_1355,ProdFawcett_Revision2019,3.2.4,59.98175587585188,
,,,,58,0,58,0,,,,,,,,,,,,,1341.847910368815,None,,,,,,,,,,,,,,,,,,,,,,question,D_new,58,247,1339.1180832866812,None,1339.1180832866812,None,1339.1180832866812,None,1,1.6746429682243615,1339.1180832866812,None,1340.847566710203,None,1340.847566710203,None,1341.3667602786445,None,1341.3667602786445,None,1341.3667602786445,None,n,0.4422578839585185,1341.3667602786445,None,base9,001,2019_Oct_29_1355,ProdFawcett_Revision2019,3.2.4,59.98175587585188,
,,,,59,0,59,0,,,,,,,,,,,,,1356.569160913059,None,,,,,,,,,,,,,,,,,,,,,,native,C_aloud2,59,199,1342.364881507703,None,1342.364881507703,None,1342.364881507703,None,3,11.979310816677753,1342.364881507703,None,1354.4017039870378,None,1354.4017039870378,None,1354.9185706288554,None,1354.9185706288554,None,1354.9185706288554,None,f,1.6174684331635945,1354.9185706288554,None,base9,001,2019_Oct_29_1355,ProdFawcett_Revision2019,3.2.4,59.98175587585188,
,,,,60,0,60,0,,,,,,,,,,,,,1360.203612925252,None,,,,,,,,,,,,,,,,,,,,,,growth,B_aloud1,60,144,1357.0862866206444,None,1357.0862866206444,None,1357.0862866206444,None,4,2.185309137275908,1357.0862866206444,None,1359.326711451111,None,1359.326711451111,None,1359.8535106051713,None,1359.8535106051713,None,1359.8535106051713,None,f,0.31415998010197654,1359.8535106051713,None,base9,001,2019_Oct_29_1355,ProdFawcett_Revision2019,3.2.4,59.98175587585188,
,,,,61,0,61,0,,,,,,,,,,,,,1365.6052562667173,None,,,,,,,,,,,,,,,,,,,,,,leader,D_new,61,168,1360.7207638240652,None,1360.7207638240652,None,1360.7207638240652,None,1,4.02311189903412,1360.7207638240652,None,1364.805036387348,None,1364.805036387348,None,1365.321728245297,None,1365.321728245297,None,1365.321728245297,None,n,0.24553212663158774,1365.321728245297,None,base9,001,2019_Oct_29_1355,ProdFawcett_Revision2019,3.2.4,59.98175587585188,
,,,,62,0,62,0,,,,,,,,,,,,,1368.1392476829933,None,,,,,,,,,,,,,,,,,,,,,,clean,D_new,62,51,1366.122213099443,None,1366.122213099443,None,1366.122213099443,None,1,1.2048339242464863,1366.122213099443,None,1367.3796355040977,None,1367.3796355040977,None,1367.9058670771774,None,1367.9058670771774,None,1367.9058670771774,None,n,0.19725912797730416,1367.9058670771774,None,base9,001,2019_Oct_29_1355,ProdFawcett_Revision2019,3.2.4,59.98175587585188,
,,,,63,0,63,0,,,,,,,,,,,,,1373.9411625302746,None,,,,,,,,,,,,,,,,,,,,,,object,D_new,63,204,1368.6581775206723,None,1368.6581775206723,None,1368.6581775206723,None,2,3.228765316947829,1368.6581775206723,None,1371.9404298065347,None,1371.9404298065347,None,1372.4603697828716,None,1372.4603697828716,None,1372.4603697828716,None,f,1.442415251629427,1372.4603697828716,None,base9,001,2019_Oct_29_1355,ProdFawcett_Revision2019,3.2.4,59.98175587585188,
,,,,64,0,64,0,,,,,,,,,,,,,1377.3922569509014,None,,,,,,,,,,,,,,,,,,,,,,article,C_aloud2,64,11,1374.4586573987617,None,1374.4586573987617,None,1374.4586573987617,None,6,2.132207812392153,1374.4586573987617,None,1376.6419991291477,None,1376.6419991291477,None,1377.158876656089,None,1377.158876656089,None,1377.158876656089,None,r,0.20014337252359837,1377.158876656089,None,base9,001,2019_Oct_29_1355,ProdFawcett_Revision2019,3.2.4,59.98175587585188,
,,,,65,0,65,0,,,,,,,,,,,,,1386.344984138792,None,,,,,,,,,,,,,,,,,,,,,,material,A_silent,65,182,1377.9107538719545,None,1377.9107538719545,None,1377.9107538719545,None,1,7.663340797415003,1377.9107538719545,None,1385.628153262427,None,1385.628153262427,None,1386.1448497853708,None,1386.1448497853708,None,1386.1448497853708,None,n,0.16527492692694068,1386.1448497853708,None,base9,001,2019_Oct_29_1355,ProdFawcett_Revision2019,3.2.4,59.98175587585188,
,,,,66,0,66,0,,,,,,,,,,,,,1395.4978556322749,None,,,,,,,,,,,,,,,,,,,,,,rough,C_aloud2,66,266,1386.8620106363087,None,1386.8620106363087,None,1386.8620106363087,None,6,7.639492753660306,1386.8620106363087,None,1394.5509457610315,None,1394.5509457610315,None,1395.0809821484145,None,1395.0809821484145,None,1395.0809821484145,None,r,0.3804643279290758,1395.0809821484145,None,base9,001,2019_Oct_29_1355,ProdFawcett_Revision2019,3.2.4,59.98175587585188,
,,,,67,0,67,0,,,,,,,,,,,,,1399.6324814952677,None,,,,,,,,,,,,,,,,,,,,,,second,D_new,67,278,1396.0145919636707,None,1396.0145919636707,None,1396.0145919636707,None,1,2.6308306897990406,1396.0145919636707,None,1398.6869801579742,None,1398.6869801579742,None,1399.2155772221158,None,1399.2155772221158,None,1399.2155772221158,None,n,0.3818109722342342,1399.2155772221158,None,base9,001,2019_Oct_29_1355,ProdFawcett_Revision2019,3.2.4,59.98175587585188,
,,,,68,0,68,0,,,,,,,,,,,,,1403.1001884680009,None,,,,,,,,,,,,,,,,,,,,,,damage,B_aloud1,68,83,1400.1497913167696,None,1400.1497913167696,None,1400.1497913167696,None,4,2.167432667745743,1400.1497913167696,None,1402.3666573365335,None,1402.3666573365335,None,1402.8833535485319,None,1402.8833535485319,None,1402.8833535485319,None,f,0.17802357400069013,1402.8833535485319,None,base9,001,2019_Oct_29_1355,ProdFawcett_Revision2019,3.2.4,59.98175587585188,
,,,,69,0,69,0,,,,,,,,,,,,,1407.9683970889891,None,,,,,,,,,,,,,,,,,,,,,,phrase,B_aloud1,69,220,1403.6178609193303,None,1403.6178609193303,None,1403.6178609193303,None,6,3.4758555700536817,1403.6178609193303,None,1407.1514135099715,None,1407.1514135099715,None,1407.6682929028757,None,1407.6682929028757,None,1407.6682929028757,None,r,0.2572986253653653,1407.6682929028757,None,base9,001,2019_Oct_29_1355,ProdFawcett_Revision2019,3.2.4,59.98175587585188,
,,,,70,0,70,0,,,,,,,,,,,,,1410.6859438949614,None,,,,,,,,,,,,,,,,,,,,,,guard,D_new,70,145,1408.485070286726,None,1408.485070286726,None,1408.485070286726,None,1,1.2715226721484214,1408.485070286726,None,1409.8097132549156,None,1409.8097132549156,None,1410.335794302402,None,1410.335794302402,None,1410.335794302402,None,n,0.31701219134265557,1410.335794302402,None,base9,001,2019_Oct_29_1355,ProdFawcett_Revision2019,3.2.4,59.98175587585188,
,,,,71,0,71,0,,,,,,,,,,,,,1413.4534316103673,None,,,,,,,,,,,,,,,,,,,,,,front,D_new,71,134,1411.203766871884,None,1411.203766871884,None,1411.203766871884,None,1,1.2968818809022196,1411.203766871884,None,1412.5429669714067,None,1412.5429669714067,None,1413.069994712947,None,1413.069994712947,None,1413.069994712947,None,n,0.3429277850082144,1413.069994712947,None,base9,001,2019_Oct_29_1355,ProdFawcett_Revision2019,3.2.4,59.98175587585188,
,,,,72,0,72,0,,,,,,,,,,,,,1418.438261180534,None,,,,,,,,,,,,,,,,,,,,,,chief,D_new,72,48,1413.970301362162,None,1413.970301362162,None,1413.970301362162,None,3,3.09802637307439,1413.970301362162,None,1417.1082779747085,None,1417.1082779747085,None,1417.6379595073522,None,1417.6379595073522,None,1417.6379595073522,None,f,0.7667179821874015,1417.6379595073522,None,base9,001,2019_Oct_29_1355,ProdFawcett_Revision2019,3.2.4,59.98175587585188,
,,,,73,0,73,0,,,,,,,,,,,,,1421.65584001987,None,,,,,,,,,,,,,,,,,,,,,,touch,B_aloud1,73,332,1418.9559507370577,None,1418.9559507370577,None,1418.9559507370577,None,6,1.7680291720898822,1418.9559507370577,None,1420.7795263419393,None,1420.7795263419393,None,1421.3058605461265,None,1421.3058605461265,None,1421.3058605461265,None,r,0.314229333831463,1421.3058605461265,None,base9,001,2019_Oct_29_1355,ProdFawcett_Revision2019,3.2.4,59.98175587585188,
,,,,74,0,74,0,,,,,,,,,,,,,1424.7902413385455,None,,,,,,,,,,,,,,,,,,,,,,impact,D_new,74,157,1422.1726889344864,None,1422.1726889344864,None,1422.1726889344864,None,1,1.7434368974645622,1422.1726889344864,None,1423.9733227592078,None,1423.9733227592078,None,1424.490161099704,None,1424.490161099704,None,1424.490161099704,None,n,0.2585249113617465,1424.490161099704,None,base9,001,2019_Oct_29_1355,ProdFawcett_Revision2019,3.2.4,59.98175587585188,
,,,,75,0,75,0,,,,,,,,,,,,,1427.4243322759285,None,,,,,,,,,,,,,,,,,,,,,,defeat,D_new,75,88,1425.3076062076143,None,1425.3076062076143,None,1425.3076062076143,None,1,1.2249570815474726,1425.3076062076143,None,1426.5907715991489,None,1426.5907715991489,None,1427.1076733843074,None,1427.1076733843074,None,1427.1076733843074,None,n,0.28007526276633143,1427.1076733843074,None,base9,001,2019_Oct_29_1355,ProdFawcett_Revision2019,3.2.4,59.98175587585188,
,,,,76,0,76,0,,,,,,,,,,,,,1430.9587594078039,None,,,,,,,,,,,,,,,,,,,,,,company,C_aloud2,76,64,1427.9418974310975,None,1427.9418974310975,None,1427.9418974310975,None,6,2.3336350065656006,1427.9418974310975,None,1430.3253178453306,None,1430.3253178453306,None,1430.8420118803042,None,1430.8420118803042,None,1430.8420118803042,None,r,0.07423213281435892,1430.8420118803042,None,base9,001,2019_Oct_29_1355,ProdFawcett_Revision2019,3.2.4,59.98175587585188,
,,,,77,0,77,0,,,,,,,,,,,,,1433.9430524973432,None,,,,,,,,,,,,,,,,,,,,,,grade,D_new,77,140,1431.4806829632143,None,1431.4806829632143,None,1431.4806829632143,None,3,1.7948855508002453,1431.4806829632143,None,1433.32613329601,None,1433.32613329601,None,1433.8429573303438,None,1433.8429573303438,None,1433.8429573303438,None,f,0.0644370840745978,1433.8429573303438,None,base9,001,2019_Oct_29_1355,ProdFawcett_Revision2019,3.2.4,59.98175587585188,
,,,,78,0,78,0,,,,,,,,,,,,,1439.3280400572112,None,,,,,,,,,,,,,,,,,,,,,,bitter,C_aloud2,78,23,1434.4599483734346,None,1434.4599483734346,None,1434.4599483734346,None,5,3.551338247198146,1434.4599483734346,None,1438.0610720283585,None,1438.0610720283585,None,1438.5777844124823,None,1438.5777844124823,None,1438.5777844124823,None,f,0.7057731541572139,1438.5777844124823,None,base9,001,2019_Oct_29_1355,ProdFawcett_Revision2019,3.2.4,59.98175587585188,
,,,,79,0,79,0,,,,,,,,,,,,,1442.8124292467255,None,,,,,,,,,,,,,,,,,,,,,,conference,B_aloud1,79,66,1439.8458101635915,None,1439.8458101635915,None,1439.8458101635915,None,6,2.0369960191310383,1439.8458101635915,None,1441.9457361447858,None,1441.9457361447858,None,1442.4623760651448,None,1442.4623760651448,None,1442.4623760651448,None,r,0.30925048200879246,1442.4623760651448,None,base9,001,2019_Oct_29_1355,ProdFawcett_Revision2019,3.2.4,59.98175587585188,
,,,,80,0,80,0,,,,,,,,,,,,,1451.0816113080364,None,,,,,,,,,,,,,,,,,,,,,,agreement,C_aloud2,80,5,1443.329298687575,None,1443.329298687575,None,1443.329298687575,None,2,6.297231759643182,1443.329298687575,None,1449.6812741804752,None,1449.6812741804752,None,1450.1981265161303,None,1450.1981265161303,None,1450.1981265161303,None,f,0.8445163898868486,1450.1981265161303,None,base9,001,2019_Oct_29_1355,ProdFawcett_Revision2019,3.2.4,59.98175587585188,
,,,,81,0,81,0,,,,,,,,,,,,,1454.2827474030782,None,,,,,,,,,,,,,,,,,,,,,,alert,D_new,81,6,1451.5986091932282,None,1451.5986091932282,None,1451.5986091932282,None,6,1.8034704857855104,1451.5986091932282,None,1453.4657756421948,None,1453.4657756421948,None,1453.98264912609,None,1453.98264912609,None,1453.98264912609,None,r,0.2514343471848406,1453.98264912609,None,base9,001,2019_Oct_29_1355,ProdFawcett_Revision2019,3.2.4,59.98175587585188,
,,,,82,0,82,0,,,,,,,,,,,,,1457.9003859550576,None,,,,,,,,,,,,,,,,,,,,,,marriage,A_silent,82,179,1454.801110592729,None,1454.801110592729,None,1454.801110592729,None,6,1.8736508677247912,1454.801110592729,None,1456.7335056291195,None,1456.7335056291195,None,1457.23373763758,None,1457.23373763758,None,1457.23373763758,None,r,0.6249437084188685,1457.23373763758,None,base9,001,2019_Oct_29_1355,ProdFawcett_Revision2019,3.2.4,59.98175587585188,
,,,,83,0,83,0,,,,,,,,,,,,,1461.301571188611,None,,,,,,,,,,,,,,,,,,,,,,review,A_silent,83,263,1458.4173154195305,None,1458.4173154195305,None,1458.4173154195305,None,6,1.9364850407582708,1458.4173154195305,None,1460.417915655882,None,1460.417915655882,None,1460.9348155750195,None,1460.9348155750195,None,1460.9348155750195,None,r,0.33100391866173595,1460.9348155750195,None,base9,001,2019_Oct_29_1355,ProdFawcett_Revision2019,3.2.4,59.98175587585188,
,,,,84,0,84,0,,,,,,,,,,,,,1464.152453193965,None,,,,,,,,,,,,,,,,,,,,,,danger,A_silent,84,85,1461.8186987621593,None,1461.8186987621593,None,1461.8186987621593,None,6,1.4394485911470838,1461.8186987621593,None,1463.3061168128042,None,1463.3061168128042,None,1463.8355629159487,None,1463.8355629159487,None,1463.8355629159487,None,r,0.2783467064728029,1463.8355629159487,None,base9,001,2019_Oct_29_1355,ProdFawcett_Revision2019,3.2.4,59.98175587585188,
,,,,85,0,85,0,,,,,,,,,,,,,1467.4203931081574,None,,,,,,,,,,,,,,,,,,,,,,account,D_new,85,1,1464.6692753622774,None,1464.6692753622774,None,1464.6692753622774,None,1,1.9801256453501992,1464.6692753622774,None,1466.7032534054597,None,1466.7032534054597,None,1467.2199427753803,None,1467.2199427753803,None,1467.2199427753803,None,n,0.16558468621224165,1467.2199427753803,None,base9,001,2019_Oct_29_1355,ProdFawcett_Revision2019,3.2.4,59.98175587585188,
,,,,86,0,86,0,,,,,,,,,,,,,1470.0375732412795,None,,,,,,,,,,,,,,,,,,,,,,fellow,A_silent,86,126,1467.9377234558342,None,1467.9377234558342,None,1467.9377234558342,None,1,1.1438925172551535,1467.9377234558342,None,1469.1251685637399,None,1469.1251685637399,None,1469.6540669900714,None,1469.6540669900714,None,1469.6540669900714,None,n,0.3470588418422267,1469.6540669900714,None,base9,001,2019_Oct_29_1355,ProdFawcett_Revision2019,3.2.4,59.98175587585188,
,,,,87,0,87,0,,,,,,,,,,,,,1472.405002487998,None,,,,,,,,,,,,,,,,,,,,,,drove,A_silent,87,106,1470.5549664116115,None,1470.5549664116115,None,1470.5549664116115,None,1,1.0943926105974242,1470.5549664116115,None,1471.7047549294075,None,1471.7047549294075,None,1472.2216193941422,None,1472.2216193941422,None,1472.2216193941422,None,n,0.14752970082918182,1472.2216193941422,None,base9,001,2019_Oct_29_1355,ProdFawcett_Revision2019,3.2.4,59.98175587585188,
,,,,88,0,88,0,,,,,,,,,,,,,1474.9224444858846,None,,,,,,,,,,,,,,,,,,,,,,build,A_silent,88,35,1472.921755302581,None,1472.921755302581,None,1472.921755302581,None,6,1.2551175592234358,1472.921755302581,None,1474.225759781024,None,1474.225759781024,None,1474.7556885613012,None,1474.7556885613012,None,1474.7556885613012,None,r,0.13358400197466835,1474.7556885613012,None,base9,001,2019_Oct_29_1355,ProdFawcett_Revision2019,3.2.4,59.98175587585188,
,,,,89,0,89,0,,,,,,,,,,,,,1477.3565674566198,None,,,,,,,,,,,,,,,,,,,,,,shock,B_aloud1,89,284,1475.4392504820134,None,1475.4392504820134,None,1475.4392504820134,None,1,1.2498824407230131,1475.4392504820134,None,1476.7397235180251,None,1476.7397235180251,None,1477.2565372893005,None,1477.2565372893005,None,1477.2565372893005,None,n,0.06430708465632051,1477.2565372893005,None,base9,001,2019_Oct_29_1355,ProdFawcett_Revision2019,3.2.4,59.98175587585188,
,,,,90,0,90,0,,,,,,,,,,,,,1486.1591568700387,None,,,,,,,,,,,,,,,,,,,,,,nature,D_new,90,200,1477.8732328792685,None,1477.8732328792685,None,1477.8732328792685,None,6,7.583187783777248,1477.8732328792685,None,1485.498501897091,None,1485.498501897091,None,1486.0259174596868,None,1486.0259174596868,None,1486.0259174596868,None,r,0.09470858989516273,1486.0259174596868,None,base9,001,2019_Oct_29_1355,ProdFawcett_Revision2019,3.2.4,59.98175587585188,
,,,,91,0,91,0,,,,,,,,,,,,,1491.710981526412,None,,,,,,,,,,,,,,,,,,,,,,finance,A_silent,91,129,1486.6764016918605,None,1486.6764016918605,None,1486.6764016918605,None,5,4.124302108597476,1486.6764016918605,None,1490.8607392548001,None,1490.8607392548001,None,1491.377411208523,None,1491.377411208523,None,1491.377411208523,None,f,0.2948370342492126,1491.377411208523,None,base9,001,2019_Oct_29_1355,ProdFawcett_Revision2019,3.2.4,59.98175587585188,
,,,,92,0,92,0,,,,,,,,,,,,,1494.7785899110604,None,,,,,,,,,,,,,,,,,,,,,,society,D_new,92,293,1492.2288004602888,None,1492.2288004602888,None,1492.2288004602888,None,6,1.6994625863153487,1492.2288004602888,None,1493.9783659886452,None,1493.9783659886452,None,1494.4950338993222,None,1494.4950338993222,None,1494.4950338993222,None,r,0.24160726502304897,1494.4950338993222,None,base9,001,2019_Oct_29_1355,ProdFawcett_Revision2019,3.2.4,59.98175587585188,
,,,,93,0,93,0,,,,,,,,,,,,,1497.3125859923894,None,,,,,,,,,,,,,,,,,,,,,,still,D_new,93,304,1495.2957734651864,None,1495.2957734651864,None,1495.2957734651864,None,1,1.264016296598129,1495.2957734651864,None,1496.6006957143545,None,1496.6006957143545,None,1497.1292355539044,None,1497.1292355539044,None,1497.1292355539044,None,n,0.15055980591569096,1497.1292355539044,None,base9,001,2019_Oct_29_1355,ProdFawcett_Revision2019,3.2.4,59.98175587585188,
,,,,94,0,94,0,,,,,,,,,,,,,1500.3303103812505,None,,,,,,,,,,,,,,,,,,,,,,surprise,B_aloud1,94,317,1497.829493686615,None,1497.829493686615,None,1497.829493686615,None,6,1.7141559370793402,1497.829493686615,None,1499.5843276108499,None,1499.5843276108499,None,1500.096914225258,None,1500.096914225258,None,1500.096914225258,None,r,0.19130496983416378,1500.096914225258,None,base9,001,2019_Oct_29_1355,ProdFawcett_Revision2019,3.2.4,59.98175587585188,
,,,,95,0,95,0,,,,,,,,,,,,,1502.8144504571683,None,,,,,,,,,,,,,,,,,,,,,,platform,D_new,95,224,1500.8476320208865,None,1500.8476320208865,None,1500.8476320208865,None,1,1.2245011507184245,1500.8476320208865,None,1502.1195506002405,None,1502.1195506002405,None,1502.6476920444984,None,1502.6476920444984,None,1502.6476920444984,None,n,0.11953442805679515,1502.6476920444984,None,base9,001,2019_Oct_29_1355,ProdFawcett_Revision2019,3.2.4,59.98175587585188,
,,,,96,0,96,0,,,,,,,,,,,,,1505.5152397835045,None,,,,,,,,,,,,,,,,,,,,,,curve,C_aloud2,96,82,1503.3315469303634,None,1503.3315469303634,None,1503.3315469303634,None,1,1.4837363935657777,1503.3315469303634,None,1504.853990794276,None,1504.853990794276,None,1505.3817581016337,None,1505.3817581016337,None,1505.3817581016337,None,n,0.09750046650879085,1505.3817581016337,None,base9,001,2019_Oct_29_1355,ProdFawcett_Revision2019,3.2.4,59.98175587585188,
,,,,97,0,97,0,,,,,,,,,,,,,1507.6991817503003,None,,,,,,,,,,,,,,,,,,,,,,minor,D_new,97,191,1506.0323682900635,None,1506.0323682900635,None,1506.0323682900635,None,1,1.0467500155209564,1506.0323682900635,None,1507.1323371897452,None,1507.1323371897452,None,1507.6494081607088,None,1507.6494081607088,None,1507.6494081607088,None,n,0.005599614349193871,1507.6494081607088,None,base9,001,2019_Oct_29_1355,ProdFawcett_Revision2019,3.2.4,59.98175587585188,
,,,,98,0,98,0,,,,,,,,,,,,,1511.0669658518163,None,,,,,,,,,,,,,,,,,,,,,,country,B_aloud1,98,73,1508.2166651116568,None,1508.2166651116568,None,1508.2166651116568,None,6,1.2225782173336484,1508.2166651116568,None,1509.499771723582,None,1509.499771723582,None,1510.0166959009366,None,1510.0166959009366,None,1510.0166959009366,None,r,1.0142237357795238,1510.0166959009366,None,base9,001,2019_Oct_29_1355,ProdFawcett_Revision2019,3.2.4,59.98175587585188,
,,,,99,0,99,0,,,,,,,,,,,,,1514.1514240840916,None,,,,,,,,,,,,,,,,,,,,,,crisis,D_new,99,79,1511.5847424892709,None,1511.5847424892709,None,1511.5847424892709,None,1,1.0943356969510205,1511.5847424892709,None,1512.7340262486832,None,1512.7340262486832,None,1513.2509628661792,None,1513.2509628661792,None,1513.2509628661792,None,n,0.85994526342256,1513.2509628661792,None,base9,001,2019_Oct_29_1355,ProdFawcett_Revision2019,3.2.4,59.98175587585188,
,,,,100,0,100,0,,,,,,,,,,,,,1517.002465012134,None,,,,,,,,,,,,,,,,,,,,,,council,D_new,100,71,1514.6718467375613,None,1514.6718467375613,None,1514.6718467375613,None,1,1.5187012502574362,1514.6718467375613,None,1516.2518591776607,None,1516.2518591776607,None,1516.7687625178369,None,1516.7687625178369,None,1516.7687625178369,None,n,0.19046805996913463,1516.7687625178369,None,base9,001,2019_Oct_29_1355,ProdFawcett_Revision2019,3.2.4,59.98175587585188,
,,,,101,0,101,0,,,,,,,,,,,,,1519.1694796914817,None,,,,,,,,,,,,,,,,,,,,,,swift,A_silent,101,320,1517.503420103225,None,1517.503420103225,None,1517.503420103225,None,1,0.9432649125810713,1517.503420103225,None,1518.5025794613175,None,1518.5025794613175,None,1519.019460720243,None,1519.019460720243,None,1519.019460720243,None,n,0.10767649434274063,1519.019460720243,None,base9,001,2019_Oct_29_1355,ProdFawcett_Revision2019,3.2.4,59.98175587585188,
,,,,102,0,102,0,,,,,,,,,,,,,1521.786870062817,None,,,,,,,,,,,,,,,,,,,,,,orchestra,D_new,102,206,1519.6865830067545,None,1519.6865830067545,None,1519.6865830067545,None,1,1.2796666044159792,1519.6865830067545,None,1521.020028923289,None,1521.020028923289,None,1521.5369080051896,None,1521.5369080051896,None,1521.5369080051896,None,n,0.2059457610012032,1521.5369080051896,None,base9,001,2019_Oct_29_1355,ProdFawcett_Revision2019,3.2.4,59.98175587585188,
,,,,103,0,103,0,,,,,,,,,,,,,1524.1875906574423,None,,,,,,,,,,,,,,,,,,,,,,style,B_aloud1,103,311,1522.3058851153473,None,1522.3058851153473,None,1522.3058851153473,None,6,1.2048367232782766,1522.3058851153473,None,1523.5708061205223,None,1523.5708061205223,None,1524.0876973315608,None,1524.0876973315608,None,1524.0876973315608,None,r,0.05426167813129723,1524.0876973315608,None,base9,001,2019_Oct_29_1355,ProdFawcett_Revision2019,3.2.4,59.98175587585188,
,,,,104,0,104,0,,,,,,,,,,,,,1529.355867699196,None,,,,,,,,,,,,,,,,,,,,,,passage,B_aloud1,104,212,1524.7049748087302,None,1524.7049748087302,None,1524.7049748087302,None,3,4.004732537199743,1524.7049748087302,None,1528.7603881320683,None,1528.7603881320683,None,1529.2893792373943,None,1529.2893792373943,None,1529.2893792373943,None,f,0.02827175467973575,1529.2893792373943,None,base9,001,2019_Oct_29_1355,ProdFawcett_Revision2019,3.2.4,59.98175587585188,
,,,,105,0,105,0,,,,,,,,,,,,,1533.3071079803049,None,,,,,,,,,,,,,,,,,,,,,,spoke,D_new,105,300,1529.8728347950382,None,1529.8728347950382,None,1529.8728347950382,None,1,2.109610623854678,1529.8728347950382,None,1532.0289251725771,None,1532.0289251725771,None,1532.556836474454,None,1532.556836474454,None,1532.556836474454,None,n,0.7046292840968817,1532.556836474454,None,base9,001,2019_Oct_29_1355,ProdFawcett_Revision2019,3.2.4,59.98175587585188,
,,,,106,0,106,0,,,,,,,,,,,,,1536.007922186982,None,,,,,,,,,,,,,,,,,,,,,,mankind,B_aloud1,106,178,1533.8243254338158,None,1533.8243254338158,None,1533.8243254338158,None,6,1.4936017291620374,1533.8243254338158,None,1535.3619596317294,None,1535.3619596317294,None,1535.89119456365,None,1535.89119456365,None,1535.89119456365,None,r,0.07507028675172478,1535.89119456365,None,base9,001,2019_Oct_29_1355,ProdFawcett_Revision2019,3.2.4,59.98175587585188,
,,,,107,0,107,0,,,,,,,,,,,,,1539.3256257385947,None,,,,,,,,,,,,,,,,,,,,,,music,B_aloud1,107,196,1536.524767680501,None,1536.524767680501,None,1536.524767680501,None,3,2.184558997338172,1536.524767680501,None,1538.7464638925157,None,1538.7464638925157,None,1539.2756960253464,None,1539.2756960253464,None,1539.2756960253464,None,f,0.00973502517445013,1539.2756960253464,None,base9,001,2019_Oct_29_1355,ProdFawcett_Revision2019,3.2.4,59.98175587585188,
,,,,108,0,108,0,,,,,,,,,,,,,1542.0265422653174,None,,,,,,,,,,,,,,,,,,,,,,match,B_aloud1,108,181,1539.8425418299157,None,1539.8425418299157,None,1539.8425418299157,None,1,1.2829486223054118,1539.8425418299157,None,1541.1762807115447,None,1541.1762807115447,None,1541.6931318031857,None,1541.6931318031857,None,1541.6931318031857,None,n,0.2958860484068282,1541.6931318031857,None,base9,001,2019_Oct_29_1355,ProdFawcett_Revision2019,3.2.4,59.98175587585188,
,,,,109,0,109,0,,,,,,,,,,,,,1544.6940383777837,None,,,,,,,,,,,,,,,,,,,,,,union,D_new,109,344,1542.543765316892,None,1542.543765316892,None,1542.543765316892,None,1,1.357958574371878,1542.543765316892,None,1543.9604294955498,None,1543.9604294955498,None,1544.477221185516,None,1544.477221185516,None,1544.477221185516,None,n,0.18375038873637095,1544.477221185516,None,base9,001,2019_Oct_29_1355,ProdFawcett_Revision2019,3.2.4,59.98175587585188,
,,,,110,0,110,0,,,,,,,,,,,,,1548.311850158614,None,,,,,,,,,,,,,,,,,,,,,,brief,B_aloud1,110,28,1545.2117574795848,None,1545.2117574795848,None,1545.2117574795848,None,6,2.2333212041994557,1545.2117574795848,None,1547.4949116750504,None,1547.4949116750504,None,1548.0116411643685,None,1548.0116411643685,None,1548.0116411643685,None,r,0.25795484229456633,1548.0116411643685,None,base9,001,2019_Oct_29_1355,ProdFawcett_Revision2019,3.2.4,59.98175587585188,
,,,,111,0,111,0,,,,,,,,,,,,,1552.0796871306375,None,,,,,,,,,,,,,,,,,,,,,,discussion,A_silent,111,96,1548.8294716053642,None,1548.8294716053642,None,1548.8294716053642,None,4,2.279058903979603,1548.8294716053642,None,1551.1626422840054,None,1551.1626422840054,None,1551.6795216769096,None,1551.6795216769096,None,1551.6795216769096,None,f,0.36507370782783255,1551.6795216769096,None,base9,001,2019_Oct_29_1355,ProdFawcett_Revision2019,3.2.4,59.98175587585188,
,,,,112,0,112,0,,,,,,,,,,,,,1555.0472669029841,None,,,,,,,,,,,,,,,,,,,,,,hearing,D_new,112,150,1552.598548236594,None,1552.598548236594,None,1552.598548236594,None,1,1.677780369471293,1552.598548236594,None,1554.3186570877442,None,1554.3186570877442,None,1554.8470747029642,None,1554.8470747029642,None,1554.8470747029642,None,n,0.16526497481390834,1554.8470747029642,None,base9,001,2019_Oct_29_1355,ProdFawcett_Revision2019,3.2.4,59.98175587585188,
,,,,113,0,113,0,,,,,,,,,,,,,1558.7149614355876,None,,,,,,,,,,,,,,,,,,,,,,accident,B_aloud1,113,0,1555.5640741431853,None,1555.5640741431853,None,1555.5640741431853,None,6,1.712269391049631,1555.5640741431853,None,1557.3199306462193,None,1557.3199306462193,None,1557.8479999377741,None,1557.8479999377741,None,1557.8479999377741,None,r,0.8199720096890815,1557.8479999377741,None,base9,001,2019_Oct_29_1355,ProdFawcett_Revision2019,3.2.4,59.98175587585188,
,,,,114,0,114,0,,,,,,,,,,,,,1565.2504238974652,None,,,,,,,,,,,,,,,,,,,,,,meeting,A_silent,114,187,1559.2322619269835,None,1559.2322619269835,None,1559.2322619269835,None,4,5.067911923862994,1559.2322619269835,None,1564.3385199352633,None,1564.3385199352633,None,1564.8669443926192,None,1564.8669443926192,None,1564.8669443926192,None,f,0.33665733656380326,1564.8669443926192,None,base9,001,2019_Oct_29_1355,ProdFawcett_Revision2019,3.2.4,59.98175587585188,
,,,,115,0,115,0,,,,,,,,,,,,,1568.4014365242328,None,,,,,,,,,,,,,,,,,,,,,,mayor,D_new,115,183,1565.7671558748116,None,1565.7671558748116,None,1565.7671558748116,None,1,1.4684017540421337,1565.7671558748116,None,1567.3009289668407,None,1567.3009289668407,None,1567.8178674503579,None,1567.8178674503579,None,1567.8178674503579,None,n,0.5375265907496214,1567.8178674503579,None,base9,001,2019_Oct_29_1355,ProdFawcett_Revision2019,3.2.4,59.98175587585188,
,,,,116,0,116,0,,,,,,,,,,,,,1577.810514710436,None,,,,,,,,,,,,,,,,,,,,,,surface,D_new,116,316,1568.9185398395057,None,1568.9185398395057,None,1568.9185398395057,None,1,7.196711451164447,1568.9185398395057,None,1576.1589186415076,None,1576.1589186415076,None,1576.6873555389466,None,1576.6873555389466,None,1576.6873555389466,None,n,1.099996578937862,1576.6873555389466,None,base9,001,2019_Oct_29_1355,ProdFawcett_Revision2019,3.2.4,59.98175587585188,
,,,,117,0,117,0,,,,,,,,,,,,,1582.489113018557,None,,,,,,,,,,,,,,,,,,,,,,group,D_new,117,143,1578.3376817813842,None,1578.3376817813842,None,1578.3376817813842,None,4,3.1049894258612767,1578.3376817813842,None,1581.4943335198914,None,1581.4943335198914,None,1582.0222659700084,None,1582.0222659700084,None,1582.0222659700084,None,f,0.4287102693342604,1582.0222659700084,None,base9,001,2019_Oct_29_1355,ProdFawcett_Revision2019,3.2.4,59.98175587585188,
,,,,118,0,118,0,,,,,,,,,,,,,1585.4733124960912,None,,,,,,,,,,,,,,,,,,,,,,career,A_silent,118,42,1583.0059466940002,None,1583.0059466940002,None,1583.0059466940002,None,6,1.5254341605468653,1583.0059466940002,None,1584.5897011258057,None,1584.5897011258057,None,1585.106576475664,None,1585.106576475664,None,1585.106576475664,None,r,0.3282599365338683,1585.106576475664,None,base9,001,2019_Oct_29_1355,ProdFawcett_Revision2019,3.2.4,59.98175587585188,
,,,,119,0,119,0,,,,,,,,,,,,,1590.5916411643848,None,,,,,,,,,,,,,,,,,,,,,,break,D_new,119,26,1585.9901436835062,None,1585.9901436835062,None,1585.9901436835062,None,3,3.8286294084973633,1585.9901436835062,None,1589.863676991954,None,1589.863676991954,None,1590.3915096099954,None,1590.3915096099954,None,1590.3915096099954,None,f,0.15460969088599086,1590.3915096099954,None,base9,001,2019_Oct_29_1355,ProdFawcett_Revision2019,3.2.4,59.98175587585188,
,,,,120,0,120,0,,,,,,,,,,,,,1596.0098469863296,None,,,,,,,,,,,,,,,,,,,,,,brilliant,A_silent,120,30,1591.109763015469,None,1591.109763015469,None,1591.109763015469,None,4,4.0602304534986615,1591.109763015469,None,1595.1970809230115,None,1595.1970809230115,None,1595.7264654475148,None,1595.7264654475148,None,1595.7264654475148,None,f,0.23534925671992823,1595.7264654475148,None,base9,001,2019_Oct_29_1355,ProdFawcett_Revision2019,3.2.4,59.98175587585188,
,,,,121,0,121,0,,,,,,,,,,,,,1601.4282907258603,None,,,,,,,,,,,,,,,,,,,,,,problem,D_new,121,238,1596.527780369448,None,1596.527780369448,None,1596.527780369448,None,3,3.842811158800032,1596.527780369448,None,1600.4279100578278,None,1600.4279100578278,None,1600.9448018908734,None,1600.9448018908734,None,1600.9448018908734,None,f,0.44912887981627136,1600.9448018908734,None,base9,001,2019_Oct_29_1355,ProdFawcett_Revision2019,3.2.4,59.98175587585188,
,,,,122,0,122,0,,,,,,,,,,,,,1606.3296547863283,None,,,,,,,,,,,,,,,,,,,,,,worker,D_new,122,356,1601.9449679666432,None,1601.9449679666432,None,1601.9449679666432,None,1,3.409160291077569,1601.9449679666432,None,1605.402585992415,None,1605.402585992415,None,1605.9299160290975,None,1605.9299160290975,None,1605.9299160290975,None,n,0.3513833426986821,1605.9299160290975,None,base9,001,2019_Oct_29_1355,ProdFawcett_Revision2019,3.2.4,59.98175587585188,
,,,,123,0,123,0,,,,,,,,,,,,,1611.1479641724145,None,,,,,,,,,,,,,,,,,,,,,,budget,D_new,123,34,1606.8466915469035,None,1606.8466915469035,None,1606.8466915469035,None,1,2.794772967637982,1606.8466915469035,None,1609.6974889593548,None,1609.6974889593548,None,1610.214317347738,None,1610.214317347738,None,1610.214317347738,None,n,0.891480375721585,1610.214317347738,None,base9,001,2019_Oct_29_1355,ProdFawcett_Revision2019,3.2.4,59.98175587585188,
,,,,124,0,124,0,,,,,,,,,,,,,1617.0831339802244,None,,,,,,,,,,,,,,,,,,,,,,salary,D_new,124,271,1611.6647288051317,None,1611.6647288051317,None,1611.6647288051317,None,1,4.392878335493151,1611.6647288051317,None,1616.1160847794963,None,1616.1160847794963,None,1616.6330114448792,None,1616.6330114448792,None,1616.6330114448792,None,n,0.4161158798378892,1616.6330114448792,None,base9,001,2019_Oct_29_1355,ProdFawcett_Revision2019,3.2.4,59.98175587585188,
,,,,125,0,125,0,,,,,,,,,,,,,1620.6175831933506,None,,,,,,,,,,,,,,,,,,,,,,trend,D_new,125,340,1617.5999449524097,None,1617.5999449524097,None,1617.5999449524097,None,1,2.064698015805334,1617.5999449524097,None,1619.7172022143495,None,1619.7172022143495,None,1620.2341142625664,None,1620.2341142625664,None,1620.2341142625664,None,n,0.35049418424023315,1620.2341142625664,None,base9,001,2019_Oct_29_1355,ProdFawcett_Revision2019,3.2.4,59.98175587585188,
,,,,126,0,126,0,,,,,,,,,,,,,1627.7697210300248,None,,,,,,,,,,,,,,,,,,,,,,frank,D_new,126,133,1621.134464452276,None,1621.134464452276,None,1621.134464452276,None,2,4.169761460449081,1621.134464452276,None,1625.369051750924,None,1625.369051750924,None,1625.8857364557916,None,1625.8857364557916,None,1625.8857364557916,None,f,1.8345294520258904,1625.8857364557916,None,base9,001,2019_Oct_29_1355,ProdFawcett_Revision2019,3.2.4,59.98175587585188,
,,,,127,0,127,0,,,,,,,,,,,,,1630.8208067425294,None,,,,,,,,,,,,,,,,,,,,,,travel,C_aloud2,127,338,1628.2875654661912,None,1628.2875654661912,None,1628.2875654661912,None,6,1.6328052497119643,1628.2875654661912,None,1629.9704518877552,None,1629.9704518877552,None,1630.487301735382,None,1630.487301735382,None,1630.487301735382,None,r,0.2966072650742717,1630.487301735382,None,base9,001,2019_Oct_29_1355,ProdFawcett_Revision2019,3.2.4,59.98175587585188,
,,,,128,0,128,0,,,,,,,,,,,,,1633.454860048485,None,,,,,,,,,,,,,,,,,,,,,,author,D_new,128,15,1631.3378497231752,None,1631.3378497231752,None,1631.3378497231752,None,1,1.3747356471722014,1631.3378497231752,None,1632.7613376251538,None,1632.7613376251538,None,1633.2881305591436,None,1633.2881305591436,None,1633.2881305591436,None,n,0.12773216393543407,1633.2881305591436,None,base9,001,2019_Oct_29_1355,ProdFawcett_Revision2019,3.2.4,59.98175587585188,
,,,,129,0,129,0,,,,,,,,,,,,,1637.0392856253893,None,,,,,,,,,,,,,,,,,,,,,,whole,C_aloud2,129,355,1633.9717559245764,None,1633.9717559245764,None,1633.9717559245764,None,6,2.387739006022457,1633.9717559245764,None,1636.4224323567469,None,1636.4224323567469,None,1636.939404739649,None,1636.939404739649,None,1636.939404739649,None,r,0.06049542821710929,1636.939404739649,None,base9,001,2019_Oct_29_1355,ProdFawcett_Revision2019,3.2.4,59.98175587585188,
,,,,130,0,130,0,,,,,,,,,,,,,1641.5907554269652,None,,,,,,,,,,,,,,,,,,,,,,track,D_new,130,334,1637.5559939665254,None,1637.5559939665254,None,1637.5559939665254,None,2,3.1552369845448993,1637.5559939665254,None,1640.7642682092264,None,1640.7642682092264,None,1641.2906705230707,None,1641.2906705230707,None,1641.2906705230707,None,f,0.2609267897787504,1641.2906705230707,None,base9,001,2019_Oct_29_1355,ProdFawcett_Revision2019,3.2.4,59.98175587585188,
,,,,131,0,131,0,,,,,,,,,,,,,1644.7417235802277,None,,,,,,,,,,,,,,,,,,,,,,general,B_aloud1,131,135,1642.1086154133081,None,1642.1086154133081,None,1642.1086154133081,None,6,1.907277788151987,1642.1086154133081,None,1644.0747586614452,None,1644.0747586614452,None,1644.5916725756833,None,1644.5916725756833,None,1644.5916725756833,None,r,0.11149685888085514,1644.5916725756833,None,base9,001,2019_Oct_29_1355,ProdFawcett_Revision2019,3.2.4,59.98175587585188,
,,,,132,0,132,0,,,,,,,,,,,,,1648.0592893574503,None,,,,,,,,,,,,,,,,,,,,,,evidence,C_aloud2,132,120,1645.2596905517275,None,1645.2596905517275,None,1645.2596905517275,None,6,2.0111895875888877,1645.2596905517275,None,1647.3107771972427,None,1647.3107771972427,None,1647.826001119567,None,1647.826001119567,None,1647.826001119567,None,r,0.18942526588216424,1647.826001119567,None,base9,001,2019_Oct_29_1355,ProdFawcett_Revision2019,3.2.4,59.98175587585188,
,,,,133,0,133,0,,,,,,,,,,,,,1650.9935264663654,None,,,,,,,,,,,,,,,,,,,,,,direction,B_aloud1,133,94,1648.577567643195,None,1648.577567643195,None,1648.577567643195,None,6,1.7254015052458271,1648.577567643195,None,1650.3601212912472,None,1650.3601212912472,None,1650.8768091061502,None,1650.8768091061502,None,1650.8768091061502,None,r,0.07473004912026227,1650.8768091061502,None,base9,001,2019_Oct_29_1355,ProdFawcett_Revision2019,3.2.4,59.98175587585188,
,,,,134,0,134,0,,,,,,,,,,,,,1654.2945817005238,None,,,,,,,,,,,,,,,,,,,,,,device,D_new,134,93,1651.5105517198099,None,1651.5105517198099,None,1651.5105517198099,None,1,1.3443997636204585,1651.5105517198099,None,1652.9109432729892,None,1652.9109432729892,None,1653.4275887914118,None,1653.4275887914118,None,1653.4275887914118,None,n,0.8189491198281758,1653.4275887914118,None,base9,001,2019_Oct_29_1355,ProdFawcett_Revision2019,3.2.4,59.98175587585188,
,,,,135,0,135,0,,,,,,,,,,,,,1656.7454273184994,None,,,,,,,,,,,,,,,,,,,,,,foundation,B_aloud1,135,132,1654.813388069917,None,1654.813388069917,None,1654.813388069917,None,6,1.217063506890554,1654.813388069917,None,1656.09508770291,None,1656.09508770291,None,1656.612663432199,None,1656.612663432199,None,1656.612663432199,None,r,0.09778472350444645,1656.612663432199,None,base9,001,2019_Oct_29_1355,ProdFawcett_Revision2019,3.2.4,59.98175587585188,
,,,,136,0,136,0,,,,,,,,,,,,,1659.996334204101,None,,,,,,,,,,,,,,,,,,,,,,welcome,C_aloud2,136,354,1657.2639404117363,None,1657.2639404117363,None,1657.2639404117363,None,6,1.4550985880196095,1657.2639404117363,None,1658.7691391428816,None,1658.7691391428816,None,1659.2962626733934,None,1659.2962626733934,None,1659.2962626733934,None,r,0.6619698948925361,1659.2962626733934,None,base9,001,2019_Oct_29_1355,ProdFawcett_Revision2019,3.2.4,59.98175587585188,
,,,,137,0,137,0,,,,,,,,,,,,,1665.0312931516673,None,,,,,,,,,,,,,,,,,,,,,,notice,D_new,137,201,1660.5135022081085,None,1660.5135022081085,None,1660.5135022081085,None,3,3.644777321664151,1660.5135022081085,None,1664.2025971885305,None,1664.2025971885305,None,1664.7311214778456,None,1664.7311214778456,None,1664.7311214778456,None,f,0.25935155811021104,1664.7311214778456,None,base9,001,2019_Oct_29_1355,ProdFawcett_Revision2019,3.2.4,59.98175587585188,
,,,,138,0,138,0,,,,,,,,,,,,,1668.5657837282633,None,,,,,,,,,,,,,,,,,,,,,,provision,A_silent,138,243,1665.548007712874,None,1665.548007712874,None,1665.548007712874,None,6,2.1062181999441236,1665.548007712874,None,1667.7154559307965,None,1667.7154559307965,None,1668.2322858741973,None,1668.2322858741973,None,1668.2322858741973,None,r,0.29376842692727223,1668.2322858741973,None,base9,001,2019_Oct_29_1355,ProdFawcett_Revision2019,3.2.4,59.98175587585188,
,,,,139,0,139,0,,,,,,,,,,,,,1671.7667186041945,None,,,,,,,,,,,,,,,,,,,,,,concern,C_aloud2,139,65,1669.0825695092208,None,1669.0825695092208,None,1669.0825695092208,None,1,1.7953694719471969,1669.0825695092208,None,1670.9213177209604,None,1670.9213177209604,None,1671.4498454313143,None,1671.4498454313143,None,1671.4498454313143,None,n,0.27587018720805645,1671.4498454313143,None,base9,001,2019_Oct_29_1355,ProdFawcett_Revision2019,3.2.4,59.98175587585188,
,,,,140,0,140,0,,,,,,,,,,,,,1674.38421627169,None,,,,,,,,,,,,,,,,,,,,,,century,C_aloud2,140,45,1672.284580145555,None,1672.284580145555,None,1672.284580145555,None,6,1.1771652049501427,1672.284580145555,None,1673.5059843254276,None,1673.5059843254276,None,1674.033970890101,None,1674.033970890101,None,1674.033970890101,None,r,0.3082111090188846,1674.033970890101,None,base9,001,2019_Oct_29_1355,ProdFawcett_Revision2019,3.2.4,59.98175587585188,
,,,,141,0,141,0,,,,,,,,,,,,,1678.6520852770773,None,,,,,,,,,,,,,,,,,,,,,,drink,D_new,141,105,1674.9009417179623,None,1674.9009417179623,None,1674.9009417179623,None,2,2.4643978975946084,1674.9009417179623,None,1677.4185205572867,None,1677.4185205572867,None,1677.9352270324016,None,1677.9352270324016,None,1677.9352270324016,None,f,0.6782537164981477,1677.9352270324016,None,base9,001,2019_Oct_29_1355,ProdFawcett_Revision2019,3.2.4,59.98175587585188,
,,,,142,0,142,0,,,,,,,,,,,,,1682.1372305155965,None,,,,,,,,,,,,,,,,,,,,,,private,B_aloud1,142,237,1679.1689183305134,None,1679.1689183305134,None,1679.1689183305134,None,6,2.0444775145151652,1679.1689183305134,None,1681.2696149778785,None,1681.2696149778785,None,1681.7871748460457,None,1681.7871748460457,None,1681.7871748460457,None,r,0.30578528332989663,1681.7871748460457,None,base9,001,2019_Oct_29_1355,ProdFawcett_Revision2019,3.2.4,59.98175587585188,
,,,,143,0,143,0,,,,,,,,,,,,,1686.6547698575305,None,,,,,,,,,,,,,,,,,,,,,,attack,D_new,143,13,1682.6537164893816,None,1682.6537164893816,None,1682.6537164893816,None,1,2.1672591279493645,1682.6537164893816,None,1684.870735522767,None,1684.870735522767,None,1685.3876438389998,None,1685.3876438389998,None,1685.3876438389998,None,n,1.2333961560507305,1685.3876438389998,None,base9,001,2019_Oct_29_1355,ProdFawcett_Revision2019,3.2.4,59.98175587585188,
,,,,144,0,144,0,,,,,,,,,,,,,1692.739924737194,None,,,,,,,,,,,,,,,,,,,,,,center,D_new,144,44,1687.171759345627,None,1687.171759345627,None,1687.171759345627,None,1,3.9450432294397615,1687.171759345627,None,1691.1726684082532,None,1691.1726684082532,None,1691.6895879206131,None,1691.6895879206131,None,1691.6895879206131,None,n,1.0027470921631902,1691.6895879206131,None,base9,001,2019_Oct_29_1355,ProdFawcett_Revision2019,3.2.4,59.98175587585188,
,,,,145,0,145,0,,,,,,,,,,,,,1697.2746566523565,None,,,,,,,,,,,,,,,,,,,,,,watch,B_aloud1,145,351,1693.257010014262,None,1693.257010014262,None,1693.257010014262,None,5,3.1389886172837578,1693.257010014262,None,1696.4473412327934,None,1696.4473412327934,None,1696.9745397150982,None,1696.9745397150982,None,1696.9745397150982,None,f,0.26155719347298145,1696.9745397150982,None,base9,001,2019_Oct_29_1355,ProdFawcett_Revision2019,3.2.4,59.98175587585188,
,,,,146,0,146,0,,,,,,,,,,,,,1704.1766504944535,None,,,,,,,,,,,,,,,,,,,,,,symbol,D_new,146,321,1697.7914971698774,None,1697.7914971698774,None,1697.7914971698774,None,6,5.44448435655795,1697.7914971698774,None,1703.2931097219698,None,1703.2931097219698,None,1703.8100015550153,None,1703.8100015550153,None,1703.8100015550153,None,r,0.3296669154660776,1703.8100015550153,None,base9,001,2019_Oct_29_1355,ProdFawcett_Revision2019,3.2.4,59.98175587585188,
,,,,147,0,147,0,,,,,,,,,,,,,1710.211868196784,None,,,,,,,,,,,,,,,,,,,,,,title,D_new,147,331,1704.6936760589597,None,1704.6936760589597,None,1704.6936760589597,None,2,4.174458232300822,1704.6936760589597,None,1708.928286993818,None,1708.928286993818,None,1709.4450988990138,None,1709.4450988990138,None,1709.4450988990138,None,f,0.7181734776240773,1709.4450988990138,None,base9,001,2019_Oct_29_1355,ProdFawcett_Revision2019,3.2.4,59.98175587585188,
,,,,148,0,148,0,,,,,,,,,,,,,1713.0626886234968,None,,,,,,,,,,,,,,,,,,,,,,stranger,D_new,148,309,1710.7295079927426,None,1710.7295079927426,None,1710.7295079927426,None,6,1.3064020028687082,1710.7295079927426,None,1712.095905952563,None,1712.095905952563,None,1712.6125794613035,None,1712.6125794613035,None,1712.6125794613035,None,r,0.41460875782649964,1712.6125794613035,None,base9,001,2019_Oct_29_1355,ProdFawcett_Revision2019,3.2.4,59.98175587585188,
,,,,149,0,149,0,,,,,,,,,,,,,1715.813670771895,None,,,,,,,,,,,,,,,,,,,,,,interior,A_silent,149,164,1713.580474590999,None,1713.580474590999,None,1713.580474590999,None,6,1.3829290290595964,1713.580474590999,None,1715.0024143185583,None,1715.0024143185583,None,1715.5135833799723,None,1715.5135833799723,None,1715.5135833799723,None,r,0.2582111090887338,1715.5135833799723,None,base9,001,2019_Oct_29_1355,ProdFawcett_Revision2019,3.2.4,59.98175587585188,
,,,,150,0,150,0,,,,,,,,,,,,,1718.5478055606945,None,,,,,,,,,,,,,,,,,,,,,,substance,D_new,150,313,1716.3313407351961,None,1716.3313407351961,None,1716.3313407351961,None,1,1.3354294956079684,1716.3313407351961,None,1717.7191522049834,None,1717.7191522049834,None,1718.247739317012,None,1718.247739317012,None,1718.247739317012,None,n,0.2672585059190169,1718.247739317012,None,base9,001,2019_Oct_29_1355,ProdFawcett_Revision2019,3.2.4,59.98175587585188,
,,,,151,0,151,0,,,,,,,,,,,,,1721.2486455806065,None,,,,,,,,,,,,,,,,,,,,,,permit,B_aloud1,151,218,1719.0646056478145,None,1719.0646056478145,None,1719.0646056478145,None,6,1.298147042398341,1719.0646056478145,None,1720.401375256537,None,1720.401375256537,None,1720.9152746158652,None,1720.9152746158652,None,1720.9152746158652,None,r,0.2953623188659549,1720.9152746158652,None,base9,001,2019_Oct_29_1355,ProdFawcett_Revision2019,3.2.4,59.98175587585188,
,,,,152,0,152,0,,,,,,,,,,,,,1724.0496196429594,None,,,,,,,,,,,,,,,,,,,,,,character,D_new,152,46,1721.765430739557,None,1721.765430739557,None,1721.765430739557,None,6,1.2614710456109606,1721.765430739557,None,1723.082479007251,None,1723.082479007251,None,1723.5994663183228,None,1723.5994663183228,None,1723.5994663183228,None,r,0.41121788893360645,1723.5994663183228,None,base9,001,2019_Oct_29_1355,ProdFawcett_Revision2019,3.2.4,59.98175587585188,
