StudyTrials.thisRepN,StudyTrials.thisTrialN,StudyTrials.thisN,StudyTrials.thisIndex,TestTrials.thisRepN,TestTrials.thisTrialN,TestTrials.thisN,TestTrials.thisIndex,textWelcome.started,textWelcome.stopped,keyWelcome.keys,keyWelcome.rt,keyWelcome.started,keyWelcome.stopped,textReady.started,textReady.stopped,keyReady.keys,keyReady.rt,keyReady.started,keyReady.stopped,polyback_2.started,polyback_2.stopped,studyPic,studyWord,studyType,studyN,studyOrder,polyback_3.started,polyback_3.stopped,studyPicChoice.started,studyPicChoice.stopped,polyback_4.started,polyback_4.stopped,polyback.started,polyback.stopped,studyWords.started,studyWords.stopped,getResearcher.started,getResearcher.stopped,kPress2.keys,kPress2.rt,kPress2.started,kPress2.stopped,testWord,testType,testN,testOrder,polyback_5.started,polyback_5.stopped,testWords.started,testWords.stopped,textScale.started,textScale.stopped,keyConf.keys,keyConf.rt,keyConf.started,keyConf.stopped,polyback_6.started,polyback_6.stopped,studyWords_2.started,studyWords_2.stopped,polyback_7.started,polyback_7.stopped,testWords_2.started,testWords_2.stopped,textScale_2.started,textScale_2.stopped,keyRKN.keys,keyRKN.rt,keyRKN.started,keyRKN.stopped,participant,session,date,expName,psychopyVersion,frameRate,
,,,,,,,,16.06602009999915,None,space,350.8803359000012,16.06602009999915,None,,,,,,,,,,,,,,,,,,,,,,,,,,,,,,,,,,,,,,,,,,,,,,,,,,,,,,,,,,base5,001,2019_Oct_24_1501,ProdFawcett_Revision2019,3.2.3,59.96120509981894,
,,,,,,,,,,,,,,366.97325710000587,None,space,3.9891898999921978,366.97325710000587,None,,,,,,,,,,,,,,,,,,,,,,,,,,,,,,,,,,,,,,,,,,,,,,,,,,,,base5,001,2019_Oct_24_1501,ProdFawcett_Revision2019,3.2.3,59.96120509981894,
0,0,0,0,,,,,,,,,,,,,,,,,375.76344500000414,None,materials/readPic.jpg,object,A_silent,0,204,372.1357599000039,None,372.1357599000039,None,373.0124002999946,None,373.28661999999895,None,373.28661999999895,None,,,,,,,,,,,,,,,,,,,,,,,,,,,,,,,,,,,base5,001,2019_Oct_24_1501,ProdFawcett_Revision2019,3.2.3,59.96120509981894,
1,0,1,0,,,,,,,,,,,,,,,,,380.0179324000055,None,materials/readPic.jpg,science,A_silent,1,275,376.3140964000049,None,376.3140964000049,None,377.2842424999981,None,377.54063089999545,None,377.54063089999545,None,,,,,,,,,,,,,,,,,,,,,,,,,,,,,,,,,,,base5,001,2019_Oct_24_1501,ProdFawcett_Revision2019,3.2.3,59.96120509981894,
2,0,2,0,,,,,,,,,,,,,,,,,384.28905819999636,None,materials/speakPic.jpg,discussion,B_aloud1,2,96,380.6204690000013,None,380.6204690000013,None,381.53802360000554,None,381.7914429999946,None,381.7914429999946,None,,,,,,,,,,,,,,,,,,,,,,,,,,,,,,,,,,,base5,001,2019_Oct_24_1501,ProdFawcett_Revision2019,3.2.3,59.96120509981894,
3,0,3,0,,,,,,,,,,,,,,,,,388.5583967999992,None,materials/mumblePic.jpg,close,C_aloud2,3,53,384.8650998999947,None,384.8650998999947,None,385.8059198999981,None,386.06549890000315,None,386.06549890000315,None,,,,,,,,,,,,,,,,,,,,,,,,,,,,,,,,,,,base5,001,2019_Oct_24_1501,ProdFawcett_Revision2019,3.2.3,59.96120509981894,
4,0,4,0,,,,,,,,,,,,,,,,,392.83077040000353,None,materials/mumblePic.jpg,motion,C_aloud2,4,194,389.1140341999999,None,389.1140341999999,None,390.0793057999981,None,390.337503200004,None,390.337503200004,None,,,,,,,,,,,,,,,,,,,,,,,,,,,,,,,,,,,base5,001,2019_Oct_24_1501,ProdFawcett_Revision2019,3.2.3,59.96120509981894,
5,0,5,0,,,,,,,,,,,,,,,,,397.1015449999977,None,materials/speakPic.jpg,people,B_aloud1,5,216,393.3914006999985,None,393.3914006999985,None,394.34911710000597,None,394.6105355000036,None,394.6105355000036,None,,,,,,,,,,,,,,,,,,,,,,,,,,,,,,,,,,,base5,001,2019_Oct_24_1501,ProdFawcett_Revision2019,3.2.3,59.96120509981894,
6,0,6,0,,,,,,,,,,,,,,,,,401.3724643000023,None,materials/mumblePic.jpg,novel,C_aloud2,6,202,397.6485861999972,None,397.6485861999972,None,398.6213662000082,None,398.88101050000114,None,398.88101050000114,None,,,,,,,,,,,,,,,,,,,,,,,,,,,,,,,,,,,base5,001,2019_Oct_24_1501,ProdFawcett_Revision2019,3.2.3,59.96120509981894,
7,0,7,0,,,,,,,,,,,,,,,,,405.6445478999958,None,materials/readPic.jpg,dance,A_silent,7,84,401.95963720000873,None,401.95963720000873,None,402.8911269999953,None,403.14804660000664,None,403.14804660000664,None,,,,,,,,,,,,,,,,,,,,,,,,,,,,,,,,,,,base5,001,2019_Oct_24_1501,ProdFawcett_Revision2019,3.2.3,59.96120509981894,
8,0,8,0,,,,,,,,,,,,,,,,,409.91416640000534,None,materials/readPic.jpg,weather,A_silent,8,352,406.2196804999985,None,406.2196804999985,None,407.16112230000726,None,407.42459690000396,None,407.42459690000396,None,,,,,,,,,,,,,,,,,,,,,,,,,,,,,,,,,,,base5,001,2019_Oct_24_1501,ProdFawcett_Revision2019,3.2.3,59.96120509981894,
9,0,9,0,,,,,,,,,,,,,,,,,414.18531559999974,None,materials/speakPic.jpg,mankind,B_aloud1,9,178,410.4793670000072,None,410.4793670000072,None,411.4337147000042,None,411.6941894000047,None,411.6941894000047,None,,,,,,,,,,,,,,,,,,,,,,,,,,,,,,,,,,,base5,001,2019_Oct_24_1501,ProdFawcett_Revision2019,3.2.3,59.96120509981894,
10,0,10,0,,,,,,,,,,,,,,,,,418.43838069999765,None,materials/mumblePic.jpg,emergency,C_aloud2,10,110,414.7366600999958,None,414.7366600999958,None,415.6914698000037,None,415.94951970000693,None,415.94951970000693,None,,,,,,,,,,,,,,,,,,,,,,,,,,,,,,,,,,,base5,001,2019_Oct_24_1501,ProdFawcett_Revision2019,3.2.3,59.96120509981894,
11,0,11,0,,,,,,,,,,,,,,,,,422.71066680000513,None,materials/readPic.jpg,partner,A_silent,11,211,419.0287862999976,None,419.0287862999976,None,419.9591245000047,None,420.2150607000076,None,420.2150607000076,None,,,,,,,,,,,,,,,,,,,,,,,,,,,,,,,,,,,base5,001,2019_Oct_24_1501,ProdFawcett_Revision2019,3.2.3,59.96120509981894,
12,0,12,0,,,,,,,,,,,,,,,,,426.98174040000595,None,materials/mumblePic.jpg,expansion,C_aloud2,12,123,423.2623905000073,None,423.2623905000073,None,424.2298441000021,None,424.4894561999972,None,424.4894561999972,None,,,,,,,,,,,,,,,,,,,,,,,,,,,,,,,,,,,base5,001,2019_Oct_24_1501,ProdFawcett_Revision2019,3.2.3,59.96120509981894,
13,0,13,0,,,,,,,,,,,,,,,,,431.23562330000277,None,materials/readPic.jpg,household,A_silent,13,154,427.5336429000017,None,427.5336429000017,None,428.50081820000196,None,428.76028800000495,None,428.76028800000495,None,,,,,,,,,,,,,,,,,,,,,,,,,,,,,,,,,,,base5,001,2019_Oct_24_1501,ProdFawcett_Revision2019,3.2.3,59.96120509981894,
14,0,14,0,,,,,,,,,,,,,,,,,435.5066233999969,None,materials/speakPic.jpg,frank,B_aloud1,14,133,431.83067100000335,None,431.83067100000335,None,432.75469950000115,None,433.00507410000137,None,433.00507410000137,None,,,,,,,,,,,,,,,,,,,,,,,,,,,,,,,,,,,base5,001,2019_Oct_24_1501,ProdFawcett_Revision2019,3.2.3,59.96120509981894,
15,0,15,0,,,,,,,,,,,,,,,,,439.77749120000226,None,materials/speakPic.jpg,tragedy,B_aloud1,15,335,436.0731257000007,None,436.0731257000007,None,437.0251358999958,None,437.2897957999958,None,437.2897957999958,None,,,,,,,,,,,,,,,,,,,,,,,,,,,,,,,,,,,base5,001,2019_Oct_24_1501,ProdFawcett_Revision2019,3.2.3,59.96120509981894,
16,0,16,0,,,,,,,,,,,,,,,,,444.04838839999866,None,materials/mumblePic.jpg,native,C_aloud2,16,199,440.3273845000076,None,440.3273845000076,None,441.2960490999976,None,441.55866660000174,None,441.55866660000174,None,,,,,,,,,,,,,,,,,,,,,,,,,,,,,,,,,,,base5,001,2019_Oct_24_1501,ProdFawcett_Revision2019,3.2.3,59.96120509981894,
17,0,17,0,,,,,,,,,,,,,,,,,448.3028822000051,None,materials/mumblePic.jpg,graduate,C_aloud2,17,141,444.5804203000007,None,444.5804203000007,None,445.5670659000025,None,445.8285221999977,None,445.8285221999977,None,,,,,,,,,,,,,,,,,,,,,,,,,,,,,,,,,,,base5,001,2019_Oct_24_1501,ProdFawcett_Revision2019,3.2.3,59.96120509981894,
18,0,18,0,,,,,,,,,,,,,,,,,452.5569184000051,None,materials/mumblePic.jpg,corner,C_aloud2,18,69,448.82217880000826,None,448.82217880000826,None,449.82108540000627,None,450.0809322999994,None,450.0809322999994,None,,,,,,,,,,,,,,,,,,,,,,,,,,,,,,,,,,,base5,001,2019_Oct_24_1501,ProdFawcett_Revision2019,3.2.3,59.96120509981894,
19,0,19,0,,,,,,,,,,,,,,,,,456.8279379000014,None,materials/speakPic.jpg,rural,B_aloud1,19,269,453.16146420000587,None,453.16146420000587,None,454.07533419999527,None,454.3359408999968,None,454.3359408999968,None,,,,,,,,,,,,,,,,,,,,,,,,,,,,,,,,,,,base5,001,2019_Oct_24_1501,ProdFawcett_Revision2019,3.2.3,59.96120509981894,
20,0,20,0,,,,,,,,,,,,,,,,,461.0989198000025,None,materials/speakPic.jpg,mayor,B_aloud1,20,183,457.39954939999734,None,457.39954939999734,None,458.3468125000072,None,458.60428970000066,None,458.60428970000066,None,,,,,,,,,,,,,,,,,,,,,,,,,,,,,,,,,,,base5,001,2019_Oct_24_1501,ProdFawcett_Revision2019,3.2.3,59.96120509981894,
21,0,21,0,,,,,,,,,,,,,,,,,465.3696418000036,None,materials/readPic.jpg,clean,A_silent,21,51,461.68953260000853,None,461.68953260000853,None,462.6179454999947,None,462.8757808000082,None,462.8757808000082,None,,,,,,,,,,,,,,,,,,,,,,,,,,,,,,,,,,,base5,001,2019_Oct_24_1501,ProdFawcett_Revision2019,3.2.3,59.96120509981894,
22,0,22,0,,,,,,,,,,,,,,,,,469.64064759999746,None,materials/mumblePic.jpg,title,C_aloud2,22,331,465.92017179999675,None,465.92017179999675,None,466.8895595000067,None,467.1461224999948,None,467.1461224999948,None,,,,,,,,,,,,,,,,,,,,,,,,,,,,,,,,,,,base5,001,2019_Oct_24_1501,ProdFawcett_Revision2019,3.2.3,59.96120509981894,
23,0,23,0,,,,,,,,,,,,,,,,,473.91157140000723,None,materials/speakPic.jpg,guard,B_aloud1,23,145,470.2101914000086,None,470.2101914000086,None,471.16249719999905,None,471.419224199999,None,471.419224199999,None,,,,,,,,,,,,,,,,,,,,,,,,,,,,,,,,,,,base5,001,2019_Oct_24_1501,ProdFawcett_Revision2019,3.2.3,59.96120509981894,
24,0,24,0,,,,,,,,,,,,,,,,,478.1827267000044,None,materials/mumblePic.jpg,charter,C_aloud2,24,47,474.4644551999954,None,474.4644551999954,None,475.4299525999959,None,475.68929379999463,None,475.68929379999463,None,,,,,,,,,,,,,,,,,,,,,,,,,,,,,,,,,,,base5,001,2019_Oct_24_1501,ProdFawcett_Revision2019,3.2.3,59.96120509981894,
25,0,25,0,,,,,,,,,,,,,,,,,482.4365422999981,None,materials/mumblePic.jpg,trend,C_aloud2,25,340,478.69996149999497,None,478.69996149999497,None,479.70015129999956,None,479.95781839999836,None,479.95781839999836,None,,,,,,,,,,,,,,,,,,,,,,,,,,,,,,,,,,,base5,001,2019_Oct_24_1501,ProdFawcett_Revision2019,3.2.3,59.96120509981894,
26,0,26,0,,,,,,,,,,,,,,,,,486.7080493999965,None,materials/readPic.jpg,division,A_silent,26,101,483.0008747999964,None,483.0008747999964,None,483.95497259999684,None,484.22049010000774,None,484.22049010000774,None,,,,,,,,,,,,,,,,,,,,,,,,,,,,,,,,,,,base5,001,2019_Oct_24_1501,ProdFawcett_Revision2019,3.2.3,59.96120509981894,
27,0,27,0,,,,,,,,,,,,,,,,,490.97862460000033,None,materials/readPic.jpg,phrase,A_silent,27,220,487.3007976000081,None,487.3007976000081,None,488.2268100000074,None,488.483275599996,None,488.483275599996,None,,,,,,,,,,,,,,,,,,,,,,,,,,,,,,,,,,,base5,001,2019_Oct_24_1501,ProdFawcett_Revision2019,3.2.3,59.96120509981894,
28,0,28,0,,,,,,,,,,,,,,,,,495.2495137000078,None,materials/mumblePic.jpg,period,C_aloud2,28,217,491.53234859999793,None,491.53234859999793,None,492.498027499998,None,492.75561619999644,None,492.75561619999644,None,,,,,,,,,,,,,,,,,,,,,,,,,,,,,,,,,,,base5,001,2019_Oct_24_1501,ProdFawcett_Revision2019,3.2.3,59.96120509981894,
29,0,29,0,,,,,,,,,,,,,,,,,499.51976330000616,None,materials/readPic.jpg,individual,A_silent,29,160,495.834975699996,None,495.834975699996,None,496.7666024000064,None,497.0304061000061,None,497.0304061000061,None,,,,,,,,,,,,,,,,,,,,,,,,,,,,,,,,,,,base5,001,2019_Oct_24_1501,ProdFawcett_Revision2019,3.2.3,59.96120509981894,
30,0,30,0,,,,,,,,,,,,,,,,,503.7915581999987,None,materials/mumblePic.jpg,dozen,C_aloud2,30,102,500.06591469999694,None,500.06591469999694,None,501.0395329000021,None,501.3057600000029,None,501.3057600000029,None,,,,,,,,,,,,,,,,,,,,,,,,,,,,,,,,,,,base5,001,2019_Oct_24_1501,ProdFawcett_Revision2019,3.2.3,59.96120509981894,
31,0,31,0,,,,,,,,,,,,,,,,,508.06244520000473,None,materials/readPic.jpg,staff,A_silent,31,301,504.3781464000058,None,504.3781464000058,None,505.3108293999976,None,505.56055280000146,None,505.56055280000146,None,,,,,,,,,,,,,,,,,,,,,,,,,,,,,,,,,,,base5,001,2019_Oct_24_1501,ProdFawcett_Revision2019,3.2.3,59.96120509981894,
32,0,32,0,,,,,,,,,,,,,,,,,512.316599800004,None,materials/mumblePic.jpg,management,C_aloud2,32,177,508.5789197999984,None,508.5789197999984,None,509.5806770000054,None,509.84529929999553,None,509.84529929999553,None,,,,,,,,,,,,,,,,,,,,,,,,,,,,,,,,,,,base5,001,2019_Oct_24_1501,ProdFawcett_Revision2019,3.2.3,59.96120509981894,
33,0,33,0,,,,,,,,,,,,,,,,,516.587718499999,None,materials/readPic.jpg,background,A_silent,33,16,512.8961233000009,None,512.8961233000009,None,513.8350842000073,None,514.1051469999948,None,514.1051469999948,None,,,,,,,,,,,,,,,,,,,,,,,,,,,,,,,,,,,base5,001,2019_Oct_24_1501,ProdFawcett_Revision2019,3.2.3,59.96120509981894,
34,0,34,0,,,,,,,,,,,,,,,,,520.8578838999965,None,materials/speakPic.jpg,childhood,B_aloud1,34,49,517.2048486999993,None,517.2048486999993,None,518.1048684999987,None,518.3672229000076,None,518.3672229000076,None,,,,,,,,,,,,,,,,,,,,,,,,,,,,,,,,,,,base5,001,2019_Oct_24_1501,ProdFawcett_Revision2019,3.2.3,59.96120509981894,
35,0,35,0,,,,,,,,,,,,,,,,,525.1293546000088,None,materials/mumblePic.jpg,smooth,C_aloud2,35,292,521.4033395000006,None,521.4033395000006,None,522.3775906000083,None,522.6349495000031,None,522.6349495000031,None,,,,,,,,,,,,,,,,,,,,,,,,,,,,,,,,,,,base5,001,2019_Oct_24_1501,ProdFawcett_Revision2019,3.2.3,59.96120509981894,
36,0,36,0,,,,,,,,,,,,,,,,,529.4003805999964,None,materials/speakPic.jpg,straight,B_aloud1,36,307,525.7088689999946,None,525.7088689999946,None,526.6621330000053,None,526.9104192000086,None,526.9104192000086,None,,,,,,,,,,,,,,,,,,,,,,,,,,,,,,,,,,,base5,001,2019_Oct_24_1501,ProdFawcett_Revision2019,3.2.3,59.96120509981894,
37,0,37,0,,,,,,,,,,,,,,,,,533.6712657000026,None,materials/mumblePic.jpg,solution,C_aloud2,37,294,529.9454687999969,None,529.9454687999969,None,530.9188331000041,None,531.1784515000036,None,531.1784515000036,None,,,,,,,,,,,,,,,,,,,,,,,,,,,,,,,,,,,base5,001,2019_Oct_24_1501,ProdFawcett_Revision2019,3.2.3,59.96120509981894,
38,0,38,0,,,,,,,,,,,,,,,,,537.9421892999962,None,materials/mumblePic.jpg,alert,C_aloud2,38,6,534.2259778000007,None,534.2259778000007,None,535.1911560000008,None,535.4504754000081,None,535.4504754000081,None,,,,,,,,,,,,,,,,,,,,,,,,,,,,,,,,,,,base5,001,2019_Oct_24_1501,ProdFawcett_Revision2019,3.2.3,59.96120509981894,
39,0,39,0,,,,,,,,,,,,,,,,,542.2131062999979,None,materials/readPic.jpg,industry,A_silent,39,161,538.5052666999982,None,538.5052666999982,None,539.4611797999969,None,539.7197291000048,None,539.7197291000048,None,,,,,,,,,,,,,,,,,,,,,,,,,,,,,,,,,,,base5,001,2019_Oct_24_1501,ProdFawcett_Revision2019,3.2.3,59.96120509981894,
40,0,40,0,,,,,,,,,,,,,,,,,546.4840624000062,None,materials/readPic.jpg,voice,A_silent,40,348,542.8074423000071,None,542.8074423000071,None,543.7328857999964,None,543.9933095000015,None,543.9933095000015,None,,,,,,,,,,,,,,,,,,,,,,,,,,,,,,,,,,,base5,001,2019_Oct_24_1501,ProdFawcett_Revision2019,3.2.3,59.96120509981894,
41,0,41,0,,,,,,,,,,,,,,,,,550.7550582999975,None,materials/mumblePic.jpg,signal,C_aloud2,41,287,547.0492528000032,None,547.0492528000032,None,548.0025397999998,None,548.2578495000052,None,548.2578495000052,None,,,,,,,,,,,,,,,,,,,,,,,,,,,,,,,,,,,base5,001,2019_Oct_24_1501,ProdFawcett_Revision2019,3.2.3,59.96120509981894,
42,0,42,0,,,,,,,,,,,,,,,,,555.0259520999971,None,materials/mumblePic.jpg,birth,C_aloud2,42,22,551.2994237999956,None,551.2994237999956,None,552.2740693999949,None,552.5349835000088,None,552.5349835000088,None,,,,,,,,,,,,,,,,,,,,,,,,,,,,,,,,,,,base5,001,2019_Oct_24_1501,ProdFawcett_Revision2019,3.2.3,59.96120509981894,
43,0,43,0,,,,,,,,,,,,,,,,,559.2967872000008,None,materials/speakPic.jpg,member,B_aloud1,43,188,555.5948877000046,None,555.5948877000046,None,556.5435781999986,None,556.808663600008,None,556.808663600008,None,,,,,,,,,,,,,,,,,,,,,,,,,,,,,,,,,,,base5,001,2019_Oct_24_1501,ProdFawcett_Revision2019,3.2.3,59.96120509981894,
44,0,44,0,,,,,,,,,,,,,,,,,563.5519365000073,None,materials/readPic.jpg,waste,A_silent,44,350,559.8768634000007,None,559.8768634000007,None,560.8169127000001,None,561.0759808000003,None,561.0759808000003,None,,,,,,,,,,,,,,,,,,,,,,,,,,,,,,,,,,,base5,001,2019_Oct_24_1501,ProdFawcett_Revision2019,3.2.3,59.96120509981894,
45,0,45,0,,,,,,,,,,,,,,,,,567.8219792000018,None,materials/speakPic.jpg,community,B_aloud1,45,63,564.1296249000006,None,564.1296249000006,None,565.0694678,None,565.3280210000084,None,565.3280210000084,None,,,,,,,,,,,,,,,,,,,,,,,,,,,,,,,,,,,base5,001,2019_Oct_24_1501,ProdFawcett_Revision2019,3.2.3,59.96120509981894,
46,0,46,0,,,,,,,,,,,,,,,,,572.0932210000028,None,materials/speakPic.jpg,level,B_aloud1,46,170,568.4227948000043,None,568.4227948000043,None,569.340451600001,None,569.5947758999973,None,569.5947758999973,None,,,,,,,,,,,,,,,,,,,,,,,,,,,,,,,,,,,base5,001,2019_Oct_24_1501,ProdFawcett_Revision2019,3.2.3,59.96120509981894,
47,0,47,0,,,,,,,,,,,,,,,,,576.3638780000038,None,materials/speakPic.jpg,department,B_aloud1,47,90,572.6573139999964,None,572.6573139999964,None,573.6121348000015,None,573.8694829000015,None,573.8694829000015,None,,,,,,,,,,,,,,,,,,,,,,,,,,,,,,,,,,,base5,001,2019_Oct_24_1501,ProdFawcett_Revision2019,3.2.3,59.96120509981894,
48,0,48,0,,,,,,,,,,,,,,,,,580.6356218000001,None,materials/mumblePic.jpg,gesture,C_aloud2,48,137,576.9302222999977,None,576.9302222999977,None,577.8829204000067,None,578.1440291000035,None,578.1440291000035,None,,,,,,,,,,,,,,,,,,,,,,,,,,,,,,,,,,,base5,001,2019_Oct_24_1501,ProdFawcett_Revision2019,3.2.3,59.96120509981894,
49,0,49,0,,,,,,,,,,,,,,,,,584.905811500008,None,materials/readPic.jpg,engineer,A_silent,49,114,581.1868274000008,None,581.1868274000008,None,582.155058999997,None,582.4157311000017,None,582.4157311000017,None,,,,,,,,,,,,,,,,,,,,,,,,,,,,,,,,,,,base5,001,2019_Oct_24_1501,ProdFawcett_Revision2019,3.2.3,59.96120509981894,
50,0,50,0,,,,,,,,,,,,,,,,,589.1600397000002,None,materials/speakPic.jpg,court,B_aloud1,50,75,585.4677252999973,None,585.4677252999973,None,586.4072507999954,None,586.666571099995,None,586.666571099995,None,,,,,,,,,,,,,,,,,,,,,,,,,,,,,,,,,,,base5,001,2019_Oct_24_1501,ProdFawcett_Revision2019,3.2.3,59.96120509981894,
51,0,51,0,,,,,,,,,,,,,,,,,593.4320034999982,None,materials/mumblePic.jpg,style,C_aloud2,51,311,589.7185660999967,None,589.7185660999967,None,590.6785729999974,None,590.9378566999949,None,590.9378566999949,None,,,,,,,,,,,,,,,,,,,,,,,,,,,,,,,,,,,base5,001,2019_Oct_24_1501,ProdFawcett_Revision2019,3.2.3,59.96120509981894,
52,0,52,0,,,,,,,,,,,,,,,,,597.7019266999996,None,materials/speakPic.jpg,measure,B_aloud1,52,184,593.993602100003,None,593.993602100003,None,594.9494259000057,None,595.2074620000058,None,595.2074620000058,None,,,,,,,,,,,,,,,,,,,,,,,,,,,,,,,,,,,base5,001,2019_Oct_24_1501,ProdFawcett_Revision2019,3.2.3,59.96120509981894,
53,0,53,0,,,,,,,,,,,,,,,,,601.9722753999959,None,materials/speakPic.jpg,review,B_aloud1,53,263,598.2771456000046,None,598.2771456000046,None,599.2202133999963,None,599.4842162999994,None,599.4842162999994,None,,,,,,,,,,,,,,,,,,,,,,,,,,,,,,,,,,,base5,001,2019_Oct_24_1501,ProdFawcett_Revision2019,3.2.3,59.96120509981894,
54,0,54,0,,,,,,,,,,,,,,,,,606.2437534000055,None,materials/speakPic.jpg,accident,B_aloud1,54,0,602.5424935000046,None,602.5424935000046,None,603.4910989000055,None,603.749416000006,None,603.749416000006,None,,,,,,,,,,,,,,,,,,,,,,,,,,,,,,,,,,,base5,001,2019_Oct_24_1501,ProdFawcett_Revision2019,3.2.3,59.96120509981894,
55,0,55,0,,,,,,,,,,,,,,,,,610.5145644000004,None,materials/readPic.jpg,right,A_silent,55,265,606.8296171999973,None,606.8296171999973,None,607.7618581999996,None,608.0166957000038,None,608.0166957000038,None,,,,,,,,,,,,,,,,,,,,,,,,,,,,,,,,,,,base5,001,2019_Oct_24_1501,ProdFawcett_Revision2019,3.2.3,59.96120509981894,
56,0,56,0,,,,,,,,,,,,,,,,,614.7859219999955,None,materials/speakPic.jpg,balance,B_aloud1,56,17,611.0848706999968,None,611.0848706999968,None,612.0337737999944,None,612.2961388999975,None,612.2961388999975,None,,,,,,,,,,,,,,,,,,,,,,,,,,,,,,,,,,,base5,001,2019_Oct_24_1501,ProdFawcett_Revision2019,3.2.3,59.96120509981894,
57,0,57,0,,,,,,,,,,,,,,,,,619.0565324000054,None,materials/speakPic.jpg,health,B_aloud1,57,149,615.3744202000089,None,615.3744202000089,None,616.3045970999956,None,616.5638646000007,None,616.5638646000007,None,,,,,,,,,,,,,,,,,,,,,,,,,,,,,,,,,,,base5,001,2019_Oct_24_1501,ProdFawcett_Revision2019,3.2.3,59.96120509981894,
58,0,58,0,,,,,,,,,,,,,,,,,623.326887999996,None,materials/mumblePic.jpg,reading,C_aloud2,58,254,619.6224455000047,None,619.6224455000047,None,620.5745390000084,None,620.8397475999955,None,620.8397475999955,None,,,,,,,,,,,,,,,,,,,,,,,,,,,,,,,,,,,base5,001,2019_Oct_24_1501,ProdFawcett_Revision2019,3.2.3,59.96120509981894,
59,0,59,0,,,,,,,,,,,,,,,,,627.5984169000003,None,materials/speakPic.jpg,tennis,B_aloud1,59,323,623.900052099998,None,623.900052099998,None,624.8458679000032,None,625.1059125000029,None,625.1059125000029,None,,,,,,,,,,,,,,,,,,,,,,,,,,,,,,,,,,,base5,001,2019_Oct_24_1501,ProdFawcett_Revision2019,3.2.3,59.96120509981894,
60,0,60,0,,,,,,,,,,,,,,,,,631.869319400008,None,materials/speakPic.jpg,military,B_aloud1,60,190,628.1704977000045,None,628.1704977000045,None,629.116903800008,None,629.3750991999987,None,629.3750991999987,None,,,,,,,,,,,,,,,,,,,,,,,,,,,,,,,,,,,base5,001,2019_Oct_24_1501,ProdFawcett_Revision2019,3.2.3,59.96120509981894,
61,0,61,0,,,,,,,,,,,,,,,,,636.140281800006,None,materials/readPic.jpg,meeting,A_silent,61,187,632.4565342999995,None,632.4565342999995,None,633.3872108000069,None,633.6495362999995,None,633.6495362999995,None,,,,,,,,,,,,,,,,,,,,,,,,,,,,,,,,,,,base5,001,2019_Oct_24_1501,ProdFawcett_Revision2019,3.2.3,59.96120509981894,
62,0,62,0,,,,,,,,,,,,,,,,,640.4112805000041,None,materials/readPic.jpg,attack,A_silent,62,13,636.7575045999984,None,636.7575045999984,None,637.6584073999984,None,637.9158424000052,None,637.9158424000052,None,,,,,,,,,,,,,,,,,,,,,,,,,,,,,,,,,,,base5,001,2019_Oct_24_1501,ProdFawcett_Revision2019,3.2.3,59.96120509981894,
63,0,63,0,,,,,,,,,,,,,,,,,644.6820833999955,None,materials/mumblePic.jpg,listen,C_aloud2,63,172,640.9683461999957,None,640.9683461999957,None,641.9335681999946,None,642.1885371999961,None,642.1885371999961,None,,,,,,,,,,,,,,,,,,,,,,,,,,,,,,,,,,,base5,001,2019_Oct_24_1501,ProdFawcett_Revision2019,3.2.3,59.96120509981894,
64,0,64,0,,,,,,,,,,,,,,,,,648.9529923000082,None,materials/speakPic.jpg,addition,B_aloud1,64,2,645.2605042000068,None,645.2605042000068,None,646.2019004000031,None,646.4597074000048,None,646.4597074000048,None,,,,,,,,,,,,,,,,,,,,,,,,,,,,,,,,,,,base5,001,2019_Oct_24_1501,ProdFawcett_Revision2019,3.2.3,59.96120509981894,
65,0,65,0,,,,,,,,,,,,,,,,,653.2239713000017,None,materials/speakPic.jpg,sound,B_aloud1,65,295,649.5169929999975,None,649.5169929999975,None,650.4723191999947,None,650.728331499995,None,650.728331499995,None,,,,,,,,,,,,,,,,,,,,,,,,,,,,,,,,,,,base5,001,2019_Oct_24_1501,ProdFawcett_Revision2019,3.2.3,59.96120509981894,
66,0,66,0,,,,,,,,,,,,,,,,,657.4949249000056,None,materials/readPic.jpg,short,A_silent,66,285,653.796378900006,None,653.796378900006,None,654.7440321000031,None,655.0004228000034,None,655.0004228000034,None,,,,,,,,,,,,,,,,,,,,,,,,,,,,,,,,,,,base5,001,2019_Oct_24_1501,ProdFawcett_Revision2019,3.2.3,59.96120509981894,
67,0,67,0,,,,,,,,,,,,,,,,,661.7658143000008,None,materials/readPic.jpg,figure,A_silent,67,128,658.0728048000019,None,658.0728048000019,None,659.0129558000044,None,659.2771055000048,None,659.2771055000048,None,,,,,,,,,,,,,,,,,,,,,,,,,,,,,,,,,,,base5,001,2019_Oct_24_1501,ProdFawcett_Revision2019,3.2.3,59.96120509981894,
68,0,68,0,,,,,,,,,,,,,,,,,666.0370395000064,None,materials/mumblePic.jpg,direction,C_aloud2,68,94,662.2970835000015,None,662.2970835000015,None,663.2846087000071,None,663.5440668999945,None,663.5440668999945,None,,,,,,,,,,,,,,,,,,,,,,,,,,,,,,,,,,,base5,001,2019_Oct_24_1501,ProdFawcett_Revision2019,3.2.3,59.96120509981894,
69,0,69,0,,,,,,,,,,,,,,,,,670.2911906000081,None,materials/readPic.jpg,union,A_silent,69,344,666.6390074000083,None,666.6390074000083,None,667.5391464999993,None,667.7984910000087,None,667.7984910000087,None,,,,,,,,,,,,,,,,,,,,,,,,,,,,,,,,,,,base5,001,2019_Oct_24_1501,ProdFawcett_Revision2019,3.2.3,59.96120509981894,
70,0,70,0,,,,,,,,,,,,,,,,,674.5617911000008,None,materials/mumblePic.jpg,spoke,C_aloud2,70,300,670.8470181000012,None,670.8470181000012,None,671.8092000000033,None,672.0676311999996,None,672.0676311999996,None,,,,,,,,,,,,,,,,,,,,,,,,,,,,,,,,,,,base5,001,2019_Oct_24_1501,ProdFawcett_Revision2019,3.2.3,59.96120509981894,
71,0,71,0,,,,,,,,,,,,,,,,,678.8328681999992,None,materials/speakPic.jpg,center,B_aloud1,71,44,675.137064399998,None,675.137064399998,None,676.0824738000083,None,676.3375324000081,None,676.3375324000081,None,,,,,,,,,,,,,,,,,,,,,,,,,,,,,,,,,,,base5,001,2019_Oct_24_1501,ProdFawcett_Revision2019,3.2.3,59.96120509981894,
72,0,72,0,,,,,,,,,,,,,,,,,683.1034905999986,None,materials/readPic.jpg,service,A_silent,72,280,679.4093509999948,None,679.4093509999948,None,680.3503800000035,None,680.6133150999958,None,680.6133150999958,None,,,,,,,,,,,,,,,,,,,,,,,,,,,,,,,,,,,base5,001,2019_Oct_24_1501,ProdFawcett_Revision2019,3.2.3,59.96120509981894,
73,0,73,0,,,,,,,,,,,,,,,,,687.3759489000076,None,materials/readPic.jpg,nature,A_silent,73,200,683.6805315999954,None,683.6805315999954,None,684.6222185000079,None,684.8803724000027,None,684.8803724000027,None,,,,,,,,,,,,,,,,,,,,,,,,,,,,,,,,,,,base5,001,2019_Oct_24_1501,ProdFawcett_Revision2019,3.2.3,59.96120509981894,
74,0,74,0,,,,,,,,,,,,,,,,,691.6460533000063,None,materials/mumblePic.jpg,brief,C_aloud2,74,28,687.9254699000012,None,687.9254699000012,None,688.8920324000064,None,689.1509651000088,None,689.1509651000088,None,,,,,,,,,,,,,,,,,,,,,,,,,,,,,,,,,,,base5,001,2019_Oct_24_1501,ProdFawcett_Revision2019,3.2.3,59.96120509981894,
75,0,75,0,,,,,,,,,,,,,,,,,695.9165472000022,None,materials/speakPic.jpg,question,B_aloud1,75,247,692.2272769999981,None,692.2272769999981,None,693.165007500007,None,693.4345552000013,None,693.4345552000013,None,,,,,,,,,,,,,,,,,,,,,,,,,,,,,,,,,,,base5,001,2019_Oct_24_1501,ProdFawcett_Revision2019,3.2.3,59.96120509981894,
76,0,76,0,,,,,,,,,,,,,,,,,700.1875980000041,None,materials/speakPic.jpg,tough,B_aloud1,76,333,696.4909723000019,None,696.4909723000019,None,697.4347895999963,None,697.6970777999959,None,697.6970777999959,None,,,,,,,,,,,,,,,,,,,,,,,,,,,,,,,,,,,base5,001,2019_Oct_24_1501,ProdFawcett_Revision2019,3.2.3,59.96120509981894,
77,0,77,0,,,,,,,,,,,,,,,,,704.458641300007,None,materials/readPic.jpg,marriage,A_silent,77,179,700.782756200002,None,700.782756200002,None,701.704839500002,None,701.9705557999987,None,701.9705557999987,None,,,,,,,,,,,,,,,,,,,,,,,,,,,,,,,,,,,base5,001,2019_Oct_24_1501,ProdFawcett_Revision2019,3.2.3,59.96120509981894,
78,0,78,0,,,,,,,,,,,,,,,,,708.7294556999987,None,materials/readPic.jpg,couch,A_silent,78,70,705.0359743000008,None,705.0359743000008,None,705.9765938000055,None,706.2335978000046,None,706.2335978000046,None,,,,,,,,,,,,,,,,,,,,,,,,,,,,,,,,,,,base5,001,2019_Oct_24_1501,ProdFawcett_Revision2019,3.2.3,59.96120509981894,
79,0,79,0,,,,,,,,,,,,,,,,,713.0003899000003,None,materials/readPic.jpg,estate,A_silent,79,119,709.3096170000063,None,709.3096170000063,None,710.2492404000077,None,710.5058745999995,None,710.5058745999995,None,,,,,,,,,,,,,,,,,,,,,,,,,,,,,,,,,,,base5,001,2019_Oct_24_1501,ProdFawcett_Revision2019,3.2.3,59.96120509981894,
80,0,80,0,,,,,,,,,,,,,,,,,717.2711517999996,None,materials/speakPic.jpg,column,B_aloud1,80,57,713.6134036000003,None,713.6134036000003,None,714.5187222999957,None,714.7753553000075,None,714.7753553000075,None,,,,,,,,,,,,,,,,,,,,,,,,,,,,,,,,,,,base5,001,2019_Oct_24_1501,ProdFawcett_Revision2019,3.2.3,59.96120509981894,
81,0,81,0,,,,,,,,,,,,,,,,,721.5425372000027,None,materials/readPic.jpg,religion,A_silent,81,258,717.8576198999945,None,717.8576198999945,None,718.7884814999998,None,719.0387770999951,None,719.0387770999951,None,,,,,,,,,,,,,,,,,,,,,,,,,,,,,,,,,,,base5,001,2019_Oct_24_1501,ProdFawcett_Revision2019,3.2.3,59.96120509981894,
82,0,82,0,,,,,,,,,,,,,,,,,725.813184300001,None,materials/readPic.jpg,prime,A_silent,82,235,722.1442954999948,None,722.1442954999948,None,723.060453099999,None,723.317546899998,None,723.317546899998,None,,,,,,,,,,,,,,,,,,,,,,,,,,,,,,,,,,,base5,001,2019_Oct_24_1501,ProdFawcett_Revision2019,3.2.3,59.96120509981894,
83,0,83,0,,,,,,,,,,,,,,,,,730.0830837999965,None,materials/mumblePic.jpg,order,C_aloud2,83,207,726.3716599000036,None,726.3716599000036,None,727.3320596999984,None,727.5880409999954,None,727.5880409999954,None,,,,,,,,,,,,,,,,,,,,,,,,,,,,,,,,,,,base5,001,2019_Oct_24_1501,ProdFawcett_Revision2019,3.2.3,59.96120509981894,
84,0,84,0,,,,,,,,,,,,,,,,,734.3552885999961,None,materials/mumblePic.jpg,finish,C_aloud2,84,130,730.6340155000071,None,730.6340155000071,None,731.6022544000007,None,731.8583496000065,None,731.8583496000065,None,,,,,,,,,,,,,,,,,,,,,,,,,,,,,,,,,,,base5,001,2019_Oct_24_1501,ProdFawcett_Revision2019,3.2.3,59.96120509981894,
85,0,85,0,,,,,,,,,,,,,,,,,738.6258291999984,None,materials/mumblePic.jpg,agency,C_aloud2,85,4,734.8988971000072,None,734.8988971000072,None,735.8735012999969,None,736.1352872999996,None,736.1352872999996,None,,,,,,,,,,,,,,,,,,,,,,,,,,,,,,,,,,,base5,001,2019_Oct_24_1501,ProdFawcett_Revision2019,3.2.3,59.96120509981894,
86,0,86,0,,,,,,,,,,,,,,,,,742.8969264000043,None,materials/speakPic.jpg,profession,B_aloud1,86,241,739.2138798999949,None,739.2138798999949,None,740.1441272999946,None,740.4025379000086,None,740.4025379000086,None,,,,,,,,,,,,,,,,,,,,,,,,,,,,,,,,,,,base5,001,2019_Oct_24_1501,ProdFawcett_Revision2019,3.2.3,59.96120509981894,
87,0,87,0,,,,,,,,,,,,,,,,,747.1679762999993,None,materials/speakPic.jpg,dream,B_aloud1,87,104,743.4777539000061,None,743.4777539000061,None,744.4157866000023,None,744.6715409000026,None,744.6715409000026,None,,,,,,,,,,,,,,,,,,,,,,,,,,,,,,,,,,,base5,001,2019_Oct_24_1501,ProdFawcett_Revision2019,3.2.3,59.96120509981894,
88,0,88,0,,,,,,,,,,,,,,,,,751.4381314000057,None,materials/mumblePic.jpg,guest,C_aloud2,88,146,747.7135464000021,None,747.7135464000021,None,748.6846839000063,None,748.9350148000085,None,748.9350148000085,None,,,,,,,,,,,,,,,,,,,,,,,,,,,,,,,,,,,base5,001,2019_Oct_24_1501,ProdFawcett_Revision2019,3.2.3,59.96120509981894,
89,0,89,0,,,,,,,,,,,,,,,,,755.7099856999994,None,materials/readPic.jpg,majority,A_silent,89,176,752.0273614000034,None,752.0273614000034,None,752.9572120999946,None,753.2197921000043,None,753.2197921000043,None,,,,,,,,,,,,,,,,,,,,,,,,,,,,,,,,,,,base5,001,2019_Oct_24_1501,ProdFawcett_Revision2019,3.2.3,59.96120509981894,
,,,,,,,,,,,,,,,,,,,,,,,,,,,,,,,,,,,,,756.210193100007,None,k,82.42382959999668,756.210193100007,None,,,,,,,,,,,,,,,,,,,,,,,,,,,,,base5,001,2019_Oct_24_1501,ProdFawcett_Revision2019,3.2.3,59.96120509981894,
,,,,,,,,,,,,,,838.6582611000049,None,space,11.655981500007329,838.6582611000049,None,,,,,,,,,,,,,,,,,,,,,,,,,,,,,,,,,,,,,,,,,,,,,,,,,,,,base5,001,2019_Oct_24_1501,ProdFawcett_Revision2019,3.2.3,59.96120509981894,
,,,,0,0,0,0,,,,,,,,,,,,,862.1841626999958,None,,,,,,,,,,,,,,,,,,,,,,sound,B_aloud1,0,295,850.8633142000035,None,850.8633142000035,None,850.8633142000035,None,6,4.403154100000393,850.8633142000035,None,855.3219209999952,None,855.3219209999952,None,855.8410920000024,None,855.8410920000024,None,855.8410920000024,None,r,6.2972470999957295,855.8410920000024,None,base5,001,2019_Oct_24_1501,ProdFawcett_Revision2019,3.2.3,59.96120509981894,
,,,,1,0,1,0,,,,,,,,,,,,,867.7148005000054,None,,,,,,,,,,,,,,,,,,,,,,emergency,C_aloud2,1,110,862.7068683999969,None,862.7068683999969,None,862.7068683999969,None,6,3.3033963999914704,862.7068683999969,None,866.0750350000017,None,866.0750350000017,None,866.5899275999982,None,866.5899275999982,None,866.5899275999982,None,r,1.0924536999955308,866.5899275999982,None,base5,001,2019_Oct_24_1501,ProdFawcett_Revision2019,3.2.3,59.96120509981894,
,,,,2,0,2,0,,,,,,,,,,,,,874.8938262000011,None,,,,,,,,,,,,,,,,,,,,,,scale,D_new,2,272,868.2371447000041,None,868.2371447000041,None,868.2371447000041,None,1,2.077169500000309,868.2371447000041,None,870.3647250000067,None,870.3647250000067,None,870.873960900004,None,870.873960900004,None,870.873960900004,None,f,3.9764870000071824,870.873960900004,None,base5,001,2019_Oct_24_1501,ProdFawcett_Revision2019,3.2.3,59.96120509981894,
,,,,3,0,3,0,,,,,,,,,,,,,882.0523020999972,None,,,,,,,,,,,,,,,,,,,,,,center,B_aloud1,3,44,875.4124720999971,None,875.4124720999971,None,875.4124720999971,None,5,2.245879200010677,875.4124720999971,None,877.7085441999952,None,877.7085441999952,None,878.2293661000003,None,878.2293661000003,None,878.2293661000003,None,f,3.7889981000043917,878.2293661000003,None,base5,001,2019_Oct_24_1501,ProdFawcett_Revision2019,3.2.3,59.96120509981894,
,,,,4,0,4,0,,,,,,,,,,,,,888.5230865000049,None,,,,,,,,,,,,,,,,,,,,,,division,A_silent,4,101,882.5741345999995,None,882.5741345999995,None,882.5741345999995,None,6,3.2121048999979394,882.5741345999995,None,885.838754700002,None,885.838754700002,None,886.3575491999945,None,886.3575491999945,None,886.3575491999945,None,r,2.13341809999838,886.3575491999945,None,base5,001,2019_Oct_24_1501,ProdFawcett_Revision2019,3.2.3,59.96120509981894,
,,,,5,0,5,0,,,,,,,,,,,,,893.347743300008,None,,,,,,,,,,,,,,,,,,,,,,spoke,C_aloud2,5,300,889.0443822000088,None,889.0443822000088,None,889.0443822000088,None,6,2.7739136000018334,889.0443822000088,None,891.8704902000027,None,891.8704902000027,None,892.3782674999966,None,892.3782674999966,None,892.3782674999966,None,r,0.9516698000079487,892.3782674999966,None,base5,001,2019_Oct_24_1501,ProdFawcett_Revision2019,3.2.3,59.96120509981894,
,,,,6,0,6,0,,,,,,,,,,,,,897.3305598000006,None,,,,,,,,,,,,,,,,,,,,,,attack,A_silent,6,13,893.8636425000004,None,893.8636425000004,None,893.8636425000004,None,6,2.0667654999997467,893.8636425000004,None,895.9553460000025,None,895.9553460000025,None,896.465623600001,None,896.465623600001,None,896.465623600001,None,r,0.8327378999965731,896.465623600001,None,base5,001,2019_Oct_24_1501,ProdFawcett_Revision2019,3.2.3,59.96120509981894,
,,,,7,0,7,0,,,,,,,,,,,,,901.5949420999968,None,,,,,,,,,,,,,,,,,,,,,,column,B_aloud1,7,57,897.8403412000043,None,897.8403412000043,None,897.8403412000043,None,5,2.313574800005881,897.8403412000043,None,900.1741114000033,None,900.1741114000033,None,900.7000160000025,None,900.7000160000025,None,900.7000160000025,None,r,0.8699509999860311,900.7000160000025,None,base5,001,2019_Oct_24_1501,ProdFawcett_Revision2019,3.2.3,59.96120509981894,
,,,,8,0,8,0,,,,,,,,,,,,,905.2590501999948,None,,,,,,,,,,,,,,,,,,,,,,union,A_silent,8,344,902.109461400003,None,902.109461400003,None,902.109461400003,None,6,1.5965778999961913,902.109461400003,None,903.7348314999981,None,903.7348314999981,None,904.2400888999982,None,904.2400888999982,None,904.2400888999982,None,r,0.9939793999947142,904.2400888999982,None,base5,001,2019_Oct_24_1501,ProdFawcett_Revision2019,3.2.3,59.96120509981894,
,,,,9,0,9,0,,,,,,,,,,,,,908.6004178000003,None,,,,,,,,,,,,,,,,,,,,,,industry,A_silent,9,161,905.761485199997,None,905.761485199997,None,905.761485199997,None,6,1.3603996000019833,905.761485199997,None,907.1503092000057,None,907.1503092000057,None,907.6648233000014,None,907.6648233000014,None,907.6648233000014,None,r,0.9132976999972016,907.6648233000014,None,base5,001,2019_Oct_24_1501,ProdFawcett_Revision2019,3.2.3,59.96120509981894,
,,,,10,0,10,0,,,,,,,,,,,,,912.4549186000077,None,,,,,,,,,,,,,,,,,,,,,,birth,C_aloud2,10,22,909.1171691000054,None,909.1171691000054,None,909.1171691000054,None,6,2.1167868000047747,909.1171691000054,None,911.278080899996,None,911.278080899996,None,911.7874063000054,None,911.7874063000054,None,911.7874063000054,None,r,0.6386885999963852,911.7874063000054,None,base5,001,2019_Oct_24_1501,ProdFawcett_Revision2019,3.2.3,59.96120509981894,
,,,,11,0,11,0,,,,,,,,,,,,,917.6453592000034,None,,,,,,,,,,,,,,,,,,,,,,sight,D_new,11,286,912.9716268000047,None,912.9716268000047,None,912.9716268000047,None,4,2.8463998999941396,912.9716268000047,None,915.8489631999983,None,915.8489631999983,None,916.3593875000079,None,916.3593875000079,None,916.3593875000079,None,f,1.2506141999911051,916.3593875000079,None,base5,001,2019_Oct_24_1501,ProdFawcett_Revision2019,3.2.3,59.96120509981894,
,,,,12,0,12,0,,,,,,,,,,,,,921.0129910999967,None,,,,,,,,,,,,,,,,,,,,,,shape,D_new,12,282,918.1599477999989,None,918.1599477999989,None,918.1599477999989,None,6,1.6023067999922205,918.1599477999989,None,919.8085396999959,None,919.8085396999959,None,920.339307400005,None,920.339307400005,None,920.339307400005,None,r,0.6468222999974387,920.339307400005,None,base5,001,2019_Oct_24_1501,ProdFawcett_Revision2019,3.2.3,59.96120509981894,
,,,,13,0,13,0,,,,,,,,,,,,,927.0600813000055,None,,,,,,,,,,,,,,,,,,,,,,force,D_new,13,131,921.5347987999994,None,921.5347987999994,None,921.5347987999994,None,6,3.235480000003008,921.5347987999994,None,924.8094893000089,None,924.8094893000089,None,925.3274130000063,None,925.3274130000063,None,925.3274130000063,None,f,1.6911511000071187,925.3274130000063,None,base5,001,2019_Oct_24_1501,ProdFawcett_Revision2019,3.2.3,59.96120509981894,
,,,,14,0,14,0,,,,,,,,,,,,,934.3397040999989,None,,,,,,,,,,,,,,,,,,,,,,quarter,D_new,14,246,927.5827587999956,None,927.5827587999956,None,927.5827587999956,None,1,2.4915330999938305,927.5827587999956,None,930.123611300005,None,930.123611300005,None,930.6544048000069,None,930.6544048000069,None,930.6544048000069,None,n,3.644049599999562,930.6544048000069,None,base5,001,2019_Oct_24_1501,ProdFawcett_Revision2019,3.2.3,59.96120509981894,
,,,,15,0,15,0,,,,,,,,,,,,,938.342138699998,None,,,,,,,,,,,,,,,,,,,,,,device,D_new,15,93,934.8744773000071,None,934.8744773000071,None,934.8744773000071,None,1,1.3595538999943528,934.8744773000071,None,936.270204600005,None,936.270204600005,None,936.7807899000036,None,936.7807899000036,None,936.7807899000036,None,f,1.5173981000116328,936.7807899000036,None,base5,001,2019_Oct_24_1501,ProdFawcett_Revision2019,3.2.3,59.96120509981894,
,,,,16,0,16,0,,,,,,,,,,,,,941.793164600007,None,,,,,,,,,,,,,,,,,,,,,,mayor,B_aloud1,16,183,938.8591138000047,None,938.8591138000047,None,938.8591138000047,None,6,1.687098499998683,938.8591138000047,None,940.5924625000043,None,940.5924625000043,None,941.1086308000085,None,941.1086308000085,None,941.1086308000085,None,r,0.653861999991932,941.1086308000085,None,base5,001,2019_Oct_24_1501,ProdFawcett_Revision2019,3.2.3,59.96120509981894,
,,,,17,0,17,0,,,,,,,,,,,,,945.2832874000014,None,,,,,,,,,,,,,,,,,,,,,,military,B_aloud1,17,190,942.3132344000041,None,942.3132344000041,None,942.3132344000041,None,6,1.384967100006179,942.3132344000041,None,943.7393299999967,None,943.7393299999967,None,944.2642668000044,None,944.2642668000044,None,944.2642668000044,None,r,0.9780890999973053,944.2642668000044,None,base5,001,2019_Oct_24_1501,ProdFawcett_Revision2019,3.2.3,59.96120509981894,
,,,,18,0,18,0,,,,,,,,,,,,,948.4726889000012,None,,,,,,,,,,,,,,,,,,,,,,religion,A_silent,18,258,945.8095103999949,None,945.8095103999949,None,945.8095103999949,None,6,1.2086841999989701,945.8095103999949,None,947.0645453000034,None,947.0645453000034,None,947.5830468000058,None,947.5830468000058,None,947.5830468000058,None,r,0.8516303999931552,947.5830468000058,None,base5,001,2019_Oct_24_1501,ProdFawcett_Revision2019,3.2.3,59.96120509981894,
,,,,19,0,19,0,,,,,,,,,,,,,954.6779731999995,None,,,,,,,,,,,,,,,,,,,,,,production,D_new,19,240,949.002176199996,None,949.002176199996,None,949.002176199996,None,1,2.7840672000020277,949.002176199996,None,951.8312779999978,None,951.8312779999978,None,952.3525983,None,952.3525983,None,952.3525983,None,f,2.2816615000047022,952.3525983,None,base5,001,2019_Oct_24_1501,ProdFawcett_Revision2019,3.2.3,59.96120509981894,
,,,,20,0,20,0,,,,,,,,,,,,,958.2426687999978,None,,,,,,,,,,,,,,,,,,,,,,territory,D_new,20,324,955.2137220000004,None,955.2137220000004,None,955.2137220000004,None,6,1.5968548999953782,955.2137220000004,None,956.852673100002,None,956.852673100002,None,957.3747383000009,None,957.3747383000009,None,957.3747383000009,None,r,0.8276520000072196,957.3747383000009,None,base5,001,2019_Oct_24_1501,ProdFawcett_Revision2019,3.2.3,59.96120509981894,
,,,,21,0,21,0,,,,,,,,,,,,,963.5391719000036,None,,,,,,,,,,,,,,,,,,,,,,business,D_new,21,38,958.7513772999955,None,958.7513772999955,None,958.7513772999955,None,2,2.947038900005282,958.7513772999955,None,961.7447312000004,None,961.7447312000004,None,962.2665198000032,None,962.2665198000032,None,962.2665198000032,None,n,1.2394350999966264,962.2665198000032,None,base5,001,2019_Oct_24_1501,ProdFawcett_Revision2019,3.2.3,59.96120509981894,
,,,,22,0,22,0,,,,,,,,,,,,,967.5902843000076,None,,,,,,,,,,,,,,,,,,,,,,member,B_aloud1,22,188,964.0698269999993,None,964.0698269999993,None,964.0698269999993,None,1,1.5884470000019064,964.0698269999993,None,965.7109133000049,None,965.7109133000049,None,966.2380246999965,None,966.2380246999965,None,966.2380246999965,None,n,1.3164885000005597,966.2380246999965,None,base5,001,2019_Oct_24_1501,ProdFawcett_Revision2019,3.2.3,59.96120509981894,
,,,,23,0,23,0,,,,,,,,,,,,,971.6261836000049,None,,,,,,,,,,,,,,,,,,,,,,damage,D_new,23,83,968.1281861000025,None,968.1281861000025,None,968.1281861000025,None,4,1.8820078000135254,968.1281861000025,None,970.0535404999973,None,970.0535404999973,None,970.5737263000046,None,970.5737263000046,None,970.5737263000046,None,r,1.0126542999933008,970.5737263000046,None,base5,001,2019_Oct_24_1501,ProdFawcett_Revision2019,3.2.3,59.96120509981894,
,,,,24,0,24,0,,,,,,,,,,,,,975.4820280999993,None,,,,,,,,,,,,,,,,,,,,,,dance,A_silent,24,84,972.1429440000065,None,972.1429440000065,None,972.1429440000065,None,5,1.6273436000046786,972.1429440000065,None,973.8286775000015,None,973.8286775000015,None,974.3405415000016,None,974.3405415000016,None,974.3405415000016,None,r,1.1016450000024633,974.3405415000016,None,base5,001,2019_Oct_24_1501,ProdFawcett_Revision2019,3.2.3,59.96120509981894,
,,,,25,0,25,0,,,,,,,,,,,,,980.5988844999956,None,,,,,,,,,,,,,,,,,,,,,,carry,D_new,25,43,976.013792800004,None,976.013792800004,None,976.013792800004,None,1,1.3006357999984175,976.013792800004,None,977.3560367000027,None,977.3560367000027,None,977.8800215000083,None,977.8800215000083,None,977.8800215000083,None,n,2.6824516999913612,977.8800215000083,None,base5,001,2019_Oct_24_1501,ProdFawcett_Revision2019,3.2.3,59.96120509981894,
,,,,26,0,26,0,,,,,,,,,,,,,984.2593762000033,None,,,,,,,,,,,,,,,,,,,,,,committee,D_new,26,62,981.1198751000047,None,981.1198751000047,None,981.1198751000047,None,1,1.4664210000046296,981.1198751000047,None,982.6247555000009,None,982.6247555000009,None,983.1507093999971,None,983.1507093999971,None,983.1507093999971,None,n,1.0674788000033004,983.1507093999971,None,base5,001,2019_Oct_24_1501,ProdFawcett_Revision2019,3.2.3,59.96120509981894,
,,,,27,0,27,0,,,,,,,,,,,,,987.7394047999987,None,,,,,,,,,,,,,,,,,,,,,,motion,C_aloud2,27,194,984.7887298999995,None,984.7887298999995,None,984.7887298999995,None,6,1.4617684999975609,984.7887298999995,None,986.2990380999981,None,986.2990380999981,None,986.8195874000085,None,986.8195874000085,None,986.8195874000085,None,r,0.8873292000062065,986.8195874000085,None,base5,001,2019_Oct_24_1501,ProdFawcett_Revision2019,3.2.3,59.96120509981894,
,,,,28,0,28,0,,,,,,,,,,,,,991.3655131999985,None,,,,,,,,,,,,,,,,,,,,,,relation,D_new,28,257,988.2595247999998,None,988.2595247999998,None,988.2595247999998,None,1,1.1749699999927543,988.2595247999998,None,989.4879542999988,None,989.4879542999988,None,990.0062599000084,None,990.0062599000084,None,990.0062599000084,None,f,1.3239828000077978,990.0062599000084,None,base5,001,2019_Oct_24_1501,ProdFawcett_Revision2019,3.2.3,59.96120509981894,
,,,,29,0,29,0,,,,,,,,,,,,,995.9973312000075,None,,,,,,,,,,,,,,,,,,,,,,finish,C_aloud2,29,130,991.8928382000013,None,991.8928382000013,None,991.8928382000013,None,6,2.270061799994437,991.8928382000013,None,994.2034289000003,None,994.2034289000003,None,994.7269205000048,None,994.7269205000048,None,994.7269205000048,None,r,1.2274556000047596,994.7269205000048,None,base5,001,2019_Oct_24_1501,ProdFawcett_Revision2019,3.2.3,59.96120509981894,
,,,,30,0,30,0,,,,,,,,,,,,,1000.185458100008,None,,,,,,,,,,,,,,,,,,,,,,light,D_new,30,171,996.5222544999997,None,996.5222544999997,None,996.5222544999997,None,6,2.240011499990942,996.5222544999997,None,998.814696100002,None,998.814696100002,None,999.3348039999983,None,999.3348039999983,None,999.3348039999983,None,r,0.8195583000051556,999.3348039999983,None,base5,001,2019_Oct_24_1501,ProdFawcett_Revision2019,3.2.3,59.96120509981894,
,,,,31,0,31,0,,,,,,,,,,,,,1003.3963638999994,None,,,,,,,,,,,,,,,,,,,,,,title,C_aloud2,31,331,1000.6930875999969,None,1000.6930875999969,None,1000.6930875999969,None,6,1.4453306999930646,1000.6930875999969,None,1002.1819227000087,None,1002.1819227000087,None,1002.7048369999975,None,1002.7048369999975,None,1002.7048369999975,None,r,0.6574045000015758,1002.7048369999975,None,base5,001,2019_Oct_24_1501,ProdFawcett_Revision2019,3.2.3,59.96120509981894,
,,,,32,0,32,0,,,,,,,,,,,,,1007.1587961000041,None,,,,,,,,,,,,,,,,,,,,,,trail,D_new,32,336,1003.9227753000014,None,1003.9227753000014,None,1003.9227753000014,None,1,1.527589799996349,1003.9227753000014,None,1005.5020325000078,None,1005.5020325000078,None,1006.0208499,None,1006.0208499,None,1006.0208499,None,f,1.1016276000009384,1006.0208499,None,base5,001,2019_Oct_24_1501,ProdFawcett_Revision2019,3.2.3,59.96120509981894,
,,,,33,0,33,0,,,,,,,,,,,,,1010.8625679999968,None,,,,,,,,,,,,,,,,,,,,,,rural,B_aloud1,33,269,1007.6785903999989,None,1007.6785903999989,None,1007.6785903999989,None,6,1.3396995999937644,1007.6785903999989,None,1009.0692118000006,None,1009.0692118000006,None,1009.5935433999985,None,1009.5935433999985,None,1009.5935433999985,None,r,1.232867200000328,1009.5935433999985,None,base5,001,2019_Oct_24_1501,ProdFawcett_Revision2019,3.2.3,59.96120509981894,
,,,,34,0,34,0,,,,,,,,,,,,,1015.9257982999989,None,,,,,,,,,,,,,,,,,,,,,,chief,D_new,34,48,1011.3822097000084,None,1011.3822097000084,None,1011.3822097000084,None,4,3.324373600000399,1011.3822097000084,None,1014.7645006999956,None,1014.7645006999956,None,1015.280820400003,None,1015.280820400003,None,1015.280820400003,None,r,0.61725560000923,1015.280820400003,None,base5,001,2019_Oct_24_1501,ProdFawcett_Revision2019,3.2.3,59.96120509981894,
,,,,35,0,35,0,,,,,,,,,,,,,1019.9717381999944,None,,,,,,,,,,,,,,,,,,,,,,background,A_silent,35,16,1016.464275300008,None,1016.464275300008,None,1016.464275300008,None,1,1.6982406999886734,1016.464275300008,None,1018.2227552999975,None,1018.2227552999975,None,1018.7234103999945,None,1018.7234103999945,None,1018.7234103999945,None,n,1.2153996999986703,1018.7234103999945,None,base5,001,2019_Oct_24_1501,ProdFawcett_Revision2019,3.2.3,59.96120509981894,
,,,,36,0,36,0,,,,,,,,,,,,,1024.1846370999992,None,,,,,,,,,,,,,,,,,,,,,,dream,B_aloud1,36,104,1020.4980138999963,None,1020.4980138999963,None,1020.4980138999963,None,6,2.4482980000029784,1020.4980138999963,None,1023.0045885,None,1023.0045885,None,1023.5269258000044,None,1023.5269258000044,None,1023.5269258000044,None,r,0.6275234000058845,1023.5269258000044,None,base5,001,2019_Oct_24_1501,ProdFawcett_Revision2019,3.2.3,59.96120509981894,
,,,,37,0,37,0,,,,,,,,,,,,,1029.1036639000085,None,,,,,,,,,,,,,,,,,,,,,,grade,D_new,37,140,1024.7139180000086,None,1024.7139180000086,None,1024.7139180000086,None,1,2.8332397999911336,1024.7139180000086,None,1027.591244700001,None,1027.591244700001,None,1028.1144316999998,None,1028.1144316999998,None,1028.1144316999998,None,f,0.9598732000013115,1028.1144316999998,None,base5,001,2019_Oct_24_1501,ProdFawcett_Revision2019,3.2.3,59.96120509981894,
,,,,38,0,38,0,,,,,,,,,,,,,1032.8510815000045,None,,,,,,,,,,,,,,,,,,,,,,mankind,B_aloud1,38,178,1029.6354086000065,None,1029.6354086000065,None,1029.6354086000065,None,1,1.37488210000447,1029.6354086000065,None,1031.0602161999996,None,1031.0602161999996,None,1031.581766000003,None,1031.581766000003,None,1031.581766000003,None,r,1.236949199999799,1031.581766000003,None,base5,001,2019_Oct_24_1501,ProdFawcett_Revision2019,3.2.3,59.96120509981894,
,,,,39,0,39,0,,,,,,,,,,,,,1038.1376867000072,None,,,,,,,,,,,,,,,,,,,,,,novel,C_aloud2,39,202,1033.374723800007,None,1033.374723800007,None,1033.374723800007,None,6,3.867461899993941,1033.374723800007,None,1037.289380400005,None,1037.289380400005,None,1037.8132978000067,None,1037.8132978000067,None,1037.8132978000067,None,r,0.2847806999925524,1037.8132978000067,None,base5,001,2019_Oct_24_1501,ProdFawcett_Revision2019,3.2.3,59.96120509981894,
,,,,40,0,40,0,,,,,,,,,,,,,1041.3106708999985,None,,,,,,,,,,,,,,,,,,,,,,reading,C_aloud2,40,254,1038.6601631999947,None,1038.6601631999947,None,1038.6601631999947,None,6,1.51805620000232,1038.6601631999947,None,1040.2206718000089,None,1040.2206718000089,None,1040.7486284000042,None,1040.7486284000042,None,1040.7486284000042,None,r,0.5179320000024745,1040.7486284000042,None,base5,001,2019_Oct_24_1501,ProdFawcett_Revision2019,3.2.3,59.96120509981894,
,,,,41,0,41,0,,,,,,,,,,,,,1045.5136114000052,None,,,,,,,,,,,,,,,,,,,,,,candidate,D_new,41,39,1041.8319878000038,None,1041.8319878000038,None,1041.8319878000038,None,1,2.874405000009574,1041.8319878000038,None,1044.7541711000085,None,1044.7541711000085,None,1045.279747499997,None,1045.279747499997,None,1045.279747499997,None,f,0.19470219999493565,1045.279747499997,None,base5,001,2019_Oct_24_1501,ProdFawcett_Revision2019,3.2.3,59.96120509981894,
,,,,42,0,42,0,,,,,,,,,,,,,1048.2154909999954,None,,,,,,,,,,,,,,,,,,,,,,balance,B_aloud1,42,17,1046.0331508999952,None,1046.0331508999952,None,1046.0331508999952,None,6,1.2496015000069747,1046.0331508999952,None,1047.3300056000007,None,1047.3300056000007,None,1047.8544445000007,None,1047.8544445000007,None,1047.8544445000007,None,r,0.32385790000262205,1047.8544445000007,None,base5,001,2019_Oct_24_1501,ProdFawcett_Revision2019,3.2.3,59.96120509981894,
,,,,43,0,43,0,,,,,,,,,,,,,1051.4501074,None,,,,,,,,,,,,,,,,,,,,,,poetry,D_new,43,225,1048.7281038000074,None,1048.7281038000074,None,1048.7281038000074,None,4,1.7862629000010202,1048.7281038000074,None,1050.564391299995,None,1050.564391299995,None,1051.0838100999972,None,1051.0838100999972,None,1051.0838100999972,None,f,0.33481669999309815,1051.0838100999972,None,base5,001,2019_Oct_24_1501,ProdFawcett_Revision2019,3.2.3,59.96120509981894,
,,,,44,0,44,0,,,,,,,,,,,,,1054.4893672000035,None,,,,,,,,,,,,,,,,,,,,,,trend,C_aloud2,44,340,1051.9789429000084,None,1051.9789429000084,None,1051.9789429000084,None,6,1.6074342000065371,1051.9789429000084,None,1053.6385194000031,None,1053.6385194000031,None,1054.1562024000013,None,1054.1562024000013,None,1054.1562024000013,None,r,0.2941156000015326,1054.1562024000013,None,base5,001,2019_Oct_24_1501,ProdFawcett_Revision2019,3.2.3,59.96120509981894,
,,,,45,0,45,0,,,,,,,,,,,,,1057.0586146999995,None,,,,,,,,,,,,,,,,,,,,,,majority,A_silent,45,176,1055.0119445000018,None,1055.0119445000018,None,1055.0119445000018,None,6,1.142607899993891,1055.0119445000018,None,1056.2066682000004,None,1056.2066682000004,None,1056.7247636999964,None,1056.7247636999964,None,1056.7247636999964,None,r,0.29364789999090135,1056.7247636999964,None,base5,001,2019_Oct_24_1501,ProdFawcett_Revision2019,3.2.3,59.96120509981894,
,,,,46,0,46,0,,,,,,,,,,,,,1059.5428909000038,None,,,,,,,,,,,,,,,,,,,,,,staff,A_silent,46,301,1057.5776244000008,None,1057.5776244000008,None,1057.5776244000008,None,6,1.1766724000044633,1057.5776244000008,None,1058.8000583999965,None,1058.8000583999965,None,1059.324343100001,None,1059.324343100001,None,1059.324343100001,None,r,0.18992989999242127,1059.324343100001,None,base5,001,2019_Oct_24_1501,ProdFawcett_Revision2019,3.2.3,59.96120509981894,
,,,,47,0,47,0,,,,,,,,,,,,,1063.2816708000028,None,,,,,,,,,,,,,,,,,,,,,,smooth,C_aloud2,47,292,1060.0662951999984,None,1060.0662951999984,None,1060.0662951999984,None,6,2.455981899998733,1060.0662951999984,None,1062.5726211,None,1062.5726211,None,1063.100967899998,None,1063.100967899998,None,1063.100967899998,None,r,0.14137209999898914,1063.100967899998,None,base5,001,2019_Oct_24_1501,ProdFawcett_Revision2019,3.2.3,59.96120509981894,
,,,,48,0,48,0,,,,,,,,,,,,,1067.001993400001,None,,,,,,,,,,,,,,,,,,,,,,watch,D_new,48,351,1063.8023074000084,None,1063.8023074000084,None,1063.8023074000084,None,1,1.392023499996867,1063.8023074000084,None,1065.250419300006,None,1065.250419300006,None,1065.7716032000026,None,1065.7716032000026,None,1065.7716032000026,None,f,1.1906985000096029,1065.7716032000026,None,base5,001,2019_Oct_24_1501,ProdFawcett_Revision2019,3.2.3,59.96120509981894,
,,,,49,0,49,0,,,,,,,,,,,,,1071.3878623000055,None,,,,,,,,,,,,,,,,,,,,,,weather,A_silent,49,352,1067.5235725999955,None,1067.5235725999955,None,1067.5235725999955,None,3,3.014683100002003,1067.5235725999955,None,1070.586100200002,None,1070.586100200002,None,1071.1085224999988,None,1071.1085224999988,None,1071.1085224999988,None,f,0.23774360000970773,1071.1085224999988,None,base5,001,2019_Oct_24_1501,ProdFawcett_Revision2019,3.2.3,59.96120509981894,
,,,,50,0,50,0,,,,,,,,,,,,,1073.9747876000038,None,,,,,,,,,,,,,,,,,,,,,,listen,C_aloud2,50,172,1071.908237399999,None,1071.908237399999,None,1071.908237399999,None,6,1.2380440999986604,1071.908237399999,None,1073.196981800007,None,1073.196981800007,None,1073.7237586999981,None,1073.7237586999981,None,1073.7237586999981,None,r,0.206485500006238,1073.7237586999981,None,base5,001,2019_Oct_24_1501,ProdFawcett_Revision2019,3.2.3,59.96120509981894,
,,,,51,0,51,0,,,,,,,,,,,,,1076.7794024000032,None,,,,,,,,,,,,,,,,,,,,,,hearing,D_new,51,150,1074.4981466000027,None,1074.4981466000027,None,1074.4981466000027,None,3,1.568242300010752,1074.4981466000027,None,1076.124133300007,None,1076.124133300007,None,1076.6344031000044,None,1076.6344031000044,None,1076.6344031000044,None,f,0.11200259999895934,1076.6344031000044,None,base5,001,2019_Oct_24_1501,ProdFawcett_Revision2019,3.2.3,59.96120509981894,
,,,,52,0,52,0,,,,,,,,,,,,,1079.3802469000075,None,,,,,,,,,,,,,,,,,,,,,,corner,C_aloud2,52,69,1077.2981183999946,None,1077.2981183999946,None,1077.2981183999946,None,6,1.3759265999979107,1077.2981183999946,None,1078.7097685000044,None,1078.7097685000044,None,1079.2295236000064,None,1079.2295236000064,None,1079.2295236000064,None,r,0.10871630000474397,1079.2295236000064,None,base5,001,2019_Oct_24_1501,ProdFawcett_Revision2019,3.2.3,59.96120509981894,
,,,,53,0,53,0,,,,,,,,,,,,,1083.1416153000027,None,,,,,,,,,,,,,,,,,,,,,,beauty,D_new,53,18,1079.9024130000034,None,1079.9024130000034,None,1079.9024130000034,None,2,2.155878899997333,1079.9024130000034,None,1082.1070325000037,None,1082.1070325000037,None,1082.632209400006,None,1082.632209400006,None,1082.632209400006,None,f,0.4820410000102129,1082.632209400006,None,base5,001,2019_Oct_24_1501,ProdFawcett_Revision2019,3.2.3,59.96120509981894,
,,,,54,0,54,0,,,,,,,,,,,,,1086.3793163999944,None,,,,,,,,,,,,,,,,,,,,,,answer,D_new,54,8,1083.6715187000082,None,1083.6715187000082,None,1083.6715187000082,None,6,2.002753099994152,1083.6715187000082,None,1085.715025700003,None,1085.715025700003,None,1086.2430449999956,None,1086.2430449999956,None,1086.2430449999956,None,r,0.10313849999511149,1086.2430449999956,None,base5,001,2019_Oct_24_1501,ProdFawcett_Revision2019,3.2.3,59.96120509981894,
,,,,55,0,55,0,,,,,,,,,,,,,1088.690147900008,None,,,,,,,,,,,,,,,,,,,,,,direction,C_aloud2,55,94,1086.9038250000012,None,1086.9038250000012,None,1086.9038250000012,None,6,1.0902482999954373,1086.9038250000012,None,1088.0375705000042,None,1088.0375705000042,None,1088.5480533999944,None,1088.5480533999944,None,1088.5480533999944,None,r,0.10226729999703821,1088.5480533999944,None,base5,001,2019_Oct_24_1501,ProdFawcett_Revision2019,3.2.3,59.96120509981894,
,,,,56,0,56,0,,,,,,,,,,,,,1093.0941443000047,None,,,,,,,,,,,,,,,,,,,,,,dispute,D_new,56,99,1089.2103477000055,None,1089.2103477000055,None,1089.2103477000055,None,1,1.5197229000041261,1089.2103477000055,None,1090.7769986000058,None,1090.7769986000058,None,1091.2834724999993,None,1091.2834724999993,None,1091.2834724999993,None,f,1.766901199996937,1091.2834724999993,None,base5,001,2019_Oct_24_1501,ProdFawcett_Revision2019,3.2.3,59.96120509981894,
,,,,57,0,57,0,,,,,,,,,,,,,1095.7458612000046,None,,,,,,,,,,,,,,,,,,,,,,science,A_silent,57,275,1093.6161980000034,None,1093.6161980000034,None,1093.6161980000034,None,6,1.4102652000001399,1093.6161980000034,None,1095.0732554999995,None,1095.0732554999995,None,1095.5954656999966,None,1095.5954656999966,None,1095.5954656999966,None,r,0.11080560000846162,1095.5954656999966,None,base5,001,2019_Oct_24_1501,ProdFawcett_Revision2019,3.2.3,59.96120509981894,
,,,,58,0,58,0,,,,,,,,,,,,,1099.1865414000058,None,,,,,,,,,,,,,,,,,,,,,,drama,D_new,58,103,1096.2640395000053,None,1096.2640395000053,None,1096.2640395000053,None,1,1.4023497000016505,1096.2640395000053,None,1097.7133117000049,None,1097.7133117000049,None,1098.229946499996,None,1098.229946499996,None,1098.229946499996,None,f,0.9243948999937857,1098.229946499996,None,base5,001,2019_Oct_24_1501,ProdFawcett_Revision2019,3.2.3,59.96120509981894,
,,,,59,0,59,0,,,,,,,,,,,,,1101.4691372000088,None,,,,,,,,,,,,,,,,,,,,,,short,A_silent,59,285,1099.7036219000001,None,1099.7036219000001,None,1099.7036219000001,None,6,1.0991361999913352,1099.7036219000001,None,1100.8476162000006,None,1100.8476162000006,None,1101.3675339000038,None,1101.3675339000038,None,1101.3675339000038,None,r,0.05886340000142809,1101.3675339000038,None,base5,001,2019_Oct_24_1501,ProdFawcett_Revision2019,3.2.3,59.96120509981894,
,,,,60,0,60,0,,,,,,,,,,,,,1107.2421652000048,None,,,,,,,,,,,,,,,,,,,,,,drink,D_new,60,105,1101.9893356999964,None,1101.9893356999964,None,1101.9893356999964,None,4,4.405117500005872,1101.9893356999964,None,1106.4331822999957,None,1106.4331822999957,None,1106.9559423000028,None,1106.9559423000028,None,1106.9559423000028,None,n,0.2543844000028912,1106.9559423000028,None,base5,001,2019_Oct_24_1501,ProdFawcett_Revision2019,3.2.3,59.96120509981894,
,,,,61,0,61,0,,,,,,,,,,,,,1111.1126132000063,None,,,,,,,,,,,,,,,,,,,,,,management,C_aloud2,61,177,1107.767114000002,None,1107.767114000002,None,1107.767114000002,None,6,1.5310909999971045,1107.767114000002,None,1109.3391339000082,None,1109.3391339000082,None,1109.8620078999957,None,1109.8620078999957,None,1109.8620078999957,None,r,1.2201715000119293,1109.8620078999957,None,base5,001,2019_Oct_24_1501,ProdFawcett_Revision2019,3.2.3,59.96120509981894,
,,,,62,0,62,0,,,,,,,,,,,,,1114.238998300003,None,,,,,,,,,,,,,,,,,,,,,,clean,A_silent,62,51,1111.6312370000087,None,1111.6312370000087,None,1111.6312370000087,None,6,1.7711770000023535,1111.6312370000087,None,1113.4557707000058,None,1113.4557707000058,None,1113.9803925000015,None,1113.9803925000015,None,1113.9803925000015,None,r,0.22993469999346416,1113.9803925000015,None,base5,001,2019_Oct_24_1501,ProdFawcett_Revision2019,3.2.3,59.96120509981894,
,,,,63,0,63,0,,,,,,,,,,,,,1119.2700524999964,None,,,,,,,,,,,,,,,,,,,,,,graduate,C_aloud2,63,141,1114.776337400006,None,1114.776337400006,None,1114.776337400006,None,6,3.849818699993193,1114.776337400006,None,1118.679814800009,None,1118.679814800009,None,1119.2032483000075,None,1119.2032483000075,None,1119.2032483000075,None,r,0.03128519999154378,1119.2032483000075,None,base5,001,2019_Oct_24_1501,ProdFawcett_Revision2019,3.2.3,59.96120509981894,
,,,,64,0,64,0,,,,,,,,,,,,,1131.1004869000026,None,,,,,,,,,,,,,,,,,,,,,,engineer,A_silent,64,114,1119.797030600006,None,1119.797030600006,None,1119.797030600006,None,6,3.3735273000056623,1119.797030600006,None,1123.2239830000035,None,1123.2239830000035,None,1123.7482489999966,None,1123.7482489999966,None,1123.7482489999966,None,r,7.319317899993621,1123.7482489999966,None,base5,001,2019_Oct_24_1501,ProdFawcett_Revision2019,3.2.3,59.96120509981894,
,,,,65,0,65,0,,,,,,,,,,,,,1136.0720380999992,None,,,,,,,,,,,,,,,,,,,,,,harmony,D_new,65,148,1131.618814100002,None,1131.618814100002,None,1131.618814100002,None,6,3.47948950000864,1131.618814100002,None,1135.1440732000046,None,1135.1440732000046,None,1135.6677741000021,None,1135.6677741000021,None,1135.6677741000021,None,r,0.35854280000785366,1135.6677741000021,None,base5,001,2019_Oct_24_1501,ProdFawcett_Revision2019,3.2.3,59.96120509981894,
,,,,66,0,66,0,,,,,,,,,,,,,1146.8313624000002,None,,,,,,,,,,,,,,,,,,,,,,danger,D_new,66,85,1136.594682199997,None,1136.594682199997,None,1136.594682199997,None,6,2.5837109999993118,1136.594682199997,None,1139.2325157000014,None,1139.2325157000014,None,1139.7614181999961,None,1139.7614181999961,None,1139.7614181999961,None,r,7.024841899998137,1139.7614181999961,None,base5,001,2019_Oct_24_1501,ProdFawcett_Revision2019,3.2.3,59.96120509981894,
,,,,67,0,67,0,,,,,,,,,,,,,1150.5514570999949,None,,,,,,,,,,,,,,,,,,,,,,drove,D_new,67,106,1147.3553004999994,None,1147.3553004999994,None,1147.3553004999994,None,1,1.5509220000094501,1147.3553004999994,None,1148.9651023000042,None,1148.9651023000042,None,1149.4880984000047,None,1149.4880984000047,None,1149.4880984000047,None,r,1.018359200010309,1149.4880984000047,None,base5,001,2019_Oct_24_1501,ProdFawcett_Revision2019,3.2.3,59.96120509981894,
,,,,68,0,68,0,,,,,,,,,,,,,1153.5891948000062,None,,,,,,,,,,,,,,,,,,,,,,voice,A_silent,68,348,1151.0721597000083,None,1151.0721597000083,None,1151.0721597000083,None,6,1.1301674999995157,1151.0721597000083,None,1152.246274899997,None,1152.246274899997,None,1152.7747780000063,None,1152.7747780000063,None,1152.7747780000063,None,r,0.7715309000050183,1152.7747780000063,None,base5,001,2019_Oct_24_1501,ProdFawcett_Revision2019,3.2.3,59.96120509981894,
,,,,69,0,69,0,,,,,,,,,,,,,1155.8423498000047,None,,,,,,,,,,,,,,,,,,,,,,crowd,D_new,69,81,1154.1163076999946,None,1154.1163076999946,None,1154.1163076999946,None,6,1.0300573999993503,1154.1163076999946,None,1155.2077654000022,None,1155.2077654000022,None,1155.7228036000015,None,1155.7228036000015,None,1155.7228036000015,None,r,0.0714702999975998,1155.7228036000015,None,base5,001,2019_Oct_24_1501,ProdFawcett_Revision2019,3.2.3,59.96120509981894,
,,,,70,0,70,0,,,,,,,,,,,,,1159.0778471000085,None,,,,,,,,,,,,,,,,,,,,,,sunset,D_new,70,315,1156.3474126000074,None,1156.3474126000074,None,1156.3474126000074,None,1,1.3428585000074236,1156.3474126000074,None,1157.7334902000002,None,1157.7334902000002,None,1158.2590394,None,1158.2590394,None,1158.2590394,None,n,0.7829360000032466,1158.2590394,None,base5,001,2019_Oct_24_1501,ProdFawcett_Revision2019,3.2.3,59.96120509981894,
,,,,71,0,71,0,,,,,,,,,,,,,1164.9874206999957,None,,,,,,,,,,,,,,,,,,,,,,month,D_new,71,193,1159.5946268999978,None,1159.5946268999978,None,1159.5946268999978,None,1,3.455688399990322,1159.5946268999978,None,1163.0973842999956,None,1163.0973842999956,None,1163.6127976999996,None,1163.6127976999996,None,1163.6127976999996,None,n,1.3337763999879826,1163.6127976999996,None,base5,001,2019_Oct_24_1501,ProdFawcett_Revision2019,3.2.3,59.96120509981894,
,,,,72,0,72,0,,,,,,,,,,,,,1167.7926252000034,None,,,,,,,,,,,,,,,,,,,,,,debate,D_new,72,87,1165.5222127000015,None,1165.5222127000015,None,1165.5222127000015,None,6,1.680511699989438,1165.5222127000015,None,1167.2319939000008,None,1167.2319939000008,None,1167.7552455999976,None,1167.7552455999976,None,1167.7552455999976,None,r,0.014927199998055585,1167.7552455999976,None,base5,001,2019_Oct_24_1501,ProdFawcett_Revision2019,3.2.3,59.96120509981894,
,,,,73,0,73,0,,,,,,,,,,,,,1170.4556844000035,None,,,,,,,,,,,,,,,,,,,,,,figure,A_silent,73,128,1168.3172876000026,None,1168.3172876000026,None,1168.3172876000026,None,3,1.3250276999897324,1168.3172876000026,None,1169.7016222999955,None,1169.7016222999955,None,1170.2235077000078,None,1170.2235077000078,None,1170.2235077000078,None,f,0.18678819999331608,1170.2235077000078,None,base5,001,2019_Oct_24_1501,ProdFawcett_Revision2019,3.2.3,59.96120509981894,
,,,,74,0,74,0,,,,,,,,,,,,,1173.3893453000055,None,,,,,,,,,,,,,,,,,,,,,,frank,B_aloud1,74,133,1170.9761997000023,None,1170.9761997000023,None,1170.9761997000023,None,6,1.754000700006145,1170.9761997000023,None,1172.7848935000075,None,1172.7848935000075,None,1173.3051324999979,None,1173.3051324999979,None,1173.3051324999979,None,r,0.04105080000590533,1173.3051324999979,None,base5,001,2019_Oct_24_1501,ProdFawcett_Revision2019,3.2.3,59.96120509981894,
,,,,75,0,75,0,,,,,,,,,,,,,1176.7108887000068,None,,,,,,,,,,,,,,,,,,,,,,pretty,D_new,75,233,1173.911093200004,None,1173.911093200004,None,1173.911093200004,None,2,1.6431895999994595,1173.911093200004,None,1175.6058778000006,None,1175.6058778000006,None,1176.124689400007,None,1176.124689400007,None,1176.124689400007,None,n,0.5417005000053905,1176.124689400007,None,base5,001,2019_Oct_24_1501,ProdFawcett_Revision2019,3.2.3,59.96120509981894,
,,,,76,0,76,0,,,,,,,,,,,,,1179.7137999999977,None,,,,,,,,,,,,,,,,,,,,,,court,B_aloud1,76,75,1177.2305567000003,None,1177.2305567000003,None,1177.2305567000003,None,6,1.147816500000772,1177.2305567000003,None,1178.4287167000002,None,1178.4287167000002,None,1178.9453206000035,None,1178.9453206000035,None,1178.9453206000035,None,r,0.7289769000053639,1178.9453206000035,None,base5,001,2019_Oct_24_1501,ProdFawcett_Revision2019,3.2.3,59.96120509981894,
,,,,77,0,77,0,,,,,,,,,,,,,1182.3333327,None,,,,,,,,,,,,,,,,,,,,,,accident,B_aloud1,77,0,1180.2349381999957,None,1180.2349381999957,None,1180.2349381999957,None,6,1.0633884999988368,1180.2349381999957,None,1181.343760799995,None,1181.343760799995,None,1181.8687702000025,None,1181.8687702000025,None,1181.8687702000025,None,r,0.42977620000601746,1181.8687702000025,None,base5,001,2019_Oct_24_1501,ProdFawcett_Revision2019,3.2.3,59.96120509981894,
,,,,78,0,78,0,,,,,,,,,,,,,1186.2710869000002,None,,,,,,,,,,,,,,,,,,,,,,platform,D_new,78,224,1182.853448599999,None,1182.853448599999,None,1182.853448599999,None,1,1.612984299994423,1182.853448599999,None,1184.5138248000003,None,1184.5138248000003,None,1185.0338851999986,None,1185.0338851999986,None,1185.0338851999986,None,f,1.2009741999936523,1185.0338851999986,None,base5,001,2019_Oct_24_1501,ProdFawcett_Revision2019,3.2.3,59.96120509981894,
,,,,79,0,79,0,,,,,,,,,,,,,1189.0388740000053,None,,,,,,,,,,,,,,,,,,,,,,brief,C_aloud2,79,28,1186.7924330999958,None,1186.7924330999958,None,1186.7924330999958,None,6,1.1060626999969827,1186.7924330999958,None,1187.9488985000062,None,1187.9488985000062,None,1188.479281100008,None,1188.479281100008,None,1188.479281100008,None,r,0.5230866000056267,1188.479281100008,None,base5,001,2019_Oct_24_1501,ProdFawcett_Revision2019,3.2.3,59.96120509981894,
,,,,80,0,80,0,,,,,,,,,,,,,1192.0930100999976,None,,,,,,,,,,,,,,,,,,,,,,right,A_silent,80,265,1189.5647400000016,None,1189.5647400000016,None,1189.5647400000016,None,2,1.5736102999944706,1189.5647400000016,None,1191.1944600999996,None,1191.1944600999996,None,1191.7138301999948,None,1191.7138301999948,None,1191.7138301999948,None,f,0.3365046000108123,1191.7138301999948,None,base5,001,2019_Oct_24_1501,ProdFawcett_Revision2019,3.2.3,59.96120509981894,
,,,,81,0,81,0,,,,,,,,,,,,,1194.846285000007,None,,,,,,,,,,,,,,,,,,,,,,style,C_aloud2,81,311,1192.610780700008,None,1192.610780700008,None,1192.610780700008,None,6,1.223502799999551,1192.610780700008,None,1193.8849929999997,None,1193.8849929999997,None,1194.4099560000031,None,1194.4099560000031,None,1194.4099560000031,None,r,0.40041840000776574,1194.4099560000031,None,base5,001,2019_Oct_24_1501,ProdFawcett_Revision2019,3.2.3,59.96120509981894,
,,,,82,0,82,0,,,,,,,,,,,,,1197.548291900006,None,,,,,,,,,,,,,,,,,,,,,,review,B_aloud1,82,263,1195.371730800005,None,1195.371730800005,None,1195.371730800005,None,6,1.2623540999920806,1195.371730800005,None,1196.667755100003,None,1196.667755100003,None,1197.1829526000074,None,1197.1829526000074,None,1197.1829526000074,None,r,0.323354099993594,1197.1829526000074,None,base5,001,2019_Oct_24_1501,ProdFawcett_Revision2019,3.2.3,59.96120509981894,
,,,,83,0,83,0,,,,,,,,,,,,,1200.6522159000015,None,,,,,,,,,,,,,,,,,,,,,,region,D_new,83,256,1198.0760594000021,None,1198.0760594000021,None,1198.0760594000021,None,6,1.6703516999987187,1198.0760594000021,None,1199.8004519999959,None,1199.8004519999959,None,1200.322062200008,None,1200.322062200008,None,1200.322062200008,None,r,0.2961721000028774,1200.322062200008,None,base5,001,2019_Oct_24_1501,ProdFawcett_Revision2019,3.2.3,59.96120509981894,
,,,,84,0,84,0,,,,,,,,,,,,,1203.4878975000029,None,,,,,,,,,,,,,,,,,,,,,,order,C_aloud2,84,207,1201.1729291000083,None,1201.1729291000083,None,1201.1729291000083,None,6,1.413513100007549,1201.1729291000083,None,1202.6277652999997,None,1202.6277652999997,None,1203.1514539000054,None,1203.1514539000054,None,1203.1514539000054,None,r,0.2909755000000587,1203.1514539000054,None,base5,001,2019_Oct_24_1501,ProdFawcett_Revision2019,3.2.3,59.96120509981894,
,,,,85,0,85,0,,,,,,,,,,,,,1207.1732842000056,None,,,,,,,,,,,,,,,,,,,,,,skill,D_new,85,289,1204.0067563000048,None,1204.0067563000048,None,1204.0067563000048,None,1,1.371499600005336,1204.0067563000048,None,1205.4317259999953,None,1205.4317259999953,None,1205.952369000006,None,1205.952369000006,None,1205.952369000006,None,n,1.1779290999984369,1205.952369000006,None,base5,001,2019_Oct_24_1501,ProdFawcett_Revision2019,3.2.3,59.96120509981894,
,,,,86,0,86,0,,,,,,,,,,,,,1209.6947755,None,,,,,,,,,,,,,,,,,,,,,,individual,A_silent,86,160,1207.7004927999951,None,1207.7004927999951,None,1207.7004927999951,None,6,1.0697516999935033,1207.7004927999951,None,1208.8240989000042,None,1208.8240989000042,None,1209.346823800006,None,1209.346823800006,None,1209.346823800006,None,r,0.3034490999998525,1209.346823800006,None,base5,001,2019_Oct_24_1501,ProdFawcett_Revision2019,3.2.3,59.96120509981894,
,,,,87,0,87,0,,,,,,,,,,,,,1212.0789886999992,None,,,,,,,,,,,,,,,,,,,,,,department,B_aloud1,87,90,1210.2146659999999,None,1210.2146659999999,None,1210.2146659999999,None,6,0.9958766000054311,1210.2146659999999,None,1211.2548059999972,None,1211.2548059999972,None,1211.7802869000006,None,1211.7802869000006,None,1211.7802869000006,None,r,0.2698385999974562,1211.7802869000006,None,base5,001,2019_Oct_24_1501,ProdFawcett_Revision2019,3.2.3,59.96120509981894,
,,,,88,0,88,0,,,,,,,,,,,,,1214.4493828999985,None,,,,,,,,,,,,,,,,,,,,,,generation,D_new,88,136,1212.6009454000014,None,1212.6009454000014,None,1212.6009454000014,None,6,1.025414700008696,1212.6009454000014,None,1213.675157699996,None,1213.675157699996,None,1214.1771284999995,None,1214.1771284999995,None,1214.1771284999995,None,r,0.24121269999886863,1214.1771284999995,None,base5,001,2019_Oct_24_1501,ProdFawcett_Revision2019,3.2.3,59.96120509981894,
,,,,89,0,89,0,,,,,,,,,,,,,1218.1687240000028,None,,,,,,,,,,,,,,,,,,,,,,profession,B_aloud1,89,241,1214.9693376000068,None,1214.9693376000068,None,1214.9693376000068,None,1,1.673173199989833,1214.9693376000068,None,1216.6919953000033,None,1216.6919953000033,None,1217.2181292000023,None,1217.2181292000023,None,1217.2181292000023,None,f,0.9202853000024334,1217.2181292000023,None,base5,001,2019_Oct_24_1501,ProdFawcett_Revision2019,3.2.3,59.96120509981894,
,,,,90,0,90,0,,,,,,,,,,,,,1220.8889802000049,None,,,,,,,,,,,,,,,,,,,,,,meeting,A_silent,90,187,1218.6908221000049,None,1218.6908221000049,None,1218.6908221000049,None,6,1.3995433000090998,1218.6908221000049,None,1220.1348520000029,None,1220.1348520000029,None,1220.6429333999986,None,1220.6429333999986,None,1220.6429333999986,None,r,0.2075631999905454,1220.6429333999986,None,base5,001,2019_Oct_24_1501,ProdFawcett_Revision2019,3.2.3,59.96120509981894,
,,,,91,0,91,0,,,,,,,,,,,,,1223.191517500003,None,,,,,,,,,,,,,,,,,,,,,,service,A_silent,91,280,1221.4137215999945,None,1221.4137215999945,None,1221.4137215999945,None,6,0.9406596000044374,1221.4137215999945,None,1222.4064100999967,None,1222.4064100999967,None,1222.9160613999993,None,1222.9160613999993,None,1222.9160613999993,None,r,0.23023929999908432,1222.9160613999993,None,base5,001,2019_Oct_24_1501,ProdFawcett_Revision2019,3.2.3,59.96120509981894,
,,,,92,0,92,0,,,,,,,,,,,,,1225.612219600007,None,,,,,,,,,,,,,,,,,,,,,,nature,A_silent,92,200,1223.7164350999956,None,1223.7164350999956,None,1223.7164350999956,None,6,1.0698880999989342,1223.7164350999956,None,1224.8367700999952,None,1224.8367700999952,None,1225.3575263999955,None,1225.3575263999955,None,1225.3575263999955,None,r,0.22079340000345837,1225.3575263999955,None,base5,001,2019_Oct_24_1501,ProdFawcett_Revision2019,3.2.3,59.96120509981894,
,,,,93,0,93,0,,,,,,,,,,,,,1229.782376999996,None,,,,,,,,,,,,,,,,,,,,,,split,D_new,93,299,1226.1301243000053,None,1226.1301243000053,None,1226.1301243000053,None,2,2.0803944999934174,1226.1301243000053,None,1228.2607834000082,None,1228.2607834000082,None,1228.765649699999,None,1228.765649699999,None,1228.765649699999,None,f,0.9806816999916919,1228.765649699999,None,base5,001,2019_Oct_24_1501,ProdFawcett_Revision2019,3.2.3,59.96120509981894,
,,,,94,0,94,0,,,,,,,,,,,,,1233.585342300008,None,,,,,,,,,,,,,,,,,,,,,,expansion,C_aloud2,94,123,1230.3009837999998,None,1230.3009837999998,None,1230.3009837999998,None,3,1.5573141999921063,1230.3009837999998,None,1231.9118069999968,None,1231.9118069999968,None,1232.430964500003,None,1232.430964500003,None,1232.430964500003,None,f,1.1153601999976672,1232.430964500003,None,base5,001,2019_Oct_24_1501,ProdFawcett_Revision2019,3.2.3,59.96120509981894,
,,,,95,0,95,0,,,,,,,,,,,,,1236.5937234000012,None,,,,,,,,,,,,,,,,,,,,,,tragedy,B_aloud1,95,335,1234.1103527999949,None,1234.1103527999949,None,1234.1103527999949,None,6,1.6445485000003828,1234.1103527999949,None,1235.7984997000021,None,1235.7984997000021,None,1236.324106,None,1236.324106,None,1236.324106,None,r,0.23804759999620728,1236.324106,None,base5,001,2019_Oct_24_1501,ProdFawcett_Revision2019,3.2.3,59.96120509981894,
,,,,96,0,96,0,,,,,,,,,,,,,1239.8423630000034,None,,,,,,,,,,,,,,,,,,,,,,waste,A_silent,96,350,1237.1176016999962,None,1237.1176016999962,None,1237.1176016999962,None,6,1.6208254000084708,1237.1176016999962,None,1238.7772216000012,None,1238.7772216000012,None,1239.294072500008,None,1239.294072500008,None,1239.294072500008,None,r,0.516600600007223,1239.294072500008,None,base5,001,2019_Oct_24_1501,ProdFawcett_Revision2019,3.2.3,59.96120509981894,
,,,,97,0,97,0,,,,,,,,,,,,,1242.5761981999967,None,,,,,,,,,,,,,,,,,,,,,,government,D_new,97,139,1240.3683773000084,None,1240.3683773000084,None,1240.3683773000084,None,6,1.153926600003615,1240.3683773000084,None,1241.5792762000056,None,1241.5792762000056,None,1242.094574200004,None,1242.094574200004,None,1242.094574200004,None,r,0.44389650000084657,1242.094574200004,None,base5,001,2019_Oct_24_1501,ProdFawcett_Revision2019,3.2.3,59.96120509981894,
,,,,98,0,98,0,,,,,,,,,,,,,1245.1968603999994,None,,,,,,,,,,,,,,,,,,,,,,solution,C_aloud2,98,294,1243.097583499999,None,1243.097583499999,None,1243.097583499999,None,6,1.1126478999940446,1243.097583499999,None,1244.246434200002,None,1244.246434200002,None,1244.7655468000012,None,1244.7655468000012,None,1244.7655468000012,None,r,0.39674350000859704,1244.7655468000012,None,base5,001,2019_Oct_24_1501,ProdFawcett_Revision2019,3.2.3,59.96120509981894,
,,,,99,0,99,0,,,,,,,,,,,,,1249.2322084000043,None,,,,,,,,,,,,,,,,,,,,,,instrument,D_new,99,163,1245.7182867999945,None,1245.7182867999945,None,1245.7182867999945,None,3,1.748249800002668,1245.7182867999945,None,1247.5101433999953,None,1247.5101433999953,None,1248.0335291000083,None,1248.0335291000083,None,1248.0335291000083,None,f,1.1607415000034962,1248.0335291000083,None,base5,001,2019_Oct_24_1501,ProdFawcett_Revision2019,3.2.3,59.96120509981894,
,,,,100,0,100,0,,,,,,,,,,,,,1252.053129699998,None,,,,,,,,,,,,,,,,,,,,,,degree,D_new,100,89,1249.7574333999946,None,1249.7574333999946,None,1249.7574333999946,None,6,1.4297256999998353,1249.7574333999946,None,1251.2355247000087,None,1251.2355247000087,None,1251.753964500007,None,1251.753964500007,None,1251.753964500007,None,r,0.26441430000704713,1251.753964500007,None,base5,001,2019_Oct_24_1501,ProdFawcett_Revision2019,3.2.3,59.96120509981894,
,,,,101,0,101,0,,,,,,,,,,,,,1254.754037599996,None,,,,,,,,,,,,,,,,,,,,,,object,A_silent,101,204,1252.5808955999964,None,1252.5808955999964,None,1252.5808955999964,None,6,1.3172412000130862,1252.5808955999964,None,1253.9564590999944,None,1253.9564590999944,None,1254.4763245000067,None,1254.4763245000067,None,1254.4763245000067,None,r,0.23805840000568423,1254.4763245000067,None,base5,001,2019_Oct_24_1501,ProdFawcett_Revision2019,3.2.3,59.96120509981894,
,,,,102,0,102,0,,,,,,,,,,,,,1258.9671194999974,None,,,,,,,,,,,,,,,,,,,,,,series,D_new,102,279,1255.278054399998,None,1255.278054399998,None,1255.278054399998,None,1,1.5162830000044778,1255.278054399998,None,1256.830172300004,None,1256.830172300004,None,1257.357072400002,None,1257.357072400002,None,1257.357072400002,None,n,1.5888758000073722,1257.357072400002,None,base5,001,2019_Oct_24_1501,ProdFawcett_Revision2019,3.2.3,59.96120509981894,
,,,,103,0,103,0,,,,,,,,,,,,,1262.5502401999984,None,,,,,,,,,,,,,,,,,,,,,,medicine,D_new,103,186,1259.4837295000034,None,1259.4837295000034,None,1259.4837295000034,None,2,1.5105017000023508,1259.4837295000034,None,1261.0485161999968,None,1261.0485161999968,None,1261.5612737000047,None,1261.5612737000047,None,1261.5612737000047,None,n,0.9449181999952998,1261.5612737000047,None,base5,001,2019_Oct_24_1501,ProdFawcett_Revision2019,3.2.3,59.96120509981894,
,,,,104,0,104,0,,,,,,,,,,,,,1266.6677023999946,None,,,,,,,,,,,,,,,,,,,,,,personnel,D_new,104,219,1263.0681773999968,None,1263.0681773999968,None,1263.0681773999968,None,1,1.5101514999987558,1263.0681773999968,None,1264.6333650000015,None,1264.6333650000015,None,1265.1493244000012,None,1265.1493244000012,None,1265.1493244000012,None,n,1.4848865999956615,1265.1493244000012,None,base5,001,2019_Oct_24_1501,ProdFawcett_Revision2019,3.2.3,59.96120509981894,
,,,,105,0,105,0,,,,,,,,,,,,,1269.338903099997,None,,,,,,,,,,,,,,,,,,,,,,prime,A_silent,105,235,1267.1866100000043,None,1267.1866100000043,None,1267.1866100000043,None,6,1.2556428000098094,1267.1866100000043,None,1268.4943540999957,None,1268.4943540999957,None,1269.0206986999983,None,1269.0206986999983,None,1269.0206986999983,None,r,0.2776354000088759,1269.0206986999983,None,base5,001,2019_Oct_24_1501,ProdFawcett_Revision2019,3.2.3,59.96120509981894,
,,,,106,0,106,0,,,,,,,,,,,,,1273.0276307000022,None,,,,,,,,,,,,,,,,,,,,,,resistance,D_new,106,262,1269.8598678999988,None,1269.8598678999988,None,1269.8598678999988,None,1,1.3584696000034455,1269.8598678999988,None,1271.2733324,None,1271.2733324,None,1271.790313599995,None,1271.790313599995,None,1271.790313599995,None,n,1.2040911999938544,1271.790313599995,None,base5,001,2019_Oct_24_1501,ProdFawcett_Revision2019,3.2.3,59.96120509981894,
,,,,107,0,107,0,,,,,,,,,,,,,1275.5937795000063,None,,,,,,,,,,,,,,,,,,,,,,present,D_new,107,231,1273.545913599999,None,1273.545913599999,None,1273.545913599999,None,6,1.120288599995547,1273.545913599999,None,1274.7159988000058,None,1274.7159988000058,None,1275.2158688000054,None,1275.2158688000054,None,1275.2158688000054,None,r,0.3383806000056211,1275.2158688000054,None,base5,001,2019_Oct_24_1501,ProdFawcett_Revision2019,3.2.3,59.96120509981894,
,,,,108,0,108,0,,,,,,,,,,,,,1280.669518099996,None,,,,,,,,,,,,,,,,,,,,,,disease,D_new,108,97,1276.1164076999994,None,1276.1164076999994,None,1276.1164076999994,None,2,1.3421303999930387,1276.1164076999994,None,1277.5159775000066,None,1277.5159775000066,None,1278.013371699999,None,1278.013371699999,None,1278.013371699999,None,n,2.6128993000020273,1278.013371699999,None,base5,001,2019_Oct_24_1501,ProdFawcett_Revision2019,3.2.3,59.96120509981894,
,,,,109,0,109,0,,,,,,,,,,,,,1283.084100299995,None,,,,,,,,,,,,,,,,,,,,,,rough,D_new,109,266,1281.201787900005,None,1281.201787900005,None,1281.201787900005,None,6,1.0083106999954907,1281.201787900005,None,1282.262869600003,None,1282.262869600003,None,1282.7852730000013,None,1282.7852730000013,None,1282.7852730000013,None,r,0.2569974999933038,1282.7852730000013,None,base5,001,2019_Oct_24_1501,ProdFawcett_Revision2019,3.2.3,59.96120509981894,
,,,,110,0,110,0,,,,,,,,,,,,,1285.570264199996,None,,,,,,,,,,,,,,,,,,,,,,dozen,C_aloud2,110,102,1283.608105899999,None,1283.608105899999,None,1283.608105899999,None,6,1.1221577000105754,1283.608105899999,None,1284.7816337999975,None,1284.7816337999975,None,1285.3047482999973,None,1285.3047482999973,None,1285.3047482999973,None,r,0.2254356000048574,1285.3047482999973,None,base5,001,2019_Oct_24_1501,ProdFawcett_Revision2019,3.2.3,59.96120509981894,
,,,,111,0,111,0,,,,,,,,,,,,,1289.3092423000053,None,,,,,,,,,,,,,,,,,,,,,,broad,D_new,111,31,1286.0924781000067,None,1286.0924781000067,None,1286.0924781000067,None,1,1.662092600003234,1286.0924781000067,None,1287.802141200009,None,1287.802141200009,None,1288.321562600002,None,1288.321562600002,None,1288.321562600002,None,f,0.9448622000054456,1288.321562600002,None,base5,001,2019_Oct_24_1501,ProdFawcett_Revision2019,3.2.3,59.96120509981894,
,,,,112,0,112,0,,,,,,,,,,,,,1291.7256935000041,None,,,,,,,,,,,,,,,,,,,,,,story,D_new,112,306,1289.8288059000042,None,1289.8288059000042,None,1289.8288059000042,None,6,1.0215014000132214,1289.8288059000042,None,1290.900769800006,None,1290.900769800006,None,1291.426478399997,None,1291.426478399997,None,1291.426478399997,None,r,0.25574690000212286,1291.426478399997,None,base5,001,2019_Oct_24_1501,ProdFawcett_Revision2019,3.2.3,59.96120509981894,
,,,,113,0,113,0,,,,,,,,,,,,,1294.1815416000027,None,,,,,,,,,,,,,,,,,,,,,,question,B_aloud1,113,247,1292.2498129000014,None,1292.2498129000014,None,1292.2498129000014,None,6,1.104399599993485,1292.2498129000014,None,1293.4113582999998,None,1293.4113582999998,None,1293.9245421000087,None,1293.9245421000087,None,1293.9245421000087,None,r,0.21362670000235084,1293.9245421000087,None,base5,001,2019_Oct_24_1501,ProdFawcett_Revision2019,3.2.3,59.96120509981894,
,,,,114,0,114,0,,,,,,,,,,,,,1297.7174675999995,None,,,,,,,,,,,,,,,,,,,,,,thick,D_new,114,327,1294.6989123999956,None,1294.6989123999956,None,1294.6989123999956,None,2,1.4473540000035428,1294.6989123999956,None,1296.1921351000055,None,1296.1921351000055,None,1296.7158894000022,None,1296.7158894000022,None,1296.7158894000022,None,f,0.9668856999924174,1296.7158894000022,None,base5,001,2019_Oct_24_1501,ProdFawcett_Revision2019,3.2.3,59.96120509981894,
,,,,115,0,115,0,,,,,,,,,,,,,1300.6195214000036,None,,,,,,,,,,,,,,,,,,,,,,comfort,D_new,115,59,1298.2353579000046,None,1298.2353579000046,None,1298.2353579000046,None,6,1.5671762999991188,1298.2353579000046,None,1299.8434661000065,None,1299.8434661000065,None,1300.3658247999992,None,1300.3658247999992,None,1300.3658247999992,None,r,0.21244770000339486,1300.3658247999992,None,base5,001,2019_Oct_24_1501,ProdFawcett_Revision2019,3.2.3,59.96120509981894,
,,,,116,0,116,0,,,,,,,,,,,,,1303.3390534000064,None,,,,,,,,,,,,,,,,,,,,,,research,D_new,116,261,1301.136341400008,None,1301.136341400008,None,1301.136341400008,None,6,1.4024426999967545,1301.136341400008,None,1302.577896200004,None,1302.577896200004,None,1303.1032317000063,None,1303.1032317000063,None,1303.1032317000063,None,r,0.19521839999652002,1303.1032317000063,None,base5,001,2019_Oct_24_1501,ProdFawcett_Revision2019,3.2.3,59.96120509981894,
,,,,117,0,117,0,,,,,,,,,,,,,1306.192875599998,None,,,,,,,,,,,,,,,,,,,,,,turkey,D_new,117,342,1303.8578500000003,None,1303.8578500000003,None,1303.8578500000003,None,2,1.2084533000015654,1303.8578500000003,None,1305.1193638999976,None,1305.1193638999976,None,1305.6411421000084,None,1305.6411421000084,None,1305.6411421000084,None,n,0.50514620001195,1305.6411421000084,None,base5,001,2019_Oct_24_1501,ProdFawcett_Revision2019,3.2.3,59.96120509981894,
,,,,118,0,118,0,,,,,,,,,,,,,1309.3981133000052,None,,,,,,,,,,,,,,,,,,,,,,shear,D_new,118,283,1306.7115045999963,None,1306.7115045999963,None,1306.7115045999963,None,2,1.3388477999978932,1306.7115045999963,None,1308.1024618000083,None,1308.1024618000083,None,1308.6238862000027,None,1308.6238862000027,None,1308.6238862000027,None,n,0.738397499997518,1308.6238862000027,None,base5,001,2019_Oct_24_1501,ProdFawcett_Revision2019,3.2.3,59.96120509981894,
,,,,119,0,119,0,,,,,,,,,,,,,1312.8629486999998,None,,,,,,,,,,,,,,,,,,,,,,community,B_aloud1,119,63,1309.9304492999945,None,1309.9304492999945,None,1309.9304492999945,None,2,1.3680134000023827,1309.9304492999945,None,1311.337115000002,None,1311.337115000002,None,1311.862473400004,None,1311.862473400004,None,1311.862473400004,None,n,0.9638929999928223,1311.862473400004,None,base5,001,2019_Oct_24_1501,ProdFawcett_Revision2019,3.2.3,59.96120509981894,
,,,,120,0,120,0,,,,,,,,,,,,,1315.4167103000073,None,,,,,,,,,,,,,,,,,,,,,,guest,C_aloud2,120,146,1313.3796263999975,None,1313.3796263999975,None,1313.3796263999975,None,6,1.2223728999961168,1313.3796263999975,None,1314.632558600002,None,1314.632558600002,None,1315.1500937999954,None,1315.1500937999954,None,1315.1500937999954,None,r,0.23608519999834243,1315.1500937999954,None,base5,001,2019_Oct_24_1501,ProdFawcett_Revision2019,3.2.3,59.96120509981894,
,,,,121,0,121,0,,,,,,,,,,,,,1317.6344733000005,None,,,,,,,,,,,,,,,,,,,,,,second,D_new,121,278,1315.9362191999971,None,1315.9362191999971,None,1315.9362191999971,None,6,0.8579981999937445,1315.9362191999971,None,1316.8462478000001,None,1316.8462478000001,None,1317.367138600006,None,1317.367138600006,None,1317.367138600006,None,r,0.22719750000396743,1317.367138600006,None,base5,001,2019_Oct_24_1501,ProdFawcett_Revision2019,3.2.3,59.96120509981894,
,,,,122,0,122,0,,,,,,,,,,,,,1320.622260300006,None,,,,,,,,,,,,,,,,,,,,,,cover,D_new,122,77,1318.161036000005,None,1318.161036000005,None,1318.161036000005,None,2,1.5293966000026558,1318.161036000005,None,1319.7333895000047,None,1319.7333895000047,None,1320.2564091999957,None,1320.2564091999957,None,1320.2564091999957,None,n,0.32209729999885894,1320.2564091999957,None,base5,001,2019_Oct_24_1501,ProdFawcett_Revision2019,3.2.3,59.96120509981894,
,,,,123,0,123,0,,,,,,,,,,,,,1323.0074700999976,None,,,,,,,,,,,,,,,,,,,,,,general,D_new,123,135,1321.1427130999946,None,1321.1427130999946,None,1321.1427130999946,None,6,1.043610799999442,1321.1427130999946,None,1322.231230400008,None,1322.231230400008,None,1322.7593379000027,None,1322.7593379000027,None,1322.7593379000027,None,r,0.21101769999950193,1322.7593379000027,None,base5,001,2019_Oct_24_1501,ProdFawcett_Revision2019,3.2.3,59.96120509981894,
,,,,124,0,124,0,,,,,,,,,,,,,1325.2626095000014,None,,,,,,,,,,,,,,,,,,,,,,agreement,D_new,124,5,1323.5328960000043,None,1323.5328960000043,None,1323.5328960000043,None,6,0.9013093999965349,1323.5328960000043,None,1324.4909249000048,None,1324.4909249000048,None,1325.0111389000085,None,1325.0111389000085,None,1325.0111389000085,None,r,0.20715729999938048,1325.0111389000085,None,base5,001,2019_Oct_24_1501,ProdFawcett_Revision2019,3.2.3,59.96120509981894,
,,,,125,0,125,0,,,,,,,,,,,,,1327.5751090999984,None,,,,,,,,,,,,,,,,,,,,,,signal,C_aloud2,125,287,1325.784202499999,None,1325.784202499999,None,1325.784202499999,None,6,0.9862703999970108,1325.784202499999,None,1326.8210250999982,None,1326.8210250999982,None,1327.3474827000027,None,1327.3474827000027,None,1327.3474827000027,None,r,0.19058540000696667,1327.3474827000027,None,base5,001,2019_Oct_24_1501,ProdFawcett_Revision2019,3.2.3,59.96120509981894,
,,,,126,0,126,0,,,,,,,,,,,,,1329.7543891999958,None,,,,,,,,,,,,,,,,,,,,,,native,C_aloud2,126,199,1328.0914467999974,None,1328.0914467999974,None,1328.0914467999974,None,6,0.9508529000013368,1328.0914467999974,None,1329.0969765000045,None,1329.0969765000045,None,1329.6163775000023,None,1329.6163775000023,None,1329.6163775000023,None,r,0.10554829999455251,1329.6163775000023,None,base5,001,2019_Oct_24_1501,ProdFawcett_Revision2019,3.2.3,59.96120509981894,
,,,,127,0,127,0,,,,,,,,,,,,,1332.0033168999944,None,,,,,,,,,,,,,,,,,,,,,,agency,C_aloud2,127,4,1330.2787052000058,None,1330.2787052000058,None,1330.2787052000058,None,6,1.0115285000065342,1330.2787052000058,None,1331.344455700004,None,1331.344455700004,None,1331.8696883000084,None,1331.8696883000084,None,1331.8696883000084,None,r,0.09269770000537392,1331.8696883000084,None,base5,001,2019_Oct_24_1501,ProdFawcett_Revision2019,3.2.3,59.96120509981894,
,,,,128,0,128,0,,,,,,,,,,,,,1335.6689109,None,,,,,,,,,,,,,,,,,,,,,,people,B_aloud1,128,216,1332.518748500006,None,1332.518748500006,None,1332.518748500006,None,1,1.3715149000054225,1332.518748500006,None,1333.9457603000046,None,1333.9457603000046,None,1334.4672722999967,None,1334.4672722999967,None,1334.4672722999967,None,n,1.1590315999928862,1334.4672722999967,None,base5,001,2019_Oct_24_1501,ProdFawcett_Revision2019,3.2.3,59.96120509981894,
,,,,129,0,129,0,,,,,,,,,,,,,1339.7083925000043,None,,,,,,,,,,,,,,,,,,,,,,provision,D_new,129,243,1336.1947037000064,None,1336.1947037000064,None,1336.1947037000064,None,1,1.8636665999947581,1336.1947037000064,None,1338.0985089000023,None,1338.0985089000023,None,1338.627108200002,None,1338.627108200002,None,1338.627108200002,None,n,1.0392372999922372,1338.627108200002,None,base5,001,2019_Oct_24_1501,ProdFawcett_Revision2019,3.2.3,59.96120509981894,
,,,,130,0,130,0,,,,,,,,,,,,,1343.392227000004,None,,,,,,,,,,,,,,,,,,,,,,theme,D_new,130,326,1340.232728700008,None,1340.232728700008,None,1340.232728700008,None,1,2.081595000010566,1340.232728700008,None,1342.3689916000003,None,1342.3689916000003,None,1342.8909319999948,None,1342.8909319999948,None,1342.8909319999948,None,n,0.4713377000007313,1342.8909319999948,None,base5,001,2019_Oct_24_1501,ProdFawcett_Revision2019,3.2.3,59.96120509981894,
,,,,131,0,131,0,,,,,,,,,,,,,1346.5814408000006,None,,,,,,,,,,,,,,,,,,,,,,primary,D_new,131,234,1343.9027001000068,None,1343.9027001000068,None,1343.9027001000068,None,6,1.931599900010042,1343.9027001000068,None,1345.8903412000072,None,1345.8903412000072,None,1346.4156621000002,None,1346.4156621000002,None,1346.4156621000002,None,r,0.13070179999340326,1346.4156621000002,None,base5,001,2019_Oct_24_1501,ProdFawcett_Revision2019,3.2.3,59.96120509981894,
,,,,132,0,132,0,,,,,,,,,,,,,1349.399264599997,None,,,,,,,,,,,,,,,,,,,,,,comedy,D_new,132,58,1347.1018021000054,None,1347.1018021000054,None,1347.1018021000054,None,1,1.2604987999948207,1347.1018021000054,None,1348.4127652000025,None,1348.4127652000025,None,1348.9175048000034,None,1348.9175048000034,None,1348.9175048000034,None,n,0.44481260000611655,1348.9175048000034,None,base5,001,2019_Oct_24_1501,ProdFawcett_Revision2019,3.2.3,59.96120509981894,
,,,,133,0,133,0,,,,,,,,,,,,,1352.9704732999962,None,,,,,,,,,,,,,,,,,,,,,,passage,D_new,133,212,1349.9243725999986,None,1349.9243725999986,None,1349.9243725999986,None,1,2.1336072999984026,1349.9243725999986,None,1352.1021592000034,None,1352.1021592000034,None,1352.6126341000054,None,1352.6126341000054,None,1352.6126341000054,None,n,0.3259247999958461,1352.6126341000054,None,base5,001,2019_Oct_24_1501,ProdFawcett_Revision2019,3.2.3,59.96120509981894,
,,,,134,0,134,0,,,,,,,,,,,,,1355.8967047000042,None,,,,,,,,,,,,,,,,,,,,,,portion,D_new,134,228,1353.4939013999974,None,1353.4939013999974,None,1353.4939013999974,None,1,1.4203307999996468,1353.4939013999974,None,1354.9682777999988,None,1354.9682777999988,None,1355.4892271999997,None,1355.4892271999997,None,1355.4892271999997,None,n,0.38471779999963474,1355.4892271999997,None,base5,001,2019_Oct_24_1501,ProdFawcett_Revision2019,3.2.3,59.96120509981894,
,,,,135,0,135,0,,,,,,,,,,,,,1358.2930129000015,None,,,,,,,,,,,,,,,,,,,,,,audience,D_new,135,14,1356.4181943000003,None,1356.4181943000003,None,1356.4181943000003,None,6,1.055818699998781,1356.4181943000003,None,1357.5088642000046,None,1357.5088642000046,None,1358.0277668000053,None,1358.0277668000053,None,1358.0277668000053,None,r,0.23048859999107663,1358.0277668000053,None,base5,001,2019_Oct_24_1501,ProdFawcett_Revision2019,3.2.3,59.96120509981894,
,,,,136,0,136,0,,,,,,,,,,,,,1361.4620721999963,None,,,,,,,,,,,,,,,,,,,,,,crime,D_new,136,78,1358.8126369999954,None,1358.8126369999954,None,1358.8126369999954,None,6,1.8697159000003012,1358.8126369999954,None,1360.7427851999964,None,1360.7427851999964,None,1361.2609811000002,None,1361.2609811000002,None,1361.2609811000002,None,r,0.16537010000320151,1361.2609811000002,None,base5,001,2019_Oct_24_1501,ProdFawcett_Revision2019,3.2.3,59.96120509981894,
,,,,137,0,137,0,,,,,,,,,,,,,1364.2987091999967,None,,,,,,,,,,,,,,,,,,,,,,population,D_new,137,227,1361.9846947000042,None,1361.9846947000042,None,1361.9846947000042,None,6,1.37776329999906,1361.9846947000042,None,1363.4101711999974,None,1363.4101711999974,None,1363.9353933999955,None,1363.9353933999955,None,1363.9353933999955,None,r,0.33127819999936037,1363.9353933999955,None,base5,001,2019_Oct_24_1501,ProdFawcett_Revision2019,3.2.3,59.96120509981894,
,,,,138,0,138,0,,,,,,,,,,,,,1367.2686266999954,None,,,,,,,,,,,,,,,,,,,,,,permit,D_new,138,218,1364.817680799999,None,1364.817680799999,None,1364.817680799999,None,1,1.416380399998161,1364.817680799999,None,1366.2624092000042,None,1366.2624092000042,None,1366.7833352000016,None,1366.7833352000016,None,1366.7833352000016,None,n,0.4509923000005074,1366.7833352000016,None,base5,001,2019_Oct_24_1501,ProdFawcett_Revision2019,3.2.3,59.96120509981894,
,,,,139,0,139,0,,,,,,,,,,,,,1369.8537480000086,None,,,,,,,,,,,,,,,,,,,,,,tennis,B_aloud1,139,323,1367.7883224999969,None,1367.7883224999969,None,1367.7883224999969,None,6,1.1897059000039008,1367.7883224999969,None,1369.0261946999963,None,1369.0261946999963,None,1369.5534426999948,None,1369.5534426999948,None,1369.5534426999948,None,r,0.25688879999506753,1369.5534426999948,None,base5,001,2019_Oct_24_1501,ProdFawcett_Revision2019,3.2.3,59.96120509981894,
,,,,140,0,140,0,,,,,,,,,,,,,1372.724021300004,None,,,,,,,,,,,,,,,,,,,,,,smell,D_new,140,291,1370.374052500003,None,1370.374052500003,None,1370.374052500003,None,1,1.3962196000065887,1370.374052500003,None,1371.8139104000002,None,1371.8139104000002,None,1372.3407124000078,None,1372.3407124000078,None,1372.3407124000078,None,n,0.3495085000031395,1372.3407124000078,None,base5,001,2019_Oct_24_1501,ProdFawcett_Revision2019,3.2.3,59.96120509981894,
,,,,141,0,141,0,,,,,,,,,,,,,1375.259155000007,None,,,,,,,,,,,,,,,,,,,,,,discussion,B_aloud1,141,96,1373.246797300002,None,1373.246797300002,None,1373.246797300002,None,6,1.2115491000004113,1373.246797300002,None,1374.489526400008,None,1374.489526400008,None,1375.0010290000064,None,1375.0010290000064,None,1375.0010290000064,None,r,0.2172427999903448,1375.0010290000064,None,base5,001,2019_Oct_24_1501,ProdFawcett_Revision2019,3.2.3,59.96120509981894,
,,,,142,0,142,0,,,,,,,,,,,,,1378.0134106000041,None,,,,,,,,,,,,,,,,,,,,,,household,A_silent,142,154,1375.7807538000052,None,1375.7807538000052,None,1375.7807538000052,None,1,1.2295119000045815,1375.7807538000052,None,1377.057274100007,None,1377.057274100007,None,1377.5813755999989,None,1377.5813755999989,None,1377.5813755999989,None,n,0.3888849999930244,1377.5813755999989,None,base5,001,2019_Oct_24_1501,ProdFawcett_Revision2019,3.2.3,59.96120509981894,
,,,,143,0,143,0,,,,,,,,,,,,,1380.416248499998,None,,,,,,,,,,,,,,,,,,,,,,tough,B_aloud1,143,333,1378.5346200000058,None,1378.5346200000058,None,1378.5346200000058,None,6,1.0996182999951998,1378.5346200000058,None,1379.675986800008,None,1379.675986800008,None,1380.2011192000064,None,1380.2011192000064,None,1380.2011192000064,None,r,0.1773416000069119,1380.2011192000064,None,base5,001,2019_Oct_24_1501,ProdFawcett_Revision2019,3.2.3,59.96120509981894,
,,,,144,0,144,0,,,,,,,,,,,,,1382.9008641999972,None,,,,,,,,,,,,,,,,,,,,,,escape,D_new,144,118,1380.934104,None,1380.934104,None,1380.934104,None,6,1.1481243000016548,1380.934104,None,1382.128546299995,None,1382.128546299995,None,1382.6401159000088,None,1382.6401159000088,None,1382.6401159000088,None,r,0.22617439999885391,1382.6401159000088,None,base5,001,2019_Oct_24_1501,ProdFawcett_Revision2019,3.2.3,59.96120509981894,
,,,,145,0,145,0,,,,,,,,,,,,,1385.1696998999978,None,,,,,,,,,,,,,,,,,,,,,,gesture,C_aloud2,145,137,1383.426339800004,None,1383.426339800004,None,1383.426339800004,None,6,1.0159852000069804,1383.426339800004,None,1384.4993361000088,None,1384.4993361000088,None,1385.0236905000056,None,1385.0236905000056,None,1385.0236905000056,None,r,0.11458760000823531,1385.0236905000056,None,base5,001,2019_Oct_24_1501,ProdFawcett_Revision2019,3.2.3,59.96120509981894,
,,,,146,0,146,0,,,,,,,,,,,,,1389.8577059999952,None,,,,,,,,,,,,,,,,,,,,,,interior,D_new,146,164,1385.6881704999978,None,1385.6881704999978,None,1385.6881704999978,None,2,1.81006659999548,1385.6881704999978,None,1387.5428585000045,None,1387.5428585000045,None,1388.0757291000045,None,1388.0757291000045,None,1388.0757291000045,None,n,1.7429419999971287,1388.0757291000045,None,base5,001,2019_Oct_24_1501,ProdFawcett_Revision2019,3.2.3,59.96120509981894,
,,,,147,0,147,0,,,,,,,,,,,,,1393.3282264000009,None,,,,,,,,,,,,,,,,,,,,,,foundation,D_new,147,132,1390.3785269000073,None,1390.3785269000073,None,1390.3785269000073,None,2,1.3838603000040166,1390.3785269000073,None,1391.8002721000084,None,1391.8002721000084,None,1392.3261291999952,None,1392.3261291999952,None,1392.3261291999952,None,n,0.9721681000082754,1392.3261291999952,None,base5,001,2019_Oct_24_1501,ProdFawcett_Revision2019,3.2.3,59.96120509981894,
,,,,148,0,148,0,,,,,,,,,,,,,1396.0486375000037,None,,,,,,,,,,,,,,,,,,,,,,alert,C_aloud2,148,6,1393.8466914000019,None,1393.8466914000019,None,1393.8466914000019,None,6,1.403643400000874,1393.8466914000019,None,1395.307947399997,None,1395.307947399997,None,1395.821243600003,None,1395.821243600003,None,1395.821243600003,None,r,0.18111980000685435,1395.821243600003,None,base5,001,2019_Oct_24_1501,ProdFawcett_Revision2019,3.2.3,59.96120509981894,
,,,,149,0,149,0,,,,,,,,,,,,,1398.2157420000003,None,,,,,,,,,,,,,,,,,,,,,,straight,B_aloud1,149,307,1396.5744564000051,None,1396.5744564000051,None,1396.5744564000051,None,6,0.9558636999863666,1396.5744564000051,None,1397.5809234000044,None,1397.5809234000044,None,1398.107077499997,None,1398.107077499997,None,1398.107077499997,None,r,0.06327279999095481,1398.107077499997,None,base5,001,2019_Oct_24_1501,ProdFawcett_Revision2019,3.2.3,59.96120509981894,
,,,,150,0,150,0,,,,,,,,,,,,,1400.4348983999953,None,,,,,,,,,,,,,,,,,,,,,,measure,B_aloud1,150,184,1398.736776699996,None,1398.736776699996,None,1398.736776699996,None,6,0.9614943000051426,1398.736776699996,None,1399.7429302999954,None,1399.7429302999954,None,1400.2671900999994,None,1400.2671900999994,None,1400.2671900999994,None,r,0.13541880001139361,1400.2671900999994,None,base5,001,2019_Oct_24_1501,ProdFawcett_Revision2019,3.2.3,59.96120509981894,
,,,,151,0,151,0,,,,,,,,,,,,,1403.2520416000043,None,,,,,,,,,,,,,,,,,,,,,,brilliant,D_new,151,30,1400.958633000002,None,1400.958633000002,None,1400.958633000002,None,2,1.2758818000002066,1400.958633000002,None,1402.2873390000022,None,1402.2873390000022,None,1402.8092728000047,None,1402.8092728000047,None,1402.8092728000047,None,n,0.40899540000827983,1402.8092728000047,None,base5,001,2019_Oct_24_1501,ProdFawcett_Revision2019,3.2.3,59.96120509981894,
,,,,152,0,152,0,,,,,,,,,,,,,1405.723346400002,None,,,,,,,,,,,,,,,,,,,,,,partner,A_silent,152,211,1403.7742373000074,None,1403.7742373000074,None,1403.7742373000074,None,6,1.1324310999916634,1403.7742373000074,None,1404.9531032000086,None,1404.9531032000086,None,1405.473977600006,None,1405.473977600006,None,1405.473977600006,None,r,0.2083619000040926,1405.473977600006,None,base5,001,2019_Oct_24_1501,ProdFawcett_Revision2019,3.2.3,59.96120509981894,
,,,,153,0,153,0,,,,,,,,,,,,,1408.023986500004,None,,,,,,,,,,,,,,,,,,,,,,estate,A_silent,153,119,1406.243879600006,None,1406.243879600006,None,1406.243879600006,None,6,0.9584440999897197,1406.243879600006,None,1407.251917200003,None,1407.251917200003,None,1407.7759963999997,None,1407.7759963999997,None,1407.7759963999997,None,r,0.21834340000350494,1407.7759963999997,None,base5,001,2019_Oct_24_1501,ProdFawcett_Revision2019,3.2.3,59.96120509981894,
