StudyTrials.thisRepN,StudyTrials.thisTrialN,StudyTrials.thisN,StudyTrials.thisIndex,TestTrials.thisRepN,TestTrials.thisTrialN,TestTrials.thisN,TestTrials.thisIndex,textWelcome.started,textWelcome.stopped,keyWelcome.keys,keyWelcome.rt,keyWelcome.started,keyWelcome.stopped,textReady.started,textReady.stopped,keyReady.keys,keyReady.rt,keyReady.started,keyReady.stopped,polyback_2.started,polyback_2.stopped,studyPic,studyWord,studyType,studyN,studyOrder,polyback_3.started,polyback_3.stopped,studyPicChoice.started,studyPicChoice.stopped,polyback_4.started,polyback_4.stopped,polyback.started,polyback.stopped,studyWords.started,studyWords.stopped,getResearcher.started,getResearcher.stopped,kPress2.keys,kPress2.rt,kPress2.started,kPress2.stopped,testWord,testType,testN,testOrder,polyback_5.started,polyback_5.stopped,testWords.started,testWords.stopped,textScale.started,textScale.stopped,keyConf.keys,keyConf.rt,keyConf.started,keyConf.stopped,polyback_6.started,polyback_6.stopped,studyWords_2.started,studyWords_2.stopped,polyback_7.started,polyback_7.stopped,testWords_2.started,testWords_2.stopped,textScale_2.started,textScale_2.stopped,keyRKN.keys,keyRKN.rt,keyRKN.started,keyRKN.stopped,participant,session,date,expName,psychopyVersion,frameRate,
,,,,,,,,22.043583690987134,None,space,2904.8281669465696,22.043583690987134,None,,,,,,,,,,,,,,,,,,,,,,,,,,,,,,,,,,,,,,,,,,,,,,,,,,,,,,,,,,base4,001,2019_Oct_23_1600,ProdFawcett_Revision2019,3.2.4,59.96676594608899,
,,,,,,,,,,,,,,2926.904016296573,None,space,9.495166075760608,2926.904016296573,None,,,,,,,,,,,,,,,,,,,,,,,,,,,,,,,,,,,,,,,,,,,,,,,,,,,,base4,001,2019_Oct_23_1600,ProdFawcett_Revision2019,3.2.4,59.96676594608899,
0,0,0,0,,,,,,,,,,,,,,,,,2941.2084639547184,None,materials/mumblePic.jpg,level,C_aloud2,0,170,2937.590294831125,None,2937.590294831125,None,2938.458771536978,None,2938.724255458108,None,2938.724255458108,None,,,,,,,,,,,,,,,,,,,,,,,,,,,,,,,,,,,base4,001,2019_Oct_23_1600,ProdFawcett_Revision2019,3.2.4,59.96676594608899,
1,0,1,0,,,,,,,,,,,,,,,,,2945.4764517633885,None,materials/speakPic.jpg,notice,B_aloud1,1,201,2941.829218137712,None,2941.829218137712,None,2942.725890713442,None,2942.992239223736,None,2942.992239223736,None,,,,,,,,,,,,,,,,,,,,,,,,,,,,,,,,,,,base4,001,2019_Oct_23_1600,ProdFawcett_Revision2019,3.2.4,59.96676594608899,
2,0,2,0,,,,,,,,,,,,,,,,,2949.7444495241652,None,materials/mumblePic.jpg,prime,C_aloud2,2,235,2946.044259501151,None,2946.044259501151,None,2946.9937432356783,None,2947.260251601667,None,2947.260251601667,None,,,,,,,,,,,,,,,,,,,,,,,,,,,,,,,,,,,base4,001,2019_Oct_23_1600,ProdFawcett_Revision2019,3.2.4,59.96676594608899,
3,0,3,0,,,,,,,,,,,,,,,,,2954.0124239596944,None,materials/readPic.jpg,direction,A_silent,3,94,2950.3949763637493,None,2950.3949763637493,None,2951.2617469055176,None,2951.5282335012753,None,2951.5282335012753,None,,,,,,,,,,,,,,,,,,,,,,,,,,,,,,,,,,,base4,001,2019_Oct_23_1600,ProdFawcett_Revision2019,3.2.4,59.96676594608899,
4,0,4,0,,,,,,,,,,,,,,,,,2958.280398706226,None,materials/readPic.jpg,break,A_silent,4,26,2954.595586863221,None,2954.595586863221,None,2955.529439883063,None,2955.796232817068,None,2955.796232817068,None,,,,,,,,,,,,,,,,,,,,,,,,,,,,,,,,,,,base4,001,2019_Oct_23_1600,ProdFawcett_Revision2019,3.2.4,59.96676594608899,
5,0,5,0,,,,,,,,,,,,,,,,,2962.5483918019536,None,materials/speakPic.jpg,partner,B_aloud1,5,211,2958.89923866393,None,2958.89923866393,None,2959.7996364371465,None,2960.0642047645706,None,2960.0642047645706,None,,,,,,,,,,,,,,,,,,,,,,,,,,,,,,,,,,,base4,001,2019_Oct_23_1600,ProdFawcett_Revision2019,3.2.4,59.96676594608899,
6,0,6,0,,,,,,,,,,,,,,,,,2966.8163979598185,None,materials/readPic.jpg,speech,A_silent,6,298,2963.183016420974,None,2963.183016420974,None,2964.0652976301553,None,2964.3320715929585,None,2964.3320715929585,None,,,,,,,,,,,,,,,,,,,,,,,,,,,,,,,,,,,base4,001,2019_Oct_23_1600,ProdFawcett_Revision2019,3.2.4,59.96676594608899,
7,0,7,0,,,,,,,,,,,,,,,,,2971.0843870125027,None,materials/speakPic.jpg,payment,B_aloud1,7,215,2967.4177505131556,None,2967.4177505131556,None,2968.3337332835727,None,2968.5871816881263,None,2968.5871816881263,None,,,,,,,,,,,,,,,,,,,,,,,,,,,,,,,,,,,base4,001,2019_Oct_23_1600,ProdFawcett_Revision2019,3.2.4,59.96676594608899,
8,0,8,0,,,,,,,,,,,,,,,,,2975.3523630030477,None,materials/speakPic.jpg,private,B_aloud1,8,237,2971.656423462089,None,2971.656423462089,None,2972.601842694533,None,2972.868167257573,None,2972.868167257573,None,,,,,,,,,,,,,,,,,,,,,,,,,,,,,,,,,,,base4,001,2019_Oct_23_1600,ProdFawcett_Revision2019,3.2.4,59.96676594608899,
9,0,9,0,,,,,,,,,,,,,,,,,2979.6203557877716,None,materials/readPic.jpg,character,A_silent,9,46,2975.9535485476144,None,2975.9535485476144,None,2976.8697172980037,None,2977.1361659513595,None,2977.1361659513595,None,,,,,,,,,,,,,,,,,,,,,,,,,,,,,,,,,,,base4,001,2019_Oct_23_1600,ProdFawcett_Revision2019,3.2.4,59.96676594608899,
10,0,10,0,,,,,,,,,,,,,,,,,2983.888339864403,None,materials/readPic.jpg,strength,A_silent,10,310,2980.2035071841765,None,2980.2035071841765,None,2981.137673384338,None,2981.404136032842,None,2981.404136032842,None,,,,,,,,,,,,,,,,,,,,,,,,,,,,,,,,,,,base4,001,2019_Oct_23_1600,ProdFawcett_Revision2019,3.2.4,59.96676594608899,
11,0,11,0,,,,,,,,,,,,,,,,,2988.1563317161163,None,materials/mumblePic.jpg,tough,C_aloud2,11,333,2984.4564247061016,None,2984.4564247061016,None,2985.4057224606586,None,2985.672144989737,None,2985.672144989737,None,,,,,,,,,,,,,,,,,,,,,,,,,,,,,,,,,,,base4,001,2019_Oct_23_1600,ProdFawcett_Revision2019,3.2.4,59.96676594608899,
12,0,12,0,,,,,,,,,,,,,,,,,2992.424307084655,None,materials/readPic.jpg,beauty,A_silent,12,18,2988.7480655594945,None,2988.7480655594945,None,2989.6736542887356,None,2989.940106052124,None,2989.940106052124,None,,,,,,,,,,,,,,,,,,,,,,,,,,,,,,,,,,,base4,001,2019_Oct_23_1600,ProdFawcett_Revision2019,3.2.4,59.96676594608899,
13,0,13,0,,,,,,,,,,,,,,,,,2996.692316663557,None,materials/speakPic.jpg,volume,B_aloud1,13,349,2993.0121950612674,None,2993.0121950612674,None,2993.9416386763696,None,2994.208112831996,None,2994.208112831996,None,,,,,,,,,,,,,,,,,,,,,,,,,,,,,,,,,,,base4,001,2019_Oct_23_1600,ProdFawcett_Revision2019,3.2.4,59.96676594608899,
14,0,14,0,,,,,,,,,,,,,,,,,3000.9602693288552,None,materials/readPic.jpg,machinery,A_silent,14,175,2997.2968672637926,None,2997.2968672637926,None,2998.2096522983147,None,2998.4760863345155,None,2998.4760863345155,None,,,,,,,,,,,,,,,,,,,,,,,,,,,,,,,,,,,base4,001,2019_Oct_23_1600,ProdFawcett_Revision2019,3.2.4,59.96676594608899,
15,0,15,0,,,,,,,,,,,,,,,,,3005.228300677987,None,materials/mumblePic.jpg,split,C_aloud2,15,299,3001.528351993531,None,3001.528351993531,None,3002.4776186477575,None,3002.7440931143874,None,3002.7440931143874,None,,,,,,,,,,,,,,,,,,,,,,,,,,,,,,,,,,,base4,001,2019_Oct_23_1600,ProdFawcett_Revision2019,3.2.4,59.96676594608899,
16,0,16,0,,,,,,,,,,,,,,,,,3009.496276046526,None,materials/speakPic.jpg,object,B_aloud1,16,204,3005.8133523045344,None,3005.8133523045344,None,3006.7456596379925,None,3007.0119101822484,None,3007.0119101822484,None,,,,,,,,,,,,,,,,,,,,,,,,,,,,,,,,,,,base4,001,2019_Oct_23_1600,ProdFawcett_Revision2019,3.2.4,59.96676594608899,
17,0,17,0,,,,,,,,,,,,,,,,,3013.764243639983,None,materials/readPic.jpg,science,A_silent,17,275,3010.097559246128,None,3010.097559246128,None,3011.0135902220563,None,3011.280081793867,None,3011.280081793867,None,,,,,,,,,,,,,,,,,,,,,,,,,,,,,,,,,,,base4,001,2019_Oct_23_1600,ProdFawcett_Revision2019,3.2.4,59.96676594608899,
18,0,18,0,,,,,,,,,,,,,,,,,3018.032215276482,None,materials/mumblePic.jpg,pattern,C_aloud2,18,214,3014.3324559930334,None,3014.3324559930334,None,3015.281611930087,None,3015.5482639795982,None,3015.5482639795982,None,,,,,,,,,,,,,,,,,,,,,,,,,,,,,,,,,,,base4,001,2019_Oct_23_1600,ProdFawcett_Revision2019,3.2.4,59.96676594608899,
19,0,19,0,,,,,,,,,,,,,,,,,3022.3001984201037,None,materials/mumblePic.jpg,measure,C_aloud2,19,184,3018.5823076444613,None,3018.5823076444613,None,3019.5495652173913,None,3019.8160421720468,None,3019.8160421720468,None,,,,,,,,,,,,,,,,,,,,,,,,,,,,,,,,,,,base4,001,2019_Oct_23_1600,ProdFawcett_Revision2019,3.2.4,59.96676594608899,
20,0,20,0,,,,,,,,,,,,,,,,,3026.5681865397773,None,materials/readPic.jpg,degree,A_silent,20,89,3022.8913752565777,None,3022.8913752565777,None,3023.817528767805,None,3024.084015052559,None,3024.084015052559,None,,,,,,,,,,,,,,,,,,,,,,,,,,,,,,,,,,,base4,001,2019_Oct_23_1600,ProdFawcett_Revision2019,3.2.4,59.96676594608899,
21,0,21,0,,,,,,,,,,,,,,,,,3030.836568078622,None,materials/readPic.jpg,fight,A_silent,21,127,3027.151406667911,None,3027.151406667911,None,3028.0855762891088,None,3028.352014990359,None,3028.352014990359,None,,,,,,,,,,,,,,,,,,,,,,,,,,,,,,,,,,,base4,001,2019_Oct_23_1600,ProdFawcett_Revision2019,3.2.4,59.96676594608899,
22,0,22,0,,,,,,,,,,,,,,,,,3035.1041711762145,None,materials/mumblePic.jpg,place,C_aloud2,22,222,3031.4043820364495,None,3031.4043820364495,None,3032.3535283324,None,3032.6200071530757,None,3032.6200071530757,None,,,,,,,,,,,,,,,,,,,,,,,,,,,,,,,,,,,base4,001,2019_Oct_23_1600,ProdFawcett_Revision2019,3.2.4,59.96676594608899,
23,0,23,0,,,,,,,,,,,,,,,,,3039.3721577408724,None,materials/speakPic.jpg,session,B_aloud1,23,281,3035.688973378118,None,3035.688973378118,None,3036.621550351434,None,3036.887984387635,None,3036.887984387635,None,,,,,,,,,,,,,,,,,,,,,,,,,,,,,,,,,,,base4,001,2019_Oct_23_1600,ProdFawcett_Revision2019,3.2.4,59.96676594608899,
24,0,24,0,,,,,,,,,,,,,,,,,3043.640158300678,None,materials/speakPic.jpg,master,B_aloud1,24,180,3039.9405047583505,None,3039.9405047583505,None,3040.8895316290354,None,3041.1559697082794,None,3041.1559697082794,None,,,,,,,,,,,,,,,,,,,,,,,,,,,,,,,,,,,base4,001,2019_Oct_23_1600,ProdFawcett_Revision2019,3.2.4,59.96676594608899,
25,0,25,0,,,,,,,,,,,,,,,,,3047.908162903527,None,materials/speakPic.jpg,personnel,B_aloud1,25,219,3044.2233100080857,None,3044.2233100080857,None,3045.1575178826897,None,3045.4239687130685,None,3045.4239687130685,None,,,,,,,,,,,,,,,,,,,,,,,,,,,,,,,,,,,base4,001,2019_Oct_23_1600,ProdFawcett_Revision2019,3.2.4,59.96676594608899,
26,0,26,0,,,,,,,,,,,,,,,,,3052.176146047148,None,materials/mumblePic.jpg,death,C_aloud2,26,86,3048.476209180817,None,3048.476209180817,None,3049.4255395907194,None,3049.6919627418047,None,3049.6919627418047,None,,,,,,,,,,,,,,,,,,,,,,,,,,,,,,,,,,,base4,001,2019_Oct_23_1600,ProdFawcett_Revision2019,3.2.4,59.96676594608899,
27,0,27,0,,,,,,,,,,,,,,,,,3056.444144429931,None,materials/speakPic.jpg,state,B_aloud1,27,303,3052.759996578964,None,3052.759996578964,None,3053.6934434285004,None,3053.9599508614792,None,3053.9599508614792,None,,,,,,,,,,,,,,,,,,,,,,,,,,,,,,,,,,,base4,001,2019_Oct_23_1600,ProdFawcett_Revision2019,3.2.4,59.96676594608899,
28,0,28,0,,,,,,,,,,,,,,,,,3060.712132238602,None,materials/readPic.jpg,council,A_silent,28,71,3057.0454251415067,None,3057.0454251415067,None,3057.9614359022207,None,3058.227941780183,None,3058.227941780183,None,,,,,,,,,,,,,,,,,,,,,,,,,,,,,,,,,,,base4,001,2019_Oct_23_1600,ProdFawcett_Revision2019,3.2.4,59.96676594608899,
29,0,29,0,,,,,,,,,,,,,,,,,3064.980139018474,None,materials/mumblePic.jpg,society,C_aloud2,29,293,3061.280272749891,None,3061.280272749891,None,3062.229438950053,None,3062.4959261678177,None,3062.4959261678177,None,,,,,,,,,,,,,,,,,,,,,,,,,,,,,,,,,,,base4,001,2019_Oct_23_1600,ProdFawcett_Revision2019,3.2.4,59.96676594608899,
30,0,30,0,,,,,,,,,,,,,,,,,3069.2481174970453,None,materials/speakPic.jpg,smell,B_aloud1,30,291,3065.5700071530755,None,3065.5700071530755,None,3066.497429557753,None,3066.7639099334456,None,3066.7639099334456,None,,,,,,,,,,,,,,,,,,,,,,,,,,,,,,,,,,,base4,001,2019_Oct_23_1600,ProdFawcett_Revision2019,3.2.4,59.96676594608899,
31,0,31,0,,,,,,,,,,,,,,,,,3073.516095042607,None,materials/speakPic.jpg,growth,B_aloud1,31,144,3069.8164281271384,None,3069.8164281271384,None,3070.7654954282516,None,3071.03189338807,None,3071.03189338807,None,,,,,,,,,,,,,,,,,,,,,,,,,,,,,,,,,,,base4,001,2019_Oct_23_1600,ProdFawcett_Revision2019,3.2.4,59.96676594608899,
32,0,32,0,,,,,,,,,,,,,,,,,3077.7840943584006,None,materials/readPic.jpg,debate,A_silent,32,87,3074.1240965354236,None,3074.1240965354236,None,3075.03313864527,None,3075.299875598681,None,3075.299875598681,None,,,,,,,,,,,,,,,,,,,,,,,,,,,,,,,,,,,base4,001,2019_Oct_23_1600,ProdFawcett_Revision2019,3.2.4,59.96676594608899,
33,0,33,0,,,,,,,,,,,,,,,,,3082.0520591528275,None,materials/readPic.jpg,present,A_silent,33,231,3078.367220874541,None,3078.367220874541,None,3079.3013970268084,None,3079.5678658953784,None,3079.5678658953784,None,,,,,,,,,,,,,,,,,,,,,,,,,,,,,,,,,,,base4,001,2019_Oct_23_1600,ProdFawcett_Revision2019,3.2.4,59.96676594608899,
34,0,34,0,,,,,,,,,,,,,,,,,3086.3200525595576,None,materials/readPic.jpg,trial,A_silent,34,341,3082.635362629844,None,3082.635362629844,None,3083.5694066057104,None,3083.836194252659,None,3083.836194252659,None,,,,,,,,,,,,,,,,,,,,,,,,,,,,,,,,,,,base4,001,2019_Oct_23_1600,ProdFawcett_Revision2019,3.2.4,59.96676594608899,
35,0,35,0,,,,,,,,,,,,,,,,,3090.5880655594947,None,materials/mumblePic.jpg,watch,C_aloud2,35,351,3086.8782782857497,None,3086.8782782857497,None,3087.8381796977046,None,3088.103863593954,None,3088.103863593954,None,,,,,,,,,,,,,,,,,,,,,,,,,,,,,,,,,,,base4,001,2019_Oct_23_1600,ProdFawcett_Revision2019,3.2.4,59.96676594608899,
36,0,36,0,,,,,,,,,,,,,,,,,3094.8560291099084,None,materials/speakPic.jpg,education,B_aloud1,36,108,3091.188577470921,None,3091.188577470921,None,3092.10545468682,None,3092.371854823661,None,3092.371854823661,None,,,,,,,,,,,,,,,,,,,,,,,,,,,,,,,,,,,base4,001,2019_Oct_23_1600,ProdFawcett_Revision2019,3.2.4,59.96676594608899,
37,0,37,0,,,,,,,,,,,,,,,,,3099.124027181688,None,materials/mumblePic.jpg,working,C_aloud2,37,357,3095.4239058904022,None,3095.4239058904022,None,3096.3733756297815,None,3096.639817441065,None,3096.639817441065,None,,,,,,,,,,,,,,,,,,,,,,,,,,,,,,,,,,,base4,001,2019_Oct_23_1600,ProdFawcett_Revision2019,3.2.4,59.96676594608899,
38,0,38,0,,,,,,,,,,,,,,,,,3103.392016856379,None,materials/speakPic.jpg,engineer,B_aloud1,38,114,3099.709050817939,None,3099.709050817939,None,3100.6413824096535,None,3100.907810225788,None,3100.907810225788,None,,,,,,,,,,,,,,,,,,,,,,,,,,,,,,,,,,,base4,001,2019_Oct_23_1600,ProdFawcett_Revision2019,3.2.4,59.96676594608899,
39,0,39,0,,,,,,,,,,,,,,,,,3107.6600024880263,None,materials/mumblePic.jpg,distance,C_aloud2,39,100,3103.948704049263,None,3103.948704049263,None,3104.9090368227908,None,3105.1757992784724,None,3105.1757992784724,None,,,,,,,,,,,,,,,,,,,,,,,,,,,,,,,,,,,base4,001,2019_Oct_23_1600,ProdFawcett_Revision2019,3.2.4,59.96676594608899,
40,0,40,0,,,,,,,,,,,,,,,,,3111.92799620576,None,materials/readPic.jpg,stranger,A_silent,40,309,3108.2610309759284,None,3108.2610309759284,None,3109.177378864216,None,3109.44378677614,None,3109.44378677614,None,,,,,,,,,,,,,,,,,,,,,,,,,,,,,,,,,,,base4,001,2019_Oct_23_1600,ProdFawcett_Revision2019,3.2.4,59.96676594608899,
41,0,41,0,,,,,,,,,,,,,,,,,3116.1959983205825,None,materials/mumblePic.jpg,recall,C_aloud2,41,255,3112.4960552341854,None,3112.4960552341854,None,3113.4454419356844,None,3113.7117546805994,None,3113.7117546805994,None,,,,,,,,,,,,,,,,,,,,,,,,,,,,,,,,,,,base4,001,2019_Oct_23_1600,ProdFawcett_Revision2019,3.2.4,59.96676594608899,
42,0,42,0,,,,,,,,,,,,,,,,,3120.4639730671142,None,materials/readPic.jpg,oxygen,A_silent,42,209,3116.7965326242456,None,3116.7965326242456,None,3117.7133373763763,None,3117.979769235554,None,3117.979769235554,None,,,,,,,,,,,,,,,,,,,,,,,,,,,,,,,,,,,base4,001,2019_Oct_23_1600,ProdFawcett_Revision2019,3.2.4,59.96676594608899,
43,0,43,0,,,,,,,,,,,,,,,,,3124.7319804689932,None,materials/speakPic.jpg,medicine,B_aloud1,43,186,3121.065361696834,None,3121.065361696834,None,3121.9813279840764,None,3122.2477638862974,None,3122.2477638862974,None,,,,,,,,,,,,,,,,,,,,,,,,,,,,,,,,,,,base4,001,2019_Oct_23_1600,ProdFawcett_Revision2019,3.2.4,59.96676594608899,
44,0,44,0,,,,,,,,,,,,,,,,,3128.999935622318,None,materials/mumblePic.jpg,comfort,C_aloud2,44,59,3125.2998189960817,None,3125.2998189960817,None,3126.2492974435527,None,3126.5157476519253,None,3126.5157476519253,None,,,,,,,,,,,,,,,,,,,,,,,,,,,,,,,,,,,base4,001,2019_Oct_23_1600,ProdFawcett_Revision2019,3.2.4,59.96676594608899,
45,0,45,0,,,,,,,,,,,,,,,,,3133.2679567083414,None,materials/speakPic.jpg,primary,B_aloud1,45,234,3129.5839404117687,None,3129.5839404117687,None,3130.5172958263356,None,3130.7837379486227,None,3130.7837379486227,None,,,,,,,,,,,,,,,,,,,,,,,,,,,,,,,,,,,base4,001,2019_Oct_23_1600,ProdFawcett_Revision2019,3.2.4,59.96676594608899,
46,0,46,0,,,,,,,,,,,,,,,,,3137.5359326988864,None,materials/speakPic.jpg,error,B_aloud1,46,117,3133.837595633514,None,3133.837595633514,None,3134.7858577470925,None,3135.0394740934253,None,3135.0394740934253,None,,,,,,,,,,,,,,,,,,,,,,,,,,,,,,,,,,,base4,001,2019_Oct_23_1600,ProdFawcett_Revision2019,3.2.4,59.96676594608899,
47,0,47,0,,,,,,,,,,,,,,,,,3141.8039211295636,None,materials/mumblePic.jpg,count,C_aloud2,47,72,3138.103916153511,None,3138.103916153511,None,3139.053271132674,None,3139.3197054798784,None,3139.3197054798784,None,,,,,,,,,,,,,,,,,,,,,,,,,,,,,,,,,,,base4,001,2019_Oct_23_1600,ProdFawcett_Revision2019,3.2.4,59.96676594608899,
48,0,48,0,,,,,,,,,,,,,,,,,3146.071898986129,None,materials/readPic.jpg,clear,A_silent,48,52,3142.4044563662374,None,3142.4044563662374,None,3143.321285065622,None,3143.587679604404,None,3143.587679604404,None,,,,,,,,,,,,,,,,,,,,,,,,,,,,,,,,,,,base4,001,2019_Oct_23_1600,ProdFawcett_Revision2019,3.2.4,59.96676594608899,
49,0,49,0,,,,,,,,,,,,,,,,,3150.339880574734,None,materials/speakPic.jpg,solution,B_aloud1,49,294,3146.659076009206,None,3146.659076009206,None,3147.5892669652303,None,3147.855653417926,None,3147.855653417926,None,,,,,,,,,,,,,,,,,,,,,,,,,,,,,,,,,,,base4,001,2019_Oct_23_1600,ProdFawcett_Revision2019,3.2.4,59.96676594608899,
50,0,50,0,,,,,,,,,,,,,,,,,3154.6078658953784,None,materials/readPic.jpg,benefit,A_silent,50,20,3150.928881010139,None,3150.928881010139,None,3151.8575822603716,None,3152.1236754369593,None,3152.1236754369593,None,,,,,,,,,,,,,,,,,,,,,,,,,,,,,,,,,,,base4,001,2019_Oct_23_1600,ProdFawcett_Revision2019,3.2.4,59.96676594608899,
51,0,51,0,,,,,,,,,,,,,,,,,3158.8758599241155,None,materials/readPic.jpg,impact,A_silent,51,157,3155.193347017478,None,3155.193347017478,None,3156.1253657398765,None,3156.391661379611,None,3156.391661379611,None,,,,,,,,,,,,,,,,,,,,,,,,,,,,,,,,,,,base4,001,2019_Oct_23_1600,ProdFawcett_Revision2019,3.2.4,59.96676594608899,
52,0,52,0,,,,,,,,,,,,,,,,,3163.1438660819804,None,materials/speakPic.jpg,revolution,B_aloud1,52,264,3159.46472071904,None,3159.46472071904,None,3160.393247496423,None,3160.6596600733965,None,3160.6596600733965,None,,,,,,,,,,,,,,,,,,,,,,,,,,,,,,,,,,,base4,001,2019_Oct_23_1600,ProdFawcett_Revision2019,3.2.4,59.96676594608899,
53,0,53,0,,,,,,,,,,,,,,,,,3167.4118579336946,None,materials/mumblePic.jpg,brilliant,C_aloud2,53,30,3163.7008101635874,None,3163.7008101635874,None,3164.661306835853,None,3164.92763015488,None,3164.92763015488,None,,,,,,,,,,,,,,,,,,,,,,,,,,,,,,,,,,,base4,001,2019_Oct_23_1600,ProdFawcett_Revision2019,3.2.4,59.96676594608899,
54,0,54,0,,,,,,,,,,,,,,,,,3171.6798516514273,None,materials/mumblePic.jpg,still,C_aloud2,54,304,3167.9625489830196,None,3167.9625489830196,None,3168.9292318218577,None,3169.19561982957,None,3169.19561982957,None,,,,,,,,,,,,,,,,,,,,,,,,,,,,,,,,,,,base4,001,2019_Oct_23_1600,ProdFawcett_Revision2019,3.2.4,59.96676594608899,
55,0,55,0,,,,,,,,,,,,,,,,,3175.9478245319397,None,materials/speakPic.jpg,company,B_aloud1,55,64,3172.26884244573,None,3172.26884244573,None,3173.196860421721,None,3173.463617590346,None,3173.463617590346,None,,,,,,,,,,,,,,,,,,,,,,,,,,,,,,,,,,,base4,001,2019_Oct_23_1600,ProdFawcett_Revision2019,3.2.4,59.96676594608899,
56,0,56,0,,,,,,,,,,,,,,,,,3180.2158179386706,None,materials/readPic.jpg,capital,A_silent,56,40,3176.549016607576,None,3176.549016607576,None,3177.465419232444,None,3177.7316035329977,None,3177.7316035329977,None,,,,,,,,,,,,,,,,,,,,,,,,,,,,,,,,,,,base4,001,2019_Oct_23_1600,ProdFawcett_Revision2019,3.2.4,59.96676594608899,
57,0,57,0,,,,,,,,,,,,,,,,,3184.484061081048,None,materials/mumblePic.jpg,treatment,C_aloud2,57,339,3180.7881852957644,None,3180.7881852957644,None,3181.732858431299,None,3181.9995882316352,None,3181.9995882316352,None,,,,,,,,,,,,,,,,,,,,,,,,,,,,,,,,,,,base4,001,2019_Oct_23_1600,ProdFawcett_Revision2019,3.2.4,59.96676594608899,
58,0,58,0,,,,,,,,,,,,,,,,,3188.7518007090875,None,materials/speakPic.jpg,relation,B_aloud1,58,257,3185.0843730173538,None,3185.0843730173538,None,3186.000842818934,None,3186.26756702121,None,3186.26756702121,None,,,,,,,,,,,,,,,,,,,,,,,,,,,,,,,,,,,base4,001,2019_Oct_23_1600,ProdFawcett_Revision2019,3.2.4,59.96676594608899,
59,0,59,0,,,,,,,,,,,,,,,,,3193.0197627044845,None,materials/mumblePic.jpg,appearance,C_aloud2,59,10,3189.3198000248804,None,3189.3198000248804,None,3190.269310816695,None,3190.535552963862,None,3190.535552963862,None,,,,,,,,,,,,,,,,,,,,,,,,,,,,,,,,,,,base4,001,2019_Oct_23_1600,ProdFawcett_Revision2019,3.2.4,59.96676594608899,
60,0,60,0,,,,,,,,,,,,,,,,,3197.2877573552278,None,materials/mumblePic.jpg,equipment,C_aloud2,60,116,3193.5363904957394,None,3193.5363904957394,None,3194.536817192262,None,3194.803939789762,None,3194.803939789762,None,,,,,,,,,,,,,,,,,,,,,,,,,,,,,,,,,,,base4,001,2019_Oct_23_1600,ProdFawcett_Revision2019,3.2.4,59.96676594608899,
61,0,61,0,,,,,,,,,,,,,,,,,3201.555745785905,None,materials/readPic.jpg,drama,A_silent,61,103,3197.8769702058844,None,3197.8769702058844,None,3198.8048109099955,None,3199.071530758226,None,3199.071530758226,None,,,,,,,,,,,,,,,,,,,,,,,,,,,,,,,,,,,base4,001,2019_Oct_23_1600,ProdFawcett_Revision2019,3.2.4,59.96676594608899,
62,0,62,0,,,,,,,,,,,,,,,,,3205.8237354605963,None,materials/mumblePic.jpg,attack,C_aloud2,62,13,3202.1238489767993,None,3202.1238489767993,None,3203.0728036947194,None,3203.3395344280652,None,3203.3395344280652,None,,,,,,,,,,,,,,,,,,,,,,,,,,,,,,,,,,,base4,001,2019_Oct_23_1600,ProdFawcett_Revision2019,3.2.4,59.96676594608899,
63,0,63,0,,,,,,,,,,,,,,,,,3210.091722025253,None,materials/mumblePic.jpg,signal,C_aloud2,63,287,3206.373660819805,None,3206.373660819805,None,3207.3408011444926,None,3207.607528145799,None,3207.607528145799,None,,,,,,,,,,,,,,,,,,,,,,,,,,,,,,,,,,,base4,001,2019_Oct_23_1600,ProdFawcett_Revision2019,3.2.4,59.96676594608899,
64,0,64,0,,,,,,,,,,,,,,,,,3214.3597256950925,None,materials/mumblePic.jpg,account,C_aloud2,64,1,3210.632579461342,None,3210.632579461342,None,3211.6087444796913,None,3211.875508179387,None,3211.875508179387,None,,,,,,,,,,,,,,,,,,,,,,,,,,,,,,,,,,,base4,001,2019_Oct_23_1600,ProdFawcett_Revision2019,3.2.4,59.96676594608899,
65,0,65,0,,,,,,,,,,,,,,,,,3218.6276967095846,None,materials/readPic.jpg,edition,A_silent,65,107,3214.965110717173,None,3214.965110717173,None,3215.8767839149095,None,3216.1435118492254,None,3216.1435118492254,None,,,,,,,,,,,,,,,,,,,,,,,,,,,,,,,,,,,base4,001,2019_Oct_23_1600,ProdFawcett_Revision2019,3.2.4,59.96676594608899,
66,0,66,0,,,,,,,,,,,,,,,,,3222.8956798532063,None,materials/speakPic.jpg,cousin,B_aloud1,66,76,3219.229124836723,None,3219.229124836723,None,3220.144788206755,None,3220.411481930708,None,3220.411481930708,None,,,,,,,,,,,,,,,,,,,,,,,,,,,,,,,,,,,base4,001,2019_Oct_23_1600,ProdFawcett_Revision2019,3.2.4,59.96676594608899,
67,0,67,0,,,,,,,,,,,,,,,,,3227.1636499346887,None,materials/readPic.jpg,welcome,A_silent,67,354,3223.496976736953,None,3223.496976736953,None,3224.413155439447,None,3224.6794880885736,None,3224.6794880885736,None,,,,,,,,,,,,,,,,,,,,,,,,,,,,,,,,,,,base4,001,2019_Oct_23_1600,ProdFawcett_Revision2019,3.2.4,59.96676594608899,
68,0,68,0,,,,,,,,,,,,,,,,,3231.431737575418,None,materials/readPic.jpg,government,A_silent,68,139,3227.746813771226,None,3227.746813771226,None,3228.680745163899,None,3228.9474472849406,None,3228.9474472849406,None,,,,,,,,,,,,,,,,,,,,,,,,,,,,,,,,,,,base4,001,2019_Oct_23_1600,ProdFawcett_Revision2019,3.2.4,59.96676594608899,
69,0,69,0,,,,,,,,,,,,,,,,,3235.6996650494493,None,materials/readPic.jpg,institute,A_silent,69,162,3232.0147711015734,None,3232.0147711015734,None,3232.949159047086,None,3233.2154478447474,None,3233.2154478447474,None,,,,,,,,,,,,,,,,,,,,,,,,,,,,,,,,,,,base4,001,2019_Oct_23_1600,ProdFawcett_Revision2019,3.2.4,59.96676594608899,
70,0,70,0,,,,,,,,,,,,,,,,,3239.967637618958,None,materials/mumblePic.jpg,light,C_aloud2,70,171,3236.2678503452134,None,3236.2678503452134,None,3237.216706164085,None,3237.483433787398,None,3237.483433787398,None,,,,,,,,,,,,,,,,,,,,,,,,,,,,,,,,,,,base4,001,2019_Oct_23_1600,ProdFawcett_Revision2019,3.2.4,59.96676594608899,
71,0,71,0,,,,,,,,,,,,,,,,,3244.2356322697015,None,materials/mumblePic.jpg,pressure,C_aloud2,71,232,3240.5075393419165,None,3240.5075393419165,None,3241.4849776077626,None,3241.751419730049,None,3241.751419730049,None,,,,,,,,,,,,,,,,,,,,,,,,,,,,,,,,,,,base4,001,2019_Oct_23_1600,ProdFawcett_Revision2019,3.2.4,59.96676594608899,
72,0,72,0,,,,,,,,,,,,,,,,,3248.503675747963,None,materials/speakPic.jpg,foundation,B_aloud1,72,132,3244.820906885613,None,3244.820906885613,None,3245.7531215400877,None,3246.0194028736705,None,3246.0194028736705,None,,,,,,,,,,,,,,,,,,,,,,,,,,,,,,,,,,,base4,001,2019_Oct_23_1600,ProdFawcett_Revision2019,3.2.4,59.96676594608899,
73,0,73,0,,,,,,,,,,,,,,,,,3252.7716175281457,None,materials/readPic.jpg,husband,A_silent,73,156,3249.1047857187286,None,3249.1047857187286,None,3250.020697580394,None,3250.287401567456,None,3250.287401567456,None,,,,,,,,,,,,,,,,,,,,,,,,,,,,,,,,,,,base4,001,2019_Oct_23_1600,ProdFawcett_Revision2019,3.2.4,59.96676594608899,
74,0,74,0,,,,,,,,,,,,,,,,,3257.039586987622,None,materials/speakPic.jpg,season,B_aloud1,74,277,3253.3626354419357,None,3253.3626354419357,None,3254.288659575791,None,3254.5555395907195,None,3254.5555395907195,None,,,,,,,,,,,,,,,,,,,,,,,,,,,,,,,,,,,base4,001,2019_Oct_23_1600,ProdFawcett_Revision2019,3.2.4,59.96676594608899,
75,0,75,0,,,,,,,,,,,,,,,,,3261.307593767494,None,materials/readPic.jpg,vision,A_silent,75,347,3257.6309218137712,None,3257.6309218137712,None,3258.556656403558,None,3258.8233588356034,None,3258.8233588356034,None,,,,,,,,,,,,,,,,,,,,,,,,,,,,,,,,,,,base4,001,2019_Oct_23_1600,ProdFawcett_Revision2019,3.2.4,59.96676594608899,
76,0,76,0,,,,,,,,,,,,,,,,,3265.5755594949305,None,materials/mumblePic.jpg,quantity,C_aloud2,76,245,3261.878350127511,None,3261.878350127511,None,3262.824654164334,None,3263.091352553337,None,3263.091352553337,None,,,,,,,,,,,,,,,,,,,,,,,,,,,,,,,,,,,base4,001,2019_Oct_23_1600,ProdFawcett_Revision2019,3.2.4,59.96676594608899,
77,0,77,0,,,,,,,,,,,,,,,,,3269.843551968651,None,materials/readPic.jpg,breath,A_silent,77,27,3266.1761861665727,None,3266.1761861665727,None,3267.0926239348137,None,3267.359345338061,None,3267.359345338061,None,,,,,,,,,,,,,,,,,,,,,,,,,,,,,,,,,,,base4,001,2019_Oct_23_1600,ProdFawcett_Revision2019,3.2.4,59.96676594608899,
78,0,78,0,,,,,,,,,,,,,,,,,3274.111563413572,None,materials/mumblePic.jpg,course,C_aloud2,78,74,3270.401989799092,None,3270.401989799092,None,3271.3606272936495,None,3271.6273418548235,None,3271.6273418548235,None,,,,,,,,,,,,,,,,,,,,,,,,,,,,,,,,,,,base4,001,2019_Oct_23_1600,ProdFawcett_Revision2019,3.2.4,59.96676594608899,
79,0,79,0,,,,,,,,,,,,,,,,,3278.379551533246,None,materials/speakPic.jpg,produce,B_aloud1,79,239,3274.695380668035,None,3274.695380668035,None,3275.645089879952,None,3275.895314735336,None,3275.895314735336,None,,,,,,,,,,,,,,,,,,,,,,,,,,,,,,,,,,,base4,001,2019_Oct_23_1600,ProdFawcett_Revision2019,3.2.4,59.96676594608899,
80,0,80,0,,,,,,,,,,,,,,,,,3282.6475206817195,None,materials/speakPic.jpg,rough,B_aloud1,80,266,3278.9626674752753,None,3278.9626674752753,None,3279.896633389314,None,3280.163271754681,None,3280.163271754681,None,,,,,,,,,,,,,,,,,,,,,,,,,,,,,,,,,,,base4,001,2019_Oct_23_1600,ProdFawcett_Revision2019,3.2.4,59.96676594608899,
81,0,81,0,,,,,,,,,,,,,,,,,3286.915528394601,None,materials/mumblePic.jpg,interior,C_aloud2,81,164,3283.2044187348383,None,3283.2044187348383,None,3284.164584188592,None,3284.4313606394226,None,3284.4313606394226,None,,,,,,,,,,,,,,,,,,,,,,,,,,,,,,,,,,,base4,001,2019_Oct_23_1600,ProdFawcett_Revision2019,3.2.4,59.96676594608899,
82,0,82,0,,,,,,,,,,,,,,,,,3291.183489767991,None,materials/speakPic.jpg,grade,B_aloud1,82,140,3287.4993667972876,None,3287.4993667972876,None,3288.432641350998,None,3288.699285314424,None,3288.699285314424,None,,,,,,,,,,,,,,,,,,,,,,,,,,,,,,,,,,,base4,001,2019_Oct_23_1600,ProdFawcett_Revision2019,3.2.4,59.96676594608899,
83,0,83,0,,,,,,,,,,,,,,,,,3295.4514850407413,None,materials/mumblePic.jpg,contract,C_aloud2,83,68,3291.739420289855,None,3291.739420289855,None,3292.7006238726126,None,3292.9672746781116,None,3292.9672746781116,None,,,,,,,,,,,,,,,,,,,,,,,,,,,,,,,,,,,base4,001,2019_Oct_23_1600,ProdFawcett_Revision2019,3.2.4,59.96676594608899,
84,0,84,0,,,,,,,,,,,,,,,,,3299.719469739379,None,materials/readPic.jpg,detective,A_silent,84,92,3296.0520264974803,None,3296.0520264974803,None,3296.9685787149338,None,3297.235259998756,None,3297.235259998756,None,,,,,,,,,,,,,,,,,,,,,,,,,,,,,,,,,,,base4,001,2019_Oct_23_1600,ProdFawcett_Revision2019,3.2.4,59.96676594608899,
85,0,85,0,,,,,,,,,,,,,,,,,3303.9874423088886,None,materials/speakPic.jpg,surface,B_aloud1,85,316,3300.3109535361073,None,3300.3109535361073,None,3301.236559370529,None,3301.5032132860606,None,3301.5032132860606,None,,,,,,,,,,,,,,,,,,,,,,,,,,,,,,,,,,,base4,001,2019_Oct_23_1600,ProdFawcett_Revision2019,3.2.4,59.96676594608899,
86,0,86,0,,,,,,,,,,,,,,,,,3308.255430739566,None,materials/speakPic.jpg,guest,B_aloud1,86,146,3304.5539295266526,None,3304.5539295266526,None,3305.5045132798405,None,3305.7712340610806,None,3305.7712340610806,None,,,,,,,,,,,,,,,,,,,,,,,,,,,,,,,,,,,base4,001,2019_Oct_23_1600,ProdFawcett_Revision2019,3.2.4,59.96676594608899,
87,0,87,0,,,,,,,,,,,,,,,,,3312.5234418734835,None,materials/speakPic.jpg,close,B_aloud1,87,53,3308.838711513342,None,3308.838711513342,None,3309.7725486720155,None,3310.0392128506564,None,3310.0392128506564,None,,,,,,,,,,,,,,,,,,,,,,,,,,,,,,,,,,,base4,001,2019_Oct_23_1600,ProdFawcett_Revision2019,3.2.4,59.96676594608899,
88,0,88,0,,,,,,,,,,,,,,,,,3316.791544131368,None,materials/readPic.jpg,commercial,A_silent,88,61,3313.124612178889,None,3313.124612178889,None,3314.0405588729236,None,3314.3072012813336,None,3314.3072012813336,None,,,,,,,,,,,,,,,,,,,,,,,,,,,,,,,,,,,base4,001,2019_Oct_23_1600,ProdFawcett_Revision2019,3.2.4,59.96676594608899,
89,0,89,0,,,,,,,,,,,,,,,,,3321.0594265099207,None,materials/mumblePic.jpg,industry,C_aloud2,89,161,3317.3498186850775,None,3317.3498186850775,None,3318.3089435218008,None,3318.5754721030044,None,3318.5754721030044,None,,,,,,,,,,,,,,,,,,,,,,,,,,,,,,,,,,,base4,001,2019_Oct_23_1600,ProdFawcett_Revision2019,3.2.4,59.96676594608899,
,,,,,,,,,,,,,,,,,,,,,,,,,,,,,,,,,,,,,3321.5595748584938,None,k,108.04309728183125,3321.5595748584938,None,,,,,,,,,,,,,,,,,,,,,,,,,,,,,base4,001,2019_Oct_23_1600,ProdFawcett_Revision2019,3.2.4,59.96676594608899,
,,,,,,,,,,,,,,3429.626364993469,None,space,2.0722420227657494,3429.626364993469,None,,,,,,,,,,,,,,,,,,,,,,,,,,,,,,,,,,,,,,,,,,,,,,,,,,,,base4,001,2019_Oct_23_1600,ProdFawcett_Revision2019,3.2.4,59.96676594608899,
,,,,0,0,0,0,,,,,,,,,,,,,3462.588333333333,None,,,,,,,,,,,,,,,,,,,,,,safety,D_new,0,270,3432.2483420414255,None,3432.2483420414255,None,3432.2483420414255,None,5,25.86469024071721,3432.2483420414255,None,3458.168381538844,None,3458.168381538844,None,3458.68745661504,None,3458.68745661504,None,3458.68745661504,None,f,3.8578721154444793,3458.68745661504,None,base4,001,2019_Oct_23_1600,ProdFawcett_Revision2019,3.2.4,59.96676594608899,
,,,,1,0,1,0,,,,,,,,,,,,,3468.804937177334,None,,,,,,,,,,,,,,,,,,,,,,nature,D_new,1,200,3463.1198902158358,None,3463.1198902158358,None,3463.1198902158358,None,1,3.0964974808730403,3463.1198902158358,None,3466.2594000746403,None,3466.2594000746403,None,3466.7877477141255,None,3466.7877477141255,None,3466.7877477141255,None,n,1.9805482988113,3466.7877477141255,None,base4,001,2019_Oct_23_1600,ProdFawcett_Revision2019,3.2.4,59.96676594608899,
,,,,2,0,2,0,,,,,,,,,,,,,3478.1578170678604,None,,,,,,,,,,,,,,,,,,,,,,production,D_new,2,240,3469.3255482988116,None,3469.3255482988116,None,3469.3255482988116,None,1,6.866231573054392,3469.3255482988116,None,3476.2470115693222,None,3476.2470115693222,None,3476.7740697891395,None,3476.7740697891395,None,3476.7740697891395,None,n,1.337612427691056,3476.7740697891395,None,base4,001,2019_Oct_23_1600,ProdFawcett_Revision2019,3.2.4,59.96676594608899,
,,,,3,0,3,0,,,,,,,,,,,,,3493.1624746532316,None,,,,,,,,,,,,,,,,,,,,,,trial,A_silent,3,341,3478.6745782795297,None,3478.6745782795297,None,3478.6745782795297,None,2,4.764882751756886,3478.6745782795297,None,3483.4807271257077,None,3483.4807271257077,None,3484.0096911737264,None,3484.0096911737264,None,3484.0096911737264,None,f,9.11748367232667,3484.0096911737264,None,base4,001,2019_Oct_23_1600,ProdFawcett_Revision2019,3.2.4,59.96676594608899,
,,,,4,0,4,0,,,,,,,,,,,,,3502.4821602288985,None,,,,,,,,,,,,,,,,,,,,,,growth,B_aloud1,4,144,3493.6646638054362,None,3493.6646638054362,None,3493.6646638054362,None,6,4.077944579213181,3493.6646638054362,None,3497.7863876967094,None,3497.7863876967094,None,3498.3141634011317,None,3498.3141634011317,None,3498.3141634011317,None,r,4.1322644150022825,3498.3141634011317,None,base4,001,2019_Oct_23_1600,ProdFawcett_Revision2019,3.2.4,59.96676594608899,
,,,,5,0,5,0,,,,,,,,,,,,,3506.883491012005,None,,,,,,,,,,,,,,,,,,,,,,place,C_aloud2,5,222,3502.998807924364,None,3502.998807924364,None,3502.998807924364,None,6,2.8392352428936647,3502.998807924364,None,3505.8874958014558,None,3505.8874958014558,None,3506.406083535485,None,3506.406083535485,None,3506.406083535485,None,r,0.43195247869698505,3506.406083535485,None,base4,001,2019_Oct_23_1600,ProdFawcett_Revision2019,3.2.4,59.96676594608899,
,,,,6,0,6,0,,,,,,,,,,,,,3513.668933880699,None,,,,,,,,,,,,,,,,,,,,,,short,D_new,6,285,3507.4003430366356,None,3507.4003430366356,None,3507.4003430366356,None,3,5.2133311563102325,3507.4003430366356,None,3512.6686051502147,None,3512.6686051502147,None,3513.185441313678,None,3513.185441313678,None,3513.185441313678,None,n,0.43616097530593834,3513.185441313678,None,base4,001,2019_Oct_23_1600,ProdFawcett_Revision2019,3.2.4,59.96676594608899,
,,,,7,0,7,0,,,,,,,,,,,,,3518.2702512906635,None,,,,,,,,,,,,,,,,,,,,,,pressure,C_aloud2,7,232,3514.1864309261673,None,3514.1864309261673,None,3514.1864309261673,None,6,2.691725757292261,3514.1864309261673,None,3516.9262281520187,None,3516.9262281520187,None,3517.4534023760652,None,3517.4534023760652,None,3517.4534023760652,None,r,0.7679862536542714,3517.4534023760652,None,base4,001,2019_Oct_23_1600,ProdFawcett_Revision2019,3.2.4,59.96676594608899,
,,,,8,0,8,0,,,,,,,,,,,,,3521.9214809976984,None,,,,,,,,,,,,,,,,,,,,,,breath,A_silent,8,27,3518.7872071903957,None,3518.7872071903957,None,3518.7872071903957,None,6,2.137968526466466,3518.7872071903957,None,3520.976142004105,None,3520.976142004105,None,3521.504589164645,None,3521.504589164645,None,3521.504589164645,None,r,0.38069695838748885,3521.504589164645,None,base4,001,2019_Oct_23_1600,ProdFawcett_Revision2019,3.2.4,59.96676594608899,
,,,,9,0,9,0,,,,,,,,,,,,,3527.0230413012378,None,,,,,,,,,,,,,,,,,,,,,,space,D_new,9,297,3522.438452758599,None,3522.438452758599,None,3522.438452758599,None,4,3.3347490203395864,3522.438452758599,None,3525.8227377620206,None,3525.8227377620206,None,3526.339417801829,None,3526.339417801829,None,3526.339417801829,None,f,0.6420846550972783,3526.339417801829,None,base4,001,2019_Oct_23_1600,ProdFawcett_Revision2019,3.2.4,59.96676594608899,
,,,,10,0,10,0,,,,,,,,,,,,,3533.1248609815266,None,,,,,,,,,,,,,,,,,,,,,,education,B_aloud1,10,108,3527.540361696834,None,3527.540361696834,None,3527.540361696834,None,5,4.9521493437823665,3527.540361696834,None,3532.558090750762,None,3532.558090750762,None,3533.07488772781,None,3533.07488772781,None,3533.07488772781,None,f,0.009856938483608246,3533.07488772781,None,base4,001,2019_Oct_23_1600,ProdFawcett_Revision2019,3.2.4,59.96676594608899,
,,,,11,0,11,0,,,,,,,,,,,,,3536.692667475275,None,,,,,,,,,,,,,,,,,,,,,,personnel,B_aloud1,11,219,3533.64321888412,None,3533.64321888412,None,3533.64321888412,None,6,2.0736838340490067,3533.64321888412,None,3535.7653259314548,None,3535.7653259314548,None,3536.2925937674936,None,3536.2925937674936,None,3536.2925937674936,None,r,0.35178826895571547,3536.2925937674936,None,base4,001,2019_Oct_23_1600,ProdFawcett_Revision2019,3.2.4,59.96676594608899,
,,,,12,0,12,0,,,,,,,,,,,,,3543.0113522423335,None,,,,,,,,,,,,,,,,,,,,,,power,D_new,12,230,3537.209578590533,None,3537.209578590533,None,3537.209578590533,None,3,4.522378553212548,3537.209578590533,None,3541.794448591155,None,3541.794448591155,None,3542.3110191578025,None,3542.3110191578025,None,3542.3110191578025,None,n,0.6529047707899736,3542.3110191578025,None,base4,001,2019_Oct_23_1600,ProdFawcett_Revision2019,3.2.4,59.96676594608899,
,,,,13,0,13,0,,,,,,,,,,,,,3547.8628546992595,None,,,,,,,,,,,,,,,,,,,,,,population,D_new,13,227,3543.5296746905515,None,3543.5296746905515,None,3543.5296746905515,None,1,3.0263911177462433,3543.5296746905515,None,3546.6124982894817,None,3546.6124982894817,None,3547.1291260807366,None,3547.1291260807366,None,3547.1291260807366,None,n,0.6986035951986196,3547.1291260807366,None,base4,001,2019_Oct_23_1600,ProdFawcett_Revision2019,3.2.4,59.96676594608899,
,,,,14,0,14,0,,,,,,,,,,,,,3553.7647219630526,None,,,,,,,,,,,,,,,,,,,,,,stranger,A_silent,14,309,3548.380491385208,None,3548.380491385208,None,3548.380491385208,None,2,3.878934191702683,3548.380491385208,None,3552.314264788207,None,3552.314264788207,None,3552.830908440629,None,3552.830908440629,None,3552.830908440629,None,n,0.9005971263295578,3552.830908440629,None,base4,001,2019_Oct_23_1600,ProdFawcett_Revision2019,3.2.4,59.96676594608899,
,,,,15,0,15,0,,,,,,,,,,,,,3557.7326068296325,None,,,,,,,,,,,,,,,,,,,,,,resistance,D_new,15,262,3554.283537040493,None,3554.283537040493,None,3554.283537040493,None,1,2.440260309759651,3554.283537040493,None,3556.7823116875034,None,3556.7823116875034,None,3557.298973378118,None,3557.298973378118,None,3557.298973378118,None,n,0.4004036822789203,3557.298973378118,None,base4,001,2019_Oct_23_1600,ProdFawcett_Revision2019,3.2.4,59.96676594608899,
,,,,16,0,16,0,,,,,,,,,,,,,3561.166841761523,None,,,,,,,,,,,,,,,,,,,,,,direction,A_silent,16,94,3558.250102320085,None,3558.250102320085,None,3558.250102320085,None,3,1.881063320271096,3558.250102320085,None,3560.1716993220125,None,3560.1716993220125,None,3560.6833551035643,None,3560.6833551035643,None,3560.6833551035643,None,f,0.4400469614975009,3560.6833551035643,None,base4,001,2019_Oct_23_1600,ProdFawcett_Revision2019,3.2.4,59.96676594608899,
,,,,17,0,17,0,,,,,,,,,,,,,3565.551592025875,None,,,,,,,,,,,,,,,,,,,,,,impact,A_silent,17,157,3561.6843568451823,None,3561.6843568451823,None,3561.6843568451823,None,1,2.9429141008895385,3561.6843568451823,None,3564.6847533743858,None,3564.6847533743858,None,3565.2016103750702,None,3565.2016103750702,None,3565.2016103750702,None,n,0.30540772532185656,3565.2016103750702,None,base4,001,2019_Oct_23_1600,ProdFawcett_Revision2019,3.2.4,59.96676594608899,
,,,,18,0,18,0,,,,,,,,,,,,,3570.003031660135,None,,,,,,,,,,,,,,,,,,,,,,master,B_aloud1,18,180,3566.0685594327297,None,3566.0685594327297,None,3566.0685594327297,None,2,2.8699281582385083,3566.0685594327297,None,3569.002751757169,None,3569.002751757169,None,3569.5196233750075,None,3569.5196233750075,None,3569.5196233750075,None,n,0.4347745226095867,3569.5196233750075,None,base4,001,2019_Oct_23_1600,ProdFawcett_Revision2019,3.2.4,59.96676594608899,
,,,,19,0,19,0,,,,,,,,,,,,,3573.370685140262,None,,,,,,,,,,,,,,,,,,,,,,rough,B_aloud1,19,266,3570.520486720159,None,3570.520486720159,None,3570.520486720159,None,6,1.8501775828826794,3570.520486720159,None,3572.4204798780866,None,3572.4204798780866,None,3572.9373350127507,None,3572.9373350127507,None,3572.9373350127507,None,r,0.39315388443083066,3572.9373350127507,None,base4,001,2019_Oct_23_1600,ProdFawcett_Revision2019,3.2.4,59.96676594608899,
,,,,20,0,20,0,,,,,,,,,,,,,3576.3715858058094,None,,,,,,,,,,,,,,,,,,,,,,error,B_aloud1,20,117,3573.8874339117992,None,3573.8874339117992,None,3573.8874339117992,None,6,1.4987603408590076,3573.8874339117992,None,3575.4256471978597,None,3575.4256471978597,None,3575.9552341854824,None,3575.9552341854824,None,3575.9552341854824,None,r,0.37519220003741793,3575.9552341854824,None,base4,001,2019_Oct_23_1600,ProdFawcett_Revision2019,3.2.4,59.96676594608899,
,,,,21,0,21,0,,,,,,,,,,,,,3580.3895854326056,None,,,,,,,,,,,,,,,,,,,,,,chief,D_new,21,48,3576.8886916091305,None,3576.8886916091305,None,3576.8886916091305,None,2,2.201173104434929,3576.8886916091305,None,3579.139144118927,None,3579.139144118927,None,3579.6560487031156,None,3579.6560487031156,None,3579.6560487031156,None,f,0.697877091497503,3579.6560487031156,None,base4,001,2019_Oct_23_1600,ProdFawcett_Revision2019,3.2.4,59.96676594608899,
,,,,22,0,22,0,,,,,,,,,,,,,3584.0572588169434,None,,,,,,,,,,,,,,,,,,,,,,shear,D_new,22,283,3580.906536356285,None,3580.906536356285,None,3580.906536356285,None,1,2.2791008894691913,3580.906536356285,None,3583.2405078683832,None,3583.2405078683832,None,3583.757205013373,None,3583.757205013373,None,3583.757205013373,None,n,0.2606798532060566,3583.757205013373,None,base4,001,2019_Oct_23_1600,ProdFawcett_Revision2019,3.2.4,59.96676594608899,
,,,,23,0,23,0,,,,,,,,,,,,,3588.2422193195243,None,,,,,,,,,,,,,,,,,,,,,,science,A_silent,23,275,3584.5746706475084,None,3584.5746706475084,None,3584.5746706475084,None,2,2.5787158673883823,3584.5746706475084,None,3587.2082397213408,None,3587.2082397213408,None,3587.725241027555,None,3587.725241027555,None,3587.725241027555,None,n,0.46807364558026165,3587.725241027555,None,base4,001,2019_Oct_23_1600,ProdFawcett_Revision2019,3.2.4,59.96676594608899,
,,,,24,0,24,0,,,,,,,,,,,,,3591.443013932948,None,,,,,,,,,,,,,,,,,,,,,,death,C_aloud2,24,86,3588.758799527275,None,3588.758799527275,None,3588.758799527275,None,6,1.7464539404118113,3588.758799527275,None,3590.55945854326,None,3590.55945854326,None,3591.076112769795,None,3591.076112769795,None,3591.076112769795,None,r,0.33342041425657953,3591.076112769795,None,base4,001,2019_Oct_23_1600,ProdFawcett_Revision2019,3.2.4,59.96676594608899,
,,,,25,0,25,0,,,,,,,,,,,,,3595.1607283697203,None,,,,,,,,,,,,,,,,,,,,,,society,C_aloud2,25,293,3591.960519375505,None,3591.960519375505,None,3591.960519375505,None,3,2.1766959009764832,3591.960519375505,None,3594.1937646949054,None,3594.1937646949054,None,3594.7107579150334,None,3594.7107579150334,None,3594.7107579150334,None,f,0.4021353486341468,3594.7107579150334,None,base4,001,2019_Oct_23_1600,ProdFawcett_Revision2019,3.2.4,59.96676594608899,
,,,,26,0,26,0,,,,,,,,,,,,,3598.6618203022954,None,,,,,,,,,,,,,,,,,,,,,,council,A_silent,26,71,3595.678477016856,None,3595.678477016856,None,3595.678477016856,None,2,2.058819431485972,3595.678477016856,None,3597.7948743546676,None,3597.7948743546676,None,3598.311855445668,None,3598.311855445668,None,3598.311855445668,None,n,0.3128674503950606,3598.311855445668,None,base4,001,2019_Oct_23_1600,ProdFawcett_Revision2019,3.2.4,59.96676594608899,
,,,,27,0,27,0,,,,,,,,,,,,,3603.6466570255643,None,,,,,,,,,,,,,,,,,,,,,,beauty,A_silent,27,18,3599.180687628289,None,3599.180687628289,None,3599.180687628289,None,1,3.251775828823156,3599.180687628289,None,3602.4843524911366,None,3602.4843524911366,None,3603.0131560614536,None,3603.0131560614536,None,3603.0131560614536,None,n,0.5872441997889837,3603.0131560614536,None,base4,001,2019_Oct_23_1600,ProdFawcett_Revision2019,3.2.4,59.96676594608899,
,,,,28,0,28,0,,,,,,,,,,,,,3608.4649639236177,None,,,,,,,,,,,,,,,,,,,,,,whole,D_new,28,355,3604.163687566088,None,3604.163687566088,None,3604.163687566088,None,2,2.420533992660239,3604.163687566088,None,3606.6475754182993,None,3606.6475754182993,None,3607.1645907196616,None,3607.1645907196616,None,3607.1645907196616,None,n,1.2677312309506306,3607.1645907196616,None,base4,001,2019_Oct_23_1600,ProdFawcett_Revision2019,3.2.4,59.96676594608899,
,,,,29,0,29,0,,,,,,,,,,,,,3611.4990940473963,None,,,,,,,,,,,,,,,,,,,,,,season,B_aloud1,29,277,3608.9815932698884,None,3608.9815932698884,None,3608.9815932698884,None,6,1.5704095913415586,3608.9815932698884,None,3610.6156394227773,None,3610.6156394227773,None,3611.132504820551,None,3611.132504820551,None,3611.132504820551,None,r,0.3241270137468746,3611.132504820551,None,base4,001,2019_Oct_23_1600,ProdFawcett_Revision2019,3.2.4,59.96676594608899,
,,,,30,0,30,0,,,,,,,,,,,,,3619.751708652111,None,,,,,,,,,,,,,,,,,,,,,,discussion,D_new,30,96,3612.016387074703,None,3612.016387074703,None,3612.016387074703,None,1,4.551546930397308,3612.016387074703,None,3616.6174979784782,None,3616.6174979784782,None,3617.1342906014806,None,3617.1342906014806,None,3617.1342906014806,None,n,2.569170865211163,3617.1342906014806,None,base4,001,2019_Oct_23_1600,ProdFawcett_Revision2019,3.2.4,59.96676594608899,
,,,,31,0,31,0,,,,,,,,,,,,,3623.386123032904,None,,,,,,,,,,,,,,,,,,,,,,appearance,C_aloud2,31,10,3620.268928593643,None,3620.268928593643,None,3620.268928593643,None,3,2.1464809976987453,3620.268928593643,None,3622.4591497169868,None,3622.4591497169868,None,3622.9861410710955,None,3622.9861410710955,None,3622.9861410710955,None,f,0.3578220439130746,3622.9861410710955,None,base4,001,2019_Oct_23_1600,ProdFawcett_Revision2019,3.2.4,59.96676594608899,
,,,,32,0,32,0,,,,,,,,,,,,,3629.0879346271067,None,,,,,,,,,,,,,,,,,,,,,,contract,C_aloud2,32,68,3623.9032599365555,None,3623.9032599365555,None,3623.9032599365555,None,6,4.200060334639602,3623.9032599365555,None,3628.1542694532563,None,3628.1542694532563,None,3628.6711939416555,None,3628.6711939416555,None,3628.6711939416555,None,f,0.3761009516701961,3628.6711939416555,None,base4,001,2019_Oct_23_1600,ProdFawcett_Revision2019,3.2.4,59.96676594608899,
,,,,33,0,33,0,,,,,,,,,,,,,3632.3555305716236,None,,,,,,,,,,,,,,,,,,,,,,color,D_new,33,56,3629.6048137090247,None,3629.6048137090247,None,3629.6048137090247,None,1,1.9141273247496429,3629.6048137090247,None,3631.572016545375,None,3631.572016545375,None,3632.0888433787395,None,3632.0888433787395,None,3632.0888433787395,None,n,0.23002456926042214,3632.0888433787395,None,base4,001,2019_Oct_23_1600,ProdFawcett_Revision2019,3.2.4,59.96676594608899,
,,,,34,0,34,0,,,,,,,,,,,,,3634.8231457983456,None,,,,,,,,,,,,,,,,,,,,,,strain,D_new,34,308,3632.873061827455,None,3632.873061827455,None,3632.873061827455,None,1,0.9977530011819908,3632.873061827455,None,3633.9227962306395,None,3633.9227962306395,None,3634.4396771785778,None,3634.4396771785778,None,3634.4396771785778,None,n,0.3432459414070763,3634.4396771785778,None,base4,001,2019_Oct_23_1600,ProdFawcett_Revision2019,3.2.4,59.96676594608899,
,,,,35,0,35,0,,,,,,,,,,,,,3639.491123343907,None,,,,,,,,,,,,,,,,,,,,,,vision,A_silent,35,347,3635.3398743546677,None,3635.3398743546677,None,3635.3398743546677,None,6,3.2025181936924128,3635.3398743546677,None,3638.596778938857,None,3638.596778938857,None,3639.1245139018474,None,3639.1245139018474,None,3639.1245139018474,None,r,0.32208869813985075,3639.1245139018474,None,base4,001,2019_Oct_23_1600,ProdFawcett_Revision2019,3.2.4,59.96676594608899,
,,,,36,0,36,0,,,,,,,,,,,,,3644.459442060086,None,,,,,,,,,,,,,,,,,,,,,,clear,A_silent,36,52,3640.0080944828014,None,3640.0080944828014,None,3640.0080944828014,None,2,2.2380652484916936,3640.0080944828014,None,3642.30878024507,None,3642.30878024507,None,3642.825486409156,None,3642.825486409156,None,3642.825486409156,None,n,1.5886004851654434,3642.825486409156,None,base4,001,2019_Oct_23_1600,ProdFawcett_Revision2019,3.2.4,59.96676594608899,
,,,,37,0,37,0,,,,,,,,,,,,,3648.4272047023696,None,,,,,,,,,,,,,,,,,,,,,,cousin,B_aloud1,37,76,3644.9762334390743,None,3644.9762334390743,None,3644.9762334390743,None,4,2.117698264601131,3644.9762334390743,None,3647.143477949866,None,3647.143477949866,None,3647.6604742800273,None,3647.6604742800273,None,3647.6604742800273,None,f,0.7213099458858778,3647.6604742800273,None,base4,001,2019_Oct_23_1600,ProdFawcett_Revision2019,3.2.4,59.96676594608899,
,,,,38,0,38,0,,,,,,,,,,,,,3653.678831249611,None,,,,,,,,,,,,,,,,,,,,,,grade,B_aloud1,38,140,3648.9439313926723,None,3648.9439313926723,None,3648.9439313926723,None,3,2.6940648130866975,3648.9439313926723,None,3651.6950295453134,None,3651.6950295453134,None,3652.211736642408,None,3652.211736642408,None,3652.211736642408,None,n,1.4340791192389588,3652.211736642408,None,base4,001,2019_Oct_23_1600,ProdFawcett_Revision2019,3.2.4,59.96676594608899,
,,,,39,0,39,0,,,,,,,,,,,,,3660.014135721838,None,,,,,,,,,,,,,,,,,,,,,,exchange,D_new,39,121,3654.195595571313,None,3654.195595571313,None,3654.195595571313,None,3,4.969611245878696,3654.195595571313,None,3659.230553274864,None,3659.230553274864,None,3659.7474370218324,None,3659.7474370218324,None,3659.7474370218324,None,f,0.23394289979478344,3659.7474370218324,None,base4,001,2019_Oct_23_1600,ProdFawcett_Revision2019,3.2.4,59.96676594608899,
,,,,40,0,40,0,,,,,,,,,,,,,3663.3984879019717,None,,,,,,,,,,,,,,,,,,,,,,detective,A_silent,40,92,3660.532089320147,None,3660.532089320147,None,3660.532089320147,None,2,1.7368909000433632,3660.532089320147,None,3662.3315354232755,None,3662.3315354232755,None,3662.84852739939,None,3662.84852739939,None,3662.84852739939,None,n,0.5168395844993938,3662.84852739939,None,base4,001,2019_Oct_23_1600,ProdFawcett_Revision2019,3.2.4,59.96676594608899,
,,,,41,0,41,0,,,,,,,,,,,,,3666.8162424581697,None,,,,,,,,,,,,,,,,,,,,,,symbol,D_new,41,321,3663.9153868881012,None,3663.9153868881012,None,3663.9153868881012,None,1,1.8654882751752666,3663.9153868881012,None,3665.8327638862966,None,3665.8327638862966,None,3666.34960191578,None,3666.34960191578,None,3666.34960191578,None,n,0.4238231635254124,3666.34960191578,None,base4,001,2019_Oct_23_1600,ProdFawcett_Revision2019,3.2.4,59.96676594608899,
,,,,42,0,42,0,,,,,,,,,,,,,3670.534139453878,None,,,,,,,,,,,,,,,,,,,,,,agency,D_new,42,4,3667.3329682154626,None,3667.3329682154626,None,3667.3329682154626,None,1,1.8157053554768936,3667.3329682154626,None,3669.2003816010447,None,3669.2003816010447,None,3669.717246998818,None,3669.717246998818,None,3669.717246998818,None,n,0.7758104745907985,3669.717246998818,None,base4,001,2019_Oct_23_1600,ProdFawcett_Revision2019,3.2.4,59.96676594608899,
,,,,43,0,43,0,,,,,,,,,,,,,3673.935143994526,None,,,,,,,,,,,,,,,,,,,,,,route,D_new,43,267,3671.051090066555,None,3671.051090066555,None,3671.051090066555,None,1,2.0419810909997977,3671.051090066555,None,3673.1515080549852,None,3673.1515080549852,None,3673.6685059401625,None,3673.6685059401625,None,3673.6685059401625,None,n,0.22452851900288806,3673.6685059401625,None,base4,001,2019_Oct_23_1600,ProdFawcett_Revision2019,3.2.4,59.96676594608899,
,,,,44,0,44,0,,,,,,,,,,,,,3676.936075449399,None,,,,,,,,,,,,,,,,,,,,,,commercial,A_silent,44,61,3674.4542843814143,None,3674.4542843814143,None,3674.4542843814143,None,6,1.517893885675221,3674.4542843814143,None,3676.0358365988677,None,3676.0358365988677,None,3676.553180319711,None,3676.553180319711,None,3676.553180319711,None,r,0.3396781115880003,3676.553180319711,None,base4,001,2019_Oct_23_1600,ProdFawcett_Revision2019,3.2.4,59.96676594608899,
,,,,45,0,45,0,,,,,,,,,,,,,3680.053773091995,None,,,,,,,,,,,,,,,,,,,,,,primary,B_aloud1,45,234,3677.454260123157,None,3677.454260123157,None,3677.454260123157,None,4,1.6223458978665803,3677.454260123157,None,3679.126080114449,None,3679.126080114449,None,3679.653623810412,None,3679.653623810412,None,3679.653623810412,None,f,0.3668153262424312,3679.653623810412,None,base4,001,2019_Oct_23_1600,ProdFawcett_Revision2019,3.2.4,59.96676594608899,
,,,,46,0,46,0,,,,,,,,,,,,,3684.121827455371,None,,,,,,,,,,,,,,,,,,,,,,brilliant,C_aloud2,46,30,3680.570966598246,None,3680.570966598246,None,3680.570966598246,None,2,1.3772050133738958,3680.570966598246,None,3682.0044059837037,None,3682.0044059837037,None,3682.5214131989796,None,3682.5214131989796,None,3682.5214131989796,None,f,1.5543011755926273,3682.5214131989796,None,base4,001,2019_Oct_23_1600,ProdFawcett_Revision2019,3.2.4,59.96676594608899,
,,,,47,0,47,0,,,,,,,,,,,,,3688.206198295702,None,,,,,,,,,,,,,,,,,,,,,,session,B_aloud1,47,281,3684.6391030664927,None,3684.6391030664927,None,3684.6391030664927,None,6,2.541262362380621,3684.6391030664927,None,3687.2273477638864,None,3687.2273477638864,None,3687.7561003296632,None,3687.7561003296632,None,3687.7561003296632,None,r,0.4156356907387817,3687.7561003296632,None,base4,001,2019_Oct_23_1600,ProdFawcett_Revision2019,3.2.4,59.96676594608899,
,,,,48,0,48,0,,,,,,,,,,,,,3692.157577906326,None,,,,,,,,,,,,,,,,,,,,,,research,D_new,48,261,3688.7230954158113,None,3688.7230954158113,None,3688.7230954158113,None,5,2.472472476208168,3688.7230954158113,None,3691.2462377931206,None,3691.2462377931206,None,3691.7740402438267,None,3691.7740402438267,None,3691.7740402438267,None,f,0.3497910057849367,3691.7740402438267,None,base4,001,2019_Oct_23_1600,ProdFawcett_Revision2019,3.2.4,59.96676594608899,
,,,,49,0,49,0,,,,,,,,,,,,,3696.6087877091495,None,,,,,,,,,,,,,,,,,,,,,,working,C_aloud2,49,357,3692.675337438577,None,3692.675337438577,None,3692.675337438577,None,2,2.9037466567142474,3692.675337438577,None,3695.64197922498,None,3695.64197922498,None,3696.1586626858243,None,3696.1586626858243,None,3696.1586626858243,None,n,0.4123825962551564,3696.1586626858243,None,base4,001,2019_Oct_23_1600,ProdFawcett_Revision2019,3.2.4,59.96676594608899,
,,,,50,0,50,0,,,,,,,,,,,,,3700.84338589289,None,,,,,,,,,,,,,,,,,,,,,,count,C_aloud2,50,72,3697.1256509299,None,3697.1256509299,None,3697.1256509299,None,3,2.2211976736953147,3697.1256509299,None,3699.409895502892,None,3699.409895502892,None,3699.926605088014,None,3699.926605088014,None,3699.926605088014,None,f,0.8764508303784169,3699.926605088014,None,base4,001,2019_Oct_23_1600,ProdFawcett_Revision2019,3.2.4,59.96676594608899,
,,,,51,0,51,0,,,,,,,,,,,,,3705.36161037507,None,,,,,,,,,,,,,,,,,,,,,,patient,D_new,51,213,3701.3603816010445,None,3701.3603816010445,None,3701.3603816010445,None,1,3.0907955464326733,3701.3603816010445,None,3704.511360328419,None,3704.511360328419,None,3705.028229458232,None,3705.028229458232,None,3705.028229458232,None,n,0.2944289979468522,3705.028229458232,None,base4,001,2019_Oct_23_1600,ProdFawcett_Revision2019,3.2.4,59.96676594608899,
,,,,52,0,52,0,,,,,,,,,,,,,3709.3795403371278,None,,,,,,,,,,,,,,,,,,,,,,junior,D_new,52,167,3705.8810232008454,None,3705.8810232008454,None,3705.8810232008454,None,1,2.5294974186726904,3705.8810232008454,None,3708.4518734838584,None,3708.4518734838584,None,3708.968547614604,None,3708.968547614604,None,3708.968547614604,None,n,0.3700718417621829,3708.968547614604,None,base4,001,2019_Oct_23_1600,ProdFawcett_Revision2019,3.2.4,59.96676594608899,
,,,,53,0,53,0,,,,,,,,,,,,,3712.4305977483364,None,,,,,,,,,,,,,,,,,,,,,,birth,D_new,53,22,3709.8962216209493,None,3709.8962216209493,None,3709.8962216209493,None,1,1.4746389251722576,3709.8962216209493,None,3711.4300901909555,None,3711.4300901909555,None,3711.9470078372833,None,3711.9470078372833,None,3711.9470078372833,None,n,0.44719350625109655,3711.9470078372833,None,base4,001,2019_Oct_23_1600,ProdFawcett_Revision2019,3.2.4,59.96676594608899,
,,,,54,0,54,0,,,,,,,,,,,,,3714.8645571313054,None,,,,,,,,,,,,,,,,,,,,,,narrow,D_new,54,197,3712.947386017292,None,3712.947386017292,None,3712.947386017292,None,1,0.9505585619208432,3712.947386017292,None,3713.947570131243,None,3713.947570131243,None,3714.46437923742,None,3714.46437923742,None,3714.46437923742,None,n,0.3535784039304417,3714.46437923742,None,base4,001,2019_Oct_23_1600,ProdFawcett_Revision2019,3.2.4,59.96676594608899,
,,,,55,0,55,0,,,,,,,,,,,,,3721.700211171238,None,,,,,,,,,,,,,,,,,,,,,,executive,D_new,55,122,3715.381995708154,None,3715.381995708154,None,3715.381995708154,None,3,5.06015083659895,3715.381995708154,None,3720.4997729675933,None,3720.4997729675933,None,3721.0165043229454,None,3721.0165043229454,None,3721.0165043229454,None,f,0.6417546805996608,3721.0165043229454,None,base4,001,2019_Oct_23_1600,ProdFawcett_Revision2019,3.2.4,59.96676594608899,
,,,,56,0,56,0,,,,,,,,,,,,,3724.6676279778567,None,,,,,,,,,,,,,,,,,,,,,,portion,D_new,56,228,3722.2182471854203,None,3722.2182471854203,None,3722.2182471854203,None,2,1.495251290663873,3722.2182471854203,None,3723.767316663557,None,3723.767316663557,None,3724.284183616346,None,3724.284183616346,None,3724.284183616346,None,f,0.3496012937730484,3724.284183616346,None,base4,001,2019_Oct_23_1600,ProdFawcett_Revision2019,3.2.4,59.96676594608899,
,,,,57,0,57,0,,,,,,,,,,,,,3727.552023076444,None,,,,,,,,,,,,,,,,,,,,,,interior,C_aloud2,57,164,3725.1862465012127,None,3725.1862465012127,None,3725.1862465012127,None,6,1.487248553835343,3725.1862465012127,None,3726.734907321017,None,3726.734907321017,None,3727.251772407787,None,3727.251772407787,None,3727.251772407787,None,r,0.261776450830439,3727.251772407787,None,base4,001,2019_Oct_23_1600,ProdFawcett_Revision2019,3.2.4,59.96676594608899,
,,,,58,0,58,0,,,,,,,,,,,,,3732.253306898053,None,,,,,,,,,,,,,,,,,,,,,,guard,D_new,58,145,3728.0686210113827,None,3728.0686210113827,None,3728.0686210113827,None,2,3.2043506251166036,3728.0686210113827,None,3731.323684456055,None,3731.323684456055,None,3731.8532191951235,None,3731.8532191951235,None,3731.8532191951235,None,n,0.3562583193388491,3731.8532191951235,None,base4,001,2019_Oct_23_1600,ProdFawcett_Revision2019,3.2.4,59.96676594608899,
,,,,59,0,59,0,,,,,,,,,,,,,3736.8881125209928,None,,,,,,,,,,,,,,,,,,,,,,period,D_new,59,217,3732.7702696398583,None,3732.7702696398583,None,3732.7702696398583,None,3,3.214568949430941,3732.7702696398583,None,3736.037855321266,None,3736.037855321266,None,3736.5546435902215,None,3736.5546435902215,None,3736.5546435902215,None,f,0.2944265099213226,3736.5546435902215,None,base4,001,2019_Oct_23_1600,ProdFawcett_Revision2019,3.2.4,59.96676594608899,
,,,,60,0,60,0,,,,,,,,,,,,,3741.2226450830376,None,,,,,,,,,,,,,,,,,,,,,,search,D_new,60,276,3737.405113827206,None,3737.405113827206,None,3737.405113827206,None,3,2.8838166324558188,3737.405113827206,None,3740.327292405299,None,3740.327292405299,None,3740.8558188716797,None,3740.8558188716797,None,3740.8558188716797,None,f,0.32878366610657395,3740.8558188716797,None,base4,001,2019_Oct_23_1600,ProdFawcett_Revision2019,3.2.4,59.96676594608899,
,,,,61,0,61,0,,,,,,,,,,,,,3746.107433600796,None,,,,,,,,,,,,,,,,,,,,,,state,B_aloud1,61,303,3741.739508614791,None,3741.739508614791,None,3741.739508614791,None,5,3.4527296759351884,3741.739508614791,None,3745.2448631585494,None,3745.2448631585494,None,3745.774083473285,None,3745.774083473285,None,3745.774083473285,None,f,0.29080394352149597,3745.774083473285,None,base4,001,2019_Oct_23_1600,ProdFawcett_Revision2019,3.2.4,59.96676594608899,
,,,,62,0,62,0,,,,,,,,,,,,,3749.1084770168563,None,,,,,,,,,,,,,,,,,,,,,,range,D_new,62,251,3746.624397897617,None,3746.624397897617,None,3746.624397897617,None,2,1.535745474901887,3746.624397897617,None,3748.2127760154253,None,3748.2127760154253,None,3748.7416327673072,None,3748.7416327673072,None,3748.7416327673072,None,n,0.33033152951429656,3748.7416327673072,None,base4,001,2019_Oct_23_1600,ProdFawcett_Revision2019,3.2.4,59.96676594608899,
,,,,63,0,63,0,,,,,,,,,,,,,3752.8763653044716,None,,,,,,,,,,,,,,,,,,,,,,surface,B_aloud1,63,316,3749.6258061205444,None,3749.6258061205444,None,3749.6258061205444,None,3,2.318013621944374,3749.6258061205444,None,3751.9927135037633,None,3751.9927135037633,None,3752.5098662685823,None,3752.5098662685823,None,3752.5098662685823,None,f,0.32998507184129267,3752.5098662685823,None,base4,001,2019_Oct_23_1600,ProdFawcett_Revision2019,3.2.4,59.96676594608899,
,,,,64,0,64,0,,,,,,,,,,,,,3762.0124783852707,None,,,,,,,,,,,,,,,,,,,,,,capital,A_silent,64,40,3753.3938178764693,None,3753.3938178764693,None,3753.3938178764693,None,2,7.461822168314939,3753.3938178764693,None,3760.901907072215,None,3760.901907072215,None,3761.4289870622624,None,3761.4289870622624,None,3761.4289870622624,None,f,0.5462695154565154,3761.4289870622624,None,base4,001,2019_Oct_23_1600,ProdFawcett_Revision2019,3.2.4,59.96676594608899,
,,,,65,0,65,0,,,,,,,,,,,,,3766.4137696709586,None,,,,,,,,,,,,,,,,,,,,,,emergency,D_new,65,110,3762.5303424146296,None,3762.5303424146296,None,3762.5303424146296,None,1,3.045008086085545,3762.5303424146296,None,3765.630354854761,None,3765.630354854761,None,3766.146989177085,None,3766.146989177085,None,3766.146989177085,None,n,0.2283121851096439,3766.146989177085,None,base4,001,2019_Oct_23_1600,ProdFawcett_Revision2019,3.2.4,59.96676594608899,
,,,,66,0,66,0,,,,,,,,,,,,,3772.6991876593893,None,,,,,,,,,,,,,,,,,,,,,,citizen,D_new,66,50,3766.9355075573803,None,3766.9355075573803,None,3766.9355075573803,None,1,4.431203271754384,3766.9355075573803,None,3771.4321403246877,None,3771.4321403246877,None,3771.952351806929,None,3771.952351806929,None,3771.952351806929,None,n,0.7102332524718804,3771.952351806929,None,base4,001,2019_Oct_23_1600,ProdFawcett_Revision2019,3.2.4,59.96676594608899,
,,,,67,0,67,0,,,,,,,,,,,,,3774.9832285252223,None,,,,,,,,,,,,,,,,,,,,,,angle,D_new,67,7,3773.216194252659,None,3773.216194252659,None,3773.216194252659,None,1,0.9667497045466007,3773.216194252659,None,3774.221846737575,None,3774.221846737575,None,3774.749689929713,None,3774.749689929713,None,3774.749689929713,None,n,0.20082167070995638,3774.749689929713,None,base4,001,2019_Oct_23_1600,ProdFawcett_Revision2019,3.2.4,59.96676594608899,
,,,,68,0,68,0,,,,,,,,,,,,,3777.734053927971,None,,,,,,,,,,,,,,,,,,,,,,solution,B_aloud1,68,294,3775.5011049947125,None,3775.5011049947125,None,3775.5011049947125,None,3,1.4578341730421016,3775.5011049947125,None,3777.017137214654,None,3777.017137214654,None,3777.533975866144,None,3777.533975866144,None,3777.533975866144,None,f,0.15233376873766247,3777.533975866144,None,base4,001,2019_Oct_23_1600,ProdFawcett_Revision2019,3.2.4,59.96676594608899,
,,,,69,0,69,0,,,,,,,,,,,,,3781.151797910058,None,,,,,,,,,,,,,,,,,,,,,,bureau,D_new,69,37,3778.2508751632768,None,3778.2508751632768,None,3778.2508751632768,None,1,2.0115783417304556,3778.2508751632768,None,3780.3181206070785,None,3780.3181206070785,None,3780.8350108851155,None,3780.8350108851155,None,3780.8350108851155,None,n,0.283493811034532,3780.8350108851155,None,base4,001,2019_Oct_23_1600,ProdFawcett_Revision2019,3.2.4,59.96676594608899,
,,,,70,0,70,0,,,,,,,,,,,,,3789.204289357467,None,,,,,,,,,,,,,,,,,,,,,,bright,D_new,70,29,3781.668641226597,None,3781.668641226597,None,3781.668641226597,None,2,2.5776460160477654,3781.668641226597,None,3784.302695776575,None,3784.302695776575,None,3784.8195844995953,None,3784.8195844995953,None,3784.8195844995953,None,n,4.3460959756175725,3784.8195844995953,None,base4,001,2019_Oct_23_1600,ProdFawcett_Revision2019,3.2.4,59.96676594608899,
,,,,71,0,71,0,,,,,,,,,,,,,3792.3885958201154,None,,,,,,,,,,,,,,,,,,,,,,character,A_silent,71,46,3789.721933507495,None,3789.721933507495,None,3789.721933507495,None,3,1.835580021147507,3789.721933507495,None,3791.6217559246124,None,3791.6217559246124,None,3792.1384751508367,None,3792.1384751508367,None,3792.1384751508367,None,f,0.2113102568891918,3792.1384751508367,None,base4,001,2019_Oct_23_1600,ProdFawcett_Revision2019,3.2.4,59.96676594608899,
,,,,72,0,72,0,,,,,,,,,,,,,3796.373329912297,None,,,,,,,,,,,,,,,,,,,,,,engineer,B_aloud1,72,114,3792.905604590408,None,3792.905604590408,None,3792.905604590408,None,4,2.4036835230454017,3792.905604590408,None,3795.372757977234,None,3795.372757977234,None,3795.8896933507494,None,3795.8896933507494,None,3795.8896933507494,None,f,0.4355339926596571,3795.8896933507494,None,base4,001,2019_Oct_23_1600,ProdFawcett_Revision2019,3.2.4,59.96676594608899,
,,,,73,0,73,0,,,,,,,,,,,,,3800.1409840144306,None,,,,,,,,,,,,,,,,,,,,,,husband,A_silent,73,156,3796.891025688872,None,3796.891025688872,None,3796.891025688872,None,1,1.9620924301798368,3796.891025688872,None,3798.9072423337684,None,3798.9072423337684,None,3799.424136965852,None,3799.424136965852,None,3799.424136965852,None,n,0.669003234434058,3799.424136965852,None,base4,001,2019_Oct_23_1600,ProdFawcett_Revision2019,3.2.4,59.96676594608899,
,,,,74,0,74,0,,,,,,,,,,,,,3802.975204018162,None,,,,,,,,,,,,,,,,,,,,,,drama,A_silent,74,103,3800.658022330036,None,3800.658022330036,None,3800.658022330036,None,1,1.3389419667846596,3800.658022330036,None,3802.0582394103376,None,3802.0582394103376,None,3802.5751016980776,None,3802.5751016980776,None,3802.5751016980776,None,n,0.36615133420400525,3802.5751016980776,None,base4,001,2019_Oct_23_1600,ProdFawcett_Revision2019,3.2.4,59.96676594608899,
,,,,75,0,75,0,,,,,,,,,,,,,3806.3761538222307,None,,,,,,,,,,,,,,,,,,,,,,industry,C_aloud2,75,161,3803.4930528083596,None,3803.4930528083596,None,3803.4930528083596,None,5,1.8161121477887718,3803.4930528083596,None,3805.359424954904,None,3805.359424954904,None,3805.876222242956,None,3805.876222242956,None,3805.876222242956,None,f,0.4570243204580038,3805.876222242956,None,base4,001,2019_Oct_23_1600,ProdFawcett_Revision2019,3.2.4,59.96676594608899,
,,,,76,0,76,0,,,,,,,,,,,,,3810.360686384275,None,,,,,,,,,,,,,,,,,,,,,,course,C_aloud2,76,74,3806.89322168315,None,3806.89322168315,None,3806.89322168315,None,6,2.5919027181680576,3806.89322168315,None,3809.5321801331093,None,3809.5321801331093,None,3810.0605933942898,None,3810.0605933942898,None,3810.0605933942898,None,r,0.2563379361818079,3810.0605933942898,None,base4,001,2019_Oct_23_1600,ProdFawcett_Revision2019,3.2.4,59.96676594608899,
,,,,77,0,77,0,,,,,,,,,,,,,3814.02853206444,None,,,,,,,,,,,,,,,,,,,,,,budget,D_new,77,34,3810.8775321888406,None,3810.8775321888406,None,3810.8775321888406,None,1,2.302728431921423,3810.8775321888406,None,3813.245014617155,None,3813.245014617155,None,3813.761886545997,None,3813.761886545997,None,3813.761886545997,None,n,0.22652205013400817,3813.761886545997,None,base4,001,2019_Oct_23_1600,ProdFawcett_Revision2019,3.2.4,59.96676594608899,
,,,,78,0,78,0,,,,,,,,,,,,,3817.713352304534,None,,,,,,,,,,,,,,,,,,,,,,minor,D_new,78,191,3814.5454372706345,None,3814.5454372706345,None,3814.5454372706345,None,2,2.2913223860168728,3814.5454372706345,None,3816.8833212042045,None,3816.8833212042045,None,3817.4128826895567,None,3817.4128826895567,None,3817.4128826895567,None,f,0.2552739939037565,3817.4128826895567,None,base4,001,2019_Oct_23_1600,ProdFawcett_Revision2019,3.2.4,59.96676594608899,
,,,,79,0,79,0,,,,,,,,,,,,,3822.314501150712,None,,,,,,,,,,,,,,,,,,,,,,equipment,C_aloud2,79,116,3818.235796479443,None,3818.235796479443,None,3818.235796479443,None,6,2.8081184300554014,3818.235796479443,None,3821.0974905143994,None,3821.0974905143994,None,3821.6161444921318,None,3821.6161444921318,None,3821.6161444921318,None,f,0.651585494806568,3821.6161444921318,None,base4,001,2019_Oct_23_1600,ProdFawcett_Revision2019,3.2.4,59.96676594608899,
,,,,80,0,80,0,,,,,,,,,,,,,3826.249112396591,None,,,,,,,,,,,,,,,,,,,,,,distance,C_aloud2,80,100,3822.8320659948995,None,3822.8320659948995,None,3822.8320659948995,None,3,2.651495614853957,3822.8320659948995,None,3825.5488076133606,None,3825.5488076133606,None,3826.065714996579,None,3826.065714996579,None,3826.065714996579,None,f,0.13779094358415023,3826.065714996579,None,base4,001,2019_Oct_23_1600,ProdFawcett_Revision2019,3.2.4,59.96676594608899,
,,,,81,0,81,0,,,,,,,,,,,,,3828.8164303041613,None,,,,,,,,,,,,,,,,,,,,,,article,D_new,81,11,3826.7669935311314,None,3826.7669935311314,None,3826.7669935311314,None,1,1.2125113516203783,3826.7669935311314,None,3828.032837594078,None,3828.032837594078,None,3828.549751819369,None,3828.549751819369,None,3828.549751819369,None,n,0.22157585370405286,3828.549751819369,None,base4,001,2019_Oct_23_1600,ProdFawcett_Revision2019,3.2.4,59.96676594608899,
,,,,82,0,82,0,,,,,,,,,,,,,3832.1842305778437,None,,,,,,,,,,,,,,,,,,,,,,generation,D_new,82,136,3829.3349673446537,None,3829.3349673446537,None,3829.3349673446537,None,3,2.0522177645079864,3829.3349673446537,None,3831.4505498538283,None,3831.4505498538283,None,3831.967397524413,None,3831.967397524413,None,3831.967397524413,None,f,0.17203769360003207,3831.967397524413,None,base4,001,2019_Oct_23_1600,ProdFawcett_Revision2019,3.2.4,59.96676594608899,
,,,,83,0,83,0,,,,,,,,,,,,,3836.985760092057,None,,,,,,,,,,,,,,,,,,,,,,speech,A_silent,83,298,3832.701129563973,None,3832.701129563973,None,3832.701129563973,None,2,1.7260720283638875,3832.701129563973,None,3834.484955526528,None,3834.484955526528,None,3835.001754369596,None,3835.001754369596,None,3835.001754369596,None,n,1.9454515767865814,3835.001754369596,None,base4,001,2019_Oct_23_1600,ProdFawcett_Revision2019,3.2.4,59.96676594608899,
,,,,84,0,84,0,,,,,,,,,,,,,3839.5698796417237,None,,,,,,,,,,,,,,,,,,,,,,fellow,D_new,84,126,3837.502440753872,None,3837.502440753872,None,3837.502440753872,None,1,1.2766150401193954,3837.502440753872,None,3838.8370759470045,None,3838.8370759470045,None,3839.353106300927,None,3839.353106300927,None,3839.353106300927,None,n,0.16961435591201734,3839.353106300927,None,base4,001,2019_Oct_23_1600,ProdFawcett_Revision2019,3.2.4,59.96676594608899,
,,,,85,0,85,0,,,,,,,,,,,,,3841.987315419543,None,,,,,,,,,,,,,,,,,,,,,,dispute,D_new,85,99,3840.0867525035765,None,3840.0867525035765,None,3840.0867525035765,None,1,1.019879330720869,3840.0867525035765,None,3841.1702061951855,None,3841.1702061951855,None,3841.687210922436,None,3841.687210922436,None,3841.687210922436,None,n,0.26738384026884887,3841.687210922436,None,base4,001,2019_Oct_23_1600,ProdFawcett_Revision2019,3.2.4,59.96676594608899,
,,,,86,0,86,0,,,,,,,,,,,,,3845.3049206941596,None,,,,,,,,,,,,,,,,,,,,,,murder,D_new,86,195,3842.505002177023,None,3842.505002177023,None,3842.505002177023,None,1,1.961522361137213,3842.505002177023,None,3844.509173353237,None,3844.509173353237,None,3845.038084841699,None,3845.038084841699,None,3845.038084841699,None,n,0.2284204142561066,3845.038084841699,None,base4,001,2019_Oct_23_1600,ProdFawcett_Revision2019,3.2.4,59.96676594608899,
,,,,87,0,87,0,,,,,,,,,,,,,3848.2725614231513,None,,,,,,,,,,,,,,,,,,,,,,debate,A_silent,87,87,3845.821642097406,None,3845.821642097406,None,3845.821642097406,None,3,1.4126830254399465,3845.821642097406,None,3847.28884431175,None,3847.28884431175,None,3847.80564719786,None,3847.80564719786,None,3847.80564719786,None,f,0.4287292405306289,3847.80564719786,None,base4,001,2019_Oct_23_1600,ProdFawcett_Revision2019,3.2.4,59.96676594608899,
,,,,88,0,88,0,,,,,,,,,,,,,3861.126560925546,None,,,,,,,,,,,,,,,,,,,,,,object,B_aloud1,88,204,3848.7941462959507,None,3848.7941462959507,None,3848.7941462959507,None,2,9.463907134415422,3848.7941462959507,None,3858.3089366797285,None,3858.3089366797285,None,3858.8292946445226,None,3858.8292946445226,None,3858.8292946445226,None,n,2.2602080612050486,3858.8292946445226,None,base4,001,2019_Oct_23_1600,ProdFawcett_Revision2019,3.2.4,59.96676594608899,
,,,,89,0,89,0,,,,,,,,,,,,,3863.710677676183,None,,,,,,,,,,,,,,,,,,,,,,block,D_new,89,25,3861.643393978976,None,3861.643393978976,None,3861.643393978976,None,1,1.1180005598052958,3861.643393978976,None,3862.8272274056108,None,3862.8272274056108,None,3863.343775269018,None,3863.343775269018,None,3863.343775269018,None,n,0.32157678671410395,3863.343775269018,None,base4,001,2019_Oct_23_1600,ProdFawcett_Revision2019,3.2.4,59.96676594608899,
,,,,90,0,90,0,,,,,,,,,,,,,3866.1279585743605,None,,,,,,,,,,,,,,,,,,,,,,republic,D_new,90,260,3864.2290383778063,None,3864.2290383778063,None,3864.2290383778063,None,1,1.1888670149910467,3864.2290383778063,None,3865.4778929526656,None,3865.4778929526656,None,3865.994693350749,None,3865.994693350749,None,3865.994693350749,None,n,0.08647011258290149,3865.994693350749,None,base4,001,2019_Oct_23_1600,ProdFawcett_Revision2019,3.2.4,59.96676594608899,
,,,,91,0,91,0,,,,,,,,,,,,,3870.812922186975,None,,,,,,,,,,,,,,,,,,,,,,break,A_silent,91,26,3866.645143994526,None,3866.645143994526,None,3866.645143994526,None,3,3.276473533619537,3866.645143994526,None,3869.9792165826957,None,3869.9792165826957,None,3870.4961532002235,None,3870.4961532002235,None,3870.4961532002235,None,f,0.280935497916289,3870.4961532002235,None,base4,001,2019_Oct_23_1600,ProdFawcett_Revision2019,3.2.4,59.96676594608899,
,,,,92,0,92,0,,,,,,,,,,,,,3877.148207688001,None,,,,,,,,,,,,,,,,,,,,,,prime,C_aloud2,92,235,3871.3306954033715,None,3871.3306954033715,None,3871.3306954033715,None,4,4.39062449461926,3871.3306954033715,None,3875.768026995086,None,3875.768026995086,None,3876.297767307333,None,3876.297767307333,None,3876.297767307333,None,f,0.8149629906083646,3876.297767307333,None,base4,001,2019_Oct_23_1600,ProdFawcett_Revision2019,3.2.4,59.96676594608899,
,,,,93,0,93,0,,,,,,,,,,,,,3880.515866144181,None,,,,,,,,,,,,,,,,,,,,,,medicine,B_aloud1,93,186,3877.6660216458295,None,3877.6660216458295,None,3877.6660216458295,None,6,1.9023738881633108,3877.6660216458295,None,3879.6320893201464,None,3879.6320893201464,None,3880.149132300802,None,3880.149132300802,None,3880.149132300802,None,r,0.3313880077130307,3880.149132300802,None,base4,001,2019_Oct_23_1600,ProdFawcett_Revision2019,3.2.4,59.96676594608899,
,,,,94,0,94,0,,,,,,,,,,,,,3884.817082789077,None,,,,,,,,,,,,,,,,,,,,,,strength,A_silent,94,310,3881.0346914847296,None,3881.0346914847296,None,3881.0346914847296,None,4,2.861504944952685,3881.0346914847296,None,3883.9386937861536,None,3883.9386937861536,None,3884.4504179884307,None,3884.4504179884307,None,3884.4504179884307,None,f,0.32596535423272144,3884.4504179884307,None,base4,001,2019_Oct_23_1600,ProdFawcett_Revision2019,3.2.4,59.96676594608899,
,,,,95,0,95,0,,,,,,,,,,,,,3892.4029458232253,None,,,,,,,,,,,,,,,,,,,,,,benefit,A_silent,95,20,3885.3338523978355,None,3885.3338523978355,None,3885.3338523978355,None,2,4.474666915469243,3885.3338523978355,None,3889.868707781302,None,3889.868707781302,None,3890.385617652547,None,3890.385617652547,None,3890.385617652547,None,n,1.982128195558289,3890.385617652547,None,base4,001,2019_Oct_23_1600,ProdFawcett_Revision2019,3.2.4,59.96676594608899,
,,,,96,0,96,0,,,,,,,,,,,,,3894.9370271194875,None,,,,,,,,,,,,,,,,,,,,,,cross,D_new,96,80,3892.9199807177956,None,3892.9199807177956,None,3892.9199807177956,None,1,1.0956683460844943,3892.9199807177956,None,3894.0700674877153,None,3894.0700674877153,None,3894.5870625738635,None,3894.5870625738635,None,3894.5870625738635,None,n,0.30882813957759936,3894.5870625738635,None,base4,001,2019_Oct_23_1600,ProdFawcett_Revision2019,3.2.4,59.96676594608899,
,,,,97,0,97,0,,,,,,,,,,,,,3898.087980033588,None,,,,,,,,,,,,,,,,,,,,,,substance,D_new,97,313,3895.454355290166,None,3895.454355290166,None,3895.454355290166,None,2,1.7370112583193986,3895.454355290166,None,3897.2435407725316,None,3897.2435407725316,None,3897.7712502332524,None,3897.7712502332524,None,3897.7712502332524,None,n,0.27646638054284267,3897.7712502332524,None,base4,001,2019_Oct_23_1600,ProdFawcett_Revision2019,3.2.4,59.96676594608899,
,,,,98,0,98,0,,,,,,,,,,,,,3900.555399328233,None,,,,,,,,,,,,,,,,,,,,,,orchestra,D_new,98,206,3898.6064825527146,None,3898.6064825527146,None,3898.6064825527146,None,1,1.0167683647441663,3898.6064825527146,None,3899.6775520930523,None,3899.6775520930523,None,3900.2051912670277,None,3900.2051912670277,None,3900.2051912670277,None,n,0.30664054238968674,3900.2051912670277,None,base4,001,2019_Oct_23_1600,ProdFawcett_Revision2019,3.2.4,59.96676594608899,
,,,,99,0,99,0,,,,,,,,,,,,,3905.206856378677,None,,,,,,,,,,,,,,,,,,,,,,provision,D_new,99,243,3901.0720818560676,None,3901.0720818560676,None,3901.0720818560676,None,3,3.2309087516323416,3901.0720818560676,None,3904.356499657896,None,3904.356499657896,None,3904.8733491945013,None,3904.8733491945013,None,3904.8733491945013,None,f,0.29387634508930205,3904.8733491945013,None,base4,001,2019_Oct_23_1600,ProdFawcett_Revision2019,3.2.4,59.96676594608899,
,,,,100,0,100,0,,,,,,,,,,,,,3908.4078155128445,None,,,,,,,,,,,,,,,,,,,,,,government,A_silent,100,139,3905.7252512906634,None,3905.7252512906634,None,3905.7252512906634,None,6,1.801536045281864,3905.7252512906634,None,3907.5909790383776,None,3907.5909790383776,None,3908.107747092119,None,3908.107747092119,None,3908.107747092119,None,r,0.2592290228276397,3908.107747092119,None,base4,001,2019_Oct_23_1600,ProdFawcett_Revision2019,3.2.4,59.96676594608899,
,,,,101,0,101,0,,,,,,,,,,,,,3911.208706537289,None,,,,,,,,,,,,,,,,,,,,,,second,D_new,101,278,3908.9247997138764,None,3908.9247997138764,None,3908.9247997138764,None,1,1.3298852397838345,3908.9247997138764,None,3910.2969826460157,None,3910.2969826460157,None,3910.8250954780115,None,3910.8250954780115,None,3910.8250954780115,None,n,0.3499032779745903,3910.8250954780115,None,base4,001,2019_Oct_23_1600,ProdFawcett_Revision2019,3.2.4,59.96676594608899,
,,,,102,0,102,0,,,,,,,,,,,,,3913.4761603532997,None,,,,,,,,,,,,,,,,,,,,,,opening,D_new,102,205,3911.729174286247,None,3911.729174286247,None,3911.729174286247,None,1,0.8540663681033038,3911.729174286247,None,3912.631655470548,None,3912.631655470548,None,3913.1593024196054,None,3913.1593024196054,None,3913.1593024196054,None,n,0.27113205200021184,3913.1593024196054,None,base4,001,2019_Oct_23_1600,ProdFawcett_Revision2019,3.2.4,59.96676594608899,
,,,,103,0,103,0,,,,,,,,,,,,,3916.993847732786,None,,,,,,,,,,,,,,,,,,,,,,relation,B_aloud1,103,257,3913.993815699446,None,3913.993815699446,None,3913.993815699446,None,6,2.0285609877464594,3913.993815699446,None,3916.0767549916027,None,3916.0767549916027,None,3916.593732661566,None,3916.593732661566,None,3916.593732661566,None,r,0.35714747776364675,3916.593732661566,None,base4,001,2019_Oct_23_1600,ProdFawcett_Revision2019,3.2.4,59.96676594608899,
,,,,104,0,104,0,,,,,,,,,,,,,3923.9625673322134,None,,,,,,,,,,,,,,,,,,,,,,stand,D_new,104,302,3917.5106941593576,None,3917.5106941593576,None,3917.5106941593576,None,5,5.479554021272634,3917.5106941593576,None,3923.0456624370217,None,3923.0456624370217,None,3923.5625648441874,None,3923.5625648441874,None,3923.5625648441874,None,f,0.36333799838303094,3923.5625648441874,None,base4,001,2019_Oct_23_1600,ProdFawcett_Revision2019,3.2.4,59.96676594608899,
,,,,105,0,105,0,,,,,,,,,,,,,3927.097004416247,None,,,,,,,,,,,,,,,,,,,,,,quiet,D_new,105,249,3924.480713130559,None,3924.480713130559,None,3924.480713130559,None,2,1.8529756795423964,3924.480713130559,None,3926.3967042980657,None,3926.3967042980657,None,3926.913499720097,None,3926.913499720097,None,3926.913499720097,None,n,0.14834484045513818,3926.913499720097,None,base4,001,2019_Oct_23_1600,ProdFawcett_Revision2019,3.2.4,59.96676594608899,
,,,,106,0,106,0,,,,,,,,,,,,,3930.5813609504257,None,,,,,,,,,,,,,,,,,,,,,,watch,C_aloud2,106,351,3927.599243639982,None,3927.599243639982,None,3927.599243639982,None,1,2.062452883000333,3927.599243639982,None,3929.7026295328733,None,3929.7026295328733,None,3930.2310956646143,None,3930.2310956646143,None,3930.2310956646143,None,n,0.3107149965790086,3930.2310956646143,None,base4,001,2019_Oct_23_1600,ProdFawcett_Revision2019,3.2.4,59.96676594608899,
,,,,107,0,107,0,,,,,,,,,,,,,3932.7819748709335,None,,,,,,,,,,,,,,,,,,,,,,pancakes,D_new,107,210,3931.09816414754,None,3931.09816414754,None,3931.09816414754,None,1,0.8275592461277483,3931.09816414754,None,3931.9817876469488,None,3931.9817876469488,None,3932.498672015923,None,3932.498672015923,None,3932.498672015923,None,n,0.2506577719723282,3932.498672015923,None,base4,001,2019_Oct_23_1600,ProdFawcett_Revision2019,3.2.4,59.96676594608899,
,,,,108,0,108,0,,,,,,,,,,,,,3936.016394849785,None,,,,,,,,,,,,,,,,,,,,,,close,B_aloud1,108,53,3933.2987342165825,None,3933.2987342165825,None,3933.2987342165825,None,6,1.826824656342069,3933.2987342165825,None,3935.182807115755,None,3935.182807115755,None,3935.699499906699,None,3935.699499906699,None,3935.699499906699,None,r,0.28178049387315696,3935.699499906699,None,base4,001,2019_Oct_23_1600,ProdFawcett_Revision2019,3.2.4,59.96676594608899,
,,,,109,0,109,0,,,,,,,,,,,,,3939.55081420663,None,,,,,,,,,,,,,,,,,,,,,,territory,D_new,109,324,3936.5329906077004,None,3936.5329906077004,None,3936.5329906077004,None,3,2.064014741556093,3936.5329906077004,None,3938.6408390868937,None,3938.6408390868937,None,3939.167279965168,None,3939.167279965168,None,3939.167279965168,None,f,0.34245194999130035,3939.167279965168,None,base4,001,2019_Oct_23_1600,ProdFawcett_Revision2019,3.2.4,59.96676594608899,
,,,,110,0,110,0,,,,,,,,,,,,,3942.3683874479066,None,,,,,,,,,,,,,,,,,,,,,,tough,C_aloud2,110,333,3940.067844436151,None,3940.067844436151,None,3940.067844436151,None,6,1.3613609504263877,3940.067844436151,None,3941.484623997014,None,3941.484623997014,None,3942.0016187721585,None,3942.0016187721585,None,3942.0016187721585,None,r,0.3238564408784441,3942.0016187721585,None,base4,001,2019_Oct_23_1600,ProdFawcett_Revision2019,3.2.4,59.96676594608899,
,,,,111,0,111,0,,,,,,,,,,,,,3946.7866374323567,None,,,,,,,,,,,,,,,,,,,,,,welcome,A_silent,111,354,3942.885515954469,None,3942.885515954469,None,3942.885515954469,None,2,1.6151732288362837,3942.885515954469,None,3944.5523645580643,None,3944.5523645580643,None,3945.0691994775143,None,3945.0691994775143,None,3945.0691994775143,None,n,1.6712925297006223,3945.0691994775143,None,base4,001,2019_Oct_23_1600,ProdFawcett_Revision2019,3.2.4,59.96676594608899,
,,,,112,0,112,0,,,,,,,,,,,,,3950.454044597873,None,,,,,,,,,,,,,,,,,,,,,,company,B_aloud1,112,64,3947.3038287615846,None,3947.3038287615846,None,3947.3038287615846,None,4,2.2608928904646746,3947.3038287615846,None,3949.6205666480064,None,3949.6205666480064,None,3950.137450083971,None,3950.137450083971,None,3950.137450083971,None,f,0.28323941033795563,3950.137450083971,None,base4,001,2019_Oct_23_1600,ProdFawcett_Revision2019,3.2.4,59.96676594608899,
,,,,113,0,113,0,,,,,,,,,,,,,3953.705156123655,None,,,,,,,,,,,,,,,,,,,,,,foundation,B_aloud1,113,132,3950.9736931641473,None,3950.9736931641473,None,3950.9736931641473,None,6,1.7824786962746657,3950.9736931641473,None,3952.8214953038496,None,3952.8214953038496,None,3953.3382944579207,None,3953.3382944579207,None,3953.3382944579207,None,r,0.32221154444232525,3953.3382944579207,None,base4,001,2019_Oct_23_1600,ProdFawcett_Revision2019,3.2.4,59.96676594608899,
,,,,114,0,114,0,,,,,,,,,,,,,3958.606735709398,None,,,,,,,,,,,,,,,,,,,,,,partner,B_aloud1,114,211,3954.2223210176026,None,3954.2223210176026,None,3954.2223210176026,None,4,3.4535420165457253,3954.2223210176026,None,3957.739814953038,None,3957.739814953038,None,3958.256481930708,None,3958.256481930708,None,3958.256481930708,None,f,0.3154948062447147,3958.256481930708,None,base4,001,2019_Oct_23_1600,ProdFawcett_Revision2019,3.2.4,59.96676594608899,
,,,,115,0,115,0,,,,,,,,,,,,,3961.3408278907755,None,,,,,,,,,,,,,,,,,,,,,,guest,B_aloud1,115,146,3959.123406108105,None,3959.123406108105,None,3959.123406108105,None,6,1.2724438639043,3959.123406108105,None,3960.4471322386016,None,3960.4471322386016,None,3960.974170865211,None,3960.974170865211,None,3960.974170865211,None,r,0.3338940722769621,3960.974170865211,None,base4,001,2019_Oct_23_1600,ProdFawcett_Revision2019,3.2.4,59.96676594608899,
,,,,116,0,116,0,,,,,,,,,,,,,3964.9921017602783,None,,,,,,,,,,,,,,,,,,,,,,congress,D_new,116,67,3961.8575732412764,None,3961.8575732412764,None,3961.8575732412764,None,2,1.5943245008393205,3961.8575732412764,None,3963.508220128133,None,3963.508220128133,None,3964.0250721527646,None,3964.0250721527646,None,3964.0250721527646,None,n,0.9230291721096364,3964.0250721527646,None,base4,001,2019_Oct_23_1600,ProdFawcett_Revision2019,3.2.4,59.96676594608899,
,,,,117,0,117,0,,,,,,,,,,,,,3973.794673135535,None,,,,,,,,,,,,,,,,,,,,,,oxygen,A_silent,117,209,3965.5086573987683,None,3965.5086573987683,None,3965.5086573987683,None,2,6.414444548111533,3965.5086573987683,None,3971.967352117932,None,3971.967352117932,None,3972.494354357156,None,3972.494354357156,None,3972.494354357156,None,n,1.2525853704046312,3972.494354357156,None,base4,001,2019_Oct_23_1600,ProdFawcett_Revision2019,3.2.4,59.96676594608899,
,,,,118,0,118,0,,,,,,,,,,,,,3976.412219008521,None,,,,,,,,,,,,,,,,,,,,,,estate,D_new,118,119,3974.3117515705662,None,3974.3117515705662,None,3974.3117515705662,None,1,1.131329228089271,3974.3117515705662,None,3975.4953088262737,None,3975.4953088262737,None,3976.011958698762,None,3976.011958698762,None,3976.011958698762,None,n,0.3509084406296097,3976.011958698762,None,base4,001,2019_Oct_23_1600,ProdFawcett_Revision2019,3.2.4,59.96676594608899,
,,,,119,0,119,0,,,,,,,,,,,,,3978.4961811905205,None,,,,,,,,,,,,,,,,,,,,,,alert,D_new,119,6,3976.9291145736142,None,3976.9291145736142,None,3976.9291145736142,None,1,0.6583072090561473,3976.9291145736142,None,3977.6459274118306,None,3977.6459274118306,None,3978.162800584686,None,3978.162800584686,None,3978.162800584686,None,n,0.2878590533055103,3978.162800584686,None,base4,001,2019_Oct_23_1600,ProdFawcett_Revision2019,3.2.4,59.96676594608899,
,,,,120,0,120,0,,,,,,,,,,,,,3981.163708403309,None,,,,,,,,,,,,,,,,,,,,,,smell,B_aloud1,120,291,3979.012907258817,None,3979.012907258817,None,3979.012907258817,None,2,1.1903716489396174,3979.012907258817,None,3980.25180661815,None,3980.25180661815,None,3980.7802733718972,None,3980.7802733718972,None,3980.7802733718972,None,n,0.3425278347949643,3980.7802733718972,None,base4,001,2019_Oct_23_1600,ProdFawcett_Revision2019,3.2.4,59.96676594608899,
,,,,121,0,121,0,,,,,,,,,,,,,3984.114501461715,None,,,,,,,,,,,,,,,,,,,,,,hearing,D_new,121,150,3981.681433725197,None,3981.681433725197,None,3981.681433725197,None,2,1.6895882316348434,3981.681433725197,None,3983.4311311189895,None,3983.4311311189895,None,3983.9479430241963,None,3983.9479430241963,None,3983.9479430241963,None,n,0.13441780182893126,3983.9479430241963,None,base4,001,2019_Oct_23_1600,ProdFawcett_Revision2019,3.2.4,59.96676594608899,
,,,,122,0,122,0,,,,,,,,,,,,,3986.6987864651364,None,,,,,,,,,,,,,,,,,,,,,,literature,D_new,122,173,3984.6325331218513,None,3984.6325331218513,None,3984.6325331218513,None,1,1.0176491260808689,3984.6325331218513,None,3985.7150684207254,None,3985.7150684207254,None,3986.2319838900294,None,3986.2319838900294,None,3986.2319838900294,None,n,0.4265727436704765,3986.2319838900294,None,base4,001,2019_Oct_23_1600,ProdFawcett_Revision2019,3.2.4,59.96676594608899,
,,,,123,0,123,0,,,,,,,,,,,,,3990.6831846737578,None,,,,,,,,,,,,,,,,,,,,,,silence,D_new,123,288,3987.2165466193937,None,3987.2165466193937,None,3987.2165466193937,None,3,2.4975978105367176,3987.2165466193937,None,3989.7543080176647,None,3989.7543080176647,None,3990.2664069789134,None,3990.2664069789134,None,3990.2664069789134,None,f,0.38374696771825256,3990.2664069789134,None,base4,001,2019_Oct_23_1600,ProdFawcett_Revision2019,3.2.4,59.96676594608899,
,,,,124,0,124,0,,,,,,,,,,,,,3994.1843901225348,None,,,,,,,,,,,,,,,,,,,,,,account,C_aloud2,124,1,3991.2008123406104,None,3991.2008123406104,None,3991.2008123406104,None,3,1.8169521676927616,3991.2008123406104,None,3993.0539693350747,None,3993.0539693350747,None,3993.567463146109,None,3993.567463146109,None,3993.567463146109,None,f,0.5786123032903561,3993.567463146109,None,base4,001,2019_Oct_23_1600,ProdFawcett_Revision2019,3.2.4,59.96676594608899,
,,,,125,0,125,0,,,,,,,,,,,,,3997.9022469988176,None,,,,,,,,,,,,,,,,,,,,,,degree,A_silent,125,89,3994.701028798905,None,3994.701028798905,None,3994.701028798905,None,6,2.076853579647832,3994.701028798905,None,3996.8352565777195,None,3996.8352565777195,None,3997.3520734589783,None,3997.3520734589783,None,3997.3520734589783,None,r,0.5136657958573778,3997.3520734589783,None,base4,001,2019_Oct_23_1600,ProdFawcett_Revision2019,3.2.4,59.96676594608899,
,,,,126,0,126,0,,,,,,,,,,,,,4000.603017353984,None,,,,,,,,,,,,,,,,,,,,,,goose,D_new,126,138,3998.418931703676,None,3998.418931703676,None,3998.418931703676,None,1,1.2307090875165159,3998.418931703676,None,3999.690807675561,None,3999.690807675561,None,4000.2194915096097,None,4000.2194915096097,None,4000.2194915096097,None,n,0.34226441500322835,4000.2194915096097,None,base4,001,2019_Oct_23_1600,ProdFawcett_Revision2019,3.2.4,59.96676594608899,
,,,,127,0,127,0,,,,,,,,,,,,,4005.504451390185,None,,,,,,,,,,,,,,,,,,,,,,still,C_aloud2,127,304,4001.119807488959,None,4001.119807488959,None,4001.119807488959,None,4,3.553359457609986,4001.119807488959,None,4004.737619269764,None,4004.737619269764,None,4005.2544868445602,None,4005.2544868445602,None,4005.2544868445602,None,f,0.20262206879397127,4005.2544868445602,None,base4,001,2019_Oct_23_1600,ProdFawcett_Revision2019,3.2.4,59.96676594608899,
,,,,128,0,128,0,,,,,,,,,,,,,4008.555490141195,None,,,,,,,,,,,,,,,,,,,,,,comfort,C_aloud2,128,59,4006.021371524538,None,4006.021371524538,None,4006.021371524538,None,2,1.3876985756041904,4006.021371524538,None,4007.45937830441,None,4007.45937830441,None,4007.9885790259377,None,4007.9885790259377,None,4007.9885790259377,None,n,0.5249116750637768,4007.9885790259377,None,base4,001,2019_Oct_23_1600,ProdFawcett_Revision2019,3.2.4,59.96676594608899,
,,,,129,0,129,0,,,,,,,,,,,,,4011.989943708403,None,,,,,,,,,,,,,,,,,,,,,,institute,A_silent,129,162,4009.072554892082,None,4009.072554892082,None,4009.072554892082,None,6,2.0166109970768957,4009.072554892082,None,4011.1395490452196,None,4011.1395490452196,None,4011.656386452696,None,4011.656386452696,None,4011.656386452696,None,f,0.2885037631403975,4011.656386452696,None,base4,001,2019_Oct_23_1600,ProdFawcett_Revision2019,3.2.4,59.96676594608899,
,,,,130,0,130,0,,,,,,,,,,,,,4019.0253467686753,None,,,,,,,,,,,,,,,,,,,,,,individual,D_new,130,160,4012.5083725197483,None,4012.5083725197483,None,4012.5083725197483,None,1,4.308358524600408,4012.5083725197483,None,4016.8746526093173,None,4016.8746526093173,None,4017.391576786714,None,4017.391576786714,None,4017.391576786714,None,n,1.5931078559433445,4017.391576786714,None,base4,001,2019_Oct_23_1600,ProdFawcett_Revision2019,3.2.4,59.96676594608899,
,,,,131,0,131,0,,,,,,,,,,,,,4022.626423773092,None,,,,,,,,,,,,,,,,,,,,,,election,D_new,131,109,4019.5422180755113,None,4019.5422180755113,None,4019.5422180755113,None,2,2.353935435715357,4019.5422180755113,None,4021.948247807427,None,4021.948247807427,None,4022.476373701561,None,4022.476373701561,None,4022.476373701561,None,f,0.10844871555673308,4022.476373701561,None,base4,001,2019_Oct_23_1600,ProdFawcett_Revision2019,3.2.4,59.96676594608899,
,,,,132,0,132,0,,,,,,,,,,,,,4025.0271875971885,None,,,,,,,,,,,,,,,,,,,,,,brief,D_new,132,28,4023.143170678609,None,4023.143170678609,None,4023.143170678609,None,1,1.1048516514274525,4023.143170678609,None,4024.3102982521614,None,4024.3102982521614,None,4024.827127884555,None,4024.827127884555,None,4024.827127884555,None,n,0.15753716489416547,4024.827127884555,None,base4,001,2019_Oct_23_1600,ProdFawcett_Revision2019,3.2.4,59.96676594608899,
,,,,133,0,133,0,,,,,,,,,,,,,4031.7792436399823,None,,,,,,,,,,,,,,,,,,,,,,produce,B_aloud1,133,239,4025.543994837345,None,4025.543994837345,None,4025.543994837345,None,5,3.4001648317471336,4025.543994837345,None,4028.995212104248,None,4028.995212104248,None,4029.5120479567086,None,4029.5120479567086,None,4029.5120479567086,None,r,2.23169279094418,4029.5120479567086,None,base4,001,2019_Oct_23_1600,ProdFawcett_Revision2019,3.2.4,59.96676594608899,
,,,,134,0,134,0,,,,,,,,,,,,,4035.980603035392,None,,,,,,,,,,,,,,,,,,,,,,recall,C_aloud2,134,255,4032.2965634135717,None,4032.2965634135717,None,4032.2965634135717,None,1,2.3755327486478564,4032.2965634135717,None,4034.730437270635,None,4034.730437270635,None,4035.2471247745225,None,4035.2471247745225,None,4035.2471247745225,None,n,0.6882543384963355,4035.2471247745225,None,base4,001,2019_Oct_23_1600,ProdFawcett_Revision2019,3.2.4,59.96676594608899,
,,,,135,0,135,0,,,,,,,,,,,,,4039.114987248865,None,,,,,,,,,,,,,,,,,,,,,,salary,D_new,135,271,4036.4988349816504,None,4036.4988349816504,None,4036.4988349816504,None,2,1.6203557877706771,4036.4988349816504,None,4038.181304969832,None,4038.181304969832,None,4038.698205821982,None,4038.698205821982,None,4038.698205821982,None,n,0.37366455184474034,4038.698205821982,None,base4,001,2019_Oct_23_1600,ProdFawcett_Revision2019,3.2.4,59.96676594608899,
,,,,136,0,136,0,,,,,,,,,,,,,4041.6991260807363,None,,,,,,,,,,,,,,,,,,,,,,sunset,D_new,136,315,4039.6318196802886,None,4039.6318196802886,None,4039.6318196802886,None,1,1.1675169496793387,4039.6318196802886,None,4040.8488135224234,None,4040.8488135224234,None,4041.3657072214965,None,4041.3657072214965,None,4041.3657072214965,None,n,0.290158300677831,4041.3657072214965,None,base4,001,2019_Oct_23_1600,ProdFawcett_Revision2019,3.2.4,59.96676594608899,
,,,,137,0,137,0,,,,,,,,,,,,,4045.3502491136405,None,,,,,,,,,,,,,,,,,,,,,,measure,C_aloud2,137,184,4042.216794178018,None,4042.216794178018,None,4042.216794178018,None,6,1.9747437332835034,4042.216794178018,None,4044.238713379362,None,4044.238713379362,None,4044.7675057535607,None,4044.7675057535607,None,4044.7675057535607,None,f,0.5436788579954737,4044.7675057535607,None,base4,001,2019_Oct_23_1600,ProdFawcett_Revision2019,3.2.4,59.96676594608899,
,,,,138,0,138,0,,,,,,,,,,,,,4049.551575853704,None,,,,,,,,,,,,,,,,,,,,,,bicycle,D_new,138,21,4045.869425887914,None,4045.869425887914,None,4045.869425887914,None,1,2.7452292094294535,4045.869425887914,None,4048.655821048703,None,4048.655821048703,None,4049.1701312433906,None,4049.1701312433906,None,4049.1701312433906,None,n,0.332450083970798,4049.1701312433906,None,base4,001,2019_Oct_23_1600,ProdFawcett_Revision2019,3.2.4,59.96676594608899,
,,,,139,0,139,0,,,,,,,,,,,,,4055.1699477514458,None,,,,,,,,,,,,,,,,,,,,,,department,D_new,139,90,4050.069599427754,None,4050.069599427754,None,4050.069599427754,None,3,2.704830192200461,4050.069599427754,None,4052.8360222678357,None,4052.8360222678357,None,4053.3526040306024,None,4053.3526040306024,None,4053.3526040306024,None,f,1.774348137090783,4053.3526040306024,None,base4,001,2019_Oct_23_1600,ProdFawcett_Revision2019,3.2.4,59.96676594608899,
,,,,140,0,140,0,,,,,,,,,,,,,4063.8225362318835,None,,,,,,,,,,,,,,,,,,,,,,shape,D_new,140,282,4055.686827455371,None,4055.686827455371,None,4055.686827455371,None,2,4.391817503265884,4055.686827455371,None,4060.138122162095,None,4060.138122162095,None,4060.6549791627785,None,4060.6549791627785,None,4060.6549791627785,None,n,3.118739503638608,4060.6549791627785,None,base4,001,2019_Oct_23_1600,ProdFawcett_Revision2019,3.2.4,59.96676594608899,
,,,,141,0,141,0,,,,,,,,,,,,,4068.6908210487027,None,,,,,,,,,,,,,,,,,,,,,,fight,A_silent,141,127,4064.3397511973626,None,4064.3397511973626,None,4064.3397511973626,None,2,3.5457591590475204,4064.3397511973626,None,4067.940526839584,None,4067.940526839584,None,4068.4574074765187,None,4068.4574074765187,None,4068.4574074765187,None,f,0.18810350189687597,4068.4574074765187,None,base4,001,2019_Oct_23_1600,ProdFawcett_Revision2019,3.2.4,59.96676594608899,
,,,,142,0,142,0,,,,,,,,,,,,,4073.859054860981,None,,,,,,,,,,,,,,,,,,,,,,comedy,D_new,142,58,4069.2077701063627,None,4069.2077701063627,None,4069.2077701063627,None,1,3.533834670647593,4069.2077701063627,None,4072.7922208745413,None,4072.7922208745413,None,4073.308950363874,None,4073.308950363874,None,4073.308950363874,None,n,0.5041777072838158,4073.308950363874,None,base4,001,2019_Oct_23_1600,ProdFawcett_Revision2019,3.2.4,59.96676594608899,
,,,,143,0,143,0,,,,,,,,,,,,,4080.377645394041,None,,,,,,,,,,,,,,,,,,,,,,trend,D_new,143,340,4074.376647695465,None,4074.376647695465,None,4074.376647695465,None,3,5.076831187410789,4074.376647695465,None,4079.510815761647,None,4079.510815761647,None,4080.0276559681533,None,4080.0276559681533,None,4080.0276559681533,None,f,0.30537164893939917,4080.0276559681533,None,base4,001,2019_Oct_23_1600,ProdFawcett_Revision2019,3.2.4,59.96676594608899,
,,,,144,0,144,0,,,,,,,,,,,,,4082.911889967034,None,,,,,,,,,,,,,,,,,,,,,,dance,D_new,144,84,4080.894807177956,None,4080.894807177956,None,4080.894807177956,None,1,1.1178690054121034,4080.894807177956,None,4082.065510045406,None,4082.065510045406,None,4082.5949860048513,None,4082.5949860048513,None,4082.5949860048513,None,n,0.28176743173480645,4082.5949860048513,None,base4,001,2019_Oct_23_1600,ProdFawcett_Revision2019,3.2.4,59.96676594608899,
,,,,145,0,145,0,,,,,,,,,,,,,4086.4796653604526,None,,,,,,,,,,,,,,,,,,,,,,collection,D_new,145,54,4083.429753685389,None,4083.429753685389,None,4083.429753685389,None,2,2.1187183554138755,4083.429753685389,None,4085.60222833862,None,4085.60222833862,None,4086.129614355912,None,4086.129614355912,None,4086.129614355912,None,f,0.30751757168673066,4086.129614355912,None,base4,001,2019_Oct_23_1600,ProdFawcett_Revision2019,3.2.4,59.96676594608899,
,,,,146,0,146,0,,,,,,,,,,,,,4088.8804099023446,None,,,,,,,,,,,,,,,,,,,,,,novel,D_new,146,202,4086.996488150774,None,4086.996488150774,None,4086.996488150774,None,1,1.0162496112461668,4086.996488150774,None,4088.0504708589906,None,4088.0504708589906,None,4088.5635510356406,None,4088.5635510356406,None,4088.5635510356406,None,n,0.2733448404560477,4088.5635510356406,None,base4,001,2019_Oct_23_1600,ProdFawcett_Revision2019,3.2.4,59.96676594608899,
,,,,147,0,147,0,,,,,,,,,,,,,4094.1835454375814,None,,,,,,,,,,,,,,,,,,,,,,pattern,C_aloud2,147,214,4089.3973247496424,None,4089.3973247496424,None,4089.3973247496424,None,6,1.3670579088138766,4089.3973247496424,None,4090.8142386639292,None,4090.8142386639292,None,4091.3310524351555,None,4091.3310524351555,None,4091.3310524351555,None,r,2.833116564035663,4091.3310524351555,None,base4,001,2019_Oct_23_1600,ProdFawcett_Revision2019,3.2.4,59.96676594608899,
,,,,148,0,148,0,,,,,,,,,,,,,4097.299767680537,None,,,,,,,,,,,,,,,,,,,,,,present,A_silent,148,231,4094.7154052372953,None,4094.7154052372953,None,4094.7154052372953,None,5,1.6091326118057623,4094.7154052372953,None,4096.3713267400635,None,4096.3713267400635,None,4096.899535050072,None,4096.899535050072,None,4096.899535050072,None,f,0.3522597499531912,4096.899535050072,None,base4,001,2019_Oct_23_1600,ProdFawcett_Revision2019,3.2.4,59.96676594608899,
,,,,149,0,149,0,,,,,,,,,,,,,4100.933992971325,None,,,,,,,,,,,,,,,,,,,,,,height,D_new,149,152,4097.818226970206,None,4097.818226970206,None,4097.818226970206,None,1,1.929927536231844,4097.818226970206,None,4099.789927847235,None,4099.789927847235,None,4100.317279654164,None,4100.317279654164,None,4100.317279654164,None,n,0.5750083970888227,4100.317279654164,None,base4,001,2019_Oct_23_1600,ProdFawcett_Revision2019,3.2.4,59.96676594608899,
,,,,150,0,150,0,,,,,,,,,,,,,4104.952056353797,None,,,,,,,,,,,,,,,,,,,,,,volume,B_aloud1,150,349,4101.450886670398,None,4101.450886670398,None,4101.450886670398,None,4,2.6008844933758155,4101.450886670398,None,4104.101830876407,None,4104.101830876407,None,4104.618492256018,None,4104.618492256018,None,4104.618492256018,None,f,0.2970743919886445,4104.618492256018,None,base4,001,2019_Oct_23_1600,ProdFawcett_Revision2019,3.2.4,59.96676594608899,
,,,,151,0,151,0,,,,,,,,,,,,,4109.47000093301,None,,,,,,,,,,,,,,,,,,,,,,split,C_aloud2,151,299,4105.469500217702,None,4105.469500217702,None,4105.469500217702,None,5,1.733688499098207,4105.469500217702,None,4107.252794675624,None,4107.252794675624,None,4107.769437395036,None,4107.769437395036,None,4107.769437395036,None,f,1.6657187286182307,4107.769437395036,None,base4,001,2019_Oct_23_1600,ProdFawcett_Revision2019,3.2.4,59.96676594608899,
,,,,152,0,152,0,,,,,,,,,,,,,4114.171566212602,None,,,,,,,,,,,,,,,,,,,,,,taste,D_new,152,322,4109.98672544629,None,4109.98672544629,None,4109.98672544629,None,2,2.8881594824906642,4109.98672544629,None,4112.927890153635,None,4112.927890153635,None,4113.454704857872,None,4113.454704857872,None,4113.454704857872,None,n,0.6764480313486274,4113.454704857872,None,base4,001,2019_Oct_23_1600,ProdFawcett_Revision2019,3.2.4,59.96676594608899,
