StudyTrials.thisRepN,StudyTrials.thisTrialN,StudyTrials.thisN,StudyTrials.thisIndex,TestTrials.thisRepN,TestTrials.thisTrialN,TestTrials.thisN,TestTrials.thisIndex,textWelcome.started,textWelcome.stopped,keyWelcome.keys,keyWelcome.rt,keyWelcome.started,keyWelcome.stopped,textReady.started,textReady.stopped,keyReady.keys,keyReady.rt,keyReady.started,keyReady.stopped,polyback_2.started,polyback_2.stopped,studyPic,studyWord,studyType,studyN,studyOrder,polyback_3.started,polyback_3.stopped,studyPicChoice.started,studyPicChoice.stopped,polyback_4.started,polyback_4.stopped,polyback.started,polyback.stopped,studyWords.started,studyWords.stopped,getResearcher.started,getResearcher.stopped,kPress2.keys,kPress2.rt,kPress2.started,kPress2.stopped,testWord,testType,testN,testOrder,polyback_5.started,polyback_5.stopped,testWords.started,testWords.stopped,textScale.started,textScale.stopped,keyConf.keys,keyConf.rt,keyConf.started,keyConf.stopped,polyback_6.started,polyback_6.stopped,studyWords_2.started,studyWords_2.stopped,polyback_7.started,polyback_7.stopped,testWords_2.started,testWords_2.stopped,textScale_2.started,textScale_2.stopped,keyRKN.keys,keyRKN.rt,keyRKN.started,keyRKN.stopped,participant,session,date,expName,psychopyVersion,frameRate,
,,,,,,,,102.43364488414954,None,space,469.6801169613609,102.43364488414954,None,,,,,,,,,,,,,,,,,,,,,,,,,,,,,,,,,,,,,,,,,,,,,,,,,,,,,,,,,,base2,001,2019_Oct_22_1512,ProdFawcett_Revision2019,3.2.4,59.971929711620334,
,,,,,,,,,,,,,,572.1376921639312,None,space,6.5519728533690795,572.1376921639312,None,,,,,,,,,,,,,,,,,,,,,,,,,,,,,,,,,,,,,,,,,,,,,,,,,,,,base2,001,2019_Oct_22_1512,ProdFawcett_Revision2019,3.2.4,59.971929711620334,
0,0,0,0,,,,,,,,,,,,,,,,,583.4911499869777,None,materials/mumblePic.jpg,native,C_aloud2,0,199,579.7950071203522,None,579.7950071203522,None,580.7410673382692,None,581.0069602126023,None,581.0069602126023,None,,,,,,,,,,,,,,,,,,,,,,,,,,,,,,,,,,,base2,001,2019_Oct_22_1512,ProdFawcett_Revision2019,3.2.4,59.971929711620334,
1,0,1,0,,,,,,,,,,,,,,,,,587.7590873847948,None,materials/readPic.jpg,portion,A_silent,1,228,584.0928802746348,None,584.0928802746348,None,585.0081911564339,None,585.2749243566068,None,585.2749243566068,None,,,,,,,,,,,,,,,,,,,,,,,,,,,,,,,,,,,base2,001,2019_Oct_22_1512,ProdFawcett_Revision2019,3.2.4,59.971929711620334,
2,0,2,0,,,,,,,,,,,,,,,,,592.0270023905905,None,materials/mumblePic.jpg,expansion,C_aloud2,2,123,588.3438687151065,None,588.3438687151065,None,589.2761229563039,None,589.5428962756414,None,589.5428962756414,None,,,,,,,,,,,,,,,,,,,,,,,,,,,,,,,,,,,base2,001,2019_Oct_22_1512,ProdFawcett_Revision2019,3.2.4,59.971929711620334,
3,0,3,0,,,,,,,,,,,,,,,,,596.2951854796847,None,materials/speakPic.jpg,education,B_aloud1,3,108,592.6111542539438,None,592.6111542539438,None,593.5441166454693,None,593.810847979621,None,593.810847979621,None,,,,,,,,,,,,,,,,,,,,,,,,,,,,,,,,,,,base2,001,2019_Oct_22_1512,ProdFawcett_Revision2019,3.2.4,59.971929711620334,
4,0,4,0,,,,,,,,,,,,,,,,,600.5629732859088,None,materials/readPic.jpg,title,A_silent,4,331,596.8971076552989,None,596.8971076552989,None,597.8122356681852,None,598.0788177216891,None,598.0788177216891,None,,,,,,,,,,,,,,,,,,,,,,,,,,,,,,,,,,,base2,001,2019_Oct_22_1512,ProdFawcett_Revision2019,3.2.4,59.971929711620334,
5,0,5,0,,,,,,,,,,,,,,,,,604.8309246788267,None,materials/readPic.jpg,principal,A_silent,5,236,601.1462114268215,None,601.1462114268215,None,602.0801531620091,None,602.3467744017253,None,602.3467744017253,None,,,,,,,,,,,,,,,,,,,,,,,,,,,,,,,,,,,base2,001,2019_Oct_22_1512,ProdFawcett_Revision2019,3.2.4,59.971929711620334,
6,0,6,0,,,,,,,,,,,,,,,,,609.098879803787,None,materials/speakPic.jpg,subject,B_aloud1,6,312,605.4157178270398,None,605.4157178270398,None,606.3480327136349,None,606.6145982840098,None,606.6145982840098,None,,,,,,,,,,,,,,,,,,,,,,,,,,,,,,,,,,,base2,001,2019_Oct_22_1512,ProdFawcett_Revision2019,3.2.4,59.971929711620334,
7,0,7,0,,,,,,,,,,,,,,,,,613.3668461248744,None,materials/mumblePic.jpg,committee,C_aloud2,7,62,609.6667289705947,None,609.6667289705947,None,610.615986594581,None,610.8824812567327,None,610.8824812567327,None,,,,,,,,,,,,,,,,,,,,,,,,,,,,,,,,,,,base2,001,2019_Oct_22_1512,ProdFawcett_Revision2019,3.2.4,59.971929711620334,
8,0,8,0,,,,,,,,,,,,,,,,,617.6348021827871,None,materials/mumblePic.jpg,shear,C_aloud2,8,283,613.9167166083353,None,613.9167166083353,None,614.8839438965078,None,615.1506991778733,None,615.1506991778733,None,,,,,,,,,,,,,,,,,,,,,,,,,,,,,,,,,,,base2,001,2019_Oct_22_1512,ProdFawcett_Revision2019,3.2.4,59.971929711620334,
9,0,9,0,,,,,,,,,,,,,,,,,621.9029936689185,None,materials/speakPic.jpg,force,B_aloud1,9,131,618.2188595016487,None,618.2188595016487,None,619.1520924643846,None,619.4186390638351,None,619.4186390638351,None,,,,,,,,,,,,,,,,,,,,,,,,,,,,,,,,,,,base2,001,2019_Oct_22_1512,ProdFawcett_Revision2019,3.2.4,59.971929711620334,
10,0,10,0,,,,,,,,,,,,,,,,,626.1708461634116,None,materials/mumblePic.jpg,patient,C_aloud2,10,213,622.4570878631203,None,622.4570878631203,None,623.4199620640138,None,623.6865954328096,None,623.6865954328096,None,,,,,,,,,,,,,,,,,,,,,,,,,,,,,,,,,,,base2,001,2019_Oct_22_1512,ProdFawcett_Revision2019,3.2.4,59.971929711620334,
11,0,11,0,,,,,,,,,,,,,,,,,630.4386930598412,None,materials/readPic.jpg,mayor,A_silent,11,183,626.7740981812822,None,626.7740981812822,None,627.6878842228325,None,627.9545275436249,None,627.9545275436249,None,,,,,,,,,,,,,,,,,,,,,,,,,,,,,,,,,,,base2,001,2019_Oct_22_1512,ProdFawcett_Revision2019,3.2.4,59.971929711620334,
12,0,12,0,,,,,,,,,,,,,,,,,634.7066699549323,None,materials/speakPic.jpg,thing,B_aloud1,12,328,631.040089332033,None,631.040089332033,None,631.9558284627274,None,632.2225423809141,None,632.2225423809141,None,,,,,,,,,,,,,,,,,,,,,,,,,,,,,,,,,,,base2,001,2019_Oct_22_1512,ProdFawcett_Revision2019,3.2.4,59.971929711620334,
13,0,13,0,,,,,,,,,,,,,,,,,638.9746403190074,None,materials/readPic.jpg,couch,A_silent,13,70,635.2991921114735,None,635.2991921114735,None,636.2237574636238,None,636.4905059029115,None,636.4905059029115,None,,,,,,,,,,,,,,,,,,,,,,,,,,,,,,,,,,,base2,001,2019_Oct_22_1512,ProdFawcett_Revision2019,3.2.4,59.971929711620334,
14,0,14,0,,,,,,,,,,,,,,,,,643.2425948219607,None,materials/mumblePic.jpg,republic,C_aloud2,14,260,639.5300453844247,None,639.5300453844247,None,640.4917822529096,None,640.7584656928666,None,640.7584656928666,None,,,,,,,,,,,,,,,,,,,,,,,,,,,,,,,,,,,base2,001,2019_Oct_22_1512,ProdFawcett_Revision2019,3.2.4,59.971929711620334,
15,0,15,0,,,,,,,,,,,,,,,,,647.5106140132993,None,materials/readPic.jpg,attack,A_silent,15,13,643.8438253303757,None,643.8438253303757,None,644.759751683916,None,645.0264167748392,None,645.0264167748392,None,,,,,,,,,,,,,,,,,,,,,,,,,,,,,,,,,,,base2,001,2019_Oct_22_1512,ProdFawcett_Revision2019,3.2.4,59.971929711620334,
16,0,16,0,,,,,,,,,,,,,,,,,651.7785551431589,None,materials/mumblePic.jpg,addition,C_aloud2,16,2,648.0788062146166,None,648.0788062146166,None,649.0276987229008,None,649.2943759429036,None,649.2943759429036,None,,,,,,,,,,,,,,,,,,,,,,,,,,,,,,,,,,,base2,001,2019_Oct_22_1512,ProdFawcett_Revision2019,3.2.4,59.971929711620334,
17,0,17,0,,,,,,,,,,,,,,,,,656.0465115121333,None,materials/mumblePic.jpg,testimony,C_aloud2,17,325,652.3284623248037,None,652.3284623248037,None,653.2957088950789,None,653.562520778738,None,653.562520778738,None,,,,,,,,,,,,,,,,,,,,,,,,,,,,,,,,,,,base2,001,2019_Oct_22_1512,ProdFawcett_Revision2019,3.2.4,59.971929711620334,
18,0,18,0,,,,,,,,,,,,,,,,,660.3144834311679,None,materials/readPic.jpg,individual,A_silent,18,160,656.6507438066183,None,656.6507438066183,None,657.5636139488779,None,657.8302995659178,None,657.8302995659178,None,,,,,,,,,,,,,,,,,,,,,,,,,,,,,,,,,,,base2,001,2019_Oct_22_1512,ProdFawcett_Revision2019,3.2.4,59.971929711620334,
19,0,19,0,,,,,,,,,,,,,,,,,664.5824469531653,None,materials/speakPic.jpg,right,B_aloud1,19,265,660.9158187470166,None,660.9158187470166,None,661.8316424702061,None,662.0982786379755,None,662.0982786379755,None,,,,,,,,,,,,,,,,,,,,,,,,,,,,,,,,,,,base2,001,2019_Oct_22_1512,ProdFawcett_Revision2019,3.2.4,59.971929711620334,
20,0,20,0,,,,,,,,,,,,,,,,,668.8504593024263,None,materials/readPic.jpg,hunger,A_silent,20,155,665.1835667450214,None,665.1835667450214,None,666.0995469018817,None,666.366229097941,None,666.366229097941,None,,,,,,,,,,,,,,,,,,,,,,,,,,,,,,,,,,,base2,001,2019_Oct_22_1512,ProdFawcett_Revision2019,3.2.4,59.971929711620334,
21,0,21,0,,,,,,,,,,,,,,,,,673.1183839492733,None,materials/mumblePic.jpg,center,C_aloud2,21,44,669.4060360406293,None,669.4060360406293,None,670.3674895868171,None,670.634191064979,None,670.634191064979,None,,,,,,,,,,,,,,,,,,,,,,,,,,,,,,,,,,,base2,001,2019_Oct_22_1512,ProdFawcett_Revision2019,3.2.4,59.971929711620334,
22,0,22,0,,,,,,,,,,,,,,,,,677.3863903895253,None,materials/mumblePic.jpg,damage,C_aloud2,22,83,673.6683654602384,None,673.6683654602384,None,674.6354316497454,None,674.9021959501551,None,674.9021959501551,None,,,,,,,,,,,,,,,,,,,,,,,,,,,,,,,,,,,base2,001,2019_Oct_22_1512,ProdFawcett_Revision2019,3.2.4,59.971929711620334,
23,0,23,0,,,,,,,,,,,,,,,,,681.654291711282,None,materials/readPic.jpg,object,A_silent,23,204,677.9869771248195,None,677.9869771248195,None,678.9043064060388,None,679.170099137933,None,679.170099137933,None,,,,,,,,,,,,,,,,,,,,,,,,,,,,,,,,,,,base2,001,2019_Oct_22_1512,ProdFawcett_Revision2019,3.2.4,59.971929711620334,
24,0,24,0,,,,,,,,,,,,,,,,,685.922271094285,None,materials/mumblePic.jpg,minute,C_aloud2,24,192,682.2223564020824,None,682.2223564020824,None,683.171411564108,None,683.4381161521887,None,683.4381161521887,None,,,,,,,,,,,,,,,,,,,,,,,,,,,,,,,,,,,base2,001,2019_Oct_22_1512,ProdFawcett_Revision2019,3.2.4,59.971929711620334,
25,0,25,0,,,,,,,,,,,,,,,,,690.1902694485616,None,materials/mumblePic.jpg,theme,C_aloud2,25,326,686.4721857400145,None,686.4721857400145,None,687.4394055642188,None,687.7060519950464,None,687.7060519950464,None,,,,,,,,,,,,,,,,,,,,,,,,,,,,,,,,,,,base2,001,2019_Oct_22_1512,ProdFawcett_Revision2019,3.2.4,59.971929711620334,
26,0,26,0,,,,,,,,,,,,,,,,,694.4581804112531,None,materials/mumblePic.jpg,error,C_aloud2,26,117,690.7400985687273,None,690.7400985687273,None,691.7072947568959,None,691.9740099190967,None,691.9740099190967,None,,,,,,,,,,,,,,,,,,,,,,,,,,,,,,,,,,,base2,001,2019_Oct_22_1512,ProdFawcett_Revision2019,3.2.4,59.971929711620334,
27,0,27,0,,,,,,,,,,,,,,,,,698.7264070404926,None,materials/readPic.jpg,treatment,A_silent,27,339,695.050050086691,None,695.050050086691,None,695.9752865800401,None,696.2419410969596,None,696.2419410969596,None,,,,,,,,,,,,,,,,,,,,,,,,,,,,,,,,,,,base2,001,2019_Oct_22_1512,ProdFawcett_Revision2019,3.2.4,59.971929711620334,
28,0,28,0,,,,,,,,,,,,,,,,,702.9941379334778,None,materials/readPic.jpg,concern,A_silent,28,65,699.3093267160002,None,699.3093267160002,None,700.2432364179986,None,700.5099360300228,None,700.5099360300228,None,,,,,,,,,,,,,,,,,,,,,,,,,,,,,,,,,,,base2,001,2019_Oct_22_1512,ProdFawcett_Revision2019,3.2.4,59.971929711620334,
29,0,29,0,,,,,,,,,,,,,,,,,707.2620908814715,None,materials/speakPic.jpg,shape,B_aloud1,29,282,703.5955674827565,None,703.5955674827565,None,704.5112730253022,None,704.7779007961508,None,704.7779007961508,None,,,,,,,,,,,,,,,,,,,,,,,,,,,,,,,,,,,base2,001,2019_Oct_22_1512,ProdFawcett_Revision2019,3.2.4,59.971929711620334,
30,0,30,0,,,,,,,,,,,,,,,,,711.5300488054054,None,materials/speakPic.jpg,religion,B_aloud1,30,258,707.8340769896749,None,707.8340769896749,None,708.7791830551578,None,709.0458702271571,None,709.0458702271571,None,,,,,,,,,,,,,,,,,,,,,,,,,,,,,,,,,,,base2,001,2019_Oct_22_1512,ProdFawcett_Revision2019,3.2.4,59.971929711620334,
31,0,31,0,,,,,,,,,,,,,,,,,715.7980182364117,None,materials/readPic.jpg,broad,A_silent,31,31,712.1207394743105,None,712.1207394743105,None,713.0471086349571,None,713.3138275290839,None,713.3138275290839,None,,,,,,,,,,,,,,,,,,,,,,,,,,,,,,,,,,,base2,001,2019_Oct_22_1512,ProdFawcett_Revision2019,3.2.4,59.971929711620334,
32,0,32,0,,,,,,,,,,,,,,,,,720.0659805145115,None,materials/readPic.jpg,express,A_silent,32,124,716.3704720909009,None,716.3704720909009,None,717.315106678172,None,717.5817863860866,None,717.5817863860866,None,,,,,,,,,,,,,,,,,,,,,,,,,,,,,,,,,,,base2,001,2019_Oct_22_1512,ProdFawcett_Revision2019,3.2.4,59.971929711620334,
33,0,33,0,,,,,,,,,,,,,,,,,724.3339549215743,None,materials/speakPic.jpg,management,B_aloud1,33,177,720.6673323133728,None,720.6673323133728,None,721.5830474970862,None,721.8497365351068,None,721.8497365351068,None,,,,,,,,,,,,,,,,,,,,,,,,,,,,,,,,,,,base2,001,2019_Oct_22_1512,ProdFawcett_Revision2019,3.2.4,59.971929711620334,
34,0,34,0,,,,,,,,,,,,,,,,,728.6019041375257,None,materials/speakPic.jpg,straight,B_aloud1,34,307,724.905159794027,None,724.905159794027,None,725.8511049414519,None,726.1177009900566,None,726.1177009900566,None,,,,,,,,,,,,,,,,,,,,,,,,,,,,,,,,,,,base2,001,2019_Oct_22_1512,ProdFawcett_Revision2019,3.2.4,59.971929711620334,
35,0,35,0,,,,,,,,,,,,,,,,,732.8698402913287,None,materials/speakPic.jpg,novel,B_aloud1,35,202,729.1683516206685,None,729.1683516206685,None,730.1189888471272,None,730.3856909471797,None,730.3856909471797,None,,,,,,,,,,,,,,,,,,,,,,,,,,,,,,,,,,,base2,001,2019_Oct_22_1512,ProdFawcett_Revision2019,3.2.4,59.971929711620334,
36,0,36,0,,,,,,,,,,,,,,,,,737.1378193635028,None,materials/mumblePic.jpg,member,C_aloud2,36,188,733.4250086846296,None,733.4250086846296,None,734.3869106950006,None,734.6536398521857,None,734.6536398521857,None,,,,,,,,,,,,,,,,,,,,,,,,,,,,,,,,,,,base2,001,2019_Oct_22_1512,ProdFawcett_Revision2019,3.2.4,59.971929711620334,
37,0,37,0,,,,,,,,,,,,,,,,,741.4057928374968,None,materials/speakPic.jpg,vision,B_aloud1,37,347,737.738463634043,None,737.738463634043,None,738.6548997190548,None,738.9216092831921,None,738.9216092831921,None,,,,,,,,,,,,,,,,,,,,,,,,,,,,,,,,,,,base2,001,2019_Oct_22_1512,ProdFawcett_Revision2019,3.2.4,59.971929711620334,
38,0,38,0,,,,,,,,,,,,,,,,,745.6737420534482,None,materials/readPic.jpg,group,A_silent,38,143,741.9985706373118,None,741.9985706373118,None,742.9229724026518,None,743.1895488580922,None,743.1895488580922,None,,,,,,,,,,,,,,,,,,,,,,,,,,,,,,,,,,,base2,001,2019_Oct_22_1512,ProdFawcett_Revision2019,3.2.4,59.971929711620334,
39,0,39,0,,,,,,,,,,,,,,,,,749.9417130395304,None,materials/speakPic.jpg,point,B_aloud1,39,226,746.261049648514,None,746.261049648514,None,747.1908681263449,None,747.4575154901249,None,747.4575154901249,None,,,,,,,,,,,,,,,,,,,,,,,,,,,,,,,,,,,base2,001,2019_Oct_22_1512,ProdFawcett_Revision2019,3.2.4,59.971929711620334,
40,0,40,0,,,,,,,,,,,,,,,,,754.2096591454465,None,materials/speakPic.jpg,equipment,B_aloud1,40,116,750.5248407749459,None,750.5248407749459,None,751.4589093987597,None,751.7290978251258,None,751.7290978251258,None,,,,,,,,,,,,,,,,,,,,,,,,,,,,,,,,,,,base2,001,2019_Oct_22_1512,ProdFawcett_Revision2019,3.2.4,59.971929711620334,
41,0,41,0,,,,,,,,,,,,,,,,,758.4776503465837,None,materials/mumblePic.jpg,skill,C_aloud2,41,289,754.7776482629124,None,754.7776482629124,None,755.7268810067326,None,755.9934506202117,None,755.9934506202117,None,,,,,,,,,,,,,,,,,,,,,,,,,,,,,,,,,,,base2,001,2019_Oct_22_1512,ProdFawcett_Revision2019,3.2.4,59.971929711620334,
42,0,42,0,,,,,,,,,,,,,,,,,762.7455967635615,None,materials/mumblePic.jpg,drama,C_aloud2,42,103,759.0275699682534,None,759.0275699682534,None,759.9947866825387,None,760.261406367179,None,760.261406367179,None,,,,,,,,,,,,,,,,,,,,,,,,,,,,,,,,,,,base2,001,2019_Oct_22_1512,ProdFawcett_Revision2019,3.2.4,59.971929711620334,
43,0,43,0,,,,,,,,,,,,,,,,,767.0135727255838,None,materials/speakPic.jpg,guide,B_aloud1,43,147,763.3299321177183,None,763.3299321177183,None,764.2626867602812,None,764.5293770423159,None,764.5293770423159,None,,,,,,,,,,,,,,,,,,,,,,,,,,,,,,,,,,,base2,001,2019_Oct_22_1512,ProdFawcett_Revision2019,3.2.4,59.971929711620334,
44,0,44,0,,,,,,,,,,,,,,,,,771.2817648337223,None,materials/readPic.jpg,light,A_silent,44,171,767.6186509440886,None,767.6186509440886,None,768.530731764622,None,768.7973433632869,None,768.7973433632869,None,,,,,,,,,,,,,,,,,,,,,,,,,,,,,,,,,,,base2,001,2019_Oct_22_1512,ProdFawcett_Revision2019,3.2.4,59.971929711620334,
45,0,45,0,,,,,,,,,,,,,,,,,775.5494764446048,None,materials/speakPic.jpg,count,B_aloud1,45,72,771.8830463463673,None,771.8830463463673,None,772.7987400708953,None,773.0653109283885,None,773.0653109283885,None,,,,,,,,,,,,,,,,,,,,,,,,,,,,,,,,,,,base2,001,2019_Oct_22_1512,ProdFawcett_Revision2019,3.2.4,59.971929711620334,
46,0,46,0,,,,,,,,,,,,,,,,,779.8174558276078,None,materials/speakPic.jpg,school,B_aloud1,46,274,776.1169346824754,None,776.1169346824754,None,777.0666239764541,None,777.3332623213064,None,777.3332623213064,None,,,,,,,,,,,,,,,,,,,,,,,,,,,,,,,,,,,base2,001,2019_Oct_22_1512,ProdFawcett_Revision2019,3.2.4,59.971929711620334,
47,0,47,0,,,,,,,,,,,,,,,,,784.0854258807376,None,materials/mumblePic.jpg,relation,C_aloud2,47,257,780.3853569317143,None,780.3853569317143,None,781.3345716374461,None,781.6012379723834,None,781.6012379723834,None,,,,,,,,,,,,,,,,,,,,,,,,,,,,,,,,,,,base2,001,2019_Oct_22_1512,ProdFawcett_Revision2019,3.2.4,59.971929711620334,
48,0,48,0,,,,,,,,,,,,,,,,,788.3533726086607,None,materials/readPic.jpg,sight,A_silent,48,286,784.6931606736034,None,784.6931606736034,None,785.6025930057513,None,785.8691909203772,None,785.8691909203772,None,,,,,,,,,,,,,,,,,,,,,,,,,,,,,,,,,,,base2,001,2019_Oct_22_1512,ProdFawcett_Revision2019,3.2.4,59.971929711620334,
49,0,49,0,,,,,,,,,,,,,,,,,792.6213572787819,None,materials/mumblePic.jpg,crime,C_aloud2,49,78,788.9104104316793,None,788.9104104316793,None,789.8705835848814,None,790.1371376483003,None,790.1371376483003,None,,,,,,,,,,,,,,,,,,,,,,,,,,,,,,,,,,,base2,001,2019_Oct_22_1512,ProdFawcett_Revision2019,3.2.4,59.971929711620334,
50,0,50,0,,,,,,,,,,,,,,,,,796.8892924996326,None,materials/speakPic.jpg,cross,B_aloud1,50,80,793.2052768239519,None,793.2052768239519,None,794.1385439968435,None,794.4051235624356,None,794.4051235624356,None,,,,,,,,,,,,,,,,,,,,,,,,,,,,,,,,,,,base2,001,2019_Oct_22_1512,ProdFawcett_Revision2019,3.2.4,59.971929711620334,
51,0,51,0,,,,,,,,,,,,,,,,,801.157292719814,None,materials/readPic.jpg,division,A_silent,51,101,797.4973230549367,None,797.4973230549367,None,798.4064602466533,None,798.6730836634524,None,798.6730836634524,None,,,,,,,,,,,,,,,,,,,,,,,,,,,,,,,,,,,base2,001,2019_Oct_22_1512,ProdFawcett_Revision2019,3.2.4,59.971929711620334,
52,0,52,0,,,,,,,,,,,,,,,,,805.4252385147847,None,materials/mumblePic.jpg,pancakes,C_aloud2,52,210,801.725501715322,None,801.725501715322,None,802.6744707298931,None,802.9410596254747,None,802.9410596254747,None,,,,,,,,,,,,,,,,,,,,,,,,,,,,,,,,,,,base2,001,2019_Oct_22_1512,ProdFawcett_Revision2019,3.2.4,59.971929711620334,
53,0,53,0,,,,,,,,,,,,,,,,,809.6932029697346,None,materials/speakPic.jpg,material,B_aloud1,53,182,806.0104101517936,None,806.0104101517936,None,806.9424252328463,None,807.2090268795146,None,807.2090268795146,None,,,,,,,,,,,,,,,,,,,,,,,,,,,,,,,,,,,base2,001,2019_Oct_22_1512,ProdFawcett_Revision2019,3.2.4,59.971929711620334,
54,0,54,0,,,,,,,,,,,,,,,,,813.9611612047302,None,materials/readPic.jpg,cousin,A_silent,54,76,810.2945491706487,None,810.2945491706487,None,811.2104217211017,None,811.4769745405065,None,811.4769745405065,None,,,,,,,,,,,,,,,,,,,,,,,,,,,,,,,,,,,base2,001,2019_Oct_22_1512,ProdFawcett_Revision2019,3.2.4,59.971929711620334,
55,0,55,0,,,,,,,,,,,,,,,,,818.2291396548972,None,materials/mumblePic.jpg,atmosphere,C_aloud2,55,12,814.5293736212188,None,814.5293736212188,None,815.4784489984158,None,815.7449194024084,None,815.7449194024084,None,,,,,,,,,,,,,,,,,,,,,,,,,,,,,,,,,,,base2,001,2019_Oct_22_1512,ProdFawcett_Revision2019,3.2.4,59.971929711620334,
56,0,56,0,,,,,,,,,,,,,,,,,822.4971588461194,None,materials/speakPic.jpg,primary,B_aloud1,56,234,818.8172309736256,None,818.8172309736256,None,819.7465372319566,None,820.0128959864378,None,820.0128959864378,None,,,,,,,,,,,,,,,,,,,,,,,,,,,,,,,,,,,base2,001,2019_Oct_22_1512,ProdFawcett_Revision2019,3.2.4,59.971929711620334,
57,0,57,0,,,,,,,,,,,,,,,,,826.7650321776746,None,materials/readPic.jpg,tragedy,A_silent,57,335,823.0983060061699,None,823.0983060061699,None,824.0142435557209,None,824.2808697714936,None,824.2808697714936,None,,,,,,,,,,,,,,,,,,,,,,,,,,,,,,,,,,,base2,001,2019_Oct_22_1512,ProdFawcett_Revision2019,3.2.4,59.971929711620334,
58,0,58,0,,,,,,,,,,,,,,,,,831.033065364114,None,materials/speakPic.jpg,guest,B_aloud1,58,146,827.3518390604295,None,827.3518390604295,None,828.2822885601781,None,828.5487807343015,None,828.5487807343015,None,,,,,,,,,,,,,,,,,,,,,,,,,,,,,,,,,,,base2,001,2019_Oct_22_1512,ProdFawcett_Revision2019,3.2.4,59.971929711620334,
59,0,59,0,,,,,,,,,,,,,,,,,835.3010500342352,None,materials/mumblePic.jpg,track,C_aloud2,59,334,831.6010740746278,None,831.6010740746278,None,832.5503285885789,None,832.8168176526669,None,832.8168176526669,None,,,,,,,,,,,,,,,,,,,,,,,,,,,,,,,,,,,base2,001,2019_Oct_22_1512,ProdFawcett_Revision2019,3.2.4,59.971929711620334,
60,0,60,0,,,,,,,,,,,,,,,,,839.5689308297588,None,materials/speakPic.jpg,hearing,B_aloud1,60,150,835.889781704871,None,835.889781704871,None,836.8186590922996,None,837.0847111993935,None,837.0847111993935,None,,,,,,,,,,,,,,,,,,,,,,,,,,,,,,,,,,,base2,001,2019_Oct_22_1512,ProdFawcett_Revision2019,3.2.4,59.971929711620334,
61,0,61,0,,,,,,,,,,,,,,,,,843.836895284825,None,materials/readPic.jpg,health,A_silent,61,149,840.1618775033858,None,840.1618775033858,None,841.0861747722374,None,841.3527219935786,None,841.3527219935786,None,,,,,,,,,,,,,,,,,,,,,,,,,,,,,,,,,,,base2,001,2019_Oct_22_1512,ProdFawcett_Revision2019,3.2.4,59.971929711620334,
62,0,62,0,,,,,,,,,,,,,,,,,848.1048463667976,None,materials/readPic.jpg,production,A_silent,62,240,844.4226264135214,None,844.4226264135214,None,845.3540658309357,None,845.6206746305106,None,845.6206746305106,None,,,,,,,,,,,,,,,,,,,,,,,,,,,,,,,,,,,base2,001,2019_Oct_22_1512,ProdFawcett_Revision2019,3.2.4,59.971929711620334,
63,0,63,0,,,,,,,,,,,,,,,,,852.3728108218638,None,materials/mumblePic.jpg,travel,C_aloud2,63,338,848.673005291028,None,848.673005291028,None,849.6220993282041,None,849.8886571236653,None,849.8886571236653,None,,,,,,,,,,,,,,,,,,,,,,,,,,,,,,,,,,,base2,001,2019_Oct_22_1512,ProdFawcett_Revision2019,3.2.4,59.971929711620334,
64,0,64,0,,,,,,,,,,,,,,,,,856.6406029820209,None,materials/mumblePic.jpg,signal,C_aloud2,64,287,852.9228386719478,None,852.9228386719478,None,853.8900292620528,None,854.1565634213621,None,854.1565634213621,None,,,,,,,,,,,,,,,,,,,,,,,,,,,,,,,,,,,base2,001,2019_Oct_22_1512,ProdFawcett_Revision2019,3.2.4,59.971929711620334,
65,0,65,0,,,,,,,,,,,,,,,,,860.908737554797,None,materials/readPic.jpg,permit,A_silent,65,218,857.2413334000157,None,857.2413334000157,None,858.1579439569032,None,858.4247508645058,None,858.4247508645058,None,,,,,,,,,,,,,,,,,,,,,,,,,,,,,,,,,,,base2,001,2019_Oct_22_1512,ProdFawcett_Revision2019,3.2.4,59.971929711620334,
66,0,66,0,,,,,,,,,,,,,,,,,865.1767209809041,None,materials/speakPic.jpg,society,B_aloud1,66,293,861.5101294729393,None,861.5101294729393,None,862.4260035783518,None,862.6925445797388,None,862.6925445797388,None,,,,,,,,,,,,,,,,,,,,,,,,,,,,,,,,,,,base2,001,2019_Oct_22_1512,ProdFawcett_Revision2019,3.2.4,59.971929711620334,
67,0,67,0,,,,,,,,,,,,,,,,,869.444685125025,None,materials/speakPic.jpg,discussion,B_aloud1,67,96,865.7468575634994,None,865.7468575634994,None,866.6939571483526,None,866.96048322157,None,866.96048322157,None,,,,,,,,,,,,,,,,,,,,,,,,,,,,,,,,,,,base2,001,2019_Oct_22_1512,ProdFawcett_Revision2019,3.2.4,59.971929711620334,
68,0,68,0,,,,,,,,,,,,,,,,,873.7126408719923,None,materials/mumblePic.jpg,course,C_aloud2,68,74,870.0012698188657,None,870.0012698188657,None,870.9619237803854,None,871.2284551406046,None,871.2284551406046,None,,,,,,,,,,,,,,,,,,,,,,,,,,,,,,,,,,,base2,001,2019_Oct_22_1512,ProdFawcett_Revision2019,3.2.4,59.971929711620334,
69,0,69,0,,,,,,,,,,,,,,,,,877.9806037719827,None,materials/mumblePic.jpg,brief,C_aloud2,69,28,874.2648703014711,None,874.2648703014711,None,875.2298776613316,None,875.496383519494,None,875.496383519494,None,,,,,,,,,,,,,,,,,,,,,,,,,,,,,,,,,,,base2,001,2019_Oct_22_1512,ProdFawcett_Revision2019,3.2.4,59.971929711620334,
70,0,70,0,,,,,,,,,,,,,,,,,882.2485775570385,None,materials/readPic.jpg,listen,A_silent,70,172,878.5811827322468,None,878.5811827322468,None,879.4981835959479,None,879.7646070386982,None,879.7646070386982,None,,,,,,,,,,,,,,,,,,,,,,,,,,,,,,,,,,,base2,001,2019_Oct_22_1512,ProdFawcett_Revision2019,3.2.4,59.971929711620334,
71,0,71,0,,,,,,,,,,,,,,,,,886.5165348590817,None,materials/speakPic.jpg,owner,B_aloud1,71,208,882.8359868496191,None,882.8359868496191,None,883.7660351574887,None,884.0323220705613,None,884.0323220705613,None,,,,,,,,,,,,,,,,,,,,,,,,,,,,,,,,,,,base2,001,2019_Oct_22_1512,ProdFawcett_Revision2019,3.2.4,59.971929711620334,
72,0,72,0,,,,,,,,,,,,,,,,,890.784486562945,None,materials/readPic.jpg,audience,A_silent,72,14,887.1077716464642,None,887.1077716464642,None,888.0336954530794,None,888.3002890136559,None,888.3002890136559,None,,,,,,,,,,,,,,,,,,,,,,,,,,,,,,,,,,,base2,001,2019_Oct_22_1512,ProdFawcett_Revision2019,3.2.4,59.971929711620334,
73,0,73,0,,,,,,,,,,,,,,,,,895.0524737210944,None,materials/mumblePic.jpg,youth,C_aloud2,73,359,891.3525403686799,None,891.3525403686799,None,892.3016928741708,None,892.5682553346269,None,892.5682553346269,None,,,,,,,,,,,,,,,,,,,,,,,,,,,,,,,,,,,base2,001,2019_Oct_22_1512,ProdFawcett_Revision2019,3.2.4,59.971929711620334,
74,0,74,0,,,,,,,,,,,,,,,,,899.3204123630421,None,materials/mumblePic.jpg,mechanical,C_aloud2,74,185,895.6024328399217,None,895.6024328399217,None,896.5700106269214,None,896.8362210337073,None,896.8362210337073,None,,,,,,,,,,,,,,,,,,,,,,,,,,,,,,,,,,,base2,001,2019_Oct_22_1512,ProdFawcett_Revision2019,3.2.4,59.971929711620334,
75,0,75,0,,,,,,,,,,,,,,,,,903.5883699760307,None,materials/speakPic.jpg,thick,B_aloud1,75,327,899.9045536522754,None,899.9045536522754,None,900.8375776220346,None,901.1041845557047,None,901.1041845557047,None,,,,,,,,,,,,,,,,,,,,,,,,,,,,,,,,,,,base2,001,2019_Oct_22_1512,ProdFawcett_Revision2019,3.2.4,59.971929711620334,
76,0,76,0,,,,,,,,,,,,,,,,,907.8563418950653,None,materials/speakPic.jpg,generation,B_aloud1,76,136,904.1571959983557,None,904.1571959983557,None,905.1055968133733,None,905.3721993929939,None,905.3721993929939,None,,,,,,,,,,,,,,,,,,,,,,,,,,,,,,,,,,,base2,001,2019_Oct_22_1512,ProdFawcett_Revision2019,3.2.4,59.971929711620334,
77,0,77,0,,,,,,,,,,,,,,,,,912.1240049896296,None,materials/speakPic.jpg,distance,B_aloud1,77,100,908.430290111457,None,908.430290111457,None,909.3735531823477,None,909.6400792555651,None,909.6400792555651,None,,,,,,,,,,,,,,,,,,,,,,,,,,,,,,,,,,,base2,001,2019_Oct_22_1512,ProdFawcett_Revision2019,3.2.4,59.971929711620334,
78,0,78,0,,,,,,,,,,,,,,,,,916.3923040822847,None,materials/mumblePic.jpg,junior,C_aloud2,78,167,912.6815954623744,None,912.6815954623744,None,913.6415098622674,None,913.9080875618383,None,913.9080875618383,None,,,,,,,,,,,,,,,,,,,,,,,,,,,,,,,,,,,base2,001,2019_Oct_22_1512,ProdFawcett_Revision2019,3.2.4,59.971929711620334,
79,0,79,0,,,,,,,,,,,,,,,,,920.6602330830647,None,materials/speakPic.jpg,conference,B_aloud1,79,66,916.9781325543299,None,916.9781325543299,None,917.9095828568097,None,918.1760346007068,None,918.1760346007068,None,,,,,,,,,,,,,,,,,,,,,,,,,,,,,,,,,,,base2,001,2019_Oct_22_1512,ProdFawcett_Revision2019,3.2.4,59.971929711620334,
80,0,80,0,,,,,,,,,,,,,,,,,924.9281869641272,None,materials/speakPic.jpg,character,B_aloud1,80,46,921.2433897417504,None,921.2433897417504,None,922.1774704945274,None,922.4440413519042,None,922.4440413519042,None,,,,,,,,,,,,,,,,,,,,,,,,,,,,,,,,,,,base2,001,2019_Oct_22_1512,ProdFawcett_Revision2019,3.2.4,59.971929711620334,
81,0,81,0,,,,,,,,,,,,,,,,,929.1961427110946,None,materials/readPic.jpg,figure,A_silent,81,128,925.5294134294381,None,925.5294134294381,None,926.445399184362,None,926.7119700418552,None,926.7119700418552,None,,,,,,,,,,,,,,,,,,,,,,,,,,,,,,,,,,,base2,001,2019_Oct_22_1512,ProdFawcett_Revision2019,3.2.4,59.971929711620334,
82,0,82,0,,,,,,,,,,,,,,,,,933.4641102760797,None,materials/speakPic.jpg,research,B_aloud1,82,261,929.7809622944333,None,929.7809622944333,None,930.7133409362286,None,930.979913659743,None,930.979913659743,None,,,,,,,,,,,,,,,,,,,,,,,,,,,,,,,,,,,base2,001,2019_Oct_22_1512,ProdFawcett_Revision2019,3.2.4,59.971929711620334,
83,0,83,0,,,,,,,,,,,,,,,,,937.732081262162,None,materials/readPic.jpg,pressure,A_silent,83,232,934.0549928329419,None,934.0549928329419,None,934.9813234293833,None,935.247888688813,None,935.247888688813,None,,,,,,,,,,,,,,,,,,,,,,,,,,,,,,,,,,,base2,001,2019_Oct_22_1512,ProdFawcett_Revision2019,3.2.4,59.971929711620334,
84,0,84,0,,,,,,,,,,,,,,,,,942.000047583133,None,materials/readPic.jpg,suggestion,A_silent,84,314,938.315702867927,None,938.315702867927,None,939.2493743427331,None,939.5158562537981,None,939.5158562537981,None,,,,,,,,,,,,,,,,,,,,,,,,,,,,,,,,,,,base2,001,2019_Oct_22_1512,ProdFawcett_Revision2019,3.2.4,59.971929711620334,
85,0,85,0,,,,,,,,,,,,,,,,,946.2680241672788,None,materials/readPic.jpg,device,A_silent,85,93,942.5832546240417,None,942.5832546240417,None,943.5172937025782,None,943.7838194648502,None,943.7838194648502,None,,,,,,,,,,,,,,,,,,,,,,,,,,,,,,,,,,,base2,001,2019_Oct_22_1512,ProdFawcett_Revision2019,3.2.4,59.971929711620334,
86,0,86,0,,,,,,,,,,,,,,,,,950.5359634311171,None,materials/readPic.jpg,speech,A_silent,86,298,946.8384991193889,None,946.8384991193889,None,947.7852332774783,None,948.0517689918634,None,948.0517689918634,None,,,,,,,,,,,,,,,,,,,,,,,,,,,,,,,,,,,base2,001,2019_Oct_22_1512,ProdFawcett_Revision2019,3.2.4,59.971929711620334,
87,0,87,0,,,,,,,,,,,,,,,,,954.8039160681656,None,materials/mumblePic.jpg,afternoon,C_aloud2,87,3,951.1206747860415,None,951.1206747860415,None,952.0532254116843,None,952.3197542838752,None,952.3197542838752,None,,,,,,,,,,,,,,,,,,,,,,,,,,,,,,,,,,,base2,001,2019_Oct_22_1512,ProdFawcett_Revision2019,3.2.4,59.971929711620334,
88,0,88,0,,,,,,,,,,,,,,,,,959.0719150443329,None,materials/readPic.jpg,scale,A_silent,88,272,955.4053648995468,None,955.4053648995468,None,956.3212209667545,None,956.5877199829556,None,956.5877199829556,None,,,,,,,,,,,,,,,,,,,,,,,,,,,,,,,,,,,base2,001,2019_Oct_22_1512,ProdFawcett_Revision2019,3.2.4,59.971929711620334,
89,0,89,0,,,,,,,,,,,,,,,,,963.3398658152437,None,materials/mumblePic.jpg,clean,C_aloud2,89,51,959.6291780323954,None,959.6291780323954,None,960.5892112349393,None,960.8556601798628,None,960.8556601798628,None,,,,,,,,,,,,,,,,,,,,,,,,,,,,,,,,,,,base2,001,2019_Oct_22_1512,ProdFawcett_Revision2019,3.2.4,59.971929711620334,
,,,,,,,,,,,,,,,,,,,,,,,,,,,,,,,,,,,,,963.8400255144807,None,k,112.62552998540923,963.8400255144807,None,,,,,,,,,,,,,,,,,,,,,,,,,,,,,base2,001,2019_Oct_22_1512,ProdFawcett_Revision2019,3.2.4,59.971929711620334,
,,,,,,,,,,,,,,1076.4909077167977,None,space,2.998365687322803,1076.4909077167977,None,,,,,,,,,,,,,,,,,,,,,,,,,,,,,,,,,,,,,,,,,,,,,,,,,,,,base2,001,2019_Oct_22_1512,ProdFawcett_Revision2019,3.2.4,59.971929711620334,
,,,,0,0,0,0,,,,,,,,,,,,,1097.5983674288727,None,,,,,,,,,,,,,,,,,,,,,,narrow,D_new,0,197,1080.029828460887,None,1080.029828460887,None,1080.029828460887,None,4,13.466432524030097,1080.029828460887,None,1093.5459204538492,None,1093.5459204538492,None,1094.0637456580298,None,1094.0637456580298,None,1094.0637456580298,None,f,3.496334070339799,1094.0637456580298,None,base2,001,2019_Oct_22_1512,ProdFawcett_Revision2019,3.2.4,59.971929711620334,
,,,,1,0,1,0,,,,,,,,,,,,,1106.7998907762812,None,,,,,,,,,,,,,,,,,,,,,,mankind,D_new,1,178,1098.1151383380638,None,1098.1151383380638,None,1098.1151383380638,None,1,3.204832402872853,1098.1151383380638,None,1101.3713531580288,None,1101.3713531580288,None,1101.8985040518455,None,1101.8985040518455,None,1101.8985040518455,None,f,4.852933008107357,1101.8985040518455,None,base2,001,2019_Oct_22_1512,ProdFawcett_Revision2019,3.2.4,59.971929711620334,
,,,,2,0,2,0,,,,,,,,,,,,,1112.6017716508359,None,,,,,,,,,,,,,,,,,,,,,,religion,B_aloud1,2,258,1107.3174724662676,None,1107.3174724662676,None,1107.3174724662676,None,6,2.426204485236667,1107.3174724662676,None,1109.8008629668038,None,1109.8008629668038,None,1110.3177455255063,None,1110.3177455255063,None,1110.3177455255063,None,r,2.242091621621512,1110.3177455255063,None,base2,001,2019_Oct_22_1512,ProdFawcett_Revision2019,3.2.4,59.971929711620334,
,,,,3,0,3,0,,,,,,,,,,,,,1119.1536372086266,None,,,,,,,,,,,,,,,,,,,,,,travel,C_aloud2,3,338,1113.1185683731455,None,1113.1185683731455,None,1113.1185683731455,None,6,2.5042275983141735,1113.1185683731455,None,1115.6859572577523,None,1115.6859572577523,None,1116.2029219209217,None,1116.2029219209217,None,1116.2029219209217,None,r,2.9085537530481815,1116.2029219209217,None,base2,001,2019_Oct_22_1512,ProdFawcett_Revision2019,3.2.4,59.971929711620334,
,,,,4,0,4,0,,,,,,,,,,,,,1124.9390894311946,None,,,,,,,,,,,,,,,,,,,,,,committee,C_aloud2,4,62,1119.67144624074,None,1119.67144624074,None,1119.67144624074,None,6,2.3434386000735685,1119.67144624074,None,1122.0712112480542,None,1122.0712112480542,None,1122.5880785676418,None,1122.5880785676418,None,1122.5880785676418,None,r,2.3069220527540892,1122.5880785676418,None,base2,001,2019_Oct_22_1512,ProdFawcett_Revision2019,3.2.4,59.971929711620334,
,,,,5,0,5,0,,,,,,,,,,,,,1136.942372362595,None,,,,,,,,,,,,,,,,,,,,,,cross,B_aloud1,5,80,1125.455534099834,None,1125.455534099834,None,1125.455534099834,None,3,9.462277855607681,1125.455534099834,None,1134.9751450744225,None,1134.9751450744225,None,1135.492054379196,None,1135.492054379196,None,1135.492054379196,None,f,1.4097099009668455,1135.492054379196,None,base2,001,2019_Oct_22_1512,ProdFawcett_Revision2019,3.2.4,59.971929711620334,
,,,,6,0,6,0,,,,,,,,,,,,,1141.2103470807197,None,,,,,,,,,,,,,,,,,,,,,,signal,C_aloud2,6,287,1137.459155089804,None,1137.459155089804,None,1137.459155089804,None,6,2.194581172778271,1137.459155089804,None,1139.709948843345,None,1139.709948843345,None,1140.2268864492653,None,1140.2268864492653,None,1140.2268864492653,None,r,0.9465180120896548,1140.2268864492653,None,base2,001,2019_Oct_22_1512,ProdFawcett_Revision2019,3.2.4,59.971929711620334,
,,,,7,0,7,0,,,,,,,,,,,,,1146.5954060730292,None,,,,,,,,,,,,,,,,,,,,,,primary,B_aloud1,7,234,1141.7282621642807,None,1141.7282621642807,None,1141.7282621642807,None,6,2.9648443950572982,1141.7282621642807,None,1144.7446917493362,None,1144.7446917493362,None,1145.2615901690442,None,1145.2615901690442,None,1145.2615901690442,None,r,1.2953801666153595,1145.2615901690442,None,base2,001,2019_Oct_22_1512,ProdFawcett_Revision2019,3.2.4,59.971929711620334,
,,,,8,0,8,0,,,,,,,,,,,,,1150.3797837855527,None,,,,,,,,,,,,,,,,,,,,,,force,B_aloud1,8,131,1147.1121116718277,None,1147.1121116718277,None,1147.1121116718277,None,6,1.5647615443449467,1147.1121116718277,None,1148.7294116256526,None,1148.7294116256526,None,1149.2461075833999,None,1149.2461075833999,None,1149.2461075833999,None,r,1.0864994578296319,1149.2461075833999,None,base2,001,2019_Oct_22_1512,ProdFawcett_Revision2019,3.2.4,59.971929711620334,
,,,,9,0,9,0,,,,,,,,,,,,,1156.6816533085657,None,,,,,,,,,,,,,,,,,,,,,,pancakes,C_aloud2,9,210,1150.8969216764672,None,1150.8969216764672,None,1150.8969216764672,None,1,1.9079734242986888,1150.8969216764672,None,1152.8382543611806,None,1152.8382543611806,None,1153.3642066554166,None,1153.3642066554166,None,1153.3642066554166,None,f,3.280051526729949,1153.3642066554166,None,base2,001,2019_Oct_22_1512,ProdFawcett_Revision2019,3.2.4,59.971929711620334,
,,,,10,0,10,0,,,,,,,,,,,,,1166.304275741335,None,,,,,,,,,,,,,,,,,,,,,,production,A_silent,10,240,1157.1988767249277,None,1157.1988767249277,None,1157.1988767249277,None,4,7.252890836331062,1157.1988767249277,None,1164.5007176358486,None,1164.5007176358486,None,1165.0176228976343,None,1165.0176228976343,None,1165.0176228976343,None,f,1.2663391614332795,1165.0176228976343,None,base2,001,2019_Oct_22_1512,ProdFawcett_Revision2019,3.2.4,59.971929711620334,
,,,,11,0,11,0,,,,,,,,,,,,,1170.66940513812,None,,,,,,,,,,,,,,,,,,,,,,space,D_new,11,297,1166.8212805235526,None,1166.8212805235526,None,1166.8212805235526,None,1,1.8710040588630363,1166.8212805235526,None,1168.7520621728618,None,1168.7520621728618,None,1169.2691481264774,None,1169.2691481264774,None,1169.2691481264774,None,f,1.366498425253667,1169.2691481264774,None,base2,001,2019_Oct_22_1512,ProdFawcett_Revision2019,3.2.4,59.971929711620334,
,,,,12,0,12,0,,,,,,,,,,,,,1179.588777387864,None,,,,,,,,,,,,,,,,,,,,,,shape,B_aloud1,12,282,1171.1864693217212,None,1171.1864693217212,None,1171.1864693217212,None,2,1.7688148885499686,1171.1864693217212,None,1173.007849987829,None,1173.007849987829,None,1173.5369070095476,None,1173.5369070095476,None,1173.5369070095476,None,f,6.010833735810593,1173.5369070095476,None,base2,001,2019_Oct_22_1512,ProdFawcett_Revision2019,3.2.4,59.971929711620334,
,,,,13,0,13,0,,,,,,,,,,,,,1188.80813760194,None,,,,,,,,,,,,,,,,,,,,,,patient,C_aloud2,13,213,1180.0896713616094,None,1180.0896713616094,None,1180.0896713616094,None,6,6.417168959858827,1180.0896713616094,None,1186.5575404013507,None,1186.5575404013507,None,1187.0742282731226,None,1187.0742282731226,None,1187.0742282731226,None,r,1.6959805238293484,1187.0742282731226,None,base2,001,2019_Oct_22_1512,ProdFawcett_Revision2019,3.2.4,59.971929711620334,
,,,,14,0,14,0,,,,,,,,,,,,,1197.627567044925,None,,,,,,,,,,,,,,,,,,,,,,trend,D_new,14,340,1189.324869946926,None,1189.324869946926,None,1189.324869946926,None,2,5.045408700942062,1189.324869946926,None,1194.426602256135,None,1194.426602256135,None,1194.943518092041,None,1194.943518092041,None,1194.943518092041,None,f,2.650558760855347,1194.943518092041,None,base2,001,2019_Oct_22_1512,ProdFawcett_Revision2019,3.2.4,59.971929711620334,
,,,,15,0,15,0,,,,,,,,,,,,,1207.4328938156832,None,,,,,,,,,,,,,,,,,,,,,,silence,D_new,15,288,1198.1442353235325,None,1198.1442353235325,None,1198.1442353235325,None,1,4.833225156646222,1198.1442353235325,None,1203.0291336836526,None,1203.0291336836526,None,1203.5459462669678,None,1203.5459462669678,None,1203.5459462669678,None,n,3.847156156087294,1203.5459462669678,None,base2,001,2019_Oct_22_1512,ProdFawcett_Revision2019,3.2.4,59.971929711620334,
,,,,16,0,16,0,,,,,,,,,,,,,1215.4330110632582,None,,,,,,,,,,,,,,,,,,,,,,close,D_new,16,53,1207.9650910191704,None,1207.9650910191704,None,1207.9650910191704,None,2,3.044076059712097,1207.9650910191704,None,1211.065020452952,None,1211.065020452952,None,1211.5816884206142,None,1211.5816884206142,None,1211.5816884206142,None,f,3.802835338166915,1211.5816884206142,None,base2,001,2019_Oct_22_1512,ProdFawcett_Revision2019,3.2.4,59.971929711620334,
,,,,17,0,17,0,,,,,,,,,,,,,1221.568036700599,None,,,,,,,,,,,,,,,,,,,,,,count,B_aloud1,17,72,1215.9499931423925,None,1215.9499931423925,None,1215.9499931423925,None,6,3.610577035113238,1215.9499931423925,None,1219.61747815751,None,1219.61747815751,None,1220.1342748798197,None,1220.1342748798197,None,1220.1342748798197,None,r,1.3942316693719476,1220.1342748798197,None,base2,001,2019_Oct_22_1512,ProdFawcett_Revision2019,3.2.4,59.971929711620334,
,,,,18,0,18,0,,,,,,,,,,,,,1233.0050736777484,None,,,,,,,,,,,,,,,,,,,,,,contract,D_new,18,68,1222.084831867949,None,1222.084831867949,None,1222.084831867949,None,3,6.011158732348122,1222.084831867949,None,1228.1432842811337,None,1228.1432842811337,None,1228.670347161591,None,1228.670347161591,None,1228.670347161591,None,f,4.29711151169613,1228.670347161591,None,base2,001,2019_Oct_22_1512,ProdFawcett_Revision2019,3.2.4,59.971929711620334,
,,,,19,0,19,0,,,,,,,,,,,,,1249.343544340576,None,,,,,,,,,,,,,,,,,,,,,,detective,D_new,19,92,1233.5225738853915,None,1233.5225738853915,None,1233.5225738853915,None,3,12.572040222468786,1233.5225738853915,None,1246.14622946491,None,1246.14622946491,None,1246.6756774155656,None,1246.6756774155656,None,1246.6756774155656,None,f,2.634714169544168,1246.6756774155656,None,base2,001,2019_Oct_22_1512,ProdFawcett_Revision2019,3.2.4,59.971929711620334,
,,,,20,0,20,0,,,,,,,,,,,,,1256.6455416851677,None,,,,,,,,,,,,,,,,,,,,,,republic,C_aloud2,20,260,1249.8599684830988,None,1249.8599684830988,None,1249.8599684830988,None,6,4.626835880451836,1249.8599684830988,None,1254.5448726899922,None,1254.5448726899922,None,1255.0617101534735,None,1255.0617101534735,None,1255.0617101534735,None,r,1.54453587543685,1255.0617101534735,None,base2,001,2019_Oct_22_1512,ProdFawcett_Revision2019,3.2.4,59.971929711620334,
,,,,21,0,21,0,,,,,,,,,,,,,1261.7636553742923,None,,,,,,,,,,,,,,,,,,,,,,center,C_aloud2,21,44,1257.162335919449,None,1257.162335919449,None,1257.162335919449,None,6,2.3956261998973787,1257.162335919449,None,1259.6130737549393,None,1259.6130737549393,None,1260.129891936318,None,1260.129891936318,None,1260.129891936318,None,r,1.5875912284245715,1260.129891936318,None,base2,001,2019_Oct_22_1512,ProdFawcett_Revision2019,3.2.4,59.971929711620334,
,,,,22,0,22,0,,,,,,,,,,,,,1269.7994248960167,None,,,,,,,,,,,,,,,,,,,,,,block,D_new,22,25,1262.280391762266,None,1262.280391762266,None,1262.280391762266,None,2,3.22085115511436,1262.280391762266,None,1265.5523668921087,None,1265.5523668921087,None,1266.0816170457983,None,1266.0816170457983,None,1266.0816170457983,None,n,3.6838206778047606,1266.0816170457983,None,base2,001,2019_Oct_22_1512,ProdFawcett_Revision2019,3.2.4,59.971929711620334,
,,,,23,0,23,0,,,,,,,,,,,,,1277.6518886029953,None,,,,,,,,,,,,,,,,,,,,,,brief,C_aloud2,23,28,1270.3329702909105,None,1270.3329702909105,None,1270.3329702909105,None,5,4.863738131825812,1270.3329702909105,None,1275.2410052935593,None,1275.2410052935593,None,1275.7679615004454,None,1275.7679615004454,None,1275.7679615004454,None,r,1.8365547383436933,1275.7679615004454,None,base2,001,2019_Oct_22_1512,ProdFawcett_Revision2019,3.2.4,59.971929711620334,
,,,,24,0,24,0,,,,,,,,,,,,,1286.2544212744106,None,,,,,,,,,,,,,,,,,,,,,,management,B_aloud1,24,177,1278.1701635152567,None,1278.1701635152567,None,1278.1701635152567,None,6,5.378230955218896,1278.1701635152567,None,1283.6036015835125,None,1283.6036015835125,None,1284.1204281619284,None,1284.1204281619284,None,1284.1204281619284,None,r,2.1000320642488077,1284.1204281619284,None,base2,001,2019_Oct_22_1512,ProdFawcett_Revision2019,3.2.4,59.971929711620334,
,,,,25,0,25,0,,,,,,,,,,,,,1292.6564600134734,None,,,,,,,,,,,,,,,,,,,,,,evidence,D_new,25,120,1286.7724828396458,None,1286.7724828396458,None,1286.7724828396458,None,4,3.9758012875681743,1286.7724828396458,None,1290.805746311671,None,1290.805746311671,None,1291.3227022667415,None,1291.3227022667415,None,1291.3227022667415,None,f,1.296910293865949,1291.3227022667415,None,base2,001,2019_Oct_22_1512,ProdFawcett_Revision2019,3.2.4,59.971929711620334,
,,,,26,0,26,0,,,,,,,,,,,,,1299.0417155586183,None,,,,,,,,,,,,,,,,,,,,,,member,C_aloud2,26,188,1293.1743237817427,None,1293.1743237817427,None,1293.1743237817427,None,5,3.3334302621660754,1293.1743237817427,None,1296.5577133181505,None,1296.5577133181505,None,1297.0744798732921,None,1297.0744798732921,None,1297.0744798732921,None,r,1.9206022606231272,1297.0744798732921,None,base2,001,2019_Oct_22_1512,ProdFawcett_Revision2019,3.2.4,59.971929711620334,
,,,,27,0,27,0,,,,,,,,,,,,,1304.1598367117113,None,,,,,,,,,,,,,,,,,,,,,,spoke,D_new,27,300,1299.5584743387299,None,1299.5584743387299,None,1299.5584743387299,None,2,2.1884454250102863,1299.5584743387299,None,1301.809130007634,None,1301.809130007634,None,1302.3259096248075,None,1302.3259096248075,None,1302.3259096248075,None,n,1.7969878886360675,1302.3259096248075,None,base2,001,2019_Oct_22_1512,ProdFawcett_Revision2019,3.2.4,59.971929711620334,
,,,,28,0,28,0,,,,,,,,,,,,,1316.8304783917265,None,,,,,,,,,,,,,,,,,,,,,,swift,D_new,28,320,1304.6767220695037,None,1304.6767220695037,None,1304.6767220695037,None,1,3.765967670129612,1304.6767220695037,None,1308.4809805502882,None,1308.4809805502882,None,1309.0112921519903,None,1309.0112921519903,None,1309.0112921519903,None,f,7.775529721053317,1309.0112921519903,None,base2,001,2019_Oct_22_1512,ProdFawcett_Revision2019,3.2.4,59.971929711620334,
,,,,29,0,29,0,,,,,,,,,,,,,1332.3850499732653,None,,,,,,,,,,,,,,,,,,,,,,company,D_new,29,64,1317.3482532135677,None,1317.3482532135677,None,1317.3482532135677,None,4,13.420886982465163,1317.3482532135677,None,1330.8346445672214,None,1330.8346445672214,None,1331.3515473410953,None,1331.3515473410953,None,1331.3515473410953,None,f,0.9938297310145572,1331.3515473410953,None,base2,001,2019_Oct_22_1512,ProdFawcett_Revision2019,3.2.4,59.971929711620334,
,,,,30,0,30,0,,,,,,,,,,,,,1341.1044961791486,None,,,,,,,,,,,,,,,,,,,,,,harmony,D_new,30,148,1332.903557514539,None,1332.903557514539,None,1332.903557514539,None,1,3.4415082450723276,1332.903557514539,None,1336.4029266480356,None,1336.4029266480356,None,1336.9199071722105,None,1336.9199071722105,None,1336.9199071722105,None,f,4.136602103710175,1336.9199071722105,None,base2,001,2019_Oct_22_1512,ProdFawcett_Revision2019,3.2.4,59.971929711620334,
,,,,31,0,31,0,,,,,,,,,,,,,1350.1906025310745,None,,,,,,,,,,,,,,,,,,,,,,route,D_new,31,267,1341.6211489078123,None,1341.6211489078123,None,1341.6211489078123,None,2,6.354817521525547,1341.6211489078123,None,1348.030527592171,None,1348.030527592171,None,1348.5566232580459,None,1348.5566232580459,None,1348.5566232580459,None,f,1.595628128037788,1348.5566232580459,None,base2,001,2019_Oct_22_1512,ProdFawcett_Revision2019,3.2.4,59.971929711620334,
,,,,32,0,32,0,,,,,,,,,,,,,1360.0602496905485,None,,,,,,,,,,,,,,,,,,,,,,escape,D_new,32,118,1350.7072574367048,None,1350.7072574367048,None,1350.7072574367048,None,4,7.996518649626523,1350.7072574367048,None,1358.7597862051334,None,1358.7597862051334,None,1359.2766852468485,None,1359.2766852468485,None,1359.2766852468485,None,n,0.7391176702221856,1359.2766852468485,None,base2,001,2019_Oct_22_1512,ProdFawcett_Revision2019,3.2.4,59.971929711620334,
,,,,33,0,33,0,,,,,,,,,,,,,1367.6792396262754,None,,,,,,,,,,,,,,,,,,,,,,cover,D_new,33,77,1360.5768965102034,None,1360.5768965102034,None,1360.5768965102034,None,3,4.685983381932601,1360.5768965102034,None,1365.3284383777063,None,1365.3284383777063,None,1365.8454220118,None,1365.8454220118,None,1365.8454220118,None,n,1.7854142803698778,1365.8454220118,None,base2,001,2019_Oct_22_1512,ProdFawcett_Revision2019,3.2.4,59.971929711620334,
,,,,34,0,34,0,,,,,,,,,,,,,1372.4140241130954,None,,,,,,,,,,,,,,,,,,,,,,household,D_new,34,154,1368.1972760003991,None,1368.1972760003991,None,1368.1972760003991,None,1,1.7374363963026553,1368.1972760003991,None,1369.9966057300335,None,1369.9966057300335,None,1370.5135735031217,None,1370.5135735031217,None,1370.5135735031217,None,n,1.8612958373269066,1370.5135735031217,None,base2,001,2019_Oct_22_1512,ProdFawcett_Revision2019,3.2.4,59.971929711620334,
,,,,35,0,35,0,,,,,,,,,,,,,1381.8335619712016,None,,,,,,,,,,,,,,,,,,,,,,drama,C_aloud2,35,103,1372.9307629892137,None,1372.9307629892137,None,1372.9307629892137,None,3,5.867778351763263,1372.9307629892137,None,1378.8491627373733,None,1378.8491627373733,None,1379.3660337890033,None,1379.3660337890033,None,1379.3660337890033,None,f,2.431941218324937,1379.3660337890033,None,base2,001,2019_Oct_22_1512,ProdFawcett_Revision2019,3.2.4,59.971929711620334,
,,,,36,0,36,0,,,,,,,,,,,,,1385.6345770177431,None,,,,,,,,,,,,,,,,,,,,,,permit,A_silent,36,218,1382.3507346942788,None,1382.3507346942788,None,1382.3507346942788,None,1,1.8790067484369501,1382.3507346942788,None,1384.2842565773753,None,1384.2842565773753,None,1384.8011139449663,None,1384.8011139449663,None,1384.8011139449663,None,n,0.7965770558221266,1384.8011139449663,None,base2,001,2019_Oct_22_1512,ProdFawcett_Revision2019,3.2.4,59.971929711620334,
,,,,37,0,37,0,,,,,,,,,,,,,1389.0857580302982,None,,,,,,,,,,,,,,,,,,,,,,estate,D_new,37,119,1386.1514645525021,None,1386.1514645525021,None,1386.1514645525021,None,1,1.446042335475795,1386.1514645525021,None,1387.6518917130306,None,1387.6518917130306,None,1388.1688109698007,None,1388.1688109698007,None,1388.1688109698007,None,n,0.8845783395227045,1388.1688109698007,None,base2,001,2019_Oct_22_1512,ProdFawcett_Revision2019,3.2.4,59.971929711620334,
,,,,38,0,38,0,,,,,,,,,,,,,1395.2541765163187,None,,,,,,,,,,,,,,,,,,,,,,breath,D_new,38,27,1389.6024614521302,None,1389.6024614521302,None,1389.6024614521302,None,4,3.3146184058859944,1389.6024614521302,None,1392.9585606105393,None,1392.9585606105393,None,1393.4869340511505,None,1393.4869340511505,None,1393.4869340511505,None,f,1.7266048374585807,1393.4869340511505,None,base2,001,2019_Oct_22_1512,ProdFawcett_Revision2019,3.2.4,59.971929711620334,
,,,,39,0,39,0,,,,,,,,,,,,,1408.6916373884305,None,,,,,,,,,,,,,,,,,,,,,,guest,B_aloud1,39,146,1395.7709527125116,None,1395.7709527125116,None,1395.7709527125116,None,3,10.825466292328201,1395.7709527125116,None,1406.657620048849,None,1406.657620048849,None,1407.1745781808859,None,1407.1745781808859,None,1407.1745781808859,None,f,1.4695014865137637,1407.1745781808859,None,base2,001,2019_Oct_22_1512,ProdFawcett_Revision2019,3.2.4,59.971929711620334,
,,,,40,0,40,0,,,,,,,,,,,,,1414.476758705452,None,,,,,,,,,,,,,,,,,,,,,,pressure,A_silent,40,232,1409.208862359752,None,1409.208862359752,None,1409.208862359752,None,2,3.1152593176811934,1409.208862359752,None,1412.3640222315444,None,1412.3640222315444,None,1412.8927822470432,None,1412.8927822470432,None,1412.8927822470432,None,n,1.5350092786829919,1412.8927822470432,None,base2,001,2019_Oct_22_1512,ProdFawcett_Revision2019,3.2.4,59.971929711620334,
,,,,41,0,41,0,,,,,,,,,,,,,1419.3616138362559,None,,,,,,,,,,,,,,,,,,,,,,equipment,B_aloud1,41,116,1414.999071660568,None,1414.999071660568,None,1414.999071660568,None,6,2.2287950651952997,1414.999071660568,None,1417.277638777392,None,1417.277638777392,None,1417.7948115004692,None,1417.7948115004692,None,1417.7948115004692,None,r,1.5286682699806988,1417.7948115004692,None,base2,001,2019_Oct_22_1512,ProdFawcett_Revision2019,3.2.4,59.971929711620334,
,,,,42,0,42,0,,,,,,,,,,,,,1426.5469968299149,None,,,,,,,,,,,,,,,,,,,,,,number,D_new,42,203,1419.8783303202363,None,1419.8783303202363,None,1419.8783303202363,None,3,5.164852543384768,1419.8783303202363,None,1425.0853226282634,None,1425.0853226282634,None,1425.613405593438,None,1425.613405593438,None,1425.613405593438,None,f,0.8940480230376124,1425.613405593438,None,base2,001,2019_Oct_22_1512,ProdFawcett_Revision2019,3.2.4,59.971929711620334,
,,,,43,0,43,0,,,,,,,,,,,,,1442.5684944947716,None,,,,,,,,,,,,,,,,,,,,,,angle,D_new,43,7,1427.0638644605642,None,1427.0638644605642,None,1427.0638644605642,None,2,11.690304125193506,1427.0638644605642,None,1438.8173662591726,None,1438.8173662591726,None,1439.3343635774218,None,1439.3343635774218,None,1439.3343635774218,None,f,3.187563735875301,1439.3343635774218,None,base2,001,2019_Oct_22_1512,ProdFawcett_Revision2019,3.2.4,59.971929711620334,
,,,,44,0,44,0,,,,,,,,,,,,,1450.5210879204096,None,,,,,,,,,,,,,,,,,,,,,,command,D_new,44,60,1443.0861878342694,None,1443.0861878342694,None,1443.0861878342694,None,5,4.067717146710493,1443.0861878342694,None,1447.1918658190407,None,1447.1918658190407,None,1447.720078782877,None,1447.720078782877,None,1447.720078782877,None,r,2.753350029932335,1447.720078782877,None,base2,001,2019_Oct_22_1512,ProdFawcett_Revision2019,3.2.4,59.971929711620334,
,,,,45,0,45,0,,,,,,,,,,,,,1455.5059253552463,None,,,,,,,,,,,,,,,,,,,,,,theme,C_aloud2,45,326,1451.0379141877638,None,1451.0379141877638,None,1451.0379141877638,None,6,1.7794187942054123,1451.0379141877638,None,1452.860734168673,None,1452.860734168673,None,1453.3886103179539,None,1453.3886103179539,None,1453.3886103179539,None,r,2.0844906993443146,1453.3886103179539,None,base2,001,2019_Oct_22_1512,ProdFawcett_Revision2019,3.2.4,59.971929711620334,
,,,,46,0,46,0,,,,,,,,,,,,,1459.9239312200807,None,,,,,,,,,,,,,,,,,,,,,,couch,A_silent,46,70,1456.022706838441,None,1456.022706838441,None,1456.022706838441,None,3,1.7070991370128468,1456.022706838441,None,1457.7787084669108,None,1457.7787084669108,None,1458.3067522459896,None,1458.3067522459896,None,1458.3067522459896,None,f,1.5749760761391371,1458.3067522459896,None,base2,001,2019_Oct_22_1512,ProdFawcett_Revision2019,3.2.4,59.971929711620334,
,,,,47,0,47,0,,,,,,,,,,,,,1464.9086249723332,None,,,,,,,,,,,,,,,,,,,,,,thing,B_aloud1,47,328,1460.4405606236542,None,1460.4405606236542,None,1460.4405606236542,None,6,1.5925448596244678,1460.4405606236542,None,1462.091302253306,None,1462.091302253306,None,1462.6079605799168,None,1462.6079605799168,None,1462.6079605799168,None,r,2.264742168947123,1462.6079605799168,None,base2,001,2019_Oct_22_1512,ProdFawcett_Revision2019,3.2.4,59.971929711620334,
,,,,48,0,48,0,,,,,,,,,,,,,1470.0435221660882,None,,,,,,,,,,,,,,,,,,,,,,birth,D_new,48,22,1465.4253604273545,None,1465.4253604273545,None,1465.4253604273545,None,2,1.5434650973184034,1465.4253604273545,None,1467.0260410851333,None,1467.0260410851333,None,1467.5429136917228,None,1467.5429136917228,None,1467.5429136917228,None,n,2.458068761858158,1467.5429136917228,None,base2,001,2019_Oct_22_1512,ProdFawcett_Revision2019,3.2.4,59.971929711620334,
,,,,49,0,49,0,,,,,,,,,,,,,1480.4134882576764,None,,,,,,,,,,,,,,,,,,,,,,point,B_aloud1,49,226,1470.5603953948012,None,1470.5603953948012,None,1470.5603953948012,None,4,4.008379934239201,1470.5603953948012,None,1474.6283784477273,None,1474.6283784477273,None,1475.1451005296549,None,1475.1451005296549,None,1475.1451005296549,None,f,5.230507750296965,1475.1451005296549,None,base2,001,2019_Oct_22_1512,ProdFawcett_Revision2019,3.2.4,59.971929711620334,
,,,,50,0,50,0,,,,,,,,,,,,,1486.4152547458652,None,,,,,,,,,,,,,,,,,,,,,,edition,D_new,50,107,1480.9309212889057,None,1480.9309212889057,None,1480.9309212889057,None,2,3.0124752015108243,1480.9309212889057,None,1483.9978659079643,None,1483.9978659079643,None,1484.5147298065713,None,1484.5147298065713,None,1484.5147298065713,None,n,1.8524002626072615,1484.5147298065713,None,base2,001,2019_Oct_22_1512,ProdFawcett_Revision2019,3.2.4,59.971929711620334,
,,,,51,0,51,0,,,,,,,,,,,,,1492.9004938391736,None,,,,,,,,,,,,,,,,,,,,,,school,B_aloud1,51,274,1486.931916804635,None,1486.931916804635,None,1486.931916804635,None,6,1.8275052178651094,1486.931916804635,None,1488.8160703161266,None,1488.8160703161266,None,1489.3327218007762,None,1489.3327218007762,None,1489.3327218007762,None,r,3.522135373321362,1489.3327218007762,None,base2,001,2019_Oct_22_1512,ProdFawcett_Revision2019,3.2.4,59.971929711620334,
,,,,52,0,52,0,,,,,,,,,,,,,1497.452042797464,None,,,,,,,,,,,,,,,,,,,,,,mayor,A_silent,52,183,1493.4173714218196,None,1493.4173714218196,None,1493.4173714218196,None,1,1.8852522796951234,1493.4173714218196,None,1495.3679576440481,None,1495.3679576440481,None,1495.884863527841,None,1495.884863527841,None,1495.884863527841,None,n,1.529671871685423,1495.884863527841,None,base2,001,2019_Oct_22_1512,ProdFawcett_Revision2019,3.2.4,59.971929711620334,
,,,,53,0,53,0,,,,,,,,,,,,,1502.603565818281,None,,,,,,,,,,,,,,,,,,,,,,under,D_new,53,343,1497.9686638040002,None,1497.9686638040002,None,1497.9686638040002,None,1,2.7902416449505836,1497.9686638040002,None,1500.8196853970876,None,1500.8196853970876,None,1501.3363701588241,None,1501.3363701588241,None,1501.3363701588241,None,n,1.2217263131169602,1501.3363701588241,None,base2,001,2019_Oct_22_1512,ProdFawcett_Revision2019,3.2.4,59.971929711620334,
,,,,54,0,54,0,,,,,,,,,,,,,1506.904897308792,None,,,,,,,,,,,,,,,,,,,,,,atmosphere,C_aloud2,54,12,1503.1217919032788,None,1503.1217919032788,None,1503.1217919032788,None,5,2.212224285467528,1503.1217919032788,None,1505.3876894426066,None,1505.3876894426066,None,1505.9049206339987,None,1505.9049206339987,None,1505.9049206339987,None,r,0.9650244649965316,1505.9049206339987,None,base2,001,2019_Oct_22_1512,ProdFawcett_Revision2019,3.2.4,59.971929711620334,
,,,,55,0,55,0,,,,,,,,,,,,,1513.390022575506,None,,,,,,,,,,,,,,,,,,,,,,treatment,A_silent,55,339,1507.4221543133026,None,1507.4221543133026,None,1507.4221543133026,None,6,4.19975374895148,1507.4221543133026,None,1511.6608009717893,None,1511.6608009717893,None,1512.178298691404,None,1512.178298691404,None,1512.178298691404,None,r,1.1714554153149948,1512.178298691404,None,base2,001,2019_Oct_22_1512,ProdFawcett_Revision2019,3.2.4,59.971929711620334,
,,,,56,0,56,0,,,,,,,,,,,,,1522.5094692169223,None,,,,,,,,,,,,,,,,,,,,,,direction,D_new,56,94,1513.9078561767237,None,1513.9078561767237,None,1513.9078561767237,None,4,4.689868723158725,1513.9078561767237,None,1518.6473367855651,None,1518.6473367855651,None,1519.175076405285,None,1519.175076405285,None,1519.175076405285,None,f,3.3017342374660075,1519.175076405285,None,base2,001,2019_Oct_22_1512,ProdFawcett_Revision2019,3.2.4,59.971929711620334,
,,,,57,0,57,0,,,,,,,,,,,,,1528.2778773155296,None,,,,,,,,,,,,,,,,,,,,,,health,A_silent,57,149,1523.02767695277,None,1523.02767695277,None,1523.02767695277,None,5,3.0493574865395203,1523.02767695277,None,1526.1163639947772,None,1526.1163639947772,None,1526.644181364798,None,1526.644181364798,None,1526.644181364798,None,r,1.6006868778495118,1526.644181364798,None,base2,001,2019_Oct_22_1512,ProdFawcett_Revision2019,3.2.4,59.971929711620334,
,,,,58,0,58,0,,,,,,,,,,,,,1533.9797668670071,None,,,,,,,,,,,,,,,,,,,,,,answer,D_new,58,8,1528.7948111894075,None,1528.7948111894075,None,1528.7948111894075,None,6,3.8338540015975013,1528.7948111894075,None,1532.6792240762152,None,1532.6792240762152,None,1533.1962325904751,None,1533.1962325904751,None,1533.1962325904751,None,r,0.744280916522257,1533.1962325904751,None,base2,001,2019_Oct_22_1512,ProdFawcett_Revision2019,3.2.4,59.971929711620334,
,,,,59,0,59,0,,,,,,,,,,,,,1540.8820610936964,None,,,,,,,,,,,,,,,,,,,,,,shear,C_aloud2,59,283,1534.4976026451914,None,1534.4976026451914,None,1534.4976026451914,None,6,3.4505017852643505,1534.4976026451914,None,1537.997586006648,None,1537.997586006648,None,1538.5144673213363,None,1538.5144673213363,None,1538.5144673213363,None,r,2.329449443379417,1538.5144673213363,None,base2,001,2019_Oct_22_1512,ProdFawcett_Revision2019,3.2.4,59.971929711620334,
,,,,60,0,60,0,,,,,,,,,,,,,1550.8849182641134,None,,,,,,,,,,,,,,,,,,,,,,heavy,D_new,60,151,1541.3986917411676,None,1541.3986917411676,None,1541.3986917411676,None,3,5.093511296669021,1541.3986917411676,None,1546.5501167965122,None,1546.5501167965122,None,1547.0670652876142,None,1547.0670652876142,None,1547.0670652876142,None,n,3.7682886740658432,1547.0670652876142,None,base2,001,2019_Oct_22_1512,ProdFawcett_Revision2019,3.2.4,59.971929711620334,
,,,,61,0,61,0,,,,,,,,,,,,,1555.5028144076932,None,,,,,,,,,,,,,,,,,,,,,,straight,B_aloud1,61,307,1551.401773143676,None,1551.401773143676,None,1551.401773143676,None,6,2.5530451863305643,1551.401773143676,None,1554.0190830494976,None,1554.0190830494976,None,1554.5361033817753,None,1554.5361033817753,None,1554.5361033817753,None,r,0.9232535479823127,1554.5361033817753,None,base2,001,2019_Oct_22_1512,ProdFawcett_Revision2019,3.2.4,59.971929711620334,
,,,,62,0,62,0,,,,,,,,,,,,,1561.8380484782392,None,,,,,,,,,,,,,,,,,,,,,,concern,A_silent,62,65,1556.0198869882151,None,1556.0198869882151,None,1556.0198869882151,None,4,3.302592601394281,1556.0198869882151,None,1559.387409852352,None,1559.387409852352,None,1559.9048444385407,None,1559.9048444385407,None,1559.9048444385407,None,f,1.8976292047882453,1559.9048444385407,None,base2,001,2019_Oct_22_1512,ProdFawcett_Revision2019,3.2.4,59.971929711620334,
,,,,63,0,63,0,,,,,,,,,,,,,1572.5247627135832,None,,,,,,,,,,,,,,,,,,,,,,generation,B_aloud1,63,136,1562.3562204489717,None,1562.3562204489717,None,1562.3562204489717,None,6,2.0301068072440103,1562.3562204489717,None,1564.4261662320932,None,1564.4261662320932,None,1564.9561621673638,None,1564.9561621673638,None,1564.9561621673638,None,r,7.533916419604793,1564.9561621673638,None,base2,001,2019_Oct_22_1512,ProdFawcett_Revision2019,3.2.4,59.971929711620334,
,,,,64,0,64,0,,,,,,,,,,,,,1577.8597557580797,None,,,,,,,,,,,,,,,,,,,,,,people,D_new,64,216,1573.0421410086565,None,1573.0421410086565,None,1573.0421410086565,None,5,2.5032659819116816,1573.0421410086565,None,1575.6089193973457,None,1575.6089193973457,None,1576.1258554483065,None,1576.1258554483065,None,1576.1258554483065,None,r,1.692080254550092,1576.1258554483065,None,base2,001,2019_Oct_22_1512,ProdFawcett_Revision2019,3.2.4,59.971929711620334,
,,,,65,0,65,0,,,,,,,,,,,,,1582.6445200453745,None,,,,,,,,,,,,,,,,,,,,,,attack,A_silent,65,13,1578.3772478796309,None,1578.3772478796309,None,1578.3772478796309,None,5,2.663989358698018,1578.3772478796309,None,1581.0940729652066,None,1581.0940729652066,None,1581.6107813630952,None,1581.6107813630952,None,1581.6107813630952,None,r,0.998450590763241,1581.6107813630952,None,base2,001,2019_Oct_22_1512,ProdFawcett_Revision2019,3.2.4,59.971929711620334,
,,,,66,0,66,0,,,,,,,,,,,,,1587.8126542761456,None,,,,,,,,,,,,,,,,,,,,,,research,B_aloud1,66,261,1583.1619776458247,None,1583.1619776458247,None,1583.1619776458247,None,6,3.262898241286166,1583.1619776458247,None,1586.4789481556509,None,1586.4789481556509,None,1586.9958487524418,None,1586.9958487524418,None,1586.9958487524418,None,r,0.7809949496295303,1586.9958487524418,None,base2,001,2019_Oct_22_1512,ProdFawcett_Revision2019,3.2.4,59.971929711620334,
,,,,67,0,67,0,,,,,,,,,,,,,1591.9305639482336,None,,,,,,,,,,,,,,,,,,,,,,rough,D_new,67,266,1588.3294516204624,None,1588.3294516204624,None,1588.3294516204624,None,2,1.6237806021235883,1588.3294516204624,None,1590.0133799046744,None,1590.0133799046744,None,1590.5302895205095,None,1590.5302895205095,None,1590.5302895205095,None,n,1.3665957687189803,1590.5302895205095,None,base2,001,2019_Oct_22_1512,ProdFawcett_Revision2019,3.2.4,59.971929711620334,
,,,,68,0,68,0,,,,,,,,,,,,,1595.8317699808395,None,,,,,,,,,,,,,,,,,,,,,,subject,B_aloud1,68,312,1592.4530006819405,None,1592.4530006819405,None,1592.4530006819405,None,5,1.9472096792887896,1592.4530006819405,None,1594.455301781767,None,1594.455301781767,None,1594.9844269128516,None,1594.9844269128516,None,1594.9844269128516,None,f,0.8081491090124473,1594.9844269128516,None,base2,001,2019_Oct_22_1512,ProdFawcett_Revision2019,3.2.4,59.971929711620334,
,,,,69,0,69,0,,,,,,,,,,,,,1600.6166210374795,None,,,,,,,,,,,,,,,,,,,,,,sight,A_silent,69,286,1596.348680529627,None,1596.348680529627,None,1596.348680529627,None,1,1.6998235689243302,1596.348680529627,None,1598.099253627588,None,1598.099253627588,None,1598.6159023131477,None,1598.6159023131477,None,1598.6159023131477,None,n,1.9681341684190556,1598.6159023131477,None,base2,001,2019_Oct_22_1512,ProdFawcett_Revision2019,3.2.4,59.971929711620334,
,,,,70,0,70,0,,,,,,,,,,,,,1613.1871525918832,None,,,,,,,,,,,,,,,,,,,,,,right,B_aloud1,70,265,1601.1332725221291,None,1601.1332725221291,None,1601.1332725221291,None,4,9.673931453377008,1601.1332725221291,None,1610.8595125549473,None,1610.8595125549473,None,1611.3865881864913,None,1611.3865881864913,None,1611.3865881864913,None,f,1.7646213448606431,1611.3865881864913,None,base2,001,2019_Oct_22_1512,ProdFawcett_Revision2019,3.2.4,59.971929711620334,
,,,,71,0,71,0,,,,,,,,,,,,,1618.5386694548652,None,,,,,,,,,,,,,,,,,,,,,,length,D_new,71,169,1613.7037997224834,None,1613.7037997224834,None,1613.7037997224834,None,2,2.839220020803623,1613.7037997224834,None,1616.5930869351141,None,1616.5930869351141,None,1617.1215172889642,None,1617.1215172889642,None,1617.1215172889642,None,n,1.37406415771693,1617.1215172889642,None,base2,001,2019_Oct_22_1512,ProdFawcett_Revision2019,3.2.4,59.971929711620334,
,,,,72,0,72,0,,,,,,,,,,,,,1622.8734351572348,None,,,,,,,,,,,,,,,,,,,,,,collection,D_new,72,54,1619.056478486862,None,1619.056478486862,None,1619.056478486862,None,6,1.670041447156109,1619.056478486862,None,1620.7894202901516,None,1620.7894202901516,None,1621.3062468685675,None,1621.3062468685675,None,1621.3062468685675,None,r,1.5322992119472474,1621.3062468685675,None,base2,001,2019_Oct_22_1512,ProdFawcett_Revision2019,3.2.4,59.971929711620334,
,,,,73,0,73,0,,,,,,,,,,,,,1630.2088729337556,None,,,,,,,,,,,,,,,,,,,,,,sleep,D_new,73,290,1623.3901587942382,None,1623.3901587942382,None,1623.3901587942382,None,1,5.48017225752119,1623.3901587942382,None,1628.9252007281175,None,1628.9252007281175,None,1629.4420960377902,None,1629.4420960377902,None,1629.4420960377902,None,n,0.731987650739029,1629.4420960377902,None,base2,001,2019_Oct_22_1512,ProdFawcett_Revision2019,3.2.4,59.971929711620334,
,,,,74,0,74,0,,,,,,,,,,,,,1634.3434376670048,None,,,,,,,,,,,,,,,,,,,,,,character,B_aloud1,74,46,1630.7266735688318,None,1630.7266735688318,None,1630.7266735688318,None,6,1.4312865601386875,1630.7266735688318,None,1632.2096140502254,None,1632.2096140502254,None,1632.7262701998698,None,1632.7262701998698,None,1632.7262701998698,None,r,1.5755778640741482,1632.7262701998698,None,base2,001,2019_Oct_22_1512,ProdFawcett_Revision2019,3.2.4,59.971929711620334,
,,,,75,0,75,0,,,,,,,,,,,,,1640.1285832421854,None,,,,,,,,,,,,,,,,,,,,,,present,D_new,75,231,1634.8468249393627,None,1634.8468249393627,None,1634.8468249393627,None,6,3.871397786657326,1634.8468249393627,None,1638.7782634238247,None,1638.7782634238247,None,1639.294911798439,None,1639.294911798439,None,1639.294911798439,None,r,0.7986539234407246,1639.294911798439,None,base2,001,2019_Oct_22_1512,ProdFawcett_Revision2019,3.2.4,59.971929711620334,
,,,,76,0,76,0,,,,,,,,,,,,,1645.2469102782197,None,,,,,,,,,,,,,,,,,,,,,,commercial,D_new,76,61,1640.645561278332,None,1640.645561278332,None,1640.645561278332,None,5,3.1840655914274976,1640.645561278332,None,1643.8797099227086,None,1643.8797099227086,None,1644.3964839418186,None,1644.3964839418186,None,1644.3964839418186,None,f,0.8170664538629353,1644.3964839418186,None,base2,001,2019_Oct_22_1512,ProdFawcett_Revision2019,3.2.4,59.971929711620334,
,,,,77,0,77,0,,,,,,,,,,,,,1652.3657028834568,None,,,,,,,,,,,,,,,,,,,,,,youth,C_aloud2,77,359,1645.763865611283,None,1645.763865611283,None,1645.763865611283,None,4,5.048942299559712,1645.763865611283,None,1650.8652555078734,None,1650.8652555078734,None,1651.383939387044,None,1651.383939387044,None,1651.383939387044,None,f,0.9489814547123387,1651.383939387044,None,base2,001,2019_Oct_22_1512,ProdFawcett_Revision2019,3.2.4,59.971929711620334,
,,,,78,0,78,0,,,,,,,,,,,,,1655.7500789165497,None,,,,,,,,,,,,,,,,,,,,,,dispute,D_new,78,99,1652.8830292412313,None,1652.8830292412313,None,1652.8830292412313,None,1,1.337375937611796,1652.8830292412313,None,1654.2703069179552,None,1654.2703069179552,None,1654.799663745216,None,1654.799663745216,None,1654.799663745216,None,n,0.9171768905362114,1654.799663745216,None,base2,001,2019_Oct_22_1512,ProdFawcett_Revision2019,3.2.4,59.971929711620334,
,,,,79,0,79,0,,,,,,,,,,,,,1663.1189779620618,None,,,,,,,,,,,,,,,,,,,,,,impact,D_new,79,157,1656.2666744209128,None,1656.2666744209128,None,1656.2666744209128,None,3,2.3617351269349456,1656.2666744209128,None,1658.6842330656946,None,1658.6842330656946,None,1659.2011100263335,None,1659.2011100263335,None,1659.2011100263335,None,f,3.8828880465589464,1659.2011100263335,None,base2,001,2019_Oct_22_1512,ProdFawcett_Revision2019,3.2.4,59.971929711620334,
,,,,80,0,80,0,,,,,,,,,,,,,1669.1208128706785,None,,,,,,,,,,,,,,,,,,,,,,profession,D_new,80,241,1663.6379047334194,None,1663.6379047334194,None,1663.6379047334194,None,2,3.7496568876085803,1663.6379047334194,None,1667.4383932544151,None,1667.4383932544151,None,1667.9537963792682,None,1667.9537963792682,None,1667.9537963792682,None,n,1.129779664799571,1667.9537963792682,None,base2,001,2019_Oct_22_1512,ProdFawcett_Revision2019,3.2.4,59.971929711620334,
,,,,81,0,81,0,,,,,,,,,,,,,1673.4721222956432,None,,,,,,,,,,,,,,,,,,,,,,orchestra,D_new,81,206,1669.6382179118227,None,1669.6382179118227,None,1669.6382179118227,None,1,1.6370799575233832,1669.6382179118227,None,1671.338034327724,None,1671.338034327724,None,1671.8549212403595,None,1671.8549212403595,None,1671.8549212403595,None,n,1.580426687723957,1671.8549212403595,None,base2,001,2019_Oct_22_1512,ProdFawcett_Revision2019,3.2.4,59.971929711620334,
,,,,82,0,82,0,,,,,,,,,,,,,1677.3066393524641,None,,,,,,,,,,,,,,,,,,,,,,express,A_silent,82,124,1673.989327362855,None,1673.989327362855,None,1673.989327362855,None,2,1.910139549523592,1673.989327362855,None,1675.9561369762523,None,1675.9561369762523,None,1676.4730391280027,None,1676.4730391280027,None,1676.4730391280027,None,n,0.7943073670612648,1676.4730391280027,None,base2,001,2019_Oct_22_1512,ProdFawcett_Revision2019,3.2.4,59.971929711620334,
,,,,83,0,83,0,,,,,,,,,,,,,1681.4245760816848,None,,,,,,,,,,,,,,,,,,,,,,crime,C_aloud2,83,78,1677.8236158335349,None,1677.8236158335349,None,1677.8236158335349,None,5,2.3396860564826056,1677.8236158335349,None,1680.2139077363536,None,1680.2139077363536,None,1680.7409982959507,None,1680.7409982959507,None,1680.7409982959507,None,f,0.6457768023246899,1680.7409982959507,None,base2,001,2019_Oct_22_1512,ProdFawcett_Revision2019,3.2.4,59.971929711620334,
,,,,84,0,84,0,,,,,,,,,,,,,1684.9255291456357,None,,,,,,,,,,,,,,,,,,,,,,place,D_new,84,222,1681.94144246832,None,1681.94144246832,None,1681.94144246832,None,5,2.0530714659253135,1681.94144246832,None,1684.058614444919,None,1684.058614444919,None,1684.5755753759295,None,1684.5755753759295,None,1684.5755753759295,None,f,0.3077263025334105,1684.5755753759295,None,base2,001,2019_Oct_22_1512,ProdFawcett_Revision2019,3.2.4,59.971929711620334,
,,,,85,0,85,0,,,,,,,,,,,,,1691.4442574980203,None,,,,,,,,,,,,,,,,,,,,,,personnel,D_new,85,219,1685.4429817700293,None,1685.4429817700293,None,1685.4429817700293,None,2,4.615278755314648,1685.4429817700293,None,1690.1104826462688,None,1690.1104826462688,None,1690.6273309948156,None,1690.6273309948156,None,1690.6273309948156,None,n,0.7831713377963752,1690.6273309948156,None,base2,001,2019_Oct_22_1512,ProdFawcett_Revision2019,3.2.4,59.971929711620334,
,,,,86,0,86,0,,,,,,,,,,,,,1695.4312772300327,None,,,,,,,,,,,,,,,,,,,,,,bicycle,D_new,86,21,1691.9612162520643,None,1691.9612162520643,None,1691.9612162520643,None,1,2.017183452611789,1691.9612162520643,None,1694.016007555998,None,1694.016007555998,None,1694.5450922569726,None,1694.5450922569726,None,1694.5450922569726,None,n,0.8572357132798061,1694.5450922569726,None,base2,001,2019_Oct_22_1512,ProdFawcett_Revision2019,3.2.4,59.971929711620334,
,,,,87,0,87,0,,,,,,,,,,,,,1701.4139407647308,None,,,,,,,,,,,,,,,,,,,,,,individual,A_silent,87,160,1695.9621116252383,None,1695.9621116252383,None,1695.9621116252383,None,3,3.9278047434054315,1695.9621116252383,None,1699.946723273024,None,1699.946723273024,None,1700.463536789408,None,1700.463536789408,None,1700.463536789408,None,f,0.9138948920881376,1700.463536789408,None,base2,001,2019_Oct_22_1512,ProdFawcett_Revision2019,3.2.4,59.971929711620334,
,,,,88,0,88,0,,,,,,,,,,,,,1705.881936382153,None,,,,,,,,,,,,,,,,,,,,,,nature,D_new,88,200,1701.930632990552,None,1701.930632990552,None,1701.930632990552,None,3,2.0545953731052577,1701.930632990552,None,1704.0356700012926,None,1704.0356700012926,None,1704.5647985534742,None,1704.5647985534742,None,1704.5647985534742,None,f,1.2767561553046107,1704.5647985534742,None,base2,001,2019_Oct_22_1512,ProdFawcett_Revision2019,3.2.4,59.971929711620334,
,,,,89,0,89,0,,,,,,,,,,,,,1711.0834214763017,None,,,,,,,,,,,,,,,,,,,,,,beauty,D_new,89,18,1706.399098842172,None,1706.399098842172,None,1706.399098842172,None,1,2.617881215410307,1706.399098842172,None,1709.0661829764722,None,1709.0661829764722,None,1709.5830014687963,None,1709.5830014687963,None,1709.5830014687963,None,n,1.4586562435142696,1709.5830014687963,None,base2,001,2019_Oct_22_1512,ProdFawcett_Revision2019,3.2.4,59.971929711620334,
,,,,90,0,90,0,,,,,,,,,,,,,1716.4184160757577,None,,,,,,,,,,,,,,,,,,,,,,turkey,D_new,90,342,1711.600302168983,None,1711.600302168983,None,1711.600302168983,None,1,3.192827124497853,1711.600302168983,None,1714.8513876418583,None,1714.8513876418583,None,1715.3680409924127,None,1715.3680409924127,None,1715.3680409924127,None,n,1.016919723362662,1715.3680409924127,None,base2,001,2019_Oct_22_1512,ProdFawcett_Revision2019,3.2.4,59.971929711620334,
,,,,91,0,91,0,,,,,,,,,,,,,1721.4367001624778,None,,,,,,,,,,,,,,,,,,,,,,group,A_silent,91,143,1716.9352641132427,None,1716.9352641132427,None,1716.9352641132427,None,1,2.9452954654116184,1716.9352641132427,None,1719.9362232417334,None,1719.9362232417334,None,1720.4530762553914,None,1720.4530762553914,None,1720.4530762553914,None,n,0.9392523961141706,1720.4530762553914,None,base2,001,2019_Oct_22_1512,ProdFawcett_Revision2019,3.2.4,59.971929711620334,
,,,,92,0,92,0,,,,,,,,,,,,,1724.9544183821417,None,,,,,,,,,,,,,,,,,,,,,,bitter,D_new,92,23,1721.9540112812538,None,1721.9540112812538,None,1721.9540112812538,None,1,1.3588667603908107,1721.9540112812538,None,1723.3706493616337,None,1723.3706493616337,None,1723.8872439330444,None,1723.8872439330444,None,1723.8872439330444,None,n,1.0255179806845263,1723.8872439330444,None,base2,001,2019_Oct_22_1512,ProdFawcett_Revision2019,3.2.4,59.971929711620334,
,,,,93,0,93,0,,,,,,,,,,,,,1728.6388974500587,None,,,,,,,,,,,,,,,,,,,,,,death,D_new,93,86,1725.4711441961117,None,1725.4711441961117,None,1725.4711441961117,None,2,1.3450489656534046,1725.4711441961117,None,1726.861805568682,None,1726.861805568682,None,1727.388480630354,None,1727.388480630354,None,1727.388480630354,None,n,1.2031716550700366,1727.388480630354,None,base2,001,2019_Oct_22_1512,ProdFawcett_Revision2019,3.2.4,59.971929711620334,
,,,,94,0,94,0,,,,,,,,,,,,,1733.7071025579935,None,,,,,,,,,,,,,,,,,,,,,,relation,C_aloud2,94,257,1729.155908452347,None,1729.155908452347,None,1729.155908452347,None,5,3.219506384804845,1729.155908452347,None,1732.4400204140693,None,1732.4400204140693,None,1732.9568233564496,None,1732.9568233564496,None,1732.9568233564496,None,f,0.7073616222478449,1732.9568233564496,None,base2,001,2019_Oct_22_1512,ProdFawcett_Revision2019,3.2.4,59.971929711620334,
,,,,95,0,95,0,,,,,,,,,,,,,1738.4252005725866,None,,,,,,,,,,,,,,,,,,,,,,music,D_new,95,196,1734.224232362816,None,1734.224232362816,None,1734.224232362816,None,1,1.479028705158271,1734.224232362816,None,1735.7458726218902,None,1735.7458726218902,None,1736.2745331168408,None,1736.2745331168408,None,1736.2745331168408,None,n,2.117000925820321,1736.2745331168408,None,base2,001,2019_Oct_22_1512,ProdFawcett_Revision2019,3.2.4,59.971929711620334,
,,,,96,0,96,0,,,,,,,,,,,,,1742.9930752414512,None,,,,,,,,,,,,,,,,,,,,,,congress,D_new,96,67,1738.9428009226685,None,1738.9428009226685,None,1738.9428009226685,None,1,2.2569758404279128,1738.9428009226685,None,1741.25929280126,None,1741.25929280126,None,1741.776236627251,None,1741.776236627251,None,1741.776236627251,None,n,1.1753491535782814,1741.776236627251,None,base2,001,2019_Oct_22_1512,ProdFawcett_Revision2019,3.2.4,59.971929711620334,
,,,,97,0,97,0,,,,,,,,,,,,,1746.9276200084714,None,,,,,,,,,,,,,,,,,,,,,,master,D_new,97,180,1743.5099553121254,None,1743.5099553121254,None,1743.5099553121254,None,1,2.0574939067009836,1743.5099553121254,None,1745.6149767728057,None,1745.6149767728057,None,1746.1440841768635,None,1746.1440841768635,None,1746.1440841768635,None,n,0.7505525718443096,1746.1440841768635,None,base2,001,2019_Oct_22_1512,ProdFawcett_Revision2019,3.2.4,59.971929711620334,
,,,,98,0,98,0,,,,,,,,,,,,,1750.9788699388737,None,,,,,,,,,,,,,,,,,,,,,,owner,B_aloud1,98,208,1747.444888519938,None,1747.444888519938,None,1747.444888519938,None,3,2.24233513569925,1747.444888519938,None,1749.7451672705356,None,1749.7451672705356,None,1750.262048585224,None,1750.262048585224,None,1750.262048585224,None,f,0.6727838580263779,1750.262048585224,None,base2,001,2019_Oct_22_1512,ProdFawcett_Revision2019,3.2.4,59.971929711620334,
,,,,99,0,99,0,,,,,,,,,,,,,1758.7980182364117,None,,,,,,,,,,,,,,,,,,,,,,track,C_aloud2,99,334,1751.4959897916997,None,1751.4959897916997,None,1751.4959897916997,None,4,6.013802866800688,1751.4959897916997,None,1757.5516652727965,None,1757.5516652727965,None,1758.0810301860329,None,1758.0810301860329,None,1758.0810301860329,None,f,0.668829474481754,1758.0810301860329,None,base2,001,2019_Oct_22_1512,ProdFawcett_Revision2019,3.2.4,59.971929711620334,
,,,,100,0,100,0,,,,,,,,,,,,,1762.7492361026816,None,,,,,,,,,,,,,,,,,,,,,,material,B_aloud1,100,182,1759.3150889510289,None,1759.3150889510289,None,1759.3150889510289,None,6,2.011251099756919,1759.3150889510289,None,1761.3822808162076,None,1761.3822808162076,None,1761.898864502553,None,1761.898864502553,None,1761.898864502553,None,r,0.8110519966576248,1761.898864502553,None,base2,001,2019_Oct_22_1512,ProdFawcett_Revision2019,3.2.4,59.971929711620334,
,,,,101,0,101,0,,,,,,,,,,,,,1766.6669721737271,None,,,,,,,,,,,,,,,,,,,,,,level,D_new,101,170,1763.2660782311577,None,1763.2660782311577,None,1763.2660782311577,None,6,2.3712097863899544,1763.2660782311577,None,1765.685468052514,None,1765.685468052514,None,1766.2170687551843,None,1766.2170687551843,None,1766.2170687551843,None,r,0.40427390637341887,1766.2170687551843,None,base2,001,2019_Oct_22_1512,ProdFawcett_Revision2019,3.2.4,59.971929711620334,
,,,,102,0,102,0,,,,,,,,,,,,,1773.7859485808294,None,,,,,,,,,,,,,,,,,,,,,,partner,D_new,102,211,1767.1696767979302,None,1767.1696767979302,None,1767.1696767979302,None,4,5.371542557841167,1767.1696767979302,None,1772.602115307469,None,1772.602115307469,None,1773.1189173167804,None,1773.1189173167804,None,1773.1189173167804,None,f,0.6221344714285806,1773.1189173167804,None,base2,001,2019_Oct_22_1512,ProdFawcett_Revision2019,3.2.4,59.971929711620334,
,,,,103,0,103,0,,,,,,,,,,,,,1778.9874765932327,None,,,,,,,,,,,,,,,,,,,,,,revolution,D_new,103,264,1774.3042866264004,None,1774.3042866264004,None,1774.3042866264004,None,5,3.389072466176003,1774.3042866264004,None,1777.753665696364,None,1777.753665696364,None,1778.270533638075,None,1778.270533638075,None,1778.270533638075,None,r,0.6698682194110006,1778.270533638075,None,base2,001,2019_Oct_22_1512,ProdFawcett_Revision2019,3.2.4,59.971929711620334,
,,,,104,0,104,0,,,,,,,,,,,,,1783.2887247353792,None,,,,,,,,,,,,,,,,,,,,,,plane,D_new,104,223,1779.504094178672,None,1779.504094178672,None,1779.504094178672,None,3,2.3643428741488606,1779.504094178672,None,1781.909759505652,None,1781.909759505652,None,1782.4384641627548,None,1782.4384641627548,None,1782.4384641627548,None,f,0.8064482420450076,1782.4384641627548,None,base2,001,2019_Oct_22_1512,ProdFawcett_Revision2019,3.2.4,59.971929711620334,
,,,,105,0,105,0,,,,,,,,,,,,,1789.2739241758827,None,,,,,,,,,,,,,,,,,,,,,,smooth,D_new,105,292,1783.8055880119791,None,1783.8055880119791,None,1783.8055880119791,None,1,3.7023482787190005,1783.8055880119791,None,1787.5733439405449,None,1787.5733439405449,None,1788.0903120245785,None,1788.0903120245785,None,1788.0903120245785,None,n,1.137449582805857,1788.0903120245785,None,base2,001,2019_Oct_22_1512,ProdFawcett_Revision2019,3.2.4,59.971929711620334,
,,,,106,0,106,0,,,,,,,,,,,,,1794.0252993466565,None,,,,,,,,,,,,,,,,,,,,,,discussion,B_aloud1,106,96,1789.7923371727811,None,1789.7923371727811,None,1789.7923371727811,None,4,2.756099904887378,1789.7923371727811,None,1792.6083200975554,None,1792.6083200975554,None,1793.1249289750122,None,1793.1249289750122,None,1793.1249289750122,None,f,0.8545589237473905,1793.1249289750122,None,base2,001,2019_Oct_22_1512,ProdFawcett_Revision2019,3.2.4,59.971929711620334,
,,,,107,0,107,0,,,,,,,,,,,,,1797.926514709252,None,,,,,,,,,,,,,,,,,,,,,,afternoon,C_aloud2,107,3,1794.5424465675605,None,1794.5424465675605,None,1794.5424465675605,None,6,1.6849489911692217,1794.5424465675605,None,1796.2803245859686,None,1796.2803245859686,None,1796.809457181138,None,1796.809457181138,None,1796.809457181138,None,r,1.0747056604595855,1796.809457181138,None,base2,001,2019_Oct_22_1512,ProdFawcett_Revision2019,3.2.4,59.971929711620334,
,,,,108,0,108,0,,,,,,,,,,,,,1801.6276883354876,None,,,,,,,,,,,,,,,,,,,,,,testimony,C_aloud2,108,325,1798.4456573155476,None,1798.4456573155476,None,1798.4456573155476,None,6,1.7014040782814845,1798.4456573155476,None,1800.2105884178309,None,1800.2105884178309,None,1800.7274314793758,None,1800.7274314793758,None,1800.7274314793758,None,r,0.8600135783199221,1800.7274314793758,None,base2,001,2019_Oct_22_1512,ProdFawcett_Revision2019,3.2.4,59.971929711620334,
,,,,109,0,109,0,,,,,,,,,,,,,1805.6955410786904,None,,,,,,,,,,,,,,,,,,,,,,business,D_new,109,38,1802.1450286882464,None,1802.1450286882464,None,1802.1450286882464,None,4,2.3221763633191586,1802.1450286882464,None,1804.5285395153333,None,1804.5285395153333,None,1805.045407456928,None,1805.045407456928,None,1805.045407456928,None,f,0.6134951618732885,1805.045407456928,None,base2,001,2019_Oct_22_1512,ProdFawcett_Revision2019,3.2.4,59.971929711620334,
,,,,110,0,110,0,,,,,,,,,,,,,1809.8634252642514,None,,,,,,,,,,,,,,,,,,,,,,design,D_new,110,91,1806.2135765198618,None,1806.2135765198618,None,1806.2135765198618,None,2,2.2689574827672914,1806.2135765198618,None,1808.5464693714166,None,1808.5464693714166,None,1809.0633342030924,None,1809.0633342030924,None,1809.0633342030924,None,f,0.7553886445239186,1809.0633342030924,None,base2,001,2019_Oct_22_1512,ProdFawcett_Revision2019,3.2.4,59.971929711620334,
,,,,111,0,111,0,,,,,,,,,,,,,1813.6480231658788,None,,,,,,,,,,,,,,,,,,,,,,title,A_silent,111,331,1810.3805482271127,None,1810.3805482271127,None,1810.3805482271127,None,2,1.6537608318030834,1810.3805482271127,None,1812.0860541036818,None,1812.0860541036818,None,1812.6143687649164,None,1812.6143687649164,None,1812.6143687649164,None,f,0.9959050437901169,1812.6143687649164,None,base2,001,2019_Oct_22_1512,ProdFawcett_Revision2019,3.2.4,59.971929711620334,
,,,,112,0,112,0,,,,,,,,,,,,,1817.1657519595465,None,,,,,,,,,,,,,,,,,,,,,,figure,A_silent,112,128,1814.1649676138768,None,1814.1649676138768,None,1814.1649676138768,None,1,1.7812848029425368,1814.1649676138768,None,1815.985771994223,None,1815.985771994223,None,1816.515534989303,None,1816.515534989303,None,1816.515534989303,None,n,0.6146107241511345,1816.515534989303,None,base2,001,2019_Oct_22_1512,ProdFawcett_Revision2019,3.2.4,59.971929711620334,
,,,,113,0,113,0,,,,,,,,,,,,,1820.6667112434516,None,,,,,,,,,,,,,,,,,,,,,,broad,A_silent,113,31,1817.6825371747836,None,1817.6825371747836,None,1817.6825371747836,None,6,1.719306566286832,1817.6825371747836,None,1819.4666241009254,None,1819.4666241009254,None,1819.9833010876318,None,1819.9833010876318,None,1819.9833010876318,None,r,0.6345334775978699,1819.9833010876318,None,base2,001,2019_Oct_22_1512,ProdFawcett_Revision2019,3.2.4,59.971929711620334,
,,,,114,0,114,0,,,,,,,,,,,,,1826.98530642502,None,,,,,,,,,,,,,,,,,,,,,,audience,A_silent,114,14,1821.1843209236395,None,1821.1843209236395,None,1821.1843209236395,None,2,4.297272299532779,1821.1843209236395,None,1825.5253321572673,None,1825.5253321572673,None,1826.0517590397503,None,1826.0517590397503,None,1826.0517590397503,None,f,0.885692035779357,1826.0517590397503,None,base2,001,2019_Oct_22_1512,ProdFawcett_Revision2019,3.2.4,59.971929711620334,
,,,,115,0,115,0,,,,,,,,,,,,,1830.6698763053864,None,,,,,,,,,,,,,,,,,,,,,,season,D_new,115,277,1827.5020123348804,None,1827.5020123348804,None,1827.5020123348804,None,1,1.6921676460187882,1827.5020123348804,None,1829.2527200964978,None,1829.2527200964978,None,1829.7696213152958,None,1829.7696213152958,None,1829.7696213152958,None,n,0.8556412088219076,1829.7696213152958,None,base2,001,2019_Oct_22_1512,ProdFawcett_Revision2019,3.2.4,59.971929711620334,
,,,,116,0,116,0,,,,,,,,,,,,,1835.6714067435823,None,,,,,,,,,,,,,,,,,,,,,,trial,D_new,116,341,1831.186517837923,None,1831.186517837923,None,1831.186517837923,None,1,3.094861975987442,1831.186517837923,None,1834.3376757430378,None,1834.3376757430378,None,1834.8543493087636,None,1834.8543493087636,None,1834.8543493087636,None,n,0.7704681722680107,1834.8543493087636,None,base2,001,2019_Oct_22_1512,ProdFawcett_Revision2019,3.2.4,59.971929711620334,
,,,,117,0,117,0,,,,,,,,,,,,,1839.6893222936196,None,,,,,,,,,,,,,,,,,,,,,,store,D_new,117,305,1836.1883869566955,None,1836.1883869566955,None,1836.1883869566955,None,6,1.8683148293057457,1836.1883869566955,None,1838.1220114703756,None,1838.1220114703756,None,1838.6389686693437,None,1838.6389686693437,None,1838.6389686693437,None,r,1.017695049988106,1838.6389686693437,None,base2,001,2019_Oct_22_1512,ProdFawcett_Revision2019,3.2.4,59.971929711620334,
,,,,118,0,118,0,,,,,,,,,,,,,1844.7074962857878,None,,,,,,,,,,,,,,,,,,,,,,review,D_new,118,263,1840.2061078198021,None,1840.2061078198021,None,1840.2061078198021,None,3,2.362556792679243,1840.2061078198021,None,1842.6113212616183,None,1842.6113212616183,None,1843.1235048993258,None,1843.1235048993258,None,1843.1235048993258,None,f,1.541557103395462,1843.1235048993258,None,base2,001,2019_Oct_22_1512,ProdFawcett_Revision2019,3.2.4,59.971929711620334,
,,,,119,0,119,0,,,,,,,,,,,,,1849.5589610560564,None,,,,,,,,,,,,,,,,,,,,,,skill,C_aloud2,119,289,1845.2250213734806,None,1845.2250213734806,None,1845.2250213734806,None,5,2.023923165164888,1845.2250213734806,None,1847.308196536731,None,1847.308196536731,None,1847.825097133522,None,1847.825097133522,None,1847.825097133522,None,r,1.6868230858817697,1847.825097133522,None,base2,001,2019_Oct_22_1512,ProdFawcett_Revision2019,3.2.4,59.971929711620334,
,,,,120,0,120,0,,,,,,,,,,,,,1856.211009824765,None,,,,,,,,,,,,,,,,,,,,,,touch,D_new,120,332,1850.075699621113,None,1850.075699621113,None,1850.075699621113,None,5,4.251904650707729,1850.075699621113,None,1854.376966423355,None,1854.376966423355,None,1854.893783049658,None,1854.893783049658,None,1854.893783049658,None,f,1.2819937308086082,1854.893783049658,None,base2,001,2019_Oct_22_1512,ProdFawcett_Revision2019,3.2.4,59.971929711620334,
,,,,121,0,121,0,,,,,,,,,,,,,1863.729915136937,None,,,,,,,,,,,,,,,,,,,,,,clean,C_aloud2,121,51,1856.7280279801926,None,1856.7280279801926,None,1856.7280279801926,None,2,4.967678240383975,1856.7280279801926,None,1861.7338645445416,None,1861.7338645445416,None,1862.2626923582284,None,1862.2626923582284,None,1862.2626923582284,None,n,1.4326325745787472,1862.2626923582284,None,base2,001,2019_Oct_22_1512,ProdFawcett_Revision2019,3.2.4,59.971929711620334,
,,,,122,0,122,0,,,,,,,,,,,,,1868.8980204445543,None,,,,,,,,,,,,,,,,,,,,,,background,D_new,122,16,1864.2483141388511,None,1864.2483141388511,None,1864.2483141388511,None,1,2.302529157139361,1864.2483141388511,None,1866.6031997696264,None,1866.6031997696264,None,1867.1308134335559,None,1867.1308134335559,None,1867.1308134335559,None,n,1.7247562449192628,1867.1308134335559,None,base2,001,2019_Oct_22_1512,ProdFawcett_Revision2019,3.2.4,59.971929711620334,
,,,,123,0,123,0,,,,,,,,,,,,,1876.1669474490918,None,,,,,,,,,,,,,,,,,,,,,,ground,D_new,123,142,1869.416201434331,None,1869.416201434331,None,1869.416201434331,None,1,5.31817066448275,1869.416201434331,None,1874.78805468278,None,1874.78805468278,None,1875.3166672834195,None,1875.3166672834195,None,1875.3166672834195,None,n,0.8175491282017902,1875.3166672834195,None,base2,001,2019_Oct_22_1512,ProdFawcett_Revision2019,3.2.4,59.971929711620334,
,,,,124,0,124,0,,,,,,,,,,,,,1879.584751474089,None,,,,,,,,,,,,,,,,,,,,,,novel,B_aloud1,124,202,1876.6731545716757,None,1876.6731545716757,None,1876.6731545716757,None,5,1.5570266270078719,1876.6731545716757,None,1878.2843181557255,None,1878.2843181557255,None,1878.8010349506512,None,1878.8010349506512,None,1878.8010349506512,None,f,0.7417698906501755,1878.8010349506512,None,base2,001,2019_Oct_22_1512,ProdFawcett_Revision2019,3.2.4,59.971929711620334,
,,,,125,0,125,0,,,,,,,,,,,,,1886.3701352762291,None,,,,,,,,,,,,,,,,,,,,,,minute,C_aloud2,125,192,1880.1017646533437,None,1880.1017646533437,None,1880.1017646533437,None,2,3.6005173820303753,1880.1017646533437,None,1883.7525796793634,None,1883.7525796793634,None,1884.2695091991918,None,1884.2695091991918,None,1884.2695091991918,None,n,2.0569204199127853,1884.2695091991918,None,base2,001,2019_Oct_22_1512,ProdFawcett_Revision2019,3.2.4,59.971929711620334,
,,,,126,0,126,0,,,,,,,,,,,,,1889.6543159693247,None,,,,,,,,,,,,,,,,,,,,,,tragedy,A_silent,126,335,1886.8879838055,None,1886.8879838055,None,1886.8879838055,None,1,1.3579384210752323,1886.8879838055,None,1888.3039656728506,None,1888.3039656728506,None,1888.8207412470365,None,1888.8207412470365,None,1888.8207412470365,None,n,0.7931523077422753,1888.8207412470365,None,base2,001,2019_Oct_22_1512,ProdFawcett_Revision2019,3.2.4,59.971929711620334,
,,,,127,0,127,0,,,,,,,,,,,,,1898.1903957150644,None,,,,,,,,,,,,,,,,,,,,,,scale,A_silent,127,272,1890.1711011845618,None,1890.1711011845618,None,1890.1711011845618,None,5,6.6738110958831385,1890.1711011845618,None,1896.8946849539643,None,1896.8946849539643,None,1897.423366285977,None,1897.423366285977,None,1897.423366285977,None,f,0.7262985011329874,1897.423366285977,None,base2,001,2019_Oct_22_1512,ProdFawcett_Revision2019,3.2.4,59.971929711620334,
,,,,128,0,128,0,,,,,,,,,,,,,1902.6750806038035,None,,,,,,,,,,,,,,,,,,,,,,addition,C_aloud2,128,2,1898.7077597040916,None,1898.7077597040916,None,1898.7077597040916,None,6,1.6092555900104344,1898.7077597040916,None,1900.3743695610901,None,1900.3743695610901,None,1900.8912135555875,None,1900.8912135555875,None,1900.8912135555875,None,r,1.7454082967014983,1900.8912135555875,None,base2,001,2019_Oct_22_1512,ProdFawcett_Revision2019,3.2.4,59.971929711620334,
,,,,129,0,129,0,,,,,,,,,,,,,1906.392744460376,None,,,,,,,,,,,,,,,,,,,,,,society,B_aloud1,129,293,1903.196595840156,None,1903.196595840156,None,1903.196595840156,None,6,2.1206156958360225,1903.196595840156,None,1905.3757668907056,None,1905.3757668907056,None,1905.8927119607106,None,1905.8927119607106,None,1905.8927119607106,None,r,0.4636901131598279,1905.8927119607106,None,base2,001,2019_Oct_22_1512,ProdFawcett_Revision2019,3.2.4,59.971929711620334,
,,,,130,0,130,0,,,,,,,,,,,,,1911.2109560215613,None,,,,,,,,,,,,,,,,,,,,,,cousin,A_silent,130,76,1906.9095461586257,None,1906.9095461586257,None,1906.9095461586257,None,5,2.2147685885429382,1906.9095461586257,None,1909.1636278195074,None,1909.1636278195074,None,1909.6937490883283,None,1909.6937490883283,None,1909.6937490883283,None,f,1.4784869406139478,1909.6937490883283,None,base2,001,2019_Oct_22_1512,ProdFawcett_Revision2019,3.2.4,59.971929711620334,
,,,,131,0,131,0,,,,,,,,,,,,,1923.1479318869533,None,,,,,,,,,,,,,,,,,,,,,,portion,A_silent,131,228,1911.7287964647403,None,1911.7287964647403,None,1911.7287964647403,None,4,9.138577585108578,1911.7287964647403,None,1920.9201155431801,None,1920.9201155431801,None,1921.4474132297328,None,1921.4474132297328,None,1921.4474132297328,None,f,1.6602641833014786,1921.4474132297328,None,base2,001,2019_Oct_22_1512,ProdFawcett_Revision2019,3.2.4,59.971929711620334,
,,,,132,0,132,0,,,,,,,,,,,,,1926.5156578349415,None,,,,,,,,,,,,,,,,,,,,,,vision,B_aloud1,132,347,1923.6647485132562,None,1923.6647485132562,None,1923.6647485132562,None,5,1.8912297277711332,1923.6647485132562,None,1925.6037919163937,None,1925.6037919163937,None,1926.13205588446,None,1926.13205588446,None,1926.13205588446,None,r,0.3350418717600405,1926.13205588446,None,base2,001,2019_Oct_22_1512,ProdFawcett_Revision2019,3.2.4,59.971929711620334,
,,,,133,0,133,0,,,,,,,,,,,,,1931.5505251415307,None,,,,,,,,,,,,,,,,,,,,,,column,D_new,133,57,1927.0323202045402,None,1927.0323202045402,None,1927.0323202045402,None,1,3.459324585623108,1927.0323202045402,None,1930.5501665568445,None,1930.5501665568445,None,1931.0670428954763,None,1931.0670428954763,None,1931.0670428954763,None,n,0.44043777813203633,1931.0670428954763,None,base2,001,2019_Oct_22_1512,ProdFawcett_Revision2019,3.2.4,59.971929711620334,
,,,,134,0,134,0,,,,,,,,,,,,,1936.304823103943,None,,,,,,,,,,,,,,,,,,,,,,junior,C_aloud2,134,167,1932.0705805370817,None,1932.0705805370817,None,1932.0705805370817,None,6,1.8365634463261813,1932.0705805370817,None,1933.9565702012042,None,1933.9565702012042,None,1934.4702985831536,None,1934.4702985831536,None,1934.4702985831536,None,r,1.8122434433316812,1934.4702985831536,None,base2,001,2019_Oct_22_1512,ProdFawcett_Revision2019,3.2.4,59.971929711620334,
,,,,135,0,135,0,,,,,,,,,,,,,1941.0534001945052,None,,,,,,,,,,,,,,,,,,,,,,private,D_new,135,237,1936.835395013797,None,1936.835395013797,None,1936.835395013797,None,4,3.007578483549878,1936.835395013797,None,1939.9031874227803,None,1939.9031874227803,None,1940.419757736032,None,1940.419757736032,None,1940.419757736032,None,f,0.5985468768049031,1940.419757736032,None,base2,001,2019_Oct_22_1512,ProdFawcett_Revision2019,3.2.4,59.971929711620334,
,,,,136,0,136,0,,,,,,,,,,,,,1950.0561419833684,None,,,,,,,,,,,,,,,,,,,,,,account,D_new,136,1,1941.5717447709758,None,1941.5717447709758,None,1941.5717447709758,None,2,2.582727787666954,1941.5717447709758,None,1944.2042925043497,None,1944.2042925043497,None,1944.7211990101496,None,1944.7211990101496,None,1944.7211990101496,None,r,5.288297419319861,1944.7211990101496,None,base2,001,2019_Oct_22_1512,ProdFawcett_Revision2019,3.2.4,59.971929711620334,
,,,,137,0,137,0,,,,,,,,,,,,,1955.0743284156779,None,,,,,,,,,,,,,,,,,,,,,,distance,B_aloud1,137,100,1950.573512814357,None,1950.573512814357,None,1950.573512814357,None,5,3.23589491751045,1950.573512814357,None,1953.862178148469,None,1953.862178148469,None,1954.3906623055227,None,1954.3906623055227,None,1954.3906623055227,None,r,0.650815958972089,1954.3906623055227,None,base2,001,2019_Oct_22_1512,ProdFawcett_Revision2019,3.2.4,59.971929711620334,
,,,,138,0,138,0,,,,,,,,,,,,,1958.9755014820257,None,,,,,,,,,,,,,,,,,,,,,,mechanical,C_aloud2,138,185,1955.5941913012648,None,1955.5941913012648,None,1955.5941913012648,None,6,2.087620617938228,1955.5941913012648,None,1957.7301614501048,None,1957.7301614501048,None,1958.2588679733453,None,1958.2588679733453,None,1958.2588679733453,None,r,0.6700812552589923,1958.2588679733453,None,base2,001,2019_Oct_22_1512,ProdFawcett_Revision2019,3.2.4,59.971929711620334,
,,,,139,0,139,0,,,,,,,,,,,,,1963.0100540551357,None,,,,,,,,,,,,,,,,,,,,,,principal,A_silent,139,236,1959.4932884329464,None,1959.4932884329464,None,1959.4932884329464,None,6,2.019488906371407,1959.4932884329464,None,1961.576243407093,None,1961.576243407093,None,1962.0930494595086,None,1962.0930494595086,None,1962.0930494595086,None,r,0.8838443760760128,1962.0930494595086,None,base2,001,2019_Oct_22_1512,ProdFawcett_Revision2019,3.2.4,59.971929711620334,
,,,,140,0,140,0,,,,,,,,,,,,,1968.3616984286346,None,,,,,,,,,,,,,,,,,,,,,,waste,D_new,140,350,1963.5268047491554,None,1963.5268047491554,None,1963.5268047491554,None,2,3.2977922939462587,1963.5268047491554,None,1966.8778722151183,None,1966.8778722151183,None,1967.3947423336795,None,1967.3947423336795,None,1967.3947423336795,None,f,0.9176101154880598,1967.3947423336795,None,base2,001,2019_Oct_22_1512,ProdFawcett_Revision2019,3.2.4,59.971929711620334,
,,,,141,0,141,0,,,,,,,,,,,,,1974.3800982079701,None,,,,,,,,,,,,,,,,,,,,,,colonel,D_new,141,55,1968.8791339480085,None,1968.8791339480085,None,1968.8791339480085,None,1,3.401230135234073,1968.8791339480085,None,1972.329448510427,None,1972.329448510427,None,1972.8464091304922,None,1972.8464091304922,None,1972.8464091304922,None,n,1.4897762935142964,1972.8464091304922,None,base2,001,2019_Oct_22_1512,ProdFawcett_Revision2019,3.2.4,59.971929711620334,
,,,,142,0,142,0,,,,,,,,,,,,,1982.349185285042,None,,,,,,,,,,,,,,,,,,,,,,guide,B_aloud1,142,147,1974.8973953316454,None,1974.8973953316454,None,1974.8973953316454,None,6,5.934626560425386,1974.8973953316454,None,1980.882043055608,None,1980.882043055608,None,1981.3990080297226,None,1981.3990080297226,None,1981.3990080297226,None,r,0.9044146346859634,1981.3990080297226,None,base2,001,2019_Oct_22_1512,ProdFawcett_Revision2019,3.2.4,59.971929711620334,
,,,,143,0,143,0,,,,,,,,,,,,,1986.9173361231806,None,,,,,,,,,,,,,,,,,,,,,,division,A_silent,143,101,1982.867155415821,None,1982.867155415821,None,1982.867155415821,None,5,2.4765291863586754,1982.867155415821,None,1985.3881923320005,None,1985.3881923320005,None,1985.9168248367496,None,1985.9168248367496,None,1985.9168248367496,None,r,0.9543673780281097,1985.9168248367496,None,base2,001,2019_Oct_22_1512,ProdFawcett_Revision2019,3.2.4,59.971929711620334,
,,,,144,0,144,0,,,,,,,,,,,,,1993.152422747924,None,,,,,,,,,,,,,,,,,,,,,,entrance,D_new,144,115,1987.4343608095078,None,1987.4343608095078,None,1987.4343608095078,None,5,4.236647541052662,1987.4343608095078,None,1991.7220872303005,None,1991.7220872303005,None,1992.252154384856,None,1992.252154384856,None,1992.252154384856,None,r,0.8671498177573085,1992.252154384856,None,base2,001,2019_Oct_22_1512,ProdFawcett_Revision2019,3.2.4,59.971929711620334,
,,,,145,0,145,0,,,,,,,,,,,,,1997.75396830088,None,,,,,,,,,,,,,,,,,,,,,,reading,D_new,145,254,1993.670199746848,None,1993.670199746848,None,1993.670199746848,None,3,2.8410810534842312,1993.670199746848,None,1996.540622855071,None,1996.540622855071,None,1997.070398290176,None,1997.070398290176,None,1997.070398290176,None,f,0.6483391433721408,1997.070398290176,None,base2,001,2019_Oct_22_1512,ProdFawcett_Revision2019,3.2.4,59.971929711620334,
,,,,146,0,146,0,,,,,,,,,,,,,2004.6227098241216,None,,,,,,,,,,,,,,,,,,,,,,institute,D_new,146,162,1998.2709690401098,None,1998.2709690401098,None,1998.2709690401098,None,3,5.063212290522642,1998.2709690401098,None,2003.3889496205375,None,2003.3889496205375,None,2003.9058209831128,None,2003.9058209831128,None,2003.9058209831128,None,f,0.6764642492635176,2003.9058209831128,None,base2,001,2019_Oct_22_1512,ProdFawcett_Revision2019,3.2.4,59.971929711620334,
,,,,147,0,147,0,,,,,,,,,,,,,2008.1404355077539,None,,,,,,,,,,,,,,,,,,,,,,running,D_new,147,268,2005.140057018958,None,2005.140057018958,None,2005.140057018958,None,1,1.8339808902237564,2005.140057018958,None,2007.039971462451,None,2007.039971462451,None,2007.5569211974507,None,2007.5569211974507,None,2007.5569211974507,None,n,0.5368541394127533,2007.5569211974507,None,base2,001,2019_Oct_22_1512,ProdFawcett_Revision2019,3.2.4,59.971929711620334,
,,,,148,0,148,0,,,,,,,,,,,,,2011.7582622979535,None,,,,,,,,,,,,,,,,,,,,,,universal,D_new,148,345,2008.6581241822569,None,2008.6581241822569,None,2008.6581241822569,None,5,1.731906479340978,2008.6581241822569,None,2010.4411086081527,None,2010.4411086081527,None,2010.9579765498638,None,2010.9579765498638,None,2010.9579765498638,None,f,0.7600729485275224,2010.9579765498638,None,base2,001,2019_Oct_22_1512,ProdFawcett_Revision2019,3.2.4,59.971929711620334,
,,,,149,0,149,0,,,,,,,,,,,,,2015.6093479574192,None,,,,,,,,,,,,,,,,,,,,,,object,A_silent,149,204,2012.2805046557914,None,2012.2805046557914,None,2012.2805046557914,None,4,1.6537661189213395,2012.2805046557914,None,2013.9922330494737,None,2013.9922330494737,None,2014.5114024019567,None,2014.5114024019567,None,2014.5114024019567,None,f,1.0547791748540476,2014.5114024019567,None,base2,001,2019_Oct_22_1512,ProdFawcett_Revision2019,3.2.4,59.971929711620334,
,,,,150,0,150,0,,,,,,,,,,,,,2019.2270369740436,None,,,,,,,,,,,,,,,,,,,,,,machinery,D_new,150,175,2016.1272135917097,None,2016.1272135917097,None,2016.1272135917097,None,1,1.478072997648269,2016.1272135917097,None,2017.6599911239464,None,2017.6599911239464,None,2018.176808061311,None,2018.176808061311,None,2018.176808061311,None,n,1.0123598199570552,2018.176808061311,None,base2,001,2019_Oct_22_1512,ProdFawcett_Revision2019,3.2.4,59.971929711620334,
,,,,151,0,151,0,,,,,,,,,,,,,2029.6635203685146,None,,,,,,,,,,,,,,,,,,,,,,platform,D_new,151,224,2019.7450711710844,None,2019.7450711710844,None,2019.7450711710844,None,4,8.827831458300352,2019.7450711710844,None,2028.6180233431514,None,2028.6180233431514,None,2029.1466791729908,None,2029.1466791729908,None,2029.1466791729908,None,f,0.47442339546978474,2029.1466791729908,None,base2,001,2019_Oct_22_1512,ProdFawcett_Revision2019,3.2.4,59.971929711620334,
,,,,152,0,152,0,,,,,,,,,,,,,2033.8815445202636,None,,,,,,,,,,,,,,,,,,,,,,speech,A_silent,152,298,2030.1808837355347,None,2030.1808837355347,None,2030.1808837355347,None,6,1.7598421854199842,2030.1808837355347,None,2031.9975611264817,None,2031.9975611264817,None,2032.5145391626284,None,2032.5145391626284,None,2032.5145391626284,None,r,1.321601010626182,2032.5145391626284,None,base2,001,2019_Oct_22_1512,ProdFawcett_Revision2019,3.2.4,59.971929711620334,
