StudyTrials.thisRepN,StudyTrials.thisTrialN,StudyTrials.thisN,StudyTrials.thisIndex,TestTrials.thisRepN,TestTrials.thisTrialN,TestTrials.thisN,TestTrials.thisIndex,textWelcome.started,textWelcome.stopped,keyWelcome.keys,keyWelcome.rt,keyWelcome.started,keyWelcome.stopped,textReady.started,textReady.stopped,keyReady.keys,keyReady.rt,keyReady.started,keyReady.stopped,polyback_2.started,polyback_2.stopped,studyPic,studyWord,studyType,studyN,studyOrder,polyback_3.started,polyback_3.stopped,studyPicChoice.started,studyPicChoice.stopped,polyback_4.started,polyback_4.stopped,polyback.started,polyback.stopped,studyWords.started,studyWords.stopped,getResearcher.started,getResearcher.stopped,kPress2.keys,kPress2.rt,kPress2.started,kPress2.stopped,testWord,testType,testN,testOrder,polyback_5.started,polyback_5.stopped,testWords.started,testWords.stopped,textScale.started,textScale.stopped,keyConf.keys,keyConf.rt,keyConf.started,keyConf.stopped,polyback_6.started,polyback_6.stopped,studyWords_2.started,studyWords_2.stopped,polyback_7.started,polyback_7.stopped,testWords_2.started,testWords_2.stopped,textScale_2.started,textScale_2.stopped,keyRKN.keys,keyRKN.rt,keyRKN.started,keyRKN.stopped,participant,session,date,expName,psychopyVersion,frameRate,
,,,,,,,,14.90233185782563,None,space,2911.051204524236,14.90233185782563,None,,,,,,,,,,,,,,,,,,,,,,,,,,,,,,,,,,,,,,,,,,,,,,,,,,,,,,,,,,base1,001,2019_Oct_22_1332,ProdFawcett_Revision2019,3.2.4,59.96141710308501,
,,,,,,,,,,,,,,2925.9851826464874,None,space,17.28745647147298,2925.9851826464874,None,,,,,,,,,,,,,,,,,,,,,,,,,,,,,,,,,,,,,,,,,,,,,,,,,,,,base1,001,2019_Oct_22_1332,ProdFawcett_Revision2019,3.2.4,59.96141710308501,
0,0,0,0,,,,,,,,,,,,,,,,,2948.0752306308714,None,materials/mumblePic.jpg,school,C_aloud2,0,274,2944.4478231297107,None,2944.4478231297107,None,2945.325195254467,None,2945.5910470765666,None,2945.5910470765666,None,,,,,,,,,,,,,,,,,,,,,,,,,,,,,,,,,,,base1,001,2019_Oct_22_1332,ProdFawcett_Revision2019,3.2.4,59.96141710308501,
1,0,1,0,,,,,,,,,,,,,,,,,2952.3431845118757,None,materials/speakPic.jpg,expansion,B_aloud1,1,123,2948.697807035409,None,2948.697807035409,None,2949.5925122044864,None,2949.8590494737728,None,2949.8590494737728,None,,,,,,,,,,,,,,,,,,,,,,,,,,,,,,,,,,,base1,001,2019_Oct_22_1332,ProdFawcett_Revision2019,3.2.4,59.96141710308501,
2,0,2,0,,,,,,,,,,,,,,,,,2956.6111806890112,None,materials/mumblePic.jpg,guide,C_aloud2,2,147,2952.9277552940766,None,2952.9277552940766,None,2953.860350703879,None,2954.1271747165592,None,2954.1271747165592,None,,,,,,,,,,,,,,,,,,,,,,,,,,,,,,,,,,,base1,001,2019_Oct_22_1332,ProdFawcett_Revision2019,3.2.4,59.96141710308501,
3,0,3,0,,,,,,,,,,,,,,,,,2960.879110000911,None,materials/readPic.jpg,second,A_silent,3,278,2957.2116787889972,None,2957.2116787889972,None,2958.1288261343143,None,2958.3949407526525,None,2958.3949407526525,None,,,,,,,,,,,,,,,,,,,,,,,,,,,,,,,,,,,base1,001,2019_Oct_22_1332,ProdFawcett_Revision2019,3.2.4,59.96141710308501,
4,0,4,0,,,,,,,,,,,,,,,,,2965.1470999580342,None,materials/speakPic.jpg,quiet,B_aloud1,4,249,2961.4664256820106,None,2961.4664256820106,None,2962.3963066710858,None,2962.6629574559047,None,2962.6629574559047,None,,,,,,,,,,,,,,,,,,,,,,,,,,,,,,,,,,,base1,001,2019_Oct_22_1332,ProdFawcett_Revision2019,3.2.4,59.96141710308501,
5,0,5,0,,,,,,,,,,,,,,,,,2969.4150557050016,None,materials/readPic.jpg,angle,A_silent,5,7,2965.751566747611,None,2965.751566747611,None,2966.6643146662973,None,2966.9308684187126,None,2966.9308684187126,None,,,,,,,,,,,,,,,,,,,,,,,,,,,,,,,,,,,base1,001,2019_Oct_22_1332,ProdFawcett_Revision2019,3.2.4,59.96141710308501,
6,0,6,0,,,,,,,,,,,,,,,,,2973.6830294900574,None,materials/readPic.jpg,number,A_silent,6,203,2969.9982160956133,None,2969.9982160956133,None,2970.9325251234695,None,2971.198814835632,None,2971.198814835632,None,,,,,,,,,,,,,,,,,,,,,,,,,,,,,,,,,,,base1,001,2019_Oct_22_1332,ProdFawcett_Revision2019,3.2.4,59.96141710308501,
7,0,7,0,,,,,,,,,,,,,,,,,2977.950970619975,None,materials/readPic.jpg,court,A_silent,7,75,2974.2576973638497,None,2974.2576973638497,None,2975.200461899338,None,2975.4667935967445,None,2975.4667935967445,None,,,,,,,,,,,,,,,,,,,,,,,,,,,,,,,,,,,base1,001,2019_Oct_22_1332,ProdFawcett_Revision2019,3.2.4,59.96141710308501,
8,0,8,0,,,,,,,,,,,,,,,,,2982.2189584001317,None,materials/speakPic.jpg,alert,B_aloud1,8,6,2978.536228093435,None,2978.536228093435,None,2979.4682223374257,None,2979.7347664487897,None,2979.7347664487897,None,,,,,,,,,,,,,,,,,,,,,,,,,,,,,,,,,,,base1,001,2019_Oct_22_1332,ProdFawcett_Revision2019,3.2.4,59.96141710308501,
9,0,9,0,,,,,,,,,,,,,,,,,2986.4869262761786,None,materials/speakPic.jpg,chief,B_aloud1,9,48,2982.802079604531,None,2982.802079604531,None,2983.736039999756,None,2984.002709755674,None,2984.002709755674,None,,,,,,,,,,,,,,,,,,,,,,,,,,,,,,,,,,,base1,001,2019_Oct_22_1332,ProdFawcett_Revision2019,3.2.4,59.96141710308501,
10,0,10,0,,,,,,,,,,,,,,,,,2990.754879224114,None,materials/speakPic.jpg,goose,B_aloud1,10,138,2987.054560229939,None,2987.054560229939,None,2988.0043981826166,None,2988.270673588733,None,2988.270673588733,None,,,,,,,,,,,,,,,,,,,,,,,,,,,,,,,,,,,base1,001,2019_Oct_22_1332,ProdFawcett_Revision2019,3.2.4,59.96141710308501,
11,0,11,0,,,,,,,,,,,,,,,,,2995.0228984153946,None,materials/readPic.jpg,salary,A_silent,11,271,2991.34544113843,None,2991.34544113843,None,2992.272288619308,None,2992.5386287136935,None,2992.5386287136935,None,,,,,,,,,,,,,,,,,,,,,,,,,,,,,,,,,,,base1,001,2019_Oct_22_1332,ProdFawcett_Revision2019,3.2.4,59.96141710308501,
12,0,12,0,,,,,,,,,,,,,,,,,2999.2907928950735,None,materials/speakPic.jpg,owner,B_aloud1,12,208,2995.627255421423,None,2995.627255421423,None,2996.5402729784255,None,2996.806625823898,None,2996.806625823898,None,,,,,,,,,,,,,,,,,,,,,,,,,,,,,,,,,,,base1,001,2019_Oct_22_1332,ProdFawcett_Revision2019,3.2.4,59.96141710308501,
13,0,13,0,,,,,,,,,,,,,,,,,3003.558748020092,None,materials/mumblePic.jpg,quick,C_aloud2,13,248,2999.875315472076,None,2999.875315472076,None,3000.808363389049,None,3001.07468046929,None,3001.07468046929,None,,,,,,,,,,,,,,,,,,,,,,,,,,,,,,,,,,,base1,001,2019_Oct_22_1332,ProdFawcett_Revision2019,3.2.4,59.96141710308501,
14,0,14,0,,,,,,,,,,,,,,,,,3007.8267246041796,None,materials/speakPic.jpg,entrance,B_aloud1,14,115,3004.1426324220956,None,3004.1426324220956,None,3005.075973924366,None,3005.342550690868,None,3005.342550690868,None,,,,,,,,,,,,,,,,,,,,,,,,,,,,,,,,,,,base1,001,2019_Oct_22_1332,ProdFawcett_Revision2019,3.2.4,59.96141710308501,
15,0,15,0,,,,,,,,,,,,,,,,,3012.094671021099,None,materials/mumblePic.jpg,beginning,C_aloud2,15,19,3008.38217476476,None,3008.38217476476,None,3009.3442481368547,None,3009.6104762707255,None,3009.6104762707255,None,,,,,,,,,,,,,,,,,,,,,,,,,,,,,,,,,,,base1,001,2019_Oct_22_1332,ProdFawcett_Revision2019,3.2.4,59.96141710308501,
16,0,16,0,,,,,,,,,,,,,,,,,3016.362646672176,None,materials/readPic.jpg,dozen,A_silent,16,102,3012.6974381876644,None,3012.6974381876644,None,3013.6123136673705,None,3013.878551753296,None,3013.878551753296,None,,,,,,,,,,,,,,,,,,,,,,,,,,,,,,,,,,,base1,001,2019_Oct_22_1332,ProdFawcett_Revision2019,3.2.4,59.96141710308501,
17,0,17,0,,,,,,,,,,,,,,,,,3020.630653734377,None,materials/mumblePic.jpg,couch,C_aloud2,17,70,3016.930731889035,None,3016.930731889035,None,3017.880179534899,None,3018.1464263288653,None,3018.1464263288653,None,,,,,,,,,,,,,,,,,,,,,,,,,,,,,,,,,,,base1,001,2019_Oct_22_1332,ProdFawcett_Revision2019,3.2.4,59.96141710308501,
18,0,18,0,,,,,,,,,,,,,,,,,3024.898556611093,None,materials/speakPic.jpg,household,B_aloud1,18,154,3021.2150836329674,None,3021.2150836329674,None,3022.148029541422,None,3022.414359683753,None,3022.414359683753,None,,,,,,,,,,,,,,,,,,,,,,,,,,,,,,,,,,,base1,001,2019_Oct_22_1332,ProdFawcett_Revision2019,3.2.4,59.96141710308501,
19,0,19,0,,,,,,,,,,,,,,,,,3029.166563984356,None,materials/readPic.jpg,captain,A_silent,19,41,3025.490955922054,None,3025.490955922054,None,3026.4160450006602,None,3026.669140786922,None,3026.669140786922,None,,,,,,,,,,,,,,,,,,,,,,,,,,,,,,,,,,,base1,001,2019_Oct_22_1332,ProdFawcett_Revision2019,3.2.4,59.96141710308501,
20,0,20,0,,,,,,,,,,,,,,,,,3033.43449174118,None,materials/mumblePic.jpg,industry,C_aloud2,20,161,3029.734587000916,None,3029.734587000916,None,3030.684092804091,None,3030.9502994788345,None,3030.9502994788345,None,,,,,,,,,,,,,,,,,,,,,,,,,,,,,,,,,,,base1,001,2019_Oct_22_1332,ProdFawcett_Revision2019,3.2.4,59.96141710308501,
21,0,21,0,,,,,,,,,,,,,,,,,3037.702456196188,None,materials/speakPic.jpg,material,B_aloud1,21,182,3034.0220764385303,None,3034.0220764385303,None,3034.951667885238,None,3035.218397975492,None,3035.218397975492,None,,,,,,,,,,,,,,,,,,,,,,,,,,,,,,,,,,,base1,001,2019_Oct_22_1332,ProdFawcett_Revision2019,3.2.4,59.96141710308501,
22,0,22,0,,,,,,,,,,,,,,,,,3041.970402613166,None,materials/mumblePic.jpg,subject,C_aloud2,22,312,3038.2591671567643,None,3038.2591671567643,None,3039.2199977670098,None,3039.486194800702,None,3039.486194800702,None,,,,,,,,,,,,,,,,,,,,,,,,,,,,,,,,,,,base1,001,2019_Oct_22_1332,ProdFawcett_Revision2019,3.2.4,59.96141710308501,
23,0,23,0,,,,,,,,,,,,,,,,,3046.238370800158,None,materials/readPic.jpg,appearance,A_silent,23,10,3042.5741584533826,None,3042.5741584533826,None,3043.4882085351855,None,3043.754230164108,None,3043.754230164108,None,,,,,,,,,,,,,,,,,,,,,,,,,,,,,,,,,,,base1,001,2019_Oct_22_1332,ProdFawcett_Revision2019,3.2.4,59.96141710308501,
24,0,24,0,,,,,,,,,,,,,,,,,3050.5064030535286,None,materials/mumblePic.jpg,gesture,C_aloud2,24,137,3046.806549628498,None,3046.806549628498,None,3047.75586914178,None,3048.0221628969302,None,3048.0221628969302,None,,,,,,,,,,,,,,,,,,,,,,,,,,,,,,,,,,,base1,001,2019_Oct_22_1332,ProdFawcett_Revision2019,3.2.4,59.96141710308501,
25,0,25,0,,,,,,,,,,,,,,,,,3054.774310284294,None,materials/speakPic.jpg,front,B_aloud1,25,134,3051.092780754203,None,3051.092780754203,None,3052.023523217358,None,3052.2901261079824,None,3052.2901261079824,None,,,,,,,,,,,,,,,,,,,,,,,,,,,,,,,,,,,base1,001,2019_Oct_22_1332,ProdFawcett_Revision2019,3.2.4,59.96141710308501,
26,0,26,0,,,,,,,,,,,,,,,,,3059.042298997403,None,materials/speakPic.jpg,instrument,B_aloud1,26,163,3055.3410591278807,None,3055.3410591278807,None,3056.2915019784123,None,3056.558096783003,None,3056.558096783003,None,,,,,,,,,,,,,,,,,,,,,,,,,,,,,,,,,,,base1,001,2019_Oct_22_1332,ProdFawcett_Revision2019,3.2.4,59.96141710308501,
27,0,27,0,,,,,,,,,,,,,,,,,3063.310228931252,None,materials/mumblePic.jpg,management,C_aloud2,27,177,3059.610271942802,None,3059.610271942802,None,3060.559483227553,None,3060.8260354248923,None,3060.8260354248923,None,,,,,,,,,,,,,,,,,,,,,,,,,,,,,,,,,,,base1,001,2019_Oct_22_1332,ProdFawcett_Revision2019,3.2.4,59.96141710308501,
28,0,28,0,,,,,,,,,,,,,,,,,3067.5782120463555,None,materials/speakPic.jpg,smooth,B_aloud1,28,292,3063.8988010582398,None,3063.8988010582398,None,3064.827594164235,None,3065.094000190962,None,3065.094000190962,None,,,,,,,,,,,,,,,,,,,,,,,,,,,,,,,,,,,base1,001,2019_Oct_22_1332,ProdFawcett_Revision2019,3.2.4,59.96141710308501,
29,0,29,0,,,,,,,,,,,,,,,,,3071.846182099427,None,materials/speakPic.jpg,revolution,B_aloud1,29,264,3068.144921081839,None,3068.144921081839,None,3069.095813329448,None,3069.3619724210002,None,3069.3619724210002,None,,,,,,,,,,,,,,,,,,,,,,,,,,,,,,,,,,,base1,001,2019_Oct_22_1332,ProdFawcett_Revision2019,3.2.4,59.96141710308501,
30,0,30,0,,,,,,,,,,,,,,,,,3076.1141409564298,None,materials/speakPic.jpg,danger,B_aloud1,30,85,3072.4292973948177,None,3072.4292973948177,None,3073.3633187463274,None,3073.629940297047,None,3073.629940297047,None,,,,,,,,,,,,,,,,,,,,,,,,,,,,,,,,,,,base1,001,2019_Oct_22_1332,ProdFawcett_Revision2019,3.2.4,59.96141710308501,
31,0,31,0,,,,,,,,,,,,,,,,,3080.382091727399,None,materials/readPic.jpg,private,A_silent,31,237,3076.716605207592,None,3076.716605207592,None,3077.631335760583,None,3077.897896977025,None,3077.897896977025,None,,,,,,,,,,,,,,,,,,,,,,,,,,,,,,,,,,,base1,001,2019_Oct_22_1332,ProdFawcett_Revision2019,3.2.4,59.96141710308501,
32,0,32,0,,,,,,,,,,,,,,,,,3084.6500655124546,None,materials/speakPic.jpg,literature,B_aloud1,32,173,3081.007698219095,None,3081.007698219095,None,3081.8993754779804,None,3082.1658505469677,None,3082.1658505469677,None,,,,,,,,,,,,,,,,,,,,,,,,,,,,,,,,,,,base1,001,2019_Oct_22_1332,ProdFawcett_Revision2019,3.2.4,59.96141710308501,
33,0,33,0,,,,,,,,,,,,,,,,,3088.9180122403777,None,materials/readPic.jpg,poetry,A_silent,33,225,3085.239484807418,None,3085.239484807418,None,3086.16727337864,None,3086.4337994519155,None,3086.4337994519155,None,,,,,,,,,,,,,,,,,,,,,,,,,,,,,,,,,,,base1,001,2019_Oct_22_1332,ProdFawcett_Revision2019,3.2.4,59.96141710308501,
34,0,34,0,,,,,,,,,,,,,,,,,3093.1860771488864,None,materials/readPic.jpg,direction,A_silent,34,94,3089.507116801862,None,3089.507116801862,None,3090.435186829476,None,3090.7017803900526,None,3090.7017803900526,None,,,,,,,,,,,,,,,,,,,,,,,,,,,,,,,,,,,base1,001,2019_Oct_22_1332,ProdFawcett_Revision2019,3.2.4,59.96141710308501,
35,0,35,0,,,,,,,,,,,,,,,,,3097.4539262223407,None,materials/readPic.jpg,breath,A_silent,35,27,3093.7691094068578,None,3093.7691094068578,None,3094.703280350077,None,3094.9697488881066,None,3094.9697488881066,None,,,,,,,,,,,,,,,,,,,,,,,,,,,,,,,,,,,base1,001,2019_Oct_22_1332,ProdFawcett_Revision2019,3.2.4,59.96141710308501,
36,0,36,0,,,,,,,,,,,,,,,,,3101.7218841463327,None,materials/mumblePic.jpg,problem,C_aloud2,36,238,3098.01173221902,None,3098.01173221902,None,3098.971202197892,None,3099.237715209136,None,3099.237715209136,None,,,,,,,,,,,,,,,,,,,,,,,,,,,,,,,,,,,base1,001,2019_Oct_22_1332,ProdFawcett_Revision2019,3.2.4,59.96141710308501,
37,0,37,0,,,,,,,,,,,,,,,,,3105.9898744145175,None,materials/mumblePic.jpg,season,C_aloud2,37,277,3102.271868767333,None,3102.271868767333,None,3103.2391231126967,None,3103.505679664144,None,3103.505679664144,None,,,,,,,,,,,,,,,,,,,,,,,,,,,,,,,,,,,base1,001,2019_Oct_22_1332,ProdFawcett_Revision2019,3.2.4,59.96141710308501,
38,0,38,0,,,,,,,,,,,,,,,,,3110.257845711545,None,materials/readPic.jpg,carry,A_silent,38,43,3106.6289096382097,None,3106.6289096382097,None,3107.507111825864,None,3107.7736462961766,None,3107.7736462961766,None,,,,,,,,,,,,,,,,,,,,,,,,,,,,,,,,,,,base1,001,2019_Oct_22_1332,ProdFawcett_Revision2019,3.2.4,59.96141710308501,
39,0,39,0,,,,,,,,,,,,,,,,,3114.5258366016787,None,materials/speakPic.jpg,orchestra,B_aloud1,39,206,3110.8496084025246,None,3110.8496084025246,None,3111.775061041815,None,3112.04160079913,None,3112.04160079913,None,,,,,,,,,,,,,,,,,,,,,,,,,,,,,,,,,,,base1,001,2019_Oct_22_1332,ProdFawcett_Revision2019,3.2.4,59.96141710308501,
40,0,40,0,,,,,,,,,,,,,,,,,3118.7937509854673,None,materials/readPic.jpg,running,A_silent,40,268,3115.1176319477963,None,3115.1176319477963,None,3116.043052553956,None,3116.3095636991784,None,3116.3095636991784,None,,,,,,,,,,,,,,,,,,,,,,,,,,,,,,,,,,,base1,001,2019_Oct_22_1332,ProdFawcett_Revision2019,3.2.4,59.96141710308501,
41,0,41,0,,,,,,,,,,,,,,,,,3123.0617194835213,None,materials/readPic.jpg,music,A_silent,41,196,3119.383929434989,None,3119.383929434989,None,3120.3110219850205,None,3120.577548058238,None,3120.577548058238,None,,,,,,,,,,,,,,,,,,,,,,,,,,,,,,,,,,,base1,001,2019_Oct_22_1332,ProdFawcett_Revision2019,3.2.4,59.96141710308501,
42,0,42,0,,,,,,,,,,,,,,,,,3127.3297324547893,None,materials/mumblePic.jpg,right,C_aloud2,42,265,3123.6299962772755,None,3123.6299962772755,None,3124.578978976002,None,3124.8454783031484,None,3124.8454783031484,None,,,,,,,,,,,,,,,,,,,,,,,,,,,,,,,,,,,base1,001,2019_Oct_22_1332,ProdFawcett_Revision2019,3.2.4,59.96141710308501,
43,0,43,0,,,,,,,,,,,,,,,,,3131.597644039546,None,materials/speakPic.jpg,break,B_aloud1,43,26,3127.9153065276914,None,3127.9153065276914,None,3128.8469241489074,None,3129.113462040259,None,3129.113462040259,None,,,,,,,,,,,,,,,,,,,,,,,,,,,,,,,,,,,base1,001,2019_Oct_22_1332,ProdFawcett_Revision2019,3.2.4,59.96141710308501,
44,0,44,0,,,,,,,,,,,,,,,,,3135.865626843646,None,materials/mumblePic.jpg,treatment,C_aloud2,44,339,3132.154401028296,None,3132.154401028296,None,3133.1149679092923,None,3133.381396328099,None,3133.381396328099,None,,,,,,,,,,,,,,,,,,,,,,,,,,,,,,,,,,,base1,001,2019_Oct_22_1332,ProdFawcett_Revision2019,3.2.4,59.96141710308501,
45,0,45,0,,,,,,,,,,,,,,,,,3140.133569839585,None,materials/mumblePic.jpg,brief,C_aloud2,45,28,3136.4154544089106,None,3136.4154544089106,None,3137.3828648769995,None,3137.6493769552326,None,3137.6493769552326,None,,,,,,,,,,,,,,,,,,,,,,,,,,,,,,,,,,,base1,001,2019_Oct_22_1332,ProdFawcett_Revision2019,3.2.4,59.96141710308501,
46,0,46,0,,,,,,,,,,,,,,,,,3144.4015084814746,None,materials/readPic.jpg,skill,A_silent,46,289,3140.73415501992,None,3140.73415501992,None,3141.6509216994746,None,3141.9173684673733,None,3141.9173684673733,None,,,,,,,,,,,,,,,,,,,,,,,,,,,,,,,,,,,base1,001,2019_Oct_22_1332,ProdFawcett_Revision2019,3.2.4,59.96141710308501,
47,0,47,0,,,,,,,,,,,,,,,,,3148.6695189647144,None,materials/readPic.jpg,universal,A_silent,47,345,3144.984680068097,None,3144.984680068097,None,3145.9188475902774,None,3146.1853170613176,None,3146.1853170613176,None,,,,,,,,,,,,,,,,,,,,,,,,,,,,,,,,,,,base1,001,2019_Oct_22_1332,ProdFawcett_Revision2019,3.2.4,59.96141710308501,
48,0,48,0,,,,,,,,,,,,,,,,,3152.9374485875596,None,materials/mumblePic.jpg,message,C_aloud2,48,189,3149.2267710677697,None,3149.2267710677697,None,3150.1867380269687,None,3150.4532830713433,None,3150.4532830713433,None,,,,,,,,,,,,,,,,,,,,,,,,,,,,,,,,,,,base1,001,2019_Oct_22_1332,ProdFawcett_Revision2019,3.2.4,59.96141710308501,
49,0,49,0,,,,,,,,,,,,,,,,,3157.205468400847,None,materials/mumblePic.jpg,month,C_aloud2,49,193,3153.4872680667904,None,3153.4872680667904,None,3154.45474602218,None,3154.721240684332,None,3154.721240684332,None,,,,,,,,,,,,,,,,,,,,,,,,,,,,,,,,,,,base1,001,2019_Oct_22_1332,ProdFawcett_Revision2019,3.2.4,59.96141710308501,
50,0,50,0,,,,,,,,,,,,,,,,,3161.4733774975757,None,materials/readPic.jpg,south,A_silent,50,296,3157.8114423034713,None,3157.8114423034713,None,3158.7227104772464,None,3158.989207627368,None,3158.989207627368,None,,,,,,,,,,,,,,,,,,,,,,,,,,,,,,,,,,,base1,001,2019_Oct_22_1332,ProdFawcett_Revision2019,3.2.4,59.96141710308501,
51,0,51,0,,,,,,,,,,,,,,,,,3165.7413487946615,None,materials/readPic.jpg,emergency,A_silent,51,110,3162.0565509502776,None,3162.0565509502776,None,3162.9906951473677,None,3163.2571770584327,None,3163.2571770584327,None,,,,,,,,,,,,,,,,,,,,,,,,,,,,,,,,,,,base1,001,2019_Oct_22_1332,ProdFawcett_Revision2019,3.2.4,59.96141710308501,
52,0,52,0,,,,,,,,,,,,,,,,,3170.009326000756,None,materials/readPic.jpg,audience,A_silent,52,14,3166.328748135129,None,3166.328748135129,None,3167.258639698266,None,3167.5251219203346,None,3167.5251219203346,None,,,,,,,,,,,,,,,,,,,,,,,,,,,,,,,,,,,base1,001,2019_Oct_22_1332,ProdFawcett_Revision2019,3.2.4,59.96141710308501,
53,0,53,0,,,,,,,,,,,,,,,,,3174.277283302741,None,materials/mumblePic.jpg,watch,C_aloud2,53,351,3170.5774755949387,None,3170.5774755949387,None,3171.526593579212,None,3171.793097260408,None,3171.793097260408,None,,,,,,,,,,,,,,,,,,,,,,,,,,,,,,,,,,,base1,001,2019_Oct_22_1332,ProdFawcett_Revision2019,3.2.4,59.96141710308501,
54,0,54,0,,,,,,,,,,,,,,,,,3178.5452141696005,None,materials/speakPic.jpg,track,B_aloud1,54,334,3174.8651553654345,None,3174.8651553654345,None,3175.7945670533227,None,3176.061037768319,None,3176.061037768319,None,,,,,,,,,,,,,,,,,,,,,,,,,,,,,,,,,,,base1,001,2019_Oct_22_1332,ProdFawcett_Revision2019,3.2.4,59.96141710308501,
55,0,55,0,,,,,,,,,,,,,,,,,3182.8132147007855,None,materials/mumblePic.jpg,worker,C_aloud2,55,356,3179.129804855911,None,3179.129804855911,None,3180.0625395943644,None,3180.329007510387,None,3180.329007510387,None,,,,,,,,,,,,,,,,,,,,,,,,,,,,,,,,,,,base1,001,2019_Oct_22_1332,ProdFawcett_Revision2019,3.2.4,59.96141710308501,
56,0,56,0,,,,,,,,,,,,,,,,,3187.0811542756855,None,materials/speakPic.jpg,thing,B_aloud1,56,328,3183.413754785899,None,3183.413754785899,None,3184.3305189774255,None,3184.596963257354,None,3184.596963257354,None,,,,,,,,,,,,,,,,,,,,,,,,,,,,,,,,,,,base1,001,2019_Oct_22_1332,ProdFawcett_Revision2019,3.2.4,59.96141710308501,
57,0,57,0,,,,,,,,,,,,,,,,,3191.3491149987094,None,materials/speakPic.jpg,department,B_aloud1,57,90,3187.6541029333603,None,3187.6541029333603,None,3188.5984601073433,None,3188.864928645373,None,3188.864928645373,None,,,,,,,,,,,,,,,,,,,,,,,,,,,,,,,,,,,base1,001,2019_Oct_22_1332,ProdFawcett_Revision2019,3.2.4,59.96141710308501,
58,0,58,0,,,,,,,,,,,,,,,,,3195.61717990716,None,materials/readPic.jpg,bitter,A_silent,58,23,3191.940973167075,None,3191.940973167075,None,3192.8664217633777,None,3193.132910827466,None,3193.132910827466,None,,,,,,,,,,,,,,,,,,,,,,,,,,,,,,,,,,,base1,001,2019_Oct_22_1332,ProdFawcett_Revision2019,3.2.4,59.96141710308501,
59,0,59,0,,,,,,,,,,,,,,,,,3199.8850877599325,None,materials/mumblePic.jpg,drove,C_aloud2,59,106,3196.1742696674773,None,3196.1742696674773,None,3197.134364448313,None,3197.4008584883995,None,3197.4008584883995,None,,,,,,,,,,,,,,,,,,,,,,,,,,,,,,,,,,,base1,001,2019_Oct_22_1332,ProdFawcett_Revision2019,3.2.4,59.96141710308501,
60,0,60,0,,,,,,,,,,,,,,,,,3204.152998100675,None,materials/mumblePic.jpg,comfort,C_aloud2,60,59,3200.4350484337774,None,3200.4350484337774,None,3201.4023702665,None,3201.668837249512,None,3201.668837249512,None,,,,,,,,,,,,,,,,,,,,,,,,,,,,,,,,,,,base1,001,2019_Oct_22_1332,ProdFawcett_Revision2019,3.2.4,59.96141710308501,
61,0,61,0,,,,,,,,,,,,,,,,,3208.421219442913,None,materials/readPic.jpg,safety,A_silent,61,270,3204.75354533887,None,3204.75354533887,None,3205.670380438736,None,3205.936788642488,None,3205.936788642488,None,,,,,,,,,,,,,,,,,,,,,,,,,,,,,,,,,,,base1,001,2019_Oct_22_1332,ProdFawcett_Revision2019,3.2.4,59.96141710308501,
62,0,62,0,,,,,,,,,,,,,,,,,3212.688966507907,None,materials/readPic.jpg,sunset,A_silent,62,315,3209.004134142364,None,3209.004134142364,None,3209.9383088175673,None,3210.20475434151,None,3210.20475434151,None,,,,,,,,,,,,,,,,,,,,,,,,,,,,,,,,,,,base1,001,2019_Oct_22_1332,ProdFawcett_Revision2019,3.2.4,59.96141710308501,
63,0,63,0,,,,,,,,,,,,,,,,,3216.9569210109184,None,materials/speakPic.jpg,damage,B_aloud1,63,83,3213.2903655790724,None,3213.2903655790724,None,3214.206363152014,None,3214.4727256385377,None,3214.4727256385377,None,,,,,,,,,,,,,,,,,,,,,,,,,,,,,,,,,,,base1,001,2019_Oct_22_1332,ProdFawcett_Revision2019,3.2.4,59.96141710308501,
64,0,64,0,,,,,,,,,,,,,,,,,3221.224905992043,None,materials/readPic.jpg,height,A_silent,64,152,3217.5588805067237,None,3217.5588805067237,None,3218.4742150245584,None,3218.740686672565,None,3218.740686672565,None,,,,,,,,,,,,,,,,,,,,,,,,,,,,,,,,,,,base1,001,2019_Oct_22_1332,ProdFawcett_Revision2019,3.2.4,59.96141710308501,
65,0,65,0,,,,,,,,,,,,,,,,,3225.492818198807,None,materials/readPic.jpg,estate,A_silent,65,119,3221.808022531448,None,3221.808022531448,None,3222.742177613545,None,3223.008642730536,None,3223.008642730536,None,,,,,,,,,,,,,,,,,,,,,,,,,,,,,,,,,,,base1,001,2019_Oct_22_1332,ProdFawcett_Revision2019,3.2.4,59.96141710308501,
66,0,66,0,,,,,,,,,,,,,,,,,3229.7607888738276,None,materials/mumblePic.jpg,rough,C_aloud2,66,266,3226.050130014133,None,3226.050130014133,None,3227.010183431732,None,3227.27658354945,None,3227.27658354945,None,,,,,,,,,,,,,,,,,,,,,,,,,,,,,,,,,,,base1,001,2019_Oct_22_1332,ProdFawcett_Revision2019,3.2.4,59.96141710308501,
67,0,67,0,,,,,,,,,,,,,,,,,3234.0287862950354,None,materials/speakPic.jpg,swift,B_aloud1,67,320,3230.3613065668615,None,3230.3613065668615,None,3231.278126427671,None,3231.5445619995007,None,3231.5445619995007,None,,,,,,,,,,,,,,,,,,,,,,,,,,,,,,,,,,,base1,001,2019_Oct_22_1332,ProdFawcett_Revision2019,3.2.4,59.96141710308501,
68,0,68,0,,,,,,,,,,,,,,,,,3238.296720893879,None,materials/speakPic.jpg,novel,B_aloud1,68,202,3234.5989449586486,None,3234.5989449586486,None,3235.546060715569,None,3235.8125429376378,None,3235.8125429376378,None,,,,,,,,,,,,,,,,,,,,,,,,,,,,,,,,,,,base1,001,2019_Oct_22_1332,ProdFawcett_Revision2019,3.2.4,59.96141710308501,
69,0,69,0,,,,,,,,,,,,,,,,,3242.5647046309896,None,materials/speakPic.jpg,hearing,B_aloud1,69,150,3238.863163712085,None,3238.863163712085,None,3239.8140755528,None,3240.0804946416174,None,3240.0804946416174,None,,,,,,,,,,,,,,,,,,,,,,,,,,,,,,,,,,,base1,001,2019_Oct_22_1332,ProdFawcett_Revision2019,3.2.4,59.96141710308501,
70,0,70,0,,,,,,,,,,,,,,,,,3246.8326168378117,None,materials/readPic.jpg,colonel,A_silent,70,55,3243.173352835176,None,3243.173352835176,None,3244.082009529695,None,3244.348478378728,None,3244.348478378728,None,,,,,,,,,,,,,,,,,,,,,,,,,,,,,,,,,,,base1,001,2019_Oct_22_1332,ProdFawcett_Revision2019,3.2.4,59.96141710308501,
71,0,71,0,,,,,,,,,,,,,,,,,3251.1005906228675,None,materials/speakPic.jpg,history,B_aloud1,71,153,3247.4340404780814,None,3247.4340404780814,None,3248.3501935517415,None,3248.6165072110016,None,3248.6165072110016,None,,,,,,,,,,,,,,,,,,,,,,,,,,,,,,,,,,,base1,001,2019_Oct_22_1332,ProdFawcett_Revision2019,3.2.4,59.96141710308501,
72,0,72,0,,,,,,,,,,,,,,,,,3255.368563163909,None,materials/mumblePic.jpg,exchange,C_aloud2,72,121,3251.658705132955,None,3251.658705132955,None,3252.618269656319,None,3252.884396092675,None,3252.884396092675,None,,,,,,,,,,,,,,,,,,,,,,,,,,,,,,,,,,,base1,001,2019_Oct_22_1332,ProdFawcett_Revision2019,3.2.4,59.96141710308501,
73,0,73,0,,,,,,,,,,,,,,,,,3259.636507403862,None,materials/mumblePic.jpg,scale,C_aloud2,73,272,3255.909209655074,None,3255.909209655074,None,3256.885897607717,None,3257.15224361117,None,3257.15224361117,None,,,,,,,,,,,,,,,,,,,,,,,,,,,,,,,,,,,base1,001,2019_Oct_22_1332,ProdFawcett_Revision2019,3.2.4,59.96141710308501,
74,0,74,0,,,,,,,,,,,,,,,,,3263.904482432932,None,materials/readPic.jpg,portion,A_silent,74,228,3260.239547940728,None,3260.239547940728,None,3261.1538785458542,None,3261.4203013665974,None,3261.4203013665974,None,,,,,,,,,,,,,,,,,,,,,,,,,,,,,,,,,,,base1,001,2019_Oct_22_1332,ProdFawcett_Revision2019,3.2.4,59.96141710308501,
75,0,75,0,,,,,,,,,,,,,,,,,3268.1724506199826,None,materials/speakPic.jpg,blind,B_aloud1,75,24,3264.5058867910993,None,3264.5058867910993,None,3265.421828072809,None,3265.6882627116283,None,3265.6882627116283,None,,,,,,,,,,,,,,,,,,,,,,,,,,,,,,,,,,,base1,001,2019_Oct_22_1332,ProdFawcett_Revision2019,3.2.4,59.96141710308501,
76,0,76,0,,,,,,,,,,,,,,,,,3272.4404132089694,None,materials/speakPic.jpg,solution,B_aloud1,76,294,3268.7395073550288,None,3268.7395073550288,None,3269.6897819537553,None,3269.9562781708664,None,3269.9562781708664,None,,,,,,,,,,,,,,,,,,,,,,,,,,,,,,,,,,,base1,001,2019_Oct_22_1332,ProdFawcett_Revision2019,3.2.4,59.96141710308501,
77,0,77,0,,,,,,,,,,,,,,,,,3276.7084115631296,None,materials/mumblePic.jpg,science,C_aloud2,77,275,3272.996213868202,None,3272.996213868202,None,3273.957730858703,None,3274.224213702779,None,3274.224213702779,None,,,,,,,,,,,,,,,,,,,,,,,,,,,,,,,,,,,base1,001,2019_Oct_22_1332,ProdFawcett_Revision2019,3.2.4,59.96141710308501,
78,0,78,0,,,,,,,,,,,,,,,,,3280.976345851028,None,materials/speakPic.jpg,display,B_aloud1,78,98,3277.308982126415,None,3277.308982126415,None,3278.2257155288244,None,3278.4921377276187,None,3278.4921377276187,None,,,,,,,,,,,,,,,,,,,,,,,,,,,,,,,,,,,base1,001,2019_Oct_22_1332,ProdFawcett_Revision2019,3.2.4,59.96141710308501,
79,0,79,0,,,,,,,,,,,,,,,,,3285.2443348751403,None,materials/mumblePic.jpg,style,C_aloud2,79,311,3281.544389082701,None,3281.544389082701,None,3282.4939661051612,None,3282.7601329717436,None,3282.7601329717436,None,,,,,,,,,,,,,,,,,,,,,,,,,,,,,,,,,,,base1,001,2019_Oct_22_1332,ProdFawcett_Revision2019,3.2.4,59.96141710308501,
80,0,80,0,,,,,,,,,,,,,,,,,3289.5122769380687,None,materials/mumblePic.jpg,little,C_aloud2,80,174,3285.7839084112784,None,3285.7839084112784,None,3286.761655945913,None,3287.028076278686,None,3287.028076278686,None,,,,,,,,,,,,,,,,,,,,,,,,,,,,,,,,,,,base1,001,2019_Oct_22_1332,ProdFawcett_Revision2019,3.2.4,59.96141710308501,
81,0,81,0,,,,,,,,,,,,,,,,,3293.7802329960396,None,materials/speakPic.jpg,shock,B_aloud1,81,284,3290.11290254863,None,3290.11290254863,None,3291.029561621661,None,3291.2959984375047,None,3291.2959984375047,None,,,,,,,,,,,,,,,,,,,,,,,,,,,,,,,,,,,base1,001,2019_Oct_22_1332,ProdFawcett_Revision2019,3.2.4,59.96141710308501,
82,0,82,0,,,,,,,,,,,,,,,,,3298.048306612589,None,materials/mumblePic.jpg,committee,C_aloud2,82,62,3294.3481154399924,None,3294.3481154399924,None,3295.297895857424,None,3295.5640076767304,None,3295.5640076767304,None,,,,,,,,,,,,,,,,,,,,,,,,,,,,,,,,,,,base1,001,2019_Oct_22_1332,ProdFawcett_Revision2019,3.2.4,59.96141710308501,
83,0,83,0,,,,,,,,,,,,,,,,,3302.3161693701404,None,materials/speakPic.jpg,health,B_aloud1,83,149,3298.6360147775267,None,3298.6360147775267,None,3299.5655844541616,None,3299.831969954772,None,3299.831969954772,None,,,,,,,,,,,,,,,,,,,,,,,,,,,,,,,,,,,base1,001,2019_Oct_22_1332,ProdFawcett_Revision2019,3.2.4,59.96141710308501,
84,0,84,0,,,,,,,,,,,,,,,,,3306.5841599492705,None,materials/mumblePic.jpg,character,C_aloud2,84,46,3302.870924131479,None,3302.870924131479,None,3303.8335831193253,None,3304.099936275801,None,3304.099936275801,None,,,,,,,,,,,,,,,,,,,,,,,,,,,,,,,,,,,base1,001,2019_Oct_22_1332,ProdFawcett_Revision2019,3.2.4,59.96141710308501,
85,0,85,0,,,,,,,,,,,,,,,,,3310.852110409236,None,materials/readPic.jpg,vision,A_silent,85,347,3307.189180632413,None,3307.189180632413,None,3308.101498125121,None,3308.367906639818,None,3308.367906639818,None,,,,,,,,,,,,,,,,,,,,,,,,,,,,,,,,,,,base1,001,2019_Oct_22_1332,ProdFawcett_Revision2019,3.2.4,59.96141710308501,
86,0,86,0,,,,,,,,,,,,,,,,,3315.1200773522723,None,materials/mumblePic.jpg,service,C_aloud2,86,280,3311.420539282728,None,3311.420539282728,None,3312.369393848814,None,3312.6358309756615,None,3312.6358309756615,None,,,,,,,,,,,,,,,,,,,,,,,,,,,,,,,,,,,base1,001,2019_Oct_22_1332,ProdFawcett_Revision2019,3.2.4,59.96141710308501,
87,0,87,0,,,,,,,,,,,,,,,,,3319.388036209275,None,materials/mumblePic.jpg,debate,C_aloud2,87,87,3315.6700056819827,None,3315.6700056819827,None,3316.6373601698433,None,3316.903835238889,None,3316.903835238889,None,,,,,,,,,,,,,,,,,,,,,,,,,,,,,,,,,,,base1,001,2019_Oct_22_1332,ProdFawcett_Revision2019,3.2.4,59.96141710308501,
88,0,88,0,,,,,,,,,,,,,,,,,3323.655981071177,None,materials/readPic.jpg,strain,A_silent,88,308,3319.978326308308,None,3319.978326308308,None,3320.9052191953524,None,3321.171789119835,None,3321.171789119835,None,,,,,,,,,,,,,,,,,,,,,,,,,,,,,,,,,,,base1,001,2019_Oct_22_1332,ProdFawcett_Revision2019,3.2.4,59.96141710308501,
89,0,89,0,,,,,,,,,,,,,,,,,3327.9239405501867,None,materials/readPic.jpg,incident,A_silent,89,158,3324.240481878107,None,3324.240481878107,None,3325.173347548174,None,3325.439766636933,None,3325.439766636933,None,,,,,,,,,,,,,,,,,,,,,,,,,,,,,,,,,,,base1,001,2019_Oct_22_1332,ProdFawcett_Revision2019,3.2.4,59.96141710308501,
,,,,,,,,,,,,,,,,,,,,,,,,,,,,,,,,,,,,,3328.424091541383,None,k,124.08778078376781,3328.424091541383,None,,,,,,,,,,,,,,,,,,,,,,,,,,,,,base1,001,2019_Oct_22_1332,ProdFawcett_Revision2019,3.2.4,59.96141710308501,
,,,,,,,,,,,,,,3452.5284555449616,None,space,1.6871225803042762,3452.5284555449616,None,,,,,,,,,,,,,,,,,,,,,,,,,,,,,,,,,,,,,,,,,,,,,,,,,,,,base1,001,2019_Oct_22_1332,ProdFawcett_Revision2019,3.2.4,59.96141710308501,
,,,,0,0,0,0,,,,,,,,,,,,,3490.1729370262474,None,,,,,,,,,,,,,,,,,,,,,,tennis,D_new,0,323,3454.767854515987,None,3454.767854515987,None,3454.767854515987,None,2,28.254032211669255,3454.767854515987,None,3483.0874931074213,None,3483.0874931074213,None,3483.6049295596895,None,3483.6049295596895,None,3483.6049295596895,None,n,6.52882501471322,3483.6049295596895,None,base1,001,2019_Oct_22_1332,ProdFawcett_Revision2019,3.2.4,59.96141710308501,
,,,,1,0,1,0,,,,,,,,,,,,,3496.0748070469126,None,,,,,,,,,,,,,,,,,,,,,,review,D_new,1,263,3490.689882407256,None,3490.689882407256,None,3490.689882407256,None,5,3.492010217043571,3490.689882407256,None,3494.2290208523045,None,3494.2290208523045,None,3494.7577034283895,None,3494.7577034283895,None,3494.7577034283895,None,r,1.2712156642810442,3494.7577034283895,None,base1,001,2019_Oct_22_1332,ProdFawcett_Revision2019,3.2.4,59.96141710308501,
,,,,2,0,2,0,,,,,,,,,,,,,3504.443987237755,None,,,,,,,,,,,,,,,,,,,,,,audience,A_silent,2,14,3496.5939266391215,None,3496.5939266391215,None,3496.5939266391215,None,6,5.674963667290285,3496.5939266391215,None,3502.3267770078965,None,3502.3267770078965,None,3502.8436107393936,None,3502.8436107393936,None,3502.8436107393936,None,r,1.5527615529717878,3502.8436107393936,None,base1,001,2019_Oct_22_1332,ProdFawcett_Revision2019,3.2.4,59.96141710308501,
,,,,3,0,3,0,,,,,,,,,,,,,3513.7801841688342,None,,,,,,,,,,,,,,,,,,,,,,cover,D_new,3,77,3504.960730156803,None,3504.960730156803,None,3504.960730156803,None,3,5.5078094021300785,3504.960730156803,None,3510.516689737793,None,3510.516689737793,None,3511.0460154648754,None,3511.0460154648754,None,3511.0460154648754,None,f,2.6857830970548093,3511.0460154648754,None,base1,001,2019_Oct_22_1332,ProdFawcett_Revision2019,3.2.4,59.96141710308501,
,,,,4,0,4,0,,,,,,,,,,,,,3521.7160422949237,None,,,,,,,,,,,,,,,,,,,,,,fashion,D_new,4,125,3514.2976004060474,None,3514.2976004060474,None,3514.2976004060474,None,2,4.194335170672275,3514.2976004060474,None,3518.5482638499234,None,3518.5482638499234,None,3519.065249039093,None,3519.065249039093,None,3519.065249039093,None,n,2.602087317383848,3519.065249039093,None,base1,001,2019_Oct_22_1332,ProdFawcett_Revision2019,3.2.4,59.96141710308501,
,,,,5,0,5,0,,,,,,,,,,,,,3528.2345781374024,None,,,,,,,,,,,,,,,,,,,,,,expansion,B_aloud1,5,123,3522.2333574566874,None,3522.2333574566874,None,3522.2333574566874,None,6,2.210224235197529,3522.2333574566874,None,3524.5001749382936,None,3524.5001749382936,None,3525.0170403919183,None,3525.0170403919183,None,3525.0170403919183,None,r,3.169829499674961,3525.0170403919183,None,base1,001,2019_Oct_22_1332,ProdFawcett_Revision2019,3.2.4,59.96141710308501,
,,,,6,0,6,0,,,,,,,,,,,,,3539.98821926472,None,,,,,,,,,,,,,,,,,,,,,,bitter,A_silent,6,23,3528.751386055723,None,3528.751386055723,None,3528.751386055723,None,6,3.4760828993166797,3528.751386055723,None,3532.2857954126666,None,3532.2857954126666,None,3532.802628833102,None,3532.802628833102,None,3532.802628833102,None,f,7.152063230343629,3532.802628833102,None,base1,001,2019_Oct_22_1332,ProdFawcett_Revision2019,3.2.4,59.96141710308501,
,,,,7,0,7,0,,,,,,,,,,,,,3546.690246900951,None,,,,,,,,,,,,,,,,,,,,,,dispute,D_new,7,99,3540.5054062938434,None,3540.5054062938434,None,3540.5054062938434,None,4,3.648640192754101,3540.5054062938434,None,3544.206081073731,None,3544.206081073731,None,3544.7230348517187,None,3544.7230348517187,None,3544.7230348517187,None,f,1.9347074207034893,3544.7230348517187,None,base1,001,2019_Oct_22_1332,ProdFawcett_Revision2019,3.2.4,59.96141710308501,
,,,,8,0,8,0,,,,,,,,,,,,,3551.67519536335,None,,,,,,,,,,,,,,,,,,,,,,minute,D_new,8,192,3547.207394121855,None,3547.207394121855,None,3547.207394121855,None,3,2.8505784160806797,3547.207394121855,None,3550.107847219915,None,3550.107847219915,None,3550.6247960219043,None,3550.6247960219043,None,3550.6247960219043,None,f,1.009406550147105,3550.6247960219043,None,base1,001,2019_Oct_22_1332,ProdFawcett_Revision2019,3.2.4,59.96141710308501,
,,,,9,0,9,0,,,,,,,,,,,,,3557.0267265323782,None,,,,,,,,,,,,,,,,,,,,,,express,D_new,9,124,3552.1921311032493,None,3552.1921311032493,None,3552.1921311032493,None,4,2.8969984938157722,3552.1921311032493,None,3555.1287822831073,None,3555.1287822831073,None,3555.6430213294225,None,3555.6430213294225,None,3555.6430213294225,None,f,1.3505449834046885,3555.6430213294225,None,base1,001,2019_Oct_22_1332,ProdFawcett_Revision2019,3.2.4,59.96141710308501,
,,,,10,0,10,0,,,,,,,,,,,,,3561.2113696535234,None,,,,,,,,,,,,,,,,,,,,,,damage,B_aloud1,10,83,3557.54339107906,None,3557.54339107906,None,3557.54339107906,None,6,2.0976634771213867,3557.54339107906,None,3559.6822205752833,None,3559.6822205752833,None,3560.210952289577,None,3560.210952289577,None,3560.210952289577,None,r,0.9586750591406599,3560.210952289577,None,base1,001,2019_Oct_22_1332,ProdFawcett_Revision2019,3.2.4,59.96141710308501,
,,,,11,0,11,0,,,,,,,,,,,,,3566.44639003498,None,,,,,,,,,,,,,,,,,,,,,,vision,A_silent,11,347,3561.7293211242068,None,3561.7293211242068,None,3561.7293211242068,None,6,2.9833262788015418,3561.7293211242068,None,3564.7511767517426,None,3564.7511767517426,None,3565.279262827011,None,3565.279262827011,None,3565.279262827011,None,r,1.1210965040372685,3565.279262827011,None,base1,001,2019_Oct_22_1332,ProdFawcett_Revision2019,3.2.4,59.96141710308501,
,,,,12,0,12,0,,,,,,,,,,,,,3576.049088159285,None,,,,,,,,,,,,,,,,,,,,,,whole,D_new,12,355,3566.9634147213656,None,3566.9634147213656,None,3566.9634147213656,None,5,7.196611390332691,3566.9634147213656,None,3574.202269128815,None,3574.202269128815,None,3574.732000090822,None,3574.732000090822,None,3574.732000090822,None,r,1.2841181817930192,3574.732000090822,None,base1,001,2019_Oct_22_1332,ProdFawcett_Revision2019,3.2.4,59.96141710308501,
,,,,13,0,13,0,,,,,,,,,,,,,3584.2683059346164,None,,,,,,,,,,,,,,,,,,,,,,appearance,A_silent,13,10,3576.566940420482,None,3576.566940420482,None,3576.566940420482,None,6,2.2491205656551756,3576.566940420482,None,3578.866690468625,None,3578.866690468625,None,3579.383360613312,None,3579.383360613312,None,3579.383360613312,None,r,4.848019496013876,3579.383360613312,None,base1,001,2019_Oct_22_1332,ProdFawcett_Revision2019,3.2.4,59.96141710308501,
,,,,14,0,14,0,,,,,,,,,,,,,3589.6533499988727,None,,,,,,,,,,,,,,,,,,,,,,agreement,D_new,14,5,3584.786231592181,None,3584.786231592181,None,3584.786231592181,None,4,2.50923192279879,3584.786231592181,None,3587.3407207583077,None,3587.3407207583077,None,3587.8692941728514,None,3587.8692941728514,None,3587.8692941728514,None,f,1.7457395132514648,3587.8692941728514,None,base1,001,2019_Oct_22_1332,ProdFawcett_Revision2019,3.2.4,59.96141710308501,
,,,,15,0,15,0,,,,,,,,,,,,,3595.8217703509144,None,,,,,,,,,,,,,,,,,,,,,,government,D_new,15,139,3590.172207416792,None,3590.172207416792,None,3590.172207416792,None,4,3.6589184799813665,3590.172207416792,None,3593.8878917490947,None,3593.8878917490947,None,3594.4047668437706,None,3594.4047668437706,None,3594.4047668437706,None,f,1.3697832226171158,3594.4047668437706,None,base1,001,2019_Oct_22_1332,ProdFawcett_Revision2019,3.2.4,59.96141710308501,
,,,,16,0,16,0,,,,,,,,,,,,,3606.525107925292,None,,,,,,,,,,,,,,,,,,,,,,right,C_aloud2,16,265,3596.3385875992826,None,3596.3385875992826,None,3596.3385875992826,None,3,2.563889185199514,3596.3385875992826,None,3598.956130445178,None,3598.956130445178,None,3599.4729647986824,None,3599.4729647986824,None,3599.4729647986824,None,f,7.004892363911495,3599.4729647986824,None,base1,001,2019_Oct_22_1332,ProdFawcett_Revision2019,3.2.4,59.96141710308501,
,,,,17,0,17,0,,,,,,,,,,,,,3610.793023242033,None,,,,,,,,,,,,,,,,,,,,,,drove,C_aloud2,17,106,3607.0420934254653,None,3607.0420934254653,None,3607.0420934254653,None,4,2.131879857624881,3607.0420934254653,None,3609.225925765815,None,3609.225925765815,None,3609.742658732808,None,3609.742658732808,None,3609.742658732808,None,f,1.0078285287017934,3609.742658732808,None,base1,001,2019_Oct_22_1332,ProdFawcett_Revision2019,3.2.4,59.96141710308501,
,,,,18,0,18,0,,,,,,,,,,,,,3616.994948092266,None,,,,,,,,,,,,,,,,,,,,,,death,D_new,18,86,3611.3103110356606,None,3611.3103110356606,None,3611.3103110356606,None,2,3.343488982296549,3611.3103110356606,None,3614.698882478464,None,3614.698882478464,None,3615.2276757709915,None,3615.2276757709915,None,3615.2276757709915,None,n,1.7295969825354405,3615.2276757709915,None,base1,001,2019_Oct_22_1332,ProdFawcett_Revision2019,3.2.4,59.96141710308501,
,,,,19,0,19,0,,,,,,,,,,,,,3623.2301861747983,None,,,,,,,,,,,,,,,,,,,,,,addition,D_new,19,2,3617.513144632161,None,3617.513144632161,None,3617.513144632161,None,3,2.2999745911802165,3617.513144632161,None,3619.862453073729,None,3619.862453073729,None,3620.3793399864808,None,3620.3793399864808,None,3620.3793399864808,None,n,2.8014992758398876,3620.3793399864808,None,base1,001,2019_Oct_22_1332,ProdFawcett_Revision2019,3.2.4,59.96141710308501,
,,,,20,0,20,0,,,,,,,,,,,,,3631.0325714937644,None,,,,,,,,,,,,,,,,,,,,,,subject,C_aloud2,20,312,3623.752361978346,None,3623.752361978346,None,3623.752361978346,None,3,3.0124932396574877,3623.752361978346,None,3626.8145181079162,None,3626.8145181079162,None,3627.334251616965,None,3627.334251616965,None,3627.334251616965,None,f,3.654703166219406,3627.334251616965,None,base1,001,2019_Oct_22_1332,ProdFawcett_Revision2019,3.2.4,59.96141710308501,
,,,,21,0,21,0,,,,,,,,,,,,,3636.400878392509,None,,,,,,,,,,,,,,,,,,,,,,territory,D_new,21,324,3631.5509807586204,None,3631.5509807586204,None,3631.5509807586204,None,2,2.7171786942635663,3631.5509807586204,None,3634.333611575945,None,3634.333611575945,None,3634.8502145443344,None,3634.8502145443344,None,3634.8502145443344,None,n,1.5061934385448694,3634.8502145443344,None,base1,001,2019_Oct_22_1332,ProdFawcett_Revision2019,3.2.4,59.96141710308501,
,,,,22,0,22,0,,,,,,,,,,,,,3643.3863033091184,None,,,,,,,,,,,,,,,,,,,,,,growth,D_new,22,144,3636.9175718623446,None,3636.9175718623446,None,3636.9175718623446,None,3,4.646483708638698,3636.9175718623446,None,3641.606565738388,None,3641.606565738388,None,3642.135794122005,None,3642.135794122005,None,3642.135794122005,None,f,1.21215213323012,3642.135794122005,None,base1,001,2019_Oct_22_1332,ProdFawcett_Revision2019,3.2.4,59.96141710308501,
,,,,23,0,23,0,,,,,,,,,,,,,3649.004599400563,None,,,,,,,,,,,,,,,,,,,,,,dance,D_new,23,84,3643.9031417056103,None,3643.9031417056103,None,3643.9031417056103,None,2,2.2845893490011804,3643.9031417056103,None,3646.2254922298016,None,3646.2254922298016,None,3646.753934712673,None,3646.753934712673,None,3646.753934712673,None,n,2.209872492530849,3646.753934712673,None,base1,001,2019_Oct_22_1332,ProdFawcett_Revision2019,3.2.4,59.96141710308501,
,,,,24,0,24,0,,,,,,,,,,,,,3655.8415783448145,None,,,,,,,,,,,,,,,,,,,,,,store,D_new,24,305,3649.52134574065,None,3649.52134574065,None,3649.52134574065,None,2,3.226444516214542,3649.52134574065,None,3652.79366825911,None,3652.79366825911,None,3653.3226584155927,None,3653.3226584155927,None,3653.3226584155927,None,n,2.4959104863228276,3653.3226584155927,None,base1,001,2019_Oct_22_1332,ProdFawcett_Revision2019,3.2.4,59.96141710308501,
,,,,25,0,25,0,,,,,,,,,,,,,3663.4590667654993,None,,,,,,,,,,,,,,,,,,,,,,color,D_new,25,56,3656.357903899916,None,3656.357903899916,None,3656.357903899916,None,3,2.020639300812036,3656.357903899916,None,3658.431689618039,None,3658.431689618039,None,3658.957730858703,None,3658.957730858703,None,3658.957730858703,None,n,4.468612644239329,3658.957730858703,None,base1,001,2019_Oct_22_1332,ProdFawcett_Revision2019,3.2.4,59.96141710308501,
,,,,26,0,26,0,,,,,,,,,,,,,3667.627047983464,None,,,,,,,,,,,,,,,,,,,,,,threat,D_new,26,329,3663.9757039440447,None,3663.9757039440447,None,3663.9757039440447,None,3,1.850871690432541,3663.9757039440447,None,3665.876413929218,None,3665.876413929218,None,3666.3933403391275,None,3666.3933403391275,None,3666.3933403391275,None,n,1.1846729772514664,3666.3933403391275,None,base1,001,2019_Oct_22_1332,ProdFawcett_Revision2019,3.2.4,59.96141710308501,
,,,,27,0,27,0,,,,,,,,,,,,,3674.979299120896,None,,,,,,,,,,,,,,,,,,,,,,property,D_new,27,242,3668.1497030402534,None,3668.1497030402534,None,3668.1497030402534,None,4,5.363883213954978,3668.1497030402534,None,3673.565060416702,None,3673.565060416702,None,3674.078972911462,None,3674.078972911462,None,3674.078972911462,None,r,0.8670530963572673,3674.078972911462,None,base1,001,2019_Oct_22_1332,ProdFawcett_Revision2019,3.2.4,59.96141710308501,
,,,,28,0,28,0,,,,,,,,,,,,,3680.9144136424875,None,,,,,,,,,,,,,,,,,,,,,,carry,A_silent,28,43,3675.49584019999,None,3675.49584019999,None,3675.49584019999,None,4,3.73738010507077,3675.49584019999,None,3679.2840438524145,None,3679.2840438524145,None,3679.813942133216,None,3679.813942133216,None,3679.813942133216,None,r,1.0673710020491853,3679.813942133216,None,base1,001,2019_Oct_22_1332,ProdFawcett_Revision2019,3.2.4,59.96141710308501,
,,,,29,0,29,0,,,,,,,,,,,,,3689.3669552863576,None,,,,,,,,,,,,,,,,,,,,,,staff,D_new,29,301,3681.4311826856574,None,3681.4311826856574,None,3681.4311826856574,None,2,1.8586059857043438,3681.4311826856574,None,3683.3366320221103,None,3683.3366320221103,None,3683.865150389436,None,3683.865150389436,None,3683.865150389436,None,f,5.463726500340272,3683.865150389436,None,base1,001,2019_Oct_22_1332,ProdFawcett_Revision2019,3.2.4,59.96141710308501,
,,,,30,0,30,0,,,,,,,,,,,,,3695.902271523548,None,,,,,,,,,,,,,,,,,,,,,,captain,A_silent,30,41,3689.8845223592944,None,3689.8845223592944,None,3689.8845223592944,None,6,4.571710871881805,3689.8845223592944,None,3694.5184024228365,None,3694.5184024228365,None,3695.035356200824,None,3695.035356200824,None,3695.035356200824,None,r,0.8288714472437277,3695.035356200824,None,base1,001,2019_Oct_22_1332,ProdFawcett_Revision2019,3.2.4,59.96141710308501,
,,,,31,0,31,0,,,,,,,,,,,,,3702.6043249728973,None,,,,,,,,,,,,,,,,,,,,,,weather,D_new,31,352,3696.420388758008,None,3696.420388758008,None,3696.420388758008,None,2,2.0276651347521693,3696.420388758008,None,3698.5030772039318,None,3698.5030772039318,None,3699.0197479706258,None,3699.0197479706258,None,3699.0197479706258,None,n,3.5481556213926524,3699.0197479706258,None,base1,001,2019_Oct_22_1332,ProdFawcett_Revision2019,3.2.4,59.96141710308501,
,,,,32,0,32,0,,,,,,,,,,,,,3708.4393312348984,None,,,,,,,,,,,,,,,,,,,,,,science,C_aloud2,32,275,3703.122352016915,None,3703.122352016915,None,3703.122352016915,None,2,1.6774787360918708,3703.122352016915,None,3704.8431314860936,None,3704.8431314860936,None,3705.371703345678,None,3705.371703345678,None,3705.371703345678,None,n,3.01967270829482,3705.371703345678,None,base1,001,2019_Oct_22_1332,ProdFawcett_Revision2019,3.2.4,59.96141710308501,
,,,,33,0,33,0,,,,,,,,,,,,,3713.907757900306,None,,,,,,,,,,,,,,,,,,,,,,school,C_aloud2,33,274,3708.9573091407074,None,3708.9573091407074,None,3708.9573091407074,None,4,2.233934053394478,3708.9573091407074,None,3711.2568184737465,None,3711.2568184737465,None,3711.773783447803,None,3711.773783447803,None,3711.773783447803,None,f,2.0893482311512344,3711.773783447803,None,base1,001,2019_Oct_22_1332,ProdFawcett_Revision2019,3.2.4,59.96141710308501,
,,,,34,0,34,0,,,,,,,,,,,,,3718.1255624850164,None,,,,,,,,,,,,,,,,,,,,,,nation,D_new,34,198,3714.4253467433155,None,3714.4253467433155,None,3714.4253467433155,None,5,2.1258996105752885,3714.4253467433155,None,3716.5987826158525,None,3716.5987826158525,None,3717.1254296873813,None,3717.1254296873813,None,3717.1254296873813,None,f,0.9616930172778666,3717.1254296873813,None,base1,001,2019_Oct_22_1332,ProdFawcett_Revision2019,3.2.4,59.96141710308501,
,,,,35,0,35,0,,,,,,,,,,,,,3723.994155349559,None,,,,,,,,,,,,,,,,,,,,,,budget,D_new,35,34,3718.6424164315686,None,3718.6424164315686,None,3718.6424164315686,None,3,1.8041567832697183,3718.6424164315686,None,3720.499641259783,None,3720.499641259783,None,3721.0265632565715,None,3721.0265632565715,None,3721.0265632565715,None,f,2.9319622108596377,3721.0265632565715,None,base1,001,2019_Oct_22_1332,ProdFawcett_Revision2019,3.2.4,59.96141710308501,
,,,,36,0,36,0,,,,,,,,,,,,,3730.029218587035,None,,,,,,,,,,,,,,,,,,,,,,birth,D_new,36,22,3724.512564614415,None,3724.512564614415,None,3724.512564614415,None,2,1.8700396433705464,3724.512564614415,None,3726.444823831669,None,3726.444823831669,None,3726.961717897386,None,3726.961717897386,None,3726.961717897386,None,n,3.0202493050019257,3726.961717897386,None,base1,001,2019_Oct_22_1332,ProdFawcett_Revision2019,3.2.4,59.96141710308501,
,,,,37,0,37,0,,,,,,,,,,,,,3739.632088073122,None,,,,,,,,,,,,,,,,,,,,,,style,C_aloud2,37,311,3730.5459431569907,None,3730.5459431569907,None,3730.5459431569907,None,4,7.4281121682724915,3730.5459431569907,None,3738.0198033289053,None,3738.0198033289053,None,3738.548446096771,None,3738.548446096771,None,3738.548446096771,None,f,1.0491889237309806,3738.548446096771,None,base1,001,2019_Oct_22_1332,ProdFawcett_Revision2019,3.2.4,59.96141710308501,
,,,,38,0,38,0,,,,,,,,,,,,,3745.3338737501763,None,,,,,,,,,,,,,,,,,,,,,,breath,A_silent,38,27,3740.150111696159,None,3740.150111696159,None,3740.150111696159,None,3,2.3350546227302402,3740.150111696159,None,3742.549680461525,None,3742.549680461525,None,3743.066609048459,None,3743.066609048459,None,3743.066609048459,None,n,2.218403884500731,3743.066609048459,None,base1,001,2019_Oct_22_1332,ProdFawcett_Revision2019,3.2.4,59.96141710308501,
,,,,39,0,39,0,,,,,,,,,,,,,3750.852253158926,None,,,,,,,,,,,,,,,,,,,,,,detective,D_new,39,92,3745.8531304940116,None,3745.8531304940116,None,3745.8531304940116,None,4,4.295706718112342,3745.8531304940116,None,3750.2020722649177,None,3750.2020722649177,None,3750.718832600047,None,3750.718832600047,None,3750.718832600047,None,f,0.08582209661835805,3750.718832600047,None,base1,001,2019_Oct_22_1332,ProdFawcett_Revision2019,3.2.4,59.96141710308501,
,,,,40,0,40,0,,,,,,,,,,,,,3754.670171134756,None,,,,,,,,,,,,,,,,,,,,,,debate,C_aloud2,40,87,3751.3700939131086,None,3751.3700939131086,None,3751.3700939131086,None,6,1.8428683788515627,3751.3700939131086,None,3753.2589469677187,None,3753.2589469677187,None,3753.786483814358,None,3753.786483814358,None,3753.786483814358,None,r,0.8424684309866279,3753.786483814358,None,base1,001,2019_Oct_22_1332,ProdFawcett_Revision2019,3.2.4,59.96141710308501,
,,,,41,0,41,0,,,,,,,,,,,,,3760.5384710359504,None,,,,,,,,,,,,,,,,,,,,,,article,D_new,41,11,3755.1880283720093,None,3755.1880283720093,None,3755.1880283720093,None,3,3.848320856457576,3755.1880283720093,None,3759.077912707464,None,3759.077912707464,None,3759.6049329807283,None,3759.6049329807283,None,3759.6049329807283,None,f,0.8870890543330461,3759.6049329807283,None,base1,001,2019_Oct_22_1332,ProdFawcett_Revision2019,3.2.4,59.96141710308501,
,,,,42,0,42,0,,,,,,,,,,,,,3765.5232845236897,None,,,,,,,,,,,,,,,,,,,,,,owner,B_aloud1,42,208,3761.055227639037,None,3761.055227639037,None,3761.055227639037,None,5,3.2526858863420784,3761.055227639037,None,3764.3608462847187,None,3764.3608462847187,None,3764.889769575908,None,3764.889769575908,None,3764.889769575908,None,f,0.5944111793651246,3764.889769575908,None,base1,001,2019_Oct_22_1332,ProdFawcett_Revision2019,3.2.4,59.96141710308501,
,,,,43,0,43,0,,,,,,,,,,,,,3772.8923511989997,None,,,,,,,,,,,,,,,,,,,,,,business,D_new,43,38,3766.040966356173,None,3766.040966356173,None,3766.040966356173,None,5,4.802496657532174,3766.040966356173,None,3770.8973632985144,None,3770.8973632985144,None,3771.4251626304467,None,3771.4251626304467,None,3771.4251626304467,None,f,1.426789790042676,3771.4251626304467,None,base1,001,2019_Oct_22_1332,ProdFawcett_Revision2019,3.2.4,59.96141710308501,
,,,,44,0,44,0,,,,,,,,,,,,,3782.5452545997687,None,,,,,,,,,,,,,,,,,,,,,,bright,D_new,44,29,3773.408930842299,None,3773.408930842299,None,3773.408930842299,None,2,3.5221397273708135,3773.408930842299,None,3776.9935423656716,None,3776.9935423656716,None,3777.5104809046607,None,3777.5104809046607,None,3777.5104809046607,None,f,4.9965876920032315,3777.5104809046607,None,base1,001,2019_Oct_22_1332,ProdFawcett_Revision2019,3.2.4,59.96141710308501,
,,,,45,0,45,0,,,,,,,,,,,,,3788.630478329549,None,,,,,,,,,,,,,,,,,,,,,,worker,C_aloud2,45,356,3783.0619701506803,None,3783.0619701506803,None,3783.0619701506803,None,3,3.1169082474079914,3783.0619701506803,None,3786.229639745201,None,3786.229639745201,None,3786.7465537150856,None,3786.7465537150856,None,3786.7465537150856,None,f,1.8478587082936428,3786.7465537150856,None,base1,001,2019_Oct_22_1332,ProdFawcett_Revision2019,3.2.4,59.96141710308501,
,,,,46,0,46,0,,,,,,,,,,,,,3797.9831735770567,None,,,,,,,,,,,,,,,,,,,,,,surface,D_new,46,316,3789.147691793798,None,3789.147691793798,None,3789.147691793798,None,5,7.622010070830584,3789.147691793798,None,3796.820463522803,None,3796.820463522803,None,3797.349623175047,None,3797.349623175047,None,3797.349623175047,None,f,0.5880126354168169,3797.349623175047,None,base1,001,2019_Oct_22_1332,ProdFawcett_Revision2019,3.2.4,59.96141710308501,
,,,,47,0,47,0,,,,,,,,,,,,,3802.067851499305,None,,,,,,,,,,,,,,,,,,,,,,trash,D_new,47,337,3798.5000853699166,None,3798.5000853699166,None,3798.5000853699166,None,2,1.717699621745851,3798.5000853699166,None,3800.2672099654446,None,3800.2672099654446,None,3800.7841419734177,None,3800.7841419734177,None,3800.7841419734177,None,n,1.242113702755887,3800.7841419734177,None,base1,001,2019_Oct_22_1332,ProdFawcett_Revision2019,3.2.4,59.96141710308501,
,,,,48,0,48,0,,,,,,,,,,,,,3807.21929987974,None,,,,,,,,,,,,,,,,,,,,,,heavy,D_new,48,151,3802.584812741319,None,3802.584812741319,None,3802.584812741319,None,4,2.528798579587601,3802.584812741319,None,3805.1565469383495,None,3805.1565469383495,None,3805.6855156357633,None,3805.6855156357633,None,3805.6855156357633,None,f,1.4999286251259036,3805.6855156357633,None,base1,001,2019_Oct_22_1332,ProdFawcett_Revision2019,3.2.4,59.96141710308501,
,,,,49,0,49,0,,,,,,,,,,,,,3813.43798055558,None,,,,,,,,,,,,,,,,,,,,,,dozen,A_silent,49,102,3807.740181295201,None,3807.740181295201,None,3807.740181295201,None,2,3.580751062312629,3807.740181295201,None,3811.370688547904,None,3811.370688547904,None,3811.8875882116845,None,3811.8875882116845,None,3811.8875882116845,None,f,1.5131371681345627,3811.8875882116845,None,base1,001,2019_Oct_22_1332,ProdFawcett_Revision2019,3.2.4,59.96141710308501,
,,,,50,0,50,0,,,,,,,,,,,,,3820.5568095479975,None,,,,,,,,,,,,,,,,,,,,,,clean,D_new,50,51,3813.9548435211764,None,3813.9548435211764,None,3813.9548435211764,None,3,4.9263728925725445,3813.9548435211764,None,3818.927571803215,None,3818.927571803215,None,3819.456346435705,None,3819.456346435705,None,3819.456346435705,None,f,1.0567509242100641,3819.456346435705,None,base1,001,2019_Oct_22_1332,ProdFawcett_Revision2019,3.2.4,59.96141710308501,
,,,,51,0,51,0,,,,,,,,,,,,,3834.8111253929674,None,,,,,,,,,,,,,,,,,,,,,,count,D_new,51,72,3821.0738541384344,None,3821.0738541384344,None,3821.0738541384344,None,3,2.430280781467445,3821.0738541384344,None,3823.5451364192413,None,3823.5451364192413,None,3824.0744792513433,None,3824.0744792513433,None,3824.0744792513433,None,n,10.693771480524447,3824.0744792513433,None,base1,001,2019_Oct_22_1332,ProdFawcett_Revision2019,3.2.4,59.96141710308501,
,,,,52,0,52,0,,,,,,,,,,,,,3842.646713849739,None,,,,,,,,,,,,,,,,,,,,,,problem,C_aloud2,52,238,3835.32834445528,None,3835.32834445528,None,3835.32834445528,None,4,2.1272359838476405,3835.32834445528,None,3837.5120113428566,None,3837.5120113428566,None,3838.029891283193,None,3838.029891283193,None,3838.029891283193,None,f,4.577391935570631,3838.029891283193,None,base1,001,2019_Oct_22_1332,ProdFawcett_Revision2019,3.2.4,59.96141710308501,
,,,,53,0,53,0,,,,,,,,,,,,,3846.7147516388795,None,,,,,,,,,,,,,,,,,,,,,,brief,C_aloud2,53,28,3843.163645235647,None,3843.163645235647,None,3843.163645235647,None,5,2.2512328875018284,3843.163645235647,None,3845.464395464456,None,3845.464395464456,None,3845.981078049226,None,3845.981078049226,None,3845.981078049226,None,f,0.6976350516197272,3845.981078049226,None,base1,001,2019_Oct_22_1332,ProdFawcett_Revision2019,3.2.4,59.96141710308501,
,,,,54,0,54,0,,,,,,,,,,,,,3850.7825620860094,None,,,,,,,,,,,,,,,,,,,,,,motion,D_new,54,194,3847.2314429316903,None,3847.2314429316903,None,3847.2314429316903,None,3,1.7113800721126609,3847.2314429316903,None,3848.9864910296164,None,3848.9864910296164,None,3849.5154516409966,None,3849.5154516409966,None,3849.5154516409966,None,f,1.2188240474788472,3849.5154516409966,None,base1,001,2019_Oct_22_1332,ProdFawcett_Revision2019,3.2.4,59.96141710308501,
,,,,55,0,55,0,,,,,,,,,,,,,3854.650353810808,None,,,,,,,,,,,,,,,,,,,,,,still,D_new,55,304,3851.3004613084486,None,3851.3004613084486,None,3851.3004613084486,None,2,1.6661638809600845,3851.3004613084486,None,3853.0042949301424,None,3853.0042949301424,None,3853.5333112107473,None,3853.5333112107473,None,3853.5333112107473,None,n,1.0740003091632389,3853.5333112107473,None,base1,001,2019_Oct_22_1332,ProdFawcett_Revision2019,3.2.4,59.96141710308501,
,,,,56,0,56,0,,,,,,,,,,,,,3858.9683611995424,None,,,,,,,,,,,,,,,,,,,,,,strain,A_silent,56,308,3855.1672945267637,None,3855.1672945267637,None,3855.1672945267637,None,4,2.2467927196994424,3855.1672945267637,None,3857.4679051159183,None,3857.4679051159183,None,3857.9848635589588,None,3857.9848635589588,None,3857.9848635589588,None,f,0.9493540344410576,3857.9848635589588,None,base1,001,2019_Oct_22_1332,ProdFawcett_Revision2019,3.2.4,59.96141710308501,
,,,,57,0,57,0,,,,,,,,,,,,,3866.621273930359,None,,,,,,,,,,,,,,,,,,,,,,private,A_silent,57,237,3859.485937602527,None,3859.485937602527,None,3859.485937602527,None,4,5.760070771444589,3859.485937602527,None,3865.303645963373,None,3865.303645963373,None,3865.8205645982525,None,3865.8205645982525,None,3865.8205645982525,None,f,0.7526754678110592,3865.8205645982525,None,base1,001,2019_Oct_22_1332,ProdFawcett_Revision2019,3.2.4,59.96141710308501,
,,,,58,0,58,0,,,,,,,,,,,,,3873.1559840256814,None,,,,,,,,,,,,,,,,,,,,,,meeting,D_new,58,187,3867.1272832560935,None,3867.1272832560935,None,3867.1272832560935,None,5,3.9416374661959708,3867.1272832560935,None,3871.122141468979,None,3871.122141468979,None,3871.6389879515045,None,3871.6389879515045,None,3871.6389879515045,None,f,1.478271416563075,3871.6389879515045,None,base1,001,2019_Oct_22_1332,ProdFawcett_Revision2019,3.2.4,59.96141710308501,
,,,,59,0,59,0,,,,,,,,,,,,,3879.958165016724,None,,,,,,,,,,,,,,,,,,,,,,match,D_new,59,181,3873.6731209835852,None,3873.6731209835852,None,3873.6731209835852,None,2,3.779490635613911,3873.6731209835852,None,3877.50730682374,None,3877.50730682374,None,3878.024250338727,None,3878.024250338727,None,3878.024250338727,None,n,1.8926954776397906,3878.024250338727,None,base1,001,2019_Oct_22_1332,ProdFawcett_Revision2019,3.2.4,59.96141710308501,
,,,,60,0,60,0,,,,,,,,,,,,,3884.8595635591773,None,,,,,,,,,,,,,,,,,,,,,,colonel,A_silent,60,55,3880.475805174967,None,3880.475805174967,None,3880.475805174967,None,6,3.1926843749242835,3880.475805174967,None,3883.72595733247,None,3883.72595733247,None,3884.242785776907,None,3884.242785776907,None,3884.242785776907,None,r,0.5692912805243395,3884.242785776907,None,base1,001,2019_Oct_22_1332,ProdFawcett_Revision2019,3.2.4,59.96141710308501,
,,,,61,0,61,0,,,,,,,,,,,,,3893.378824657062,None,,,,,,,,,,,,,,,,,,,,,,account,D_new,61,1,3885.3771172590205,None,3885.3771172590205,None,3885.3771172590205,None,4,3.4915564659168012,3885.3771172590205,None,3888.927533239068,None,3888.927533239068,None,3889.444218311808,None,3889.444218311808,None,3889.444218311808,None,f,3.89578963117674,3889.444218311808,None,base1,001,2019_Oct_22_1332,ProdFawcett_Revision2019,3.2.4,59.96141710308501,
,,,,62,0,62,0,,,,,,,,,,,,,3904.3821554826573,None,,,,,,,,,,,,,,,,,,,,,,sunset,A_silent,62,315,3893.896869428223,None,3893.896869428223,None,3893.896869428223,None,1,8.65892687701853,3893.896869428223,None,3902.6149310556357,None,3902.6149310556357,None,3903.1319246418425,None,3903.1319246418425,None,3903.1319246418425,None,n,1.2077477305429056,3903.1319246418425,None,base1,001,2019_Oct_22_1332,ProdFawcett_Revision2019,3.2.4,59.96141710308501,
,,,,63,0,63,0,,,,,,,,,,,,,3908.8002726860577,None,,,,,,,,,,,,,,,,,,,,,,discovery,D_new,63,95,3904.901017876691,None,3904.901017876691,None,3904.901017876691,None,5,2.8695709641906433,3904.901017876691,None,3907.833251591772,None,3907.833251591772,None,3908.3501347724814,None,3908.3501347724814,None,3908.3501347724814,None,f,0.41248558898223564,3908.3501347724814,None,base1,001,2019_Oct_22_1332,ProdFawcett_Revision2019,3.2.4,59.96141710308501,
,,,,64,0,64,0,,,,,,,,,,,,,3917.5528449013946,None,,,,,,,,,,,,,,,,,,,,,,prime,D_new,64,235,3909.317866816127,None,3909.317866816127,None,3909.317866816127,None,2,5.572292133641895,3909.317866816127,None,3914.943022666732,None,3914.943022666732,None,3915.4689712289255,None,3915.4689712289255,None,3915.4689712289255,None,n,2.0370194366551004,3915.4689712289255,None,base1,001,2019_Oct_22_1332,ProdFawcett_Revision2019,3.2.4,59.96141710308501,
,,,,65,0,65,0,,,,,,,,,,,,,3922.9211272309767,None,,,,,,,,,,,,,,,,,,,,,,season,C_aloud2,65,277,3918.069820449513,None,3918.069820449513,None,3918.069820449513,None,4,2.4843384330160916,3918.069820449513,None,3920.591822714254,None,3920.591822714254,None,3921.1205457204487,None,3921.1205457204487,None,3921.1205457204487,None,f,1.761556114477571,3921.1205457204487,None,base1,001,2019_Oct_22_1332,ProdFawcett_Revision2019,3.2.4,59.96141710308501,
,,,,66,0,66,0,,,,,,,,,,,,,3927.6892488972517,None,,,,,,,,,,,,,,,,,,,,,,smooth,B_aloud1,66,292,3923.4388697087415,None,3923.4388697087415,None,3923.4388697087415,None,2,2.7705456116236746,3923.4388697087415,None,3926.2603234601556,None,3926.2603234601556,None,3926.7889469459187,None,3926.7889469459187,None,3926.7889469459187,None,n,0.8609751948388293,3926.7889469459187,None,base1,001,2019_Oct_22_1332,ProdFawcett_Revision2019,3.2.4,59.96141710308501,
,,,,67,0,67,0,,,,,,,,,,,,,3932.9074969700305,None,,,,,,,,,,,,,,,,,,,,,,place,D_new,67,222,3928.2067064976436,None,3928.2067064976436,None,3928.2067064976436,None,3,2.9625345872482285,3928.2067064976436,None,3931.2109311414533,None,3931.2109311414533,None,3931.7404394263867,None,3931.7404394263867,None,3931.7404394263867,None,f,1.1254582995316014,3931.7404394263867,None,base1,001,2019_Oct_22_1332,ProdFawcett_Revision2019,3.2.4,59.96141710308501,
,,,,68,0,68,0,,,,,,,,,,,,,3938.509426298726,None,,,,,,,,,,,,,,,,,,,,,,candidate,D_new,68,39,3933.4242706782534,None,3933.4242706782534,None,3933.4242706782534,None,5,3.768528767162934,3933.4242706782534,None,3937.2421643959824,None,3937.2421643959824,None,3937.7590432226425,None,3937.7590432226425,None,3937.7590432226425,None,f,0.7059661587118171,3937.7590432226425,None,base1,001,2019_Oct_22_1332,ProdFawcett_Revision2019,3.2.4,59.96141710308501,
,,,,69,0,69,0,,,,,,,,,,,,,3947.0619891217793,None,,,,,,,,,,,,,,,,,,,,,,equipment,D_new,69,116,3939.0317737750593,None,3939.0317737750593,None,3939.0317737750593,None,6,4.280727332865354,3939.0317737750593,None,3943.3774064903846,None,3943.3774064903846,None,3943.895881687582,None,3943.895881687582,None,3943.895881687582,None,r,3.128368029196281,3943.895881687582,None,base1,001,2019_Oct_22_1332,ProdFawcett_Revision2019,3.2.4,59.96141710308501,
,,,,70,0,70,0,,,,,,,,,,,,,3951.7966964803054,None,,,,,,,,,,,,,,,,,,,,,,signal,D_new,70,287,3947.5796311460435,None,3947.5796311460435,None,3947.5796311460435,None,3,3.0123763030278496,3947.5796311460435,None,3950.6462529455894,None,3950.6462529455894,None,3951.163157585368,None,3951.163157585368,None,3951.163157585368,None,f,0.5968127326341346,3951.163157585368,None,base1,001,2019_Oct_22_1332,ProdFawcett_Revision2019,3.2.4,59.96141710308501,
,,,,71,0,71,0,,,,,,,,,,,,,3961.0493581085466,None,,,,,,,,,,,,,,,,,,,,,,novel,B_aloud1,71,202,3952.313537675771,None,3952.313537675771,None,3952.313537675771,None,6,7.549967826867942,3952.313537675771,None,3959.902406809153,None,3959.902406809153,None,3960.4159000740037,None,3960.4159000740037,None,3960.4159000740037,None,r,0.5998481069109403,3960.4159000740037,None,base1,001,2019_Oct_22_1332,ProdFawcett_Revision2019,3.2.4,59.96141710308501,
,,,,72,0,72,0,,,,,,,,,,,,,3965.4675017470145,None,,,,,,,,,,,,,,,,,,,,,,evidence,D_new,72,120,3961.5684198544477,None,3961.5684198544477,None,3961.5684198544477,None,6,2.4627956729964353,3961.5684198544477,None,3964.0836973346304,None,3964.0836973346304,None,3964.6005814482924,None,3964.6005814482924,None,3964.6005814482924,None,r,0.8304385836236179,3964.6005814482924,None,base1,001,2019_Oct_22_1332,ProdFawcett_Revision2019,3.2.4,59.96141710308501,
,,,,73,0,73,0,,,,,,,,,,,,,3969.535296644084,None,,,,,,,,,,,,,,,,,,,,,,space,D_new,73,297,3965.984634350927,None,3965.984634350927,None,3965.984634350927,None,2,1.742674904933665,3965.984634350927,None,3967.774079210183,None,3967.774079210183,None,3968.3016900751973,None,3968.3016900751973,None,3968.3016900751973,None,n,1.1850399590330198,3968.3016900751973,None,base1,001,2019_Oct_22_1332,ProdFawcett_Revision2019,3.2.4,59.96141710308501,
,,,,74,0,74,0,,,,,,,,,,,,,3976.6542503481032,None,,,,,,,,,,,,,,,,,,,,,,blind,B_aloud1,74,24,3970.0522743692272,None,3970.0522743692272,None,3970.0522743692272,None,2,2.0023098078672774,3970.0522743692272,None,3972.1046193357324,None,3972.1046193357324,None,3972.619652679772,None,3972.619652679772,None,3972.619652679772,None,n,3.986700644600205,3972.619652679772,None,base1,001,2019_Oct_22_1332,ProdFawcett_Revision2019,3.2.4,59.96141710308501,
,,,,75,0,75,0,,,,,,,,,,,,,3980.48857738293,None,,,,,,,,,,,,,,,,,,,,,,management,C_aloud2,75,177,3977.1733114719973,None,3977.1733114719973,None,3977.1733114719973,None,6,1.5289403962669894,3977.1733114719973,None,3978.754785612691,None,3978.754785612691,None,3979.2716196551337,None,3979.2716196551337,None,3979.2716196551337,None,r,1.182817542576231,3979.2716196551337,None,base1,001,2019_Oct_22_1332,ProdFawcett_Revision2019,3.2.4,59.96141710308501,
,,,,76,0,76,0,,,,,,,,,,,,,3985.390208554454,None,,,,,,,,,,,,,,,,,,,,,,search,D_new,76,276,3981.006177732954,None,3981.006177732954,None,3981.006177732954,None,1,2.3600855751428753,3981.006177732954,None,3983.4229706921615,None,3983.4229706921615,None,3983.939629329776,None,3983.939629329776,None,3983.939629329776,None,n,1.418105385324452,3983.939629329776,None,base1,001,2019_Oct_22_1332,ProdFawcett_Revision2019,3.2.4,59.96141710308501,
,,,,77,0,77,0,,,,,,,,,,,,,3988.9412745275185,None,,,,,,,,,,,,,,,,,,,,,,gesture,C_aloud2,77,137,3985.9082685646717,None,3985.9082685646717,None,3985.9082685646717,None,6,2.35319875885034,3985.9082685646717,None,3988.3243788756663,None,3988.3243788756663,None,3988.8412589463405,None,3988.8412589463405,None,3988.8412589463405,None,r,0.05213348555844277,3988.8412589463405,None,base1,001,2019_Oct_22_1332,ProdFawcett_Revision2019,3.2.4,59.96141710308501,
,,,,78,0,78,0,,,,,,,,,,,,,3993.526021647558,None,,,,,,,,,,,,,,,,,,,,,,number,A_silent,78,203,3989.4612736318377,None,3989.4612736318377,None,3989.4612736318377,None,4,2.2888992072548717,3989.4612736318377,None,3991.8087885280256,None,3991.8087885280256,None,3992.3256661106716,None,3992.3256661106716,None,3992.3256661106716,None,f,1.1597312823287211,3992.3256661106716,None,base1,001,2019_Oct_22_1332,ProdFawcett_Revision2019,3.2.4,59.96141710308501,
,,,,79,0,79,0,,,,,,,,,,,,,3997.27714397409,None,,,,,,,,,,,,,,,,,,,,,,contract,D_new,79,68,3994.0440940978588,None,3994.0440940978588,None,3994.0440940978588,None,5,2.465349616948515,3994.0440940978588,None,3996.548507675063,None,3996.548507675063,None,3997.0769227898563,None,3997.0769227898563,None,3997.0769227898563,None,f,0.15207971341442317,3997.0769227898563,None,base1,001,2019_Oct_22_1332,ProdFawcett_Revision2019,3.2.4,59.96141710308501,
,,,,80,0,80,0,,,,,,,,,,,,,4003.479061360238,None,,,,,,,,,,,,,,,,,,,,,,solution,B_aloud1,80,294,3997.794296482054,None,3997.794296482054,None,3997.794296482054,None,5,3.482522184494883,3997.794296482054,None,4001.316104059806,None,4001.316104059806,None,4001.8451218954287,None,4001.8451218954287,None,4001.8451218954287,None,f,1.5923539047362283,4001.8451218954287,None,base1,001,2019_Oct_22_1332,ProdFawcett_Revision2019,3.2.4,59.96141710308501,
,,,,81,0,81,0,,,,,,,,,,,,,4009.897664658958,None,,,,,,,,,,,,,,,,,,,,,,period,D_new,81,217,4003.9959451629547,None,4003.9959451629547,None,4003.9959451629547,None,3,2.688506536767818,4003.9959451629547,None,4006.746645771491,None,4006.746645771491,None,4007.2635301962146,None,4007.2635301962146,None,4007.2635301962146,None,n,2.5885488018975593,4007.2635301962146,None,base1,001,2019_Oct_22_1332,ProdFawcett_Revision2019,3.2.4,59.96141710308501,
,,,,82,0,82,0,,,,,,,,,,,,,4015.5160229506437,None,,,,,,,,,,,,,,,,,,,,,,safety,A_silent,82,270,4010.4143873628927,None,4010.4143873628927,None,4010.4143873628927,None,6,2.717803185165394,4010.4143873628927,None,4013.182010804827,None,4013.182010804827,None,4013.698654514388,None,4013.698654514388,None,4013.698654514388,None,r,1.777567091572564,4013.698654514388,None,base1,001,2019_Oct_22_1332,ProdFawcett_Revision2019,3.2.4,59.96141710308501,
,,,,83,0,83,0,,,,,,,,,,,,,4020.083994652028,None,,,,,,,,,,,,,,,,,,,,,,error,D_new,83,117,4016.0326514211483,None,4016.0326514211483,None,4016.0326514211483,None,1,2.0758548108278774,4016.0326514211483,None,4018.166740633198,None,4018.166740633198,None,4018.683574986644,None,4018.683574986644,None,4018.683574986644,None,n,1.3603150942362845,4018.683574986644,None,base1,001,2019_Oct_22_1332,ProdFawcett_Revision2019,3.2.4,59.96141710308501,
,,,,84,0,84,0,,,,,,,,,,,,,4025.252306775539,None,,,,,,,,,,,,,,,,,,,,,,danger,B_aloud1,84,85,4020.6008734786883,None,4020.6008734786883,None,4020.6008734786883,None,4,2.4825280935619958,4020.6008734786883,None,4023.122824117134,None,4023.122824117134,None,4023.6517299922416,None,4023.6517299922416,None,4023.6517299922416,None,f,1.5676292887656018,4023.6517299922416,None,base1,001,2019_Oct_22_1332,ProdFawcett_Revision2019,3.2.4,59.96141710308501,
,,,,85,0,85,0,,,,,,,,,,,,,4029.270096992026,None,,,,,,,,,,,,,,,,,,,,,,short,D_new,85,285,4025.7700980805093,None,4025.7700980805093,None,4025.7700980805093,None,5,2.352806897019036,4025.7700980805093,None,4028.1864018344204,None,4028.1864018344204,None,4028.7032290348434,None,4028.7032290348434,None,4028.7032290348434,None,f,0.5318809150485322,4028.7032290348434,None,base1,001,2019_Oct_22_1332,ProdFawcett_Revision2019,3.2.4,59.96141710308501,
,,,,86,0,86,0,,,,,,,,,,,,,4033.7715731604258,None,,,,,,,,,,,,,,,,,,,,,,mayor,D_new,86,183,4029.7872715810663,None,4029.7872715810663,None,4029.7872715810663,None,1,2.1278666948201135,4029.7872715810663,None,4031.971048563195,None,4031.971048563195,None,4032.487867055577,None,4032.487867055577,None,4032.487867055577,None,n,1.2430659892270342,4032.487867055577,None,base1,001,2019_Oct_22_1332,ProdFawcett_Revision2019,3.2.4,59.96141710308501,
,,,,87,0,87,0,,,,,,,,,,,,,4041.4572489619604,None,,,,,,,,,,,,,,,,,,,,,,universal,A_silent,87,345,4034.2898001784342,None,4034.2898001784342,None,4034.2898001784342,None,5,5.392945367319044,4034.2898001784342,None,4039.7399723022245,None,4039.7399723022245,None,4040.257003830571,None,4040.257003830571,None,4040.257003830571,None,r,1.1530683870660141,4040.257003830571,None,base1,001,2019_Oct_22_1332,ProdFawcett_Revision2019,3.2.4,59.96141710308501,
,,,,88,0,88,0,,,,,,,,,,,,,4050.2432258439367,None,,,,,,,,,,,,,,,,,,,,,,native,D_new,88,199,4041.973971665895,None,4041.973971665895,None,4041.973971665895,None,3,3.292790146486368,4041.973971665895,None,4045.325028868683,None,4045.325028868683,None,4045.8419207574334,None,4045.8419207574334,None,4045.8419207574334,None,f,4.360493609099649,4045.8419207574334,None,base1,001,2019_Oct_22_1332,ProdFawcett_Revision2019,3.2.4,59.96141710308501,
,,,,89,0,89,0,,,,,,,,,,,,,4060.8298685178743,None,,,,,,,,,,,,,,,,,,,,,,afternoon,D_new,89,3,4050.7605475367163,None,4050.7605475367163,None,4050.7605475367163,None,5,3.0965575559530407,4050.7605475367163,None,4053.8826090783114,None,4053.8826090783114,None,4054.411161344731,None,4054.411161344731,None,4054.411161344731,None,r,6.381805606069975,4054.411161344731,None,base1,001,2019_Oct_22_1332,ProdFawcett_Revision2019,3.2.4,59.96141710308501,
,,,,90,0,90,0,,,,,,,,,,,,,4064.88102981291,None,,,,,,,,,,,,,,,,,,,,,,opening,D_new,90,205,4061.3477705394034,None,4061.3477705394034,None,4061.3477705394034,None,4,1.957747963781003,4061.3477705394034,None,4063.351672052697,None,4063.351672052697,None,4063.8805975208525,None,4063.8805975208525,None,4063.8805975208525,None,f,0.960455231484957,4063.8805975208525,None,base1,001,2019_Oct_22_1332,ProdFawcett_Revision2019,3.2.4,59.96141710308501,
,,,,91,0,91,0,,,,,,,,,,,,,4068.865468543896,None,,,,,,,,,,,,,,,,,,,,,,pretty,D_new,91,233,4065.3986578420736,None,4065.3986578420736,None,4065.3986578420736,None,5,1.8586756500299089,4065.3986578420736,None,4067.3150590949226,None,4067.3150590949226,None,4067.8319164625136,None,4067.8319164625136,None,4067.8319164625136,None,f,0.9844741851557046,4067.8319164625136,None,base1,001,2019_Oct_22_1332,ProdFawcett_Revision2019,3.2.4,59.96141710308501,
,,,,92,0,92,0,,,,,,,,,,,,,4072.61660921952,None,,,,,,,,,,,,,,,,,,,,,,goose,B_aloud1,92,138,4069.3825958607486,None,4069.3825958607486,None,4069.3825958607486,None,6,1.4977792940917425,4069.3825958607486,None,4070.9326750261826,None,4070.9326750261826,None,4071.449695047515,None,4071.449695047515,None,4071.449695047515,None,r,1.1184616996906698,4071.449695047515,None,base1,001,2019_Oct_22_1332,ProdFawcett_Revision2019,3.2.4,59.96141710308501,
,,,,93,0,93,0,,,,,,,,,,,,,4078.185067949118,None,,,,,,,,,,,,,,,,,,,,,,material,B_aloud1,93,182,4073.134728942008,None,4073.134728942008,None,4073.134728942008,None,6,1.5133980983518995,4073.134728942008,None,4074.689232414181,None,4074.689232414181,None,4075.217451909033,None,4075.217451909033,None,4075.217451909033,None,r,2.9269852544530295,4075.217451909033,None,base1,001,2019_Oct_22_1332,ProdFawcett_Revision2019,3.2.4,59.96141710308501,
,,,,94,0,94,0,,,,,,,,,,,,,4082.369717290334,None,,,,,,,,,,,,,,,,,,,,,,treatment,C_aloud2,94,339,4078.70305580704,None,4078.70305580704,None,4078.70305580704,None,5,1.80881807312835,4078.70305580704,None,4080.569051498431,None,4080.569051498431,None,4081.0860522376606,None,4081.0860522376606,None,4081.0860522376606,None,f,1.2422384143574163,4081.0860522376606,None,base1,001,2019_Oct_22_1332,ProdFawcett_Revision2019,3.2.4,59.96141710308501,
,,,,95,0,95,0,,,,,,,,,,,,,4085.2872465454857,None,,,,,,,,,,,,,,,,,,,,,,produce,D_new,95,239,4082.887559599534,None,4082.887559599534,None,4082.887559599534,None,5,1.6726890025893226,4082.887559599534,None,4084.6202762377216,None,4084.6202762377216,None,4085.13705803192,None,4085.13705803192,None,4085.13705803192,None,f,0.10236302018165588,4085.13705803192,None,base1,001,2019_Oct_22_1332,ProdFawcett_Revision2019,3.2.4,59.96141710308501,
,,,,96,0,96,0,,,,,,,,,,,,,4093.3395426847856,None,,,,,,,,,,,,,,,,,,,,,,machinery,D_new,96,175,4085.8041975244996,None,4085.8041975244996,None,4085.8041975244996,None,5,6.051227849267889,4085.8041975244996,None,4091.895417673397,None,4091.895417673397,None,4092.4059766394203,None,4092.4059766394203,None,4092.4059766394203,None,f,0.896963972656522,4092.4059766394203,None,base1,001,2019_Oct_22_1332,ProdFawcett_Revision2019,3.2.4,59.96141710308501,
,,,,97,0,97,0,,,,,,,,,,,,,4097.2074121599435,None,,,,,,,,,,,,,,,,,,,,,,revolution,B_aloud1,97,264,4093.8583472325117,None,4093.8583472325117,None,4093.8583472325117,None,5,1.7163178422488272,4093.8583472325117,None,4095.6281616797205,None,4095.6281616797205,None,4096.157484918775,None,4096.157484918775,None,4096.157484918775,None,f,1.0094833674957044,4096.157484918775,None,base1,001,2019_Oct_22_1332,ProdFawcett_Revision2019,3.2.4,59.96141710308501,
,,,,98,0,98,0,,,,,,,,,,,,,4108.394193727174,None,,,,,,,,,,,,,,,,,,,,,,department,B_aloud1,98,90,4097.7250019359635,None,4097.7250019359635,None,4097.7250019359635,None,5,4.5934828399913386,4097.7250019359635,None,4102.375669236237,None,4102.375669236237,None,4102.892655047413,None,4102.892655047413,None,4102.892655047413,None,f,5.465143112000078,4102.892655047413,None,base1,001,2019_Oct_22_1332,ProdFawcett_Revision2019,3.2.4,59.96141710308501,
,,,,99,0,99,0,,,,,,,,,,,,,4111.81192217872,None,,,,,,,,,,,,,,,,,,,,,,industry,C_aloud2,99,161,4108.911869339587,None,4108.911869339587,None,4108.911869339587,None,6,1.4067155788652599,4108.911869339587,None,4110.378076076566,None,4110.378076076566,None,4110.894865645794,None,4110.894865645794,None,4110.894865645794,None,r,0.8789137590210885,4110.894865645794,None,base1,001,2019_Oct_22_1332,ProdFawcett_Revision2019,3.2.4,59.96141710308501,
,,,,100,0,100,0,,,,,,,,,,,,,4116.8300019375165,None,,,,,,,,,,,,,,,,,,,,,,platform,D_new,100,224,4112.32913128892,None,4112.32913128892,None,4112.32913128892,None,4,2.6123472555191256,4112.32913128892,None,4114.996159753995,None,4114.996159753995,None,4115.512941548193,None,4115.512941548193,None,4115.512941548193,None,f,1.2844605944119394,4115.512941548193,None,base1,001,2019_Oct_22_1332,ProdFawcett_Revision2019,3.2.4,59.96141710308501,
,,,,101,0,101,0,,,,,,,,,,,,,4121.314847613918,None,,,,,,,,,,,,,,,,,,,,,,throw,D_new,101,330,4117.34738365357,None,4117.34738365357,None,4117.34738365357,None,4,2.242339489806909,4117.34738365357,None,4119.647582476784,None,4119.647582476784,None,4120.164337524911,None,4120.164337524911,None,4120.164337524911,None,f,1.1127181247575209,4120.164337524911,None,base1,001,2019_Oct_22_1332,ProdFawcett_Revision2019,3.2.4,59.96141710308501,
,,,,102,0,102,0,,,,,,,,,,,,,4125.266029092949,None,,,,,,,,,,,,,,,,,,,,,,sweet,D_new,102,319,4121.831601729034,None,4121.831601729034,None,4121.831601729034,None,5,2.5095982825150713,4121.831601729034,None,4124.399074895075,None,4124.399074895075,None,4124.915932573611,None,4124.915932573611,None,4124.915932573611,None,f,0.3047251384705305,4124.915932573611,None,base1,001,2019_Oct_22_1332,ProdFawcett_Revision2019,3.2.4,59.96141710308501,
,,,,103,0,103,0,,,,,,,,,,,,,4130.0841927599395,None,,,,,,,,,,,,,,,,,,,,,,length,D_new,103,169,4125.782886460482,None,4125.782886460482,None,4125.782886460482,None,2,2.2138231440330856,4125.782886460482,None,4128.050089894969,None,4128.050089894969,None,4128.569023197284,None,4128.569023197284,None,4128.569023197284,None,n,1.4673913415172137,4128.569023197284,None,base1,001,2019_Oct_22_1332,ProdFawcett_Revision2019,3.2.4,59.96141710308501,
,,,,104,0,104,0,,,,,,,,,,,,,4134.852242273861,None,,,,,,,,,,,,,,,,,,,,,,taste,D_new,104,322,4130.600819364423,None,4130.600819364423,None,4130.600819364423,None,2,2.5156544139026664,4130.600819364423,None,4133.155667426239,None,4133.155667426239,None,4133.685197792249,None,4133.685197792249,None,4133.685197792249,None,n,1.1272313188528642,4133.685197792249,None,base1,001,2019_Oct_22_1332,ProdFawcett_Revision2019,3.2.4,59.96141710308501,
,,,,105,0,105,0,,,,,,,,,,,,,4140.687348056352,None,,,,,,,,,,,,,,,,,,,,,,angle,A_silent,105,7,4135.369050503185,None,4135.369050503185,None,4135.369050503185,None,2,2.9389124714653008,4135.369050503185,None,4138.369871858042,None,4138.369871858042,None,4138.886876951321,None,4138.886876951321,None,4138.886876951321,None,n,1.7577637626673095,4138.886876951321,None,base1,001,2019_Oct_22_1332,ProdFawcett_Revision2019,3.2.4,59.96141710308501,
,,,,106,0,106,0,,,,,,,,,,,,,4144.371846717317,None,,,,,,,,,,,,,,,,,,,,,,character,C_aloud2,106,46,4141.206085738726,None,4141.206085738726,None,4141.206085738726,None,6,1.7495561231626198,4141.206085738726,None,4142.993882290262,None,4142.993882290262,None,4143.521518968453,None,4143.521518968453,None,4143.521518968453,None,r,0.8020861356053501,4143.521518968453,None,base1,001,2019_Oct_22_1332,ProdFawcett_Revision2019,3.2.4,59.96141710308501,
,,,,107,0,107,0,,,,,,,,,,,,,4149.256552256469,None,,,,,,,,,,,,,,,,,,,,,,estate,A_silent,107,119,4144.88868262578,None,4144.88868262578,None,4144.88868262578,None,4,2.6828914054785855,4144.88868262578,None,4147.612681582104,None,4147.612681582104,None,4148.13967075519,None,4148.13967075519,None,4148.13967075519,None,f,1.0716143059544265,4148.13967075519,None,base1,001,2019_Oct_22_1332,ProdFawcett_Revision2019,3.2.4,59.96141710308501,
,,,,108,0,108,0,,,,,,,,,,,,,4154.124814526469,None,,,,,,,,,,,,,,,,,,,,,,story,D_new,108,306,4149.773432638147,None,4149.773432638147,None,4149.773432638147,None,5,2.4619177158456296,4149.773432638147,None,4152.290941242769,None,4152.290941242769,None,4152.807766266225,None,4152.807766266225,None,4152.807766266225,None,f,1.2836205794592388,4152.807766266225,None,base1,001,2019_Oct_22_1332,ProdFawcett_Revision2019,3.2.4,59.96141710308501,
,,,,109,0,109,0,,,,,,,,,,,,,4158.342659230402,None,,,,,,,,,,,,,,,,,,,,,,orchestra,B_aloud1,109,206,4154.641686822113,None,4154.641686822113,None,4154.641686822113,None,6,2.4098610476357862,4154.641686822113,None,4157.095938352053,None,4157.095938352053,None,4157.625681132078,None,4157.625681132078,None,4157.625681132078,None,r,0.6811364241875708,4157.625681132078,None,base1,001,2019_Oct_22_1332,ProdFawcett_Revision2019,3.2.4,59.96141710308501,
,,,,110,0,110,0,,,,,,,,,,,,,4162.527338116721,None,,,,,,,,,,,,,,,,,,,,,,capital,D_new,110,40,4158.859447555675,None,4158.859447555675,None,4158.859447555675,None,5,3.031124714994803,4158.859447555675,None,4161.943837490515,None,4161.943837490515,None,4162.460547132418,None,4162.460547132418,None,4162.460547132418,None,f,0.029983339656610042,4162.460547132418,None,base1,001,2019_Oct_22_1332,ProdFawcett_Revision2019,3.2.4,59.96141710308501,
,,,,111,0,111,0,,,,,,,,,,,,,4166.395176802762,None,,,,,,,,,,,,,,,,,,,,,,victory,D_new,111,346,4163.044969566923,None,4163.044969566923,None,4163.044969566923,None,6,2.0691959586110897,4163.044969566923,None,4165.165758490562,None,4165.165758490562,None,4165.694855320558,None,4165.694855320558,None,4165.694855320558,None,r,0.6513126282952726,4165.694855320558,None,base1,001,2019_Oct_22_1332,ProdFawcett_Revision2019,3.2.4,59.96141710308501,
,,,,112,0,112,0,,,,,,,,,,,,,4169.445976092073,None,,,,,,,,,,,,,,,,,,,,,,entrance,B_aloud1,112,115,4166.897403728683,None,4166.897403728683,None,4166.897403728683,None,5,1.6325331162079237,4166.897403728683,None,4168.584279062867,None,4168.584279062867,None,4169.112478031602,None,4169.112478031602,None,4169.112478031602,None,f,0.29761129105463624,4169.112478031602,None,base1,001,2019_Oct_22_1332,ProdFawcett_Revision2019,3.2.4,59.96141710308501,
,,,,113,0,113,0,,,,,,,,,,,,,4173.230615356821,None,,,,,,,,,,,,,,,,,,,,,,thing,B_aloud1,113,328,4169.963968925993,None,4169.963968925993,None,4169.963968925993,None,3,1.4857992068864405,4169.963968925993,None,4171.513427643455,None,4171.513427643455,None,4172.03013324237,None,4172.03013324237,None,4172.03013324237,None,f,1.1636679387884215,4172.03013324237,None,base1,001,2019_Oct_22_1332,ProdFawcett_Revision2019,3.2.4,59.96141710308501,
,,,,114,0,114,0,,,,,,,,,,,,,4178.4988771292265,None,,,,,,,,,,,,,,,,,,,,,,portion,A_silent,114,228,4173.747836907103,None,4173.747836907103,None,4173.747836907103,None,3,3.5100056944647804,4173.747836907103,None,4177.315258757852,None,4177.315258757852,None,4177.83201038494,None,4177.83201038494,None,4177.83201038494,None,f,0.6336866206256673,4177.83201038494,None,base1,001,2019_Oct_22_1332,ProdFawcett_Revision2019,3.2.4,59.96141710308501,
,,,,115,0,115,0,,,,,,,,,,,,,4182.733351392148,None,,,,,,,,,,,,,,,,,,,,,,committee,C_aloud2,115,62,4179.017308164155,None,4179.017308164155,None,4179.017308164155,None,6,1.9839442386873998,4179.017308164155,None,4181.066331324168,None,4181.066331324168,None,4181.5831140513765,None,4181.5831140513765,None,4181.5831140513765,None,r,1.1139269874547608,4181.5831140513765,None,base1,001,2019_Oct_22_1332,ProdFawcett_Revision2019,3.2.4,59.96141710308501,
,,,,116,0,116,0,,,,,,,,,,,,,4186.1345336330705,None,,,,,,,,,,,,,,,,,,,,,,guide,C_aloud2,116,147,4183.250342490326,None,4183.250342490326,None,4183.250342490326,None,5,1.783030143182259,4183.250342490326,None,4185.084158549784,None,4185.084158549784,None,4185.6009950802545,None,4185.6009950802545,None,4185.6009950802545,None,f,0.4878266254090704,4185.6009950802545,None,base1,001,2019_Oct_22_1332,ProdFawcett_Revision2019,3.2.4,59.96141710308501,
,,,,117,0,117,0,,,,,,,,,,,,,4189.752139923279,None,,,,,,,,,,,,,,,,,,,,,,quiet,B_aloud1,117,249,4186.65622520732,None,4186.65622520732,None,4186.65622520732,None,6,1.2805003018584102,4186.65622520732,None,4187.98893798911,None,4187.98893798911,None,4188.50348523783,None,4188.50348523783,None,4188.50348523783,None,r,1.2096072082640603,4188.50348523783,None,base1,001,2019_Oct_22_1332,ProdFawcett_Revision2019,3.2.4,59.96141710308501,
,,,,118,0,118,0,,,,,,,,,,,,,4194.270315626054,None,,,,,,,,,,,,,,,,,,,,,,majority,D_new,118,176,4190.272256275115,None,4190.272256275115,None,4190.272256275115,None,5,3.376227172848303,4190.272256275115,None,4193.703366497473,None,4193.703366497473,None,4194.225425053446,None,4194.225425053446,None,4194.225425053446,None,f,0.015024480468127877,4194.225425053446,None,base1,001,2019_Oct_22_1332,ProdFawcett_Revision2019,3.2.4,59.96141710308501,
,,,,119,0,119,0,,,,,,,,,,,,,4201.122272089589,None,,,,,,,,,,,,,,,,,,,,,,literature,B_aloud1,119,173,4194.787669351965,None,4194.787669351965,None,4194.787669351965,None,6,1.5005049108876847,4194.787669351965,None,4196.337644642859,None,4196.337644642859,None,4196.854502943461,None,4196.854502943461,None,4196.854502943461,None,r,4.2339110393077135,4196.854502943461,None,base1,001,2019_Oct_22_1332,ProdFawcett_Revision2019,3.2.4,59.96141710308501,
,,,,120,0,120,0,,,,,,,,,,,,,4205.973851308343,None,,,,,,,,,,,,,,,,,,,,,,scale,C_aloud2,120,272,4201.6391372322105,None,4201.6391372322105,None,4201.6391372322105,None,5,3.5524928477825597,4201.6391372322105,None,4205.243606509757,None,4205.243606509757,None,4205.773730888555,None,4205.773730888555,None,4205.773730888555,None,f,0.16185013524955139,4205.773730888555,None,base1,001,2019_Oct_22_1332,ProdFawcett_Revision2019,3.2.4,59.96141710308501,
,,,,121,0,121,0,,,,,,,,,,,,,4208.657906792243,None,,,,,,,,,,,,,,,,,,,,,,build,D_new,121,35,4206.491476849478,None,4206.491476849478,None,4206.491476849478,None,5,1.508881735149771,4206.491476849478,None,4208.057905672642,None,4208.057905672642,None,4208.57468653383,None,4208.57468653383,None,4208.57468653383,None,f,0.049253301054704934,4208.57468653383,None,base1,001,2019_Oct_22_1332,ProdFawcett_Revision2019,3.2.4,59.96141710308501,
,,,,122,0,122,0,,,,,,,,,,,,,4211.825727533491,None,,,,,,,,,,,,,,,,,,,,,,beginning,C_aloud2,122,19,4209.175352263555,None,4209.175352263555,None,4209.175352263555,None,6,1.2481350019806996,4209.175352263555,None,4210.463698510197,None,4210.463698510197,None,4210.991935421131,None,4210.991935421131,None,4210.991935421131,None,r,0.792170787055511,4210.991935421131,None,base1,001,2019_Oct_22_1332,ProdFawcett_Revision2019,3.2.4,59.96141710308501,
,,,,123,0,123,0,,,,,,,,,,,,,4215.259882149112,None,,,,,,,,,,,,,,,,,,,,,,phrase,D_new,123,220,4212.343516661436,None,4212.343516661436,None,4212.343516661436,None,3,1.7760260793147609,4212.343516661436,None,4214.176302373002,None,4214.176302373002,None,4214.693208567856,None,4214.693208567856,None,4214.693208567856,None,f,0.5217282724333927,4214.693208567856,None,base1,001,2019_Oct_22_1332,ProdFawcett_Revision2019,3.2.4,59.96141710308501,
,,,,124,0,124,0,,,,,,,,,,,,,4221.7787426770665,None,,,,,,,,,,,,,,,,,,,,,,message,C_aloud2,124,189,4215.777465705061,None,4215.777465705061,None,4215.777465705061,None,5,2.4854449762497097,4215.777465705061,None,4218.316923237697,None,4218.316923237697,None,4218.844455108338,None,4218.844455108338,None,4218.844455108338,None,f,2.8982963028829545,4218.844455108338,None,base1,001,2019_Oct_22_1332,ProdFawcett_Revision2019,3.2.4,59.96141710308501,
,,,,125,0,125,0,,,,,,,,,,,,,4225.363014897914,None,,,,,,,,,,,,,,,,,,,,,,court,A_silent,125,75,4222.296445657616,None,4222.296445657616,None,4222.296445657616,None,5,1.9980923170223832,4222.296445657616,None,4224.346081801457,None,4224.346081801457,None,4224.862969336158,None,4224.862969336158,None,4224.862969336158,None,f,0.45559443422826007,4224.862969336158,None,base1,001,2019_Oct_22_1332,ProdFawcett_Revision2019,3.2.4,59.96141710308501,
,,,,126,0,126,0,,,,,,,,,,,,,4230.731286031427,None,,,,,,,,,,,,,,,,,,,,,,symbol,D_new,126,321,4225.879870710487,None,4225.879870710487,None,4225.879870710487,None,3,2.7265787133947015,4225.879870710487,None,4228.663976296724,None,4228.663976296724,None,4229.18092478771,None,4229.18092478771,None,4229.18092478771,None,f,1.5131859953398816,4229.18092478771,None,base1,001,2019_Oct_22_1332,ProdFawcett_Revision2019,3.2.4,59.96141710308501,
,,,,127,0,127,0,,,,,,,,,,,,,4235.016014398134,None,,,,,,,,,,,,,,,,,,,,,,exchange,C_aloud2,127,121,4231.250482751988,None,4231.250482751988,None,4231.250482751988,None,5,2.4513016810524277,4231.250482751988,None,4233.765643606603,None,4233.765643606603,None,4234.282444682962,None,4234.282444682962,None,4234.282444682962,None,f,0.6924366622115485,4234.282444682962,None,base1,001,2019_Oct_22_1332,ProdFawcett_Revision2019,3.2.4,59.96141710308501,
,,,,128,0,128,0,,,,,,,,,,,,,4240.38431103382,None,,,,,,,,,,,,,,,,,,,,,,poetry,A_silent,128,225,4235.532840665546,None,4235.532840665546,None,4235.532840665546,None,6,3.041518072714098,4235.532840665546,None,4238.633797337126,None,4238.633797337126,None,4239.150663412758,None,4239.150663412758,None,4239.150663412758,None,r,1.1915716116782278,4239.150663412758,None,base1,001,2019_Oct_22_1332,ProdFawcett_Revision2019,3.2.4,59.96141710308501,
,,,,129,0,129,0,,,,,,,,,,,,,4244.969044780766,None,,,,,,,,,,,,,,,,,,,,,,research,D_new,129,261,4240.905625052284,None,4240.905625052284,None,4240.905625052284,None,6,2.531710486218799,4240.905625052284,None,4243.4901093760855,None,4243.4901093760855,None,4244.018647647463,None,4244.018647647463,None,4244.018647647463,None,r,0.9072957521420904,4244.018647647463,None,base1,001,2019_Oct_22_1332,ProdFawcett_Revision2019,3.2.4,59.96141710308501,
,,,,130,0,130,0,,,,,,,,,,,,,4249.987158438773,None,,,,,,,,,,,,,,,,,,,,,,direction,A_silent,130,94,4245.4873215589905,None,4245.4873215589905,None,4245.4873215589905,None,3,2.4535797667340375,4245.4873215589905,None,4247.991531119274,None,4247.991531119274,None,4248.520001592289,None,4248.520001592289,None,4248.520001592289,None,f,1.4287973044556566,4248.520001592289,None,base1,001,2019_Oct_22_1332,ProdFawcett_Revision2019,3.2.4,59.96141710308501,
,,,,131,0,131,0,,,,,,,,,,,,,4253.054707955627,None,,,,,,,,,,,,,,,,,,,,,,comfort,C_aloud2,131,59,4250.504378434038,None,4250.504378434038,None,4250.504378434038,None,3,1.8362120147212408,4250.504378434038,None,4252.394564129878,None,4252.394564129878,None,4252.921471509617,None,4252.921471509617,None,4252.921471509617,None,f,0.09196344239171594,4252.921471509617,None,base1,001,2019_Oct_22_1332,ProdFawcett_Revision2019,3.2.4,59.96141710308501,
,,,,132,0,132,0,,,,,,,,,,,,,4261.840700698725,None,,,,,,,,,,,,,,,,,,,,,,alert,B_aloud1,132,6,4253.571639652539,None,4253.571639652539,None,4253.571639652539,None,4,5.025393269141205,4253.571639652539,None,4258.65654616087,None,4258.65654616087,None,4259.1732701088185,None,4259.1732701088185,None,4259.1732701088185,None,f,2.630928037688136,4259.1732701088185,None,base1,001,2019_Oct_22_1332,ProdFawcett_Revision2019,3.2.4,59.96141710308501,
,,,,133,0,133,0,,,,,,,,,,,,,4270.393315770023,None,,,,,,,,,,,,,,,,,,,,,,swift,B_aloud1,133,320,4262.357637371693,None,4262.357637371693,None,4262.357637371693,None,5,1.71825258230092,4262.357637371693,None,4264.1289726159885,None,4264.1289726159885,None,4264.658270041924,None,4264.658270041924,None,4264.658270041924,None,r,5.697270557866432,4264.658270041924,None,base1,001,2019_Oct_22_1332,ProdFawcett_Revision2019,3.2.4,59.96141710308501,
,,,,134,0,134,0,,,,,,,,,,,,,4276.778608635417,None,,,,,,,,,,,,,,,,,,,,,,drink,D_new,134,105,4270.910410742741,None,4270.910410742741,None,4270.910410742741,None,2,3.077228815294802,4270.910410742741,None,4274.044531987864,None,4274.044531987864,None,4274.561232921726,None,4274.561232921726,None,4274.561232921726,None,n,2.1782364911050536,4274.561232921726,None,base1,001,2019_Oct_22_1332,ProdFawcett_Revision2019,3.2.4,59.96141710308501,
,,,,135,0,135,0,,,,,,,,,,,,,4283.480756007193,None,,,,,,,,,,,,,,,,,,,,,,guest,D_new,135,146,4277.295475022052,None,4277.295475022052,None,4277.295475022052,None,2,4.08373247779673,4277.295475022052,None,4281.430011143151,None,4281.430011143151,None,4281.946989179298,None,4281.946989179298,None,4281.946989179298,None,n,1.4876188764465041,4281.946989179298,None,base1,001,2019_Oct_22_1332,ProdFawcett_Revision2019,3.2.4,59.96141710308501,
,,,,136,0,136,0,,,,,,,,,,,,,4290.682972265815,None,,,,,,,,,,,,,,,,,,,,,,height,A_silent,136,152,4283.997989375552,None,4283.997989375552,None,4283.997989375552,None,2,4.804266877821647,4283.997989375552,None,4288.865726364136,None,4288.865726364136,None,4289.382447824057,None,4289.382447824057,None,4289.382447824057,None,n,1.2517762070638128,4289.382447824057,None,base1,001,2019_Oct_22_1332,ProdFawcett_Revision2019,3.2.4,59.96141710308501,
,,,,137,0,137,0,,,,,,,,,,,,,4298.235243680538,None,,,,,,,,,,,,,,,,,,,,,,incident,A_silent,137,158,4291.200943018601,None,4291.200943018601,None,4291.200943018601,None,3,5.920817473554052,4291.200943018601,None,4297.1848850802635,None,4297.1848850802635,None,4297.701738093863,None,4297.701738093863,None,4297.701738093863,None,f,0.4840874548535794,4297.701738093863,None,base1,001,2019_Oct_22_1332,ProdFawcett_Revision2019,3.2.4,59.96141710308501,
,,,,138,0,138,0,,,,,,,,,,,,,4302.369699874253,None,,,,,,,,,,,,,,,,,,,,,,health,B_aloud1,138,149,4298.752918981947,None,4298.752918981947,None,4298.752918981947,None,6,1.6415039533167146,4298.752918981947,None,4300.452498725674,None,4300.452498725674,None,4300.969422025548,None,4300.969422025548,None,4300.969422025548,None,r,1.3680652505718172,4300.969422025548,None,base1,001,2019_Oct_22_1332,ProdFawcett_Revision2019,3.2.4,59.96141710308501,
,,,,139,0,139,0,,,,,,,,,,,,,4306.887910720194,None,,,,,,,,,,,,,,,,,,,,,,emergency,A_silent,139,110,4302.888777170214,None,4302.888777170214,None,4302.888777170214,None,3,2.14456156414235,4302.888777170214,None,4305.076829489379,None,4305.076829489379,None,4305.604010239418,None,4305.604010239418,None,4305.604010239418,None,f,1.2371109332889318,4305.604010239418,None,base1,001,2019_Oct_22_1332,ProdFawcett_Revision2019,3.2.4,59.96141710308501,
,,,,140,0,140,0,,,,,,,,,,,,,4310.855620682705,None,,,,,,,,,,,,,,,,,,,,,,bicycle,D_new,140,21,4307.405903865059,None,4307.405903865059,None,4307.405903865059,None,1,1.715639237081632,4307.405903865059,None,4309.171909477387,None,4309.171909477387,None,4309.68858366512,None,4309.68858366512,None,4309.68858366512,None,n,1.1286246054223739,4309.68858366512,None,base1,001,2019_Oct_22_1332,ProdFawcett_Revision2019,3.2.4,59.96141710308501,
,,,,141,0,141,0,,,,,,,,,,,,,4315.257045193808,None,,,,,,,,,,,,,,,,,,,,,,little,C_aloud2,141,174,4311.373897149926,None,4311.373897149926,None,4311.373897149926,None,6,1.3948885044083,4311.373897149926,None,4312.811723448802,None,4312.811723448802,None,4313.339806103031,None,4313.339806103031,None,4313.339806103031,None,r,1.8688833399210125,4313.339806103031,None,base1,001,2019_Oct_22_1332,ProdFawcett_Revision2019,3.2.4,59.96141710308501,
,,,,142,0,142,0,,,,,,,,,,,,,4321.808915727597,None,,,,,,,,,,,,,,,,,,,,,,second,A_silent,142,278,4315.773932417505,None,4315.773932417505,None,4315.773932417505,None,2,4.234795216412749,4315.773932417505,None,4320.047203179391,None,4320.047203179391,None,4320.575230475399,None,4320.575230475399,None,4320.575230475399,None,n,1.193224273447413,4320.575230475399,None,base1,001,2019_Oct_22_1332,ProdFawcett_Revision2019,3.2.4,59.96141710308501,
,,,,143,0,143,0,,,,,,,,,,,,,4327.210622006038,None,,,,,,,,,,,,,,,,,,,,,,service,C_aloud2,143,280,4322.326708587585,None,4322.326708587585,None,4322.326708587585,None,4,3.9936185610713437,4322.326708587585,None,4326.377051948744,None,4326.377051948744,None,4326.893920512346,None,4326.893920512346,None,4326.893920512346,None,f,0.2748173722065985,4326.893920512346,None,base1,001,2019_Oct_22_1332,ProdFawcett_Revision2019,3.2.4,59.96141710308501,
,,,,144,0,144,0,,,,,,,,,,,,,4334.296214894508,None,,,,,,,,,,,,,,,,,,,,,,salary,A_silent,144,271,4327.728683882218,None,4327.728683882218,None,4327.728683882218,None,2,4.015040652593598,4327.728683882218,None,4331.795299461752,None,4331.795299461752,None,4332.312251373776,None,4332.312251373776,None,4332.312251373776,None,n,1.9434546477277763,4332.312251373776,None,base1,001,2019_Oct_22_1332,ProdFawcett_Revision2019,3.2.4,59.96141710308501,
,,,,145,0,145,0,,,,,,,,,,,,,4341.531754959433,None,,,,,,,,,,,,,,,,,,,,,,sound,D_new,145,295,4334.812986114703,None,4334.812986114703,None,4334.812986114703,None,4,4.346185053931549,4334.812986114703,None,4339.214280627202,None,4339.214280627202,None,4339.731186821999,None,4339.731186821999,None,4339.731186821999,None,f,1.7564003322622739,4339.731186821999,None,base1,001,2019_Oct_22_1332,ProdFawcett_Revision2019,3.2.4,59.96141710308501,
,,,,146,0,146,0,,,,,,,,,,,,,4344.716012438817,None,,,,,,,,,,,,,,,,,,,,,,guard,D_new,146,145,4342.048788353859,None,4342.048788353859,None,4342.048788353859,None,6,1.4142072930699214,4342.048788353859,None,4343.503800282313,None,4343.503800282313,None,4344.032357835793,None,4344.032357835793,None,4344.032357835793,None,r,0.6464479434653185,4344.032357835793,None,base1,001,2019_Oct_22_1332,ProdFawcett_Revision2019,3.2.4,59.96141710308501,
,,,,147,0,147,0,,,,,,,,,,,,,4356.269435180933,None,,,,,,,,,,,,,,,,,,,,,,listen,D_new,147,172,4345.233730969427,None,4345.233730969427,None,4345.233730969427,None,3,3.0771992701338604,4345.233730969427,None,4348.367073777947,None,4348.367073777947,None,4348.883964422683,None,4348.883964422683,None,4348.883964422683,None,f,7.338022198644467,4348.883964422683,None,base1,001,2019_Oct_22_1332,ProdFawcett_Revision2019,3.2.4,59.96141710308501,
,,,,148,0,148,0,,,,,,,,,,,,,4360.203984923894,None,,,,,,,,,,,,,,,,,,,,,,break,B_aloud1,148,26,4356.78616410488,None,4356.78616410488,None,4356.78616410488,None,5,2.363726469222456,4356.78616410488,None,4359.190415619232,None,4359.190415619232,None,4359.720427726512,None,4359.720427726512,None,4359.720427726512,None,f,0.4372913763509132,4359.720427726512,None,base1,001,2019_Oct_22_1332,ProdFawcett_Revision2019,3.2.4,59.96141710308501,
,,,,149,0,149,0,,,,,,,,,,,,,4367.372802113823,None,,,,,,,,,,,,,,,,,,,,,,medicine,D_new,149,186,4360.721165733004,None,4360.721165733004,None,4360.721165733004,None,5,4.780215891019907,4360.721165733004,None,4365.546109231771,None,4365.546109231771,None,4366.072637811711,None,4366.072637811711,None,4366.072637811711,None,f,1.2527580386959016,4366.072637811711,None,base1,001,2019_Oct_22_1332,ProdFawcett_Revision2019,3.2.4,59.96141710308501,
,,,,150,0,150,0,,,,,,,,,,,,,4374.09146086406,None,,,,,,,,,,,,,,,,,,,,,,resistance,D_new,150,262,4367.891430323711,None,4367.891430323711,None,4367.891430323711,None,4,5.506252528866753,4367.891430323711,None,4373.458107947954,None,4373.458107947954,None,4373.974926751398,None,4373.974926751398,None,4373.974926751398,None,f,0.07795438164612278,4373.974926751398,None,base1,001,2019_Oct_22_1332,ProdFawcett_Revision2019,3.2.4,59.96141710308501,
,,,,151,0,151,0,,,,,,,,,,,,,4384.644775688648,None,,,,,,,,,,,,,,,,,,,,,,surprise,D_new,151,317,4374.609667666955,None,4374.609667666955,None,4374.609667666955,None,4,9.386620841629338,4374.609667666955,None,4384.061238053255,None,4384.061238053255,None,4384.578109104885,None,4384.578109104885,None,4384.578109104885,None,f,0.02625287720002234,4384.578109104885,None,base1,001,2019_Oct_22_1332,ProdFawcett_Revision2019,3.2.4,59.96141710308501,
,,,,152,0,152,0,,,,,,,,,,,,,4391.980435831239,None,,,,,,,,,,,,,,,,,,,,,,skill,A_silent,152,289,4385.161486574507,None,4385.161486574507,None,4385.161486574507,None,3,4.738330836524256,4385.161486574507,None,4389.953821259376,None,4389.953821259376,None,4390.479921590304,None,4390.479921590304,None,4390.479921590304,None,f,1.4678254995378666,4390.479921590304,None,base1,001,2019_Oct_22_1332,ProdFawcett_Revision2019,3.2.4,59.96141710308501,
,,,,153,0,153,0,,,,,,,,,,,,,4395.1480096373125,None,,,,,,,,,,,,,,,,,,,,,,watch,C_aloud2,153,351,4392.497411068354,None,4392.497411068354,None,4392.497411068354,None,3,1.8749705714872107,4392.497411068354,None,4394.4310150558595,None,4394.4310150558595,None,4394.947978163953,None,4394.947978163953,None,4394.947978163953,None,f,0.15157993405591697,4394.947978163953,None,base1,001,2019_Oct_22_1332,ProdFawcett_Revision2019,3.2.4,59.96141710308501,
