StudyTrials.thisRepN,StudyTrials.thisTrialN,StudyTrials.thisN,StudyTrials.thisIndex,TestTrials.thisRepN,TestTrials.thisTrialN,TestTrials.thisN,TestTrials.thisIndex,textWelcome.started,textWelcome.stopped,keyWelcome.keys,keyWelcome.rt,keyWelcome.started,keyWelcome.stopped,textReady.started,textReady.stopped,keyReady.keys,keyReady.rt,keyReady.started,keyReady.stopped,polyback_2.started,polyback_2.stopped,studyPic,studyWord,studyType,studyN,studyOrder,polyback_3.started,polyback_3.stopped,studyPicChoice.started,studyPicChoice.stopped,polyback_4.started,polyback_4.stopped,polyback.started,polyback.stopped,studyWords.started,studyWords.stopped,getResearcher.started,getResearcher.stopped,kPress2.keys,kPress2.rt,kPress2.started,kPress2.stopped,testWord,testType,testN,testOrder,polyback_5.started,polyback_5.stopped,testWords.started,testWords.stopped,textScale.started,textScale.stopped,keyConf.keys,keyConf.rt,keyConf.started,keyConf.stopped,polyback_6.started,polyback_6.stopped,studyWords_2.started,studyWords_2.stopped,polyback_7.started,polyback_7.stopped,testWords_2.started,testWords_2.stopped,textScale_2.started,textScale_2.stopped,keyRKN.keys,keyRKN.rt,keyRKN.started,keyRKN.stopped,participant,session,date,expName,psychopyVersion,frameRate,
,,,,,,,,19.239532562030945,None,space,929.516303414799,19.239532562030945,None,,,,,,,,,,,,,,,,,,,,,,,,,,,,,,,,,,,,,,,,,,,,,,,,,,,,,,,,,,base7,001,2019_Oct_26_1351,ProdFawcett_Revision2019,3.2.4,59.989813257564634,
,,,,,,,,,,,,,,948.7765040119411,None,space,18.370309137302684,948.7765040119411,None,,,,,,,,,,,,,,,,,,,,,,,,,,,,,,,,,,,,,,,,,,,,,,,,,,,,base7,001,2019_Oct_26_1351,ProdFawcett_Revision2019,3.2.4,59.989813257564634,
0,0,0,0,,,,,,,,,,,,,,,,,971.9503473906661,None,materials/mumblePic.jpg,school,C_aloud2,0,274,968.3373555389699,None,968.3373555389699,None,969.2011668843625,None,969.4661416930903,None,969.4661416930903,None,,,,,,,,,,,,,,,,,,,,,,,,,,,,,,,,,,,base7,001,2019_Oct_26_1351,ProdFawcett_Revision2019,3.2.4,59.989813257564634,
1,0,1,0,,,,,,,,,,,,,,,,,976.2186835230386,None,materials/speakPic.jpg,birth,B_aloud1,1,22,972.5842168936797,None,972.5842168936797,None,973.4676796043932,None,973.7341416308773,None,973.7341416308773,None,,,,,,,,,,,,,,,,,,,,,,,,,,,,,,,,,,,base7,001,2019_Oct_26_1351,ProdFawcett_Revision2019,3.2.4,59.989813257564634,
2,0,2,0,,,,,,,,,,,,,,,,,980.4863379361632,None,materials/mumblePic.jpg,finance,C_aloud2,2,129,976.8028270199429,None,976.8028270199429,None,977.7356083224295,None,978.0021169994143,None,978.0021169994143,None,,,,,,,,,,,,,,,,,,,,,,,,,,,,,,,,,,,base7,001,2019_Oct_26_1351,ProdFawcett_Revision2019,3.2.4,59.989813257564634,
3,0,3,0,,,,,,,,,,,,,,,,,984.754316725739,None,materials/readPic.jpg,territory,A_silent,3,324,981.0541363438242,None,981.0541363438242,None,982.00423244384,None,982.2701035640785,None,982.2701035640785,None,,,,,,,,,,,,,,,,,,,,,,,,,,,,,,,,,,,base7,001,2019_Oct_26_1351,ProdFawcett_Revision2019,3.2.4,59.989813257564634,
4,0,4,0,,,,,,,,,,,,,,,,,989.0223630030232,None,materials/mumblePic.jpg,goose,C_aloud2,4,138,985.3264865957317,None,985.3264865957317,None,986.2715811407543,None,986.5380935497815,None,986.5380935497815,None,,,,,,,,,,,,,,,,,,,,,,,,,,,,,,,,,,,base7,001,2019_Oct_26_1351,ProdFawcett_Revision2019,3.2.4,59.989813257564634,
5,0,5,0,,,,,,,,,,,,,,,,,993.2905088013795,None,materials/readPic.jpg,column,A_silent,5,57,989.6302727498696,None,989.6302727498696,None,990.5426559681364,None,990.8060869565234,None,990.8060869565234,None,,,,,,,,,,,,,,,,,,,,,,,,,,,,,,,,,,,base7,001,2019_Oct_26_1351,ProdFawcett_Revision2019,3.2.4,59.989813257564634,
6,0,6,0,,,,,,,,,,,,,,,,,997.5582891708473,None,materials/mumblePic.jpg,order,C_aloud2,6,207,993.8582658455998,None,993.8582658455998,None,994.8076270448219,None,995.0740589040215,None,995.0740589040215,None,,,,,,,,,,,,,,,,,,,,,,,,,,,,,,,,,,,base7,001,2019_Oct_26_1351,ProdFawcett_Revision2019,3.2.4,59.989813257564634,
7,0,7,0,,,,,,,,,,,,,,,,,1001.8262707594549,None,materials/mumblePic.jpg,orchestra,C_aloud2,7,206,998.1081877837714,None,998.1081877837714,None,999.0756027243624,None,999.3420423586504,None,999.3420423586504,None,,,,,,,,,,,,,,,,,,,,,,,,,,,,,,,,,,,base7,001,2019_Oct_26_1351,ProdFawcett_Revision2019,3.2.4,59.989813257564634,
8,0,8,0,,,,,,,,,,,,,,,,,1006.0942529700696,None,materials/mumblePic.jpg,tennis,C_aloud2,8,323,1002.3789886172744,None,1002.3789886172744,None,1003.3435429495294,None,1003.610048516508,None,1003.610048516508,None,,,,,,,,,,,,,,,,,,,,,,,,,,,,,,,,,,,base7,001,2019_Oct_26_1351,ProdFawcett_Revision2019,3.2.4,59.989813257564634,
9,0,9,0,,,,,,,,,,,,,,,,,1010.3622389127268,None,materials/speakPic.jpg,point,B_aloud1,9,226,1006.6862225539517,None,1006.6862225539517,None,1007.6115357342642,None,1007.8780304161191,None,1007.8780304161191,None,,,,,,,,,,,,,,,,,,,,,,,,,,,,,,,,,,,base7,001,2019_Oct_26_1351,ProdFawcett_Revision2019,3.2.4,59.989813257564634,
10,0,10,0,,,,,,,,,,,,,,,,,1014.630216769292,None,materials/readPic.jpg,smell,A_silent,10,291,1010.9647253840812,None,1010.9647253840812,None,1011.879598183732,None,1012.1460067176668,None,1012.1460067176668,None,,,,,,,,,,,,,,,,,,,,,,,,,,,,,,,,,,,base7,001,2019_Oct_26_1351,ProdFawcett_Revision2019,3.2.4,59.989813257564634,
11,0,11,0,,,,,,,,,,,,,,,,,1018.898207376973,None,materials/speakPic.jpg,society,B_aloud1,11,293,1015.231658891571,None,1015.231658891571,None,1016.1475312558177,None,1016.4140029234113,None,1016.4140029234113,None,,,,,,,,,,,,,,,,,,,,,,,,,,,,,,,,,,,base7,001,2019_Oct_26_1351,ProdFawcett_Revision2019,3.2.4,59.989813257564634,
12,0,12,0,,,,,,,,,,,,,,,,,1023.1662088698067,None,materials/speakPic.jpg,length,B_aloud1,12,169,1019.4814097779454,None,1019.4814097779454,None,1020.4155346146435,None,1020.6819950861391,None,1020.6819950861391,None,,,,,,,,,,,,,,,,,,,,,,,,,,,,,,,,,,,base7,001,2019_Oct_26_1351,ProdFawcett_Revision2019,3.2.4,59.989813257564634,
13,0,13,0,,,,,,,,,,,,,,,,,1027.4341879703861,None,materials/readPic.jpg,beauty,A_silent,13,18,1023.800828512758,None,1023.800828512758,None,1024.683653044718,None,1024.9499984449649,None,1024.9499984449649,None,,,,,,,,,,,,,,,,,,,,,,,,,,,,,,,,,,,base7,001,2019_Oct_26_1351,ProdFawcett_Revision2019,3.2.4,59.989813257564634,
14,0,14,0,,,,,,,,,,,,,,,,,1031.7021888411837,None,materials/readPic.jpg,committee,A_silent,14,62,1028.0173922373506,None,1028.0173922373506,None,1028.9514862847282,None,1029.2179707034666,None,1029.2179707034666,None,,,,,,,,,,,,,,,,,,,,,,,,,,,,,,,,,,,base7,001,2019_Oct_26_1351,ProdFawcett_Revision2019,3.2.4,59.989813257564634,
15,0,15,0,,,,,,,,,,,,,,,,,1035.970162654703,None,materials/mumblePic.jpg,engineer,C_aloud2,15,114,1032.2722326926596,None,1032.2722326926596,None,1033.2196093798557,None,1033.485959756159,None,1033.485959756159,None,,,,,,,,,,,,,,,,,,,,,,,,,,,,,,,,,,,base7,001,2019_Oct_26_1351,ProdFawcett_Revision2019,3.2.4,59.989813257564634,
16,0,16,0,,,,,,,,,,,,,,,,,1040.238161970512,None,materials/mumblePic.jpg,religion,C_aloud2,16,258,1036.5201663867629,None,1036.5201663867629,None,1037.4874811842747,None,1037.7539422777772,None,1037.7539422777772,None,,,,,,,,,,,,,,,,,,,,,,,,,,,,,,,,,,,base7,001,2019_Oct_26_1351,ProdFawcett_Revision2019,3.2.4,59.989813257564634,
17,0,17,0,,,,,,,,,,,,,,,,,1044.506141382095,None,materials/speakPic.jpg,figure,B_aloud1,17,128,1040.826107482717,None,1040.826107482717,None,1041.7554901411931,None,1042.0219260434096,None,1042.0219260434096,None,,,,,,,,,,,,,,,,,,,,,,,,,,,,,,,,,,,base7,001,2019_Oct_26_1351,ProdFawcett_Revision2019,3.2.4,59.989813257564634,
18,0,18,0,,,,,,,,,,,,,,,,,1048.7741270137194,None,materials/readPic.jpg,angle,A_silent,18,7,1045.1072193194996,None,1045.1072193194996,None,1046.0234645767196,None,1046.2899412203697,None,1046.2899412203697,None,,,,,,,,,,,,,,,,,,,,,,,,,,,,,,,,,,,base7,001,2019_Oct_26_1351,ProdFawcett_Revision2019,3.2.4,59.989813257564634,
19,0,19,0,,,,,,,,,,,,,,,,,1053.0421238415001,None,materials/speakPic.jpg,present,B_aloud1,19,231,1049.3779377371247,None,1049.3779377371247,None,1050.2915357342572,None,1050.5579312060436,None,1050.5579312060436,None,,,,,,,,,,,,,,,,,,,,,,,,,,,,,,,,,,,base7,001,2019_Oct_26_1351,ProdFawcett_Revision2019,3.2.4,59.989813257564634,
20,0,20,0,,,,,,,,,,,,,,,,,1057.3100923679594,None,materials/speakPic.jpg,power,B_aloud1,20,230,1053.6253346395388,None,1053.6253346395388,None,1054.559548423189,None,1054.8258960004896,None,1054.8258960004896,None,,,,,,,,,,,,,,,,,,,,,,,,,,,,,,,,,,,base7,001,2019_Oct_26_1351,ProdFawcett_Revision2019,3.2.4,59.989813257564634,
21,0,21,0,,,,,,,,,,,,,,,,,1061.5780851526943,None,materials/readPic.jpg,suspect,A_silent,21,318,1057.9453592087957,None,1057.9453592087957,None,1058.827497978462,None,1059.093886919174,None,1059.093886919174,None,,,,,,,,,,,,,,,,,,,,,,,,,,,,,,,,,,,base7,001,2019_Oct_26_1351,ProdFawcett_Revision2019,3.2.4,59.989813257564634,
22,0,22,0,,,,,,,,,,,,,,,,,1065.846681283816,None,materials/readPic.jpg,crisis,A_silent,22,79,1062.1613006157859,None,1062.1613006157859,None,1063.0954948062426,None,1063.3618846799654,None,1063.3618846799654,None,,,,,,,,,,,,,,,,,,,,,,,,,,,,,,,,,,,base7,001,2019_Oct_26_1351,ProdFawcett_Revision2019,3.2.4,59.989813257564634,
23,0,23,0,,,,,,,,,,,,,,,,,1070.114067301096,None,materials/readPic.jpg,owner,A_silent,23,208,1066.429287180421,None,1066.429287180421,None,1067.3634589786525,None,1067.62986160352,None,1067.62986160352,None,,,,,,,,,,,,,,,,,,,,,,,,,,,,,,,,,,,base7,001,2019_Oct_26_1351,ProdFawcett_Revision2019,3.2.4,59.989813257564634,
24,0,24,0,,,,,,,,,,,,,,,,,1074.3820622628555,None,materials/readPic.jpg,surprise,A_silent,24,317,1070.6876534801268,None,1070.6876534801268,None,1071.6315559494833,None,1071.8978581202973,None,1071.8978581202973,None,,,,,,,,,,,,,,,,,,,,,,,,,,,,,,,,,,,base7,001,2019_Oct_26_1351,ProdFawcett_Revision2019,3.2.4,59.989813257564634,
25,0,25,0,,,,,,,,,,,,,,,,,1078.6500416744384,None,materials/readPic.jpg,discovery,A_silent,25,95,1074.952395658387,None,1074.952395658387,None,1075.8995045717456,None,1076.165835043852,None,1076.165835043852,None,,,,,,,,,,,,,,,,,,,,,,,,,,,,,,,,,,,base7,001,2019_Oct_26_1351,ProdFawcett_Revision2019,3.2.4,59.989813257564634,
26,0,26,0,,,,,,,,,,,,,,,,,1082.9180375691794,None,materials/mumblePic.jpg,relation,C_aloud2,26,257,1079.2370631958474,None,1079.2370631958474,None,1080.1674236486724,None,1080.4338359146495,None,1080.4338359146495,None,,,,,,,,,,,,,,,,,,,,,,,,,,,,,,,,,,,base7,001,2019_Oct_26_1351,ProdFawcett_Revision2019,3.2.4,59.989813257564634,
27,0,27,0,,,,,,,,,,,,,,,,,1087.1860732723726,None,materials/readPic.jpg,trail,A_silent,27,336,1083.5220181003679,None,1083.5220181003679,None,1084.4354288735194,None,1084.7018159482395,None,1084.7018159482395,None,,,,,,,,,,,,,,,,,,,,,,,,,,,,,,,,,,,base7,001,2019_Oct_26_1351,ProdFawcett_Revision2019,3.2.4,59.989813257564634,
28,0,28,0,,,,,,,,,,,,,,,,,1091.4540057224513,None,materials/speakPic.jpg,people,B_aloud1,28,216,1087.7875433849404,None,1087.7875433849404,None,1088.7036110592599,None,1088.969785096706,None,1088.969785096706,None,,,,,,,,,,,,,,,,,,,,,,,,,,,,,,,,,,,base7,001,2019_Oct_26_1351,ProdFawcett_Revision2019,3.2.4,59.989813257564634,
29,0,29,0,,,,,,,,,,,,,,,,,1095.7220109472983,None,materials/readPic.jpg,dozen,A_silent,29,102,1092.055153324618,None,1092.055153324618,None,1092.971375256573,None,1093.2390218946093,None,1093.2390218946093,None,,,,,,,,,,,,,,,,,,,,,,,,,,,,,,,,,,,base7,001,2019_Oct_26_1351,ProdFawcett_Revision2019,3.2.4,59.989813257564634,
30,0,30,0,,,,,,,,,,,,,,,,,1099.9899947129306,None,materials/mumblePic.jpg,minor,C_aloud2,30,191,1096.2899713876832,None,1096.2899713876832,None,1097.2394485911354,None,1097.5057877713407,None,1097.5057877713407,None,,,,,,,,,,,,,,,,,,,,,,,,,,,,,,,,,,,base7,001,2019_Oct_26_1351,ProdFawcett_Revision2019,3.2.4,59.989813257564634,
31,0,31,0,,,,,,,,,,,,,,,,,1104.2579635503935,None,materials/speakPic.jpg,skill,B_aloud1,31,289,1100.5820336505421,None,1100.5820336505421,None,1101.5073776202044,None,1101.7737805560755,None,1101.7737805560755,None,,,,,,,,,,,,,,,,,,,,,,,,,,,,,,,,,,,base7,001,2019_Oct_26_1351,ProdFawcett_Revision2019,3.2.4,59.989813257564634,
32,0,32,0,,,,,,,,,,,,,,,,,1108.5259718852758,None,materials/mumblePic.jpg,volume,C_aloud2,32,349,1104.8157268147042,None,1104.8157268147042,None,1105.7753962181741,None,1106.041854512645,None,1106.041854512645,None,,,,,,,,,,,,,,,,,,,,,,,,,,,,,,,,,,,base7,001,2019_Oct_26_1351,ProdFawcett_Revision2019,3.2.4,59.989813257564634,
33,0,33,0,,,,,,,,,,,,,,,,,1112.7939460098278,None,materials/mumblePic.jpg,scene,C_aloud2,33,273,1109.0758082975517,None,1109.0758082975517,None,1110.0433731417288,None,1110.3097452882794,None,1110.3097452882794,None,,,,,,,,,,,,,,,,,,,,,,,,,,,,,,,,,,,base7,001,2019_Oct_26_1351,ProdFawcett_Revision2019,3.2.4,59.989813257564634,
34,0,34,0,,,,,,,,,,,,,,,,,1117.06194377059,None,materials/mumblePic.jpg,block,C_aloud2,34,25,1113.3438953162695,None,1113.3438953162695,None,1114.3109917895054,None,1114.5777495801449,None,1114.5777495801449,None,,,,,,,,,,,,,,,,,,,,,,,,,,,,,,,,,,,base7,001,2019_Oct_26_1351,ProdFawcett_Revision2019,3.2.4,59.989813257564634,
35,0,35,0,,,,,,,,,,,,,,,,,1121.3299381103425,None,materials/mumblePic.jpg,suggestion,C_aloud2,35,314,1117.611904895166,None,1117.611904895166,None,1118.5789942153206,None,1118.8457218386466,None,1118.8457218386466,None,,,,,,,,,,,,,,,,,,,,,,,,,,,,,,,,,,,base7,001,2019_Oct_26_1351,ProdFawcett_Revision2019,3.2.4,59.989813257564634,
36,0,36,0,,,,,,,,,,,,,,,,,1125.5979224979528,None,materials/readPic.jpg,alert,A_silent,36,6,1121.9216234371997,None,1121.9216234371997,None,1122.8473365677637,None,1123.1137186663982,None,1123.1137186663982,None,,,,,,,,,,,,,,,,,,,,,,,,,,,,,,,,,,,base7,001,2019_Oct_26_1351,ProdFawcett_Revision2019,3.2.4,59.989813257564634,
37,0,37,0,,,,,,,,,,,,,,,,,1129.8659022205393,None,materials/mumblePic.jpg,captain,C_aloud2,37,41,1126.1526740063273,None,1126.1526740063273,None,1127.1149502394546,None,1127.3816912359034,None,1127.3816912359034,None,,,,,,,,,,,,,,,,,,,,,,,,,,,,,,,,,,,base7,001,2019_Oct_26_1351,ProdFawcett_Revision2019,3.2.4,59.989813257564634,
38,0,38,0,,,,,,,,,,,,,,,,,1134.133884431154,None,materials/readPic.jpg,drink,A_silent,38,105,1130.4700422964233,None,1130.4700422964233,None,1131.3829383591365,None,1131.6496781115711,None,1131.6496781115711,None,,,,,,,,,,,,,,,,,,,,,,,,,,,,,,,,,,,base7,001,2019_Oct_26_1351,ProdFawcett_Revision2019,3.2.4,59.989813257564634,
39,0,39,0,,,,,,,,,,,,,,,,,1138.401894321054,None,materials/speakPic.jpg,working,B_aloud1,39,357,1134.7355032033229,None,1134.7355032033229,None,1135.6509320768528,None,1135.917676805373,None,1135.917676805373,None,,,,,,,,,,,,,,,,,,,,,,,,,,,,,,,,,,,base7,001,2019_Oct_26_1351,ProdFawcett_Revision2019,3.2.4,59.989813257564634,
40,0,40,0,,,,,,,,,,,,,,,,,1142.6698746656475,None,materials/readPic.jpg,victory,A_silent,40,346,1139.0029579523543,None,1139.0029579523543,None,1139.9189310816582,None,1140.185661503987,None,1140.185661503987,None,,,,,,,,,,,,,,,,,,,,,,,,,,,,,,,,,,,base7,001,2019_Oct_26_1351,ProdFawcett_Revision2019,3.2.4,59.989813257564634,
41,0,41,0,,,,,,,,,,,,,,,,,1146.9378677613859,None,materials/speakPic.jpg,device,B_aloud1,41,93,1143.2717640106857,None,1143.2717640106857,None,1144.1869157803012,None,1144.4536617528065,None,1144.4536617528065,None,,,,,,,,,,,,,,,,,,,,,,,,,,,,,,,,,,,base7,001,2019_Oct_26_1351,ProdFawcett_Revision2019,3.2.4,59.989813257564634,
42,0,42,0,,,,,,,,,,,,,,,,,1151.2058652111446,None,materials/speakPic.jpg,running,B_aloud1,42,268,1147.5210368849803,None,1147.5210368849803,None,1148.4549147850776,None,1148.721642719407,None,1148.721642719407,None,,,,,,,,,,,,,,,,,,,,,,,,,,,,,,,,,,,base7,001,2019_Oct_26_1351,ProdFawcett_Revision2019,3.2.4,59.989813257564634,
43,0,43,0,,,,,,,,,,,,,,,,,1155.4738477327628,None,materials/speakPic.jpg,nation,B_aloud1,43,198,1151.7724093425204,None,1151.7724093425204,None,1152.7233031660144,None,1152.9896376811375,None,1152.9896376811375,None,,,,,,,,,,,,,,,,,,,,,,,,,,,,,,,,,,,base7,001,2019_Oct_26_1351,ProdFawcett_Revision2019,3.2.4,59.989813257564634,
44,0,44,0,,,,,,,,,,,,,,,,,1159.7418324314058,None,materials/speakPic.jpg,institute,B_aloud1,44,162,1156.05708216707,None,1156.05708216707,None,1156.990864589141,None,1157.2576208247629,None,1157.2576208247629,None,,,,,,,,,,,,,,,,,,,,,,,,,,,,,,,,,,,base7,001,2019_Oct_26_1351,ProdFawcett_Revision2019,3.2.4,59.989813257564634,
45,0,45,0,,,,,,,,,,,,,,,,,1164.0098158860346,None,materials/speakPic.jpg,science,B_aloud1,45,275,1160.312176712061,None,1160.312176712061,None,1161.2593758163566,None,1161.5256111214694,None,1161.5256111214694,None,,,,,,,,,,,,,,,,,,,,,,,,,,,,,,,,,,,base7,001,2019_Oct_26_1351,ProdFawcett_Revision2019,3.2.4,59.989813257564634,
46,0,46,0,,,,,,,,,,,,,,,,,1168.2780052248563,None,materials/mumblePic.jpg,treatment,C_aloud2,46,339,1164.5942358648754,None,1164.5942358648754,None,1165.526845182554,None,1165.7936011071724,None,1165.7936011071724,None,,,,,,,,,,,,,,,,,,,,,,,,,,,,,,,,,,,base7,001,2019_Oct_26_1351,ProdFawcett_Revision2019,3.2.4,59.989813257564634,
47,0,47,0,,,,,,,,,,,,,,,,,1172.54578963737,None,materials/readPic.jpg,shear,A_silent,47,283,1168.8783187161607,None,1168.8783187161607,None,1169.794833924214,None,1170.0615599925222,None,1170.0615599925222,None,,,,,,,,,,,,,,,,,,,,,,,,,,,,,,,,,,,base7,001,2019_Oct_26_1351,ProdFawcett_Revision2019,3.2.4,59.989813257564634,
48,0,48,0,,,,,,,,,,,,,,,,,1176.813780245051,None,materials/readPic.jpg,curve,A_silent,48,82,1173.1324444859056,None,1173.1324444859056,None,1174.0628295079805,None,1174.329562107334,None,1174.329562107334,None,,,,,,,,,,,,,,,,,,,,,,,,,,,,,,,,,,,base7,001,2019_Oct_26_1351,ProdFawcett_Revision2019,3.2.4,59.989813257564634,
49,0,49,0,,,,,,,,,,,,,,,,,1181.0817792498565,None,materials/readPic.jpg,sight,A_silent,49,286,1177.3969611867797,None,1177.3969611867797,None,1178.3308117185952,None,1178.597553337051,None,1178.597553337051,None,,,,,,,,,,,,,,,,,,,,,,,,,,,,,,,,,,,base7,001,2019_Oct_26_1351,ProdFawcett_Revision2019,3.2.4,59.989813257564634,
50,0,50,0,,,,,,,,,,,,,,,,,1185.3497546183935,None,materials/readPic.jpg,mankind,A_silent,50,178,1181.6524015674368,None,1181.6524015674368,None,1182.598820364481,None,1182.8655383466976,None,1182.8655383466976,None,,,,,,,,,,,,,,,,,,,,,,,,,,,,,,,,,,,base7,001,2019_Oct_26_1351,ProdFawcett_Revision2019,3.2.4,59.989813257564634,
51,0,51,0,,,,,,,,,,,,,,,,,1189.6177442930639,None,materials/readPic.jpg,appeal,A_silent,51,9,1185.9184860359528,None,1185.9184860359528,None,1186.8669904210838,None,1187.1335417055234,None,1187.1335417055234,None,,,,,,,,,,,,,,,,,,,,,,,,,,,,,,,,,,,base7,001,2019_Oct_26_1351,ProdFawcett_Revision2019,3.2.4,59.989813257564634,
52,0,52,0,,,,,,,,,,,,,,,,,1193.885729613714,None,materials/mumblePic.jpg,subject,C_aloud2,52,312,1190.2030074018694,None,1190.2030074018694,None,1191.1347707905516,None,1191.4033656776592,None,1191.4033656776592,None,,,,,,,,,,,,,,,,,,,,,,,,,,,,,,,,,,,base7,001,2019_Oct_26_1351,ProdFawcett_Revision2019,3.2.4,59.989813257564634,
53,0,53,0,,,,,,,,,,,,,,,,,1198.1537279965123,None,materials/speakPic.jpg,threat,B_aloud1,53,329,1194.4757799962536,None,1194.4757799962536,None,1195.4027480251098,None,1195.6694977296575,None,1195.6694977296575,None,,,,,,,,,,,,,,,,,,,,,,,,,,,,,,,,,,,base7,001,2019_Oct_26_1351,ProdFawcett_Revision2019,3.2.4,59.989813257564634,
54,0,54,0,,,,,,,,,,,,,,,,,1202.4217033650493,None,materials/speakPic.jpg,service,B_aloud1,54,280,1198.722289917263,None,1198.722289917263,None,1199.6707523169753,None,1199.9374870933534,None,1199.9374870933534,None,,,,,,,,,,,,,,,,,,,,,,,,,,,,,,,,,,,base7,001,2019_Oct_26_1351,ProdFawcett_Revision2019,3.2.4,59.989813257564634,
55,0,55,0,,,,,,,,,,,,,,,,,1206.689699570794,None,materials/speakPic.jpg,measure,B_aloud1,55,184,1203.0048976799008,None,1203.0048976799008,None,1203.9389795981697,None,1204.2056344466982,None,1204.2056344466982,None,,,,,,,,,,,,,,,,,,,,,,,,,,,,,,,,,,,base7,001,2019_Oct_26_1351,ProdFawcett_Revision2019,3.2.4,59.989813257564634,
56,0,56,0,,,,,,,,,,,,,,,,,1210.9576572121587,None,materials/readPic.jpg,track,A_silent,56,334,1207.3254400696605,None,1207.3254400696605,None,1208.2067605896445,None,1208.473478571861,None,1208.473478571861,None,,,,,,,,,,,,,,,,,,,,,,,,,,,,,,,,,,,base7,001,2019_Oct_26_1351,ProdFawcett_Revision2019,3.2.4,59.989813257564634,
57,0,57,0,,,,,,,,,,,,,,,,,1215.2256792311964,None,materials/readPic.jpg,grade,A_silent,57,140,1211.541131740989,None,1211.541131740989,None,1212.4747281830932,None,1212.7414442992886,None,1212.7414442992886,None,,,,,,,,,,,,,,,,,,,,,,,,,,,,,,,,,,,base7,001,2019_Oct_26_1351,ProdFawcett_Revision2019,3.2.4,59.989813257564634,
58,0,58,0,,,,,,,,,,,,,,,,,1219.493641537585,None,materials/speakPic.jpg,pressure,B_aloud1,58,232,1215.8439068234002,None,1215.8439068234002,None,1216.7427147477574,None,1217.0094398830552,None,1217.0094398830552,None,,,,,,,,,,,,,,,,,,,,,,,,,,,,,,,,,,,base7,001,2019_Oct_26_1351,ProdFawcett_Revision2019,3.2.4,59.989813257564634,
59,0,59,0,,,,,,,,,,,,,,,,,1223.7616327673022,None,materials/speakPic.jpg,throw,B_aloud1,59,330,1220.0769953971321,None,1220.0769953971321,None,1221.0106885612768,None,1221.2774326677609,None,1221.2774326677609,None,,,,,,,,,,,,,,,,,,,,,,,,,,,,,,,,,,,base7,001,2019_Oct_26_1351,ProdFawcett_Revision2019,3.2.4,59.989813257564634,
60,0,60,0,,,,,,,,,,,,,,,,,1228.029636748135,None,materials/mumblePic.jpg,health,C_aloud2,60,149,1224.3293472040677,None,1224.3293472040677,None,1225.2787304845406,None,1225.5454061703058,None,1225.5454061703058,None,,,,,,,,,,,,,,,,,,,,,,,,,,,,,,,,,,,base7,001,2019_Oct_26_1351,ProdFawcett_Revision2019,3.2.4,59.989813257564634,
61,0,61,0,,,,,,,,,,,,,,,,,1232.2976090066368,None,materials/speakPic.jpg,government,B_aloud1,61,139,1228.6138791441044,None,1228.6138791441044,None,1229.5469188903226,None,1229.813403309061,None,1229.813403309061,None,,,,,,,,,,,,,,,,,,,,,,,,,,,,,,,,,,,base7,001,2019_Oct_26_1351,ProdFawcett_Revision2019,3.2.4,59.989813257564634,
62,0,62,0,,,,,,,,,,,,,,,,,1236.565600858361,None,materials/speakPic.jpg,express,B_aloud1,62,124,1232.8641406978713,None,1232.8641406978713,None,1233.8146588293603,None,1234.0813870746933,None,1234.0813870746933,None,,,,,,,,,,,,,,,,,,,,,,,,,,,,,,,,,,,base7,001,2019_Oct_26_1351,ProdFawcett_Revision2019,3.2.4,59.989813257564634,
63,0,63,0,,,,,,,,,,,,,,,,,1240.8335805809475,None,materials/readPic.jpg,court,A_silent,63,75,1237.206358151394,None,1237.206358151394,None,1238.0826537911198,None,1238.333308764064,None,1238.333308764064,None,,,,,,,,,,,,,,,,,,,,,,,,,,,,,,,,,,,base7,001,2019_Oct_26_1351,ProdFawcett_Revision2019,3.2.4,59.989813257564634,
64,0,64,0,,,,,,,,,,,,,,,,,1245.1015830067627,None,materials/mumblePic.jpg,phrase,C_aloud2,64,220,1241.3904851651168,None,1241.3904851651168,None,1242.3506599489774,None,1242.6173776201904,None,1242.6173776201904,None,,,,,,,,,,,,,,,,,,,,,,,,,,,,,,,,,,,base7,001,2019_Oct_26_1351,ProdFawcett_Revision2019,3.2.4,59.989813257564634,
65,0,65,0,,,,,,,,,,,,,,,,,1249.3695698824304,None,materials/mumblePic.jpg,silence,C_aloud2,65,288,1245.6515351122653,None,1245.6515351122653,None,1246.6206876282813,None,1246.8685323754326,None,1246.8685323754326,None,,,,,,,,,,,,,,,,,,,,,,,,,,,,,,,,,,,base7,001,2019_Oct_26_1351,ProdFawcett_Revision2019,3.2.4,59.989813257564634,
66,0,66,0,,,,,,,,,,,,,,,,,1253.6376876904687,None,materials/speakPic.jpg,drama,B_aloud1,66,103,1249.9714088449255,None,1249.9714088449255,None,1250.8866340113163,None,1251.1533510605223,None,1251.1533510605223,None,,,,,,,,,,,,,,,,,,,,,,,,,,,,,,,,,,,base7,001,2019_Oct_26_1351,ProdFawcett_Revision2019,3.2.4,59.989813257564634,
67,0,67,0,,,,,,,,,,,,,,,,,1257.9056723891117,None,materials/mumblePic.jpg,quantity,C_aloud2,67,245,1254.205507868377,None,1254.205507868377,None,1255.1546187099593,None,1255.421333893115,None,1255.421333893115,None,,,,,,,,,,,,,,,,,,,,,,,,,,,,,,,,,,,base7,001,2019_Oct_26_1351,ProdFawcett_Revision2019,3.2.4,59.989813257564634,
68,0,68,0,,,,,,,,,,,,,,,,,1262.1735423275386,None,materials/readPic.jpg,provision,A_silent,68,243,1258.5061208558618,None,1258.5061208558618,None,1259.4226052745944,None,1259.6892943335115,None,1259.6892943335115,None,,,,,,,,,,,,,,,,,,,,,,,,,,,,,,,,,,,base7,001,2019_Oct_26_1351,ProdFawcett_Revision2019,3.2.4,59.989813257564634,
69,0,69,0,,,,,,,,,,,,,,,,,1266.4415139640332,None,materials/speakPic.jpg,chief,B_aloud1,69,48,1262.791543820349,None,1262.791543820349,None,1263.6905691360298,None,1263.9572942712985,None,1263.9572942712985,None,,,,,,,,,,,,,,,,,,,,,,,,,,,,,,,,,,,base7,001,2019_Oct_26_1351,ProdFawcett_Revision2019,3.2.4,59.989813257564634,
70,0,70,0,,,,,,,,,,,,,,,,,1270.7095042607398,None,materials/readPic.jpg,impact,A_silent,70,157,1267.0610844684707,None,1267.0610844684707,None,1267.958620700374,None,1268.2252755489026,None,1268.2252755489026,None,,,,,,,,,,,,,,,,,,,,,,,,,,,,,,,,,,,base7,001,2019_Oct_26_1351,ProdFawcett_Revision2019,3.2.4,59.989813257564634,
71,0,71,0,,,,,,,,,,,,,,,,,1274.9774898923934,None,materials/mumblePic.jpg,foundation,C_aloud2,71,132,1271.2775004665018,None,1271.2775004665018,None,1272.2265540834633,None,1272.4932848167955,None,1272.4932848167955,None,,,,,,,,,,,,,,,,,,,,,,,,,,,,,,,,,,,base7,001,2019_Oct_26_1351,ProdFawcett_Revision2019,3.2.4,59.989813257564634,
72,0,72,0,,,,,,,,,,,,,,,,,1279.2456058344105,None,materials/mumblePic.jpg,mayor,C_aloud2,72,183,1275.5274569260364,None,1275.5274569260364,None,1276.4945670833986,None,1276.7612732474809,None,1276.7612732474809,None,,,,,,,,,,,,,,,,,,,,,,,,,,,,,,,,,,,base7,001,2019_Oct_26_1351,ProdFawcett_Revision2019,3.2.4,59.989813257564634,
73,0,73,0,,,,,,,,,,,,,,,,,1283.5134754618339,None,materials/speakPic.jpg,military,B_aloud1,73,190,1279.832409342518,None,1279.832409342518,None,1280.7626628102153,None,1281.0292514150497,None,1281.0292514150497,None,,,,,,,,,,,,,,,,,,,,,,,,,,,,,,,,,,,base7,001,2019_Oct_26_1351,ProdFawcett_Revision2019,3.2.4,59.989813257564634,
74,0,74,0,,,,,,,,,,,,,,,,,1287.7814564284345,None,materials/mumblePic.jpg,patient,C_aloud2,74,213,1284.0812713814666,None,1284.0812713814666,None,1285.030526839575,None,1285.2972659700026,None,1285.2972659700026,None,,,,,,,,,,,,,,,,,,,,,,,,,,,,,,,,,,,base7,001,2019_Oct_26_1351,ProdFawcett_Revision2019,3.2.4,59.989813257564634,
75,0,75,0,,,,,,,,,,,,,,,,,1292.049452012172,None,materials/speakPic.jpg,cover,B_aloud1,75,77,1288.371180257498,None,1288.371180257498,None,1289.298581202951,None,1289.5652481806173,None,1289.5652481806173,None,,,,,,,,,,,,,,,,,,,,,,,,,,,,,,,,,,,base7,001,2019_Oct_26_1351,ProdFawcett_Revision2019,3.2.4,59.989813257564634,
76,0,76,0,,,,,,,,,,,,,,,,,1296.3174395098467,None,materials/mumblePic.jpg,front,C_aloud2,76,134,1292.6066305902787,None,1292.6066305902787,None,1293.5665052559343,None,1293.8332400323416,None,1293.8332400323416,None,,,,,,,,,,,,,,,,,,,,,,,,,,,,,,,,,,,base7,001,2019_Oct_26_1351,ProdFawcett_Revision2019,3.2.4,59.989813257564634,
77,0,77,0,,,,,,,,,,,,,,,,,1300.5855389687058,None,materials/readPic.jpg,second,A_silent,77,278,1296.9265030789247,None,1296.9265030789247,None,1297.834488088556,None,1298.1012275299872,None,1298.1012275299872,None,,,,,,,,,,,,,,,,,,,,,,,,,,,,,,,,,,,base7,001,2019_Oct_26_1351,ProdFawcett_Revision2019,3.2.4,59.989813257564634,
78,0,78,0,,,,,,,,,,,,,,,,,1304.853407974122,None,materials/mumblePic.jpg,height,C_aloud2,78,152,1301.153325247229,None,1301.153325247229,None,1302.1030935497838,None,1302.3692311998457,None,1302.3692311998457,None,,,,,,,,,,,,,,,,,,,,,,,,,,,,,,,,,,,base7,001,2019_Oct_26_1351,ProdFawcett_Revision2019,3.2.4,59.989813257564634,
79,0,79,0,,,,,,,,,,,,,,,,,1309.121393294743,None,materials/mumblePic.jpg,turkey,C_aloud2,79,342,1305.4032882378378,None,1305.4032882378378,None,1306.3704736579966,None,1306.6372115444392,None,1306.6372115444392,None,,,,,,,,,,,,,,,,,,,,,,,,,,,,,,,,,,,base7,001,2019_Oct_26_1351,ProdFawcett_Revision2019,3.2.4,59.989813257564634,
80,0,80,0,,,,,,,,,,,,,,,,,1313.3893804814143,None,materials/speakPic.jpg,payment,B_aloud1,80,215,1309.7074370218324,None,1309.7074370218324,None,1310.6384969210485,None,1310.9052065061696,None,1310.9052065061696,None,,,,,,,,,,,,,,,,,,,,,,,,,,,,,,,,,,,base7,001,2019_Oct_26_1351,ProdFawcett_Revision2019,3.2.4,59.989813257564634,
81,0,81,0,,,,,,,,,,,,,,,,,1317.6573717111314,None,materials/speakPic.jpg,couch,B_aloud1,81,70,1313.9725987435377,None,1313.9725987435377,None,1314.9064676245325,None,1315.1732450083946,None,1315.1732450083946,None,,,,,,,,,,,,,,,,,,,,,,,,,,,,,,,,,,,base7,001,2019_Oct_26_1351,ProdFawcett_Revision2019,3.2.4,59.989813257564634,
82,0,82,0,,,,,,,,,,,,,,,,,1321.925490763184,None,materials/readPic.jpg,blind,A_silent,82,24,1318.2929660384252,None,1318.2929660384252,None,1319.1744576102355,None,1319.441184922558,None,1319.441184922558,None,,,,,,,,,,,,,,,,,,,,,,,,,,,,,,,,,,,base7,001,2019_Oct_26_1351,ProdFawcett_Revision2019,3.2.4,59.989813257564634,
83,0,83,0,,,,,,,,,,,,,,,,,1326.1933460844448,None,materials/readPic.jpg,light,A_silent,83,171,1322.5085793369217,None,1322.5085793369217,None,1323.442431423755,None,1323.7091839273344,None,1323.7091839273344,None,,,,,,,,,,,,,,,,,,,,,,,,,,,,,,,,,,,base7,001,2019_Oct_26_1351,ProdFawcett_Revision2019,3.2.4,59.989813257564634,
84,0,84,0,,,,,,,,,,,,,,,,,1330.4613407352008,None,materials/mumblePic.jpg,danger,C_aloud2,84,85,1326.7676180257404,None,1326.7676180257404,None,1327.7104487777397,None,1327.9772603719612,None,1327.9772603719612,None,,,,,,,,,,,,,,,,,,,,,,,,,,,,,,,,,,,base7,001,2019_Oct_26_1351,ProdFawcett_Revision2019,3.2.4,59.989813257564634,
85,0,85,0,,,,,,,,,,,,,,,,,1334.7293117496883,None,materials/mumblePic.jpg,south,C_aloud2,85,296,1331.011245257192,None,1331.011245257192,None,1331.9784297443402,None,1332.2451583006768,None,1332.2451583006768,None,,,,,,,,,,,,,,,,,,,,,,,,,,,,,,,,,,,base7,001,2019_Oct_26_1351,ProdFawcett_Revision2019,3.2.4,59.989813257564634,
86,0,86,0,,,,,,,,,,,,,,,,,1338.9973101324867,None,materials/speakPic.jpg,store,B_aloud1,86,305,1335.3193515581079,None,1335.3193515581079,None,1336.2464091559232,None,1336.513150152372,None,1336.513150152372,None,,,,,,,,,,,,,,,,,,,,,,,,,,,,,,,,,,,base7,001,2019_Oct_26_1351,ProdFawcett_Revision2019,3.2.4,59.989813257564634,
87,0,87,0,,,,,,,,,,,,,,,,,1343.2654438017053,None,materials/speakPic.jpg,build,B_aloud1,87,35,1339.5656409777876,None,1339.5656409777876,None,1340.514387323492,None,1340.7811367170361,None,1340.7811367170361,None,,,,,,,,,,,,,,,,,,,,,,,,,,,,,,,,,,,base7,001,2019_Oct_26_1351,ProdFawcett_Revision2019,3.2.4,59.989813257564634,
88,0,88,0,,,,,,,,,,,,,,,,,1347.5332988119626,None,materials/readPic.jpg,gesture,A_silent,88,137,1343.9163721465447,None,1343.9163721465447,None,1344.7823738881561,None,1345.0491136405908,None,1345.0491136405908,None,,,,,,,,,,,,,,,,,,,,,,,,,,,,,,,,,,,base7,001,2019_Oct_26_1351,ProdFawcett_Revision2019,3.2.4,59.989813257564634,
89,0,89,0,,,,,,,,,,,,,,,,,1351.8012757355173,None,materials/mumblePic.jpg,generation,C_aloud2,89,136,1348.1012539652875,None,1348.1012539652875,None,1349.0504658829304,None,1349.3169935311307,None,1349.3169935311307,None,,,,,,,,,,,,,,,,,,,,,,,,,,,,,,,,,,,base7,001,2019_Oct_26_1351,ProdFawcett_Revision2019,3.2.4,59.989813257564634,
,,,,,,,,,,,,,,,,,,,,,,,,,,,,,,,,,,,,,1352.301457050431,None,k,123.383848665806,1352.301457050431,None,,,,,,,,,,,,,,,,,,,,,,,,,,,,,base7,001,2019_Oct_26_1351,ProdFawcett_Revision2019,3.2.4,59.989813257564634,
,,,,,,,,,,,,,,1475.7063133669144,None,space,6.7944131367548835,1475.7063133669144,None,,,,,,,,,,,,,,,,,,,,,,,,,,,,,,,,,,,,,,,,,,,,,,,,,,,,base7,001,2019_Oct_26_1351,ProdFawcett_Revision2019,3.2.4,59.989813257564634,
,,,,0,0,0,0,,,,,,,,,,,,,1490.978510294197,None,,,,,,,,,,,,,,,,,,,,,,style,D_new,0,311,1483.0462371711037,None,1483.0462371711037,None,1483.0462371711037,None,1,3.1343556011561304,1483.0462371711037,None,1486.2427766374312,None,1486.2427766374312,None,1486.7615040119272,None,1486.7615040119272,None,1486.7615040119272,None,n,4.170734900777461,1486.7615040119272,None,base7,001,2019_Oct_26_1351,ProdFawcett_Revision2019,3.2.4,59.989813257564634,
,,,,1,0,1,0,,,,,,,,,,,,,1496.7460710953455,None,,,,,,,,,,,,,,,,,,,,,,express,B_aloud1,1,124,1491.4964586054557,None,1491.4964586054557,None,1491.4964586054557,None,6,2.291949990671128,1491.4964586054557,None,1493.8323222616164,None,1493.8323222616164,None,1494.3618635317544,None,1494.3618635317544,None,1494.3618635317544,None,r,2.338050320337061,1494.3618635317544,None,base7,001,2019_Oct_26_1351,ProdFawcett_Revision2019,3.2.4,59.989813257564634,
,,,,2,0,2,0,,,,,,,,,,,,,1503.5815453753748,None,,,,,,,,,,,,,,,,,,,,,,country,D_new,2,73,1497.2636185233423,None,1497.2636185233423,None,1497.2636185233423,None,1,4.2926805374154355,1497.2636185233423,None,1501.6033759407583,None,1501.6033759407583,None,1502.1309211917396,None,1502.1309211917396,None,1502.1309211917396,None,n,1.4092756733007263,1502.1309211917396,None,base7,001,2019_Oct_26_1351,ProdFawcett_Revision2019,3.2.4,59.989813257564634,
,,,,3,0,3,0,,,,,,,,,,,,,1525.2715820737649,None,,,,,,,,,,,,,,,,,,,,,,judge,D_new,3,166,1504.1023026683833,None,1504.1023026683833,None,1504.1023026683833,None,1,1.685063133656513,1504.1023026683833,None,1505.8376391739585,None,1505.8376391739585,None,1506.366013248742,None,1506.366013248742,None,1506.366013248742,None,n,18.868337687366875,1506.366013248742,None,base7,001,2019_Oct_26_1351,ProdFawcett_Revision2019,3.2.4,59.989813257564634,
,,,,4,0,4,0,,,,,,,,,,,,,1532.3068933880713,None,,,,,,,,,,,,,,,,,,,,,,south,C_aloud2,4,296,1525.7885958201077,None,1525.7885958201077,None,1525.7885958201077,None,2,4.749475026444998,1525.7885958201077,None,1530.5784061080776,None,1530.5784061080776,None,1531.1066903028986,None,1531.1066903028986,None,1531.1066903028986,None,f,1.167476830247324,1531.1066903028986,None,base7,001,2019_Oct_26_1351,ProdFawcett_Revision2019,3.2.4,59.989813257564634,
,,,,5,0,5,0,,,,,,,,,,,,,1535.5914582944533,None,,,,,,,,,,,,,,,,,,,,,,mankind,A_silent,5,178,1532.8237251974642,None,1532.8237251974642,None,1532.8237251974642,None,2,1.9300186602049507,1532.8237251974642,None,1534.8077878335316,None,1534.8077878335316,None,1535.324732848152,None,1535.324732848152,None,1535.324732848152,None,f,0.22892019656137563,1535.324732848152,None,base7,001,2019_Oct_26_1351,ProdFawcett_Revision2019,3.2.4,59.989813257564634,
,,,,6,0,6,0,,,,,,,,,,,,,1544.294136965851,None,,,,,,,,,,,,,,,,,,,,,,expansion,D_new,6,123,1536.1083485724812,None,1536.1083485724812,None,1536.1083485724812,None,1,3.1971397027082276,1536.1083485724812,None,1539.3591282577545,None,1539.3591282577545,None,1539.8759893014794,None,1539.8759893014794,None,1539.8759893014794,None,n,4.381128941953648,1539.8759893014794,None,base7,001,2019_Oct_26_1351,ProdFawcett_Revision2019,3.2.4,59.989813257564634,
,,,,7,0,7,0,,,,,,,,,,,,,1549.3456652360328,None,,,,,,,,,,,,,,,,,,,,,,candidate,D_new,7,39,1544.8125250357552,None,1544.8125250357552,None,1544.8125250357552,None,1,2.1891453629359603,1544.8125250357552,None,1547.0491966784757,None,1547.0491966784757,None,1547.5782866828376,None,1547.5782866828376,None,1547.5782866828376,None,f,1.7268999191292096,1547.5782866828376,None,base7,001,2019_Oct_26_1351,ProdFawcett_Revision2019,3.2.4,59.989813257564634,
,,,,8,0,8,0,,,,,,,,,,,,,1554.280576600111,None,,,,,,,,,,,,,,,,,,,,,,shock,D_new,8,284,1549.8625558250933,None,1549.8625558250933,None,1549.8625558250933,None,1,2.0021894632081967,1549.8625558250933,None,1551.929704546841,None,1551.929704546841,None,1552.4465693226084,None,1552.4465693226084,None,1552.4465693226084,None,n,1.794346271082759,1552.4465693226084,None,base7,001,2019_Oct_26_1351,ProdFawcett_Revision2019,3.2.4,59.989813257564634,
,,,,9,0,9,0,,,,,,,,,,,,,1558.8651953100634,None,,,,,,,,,,,,,,,,,,,,,,primary,D_new,9,234,1554.798284505814,None,1554.798284505814,None,1554.798284505814,None,1,1.698358835594263,1554.798284505814,None,1556.5478173788579,None,1556.5478173788579,None,1557.0646249300044,None,1557.0646249300044,None,1557.0646249300044,None,n,1.7599804068158846,1557.0646249300044,None,base7,001,2019_Oct_26_1351,ProdFawcett_Revision2019,3.2.4,59.989813257564634,
,,,,10,0,10,0,,,,,,,,,,,,,1563.7500233252358,None,,,,,,,,,,,,,,,,,,,,,,foundation,C_aloud2,10,132,1559.383107233938,None,1559.383107233938,None,1559.383107233938,None,5,2.8650251912768,1559.383107233938,None,1562.2880975928274,None,1562.2880975928274,None,1562.8164001368277,None,1562.8164001368277,None,1562.8164001368277,None,f,0.8876425950147677,1562.8164001368277,None,base7,001,2019_Oct_26_1351,ProdFawcett_Revision2019,3.2.4,59.989813257564634,
,,,,11,0,11,0,,,,,,,,,,,,,1569.4686200783472,None,,,,,,,,,,,,,,,,,,,,,,religion,C_aloud2,11,258,1564.2686598867876,None,1564.2686598867876,None,1564.2686598867876,None,5,3.6754086583387107,1564.2686598867876,None,1567.9893922995543,None,1567.9893922995543,None,1568.518286060833,None,1568.518286060833,None,1568.518286060833,None,f,0.9135059401451144,1568.518286060833,None,base7,001,2019_Oct_26_1351,ProdFawcett_Revision2019,3.2.4,59.989813257564634,
,,,,12,0,12,0,,,,,,,,,,,,,1575.3369680288597,None,,,,,,,,,,,,,,,,,,,,,,waste,D_new,12,350,1569.9852519126434,None,1569.9852519126434,None,1569.9852519126434,None,1,3.3104640169185586,1569.9852519126434,None,1573.3531178080302,None,1573.3531178080302,None,1573.8699639236147,None,1573.8699639236147,None,1573.8699639236147,None,n,1.4260331529658288,1573.8699639236147,None,base7,001,2019_Oct_26_1351,ProdFawcett_Revision2019,3.2.4,59.989813257564634,
,,,,13,0,13,0,,,,,,,,,,,,,1579.1381066119066,None,,,,,,,,,,,,,,,,,,,,,,throw,B_aloud1,13,330,1575.8542865584313,None,1575.8542865584313,None,1575.8542865584313,None,2,1.8650873919250444,1575.8542865584313,None,1577.7710766934033,None,1577.7710766934033,None,1578.2879912297067,None,1578.2879912297067,None,1578.2879912297067,None,f,0.8151949990715366,1578.2879912297067,None,base7,001,2019_Oct_26_1351,ProdFawcett_Revision2019,3.2.4,59.989813257564634,
,,,,14,0,14,0,,,,,,,,,,,,,1582.7901959320589,None,,,,,,,,,,,,,,,,,,,,,,payment,B_aloud1,14,215,1579.6551377744472,None,1579.6551377744472,None,1579.6551377744472,None,6,1.808532064431347,1579.6551377744472,None,1581.52220719037,None,1581.52220719037,None,1582.0391643341281,None,1582.0391643341281,None,1582.0391643341281,None,r,0.7278774025035091,1582.0391643341281,None,base7,001,2019_Oct_26_1351,ProdFawcett_Revision2019,3.2.4,59.989813257564634,
,,,,15,0,15,0,,,,,,,,,,,,,1586.0068996081245,None,,,,,,,,,,,,,,,,,,,,,,generation,C_aloud2,15,136,1583.290692293318,None,1583.290692293318,None,1583.290692293318,None,6,1.908703427267028,1583.290692293318,None,1585.2566884368716,None,1585.2566884368716,None,1585.7735357964702,None,1585.7735357964702,None,1585.7735357964702,None,r,0.18523605150403455,1585.7735357964702,None,base7,001,2019_Oct_26_1351,ProdFawcett_Revision2019,3.2.4,59.989813257564634,
,,,,16,0,16,0,,,,,,,,,,,,,1592.0756117434648,None,,,,,,,,,,,,,,,,,,,,,,finish,D_new,16,130,1586.5237382596242,None,1586.5237382596242,None,1586.5237382596242,None,4,1.8916716427193023,1586.5237382596242,None,1588.4744697393617,None,1588.4744697393617,None,1588.9913220749877,None,1588.9913220749877,None,1588.9913220749877,None,f,3.047129750571912,1588.9913220749877,None,base7,001,2019_Oct_26_1351,ProdFawcett_Revision2019,3.2.4,59.989813257564634,
,,,,17,0,17,0,,,,,,,,,,,,,1596.7603934191575,None,,,,,,,,,,,,,,,,,,,,,,entrance,D_new,17,115,1592.5943369409651,None,1592.5943369409651,None,1592.5943369409651,None,2,2.243900603352813,1592.5943369409651,None,1594.8930487653124,None,1594.8930487653124,None,1595.4099676556361,None,1595.4099676556361,None,1595.4099676556361,None,n,1.3087762020295486,1595.4099676556361,None,base7,001,2019_Oct_26_1351,ProdFawcett_Revision2019,3.2.4,59.989813257564634,
,,,,18,0,18,0,,,,,,,,,,,,,1600.828170989611,None,,,,,,,,,,,,,,,,,,,,,,material,D_new,18,182,1597.2774096535286,None,1597.2774096535286,None,1597.2774096535286,None,1,1.9768411394907162,1597.2774096535286,None,1599.3111255209078,None,1599.3111255209078,None,1599.8279878086469,None,1599.8279878086469,None,1599.8279878086469,None,n,0.9538810101512354,1599.8279878086469,None,base7,001,2019_Oct_26_1351,ProdFawcett_Revision2019,3.2.4,59.989813257564634,
,,,,19,0,19,0,,,,,,,,,,,,,1604.3625993655296,None,,,,,,,,,,,,,,,,,,,,,,dance,D_new,19,84,1601.3453296634834,None,1601.3453296634834,None,1601.3453296634834,None,1,1.220445045735687,1601.3453296634834,None,1602.628712135338,None,1602.628712135338,None,1603.1457460968813,None,1603.1457460968813,None,1603.1457460968813,None,n,1.1721577408898156,1603.1457460968813,None,base7,001,2019_Oct_26_1351,ProdFawcett_Revision2019,3.2.4,59.989813257564634,
,,,,20,0,20,0,,,,,,,,,,,,,1608.113686944067,None,,,,,,,,,,,,,,,,,,,,,,broke,D_new,20,32,1604.8793885674968,None,1604.8793885674968,None,1604.8793885674968,None,1,1.3983588356059045,1604.8793885674968,None,1606.3299797847867,None,1606.3299797847867,None,1606.8468184362573,None,1606.8468184362573,None,1606.8468184362573,None,n,1.2307087765075266,1606.8468184362573,None,base7,001,2019_Oct_26_1351,ProdFawcett_Revision2019,3.2.4,59.989813257564634,
,,,,21,0,21,0,,,,,,,,,,,,,1611.5816644896404,None,,,,,,,,,,,,,,,,,,,,,,trend,D_new,21,340,1608.630538657686,None,1608.630538657686,None,1608.630538657686,None,1,1.3831675685942173,1608.630538657686,None,1610.0645226099296,None,1610.0645226099296,None,1610.5811976736877,None,1610.5811976736877,None,1610.5811976736877,None,n,0.9604192324331962,1610.5811976736877,None,base7,001,2019_Oct_26_1351,ProdFawcett_Revision2019,3.2.4,59.989813257564634,
,,,,22,0,22,0,,,,,,,,,,,,,1614.7992912234622,None,,,,,,,,,,,,,,,,,,,,,,victory,A_silent,22,346,1612.0989581389294,None,1612.0989581389294,None,1612.0989581389294,None,1,1.2265565714915283,1612.0989581389294,None,1613.371846737573,None,1613.371846737573,None,1613.8990209616022,None,1613.8990209616022,None,1613.8990209616022,None,n,0.8587230204720981,1613.8990209616022,None,base7,001,2019_Oct_26_1351,ProdFawcett_Revision2019,3.2.4,59.989813257564634,
,,,,23,0,23,0,,,,,,,,,,,,,1618.3004304285569,None,,,,,,,,,,,,,,,,,,,,,,character,D_new,23,46,1615.3176939105324,None,1615.3176939105324,None,1615.3176939105324,None,1,1.615675499138888,1615.3176939105324,None,1616.9729439571965,None,1616.9729439571965,None,1617.5000771288178,None,1617.5000771288178,None,1617.5000771288178,None,n,0.7527477141120471,1617.5000771288178,None,base7,001,2019_Oct_26_1351,ProdFawcett_Revision2019,3.2.4,59.989813257564634,
,,,,24,0,24,0,,,,,,,,,,,,,1621.734673446539,None,,,,,,,,,,,,,,,,,,,,,,salary,D_new,24,271,1618.8180745785648,None,1618.8180745785648,None,1618.8180745785648,None,1,1.3866682216757908,1618.8180745785648,None,1620.2675331218343,None,1620.2675331218343,None,1620.7845111028,None,1620.7845111028,None,1620.7845111028,None,n,0.9165005908871535,1620.7845111028,None,base7,001,2019_Oct_26_1351,ProdFawcett_Revision2019,3.2.4,59.989813257564634,
,,,,25,0,25,0,,,,,,,,,,,,,1625.3192352428741,None,,,,,,,,,,,,,,,,,,,,,,military,B_aloud1,25,190,1622.2516641786206,None,1622.2516641786206,None,1622.2516641786206,None,6,1.5288847421761602,1622.2516641786206,None,1623.8353022951924,None,1623.8353022951924,None,1624.3521583628608,None,1624.3521583628608,None,1624.3521583628608,None,r,0.9250510045385454,1624.3521583628608,None,base7,001,2019_Oct_26_1351,ProdFawcett_Revision2019,3.2.4,59.989813257564634,
,,,,26,0,26,0,,,,,,,,,,,,,1628.5702211233438,None,,,,,,,,,,,,,,,,,,,,,,suggestion,C_aloud2,26,314,1625.8371686259634,None,1625.8371686259634,None,1625.8371686259634,None,5,1.4792467500374187,1625.8371686259634,None,1627.3698612925073,None,1627.3698612925073,None,1627.8864614044724,None,1627.8864614044724,None,1627.8864614044724,None,f,0.6458649001724552,1627.8864614044724,None,base7,001,2019_Oct_26_1351,ProdFawcett_Revision2019,3.2.4,59.989813257564634,
,,,,27,0,27,0,,,,,,,,,,,,,1631.671056478197,None,,,,,,,,,,,,,,,,,,,,,,chief,B_aloud1,27,48,1629.0890694781265,None,1629.0890694781265,None,1629.0890694781265,None,6,1.2991226596932393,1629.0890694781265,None,1630.4373409218097,None,1630.4373409218097,None,1630.954339739983,None,1630.954339739983,None,1630.954339739983,None,r,0.6743873234954663,1630.954339739983,None,base7,001,2019_Oct_26_1351,ProdFawcett_Revision2019,3.2.4,59.989813257564634,
,,,,28,0,28,0,,,,,,,,,,,,,1634.788663307816,None,,,,,,,,,,,,,,,,,,,,,,whole,D_new,28,355,1632.187983143609,None,1632.187983143609,None,1632.187983143609,None,1,1.3520753249758855,1632.187983143609,None,1633.5927393170132,None,1633.5927393170132,None,1634.1218411395093,None,1634.1218411395093,None,1634.1218411395093,None,f,0.6180997698393185,1634.1218411395093,None,base7,001,2019_Oct_26_1351,ProdFawcett_Revision2019,3.2.4,59.989813257564634,
,,,,29,0,29,0,,,,,,,,,,,,,1637.5228917086497,None,,,,,,,,,,,,,,,,,,,,,,track,A_silent,29,334,1635.3055538968474,None,1635.3055538968474,None,1635.3055538968474,None,6,1.1382546495005954,1635.3055538968474,None,1636.505960689159,None,1636.505960689159,None,1637.022964483418,None,1637.022964483418,None,1637.022964483418,None,r,0.4527881445537787,1637.022964483418,None,base7,001,2019_Oct_26_1351,ProdFawcett_Revision2019,3.2.4,59.989813257564634,
,,,,30,0,30,0,,,,,,,,,,,,,1641.7742088075902,None,,,,,,,,,,,,,,,,,,,,,,running,B_aloud1,30,268,1638.0400566025928,None,1638.0400566025928,None,1638.0400566025928,None,6,1.315943273017183,1638.0400566025928,None,1639.4067770728143,None,1639.4067770728143,None,1639.9237115133437,None,1639.9237115133437,None,1639.9237115133437,None,r,1.808451514603803,1639.9237115133437,None,base7,001,2019_Oct_26_1351,ProdFawcett_Revision2019,3.2.4,59.989813257564634,
,,,,31,0,31,0,,,,,,,,,,,,,1645.0586906761164,None,,,,,,,,,,,,,,,,,,,,,,dream,D_new,31,104,1642.2910306648992,None,1642.2910306648992,None,1642.2910306648992,None,5,1.5364579834567849,1642.2910306648992,None,1643.8798964358866,None,1643.8798964358866,None,1644.4084838589188,None,1644.4084838589188,None,1644.4084838589188,None,f,0.6111815015319735,1644.4084838589188,None,base7,001,2019_Oct_26_1351,ProdFawcett_Revision2019,3.2.4,59.989813257564634,
,,,,32,0,32,0,,,,,,,,,,,,,1648.5262713814736,None,,,,,,,,,,,,,,,,,,,,,,owner,A_silent,32,208,1645.575460906868,None,1645.575460906868,None,1645.575460906868,None,4,1.5403610748180654,1645.575460906868,None,1647.1758449959452,None,1647.1758449959452,None,1647.6928111587767,None,1647.6928111587767,None,1647.6928111587767,None,f,0.7984735958161764,1647.6928111587767,None,base7,001,2019_Oct_26_1351,ProdFawcett_Revision2019,3.2.4,59.989813257564634,
,,,,33,0,33,0,,,,,,,,,,,,,1651.8107485849177,None,,,,,,,,,,,,,,,,,,,,,,addition,D_new,33,2,1649.044037444779,None,1649.044037444779,None,1649.044037444779,None,4,1.4471372146508656,1649.044037444779,None,1650.5436446476087,None,1650.5436446476087,None,1651.0605510978203,None,1651.0605510978203,None,1651.0605510978203,None,f,0.7107034894579556,1651.0605510978203,None,base7,001,2019_Oct_26_1351,ProdFawcett_Revision2019,3.2.4,59.989813257564634,
,,,,34,0,34,0,,,,,,,,,,,,,1654.594978229754,None,,,,,,,,,,,,,,,,,,,,,,beauty,A_silent,34,18,1652.3280086458835,None,1652.3280086458835,None,1652.3280086458835,None,6,1.4028295079770032,1652.3280086458835,None,1653.78187161783,None,1653.78187161783,None,1654.3114847297256,None,1654.3114847297256,None,1654.3114847297256,None,r,0.2435986191558186,1654.3114847297256,None,base7,001,2019_Oct_26_1351,ProdFawcett_Revision2019,3.2.4,59.989813257564634,
,,,,35,0,35,0,,,,,,,,,,,,,1657.2789708900673,None,,,,,,,,,,,,,,,,,,,,,,column,A_silent,35,57,1655.1124594140565,None,1655.1124594140565,None,1655.1124594140565,None,5,1.4021938172518276,1655.1124594140565,None,1656.5687006282096,None,1656.5687006282096,None,1657.0958079865377,None,1657.0958079865377,None,1657.0958079865377,None,r,0.1467898239789065,1657.0958079865377,None,base7,001,2019_Oct_26_1351,ProdFawcett_Revision2019,3.2.4,59.989813257564634,
,,,,36,0,36,0,,,,,,,,,,,,,1660.0966337003047,None,,,,,,,,,,,,,,,,,,,,,,quantity,C_aloud2,36,245,1657.798208932014,None,1657.798208932014,None,1657.798208932014,None,6,1.564664738427382,1657.798208932014,None,1659.4129672824347,None,1659.4129672824347,None,1659.930073085765,None,1659.930073085765,None,1659.930073085765,None,r,0.1283793618204072,1659.930073085765,None,base7,001,2019_Oct_26_1351,ProdFawcett_Revision2019,3.2.4,59.989813257564634,
,,,,37,0,37,0,,,,,,,,,,,,,1665.464995645947,None,,,,,,,,,,,,,,,,,,,,,,speech,D_new,37,298,1660.6141478509526,None,1660.6141478509526,None,1660.6141478509526,None,5,3.6121026932960376,1660.6141478509526,None,1664.2812048267515,None,1664.2812048267515,None,1664.7981349132315,None,1664.7981349132315,None,1664.7981349132315,None,r,0.6283152951509692,1664.7981349132315,None,base7,001,2019_Oct_26_1351,ProdFawcett_Revision2019,3.2.4,59.989813257564634,
,,,,38,0,38,0,,,,,,,,,,,,,1668.816035018972,None,,,,,,,,,,,,,,,,,,,,,,citizen,D_new,38,50,1665.9867453504994,None,1665.9867453504994,None,1665.9867453504994,None,4,1.759367108286824,1665.9867453504994,None,1667.7989740001212,None,1667.7989740001212,None,1668.315719661623,None,1668.315719661623,None,1668.315719661623,None,f,0.4542175156821031,1668.315719661623,None,base7,001,2019_Oct_26_1351,ProdFawcett_Revision2019,3.2.4,59.989813257564634,
,,,,39,0,39,0,,,,,,,,,,,,,1672.6838850531785,None,,,,,,,,,,,,,,,,,,,,,,partner,D_new,39,211,1669.3330708465364,None,1669.3330708465364,None,1669.3330708465364,None,4,2.4127178578055464,1669.3330708465364,None,1671.8003156683408,None,1671.8003156683408,None,1672.3169792249682,None,1672.3169792249682,None,1672.3169792249682,None,f,0.3254285625589546,1672.3169792249682,None,base7,001,2019_Oct_26_1351,ProdFawcett_Revision2019,3.2.4,59.989813257564634,
,,,,40,0,40,0,,,,,,,,,,,,,1676.3348920818535,None,,,,,,,,,,,,,,,,,,,,,,republic,D_new,40,260,1673.2021101573482,None,1673.2021101573482,None,1673.2021101573482,None,2,2.0318346084386576,1673.2021101573482,None,1675.2845583753078,None,1675.2845583753078,None,1675.8015472413972,None,1675.8015472413972,None,1675.8015472413972,None,n,0.49597779437317513,1675.8015472413972,None,base7,001,2019_Oct_26_1351,ProdFawcett_Revision2019,3.2.4,59.989813257564634,
,,,,41,0,41,0,,,,,,,,,,,,,1679.0023863282695,None,,,,,,,,,,,,,,,,,,,,,,engineer,C_aloud2,41,114,1676.8519994401722,None,1676.8519994401722,None,1676.8519994401722,None,6,1.3260210238222498,1676.8519994401722,None,1678.2355591839005,None,1678.2355591839005,None,1678.752449150954,None,1678.752449150954,None,1678.752449150954,None,r,0.20922093675471842,1678.752449150954,None,base7,001,2019_Oct_26_1351,ProdFawcett_Revision2019,3.2.4,59.989813257564634,
,,,,42,0,42,0,,,,,,,,,,,,,1682.8036776139634,None,,,,,,,,,,,,,,,,,,,,,,point,B_aloud1,42,226,1679.5198090439662,None,1679.5198090439662,None,1679.5198090439662,None,4,1.29009610004141,1679.5198090439662,None,1680.8696759345476,None,1680.8696759345476,None,1681.3866072650126,None,1681.3866072650126,None,1681.3866072650126,None,f,1.3751433725119568,1681.3866072650126,None,base7,001,2019_Oct_26_1351,ProdFawcett_Revision2019,3.2.4,59.989813257564634,
,,,,43,0,43,0,,,,,,,,,,,,,1686.1547172979917,None,,,,,,,,,,,,,,,,,,,,,,science,B_aloud1,43,275,1683.3208823163295,None,1683.3208823163295,None,1683.3208823163295,None,3,1.8164707346004434,1683.3208823163295,None,1685.1877253218845,None,1685.1877253218845,None,1685.7046022267605,None,1685.7046022267605,None,1685.7046022267605,None,n,0.41670305404113606,1685.7046022267605,None,base7,001,2019_Oct_26_1351,ProdFawcett_Revision2019,3.2.4,59.989813257564634,
,,,,44,0,44,0,,,,,,,,,,,,,1688.8555806431395,None,,,,,,,,,,,,,,,,,,,,,,angle,A_silent,44,7,1686.6718305653776,None,1686.6718305653776,None,1686.6718305653776,None,6,1.3130546743923333,1686.6718305653776,None,1688.0385581887094,None,1688.0385581887094,None,1688.5554789450543,None,1688.5554789450543,None,1688.5554789450543,None,r,0.2532851278083399,1688.5554789450543,None,base7,001,2019_Oct_26_1351,ProdFawcett_Revision2019,3.2.4,59.989813257564634,
,,,,45,0,45,0,,,,,,,,,,,,,1691.4398227281054,None,,,,,,,,,,,,,,,,,,,,,,surface,D_new,45,316,1689.3729697704548,None,1689.3729697704548,None,1689.3729697704548,None,5,1.1720834110747091,1689.3729697704548,None,1690.6061273869418,None,1690.6061273869418,None,1691.1227912545728,None,1691.1227912545728,None,1691.1227912545728,None,r,0.26984449836891145,1691.1227912545728,None,base7,001,2019_Oct_26_1351,ProdFawcett_Revision2019,3.2.4,59.989813257564634,
,,,,46,0,46,0,,,,,,,,,,,,,1694.0405246625596,None,,,,,,,,,,,,,,,,,,,,,,strain,D_new,46,308,1691.9571642719384,None,1691.9571642719384,None,1691.9571642719384,None,5,1.3555672700167634,1691.9571642719384,None,1693.3735927100643,None,1693.3735927100643,None,1693.8904823661142,None,1693.8904823661142,None,1693.8904823661142,None,r,0.11032126640202478,1693.8904823661142,None,base7,001,2019_Oct_26_1351,ProdFawcett_Revision2019,3.2.4,59.989813257564634,
,,,,47,0,47,0,,,,,,,,,,,,,1698.7586014181725,None,,,,,,,,,,,,,,,,,,,,,,trash,D_new,47,337,1694.5573990794073,None,1694.5573990794073,None,1694.5573990794073,None,4,3.12292996206088,1694.5573990794073,None,1697.7290343347413,None,1697.7290343347413,None,1698.2583507495,None,1698.2583507495,None,1698.2583507495,None,f,0.4538667039887514,1698.2583507495,None,base7,001,2019_Oct_26_1351,ProdFawcett_Revision2019,3.2.4,59.989813257564634,
,,,,48,0,48,0,,,,,,,,,,,,,1701.8595872986189,None,,,,,,,,,,,,,,,,,,,,,,state,D_new,48,303,1699.275969086273,None,1699.275969086273,None,1699.275969086273,None,3,1.6121729800361209,1699.275969086273,None,1700.9425592461193,None,1700.9425592461193,None,1701.459486222535,None,1701.459486222535,None,1701.459486222535,None,n,0.3572071903909091,1701.459486222535,None,base7,001,2019_Oct_26_1351,ProdFawcett_Revision2019,3.2.4,59.989813257564634,
,,,,49,0,49,0,,,,,,,,,,,,,1704.843861727917,None,,,,,,,,,,,,,,,,,,,,,,emergency,D_new,49,110,1702.376296261733,None,1702.376296261733,None,1702.376296261733,None,2,1.5923017353925388,1702.376296261733,None,1704.0268781488994,None,1704.0268781488994,None,1704.5438085463538,None,1704.5438085463538,None,1704.5438085463538,None,n,0.2565830067615025,1704.5438085463538,None,base7,001,2019_Oct_26_1351,ProdFawcett_Revision2019,3.2.4,59.989813257564634,
,,,,50,0,50,0,,,,,,,,,,,,,1708.9480699135165,None,,,,,,,,,,,,,,,,,,,,,,corner,D_new,50,69,1705.3612169558764,None,1705.3612169558764,None,1705.3612169558764,None,1,2.5505352366599254,1705.3612169558764,None,1707.9325060645642,None,1707.9325060645642,None,1708.4615307582135,None,1708.4615307582135,None,1708.4615307582135,None,n,0.46642812713980675,1708.4615307582135,None,base7,001,2019_Oct_26_1351,ProdFawcett_Revision2019,3.2.4,59.989813257564634,
,,,,51,0,51,0,,,,,,,,,,,,,1715.4304755240155,None,,,,,,,,,,,,,,,,,,,,,,division,D_new,51,101,1709.4784297443402,None,1709.4784297443402,None,1709.4784297443402,None,2,4.288899670355022,1709.4784297443402,None,1713.8298528954329,None,1713.8298528954329,None,1714.346652049513,None,1714.346652049513,None,1714.346652049513,None,f,1.0449216271517798,1714.346652049513,None,base7,001,2019_Oct_26_1351,ProdFawcett_Revision2019,3.2.4,59.989813257564634,
,,,,52,0,52,0,,,,,,,,,,,,,1719.3815369782678,None,,,,,,,,,,,,,,,,,,,,,,signal,D_new,52,287,1715.9520445356611,None,1715.9520445356611,None,1715.9520445356611,None,4,2.5670199664018583,1715.9520445356611,None,1718.581457672437,None,1718.581457672437,None,1719.0982745536894,None,1719.0982745536894,None,1719.0982745536894,None,f,0.24474902034853585,1719.0982745536894,None,base7,001,2019_Oct_26_1351,ProdFawcett_Revision2019,3.2.4,59.989813257564634,
,,,,53,0,53,0,,,,,,,,,,,,,1722.3993055296305,None,,,,,,,,,,,,,,,,,,,,,,cover,B_aloud1,53,77,1719.8985998631397,None,1719.8985998631397,None,1719.8985998631397,None,5,1.756811594183091,1719.8985998631397,None,1721.7025060645537,None,1721.7025060645537,None,1722.2324239596783,None,1722.2324239596783,None,1722.2324239596783,None,f,0.12679013499291614,1722.2324239596783,None,base7,001,2019_Oct_26_1351,ProdFawcett_Revision2019,3.2.4,59.989813257564634,
,,,,54,0,54,0,,,,,,,,,,,,,1725.333550413634,None,,,,,,,,,,,,,,,,,,,,,,number,D_new,54,203,1722.9160577222065,None,1722.9160577222065,None,1722.9160577222065,None,2,1.6753293524961919,1722.9160577222065,None,1724.637991540687,None,1724.637991540687,None,1725.1666560925369,None,1725.1666560925369,None,1725.1666560925369,None,n,0.12001679418608546,1725.1666560925369,None,base7,001,2019_Oct_26_1351,ProdFawcett_Revision2019,3.2.4,59.989813257564634,
,,,,55,0,55,0,,,,,,,,,,,,,1728.3542069415853,None,,,,,,,,,,,,,,,,,,,,,,surprise,A_silent,55,317,1725.8513236300205,None,1725.8513236300205,None,1725.8513236300205,None,4,1.8114284381445032,1725.8513236300205,None,1727.7043739503424,None,1727.7043739503424,None,1728.2348469863646,None,1728.2348469863646,None,1728.2348469863646,None,f,0.09203240653732792,1728.2348469863646,None,base7,001,2019_Oct_26_1351,ProdFawcett_Revision2019,3.2.4,59.989813257564634,
,,,,56,0,56,0,,,,,,,,,,,,,1731.2687115133158,None,,,,,,,,,,,,,,,,,,,,,,colonel,D_new,56,55,1728.8845079927705,None,1728.8845079927705,None,1728.8845079927705,None,1,1.6905081793956924,1728.8845079927705,None,1730.635105119116,None,1730.635105119116,None,1731.1519061391882,None,1731.1519061391882,None,1731.1519061391882,None,n,0.07841574918711558,1731.1519061391882,None,base7,001,2019_Oct_26_1351,ProdFawcett_Revision2019,3.2.4,59.989813257564634,
,,,,57,0,57,0,,,,,,,,,,,,,1734.419665360445,None,,,,,,,,,,,,,,,,,,,,,,working,B_aloud1,57,357,1731.7861665733508,None,1731.7861665733508,None,1731.7861665733508,None,1,1.3246812215948012,1731.7861665733508,None,1733.156857622671,None,1733.156857622671,None,1733.685984636424,None,1733.685984636424,None,1733.685984636424,None,n,0.6882272812072188,1733.685984636424,None,base7,001,2019_Oct_26_1351,ProdFawcett_Revision2019,3.2.4,59.989813257564634,
,,,,58,0,58,0,,,,,,,,,,,,,1737.1871928842447,None,,,,,,,,,,,,,,,,,,,,,,account,D_new,58,1,1734.9371480997652,None,1734.9371480997652,None,1734.9371480997652,None,2,1.3575191267009359,1734.9371480997652,None,1736.3402369845135,None,1736.3402369845135,None,1736.87029825215,None,1736.87029825215,None,1736.87029825215,None,f,0.2797645704995375,1736.87029825215,None,base7,001,2019_Oct_26_1351,ProdFawcett_Revision2019,3.2.4,59.989813257564634,
,,,,59,0,59,0,,,,,,,,,,,,,1741.038267711614,None,,,,,,,,,,,,,,,,,,,,,,harmony,D_new,59,148,1737.706206070783,None,1737.706206070783,None,1737.706206070783,None,1,2.0196746905276086,1737.706206070783,None,1739.7879215649446,None,1739.7879215649446,None,1740.3048389002797,None,1740.3048389002797,None,1740.3048389002797,None,n,0.6932555825042073,1740.3048389002797,None,base7,001,2019_Oct_26_1351,ProdFawcett_Revision2019,3.2.4,59.989813257564634,
,,,,60,0,60,0,,,,,,,,,,,,,1743.6058686322067,None,,,,,,,,,,,,,,,,,,,,,,territory,A_silent,60,324,1741.5550289232924,None,1741.5550289232924,None,1741.5550289232924,None,6,1.2592119176406413,1741.5550289232924,None,1742.8722544628836,None,1742.8722544628836,None,1743.3891870373627,None,1743.3891870373627,None,1743.3891870373627,None,f,0.17674752752645873,1743.3891870373627,None,base7,001,2019_Oct_26_1351,ProdFawcett_Revision2019,3.2.4,59.989813257564634,
,,,,61,0,61,0,,,,,,,,,,,,,1749.7244302419422,None,,,,,,,,,,,,,,,,,,,,,,skill,B_aloud1,61,289,1744.123292280885,None,1744.123292280885,None,1744.123292280885,None,5,4.937997449771501,1744.123292280885,None,1749.1138076133502,None,1749.1138076133502,None,1749.64115942028,None,1749.64115942028,None,1749.64115942028,None,n,0.04448871058411896,1749.64115942028,None,base7,001,2019_Oct_26_1351,ProdFawcett_Revision2019,3.2.4,59.989813257564634,
,,,,62,0,62,0,,,,,,,,,,,,,1753.7255047583312,None,,,,,,,,,,,,,,,,,,,,,,symbol,D_new,62,321,1750.2425754182914,None,1750.2425754182914,None,1750.2425754182914,None,4,1.7149135410727467,1750.2425754182914,None,1751.9961961186782,None,1751.9961961186782,None,1752.5251551906404,None,1752.5251551906404,None,1752.5251551906404,None,f,1.1602127262449358,1752.5251551906404,None,base7,001,2019_Oct_26_1351,ProdFawcett_Revision2019,3.2.4,59.989813257564634,
,,,,63,0,63,0,,,,,,,,,,,,,1757.310111339175,None,,,,,,,,,,,,,,,,,,,,,,nation,B_aloud1,63,198,1754.2426948435605,None,1754.2426948435605,None,1754.2426948435605,None,2,1.4342259127879515,1754.2426948435605,None,1755.7150796168426,None,1755.7150796168426,None,1756.243250606436,None,1756.243250606436,None,1756.243250606436,None,n,1.0260368849849328,1756.243250606436,None,base7,001,2019_Oct_26_1351,ProdFawcett_Revision2019,3.2.4,59.989813257564634,
,,,,64,0,64,0,,,,,,,,,,,,,1760.5943487590703,None,,,,,,,,,,,,,,,,,,,,,,captain,C_aloud2,64,41,1757.8271536978136,None,1757.8271536978136,None,1757.8271536978136,None,6,1.3938570628815796,1757.8271536978136,None,1759.2772681470378,None,1759.2772681470378,None,1759.794111774565,None,1759.794111774565,None,1759.794111774565,None,r,0.7625436959788203,1759.794111774565,None,base7,001,2019_Oct_26_1351,ProdFawcett_Revision2019,3.2.4,59.989813257564634,
,,,,65,0,65,0,,,,,,,,,,,,,1763.2285920880677,None,,,,,,,,,,,,,,,,,,,,,,device,B_aloud1,65,93,1761.1112589413242,None,1761.1112589413242,None,1761.1112589413242,None,2,1.3336393605859485,1761.1112589413242,None,1762.494908565015,None,1762.494908565015,None,1763.0118112831842,None,1763.0118112831842,None,1763.0118112831842,None,f,0.1769708278879989,1763.0118112831842,None,base7,001,2019_Oct_26_1351,ProdFawcett_Revision2019,3.2.4,59.989813257564634,
,,,,66,0,66,0,,,,,,,,,,,,,1767.9465814517462,None,,,,,,,,,,,,,,,,,,,,,,permit,D_new,66,218,1763.746318964957,None,1763.746318964957,None,1763.746318964957,None,3,1.378065870521823,1763.746318964957,None,1765.1672703240474,None,1765.1672703240474,None,1765.6958885364002,None,1765.6958885364002,None,1765.6958885364002,None,f,2.2126513031253126,1765.6958885364002,None,base7,001,2019_Oct_26_1351,ProdFawcett_Revision2019,3.2.4,59.989813257564634,
,,,,67,0,67,0,,,,,,,,,,,,,1771.2977669963147,None,,,,,,,,,,,,,,,,,,,,,,drink,A_silent,67,105,1768.4634748398094,None,1768.4634748398094,None,1768.4634748398094,None,6,1.9966442744480446,1768.4634748398094,None,1770.50294084716,None,1770.50294084716,None,1771.030995521549,None,1771.030995521549,None,1771.030995521549,None,r,0.2290915593621321,1771.030995521549,None,base7,001,2019_Oct_26_1351,ProdFawcett_Revision2019,3.2.4,59.989813257564634,
,,,,68,0,68,0,,,,,,,,,,,,,1775.7156503078877,None,,,,,,,,,,,,,,,,,,,,,,power,B_aloud1,68,230,1771.8144056726887,None,1771.8144056726887,None,1771.8144056726887,None,4,1.9581392672844231,1771.8144056726887,None,1773.8317972880322,None,1773.8317972880322,None,1774.348715556378,None,1774.348715556378,None,1774.348715556378,None,f,1.3274280027544592,1774.348715556378,None,base7,001,2019_Oct_26_1351,ProdFawcett_Revision2019,3.2.4,59.989813257564634,
,,,,69,0,69,0,,,,,,,,,,,,,1779.1333638116485,None,,,,,,,,,,,,,,,,,,,,,,health,C_aloud2,69,149,1776.2324544379953,None,1776.2324544379953,None,1776.2324544379953,None,6,1.1632372333260719,1776.2324544379953,None,1777.4374080985144,None,1777.4374080985144,None,1777.966352242307,None,1777.966352242307,None,1777.966352242307,None,r,1.1336054612183943,1777.966352242307,None,base7,001,2019_Oct_26_1351,ProdFawcett_Revision2019,3.2.4,59.989813257564634,
,,,,70,0,70,0,,,,,,,,,,,,,1782.5679280960176,None,,,,,,,,,,,,,,,,,,,,,,empty,D_new,70,112,1779.6501974870916,None,1779.6501974870916,None,1779.6501974870916,None,3,1.5532443863921799,1779.6501974870916,None,1781.2673347017262,None,1781.2673347017262,None,1781.7843649312563,None,1781.7843649312563,None,1781.7843649312563,None,n,0.7470268084725831,1781.7843649312563,None,base7,001,2019_Oct_26_1351,ProdFawcett_Revision2019,3.2.4,59.989813257564634,
,,,,71,0,71,0,,,,,,,,,,,,,1786.802548983018,None,,,,,,,,,,,,,,,,,,,,,,alert,A_silent,71,6,1783.0846516762977,None,1783.0846516762977,None,1783.0846516762977,None,5,2.1592060085677076,1783.0846516762977,None,1785.291770230746,None,1785.291770230746,None,1785.8189245505782,None,1785.8189245505782,None,1785.8189245505782,None,f,0.9445089258078951,1785.8189245505782,None,base7,001,2019_Oct_26_1351,ProdFawcett_Revision2019,3.2.4,59.989813257564634,
,,,,72,0,72,0,,,,,,,,,,,,,1789.7033687876828,None,,,,,,,,,,,,,,,,,,,,,,appeal,A_silent,72,9,1787.320252223668,None,1787.320252223668,None,1787.320252223668,None,6,1.2109134166676085,1787.320252223668,None,1788.5575390309095,None,1788.5575390309095,None,1789.0866016669606,None,1789.0866016669606,None,1789.0866016669606,None,r,0.5729504882765468,1789.0866016669606,None,base7,001,2019_Oct_26_1351,ProdFawcett_Revision2019,3.2.4,59.989813257564634,
,,,,73,0,73,0,,,,,,,,,,,,,1792.254448902153,None,,,,,,,,,,,,,,,,,,,,,,provision,A_silent,73,243,1790.2221614728915,None,1790.2221614728915,None,1790.2221614728915,None,6,0.9651113391737454,1790.2221614728915,None,1791.2372211855254,None,1791.2372211855254,None,1791.754290290468,None,1791.754290290468,None,1791.754290290468,None,r,0.4571250855224207,1791.754290290468,None,base7,001,2019_Oct_26_1351,ProdFawcett_Revision2019,3.2.4,59.989813257564634,
,,,,74,0,74,0,,,,,,,,,,,,,1795.205413012358,None,,,,,,,,,,,,,,,,,,,,,,appearance,D_new,74,10,1792.773211420019,None,1792.773211420019,None,1792.773211420019,None,6,1.3978540772513952,1792.773211420019,None,1794.221539155289,None,1794.221539155289,None,1794.738146731339,None,1794.738146731339,None,1794.738146731339,None,f,0.43287491449154913,1794.738146731339,None,base7,001,2019_Oct_26_1351,ProdFawcett_Revision2019,3.2.4,59.989813257564634,
,,,,75,0,75,0,,,,,,,,,,,,,1798.606080114434,None,,,,,,,,,,,,,,,,,,,,,,shear,A_silent,75,283,1795.7222211855405,None,1795.7222211855405,None,1795.7222211855405,None,6,2.0166526715038344,1795.7222211855405,None,1797.7767102071084,None,1797.7767102071084,None,1798.305975617317,None,1798.305975617317,None,1798.305975617317,None,r,0.2571785780892242,1798.305975617317,None,base7,001,2019_Oct_26_1351,ProdFawcett_Revision2019,3.2.4,59.989813257564634,
,,,,76,0,76,0,,,,,,,,,,,,,1802.5406891832827,None,,,,,,,,,,,,,,,,,,,,,,write,D_new,76,358,1799.1232642905961,None,1799.1232642905961,None,1799.1232642905961,None,3,2.5349549045204185,1799.1232642905961,None,1801.7238520868123,None,1801.7238520868123,None,1802.240675499139,None,1802.240675499139,None,1802.240675499139,None,f,0.25818342974525876,1802.240675499139,None,base7,001,2019_Oct_26_1351,ProdFawcett_Revision2019,3.2.4,59.989813257564634,
,,,,77,0,77,0,,,,,,,,,,,,,1804.9581843627384,None,,,,,,,,,,,,,,,,,,,,,,tennis,C_aloud2,77,323,1803.0582400323183,None,1803.0582400323183,None,1803.0582400323183,None,6,1.064029980712803,1803.0582400323183,None,1804.1628857995674,None,1804.1628857995674,None,1804.6944202898303,None,1804.6944202898303,None,1804.6944202898303,None,r,0.2278291969851125,1804.6944202898303,None,base7,001,2019_Oct_26_1351,ProdFawcett_Revision2019,3.2.4,59.989813257564634,
,,,,78,0,78,0,,,,,,,,,,,,,1808.1757013124297,None,,,,,,,,,,,,,,,,,,,,,,stranger,D_new,78,309,1805.4762710704526,None,1805.4762710704526,None,1805.4762710704526,None,4,1.9099688996793702,1805.4762710704526,None,1807.4320292964985,None,1807.4320292964985,None,1807.9590741431748,None,1807.9590741431748,None,1807.9590741431748,None,r,0.1788489767932333,1807.9590741431748,None,base7,001,2019_Oct_26_1351,ProdFawcett_Revision2019,3.2.4,59.989813257564634,
,,,,79,0,79,0,,,,,,,,,,,,,1813.744249549025,None,,,,,,,,,,,,,,,,,,,,,,rough,D_new,79,266,1808.6925782173057,None,1808.6925782173057,None,1808.6925782173057,None,3,3.637047956697643,1808.6925782173057,None,1812.3816548485192,None,1812.3816548485192,None,1812.910539901699,None,1812.910539901699,None,1812.910539901699,None,f,0.7870062822767068,1812.910539901699,None,base7,001,2019_Oct_26_1351,ProdFawcett_Revision2019,3.2.4,59.989813257564634,
,,,,80,0,80,0,,,,,,,,,,,,,1818.5957538719813,None,,,,,,,,,,,,,,,,,,,,,,front,C_aloud2,80,134,1814.2620865211065,None,1814.2620865211065,None,1814.2620865211065,None,2,1.4436888101045042,1814.2620865211065,None,1815.7485115382005,None,1815.7485115382005,None,1816.2782319462567,None,1816.2782319462567,None,1816.2782319462567,None,n,2.283457423647633,1816.2782319462567,None,base7,001,2019_Oct_26_1351,ProdFawcett_Revision2019,3.2.4,59.989813257564634,
,,,,81,0,81,0,,,,,,,,,,,,,1823.1638346706459,None,,,,,,,,,,,,,,,,,,,,,,threat,B_aloud1,81,329,1819.113200534921,None,1819.113200534921,None,1819.113200534921,None,5,3.183928593643941,1819.113200534921,None,1822.3469708278717,None,1822.3469708278717,None,1822.8637279965042,None,1822.8637279965042,None,1822.8637279965042,None,f,0.2654997822828591,1822.8637279965042,None,base7,001,2019_Oct_26_1351,ProdFawcett_Revision2019,3.2.4,59.989813257564634,
,,,,82,0,82,0,,,,,,,,,,,,,1825.8812676494126,None,,,,,,,,,,,,,,,,,,,,,,suspect,A_silent,82,318,1823.6811227219005,None,1823.6811227219005,None,1823.6811227219005,None,6,1.2877747713937424,1823.6811227219005,None,1825.0312048267515,None,1825.0312048267515,None,1825.5477530011558,None,1825.5477530011558,None,1825.5477530011558,None,r,0.2851890900055878,1825.5477530011558,None,base7,001,2019_Oct_26_1351,ProdFawcett_Revision2019,3.2.4,59.989813257564634,
,,,,83,0,83,0,,,,,,,,,,,,,1828.331954033696,None,,,,,,,,,,,,,,,,,,,,,,swift,D_new,83,320,1826.398295701918,None,1826.398295701918,None,1826.398295701918,None,2,1.3145916526555084,1826.398295701918,None,1827.7655657149735,None,1827.7655657149735,None,1828.2820784350042,None,1828.2820784350042,None,1828.2820784350042,None,n,0.007130372599931434,1828.2820784350042,None,base7,001,2019_Oct_26_1351,ProdFawcett_Revision2019,3.2.4,59.989813257564634,
,,,,84,0,84,0,,,,,,,,,,,,,1831.7331607264932,None,,,,,,,,,,,,,,,,,,,,,,cross,D_new,84,80,1828.8487749579945,None,1828.8487749579945,None,1828.8487749579945,None,2,1.2161824345530476,1828.8487749579945,None,1830.115913105663,None,1830.115913105663,None,1830.6328117807861,None,1830.6328117807861,None,1830.6328117807861,None,n,1.0560875785304233,1830.6328117807861,None,base7,001,2019_Oct_26_1351,ProdFawcett_Revision2019,3.2.4,59.989813257564634,
,,,,85,0,85,0,,,,,,,,,,,,,1834.2069017851318,None,,,,,,,,,,,,,,,,,,,,,,literature,D_new,85,173,1832.2521726690175,None,1832.2521726690175,None,1832.2521726690175,None,1,1.364577968546655,1832.2521726690175,None,1833.6670831000665,None,1833.6670831000665,None,1834.18369627418,None,1834.18369627418,None,1834.18369627418,None,n,0.0005877962103113532,1834.18369627418,None,base7,001,2019_Oct_26_1351,ProdFawcett_Revision2019,3.2.4,59.989813257564634,
,,,,86,0,86,0,,,,,,,,,,,,,1836.5511774584593,None,,,,,,,,,,,,,,,,,,,,,,trail,A_silent,86,336,1834.7340477078978,None,1834.7340477078978,None,1834.7340477078978,None,6,1.1622246065817308,1834.7340477078978,None,1835.9511255209218,None,1835.9511255209218,None,1836.4678139578027,None,1836.4678139578027,None,1836.4678139578027,None,r,0.04484978539403528,1836.4678139578027,None,base7,001,2019_Oct_26_1351,ProdFawcett_Revision2019,3.2.4,59.989813257564634,
,,,,87,0,87,0,,,,,,,,,,,,,1839.618825340527,None,,,,,,,,,,,,,,,,,,,,,,story,D_new,87,306,1837.0679560863355,None,1837.0679560863355,None,1837.0679560863355,None,3,1.4928127138409764,1837.0679560863355,None,1838.6185992411338,None,1838.6185992411338,None,1839.1353719599429,None,1839.1353719599429,None,1839.1353719599429,None,n,0.4413450892607216,1839.1353719599429,None,base7,001,2019_Oct_26_1351,ProdFawcett_Revision2019,3.2.4,59.989813257564634,
,,,,88,0,88,0,,,,,,,,,,,,,1842.5530397462135,None,,,,,,,,,,,,,,,,,,,,,,light,A_silent,88,171,1840.1356913603086,None,1840.1356913603086,None,1840.1356913603086,None,5,1.776471667602891,1840.1356913603086,None,1841.9588592399086,None,1841.9588592399086,None,1842.486454251397,None,1842.486454251397,None,1842.486454251397,None,f,0.02569322634371929,1842.486454251397,None,base7,001,2019_Oct_26_1351,ProdFawcett_Revision2019,3.2.4,59.989813257564634,
,,,,89,0,89,0,,,,,,,,,,,,,1846.3711485351669,None,,,,,,,,,,,,,,,,,,,,,,agency,D_new,89,4,1843.0711976736784,None,1843.0711976736784,None,1843.0711976736784,None,6,2.0249126080598217,1843.0711976736784,None,1845.1419944641239,None,1845.1419944641239,None,1845.6706590159738,None,1845.6706590159738,None,1845.6706590159738,None,r,0.6651617217285093,1845.6706590159738,None,base7,001,2019_Oct_26_1351,ProdFawcett_Revision2019,3.2.4,59.989813257564634,
,,,,90,0,90,0,,,,,,,,,,,,,1850.6056512408832,None,,,,,,,,,,,,,,,,,,,,,,finance,C_aloud2,90,129,1846.8891061765025,None,1846.8891061765025,None,1846.8891061765025,None,6,3.0704966722696554,1846.8891061765025,None,1850.0220700379286,None,1850.0220700379286,None,1850.5388685700018,None,1850.5388685700018,None,1850.5388685700018,None,r,0.020548298809444532,1850.5388685700018,None,base7,001,2019_Oct_26_1351,ProdFawcett_Revision2019,3.2.4,59.989813257564634,
,,,,91,0,91,0,,,,,,,,,,,,,1853.5897729675926,None,,,,,,,,,,,,,,,,,,,,,,audience,D_new,91,14,1851.1230070908496,None,1851.1230070908496,None,1851.1230070908496,None,1,1.2682894818717614,1851.1230070908496,None,1852.4561799464864,None,1852.4561799464864,None,1852.9731495303859,None,1852.9731495303859,None,1852.9731495303859,None,n,0.5783983330184128,1852.9731495303859,None,base7,001,2019_Oct_26_1351,ProdFawcett_Revision2019,3.2.4,59.989813257564634,
,,,,92,0,92,0,,,,,,,,,,,,,1856.440661814995,None,,,,,,,,,,,,,,,,,,,,,,orchestra,C_aloud2,92,206,1854.106806929136,None,1854.106806929136,None,1854.106806929136,None,6,1.188419792248169,1854.106806929136,None,1855.3571835541225,None,1855.3571835541225,None,1855.8738785221067,None,1855.8738785221067,None,1855.8738785221067,None,r,0.5336014181666542,1855.8738785221067,None,base7,001,2019_Oct_26_1351,ProdFawcett_Revision2019,3.2.4,59.989813257564634,
,,,,93,0,93,0,,,,,,,,,,,,,1859.9250908129616,None,,,,,,,,,,,,,,,,,,,,,,store,B_aloud1,93,305,1856.9575010885019,None,1856.9575010885019,None,1856.9575010885019,None,5,1.626128630945459,1856.9575010885019,None,1858.641436835227,None,1858.641436835227,None,1859.1583280462655,None,1859.1583280462655,None,1859.1583280462655,None,f,0.7205156434501987,1859.1583280462655,None,base7,001,2019_Oct_26_1351,ProdFawcett_Revision2019,3.2.4,59.989813257564634,
,,,,94,0,94,0,,,,,,,,,,,,,1862.5592243577703,None,,,,,,,,,,,,,,,,,,,,,,measure,B_aloud1,94,184,1860.443264912581,None,1860.443264912581,None,1860.443264912581,None,6,1.1159031535789836,1860.443264912581,None,1861.6089967033477,None,1861.6089967033477,None,1862.1258537040267,None,1862.1258537040267,None,1862.1258537040267,None,f,0.384877464704914,1862.1258537040267,None,base7,001,2019_Oct_26_1351,ProdFawcett_Revision2019,3.2.4,59.989813257564634,
,,,,95,0,95,0,,,,,,,,,,,,,1865.3102170802886,None,,,,,,,,,,,,,,,,,,,,,,command,D_new,95,60,1863.0760060956527,None,1863.0760060956527,None,1863.0760060956527,None,1,1.4346152889193036,1863.0760060956527,None,1864.548853330838,None,1864.548853330838,None,1865.0766794177762,None,1865.0766794177762,None,1865.0766794177762,None,n,0.1942159606842324,1865.0766794177762,None,base7,001,2019_Oct_26_1351,ProdFawcett_Revision2019,3.2.4,59.989813257564634,
,,,,96,0,96,0,,,,,,,,,,,,,1869.161256764317,None,,,,,,,,,,,,,,,,,,,,,,rural,D_new,96,269,1865.8270905641548,None,1865.8270905641548,None,1865.8270905641548,None,1,1.3634166822012048,1865.8270905641548,None,1867.244000746403,None,1867.244000746403,None,1867.7610331529286,None,1867.7610331529286,None,1867.7610331529286,None,n,1.357943024195265,1867.7610331529286,None,base7,001,2019_Oct_26_1351,ProdFawcett_Revision2019,3.2.4,59.989813257564634,
,,,,97,0,97,0,,,,,,,,,,,,,1872.2789108664438,None,,,,,,,,,,,,,,,,,,,,,,committee,A_silent,97,62,1869.6780963487981,None,1869.6780963487981,None,1869.6780963487981,None,6,1.1124423088913318,1869.6780963487981,None,1870.8452086831967,None,1870.8452086831967,None,1871.362166448962,None,1871.362166448962,None,1871.362166448962,None,r,0.8761479131644592,1871.362166448962,None,base7,001,2019_Oct_26_1351,ProdFawcett_Revision2019,3.2.4,59.989813257564634,
,,,,98,0,98,0,,,,,,,,,,,,,1877.1971956832567,None,,,,,,,,,,,,,,,,,,,,,,court,A_silent,98,75,1872.7957237046503,None,1872.7957237046503,None,1872.7957237046503,None,6,2.7143294769048225,1872.7957237046503,None,1875.563339553395,None,1875.563339553395,None,1876.0802416495571,None,1876.0802416495571,None,1876.0802416495571,None,r,1.0779224979924038,1876.0802416495571,None,base7,001,2019_Oct_26_1351,ProdFawcett_Revision2019,3.2.4,59.989813257564634,
,,,,99,0,99,0,,,,,,,,,,,,,1880.1481647695473,None,,,,,,,,,,,,,,,,,,,,,,birth,B_aloud1,99,22,1877.7141391428595,None,1877.7141391428595,None,1877.7141391428595,None,6,1.403607949236175,1877.7141391428595,None,1879.181079181435,None,1879.181079181435,None,1879.6979019717546,None,1879.6979019717546,None,1879.6979019717546,None,r,0.4037914411746897,1879.6979019717546,None,base7,001,2019_Oct_26_1351,ProdFawcett_Revision2019,3.2.4,59.989813257564634,
,,,,100,0,100,0,,,,,,,,,,,,,1882.765609877446,None,,,,,,,,,,,,,,,,,,,,,,relation,C_aloud2,100,257,1880.6660459040722,None,1880.6660459040722,None,1880.6660459040722,None,5,1.2438716800243128,1880.6660459040722,None,1881.9531498413708,None,1881.9531498413708,None,1882.4820526217518,None,1882.4820526217518,None,1882.4820526217518,None,f,0.23557286805589683,1882.4820526217518,None,base7,001,2019_Oct_26_1351,ProdFawcett_Revision2019,3.2.4,59.989813257564634,
,,,,101,0,101,0,,,,,,,,,,,,,1885.5663407352113,None,,,,,,,,,,,,,,,,,,,,,,institute,B_aloud1,101,162,1883.282818622858,None,1883.282818622858,None,1883.282818622858,None,6,1.3072998693969566,1883.282818622858,None,1884.6495406481263,None,1884.6495406481263,None,1885.1663093238603,None,1885.1663093238603,None,1885.1663093238603,None,r,0.36715120979351923,1885.1663093238603,None,base7,001,2019_Oct_26_1351,ProdFawcett_Revision2019,3.2.4,59.989813257564634,
,,,,102,0,102,0,,,,,,,,,,,,,1888.2172494868282,None,,,,,,,,,,,,,,,,,,,,,,government,B_aloud1,102,139,1886.0836975181883,None,1886.0836975181883,None,1886.0836975181883,None,6,1.1619132922787685,1886.0836975181883,None,1887.2887587858422,None,1887.2887587858422,None,1887.8062356160954,None,1887.8062356160954,None,1887.8062356160954,None,r,0.36764259499614127,1887.8062356160954,None,base7,001,2019_Oct_26_1351,ProdFawcett_Revision2019,3.2.4,59.989813257564634,
,,,,103,0,103,0,,,,,,,,,,,,,1890.6679262300022,None,,,,,,,,,,,,,,,,,,,,,,accident,D_new,103,0,1888.7350528705574,None,1888.7350528705574,None,1888.7350528705574,None,5,1.3103676059108693,1888.7350528705574,None,1890.101204515755,None,1890.101204515755,None,1890.6181700565794,None,1890.6181700565794,None,1890.6181700565794,None,f,0.01121757790679112,1890.6181700565794,None,base7,001,2019_Oct_26_1351,ProdFawcett_Revision2019,3.2.4,59.989813257564634,
,,,,104,0,104,0,,,,,,,,,,,,,1895.3860882005247,None,,,,,,,,,,,,,,,,,,,,,,subject,C_aloud2,104,312,1891.187675872352,None,1891.187675872352,None,1891.187675872352,None,6,2.841524227143964,1891.187675872352,None,1894.0856758101436,None,1894.0856758101436,None,1894.6048846177582,None,1894.6048846177582,None,1894.6048846177582,None,r,0.7359479380538687,1894.6048846177582,None,base7,001,2019_Oct_26_1351,ProdFawcett_Revision2019,3.2.4,59.989813257564634,
,,,,105,0,105,0,,,,,,,,,,,,,1897.542528145772,None,,,,,,,,,,,,,,,,,,,,,,quiet,D_new,105,249,1895.9068103501631,None,1895.9068103501631,None,1895.9068103501631,None,6,1.0259529140894301,1895.9068103501631,None,1896.9776220687781,None,1896.9776220687781,None,1897.5049284692213,None,1897.5049284692213,None,1897.5049284692213,None,r,0.0036651738628279418,1897.5049284692213,None,base7,001,2019_Oct_26_1351,ProdFawcett_Revision2019,3.2.4,59.989813257564634,
,,,,106,0,106,0,,,,,,,,,,,,,1899.5374771412462,None,,,,,,,,,,,,,,,,,,,,,,minor,C_aloud2,106,191,1898.0703249984363,None,1898.0703249984363,None,1898.0703249984363,None,6,0.7748877278063446,1898.0703249984363,None,1898.9039021583449,None,1898.9039021583449,None,1899.4207747092005,None,1899.4207747092005,None,1899.4207747092005,None,r,0.0799020339618437,1899.4207747092005,None,base7,001,2019_Oct_26_1351,ProdFawcett_Revision2019,3.2.4,59.989813257564634,
,,,,107,0,107,0,,,,,,,,,,,,,1901.8880739565648,None,,,,,,,,,,,,,,,,,,,,,,sight,A_silent,107,286,1900.0542753623158,None,1900.0542753623158,None,1900.0542753623158,None,6,0.6623555389523972,1900.0542753623158,None,1900.7593431610148,None,1900.7593431610148,None,1901.2878758474835,None,1901.2878758474835,None,1901.2878758474835,None,r,0.5647297381365206,1901.2878758474835,None,base7,001,2019_Oct_26_1351,ProdFawcett_Revision2019,3.2.4,59.989813257564634,
,,,,108,0,108,0,,,,,,,,,,,,,1904.4388704360172,None,,,,,,,,,,,,,,,,,,,,,,frank,D_new,108,133,1902.40495614853,None,1902.40495614853,None,1902.40495614853,None,1,1.408023263036739,1902.40495614853,None,1903.8720181003737,None,1903.8720181003737,None,1904.3890131865337,None,1904.3890131865337,None,1904.3890131865337,None,n,0.015647508873371407,1904.3890131865337,None,base7,001,2019_Oct_26_1351,ProdFawcett_Revision2019,3.2.4,59.989813257564634,
,,,,109,0,109,0,,,,,,,,,,,,,1907.8733784288052,None,,,,,,,,,,,,,,,,,,,,,,murder,D_new,109,195,1904.9569854450237,None,1904.9569854450237,None,1904.9569854450237,None,1,1.359520432917634,1904.9569854450237,None,1906.3728456801618,None,1906.3728456801618,None,1906.8897515083663,None,1906.8897515083663,None,1906.8897515083663,None,n,0.9463677924941294,1906.8897515083663,None,base7,001,2019_Oct_26_1351,ProdFawcett_Revision2019,3.2.4,59.989813257564634,
,,,,110,0,110,0,,,,,,,,,,,,,1910.8742865584209,None,,,,,,,,,,,,,,,,,,,,,,drama,B_aloud1,110,103,1908.390353610739,None,1908.390353610739,None,1908.390353610739,None,6,1.0620274305110797,1908.390353610739,None,1909.507255706907,None,1909.507255706907,None,1910.023935435689,None,1910.023935435689,None,1910.023935435689,None,r,0.8120177893724758,1910.023935435689,None,base7,001,2019_Oct_26_1351,ProdFawcett_Revision2019,3.2.4,59.989813257564634,
,,,,111,0,111,0,,,,,,,,,,,,,1914.8088950052625,None,,,,,,,,,,,,,,,,,,,,,,service,B_aloud1,111,280,1911.3922149654536,None,1911.3922149654536,None,1911.3922149654536,None,5,2.5317126951704267,1911.3922149654536,None,1913.9621938172495,None,1913.9621938172495,None,1914.491884057963,None,1914.491884057963,None,1914.491884057963,None,f,0.2798746656626463,1914.491884057963,None,base7,001,2019_Oct_26_1351,ProdFawcett_Revision2019,3.2.4,59.989813257564634,
,,,,112,0,112,0,,,,,,,,,,,,,1917.8263547303504,None,,,,,,,,,,,,,,,,,,,,,,degree,D_new,112,89,1915.326241525152,None,1915.326241525152,None,1915.326241525152,None,5,1.3739684020692948,1915.326241525152,None,1916.7471337936004,None,1916.7471337936004,None,1917.2761068607215,None,1917.2761068607215,None,1917.2761068607215,None,f,0.5117276233213488,1917.2761068607215,None,base7,001,2019_Oct_26_1351,ProdFawcett_Revision2019,3.2.4,59.989813257564634,
,,,,113,0,113,0,,,,,,,,,,,,,1920.9274258257065,None,,,,,,,,,,,,,,,,,,,,,,curve,A_silent,113,82,1918.3432490514242,None,1918.3432490514242,None,1918.3432490514242,None,6,1.3322137214418035,1918.3432490514242,None,1919.7157684891426,None,1919.7157684891426,None,1920.243760340847,None,1920.243760340847,None,1920.243760340847,None,r,0.6477629533037543,1920.243760340847,None,base7,001,2019_Oct_26_1351,ProdFawcett_Revision2019,3.2.4,59.989813257564634,
,,,,114,0,114,0,,,,,,,,,,,,,1924.9286530447134,None,,,,,,,,,,,,,,,,,,,,,,safety,D_new,114,270,1921.4449990669673,None,1921.4449990669673,None,1921.4449990669673,None,6,1.4143798594304826,1921.4449990669673,None,1922.899088760314,None,1922.899088760314,None,1923.4280823536683,None,1923.4280823536683,None,1923.4280823536683,None,f,1.4630428562522866,1923.4280823536683,None,base7,001,2019_Oct_26_1351,ProdFawcett_Revision2019,3.2.4,59.989813257564634,
,,,,115,0,115,0,,,,,,,,,,,,,1927.629359955201,None,,,,,,,,,,,,,,,,,,,,,,present,B_aloud1,115,231,1925.446079803427,None,1925.446079803427,None,1925.446079803427,None,6,1.5649654786393512,1925.446079803427,None,1927.0625931454706,None,1927.0625931454706,None,1927.5795011506998,None,1927.5795011506998,None,1927.5795011506998,None,r,0.015841885906411335,1927.5795011506998,None,base7,001,2019_Oct_26_1351,ProdFawcett_Revision2019,3.2.4,59.989813257564634,
,,,,116,0,116,0,,,,,,,,,,,,,1930.6471229085,None,,,,,,,,,,,,,,,,,,,,,,beginning,D_new,116,19,1928.148014243925,None,1928.148014243925,None,1928.148014243925,None,2,1.791025377868209,1928.148014243925,None,1929.9967733407975,None,1929.9967733407975,None,1930.5136250544165,None,1930.5136250544165,None,1930.5136250544165,None,n,0.0897788766596932,1930.5136250544165,None,base7,001,2019_Oct_26_1351,ProdFawcett_Revision2019,3.2.4,59.989813257564634,
,,,,117,0,117,0,,,,,,,,,,,,,1933.6146983267972,None,,,,,,,,,,,,,,,,,,,,,,resistance,D_new,117,262,1931.1659535360814,None,1931.1659535360814,None,1931.1659535360814,None,1,1.2213550413725898,1931.1659535360814,None,1932.4367848479014,None,1932.4367848479014,None,1932.9642567021074,None,1932.9642567021074,None,1932.9642567021074,None,n,0.6069437706028111,1932.9642567021074,None,base7,001,2019_Oct_26_1351,ProdFawcett_Revision2019,3.2.4,59.989813257564634,
,,,,118,0,118,0,,,,,,,,,,,,,1936.0153274864715,None,,,,,,,,,,,,,,,,,,,,,,color,D_new,118,56,1934.131899919128,None,1934.131899919128,None,1934.131899919128,None,1,1.230792436399497,1934.131899919128,None,1935.404040865833,None,1935.404040865833,None,1935.9320420476433,None,1935.9320420476433,None,1935.9320420476433,None,n,0.04642563909874298,1935.9320420476433,None,base7,001,2019_Oct_26_1351,ProdFawcett_Revision2019,3.2.4,59.989813257564634,
,,,,119,0,119,0,,,,,,,,,,,,,1939.5832418983628,None,,,,,,,,,,,,,,,,,,,,,,reach,D_new,119,253,1936.5321611618856,None,1936.5321611618856,None,1936.5321611618856,None,2,1.4783236922230572,1936.5321611618856,None,1938.0659734403016,None,1938.0659734403016,None,1938.582793742593,None,1938.582793742593,None,1938.582793742593,None,f,0.9558079865819309,1938.582793742593,None,base7,001,2019_Oct_26_1351,ProdFawcett_Revision2019,3.2.4,59.989813257564634,
,,,,120,0,120,0,,,,,,,,,,,,,1942.734197611484,None,,,,,,,,,,,,,,,,,,,,,,problem,D_new,120,238,1940.1019157802803,None,1940.1019157802803,None,1940.1019157802803,None,5,1.8765124090132304,1940.1019157802803,None,1942.0338900292118,None,1942.0338900292118,None,1942.5507498289226,None,1942.5507498289226,None,1942.5507498289226,None,r,0.13993126826244406,1942.5507498289226,None,base7,001,2019_Oct_26_1351,ProdFawcett_Revision2019,3.2.4,59.989813257564634,
,,,,121,0,121,0,,,,,,,,,,,,,1950.1863646824495,None,,,,,,,,,,,,,,,,,,,,,,shape,D_new,121,282,1943.2509874354582,None,1943.2509874354582,None,1943.2509874354582,None,4,5.335135597444605,1943.2509874354582,None,1948.636021645827,None,1948.636021645827,None,1949.1528562542517,None,1949.1528562542517,None,1949.1528562542517,None,f,1.0007641350966878,1949.1528562542517,None,base7,001,2019_Oct_26_1351,ProdFawcett_Revision2019,3.2.4,59.989813257564634,
,,,,122,0,122,0,,,,,,,,,,,,,1953.7042284008057,None,,,,,,,,,,,,,,,,,,,,,,background,D_new,122,16,1950.7034869689378,None,1950.7034869689378,None,1950.7034869689378,None,4,1.554012564534787,1950.7034869689378,None,1952.320603346394,None,1952.320603346394,None,1952.8372861852113,None,1952.8372861852113,None,1952.8372861852113,None,f,0.8201296883635223,1952.8372861852113,None,base7,001,2019_Oct_26_1351,ProdFawcett_Revision2019,3.2.4,59.989813257564634,
,,,,123,0,123,0,,,,,,,,,,,,,1956.9718308763986,None,,,,,,,,,,,,,,,,,,,,,,interior,D_new,123,164,1954.2220246314537,None,1954.2220246314537,None,1954.2220246314537,None,3,2.0918884120183066,1954.2220246314537,None,1956.371629657253,None,1956.371629657253,None,1956.8885852459935,None,1956.8885852459935,None,1956.8885852459935,None,f,0.04905392797081731,1956.8885852459935,None,base7,001,2019_Oct_26_1351,ProdFawcett_Revision2019,3.2.4,59.989813257564634,
,,,,124,0,124,0,,,,,,,,,,,,,1960.3561740374425,None,,,,,,,,,,,,,,,,,,,,,,break,D_new,124,26,1957.4900012440048,None,1957.4900012440048,None,1957.4900012440048,None,6,1.5351054301427212,1957.4900012440048,None,1959.0767845369119,None,1959.0767845369119,None,1959.6059603781614,None,1959.6059603781614,None,1959.6059603781614,None,r,0.7077187908289488,1959.6059603781614,None,base7,001,2019_Oct_26_1351,ProdFawcett_Revision2019,3.2.4,59.989813257564634,
,,,,125,0,125,0,,,,,,,,,,,,,1964.5241434969066,None,,,,,,,,,,,,,,,,,,,,,,reading,D_new,125,254,1960.8740828512528,None,1960.8740828512528,None,1960.8740828512528,None,1,1.262948000250617,1960.8740828512528,None,1962.1901673197572,None,1962.1901673197572,None,1962.7071362816205,None,1962.7071362816205,None,1962.7071362816205,None,n,1.7818311873998027,1962.7071362816205,None,base7,001,2019_Oct_26_1351,ProdFawcett_Revision2019,3.2.4,59.989813257564634,
,,,,126,0,126,0,,,,,,,,,,,,,1966.958211109013,None,,,,,,,,,,,,,,,,,,,,,,figure,B_aloud1,126,128,1965.0409103066486,None,1965.0409103066486,None,1965.0409103066486,None,5,1.2084645767172333,1965.0409103066486,None,1966.3081402002717,None,1966.3081402002717,None,1966.8250021770073,None,1966.8250021770073,None,1966.8250021770073,None,f,0.08767711636028253,1966.8250021770073,None,base7,001,2019_Oct_26_1351,ProdFawcett_Revision2019,3.2.4,59.989813257564634,
,,,,127,0,127,0,,,,,,,,,,,,,1969.5257330347667,None,,,,,,,,,,,,,,,,,,,,,,dozen,A_silent,127,102,1967.479649810266,None,1967.479649810266,None,1967.479649810266,None,6,1.1930245070543606,1967.479649810266,None,1968.725560738938,None,1968.725560738938,None,1969.2479999377974,None,1969.2479999377974,None,1969.2479999377974,None,r,0.23281022577430122,1969.2479999377974,None,base7,001,2019_Oct_26_1351,ProdFawcett_Revision2019,3.2.4,59.989813257564634,
,,,,128,0,128,0,,,,,,,,,,,,,1971.8764007588325,None,,,,,,,,,,,,,,,,,,,,,,smell,A_silent,128,291,1970.0425300117931,None,1970.0425300117931,None,1970.0425300117931,None,6,1.1585398394963704,1970.0425300117931,None,1971.2493161037273,None,1971.2493161037273,None,1971.7765229831275,None,1971.7765229831275,None,1971.7765229831275,None,r,0.06402313863509335,1971.7765229831275,None,base7,001,2019_Oct_26_1351,ProdFawcett_Revision2019,3.2.4,59.989813257564634,
,,,,129,0,129,0,,,,,,,,,,,,,1975.6443720843235,None,,,,,,,,,,,,,,,,,,,,,,phrase,C_aloud2,129,220,1972.3939049573673,None,1972.3939049573673,None,1972.3939049573673,None,5,1.2944871555664577,1972.3939049573673,None,1973.7437028052227,None,1973.7437028052227,None,1974.2606394227769,None,1974.2606394227769,None,1974.2606394227769,None,f,1.3398124650120735,1974.2606394227769,None,base7,001,2019_Oct_26_1351,ProdFawcett_Revision2019,3.2.4,59.989813257564634,
,,,,130,0,130,0,,,,,,,,,,,,,1979.3621767120494,None,,,,,,,,,,,,,,,,,,,,,,oxygen,D_new,130,209,1976.1620062822476,None,1976.1620062822476,None,1976.1620062822476,None,1,1.2382530944887549,1976.1620062822476,None,1977.4615478634078,None,1977.4615478634078,None,1977.978422591259,None,1977.978422591259,None,1977.978422591259,None,n,1.34999440194224,1977.978422591259,None,base7,001,2019_Oct_26_1351,ProdFawcett_Revision2019,3.2.4,59.989813257564634,
,,,,131,0,131,0,,,,,,,,,,,,,1981.5462038937549,None,,,,,,,,,,,,,,,,,,,,,,revolution,D_new,131,264,1979.8809339428844,None,1979.8809339428844,None,1979.8809339428844,None,2,0.9988946942903567,1979.8809339428844,None,1980.9293372519605,None,1980.9293372519605,None,1981.4459883684758,None,1981.4459883684758,None,1981.4459883684758,None,n,0.06624401317094453,1981.4459883684758,None,base7,001,2019_Oct_26_1351,ProdFawcett_Revision2019,3.2.4,59.989813257564634,
,,,,132,0,132,0,,,,,,,,,,,,,1984.2303371275484,None,,,,,,,,,,,,,,,,,,,,,,length,B_aloud1,132,169,1982.0639192635426,None,1982.0639192635426,None,1982.0639192635426,None,6,1.2724056105071213,1982.0639192635426,None,1983.3966812838044,None,1983.3966812838044,None,1983.913602351182,None,1983.913602351182,None,1983.913602351182,None,r,0.27004602848319337,1983.913602351182,None,base7,001,2019_Oct_26_1351,ProdFawcett_Revision2019,3.2.4,59.989813257564634,
,,,,133,0,133,0,,,,,,,,,,,,,1987.8647151209589,None,,,,,,,,,,,,,,,,,,,,,,school,C_aloud2,133,274,1984.747363003029,None,1984.747363003029,None,1984.747363003029,None,4,1.9643014866160229,1984.747363003029,None,1986.7645860546036,None,1986.7645860546036,None,1987.2813065248483,None,1987.2813065248483,None,1987.2813065248483,None,f,0.5503495677257888,1987.2813065248483,None,base7,001,2019_Oct_26_1351,ProdFawcett_Revision2019,3.2.4,59.989813257564634,
,,,,134,0,134,0,,,,,,,,,,,,,1992.1661519561894,None,,,,,,,,,,,,,,,,,,,,,,order,C_aloud2,134,207,1988.3818442495249,None,1988.3818442495249,None,1988.3818442495249,None,4,2.553415438189404,1988.3818442495249,None,1990.988266778615,None,1990.988266778615,None,1991.51590719659,None,1991.51590719659,None,1991.51590719659,None,f,0.6032916588883381,1991.51590719659,None,base7,001,2019_Oct_26_1351,ProdFawcett_Revision2019,3.2.4,59.989813257564634,
,,,,135,0,135,0,,,,,,,,,,,,,1994.633573738858,None,,,,,,,,,,,,,,,,,,,,,,vision,D_new,135,347,1992.6839385457279,None,1992.6839385457279,None,1992.6839385457279,None,6,1.171400758845266,1992.6839385457279,None,1993.9050466504705,None,1993.9050466504705,None,1994.4333781177993,None,1994.4333781177993,None,1994.4333781177993,None,r,0.16607824843958952,1994.4333781177993,None,base7,001,2019_Oct_26_1351,ProdFawcett_Revision2019,3.2.4,59.989813257564634,
,,,,136,0,136,0,,,,,,,,,,,,,1996.8176037195954,None,,,,,,,,,,,,,,,,,,,,,,pressure,B_aloud1,136,232,1995.1510020526184,None,1995.1510020526184,None,1995.1510020526184,None,6,0.9761525782232638,1995.1510020526184,None,1996.1841114635754,None,1996.1841114635754,None,1996.7009131056548,None,1996.7009131056548,None,1996.7009131056548,None,r,0.07466442743316293,1996.7009131056548,None,base7,001,2019_Oct_26_1351,ProdFawcett_Revision2019,3.2.4,59.989813257564634,
,,,,137,0,137,0,,,,,,,,,,,,,1999.7851822479279,None,,,,,,,,,,,,,,,,,,,,,,block,C_aloud2,137,25,1997.3349063879868,None,1997.3349063879868,None,1997.3349063879868,None,6,1.695957890158752,1997.3349063879868,None,1999.0848311251902,None,1999.0848311251902,None,1999.6017755178036,None,1999.6017755178036,None,1999.6017755178036,None,r,0.1493593332124874,1999.6017755178036,None,base7,001,2019_Oct_26_1351,ProdFawcett_Revision2019,3.2.4,59.989813257564634,
,,,,138,0,138,0,,,,,,,,,,,,,2004.003005224833,None,,,,,,,,,,,,,,,,,,,,,,discovery,A_silent,138,95,2000.3040645020665,None,2000.3040645020665,None,2000.3040645020665,None,5,2.4626889344945084,2000.3040645020665,None,2002.809691173723,None,2002.809691173723,None,2003.3362312620447,None,2003.3362312620447,None,2003.3362312620447,None,f,0.6228879766131286,2003.3362312620447,None,base7,001,2019_Oct_26_1351,ProdFawcett_Revision2019,3.2.4,59.989813257564634,
,,,,139,0,139,0,,,,,,,,,,,,,2006.520469614974,None,,,,,,,,,,,,,,,,,,,,,,crisis,A_silent,139,79,2004.5209544691024,None,2004.5209544691024,None,2004.5209544691024,None,6,1.2136297194520012,2004.5209544691024,None,2005.787014679343,None,2005.787014679343,None,2006.3038887852163,None,2006.3038887852163,None,2006.3038887852163,None,r,0.1828721154597588,2006.3038887852163,None,base7,001,2019_Oct_26_1351,ProdFawcett_Revision2019,3.2.4,59.989813257564634,
,,,,140,0,140,0,,,,,,,,,,,,,2010.2050699757237,None,,,,,,,,,,,,,,,,,,,,,,council,D_new,140,71,2007.0372115444334,None,2007.0372115444334,None,2007.0372115444334,None,5,1.2735199353192002,2007.0372115444334,None,2008.3597204080143,None,2008.3597204080143,None,2008.8879302730493,None,2008.8879302730493,None,2008.8879302730493,None,f,1.2702251664013602,2008.8879302730493,None,base7,001,2019_Oct_26_1351,ProdFawcett_Revision2019,3.2.4,59.989813257564634,
,,,,141,0,141,0,,,,,,,,,,,,,2014.5896498102811,None,,,,,,,,,,,,,,,,,,,,,,guard,D_new,141,145,2010.72204360264,None,2010.72204360264,None,2010.72204360264,None,1,2.1721493437944446,2010.72204360264,None,2012.95590875161,None,2012.95590875161,None,2013.4728139578074,None,2013.4728139578074,None,2013.4728139578074,None,n,1.0775138396420516,2013.4728139578074,None,base7,001,2019_Oct_26_1351,ProdFawcett_Revision2019,3.2.4,59.989813257564634,
,,,,142,0,142,0,,,,,,,,,,,,,2017.957349007891,None,,,,,,,,,,,,,,,,,,,,,,patient,C_aloud2,142,213,2015.10667288673,None,2015.10667288673,None,2015.10667288673,None,6,1.4834760838421062,2015.10667288673,None,2016.640408036299,None,2016.640408036299,None,2017.15722398457,None,2017.15722398457,None,2017.15722398457,None,r,0.7608042545325588,2017.15722398457,None,base7,001,2019_Oct_26_1351,ProdFawcett_Revision2019,3.2.4,59.989813257564634,
,,,,143,0,143,0,,,,,,,,,,,,,2020.1248336132267,None,,,,,,,,,,,,,,,,,,,,,,people,B_aloud1,143,216,2018.474867823592,None,2018.474867823592,None,2018.474867823592,None,6,1.0027383840351831,2018.474867823592,None,2019.5412048267608,None,2019.5412048267608,None,2020.0579619953933,None,2020.0579619953933,None,2020.0579619953933,None,r,0.019626485038315877,2020.0579619953933,None,base7,001,2019_Oct_26_1351,ProdFawcett_Revision2019,3.2.4,59.989813257564634,
,,,,144,0,144,0,,,,,,,,,,,,,2022.9256621260138,None,,,,,,,,,,,,,,,,,,,,,,scene,C_aloud2,144,273,2020.6429057037749,None,2020.6429057037749,None,2020.6429057037749,None,5,1.3149480624415446,2020.6429057037749,None,2022.0086745039443,None,2022.0086745039443,None,2022.525572868064,None,2022.525572868064,None,2022.525572868064,None,f,0.3600995210581459,2022.525572868064,None,base7,001,2019_Oct_26_1351,ProdFawcett_Revision2019,3.2.4,59.989813257564634,
,,,,145,0,145,0,,,,,,,,,,,,,2025.4931230951042,None,,,,,,,,,,,,,,,,,,,,,,evidence,D_new,145,120,2023.4427816134703,None,2023.4427816134703,None,2023.4427816134703,None,5,1.0669095602352172,2023.4427816134703,None,2024.5594423710718,None,2024.5594423710718,None,2025.0763774335792,None,2025.0763774335792,None,2025.0763774335792,None,f,0.3771804441057611,2025.0763774335792,None,base7,001,2019_Oct_26_1351,ProdFawcett_Revision2019,3.2.4,59.989813257564634,
,,,,146,0,146,0,,,,,,,,,,,,,2027.649264788197,None,,,,,,,,,,,,,,,,,,,,,,detective,D_new,146,92,2026.011928842432,None,2026.011928842432,None,2026.011928842432,None,6,1.0255899732292164,2026.011928842432,None,2027.0816940349468,None,2027.0816940349468,None,2027.610236362496,None,2027.610236362496,None,2027.610236362496,None,r,0.002817067870637402,2027.610236362496,None,base7,001,2019_Oct_26_1351,ProdFawcett_Revision2019,3.2.4,59.989813257564634,
,,,,147,0,147,0,,,,,,,,,,,,,2031.394846364361,None,,,,,,,,,,,,,,,,,,,,,,substance,D_new,147,313,2028.1771378366393,None,2028.1771378366393,None,2028.1771378366393,None,2,2.5961525782186072,2028.1771378366393,None,2030.828117808036,None,2030.828117808036,None,2031.345146793552,None,2031.345146793552,None,2031.345146793552,None,n,0.011959320778260008,2031.345146793552,None,base7,001,2019_Oct_26_1351,ProdFawcett_Revision2019,3.2.4,59.989813257564634,
,,,,148,0,148,0,,,,,,,,,,,,,2034.5793055296235,None,,,,,,,,,,,,,,,,,,,,,,passage,D_new,148,212,2031.9129088138288,None,2031.9129088138288,None,2031.9129088138288,None,2,1.4839298376755323,2031.9129088138288,None,2033.4621611619077,None,2033.4621611619077,None,2033.9789702680719,None,2033.9789702680719,None,2033.9789702680719,None,n,0.5618122162122745,2033.9789702680719,None,base7,001,2019_Oct_26_1351,ProdFawcett_Revision2019,3.2.4,59.989813257564634,
,,,,149,0,149,0,,,,,,,,,,,,,2037.3967403744464,None,,,,,,,,,,,,,,,,,,,,,,turkey,C_aloud2,149,342,2035.0971089133527,None,2035.0971089133527,None,2035.0971089133527,None,6,1.1082036449515726,2035.0971089133527,None,2036.2630636934482,None,2036.2630636934482,None,2036.7799701436597,None,2036.7799701436597,None,2036.7799701436597,None,r,0.5769316414662171,2036.7799701436597,None,base7,001,2019_Oct_26_1351,ProdFawcett_Revision2019,3.2.4,59.989813257564634,
,,,,150,0,150,0,,,,,,,,,,,,,2039.580704422464,None,,,,,,,,,,,,,,,,,,,,,,pattern,D_new,150,214,2037.9151206692623,None,2037.9151206692623,None,2037.9151206692623,None,6,0.9773819742258638,2037.9151206692623,None,2038.9473135535081,None,2038.9473135535081,None,2039.464014741534,None,2039.464014741534,None,2039.464014741534,None,r,0.07679168999311514,2039.464014741534,None,base7,001,2019_Oct_26_1351,ProdFawcett_Revision2019,3.2.4,59.989813257564634,
,,,,151,0,151,0,,,,,,,,,,,,,2044.6157010014285,None,,,,,,,,,,,,,,,,,,,,,,rapid,D_new,151,252,2040.0978385270864,None,2040.0978385270864,None,2040.0978385270864,None,2,3.3947113889444154,2040.0978385270864,None,2043.548729862523,None,2043.548729862523,None,2044.0655772220925,None,2044.0655772220925,None,2044.0655772220925,None,n,0.507233003678266,2044.0655772220925,None,base7,001,2019_Oct_26_1351,ProdFawcett_Revision2019,3.2.4,59.989813257564634,
