StudyTrials.thisRepN,StudyTrials.thisTrialN,StudyTrials.thisN,StudyTrials.thisIndex,TestTrials.thisRepN,TestTrials.thisTrialN,TestTrials.thisN,TestTrials.thisIndex,textWelcome.started,textWelcome.stopped,keyWelcome.keys,keyWelcome.rt,keyWelcome.started,keyWelcome.stopped,textReady.started,textReady.stopped,keyReady.keys,keyReady.rt,keyReady.started,keyReady.stopped,polyback_2.started,polyback_2.stopped,studyPic,studyWord,studyType,studyN,studyOrder,polyback_3.started,polyback_3.stopped,studyPicChoice.started,studyPicChoice.stopped,polyback_4.started,polyback_4.stopped,polyback.started,polyback.stopped,studyWords.started,studyWords.stopped,getResearcher.started,getResearcher.stopped,kPress2.keys,kPress2.rt,kPress2.started,kPress2.stopped,testWord,testType,testN,testOrder,polyback_5.started,polyback_5.stopped,testWords.started,testWords.stopped,textScale.started,textScale.stopped,keyConf.keys,keyConf.rt,keyConf.started,keyConf.stopped,polyback_6.started,polyback_6.stopped,studyWords_2.started,studyWords_2.stopped,polyback_7.started,polyback_7.stopped,testWords_2.started,testWords_2.stopped,textScale_2.started,textScale_2.stopped,keyRKN.keys,keyRKN.rt,keyRKN.started,keyRKN.stopped,participant,session,date,expName,psychopyVersion,frameRate,
,,,,,,,,11.679097468440887,None,space,409.724087205308,11.679097468440887,None,,,,,,,,,,,,,,,,,,,,,,,,,,,,,,,,,,,,,,,,,,,,,,,,,,,,,,,,,,base8,001,2019_Oct_26_1430,ProdFawcett_Revision2019,3.2.4,59.9654239280865,
,,,,,,,,,,,,,,421.4198762206943,None,space,19.894425265898462,421.4198762206943,None,,,,,,,,,,,,,,,,,,,,,,,,,,,,,,,,,,,,,,,,,,,,,,,,,,,,base8,001,2019_Oct_26_1430,ProdFawcett_Revision2019,3.2.4,59.9654239280865,
0,0,0,0,,,,,,,,,,,,,,,,,446.12726814704365,None,materials/readPic.jpg,travel,A_silent,0,338,442.4660710953758,None,442.4660710953758,None,443.3776833364682,None,443.64308484172216,None,443.64308484172216,None,,,,,,,,,,,,,,,,,,,,,,,,,,,,,,,,,,,base8,001,2019_Oct_26_1430,ProdFawcett_Revision2019,3.2.4,59.9654239280865,
1,0,1,0,,,,,,,,,,,,,,,,,450.3952836350072,None,materials/speakPic.jpg,course,B_aloud1,1,74,446.76206941594137,None,446.76206941594137,None,447.64456677241833,None,447.9110816694738,None,447.9110816694738,None,,,,,,,,,,,,,,,,,,,,,,,,,,,,,,,,,,,base8,001,2019_Oct_26_1430,ProdFawcett_Revision2019,3.2.4,59.9654239280865,
2,0,2,0,,,,,,,,,,,,,,,,,454.6632586925407,None,materials/speakPic.jpg,salary,B_aloud1,2,271,450.9618031971331,None,450.9618031971331,None,451.9125729302759,None,452.17903340177145,None,452.17903340177145,None,,,,,,,,,,,,,,,,,,,,,,,,,,,,,,,,,,,base8,001,2019_Oct_26_1430,ProdFawcett_Revision2019,3.2.4,59.9654239280865,
3,0,3,0,,,,,,,,,,,,,,,,,458.9312542763073,None,materials/mumblePic.jpg,waste,C_aloud2,3,350,455.218785532139,None,455.218785532139,None,456.18052994963364,None,456.4470324065478,None,456.4470324065478,None,,,,,,,,,,,,,,,,,,,,,,,,,,,,,,,,,,,base8,001,2019_Oct_26_1430,ProdFawcett_Revision2019,3.2.4,59.9654239280865,
4,0,4,0,,,,,,,,,,,,,,,,,463.19923213287257,None,materials/mumblePic.jpg,guide,C_aloud2,4,147,459.4812660944299,None,459.4812660944299,None,460.44871773340856,None,460.71502083723317,None,460.71502083723317,None,,,,,,,,,,,,,,,,,,,,,,,,,,,,,,,,,,,base8,001,2019_Oct_26_1430,ProdFawcett_Revision2019,3.2.4,59.9654239280865,
5,0,5,0,,,,,,,,,,,,,,,,,467.4672146544908,None,materials/mumblePic.jpg,poetry,C_aloud2,5,225,463.7492212477664,None,463.7492212477664,None,464.7166122411145,None,464.9830058468797,None,464.9830058468797,None,,,,,,,,,,,,,,,,,,,,,,,,,,,,,,,,,,,base8,001,2019_Oct_26_1430,ProdFawcett_Revision2019,3.2.4,59.9654239280865,
6,0,6,0,,,,,,,,,,,,,,,,,471.7352419605886,None,materials/speakPic.jpg,appeal,B_aloud1,6,9,468.0511071717483,None,468.0511071717483,None,468.9845170118788,None,469.2510120047373,None,469.2510120047373,None,,,,,,,,,,,,,,,,,,,,,,,,,,,,,,,,,,,base8,001,2019_Oct_26_1430,ProdFawcett_Revision2019,3.2.4,59.9654239280865,
7,0,7,0,,,,,,,,,,,,,,,,,476.00320706600905,None,materials/speakPic.jpg,report,B_aloud1,7,259,472.31842476830934,None,472.31842476830934,None,473.25257790632895,None,473.5190069664968,None,473.5190069664968,None,,,,,,,,,,,,,,,,,,,,,,,,,,,,,,,,,,,base8,001,2019_Oct_26_1430,ProdFawcett_Revision2019,3.2.4,59.9654239280865,
8,0,8,0,,,,,,,,,,,,,,,,,480.27118616658845,None,materials/mumblePic.jpg,question,C_aloud2,8,247,476.5710710953572,None,476.5710710953572,None,477.5205032033555,None,477.7869953971531,None,477.7869953971531,None,,,,,,,,,,,,,,,,,,,,,,,,,,,,,,,,,,,base8,001,2019_Oct_26_1430,ProdFawcett_Revision2019,3.2.4,59.9654239280865,
9,0,9,0,,,,,,,,,,,,,,,,,484.539182372333,None,materials/mumblePic.jpg,trial,C_aloud2,9,341,480.8211861665768,None,480.8211861665768,None,481.7884935000329,None,482.05495988059556,None,482.05495988059556,None,,,,,,,,,,,,,,,,,,,,,,,,,,,,,,,,,,,base8,001,2019_Oct_26_1430,ProdFawcett_Revision2019,3.2.4,59.9654239280865,
10,0,10,0,,,,,,,,,,,,,,,,,488.80714809978963,None,materials/mumblePic.jpg,position,C_aloud2,10,229,485.0891148846422,None,485.0891148846422,None,486.05660104498384,None,486.32295235429774,None,486.32295235429774,None,,,,,,,,,,,,,,,,,,,,,,,,,,,,,,,,,,,base8,001,2019_Oct_26_1430,ProdFawcett_Revision2019,3.2.4,59.9654239280865,
11,0,11,0,,,,,,,,,,,,,,,,,493.07513404241763,None,materials/mumblePic.jpg,straight,C_aloud2,11,307,489.3572544628987,None,489.3572544628987,None,490.3244967966748,None,490.5909473160573,None,490.5909473160573,None,,,,,,,,,,,,,,,,,,,,,,,,,,,,,,,,,,,base8,001,2019_Oct_26_1430,ProdFawcett_Revision2019,3.2.4,59.9654239280865,
12,0,12,0,,,,,,,,,,,,,,,,,497.34314331033966,None,materials/readPic.jpg,institute,A_silent,12,162,493.66729738135473,None,493.66729738135473,None,494.59246190209524,None,494.85889998133644,None,494.85889998133644,None,,,,,,,,,,,,,,,,,,,,,,,,,,,,,,,,,,,base8,001,2019_Oct_26_1430,ProdFawcett_Revision2019,3.2.4,59.9654239280865,
13,0,13,0,,,,,,,,,,,,,,,,,501.61112334392965,None,materials/readPic.jpg,committee,A_silent,13,62,497.9144921316183,None,497.9144921316183,None,498.86056447098963,None,499.1269241773989,None,499.1269241773989,None,,,,,,,,,,,,,,,,,,,,,,,,,,,,,,,,,,,base8,001,2019_Oct_26_1430,ProdFawcett_Revision2019,3.2.4,59.9654239280865,
14,0,14,0,,,,,,,,,,,,,,,,,505.87911395161063,None,materials/readPic.jpg,incident,A_silent,14,158,502.1973689121078,None,502.1973689121078,None,503.128444050526,None,503.3949073210242,None,503.3949073210242,None,,,,,,,,,,,,,,,,,,,,,,,,,,,,,,,,,,,base8,001,2019_Oct_26_1430,ProdFawcett_Revision2019,3.2.4,59.9654239280865,
15,0,15,0,,,,,,,,,,,,,,,,,510.1470992722607,None,materials/mumblePic.jpg,afternoon,C_aloud2,15,3,506.44729053930496,None,506.44729053930496,None,507.3964831747289,None,507.6628941966919,None,507.6628941966919,None,,,,,,,,,,,,,,,,,,,,,,,,,,,,,,,,,,,base8,001,2019_Oct_26_1430,ProdFawcett_Revision2019,3.2.4,59.9654239280865,
16,0,16,0,,,,,,,,,,,,,,,,,514.4150979660626,None,materials/readPic.jpg,society,A_silent,16,293,510.78105367918033,None,510.78105367918033,None,511.66442402190296,None,511.930884804402,None,511.930884804402,None,,,,,,,,,,,,,,,,,,,,,,,,,,,,,,,,,,,base8,001,2019_Oct_26_1430,ProdFawcett_Revision2019,3.2.4,59.9654239280865,
17,0,17,0,,,,,,,,,,,,,,,,,518.6831044349237,None,materials/mumblePic.jpg,disease,C_aloud2,17,97,514.971166262374,None,514.971166262374,None,515.9324199166731,None,516.1988735460618,None,516.1988735460618,None,,,,,,,,,,,,,,,,,,,,,,,,,,,,,,,,,,,base8,001,2019_Oct_26_1430,ProdFawcett_Revision2019,3.2.4,59.9654239280865,
18,0,18,0,,,,,,,,,,,,,,,,,522.9510689183371,None,materials/mumblePic.jpg,notice,C_aloud2,18,201,519.2330192200025,None,519.2330192200025,None,520.2005943273252,None,520.4668514026271,None,520.4668514026271,None,,,,,,,,,,,,,,,,,,,,,,,,,,,,,,,,,,,base8,001,2019_Oct_26_1430,ProdFawcett_Revision2019,3.2.4,59.9654239280865,
19,0,19,0,,,,,,,,,,,,,,,,,527.2190713441814,None,materials/readPic.jpg,suggestion,A_silent,19,314,523.5516800398182,None,523.5516800398182,None,524.4683908689476,None,524.7348457423795,None,524.7348457423795,None,,,,,,,,,,,,,,,,,,,,,,,,,,,,,,,,,,,base8,001,2019_Oct_26_1430,ProdFawcett_Revision2019,3.2.4,59.9654239280865,
20,0,20,0,,,,,,,,,,,,,,,,,531.4870320955524,None,materials/mumblePic.jpg,dream,C_aloud2,20,104,527.776463581511,None,527.776463581511,None,528.7364334142185,None,529.0028447471559,None,529.0028447471559,None,,,,,,,,,,,,,,,,,,,,,,,,,,,,,,,,,,,base8,001,2019_Oct_26_1430,ProdFawcett_Revision2019,3.2.4,59.9654239280865,
21,0,21,0,,,,,,,,,,,,,,,,,535.7550556696078,None,materials/readPic.jpg,center,A_silent,21,44,532.0761497791973,None,532.0761497791973,None,533.0043832804658,None,533.2708185606753,None,533.2708185606753,None,,,,,,,,,,,,,,,,,,,,,,,,,,,,,,,,,,,base8,001,2019_Oct_26_1430,ProdFawcett_Revision2019,3.2.4,59.9654239280865,
22,0,22,0,,,,,,,,,,,,,,,,,540.0230307271413,None,materials/readPic.jpg,patient,A_silent,22,213,536.3415519064583,None,536.3415519064583,None,537.2723639360629,None,537.5388076133677,None,537.5388076133677,None,,,,,,,,,,,,,,,,,,,,,,,,,,,,,,,,,,,base8,001,2019_Oct_26_1430,ProdFawcett_Revision2019,3.2.4,59.9654239280865,
23,0,23,0,,,,,,,,,,,,,,,,,544.291042172059,None,materials/readPic.jpg,discovery,A_silent,23,95,540.6062057598028,None,540.6062057598028,None,541.5403722709452,None,541.8067988430848,None,541.8067988430848,None,,,,,,,,,,,,,,,,,,,,,,,,,,,,,,,,,,,base8,001,2019_Oct_26_1430,ProdFawcett_Revision2019,3.2.4,59.9654239280865,
24,0,24,0,,,,,,,,,,,,,,,,,548.5589988804131,None,materials/mumblePic.jpg,chief,C_aloud2,24,48,544.859354979184,None,544.859354979184,None,545.8088626609533,None,546.0747938048153,None,546.0747938048153,None,,,,,,,,,,,,,,,,,,,,,,,,,,,,,,,,,,,base8,001,2019_Oct_26_1430,ProdFawcett_Revision2019,3.2.4,59.9654239280865,
25,0,25,0,,,,,,,,,,,,,,,,,552.8269692728936,None,materials/speakPic.jpg,tennis,B_aloud1,25,323,549.1595717484597,None,549.1595717484597,None,550.0764442993095,None,550.3427744604123,None,550.3427744604123,None,,,,,,,,,,,,,,,,,,,,,,,,,,,,,,,,,,,base8,001,2019_Oct_26_1430,ProdFawcett_Revision2019,3.2.4,59.9654239280865,
26,0,26,0,,,,,,,,,,,,,,,,,557.0949657896417,None,materials/readPic.jpg,health,A_silent,26,149,553.4286045282206,None,553.4286045282206,None,554.3443064626481,None,554.6107675561507,None,554.6107675561507,None,,,,,,,,,,,,,,,,,,,,,,,,,,,,,,,,,,,base8,001,2019_Oct_26_1430,ProdFawcett_Revision2019,3.2.4,59.9654239280865,
27,0,27,0,,,,,,,,,,,,,,,,,561.3629641724401,None,materials/readPic.jpg,defeat,A_silent,27,88,557.6781700566062,None,557.6781700566062,None,558.6123278596788,None,558.8787423026806,None,558.8787423026806,None,,,,,,,,,,,,,,,,,,,,,,,,,,,,,,,,,,,base8,001,2019_Oct_26_1430,ProdFawcett_Revision2019,3.2.4,59.9654239280865,
28,0,28,0,,,,,,,,,,,,,,,,,565.6309466940584,None,materials/speakPic.jpg,rapid,B_aloud1,28,252,561.9476783603895,None,561.9476783603895,None,562.880301051191,None,563.1467388194287,None,563.1467388194287,None,,,,,,,,,,,,,,,,,,,,,,,,,,,,,,,,,,,base8,001,2019_Oct_26_1430,ProdFawcett_Revision2019,3.2.4,59.9654239280865,
29,0,29,0,,,,,,,,,,,,,,,,,569.89893823475,None,materials/readPic.jpg,literature,A_silent,29,173,566.232677738386,None,566.232677738386,None,567.1482826397987,None,567.4147322261706,None,567.4147322261706,None,,,,,,,,,,,,,,,,,,,,,,,,,,,,,,,,,,,base8,001,2019_Oct_26_1430,ProdFawcett_Revision2019,3.2.4,59.9654239280865,
30,0,30,0,,,,,,,,,,,,,,,,,574.1669179573364,None,materials/readPic.jpg,comfort,A_silent,30,59,570.4821984823211,None,570.4821984823211,None,571.4163454002701,None,571.6827128817677,None,571.6827128817677,None,,,,,,,,,,,,,,,,,,,,,,,,,,,,,,,,,,,base8,001,2019_Oct_26_1430,ProdFawcett_Revision2019,3.2.4,59.9654239280865,
31,0,31,0,,,,,,,,,,,,,,,,,578.4349524165154,None,materials/readPic.jpg,primary,A_silent,31,234,574.7411003296729,None,574.7411003296729,None,575.684270386264,None,575.950705977506,None,575.950705977506,None,,,,,,,,,,,,,,,,,,,,,,,,,,,,,,,,,,,base8,001,2019_Oct_26_1430,ProdFawcett_Revision2019,3.2.4,59.9654239280865,
32,0,32,0,,,,,,,,,,,,,,,,,582.7029013497522,None,materials/mumblePic.jpg,reading,C_aloud2,32,254,578.9922746781085,None,578.9922746781085,None,579.9522115444415,None,580.2186931641481,None,580.2186931641481,None,,,,,,,,,,,,,,,,,,,,,,,,,,,,,,,,,,,base8,001,2019_Oct_26_1430,ProdFawcett_Revision2019,3.2.4,59.9654239280865,
33,0,33,0,,,,,,,,,,,,,,,,,586.9708994215471,None,materials/readPic.jpg,background,A_silent,33,16,583.3400559806032,None,583.3400559806032,None,584.2202124152682,None,584.486676618777,None,584.486676618777,None,,,,,,,,,,,,,,,,,,,,,,,,,,,,,,,,,,,base8,001,2019_Oct_26_1430,ProdFawcett_Revision2019,3.2.4,59.9654239280865,
34,0,34,0,,,,,,,,,,,,,,,,,591.2388850532006,None,materials/readPic.jpg,interior,A_silent,34,164,587.5541005784762,None,587.5541005784762,None,588.4882061329845,None,588.7546778006072,None,588.7546778006072,None,,,,,,,,,,,,,,,,,,,,,,,,,,,,,,,,,,,base8,001,2019_Oct_26_1430,ProdFawcett_Revision2019,3.2.4,59.9654239280865,
35,0,35,0,,,,,,,,,,,,,,,,,595.5068713068613,None,materials/speakPic.jpg,capital,B_aloud1,35,40,591.8247082789312,None,591.8247082789312,None,592.756240903167,None,593.0226534801477,None,593.0226534801477,None,,,,,,,,,,,,,,,,,,,,,,,,,,,,,,,,,,,base8,001,2019_Oct_26_1430,ProdFawcett_Revision2019,3.2.4,59.9654239280865,
36,0,36,0,,,,,,,,,,,,,,,,,599.774854139454,None,materials/mumblePic.jpg,testimony,C_aloud2,36,325,596.0947126329702,None,596.0947126329702,None,597.0241876594082,None,597.2906527959276,None,597.2906527959276,None,,,,,,,,,,,,,,,,,,,,,,,,,,,,,,,,,,,base8,001,2019_Oct_26_1430,ProdFawcett_Revision2019,3.2.4,59.9654239280865,
37,0,37,0,,,,,,,,,,,,,,,,,604.0428469241888,None,materials/readPic.jpg,count,A_silent,37,72,600.3754584188573,None,600.3754584188573,None,601.292176401068,None,601.5586290974752,None,601.5586290974752,None,,,,,,,,,,,,,,,,,,,,,,,,,,,,,,,,,,,base8,001,2019_Oct_26_1430,ProdFawcett_Revision2019,3.2.4,59.9654239280865,
38,0,38,0,,,,,,,,,,,,,,,,,608.3108580581029,None,materials/mumblePic.jpg,department,C_aloud2,38,90,604.601006095676,None,604.601006095676,None,605.5601502146164,None,605.8266240592347,None,605.8266240592347,None,,,,,,,,,,,,,,,,,,,,,,,,,,,,,,,,,,,base8,001,2019_Oct_26_1430,ProdFawcett_Revision2019,3.2.4,59.9654239280865,
39,0,39,0,,,,,,,,,,,,,,,,,612.5788200535171,None,materials/speakPic.jpg,religion,B_aloud1,39,258,608.8947729676147,None,608.8947729676147,None,609.8283790508285,None,610.0945975617506,None,610.0945975617506,None,,,,,,,,,,,,,,,,,,,,,,,,,,,,,,,,,,,base8,001,2019_Oct_26_1430,ProdFawcett_Revision2019,3.2.4,59.9654239280865,
40,0,40,0,,,,,,,,,,,,,,,,,616.8467991540965,None,materials/mumblePic.jpg,balance,C_aloud2,40,17,613.1467055420799,None,613.1467055420799,None,614.0962303290435,None,614.3625919014739,None,614.3625919014739,None,,,,,,,,,,,,,,,,,,,,,,,,,,,,,,,,,,,base8,001,2019_Oct_26_1430,ProdFawcett_Revision2019,3.2.4,59.9654239280865,
41,0,41,0,,,,,,,,,,,,,,,,,621.1147953598411,None,materials/mumblePic.jpg,silence,C_aloud2,41,288,617.3968084841908,None,617.3968084841908,None,618.3641226597247,None,618.6305899732688,None,618.6305899732688,None,,,,,,,,,,,,,,,,,,,,,,,,,,,,,,,,,,,base8,001,2019_Oct_26_1430,ProdFawcett_Revision2019,3.2.4,59.9654239280865,
42,0,42,0,,,,,,,,,,,,,,,,,625.3827940536139,None,materials/speakPic.jpg,design,B_aloud1,42,91,621.698706226307,None,621.698706226307,None,622.6318678858224,None,622.8985715618765,None,622.8985715618765,None,,,,,,,,,,,,,,,,,,,,,,,,,,,,,,,,,,,base8,001,2019_Oct_26_1430,ProdFawcett_Revision2019,3.2.4,59.9654239280865,
43,0,43,0,,,,,,,,,,,,,,,,,629.6507672451553,None,materials/mumblePic.jpg,attack,C_aloud2,43,13,625.9356873173092,None,625.9356873173092,None,626.9001172482676,None,627.1665674566175,None,627.1665674566175,None,,,,,,,,,,,,,,,,,,,,,,,,,,,,,,,,,,,base8,001,2019_Oct_26_1430,ProdFawcett_Revision2019,3.2.4,59.9654239280865,
44,0,44,0,,,,,,,,,,,,,,,,,633.9187612738751,None,materials/speakPic.jpg,front,B_aloud1,44,134,630.2435221123451,None,630.2435221123451,None,631.1681159420405,None,631.4346006717824,None,631.4346006717824,None,,,,,,,,,,,,,,,,,,,,,,,,,,,,,,,,,,,base8,001,2019_Oct_26_1430,ProdFawcett_Revision2019,3.2.4,59.9654239280865,
45,0,45,0,,,,,,,,,,,,,,,,,638.1867518815852,None,materials/readPic.jpg,frank,A_silent,45,133,634.5200180381944,None,634.5200180381944,None,635.4362219319737,None,635.7025430739741,None,635.7025430739741,None,,,,,,,,,,,,,,,,,,,,,,,,,,,,,,,,,,,base8,001,2019_Oct_26_1430,ProdFawcett_Revision2019,3.2.4,59.9654239280865,
46,0,46,0,,,,,,,,,,,,,,,,,642.4547353362141,None,materials/mumblePic.jpg,fashion,C_aloud2,46,125,638.744906699023,None,638.744906699023,None,639.7040831623017,None,639.9705280836206,None,639.9705280836206,None,,,,,,,,,,,,,,,,,,,,,,,,,,,,,,,,,,,base8,001,2019_Oct_26_1430,ProdFawcett_Revision2019,3.2.4,59.9654239280865,
47,0,47,0,,,,,,,,,,,,,,,,,646.7227430490893,None,materials/speakPic.jpg,brief,B_aloud1,47,28,643.0553380605998,None,643.0553380605998,None,643.9717960440612,None,644.238522423344,None,644.238522423344,None,,,,,,,,,,,,,,,,,,,,,,,,,,,,,,,,,,,base8,001,2019_Oct_26_1430,ProdFawcett_Revision2019,3.2.4,59.9654239280865,
48,0,48,0,,,,,,,,,,,,,,,,,650.9906985134294,None,materials/speakPic.jpg,phrase,B_aloud1,48,220,647.2969835790282,None,647.2969835790282,None,648.2400718417775,None,648.506537600304,None,648.506537600304,None,,,,,,,,,,,,,,,,,,,,,,,,,,,,,,,,,,,base8,001,2019_Oct_26_1430,ProdFawcett_Revision2019,3.2.4,59.9654239280865,
49,0,49,0,,,,,,,,,,,,,,,,,655.2586863220786,None,materials/speakPic.jpg,bureau,B_aloud1,49,37,651.5577847235254,None,651.5577847235254,None,652.5081038128992,None,652.7744856005593,None,652.7744856005593,None,,,,,,,,,,,,,,,,,,,,,,,,,,,,,,,,,,,base8,001,2019_Oct_26_1430,ProdFawcett_Revision2019,3.2.4,59.9654239280865,
50,0,50,0,,,,,,,,,,,,,,,,,659.5266915469547,None,materials/speakPic.jpg,break,B_aloud1,50,26,655.8254487777594,None,655.8254487777594,None,656.7757902593876,None,657.0426531691337,None,657.0426531691337,None,,,,,,,,,,,,,,,,,,,,,,,,,,,,,,,,,,,base8,001,2019_Oct_26_1430,ProdFawcett_Revision2019,3.2.4,59.9654239280865,
51,0,51,0,,,,,,,,,,,,,,,,,663.7946659824811,None,materials/speakPic.jpg,accident,B_aloud1,51,0,660.099788828782,None,660.099788828782,None,661.0437559868151,None,661.3104758350528,None,661.3104758350528,None,,,,,,,,,,,,,,,,,,,,,,,,,,,,,,,,,,,base8,001,2019_Oct_26_1430,ProdFawcett_Revision2019,3.2.4,59.9654239280865,
52,0,52,0,,,,,,,,,,,,,,,,,668.0626839584729,None,materials/readPic.jpg,range,A_silent,52,251,664.3959519811033,None,664.3959519811033,None,665.3117366424121,None,665.5784493375686,None,665.5784493375686,None,,,,,,,,,,,,,,,,,,,,,,,,,,,,,,,,,,,base8,001,2019_Oct_26_1430,ProdFawcett_Revision2019,3.2.4,59.9654239280865,
53,0,53,0,,,,,,,,,,,,,,,,,672.3308860484103,None,materials/mumblePic.jpg,equipment,C_aloud2,53,116,668.6376624992408,None,668.6376624992408,None,669.5797424892953,None,669.8462953287526,None,669.8462953287526,None,,,,,,,,,,,,,,,,,,,,,,,,,,,,,,,,,,,base8,001,2019_Oct_26_1430,ProdFawcett_Revision2019,3.2.4,59.9654239280865,
54,0,54,0,,,,,,,,,,,,,,,,,676.5986545997439,None,materials/speakPic.jpg,income,B_aloud1,54,159,672.9146299060958,None,672.9146299060958,None,673.847710082744,None,674.1144420600904,None,674.1144420600904,None,,,,,,,,,,,,,,,,,,,,,,,,,,,,,,,,,,,base8,001,2019_Oct_26_1430,ProdFawcett_Revision2019,3.2.4,59.9654239280865,
55,0,55,0,,,,,,,,,,,,,,,,,680.866620638204,None,materials/mumblePic.jpg,collection,C_aloud2,55,54,677.1665792747517,None,677.1665792747517,None,678.1160368850105,None,678.3824348448252,None,678.3824348448252,None,,,,,,,,,,,,,,,,,,,,,,,,,,,,,,,,,,,base8,001,2019_Oct_26_1430,ProdFawcett_Revision2019,3.2.4,59.9654239280865,
56,0,56,0,,,,,,,,,,,,,,,,,685.1347098339465,None,materials/speakPic.jpg,direction,B_aloud1,56,94,681.4525881694572,None,681.4525881694572,None,682.383656154765,None,682.6504011942598,None,682.6504011942598,None,,,,,,,,,,,,,,,,,,,,,,,,,,,,,,,,,,,base8,001,2019_Oct_26_1430,ProdFawcett_Revision2019,3.2.4,59.9654239280865,
57,0,57,0,,,,,,,,,,,,,,,,,689.4027169248147,None,materials/mumblePic.jpg,resistance,C_aloud2,57,262,685.6906083224458,None,685.6906083224458,None,686.6516822168487,None,686.9183942899981,None,686.9183942899981,None,,,,,,,,,,,,,,,,,,,,,,,,,,,,,,,,,,,base8,001,2019_Oct_26_1430,ProdFawcett_Revision2019,3.2.4,59.9654239280865,
58,0,58,0,,,,,,,,,,,,,,,,,693.670589973277,None,materials/readPic.jpg,conference,A_silent,58,66,690.0069406605908,None,690.0069406605908,None,690.9197387572494,None,691.1863876967109,None,691.1863876967109,None,,,,,,,,,,,,,,,,,,,,,,,,,,,,,,,,,,,base8,001,2019_Oct_26_1430,ProdFawcett_Revision2019,3.2.4,59.9654239280865,
59,0,59,0,,,,,,,,,,,,,,,,,697.9385715618555,None,materials/readPic.jpg,problem,A_silent,59,238,694.2538107233995,None,694.2538107233995,None,695.1876497480844,None,695.4543820364634,None,695.4543820364634,None,,,,,,,,,,,,,,,,,,,,,,,,,,,,,,,,,,,base8,001,2019_Oct_26_1430,ProdFawcett_Revision2019,3.2.4,59.9654239280865,
60,0,60,0,,,,,,,,,,,,,,,,,702.2065646575938,None,materials/readPic.jpg,oxygen,A_silent,60,209,698.5128926416801,None,698.5128926416801,None,699.4556863842881,None,699.7223860172962,None,699.7223860172962,None,,,,,,,,,,,,,,,,,,,,,,,,,,,,,,,,,,,base8,001,2019_Oct_26_1430,ProdFawcett_Revision2019,3.2.4,59.9654239280865,
61,0,61,0,,,,,,,,,,,,,,,,,706.4745428251626,None,materials/speakPic.jpg,block,B_aloud1,61,25,702.7934005100688,None,702.7934005100688,None,703.7236250544374,None,703.9903532997705,None,703.9903532997705,None,,,,,,,,,,,,,,,,,,,,,,,,,,,,,,,,,,,base8,001,2019_Oct_26_1430,ProdFawcett_Revision2019,3.2.4,59.9654239280865,
62,0,62,0,,,,,,,,,,,,,,,,,710.7425654662075,None,materials/mumblePic.jpg,drove,C_aloud2,62,106,707.042432667804,None,707.042432667804,None,707.9916004229744,None,708.258343596448,None,708.258343596448,None,,,,,,,,,,,,,,,,,,,,,,,,,,,,,,,,,,,base8,001,2019_Oct_26_1430,ProdFawcett_Revision2019,3.2.4,59.9654239280865,
63,0,63,0,,,,,,,,,,,,,,,,,715.0105501648504,None,materials/mumblePic.jpg,council,C_aloud2,63,71,711.292507619597,None,711.292507619597,None,712.2595835665998,None,712.5263251850556,None,712.5263251850556,None,,,,,,,,,,,,,,,,,,,,,,,,,,,,,,,,,,,base8,001,2019_Oct_26_1430,ProdFawcett_Revision2019,3.2.4,59.9654239280865,
64,0,64,0,,,,,,,,,,,,,,,,,719.278521801345,None,materials/speakPic.jpg,scene,B_aloud1,64,273,715.5944793804956,None,715.5944793804956,None,716.5275698202604,None,716.7943173477834,None,716.7943173477834,None,,,,,,,,,,,,,,,,,,,,,,,,,,,,,,,,,,,base8,001,2019_Oct_26_1430,ProdFawcett_Revision2019,3.2.4,59.9654239280865,
65,0,65,0,,,,,,,,,,,,,,,,,723.5465120980516,None,materials/speakPic.jpg,impact,B_aloud1,65,157,719.8459183927334,None,719.8459183927334,None,720.7955881072558,None,721.0623101324891,None,721.0623101324891,None,,,,,,,,,,,,,,,,,,,,,,,,,,,,,,,,,,,base8,001,2019_Oct_26_1430,ProdFawcett_Revision2019,3.2.4,59.9654239280865,
66,0,66,0,,,,,,,,,,,,,,,,,727.814496485662,None,materials/speakPic.jpg,broke,B_aloud1,66,32,724.1189313926734,None,724.1189313926734,None,725.0635525906691,None,725.3302938981215,None,725.3302938981215,None,,,,,,,,,,,,,,,,,,,,,,,,,,,,,,,,,,,base8,001,2019_Oct_26_1430,ProdFawcett_Revision2019,3.2.4,59.9654239280865,
67,0,67,0,,,,,,,,,,,,,,,,,732.0824821173155,None,materials/readPic.jpg,present,A_silent,67,231,728.4158593021275,None,728.4158593021275,None,729.3315419543651,None,729.5982714436832,None,729.5982714436832,None,,,,,,,,,,,,,,,,,,,,,,,,,,,,,,,,,,,base8,001,2019_Oct_26_1430,ProdFawcett_Revision2019,3.2.4,59.9654239280865,
68,0,68,0,,,,,,,,,,,,,,,,,736.3504836101492,None,materials/readPic.jpg,ground,A_silent,68,142,732.6530941718083,None,732.6530941718083,None,733.5995297630143,None,733.866254898312,None,733.866254898312,None,,,,,,,,,,,,,,,,,,,,,,,,,,,,,,,,,,,base8,001,2019_Oct_26_1430,ProdFawcett_Revision2019,3.2.4,59.9654239280865,
69,0,69,0,,,,,,,,,,,,,,,,,740.6184608447074,None,materials/readPic.jpg,cover,A_silent,69,77,736.9361504012195,None,736.9361504012195,None,737.8675088635937,None,738.134249549068,None,738.134249549068,None,,,,,,,,,,,,,,,,,,,,,,,,,,,,,,,,,,,base8,001,2019_Oct_26_1430,ProdFawcett_Revision2019,3.2.4,59.9654239280865,
70,0,70,0,,,,,,,,,,,,,,,,,744.8864346582268,None,materials/speakPic.jpg,substance,B_aloud1,70,313,741.2099421533931,None,741.2099421533931,None,742.135951981094,None,742.4022529078939,None,742.4022529078939,None,,,,,,,,,,,,,,,,,,,,,,,,,,,,,,,,,,,base8,001,2019_Oct_26_1430,ProdFawcett_Revision2019,3.2.4,59.9654239280865,
71,0,71,0,,,,,,,,,,,,,,,,,749.1544261989184,None,materials/speakPic.jpg,crime,B_aloud1,71,78,745.4530061578844,None,745.4530061578844,None,746.4034938110563,None,746.670230142452,None,746.670230142452,None,,,,,,,,,,,,,,,,,,,,,,,,,,,,,,,,,,,base8,001,2019_Oct_26_1430,ProdFawcett_Revision2019,3.2.4,59.9654239280865,
72,0,72,0,,,,,,,,,,,,,,,,,753.4224329788121,None,materials/speakPic.jpg,cross,B_aloud1,72,80,749.6877716613817,None,749.6877716613817,None,750.6714981028927,None,750.9382092430315,None,750.9382092430315,None,,,,,,,,,,,,,,,,,,,,,,,,,,,,,,,,,,,base8,001,2019_Oct_26_1430,ProdFawcett_Revision2019,3.2.4,59.9654239280865,
73,0,73,0,,,,,,,,,,,,,,,,,757.6904111463809,None,materials/mumblePic.jpg,universal,C_aloud2,73,345,753.9903194003855,None,753.9903194003855,None,754.9394747154438,None,755.2062007837521,None,755.2062007837521,None,,,,,,,,,,,,,,,,,,,,,,,,,,,,,,,,,,,base8,001,2019_Oct_26_1430,ProdFawcett_Revision2019,3.2.4,59.9654239280865,
74,0,74,0,,,,,,,,,,,,,,,,,761.9584014430584,None,materials/readPic.jpg,addition,A_silent,74,2,758.2910356409848,None,758.2910356409848,None,759.2074488399667,None,759.474184860359,None,759.474184860359,None,,,,,,,,,,,,,,,,,,,,,,,,,,,,,,,,,,,base8,001,2019_Oct_26_1430,ProdFawcett_Revision2019,3.2.4,59.9654239280865,
75,0,75,0,,,,,,,,,,,,,,,,,766.2263792996237,None,materials/speakPic.jpg,session,B_aloud1,75,281,762.5431299371994,None,762.5431299371994,None,763.4755280835961,None,763.7421729800408,None,763.7421729800408,None,,,,,,,,,,,,,,,,,,,,,,,,,,,,,,,,,,,base8,001,2019_Oct_26_1430,ProdFawcett_Revision2019,3.2.4,59.9654239280865,
76,0,76,0,,,,,,,,,,,,,,,,,770.4943950985908,None,materials/speakPic.jpg,portion,B_aloud1,76,228,766.8095807675563,None,766.8095807675563,None,767.7434232133091,None,768.0101872239902,None,768.0101872239902,None,,,,,,,,,,,,,,,,,,,,,,,,,,,,,,,,,,,base8,001,2019_Oct_26_1430,ProdFawcett_Revision2019,3.2.4,59.9654239280865,
77,0,77,0,,,,,,,,,,,,,,,,,774.7623614480544,None,materials/speakPic.jpg,division,B_aloud1,77,101,771.067559557152,None,771.067559557152,None,772.0114250171173,None,772.2781582384778,None,772.2781582384778,None,,,,,,,,,,,,,,,,,,,,,,,,,,,,,,,,,,,base8,001,2019_Oct_26_1430,ProdFawcett_Revision2019,3.2.4,59.9654239280865,
78,0,78,0,,,,,,,,,,,,,,,,,779.0303595198202,None,materials/mumblePic.jpg,voice,C_aloud2,78,348,775.3198998569569,None,775.3198998569569,None,776.2794787584862,None,776.5461457361525,None,776.5461457361525,None,,,,,,,,,,,,,,,,,,,,,,,,,,,,,,,,,,,base8,001,2019_Oct_26_1430,ProdFawcett_Revision2019,3.2.4,59.9654239280865,
79,0,79,0,,,,,,,,,,,,,,,,,783.2983473284985,None,materials/readPic.jpg,population,A_silent,79,227,779.6218974311196,None,779.6218974311196,None,780.5474015674554,None,780.8141192386684,None,780.8141192386684,None,,,,,,,,,,,,,,,,,,,,,,,,,,,,,,,,,,,base8,001,2019_Oct_26_1430,ProdFawcett_Revision2019,3.2.4,59.9654239280865,
80,0,80,0,,,,,,,,,,,,,,,,,787.5663286061026,None,materials/readPic.jpg,orchestra,A_silent,80,206,783.8849564595439,None,783.8849564595439,None,784.8154052373138,None,785.0821163774526,None,785.0821163774526,None,,,,,,,,,,,,,,,,,,,,,,,,,,,,,,,,,,,base8,001,2019_Oct_26_1430,ProdFawcett_Revision2019,3.2.4,59.9654239280865,
81,0,81,0,,,,,,,,,,,,,,,,,791.8343145487597,None,materials/mumblePic.jpg,signal,C_aloud2,81,287,788.1347717235913,None,788.1347717235913,None,789.083382471872,None,789.3501007650921,None,789.3501007650921,None,,,,,,,,,,,,,,,,,,,,,,,,,,,,,,,,,,,base8,001,2019_Oct_26_1430,ProdFawcett_Revision2019,3.2.4,59.9654239280865,
82,0,82,0,,,,,,,,,,,,,,,,,796.1021182434633,None,materials/mumblePic.jpg,running,C_aloud2,82,268,792.3842806493922,None,792.3842806493922,None,793.3513581514126,None,793.6180951048154,None,793.6180951048154,None,,,,,,,,,,,,,,,,,,,,,,,,,,,,,,,,,,,base8,001,2019_Oct_26_1430,ProdFawcett_Revision2019,3.2.4,59.9654239280865,
83,0,83,0,,,,,,,,,,,,,,,,,800.3702861230413,None,materials/readPic.jpg,couch,A_silent,83,70,796.6900870809332,None,796.6900870809332,None,797.6193456490873,None,797.8860742053948,None,797.8860742053948,None,,,,,,,,,,,,,,,,,,,,,,,,,,,,,,,,,,,base8,001,2019_Oct_26_1430,ProdFawcett_Revision2019,3.2.4,59.9654239280865,
84,0,84,0,,,,,,,,,,,,,,,,,804.638278285769,None,materials/mumblePic.jpg,edition,C_aloud2,84,107,800.9383364433888,None,800.9383364433888,None,801.887347141892,None,802.1540763202065,None,802.1540763202065,None,,,,,,,,,,,,,,,,,,,,,,,,,,,,,,,,,,,base8,001,2019_Oct_26_1430,ProdFawcett_Revision2019,3.2.4,59.9654239280865,
85,0,85,0,,,,,,,,,,,,,,,,,808.9062611183908,None,materials/speakPic.jpg,narrow,B_aloud1,85,197,805.2252848790376,None,805.2252848790376,None,806.1553536107531,None,806.4220376936137,None,806.4220376936137,None,,,,,,,,,,,,,,,,,,,,,,,,,,,,,,,,,,,base8,001,2019_Oct_26_1430,ProdFawcett_Revision2019,3.2.4,59.9654239280865,
86,0,86,0,,,,,,,,,,,,,,,,,813.1742545251036,None,materials/speakPic.jpg,nation,B_aloud1,86,198,809.4737034272694,None,809.4737034272694,None,810.4233143621532,None,810.6900335883547,None,810.6900335883547,None,,,,,,,,,,,,,,,,,,,,,,,,,,,,,,,,,,,base8,001,2019_Oct_26_1430,ProdFawcett_Revision2019,3.2.4,59.9654239280865,
87,0,87,0,,,,,,,,,,,,,,,,,817.4422463768278,None,materials/readPic.jpg,trend,A_silent,87,340,813.7813009268139,None,813.7813009268139,None,814.6913087018766,None,814.9580220190401,None,814.9580220190401,None,,,,,,,,,,,,,,,,,,,,,,,,,,,,,,,,,,,base8,001,2019_Oct_26_1430,ProdFawcett_Revision2019,3.2.4,59.9654239280865,
88,0,88,0,,,,,,,,,,,,,,,,,821.7102612427843,None,materials/speakPic.jpg,weight,B_aloud1,88,353,818.0332325682684,None,818.0332325682684,None,818.9593577781925,None,819.2260197798314,None,819.2260197798314,None,,,,,,,,,,,,,,,,,,,,,,,,,,,,,,,,,,,base8,001,2019_Oct_26_1430,ProdFawcett_Revision2019,3.2.4,59.9654239280865,
89,0,89,0,,,,,,,,,,,,,,,,,825.9782216831518,None,materials/mumblePic.jpg,trail,C_aloud2,89,336,822.2663578404172,None,822.2663578404172,None,823.2278907756554,None,823.4940290477243,None,823.4940290477243,None,,,,,,,,,,,,,,,,,,,,,,,,,,,,,,,,,,,base8,001,2019_Oct_26_1430,ProdFawcett_Revision2019,3.2.4,59.9654239280865,
,,,,,,,,,,,,,,,,,,,,,,,,,,,,,,,,,,,,,826.4783936679887,None,k,51.89040306027164,826.4783936679887,None,,,,,,,,,,,,,,,,,,,,,,,,,,,,,base8,001,2019_Oct_26_1430,ProdFawcett_Revision2019,3.2.4,59.9654239280865,
,,,,,,,,,,,,,,878.3944852895511,None,space,107.51214841078036,878.3944852895511,None,,,,,,,,,,,,,,,,,,,,,,,,,,,,,,,,,,,,,,,,,,,,,,,,,,,,base8,001,2019_Oct_26_1430,ProdFawcett_Revision2019,3.2.4,59.9654239280865,
,,,,0,0,0,0,,,,,,,,,,,,,996.6808711202466,None,,,,,,,,,,,,,,,,,,,,,,bitter,D_new,0,23,986.4468374074786,None,986.4468374074786,None,986.4468374074786,None,1,5.7079237420111895,986.4468374074786,None,992.2129078808357,None,992.2129078808357,None,992.7325017105322,None,992.7325017105322,None,992.7325017105322,None,n,3.901309945882531,992.7325017105322,None,base8,001,2019_Oct_26_1430,ProdFawcett_Revision2019,3.2.4,59.9654239280865,
,,,,1,0,1,0,,,,,,,,,,,,,1001.782580394356,None,,,,,,,,,,,,,,,,,,,,,,length,D_new,1,169,997.1990228276409,None,997.1990228276409,None,997.1990228276409,None,1,2.875204329175176,997.1990228276409,None,1000.1320246314863,None,1000.1320246314863,None,1000.6488903402351,None,1000.6488903402351,None,1000.6488903402351,None,n,1.0888203645008616,1000.6488903402351,None,base8,001,2019_Oct_26_1430,ProdFawcett_Revision2019,3.2.4,59.9654239280865,
,,,,2,0,2,0,,,,,,,,,,,,,1008.5346843316511,None,,,,,,,,,,,,,,,,,,,,,,edition,C_aloud2,2,107,1002.300213348266,None,1002.300213348266,None,1002.300213348266,None,6,3.3897191640280653,1002.300213348266,None,1005.738963115029,None,1005.738963115029,None,1006.2679019717616,None,1006.2679019717616,None,1006.2679019717616,None,r,2.2293248118658084,1006.2679019717616,None,base8,001,2019_Oct_26_1430,ProdFawcett_Revision2019,3.2.4,59.9654239280865,
,,,,3,0,3,0,,,,,,,,,,,,,1012.3357106425392,None,,,,,,,,,,,,,,,,,,,,,,salary,B_aloud1,3,271,1009.0514097779524,None,1009.0514097779524,None,1009.0514097779524,None,6,1.8535777819051873,1009.0514097779524,None,1010.9568439385621,None,1010.9568439385621,None,1011.4855769111309,None,1011.4855769111309,None,1011.4855769111309,None,r,0.8033470174705144,1011.4855769111309,None,base8,001,2019_Oct_26_1430,ProdFawcett_Revision2019,3.2.4,59.9654239280865,
,,,,4,0,4,0,,,,,,,,,,,,,1017.4207308577606,None,,,,,,,,,,,,,,,,,,,,,,addition,A_silent,4,2,1012.8533641226823,None,1012.8533641226823,None,1012.8533641226823,None,1,3.2033221372112166,1012.8533641226823,None,1016.1202323194593,None,1016.1202323194593,None,1016.6371801331115,None,1016.6371801331115,None,1016.6371801331115,None,n,0.7400450954737607,1016.6371801331115,None,base8,001,2019_Oct_26_1430,ProdFawcett_Revision2019,3.2.4,59.9654239280865,
,,,,5,0,5,0,,,,,,,,,,,,,1020.6382543384971,None,,,,,,,,,,,,,,,,,,,,,,grade,D_new,5,140,1017.9373673571099,None,1017.9373673571099,None,1017.9373673571099,None,1,2.0077380730072036,1017.9373673571099,None,1019.9914103999618,None,1019.9914103999618,None,1020.5215332462685,None,1020.5215332462685,None,1020.5215332462685,None,n,0.07890371337998658,1020.5215332462685,None,base8,001,2019_Oct_26_1430,ProdFawcett_Revision2019,3.2.4,59.9654239280865,
,,,,6,0,6,0,,,,,,,,,,,,,1025.4232462524087,None,,,,,,,,,,,,,,,,,,,,,,running,C_aloud2,6,268,1021.1550805498555,None,1021.1550805498555,None,1021.1550805498555,None,6,2.7175601791532245,1021.1550805498555,None,1023.9226736953424,None,1023.9226736953424,None,1024.4398911488533,None,1024.4398911488533,None,1024.4398911488533,None,r,0.9445956957060844,1024.4398911488533,None,base8,001,2019_Oct_26_1430,ProdFawcett_Revision2019,3.2.4,59.9654239280865,
,,,,7,0,7,0,,,,,,,,,,,,,1032.7920292965136,None,,,,,,,,,,,,,,,,,,,,,,problem,A_silent,7,238,1025.9402065062022,None,1025.9402065062022,None,1025.9402065062022,None,2,4.260092056996655,1025.9402065062022,None,1030.2470669279282,None,1030.2470669279282,None,1030.7747281831398,None,1030.7747281831398,None,1030.7747281831398,None,n,1.9690962244058028,1030.7747281831398,None,base8,001,2019_Oct_26_1430,ProdFawcett_Revision2019,3.2.4,59.9654239280865,
,,,,8,0,8,0,,,,,,,,,,,,,1043.8621303725813,None,,,,,,,,,,,,,,,,,,,,,,waste,C_aloud2,8,350,1033.308933258697,None,1033.308933258697,None,1033.308933258697,None,6,4.659194501466118,1033.308933258697,None,1038.0162614293804,None,1038.0162614293804,None,1038.5439338807191,None,1038.5439338807191,None,1038.5439338807191,None,r,5.271163463330595,1038.5439338807191,None,base8,001,2019_Oct_26_1430,ProdFawcett_Revision2019,3.2.4,59.9654239280865,
,,,,9,0,9,0,,,,,,,,,,,,,1051.8814284381515,None,,,,,,,,,,,,,,,,,,,,,,voice,C_aloud2,9,348,1044.379458232259,None,1044.379458232259,None,1044.379458232259,None,1,5.7154438016877975,1044.379458232259,None,1050.1361286309839,None,1050.1361286309839,None,1050.664260745165,None,1050.664260745165,None,1050.664260745165,None,n,1.1750429184758104,1050.664260745165,None,base8,001,2019_Oct_26_1430,ProdFawcett_Revision2019,3.2.4,59.9654239280865,
,,,,10,0,10,0,,,,,,,,,,,,,1063.7017385084473,None,,,,,,,,,,,,,,,,,,,,,,attack,C_aloud2,10,13,1052.3992843814194,None,1052.3992843814194,None,1052.3992843814194,None,3,9.279106487520039,1052.3992843814194,None,1061.7346939727722,None,1061.7346939727722,None,1062.251156932267,None,1062.251156932267,None,1062.251156932267,None,f,1.4111457361432258,1062.251156932267,None,base8,001,2019_Oct_26_1430,ProdFawcett_Revision2019,3.2.4,59.9654239280865,
,,,,11,0,11,0,,,,,,,,,,,,,1067.6194457921374,None,,,,,,,,,,,,,,,,,,,,,,position,C_aloud2,11,229,1064.2192271568056,None,1064.2192271568056,None,1064.2192271568056,None,6,2.202567643224029,1064.2192271568056,None,1066.4859320769028,None,1066.4859320769028,None,1067.0026870684815,None,1067.0026870684815,None,1067.0026870684815,None,r,0.5710241338529158,1067.0026870684815,None,base8,001,2019_Oct_26_1430,ProdFawcett_Revision2019,3.2.4,59.9654239280865,
,,,,12,0,12,0,,,,,,,,,,,,,1072.6378497232217,None,,,,,,,,,,,,,,,,,,,,,,turkey,D_new,12,342,1068.1372609939717,None,1068.1372609939717,None,1068.1372609939717,None,1,2.3804089693294372,1068.1372609939717,None,1070.5607635131164,None,1070.5607635131164,None,1071.0873841512948,None,1071.0873841512948,None,1071.0873841512948,None,n,1.5020314735302236,1071.0873841512948,None,base8,001,2019_Oct_26_1430,ProdFawcett_Revision2019,3.2.4,59.9654239280865,
,,,,13,0,13,0,,,,,,,,,,,,,1078.1895857436175,None,,,,,,,,,,,,,,,,,,,,,,travel,A_silent,13,338,1073.154591030674,None,1073.154591030674,None,1073.154591030674,None,3,2.826837718457682,1073.154591030674,None,1076.0259653542307,None,1076.0259653542307,None,1076.5555697580567,None,1076.5555697580567,None,1076.5555697580567,None,f,1.5855694470228627,1076.5555697580567,None,base8,001,2019_Oct_26_1430,ProdFawcett_Revision2019,3.2.4,59.9654239280865,
,,,,14,0,14,0,,,,,,,,,,,,,1081.8739640480198,None,,,,,,,,,,,,,,,,,,,,,,number,D_new,14,203,1078.7074643901433,None,1078.7074643901433,None,1078.7074643901433,None,1,2.0258132736198604,1078.7074643901433,None,1080.7903162903676,None,1080.7903162903676,None,1081.3072137214767,None,1081.3072137214767,None,1081.3072137214767,None,n,0.5216613796073943,1081.3072137214767,None,base8,001,2019_Oct_26_1430,ProdFawcett_Revision2019,3.2.4,59.9654239280865,
,,,,15,0,15,0,,,,,,,,,,,,,1085.4251601667202,None,,,,,,,,,,,,,,,,,,,,,,master,D_new,15,180,1082.3908067425655,None,1082.3908067425655,None,1082.3908067425655,None,1,1.4219798469857778,1082.3908067425655,None,1083.8746457672678,None,1083.8746457672678,None,1084.39134135723,None,1084.39134135723,None,1084.39134135723,None,n,0.9973490078991745,1084.39134135723,None,base8,001,2019_Oct_26_1430,ProdFawcett_Revision2019,3.2.4,59.9654239280865,
,,,,16,0,16,0,,,,,,,,,,,,,1088.8260421720624,None,,,,,,,,,,,,,,,,,,,,,,income,B_aloud1,16,159,1085.9421462337486,None,1085.9421462337486,None,1085.9421462337486,None,6,1.8624025004683062,1085.9421462337486,None,1087.8462763575371,None,1087.8462763575371,None,1088.375933942909,None,1088.375933942909,None,1088.375933942909,None,r,0.40454749020864256,1088.375933942909,None,base8,001,2019_Oct_26_1430,ProdFawcett_Revision2019,3.2.4,59.9654239280865,
,,,,17,0,17,0,,,,,,,,,,,,,1093.544347515097,None,,,,,,,,,,,,,,,,,,,,,,trial,C_aloud2,17,341,1089.343265223637,None,1089.343265223637,None,1089.343265223637,None,2,2.5334057970903814,1089.343265223637,None,1091.9272591279587,None,1091.9272591279587,None,1092.4439764881681,None,1092.4439764881681,None,1092.4439764881681,None,f,1.064421533868881,1092.4439764881681,None,base8,001,2019_Oct_26_1430,ProdFawcett_Revision2019,3.2.4,59.9654239280865,
,,,,18,0,18,0,,,,,,,,,,,,,1099.8296149779344,None,,,,,,,,,,,,,,,,,,,,,,collection,C_aloud2,18,54,1094.0632757977291,None,1094.0632757977291,None,1094.0632757977291,None,2,4.180733345769113,1094.0632757977291,None,1098.2848958139075,None,1098.2848958139075,None,1098.8124354668253,None,1098.8124354668253,None,1098.8124354668253,None,f,0.9838502208294813,1098.8124354668253,None,base8,001,2019_Oct_26_1430,ProdFawcett_Revision2019,3.2.4,59.9654239280865,
,,,,19,0,19,0,,,,,,,,,,,,,1103.8141780183068,None,,,,,,,,,,,,,,,,,,,,,,level,D_new,19,170,1100.346388007718,None,1100.346388007718,None,1100.346388007718,None,1,2.2495462461956777,1100.346388007718,None,1102.6341870373872,None,1102.6341870373872,None,1103.1637519437936,None,1103.1637519437936,None,1103.1637519437936,None,n,0.616282266593771,1103.1637519437936,None,base8,001,2019_Oct_26_1430,ProdFawcett_Revision2019,3.2.4,59.9654239280865,
,,,,20,0,20,0,,,,,,,,,,,,,1106.7484238352918,None,,,,,,,,,,,,,,,,,,,,,,defeat,A_silent,20,88,1104.332318529574,None,1104.332318529574,None,1104.332318529574,None,1,1.0315512844535988,1104.332318529574,None,1105.414528830006,None,1105.414528830006,None,1105.9313858307141,None,1105.9313858307141,None,1105.9313858307141,None,n,0.7763491322984919,1105.9313858307141,None,base8,001,2019_Oct_26_1430,ProdFawcett_Revision2019,3.2.4,59.9654239280865,
,,,,21,0,21,0,,,,,,,,,,,,,1111.3331685015874,None,,,,,,,,,,,,,,,,,,,,,,emergency,D_new,21,110,1107.265901287552,None,1107.265901287552,None,1107.265901287552,None,1,2.961662934627384,1107.265901287552,None,1110.2827741494111,None,1110.2827741494111,None,1110.7895764135174,None,1110.7895764135174,None,1110.7895764135174,None,n,0.5100015550269745,1110.7895764135174,None,base8,001,2019_Oct_26_1430,ProdFawcett_Revision2019,3.2.4,59.9654239280865,
,,,,22,0,22,0,,,,,,,,,,,,,1117.1516081980662,None,,,,,,,,,,,,,,,,,,,,,,impact,B_aloud1,22,157,1111.851269515464,None,1111.851269515464,None,1111.851269515464,None,4,3.095736455783481,1111.851269515464,None,1114.989760838478,None,1114.989760838478,None,1115.5177707283874,None,1115.5177707283874,None,1115.5177707283874,None,f,1.5971586738887709,1115.5177707283874,None,base8,001,2019_Oct_26_1430,ProdFawcett_Revision2019,3.2.4,59.9654239280865,
,,,,23,0,23,0,,,,,,,,,,,,,1120.5025203707337,None,,,,,,,,,,,,,,,,,,,,,,couch,A_silent,23,70,1117.6685295764182,None,1117.6685295764182,None,1117.6685295764182,None,1,1.5821667599666398,1117.6685295764182,None,1119.3022983143746,None,1119.3022983143746,None,1119.8189808422176,None,1119.8189808422176,None,1119.8189808422176,None,n,0.6478546992584597,1119.8189808422176,None,base8,001,2019_Oct_26_1430,ProdFawcett_Revision2019,3.2.4,59.9654239280865,
,,,,24,0,24,0,,,,,,,,,,,,,1124.237145922758,None,,,,,,,,,,,,,,,,,,,,,,watch,D_new,24,351,1121.019365242275,None,1121.019365242275,None,1121.019365242275,None,2,2.151234061078867,1121.019365242275,None,1123.209885861812,None,1123.209885861812,None,1123.737018411397,None,1123.737018411397,None,1123.737018411397,None,f,0.46573272376554087,1123.737018411397,None,base8,001,2019_Oct_26_1430,ProdFawcett_Revision2019,3.2.4,59.9654239280865,
,,,,25,0,25,0,,,,,,,,,,,,,1130.0222886732663,None,,,,,,,,,,,,,,,,,,,,,,block,B_aloud1,25,25,1124.7543916775612,None,1124.7543916775612,None,1124.7543916775612,None,1,3.119815575046232,1124.7543916775612,None,1127.9383233812405,None,1127.9383233812405,None,1128.4549925359315,None,1128.4549925359315,None,1128.4549925359315,None,n,1.5313133669260424,1128.4549925359315,None,base8,001,2019_Oct_26_1430,ProdFawcett_Revision2019,3.2.4,59.9654239280865,
,,,,26,0,26,0,,,,,,,,,,,,,1135.0738499098225,None,,,,,,,,,,,,,,,,,,,,,,trail,C_aloud2,26,336,1130.539280027384,None,1130.539280027384,None,1130.539280027384,None,5,3.5669978851801716,1130.539280027384,None,1134.1568514026294,None,1134.1568514026294,None,1134.6737108913367,None,1134.6737108913367,None,1134.6737108913367,None,f,0.3604123903787695,1134.6737108913367,None,base8,001,2019_Oct_26_1430,ProdFawcett_Revision2019,3.2.4,59.9654239280865,
,,,,27,0,27,0,,,,,,,,,,,,,1138.3915155190625,None,,,,,,,,,,,,,,,,,,,,,,trend,A_silent,27,340,1135.5904462897452,None,1135.5904462897452,None,1135.5904462897452,None,3,1.9872155874909367,1135.5904462897452,None,1137.6412548983062,None,1137.6412548983062,None,1138.1601265783538,None,1138.1601265783538,None,1138.1601265783538,None,f,0.18546805993537419,1138.1601265783538,None,base8,001,2019_Oct_26_1430,ProdFawcett_Revision2019,3.2.4,59.9654239280865,
,,,,28,0,28,0,,,,,,,,,,,,,1144.2598889718356,None,,,,,,,,,,,,,,,,,,,,,,discovery,A_silent,28,95,1138.9090032344393,None,1138.9090032344393,None,1138.9090032344393,None,1,4.028564408770762,1138.9090032344393,None,1142.981867263792,None,1142.981867263792,None,1143.5095481122262,None,1143.5095481122262,None,1143.5095481122262,None,n,0.7083628786494955,1143.5095481122262,None,base8,001,2019_Oct_26_1430,ProdFawcett_Revision2019,3.2.4,59.9654239280865,
,,,,29,0,29,0,,,,,,,,,,,,,1147.9276811594318,None,,,,,,,,,,,,,,,,,,,,,,plane,D_new,29,223,1144.77682465635,None,1144.77682465635,None,1144.77682465635,None,1,2.344623375014635,1144.77682465635,None,1147.177623934811,None,1147.177623934811,None,1147.6944383280643,None,1147.6944383280643,None,1147.6944383280643,None,n,0.19492504821391776,1147.6944383280643,None,base8,001,2019_Oct_26_1430,ProdFawcett_Revision2019,3.2.4,59.9654239280865,
,,,,30,0,30,0,,,,,,,,,,,,,1151.145464327943,None,,,,,,,,,,,,,,,,,,,,,,hunger,D_new,30,155,1148.4452220563544,None,1148.4452220563544,None,1148.4452220563544,None,1,1.7956876282696612,1148.4452220563544,None,1150.2951346644259,None,1150.2951346644259,None,1150.8120585308352,None,1150.8120585308352,None,1150.8120585308352,None,n,0.2931697456224356,1150.8120585308352,None,base8,001,2019_Oct_26_1430,ProdFawcett_Revision2019,3.2.4,59.9654239280865,
,,,,31,0,31,0,,,,,,,,,,,,,1155.846800087078,None,,,,,,,,,,,,,,,,,,,,,,signal,C_aloud2,31,287,1151.663221372146,None,1151.663221372146,None,1151.663221372146,None,6,3.2740803632477764,1151.663221372146,None,1154.9966809728357,None,1154.9966809728357,None,1155.5134247683163,None,1155.5134247683163,None,1155.5134247683163,None,r,0.2952889220614452,1155.5134247683163,None,base8,001,2019_Oct_26_1430,ProdFawcett_Revision2019,3.2.4,59.9654239280865,
,,,,32,0,32,0,,,,,,,,,,,,,1160.8651900230325,None,,,,,,,,,,,,,,,,,,,,,,state,D_new,32,303,1156.363675125962,None,1156.363675125962,None,1156.363675125962,None,2,3.5010617652442306,1156.363675125962,None,1159.9019108042703,None,1159.9019108042703,None,1160.4315441313665,None,1160.4315441313665,None,1160.4315441313665,None,f,0.4007277477066964,1160.4315441313665,None,base8,001,2019_Oct_26_1430,ProdFawcett_Revision2019,3.2.4,59.9654239280865,
,,,,33,0,33,0,,,,,,,,,,,,,1166.9837289295392,None,,,,,,,,,,,,,,,,,,,,,,break,B_aloud1,33,26,1161.3821440567262,None,1161.3821440567262,None,1161.3821440567262,None,6,4.905887914414052,1161.3821440567262,None,1166.3501380854868,None,1166.3501380854868,None,1166.8670669279236,None,1166.8670669279236,None,1166.8670669279236,None,r,0.07720376938232221,1166.8670669279236,None,base8,001,2019_Oct_26_1430,ProdFawcett_Revision2019,3.2.4,59.9654239280865,
,,,,34,0,34,0,,,,,,,,,,,,,1170.8042486160411,None,,,,,,,,,,,,,,,,,,,,,,drove,C_aloud2,34,106,1167.5004982272803,None,1167.5004982272803,None,1167.5004982272803,None,2,1.3713298500806559,1167.5004982272803,None,1168.9342781613523,None,1168.9342781613523,None,1169.4511650183704,None,1169.4511650183704,None,1169.4511650183704,None,f,1.3251971761055756,1169.4511650183704,None,base8,001,2019_Oct_26_1430,ProdFawcett_Revision2019,3.2.4,59.9654239280865,
,,,,35,0,35,0,,,,,,,,,,,,,1175.836432170181,None,,,,,,,,,,,,,,,,,,,,,,individual,D_new,35,160,1171.336207936809,None,1171.336207936809,None,1171.336207936809,None,5,3.6952973191509955,1171.336207936809,None,1175.0862057597842,None,1175.0862057597842,None,1175.6030913727882,None,1175.6030913727882,None,1175.6030913727882,None,f,0.19635379733517766,1175.6030913727882,None,base8,001,2019_Oct_26_1430,ProdFawcett_Revision2019,3.2.4,59.9654239280865,
,,,,36,0,36,0,,,,,,,,,,,,,1179.3040710331697,None,,,,,,,,,,,,,,,,,,,,,,recall,D_new,36,255,1176.353242209385,None,1176.353242209385,None,1176.353242209385,None,1,1.4540788082231302,1176.353242209385,None,1177.870341481641,None,1177.870341481641,None,1178.3872756111377,None,1178.3872756111377,None,1178.3872756111377,None,n,0.8679405361763202,1178.3872756111377,None,base8,001,2019_Oct_26_1430,ProdFawcett_Revision2019,3.2.4,59.9654239280865,
,,,,37,0,37,0,,,,,,,,,,,,,1182.155086147919,None,,,,,,,,,,,,,,,,,,,,,,scene,B_aloud1,37,273,1179.8222146544722,None,1179.8222146544722,None,1179.8222146544722,None,6,1.3689009143563453,1179.8222146544722,None,1181.254770168569,None,1181.254770168569,None,1181.7716340113257,None,1181.7716340113257,None,1181.7716340113257,None,r,0.3401346644095611,1181.7716340113257,None,base8,001,2019_Oct_26_1430,ProdFawcett_Revision2019,3.2.4,59.9654239280865,
,,,,38,0,38,0,,,,,,,,,,,,,1185.5726684083056,None,,,,,,,,,,,,,,,,,,,,,,patient,A_silent,38,213,1182.673193070863,None,1182.673193070863,None,1182.673193070863,None,6,2.1579243640007917,1182.673193070863,None,1184.8892430179985,None,1184.8892430179985,None,1185.4061021957023,None,1185.4061021957023,None,1185.4061021957023,None,r,0.1207697331556119,1185.4061021957023,None,base8,001,2019_Oct_26_1430,ProdFawcett_Revision2019,3.2.4,59.9654239280865,
,,,,39,0,39,0,,,,,,,,,,,,,1188.4571907072386,None,,,,,,,,,,,,,,,,,,,,,,comedy,D_new,39,58,1186.0902083722176,None,1186.0902083722176,None,1186.0902083722176,None,1,1.4365316912299022,1186.0902083722176,None,1187.5900385644054,None,1187.5900385644054,None,1188.1069440816063,None,1188.1069440816063,None,1188.1069440816063,None,n,0.3161444921279326,1188.1069440816063,None,base8,001,2019_Oct_26_1430,ProdFawcett_Revision2019,3.2.4,59.9654239280865,
,,,,40,0,40,0,,,,,,,,,,,,,1191.9579902967089,None,,,,,,,,,,,,,,,,,,,,,,crime,B_aloud1,40,78,1188.9738088573795,None,1188.9738088573795,None,1188.9738088573795,None,6,1.9687873981310986,1188.9738088573795,None,1191.0077421160822,None,1191.0077421160822,None,1191.5246522983362,None,1191.5246522983362,None,1191.5246522983362,None,r,0.3858509050332941,1191.5246522983362,None,base8,001,2019_Oct_26_1430,ProdFawcett_Revision2019,3.2.4,59.9654239280865,
,,,,41,0,41,0,,,,,,,,,,,,,1194.759033090755,None,,,,,,,,,,,,,,,,,,,,,,smooth,D_new,41,292,1192.474932201294,None,1192.474932201294,None,1192.474932201294,None,1,1.347712881746702,1192.474932201294,None,1193.8622351807135,None,1193.8622351807135,None,1194.392093363189,None,1194.392093363189,None,1194.392093363189,None,n,0.3265752317092847,1194.392093363189,None,base8,001,2019_Oct_26_1430,ProdFawcett_Revision2019,3.2.4,59.9654239280865,
,,,,42,0,42,0,,,,,,,,,,,,,1199.4104329166003,None,,,,,,,,,,,,,,,,,,,,,,orchestra,A_silent,42,206,1195.2772463768197,None,1195.2772463768197,None,1195.2772463768197,None,3,2.7772224295476917,1195.2772463768197,None,1198.1098880388308,None,1198.1098880388308,None,1198.6267553026264,None,1198.6267553026264,None,1198.6267553026264,None,f,0.7474180506251287,1198.6267553026264,None,base8,001,2019_Oct_26_1430,ProdFawcett_Revision2019,3.2.4,59.9654239280865,
,,,,43,0,43,0,,,,,,,,,,,,,1204.7287569198234,None,,,,,,,,,,,,,,,,,,,,,,executive,D_new,43,122,1199.9278512782475,None,1199.9278512782475,None,1199.9278512782475,None,1,1.9103831560641993,1199.9278512782475,None,1201.894464763347,None,1201.894464763347,None,1202.4114029358898,None,1202.4114029358898,None,1202.4114029358898,None,f,2.28239534739987,1202.4114029358898,None,base8,001,2019_Oct_26_1430,ProdFawcett_Revision2019,3.2.4,59.9654239280865,
,,,,44,0,44,0,,,,,,,,,,,,,1207.6461886546167,None,,,,,,,,,,,,,,,,,,,,,,shock,D_new,44,284,1205.2453847111028,None,1205.2453847111028,None,1205.2453847111028,None,1,1.4249468184134457,1205.2453847111028,None,1206.7293282329047,None,1206.7293282329047,None,1207.246207625809,None,1207.246207625809,None,1207.246207625809,None,n,0.36739223735639825,1207.246207625809,None,base8,001,2019_Oct_26_1430,ProdFawcett_Revision2019,3.2.4,59.9654239280865,
,,,,45,0,45,0,,,,,,,,,,,,,1210.3803430366388,None,,,,,,,,,,,,,,,,,,,,,,dream,C_aloud2,45,104,1208.1629958947597,None,1208.1629958947597,None,1208.1629958947597,None,6,1.4268221683159936,1208.1629958947597,None,1209.6358142066456,None,1209.6358142066456,None,1210.1637435466982,None,1210.1637435466982,None,1210.1637435466982,None,r,0.17781644585193135,1210.1637435466982,None,base8,001,2019_Oct_26_1430,ProdFawcett_Revision2019,3.2.4,59.9654239280865,
,,,,46,0,46,0,,,,,,,,,,,,,1213.3647580394463,None,,,,,,,,,,,,,,,,,,,,,,front,B_aloud1,46,134,1210.8973514959507,None,1210.8973514959507,None,1210.8973514959507,None,2,1.6280997698486317,1210.8973514959507,None,1212.5811186788778,None,1212.5811186788778,None,1213.098017354001,None,1213.098017354001,None,1213.098017354001,None,f,0.21923741992213763,1213.098017354001,None,base8,001,2019_Oct_26_1430,ProdFawcett_Revision2019,3.2.4,59.9654239280865,
,,,,47,0,47,0,,,,,,,,,,,,,1216.8158157616563,None,,,,,,,,,,,,,,,,,,,,,,treatment,D_new,47,339,1213.8817935560364,None,1213.8817935560364,None,1213.8817935560364,None,4,2.275998942583101,1213.8817935560364,None,1216.2059547801327,None,1216.2059547801327,None,1216.7323894383444,None,1216.7323894383444,None,1216.7323894383444,None,f,0.04901567456545308,1216.7323894383444,None,base8,001,2019_Oct_26_1430,ProdFawcett_Revision2019,3.2.4,59.9654239280865,
,,,,48,0,48,0,,,,,,,,,,,,,1221.6338713690348,None,,,,,,,,,,,,,,,,,,,,,,poetry,C_aloud2,48,225,1217.3330624494702,None,1217.3330624494702,None,1217.3330624494702,None,5,3.287784101528814,1217.3330624494702,None,1220.673565963807,None,1220.673565963807,None,1221.2004960502672,None,1221.2004960502672,None,1221.2004960502672,None,f,0.3883750077802688,1221.2004960502672,None,base8,001,2019_Oct_26_1430,ProdFawcett_Revision2019,3.2.4,59.9654239280865,
,,,,49,0,49,0,,,,,,,,,,,,,1224.884992224921,None,,,,,,,,,,,,,,,,,,,,,,smell,D_new,49,291,1222.1507743982074,None,1222.1507743982074,None,1222.1507743982074,None,2,1.445906885608565,1222.1507743982074,None,1223.6512079368113,None,1223.6512079368113,None,1224.168106922938,None,1224.168106922938,None,1224.168106922938,None,n,0.6845167008577846,1224.168106922938,None,base8,001,2019_Oct_26_1430,ProdFawcett_Revision2019,3.2.4,59.9654239280865,
,,,,50,0,50,0,,,,,,,,,,,,,1228.869431485975,None,,,,,,,,,,,,,,,,,,,,,,incident,A_silent,50,158,1225.4030636934913,None,1225.4030636934913,None,1225.4030636934913,None,5,2.8419111152470578,1225.4030636934913,None,1228.3026687192905,None,1228.3026687192905,None,1228.819510169822,None,1228.819510169822,None,1228.819510169822,None,f,0.01681625927449204,1228.819510169822,None,base8,001,2019_Oct_26_1430,ProdFawcett_Revision2019,3.2.4,59.9654239280865,
,,,,51,0,51,0,,,,,,,,,,,,,1231.5035805809603,None,,,,,,,,,,,,,,,,,,,,,,clean,D_new,51,51,1229.3863544193737,None,1229.3863544193737,None,1229.3863544193737,None,1,1.2662981277680956,1229.3863544193737,None,1230.6936794800276,None,1230.6936794800276,None,1231.2068769049074,None,1231.2068769049074,None,1231.2068769049074,None,n,0.26151054300135,1231.2068769049074,None,base8,001,2019_Oct_26_1430,ProdFawcett_Revision2019,3.2.4,59.9654239280865,
,,,,52,0,52,0,,,,,,,,,,,,,1233.9211065497366,None,,,,,,,,,,,,,,,,,,,,,,platform,D_new,52,224,1232.0211186788802,None,1232.0211186788802,None,1232.0211186788802,None,1,1.0949863158457447,1232.0211186788802,None,1233.1591736642586,None,1233.1591736642586,None,1233.6874870933825,None,1233.6874870933825,None,1233.6874870933825,None,n,0.19664458543411456,1233.6874870933825,None,base8,001,2019_Oct_26_1430,ProdFawcett_Revision2019,3.2.4,59.9654239280865,
,,,,53,0,53,0,,,,,,,,,,,,,1238.4725536480837,None,,,,,,,,,,,,,,,,,,,,,,afternoon,C_aloud2,53,3,1234.438735149597,None,1234.438735149597,None,1234.438735149597,None,6,2.1172099894320127,1234.438735149597,None,1236.621932263486,None,1236.621932263486,None,1237.1386250544456,None,1237.1386250544456,None,1237.1386250544456,None,r,1.2898364122665953,1237.1386250544456,None,base8,001,2019_Oct_26_1430,ProdFawcett_Revision2019,3.2.4,59.9654239280865,
,,,,54,0,54,0,,,,,,,,,,,,,1243.1906391117955,None,,,,,,,,,,,,,,,,,,,,,,health,A_silent,54,149,1238.989383280481,None,1238.989383280481,None,1238.989383280481,None,3,2.7984406294708606,1238.989383280481,None,1241.8281585494988,None,1241.8281585494988,None,1242.3569384835719,None,1242.3569384835719,None,1242.3569384835719,None,f,0.7912455681944266,1242.3569384835719,None,base8,001,2019_Oct_26_1430,ProdFawcett_Revision2019,3.2.4,59.9654239280865,
,,,,55,0,55,0,,,,,,,,,,,,,1245.958044722298,None,,,,,,,,,,,,,,,,,,,,,,object,D_new,55,204,1243.713712757366,None,1243.713712757366,None,1243.713712757366,None,1,1.529715120967012,1243.713712757366,None,1245.307879890548,None,1245.307879890548,None,1245.8286710829125,None,1245.8286710829125,None,1245.8286710829125,None,n,0.09488244075328112,1245.8286710829125,None,base8,001,2019_Oct_26_1430,ProdFawcett_Revision2019,3.2.4,59.9654239280865,
,,,,56,0,56,0,,,,,,,,,,,,,1250.9263659264834,None,,,,,,,,,,,,,,,,,,,,,,partner,D_new,56,211,1246.4760826024867,None,1246.4760826024867,None,1246.4760826024867,None,4,3.3113354481756687,1246.4760826024867,None,1249.832630465884,None,1249.832630465884,None,1250.3595313180413,None,1250.3595313180413,None,1250.3595313180413,None,f,0.524191391421482,1250.3595313180413,None,base8,001,2019_Oct_26_1430,ProdFawcett_Revision2019,3.2.4,59.9654239280865,
,,,,57,0,57,0,,,,,,,,,,,,,1254.2273950364033,None,,,,,,,,,,,,,,,,,,,,,,member,D_new,57,188,1251.443000248808,None,1251.443000248808,None,1251.443000248808,None,2,1.7122746781096794,1251.443000248808,None,1253.1982083100302,None,1253.1982083100302,None,1253.7271135784104,None,1253.7271135784104,None,1253.7271135784104,None,f,0.4518504696316086,1253.7271135784104,None,base8,001,2019_Oct_26_1430,ProdFawcett_Revision2019,3.2.4,59.9654239280865,
,,,,58,0,58,0,,,,,,,,,,,,,1257.411593891913,None,,,,,,,,,,,,,,,,,,,,,,division,B_aloud1,58,101,1254.744999689021,None,1254.744999689021,None,1254.744999689021,None,6,1.8904192324262112,1254.744999689021,None,1256.6947288051306,None,1256.6947288051306,None,1257.2115652796056,None,1257.2115652796056,None,1257.2115652796056,None,r,0.15942557691596448,1257.2115652796056,None,base8,001,2019_Oct_26_1430,ProdFawcett_Revision2019,3.2.4,59.9654239280865,
,,,,59,0,59,0,,,,,,,,,,,,,1260.1625716862618,None,,,,,,,,,,,,,,,,,,,,,,religion,B_aloud1,59,258,1257.9285955091182,None,1257.9285955091182,None,1257.9285955091182,None,6,1.3540128755557816,1257.9285955091182,None,1259.345587485237,None,1259.345587485237,None,1259.8624519500008,None,1259.8624519500008,None,1259.8624519500008,None,r,0.2521717360068578,1259.8624519500008,None,base8,001,2019_Oct_26_1430,ProdFawcett_Revision2019,3.2.4,59.9654239280865,
,,,,60,0,60,0,,,,,,,,,,,,,1263.3135476146126,None,,,,,,,,,,,,,,,,,,,,,,notice,C_aloud2,60,201,1260.6798718666541,None,1260.6798718666541,None,1260.6798718666541,None,1,1.6987373266019858,1260.6798718666541,None,1262.4298687566188,None,1262.4298687566188,None,1262.9467985320662,None,1262.9467985320662,None,1262.9467985320662,None,n,0.3195617963501718,1262.9467985320662,None,base8,001,2019_Oct_26_1430,ProdFawcett_Revision2019,3.2.4,59.9654239280865,
,,,,61,0,61,0,,,,,,,,,,,,,1266.2976565901772,None,,,,,,,,,,,,,,,,,,,,,,degree,D_new,61,89,1263.8310477701307,None,1263.8310477701307,None,1263.8310477701307,None,3,1.7711905206087977,1263.8310477701307,None,1265.664275362331,None,1265.664275362331,None,1266.180969086272,None,1266.180969086272,None,1266.180969086272,None,f,0.07755706913303584,1266.180969086272,None,base8,001,2019_Oct_26_1430,ProdFawcett_Revision2019,3.2.4,59.9654239280865,
,,,,62,0,62,0,,,,,,,,,,,,,1269.6989086894318,None,,,,,,,,,,,,,,,,,,,,,,message,D_new,62,189,1266.8148245941557,None,1266.8148245941557,None,1266.8148245941557,None,1,2.0275178826996125,1266.8148245941557,None,1268.887990296702,None,1268.887990296702,None,1269.4152929651027,None,1269.4152929651027,None,1269.4152929651027,None,n,0.25071530757122673,1269.4152929651027,None,base8,001,2019_Oct_26_1430,ProdFawcett_Revision2019,3.2.4,59.9654239280865,
,,,,63,0,63,0,,,,,,,,,,,,,1272.5164001368394,None,,,,,,,,,,,,,,,,,,,,,,cross,B_aloud1,63,80,1270.2156400448002,None,1270.2156400448002,None,1270.2156400448002,None,6,1.5542206257523503,1270.2156400448002,None,1271.821569011634,None,1271.821569011634,None,1272.3496535423328,None,1272.3496535423328,None,1272.3496535423328,None,r,0.12488088573445566,1272.3496535423328,None,base8,001,2019_Oct_26_1430,ProdFawcett_Revision2019,3.2.4,59.9654239280865,
,,,,64,0,64,0,,,,,,,,,,,,,1275.4339864402718,None,,,,,,,,,,,,,,,,,,,,,,people,D_new,64,216,1273.033143310342,None,1273.033143310342,None,1273.033143310342,None,3,1.744874976662686,1273.033143310342,None,1274.8226133607095,None,1274.8226133607095,None,1275.3504727250256,None,1275.3504727250256,None,1275.3504727250256,None,f,0.05120638178777881,1275.3504727250256,None,base8,001,2019_Oct_26_1430,ProdFawcett_Revision2019,3.2.4,59.9654239280865,
,,,,65,0,65,0,,,,,,,,,,,,,1278.0846504323126,None,,,,,,,,,,,,,,,,,,,,,,history,D_new,65,153,1275.9521477887756,None,1275.9521477887756,None,1275.9521477887756,None,1,1.4257479629304726,1275.9521477887756,None,1277.434606891853,None,1277.434606891853,None,1277.9514670025674,None,1277.9514670025674,None,1277.9514670025674,None,n,0.09067612118087709,1277.9514670025674,None,base8,001,2019_Oct_26_1430,ProdFawcett_Revision2019,3.2.4,59.9654239280865,
,,,,66,0,66,0,,,,,,,,,,,,,1281.535723082663,None,,,,,,,,,,,,,,,,,,,,,,route,D_new,66,267,1278.6015301362204,None,1278.6015301362204,None,1278.6015301362204,None,1,2.135913727688603,1278.6015301362204,None,1280.7905196865322,None,1280.7905196865322,None,1281.3191400759097,None,1281.3191400759097,None,1281.3191400759097,None,n,0.17016389875789173,1281.3191400759097,None,base8,001,2019_Oct_26_1430,ProdFawcett_Revision2019,3.2.4,59.9654239280865,
,,,,67,0,67,0,,,,,,,,,,,,,1284.0864974808937,None,,,,,,,,,,,,,,,,,,,,,,background,A_silent,67,16,1282.054108042561,None,1282.054108042561,None,1282.054108042561,None,6,1.1791058655362576,1282.054108042561,None,1283.2863541083643,None,1283.2863541083643,None,1283.8032042669656,None,1283.8032042669656,None,1283.8032042669656,None,r,0.2379408471751958,1283.8032042669656,None,base8,001,2019_Oct_26_1430,ProdFawcett_Revision2019,3.2.4,59.9654239280865,
,,,,68,0,68,0,,,,,,,,,,,,,1287.6711174348602,None,,,,,,,,,,,,,,,,,,,,,,portion,B_aloud1,68,228,1284.604020650644,None,1284.604020650644,None,1284.604020650644,None,2,2.389075698214583,1284.604020650644,None,1287.054128568765,None,1287.054128568765,None,1287.5709958325606,None,1287.5709958325606,None,1287.5709958325606,None,f,0.05396560303051956,1287.5709958325606,None,base8,001,2019_Oct_26_1430,ProdFawcett_Revision2019,3.2.4,59.9654239280865,
,,,,69,0,69,0,,,,,,,,,,,,,1291.0221652049513,None,,,,,,,,,,,,,,,,,,,,,,material,D_new,69,182,1288.1890007464099,None,1288.1890007464099,None,1288.1890007464099,None,5,2.04413883187226,1288.1890007464099,None,1290.2887479007477,None,1290.2887479007477,None,1290.805197176087,None,1290.805197176087,None,1290.805197176087,None,f,0.17965478633414023,1290.805197176087,None,base8,001,2019_Oct_26_1430,ProdFawcett_Revision2019,3.2.4,59.9654239280865,
,,,,70,0,70,0,,,,,,,,,,,,,1294.1565376002982,None,,,,,,,,,,,,,,,,,,,,,,welcome,D_new,70,354,1291.5400662437023,None,1291.5400662437023,None,1291.5400662437023,None,1,1.8685417055385187,1291.5400662437023,None,1293.4727713503817,None,1293.4727713503817,None,1293.9896037818107,None,1293.9896037818107,None,1293.9896037818107,None,n,0.13115848728921264,1293.9896037818107,None,base8,001,2019_Oct_26_1430,ProdFawcett_Revision2019,3.2.4,59.9654239280865,
,,,,71,0,71,0,,,,,,,,,,,,,1298.5578064937727,None,,,,,,,,,,,,,,,,,,,,,,cover,A_silent,71,77,1294.6730966598261,None,1294.6730966598261,None,1294.6730966598261,None,1,3.0238418237422593,1294.6730966598261,None,1297.746208869823,None,1297.746208869823,None,1298.2743711513467,None,1298.2743711513467,None,1298.2743711513467,None,n,0.23795919635449536,1298.2743711513467,None,base8,001,2019_Oct_26_1430,ProdFawcett_Revision2019,3.2.4,59.9654239280865,
,,,,72,0,72,0,,,,,,,,,,,,,1300.5916567145614,None,,,,,,,,,,,,,,,,,,,,,,childhood,D_new,72,49,1299.0748189961014,None,1299.0748189961014,None,1299.0748189961014,None,1,0.6854251415061299,1299.0748189961014,None,1299.813417926227,None,1299.813417926227,None,1300.341874727892,None,1300.341874727892,None,1300.341874727892,None,n,0.21066990110557526,1300.341874727892,None,base8,001,2019_Oct_26_1430,ProdFawcett_Revision2019,3.2.4,59.9654239280865,
,,,,73,0,73,0,,,,,,,,,,,,,1303.5760626982665,None,,,,,,,,,,,,,,,,,,,,,,conference,A_silent,73,66,1301.109998756001,None,1301.109998756001,None,1301.109998756001,None,6,1.7780733346007764,1301.109998756001,None,1302.9314275051292,None,1302.9314275051292,None,1303.4591472289758,None,1303.4591472289758,None,1303.4591472289758,None,r,0.06889998132828623,1303.4591472289758,None,base8,001,2019_Oct_26_1430,ProdFawcett_Revision2019,3.2.4,59.9654239280865,
,,,,74,0,74,0,,,,,,,,,,,,,1306.4268737948732,None,,,,,,,,,,,,,,,,,,,,,,design,B_aloud1,74,91,1304.0926662312704,None,1304.0926662312704,None,1304.0926662312704,None,1,1.7078550102596637,1304.0926662312704,None,1305.8451324874186,None,1305.8451324874186,None,1306.360211171239,None,1306.360211171239,None,1306.360211171239,None,n,0.03171549417311326,1306.360211171239,None,base8,001,2019_Oct_26_1430,ProdFawcett_Revision2019,3.2.4,59.9654239280865,
,,,,75,0,75,0,,,,,,,,,,,,,1308.6274435529194,None,,,,,,,,,,,,,,,,,,,,,,primary,A_silent,75,234,1306.9449763637676,None,1306.9449763637676,None,1306.9449763637676,None,1,0.7348224171146285,1306.9449763637676,None,1307.7314760216686,None,1307.7314760216686,None,1308.2606120544951,None,1308.2606120544951,None,1308.2606120544951,None,n,0.32381756548420526,1308.2606120544951,None,base8,001,2019_Oct_26_1430,ProdFawcett_Revision2019,3.2.4,59.9654239280865,
,,,,76,0,76,0,,,,,,,,,,,,,1312.1453511227446,None,,,,,,,,,,,,,,,,,,,,,,count,A_silent,76,72,1309.1443384960003,None,1309.1443384960003,None,1309.1443384960003,None,2,2.2872264726029243,1309.1443384960003,None,1311.4827436711057,None,1311.4827436711057,None,1312.0118159482663,None,1312.0118159482663,None,1312.0118159482663,None,f,0.10013559742947109,1312.0118159482663,None,base8,001,2019_Oct_26_1430,ProdFawcett_Revision2019,3.2.4,59.9654239280865,
,,,,77,0,77,0,,,,,,,,,,,,,1314.4793024196115,None,,,,,,,,,,,,,,,,,,,,,,native,D_new,77,199,1312.6629495552625,None,1312.6629495552625,None,1312.6629495552625,None,1,1.1927679293439724,1312.6629495552625,None,1313.912460036081,None,1313.912460036081,None,1314.4293851465045,None,1314.4293851465045,None,1314.4293851465045,None,n,0.002076569013297558,1314.4293851465045,None,base8,001,2019_Oct_26_1430,ProdFawcett_Revision2019,3.2.4,59.9654239280865,
,,,,78,0,78,0,,,,,,,,,,,,,1316.580229831452,None,,,,,,,,,,,,,,,,,,,,,,range,A_silent,78,251,1314.9961892766296,None,1314.9961892766296,None,1314.9961892766296,None,1,0.7791929464437999,1314.9961892766296,None,1315.8297129439597,None,1315.8297129439597,None,1316.34867450397,None,1316.34867450397,None,1316.34867450397,None,n,0.20313864527270198,1316.34867450397,None,base8,001,2019_Oct_26_1430,ProdFawcett_Revision2019,3.2.4,59.9654239280865,
,,,,79,0,79,0,,,,,,,,,,,,,1318.6306764321926,None,,,,,,,,,,,,,,,,,,,,,,gesture,D_new,79,137,1317.0840604590485,None,1317.0840604590485,None,1317.0840604590485,None,1,0.6432098650257103,1317.0840604590485,None,1317.7803778690286,None,1317.7803778690286,None,1318.297327548673,None,1318.297327548673,None,1318.297327548673,None,n,0.29415096101001836,1318.297327548673,None,base8,001,2019_Oct_26_1430,ProdFawcett_Revision2019,3.2.4,59.9654239280865,
,,,,80,0,80,0,,,,,,,,,,,,,1322.1150951670134,None,,,,,,,,,,,,,,,,,,,,,,foundation,D_new,80,132,1319.148909622454,None,1319.148909622454,None,1319.148909622454,None,4,2.2907436088717077,1319.148909622454,None,1321.4981731666485,None,1321.4981731666485,None,1322.0152497356466,None,1322.0152497356466,None,1322.0152497356466,None,f,0.05638272064970806,1322.0152497356466,None,base8,001,2019_Oct_26_1430,ProdFawcett_Revision2019,3.2.4,59.9654239280865,
,,,,81,0,81,0,,,,,,,,,,,,,1326.7831940038595,None,,,,,,,,,,,,,,,,,,,,,,little,D_new,81,174,1322.6329389811726,None,1322.6329389811726,None,1322.6329389811726,None,1,2.6941279467428103,1322.6329389811726,None,1325.370652795944,None,1325.370652795944,None,1325.8994548112387,None,1325.8994548112387,None,1325.8994548112387,None,n,0.8435833799885586,1325.8994548112387,None,base8,001,2019_Oct_26_1430,ProdFawcett_Revision2019,3.2.4,59.9654239280865,
,,,,82,0,82,0,,,,,,,,,,,,,1328.850476457068,None,,,,,,,,,,,,,,,,,,,,,,tough,D_new,82,333,1327.3004139453988,None,1327.3004139453988,None,1327.3004139453988,None,1,0.6826071406539995,1327.3004139453988,None,1328.0334984760848,None,1328.0334984760848,None,1328.5504148784094,None,1328.5504148784094,None,1328.5504148784094,None,n,0.264331653888803,1328.5504148784094,None,base8,001,2019_Oct_26_1430,ProdFawcett_Revision2019,3.2.4,59.9654239280865,
,,,,83,0,83,0,,,,,,,,,,,,,1332.6350444734853,None,,,,,,,,,,,,,,,,,,,,,,course,B_aloud1,83,74,1329.3672575729433,None,1329.3672575729433,None,1329.3672575729433,None,5,2.2711392050841823,1329.3672575729433,None,1331.7013217640342,None,1331.7013217640342,None,1332.2183644336765,None,1332.2183644336765,None,1332.2183644336765,None,f,0.3801023201085627,1332.2183644336765,None,base8,001,2019_Oct_26_1430,ProdFawcett_Revision2019,3.2.4,59.9654239280865,
,,,,84,0,84,0,,,,,,,,,,,,,1335.7192971325712,None,,,,,,,,,,,,,,,,,,,,,,subject,D_new,84,312,1333.157610872673,None,1333.157610872673,None,1333.157610872673,None,4,1.888932014699094,1333.157610872673,None,1335.1023160415643,None,1335.1023160415643,None,1335.622466567147,None,1335.622466567147,None,1335.622466567147,None,f,0.0637936182320118,1335.622466567147,None,base8,001,2019_Oct_26_1430,ProdFawcett_Revision2019,3.2.4,59.9654239280865,
,,,,85,0,85,0,,,,,,,,,,,,,1339.553692542162,None,,,,,,,,,,,,,,,,,,,,,,school,D_new,85,274,1336.236963985837,None,1336.236963985837,None,1336.236963985837,None,1,2.6416327673068736,1336.236963985837,None,1338.9263413572335,None,1338.9263413572335,None,1339.4538250295445,None,1339.4538250295445,None,1339.4538250295445,None,n,0.05673539839335717,1339.4538250295445,None,base8,001,2019_Oct_26_1430,ProdFawcett_Revision2019,3.2.4,59.9654239280865,
,,,,86,0,86,0,,,,,,,,,,,,,1342.704665049474,None,,,,,,,,,,,,,,,,,,,,,,session,B_aloud1,86,281,1340.0720162343932,None,1340.0720162343932,None,1340.0720162343932,None,6,1.757991540711373,1340.0720162343932,None,1341.8752590657678,None,1341.8752590657678,None,1342.404569260456,None,1342.404569260456,None,1342.404569260456,None,r,0.257917832932435,1342.404569260456,None,base8,001,2019_Oct_26_1430,ProdFawcett_Revision2019,3.2.4,59.9654239280865,
,,,,87,0,87,0,,,,,,,,,,,,,1345.1555283946218,None,,,,,,,,,,,,,,,,,,,,,,column,D_new,87,57,1343.2229165889148,None,1343.2229165889148,None,1343.2229165889148,None,1,1.2233737637579907,1343.2229165889148,None,1344.5053881321219,None,1344.5053881321219,None,1345.0221617839125,None,1345.0221617839125,None,1345.0221617839125,None,n,0.09548827516846359,1345.0221617839125,None,base8,001,2019_Oct_26_1430,ProdFawcett_Revision2019,3.2.4,59.9654239280865,
,,,,88,0,88,0,,,,,,,,,,,,,1348.45644834236,None,,,,,,,,,,,,,,,,,,,,,,weather,D_new,88,352,1345.6727875225479,None,1345.6727875225479,None,1345.6727875225479,None,2,1.5574102755635977,1345.6727875225479,None,1347.2894582322624,None,1347.2894582322624,None,1347.8062555203214,None,1347.8062555203214,None,1347.8062555203214,None,f,0.6152581327478401,1347.8062555203214,None,base8,001,2019_Oct_26_1430,ProdFawcett_Revision2019,3.2.4,59.9654239280865,
,,,,89,0,89,0,,,,,,,,,,,,,1353.0580879517365,None,,,,,,,,,,,,,,,,,,,,,,resistance,C_aloud2,89,262,1348.9738209865172,None,1348.9738209865172,None,1348.9738209865172,None,6,3.4315599925466813,1348.9738209865172,None,1352.4577268769208,None,1352.4577268769208,None,1352.9748298812192,None,1352.9748298812192,None,1352.9748298812192,None,r,0.04644585432833992,1352.9748298812192,None,base8,001,2019_Oct_26_1430,ProdFawcett_Revision2019,3.2.4,59.9654239280865,
,,,,90,0,90,0,,,,,,,,,,,,,1355.4921117124031,None,,,,,,,,,,,,,,,,,,,,,,interior,A_silent,90,164,1353.5759995646076,None,1353.5759995646076,None,1353.5759995646076,None,1,1.2610950426314957,1353.5759995646076,None,1354.8918436275562,None,1354.8918436275562,None,1355.4087342165876,None,1355.4087342165876,None,1355.4087342165876,None,n,0.044489643594715744,1355.4087342165876,None,base8,001,2019_Oct_26_1430,ProdFawcett_Revision2019,3.2.4,59.9654239280865,
,,,,91,0,91,0,,,,,,,,,,,,,1359.3765077439894,None,,,,,,,,,,,,,,,,,,,,,,suggestion,A_silent,91,314,1356.0109398519853,None,1356.0109398519853,None,1356.0109398519853,None,2,1.642261304979911,1356.0109398519853,None,1357.709420600877,None,1357.709420600877,None,1358.226912670274,None,1358.226912670274,None,1358.226912670274,None,f,1.1140716551453806,1358.226912670274,None,base8,001,2019_Oct_26_1430,ProdFawcett_Revision2019,3.2.4,59.9654239280865,
,,,,92,0,92,0,,,,,,,,,,,,,1362.0273552279687,None,,,,,,,,,,,,,,,,,,,,,,staff,D_new,92,301,1359.8933168501826,None,1359.8933168501826,None,1359.8933168501826,None,1,1.3760244448494632,1359.8933168501826,None,1361.3272249175934,None,1361.3272249175934,None,1361.8439366797393,None,1361.8439366797393,None,1361.8439366797393,None,n,0.14500528704957105,1361.8439366797393,None,base8,001,2019_Oct_26_1430,ProdFawcett_Revision2019,3.2.4,59.9654239280865,
,,,,93,0,93,0,,,,,,,,,,,,,1364.8283324003278,None,,,,,,,,,,,,,,,,,,,,,,reach,D_new,93,253,1362.5443416060298,None,1362.5443416060298,None,1362.5443416060298,None,1,1.4522591279237531,1362.5443416060298,None,1364.0612682714418,None,1364.0612682714418,None,1364.5782428313978,None,1364.5782428313978,None,1364.5782428313978,None,n,0.20230795547831804,1364.5782428313978,None,base8,001,2019_Oct_26_1430,ProdFawcett_Revision2019,3.2.4,59.9654239280865,
,,,,94,0,94,0,,,,,,,,,,,,,1367.2791102195915,None,,,,,,,,,,,,,,,,,,,,,,guide,C_aloud2,94,147,1365.3458978665294,None,1365.3458978665294,None,1365.3458978665294,None,1,1.0828966847038828,1365.3458978665294,None,1366.4668563786836,None,1366.4668563786836,None,1366.9955554518965,None,1366.9955554518965,None,1366.9955554518965,None,n,0.24920694160391577,1366.9955554518965,None,base8,001,2019_Oct_26_1430,ProdFawcett_Revision2019,3.2.4,59.9654239280865,
,,,,95,0,95,0,,,,,,,,,,,,,1370.863483236928,None,,,,,,,,,,,,,,,,,,,,,,candidate,D_new,95,39,1367.797663432255,None,1367.797663432255,None,1367.797663432255,None,1,0.878682901035063,1367.797663432255,None,1368.7185547676927,None,1368.7185547676927,None,1369.246138583083,None,1369.246138583083,None,1369.246138583083,None,f,1.5746911737369373,1369.246138583083,None,base8,001,2019_Oct_26_1430,ProdFawcett_Revision2019,3.2.4,59.9654239280865,
,,,,96,0,96,0,,,,,,,,,,,,,1375.4816486284835,None,,,,,,,,,,,,,,,,,,,,,,phrase,B_aloud1,96,220,1371.380880450335,None,1371.380880450335,None,1371.380880450335,None,4,3.4236611308297142,1371.380880450335,None,1374.8646936617733,None,1374.8646936617733,None,1375.3815870498365,None,1375.3815870498365,None,1375.3815870498365,None,f,0.05425172607647255,1375.3815870498365,None,base8,001,2019_Oct_26_1430,ProdFawcett_Revision2019,3.2.4,59.9654239280865,
,,,,97,0,97,0,,,,,,,,,,,,,1377.3988981153234,None,,,,,,,,,,,,,,,,,,,,,,narrow,B_aloud1,97,197,1375.9989251726074,None,1375.9989251726074,None,1375.9989251726074,None,1,0.7575085526041221,1375.9989251726074,None,1376.8153284194996,None,1376.8153284194996,None,1377.332210300432,None,1377.332210300432,None,1377.332210300432,None,n,0.031614107108907774,1377.332210300432,None,base8,001,2019_Oct_26_1430,ProdFawcett_Revision2019,3.2.4,59.9654239280865,
,,,,98,0,98,0,,,,,,,,,,,,,1381.3168100391922,None,,,,,,,,,,,,,,,,,,,,,,substance,B_aloud1,98,313,1377.917790943582,None,1377.917790943582,None,1377.917790943582,None,5,2.126150090189185,1377.917790943582,None,1380.087460969109,None,1380.087460969109,None,1380.6165618585655,None,1380.6165618585655,None,1380.6165618585655,None,f,0.6670855880947784,1380.6165618585655,None,base8,001,2019_Oct_26_1430,ProdFawcett_Revision2019,3.2.4,59.9654239280865,
,,,,99,0,99,0,,,,,,,,,,,,,1385.2179940287606,None,,,,,,,,,,,,,,,,,,,,,,reading,C_aloud2,99,254,1381.834911675076,None,1381.834911675076,None,1381.834911675076,None,6,2.6410891335690394,1381.834911675076,None,1384.5244314859738,None,1384.5244314859738,None,1385.0512412141543,None,1385.0512412141543,None,1385.0512412141543,None,r,0.12006406669388525,1385.0512412141543,None,base8,001,2019_Oct_26_1430,ProdFawcett_Revision2019,3.2.4,59.9654239280865,
,,,,100,0,100,0,,,,,,,,,,,,,1389.3025617341627,None,,,,,,,,,,,,,,,,,,,,,,style,D_new,100,311,1385.735795857443,None,1385.735795857443,None,1385.735795857443,None,2,2.4673524289391935,1385.735795857443,None,1388.2688060583605,None,1388.2688060583605,None,1388.7856751881773,None,1388.7856751881773,None,1388.7856751881773,None,f,0.4740760092099663,1388.7856751881773,None,base8,001,2019_Oct_26_1430,ProdFawcett_Revision2019,3.2.4,59.9654239280865,
,,,,101,0,101,0,,,,,,,,,,,,,1392.8035535236704,None,,,,,,,,,,,,,,,,,,,,,,population,A_silent,101,227,1389.8208151396539,None,1389.8208151396539,None,1389.8208151396539,None,1,1.8781364682363346,1389.8208151396539,None,1391.753266778629,None,1391.753266778629,None,1392.2704310505942,None,1392.2704310505942,None,1392.2704310505942,None,n,0.5004182994307484,1392.2704310505942,None,base8,001,2019_Oct_26_1430,ProdFawcett_Revision2019,3.2.4,59.9654239280865,
,,,,102,0,102,0,,,,,,,,,,,,,1395.0043422280287,None,,,,,,,,,,,,,,,,,,,,,,production,D_new,102,240,1393.3215232941438,None,1393.3215232941438,None,1393.3215232941438,None,1,0.825437270628754,1393.3215232941438,None,1394.191996641166,None,1394.191996641166,None,1394.7206860732695,None,1394.7206860732695,None,1394.7206860732695,None,n,0.25040243825060315,1394.7206860732695,None,base8,001,2019_Oct_26_1430,ProdFawcett_Revision2019,3.2.4,59.9654239280865,
,,,,103,0,103,0,,,,,,,,,,,,,1397.8553769360005,None,,,,,,,,,,,,,,,,,,,,,,theme,D_new,103,326,1395.5211102817848,None,1395.5211102817848,None,1395.5211102817848,None,1,0.7055965043255128,1395.5211102817848,None,1396.288038191211,None,1396.288038191211,None,1396.8049042109924,None,1396.8049042109924,None,1396.8049042109924,None,n,1.006341668224195,1396.8049042109924,None,base8,001,2019_Oct_26_1430,ProdFawcett_Revision2019,3.2.4,59.9654239280865,
,,,,104,0,104,0,,,,,,,,,,,,,1403.0401555016579,None,,,,,,,,,,,,,,,,,,,,,,question,C_aloud2,104,247,1398.3886390495754,None,1398.3886390495754,None,1398.3886390495754,None,6,3.1659510480822064,1398.3886390495754,None,1401.6064906388056,None,1401.6064906388056,None,1402.1269061392231,None,1402.1269061392231,None,1402.1269061392231,None,r,0.867390682338737,1402.1269061392231,None,base8,001,2019_Oct_26_1430,ProdFawcett_Revision2019,3.2.4,59.9654239280865,
,,,,105,0,105,0,,,,,,,,,,,,,1405.9075726192677,None,,,,,,,,,,,,,,,,,,,,,,department,C_aloud2,105,90,1403.5588352926716,None,1403.5588352926716,None,1403.5588352926716,None,6,1.4756248056364711,1403.5588352926716,None,1405.0798802637437,None,1405.0798802637437,None,1405.607444796915,None,1405.607444796915,None,1405.607444796915,None,r,0.2670905641862191,1405.607444796915,None,base8,001,2019_Oct_26_1430,ProdFawcett_Revision2019,3.2.4,59.9654239280865,
,,,,106,0,106,0,,,,,,,,,,,,,1408.2417437954864,None,,,,,,,,,,,,,,,,,,,,,,accident,B_aloud1,106,0,1406.4267182932235,None,1406.4267182932235,None,1406.4267182932235,None,6,0.919333208934404,1406.4267182932235,None,1407.4080472103087,None,1407.4080472103087,None,1407.9248976799136,None,1407.9248976799136,None,1407.9248976799136,None,r,0.2690775642404333,1407.9248976799136,None,base8,001,2019_Oct_26_1430,ProdFawcett_Revision2019,3.2.4,59.9654239280865,
,,,,107,0,107,0,,,,,,,,,,,,,1411.0425241027551,None,,,,,,,,,,,,,,,,,,,,,,fashion,C_aloud2,107,125,1408.7597260061011,None,1408.7597260061011,None,1408.7597260061011,None,1,1.434136343857972,1408.7597260061011,None,1410.2589086894295,None,1410.2589086894295,None,1410.7759482490656,None,1410.7759482490656,None,1410.7759482490656,None,n,0.23381818749476224,1410.7759482490656,None,base8,001,2019_Oct_26_1430,ProdFawcett_Revision2019,3.2.4,59.9654239280865,
,,,,108,0,108,0,,,,,,,,,,,,,1413.6267991540954,None,,,,,,,,,,,,,,,,,,,,,,direction,B_aloud1,108,94,1411.5622155875026,None,1411.5622155875026,None,1411.5622155875026,None,1,1.2237311065546237,1411.5622155875026,None,1412.8431212290889,None,1412.8431212290889,None,1413.3600261242827,None,1413.3600261242827,None,1413.3600261242827,None,n,0.2258101635670755,1413.3600261242827,None,base8,001,2019_Oct_26_1430,ProdFawcett_Revision2019,3.2.4,59.9654239280865,
,,,,109,0,109,0,,,,,,,,,,,,,1416.1442221807665,None,,,,,,,,,,,,,,,,,,,,,,build,D_new,109,35,1414.1437640729127,None,1414.1437640729127,None,1414.1437640729127,None,1,0.8584648877440486,1414.1437640729127,None,1415.0604388256615,None,1415.0604388256615,None,1415.5773869503173,None,1415.5773869503173,None,1415.5773869503173,None,n,0.5281349132419564,1415.5773869503173,None,base8,001,2019_Oct_26_1430,ProdFawcett_Revision2019,3.2.4,59.9654239280865,
,,,,110,0,110,0,,,,,,,,,,,,,1418.7782117310562,None,,,,,,,,,,,,,,,,,,,,,,engineer,D_new,110,114,1416.6617913790105,None,1416.6617913790105,None,1416.6617913790105,None,1,1.0997981588589028,1416.6617913790105,None,1417.8113926727674,None,1417.8113926727674,None,1418.3280061578844,None,1418.3280061578844,None,1418.3280061578844,None,n,0.4173776202078443,1418.3280061578844,None,base8,001,2019_Oct_26_1430,ProdFawcett_Revision2019,3.2.4,59.9654239280865,
,,,,111,0,111,0,,,,,,,,,,,,,1423.362962306419,None,,,,,,,,,,,,,,,,,,,,,,society,A_silent,111,293,1419.2957868383382,None,1419.2957868383382,None,1419.2957868383382,None,6,1.5694364620139822,1419.2957868383382,None,1420.9165988679451,None,1420.9165988679451,None,1421.445733345783,None,1421.445733345783,None,1421.445733345783,None,r,1.8837656279210933,1421.445733345783,None,base8,001,2019_Oct_26_1430,ProdFawcett_Revision2019,3.2.4,59.9654239280865,
,,,,112,0,112,0,,,,,,,,,,,,,1430.4320274305064,None,,,,,,,,,,,,,,,,,,,,,,provision,D_new,112,243,1423.8804633949185,None,1423.8804633949185,None,1423.8804633949185,None,4,5.256457672454417,1423.8804633949185,None,1429.1981999129348,None,1429.1981999129348,None,1429.7150752628222,None,1429.7150752628222,None,1429.7150752628222,None,f,0.6779716364981141,1429.7150752628222,None,base8,001,2019_Oct_26_1430,ProdFawcett_Revision2019,3.2.4,59.9654239280865,
,,,,113,0,113,0,,,,,,,,,,,,,1432.8158732972806,None,,,,,,,,,,,,,,,,,,,,,,strain,D_new,113,308,1430.949740312266,None,1430.949740312266,None,1430.949740312266,None,1,1.0432238601788413,1430.949740312266,None,1432.0392371089256,None,1432.0392371089256,None,1432.5659939665347,None,1432.5659939665347,None,1432.5659939665347,None,n,0.20253871989552863,1432.5659939665347,None,base8,001,2019_Oct_26_1430,ProdFawcett_Revision2019,3.2.4,59.9654239280865,
,,,,114,0,114,0,,,,,,,,,,,,,1436.0002158363059,None,,,,,,,,,,,,,,,,,,,,,,group,D_new,114,143,1433.33297630155,None,1433.33297630155,None,1433.33297630155,None,1,1.5154515767935663,1433.33297630155,None,1434.8999508614943,None,1434.8999508614943,None,1435.41688312497,None,1435.41688312497,None,1435.41688312497,None,n,0.5438163214421365,1435.41688312497,None,base8,001,2019_Oct_26_1430,ProdFawcett_Revision2019,3.2.4,59.9654239280865,
,,,,115,0,115,0,,,,,,,,,,,,,1438.7178774025233,None,,,,,,,,,,,,,,,,,,,,,,skill,D_new,115,289,1436.517717235809,None,1436.517717235809,None,1436.517717235809,None,1,0.9072084343933966,1436.517717235809,None,1437.4726155377284,None,1437.4726155377284,None,1438.0009522921173,None,1438.0009522921173,None,1438.0009522921173,None,n,0.6793266778404359,1438.0009522921173,None,base8,001,2019_Oct_26_1430,ProdFawcett_Revision2019,3.2.4,59.9654239280865,
,,,,116,0,116,0,,,,,,,,,,,,,1443.3191453629406,None,,,,,,,,,,,,,,,,,,,,,,detective,D_new,116,92,1439.2354920072248,None,1439.2354920072248,None,1439.2354920072248,None,5,2.9646709585213102,1439.2354920072248,None,1442.2425520930556,None,1442.2425520930556,None,1442.7690657461062,None,1442.7690657461062,None,1442.7690657461062,None,f,0.5111836785508785,1442.7690657461062,None,base8,001,2019_Oct_26_1430,ProdFawcett_Revision2019,3.2.4,59.9654239280865,
,,,,117,0,117,0,,,,,,,,,,,,,1445.7866420974315,None,,,,,,,,,,,,,,,,,,,,,,corner,D_new,117,69,1443.8360263108916,None,1443.8360263108916,None,1443.8360263108916,None,1,1.2839674690621905,1443.8360263108916,None,1445.1698942588991,None,1445.1698942588991,None,1445.6865783417306,None,1445.6865783417306,None,1445.6865783417306,None,n,0.06524133856873959,1445.6865783417306,None,base8,001,2019_Oct_26_1430,ProdFawcett_Revision2019,3.2.4,59.9654239280865,
,,,,118,0,118,0,,,,,,,,,,,,,1448.804191080446,None,,,,,,,,,,,,,,,,,,,,,,straight,C_aloud2,118,307,1446.3048441873689,None,1446.3048441873689,None,1446.3048441873689,None,6,1.4308935124718118,1446.3048441873689,None,1447.7872650370118,None,1447.7872650370118,None,1448.3043764384056,None,1448.3043764384056,None,1448.3043764384056,None,r,0.45530167320976034,1448.3043764384056,None,base8,001,2019_Oct_26_1430,ProdFawcett_Revision2019,3.2.4,59.9654239280865,
,,,,119,0,119,0,,,,,,,,,,,,,1453.188842756732,None,,,,,,,,,,,,,,,,,,,,,,command,D_new,119,60,1449.3209970765747,None,1449.3209970765747,None,1449.3209970765747,None,1,2.5431305591773707,1449.3209970765747,None,1451.9219897990988,None,1451.9219897990988,None,1452.438666106871,None,1452.438666106871,None,1452.438666106871,None,n,0.704695838765474,1452.438666106871,None,base8,001,2019_Oct_26_1430,ProdFawcett_Revision2019,3.2.4,59.9654239280865,
,,,,120,0,120,0,,,,,,,,,,,,,1455.573083597701,None,,,,,,,,,,,,,,,,,,,,,,public,D_new,120,244,1453.7068458045833,None,1453.7068458045833,None,1453.7068458045833,None,1,0.996601977996761,1453.7068458045833,None,1454.7560978416586,None,1454.7560978416586,None,1455.2729927847395,None,1455.2729927847395,None,1455.2729927847395,None,n,0.26230080239474773,1455.2729927847395,None,base8,001,2019_Oct_26_1430,ProdFawcett_Revision2019,3.2.4,59.9654239280865,
,,,,121,0,121,0,,,,,,,,,,,,,1458.6073536729673,None,,,,,,,,,,,,,,,,,,,,,,silence,C_aloud2,121,288,1456.090732412762,None,1456.090732412762,None,1456.090732412762,None,6,1.7088884742406663,1456.090732412762,None,1457.84464234623,None,1457.84464234623,None,1458.373835914681,None,1458.373835914681,None,1458.373835914681,None,r,0.19354015053249896,1458.373835914681,None,base8,001,2019_Oct_26_1430,ProdFawcett_Revision2019,3.2.4,59.9654239280865,
,,,,122,0,122,0,,,,,,,,,,,,,1463.2754798780952,None,,,,,,,,,,,,,,,,,,,,,,present,A_silent,122,231,1459.1247250731103,None,1459.1247250731103,None,1459.1247250731103,None,5,3.1541080425377004,1459.1247250731103,None,1462.3418305654195,None,1462.3418305654195,None,1462.8587534987892,None,1462.8587534987892,None,1462.8587534987892,None,f,0.37220159234129824,1462.8587534987892,None,base8,001,2019_Oct_26_1430,ProdFawcett_Revision2019,3.2.4,59.9654239280865,
,,,,123,0,123,0,,,,,,,,,,,,,1467.026669465704,None,,,,,,,,,,,,,,,,,,,,,,under,D_new,123,343,1463.7922410897736,None,1463.7922410897736,None,1463.7922410897736,None,1,2.566764321702067,1463.7922410897736,None,1466.409790694801,None,1466.409790694801,None,1466.9264719786006,None,1466.9264719786006,None,1466.9264719786006,None,n,0.05677582882344723,1466.9264719786006,None,base8,001,2019_Oct_26_1430,ProdFawcett_Revision2019,3.2.4,59.9654239280865,
,,,,124,0,124,0,,,,,,,,,,,,,1471.4947073459043,None,,,,,,,,,,,,,,,,,,,,,,dispute,D_new,124,99,1467.544675934565,None,1467.544675934565,None,1467.544675934565,None,4,3.0297763886337634,1467.544675934565,None,1470.6276901785168,None,1470.6276901785168,None,1471.144554332277,None,1471.144554332277,None,1471.144554332277,None,f,0.31010480810073204,1471.144554332277,None,base8,001,2019_Oct_26_1430,ProdFawcett_Revision2019,3.2.4,59.9654239280865,
,,,,125,0,125,0,,,,,,,,,,,,,1474.061992287141,None,,,,,,,,,,,,,,,,,,,,,,short,D_new,125,285,1471.9951962430787,None,1471.9951962430787,None,1471.9951962430787,None,1,1.1396376811608206,1471.9951962430787,None,1473.1950755738071,None,1473.1950755738071,None,1473.7120258754876,None,1473.7120258754876,None,1473.7120258754876,None,n,0.3021257075597532,1473.7120258754876,None,base8,001,2019_Oct_26_1430,ProdFawcett_Revision2019,3.2.4,59.9654239280865,
,,,,126,0,126,0,,,,,,,,,,,,,1476.679514212854,None,,,,,,,,,,,,,,,,,,,,,,guard,D_new,126,145,1474.5788427567459,None,1474.5788427567459,None,1474.5788427567459,None,1,1.387190707231639,1474.5788427567459,None,1476.019108353561,None,1476.019108353561,None,1476.5462732475135,None,1476.5462732475135,None,1476.5462732475135,None,n,0.09226814704015851,1476.5462732475135,None,base8,001,2019_Oct_26_1430,ProdFawcett_Revision2019,3.2.4,59.9654239280865,
,,,,127,0,127,0,,,,,,,,,,,,,1480.6141724202316,None,,,,,,,,,,,,,,,,,,,,,,equipment,C_aloud2,127,116,1477.2027673073462,None,1477.2027673073462,None,1477.2027673073462,None,5,2.4037205324566457,1477.2027673073462,None,1479.6637727810012,None,1479.6637727810012,None,1480.1857678671367,None,1480.1857678671367,None,1480.1857678671367,None,f,0.3883093860640656,1480.1857678671367,None,base8,001,2019_Oct_26_1430,ProdFawcett_Revision2019,3.2.4,59.9654239280865,
,,,,128,0,128,0,,,,,,,,,,,,,1483.1316197051783,None,,,,,,,,,,,,,,,,,,,,,,broad,D_new,128,31,1481.130942962016,None,1481.130942962016,None,1481.130942962016,None,1,1.202787211543182,1481.130942962016,None,1482.384581389575,None,1482.384581389575,None,1482.9147714125866,None,1482.9147714125866,None,1482.9147714125866,None,n,0.17084530697320588,1482.9147714125866,None,base8,001,2019_Oct_26_1430,ProdFawcett_Revision2019,3.2.4,59.9654239280865,
,,,,129,0,129,0,,,,,,,,,,,,,1485.6155874852266,None,,,,,,,,,,,,,,,,,,,,,,industry,D_new,129,161,1483.6544846675533,None,1483.6544846675533,None,1483.6544846675533,None,1,1.287221185542876,1483.6544846675533,None,1484.9883320893277,None,1484.9883320893277,None,1485.515688250307,None,1485.515688250307,None,1485.515688250307,None,n,0.0661830565368291,1485.515688250307,None,base8,001,2019_Oct_26_1430,ProdFawcett_Revision2019,3.2.4,59.9654239280865,
,,,,130,0,130,0,,,,,,,,,,,,,1488.783297256974,None,,,,,,,,,,,,,,,,,,,,,,audience,D_new,130,14,1486.1336583317898,None,1486.1336583317898,None,1486.1336583317898,None,5,1.6160987746552564,1486.1336583317898,None,1487.7997561734228,None,1487.7997561734228,None,1488.3164234620926,None,1488.3164234620926,None,1488.3164234620926,None,f,0.4332798407704104,1488.3164234620926,None,base8,001,2019_Oct_26_1430,ProdFawcett_Revision2019,3.2.4,59.9654239280865,
,,,,131,0,131,0,,,,,,,,,,,,,1493.017870560434,None,,,,,,,,,,,,,,,,,,,,,,figure,D_new,131,128,1489.3000180381932,None,1489.3000180381932,None,1489.3000180381932,None,1,2.7131700566096697,1489.3000180381932,None,1492.0677138147876,None,1492.0677138147876,None,1492.5845596193394,None,1492.5845596193394,None,1492.5845596193394,None,n,0.3890156745619606,1492.5845596193394,None,base8,001,2019_Oct_26_1430,ProdFawcett_Revision2019,3.2.4,59.9654239280865,
,,,,132,0,132,0,,,,,,,,,,,,,1497.5859578901727,None,,,,,,,,,,,,,,,,,,,,,,crowd,D_new,132,81,1493.5347309821518,None,1493.5347309821518,None,1493.5347309821518,None,3,3.1661709274339955,1493.5347309821518,None,1496.7524482179724,None,1496.7524482179724,None,1497.269341295032,None,1497.269341295032,None,1497.269341295032,None,f,0.2716853268793784,1497.269341295032,None,base8,001,2019_Oct_26_1430,ProdFawcett_Revision2019,3.2.4,59.9654239280865,
,,,,133,0,133,0,,,,,,,,,,,,,1500.5201925110596,None,,,,,,,,,,,,,,,,,,,,,,spoke,D_new,133,300,1498.1029679044732,None,1498.1029679044732,None,1498.1029679044732,None,1,1.2137824220990296,1498.1029679044732,None,1499.3584608446981,None,1499.3584608446981,None,1499.8867497045721,None,1499.8867497045721,None,1499.8867497045721,None,n,0.598032593174139,1499.8867497045721,None,base8,001,2019_Oct_26_1430,ProdFawcett_Revision2019,3.2.4,59.9654239280865,
,,,,134,0,134,0,,,,,,,,,,,,,1504.9550192822062,None,,,,,,,,,,,,,,,,,,,,,,nation,B_aloud1,134,198,1501.0370448466856,None,1501.0370448466856,None,1501.0370448466856,None,1,1.0874715432000812,1501.0370448466856,None,1502.1775779063464,None,1502.1775779063464,None,1502.7043403620191,None,1502.7043403620191,None,1502.7043403620191,None,n,2.2120824780722614,1502.7043403620191,None,base8,001,2019_Oct_26_1430,ProdFawcett_Revision2019,3.2.4,59.9654239280865,
,,,,135,0,135,0,,,,,,,,,,,,,1508.1392395969597,None,,,,,,,,,,,,,,,,,,,,,,chief,C_aloud2,135,48,1505.4717123841692,None,1505.4717123841692,None,1505.4717123841692,None,6,1.6685457485727966,1505.4717123841692,None,1507.205773465219,None,1507.205773465219,None,1507.7224261367228,None,1507.7224261367228,None,1507.7224261367228,None,r,0.37809417181415483,1507.7224261367228,None,base8,001,2019_Oct_26_1430,ProdFawcett_Revision2019,3.2.4,59.9654239280865,
,,,,136,0,136,0,,,,,,,,,,,,,1511.0736350065563,None,,,,,,,,,,,,,,,,,,,,,,council,C_aloud2,136,71,1508.6560549231945,None,1508.6560549231945,None,1508.6560549231945,None,5,1.66801331093302,1508.6560549231945,None,1510.3732720656844,None,1510.3732720656844,None,1510.8901331094094,None,1510.8901331094094,None,1510.8901331094094,None,f,0.13787802451406606,1510.8901331094094,None,base8,001,2019_Oct_26_1430,ProdFawcett_Revision2019,3.2.4,59.9654239280865,
,,,,137,0,137,0,,,,,,,,,,,,,1514.0244013186602,None,,,,,,,,,,,,,,,,,,,,,,danger,D_new,137,85,1511.5903287304973,None,1511.5903287304973,None,1511.5903287304973,None,1,1.4457137525605503,1511.5903287304973,None,1513.0907632021117,None,1513.0907632021117,None,1513.6076388629735,None,1513.6076388629735,None,1513.6076388629735,None,n,0.37248367234133184,1513.6076388629735,None,base8,001,2019_Oct_26_1430,ProdFawcett_Revision2019,3.2.4,59.9654239280865,
,,,,138,0,138,0,,,,,,,,,,,,,1517.2421956832986,None,,,,,,,,,,,,,,,,,,,,,,meeting,D_new,138,187,1514.5416159731394,None,1514.5416159731394,None,1514.5416159731394,None,1,1.8067036760621704,1514.5416159731394,None,1516.397388505342,None,1516.397388505342,None,1516.9253968402045,None,1516.9253968402045,None,1516.9253968402045,None,n,0.2702537786681205,1516.9253968402045,None,base8,001,2019_Oct_26_1430,ProdFawcett_Revision2019,3.2.4,59.9654239280865,
,,,,139,0,139,0,,,,,,,,,,,,,1519.8762200659548,None,,,,,,,,,,,,,,,,,,,,,,country,D_new,139,73,1517.7606276046718,None,1517.7606276046718,None,1517.7606276046718,None,1,1.2990128755336627,1517.7606276046718,None,1519.0991938794614,None,1519.0991938794614,None,1519.6260185358115,None,1519.6260185358115,None,1519.6260185358115,None,n,0.21749020338756964,1519.6260185358115,None,base8,001,2019_Oct_26_1430,ProdFawcett_Revision2019,3.2.4,59.9654239280865,
,,,,140,0,140,0,,,,,,,,,,,,,1522.3771169994434,None,,,,,,,,,,,,,,,,,,,,,,commercial,D_new,140,61,1520.3945804565737,None,1520.3945804565737,None,1520.3945804565737,None,1,1.2327763264183886,1520.3945804565737,None,1521.6768044411438,None,1521.6768044411438,None,1522.194010387524,None,1522.194010387524,None,1522.194010387524,None,n,0.13732754869852215,1522.194010387524,None,base8,001,2019_Oct_26_1430,ProdFawcett_Revision2019,3.2.4,59.9654239280865,
,,,,141,0,141,0,,,,,,,,,,,,,1524.7778997947462,None,,,,,,,,,,,,,,,,,,,,,,center,A_silent,141,44,1522.8944883995864,None,1522.8944883995864,None,1522.8944883995864,None,1,1.084831747226417,1522.8944883995864,None,1524.0442128506547,None,1524.0442128506547,None,1524.5611264539475,None,1524.5611264539475,None,1524.5611264539475,None,n,0.17007090873084962,1524.5611264539475,None,base8,001,2019_Oct_26_1430,ProdFawcett_Revision2019,3.2.4,59.9654239280865,
,,,,142,0,142,0,,,,,,,,,,,,,1527.3953305965115,None,,,,,,,,,,,,,,,,,,,,,,pressure,D_new,142,232,1525.2955974373326,None,1525.2955974373326,None,1525.2955974373326,None,1,1.0675570691237226,1525.2955974373326,None,1526.4171748460503,None,1526.4171748460503,None,1526.9450569136243,None,1526.9450569136243,None,1526.9450569136243,None,n,0.4020837220887188,1526.9450569136243,None,base8,001,2019_Oct_26_1430,ProdFawcett_Revision2019,3.2.4,59.9654239280865,
,,,,143,0,143,0,,,,,,,,,,,,,1529.395949493075,None,,,,,,,,,,,,,,,,,,,,,,blind,D_new,143,24,1527.9119179573318,None,1527.9119179573318,None,1527.9119179573318,None,1,0.675533681671368,1527.9119179573318,None,1528.6351856689726,None,1528.6351856689726,None,1529.1625461840013,None,1529.1625461840013,None,1529.1625461840013,None,n,0.20051750948186964,1529.1625461840013,None,base8,001,2019_Oct_26_1430,ProdFawcett_Revision2019,3.2.4,59.9654239280865,
,,,,144,0,144,0,,,,,,,,,,,,,1533.5138458667789,None,,,,,,,,,,,,,,,,,,,,,,universal,C_aloud2,144,345,1529.914597250754,None,1529.914597250754,None,1529.914597250754,None,5,2.5201710518158507,1529.914597250754,None,1532.4834515145922,None,1532.4834515145922,None,1533.0135784039448,None,1533.0135784039448,None,1533.0135784039448,None,r,0.4613827206485439,1533.0135784039448,None,base8,001,2019_Oct_26_1430,ProdFawcett_Revision2019,3.2.4,59.9654239280865,
,,,,145,0,145,0,,,,,,,,,,,,,1536.4313388692099,None,,,,,,,,,,,,,,,,,,,,,,sunset,D_new,145,315,1534.031545064383,None,1534.031545064383,None,1534.031545064383,None,1,1.69172295826138,1534.031545064383,None,1535.7811709274247,None,1535.7811709274247,None,1536.2980845307175,None,1536.2980845307175,None,1536.2980845307175,None,n,0.088552590663312,1536.2980845307175,None,base8,001,2019_Oct_26_1430,ProdFawcett_Revision2019,3.2.4,59.9654239280865,
,,,,146,0,146,0,,,,,,,,,,,,,1538.5655619829777,None,,,,,,,,,,,,,,,,,,,,,,tennis,B_aloud1,146,323,1536.948671704944,None,1536.948671704944,None,1536.948671704944,None,1,0.669779498653952,1536.948671704944,None,1537.6694280649535,None,1537.6694280649535,None,1538.1985420165583,None,1538.1985420165583,None,1538.1985420165583,None,n,0.3243913665355649,1538.1985420165583,None,base8,001,2019_Oct_26_1430,ProdFawcett_Revision2019,3.2.4,59.9654239280865,
,,,,147,0,147,0,,,,,,,,,,,,,1542.816649561486,None,,,,,,,,,,,,,,,,,,,,,,report,B_aloud1,147,259,1539.0825838154124,None,1539.0825838154124,None,1539.0825838154124,None,5,2.2000460284762084,1539.0825838154124,None,1541.332907258824,None,1541.332907258824,None,1541.8498177520814,None,1541.8498177520814,None,1541.8498177520814,None,r,0.9203318405197933,1541.8498177520814,None,base8,001,2019_Oct_26_1430,ProdFawcett_Revision2019,3.2.4,59.9654239280865,
,,,,148,0,148,0,,,,,,,,,,,,,1545.4176027865906,None,,,,,,,,,,,,,,,,,,,,,,comfort,A_silent,148,59,1543.3334166822315,None,1543.3334166822315,None,1543.3334166822315,None,1,0.9648364122549538,1543.3334166822315,None,1544.350461839902,None,1544.350461839902,None,1544.8673483859166,None,1544.8673483859166,None,1544.8673483859166,None,n,0.5109983205911703,1544.8673483859166,None,base8,001,2019_Oct_26_1430,ProdFawcett_Revision2019,3.2.4,59.9654239280865,
,,,,149,0,149,0,,,,,,,,,,,,,1548.0349135411088,None,,,,,,,,,,,,,,,,,,,,,,disease,C_aloud2,149,97,1545.935507557384,None,1545.935507557384,None,1545.935507557384,None,1,1.1549250482057687,1545.935507557384,None,1547.1513575293939,None,1547.1513575293939,None,1547.6682813958032,None,1547.6682813958032,None,1547.6682813958032,None,n,0.3261329850065522,1547.6682813958032,None,base8,001,2019_Oct_26_1430,ProdFawcett_Revision2019,3.2.4,59.9654239280865,
,,,,150,0,150,0,,,,,,,,,,,,,1550.4191326118307,None,,,,,,,,,,,,,,,,,,,,,,whole,D_new,150,355,1548.551776450855,None,1548.551776450855,None,1548.551776450855,None,1,0.7621751570550259,1548.551776450855,None,1549.368739814643,None,1549.368739814643,None,1549.8856263606576,None,1549.8856263606576,None,1549.8856263606576,None,n,0.492710082733538,1549.8856263606576,None,base8,001,2019_Oct_26_1430,ProdFawcett_Revision2019,3.2.4,59.9654239280865,
,,,,151,0,151,0,,,,,,,,,,,,,1552.853208310029,None,,,,,,,,,,,,,,,,,,,,,,hearing,D_new,151,150,1550.9366234372137,None,1550.9366234372137,None,1550.9366234372137,None,1,1.0576404179737438,1550.9366234372137,None,1552.0406185855682,None,1552.0406185855682,None,1552.569658207387,None,1552.569658207387,None,1552.569658207387,None,n,0.24057660010294057,1552.569658207387,None,base8,001,2019_Oct_26_1430,ProdFawcett_Revision2019,3.2.4,59.9654239280865,
,,,,152,0,152,0,,,,,,,,,,,,,1556.304290601489,None,,,,,,,,,,,,,,,,,,,,,,capital,B_aloud1,152,40,1553.3705666480237,None,1553.3705666480237,None,1553.3705666480237,None,6,2.1349101200466976,1553.3705666480237,None,1555.5705971263524,None,1555.5705971263524,None,1556.0875489830214,None,1556.0875489830214,None,1556.0875489830214,None,r,0.17816103750374168,1556.0875489830214,None,base8,001,2019_Oct_26_1430,ProdFawcett_Revision2019,3.2.4,59.9654239280865,
,,,,153,0,153,0,,,,,,,,,,,,,1559.0051256453444,None,,,,,,,,,,,,,,,,,,,,,,institute,A_silent,153,162,1556.821262362384,None,1556.821262362384,None,1556.821262362384,None,6,1.2603536107635591,1556.821262362384,None,1558.1271129563975,None,1558.1271129563975,None,1558.6548880388145,None,1558.6548880388145,None,1558.6548880388145,None,r,0.3145076817891095,1558.6548880388145,None,base8,001,2019_Oct_26_1430,ProdFawcett_Revision2019,3.2.4,59.9654239280865,
