StudyTrials.thisRepN,StudyTrials.thisTrialN,StudyTrials.thisN,StudyTrials.thisIndex,TestTrials.thisRepN,TestTrials.thisTrialN,TestTrials.thisN,TestTrials.thisIndex,textWelcome.started,textWelcome.stopped,keyWelcome.keys,keyWelcome.rt,keyWelcome.started,keyWelcome.stopped,textReady.started,textReady.stopped,keyReady.keys,keyReady.rt,keyReady.started,keyReady.stopped,polyback_2.started,polyback_2.stopped,studyPic,studyWord,studyType,studyN,studyOrder,polyback_3.started,polyback_3.stopped,studyPicChoice.started,studyPicChoice.stopped,polyback_4.started,polyback_4.stopped,polyback.started,polyback.stopped,studyWords.started,studyWords.stopped,getResearcher.started,getResearcher.stopped,kPress2.keys,kPress2.rt,kPress2.started,kPress2.stopped,testWord,testType,testN,testOrder,polyback_5.started,polyback_5.stopped,testWords.started,testWords.stopped,textScale.started,textScale.stopped,keyConf.keys,keyConf.rt,keyConf.started,keyConf.stopped,polyback_6.started,polyback_6.stopped,studyWords_2.started,studyWords_2.stopped,polyback_7.started,polyback_7.stopped,testWords_2.started,testWords_2.stopped,textScale_2.started,textScale_2.stopped,keyRKN.keys,keyRKN.rt,keyRKN.started,keyRKN.stopped,participant,session,date,expName,psychopyVersion,frameRate,
,,,,,,,,20.513805199298076,None,space,229.62988431670237,20.513805199298076,None,,,,,,,,,,,,,,,,,,,,,,,,,,,,,,,,,,,,,,,,,,,,,,,,,,,,,,,,,,base3,001,2019_Oct_22_1657,ProdFawcett_Revision2019,3.2.4,59.93716272586252,
,,,,,,,,,,,,,,250.16602470783982,None,space,4.8893587429774925,250.16602470783982,None,,,,,,,,,,,,,,,,,,,,,,,,,,,,,,,,,,,,,,,,,,,,,,,,,,,,base3,001,2019_Oct_22_1657,ProdFawcett_Revision2019,3.2.4,59.93716272586252,
0,0,0,0,,,,,,,,,,,,,,,,,259.86897819535807,None,materials/mumblePic.jpg,title,C_aloud2,0,331,256.187890598434,None,256.187890598434,None,257.1194992006058,None,257.3847927750321,None,257.3847927750321,None,,,,,,,,,,,,,,,,,,,,,,,,,,,,,,,,,,,base3,001,2019_Oct_22_1657,ProdFawcett_Revision2019,3.2.4,59.93716272586252,
1,0,1,0,,,,,,,,,,,,,,,,,264.1369588224916,None,materials/readPic.jpg,curve,A_silent,1,82,260.4695347636007,None,260.4695347636007,None,261.386279362021,None,261.6527419909835,None,261.6527419909835,None,,,,,,,,,,,,,,,,,,,,,,,,,,,,,,,,,,,base3,001,2019_Oct_22_1657,ProdFawcett_Revision2019,3.2.4,59.93716272586252,
2,0,2,0,,,,,,,,,,,,,,,,,268.40471926052123,None,materials/mumblePic.jpg,rapid,C_aloud2,2,252,264.70489600265864,None,264.70489600265864,None,265.65425812313333,None,265.92070644604973,None,265.92070644604973,None,,,,,,,,,,,,,,,,,,,,,,,,,,,,,,,,,,,base3,001,2019_Oct_22_1657,ProdFawcett_Revision2019,3.2.4,59.93716272586252,
3,0,3,0,,,,,,,,,,,,,,,,,272.6728581873467,None,materials/readPic.jpg,thing,A_silent,3,328,269.0054104924202,None,269.0054104924202,None,269.92219334398396,None,270.18868240807205,None,270.18868240807205,None,,,,,,,,,,,,,,,,,,,,,,,,,,,,,,,,,,,base3,001,2019_Oct_22_1657,ProdFawcett_Revision2019,3.2.4,59.93716272586252,
4,0,4,0,,,,,,,,,,,,,,,,,276.9408198434394,None,materials/readPic.jpg,council,A_silent,4,71,273.2577542770887,None,273.2577542770887,None,274.1901817461476,None,274.4566226049792,None,274.4566226049792,None,,,,,,,,,,,,,,,,,,,,,,,,,,,,,,,,,,,base3,001,2019_Oct_22_1657,ProdFawcett_Revision2019,3.2.4,59.93716272586252,
5,0,5,0,,,,,,,,,,,,,,,,,281.20879922644235,None,materials/readPic.jpg,grade,A_silent,5,140,277.523972459021,None,277.523972459021,None,278.4581751243677,None,278.7246097631287,None,278.7246097631287,None,,,,,,,,,,,,,,,,,,,,,,,,,,,,,,,,,,,base3,001,2019_Oct_22_1657,ProdFawcett_Revision2019,3.2.4,59.93716272586252,
6,0,6,0,,,,,,,,,,,,,,,,,285.4767425333848,None,materials/speakPic.jpg,hunger,B_aloud1,6,155,281.7962893793592,None,281.7962893793592,None,282.72611252218485,None,282.9925729741808,None,282.9925729741808,None,,,,,,,,,,,,,,,,,,,,,,,,,,,,,,,,,,,base3,001,2019_Oct_22_1657,ProdFawcett_Revision2019,3.2.4,59.93716272586252,
7,0,7,0,,,,,,,,,,,,,,,,,289.7447082324652,None,materials/speakPic.jpg,bucket,B_aloud1,7,33,286.05990572308656,None,286.05990572308656,None,286.9940723122563,None,287.26051223813556,None,287.26051223813556,None,,,,,,,,,,,,,,,,,,,,,,,,,,,,,,,,,,,base3,001,2019_Oct_22_1657,ProdFawcett_Revision2019,3.2.4,59.93716272586252,
8,0,8,0,,,,,,,,,,,,,,,,,294.0126742424909,None,materials/speakPic.jpg,minute,B_aloud1,8,192,290.3165024527116,None,290.3165024527116,None,291.26199602603447,None,291.5286993701011,None,291.5286993701011,None,,,,,,,,,,,,,,,,,,,,,,,,,,,,,,,,,,,base3,001,2019_Oct_22_1657,ProdFawcett_Revision2019,3.2.4,59.93716272586252,
9,0,9,0,,,,,,,,,,,,,,,,,298.28064149653073,None,materials/speakPic.jpg,incident,B_aloud1,9,158,294.5814293564763,None,294.5814293564763,None,295.53005036048125,None,295.7965167214861,None,295.7965167214861,None,,,,,,,,,,,,,,,,,,,,,,,,,,,,,,,,,,,base3,001,2019_Oct_22_1657,ProdFawcett_Revision2019,3.2.4,59.93716272586252,
10,0,10,0,,,,,,,,,,,,,,,,,302.5485944445245,None,materials/readPic.jpg,graduate,A_silent,10,141,298.88186422979925,None,298.88186422979925,None,299.79800766252447,None,300.06441524415277,None,300.06441524415277,None,,,,,,,,,,,,,,,,,,,,,,,,,,,,,,,,,,,base3,001,2019_Oct_22_1657,ProdFawcett_Revision2019,3.2.4,59.93716272586252,
11,0,11,0,,,,,,,,,,,,,,,,,306.8165769375628,None,materials/mumblePic.jpg,sweet,C_aloud2,11,319,303.13530398369767,None,303.13530398369767,None,304.0659372853115,None,304.3328689044574,None,304.3328689044574,None,,,,,,,,,,,,,,,,,,,,,,,,,,,,,,,,,,,base3,001,2019_Oct_22_1657,ProdFawcett_Revision2019,3.2.4,59.93716272586252,
12,0,12,0,,,,,,,,,,,,,,,,,311.0845466796309,None,materials/speakPic.jpg,corner,B_aloud1,12,69,307.43382744211704,None,307.43382744211704,None,308.3338998743566,None,308.6003338912269,None,308.6003338912269,None,,,,,,,,,,,,,,,,,,,,,,,,,,,,,,,,,,,base3,001,2019_Oct_22_1657,ProdFawcett_Revision2019,3.2.4,59.93716272586252,
13,0,13,0,,,,,,,,,,,,,,,,,315.35249402956106,None,materials/speakPic.jpg,trend,B_aloud1,13,340,311.6543383614626,None,311.6543383614626,None,312.60180244012736,None,312.86829461413436,None,312.86829461413436,None,,,,,,,,,,,,,,,,,,,,,,,,,,,,,,,,,,,base3,001,2019_Oct_22_1657,ProdFawcett_Revision2019,3.2.4,59.93716272586252,
14,0,14,0,,,,,,,,,,,,,,,,,319.6204528865637,None,materials/mumblePic.jpg,junior,C_aloud2,14,167,315.9206566858338,None,315.9206566858338,None,316.8697920861887,None,317.136313183466,None,317.136313183466,None,,,,,,,,,,,,,,,,,,,,,,,,,,,,,,,,,,,base3,001,2019_Oct_22_1657,ProdFawcett_Revision2019,3.2.4,59.93716272586252,
15,0,15,0,,,,,,,,,,,,,,,,,323.8884067675099,None,materials/readPic.jpg,narrow,A_silent,15,197,320.22151825320907,None,320.22151825320907,None,321.13777426828165,None,321.3941088237334,None,321.3941088237334,None,,,,,,,,,,,,,,,,,,,,,,,,,,,,,,,,,,,base3,001,2019_Oct_22_1657,ProdFawcett_Revision2019,3.2.4,59.93716272586252,
16,0,16,0,,,,,,,,,,,,,,,,,328.15639205963816,None,materials/speakPic.jpg,minor,B_aloud1,16,191,324.4731159453513,None,324.4731159453513,None,325.40569456107914,None,325.6721795821795,None,325.6721795821795,None,,,,,,,,,,,,,,,,,,,,,,,,,,,,,,,,,,,base3,001,2019_Oct_22_1657,ProdFawcett_Revision2019,3.2.4,59.93716272586252,
17,0,17,0,,,,,,,,,,,,,,,,,332.42434314161073,None,materials/mumblePic.jpg,election,C_aloud2,17,109,328.71194485074375,None,328.71194485074375,None,329.6737050443189,None,329.9401502573164,None,329.9401502573164,None,,,,,,,,,,,,,,,,,,,,,,,,,,,,,,,,,,,base3,001,2019_Oct_22_1657,ProdFawcett_Revision2019,3.2.4,59.93716272586252,
18,0,18,0,,,,,,,,,,,,,,,,,336.6922991996398,None,materials/mumblePic.jpg,height,C_aloud2,18,152,332.9757201161701,None,332.9757201161701,None,333.94171490555163,None,334.2080948081566,None,334.2080948081566,None,,,,,,,,,,,,,,,,,,,,,,,,,,,,,,,,,,,base3,001,2019_Oct_22_1657,ProdFawcett_Revision2019,3.2.4,59.93716272586252,
19,0,19,0,,,,,,,,,,,,,,,,,340.96027609473094,None,materials/readPic.jpg,disease,A_silent,19,97,337.2929042840842,None,337.2929042840842,None,338.2096880687168,None,338.4760782342637,None,338.4760782342637,None,,,,,,,,,,,,,,,,,,,,,,,,,,,,,,,,,,,base3,001,2019_Oct_22_1657,ProdFawcett_Revision2019,3.2.4,59.93716272586252,
20,0,20,0,,,,,,,,,,,,,,,,,345.2282166025834,None,materials/readPic.jpg,dispute,A_silent,20,99,341.54342249024194,None,341.54342249024194,None,342.47763324156404,None,342.7440255841939,None,342.7440255841939,None,,,,,,,,,,,,,,,,,,,,,,,,,,,,,,,,,,,base3,001,2019_Oct_22_1657,ProdFawcett_Revision2019,3.2.4,59.93716272586252,
21,0,21,0,,,,,,,,,,,,,,,,,349.4961959857028,None,materials/readPic.jpg,dance,A_silent,21,84,345.7996373100905,None,345.7996373100905,None,346.74556255340576,None,347.01199874735903,None,347.01199874735903,None,,,,,,,,,,,,,,,,,,,,,,,,,,,,,,,,,,,base3,001,2019_Oct_22_1657,ProdFawcett_Revision2019,3.2.4,59.93716272586252,
22,0,22,0,,,,,,,,,,,,,,,,,353.7641710147727,None,materials/mumblePic.jpg,whole,C_aloud2,22,355,350.06433531676885,None,350.06433531676885,None,351.01360506983474,None,351.27997284336016,None,351.27997284336016,None,,,,,,,,,,,,,,,,,,,,,,,,,,,,,,,,,,,base3,001,2019_Oct_22_1657,ProdFawcett_Revision2019,3.2.4,59.93716272586252,
23,0,23,0,,,,,,,,,,,,,,,,,358.03211898671,None,materials/readPic.jpg,drama,A_silent,23,103,354.36472571699414,None,354.36472571699414,None,355.2814737363951,None,355.54792516934685,None,355.54792516934685,None,,,,,,,,,,,,,,,,,,,,,,,,,,,,,,,,,,,base3,001,2019_Oct_22_1657,ProdFawcett_Revision2019,3.2.4,59.93716272586252,
24,0,24,0,,,,,,,,,,,,,,,,,362.30006726959255,None,materials/speakPic.jpg,figure,B_aloud1,24,128,358.616877613822,None,358.616877613822,None,359.54942419636063,None,359.8159176144982,None,359.8159176144982,None,,,,,,,,,,,,,,,,,,,,,,,,,,,,,,,,,,,base3,001,2019_Oct_22_1657,ProdFawcett_Revision2019,3.2.4,59.93716272586252,
25,0,25,0,,,,,,,,,,,,,,,,,366.56804603070486,None,materials/speakPic.jpg,session,B_aloud1,25,281,362.88333308976144,None,362.88333308976144,None,363.8174530286342,None,364.08384630433284,None,364.08384630433284,None,,,,,,,,,,,,,,,,,,,,,,,,,,,,,,,,,,,base3,001,2019_Oct_22_1657,ProdFawcett_Revision2019,3.2.4,59.93716272586252,
26,0,26,0,,,,,,,,,,,,,,,,,370.836006442667,None,materials/readPic.jpg,express,A_silent,26,124,367.1692348648794,None,367.1692348648794,None,368.0853499963414,None,368.35189006477594,None,368.35189006477594,None,,,,,,,,,,,,,,,,,,,,,,,,,,,,,,,,,,,base3,001,2019_Oct_22_1657,ProdFawcett_Revision2019,3.2.4,59.93716272586252,
27,0,27,0,,,,,,,,,,,,,,,,,375.103975562728,None,materials/readPic.jpg,speech,A_silent,27,298,371.4191798954271,None,371.4191798954271,None,372.3533831827808,None,372.6197711713612,None,372.6197711713612,None,,,,,,,,,,,,,,,,,,,,,,,,,,,,,,,,,,,base3,001,2019_Oct_22_1657,ProdFawcett_Revision2019,3.2.4,59.93716272586252,
28,0,28,0,,,,,,,,,,,,,,,,,379.37193317571655,None,materials/speakPic.jpg,pattern,B_aloud1,28,214,375.6887220607605,None,375.6887220607605,None,376.62131467158906,None,376.8877527314471,None,376.8877527314471,None,,,,,,,,,,,,,,,,,,,,,,,,,,,,,,,,,,,base3,001,2019_Oct_22_1657,ProdFawcett_Revision2019,3.2.4,59.93716272586252,
29,0,29,0,,,,,,,,,,,,,,,,,383.63989638676867,None,materials/mumblePic.jpg,machinery,C_aloud2,29,175,379.9397611944005,None,379.9397611944005,None,380.88910434383433,None,381.15571034443565,None,381.15571034443565,None,,,,,,,,,,,,,,,,,,,,,,,,,,,,,,,,,,,base3,001,2019_Oct_22_1657,ProdFawcett_Revision2019,3.2.4,59.93716272586252,
30,0,30,0,,,,,,,,,,,,,,,,,387.9078773248475,None,materials/mumblePic.jpg,interview,C_aloud2,30,165,384.1898244054755,None,384.1898244054755,None,385.1572507346282,None,385.4236853735056,None,385.4236853735056,None,,,,,,,,,,,,,,,,,,,,,,,,,,,,,,,,,,,base3,001,2019_Oct_22_1657,ProdFawcett_Revision2019,3.2.4,59.93716272586252,
31,0,31,0,,,,,,,,,,,,,,,,,392.17580694775097,None,materials/mumblePic.jpg,instrument,C_aloud2,31,163,388.4471924188547,None,388.4471924188547,None,389.42520461569075,None,389.69163179048337,None,389.69163179048337,None,,,,,,,,,,,,,,,,,,,,,,,,,,,,,,,,,,,base3,001,2019_Oct_22_1657,ProdFawcett_Revision2019,3.2.4,59.93716272586252,
32,0,32,0,,,,,,,,,,,,,,,,,396.44377979973797,None,materials/mumblePic.jpg,principal,C_aloud2,32,236,392.71537675184663,None,392.71537675184663,None,393.6931752907112,None,393.9595981114544,None,393.9595981114544,None,,,,,,,,,,,,,,,,,,,,,,,,,,,,,,,,,,,base3,001,2019_Oct_22_1657,ProdFawcett_Revision2019,3.2.4,59.93716272586252,
33,0,33,0,,,,,,,,,,,,,,,,,400.71174954180606,None,materials/speakPic.jpg,drove,B_aloud1,33,106,397.03385810682084,None,397.03385810682084,None,397.9611674248008,None,398.2275463944534,None,398.2275463944534,None,,,,,,,,,,,,,,,,,,,,,,,,,,,,,,,,,,,base3,001,2019_Oct_22_1657,ProdFawcett_Revision2019,3.2.4,59.93716272586252,
34,0,34,0,,,,,,,,,,,,,,,,,404.97970466676634,None,materials/speakPic.jpg,notice,B_aloud1,34,201,401.28359258931596,None,401.28359258931596,None,402.22914836299606,None,402.4955099164508,None,402.4955099164508,None,,,,,,,,,,,,,,,,,,,,,,,,,,,,,,,,,,,base3,001,2019_Oct_22_1657,ProdFawcett_Revision2019,3.2.4,59.93716272586252,
35,0,35,0,,,,,,,,,,,,,,,,,409.2476731648203,None,materials/mumblePic.jpg,opening,C_aloud2,35,205,405.53744535322767,None,405.53744535322767,None,406.49708918191027,None,406.7636177431559,None,406.7636177431559,None,,,,,,,,,,,,,,,,,,,,,,,,,,,,,,,,,,,base3,001,2019_Oct_22_1657,ProdFawcett_Revision2019,3.2.4,59.93716272586252,
36,0,36,0,,,,,,,,,,,,,,,,,413.51564166287426,None,materials/readPic.jpg,management,A_silent,36,177,409.8538840506226,None,409.8538840506226,None,410.7652411707677,None,411.0314864097163,None,411.0314864097163,None,,,,,,,,,,,,,,,,,,,,,,,,,,,,,,,,,,,base3,001,2019_Oct_22_1657,ProdFawcett_Revision2019,3.2.4,59.93716272586252,
37,0,37,0,,,,,,,,,,,,,,,,,417.78359025681857,None,materials/readPic.jpg,style,A_silent,37,311,414.0989227220416,None,414.0989227220416,None,415.0330224459758,None,415.29941198951565,None,415.29941198951565,None,,,,,,,,,,,,,,,,,,,,,,,,,,,,,,,,,,,base3,001,2019_Oct_22_1657,ProdFawcett_Revision2019,3.2.4,59.93716272586252,
38,0,38,0,,,,,,,,,,,,,,,,,422.05155315680895,None,materials/mumblePic.jpg,region,C_aloud2,38,256,418.342349161976,None,418.342349161976,None,419.3009893889539,None,419.56736524857115,None,419.56736524857115,None,,,,,,,,,,,,,,,,,,,,,,,,,,,,,,,,,,,base3,001,2019_Oct_22_1657,ProdFawcett_Revision2019,3.2.4,59.93716272586252,
39,0,39,0,,,,,,,,,,,,,,,,,426.31953067390714,None,materials/readPic.jpg,travel,A_silent,39,338,422.65229414892383,None,422.65229414892383,None,423.5689504229231,None,423.8353636027314,None,423.8353636027314,None,,,,,,,,,,,,,,,,,,,,,,,,,,,,,,,,,,,base3,001,2019_Oct_22_1657,ProdFawcett_Revision2019,3.2.4,59.93716272586252,
40,0,40,0,,,,,,,,,,,,,,,,,430.5874932629522,None,materials/speakPic.jpg,revolution,B_aloud1,40,264,426.920941252145,None,426.920941252145,None,427.8368856438901,None,428.08935320714954,None,428.08935320714954,None,,,,,,,,,,,,,,,,,,,,,,,,,,,,,,,,,,,base3,001,2019_Oct_22_1657,ProdFawcett_Revision2019,3.2.4,59.93716272586252,
41,0,41,0,,,,,,,,,,,,,,,,,434.85547046898864,None,materials/speakPic.jpg,listen,B_aloud1,41,172,431.16040055744816,None,431.16040055744816,None,432.1048914620187,None,432.3713027758058,None,432.3713027758058,None,,,,,,,,,,,,,,,,,,,,,,,,,,,,,,,,,,,base3,001,2019_Oct_22_1657,ProdFawcett_Revision2019,3.2.4,59.93716272586252,
42,0,42,0,,,,,,,,,,,,,,,,,439.12341315392405,None,materials/speakPic.jpg,crisis,B_aloud1,42,79,435.4219627364073,None,435.4219627364073,None,436.3728506300831,None,436.63922337966505,None,436.63922337966505,None,,,,,,,,,,,,,,,,,,,,,,,,,,,,,,,,,,,base3,001,2019_Oct_22_1657,ProdFawcett_Revision2019,3.2.4,59.93716272586252,
43,0,43,0,,,,,,,,,,,,,,,,,443.3914164841408,None,materials/readPic.jpg,judge,A_silent,43,166,439.72462500224356,None,439.72462500224356,None,440.6404440603219,None,440.9070382429054,None,440.9070382429054,None,,,,,,,,,,,,,,,,,,,,,,,,,,,,,,,,,,,base3,001,2019_Oct_22_1657,ProdFawcett_Revision2019,3.2.4,59.93716272586252,
44,0,44,0,,,,,,,,,,,,,,,,,447.6593504609773,None,materials/readPic.jpg,public,A_silent,44,244,443.9745115644764,None,443.9745115644764,None,444.9087826501345,None,445.17515228968114,None,445.17515228968114,None,,,,,,,,,,,,,,,,,,,,,,,,,,,,,,,,,,,base3,001,2019_Oct_22_1657,ProdFawcett_Revision2019,3.2.4,59.93716272586252,
45,0,45,0,,,,,,,,,,,,,,,,,451.92729843303096,None,materials/readPic.jpg,escape,A_silent,45,118,448.24247322045267,None,448.24247322045267,None,449.17671880405396,None,449.4431198546663,None,449.4431198546663,None,,,,,,,,,,,,,,,,,,,,,,,,,,,,,,,,,,,base3,001,2019_Oct_22_1657,ProdFawcett_Revision2019,3.2.4,59.93716272586252,
46,0,46,0,,,,,,,,,,,,,,,,,456.1952638210496,None,materials/speakPic.jpg,audience,B_aloud1,46,14,452.51589730614796,None,452.51589730614796,None,453.4446723739384,None,453.711079333676,None,453.711079333676,None,,,,,,,,,,,,,,,,,,,,,,,,,,,,,,,,,,,base3,001,2019_Oct_22_1657,ProdFawcett_Revision2019,3.2.4,59.93716272586252,
47,0,47,0,,,,,,,,,,,,,,,,,460.4632444480667,None,materials/speakPic.jpg,voice,B_aloud1,47,348,456.77855358819943,None,456.77855358819943,None,457.71259017882403,None,457.9792471836554,None,457.9792471836554,None,,,,,,,,,,,,,,,,,,,,,,,,,,,,,,,,,,,base3,001,2019_Oct_22_1657,ProdFawcett_Revision2019,3.2.4,59.93716272586252,
48,0,48,0,,,,,,,,,,,,,,,,,464.73119739606045,None,materials/mumblePic.jpg,broke,C_aloud2,48,32,461.0478783636354,None,461.0478783636354,None,461.98059226502664,None,462.24700668873265,None,462.24700668873265,None,,,,,,,,,,,,,,,,,,,,,,,,,,,,,,,,,,,base3,001,2019_Oct_22_1657,ProdFawcett_Revision2019,3.2.4,59.93716272586252,
49,0,49,0,,,,,,,,,,,,,,,,,468.9991571860155,None,materials/speakPic.jpg,research,B_aloud1,49,261,465.31510108010843,None,465.31510108010843,None,466.24855050002225,None,466.5149674117565,None,466.5149674117565,None,,,,,,,,,,,,,,,,,,,,,,,,,,,,,,,,,,,base3,001,2019_Oct_22_1657,ProdFawcett_Revision2019,3.2.4,59.93716272586252,
50,0,50,0,,,,,,,,,,,,,,,,,473.26712444005534,None,materials/speakPic.jpg,raise,B_aloud1,50,250,469.5656681135297,None,469.5656681135297,None,470.51651775394566,None,470.7829128956655,None,470.7829128956655,None,,,,,,,,,,,,,,,,,,,,,,,,,,,,,,,,,,,base3,001,2019_Oct_22_1657,ProdFawcett_Revision2019,3.2.4,59.93716272586252,
51,0,51,0,,,,,,,,,,,,,,,,,477.5350686800666,None,materials/readPic.jpg,tennis,A_silent,51,323,473.86833348940127,None,473.86833348940127,None,474.7844302718295,None,475.05090938380454,None,475.05090938380454,None,,,,,,,,,,,,,,,,,,,,,,,,,,,,,,,,,,,base3,001,2019_Oct_22_1657,ProdFawcett_Revision2019,3.2.4,59.93716272586252,
52,0,52,0,,,,,,,,,,,,,,,,,481.80305957014207,None,materials/readPic.jpg,committee,A_silent,52,62,478.11823124764487,None,478.11823124764487,None,479.0524842952145,None,479.3188508247258,None,479.3188508247258,None,,,,,,,,,,,,,,,,,,,,,,,,,,,,,,,,,,,base3,001,2019_Oct_22_1657,ProdFawcett_Revision2019,3.2.4,59.93716272586252,
53,0,53,0,,,,,,,,,,,,,,,,,486.07100598711986,None,materials/speakPic.jpg,science,B_aloud1,53,275,482.38778678607196,None,482.38778678607196,None,483.3204307121923,None,483.5868106147973,None,483.5868106147973,None,,,,,,,,,,,,,,,,,,,,,,,,,,,,,,,,,,,base3,001,2019_Oct_22_1657,ProdFawcett_Revision2019,3.2.4,59.93716272586252,
54,0,54,0,,,,,,,,,,,,,,,,,490.3389654661296,None,materials/speakPic.jpg,worker,B_aloud1,54,356,486.65415829163976,None,486.65415829163976,None,487.58836873201653,None,487.85478408879135,None,487.85478408879135,None,,,,,,,,,,,,,,,,,,,,,,,,,,,,,,,,,,,base3,001,2019_Oct_22_1657,ProdFawcett_Revision2019,3.2.4,59.93716272586252,
55,0,55,0,,,,,,,,,,,,,,,,,494.60693676315714,None,materials/mumblePic.jpg,split,C_aloud2,55,299,490.9068933163071,None,490.9068933163071,None,491.85634562710766,None,492.1227516538929,None,492.1227516538929,None,,,,,,,,,,,,,,,,,,,,,,,,,,,,,,,,,,,base3,001,2019_Oct_22_1657,ProdFawcett_Revision2019,3.2.4,59.93716272586252,
56,0,56,0,,,,,,,,,,,,,,,,,498.87459363776725,None,materials/mumblePic.jpg,scene,C_aloud2,56,273,495.15705698076636,None,495.15705698076636,None,496.12430977111217,None,496.39071113278624,None,496.39071113278624,None,,,,,,,,,,,,,,,,,,,,,,,,,,,,,,,,,,,base3,001,2019_Oct_22_1657,ProdFawcett_Revision2019,3.2.4,59.93716272586252,
57,0,57,0,,,,,,,,,,,,,,,,,503.14286474022083,None,materials/mumblePic.jpg,prime,C_aloud2,57,235,499.4155166092096,None,499.4155166092096,None,500.3922760921996,None,500.658650396741,None,500.658650396741,None,,,,,,,,,,,,,,,,,,,,,,,,,,,,,,,,,,,base3,001,2019_Oct_22_1657,ProdFawcett_Revision2019,3.2.4,59.93716272586252,
58,0,58,0,,,,,,,,,,,,,,,,,507.41084256826434,None,materials/readPic.jpg,production,A_silent,58,240,503.74931509711314,None,503.74931509711314,None,504.6602212651633,None,504.9266114307102,None,504.9266114307102,None,,,,,,,,,,,,,,,,,,,,,,,,,,,,,,,,,,,base3,001,2019_Oct_22_1657,ProdFawcett_Revision2019,3.2.4,59.93716272586252,
59,0,59,0,,,,,,,,,,,,,,,,,511.67878027714323,None,materials/mumblePic.jpg,victory,C_aloud2,59,346,507.9788192457054,None,507.9788192457054,None,508.92819598317146,None,509.1945845937589,None,509.1945845937589,None,,,,,,,,,,,,,,,,,,,,,,,,,,,,,,,,,,,base3,001,2019_Oct_22_1657,ProdFawcett_Revision2019,3.2.4,59.93716272586252,
60,0,60,0,,,,,,,,,,,,,,,,,515.9467413112288,None,materials/mumblePic.jpg,court,C_aloud2,60,75,512.2287869792199,None,512.2287869792199,None,513.1961489311652,None,513.46255371382,None,513.46255371382,None,,,,,,,,,,,,,,,,,,,,,,,,,,,,,,,,,,,base3,001,2019_Oct_22_1657,ProdFawcett_Revision2019,3.2.4,59.93716272586252,
61,0,61,0,,,,,,,,,,,,,,,,,520.2147116751876,None,materials/speakPic.jpg,count,B_aloud1,61,72,516.5306067421334,None,516.5306067421334,None,517.4640001816442,None,517.7305219009286,None,517.7305219009286,None,,,,,,,,,,,,,,,,,,,,,,,,,,,,,,,,,,,base3,001,2019_Oct_22_1657,ProdFawcett_Revision2019,3.2.4,59.93716272586252,
62,0,62,0,,,,,,,,,,,,,,,,,524.482661513146,None,materials/readPic.jpg,couch,A_silent,62,70,520.8164646660443,None,520.8164646660443,None,521.7321369315032,None,521.9985641062958,None,521.9985641062958,None,,,,,,,,,,,,,,,,,,,,,,,,,,,,,,,,,,,base3,001,2019_Oct_22_1657,ProdFawcett_Revision2019,3.2.4,59.93716272586252,
63,0,63,0,,,,,,,,,,,,,,,,,528.7508327842224,None,materials/mumblePic.jpg,shape,C_aloud2,63,282,525.0506994578755,None,525.0506994578755,None,526.0003393025836,None,526.2664365048986,None,526.2664365048986,None,,,,,,,,,,,,,,,,,,,,,,,,,,,,,,,,,,,base3,001,2019_Oct_22_1657,ProdFawcett_Revision2019,3.2.4,59.93716272586252,
64,0,64,0,,,,,,,,,,,,,,,,,533.0186078393599,None,materials/mumblePic.jpg,carry,C_aloud2,64,43,529.2913579847664,None,529.2913579847664,None,530.2680045742309,None,530.534379189834,None,530.534379189834,None,,,,,,,,,,,,,,,,,,,,,,,,,,,,,,,,,,,base3,001,2019_Oct_22_1657,ProdFawcett_Revision2019,3.2.4,59.93716272586252,
65,0,65,0,,,,,,,,,,,,,,,,,537.2865579882637,None,materials/speakPic.jpg,block,B_aloud1,65,25,533.6035512012895,None,533.6035512012895,None,534.5359581442317,None,534.8023458218668,None,534.8023458218668,None,,,,,,,,,,,,,,,,,,,,,,,,,,,,,,,,,,,base3,001,2019_Oct_22_1657,ProdFawcett_Revision2019,3.2.4,59.93716272586252,
66,0,66,0,,,,,,,,,,,,,,,,,541.5545165342046,None,materials/readPic.jpg,close,A_silent,66,53,537.8878037356772,None,537.8878037356772,None,538.8039309962187,None,539.0703189849155,None,539.0703189849155,None,,,,,,,,,,,,,,,,,,,,,,,,,,,,,,,,,,,base3,001,2019_Oct_22_1657,ProdFawcett_Revision2019,3.2.4,59.93716272586252,
67,0,67,0,,,,,,,,,,,,,,,,,545.8224834772991,None,materials/readPic.jpg,attack,A_silent,67,13,542.1376797239063,None,542.1376797239063,None,543.0719243744388,None,543.3382884159219,None,543.3382884159219,None,,,,,,,,,,,,,,,,,,,,,,,,,,,,,,,,,,,base3,001,2019_Oct_22_1657,ProdFawcett_Revision2019,3.2.4,59.93716272586252,
68,0,68,0,,,,,,,,,,,,,,,,,550.090441401233,None,materials/mumblePic.jpg,growth,C_aloud2,68,144,546.3793194603641,None,546.3793194603641,None,547.3401024874765,None,547.6062531819334,None,547.6062531819334,None,,,,,,,,,,,,,,,,,,,,,,,,,,,,,,,,,,,base3,001,2019_Oct_22_1657,ProdFawcett_Revision2019,3.2.4,59.93716272586252,
69,0,69,0,,,,,,,,,,,,,,,,,554.3584058562992,None,materials/readPic.jpg,skill,A_silent,69,289,550.6985630799318,None,550.6985630799318,None,551.6078234283486,None,551.8742145269644,None,551.8742145269644,None,,,,,,,,,,,,,,,,,,,,,,,,,,,,,,,,,,,base3,001,2019_Oct_22_1657,ProdFawcett_Revision2019,3.2.4,59.93716272586252,
70,0,70,0,,,,,,,,,,,,,,,,,558.6263681342825,None,materials/mumblePic.jpg,property,C_aloud2,70,242,554.9264438009122,None,554.9264438009122,None,555.8758006343851,None,556.1421671638964,None,556.1421671638964,None,,,,,,,,,,,,,,,,,,,,,,,,,,,,,,,,,,,base3,001,2019_Oct_22_1657,ProdFawcett_Revision2019,3.2.4,59.93716272586252,
71,0,71,0,,,,,,,,,,,,,,,,,562.8943384983577,None,materials/mumblePic.jpg,weather,C_aloud2,71,352,559.1428454581182,None,559.1428454581182,None,560.1436329138232,None,560.4101384609239,None,560.4101384609239,None,,,,,,,,,,,,,,,,,,,,,,,,,,,,,,,,,,,base3,001,2019_Oct_22_1657,ProdFawcett_Revision2019,3.2.4,59.93716272586252,
72,0,72,0,,,,,,,,,,,,,,,,,567.1622824273072,None,materials/readPic.jpg,benefit,A_silent,72,20,563.4856402851874,None,563.4856402851874,None,564.4117342095124,None,564.6780929639935,None,564.6780929639935,None,,,,,,,,,,,,,,,,,,,,,,,,,,,,,,,,,,,base3,001,2019_Oct_22_1657,ProdFawcett_Revision2019,3.2.4,59.93716272586252,
73,0,73,0,,,,,,,,,,,,,,,,,571.430263365386,None,materials/readPic.jpg,fellow,A_silent,73,126,567.7498394454597,None,567.7498394454597,None,568.6796585452976,None,568.9460515099345,None,568.9460515099345,None,,,,,,,,,,,,,,,,,,,,,,,,,,,,,,,,,,,base3,001,2019_Oct_22_1657,ProdFawcett_Revision2019,3.2.4,59.93716272586252,
74,0,74,0,,,,,,,,,,,,,,,,,575.6982172463322,None,materials/mumblePic.jpg,under,C_aloud2,74,343,571.9985295850784,None,571.9985295850784,None,572.9476326414151,None,573.2140971363988,None,573.2140971363988,None,,,,,,,,,,,,,,,,,,,,,,,,,,,,,,,,,,,base3,001,2019_Oct_22_1657,ProdFawcett_Revision2019,3.2.4,59.93716272586252,
75,0,75,0,,,,,,,,,,,,,,,,,579.966198184411,None,materials/readPic.jpg,danger,A_silent,75,85,576.29880957969,None,576.29880957969,None,577.2156521436991,None,577.4819881949807,None,577.4819881949807,None,,,,,,,,,,,,,,,,,,,,,,,,,,,,,,,,,,,base3,001,2019_Oct_22_1657,ProdFawcett_Revision2019,3.2.4,59.93716272586252,
76,0,76,0,,,,,,,,,,,,,,,,,584.2341461563483,None,materials/speakPic.jpg,afternoon,B_aloud1,76,3,580.5675807725638,None,580.5675807725638,None,581.4834803800331,None,581.7499930802733,None,581.7499930802733,None,,,,,,,,,,,,,,,,,,,,,,,,,,,,,,,,,,,base3,001,2019_Oct_22_1657,ProdFawcett_Revision2019,3.2.4,59.93716272586252,
77,0,77,0,,,,,,,,,,,,,,,,,588.5021043913439,None,materials/mumblePic.jpg,pretty,C_aloud2,77,233,584.8020310883876,None,584.8020310883876,None,585.7515107673826,None,586.0179335881257,None,586.0179335881257,None,,,,,,,,,,,,,,,,,,,,,,,,,,,,,,,,,,,base3,001,2019_Oct_22_1657,ProdFawcett_Revision2019,3.2.4,59.93716272586252,
78,0,78,0,,,,,,,,,,,,,,,,,592.770083463518,None,materials/speakPic.jpg,industry,B_aloud1,78,161,589.0870919155423,None,589.0870919155423,None,590.0194061800139,None,590.2858936891425,None,590.2858936891425,None,,,,,,,,,,,,,,,,,,,,,,,,,,,,,,,,,,,base3,001,2019_Oct_22_1657,ProdFawcett_Revision2019,3.2.4,59.93716272586252,
79,0,79,0,,,,,,,,,,,,,,,,,597.0380364113953,None,materials/mumblePic.jpg,phrase,C_aloud2,79,220,593.3256769957952,None,593.3256769957952,None,594.287493791664,None,594.5539355835645,None,594.5539355835645,None,,,,,,,,,,,,,,,,,,,,,,,,,,,,,,,,,,,base3,001,2019_Oct_22_1657,ProdFawcett_Revision2019,3.2.4,59.93716272586252,
80,0,80,0,,,,,,,,,,,,,,,,,601.3059784743236,None,materials/speakPic.jpg,position,B_aloud1,80,229,597.6386402518256,None,597.6386402518256,None,598.5554849928012,None,598.8218316182029,None,598.8218316182029,None,,,,,,,,,,,,,,,,,,,,,,,,,,,,,,,,,,,base3,001,2019_Oct_22_1657,ProdFawcett_Revision2019,3.2.4,59.93716272586252,
81,0,81,0,,,,,,,,,,,,,,,,,605.5742900070036,None,materials/readPic.jpg,nation,A_silent,81,198,601.9072260877583,None,601.9072260877583,None,602.823357391404,None,603.0898047812516,None,603.0898047812516,None,,,,,,,,,,,,,,,,,,,,,,,,,,,,,,,,,,,base3,001,2019_Oct_22_1657,ProdFawcett_Revision2019,3.2.4,59.93716272586252,
82,0,82,0,,,,,,,,,,,,,,,,,609.8420541770756,None,materials/mumblePic.jpg,passage,C_aloud2,82,212,606.1310924019199,None,606.1310924019199,None,607.0912789282156,None,607.3577891404275,None,607.3577891404275,None,,,,,,,,,,,,,,,,,,,,,,,,,,,,,,,,,,,base3,001,2019_Oct_22_1657,ProdFawcett_Revision2019,3.2.4,59.93716272586252,
83,0,83,0,,,,,,,,,,,,,,,,,614.1098796144361,None,materials/speakPic.jpg,population,B_aloud1,83,227,610.4279013093328,None,610.4279013093328,None,611.3592007759726,None,611.6257399113383,None,611.6257399113383,None,,,,,,,,,,,,,,,,,,,,,,,,,,,,,,,,,,,base3,001,2019_Oct_22_1657,ProdFawcett_Revision2019,3.2.4,59.93716272586252,
84,0,84,0,,,,,,,,,,,,,,,,,618.377854643506,None,materials/speakPic.jpg,signal,B_aloud1,84,287,614.6930356509984,None,614.6930356509984,None,615.6272647514706,None,615.8937304904684,None,615.8937304904684,None,,,,,,,,,,,,,,,,,,,,,,,,,,,,,,,,,,,base3,001,2019_Oct_22_1657,ProdFawcett_Revision2019,3.2.4,59.93716272586252,
85,0,85,0,,,,,,,,,,,,,,,,,622.6458119455492,None,materials/speakPic.jpg,poetry,B_aloud1,85,225,618.9521340765059,None,618.9521340765059,None,619.8951778912451,None,620.1616532712942,None,620.1616532712942,None,,,,,,,,,,,,,,,,,,,,,,,,,,,,,,,,,,,base3,001,2019_Oct_22_1657,ProdFawcett_Revision2019,3.2.4,59.93716272586252,
86,0,86,0,,,,,,,,,,,,,,,,,626.9137499653734,None,materials/mumblePic.jpg,track,C_aloud2,86,334,623.2018097797409,None,623.2018097797409,None,624.1631582074333,None,624.4296401184984,None,624.4296401184984,None,,,,,,,,,,,,,,,,,,,,,,,,,,,,,,,,,,,base3,001,2019_Oct_22_1657,ProdFawcett_Revision2019,3.2.4,59.93716272586252,
87,0,87,0,,,,,,,,,,,,,,,,,631.1818512610625,None,materials/readPic.jpg,executive,A_silent,87,122,627.5219845375977,None,627.5219845375977,None,628.4311338585103,None,628.6810882190475,None,628.6810882190475,None,,,,,,,,,,,,,,,,,,,,,,,,,,,,,,,,,,,base3,001,2019_Oct_22_1657,ProdFawcett_Revision2019,3.2.4,59.93716272586252,
88,0,88,0,,,,,,,,,,,,,,,,,635.4497242816724,None,materials/mumblePic.jpg,company,C_aloud2,88,64,631.7498326034984,None,631.7498326034984,None,632.6991238156334,None,632.9655485023977,None,632.9655485023977,None,,,,,,,,,,,,,,,,,,,,,,,,,,,,,,,,,,,base3,001,2019_Oct_22_1657,ProdFawcett_Revision2019,3.2.4,59.93716272586252,
89,0,89,0,,,,,,,,,,,,,,,,,639.7176535935141,None,materials/speakPic.jpg,design,B_aloud1,89,91,636.0358699753415,None,636.0358699753415,None,636.9671047537122,None,637.2335079814075,None,637.2335079814075,None,,,,,,,,,,,,,,,,,,,,,,,,,,,,,,,,,,,base3,001,2019_Oct_22_1657,ProdFawcett_Revision2019,3.2.4,59.93716272586252,
,,,,,,,,,,,,,,,,,,,,,,,,,,,,,,,,,,,,,640.2178201348288,None,k,133.9806824553525,640.2178201348288,None,,,,,,,,,,,,,,,,,,,,,,,,,,,,,base3,001,2019_Oct_22_1657,ProdFawcett_Revision2019,3.2.4,59.93716272586252,
,,,,,,,,,,,,,,774.225190247409,None,space,1.3333338516531512,774.225190247409,None,,,,,,,,,,,,,,,,,,,,,,,,,,,,,,,,,,,,,,,,,,,,,,,,,,,,base3,001,2019_Oct_22_1657,ProdFawcett_Revision2019,3.2.4,59.93716272586252,
,,,,0,0,0,0,,,,,,,,,,,,,797.2335726696765,None,,,,,,,,,,,,,,,,,,,,,,narrow,A_silent,0,197,776.095793114393,None,776.095793114393,None,776.095793114393,None,6,13.126220564125106,776.095793114393,None,789.2795582783874,None,789.2795582783874,None,789.7988958826754,None,789.7988958826754,None,789.7988958826754,None,r,7.3905630961526185,789.7988958826754,None,base3,001,2019_Oct_22_1657,ProdFawcett_Revision2019,3.2.4,59.93716272586252,
,,,,1,0,1,0,,,,,,,,,,,,,803.1338914150838,None,,,,,,,,,,,,,,,,,,,,,,collection,D_new,1,54,797.7672225610586,None,797.7672225610586,None,797.7672225610586,None,6,2.965649577905424,797.7672225610586,None,800.7831601417856,None,800.7831601417856,None,801.2999745912384,None,801.2999745912384,None,801.2999745912384,None,r,1.7929268316365778,801.2999745912384,None,base3,001,2019_Oct_22_1657,ProdFawcett_Revision2019,3.2.4,59.93716272586252,
,,,,2,0,2,0,,,,,,,,,,,,,807.9852495117811,None,,,,,,,,,,,,,,,,,,,,,,split,C_aloud2,2,299,803.6354030376533,None,803.6354030376533,None,803.6354030376533,None,6,1.6491278430912644,803.6354030376533,None,805.3228845136473,None,805.3228845136473,None,805.8346961935749,None,805.8346961935749,None,805.8346961935749,None,r,2.105401193490252,805.8346961935749,None,base3,001,2019_Oct_22_1657,ProdFawcett_Revision2019,3.2.4,59.93716272586252,
,,,,3,0,3,0,,,,,,,,,,,,,811.8365438532783,None,,,,,,,,,,,,,,,,,,,,,,listen,B_aloud1,3,172,808.5020987933967,None,808.5020987933967,None,808.5020987933967,None,6,1.629825226496905,808.5020987933967,None,810.1756355859106,None,810.1756355859106,None,810.7028769812314,None,810.7028769812314,None,810.7028769812314,None,r,1.0931343629490584,810.7028769812314,None,base3,001,2019_Oct_22_1657,ProdFawcett_Revision2019,3.2.4,59.93716272586252,
,,,,4,0,4,0,,,,,,,,,,,,,815.7043464630842,None,,,,,,,,,,,,,,,,,,,,,,afternoon,B_aloud1,4,3,812.3536385149928,None,812.3536385149928,None,812.3536385149928,None,6,1.5218921703053638,812.3536385149928,None,813.926686382154,None,813.926686382154,None,814.4539977527456,None,814.4539977527456,None,814.4539977527456,None,r,1.2061550921062008,814.4539977527456,None,base3,001,2019_Oct_22_1657,ProdFawcett_Revision2019,3.2.4,59.93716272586252,
,,,,5,0,5,0,,,,,,,,,,,,,826.4908819037955,None,,,,,,,,,,,,,,,,,,,,,,chief,D_new,5,48,816.2211988546187,None,816.2211988546187,None,816.2211988546187,None,2,6.621746963588521,816.2211988546187,None,822.8943027332425,None,822.8943027332425,None,823.423355401028,None,823.423355401028,None,823.423355401028,None,f,3.0195277815219015,823.423355401028,None,base3,001,2019_Oct_22_1657,ProdFawcett_Revision2019,3.2.4,59.93716272586252,
,,,,6,0,6,0,,,,,,,,,,,,,830.3088375107618,None,,,,,,,,,,,,,,,,,,,,,,track,C_aloud2,6,334,827.0078366147354,None,827.0078366147354,None,827.0078366147354,None,6,1.5788384033367038,827.0078366147354,None,828.628974326537,None,828.628974326537,None,829.1583264886867,None,829.1583264886867,None,829.1583264886867,None,r,1.1090806516585872,829.1583264886867,None,base3,001,2019_Oct_22_1657,ProdFawcett_Revision2019,3.2.4,59.93716272586252,
,,,,7,0,7,0,,,,,,,,,,,,,833.7264571117703,None,,,,,,,,,,,,,,,,,,,,,,property,C_aloud2,7,242,830.8269908213988,None,830.8269908213988,None,830.8269908213988,None,6,1.424250463140197,830.8269908213988,None,832.3092657597736,None,832.3092657597736,None,832.8262406858848,None,832.8262406858848,None,832.8262406858848,None,r,0.8642043229192495,832.8262406858848,None,base3,001,2019_Oct_22_1657,ProdFawcett_Revision2019,3.2.4,59.93716272586252,
,,,,8,0,8,0,,,,,,,,,,,,,837.1775553979678,None,,,,,,,,,,,,,,,,,,,,,,victory,C_aloud2,8,346,834.2437181592686,None,834.2437181592686,None,834.2437181592686,None,6,1.326873418292962,834.2437181592686,None,835.6143071866827,None,835.6143071866827,None,836.1438248016639,None,836.1438248016639,None,836.1438248016639,None,r,0.994704578188248,836.1438248016639,None,base3,001,2019_Oct_22_1657,ProdFawcett_Revision2019,3.2.4,59.93716272586252,
,,,,9,0,9,0,,,,,,,,,,,,,842.8959087447729,None,,,,,,,,,,,,,,,,,,,,,,equipment,D_new,9,116,837.7110836877255,None,837.7110836877255,None,837.7110836877255,None,1,2.03480230725836,837.7110836877255,None,839.811682085623,None,839.811682085623,None,840.3308035437949,None,840.3308035437949,None,840.3308035437949,None,n,2.5269496759865433,840.3308035437949,None,base3,001,2019_Oct_22_1657,ProdFawcett_Revision2019,3.2.4,59.93716272586252,
,,,,10,0,10,0,,,,,,,,,,,,,846.0801506739808,None,,,,,,,,,,,,,,,,,,,,,,election,C_aloud2,10,109,843.4126336256741,None,843.4126336256741,None,843.4126336256741,None,6,1.4614751607878134,843.4126336256741,None,844.9166289059212,None,844.9166289059212,None,845.4466071140487,None,845.4466071140487,None,845.4466071140487,None,r,0.5868880541529506,845.4466071140487,None,base3,001,2019_Oct_22_1657,ProdFawcett_Revision2019,3.2.4,59.93716272586252,
,,,,11,0,11,0,,,,,,,,,,,,,857.0169041733025,None,,,,,,,,,,,,,,,,,,,,,,nation,A_silent,11,198,846.5970086635789,None,846.5970086635789,None,846.5970086635789,None,6,8.684162157471292,846.5970086635789,None,855.3224957617931,None,855.3224957617931,None,855.8499172269367,None,855.8499172269367,None,855.8499172269367,None,f,1.1273031601449475,855.8499172269367,None,base3,001,2019_Oct_22_1657,ProdFawcett_Revision2019,3.2.4,59.93716272586252,
,,,,12,0,12,0,,,,,,,,,,,,,860.7013720452087,None,,,,,,,,,,,,,,,,,,,,,,express,A_silent,12,124,857.5344525860855,None,857.5344525860855,None,857.5344525860855,None,6,1.7071097111329436,857.5344525860855,None,859.2872334833955,None,859.2872334833955,None,859.8012461207109,None,859.8012461207109,None,859.8012461207109,None,r,0.863416867214255,859.8012461207109,None,base3,001,2019_Oct_22_1657,ProdFawcett_Revision2019,3.2.4,59.93716272586252,
,,,,13,0,13,0,,,,,,,,,,,,,865.2859910326079,None,,,,,,,,,,,,,,,,,,,,,,phrase,C_aloud2,13,220,861.218199556577,None,861.218199556577,None,861.218199556577,None,6,1.4702569090295583,861.218199556577,None,862.7383924148744,None,862.7383924148744,None,863.2686716723256,None,863.2686716723256,None,863.2686716723256,None,r,1.9715865957550704,863.2686716723256,None,base3,001,2019_Oct_22_1657,ProdFawcett_Revision2019,3.2.4,59.93716272586252,
,,,,14,0,14,0,,,,,,,,,,,,,868.5537772837561,None,,,,,,,,,,,,,,,,,,,,,,audience,B_aloud1,14,14,865.8034489440033,None,865.8034489440033,None,865.8034489440033,None,6,1.3251131501747295,865.8034489440033,None,867.1747626048746,None,867.1747626048746,None,867.7033618325368,None,867.7033618325368,None,867.7033618325368,None,r,0.8091514667030424,867.7033618325368,None,base3,001,2019_Oct_22_1657,ProdFawcett_Revision2019,3.2.4,59.93716272586252,
,,,,15,0,15,0,,,,,,,,,,,,,878.4567634887062,None,,,,,,,,,,,,,,,,,,,,,,emergency,D_new,15,110,869.0723047292558,None,869.0723047292558,None,869.0723047292558,None,1,2.3116206628037617,869.0723047292558,None,871.4379752685782,None,871.4379752685782,None,871.9547850529198,None,871.9547850529198,None,871.9547850529198,None,f,6.452705852687359,871.9547850529198,None,base3,001,2019_Oct_22_1657,ProdFawcett_Revision2019,3.2.4,59.93716272586252,
,,,,16,0,16,0,,,,,,,,,,,,,882.7747236052528,None,,,,,,,,,,,,,,,,,,,,,,concern,D_new,16,65,878.9745501286816,None,878.9745501286816,None,878.9745501286816,None,6,2.2808284083148465,878.9745501286816,None,881.3076221171068,None,881.3076221171068,None,881.8244458965492,None,881.8244458965492,None,881.8244458965492,None,f,0.9111471940996125,881.8244458965492,None,base3,001,2019_Oct_22_1657,ProdFawcett_Revision2019,3.2.4,59.93716272586252,
,,,,17,0,17,0,,,,,,,,,,,,,889.3434289590223,None,,,,,,,,,,,,,,,,,,,,,,question,D_new,17,247,883.296109154122,None,883.296109154122,None,883.296109154122,None,2,2.6952027091756463,883.296109154122,None,886.0423568437109,None,886.0423568437109,None,886.5603154674172,None,886.5603154674172,None,886.5603154674172,None,n,2.7504499413771555,886.5603154674172,None,base3,001,2019_Oct_22_1657,ProdFawcett_Revision2019,3.2.4,59.93716272586252,
,,,,18,0,18,0,,,,,,,,,,,,,897.1623206804506,None,,,,,,,,,,,,,,,,,,,,,,employment,D_new,18,111,889.8623156110989,None,889.8623156110989,None,889.8623156110989,None,6,1.9283536608563736,889.8623156110989,None,891.8320772503503,None,891.8320772503503,None,892.3609423842281,None,892.3609423842281,None,892.3609423842281,None,f,4.7654825078789145,892.3609423842281,None,base3,001,2019_Oct_22_1657,ProdFawcett_Revision2019,3.2.4,59.93716272586252,
,,,,19,0,19,0,,,,,,,,,,,,,903.8144758116687,None,,,,,,,,,,,,,,,,,,,,,,husband,D_new,19,156,897.6791385508841,None,897.6791385508841,None,897.6791385508841,None,1,1.8238170514814556,897.6791385508841,None,899.5631813459331,None,899.5631813459331,None,900.0798931648023,None,900.0798931648023,None,900.0798931648023,None,n,3.6859768509166315,900.0798931648023,None,base3,001,2019_Oct_22_1657,ProdFawcett_Revision2019,3.2.4,59.93716272586252,
,,,,20,0,20,0,,,,,,,,,,,,,907.965594841633,None,,,,,,,,,,,,,,,,,,,,,,colonel,D_new,20,55,904.3320484826108,None,904.3320484826108,None,904.3320484826108,None,1,1.5938056595623493,904.3320484826108,None,905.9652284819167,None,905.9652284819167,None,906.4819403007859,None,906.4819403007859,None,906.4819403007859,None,n,1.4440273569198325,906.4819403007859,None,base3,001,2019_Oct_22_1657,ProdFawcett_Revision2019,3.2.4,59.93716272586252,
,,,,21,0,21,0,,,,,,,,,,,,,913.4008413833799,None,,,,,,,,,,,,,,,,,,,,,,orchestra,D_new,21,206,908.4828241670039,None,908.4828241670039,None,908.4828241670039,None,2,2.954458190361038,908.4828241670039,None,911.5001121159876,None,911.5001121159876,None,912.0168304659892,None,912.0168304659892,None,912.0168304659892,None,n,1.348627970321104,912.0168304659892,None,base3,001,2019_Oct_22_1657,ProdFawcett_Revision2019,3.2.4,59.93716272586252,
,,,,22,0,22,0,,,,,,,,,,,,,918.4688113741577,None,,,,,,,,,,,,,,,,,,,,,,count,B_aloud1,22,72,913.9174841599306,None,913.9174841599306,None,913.9174841599306,None,2,2.079599268385209,913.9174841599306,None,916.0391936479136,None,916.0391936479136,None,916.5683066499187,None,916.5683066499187,None,916.5683066499187,None,f,1.8526764318812639,916.5683066499187,None,base3,001,2019_Oct_22_1657,ProdFawcett_Revision2019,3.2.4,59.93716272586252,
,,,,23,0,23,0,,,,,,,,,,,,,924.3375155773247,None,,,,,,,,,,,,,,,,,,,,,,crowd,D_new,23,81,918.9856643878156,None,918.9856643878156,None,918.9856643878156,None,2,3.779077625600621,918.9856643878156,None,922.8202041476034,None,922.8202041476034,None,923.3370646252297,None,923.3370646252297,None,923.3370646252297,None,f,0.9635957243153825,923.3370646252297,None,base3,001,2019_Oct_22_1657,ProdFawcett_Revision2019,3.2.4,59.93716272586252,
,,,,24,0,24,0,,,,,,,,,,,,,930.9893659271766,None,,,,,,,,,,,,,,,,,,,,,,prime,C_aloud2,24,235,924.854366102838,None,924.854366102838,None,924.854366102838,None,6,1.6782145655015483,924.854366102838,None,926.5880757686682,None,926.5880757686682,None,927.1047477794345,None,927.1047477794345,None,927.1047477794345,None,r,3.8436493035405874,927.1047477794345,None,base3,001,2019_Oct_22_1657,ProdFawcett_Revision2019,3.2.4,59.93716272586252,
,,,,25,0,25,0,,,,,,,,,,,,,936.5242520492757,None,,,,,,,,,,,,,,,,,,,,,,danger,A_silent,25,85,931.5062475528102,None,931.5062475528102,None,931.5062475528102,None,2,3.337565959431231,931.5062475528102,None,934.9072291977936,None,934.9072291977936,None,935.424083144404,None,935.424083144404,None,935.424083144404,None,f,1.067674539401196,935.424083144404,None,base3,001,2019_Oct_22_1657,ProdFawcett_Revision2019,3.2.4,59.93716272586252,
,,,,26,0,26,0,,,,,,,,,,,,,943.1931427910458,None,,,,,,,,,,,,,,,,,,,,,,turkey,D_new,26,342,937.0412241764134,None,937.0412241764134,None,937.0412241764134,None,1,4.1862242525676265,937.0412241764134,None,941.292491896078,None,941.292491896078,None,941.8119047626387,None,941.8119047626387,None,941.8119047626387,None,n,1.3434370449976996,941.8119047626387,None,base3,001,2019_Oct_22_1657,ProdFawcett_Revision2019,3.2.4,59.93716272586252,
,,,,27,0,27,0,,,,,,,,,,,,,951.5956424342003,None,,,,,,,,,,,,,,,,,,,,,,empty,D_new,27,112,943.7100611148635,None,943.7100611148635,None,943.7100611148635,None,6,6.348901340621524,943.7100611148635,None,950.1117686373182,None,950.1117686373182,None,950.6287071763072,None,950.6287071763072,None,950.6287071763072,None,f,0.9263501896057278,950.6287071763072,None,base3,001,2019_Oct_22_1657,ProdFawcett_Revision2019,3.2.4,59.93716272586252,
,,,,28,0,28,0,,,,,,,,,,,,,954.9465808344539,None,,,,,,,,,,,,,,,,,,,,,,graduate,A_silent,28,141,952.1128164012916,None,952.1128164012916,None,952.1128164012916,None,6,2.1066109891980886,952.1128164012916,None,954.2797159561887,None,954.2797159561887,None,954.796515477472,None,954.796515477472,None,954.796515477472,None,f,0.10214127611834556,954.796515477472,None,base3,001,2019_Oct_22_1657,ProdFawcett_Revision2019,3.2.4,59.93716272586252,
,,,,29,0,29,0,,,,,,,,,,,,,957.8141281120479,None,,,,,,,,,,,,,,,,,,,,,,region,C_aloud2,29,256,955.4634717901936,None,955.4634717901936,None,955.4634717901936,None,6,1.267293002922088,955.4634717901936,None,956.7805178734707,None,956.7805178734707,None,957.2974010541802,None,957.2974010541802,None,957.2974010541802,None,r,0.48109686479438096,957.2974010541802,None,base3,001,2019_Oct_22_1657,ProdFawcett_Revision2019,3.2.4,59.93716272586252,
,,,,30,0,30,0,,,,,,,,,,,,,962.5990205319831,None,,,,,,,,,,,,,,,,,,,,,,force,D_new,30,131,958.3311014831997,None,958.3311014831997,None,958.3311014831997,None,1,1.847081515705213,958.3311014831997,None,960.2315088639734,None,960.2315088639734,None,960.748431541957,None,960.748431541957,None,960.748431541957,None,n,1.8137281641829759,960.748431541957,None,base3,001,2019_Oct_22_1657,ProdFawcett_Revision2019,3.2.4,59.93716272586252,
,,,,31,0,31,0,,,,,,,,,,,,,966.5834312728839,None,,,,,,,,,,,,,,,,,,,,,,contract,D_new,31,68,963.1164156211307,None,963.1164156211307,None,963.1164156211307,None,6,2.709648104966618,963.1164156211307,None,965.8834385192022,None,965.8834385192022,None,966.3999926603865,None,966.3999926603865,None,966.3999926603865,None,f,0.14587647828739136,966.3999926603865,None,base3,001,2019_Oct_22_1657,ProdFawcett_Revision2019,3.2.4,59.93716272586252,
,,,,32,0,32,0,,,,,,,,,,,,,970.0012085516937,None,,,,,,,,,,,,,,,,,,,,,,department,D_new,32,90,967.1002796214307,None,967.1002796214307,None,967.1002796214307,None,1,1.7582000977126881,967.1002796214307,None,968.9175864794524,None,968.9175864794524,None,969.4342466720846,None,969.4342466720846,None,969.4342466720846,None,n,0.5192847339203581,969.4342466720846,None,base3,001,2019_Oct_22_1657,ProdFawcett_Revision2019,3.2.4,59.93716272586252,
,,,,33,0,33,0,,,,,,,,,,,,,974.1858749979874,None,,,,,,,,,,,,,,,,,,,,,,disease,A_silent,33,97,970.5181377605768,None,970.5181377605768,None,970.5181377605768,None,6,2.2277292632497847,970.5181377605768,None,972.8022839325713,None,972.8022839325713,None,973.3189282640815,None,973.3189282640815,None,973.3189282640815,None,f,0.8268462057458237,973.3189282640815,None,base3,001,2019_Oct_22_1657,ProdFawcett_Revision2019,3.2.4,59.93716272586252,
,,,,34,0,34,0,,,,,,,,,,,,,977.9869889429538,None,,,,,,,,,,,,,,,,,,,,,,population,B_aloud1,34,227,974.7042612486985,None,974.7042612486985,None,974.7042612486985,None,6,1.4971125070005655,974.7042612486985,None,976.2433462016052,None,976.2433462016052,None,976.770023751189,None,976.770023751189,None,976.770023751189,None,r,1.18361184024252,976.770023751189,None,base3,001,2019_Oct_22_1657,ProdFawcett_Revision2019,3.2.4,59.93716272586252,
,,,,35,0,35,0,,,,,,,,,,,,,982.2883422035957,None,,,,,,,,,,,,,,,,,,,,,,swift,D_new,35,320,978.503865281702,None,978.503865281702,None,978.503865281702,None,1,1.6494839397491887,978.503865281702,None,980.2042900163215,None,980.2042900163215,None,980.7210780306486,None,980.7210780306486,None,980.7210780306486,None,n,1.5281408114824444,980.7210780306486,None,base3,001,2019_Oct_22_1657,ProdFawcett_Revision2019,3.2.4,59.93716272586252,
,,,,36,0,36,0,,,,,,,,,,,,,987.0564436548157,None,,,,,,,,,,,,,,,,,,,,,,treatment,D_new,36,339,982.8055146157276,None,982.8055146157276,None,982.8055146157276,None,1,3.1239403013605624,982.8055146157276,None,985.9892881767591,None,985.9892881767591,None,986.506282384973,None,986.506282384973,None,986.506282384973,None,n,0.5023214702960104,986.506282384973,None,base3,001,2019_Oct_22_1657,ProdFawcett_Revision2019,3.2.4,59.93716272586252,
,,,,37,0,37,0,,,,,,,,,,,,,990.9242621257436,None,,,,,,,,,,,,,,,,,,,,,,pretty,C_aloud2,37,233,987.5733974328032,None,987.5733974328032,None,987.5733974328032,None,6,1.4834859779803082,987.5733974328032,None,989.107023999095,None,989.107023999095,None,989.6237249328988,None,989.6237249328988,None,989.6237249328988,None,r,1.2646961407735944,989.6237249328988,None,base3,001,2019_Oct_22_1657,ProdFawcett_Revision2019,3.2.4,59.93716272586252,
,,,,38,0,38,0,,,,,,,,,,,,,994.4586640186608,None,,,,,,,,,,,,,,,,,,,,,,research,B_aloud1,38,261,991.442221993464,None,991.442221993464,None,991.442221993464,None,6,1.5263310939772055,991.442221993464,None,993.0141474563861,None,993.0141474563861,None,993.5417362402659,None,993.5417362402659,None,993.5417362402659,None,r,0.8751649473560974,993.5417362402659,None,base3,001,2019_Oct_22_1657,ProdFawcett_Revision2019,3.2.4,59.93716272586252,
,,,,39,0,39,0,,,,,,,,,,,,,1002.1109836696414,None,,,,,,,,,,,,,,,,,,,,,,religion,D_new,39,258,994.9764976197621,None,994.9764976197621,None,994.9764976197621,None,2,5.32753585150931,994.9764976197621,None,1000.3603387303883,None,1000.3603387303883,None,1000.877294374397,None,1000.877294374397,None,1000.877294374397,None,n,1.186208391445689,1000.877294374397,None,base3,001,2019_Oct_22_1657,ProdFawcett_Revision2019,3.2.4,59.93716272586252,
,,,,40,0,40,0,,,,,,,,,,,,,1009.1631339492742,None,,,,,,,,,,,,,,,,,,,,,,bucket,B_aloud1,40,33,1002.6283806246938,None,1002.6283806246938,None,1002.6283806246938,None,6,2.4190645137568936,1002.6283806246938,None,1005.1015845835209,None,1005.1015845835209,None,1005.62873920938,None,1005.62873920938,None,1005.62873920938,None,r,3.4985126355895773,1005.62873920938,None,base3,001,2019_Oct_22_1657,ProdFawcett_Revision2019,3.2.4,59.93716272586252,
,,,,41,0,41,0,,,,,,,,,,,,,1015.5149658566806,None,,,,,,,,,,,,,,,,,,,,,,reading,D_new,41,254,1009.68027868215,None,1009.68027868215,None,1009.68027868215,None,2,2.7110457455273718,1009.68027868215,None,1012.4473448095378,None,1012.4473448095378,None,1012.9643116495572,None,1012.9643116495572,None,1012.9643116495572,None,f,2.5144371542846784,1012.9643116495572,None,base3,001,2019_Oct_22_1657,ProdFawcett_Revision2019,3.2.4,59.93716272586252,
,,,,42,0,42,0,,,,,,,,,,,,,1019.2827637704322,None,,,,,,,,,,,,,,,,,,,,,,evidence,D_new,42,120,1016.0319818350254,None,1016.0319818350254,None,1016.0319818350254,None,1,1.9025019756518304,1016.0319818350254,None,1017.9990197233856,None,1017.9990197233856,None,1018.515982209472,None,1018.515982209472,None,1018.515982209472,None,n,0.7233023130102083,1018.515982209472,None,base3,001,2019_Oct_22_1657,ProdFawcett_Revision2019,3.2.4,59.93716272586252,
,,,,43,0,43,0,,,,,,,,,,,,,1025.4514581147814,None,,,,,,,,,,,,,,,,,,,,,,tennis,A_silent,43,323,1019.7995869278675,None,1019.7995869278675,None,1019.7995869278675,None,2,4.5268843655940145,1019.7995869278675,None,1024.3844422764378,None,1024.3844422764378,None,1024.901110866107,None,1024.901110866107,None,1024.901110866107,None,n,0.5130382697097957,1024.901110866107,None,base3,001,2019_Oct_22_1657,ProdFawcett_Revision2019,3.2.4,59.93716272586252,
,,,,44,0,44,0,,,,,,,,,,,,,1028.835803669761,None,,,,,,,,,,,,,,,,,,,,,,store,D_new,44,305,1025.968391677714,None,1025.968391677714,None,1025.968391677714,None,2,1.7656840368872508,1025.968391677714,None,1027.7854173904052,None,1027.7854173904052,None,1028.3022464568494,None,1028.3022464568494,None,1028.3022464568494,None,n,0.4875740922288969,1028.3022464568494,None,base3,001,2019_Oct_22_1657,ProdFawcett_Revision2019,3.2.4,59.93716272586252,
,,,,45,0,45,0,,,,,,,,,,,,,1033.3705268271733,None,,,,,,,,,,,,,,,,,,,,,,raise,B_aloud1,45,250,1029.352509268676,None,1029.352509268676,None,1029.352509268676,None,6,1.7174937387462705,1029.352509268676,None,1031.10987308342,None,1031.10987308342,None,1031.636635847506,None,1031.636635847506,None,1031.636635847506,None,r,1.6970634310273454,1031.636635847506,None,base3,001,2019_Oct_22_1657,ProdFawcett_Revision2019,3.2.4,59.93716272586252,
,,,,46,0,46,0,,,,,,,,,,,,,1037.2215425112518,None,,,,,,,,,,,,,,,,,,,,,,length,D_new,46,169,1033.8873465635115,None,1033.8873465635115,None,1033.8873465635115,None,2,2.1665369272232056,1033.8873465635115,None,1036.0927673812257,None,1036.0927673812257,None,1036.6213379966794,None,1036.6213379966794,None,1036.6213379966794,None,n,0.5603630506666377,1036.6213379966794,None,base3,001,2019_Oct_22_1657,ProdFawcett_Revision2019,3.2.4,59.93716272586252,
,,,,47,0,47,0,,,,,,,,,,,,,1041.0561562894145,None,,,,,,,,,,,,,,,,,,,,,,dance,A_silent,47,84,1037.7383243055083,None,1037.7383243055083,None,1037.7383243055083,None,2,2.179286121041514,1037.7383243055083,None,1039.9610539092682,None,1039.9610539092682,None,1040.4892917532707,None,1040.4892917532707,None,1040.4892917532707,None,n,0.5318983311299235,1040.4892917532707,None,base3,001,2019_Oct_22_1657,ProdFawcett_Revision2019,3.2.4,59.93716272586252,
,,,,48,0,48,0,,,,,,,,,,,,,1045.3240165589377,None,,,,,,,,,,,,,,,,,,,,,,quick,D_new,48,248,1041.5763659417862,None,1041.5763659417862,None,1041.5763659417862,None,1,2.628720238339156,1041.5763659417862,None,1044.2570395957446,None,1044.2570395957446,None,1044.774234399898,None,1044.774234399898,None,1044.774234399898,None,n,0.502516157226637,1044.774234399898,None,base3,001,2019_Oct_22_1657,ProdFawcett_Revision2019,3.2.4,59.93716272586252,
,,,,49,0,49,0,,,,,,,,,,,,,1053.493288122001,None,,,,,,,,,,,,,,,,,,,,,,point,D_new,49,226,1045.8410241402453,None,1045.8410241402453,None,1045.8410241402453,None,2,6.139285424491391,1045.8410241402453,None,1052.0428538240958,None,1052.0428538240958,None,1052.5595401407918,None,1052.5595401407918,None,1052.5595401407918,None,n,0.8929504988482222,1052.5595401407918,None,base3,001,2019_Oct_22_1657,ProdFawcett_Revision2019,3.2.4,59.93716272586252,
,,,,50,0,50,0,,,,,,,,,,,,,1057.0943814787315,None,,,,,,,,,,,,,,,,,,,,,,agency,D_new,50,4,1054.0100385050755,None,1054.0100385050755,None,1054.0100385050755,None,1,1.7784201685572043,1054.0100385050755,None,1055.8318032580428,None,1055.8318032580428,None,1056.3607072670711,None,1056.3607072670711,None,1056.3607072670711,None,n,0.6921847510384396,1056.3607072670711,None,base3,001,2019_Oct_22_1657,ProdFawcett_Revision2019,3.2.4,59.93716272586252,
,,,,51,0,51,0,,,,,,,,,,,,,1060.4452455496648,None,,,,,,,,,,,,,,,,,,,,,,minor,B_aloud1,51,191,1057.6112117891898,None,1057.6112117891898,None,1057.6112117891898,None,6,1.4331594109535217,1057.6112117891898,None,1059.0948703730246,None,1059.0948703730246,None,1059.6117317836033,None,1059.6117317836033,None,1059.6117317836033,None,r,0.8005031382199377,1059.6117317836033,None,base3,001,2019_Oct_22_1657,ProdFawcett_Revision2019,3.2.4,59.93716272586252,
,,,,52,0,52,0,,,,,,,,,,,,,1063.646335672005,None,,,,,,,,,,,,,,,,,,,,,,corner,B_aloud1,52,69,1060.9621850216063,None,1060.9621850216063,None,1060.9621850216063,None,6,1.2976554532069713,1060.9621850216063,None,1062.31256579631,None,1062.31256579631,None,1062.8294169438304,None,1062.8294169438304,None,1062.8294169438304,None,r,0.7825474689016119,1062.8294169438304,None,base3,001,2019_Oct_22_1657,ProdFawcett_Revision2019,3.2.4,59.93716272586252,
,,,,53,0,53,0,,,,,,,,,,,,,1066.3138458782341,None,,,,,,,,,,,,,,,,,,,,,,broke,C_aloud2,53,32,1064.1629915105877,None,1064.1629915105877,None,1064.1629915105877,None,6,1.0806874625850469,1064.1629915105877,None,1065.296878571622,None,1065.296878571622,None,1065.8136158926645,None,1065.8136158926645,None,1065.8136158926645,None,r,0.4619646770879626,1065.8136158926645,None,base3,001,2019_Oct_22_1657,ProdFawcett_Revision2019,3.2.4,59.93716272586252,
,,,,54,0,54,0,,,,,,,,,,,,,1070.0816381940385,None,,,,,,,,,,,,,,,,,,,,,,article,D_new,54,11,1066.8306618826464,None,1066.8306618826464,None,1066.8306618826464,None,2,2.412645754753612,1066.8306618826464,None,1069.298068774282,None,1069.298068774282,None,1069.8149224098306,None,1069.8149224098306,None,1069.8149224098306,None,n,0.22854968521278352,1069.8149224098306,None,base3,001,2019_Oct_22_1657,ProdFawcett_Revision2019,3.2.4,59.93716272586252,
,,,,55,0,55,0,,,,,,,,,,,,,1074.4162766967202,None,,,,,,,,,,,,,,,,,,,,,,attack,A_silent,55,13,1070.598366806982,None,1070.598366806982,None,1070.598366806982,None,6,2.3966860928339884,1070.598366806982,None,1073.049187679775,None,1073.049187679775,None,1073.5661153336987,None,1073.5661153336987,None,1073.5661153336987,None,f,0.8049383299658075,1073.5661153336987,None,base3,001,2019_Oct_22_1657,ProdFawcett_Revision2019,3.2.4,59.93716272586252,
,,,,56,0,56,0,,,,,,,,,,,,,1077.4338709822623,None,,,,,,,,,,,,,,,,,,,,,,shape,C_aloud2,56,282,1074.9329956687288,None,1074.9329956687288,None,1074.9329956687288,None,6,1.4141323417425156,1074.9329956687288,None,1076.4002526575932,None,1076.4002526575932,None,1076.916945816367,None,1076.916945816367,None,1076.916945816367,None,f,0.4697636606870219,1076.916945816367,None,base3,001,2019_Oct_22_1657,ProdFawcett_Revision2019,3.2.4,59.93716272586252,
,,,,57,0,57,0,,,,,,,,,,,,,1080.6013720140327,None,,,,,,,,,,,,,,,,,,,,,,block,B_aloud1,57,25,1077.9516899663722,None,1077.9516899663722,None,1077.9516899663722,None,6,1.755340128322132,1077.9516899663722,None,1079.7512625881936,None,1079.7512625881936,None,1080.2679601010168,None,1080.2679601010168,None,1080.2679601010168,None,r,0.2949677787255496,1080.2679601010168,None,base3,001,2019_Oct_22_1657,ProdFawcett_Revision2019,3.2.4,59.93716272586252,
,,,,58,0,58,0,,,,,,,,,,,,,1083.5689731261227,None,,,,,,,,,,,,,,,,,,,,,,route,D_new,58,267,1081.1182443096768,None,1081.1182443096768,None,1081.1182443096768,None,1,1.4361260537989438,1081.1182443096768,None,1082.6187342924532,None,1082.6187342924532,None,1083.1356246261857,None,1083.1356246261857,None,1083.1356246261857,None,n,0.3866724679246545,1083.1356246261857,None,base3,001,2019_Oct_22_1657,ProdFawcett_Revision2019,3.2.4,59.93716272586252,
,,,,59,0,59,0,,,,,,,,,,,,,1087.986977746943,None,,,,,,,,,,,,,,,,,,,,,,period,D_new,59,217,1084.0857303511584,None,1084.0857303511584,None,1084.0857303511584,None,1,2.644799324683845,1084.0857303511584,None,1086.786700582481,None,1086.786700582481,None,1087.3037047426915,None,1087.3037047426915,None,1087.3037047426915,None,n,0.634308623499237,1087.3037047426915,None,base3,001,2019_Oct_22_1657,ProdFawcett_Revision2019,3.2.4,59.93716272586252,
,,,,60,0,60,0,,,,,,,,,,,,,1090.7879349471768,None,,,,,,,,,,,,,,,,,,,,,,junior,C_aloud2,60,167,1088.5102827968076,None,1088.5102827968076,None,1088.5102827968076,None,6,1.2440086345886812,1088.5102827968076,None,1089.7937373014865,None,1089.7937373014865,None,1090.321555293398,None,1090.321555293398,None,1090.321555293398,None,r,0.4328101563733071,1090.321555293398,None,base3,001,2019_Oct_22_1657,ProdFawcett_Revision2019,3.2.4,59.93716272586252,
,,,,61,0,61,0,,,,,,,,,,,,,1094.1222839076072,None,,,,,,,,,,,,,,,,,,,,,,fight,D_new,61,127,1091.305634817807,None,1091.305634817807,None,1091.305634817807,None,2,1.7520870531443506,1091.305634817807,None,1093.1219694851898,None,1093.1219694851898,None,1093.6388085036306,None,1093.6388085036306,None,1093.6388085036306,None,n,0.4349035071209073,1093.6388085036306,None,base3,001,2019_Oct_22_1657,ProdFawcett_Revision2019,3.2.4,59.93716272586252,
,,,,62,0,62,0,,,,,,,,,,,,,1097.0565027450211,None,,,,,,,,,,,,,,,,,,,,,,solution,D_new,62,294,1094.639578854316,None,1094.639578854316,None,1094.639578854316,None,2,1.6502502473304048,1094.639578854316,None,1096.328428736655,None,1096.328428736655,None,1096.8563384740846,None,1096.8563384740846,None,1096.8563384740846,None,n,0.16157147800549865,1096.8563384740846,None,base3,001,2019_Oct_22_1657,ProdFawcett_Revision2019,3.2.4,59.93716272586252,
,,,,63,0,63,0,,,,,,,,,,,,,1101.3078283109935,None,,,,,,,,,,,,,,,,,,,,,,council,A_silent,63,71,1097.5732842283323,None,1097.5732842283323,None,1097.5732842283323,None,6,2.956716994056478,1097.5732842283323,None,1100.5908530117013,None,1100.5908530117013,None,1101.0946337009082,None,1101.0946337009082,None,1101.0946337009082,None,f,0.17148558236658573,1101.0946337009082,None,base3,001,2019_Oct_22_1657,ProdFawcett_Revision2019,3.2.4,59.93716272586252,
,,,,64,0,64,0,,,,,,,,,,,,,1103.8585534264566,None,,,,,,,,,,,,,,,,,,,,,,poetry,B_aloud1,64,225,1101.8254762443248,None,1101.8254762443248,None,1101.8254762443248,None,6,1.1676350734196603,1101.8254762443248,None,1103.0470986829605,None,1103.0470986829605,None,1103.5750976777636,None,1103.5750976777636,None,1103.5750976777636,None,r,0.25027251499705017,1103.5750976777636,None,base3,001,2019_Oct_22_1657,ProdFawcett_Revision2019,3.2.4,59.93716272586252,
,,,,65,0,65,0,,,,,,,,,,,,,1107.542891610763,None,,,,,,,,,,,,,,,,,,,,,,primary,D_new,65,234,1104.3753846699838,None,1104.3753846699838,None,1104.3753846699838,None,6,2.449970594723709,1104.3753846699838,None,1106.8761337170145,None,1106.8761337170145,None,1107.3929820654448,None,1107.3929820654448,None,1107.3929820654448,None,f,0.11185198568273336,1107.3929820654448,None,base3,001,2019_Oct_22_1657,ProdFawcett_Revision2019,3.2.4,59.93716272586252,
,,,,66,0,66,0,,,,,,,,,,,,,1112.0442430676194,None,,,,,,,,,,,,,,,,,,,,,,division,D_new,66,101,1108.0608468134888,None,1108.0608468134888,None,1108.0608468134888,None,1,2.483788582496345,1108.0608468134888,None,1110.6105235429714,None,1110.6105235429714,None,1111.1274499528809,None,1111.1274499528809,None,1111.1274499528809,None,n,0.8739455105969682,1111.1274499528809,None,base3,001,2019_Oct_22_1657,ProdFawcett_Revision2019,3.2.4,59.93716272586252,
,,,,67,0,67,0,,,,,,,,,,,,,1116.1292658904567,None,,,,,,,,,,,,,,,,,,,,,,country,D_new,67,73,1112.5614285416668,None,1112.5614285416668,None,1112.5614285416668,None,2,2.7273260499350727,1112.5614285416668,None,1115.3453699192032,None,1115.3453699192032,None,1115.86221546866,None,1115.86221546866,None,1115.86221546866,None,f,0.23407058301381767,1115.86221546866,None,base3,001,2019_Oct_22_1657,ProdFawcett_Revision2019,3.2.4,59.93716272586252,
,,,,68,0,68,0,,,,,,,,,,,,,1118.6962955683703,None,,,,,,,,,,,,,,,,,,,,,,growth,C_aloud2,68,144,1116.6464504315518,None,1116.6464504315518,None,1116.6464504315518,None,6,1.249931346392259,1116.6464504315518,None,1117.9461899056332,None,1117.9461899056332,None,1118.462855696329,None,1118.462855696329,None,1118.462855696329,None,r,0.1853509604698047,1118.462855696329,None,base3,001,2019_Oct_22_1657,ProdFawcett_Revision2019,3.2.4,59.93716272586252,
,,,,69,0,69,0,,,,,,,,,,,,,1121.3805479161674,None,,,,,,,,,,,,,,,,,,,,,,position,B_aloud1,69,229,1119.2130300903227,None,1119.2130300903227,None,1119.2130300903227,None,6,1.4990481799468398,1119.2130300903227,None,1120.7637070005294,None,1120.7637070005294,None,1121.2804825747153,None,1121.2804825747153,None,1121.2804825747153,None,r,0.06360664044041187,1121.2804825747153,None,base3,001,2019_Oct_22_1657,ProdFawcett_Revision2019,3.2.4,59.93716272586252,
,,,,70,0,70,0,,,,,,,,,,,,,1126.165245649172,None,,,,,,,,,,,,,,,,,,,,,,error,D_new,70,117,1121.8974724600557,None,1121.8974724600557,None,1121.8974724600557,None,1,2.8302205716026947,1121.8974724600557,None,1124.7697982751997,None,1124.7697982751997,None,1125.2986208018847,None,1125.2986208018847,None,1125.2986208018847,None,n,0.8290596031583846,1125.2986208018847,None,base3,001,2019_Oct_22_1657,ProdFawcett_Revision2019,3.2.4,59.93716272586252,
,,,,71,0,71,0,,,,,,,,,,,,,1131.6836524259998,None,,,,,,,,,,,,,,,,,,,,,,crisis,B_aloud1,71,79,1126.6819322769297,None,1126.6819322769297,None,1126.6819322769297,None,6,1.2696880251169205,1126.6819322769297,None,1128.0049551862758,None,1128.0049551862758,None,1128.5326770788524,None,1128.5326770788524,None,1128.5326770788524,None,r,3.107362679555081,1128.5326770788524,None,base3,001,2019_Oct_22_1657,ProdFawcett_Revision2019,3.2.4,59.93716272586252,
,,,,72,0,72,0,,,,,,,,,,,,,1138.219015002367,None,,,,,,,,,,,,,,,,,,,,,,weather,C_aloud2,72,352,1132.2009831378236,None,1132.2009831378236,None,1132.2009831378236,None,2,5.230002994881943,1132.2009831378236,None,1137.4853684698464,None,1137.4853684698464,None,1138.0022827506764,None,1138.0022827506764,None,1138.0022827506764,None,n,0.17323900863993913,1138.0022827506764,None,base3,001,2019_Oct_22_1657,ProdFawcett_Revision2019,3.2.4,59.93716272586252,
,,,,73,0,73,0,,,,,,,,,,,,,1143.7373418519273,None,,,,,,,,,,,,,,,,,,,,,,judge,A_silent,73,166,1138.73809012142,None,1138.73809012142,None,1138.73809012142,None,6,4.300496140611358,1138.73809012142,None,1143.1039537927136,None,1143.1039537927136,None,1143.6220542330993,None,1143.6220542330993,None,1143.6220542330993,None,f,0.07330242183525115,1143.6220542330993,None,base3,001,2019_Oct_22_1657,ProdFawcett_Revision2019,3.2.4,59.93716272586252,
,,,,74,0,74,0,,,,,,,,,,,,,1148.2720211580163,None,,,,,,,,,,,,,,,,,,,,,,citizen,D_new,74,50,1144.2611584991682,None,1144.2611584991682,None,1144.2611584991682,None,2,2.377464025747031,1144.2611584991682,None,1146.6881905592745,None,1146.6881905592745,None,1147.2055526822805,None,1147.2055526822805,None,1147.2055526822805,None,f,1.0255139376968145,1147.2055526822805,None,base3,001,2019_Oct_22_1657,ProdFawcett_Revision2019,3.2.4,59.93716272586252,
,,,,75,0,75,0,,,,,,,,,,,,,1151.8565014388878,None,,,,,,,,,,,,,,,,,,,,,,speech,A_silent,75,298,1148.7891260827892,None,1148.7891260827892,None,1148.7891260827892,None,2,2.3849380128085613,1148.7891260827892,None,1151.2229339318583,None,1151.2229339318583,None,1151.7397993854247,None,1151.7397993854247,None,1151.7397993854247,None,n,0.08267973782494664,1151.7397993854247,None,base3,001,2019_Oct_22_1657,ProdFawcett_Revision2019,3.2.4,59.93716272586252,
,,,,76,0,76,0,,,,,,,,,,,,,1157.7749568563886,None,,,,,,,,,,,,,,,,,,,,,,message,D_new,76,189,1152.3739220300922,None,1152.3739220300922,None,1152.3739220300922,None,2,3.2086742038372904,1152.3739220300922,None,1155.640982714831,None,1155.640982714831,None,1156.1577781931264,None,1156.1577781931264,None,1156.1577781931264,None,n,1.5764508451102301,1156.1577781931264,None,base3,001,2019_Oct_22_1657,ProdFawcett_Revision2019,3.2.4,59.93716272586252,
,,,,77,0,77,0,,,,,,,,,,,,,1161.2942950825673,None,,,,,,,,,,,,,,,,,,,,,,executive,A_silent,77,122,1158.2967121858383,None,1158.2967121858383,None,1158.2967121858383,None,6,1.3088381327688694,1158.2967121858383,None,1159.6587968784152,None,1159.6587968784152,None,1160.1756638870575,None,1160.1756638870575,None,1160.1756638870575,None,r,1.0855378413107246,1160.1756638870575,None,base3,001,2019_Oct_22_1657,ProdFawcett_Revision2019,3.2.4,59.93716272586252,
,,,,78,0,78,0,,,,,,,,,,,,,1164.610395410331,None,,,,,,,,,,,,,,,,,,,,,,staff,D_new,78,301,1161.8261952797184,None,1161.8261952797184,None,1161.8261952797184,None,1,1.3152771069435403,1161.8261952797184,None,1163.1932503975695,None,1163.1932503975695,None,1163.7102558017941,None,1163.7102558017941,None,1163.7102558017941,None,n,0.8629901732783765,1163.7102558017941,None,base3,001,2019_Oct_22_1657,ProdFawcett_Revision2019,3.2.4,59.93716272586252,
,,,,79,0,79,0,,,,,,,,,,,,,1167.1611146167852,None,,,,,,,,,,,,,,,,,,,,,,rapid,C_aloud2,79,252,1165.127297251136,None,1165.127297251136,None,1165.127297251136,None,6,1.3663018723018467,1165.127297251136,None,1166.5443079114193,None,1166.5443079114193,None,1167.0609920511488,None,1167.0609920511488,None,1167.0609920511488,None,r,0.06417950498871505,1167.0609920511488,None,base3,001,2019_Oct_22_1657,ProdFawcett_Revision2019,3.2.4,59.93716272586252,
,,,,80,0,80,0,,,,,,,,,,,,,1171.3957509114407,None,,,,,,,,,,,,,,,,,,,,,,minute,B_aloud1,80,192,1167.6779604773037,None,1167.6779604773037,None,1167.6779604773037,None,6,1.423660493339412,1167.6779604773037,None,1169.1617624328937,None,1169.1617624328937,None,1169.6785666191718,None,1169.6785666191718,None,1169.6785666191718,None,r,1.67845341458451,1169.6785666191718,None,base3,001,2019_Oct_22_1657,ProdFawcett_Revision2019,3.2.4,59.93716272586252,
,,,,81,0,81,0,,,,,,,,,,,,,1175.997014075052,None,,,,,,,,,,,,,,,,,,,,,,close,A_silent,81,53,1171.912361343857,None,1171.912361343857,None,1171.912361343857,None,2,3.3566490090452135,1171.912361343857,None,1175.3302981664892,None,1175.3302981664892,None,1175.8469897703035,None,1175.8469897703035,None,1175.8469897703035,None,n,0.10980341909453273,1175.8469897703035,None,base3,001,2019_Oct_22_1657,ProdFawcett_Revision2019,3.2.4,59.93716272586252,
,,,,82,0,82,0,,,,,,,,,,,,,1179.898233480635,None,,,,,,,,,,,,,,,,,,,,,,notice,B_aloud1,82,201,1176.514030364342,None,1176.514030364342,None,1176.514030364342,None,6,1.3947022145148367,1176.514030364342,None,1177.9518855863716,None,1177.9518855863716,None,1178.4812119354028,None,1178.4812119354028,None,1178.4812119354028,None,f,1.3790311620105058,1178.4812119354028,None,base3,001,2019_Oct_22_1657,ProdFawcett_Revision2019,3.2.4,59.93716272586252,
,,,,83,0,83,0,,,,,,,,,,,,,1182.5156967102084,None,,,,,,,,,,,,,,,,,,,,,,trend,B_aloud1,83,340,1180.4151853926014,None,1180.4151853926014,None,1180.4151853926014,None,6,1.2612511775223538,1180.4151853926014,None,1181.732199753751,None,1181.732199753751,None,1182.249077336397,None,1182.249077336397,None,1182.249077336397,None,r,0.21904952346812934,1182.249077336397,None,base3,001,2019_Oct_22_1657,ProdFawcett_Revision2019,3.2.4,59.93716272586252,
,,,,84,0,84,0,,,,,,,,,,,,,1186.2669462362537,None,,,,,,,,,,,,,,,,,,,,,,level,D_new,84,170,1183.0328765861923,None,1183.0328765861923,None,1183.0328765861923,None,1,2.467329452279955,1183.0328765861923,None,1185.5396767886123,None,1185.5396767886123,None,1186.066880241735,None,1186.066880241735,None,1186.066880241735,None,n,0.15284850902389735,1186.066880241735,None,base3,001,2019_Oct_22_1657,ProdFawcett_Revision2019,3.2.4,59.93716272586252,
,,,,85,0,85,0,,,,,,,,,,,,,1189.7179844990605,None,,,,,,,,,,,,,,,,,,,,,,court,C_aloud2,85,75,1186.7836627202341,None,1186.7836627202341,None,1186.7836627202341,None,6,1.8039151350967586,1186.7836627202341,None,1188.6509982058778,None,1188.6509982058778,None,1189.1677184217842,None,1189.1677184217842,None,1189.1677184217842,None,r,0.5087564015993848,1189.1677184217842,None,base3,001,2019_Oct_22_1657,ProdFawcett_Revision2019,3.2.4,59.93716272586252,
,,,,86,0,86,0,,,,,,,,,,,,,1194.8361952205887,None,,,,,,,,,,,,,,,,,,,,,,silence,D_new,86,288,1190.2348941148957,None,1190.2348941148957,None,1190.2348941148957,None,6,3.8092198871308938,1190.2348941148957,None,1194.0919186582323,None,1194.0919186582323,None,1194.6194079216802,None,1194.6194079216802,None,1194.6194079216802,None,f,0.1677563638659194,1194.6194079216802,None,base3,001,2019_Oct_22_1657,ProdFawcett_Revision2019,3.2.4,59.93716272586252,
,,,,87,0,87,0,,,,,,,,,,,,,1197.5203701290302,None,,,,,,,,,,,,,,,,,,,,,,marriage,D_new,87,179,1195.353250696091,None,1195.353250696091,None,1195.353250696091,None,1,1.5067308491561562,1195.353250696091,None,1196.9095032404875,None,1196.9095032404875,None,1197.43698161887,None,1197.43698161887,None,1197.43698161887,None,n,0.038260954432189465,1197.43698161887,None,base3,001,2019_Oct_22_1657,ProdFawcett_Revision2019,3.2.4,59.93716272586252,
,,,,88,0,88,0,,,,,,,,,,,,,1202.4718741165707,None,,,,,,,,,,,,,,,,,,,,,,strength,D_new,88,310,1198.039131136611,None,1198.039131136611,None,1198.039131136611,None,2,2.395713280304335,1198.039131136611,None,1200.4878701656125,None,1200.4878701656125,None,1201.0047409062972,None,1201.0047409062972,None,1201.0047409062972,None,n,1.4220289797522128,1201.0047409062972,None,base3,001,2019_Oct_22_1657,ProdFawcett_Revision2019,3.2.4,59.93716272586252,
,,,,89,0,89,0,,,,,,,,,,,,,1206.4728677662788,None,,,,,,,,,,,,,,,,,,,,,,color,D_new,89,56,1202.9885451942682,None,1202.9885451942682,None,1202.9885451942682,None,2,2.230108424439095,1202.9885451942682,None,1205.2727062943159,None,1205.2727062943159,None,1205.7895599298645,None,1205.7895599298645,None,1205.7895599298645,None,n,0.6453376682475209,1205.7895599298645,None,base3,001,2019_Oct_22_1657,ProdFawcett_Revision2019,3.2.4,59.93716272586252,
,,,,90,0,90,0,,,,,,,,,,,,,1209.0237219473347,None,,,,,,,,,,,,,,,,,,,,,,burden,D_new,90,36,1206.9898131472291,None,1206.9898131472291,None,1206.9898131472291,None,1,1.341367019340396,1206.9898131472291,None,1208.3903052759124,None,1208.3903052759124,None,1208.9070264248876,None,1208.9070264248876,None,1208.9070264248876,None,n,0.07128153438679874,1208.9070264248876,None,base3,001,2019_Oct_22_1657,ProdFawcett_Revision2019,3.2.4,59.93716272586252,
,,,,91,0,91,0,,,,,,,,,,,,,1211.5079067456536,None,,,,,,,,,,,,,,,,,,,,,,height,C_aloud2,91,152,1209.5405503917718,None,1209.5405503917718,None,1209.5405503917718,None,6,1.350096519337967,1209.5405503917718,None,1210.941099433694,None,1210.941099433694,None,1211.457805032609,None,1211.457805032609,None,1211.457805032609,None,r,0.008843015530146658,1211.457805032609,None,base3,001,2019_Oct_22_1657,ProdFawcett_Revision2019,3.2.4,59.93716272586252,
,,,,92,0,92,0,,,,,,,,,,,,,1214.392156045651,None,,,,,,,,,,,,,,,,,,,,,,match,D_new,92,181,1212.0247771752765,None,1212.0247771752765,None,1212.0247771752765,None,2,1.7212108282838017,1212.0247771752765,None,1213.7955569709884,None,1213.7955569709884,None,1214.3086792110698,None,1214.3086792110698,None,1214.3086792110698,None,n,0.045340280630625784,1214.3086792110698,None,base3,001,2019_Oct_22_1657,ProdFawcett_Revision2019,3.2.4,59.93716272586252,
,,,,93,0,93,0,,,,,,,,,,,,,1217.059513861197,None,,,,,,,,,,,,,,,,,,,,,,background,D_new,93,16,1214.908787626191,None,1214.908787626191,None,1214.908787626191,None,1,1.4614574337610975,1214.908787626191,None,1216.4136645955732,None,1216.4136645955732,None,1216.9429402513197,None,1216.9429402513197,None,1216.9429402513197,None,n,0.07575342431664467,1216.9429402513197,None,base3,001,2019_Oct_22_1657,ProdFawcett_Revision2019,3.2.4,59.93716272586252,
,,,,94,0,94,0,,,,,,,,,,,,,1219.8771342086839,None,,,,,,,,,,,,,,,,,,,,,,display,D_new,94,98,1217.5764101039385,None,1217.5764101039385,None,1217.5764101039385,None,1,1.6814390287036076,1217.5764101039385,None,1219.3102886435809,None,1219.3102886435809,None,1219.8269908213988,None,1219.8269908213988,None,1219.8269908213988,None,n,0.014794961432926357,1219.8269908213988,None,base3,001,2019_Oct_22_1657,ProdFawcett_Revision2019,3.2.4,59.93716272586252,
,,,,95,0,95,0,,,,,,,,,,,,,1222.4779579271562,None,,,,,,,,,,,,,,,,,,,,,,hunger,B_aloud1,95,155,1220.3937402870506,None,1220.3937402870506,None,1220.3937402870506,None,6,1.4479095881106332,1220.3937402870506,None,1221.8776685091434,None,1221.8776685091434,None,1222.3945737709291,None,1222.3945737709291,None,1222.3945737709291,None,f,0.04685734584927559,1222.3945737709291,None,base3,001,2019_Oct_22_1657,ProdFawcett_Revision2019,3.2.4,59.93716272586252,
,,,,96,0,96,0,,,,,,,,,,,,,1225.5621491320198,None,,,,,,,,,,,,,,,,,,,,,,style,A_silent,96,311,1222.9949222791474,None,1222.9949222791474,None,1222.9949222791474,None,2,1.7912474237382412,1222.9949222791474,None,1224.8452665111981,None,1224.8452665111981,None,1225.3621437827824,None,1225.3621437827824,None,1225.3621437827824,None,n,0.1595496574882418,1225.3621437827824,None,base3,001,2019_Oct_22_1657,ProdFawcett_Revision2019,3.2.4,59.93716272586252,
,,,,97,0,97,0,,,,,,,,,,,,,1229.2465305455262,None,,,,,,,,,,,,,,,,,,,,,,curve,A_silent,97,82,1226.0790603029309,None,1226.0790603029309,None,1226.0790603029309,None,2,2.4908038423163816,1226.0790603029309,None,1228.6186702261912,None,1228.6186702261912,None,1229.1465958247427,None,1229.1465958247427,None,1229.1465958247427,None,f,0.05441530328243971,1229.1465958247427,None,base3,001,2019_Oct_22_1657,ProdFawcett_Revision2019,3.2.4,59.93716272586252,
,,,,98,0,98,0,,,,,,,,,,,,,1233.6479323534295,None,,,,,,,,,,,,,,,,,,,,,,quantity,D_new,98,245,1229.7672633022303,None,1229.7672633022303,None,1229.7672633022303,None,1,3.1223529499256983,1229.7672633022303,None,1232.947738692863,None,1232.947738692863,None,1233.4667466355022,None,1233.4667466355022,None,1233.4667466355022,None,n,0.13397911749780178,1233.4667466355022,None,base3,001,2019_Oct_22_1657,ProdFawcett_Revision2019,3.2.4,59.93716272586252,
,,,,99,0,99,0,,,,,,,,,,,,,1236.5320597408572,None,,,,,,,,,,,,,,,,,,,,,,skill,A_silent,99,289,1234.1647589318454,None,1234.1647589318454,None,1234.1647589318454,None,6,1.451975932228379,1234.1647589318454,None,1235.669167844113,None,1235.669167844113,None,1236.1986559139332,None,1236.1986559139332,None,1236.1986559139332,None,r,0.2905708401231095,1236.1986559139332,None,base3,001,2019_Oct_22_1657,ProdFawcett_Revision2019,3.2.4,59.93716272586252,
,,,,100,0,100,0,,,,,,,,,,,,,1241.100259717321,None,,,,,,,,,,,,,,,,,,,,,,whole,C_aloud2,100,355,1237.0489752658177,None,1237.0489752658177,None,1237.0489752658177,None,2,2.359839883982204,1237.0489752658177,None,1239.4664415430743,None,1239.4664415430743,None,1239.9832348444033,None,1239.9832348444033,None,1239.9832348444033,None,f,1.0738093542167917,1239.9832348444033,None,base3,001,2019_Oct_22_1657,ProdFawcett_Revision2019,3.2.4,59.93716272586252,
,,,,101,0,101,0,,,,,,,,,,,,,1243.8176355866017,None,,,,,,,,,,,,,,,,,,,,,,resistance,D_new,101,262,1241.6187162543647,None,1241.6187162543647,None,1241.6187162543647,None,1,1.3740041344426572,1241.6187162543647,None,1243.0507955573266,None,1243.0507955573266,None,1243.5676731399726,None,1243.5676731399726,None,1243.5676731399726,None,n,0.20897525327745825,1243.5676731399726,None,base3,001,2019_Oct_22_1657,ProdFawcett_Revision2019,3.2.4,59.93716272586252,
,,,,102,0,102,0,,,,,,,,,,,,,1246.7686102496227,None,,,,,,,,,,,,,,,,,,,,,,report,D_new,102,259,1244.3343654435594,None,1244.3343654435594,None,1244.3343654435594,None,2,1.7618241977179423,1244.3343654435594,None,1246.141116290004,None,1246.141116290004,None,1246.6685200280044,None,1246.6685200280044,None,1246.6685200280044,None,n,0.05979500652756542,1246.6685200280044,None,base3,001,2019_Oct_22_1657,ProdFawcett_Revision2019,3.2.4,59.93716272586252,
,,,,103,0,103,0,,,,,,,,,,,,,1251.953424110543,None,,,,,,,,,,,,,,,,,,,,,,build,D_new,103,35,1247.2856004147325,None,1247.2856004147325,None,1247.2856004147325,None,2,2.930144096375443,1247.2856004147325,None,1250.2697250342462,None,1250.2697250342462,None,1250.7863852269948,None,1250.7863852269948,None,1250.7863852269948,None,f,1.1336873981636018,1250.7863852269948,None,base3,001,2019_Oct_22_1657,ProdFawcett_Revision2019,3.2.4,59.93716272586252,
,,,,104,0,104,0,,,,,,,,,,,,,1256.6382969062543,None,,,,,,,,,,,,,,,,,,,,,,still,D_new,104,304,1252.47034678841,None,1252.47034678841,None,1252.47034678841,None,2,3.3774155095452443,1252.47034678841,None,1255.904771975358,None,1255.904771975358,None,1256.4214498950168,None,1256.4214498950168,None,1256.4214498950168,None,n,0.1781447457615286,1256.4214498950168,None,base3,001,2019_Oct_22_1657,ProdFawcett_Revision2019,3.2.4,59.93716272586252,
,,,,105,0,105,0,,,,,,,,,,,,,1260.4228011963423,None,,,,,,,,,,,,,,,,,,,,,,working,D_new,105,357,1257.1551253506914,None,1257.1551253506914,None,1257.1551253506914,None,2,1.7567044916795567,1257.1551253506914,None,1258.9722120196093,None,1258.9722120196093,None,1259.4891713957768,None,1259.4891713957768,None,1259.4891713957768,None,n,0.8858344744658098,1259.4891713957768,None,base3,001,2019_Oct_22_1657,ProdFawcett_Revision2019,3.2.4,59.93716272586252,
,,,,106,0,106,0,,,,,,,,,,,,,1263.7238338144962,None,,,,,,,,,,,,,,,,,,,,,,vision,D_new,106,347,1260.9395733495476,None,1260.9395733495476,None,1260.9395733495476,None,1,2.043740800116211,1260.9395733495476,None,1263.0282128084218,None,1263.0282128084218,None,1263.5569725127425,None,1263.5569725127425,None,1263.5569725127425,None,n,0.12240177718922496,1263.5569725127425,None,base3,001,2019_Oct_22_1657,ProdFawcett_Revision2019,3.2.4,59.93716272586252,
,,,,107,0,107,0,,,,,,,,,,,,,1267.0080061105546,None,,,,,,,,,,,,,,,,,,,,,,clean,D_new,107,51,1264.2415613641497,None,1264.2415613641497,None,1264.2415613641497,None,2,1.6130886829923838,1264.2415613641497,None,1265.9077728283592,None,1265.9077728283592,None,1266.4246280189836,None,1266.4246280189836,None,1266.4246280189836,None,n,0.5427392200799659,1266.4246280189836,None,base3,001,2019_Oct_22_1657,ProdFawcett_Revision2019,3.2.4,59.93716272586252,
,,,,108,0,108,0,,,,,,,,,,,,,1270.6424388237065,None,,,,,,,,,,,,,,,,,,,,,,committee,A_silent,108,62,1267.524766445742,None,1267.524766445742,None,1267.524766445742,None,6,2.058640880160965,1267.524766445742,None,1269.6290334168589,None,1269.6290334168589,None,1270.1589388506254,None,1270.1589388506254,None,1270.1589388506254,None,f,0.44762657687533647,1270.1589388506254,None,base3,001,2019_Oct_22_1657,ProdFawcett_Revision2019,3.2.4,59.93716272586252,
,,,,109,0,109,0,,,,,,,,,,,,,1273.1099029395264,None,,,,,,,,,,,,,,,,,,,,,,recall,D_new,109,255,1271.1600914220326,None,1271.1600914220326,None,1271.1600914220326,None,1,1.3021329413168132,1271.1600914220326,None,1272.5264747766778,None,1272.5264747766778,None,1273.0431713565486,None,1273.0431713565486,None,1273.0431713565486,None,n,0.027276693959720433,1273.0431713565486,None,base3,001,2019_Oct_22_1657,ProdFawcett_Revision2019,3.2.4,59.93716272586252,
,,,,110,0,110,0,,,,,,,,,,,,,1275.9441195689142,None,,,,,,,,,,,,,,,,,,,,,,thing,A_silent,110,328,1273.6266959297936,None,1273.6266959297936,None,1273.6266959297936,None,2,1.6922167842276394,1273.6266959297936,None,1275.377368548303,None,1275.377368548303,None,1275.8940579750342,None,1275.8940579750342,None,1275.8940579750342,None,n,0.00831617892254144,1275.8940579750342,None,base3,001,2019_Oct_22_1657,ProdFawcett_Revision2019,3.2.4,59.93716272586252,
,,,,111,0,111,0,,,,,,,,,,,,,1281.529072571895,None,,,,,,,,,,,,,,,,,,,,,,worker,B_aloud1,111,356,1276.4608590669231,None,1276.4608590669231,None,1276.4608590669231,None,6,3.488901446457021,1276.4608590669231,None,1280.0120646796422,None,1280.0120646796422,None,1280.5288981001358,None,1280.5288981001358,None,1280.5288981001358,None,r,0.9575996161438525,1280.5288981001358,None,base3,001,2019_Oct_22_1657,ProdFawcett_Revision2019,3.2.4,59.93716272586252,
,,,,112,0,112,0,,,,,,,,,,,,,1285.5136702246964,None,,,,,,,,,,,,,,,,,,,,,,company,C_aloud2,112,64,1282.0462182378396,None,1282.0462182378396,None,1282.0462182378396,None,2,2.824118722928688,1282.0462182378396,None,1284.930175818503,None,1284.930175818503,None,1285.4470440711593,None,1285.4470440711593,None,1285.4470440711593,None,f,0.023114250390790403,1285.4470440711593,None,base3,001,2019_Oct_22_1657,ProdFawcett_Revision2019,3.2.4,59.93716272586252,
,,,,113,0,113,0,,,,,,,,,,,,,1288.1145561434096,None,,,,,,,,,,,,,,,,,,,,,,bright,D_new,113,29,1286.0303913735552,None,1286.0303913735552,None,1286.0303913735552,None,1,1.3918092789826915,1286.0303913735552,None,1287.480951938196,None,1287.480951938196,None,1287.997836673865,None,1287.997836673865,None,1287.997836673865,None,n,0.07153935451060534,1287.997836673865,None,base3,001,2019_Oct_22_1657,ProdFawcett_Revision2019,3.2.4,59.93716272586252,
,,,,114,0,114,0,,,,,,,,,,,,,1290.681834622519,None,,,,,,,,,,,,,,,,,,,,,,machinery,C_aloud2,114,175,1288.632012810791,None,1288.632012810791,None,1288.632012810791,None,6,1.397298454772681,1288.632012810791,None,1290.0816559210652,None,1290.0816559210652,None,1290.5986544833286,None,1290.5986544833286,None,1290.5986544833286,None,r,0.04661258775740862,1290.5986544833286,None,base3,001,2019_Oct_22_1657,ProdFawcett_Revision2019,3.2.4,59.93716272586252,
,,,,115,0,115,0,,,,,,,,,,,,,1294.2830079066334,None,,,,,,,,,,,,,,,,,,,,,,sweet,C_aloud2,115,319,1291.198720913264,None,1291.198720913264,None,1291.198720913264,None,6,2.462298070662655,1291.198720913264,None,1293.716172293527,None,1293.716172293527,None,1294.2330741343321,None,1294.2330741343321,None,1294.2330741343321,None,f,0.012210228247568011,1294.2330741343321,None,base3,001,2019_Oct_22_1657,ProdFawcett_Revision2019,3.2.4,59.93716272586252,
,,,,116,0,116,0,,,,,,,,,,,,,1296.833747639088,None,,,,,,,,,,,,,,,,,,,,,,universal,D_new,116,345,1294.799986564787,None,1294.799986564787,None,1294.799986564787,None,1,1.3809080558130518,1294.799986564787,None,1296.2336174539523,None,1296.2336174539523,None,1296.7505236486904,None,1296.7505236486904,None,1296.7505236486904,None,n,0.038161123055033386,1296.7505236486904,None,base3,001,2019_Oct_22_1657,ProdFawcett_Revision2019,3.2.4,59.93716272586252,
,,,,117,0,117,0,,,,,,,,,,,,,1300.7015365649713,None,,,,,,,,,,,,,,,,,,,,,,under,C_aloud2,117,343,1297.3505679975497,None,1297.3505679975497,None,1297.3505679975497,None,2,1.7266480666585267,1297.3505679975497,None,1299.1347018849337,None,1299.1347018849337,None,1299.6512516720686,None,1299.6512516720686,None,1299.6512516720686,None,n,1.0173896466149017,1299.6512516720686,None,base3,001,2019_Oct_22_1657,ProdFawcett_Revision2019,3.2.4,59.93716272586252,
,,,,118,0,118,0,,,,,,,,,,,,,1304.3194535456132,None,,,,,,,,,,,,,,,,,,,,,,general,D_new,118,135,1301.2188514156733,None,1301.2188514156733,None,1301.2188514156733,None,2,2.3533859816379845,1301.2188514156733,None,1303.6359196110861,None,1303.6359196110861,None,1304.1526062388439,None,1304.1526062388439,None,1304.1526062388439,None,n,0.12445625278633088,1304.1526062388439,None,base3,001,2019_Oct_22_1657,ProdFawcett_Revision2019,3.2.4,59.93716272586252,
,,,,119,0,119,0,,,,,,,,,,,,,1306.8702361963224,None,,,,,,,,,,,,,,,,,,,,,,fellow,A_silent,119,126,1304.8362944300752,None,1304.8362944300752,None,1304.8362944300752,None,2,1.376116145402193,1304.8362944300752,None,1306.2580755417002,None,1306.2580755417002,None,1306.7867335486226,None,1306.7867335486226,None,1306.7867335486226,None,n,0.042208496015518904,1306.7867335486226,None,base3,001,2019_Oct_22_1657,ProdFawcett_Revision2019,3.2.4,59.93716272586252,
,,,,120,0,120,0,,,,,,,,,,,,,1309.4043367287377,None,,,,,,,,,,,,,,,,,,,,,,sunset,D_new,120,315,1307.3880495823687,None,1307.3880495823687,None,1307.3880495823687,None,1,1.3443000741535798,1307.3880495823687,None,1308.7749189141905,None,1308.7749189141905,None,1309.304241220234,None,1309.304241220234,None,1309.304241220234,None,n,0.051791072939522564,1309.304241220234,None,base3,001,2019_Oct_22_1657,ProdFawcett_Revision2019,3.2.4,59.93716272586252,
,,,,121,0,121,0,,,,,,,,,,,,,1312.8219326937106,None,,,,,,,,,,,,,,,,,,,,,,people,D_new,121,216,1309.922025714186,None,1309.922025714186,None,1309.922025714186,None,2,1.4101680060848594,1309.922025714186,None,1311.3884156310232,None,1311.3884156310232,None,1311.9051162538817,None,1311.9051162538817,None,1311.9051162538817,None,n,0.8830758915282786,1311.9051162538817,None,base3,001,2019_Oct_22_1657,ProdFawcett_Revision2019,3.2.4,59.93716272586252,
,,,,122,0,122,0,,,,,,,,,,,,,1317.0732669676654,None,,,,,,,,,,,,,,,,,,,,,,benefit,A_silent,122,20,1313.3388920697616,None,1313.3388920697616,None,1313.3388920697616,None,6,2.088582545518875,1313.3388920697616,None,1315.4893486665096,None,1315.4893486665096,None,1316.0063295017462,None,1316.0063295017462,None,1316.0063295017462,None,f,1.0210420476505533,1316.0063295017462,None,base3,001,2019_Oct_22_1657,ProdFawcett_Revision2019,3.2.4,59.93716272586252,
,,,,123,0,123,0,,,,,,,,,,,,,1320.0741446138127,None,,,,,,,,,,,,,,,,,,,,,,weight,D_new,123,353,1317.589924983331,None,1317.589924983331,None,1317.589924983331,None,2,1.789655096246861,1317.589924983331,None,1319.4407151914202,None,1319.4407151914202,None,1319.9573915561195,None,1319.9573915561195,None,1319.9573915561195,None,n,0.06981236347928643,1319.9573915561195,None,base3,001,2019_Oct_22_1657,ProdFawcett_Revision2019,3.2.4,59.93716272586252,
,,,,124,0,124,0,,,,,,,,,,,,,1323.4252733469475,None,,,,,,,,,,,,,,,,,,,,,,session,B_aloud1,124,281,1320.5909478671383,None,1320.5909478671383,None,1320.5909478671383,None,6,1.2929944744100794,1320.5909478671383,None,1321.9414303392405,None,1321.9414303392405,None,1322.4582506977022,None,1322.4582506977022,None,1322.4582506977022,None,r,0.9288120771525428,1322.4582506977022,None,base3,001,2019_Oct_22_1657,ProdFawcett_Revision2019,3.2.4,59.93716272586252,
,,,,125,0,125,0,,,,,,,,,,,,,1326.8429358662106,None,,,,,,,,,,,,,,,,,,,,,,science,B_aloud1,125,275,1323.9426846081624,None,1323.9426846081624,None,1323.9426846081624,None,2,2.1962708437349647,1323.9426846081624,None,1326.192781407386,None,1326.192781407386,None,1326.7094481310342,None,1326.7094481310342,None,1326.7094481310342,None,f,0.10140420275274664,1326.7094481310342,None,base3,001,2019_Oct_22_1657,ProdFawcett_Revision2019,3.2.4,59.93716272586252,
,,,,126,0,126,0,,,,,,,,,,,,,1329.8105285812635,None,,,,,,,,,,,,,,,,,,,,,,running,D_new,126,268,1327.3598999072565,None,1327.3598999072565,None,1327.3598999072565,None,1,1.7707207053899765,1327.3598999072565,None,1329.1936954406556,None,1329.1936954406556,None,1329.71039202041,None,1329.71039202041,None,1329.71039202041,None,n,0.060676695546135306,1329.71039202041,None,base3,001,2019_Oct_22_1657,ProdFawcett_Revision2019,3.2.4,59.93716272586252,
,,,,127,0,127,0,,,,,,,,,,,,,1333.1948971502716,None,,,,,,,,,,,,,,,,,,,,,,revolution,B_aloud1,127,264,1330.328722011065,None,1330.328722011065,None,1330.328722011065,None,6,1.4822712063323706,1330.328722011065,None,1331.8612109340029,None,1331.8612109340029,None,1332.3780586605426,None,1332.3780586605426,None,1332.3780586605426,None,r,0.7683931704377756,1332.3780586605426,None,base3,001,2019_Oct_22_1657,ProdFawcett_Revision2019,3.2.4,59.93716272586252,
,,,,128,0,128,0,,,,,,,,,,,,,1335.9957451890223,None,,,,,,,,,,,,,,,,,,,,,,drama,A_silent,128,103,1333.7154361531138,None,1333.7154361531138,None,1333.7154361531138,None,6,1.2876166371861473,1333.7154361531138,None,1335.0517500208225,None,1335.0517500208225,None,1335.5789811529685,None,1335.5789811529685,None,1335.5789811529685,None,r,0.37594975950196385,1335.5789811529685,None,base3,001,2019_Oct_22_1657,ProdFawcett_Revision2019,3.2.4,59.93716272586252,
,,,,129,0,129,0,,,,,,,,,,,,,1339.6802248789463,None,,,,,,,,,,,,,,,,,,,,,,dispute,A_silent,129,99,1336.5130423126975,None,1336.5130423126975,None,1336.5130423126975,None,2,1.7370439125224948,1336.5130423126975,None,1338.3131343069253,None,1338.3131343069253,None,1338.8298178246478,None,1338.8298178246478,None,1338.8298178246478,None,n,0.8041415442712605,1338.8298178246478,None,base3,001,2019_Oct_22_1657,ProdFawcett_Revision2019,3.2.4,59.93716272586252,
,,,,130,0,130,0,,,,,,,,,,,,,1342.3309033752885,None,,,,,,,,,,,,,,,,,,,,,,incident,B_aloud1,130,158,1340.197866592207,None,1340.197866592207,None,1340.197866592207,None,6,1.5408769432688132,1340.197866592207,None,1341.7972513069399,None,1341.7972513069399,None,1342.3050028628204,None,1342.3050028628204,None,1342.3050028628204,None,r,0.000809225719422102,1342.3050028628204,None,base3,001,2019_Oct_22_1657,ProdFawcett_Revision2019,3.2.4,59.93716272586252,
,,,,131,0,131,0,,,,,,,,,,,,,1345.4652672015363,None,,,,,,,,,,,,,,,,,,,,,,pattern,B_aloud1,131,214,1342.8487236034125,None,1342.8487236034125,None,1342.8487236034125,None,6,1.1129684810293838,1342.8487236034125,None,1344.0147694592597,None,1344.0147694592597,None,1344.5315792436013,None,1344.5315792436013,None,1344.5315792436013,None,r,0.8860105013009161,1344.5315792436013,None,base3,001,2019_Oct_22_1657,ProdFawcett_Revision2019,3.2.4,59.93716272586252,
,,,,132,0,132,0,,,,,,,,,,,,,1348.0326246750774,None,,,,,,,,,,,,,,,,,,,,,,salary,D_new,132,271,1345.9822100945748,None,1345.9822100945748,None,1345.9822100945748,None,1,1.2837642622180283,1345.9822100945748,None,1347.3157174850348,None,1347.3157174850348,None,1347.8326737510506,None,1347.8326737510506,None,1347.8326737510506,None,n,0.15273157239425927,1347.8326737510506,None,base3,001,2019_Oct_22_1657,ProdFawcett_Revision2019,3.2.4,59.93716272586252,
,,,,133,0,133,0,,,,,,,,,,,,,1350.5668051348766,None,,,,,,,,,,,,,,,,,,,,,,candidate,D_new,133,39,1348.5494018042227,None,1348.5494018042227,None,1348.5494018042227,None,2,1.3719132716068998,1348.5494018042227,None,1349.983318814775,None,1349.983318814775,None,1350.5000110405963,None,1350.5000110405963,None,1350.5000110405963,None,n,0.029335523722693324,1350.5000110405963,None,base3,001,2019_Oct_22_1657,ProdFawcett_Revision2019,3.2.4,59.93716272586252,
,,,,134,0,134,0,,,,,,,,,,,,,1353.9678723053075,None,,,,,,,,,,,,,,,,,,,,,,signal,B_aloud1,134,287,1351.0837057316676,None,1351.0837057316676,None,1351.0837057316676,None,6,1.469406942022033,1351.0837057316676,None,1352.6058551000897,None,1352.6058551000897,None,1353.1341358622303,None,1353.1341358622303,None,1353.1341358622303,None,r,0.7869045994011685,1353.1341358622303,None,base3,001,2019_Oct_22_1657,ProdFawcett_Revision2019,3.2.4,59.93716272586252,
,,,,135,0,135,0,,,,,,,,,,,,,1356.3184770010412,None,,,,,,,,,,,,,,,,,,,,,,number,D_new,135,203,1354.4856402851874,None,1354.4856402851874,None,1354.4856402851874,None,2,1.1157880200771615,1354.4856402851874,None,1355.6517293702345,None,1355.6517293702345,None,1356.1684044910362,None,1356.1684044910362,None,1356.1684044910362,None,n,0.10453629842959344,1356.1684044910362,None,base3,001,2019_Oct_22_1657,ProdFawcett_Revision2019,3.2.4,59.93716272586252,
,,,,136,0,136,0,,,,,,,,,,,,,1360.3197844511596,None,,,,,,,,,,,,,,,,,,,,,,captain,D_new,136,41,1356.8356012078002,None,1356.8356012078002,None,1356.8356012078002,None,2,2.1579828321700916,1356.8356012078002,None,1359.0527753925417,None,1359.0527753925417,None,1359.5695721148513,None,1359.5695721148513,None,1359.5695721148513,None,f,0.7030732231214643,1359.5695721148513,None,base3,001,2019_Oct_22_1657,ProdFawcett_Revision2019,3.2.4,59.93716272586252,
,,,,137,0,137,0,,,,,,,,,,,,,1362.8705577717628,None,,,,,,,,,,,,,,,,,,,,,,right,D_new,137,265,1360.8376637694892,None,1360.8376637694892,None,1360.8376637694892,None,2,1.3708353405818343,1360.8376637694892,None,1362.2594227999216,None,1362.2594227999216,None,1362.7872183998115,None,1362.7872183998115,None,1362.7872183998115,None,n,0.0372498887591064,1362.7872183998115,None,base3,001,2019_Oct_22_1657,ProdFawcett_Revision2019,3.2.4,59.93716272586252,
,,,,138,0,138,0,,,,,,,,,,,,,1367.1051763393916,None,,,,,,,,,,,,,,,,,,,,,,review,D_new,138,263,1363.3873715992086,None,1363.3873715992086,None,1363.3873715992086,None,2,1.8290670671267435,1363.3873715992086,None,1365.260388148483,None,1365.260388148483,None,1365.788084227941,None,1365.788084227941,None,1365.788084227941,None,n,1.2681460798485205,1365.788084227941,None,base3,001,2019_Oct_22_1657,ProdFawcett_Revision2019,3.2.4,59.93716272586252,
,,,,139,0,139,0,,,,,,,,,,,,,1370.78961902007,None,,,,,,,,,,,,,,,,,,,,,,surface,D_new,139,316,1367.6218377760379,None,1367.6218377760379,None,1367.6218377760379,None,2,2.162465296103619,1367.6218377760379,None,1369.8393770764815,None,1369.8393770764815,None,1370.3560329151805,None,1370.3560329151805,None,1370.3560329151805,None,n,0.3960236597340554,1370.3560329151805,None,base3,001,2019_Oct_22_1657,ProdFawcett_Revision2019,3.2.4,59.93716272586252,
,,,,140,0,140,0,,,,,,,,,,,,,1373.857204302214,None,,,,,,,,,,,,,,,,,,,,,,mankind,D_new,140,178,1371.3066253573634,None,1371.3066253573634,None,1371.3066253573634,None,1,1.8295298372395337,1371.3066253573634,None,1373.1794677459402,None,1373.1794677459402,None,1373.707165691303,None,1373.707165691303,None,1373.707165691303,None,n,0.10890649084467441,1373.707165691303,None,base3,001,2019_Oct_22_1657,ProdFawcett_Revision2019,3.2.4,59.93716272586252,
,,,,141,0,141,0,,,,,,,,,,,,,1377.0249081068905,None,,,,,,,,,,,,,,,,,,,,,,scene,C_aloud2,141,273,1374.3738915519789,None,1374.3738915519789,None,1374.3738915519789,None,2,1.9217206217581406,1374.3738915519789,None,1376.3481987884734,None,1376.3481987884734,None,1376.8748144487618,None,1376.8748144487618,None,1376.8748144487618,None,f,0.10904395359102637,1376.8748144487618,None,base3,001,2019_Oct_22_1657,ProdFawcett_Revision2019,3.2.4,59.93716272586252,
,,,,142,0,142,0,,,,,,,,,,,,,1379.7088948594173,None,,,,,,,,,,,,,,,,,,,,,,light,D_new,142,171,1377.5416267678374,None,1377.5416267678374,None,1377.5416267678374,None,2,1.4980016601039097,1377.5416267678374,None,1379.0921208091313,None,1379.0921208091313,None,1379.6090070998762,None,1379.6090070998762,None,1379.6090070998762,None,n,0.054377983091399074,1379.6090070998762,None,base3,001,2019_Oct_22_1657,ProdFawcett_Revision2019,3.2.4,59.93716272586252,
,,,,143,0,143,0,,,,,,,,,,,,,1384.1437025781488,None,,,,,,,,,,,,,,,,,,,,,,production,A_silent,143,240,1380.2268503732048,None,1380.2268503732048,None,1380.2268503732048,None,2,2.060801718267612,1380.2268503732048,None,1382.3314662879566,None,1382.3314662879566,None,1382.8599942962173,None,1382.8599942962173,None,1382.8599942962173,None,f,1.2511809502029791,1382.8599942962173,None,base3,001,2019_Oct_22_1657,ProdFawcett_Revision2019,3.2.4,59.93716272586252,
,,,,144,0,144,0,,,,,,,,,,,,,1386.9110787739046,None,,,,,,,,,,,,,,,,,,,,,,design,B_aloud1,144,91,1384.6604168850463,None,1384.6604168850463,None,1384.6604168850463,None,2,1.5950058142188936,1384.6604168850463,None,1386.3110238510417,None,1386.3110238510417,None,1386.8277235408314,None,1386.8277235408314,None,1386.8277235408314,None,f,0.04368855198845267,1386.8277235408314,None,base3,001,2019_Oct_22_1657,ProdFawcett_Revision2019,3.2.4,59.93716272586252,
,,,,145,0,145,0,,,,,,,,,,,,,1391.7125444615958,None,,,,,,,,,,,,,,,,,,,,,,couch,A_silent,145,70,1387.4280515230494,None,1387.4280515230494,None,1387.4280515230494,None,6,1.7149111826438457,1387.4280515230494,None,1389.1950961912517,None,1389.1950961912517,None,1389.712236570078,None,1389.712236570078,None,1389.712236570078,None,r,1.9668920286931098,1389.712236570078,None,base3,001,2019_Oct_22_1657,ProdFawcett_Revision2019,3.2.4,59.93716272586252,
,,,,146,0,146,0,,,,,,,,,,,,,1394.463519373443,None,,,,,,,,,,,,,,,,,,,,,,leader,D_new,146,168,1392.2295206317212,None,1392.2295206317212,None,1392.2295206317212,None,2,1.4891194584779441,1392.2295206317212,None,1393.7799546497408,None,1393.7799546497408,None,1394.2968005102593,None,1394.2968005102593,None,1394.2968005102593,None,n,0.11771218618378043,1394.2968005102593,None,base3,001,2019_Oct_22_1657,ProdFawcett_Revision2019,3.2.4,59.93716272586252,
,,,,147,0,147,0,,,,,,,,,,,,,1397.0642914655618,None,,,,,,,,,,,,,,,,,,,,,,military,D_new,147,190,1394.9811408715323,None,1394.9811408715323,None,1394.9811408715323,None,1,1.3531872518360615,1394.9811408715323,None,1396.3973796261707,None,1396.3973796261707,None,1396.9142341946717,None,1396.9142341946717,None,1396.9142341946717,None,n,0.10883744864258915,1396.9142341946717,None,base3,001,2019_Oct_22_1657,ProdFawcett_Revision2019,3.2.4,59.93716272586252,
,,,,148,0,148,0,,,,,,,,,,,,,1399.6150473702,None,,,,,,,,,,,,,,,,,,,,,,income,D_new,148,159,1397.581093163928,None,1397.581093163928,None,1397.581093163928,None,2,1.4094766498310491,1397.581093163928,None,1399.037137306179,None,1399.037137306179,None,1399.565029627527,None,1399.565029627527,None,1399.565029627527,None,n,0.017029506852850318,1399.565029627527,None,base3,001,2019_Oct_22_1657,ProdFawcett_Revision2019,3.2.4,59.93716272586252,
,,,,149,0,149,0,,,,,,,,,,,,,1402.715970142628,None,,,,,,,,,,,,,,,,,,,,,,escape,A_silent,149,118,1400.1318795466796,None,1400.1318795466796,None,1400.1318795466796,None,6,1.7221600046614185,1400.1318795466796,None,1401.9157935560215,None,1401.9157935560215,None,1402.4324375765864,None,1402.4324375765864,None,1402.4324375765864,None,f,0.24557017302140594,1402.4324375765864,None,base3,001,2019_Oct_22_1657,ProdFawcett_Revision2019,3.2.4,59.93716272586252,
,,,,150,0,150,0,,,,,,,,,,,,,1407.0840276181698,None,,,,,,,,,,,,,,,,,,,,,,beauty,D_new,150,18,1403.2325892831432,None,1403.2325892831432,None,1403.2325892831432,None,1,3.0690964381210506,1403.2325892831432,None,1406.3568934561918,None,1406.3568934561918,None,1406.8840745171765,None,1406.8840745171765,None,1406.8840745171765,None,n,0.15356412343680859,1406.8840745171765,None,base3,001,2019_Oct_22_1657,ProdFawcett_Revision2019,3.2.4,59.93716272586252,
,,,,151,0,151,0,,,,,,,,,,,,,1410.7684584808303,None,,,,,,,,,,,,,,,,,,,,,,native,D_new,151,199,1407.6007151789963,None,1407.6007151789963,None,1407.6007151789963,None,2,2.0688647420611233,1407.6007151789963,None,1409.734803769039,None,1409.734803769039,None,1410.2515109229134,None,1410.2515109229134,None,1410.2515109229134,None,n,0.4747766931541264,1410.2515109229134,None,base3,001,2019_Oct_22_1657,ProdFawcett_Revision2019,3.2.4,59.93716272586252,
,,,,152,0,152,0,,,,,,,,,,,,,1413.9527411513263,None,,,,,,,,,,,,,,,,,,,,,,carry,C_aloud2,152,43,1411.286321627209,None,1411.286321627209,None,1411.286321627209,None,2,2.0154371794778854,1411.286321627209,None,1413.3525434788316,None,1413.3525434788316,None,1413.869407688384,None,1413.869407688384,None,1413.869407688384,None,f,0.04067774675786495,1413.869407688384,None,base3,001,2019_Oct_22_1657,ProdFawcett_Revision2019,3.2.4,59.93716272586252,
