StudyTrials.thisRepN,StudyTrials.thisTrialN,StudyTrials.thisN,StudyTrials.thisIndex,TestTrials.thisRepN,TestTrials.thisTrialN,TestTrials.thisN,TestTrials.thisIndex,textWelcome.started,textWelcome.stopped,keyWelcome.keys,keyWelcome.rt,keyWelcome.started,keyWelcome.stopped,textReady.started,textReady.stopped,keyReady.keys,keyReady.rt,keyReady.started,keyReady.stopped,polyback_2.started,polyback_2.stopped,studyPic,studyWord,studyType,studyN,studyOrder,polyback_3.started,polyback_3.stopped,studyPicChoice.started,studyPicChoice.stopped,polyback_4.started,polyback_4.stopped,polyback.started,polyback.stopped,studyWords.started,studyWords.stopped,getResearcher.started,getResearcher.stopped,kPress2.keys,kPress2.rt,kPress2.started,kPress2.stopped,testWord,testType,testN,testOrder,polyback_5.started,polyback_5.stopped,testWords.started,testWords.stopped,textScale.started,textScale.stopped,keyConf.keys,keyConf.rt,keyConf.started,keyConf.stopped,polyback_6.started,polyback_6.stopped,studyWords_2.started,studyWords_2.stopped,polyback_7.started,polyback_7.stopped,testWords_2.started,testWords_2.stopped,textScale_2.started,textScale_2.stopped,keyRKN.keys,keyRKN.rt,keyRKN.started,keyRKN.stopped,participant,session,date,expName,psychopyVersion,frameRate,
,,,,,,,,11.888317900011316,None,space,3090.452268100009,11.888317900011316,None,,,,,,,,,,,,,,,,,,,,,,,,,,,,,,,,,,,,,,,,,,,,,,,,,,,,,,,,,,base6,001,2019_Oct_24_1530,ProdFawcett_Revision2019,3.2.3,59.97332386314757,
,,,,,,,,,,,,,,3102.3678358000034,None,space,1.588715100006084,3102.3678358000034,None,,,,,,,,,,,,,,,,,,,,,,,,,,,,,,,,,,,,,,,,,,,,,,,,,,,,base6,001,2019_Oct_24_1530,ProdFawcett_Revision2019,3.2.3,59.97332386314757,
0,0,0,0,,,,,,,,,,,,,,,,,3108.7558172999998,None,materials/mumblePic.jpg,evidence,C_aloud2,0,120,3105.0655531000084,None,3105.0655531000084,None,3106.0035639000125,None,3106.2671058000124,None,3106.2671058000124,None,,,,,,,,,,,,,,,,,,,,,,,,,,,,,,,,,,,base6,001,2019_Oct_24_1530,ProdFawcett_Revision2019,3.2.3,59.97332386314757,
1,0,1,0,,,,,,,,,,,,,,,,,3113.02650610001,None,materials/readPic.jpg,religion,A_silent,1,258,3109.334994900011,None,3109.334994900011,None,3110.273573700004,None,3110.535608700011,None,3110.535608700011,None,,,,,,,,,,,,,,,,,,,,,,,,,,,,,,,,,,,base6,001,2019_Oct_24_1530,ProdFawcett_Revision2019,3.2.3,59.97332386314757,
2,0,2,0,,,,,,,,,,,,,,,,,3117.297520500011,None,materials/speakPic.jpg,appeal,B_aloud1,2,9,3113.641666399999,None,3113.641666399999,None,3114.5446377000044,None,3114.7943939000106,None,3114.7943939000106,None,,,,,,,,,,,,,,,,,,,,,,,,,,,,,,,,,,,base6,001,2019_Oct_24_1530,ProdFawcett_Revision2019,3.2.3,59.97332386314757,
3,0,3,0,,,,,,,,,,,,,,,,,3121.5684183999983,None,materials/mumblePic.jpg,service,C_aloud2,3,280,3117.844078400012,None,3117.844078400012,None,3118.816113500012,None,3119.0777959000116,None,3119.0777959000116,None,,,,,,,,,,,,,,,,,,,,,,,,,,,,,,,,,,,base6,001,2019_Oct_24_1530,ProdFawcett_Revision2019,3.2.3,59.97332386314757,
4,0,4,0,,,,,,,,,,,,,,,,,3125.839325699999,None,materials/readPic.jpg,opening,A_silent,4,205,3122.1587691000022,None,3122.1587691000022,None,3123.0865365000063,None,3123.3481052999996,None,3123.3481052999996,None,,,,,,,,,,,,,,,,,,,,,,,,,,,,,,,,,,,base6,001,2019_Oct_24_1530,ProdFawcett_Revision2019,3.2.3,59.97332386314757,
5,0,5,0,,,,,,,,,,,,,,,,,3130.110053100012,None,materials/readPic.jpg,quick,A_silent,5,248,3126.4335839999985,None,3126.4335839999985,None,3127.3575104000047,None,3127.6233647000045,None,3127.6233647000045,None,,,,,,,,,,,,,,,,,,,,,,,,,,,,,,,,,,,base6,001,2019_Oct_24_1530,ProdFawcett_Revision2019,3.2.3,59.97332386314757,
6,0,6,0,,,,,,,,,,,,,,,,,3134.3811287999997,None,materials/speakPic.jpg,weather,B_aloud1,6,352,3130.67878870001,None,3130.67878870001,None,3131.6285167000024,None,3131.889284600009,None,3131.889284600009,None,,,,,,,,,,,,,,,,,,,,,,,,,,,,,,,,,,,base6,001,2019_Oct_24_1530,ProdFawcett_Revision2019,3.2.3,59.97332386314757,
7,0,7,0,,,,,,,,,,,,,,,,,3138.6354942000034,None,materials/mumblePic.jpg,sight,C_aloud2,7,286,3134.9148215000023,None,3134.9148215000023,None,3135.883554400003,None,3136.1466948000016,None,3136.1466948000016,None,,,,,,,,,,,,,,,,,,,,,,,,,,,,,,,,,,,base6,001,2019_Oct_24_1530,ProdFawcett_Revision2019,3.2.3,59.97332386314757,
8,0,8,0,,,,,,,,,,,,,,,,,3142.906330500002,None,materials/mumblePic.jpg,reading,C_aloud2,8,254,3139.174994800007,None,3139.174994800007,None,3140.153398800001,None,3140.4171937000065,None,3140.4171937000065,None,,,,,,,,,,,,,,,,,,,,,,,,,,,,,,,,,,,base6,001,2019_Oct_24_1530,ProdFawcett_Revision2019,3.2.3,59.97332386314757,
9,0,9,0,,,,,,,,,,,,,,,,,3147.1772968000005,None,materials/speakPic.jpg,shape,B_aloud1,9,282,3143.5126792000083,None,3143.5126792000083,None,3144.4243290000013,None,3144.681790600007,None,3144.681790600007,None,,,,,,,,,,,,,,,,,,,,,,,,,,,,,,,,,,,base6,001,2019_Oct_24_1530,ProdFawcett_Revision2019,3.2.3,59.97332386314757,
10,0,10,0,,,,,,,,,,,,,,,,,3151.4482187000103,None,materials/mumblePic.jpg,working,C_aloud2,10,357,3147.723027900007,None,3147.723027900007,None,3148.6943455,None,3148.9586191000126,None,3148.9586191000126,None,,,,,,,,,,,,,,,,,,,,,,,,,,,,,,,,,,,base6,001,2019_Oct_24_1530,ProdFawcett_Revision2019,3.2.3,59.97332386314757,
11,0,11,0,,,,,,,,,,,,,,,,,3155.7190063000016,None,materials/speakPic.jpg,story,B_aloud1,11,306,3152.021935500001,None,3152.021935500001,None,3152.9664540000085,None,3153.223653699999,None,3153.223653699999,None,,,,,,,,,,,,,,,,,,,,,,,,,,,,,,,,,,,base6,001,2019_Oct_24_1530,ProdFawcett_Revision2019,3.2.3,59.97332386314757,
12,0,12,0,,,,,,,,,,,,,,,,,3159.974000500006,None,materials/speakPic.jpg,waste,B_aloud1,12,350,3156.273029200005,None,3156.273029200005,None,3157.2205579,None,3157.4807281000103,None,3157.4807281000103,None,,,,,,,,,,,,,,,,,,,,,,,,,,,,,,,,,,,base6,001,2019_Oct_24_1530,ProdFawcett_Revision2019,3.2.3,59.97332386314757,
13,0,13,0,,,,,,,,,,,,,,,,,3164.244129400002,None,materials/speakPic.jpg,strength,B_aloud1,13,310,3160.571976899999,None,3160.571976899999,None,3161.4914422,None,3161.756140700003,None,3161.756140700003,None,,,,,,,,,,,,,,,,,,,,,,,,,,,,,,,,,,,base6,001,2019_Oct_24_1530,ProdFawcett_Revision2019,3.2.3,59.97332386314757,
14,0,14,0,,,,,,,,,,,,,,,,,3168.5152490000037,None,materials/speakPic.jpg,primary,B_aloud1,14,234,3164.8137121000036,None,3164.8137121000036,None,3165.7627887000126,None,3166.0194898000045,None,3166.0194898000045,None,,,,,,,,,,,,,,,,,,,,,,,,,,,,,,,,,,,base6,001,2019_Oct_24_1530,ProdFawcett_Revision2019,3.2.3,59.97332386314757,
15,0,15,0,,,,,,,,,,,,,,,,,3172.7860284000053,None,materials/mumblePic.jpg,afternoon,C_aloud2,15,3,3169.059023900001,None,3169.059023900001,None,3170.0324390000023,None,3170.2911845000053,None,3170.2911845000053,None,,,,,,,,,,,,,,,,,,,,,,,,,,,,,,,,,,,base6,001,2019_Oct_24_1530,ProdFawcett_Revision2019,3.2.3,59.97332386314757,
16,0,16,0,,,,,,,,,,,,,,,,,3177.056954300002,None,materials/mumblePic.jpg,route,C_aloud2,16,267,3173.3178751000087,None,3173.3178751000087,None,3174.3041322000063,None,3174.5610455999995,None,3174.5610455999995,None,,,,,,,,,,,,,,,,,,,,,,,,,,,,,,,,,,,base6,001,2019_Oct_24_1530,ProdFawcett_Revision2019,3.2.3,59.97332386314757,
17,0,17,0,,,,,,,,,,,,,,,,,3181.328117900004,None,materials/readPic.jpg,personnel,A_silent,17,219,3177.6366944000038,None,3177.6366944000038,None,3178.5742507000105,None,3178.834665100003,None,3178.834665100003,None,,,,,,,,,,,,,,,,,,,,,,,,,,,,,,,,,,,base6,001,2019_Oct_24_1530,ProdFawcett_Revision2019,3.2.3,59.97332386314757,
18,0,18,0,,,,,,,,,,,,,,,,,3185.599432300005,None,materials/readPic.jpg,tennis,A_silent,18,323,3181.8993789000087,None,3181.8993789000087,None,3182.8461368999997,None,3183.1045109000115,None,3183.1045109000115,None,,,,,,,,,,,,,,,,,,,,,,,,,,,,,,,,,,,base6,001,2019_Oct_24_1530,ProdFawcett_Revision2019,3.2.3,59.97332386314757,
19,0,19,0,,,,,,,,,,,,,,,,,3189.86972480001,None,materials/speakPic.jpg,trail,B_aloud1,19,336,3186.175872500011,None,3186.175872500011,None,3187.1179688999982,None,3187.374119500004,None,3187.374119500004,None,,,,,,,,,,,,,,,,,,,,,,,,,,,,,,,,,,,base6,001,2019_Oct_24_1530,ProdFawcett_Revision2019,3.2.3,59.97332386314757,
20,0,20,0,,,,,,,,,,,,,,,,,3194.1409286000126,None,materials/readPic.jpg,member,A_silent,20,188,3190.447413300004,None,3190.447413300004,None,3191.3878864,None,3191.650248500009,None,3191.650248500009,None,,,,,,,,,,,,,,,,,,,,,,,,,,,,,,,,,,,base6,001,2019_Oct_24_1530,ProdFawcett_Revision2019,3.2.3,59.97332386314757,
21,0,21,0,,,,,,,,,,,,,,,,,3198.3950313000096,None,materials/readPic.jpg,safety,A_silent,21,270,3194.6906558000046,None,3194.6906558000046,None,3195.65967600001,None,3195.915843300012,None,3195.915843300012,None,,,,,,,,,,,,,,,,,,,,,,,,,,,,,,,,,,,base6,001,2019_Oct_24_1530,ProdFawcett_Revision2019,3.2.3,59.97332386314757,
22,0,22,0,,,,,,,,,,,,,,,,,3202.666008100001,None,materials/mumblePic.jpg,empty,C_aloud2,22,112,3198.9366828000057,None,3198.9366828000057,None,3199.913205100005,None,3200.1705786000093,None,3200.1705786000093,None,,,,,,,,,,,,,,,,,,,,,,,,,,,,,,,,,,,base6,001,2019_Oct_24_1530,ProdFawcett_Revision2019,3.2.3,59.97332386314757,
23,0,23,0,,,,,,,,,,,,,,,,,3206.937005800006,None,materials/mumblePic.jpg,industry,C_aloud2,23,161,3203.2272519000107,None,3203.2272519000107,None,3204.184230400002,None,3204.4491880999994,None,3204.4491880999994,None,,,,,,,,,,,,,,,,,,,,,,,,,,,,,,,,,,,base6,001,2019_Oct_24_1530,ProdFawcett_Revision2019,3.2.3,59.97332386314757,
24,0,24,0,,,,,,,,,,,,,,,,,3211.207953200006,None,materials/mumblePic.jpg,congress,C_aloud2,24,67,3207.4969584000064,None,3207.4969584000064,None,3208.453749600012,None,3208.705162099999,None,3208.705162099999,None,,,,,,,,,,,,,,,,,,,,,,,,,,,,,,,,,,,base6,001,2019_Oct_24_1530,ProdFawcett_Revision2019,3.2.3,59.97332386314757,
25,0,25,0,,,,,,,,,,,,,,,,,3215.477836700011,None,materials/readPic.jpg,couch,A_silent,25,70,3211.781845900012,None,3211.781845900012,None,3212.7261228999996,None,3212.983686000007,None,3212.983686000007,None,,,,,,,,,,,,,,,,,,,,,,,,,,,,,,,,,,,base6,001,2019_Oct_24_1530,ProdFawcett_Revision2019,3.2.3,59.97332386314757,
26,0,26,0,,,,,,,,,,,,,,,,,3219.749784600004,None,materials/speakPic.jpg,title,B_aloud1,26,331,3216.0569851000037,None,3216.0569851000037,None,3216.9971206000046,None,3217.253902700002,None,3217.253902700002,None,,,,,,,,,,,,,,,,,,,,,,,,,,,,,,,,,,,base6,001,2019_Oct_24_1530,ProdFawcett_Revision2019,3.2.3,59.97332386314757,
27,0,27,0,,,,,,,,,,,,,,,,,3224.020504400003,None,materials/readPic.jpg,beauty,A_silent,27,18,3220.326310900011,None,3220.326310900011,None,3221.2679673000093,None,3221.5279855000117,None,3221.5279855000117,None,,,,,,,,,,,,,,,,,,,,,,,,,,,,,,,,,,,base6,001,2019_Oct_24_1530,ProdFawcett_Revision2019,3.2.3,59.97332386314757,
28,0,28,0,,,,,,,,,,,,,,,,,3228.2916627000086,None,materials/mumblePic.jpg,trend,C_aloud2,28,340,3224.575273800001,None,3224.575273800001,None,3225.5403294999996,None,3225.7974747000117,None,3225.7974747000117,None,,,,,,,,,,,,,,,,,,,,,,,,,,,,,,,,,,,base6,001,2019_Oct_24_1530,ProdFawcett_Revision2019,3.2.3,59.97332386314757,
29,0,29,0,,,,,,,,,,,,,,,,,3232.562502700006,None,materials/mumblePic.jpg,disease,C_aloud2,29,97,3228.839267400006,None,3228.839267400006,None,3229.809866399999,None,3230.0716040000116,None,3230.0716040000116,None,,,,,,,,,,,,,,,,,,,,,,,,,,,,,,,,,,,base6,001,2019_Oct_24_1530,ProdFawcett_Revision2019,3.2.3,59.97332386314757,
30,0,30,0,,,,,,,,,,,,,,,,,3236.832754300005,None,materials/mumblePic.jpg,cross,C_aloud2,30,80,3233.1202373000124,None,3233.1202373000124,None,3234.0802368000004,None,3234.3378347000107,None,3234.3378347000107,None,,,,,,,,,,,,,,,,,,,,,,,,,,,,,,,,,,,base6,001,2019_Oct_24_1530,ProdFawcett_Revision2019,3.2.3,59.97332386314757,
31,0,31,0,,,,,,,,,,,,,,,,,3241.10439410001,None,materials/speakPic.jpg,front,B_aloud1,31,134,3237.390126099999,None,3237.390126099999,None,3238.350621100006,None,3238.6013705000078,None,3238.6013705000078,None,,,,,,,,,,,,,,,,,,,,,,,,,,,,,,,,,,,base6,001,2019_Oct_24_1530,ProdFawcett_Revision2019,3.2.3,59.97332386314757,
32,0,32,0,,,,,,,,,,,,,,,,,3245.375171000007,None,materials/speakPic.jpg,impact,B_aloud1,32,157,3241.678488999998,None,3241.678488999998,None,3242.623386700012,None,3242.8808095999993,None,3242.8808095999993,None,,,,,,,,,,,,,,,,,,,,,,,,,,,,,,,,,,,base6,001,2019_Oct_24_1530,ProdFawcett_Revision2019,3.2.3,59.97332386314757,
33,0,33,0,,,,,,,,,,,,,,,,,3249.646308200012,None,materials/mumblePic.jpg,grade,C_aloud2,33,140,3245.9330595000065,None,3245.9330595000065,None,3246.8944151000032,None,3247.153870599999,None,3247.153870599999,None,,,,,,,,,,,,,,,,,,,,,,,,,,,,,,,,,,,base6,001,2019_Oct_24_1530,ProdFawcett_Revision2019,3.2.3,59.97332386314757,
34,0,34,0,,,,,,,,,,,,,,,,,3253.9170081000048,None,materials/mumblePic.jpg,quarter,C_aloud2,34,246,3250.207514599999,None,3250.207514599999,None,3251.1644965000014,None,3251.426757699999,None,3251.426757699999,None,,,,,,,,,,,,,,,,,,,,,,,,,,,,,,,,,,,base6,001,2019_Oct_24_1530,ProdFawcett_Revision2019,3.2.3,59.97332386314757,
35,0,35,0,,,,,,,,,,,,,,,,,3258.1880481000117,None,materials/speakPic.jpg,device,B_aloud1,35,93,3254.4997268000006,None,3254.4997268000006,None,3255.435348500003,None,3255.6978100000124,None,3255.6978100000124,None,,,,,,,,,,,,,,,,,,,,,,,,,,,,,,,,,,,base6,001,2019_Oct_24_1530,ProdFawcett_Revision2019,3.2.3,59.97332386314757,
36,0,36,0,,,,,,,,,,,,,,,,,3262.4581837000005,None,materials/mumblePic.jpg,plane,C_aloud2,36,223,3258.729997100003,None,3258.729997100003,None,3259.7061041999987,None,3259.962506600001,None,3259.962506600001,None,,,,,,,,,,,,,,,,,,,,,,,,,,,,,,,,,,,base6,001,2019_Oct_24_1530,ProdFawcett_Revision2019,3.2.3,59.97332386314757,
37,0,37,0,,,,,,,,,,,,,,,,,3266.7300615999993,None,materials/readPic.jpg,foundation,A_silent,37,132,3263.045456100008,None,3263.045456100008,None,3263.9770979000023,None,3264.238072699998,None,3264.238072699998,None,,,,,,,,,,,,,,,,,,,,,,,,,,,,,,,,,,,base6,001,2019_Oct_24_1530,ProdFawcett_Revision2019,3.2.3,59.97332386314757,
38,0,38,0,,,,,,,,,,,,,,,,,3271.0009782999987,None,materials/speakPic.jpg,detective,B_aloud1,38,92,3267.301226399999,None,3267.301226399999,None,3268.2491034000122,None,3268.49706780001,None,3268.49706780001,None,,,,,,,,,,,,,,,,,,,,,,,,,,,,,,,,,,,base6,001,2019_Oct_24_1530,ProdFawcett_Revision2019,3.2.3,59.97332386314757,
39,0,39,0,,,,,,,,,,,,,,,,,3275.271710400004,None,materials/mumblePic.jpg,welcome,C_aloud2,39,354,3271.5576644000103,None,3271.5576644000103,None,3272.519164600002,None,3272.7814653000096,None,3272.7814653000096,None,,,,,,,,,,,,,,,,,,,,,,,,,,,,,,,,,,,base6,001,2019_Oct_24_1530,ProdFawcett_Revision2019,3.2.3,59.97332386314757,
40,0,40,0,,,,,,,,,,,,,,,,,3279.5259825000103,None,materials/speakPic.jpg,substance,B_aloud1,40,313,3275.8179566000035,None,3275.8179566000035,None,3276.789874599999,None,3277.0540126000124,None,3277.0540126000124,None,,,,,,,,,,,,,,,,,,,,,,,,,,,,,,,,,,,base6,001,2019_Oct_24_1530,ProdFawcett_Revision2019,3.2.3,59.97332386314757,
41,0,41,0,,,,,,,,,,,,,,,,,3283.796231200002,None,materials/mumblePic.jpg,orchestra,C_aloud2,41,206,3280.0924272999982,None,3280.0924272999982,None,3281.0434890000033,None,3281.30373330001,None,3281.30373330001,None,,,,,,,,,,,,,,,,,,,,,,,,,,,,,,,,,,,base6,001,2019_Oct_24_1530,ProdFawcett_Revision2019,3.2.3,59.97332386314757,
42,0,42,0,,,,,,,,,,,,,,,,,3288.067812699999,None,materials/speakPic.jpg,colonel,B_aloud1,42,55,3284.3662165999995,None,3284.3662165999995,None,3285.3150287000026,None,3285.572918100006,None,3285.572918100006,None,,,,,,,,,,,,,,,,,,,,,,,,,,,,,,,,,,,base6,001,2019_Oct_24_1530,ProdFawcett_Revision2019,3.2.3,59.97332386314757,
43,0,43,0,,,,,,,,,,,,,,,,,3292.3389779999998,None,materials/readPic.jpg,balance,A_silent,43,17,3288.6430835000065,None,3288.6430835000065,None,3289.586067600001,None,3289.839489100006,None,3289.839489100006,None,,,,,,,,,,,,,,,,,,,,,,,,,,,,,,,,,,,base6,001,2019_Oct_24_1530,ProdFawcett_Revision2019,3.2.3,59.97332386314757,
44,0,44,0,,,,,,,,,,,,,,,,,3296.6100980000047,None,materials/mumblePic.jpg,comedy,C_aloud2,44,58,3292.8887348999997,None,3292.8887348999997,None,3293.857479600003,None,3294.1147053000022,None,3294.1147053000022,None,,,,,,,,,,,,,,,,,,,,,,,,,,,,,,,,,,,base6,001,2019_Oct_24_1530,ProdFawcett_Revision2019,3.2.3,59.97332386314757,
45,0,45,0,,,,,,,,,,,,,,,,,3300.88061990001,None,materials/readPic.jpg,search,A_silent,45,276,3297.2020554000046,None,3297.2020554000046,None,3298.127862100009,None,3298.377569400007,None,3298.377569400007,None,,,,,,,,,,,,,,,,,,,,,,,,,,,,,,,,,,,base6,001,2019_Oct_24_1530,ProdFawcett_Revision2019,3.2.3,59.97332386314757,
46,0,46,0,,,,,,,,,,,,,,,,,3305.1515780000045,None,materials/speakPic.jpg,interview,B_aloud1,46,165,3301.4668902999983,None,3301.4668902999983,None,3302.398264400006,None,3302.6629967000044,None,3302.6629967000044,None,,,,,,,,,,,,,,,,,,,,,,,,,,,,,,,,,,,base6,001,2019_Oct_24_1530,ProdFawcett_Revision2019,3.2.3,59.97332386314757,
47,0,47,0,,,,,,,,,,,,,,,,,3309.4227055000083,None,materials/speakPic.jpg,corner,B_aloud1,47,69,3305.703491200009,None,3305.703491200009,None,3306.6697682000085,None,3306.926594100005,None,3306.926594100005,None,,,,,,,,,,,,,,,,,,,,,,,,,,,,,,,,,,,base6,001,2019_Oct_24_1530,ProdFawcett_Revision2019,3.2.3,59.97332386314757,
48,0,48,0,,,,,,,,,,,,,,,,,3313.693385800012,None,materials/readPic.jpg,broad,A_silent,48,31,3310.017089700006,None,3310.017089700006,None,3310.9409662000107,None,3311.2015525000024,None,3311.2015525000024,None,,,,,,,,,,,,,,,,,,,,,,,,,,,,,,,,,,,base6,001,2019_Oct_24_1530,ProdFawcett_Revision2019,3.2.3,59.97332386314757,
49,0,49,0,,,,,,,,,,,,,,,,,3317.964464600009,None,materials/mumblePic.jpg,center,C_aloud2,49,44,3314.2472284000105,None,3314.2472284000105,None,3315.211784400002,None,3315.4643136000086,None,3315.4643136000086,None,,,,,,,,,,,,,,,,,,,,,,,,,,,,,,,,,,,base6,001,2019_Oct_24_1530,ProdFawcett_Revision2019,3.2.3,59.97332386314757,
50,0,50,0,,,,,,,,,,,,,,,,,3322.2353035999986,None,materials/speakPic.jpg,minute,B_aloud1,50,192,3318.534870100004,None,3318.534870100004,None,3319.482986700008,None,3319.7405641000078,None,3319.7405641000078,None,,,,,,,,,,,,,,,,,,,,,,,,,,,,,,,,,,,base6,001,2019_Oct_24_1530,ProdFawcett_Revision2019,3.2.3,59.97332386314757,
51,0,51,0,,,,,,,,,,,,,,,,,3326.506211800006,None,materials/readPic.jpg,minor,A_silent,51,191,3322.8102646000043,None,3322.8102646000043,None,3323.7535896000045,None,3324.0098690000013,None,3324.0098690000013,None,,,,,,,,,,,,,,,,,,,,,,,,,,,,,,,,,,,base6,001,2019_Oct_24_1530,ProdFawcett_Revision2019,3.2.3,59.97332386314757,
52,0,52,0,,,,,,,,,,,,,,,,,3330.7771586000017,None,materials/readPic.jpg,death,A_silent,52,86,3327.1092489000002,None,3327.1092489000002,None,3328.027277100002,None,3328.27880130001,None,3328.27880130001,None,,,,,,,,,,,,,,,,,,,,,,,,,,,,,,,,,,,base6,001,2019_Oct_24_1530,ProdFawcett_Revision2019,3.2.3,59.97332386314757,
53,0,53,0,,,,,,,,,,,,,,,,,3335.048281399999,None,materials/readPic.jpg,career,A_silent,53,42,3331.3564332000096,None,3331.3564332000096,None,3332.2952977000095,None,3332.5529026000004,None,3332.5529026000004,None,,,,,,,,,,,,,,,,,,,,,,,,,,,,,,,,,,,base6,001,2019_Oct_24_1530,ProdFawcett_Revision2019,3.2.3,59.97332386314757,
54,0,54,0,,,,,,,,,,,,,,,,,3339.3191961999983,None,materials/readPic.jpg,bucket,A_silent,54,33,3335.6405563000008,None,3335.6405563000008,None,3336.5662700000103,None,3336.8291476000013,None,3336.8291476000013,None,,,,,,,,,,,,,,,,,,,,,,,,,,,,,,,,,,,base6,001,2019_Oct_24_1530,ProdFawcett_Revision2019,3.2.3,59.97332386314757,
55,0,55,0,,,,,,,,,,,,,,,,,3343.590230600006,None,materials/readPic.jpg,under,A_silent,55,343,3339.8991358000058,None,3339.8991358000058,None,3340.837222400005,None,3341.087877400001,None,3341.087877400001,None,,,,,,,,,,,,,,,,,,,,,,,,,,,,,,,,,,,base6,001,2019_Oct_24_1530,ProdFawcett_Revision2019,3.2.3,59.97332386314757,
56,0,56,0,,,,,,,,,,,,,,,,,3347.8608883999987,None,materials/mumblePic.jpg,light,C_aloud2,56,171,3344.1495766000007,None,3344.1495766000007,None,3345.1080698000005,None,3345.3682161000033,None,3345.3682161000033,None,,,,,,,,,,,,,,,,,,,,,,,,,,,,,,,,,,,base6,001,2019_Oct_24_1530,ProdFawcett_Revision2019,3.2.3,59.97332386314757,
57,0,57,0,,,,,,,,,,,,,,,,,3352.1318615000055,None,materials/speakPic.jpg,power,B_aloud1,57,230,3348.427797100012,None,3348.427797100012,None,3349.3790684999985,None,3349.6425377000123,None,3349.6425377000123,None,,,,,,,,,,,,,,,,,,,,,,,,,,,,,,,,,,,base6,001,2019_Oct_24_1530,ProdFawcett_Revision2019,3.2.3,59.97332386314757,
58,0,58,0,,,,,,,,,,,,,,,,,3356.402961300002,None,materials/mumblePic.jpg,frank,C_aloud2,58,133,3352.6800963999995,None,3352.6800963999995,None,3353.6494214999984,None,3353.9075965000084,None,3353.9075965000084,None,,,,,,,,,,,,,,,,,,,,,,,,,,,,,,,,,,,base6,001,2019_Oct_24_1530,ProdFawcett_Revision2019,3.2.3,59.97332386314757,
59,0,59,0,,,,,,,,,,,,,,,,,3360.656954300008,None,materials/readPic.jpg,throw,A_silent,59,330,3356.96011320001,None,3356.96011320001,None,3357.9208302000043,None,3358.18423910001,None,3358.18423910001,None,,,,,,,,,,,,,,,,,,,,,,,,,,,,,,,,,,,base6,001,2019_Oct_24_1530,ProdFawcett_Revision2019,3.2.3,59.97332386314757,
60,0,60,0,,,,,,,,,,,,,,,,,3364.9280061000027,None,materials/mumblePic.jpg,suspect,C_aloud2,60,318,3361.2075975000043,None,3361.2075975000043,None,3362.176179800008,None,3362.433771000011,None,3362.433771000011,None,,,,,,,,,,,,,,,,,,,,,,,,,,,,,,,,,,,base6,001,2019_Oct_24_1530,ProdFawcett_Revision2019,3.2.3,59.97332386314757,
61,0,61,0,,,,,,,,,,,,,,,,,3369.1991662000073,None,materials/mumblePic.jpg,touch,C_aloud2,61,332,3365.471791200005,None,3365.471791200005,None,3366.446088900004,None,3366.6992783000023,None,3366.6992783000023,None,,,,,,,,,,,,,,,,,,,,,,,,,,,,,,,,,,,base6,001,2019_Oct_24_1530,ProdFawcett_Revision2019,3.2.3,59.97332386314757,
62,0,62,0,,,,,,,,,,,,,,,,,3373.4699139000004,None,materials/mumblePic.jpg,exchange,C_aloud2,62,121,3369.746725200006,None,3369.746725200006,None,3370.7170333000104,None,3370.9802949000004,None,3370.9802949000004,None,,,,,,,,,,,,,,,,,,,,,,,,,,,,,,,,,,,base6,001,2019_Oct_24_1530,ProdFawcett_Revision2019,3.2.3,59.97332386314757,
63,0,63,0,,,,,,,,,,,,,,,,,3377.740917400006,None,materials/readPic.jpg,background,A_silent,63,16,3374.097115299999,None,3374.097115299999,None,3374.9880008000036,None,3375.254487600003,None,3375.254487600003,None,,,,,,,,,,,,,,,,,,,,,,,,,,,,,,,,,,,base6,001,2019_Oct_24_1530,ProdFawcett_Revision2019,3.2.3,59.97332386314757,
64,0,64,0,,,,,,,,,,,,,,,,,3381.995231100009,None,materials/speakPic.jpg,rough,B_aloud1,64,266,3378.2831846000045,None,3378.2831846000045,None,3379.2589346000022,None,3379.52114550001,None,3379.52114550001,None,,,,,,,,,,,,,,,,,,,,,,,,,,,,,,,,,,,base6,001,2019_Oct_24_1530,ProdFawcett_Revision2019,3.2.3,59.97332386314757,
65,0,65,0,,,,,,,,,,,,,,,,,3386.2663196000067,None,materials/speakPic.jpg,color,B_aloud1,65,56,3382.5606621000043,None,3382.5606621000043,None,3383.5131364000117,None,3383.770294400005,None,3383.770294400005,None,,,,,,,,,,,,,,,,,,,,,,,,,,,,,,,,,,,base6,001,2019_Oct_24_1530,ProdFawcett_Revision2019,3.2.3,59.97332386314757,
66,0,66,0,,,,,,,,,,,,,,,,,3390.5372640999994,None,materials/readPic.jpg,block,A_silent,66,25,3386.893050300001,None,3386.893050300001,None,3387.7843151000125,None,3388.036340000006,None,3388.036340000006,None,,,,,,,,,,,,,,,,,,,,,,,,,,,,,,,,,,,base6,001,2019_Oct_24_1530,ProdFawcett_Revision2019,3.2.3,59.97332386314757,
67,0,67,0,,,,,,,,,,,,,,,,,3394.807835600004,None,materials/readPic.jpg,agreement,A_silent,67,5,3391.1151853000047,None,3391.1151853000047,None,3392.0550094000064,None,3392.3214294000063,None,3392.3214294000063,None,,,,,,,,,,,,,,,,,,,,,,,,,,,,,,,,,,,base6,001,2019_Oct_24_1530,ProdFawcett_Revision2019,3.2.3,59.97332386314757,
68,0,68,0,,,,,,,,,,,,,,,,,3399.0787284000107,None,materials/readPic.jpg,tough,A_silent,68,333,3395.383669700008,None,3395.383669700008,None,3396.3250159000017,None,3396.58672810001,None,3396.58672810001,None,,,,,,,,,,,,,,,,,,,,,,,,,,,,,,,,,,,base6,001,2019_Oct_24_1530,ProdFawcett_Revision2019,3.2.3,59.97332386314757,
69,0,69,0,,,,,,,,,,,,,,,,,3403.3496607000125,None,materials/speakPic.jpg,novel,B_aloud1,69,202,3399.656042500006,None,3399.656042500006,None,3400.5970906000002,None,3400.8581195000006,None,3400.8581195000006,None,,,,,,,,,,,,,,,,,,,,,,,,,,,,,,,,,,,base6,001,2019_Oct_24_1530,ProdFawcett_Revision2019,3.2.3,59.97332386314757,
70,0,70,0,,,,,,,,,,,,,,,,,3407.6206157000124,None,materials/readPic.jpg,hearing,A_silent,70,150,3403.9107621000003,None,3403.9107621000003,None,3404.8677914,None,3405.1298481999984,None,3405.1298481999984,None,,,,,,,,,,,,,,,,,,,,,,,,,,,,,,,,,,,base6,001,2019_Oct_24_1530,ProdFawcett_Revision2019,3.2.3,59.97332386314757,
71,0,71,0,,,,,,,,,,,,,,,,,3411.891527400003,None,materials/mumblePic.jpg,public,C_aloud2,71,244,3408.1769442000077,None,3408.1769442000077,None,3409.1387496000098,None,3409.399702900002,None,3409.399702900002,None,,,,,,,,,,,,,,,,,,,,,,,,,,,,,,,,,,,base6,001,2019_Oct_24_1530,ProdFawcett_Revision2019,3.2.3,59.97332386314757,
72,0,72,0,,,,,,,,,,,,,,,,,3416.1628424000082,None,materials/speakPic.jpg,order,B_aloud1,72,207,3412.465833200011,None,3412.465833200011,None,3413.4100999000075,None,3413.6636410000065,None,3413.6636410000065,None,,,,,,,,,,,,,,,,,,,,,,,,,,,,,,,,,,,base6,001,2019_Oct_24_1530,ProdFawcett_Revision2019,3.2.3,59.97332386314757,
73,0,73,0,,,,,,,,,,,,,,,,,3420.433475500002,None,materials/speakPic.jpg,growth,B_aloud1,73,144,3416.7695508000033,None,3416.7695508000033,None,3417.680904000008,None,3417.9423551000073,None,3417.9423551000073,None,,,,,,,,,,,,,,,,,,,,,,,,,,,,,,,,,,,base6,001,2019_Oct_24_1530,ProdFawcett_Revision2019,3.2.3,59.97332386314757,
74,0,74,0,,,,,,,,,,,,,,,,,3424.7043226000096,None,materials/mumblePic.jpg,position,C_aloud2,74,229,3420.9842676000117,None,3420.9842676000117,None,3421.9513390000066,None,3422.2103515000053,None,3422.2103515000053,None,,,,,,,,,,,,,,,,,,,,,,,,,,,,,,,,,,,base6,001,2019_Oct_24_1530,ProdFawcett_Revision2019,3.2.3,59.97332386314757,
75,0,75,0,,,,,,,,,,,,,,,,,3428.9745068000047,None,materials/speakPic.jpg,strain,B_aloud1,75,308,3425.279379700005,None,3425.279379700005,None,3426.2226425000117,None,3426.4795137000037,None,3426.4795137000037,None,,,,,,,,,,,,,,,,,,,,,,,,,,,,,,,,,,,base6,001,2019_Oct_24_1530,ProdFawcett_Revision2019,3.2.3,59.97332386314757,
76,0,76,0,,,,,,,,,,,,,,,,,3433.2462006999995,None,materials/readPic.jpg,captain,A_silent,76,41,3429.551972800007,None,3429.551972800007,None,3430.4932337000064,None,3430.7528477000014,None,3430.7528477000014,None,,,,,,,,,,,,,,,,,,,,,,,,,,,,,,,,,,,base6,001,2019_Oct_24_1530,ProdFawcett_Revision2019,3.2.3,59.97332386314757,
77,0,77,0,,,,,,,,,,,,,,,,,3437.5171203000064,None,materials/readPic.jpg,treatment,A_silent,77,339,3433.8274205000052,None,3433.8274205000052,None,3434.764517500007,None,3435.025611200006,None,3435.025611200006,None,,,,,,,,,,,,,,,,,,,,,,,,,,,,,,,,,,,base6,001,2019_Oct_24_1530,ProdFawcett_Revision2019,3.2.3,59.97332386314757,
78,0,78,0,,,,,,,,,,,,,,,,,3441.788244800002,None,materials/readPic.jpg,narrow,A_silent,78,197,3438.0934420999984,None,3438.0934420999984,None,3439.0352584000066,None,3439.2949795000022,None,3439.2949795000022,None,,,,,,,,,,,,,,,,,,,,,,,,,,,,,,,,,,,base6,001,2019_Oct_24_1530,ProdFawcett_Revision2019,3.2.3,59.97332386314757,
79,0,79,0,,,,,,,,,,,,,,,,,3446.0591704000108,None,materials/speakPic.jpg,gesture,B_aloud1,79,137,3442.354895700002,None,3442.354895700002,None,3443.306551700007,None,3443.560540700011,None,3443.560540700011,None,,,,,,,,,,,,,,,,,,,,,,,,,,,,,,,,,,,base6,001,2019_Oct_24_1530,ProdFawcett_Revision2019,3.2.3,59.97332386314757,
80,0,80,0,,,,,,,,,,,,,,,,,3450.329997500012,None,materials/speakPic.jpg,blind,B_aloud1,80,24,3446.632541400002,None,3446.632541400002,None,3447.5786463000113,None,3447.8361753000063,None,3447.8361753000063,None,,,,,,,,,,,,,,,,,,,,,,,,,,,,,,,,,,,base6,001,2019_Oct_24_1530,ProdFawcett_Revision2019,3.2.3,59.97332386314757,
81,0,81,0,,,,,,,,,,,,,,,,,3454.600879800011,None,materials/speakPic.jpg,dozen,B_aloud1,81,102,3450.9001350000035,None,3450.9001350000035,None,3451.848033800008,None,3452.114925700007,None,3452.114925700007,None,,,,,,,,,,,,,,,,,,,,,,,,,,,,,,,,,,,base6,001,2019_Oct_24_1530,ProdFawcett_Revision2019,3.2.3,59.97332386314757,
82,0,82,0,,,,,,,,,,,,,,,,,3458.8718671000097,None,materials/readPic.jpg,department,A_silent,82,90,3455.1723093000037,None,3455.1723093000037,None,3456.1184278,None,3456.3774231999996,None,3456.3774231999996,None,,,,,,,,,,,,,,,,,,,,,,,,,,,,,,,,,,,base6,001,2019_Oct_24_1530,ProdFawcett_Revision2019,3.2.3,59.97332386314757,
83,0,83,0,,,,,,,,,,,,,,,,,3463.1426924000116,None,materials/mumblePic.jpg,general,C_aloud2,83,135,3459.41121440001,None,3459.41121440001,None,3460.3920518000086,None,3460.652056600011,None,3460.652056600011,None,,,,,,,,,,,,,,,,,,,,,,,,,,,,,,,,,,,base6,001,2019_Oct_24_1530,ProdFawcett_Revision2019,3.2.3,59.97332386314757,
84,0,84,0,,,,,,,,,,,,,,,,,3467.4136502000038,None,materials/mumblePic.jpg,sweet,C_aloud2,84,319,3463.6853704000096,None,3463.6853704000096,None,3464.661000699998,None,3464.9212908000045,None,3464.9212908000045,None,,,,,,,,,,,,,,,,,,,,,,,,,,,,,,,,,,,base6,001,2019_Oct_24_1530,ProdFawcett_Revision2019,3.2.3,59.97332386314757,
85,0,85,0,,,,,,,,,,,,,,,,,3471.6679397000116,None,materials/readPic.jpg,whole,A_silent,85,355,3467.9815501999983,None,3467.9815501999983,None,3468.932024499998,None,3469.1822241000045,None,3469.1822241000045,None,,,,,,,,,,,,,,,,,,,,,,,,,,,,,,,,,,,base6,001,2019_Oct_24_1530,ProdFawcett_Revision2019,3.2.3,59.97332386314757,
86,0,86,0,,,,,,,,,,,,,,,,,3475.938828700004,None,materials/speakPic.jpg,company,B_aloud1,86,64,3472.234216900004,None,3472.234216900004,None,3473.1862525000033,None,3473.443217799999,None,3473.443217799999,None,,,,,,,,,,,,,,,,,,,,,,,,,,,,,,,,,,,base6,001,2019_Oct_24_1530,ProdFawcett_Revision2019,3.2.3,59.97332386314757,
87,0,87,0,,,,,,,,,,,,,,,,,3480.209775800002,None,materials/mumblePic.jpg,private,C_aloud2,87,237,3476.5011902000115,None,3476.5011902000115,None,3477.4570298000035,None,3477.719709600002,None,3477.719709600002,None,,,,,,,,,,,,,,,,,,,,,,,,,,,,,,,,,,,base6,001,2019_Oct_24_1530,ProdFawcett_Revision2019,3.2.3,59.97332386314757,
88,0,88,0,,,,,,,,,,,,,,,,,3484.4804297000082,None,materials/speakPic.jpg,management,B_aloud1,88,177,3480.7860092000046,None,3480.7860092000046,None,3481.7272400000074,None,3481.9907921999984,None,3481.9907921999984,None,,,,,,,,,,,,,,,,,,,,,,,,,,,,,,,,,,,base6,001,2019_Oct_24_1530,ProdFawcett_Revision2019,3.2.3,59.97332386314757,
89,0,89,0,,,,,,,,,,,,,,,,,3488.751918000009,None,materials/readPic.jpg,raise,A_silent,89,250,3485.058509300012,None,3485.058509300012,None,3485.9987597,None,3486.2549181000068,None,3486.2549181000068,None,,,,,,,,,,,,,,,,,,,,,,,,,,,,,,,,,,,base6,001,2019_Oct_24_1530,ProdFawcett_Revision2019,3.2.3,59.97332386314757,
,,,,,,,,,,,,,,,,,,,,,,,,,,,,,,,,,,,,,3489.252111499998,None,k,54.60838220000733,3489.252111499998,None,,,,,,,,,,,,,,,,,,,,,,,,,,,,,base6,001,2019_Oct_24_1530,ProdFawcett_Revision2019,3.2.3,59.97332386314757,
,,,,,,,,,,,,,,3543.8904914000013,None,space,1.05788580000808,3543.8904914000013,None,,,,,,,,,,,,,,,,,,,,,,,,,,,,,,,,,,,,,,,,,,,,,,,,,,,,base6,001,2019_Oct_24_1530,ProdFawcett_Revision2019,3.2.3,59.97332386314757,
,,,,0,0,0,0,,,,,,,,,,,,,3555.98549620001,None,,,,,,,,,,,,,,,,,,,,,,strain,B_aloud1,0,308,3545.4968279000022,None,3545.4968279000022,None,3545.4968279000022,None,2,4.931962899994687,3545.4968279000022,None,3550.4748991000088,None,3550.4748991000088,None,3550.9975189000106,None,3550.9975189000106,None,3550.9975189000106,None,n,4.94312809999974,3550.9975189000106,None,base6,001,2019_Oct_24_1530,ProdFawcett_Revision2019,3.2.3,59.97332386314757,
,,,,1,0,1,0,,,,,,,,,,,,,3577.55487230001,None,,,,,,,,,,,,,,,,,,,,,,afternoon,C_aloud2,1,3,3556.504219800001,None,3556.504219800001,None,3556.504219800001,None,6,4.076300400003674,3556.504219800001,None,3560.6283612000116,None,3560.6283612000116,None,3561.156820700009,None,3561.156820700009,None,3561.156820700009,None,r,16.367471699995804,3561.156820700009,None,base6,001,2019_Oct_24_1530,ProdFawcett_Revision2019,3.2.3,59.97332386314757,
,,,,2,0,2,0,,,,,,,,,,,,,3584.8455619000015,None,,,,,,,,,,,,,,,,,,,,,,gesture,B_aloud1,2,137,3578.077494099998,None,3578.077494099998,None,3578.077494099998,None,2,4.790918400001829,3578.077494099998,None,3582.9184536000103,None,3582.9184536000103,None,3583.446187900001,None,3583.446187900001,None,3583.446187900001,None,n,1.3582663999986835,3583.446187900001,None,base6,001,2019_Oct_24_1530,ProdFawcett_Revision2019,3.2.3,59.97332386314757,
,,,,3,0,3,0,,,,,,,,,,,,,3590.2845239000017,None,,,,,,,,,,,,,,,,,,,,,,raise,A_silent,3,250,3585.3522790999996,None,3585.3522790999996,None,3585.3522790999996,None,2,3.3002227999968454,3585.3522790999996,None,3588.6919691000076,None,3588.6919691000076,None,3589.214048900001,None,3589.214048900001,None,3589.214048900001,None,n,1.0303757999936352,3589.214048900001,None,base6,001,2019_Oct_24_1530,ProdFawcett_Revision2019,3.2.3,59.97332386314757,
,,,,4,0,4,0,,,,,,,,,,,,,3595.4388748000056,None,,,,,,,,,,,,,,,,,,,,,,rough,B_aloud1,4,266,3590.807277700005,None,3590.807277700005,None,3590.807277700005,None,6,2.6929423000110546,3590.807277700005,None,3593.5400100000115,None,3593.5400100000115,None,3594.0466237000073,None,3594.0466237000073,None,3594.0466237000073,None,r,1.349847999998019,3594.0466237000073,None,base6,001,2019_Oct_24_1530,ProdFawcett_Revision2019,3.2.3,59.97332386314757,
,,,,5,0,5,0,,,,,,,,,,,,,3600.494183600007,None,,,,,,,,,,,,,,,,,,,,,,impact,B_aloud1,5,157,3595.958427400008,None,3595.958427400008,None,3595.958427400008,None,1,2.6936794000066584,3595.958427400008,None,3598.6854052000126,None,3598.6854052000126,None,3599.2110730999993,None,3599.2110730999993,None,3599.2110730999993,None,n,1.2414123999915319,3599.2110730999993,None,base6,001,2019_Oct_24_1530,ProdFawcett_Revision2019,3.2.3,59.97332386314757,
,,,,6,0,6,0,,,,,,,,,,,,,3605.249302000011,None,,,,,,,,,,,,,,,,,,,,,,beauty,A_silent,6,18,3601.015927600005,None,3601.015927600005,None,3601.015927600005,None,3,2.7490520999999717,3601.015927600005,None,3603.812491100005,None,3603.812491100005,None,3604.332583100011,None,3604.332583100011,None,3604.332583100011,None,n,0.8878110999939963,3604.332583100011,None,base6,001,2019_Oct_24_1530,ProdFawcett_Revision2019,3.2.3,59.97332386314757,
,,,,7,0,7,0,,,,,,,,,,,,,3610.738046600003,None,,,,,,,,,,,,,,,,,,,,,,service,C_aloud2,7,280,3605.774737400003,None,3605.774737400003,None,3605.774737400003,None,1,3.333789099997375,3605.774737400003,None,3609.166526000001,None,3609.166526000001,None,3609.6881999000034,None,3609.6881999000034,None,3609.6881999000034,None,n,1.0043612999870675,3609.6881999000034,None,base6,001,2019_Oct_24_1530,ProdFawcett_Revision2019,3.2.3,59.97332386314757,
,,,,8,0,8,0,,,,,,,,,,,,,3615.04204510001,None,,,,,,,,,,,,,,,,,,,,,,watch,D_new,8,351,3611.25914390001,None,3611.25914390001,None,3611.25914390001,None,3,2.185272000002442,3611.25914390001,None,3613.4853672000027,None,3613.4853672000027,None,3614.008170500005,None,3614.008170500005,None,3614.008170500005,None,n,0.988260000012815,3614.008170500005,None,base6,001,2019_Oct_24_1530,ProdFawcett_Revision2019,3.2.3,59.97332386314757,
,,,,9,0,9,0,,,,,,,,,,,,,3619.1374849999993,None,,,,,,,,,,,,,,,,,,,,,,member,A_silent,9,188,3615.5647396999993,None,3615.5647396999993,None,3615.5647396999993,None,2,2.5196313000051305,3615.5647396999993,None,3618.138591900002,None,3618.138591900002,None,3618.669486400002,None,3618.669486400002,None,3618.669486400002,None,n,0.4391969999996945,3618.669486400002,None,base6,001,2019_Oct_24_1530,ProdFawcett_Revision2019,3.2.3,59.97332386314757,
,,,,10,0,10,0,,,,,,,,,,,,,3621.7648816,None,,,,,,,,,,,,,,,,,,,,,,style,D_new,10,311,3619.667736100004,None,3619.667736100004,None,3619.667736100004,None,2,1.40871160000097,3619.667736100004,None,3621.1302660000074,None,3621.1302660000074,None,3621.6464851000055,None,3621.6464851000055,None,3621.6464851000055,None,n,0.08639639998727944,3621.6464851000055,None,base6,001,2019_Oct_24_1530,ProdFawcett_Revision2019,3.2.3,59.97332386314757,
,,,,11,0,11,0,,,,,,,,,,,,,3624.6037876000046,None,,,,,,,,,,,,,,,,,,,,,,produce,D_new,11,239,3622.2845178999996,None,3622.2845178999996,None,3622.2845178999996,None,2,1.6240456999948947,3622.2845178999996,None,3623.958293600008,None,3623.958293600008,None,3624.483491100007,None,3624.483491100007,None,3624.483491100007,None,n,0.0728635999985272,3624.483491100007,None,base6,001,2019_Oct_24_1530,ProdFawcett_Revision2019,3.2.3,59.97332386314757,
,,,,12,0,12,0,,,,,,,,,,,,,3627.9124561000062,None,,,,,,,,,,,,,,,,,,,,,,conference,D_new,12,66,3625.121814600003,None,3625.121814600003,None,3625.121814600003,None,3,2.01868559999275,3625.121814600003,None,3627.184961100007,None,3627.184961100007,None,3627.704337300005,None,3627.704337300005,None,3627.704337300005,None,n,0.1799715999950422,3627.704337300005,None,base6,001,2019_Oct_24_1530,ProdFawcett_Revision2019,3.2.3,59.97332386314757,
,,,,13,0,13,0,,,,,,,,,,,,,3630.6578256000066,None,,,,,,,,,,,,,,,,,,,,,,husband,D_new,13,156,3628.4288562,None,3628.4288562,None,3628.4288562,None,1,1.4316254000004847,3628.4288562,None,3629.9013609000103,None,3629.9013609000103,None,3630.4268737000093,None,3630.4268737000093,None,3630.4268737000093,None,n,0.185612500004936,3630.4268737000093,None,base6,001,2019_Oct_24_1530,ProdFawcett_Revision2019,3.2.3,59.97332386314757,
,,,,14,0,14,0,,,,,,,,,,,,,3634.3166037000046,None,,,,,,,,,,,,,,,,,,,,,,express,D_new,14,124,3631.176006400012,None,3631.176006400012,None,3631.176006400012,None,1,2.3404580000060378,3631.176006400012,None,3633.576644200002,None,3633.576644200002,None,3634.0922085000057,None,3634.0922085000057,None,3634.0922085000057,None,n,0.17629800000577234,3634.0922085000057,None,base6,001,2019_Oct_24_1530,ProdFawcett_Revision2019,3.2.3,59.97332386314757,
,,,,15,0,15,0,,,,,,,,,,,,,3638.203669800001,None,,,,,,,,,,,,,,,,,,,,,,private,C_aloud2,15,237,3634.849757600008,None,3634.849757600008,None,3634.849757600008,None,4,1.986632499989355,3634.849757600008,None,3636.896615900012,None,3636.896615900012,None,3637.4038907000067,None,3637.4038907000067,None,3637.4038907000067,None,f,0.7604849999916041,3637.4038907000067,None,base6,001,2019_Oct_24_1530,ProdFawcett_Revision2019,3.2.3,59.97332386314757,
,,,,16,0,16,0,,,,,,,,,,,,,3641.213520800011,None,,,,,,,,,,,,,,,,,,,,,,present,D_new,16,231,3638.7403922000085,None,3638.7403922000085,None,3638.7403922000085,None,1,1.663782599993283,3638.7403922000085,None,3640.4573835000047,None,3640.4573835000047,None,3640.9845373999997,None,3640.9845373999997,None,3640.9845373999997,None,n,0.20365390001097694,3640.9845373999997,None,base6,001,2019_Oct_24_1530,ProdFawcett_Revision2019,3.2.3,59.97332386314757,
,,,,17,0,17,0,,,,,,,,,,,,,3644.304723699999,None,,,,,,,,,,,,,,,,,,,,,,century,D_new,17,45,3641.736743200003,None,3641.736743200003,None,3641.736743200003,None,1,1.6356931000045734,3641.736743200003,None,3643.4155141000083,None,3643.4155141000083,None,3643.936654600009,None,3643.936654600009,None,3643.936654600009,None,n,0.3240003999962937,3643.936654600009,None,base6,001,2019_Oct_24_1530,ProdFawcett_Revision2019,3.2.3,59.97332386314757,
,,,,18,0,18,0,,,,,,,,,,,,,3647.05604570001,None,,,,,,,,,,,,,,,,,,,,,,surprise,D_new,18,317,3644.8230461000057,None,3644.8230461000057,None,3644.8230461000057,None,1,1.3573905999946874,3644.8230461000057,None,3646.2351853,None,3646.2351853,None,3646.754789800005,None,3646.754789800005,None,3646.754789800005,None,n,0.2576552999962587,3646.754789800005,None,base6,001,2019_Oct_24_1530,ProdFawcett_Revision2019,3.2.3,59.97332386314757,
,,,,19,0,19,0,,,,,,,,,,,,,3649.6926316000026,None,,,,,,,,,,,,,,,,,,,,,,corner,B_aloud1,19,69,3647.576417700009,None,3647.576417700009,None,3647.576417700009,None,1,1.364013200000045,3647.576417700009,None,3648.9803881000116,None,3648.9803881000116,None,3649.5081247000053,None,3649.5081247000053,None,3649.5081247000053,None,n,0.14449030000832863,3649.5081247000053,None,base6,001,2019_Oct_24_1530,ProdFawcett_Revision2019,3.2.3,59.97332386314757,
,,,,20,0,20,0,,,,,,,,,,,,,3652.7123785000003,None,,,,,,,,,,,,,,,,,,,,,,addition,D_new,20,2,3650.2142867000075,None,3650.2142867000075,None,3650.2142867000075,None,1,1.598071100001107,3650.2142867000075,None,3651.839758400005,None,3651.839758400005,None,3652.3511285999994,None,3652.3511285999994,None,3652.3511285999994,None,n,0.32554270001128316,3652.3511285999994,None,base6,001,2019_Oct_24_1530,ProdFawcett_Revision2019,3.2.3,59.97332386314757,
,,,,21,0,21,0,,,,,,,,,,,,,3655.499456100006,None,,,,,,,,,,,,,,,,,,,,,,rapid,D_new,21,252,3653.2320800000016,None,3653.2320800000016,None,3653.2320800000016,None,2,1.5008842000097502,3653.2320800000016,None,3654.771843499999,None,3654.771843499999,None,3655.3002601000044,None,3655.3002601000044,None,3655.3002601000044,None,n,0.16848939999181312,3655.3002601000044,None,base6,001,2019_Oct_24_1530,ProdFawcett_Revision2019,3.2.3,59.97332386314757,
,,,,22,0,22,0,,,,,,,,,,,,,3658.4463976000116,None,,,,,,,,,,,,,,,,,,,,,,murder,D_new,22,195,3656.0186878000095,None,3656.0186878000095,None,3656.0186878000095,None,1,1.7618118999962462,3656.0186878000095,None,3657.8263692000037,None,3657.8263692000037,None,3658.3434726000123,None,3658.3434726000123,None,3658.3434726000123,None,n,0.06895190000068396,3658.3434726000123,None,base6,001,2019_Oct_24_1530,ProdFawcett_Revision2019,3.2.3,59.97332386314757,
,,,,23,0,23,0,,,,,,,,,,,,,3662.0224129000126,None,,,,,,,,,,,,,,,,,,,,,,light,C_aloud2,23,171,3658.959327900011,None,3658.959327900011,None,3658.959327900011,None,2,1.9253465000074357,3658.959327900011,None,3660.936499100004,None,3660.936499100004,None,3661.455012999999,None,3661.455012999999,None,3661.455012999999,None,n,0.5333878000092227,3661.455012999999,None,base6,001,2019_Oct_24_1530,ProdFawcett_Revision2019,3.2.3,59.97332386314757,
,,,,24,0,24,0,,,,,,,,,,,,,3665.69193310001,None,,,,,,,,,,,,,,,,,,,,,,candidate,D_new,24,39,3662.5416792000033,None,3662.5416792000033,None,3662.5416792000033,None,4,2.422505100010312,3662.5416792000033,None,3665.0149347000115,None,3665.0149347000115,None,3665.523670200011,None,3665.523670200011,None,3665.523670200011,None,f,0.12869519999367185,3665.523670200011,None,base6,001,2019_Oct_24_1530,ProdFawcett_Revision2019,3.2.3,59.97332386314757,
,,,,25,0,25,0,,,,,,,,,,,,,3670.015144600009,None,,,,,,,,,,,,,,,,,,,,,,staff,D_new,25,301,3666.211437100006,None,3666.211437100006,None,3666.211437100006,None,1,1.4487252999970224,3666.211437100006,None,3667.6928102000093,None,3667.6928102000093,None,3668.210574800003,None,3668.210574800003,None,3668.210574800003,None,n,1.7704641000018455,3668.210574800003,None,base6,001,2019_Oct_24_1530,ProdFawcett_Revision2019,3.2.3,59.97332386314757,
,,,,26,0,26,0,,,,,,,,,,,,,3673.2839921000123,None,,,,,,,,,,,,,,,,,,,,,,sweet,C_aloud2,26,319,3670.5379636,None,3670.5379636,None,3670.5379636,None,2,1.77943170000799,3670.5379636,None,3672.364648200004,None,3672.364648200004,None,3672.886767700009,None,3672.886767700009,None,3672.886767700009,None,n,0.3576426000072388,3672.886767700009,None,base6,001,2019_Oct_24_1530,ProdFawcett_Revision2019,3.2.3,59.97332386314757,
,,,,27,0,27,0,,,,,,,,,,,,,3678.7786815,None,,,,,,,,,,,,,,,,,,,,,,finance,D_new,27,129,3673.805330000003,None,3673.805330000003,None,3673.805330000003,None,3,2.7192681000015,3673.805330000003,None,3676.576748700012,None,3676.576748700012,None,3677.102737699999,None,3677.102737699999,None,3677.102737699999,None,n,1.629561100009596,3677.102737699999,None,base6,001,2019_Oct_24_1530,ProdFawcett_Revision2019,3.2.3,59.97332386314757,
,,,,28,0,28,0,,,,,,,,,,,,,3681.8825379000045,None,,,,,,,,,,,,,,,,,,,,,,stranger,D_new,28,309,3679.3133237,None,3679.3133237,None,3679.3133237,None,2,1.8111016000038944,3679.3133237,None,3681.1743791000044,None,3681.1743791000044,None,3681.6977515000035,None,3681.6977515000035,None,3681.6977515000035,None,n,0.15451979999488685,3681.6977515000035,None,base6,001,2019_Oct_24_1530,ProdFawcett_Revision2019,3.2.3,59.97332386314757,
,,,,29,0,29,0,,,,,,,,,,,,,3685.5504692000104,None,,,,,,,,,,,,,,,,,,,,,,entrance,D_new,29,115,3682.4110324000067,None,3682.4110324000067,None,3682.4110324000067,None,4,1.8093393000017386,3682.4110324000067,None,3684.2748291000025,None,3684.2748291000025,None,3684.793987000012,None,3684.793987000012,None,3684.793987000012,None,f,0.7221779999963474,3684.793987000012,None,base6,001,2019_Oct_24_1530,ProdFawcett_Revision2019,3.2.3,59.97332386314757,
,,,,30,0,30,0,,,,,,,,,,,,,3688.0151750000077,None,,,,,,,,,,,,,,,,,,,,,,force,D_new,30,131,3686.0796726000117,None,3686.0796726000117,None,3686.0796726000117,None,1,1.181009499996435,3686.0796726000117,None,3687.315801200006,None,3687.315801200006,None,3687.828974200005,None,3687.828974200005,None,3687.828974200005,None,n,0.14347750000888482,3687.828974200005,None,base6,001,2019_Oct_24_1530,ProdFawcett_Revision2019,3.2.3,59.97332386314757,
,,,,31,0,31,0,,,,,,,,,,,,,3692.119677300012,None,,,,,,,,,,,,,,,,,,,,,,career,A_silent,31,42,3688.5206505000097,None,3688.5206505000097,None,3688.5206505000097,None,2,2.307779399998253,3688.5206505000097,None,3690.8791901000077,None,3690.8791901000077,None,3691.405386300001,None,3691.405386300001,None,3691.405386300001,None,n,0.6790433999995003,3691.405386300001,None,base6,001,2019_Oct_24_1530,ProdFawcett_Revision2019,3.2.3,59.97332386314757,
,,,,32,0,32,0,,,,,,,,,,,,,3696.957222500001,None,,,,,,,,,,,,,,,,,,,,,,welcome,C_aloud2,32,354,3692.6439621000027,None,3692.6439621000027,None,3692.6439621000027,None,5,2.9526205000001937,3692.6439621000027,None,3695.6529825000034,None,3695.6529825000034,None,3696.1746365,None,3696.1746365,None,3696.1746365,None,f,0.7416397999913897,3696.1746365,None,base6,001,2019_Oct_24_1530,ProdFawcett_Revision2019,3.2.3,59.97332386314757,
,,,,33,0,33,0,,,,,,,,,,,,,3700.096208200004,None,,,,,,,,,,,,,,,,,,,,,,session,D_new,33,281,3697.4771196000074,None,3697.4771196000074,None,3697.4771196000074,None,1,1.5998222999915015,3697.4771196000074,None,3699.1218858000066,None,3699.1218858000066,None,3699.6408250000095,None,3699.6408250000095,None,3699.6408250000095,None,n,0.41961309999169316,3699.6408250000095,None,base6,001,2019_Oct_24_1530,ProdFawcett_Revision2019,3.2.3,59.97332386314757,
,,,,34,0,34,0,,,,,,,,,,,,,3703.5808636,None,,,,,,,,,,,,,,,,,,,,,,column,D_new,34,57,3700.612659700011,None,3700.612659700011,None,3700.612659700011,None,3,1.9359625000070082,3700.612659700011,None,3702.587704000005,None,3702.587704000005,None,3703.1180798999994,None,3703.1180798999994,None,3703.1180798999994,None,n,0.42229869999573566,3703.1180798999994,None,base6,001,2019_Oct_24_1530,ProdFawcett_Revision2019,3.2.3,59.97332386314757,
,,,,35,0,35,0,,,,,,,,,,,,,3707.524508600007,None,,,,,,,,,,,,,,,,,,,,,,foundation,A_silent,35,132,3704.102430400002,None,3704.102430400002,None,3704.102430400002,None,6,1.4540116999996826,3704.102430400002,None,3705.6150060000073,None,3705.6150060000073,None,3706.132658200004,None,3706.132658200004,None,3706.132658200004,None,r,1.359634399996139,3706.132658200004,None,base6,001,2019_Oct_24_1530,ProdFawcett_Revision2019,3.2.3,59.97332386314757,
,,,,36,0,36,0,,,,,,,,,,,,,3711.687831400006,None,,,,,,,,,,,,,,,,,,,,,,captain,A_silent,36,41,3708.0438765,None,3708.0438765,None,3708.0438765,None,6,2.152559399997699,3708.0438765,None,3710.2436271000042,None,3710.2436271000042,None,3710.777711700008,None,3710.777711700008,None,3710.777711700008,None,r,0.8667547999939416,3710.777711700008,None,base6,001,2019_Oct_24_1530,ProdFawcett_Revision2019,3.2.3,59.97332386314757,
,,,,37,0,37,0,,,,,,,,,,,,,3715.8674914000003,None,,,,,,,,,,,,,,,,,,,,,,enemy,D_new,37,113,3712.2112123000115,None,3712.2112123000115,None,3712.2112123000115,None,1,1.9291858000069624,3712.2112123000115,None,3714.189152600011,None,3714.189152600011,None,3714.7065932000114,None,3714.7065932000114,None,3714.7065932000114,None,n,1.1297750000085216,3714.7065932000114,None,base6,001,2019_Oct_24_1530,ProdFawcett_Revision2019,3.2.3,59.97332386314757,
,,,,38,0,38,0,,,,,,,,,,,,,3718.6857739000116,None,,,,,,,,,,,,,,,,,,,,,,poetry,D_new,38,225,3716.3978854000015,None,3716.3978854000015,None,3716.3978854000015,None,2,1.3426788000069791,3716.3978854000015,None,3717.7897859000077,None,3717.7897859000077,None,3718.3117917000054,None,3718.3117917000054,None,3718.3117917000054,None,n,0.3482480999955442,3718.3117917000054,None,base6,001,2019_Oct_24_1530,ProdFawcett_Revision2019,3.2.3,59.97332386314757,
,,,,39,0,39,0,,,,,,,,,,,,,3721.4988054999994,None,,,,,,,,,,,,,,,,,,,,,,territory,D_new,39,324,3719.2140017000056,None,3719.2140017000056,None,3719.2140017000056,None,2,1.5348822000087239,3719.2140017000056,None,3720.7925901000126,None,3720.7925901000126,None,3721.3142480000097,None,3721.3142480000097,None,3721.3142480000097,None,n,0.15425589999358635,3721.3142480000097,None,base6,001,2019_Oct_24_1530,ProdFawcett_Revision2019,3.2.3,59.97332386314757,
,,,,40,0,40,0,,,,,,,,,,,,,3724.392508600009,None,,,,,,,,,,,,,,,,,,,,,,sunset,D_new,40,315,3722.017600600011,None,3722.017600600011,None,3722.017600600011,None,1,1.4508739000011701,3722.017600600011,None,3723.511034100011,None,3723.511034100011,None,3724.0316559000057,None,3724.0316559000057,None,3724.0316559000057,None,n,0.33262739999918267,3724.0316559000057,None,base6,001,2019_Oct_24_1530,ProdFawcett_Revision2019,3.2.3,59.97332386314757,
,,,,41,0,41,0,,,,,,,,,,,,,3726.870116700011,None,,,,,,,,,,,,,,,,,,,,,,science,D_new,41,275,3724.913872200006,None,3724.913872200006,None,3724.913872200006,None,1,1.1147934000036912,3724.913872200006,None,3726.0784180000046,None,3726.0784180000046,None,3726.597950800002,None,3726.597950800002,None,3726.597950800002,None,n,0.23042439999699127,3726.597950800002,None,base6,001,2019_Oct_24_1530,ProdFawcett_Revision2019,3.2.3,59.97332386314757,
,,,,42,0,42,0,,,,,,,,,,,,,3730.314264700006,None,,,,,,,,,,,,,,,,,,,,,,order,B_aloud1,42,207,3727.389517600008,None,3727.389517600008,None,3727.389517600008,None,4,1.8311389999871608,3727.389517600008,None,3729.265591000003,None,3729.265591000003,None,3729.7917820000002,None,3729.7917820000002,None,3729.7917820000002,None,f,0.5003379999980098,3729.7917820000002,None,base6,001,2019_Oct_24_1530,ProdFawcett_Revision2019,3.2.3,59.97332386314757,
,,,,43,0,43,0,,,,,,,,,,,,,3732.8828011000005,None,,,,,,,,,,,,,,,,,,,,,,story,B_aloud1,43,306,3730.842084600008,None,3730.842084600008,None,3730.842084600008,None,1,1.0024935999972513,3730.842084600008,None,3731.8870965000096,None,3731.8870965000096,None,3732.4093407000037,None,3732.4093407000037,None,3732.4093407000037,None,n,0.4270111999940127,3732.4093407000037,None,base6,001,2019_Oct_24_1530,ProdFawcett_Revision2019,3.2.3,59.97332386314757,
,,,,44,0,44,0,,,,,,,,,,,,,3735.361157200008,None,,,,,,,,,,,,,,,,,,,,,,medicine,D_new,44,186,3733.412141400011,None,3733.412141400011,None,3733.412141400011,None,1,1.0402657000086037,3733.412141400011,None,3734.5098218000057,None,3734.5098218000057,None,3735.0289936000045,None,3735.0289936000045,None,3735.0289936000045,None,n,0.2875791999977082,3735.0289936000045,None,base6,001,2019_Oct_24_1530,ProdFawcett_Revision2019,3.2.3,59.97332386314757,
,,,,45,0,45,0,,,,,,,,,,,,,3738.2146046000125,None,,,,,,,,,,,,,,,,,,,,,,clean,D_new,45,51,3735.882228100003,None,3735.882228100003,None,3735.882228100003,None,1,1.4902747000014642,3735.882228100003,None,3737.4097368000075,None,3737.4097368000075,None,3737.931365700002,None,3737.931365700002,None,3737.931365700002,None,n,0.24911199999041855,3737.931365700002,None,base6,001,2019_Oct_24_1530,ProdFawcett_Revision2019,3.2.3,59.97332386314757,
,,,,46,0,46,0,,,,,,,,,,,,,3743.3553268000105,None,,,,,,,,,,,,,,,,,,,,,,public,C_aloud2,46,244,3738.736189300005,None,3738.736189300005,None,3738.736189300005,None,3,3.4282419999944977,3738.736189300005,None,3742.217432400008,None,3742.217432400008,None,3742.741791200009,None,3742.741791200009,None,3742.741791200009,None,n,0.574681199999759,3742.741791200009,None,base6,001,2019_Oct_24_1530,ProdFawcett_Revision2019,3.2.3,59.97332386314757,
,,,,47,0,47,0,,,,,,,,,,,,,3747.5064105000056,None,,,,,,,,,,,,,,,,,,,,,,pressure,D_new,47,232,3743.872564400008,None,3743.872564400008,None,3743.872564400008,None,4,1.843845199997304,3743.872564400008,None,3745.768320800009,None,3745.768320800009,None,3746.2881467000116,None,3746.2881467000116,None,3746.2881467000116,None,f,1.1803802000067662,3746.2881467000116,None,base6,001,2019_Oct_24_1530,ProdFawcett_Revision2019,3.2.3,59.97332386314757,
,,,,48,0,48,0,,,,,,,,,,,,,3750.626819900004,None,,,,,,,,,,,,,,,,,,,,,,bucket,A_silent,48,33,3748.032259600004,None,3748.032259600004,None,3748.032259600004,None,2,1.5804078999935882,3748.032259600004,None,3749.65555570001,None,3749.65555570001,None,3750.17708400001,None,3750.17708400001,None,3750.17708400001,None,n,0.41132810000272,3750.17708400001,None,base6,001,2019_Oct_24_1530,ProdFawcett_Revision2019,3.2.3,59.97332386314757,
,,,,49,0,49,0,,,,,,,,,,,,,3753.029896100008,None,,,,,,,,,,,,,,,,,,,,,,oxygen,D_new,49,209,3751.1525588000077,None,3751.1525588000077,None,3751.1525588000077,None,1,0.9878526999964379,3751.1525588000077,None,3752.1922579000093,None,3752.1922579000093,None,3752.718631900003,None,3752.718631900003,None,3752.718631900003,None,n,0.26990509999450296,3752.718631900003,None,base6,001,2019_Oct_24_1530,ProdFawcett_Revision2019,3.2.3,59.97332386314757,
,,,,50,0,50,0,,,,,,,,,,,,,3759.0526291999995,None,,,,,,,,,,,,,,,,,,,,,,growth,B_aloud1,50,144,3753.5518788000045,None,3753.5518788000045,None,3753.5518788000045,None,3,4.260411999988719,3753.5518788000045,None,3757.874509800007,None,3757.874509800007,None,3758.3892645000014,None,3758.3892645000014,None,3758.3892645000014,None,n,0.6233454000030179,3758.3892645000014,None,base6,001,2019_Oct_24_1530,ProdFawcett_Revision2019,3.2.3,59.97332386314757,
,,,,51,0,51,0,,,,,,,,,,,,,3762.40459630001,None,,,,,,,,,,,,,,,,,,,,,,range,D_new,51,251,3759.5759179000015,None,3759.5759179000015,None,3759.5759179000015,None,2,1.9564631000102963,3759.5759179000015,None,3761.5888176000008,None,3761.5888176000008,None,3762.1077466999996,None,3762.1077466999996,None,3762.1077466999996,None,n,0.2567834999936167,3762.1077466999996,None,base6,001,2019_Oct_24_1530,ProdFawcett_Revision2019,3.2.3,59.97332386314757,
,,,,52,0,52,0,,,,,,,,,,,,,3768.226287700003,None,,,,,,,,,,,,,,,,,,,,,,concern,D_new,52,65,3762.9254250000085,None,3762.9254250000085,None,3762.9254250000085,None,2,4.391059200002928,3762.9254250000085,None,3767.3719030000066,None,3767.3719030000066,None,3767.895231900009,None,3767.895231900009,None,3767.895231900009,None,n,0.30137240000476595,3767.895231900009,None,base6,001,2019_Oct_24_1530,ProdFawcett_Revision2019,3.2.3,59.97332386314757,
,,,,53,0,53,0,,,,,,,,,,,,,3770.7963517000026,None,,,,,,,,,,,,,,,,,,,,,,mechanical,D_new,53,185,3768.750294000012,None,3768.750294000012,None,3768.750294000012,None,1,1.126527000000351,3768.750294000012,None,3769.926164500008,None,3769.926164500008,None,3770.451217000009,None,3770.451217000009,None,3770.451217000009,None,n,0.30519649999041576,3770.451217000009,None,base6,001,2019_Oct_24_1530,ProdFawcett_Revision2019,3.2.3,59.97332386314757,
,,,,54,0,54,0,,,,,,,,,,,,,3773.2164820000035,None,,,,,,,,,,,,,,,,,,,,,,drove,D_new,54,106,3771.3200919000083,None,3771.3200919000083,None,3771.3200919000083,None,1,1.01236809999682,3771.3200919000083,None,3772.36247420001,None,3772.36247420001,None,3772.8823088000063,None,3772.8823088000063,None,3772.8823088000063,None,n,0.2981317000085255,3772.8823088000063,None,base6,001,2019_Oct_24_1530,ProdFawcett_Revision2019,3.2.3,59.97332386314757,
,,,,55,0,55,0,,,,,,,,,,,,,3775.4545137000096,None,,,,,,,,,,,,,,,,,,,,,,suggestion,D_new,55,314,3773.744453799998,None,3773.744453799998,None,3773.744453799998,None,1,1.0761398000031477,3773.744453799998,None,3774.8627357000078,None,3774.8627357000078,None,3775.391594600005,None,3775.391594600005,None,3775.391594600005,None,n,0.029068899995763786,3775.391594600005,None,base6,001,2019_Oct_24_1530,ProdFawcett_Revision2019,3.2.3,59.97332386314757,
,,,,56,0,56,0,,,,,,,,,,,,,3779.5735110000096,None,,,,,,,,,,,,,,,,,,,,,,trend,C_aloud2,56,340,3775.9717155000108,None,3775.9717155000108,None,3775.9717155000108,None,1,1.1448841999954311,3775.9717155000108,None,3777.163296300001,None,3777.163296300001,None,3777.6882497000042,None,3777.6882497000042,None,3777.6882497000042,None,n,1.8526208999974187,3777.6882497000042,None,base6,001,2019_Oct_24_1530,ProdFawcett_Revision2019,3.2.3,59.97332386314757,
,,,,57,0,57,0,,,,,,,,,,,,,3783.3115592000104,None,,,,,,,,,,,,,,,,,,,,,,color,B_aloud1,57,56,3780.0896671000082,None,3780.0896671000082,None,3780.0896671000082,None,6,1.9307378999947105,3780.0896671000082,None,3782.0697212000086,None,3782.0697212000086,None,3782.5927004000114,None,3782.5927004000114,None,3782.5927004000114,None,r,0.6837144999881275,3782.5927004000114,None,base6,001,2019_Oct_24_1530,ProdFawcett_Revision2019,3.2.3,59.97332386314757,
,,,,58,0,58,0,,,,,,,,,,,,,3786.7631013000064,None,,,,,,,,,,,,,,,,,,,,,,clear,D_new,58,52,3783.8294042000052,None,3783.8294042000052,None,3783.8294042000052,None,4,1.9831660000054399,3783.8294042000052,None,3785.857346500008,None,3785.857346500008,None,3786.3770932000043,None,3786.3770932000043,None,3786.3770932000043,None,f,0.34736220000195317,3786.3770932000043,None,base6,001,2019_Oct_24_1530,ProdFawcett_Revision2019,3.2.3,59.97332386314757,
,,,,59,0,59,0,,,,,,,,,,,,,3790.2838401000045,None,,,,,,,,,,,,,,,,,,,,,,music,D_new,59,196,3787.2818434000073,None,3787.2818434000073,None,3787.2818434000073,None,1,1.7466951999958837,3787.2818434000073,None,3789.076732600006,None,3789.076732600006,None,3789.5986603000056,None,3789.5986603000056,None,3789.5986603000056,None,n,0.6540632999967784,3789.5986603000056,None,base6,001,2019_Oct_24_1530,ProdFawcett_Revision2019,3.2.3,59.97332386314757,
,,,,60,0,60,0,,,,,,,,,,,,,3792.7686767999985,None,,,,,,,,,,,,,,,,,,,,,,tragedy,D_new,60,335,3790.808369899998,None,3790.808369899998,None,3790.808369899998,None,1,1.14044630000717,3790.808369899998,None,3791.994194800005,None,3791.994194800005,None,3792.5240578000084,None,3792.5240578000084,None,3792.5240578000084,None,n,0.20850019999488723,3792.5240578000084,None,base6,001,2019_Oct_24_1530,ProdFawcett_Revision2019,3.2.3,59.97332386314757,
,,,,61,0,61,0,,,,,,,,,,,,,3796.0226051000063,None,,,,,,,,,,,,,,,,,,,,,,working,C_aloud2,61,357,3793.294243600001,None,3793.294243600001,None,3793.294243600001,None,3,1.9101950000040233,3793.294243600001,None,3795.2566364000086,None,3795.2566364000086,None,3795.7761922000063,None,3795.7761922000063,None,3795.7761922000063,None,f,0.20426769999903627,3795.7761922000063,None,base6,001,2019_Oct_24_1530,ProdFawcett_Revision2019,3.2.3,59.97332386314757,
,,,,62,0,62,0,,,,,,,,,,,,,3798.708133200009,None,,,,,,,,,,,,,,,,,,,,,,device,B_aloud1,62,93,3796.5467027000122,None,3796.5467027000122,None,3796.5467027000122,None,1,1.2417716999916593,3796.5467027000122,None,3797.84295060001,None,3797.84295060001,None,3798.3600464000046,None,3798.3600464000046,None,3798.3600464000046,None,n,0.3083875000011176,3798.3600464000046,None,base6,001,2019_Oct_24_1530,ProdFawcett_Revision2019,3.2.3,59.97332386314757,
,,,,63,0,63,0,,,,,,,,,,,,,3801.577800900006,None,,,,,,,,,,,,,,,,,,,,,,broad,A_silent,63,31,3799.231245300005,None,3799.231245300005,None,3799.231245300005,None,2,1.5570745000004536,3799.231245300005,None,3800.845032600002,None,3800.845032600002,None,3801.3558114000043,None,3801.3558114000043,None,3801.3558114000043,None,n,0.1925082000088878,3801.3558114000043,None,base6,001,2019_Oct_24_1530,ProdFawcett_Revision2019,3.2.3,59.97332386314757,
,,,,64,0,64,0,,,,,,,,,,,,,3804.86461460001,None,,,,,,,,,,,,,,,,,,,,,,detective,B_aloud1,64,92,3802.100344300008,None,3802.100344300008,None,3802.100344300008,None,4,2.0646626000088872,3802.100344300008,None,3804.20793460001,None,3804.20793460001,None,3804.7326657000085,None,3804.7326657000085,None,3804.7326657000085,None,f,0.08782770000107121,3804.7326657000085,None,base6,001,2019_Oct_24_1530,ProdFawcett_Revision2019,3.2.3,59.97332386314757,
,,,,65,0,65,0,,,,,,,,,,,,,3808.406298700007,None,,,,,,,,,,,,,,,,,,,,,,sight,C_aloud2,65,286,3805.388867700007,None,3805.388867700007,None,3805.388867700007,None,2,2.2875102999969386,3805.388867700007,None,3807.7310424000025,None,3807.7310424000025,None,3808.260121600004,None,3808.260121600004,None,3808.260121600004,None,n,0.12001700000837445,3808.260121600004,None,base6,001,2019_Oct_24_1530,ProdFawcett_Revision2019,3.2.3,59.97332386314757,
,,,,66,0,66,0,,,,,,,,,,,,,3815.325500100007,None,,,,,,,,,,,,,,,,,,,,,,comedy,C_aloud2,66,58,3808.9217867000116,None,3808.9217867000116,None,3808.9217867000116,None,5,2.78638299999875,3808.9217867000116,None,3811.7370947000018,None,3811.7370947000018,None,3812.2516064000083,None,3812.2516064000083,None,3812.2516064000083,None,f,3.041181799999322,3812.2516064000083,None,base6,001,2019_Oct_24_1530,ProdFawcett_Revision2019,3.2.3,59.97332386314757,
,,,,67,0,67,0,,,,,,,,,,,,,3818.2689771000005,None,,,,,,,,,,,,,,,,,,,,,,religion,A_silent,67,258,3815.850111000007,None,3815.850111000007,None,3815.850111000007,None,2,1.6983088999986649,3815.850111000007,None,3817.605583700002,None,3817.605583700002,None,3818.133388400005,None,3818.133388400005,None,3818.133388400005,None,n,0.11072580001200549,3818.133388400005,None,base6,001,2019_Oct_24_1530,ProdFawcett_Revision2019,3.2.3,59.97332386314757,
,,,,68,0,68,0,,,,,,,,,,,,,3821.5477249000105,None,,,,,,,,,,,,,,,,,,,,,,department,A_silent,68,90,3818.7934856000065,None,3818.7934856000065,None,3818.7934856000065,None,4,2.058858299991698,3818.7934856000065,None,3820.9069071999984,None,3820.9069071999984,None,3821.4316187000077,None,3821.4316187000077,None,3821.4316187000077,None,f,0.08479960000840947,3821.4316187000077,None,base6,001,2019_Oct_24_1530,ProdFawcett_Revision2019,3.2.3,59.97332386314757,
,,,,69,0,69,0,,,,,,,,,,,,,3826.0032000000065,None,,,,,,,,,,,,,,,,,,,,,,opening,A_silent,69,205,3822.0701835000073,None,3822.0701835000073,None,3822.0701835000073,None,3,3.118094400007976,3822.0701835000073,None,3825.228000000003,None,3825.228000000003,None,3825.753703800001,None,3825.753703800001,None,3825.753703800001,None,n,0.21067249999032356,3825.753703800001,None,base6,001,2019_Oct_24_1530,ProdFawcett_Revision2019,3.2.3,59.97332386314757,
,,,,70,0,70,0,,,,,,,,,,,,,3828.8054445000016,None,,,,,,,,,,,,,,,,,,,,,,empty,C_aloud2,70,112,3826.521893199999,None,3826.521893199999,None,3826.521893199999,None,2,1.5224312999926042,3826.521893199999,None,3828.1002246999997,None,3828.1002246999997,None,3828.6068648000073,None,3828.6068648000073,None,3828.6068648000073,None,n,0.16619450000871439,3828.6068648000073,None,base6,001,2019_Oct_24_1530,ProdFawcett_Revision2019,3.2.3,59.97332386314757,
,,,,71,0,71,0,,,,,,,,,,,,,3831.123283699999,None,,,,,,,,,,,,,,,,,,,,,,hearing,A_silent,71,150,3829.3316308000067,None,3829.3316308000067,None,3829.3316308000067,None,2,1.1127599000028567,3829.3316308000067,None,3830.4819197000033,None,3830.4819197000033,None,3831.00895470001,None,3831.00895470001,None,3831.00895470001,None,n,0.08349820000876207,3831.00895470001,None,base6,001,2019_Oct_24_1530,ProdFawcett_Revision2019,3.2.3,59.97332386314757,
,,,,72,0,72,0,,,,,,,,,,,,,3833.4027895000036,None,,,,,,,,,,,,,,,,,,,,,,block,A_silent,72,25,3831.644756599999,None,3831.644756599999,None,3831.644756599999,None,2,1.0796677000034833,3831.644756599999,None,3832.772964600008,None,3832.772964600008,None,3833.2937863000116,None,3833.2937863000116,None,3833.2937863000116,None,n,0.05460609999136068,3833.2937863000116,None,base6,001,2019_Oct_24_1530,ProdFawcett_Revision2019,3.2.3,59.97332386314757,
,,,,73,0,73,0,,,,,,,,,,,,,3837.530285300003,None,,,,,,,,,,,,,,,,,,,,,,interview,B_aloud1,73,165,3833.93937420001,None,3833.93937420001,None,3833.93937420001,None,2,1.7850112000014633,3833.93937420001,None,3835.780364700011,None,3835.780364700011,None,3836.3004767000093,None,3836.3004767000093,None,3836.3004767000093,None,n,1.2002505999989808,3836.3004767000093,None,base6,001,2019_Oct_24_1530,ProdFawcett_Revision2019,3.2.3,59.97332386314757,
,,,,74,0,74,0,,,,,,,,,,,,,3840.132309000008,None,,,,,,,,,,,,,,,,,,,,,,weight,D_new,74,353,3838.0553182000003,None,3838.0553182000003,None,3838.0553182000003,None,1,1.3251155999896582,3838.0553182000003,None,3839.442867000005,None,3839.442867000005,None,3839.95287020001,None,3839.95287020001,None,3839.95287020001,None,n,0.13977570000861306,3839.95287020001,None,base6,001,2019_Oct_24_1530,ProdFawcett_Revision2019,3.2.3,59.97332386314757,
,,,,75,0,75,0,,,,,,,,,,,,,3843.987743000005,None,,,,,,,,,,,,,,,,,,,,,,tough,A_silent,75,333,3840.656441500003,None,3840.656441500003,None,3840.656441500003,None,6,1.9642930999980308,3840.656441500003,None,3842.662293900008,None,3842.662293900008,None,3843.1884456000116,None,3843.1884456000116,None,3843.1884456000116,None,r,0.7682350999966729,3843.1884456000116,None,base6,001,2019_Oct_24_1530,ProdFawcett_Revision2019,3.2.3,59.97332386314757,
,,,,76,0,76,0,,,,,,,,,,,,,3848.05784020001,None,,,,,,,,,,,,,,,,,,,,,,executive,D_new,76,122,3844.512684400004,None,3844.512684400004,None,3844.512684400004,None,2,1.7237829000077909,3844.512684400004,None,3846.2863245000044,None,3846.2863245000044,None,3846.8125149000116,None,3846.8125149000116,None,3846.8125149000116,None,n,1.2079999999987194,3846.8125149000116,None,base6,001,2019_Oct_24_1530,ProdFawcett_Revision2019,3.2.3,59.97332386314757,
,,,,77,0,77,0,,,,,,,,,,,,,3851.4937695000117,None,,,,,,,,,,,,,,,,,,,,,,blind,B_aloud1,77,24,3848.579931600005,None,3848.579931600005,None,3848.579931600005,None,6,1.992436300002737,3848.579931600005,None,3850.6313107000024,None,3850.6313107000024,None,3851.146116200005,None,3851.146116200005,None,3851.146116200005,None,r,0.3140323000116041,3851.146116200005,None,base6,001,2019_Oct_24_1530,ProdFawcett_Revision2019,3.2.3,59.97332386314757,
,,,,78,0,78,0,,,,,,,,,,,,,3854.8466809000092,None,,,,,,,,,,,,,,,,,,,,,,salary,D_new,78,271,3852.013374400005,None,3852.013374400005,None,3852.013374400005,None,1,2.199368699992192,3852.013374400005,None,3854.2580559000053,None,3854.2580559000053,None,3854.782516799998,None,3854.782516799998,None,3854.782516799998,None,n,0.021835099993040785,3854.782516799998,None,base6,001,2019_Oct_24_1530,ProdFawcett_Revision2019,3.2.3,59.97332386314757,
,,,,79,0,79,0,,,,,,,,,,,,,3859.752375000011,None,,,,,,,,,,,,,,,,,,,,,,power,B_aloud1,79,230,3855.3707575000008,None,3855.3707575000008,None,3855.3707575000008,None,3,3.441594799995073,3855.3707575000008,None,3858.8600394000096,None,3858.8600394000096,None,3859.3922644999984,None,3859.3922644999984,None,3859.3922644999984,None,n,0.3243868999998085,3859.3922644999984,None,base6,001,2019_Oct_24_1530,ProdFawcett_Revision2019,3.2.3,59.97332386314757,
,,,,80,0,80,0,,,,,,,,,,,,,3862.540661100007,None,,,,,,,,,,,,,,,,,,,,,,listen,D_new,80,172,3860.271422900012,None,3860.271422900012,None,3860.271422900012,None,2,1.6530858999904012,3860.271422900012,None,3861.9656414000056,None,3861.9656414000056,None,3862.4921643000125,None,3862.4921643000125,None,3862.4921643000125,None,n,0.008225999990827404,3862.4921643000125,None,base6,001,2019_Oct_24_1530,ProdFawcett_Revision2019,3.2.3,59.97332386314757,
,,,,81,0,81,0,,,,,,,,,,,,,3866.008342800007,None,,,,,,,,,,,,,,,,,,,,,,management,B_aloud1,81,177,3863.063673900004,None,3863.063673900004,None,3863.063673900004,None,2,2.236700000008568,3863.063673900004,None,3865.3591505000077,None,3865.3591505000077,None,3865.877006300012,None,3865.877006300012,None,3865.877006300012,None,n,0.08736350000253879,3865.877006300012,None,base6,001,2019_Oct_24_1530,ProdFawcett_Revision2019,3.2.3,59.97332386314757,
,,,,82,0,82,0,,,,,,,,,,,,,3869.447040500003,None,,,,,,,,,,,,,,,,,,,,,,orchestra,C_aloud2,82,206,3866.5300875000103,None,3866.5300875000103,None,3866.5300875000103,None,1,1.1222930999938399,3866.5300875000103,None,3867.703443700011,None,3867.703443700011,None,3868.2276150000107,None,3868.2276150000107,None,3868.2276150000107,None,n,1.1767749999999069,3868.2276150000107,None,base6,001,2019_Oct_24_1530,ProdFawcett_Revision2019,3.2.3,59.97332386314757,
,,,,83,0,83,0,,,,,,,,,,,,,3873.8618922000023,None,,,,,,,,,,,,,,,,,,,,,,collection,D_new,83,54,3869.966518100002,None,3869.966518100002,None,3869.966518100002,None,2,2.181793800002197,3869.966518100002,None,3872.1999712000106,None,3872.1999712000106,None,3872.714133500005,None,3872.714133500005,None,3872.714133500005,None,n,1.1143216000054963,3872.714133500005,None,base6,001,2019_Oct_24_1530,ProdFawcett_Revision2019,3.2.3,59.97332386314757,
,,,,84,0,84,0,,,,,,,,,,,,,3878.4602579000057,None,,,,,,,,,,,,,,,,,,,,,,minute,B_aloud1,84,192,3874.3757621000113,None,3874.3757621000113,None,3874.3757621000113,None,5,2.476624899994931,3874.3757621000113,None,3876.8974214000045,None,3876.8974214000045,None,3877.418486200011,None,3877.418486200011,None,3877.418486200011,None,f,1.0096507999987807,3877.418486200011,None,base6,001,2019_Oct_24_1530,ProdFawcett_Revision2019,3.2.3,59.97332386314757,
,,,,85,0,85,0,,,,,,,,,,,,,3884.5266176000005,None,,,,,,,,,,,,,,,,,,,,,,touch,C_aloud2,85,332,3878.9934759000025,None,3878.9934759000025,None,3878.9934759000025,None,4,4.666840299993055,3878.9934759000025,None,3883.6878706999996,None,3883.6878706999996,None,3884.2029926000105,None,3884.2029926000105,None,3884.2029926000105,None,f,0.2894310000119731,3884.2029926000105,None,base6,001,2019_Oct_24_1530,ProdFawcett_Revision2019,3.2.3,59.97332386314757,
,,,,86,0,86,0,,,,,,,,,,,,,3887.9207333000086,None,,,,,,,,,,,,,,,,,,,,,,strength,B_aloud1,86,310,3885.051823700007,None,3885.051823700007,None,3885.051823700007,None,4,1.6005703999981051,3885.051823700007,None,3886.7134574000083,None,3886.7134574000083,None,3887.2346740000066,None,3887.2346740000066,None,3887.2346740000066,None,f,0.6420056000060868,3887.2346740000066,None,base6,001,2019_Oct_24_1530,ProdFawcett_Revision2019,3.2.3,59.97332386314757,
,,,,87,0,87,0,,,,,,,,,,,,,3891.2737332000106,None,,,,,,,,,,,,,,,,,,,,,,primary,B_aloud1,87,234,3888.449408600005,None,3888.449408600005,None,3888.449408600005,None,2,2.1231296000041766,3888.449408600005,None,3890.6324044000066,None,3890.6324044000066,None,3891.149029100008,None,3891.149029100008,None,3891.149029100008,None,n,0.1031284000055166,3891.149029100008,None,base6,001,2019_Oct_24_1530,ProdFawcett_Revision2019,3.2.3,59.97332386314757,
,,,,88,0,88,0,,,,,,,,,,,,,3893.9529052,None,,,,,,,,,,,,,,,,,,,,,,audience,D_new,88,14,3891.8004777000024,None,3891.8004777000024,None,3891.8004777000024,None,3,1.3558247000037227,3891.8004777000024,None,3893.2012576000125,None,3893.2012576000125,None,3893.7212815000094,None,3893.7212815000094,None,3893.7212815000094,None,n,0.20310119999339804,3893.7212815000094,None,base6,001,2019_Oct_24_1530,ProdFawcett_Revision2019,3.2.3,59.97332386314757,
,,,,89,0,89,0,,,,,,,,,,,,,3896.675851500011,None,,,,,,,,,,,,,,,,,,,,,,burden,D_new,89,36,3894.4763794000028,None,3894.4763794000028,None,3894.4763794000028,None,1,1.4720220000017434,3894.4763794000028,None,3896.0044845000084,None,3896.0044845000084,None,3896.525043600006,None,3896.525043600006,None,3896.525043600006,None,n,0.11136699999042321,3896.525043600006,None,base6,001,2019_Oct_24_1530,ProdFawcett_Revision2019,3.2.3,59.97332386314757,
,,,,90,0,90,0,,,,,,,,,,,,,3899.447085500011,None,,,,,,,,,,,,,,,,,,,,,,center,C_aloud2,90,44,3897.193708100007,None,3897.193708100007,None,3897.193708100007,None,5,1.5146595999976853,3897.193708100007,None,3898.733562300011,None,3898.733562300011,None,3899.2581863000087,None,3899.2581863000087,None,3899.2581863000087,None,f,0.14620550000108778,3899.2581863000087,None,base6,001,2019_Oct_24_1530,ProdFawcett_Revision2019,3.2.3,59.97332386314757,
,,,,91,0,91,0,,,,,,,,,,,,,3903.1624791000067,None,,,,,,,,,,,,,,,,,,,,,,relation,D_new,91,257,3899.9810025000043,None,3899.9810025000043,None,3899.9810025000043,None,3,2.319383000009111,3899.9810025000043,None,3902.3553911000054,None,3902.3553911000054,None,3902.8785788000096,None,3902.8785788000096,None,3902.8785788000096,None,n,0.25399330000800546,3902.8785788000096,None,base6,001,2019_Oct_24_1530,ProdFawcett_Revision2019,3.2.3,59.97332386314757,
,,,,92,0,92,0,,,,,,,,,,,,,3906.649927800012,None,,,,,,,,,,,,,,,,,,,,,,position,C_aloud2,92,229,3903.683051,None,3903.683051,None,3903.683051,None,5,1.6732855000009295,3903.683051,None,3905.4128808000096,None,3905.4128808000096,None,3905.9310815000063,None,3905.9310815000063,None,3905.9310815000063,None,f,0.6815201999997953,3905.9310815000063,None,base6,001,2019_Oct_24_1530,ProdFawcett_Revision2019,3.2.3,59.97332386314757,
,,,,93,0,93,0,,,,,,,,,,,,,3909.3680280000117,None,,,,,,,,,,,,,,,,,,,,,,mayor,D_new,93,183,3907.1590682000096,None,3907.1590682000096,None,3907.1590682000096,None,1,1.173492999994778,3907.1590682000096,None,3908.3798825999984,None,3908.3798825999984,None,3908.8993400000036,None,3908.8993400000036,None,3908.8993400000036,None,n,0.4249676999897929,3908.8993400000036,None,base6,001,2019_Oct_24_1530,ProdFawcett_Revision2019,3.2.3,59.97332386314757,
,,,,94,0,94,0,,,,,,,,,,,,,3911.870916300002,None,,,,,,,,,,,,,,,,,,,,,,debate,D_new,94,87,3909.8898658000107,None,3909.8898658000107,None,3909.8898658000107,None,1,1.2509380000119563,3909.8898658000107,None,3911.181348500002,None,3911.181348500002,None,3911.707534800007,None,3911.707534800007,None,3911.707534800007,None,n,0.12083450000500306,3911.707534800007,None,base6,001,2019_Oct_24_1530,ProdFawcett_Revision2019,3.2.3,59.97332386314757,
,,,,95,0,95,0,,,,,,,,,,,,,3914.3079940000025,None,,,,,,,,,,,,,,,,,,,,,,dance,D_new,95,84,3912.3921908000048,None,3912.3921908000048,None,3912.3921908000048,None,1,1.3001775000011548,3912.3921908000048,None,3913.7237620000087,None,3913.7237620000087,None,3914.2303720000054,None,3914.2303720000054,None,3914.2303720000054,None,n,0.038048900009016506,3914.2303720000054,None,base6,001,2019_Oct_24_1530,ProdFawcett_Revision2019,3.2.3,59.97332386314757,
,,,,96,0,96,0,,,,,,,,,,,,,3917.4801294000063,None,,,,,,,,,,,,,,,,,,,,,,swift,D_new,96,320,3914.8290414000076,None,3914.8290414000076,None,3914.8290414000076,None,2,1.7435658999893349,3914.8290414000076,None,3916.6290534,None,3916.6290534,None,3917.147045999998,None,3917.147045999998,None,3917.147045999998,None,n,0.2894201000017347,3917.147045999998,None,base6,001,2019_Oct_24_1530,ProdFawcett_Revision2019,3.2.3,59.97332386314757,
,,,,97,0,97,0,,,,,,,,,,,,,3920.333250800002,None,,,,,,,,,,,,,,,,,,,,,,reach,D_new,97,253,3917.997363600007,None,3917.997363600007,None,3917.997363600007,None,2,1.470971600007033,3917.997363600007,None,3919.525326300005,None,3919.525326300005,None,3920.051222599999,None,3920.051222599999,None,3920.051222599999,None,n,0.2492766999930609,3920.051222599999,None,base6,001,2019_Oct_24_1530,ProdFawcett_Revision2019,3.2.3,59.97332386314757,
,,,,98,0,98,0,,,,,,,,,,,,,3923.216868000003,None,,,,,,,,,,,,,,,,,,,,,,appeal,B_aloud1,98,9,3920.848432400002,None,3920.848432400002,None,3920.848432400002,None,1,1.523850899990066,3920.848432400002,None,3922.414585899998,None,3922.414585899998,None,3922.931535200012,None,3922.931535200012,None,3922.931535200012,None,n,0.24899659999937285,3922.931535200012,None,base6,001,2019_Oct_24_1530,ProdFawcett_Revision2019,3.2.3,59.97332386314757,
,,,,99,0,99,0,,,,,,,,,,,,,3926.402427400011,None,,,,,,,,,,,,,,,,,,,,,,education,D_new,99,108,3923.7378045000078,None,3923.7378045000078,None,3923.7378045000078,None,3,1.7546041000023251,3923.7378045000078,None,3925.545122800002,None,3925.545122800002,None,3926.0680170000123,None,3926.0680170000123,None,3926.0680170000123,None,n,0.30459820000396576,3926.0680170000123,None,base6,001,2019_Oct_24_1530,ProdFawcett_Revision2019,3.2.3,59.97332386314757,
,,,,100,0,100,0,,,,,,,,,,,,,3928.8948817000055,None,,,,,,,,,,,,,,,,,,,,,,judge,D_new,100,166,3926.928459200004,None,3926.928459200004,None,3926.928459200004,None,1,1.1240204999921843,3926.928459200004,None,3928.107984900009,None,3928.107984900009,None,3928.6120549000043,None,3928.6120549000043,None,3928.6120549000043,None,n,0.2481331000017235,3928.6120549000043,None,base6,001,2019_Oct_24_1530,ProdFawcett_Revision2019,3.2.3,59.97332386314757,
,,,,101,0,101,0,,,,,,,,,,,,,3931.727316400007,None,,,,,,,,,,,,,,,,,,,,,,profession,D_new,101,241,3929.4227939999982,None,3929.4227939999982,None,3929.4227939999982,None,1,1.5494812999968417,3929.4227939999982,None,3931.020516000004,None,3931.020516000004,None,3931.542650800009,None,3931.542650800009,None,3931.542650800009,None,n,0.1417558000102872,3931.542650800009,None,base6,001,2019_Oct_24_1530,ProdFawcett_Revision2019,3.2.3,59.97332386314757,
,,,,102,0,102,0,,,,,,,,,,,,,3934.426264599999,None,,,,,,,,,,,,,,,,,,,,,,general,C_aloud2,102,135,3932.247934400002,None,3932.247934400002,None,3932.247934400002,None,1,1.468515100001241,3932.247934400002,None,3933.77305660001,None,3933.77305660001,None,3934.2962590000097,None,3934.2962590000097,None,3934.2962590000097,None,n,0.09216299999388866,3934.2962590000097,None,base6,001,2019_Oct_24_1530,ProdFawcett_Revision2019,3.2.3,59.97332386314757,
,,,,103,0,103,0,,,,,,,,,,,,,3937.7964005000103,None,,,,,,,,,,,,,,,,,,,,,,search,A_silent,103,276,3934.9495456000004,None,3934.9495456000004,None,3934.9495456000004,None,5,1.9988618999923347,3934.9495456000004,None,3936.9910081000126,None,3936.9910081000126,None,3937.5115367000108,None,3937.5115367000108,None,3937.5115367000108,None,f,0.24483659998804796,3937.5115367000108,None,base6,001,2019_Oct_24_1530,ProdFawcett_Revision2019,3.2.3,59.97332386314757,
,,,,104,0,104,0,,,,,,,,,,,,,3940.6502413000126,None,,,,,,,,,,,,,,,,,,,,,,speech,D_new,104,298,3938.316154500004,None,3938.316154500004,None,3938.316154500004,None,5,1.6161936999997124,3938.316154500004,None,3939.9757281000057,None,3939.9757281000057,None,3940.5008076000086,None,3940.5008076000086,None,3940.5008076000086,None,f,0.11162579999654554,3940.5008076000086,None,base6,001,2019_Oct_24_1530,ProdFawcett_Revision2019,3.2.3,59.97332386314757,
,,,,105,0,105,0,,,,,,,,,,,,,3944.2884001000057,None,,,,,,,,,,,,,,,,,,,,,,dozen,B_aloud1,105,102,3941.173985500005,None,3941.173985500005,None,3941.173985500005,None,6,1.4864210000087041,3941.173985500005,None,3942.7101278000046,None,3942.7101278000046,None,3943.238437200009,None,3943.238437200009,None,3943.238437200009,None,r,1.0143118999985745,3943.238437200009,None,base6,001,2019_Oct_24_1530,ProdFawcett_Revision2019,3.2.3,59.97332386314757,
,,,,106,0,106,0,,,,,,,,,,,,,3947.0889946000098,None,,,,,,,,,,,,,,,,,,,,,,death,A_silent,106,86,3944.805248100005,None,3944.805248100005,None,3944.805248100005,None,6,1.5034222999966005,3944.805248100005,None,3946.341870700009,None,3946.341870700009,None,3946.859837600001,None,3946.859837600001,None,3946.859837600001,None,r,0.19247799999720883,3946.859837600001,None,base6,001,2019_Oct_24_1530,ProdFawcett_Revision2019,3.2.3,59.97332386314757,
,,,,107,0,107,0,,,,,,,,,,,,,3950.409422800003,None,,,,,,,,,,,,,,,,,,,,,,crime,D_new,107,78,3947.6089316,None,3947.6089316,None,3947.6089316,None,2,1.9480003000062425,3947.6089316,None,3949.6060368000035,None,3949.6060368000035,None,3950.1292515000096,None,3950.1292515000096,None,3950.1292515000096,None,n,0.24338210000132676,3950.1292515000096,None,base6,001,2019_Oct_24_1530,ProdFawcett_Revision2019,3.2.3,59.97332386314757,
,,,,108,0,108,0,,,,,,,,,,,,,3953.146478399998,None,,,,,,,,,,,,,,,,,,,,,,store,D_new,108,305,3950.9354552000004,None,3950.9354552000004,None,3950.9354552000004,None,2,1.4049441999959527,3950.9354552000004,None,3952.3894514999993,None,3952.3894514999993,None,3952.9017793000094,None,3952.9017793000094,None,3952.9017793000094,None,n,0.20671289999154396,3952.9017793000094,None,base6,001,2019_Oct_24_1530,ProdFawcett_Revision2019,3.2.3,59.97332386314757,
,,,,109,0,109,0,,,,,,,,,,,,,3955.5188800000033,None,,,,,,,,,,,,,,,,,,,,,,military,D_new,109,190,3953.666943400007,None,3953.666943400007,None,3953.666943400007,None,1,0.9935031999921193,3953.666943400007,None,3954.711061400012,None,3954.711061400012,None,3955.2304459000006,None,3955.2304459000006,None,3955.2304459000006,None,n,0.24591099999088328,3955.2304459000006,None,base6,001,2019_Oct_24_1530,ProdFawcett_Revision2019,3.2.3,59.97332386314757,
,,,,110,0,110,0,,,,,,,,,,,,,3959.1174586000125,None,,,,,,,,,,,,,,,,,,,,,,weather,B_aloud1,110,352,3956.0387823000056,None,3956.0387823000056,None,3956.0387823000056,None,4,2.2298634000035236,3956.0387823000056,None,3958.3166726000054,None,3958.3166726000054,None,3958.8226330000034,None,3958.8226330000034,None,3958.8226330000034,None,f,0.2538329000090016,3958.8226330000034,None,base6,001,2019_Oct_24_1530,ProdFawcett_Revision2019,3.2.3,59.97332386314757,
,,,,111,0,111,0,,,,,,,,,,,,,3961.7707795000024,None,,,,,,,,,,,,,,,,,,,,,,quick,A_silent,111,248,3959.6408484999993,None,3959.6408484999993,None,3959.6408484999993,None,1,1.4117157000000589,3959.6408484999993,None,3961.101051100006,None,3961.101051100006,None,3961.6232963000075,None,3961.6232963000075,None,3961.6232963000075,None,n,0.11724310000136029,3961.6232963000075,None,base6,001,2019_Oct_24_1530,ProdFawcett_Revision2019,3.2.3,59.97332386314757,
,,,,112,0,112,0,,,,,,,,,,,,,3965.040950300012,None,,,,,,,,,,,,,,,,,,,,,,under,A_silent,112,343,3962.2922919999983,None,3962.2922919999983,None,3962.2922919999983,None,4,1.6721595999988494,3962.2922919999983,None,3964.012093600002,None,3964.012093600002,None,3964.537451000011,None,3964.537451000011,None,3964.537451000011,None,f,0.46712440000555944,3964.537451000011,None,base6,001,2019_Oct_24_1530,ProdFawcett_Revision2019,3.2.3,59.97332386314757,
,,,,113,0,113,0,,,,,,,,,,,,,3968.866624800008,None,,,,,,,,,,,,,,,,,,,,,,background,A_silent,113,16,3965.5674355000083,None,3965.5674355000083,None,3965.5674355000083,None,2,2.1490727000054903,3965.5674355000083,None,3967.778368900006,None,3967.778368900006,None,3968.2971866000007,None,3968.2971866000007,None,3968.2971866000007,None,n,0.5311970000038855,3968.2971866000007,None,base6,001,2019_Oct_24_1530,ProdFawcett_Revision2019,3.2.3,59.97332386314757,
,,,,114,0,114,0,,,,,,,,,,,,,3971.229890200004,None,,,,,,,,,,,,,,,,,,,,,,minor,A_silent,114,191,3969.399078900009,None,3969.399078900009,None,3969.399078900009,None,1,1.1093039999977918,3969.399078900009,None,3970.5525444000086,None,3970.5525444000086,None,3971.078807900005,None,3971.078807900005,None,3971.078807900005,None,n,0.11774059999152087,3971.078807900005,None,base6,001,2019_Oct_24_1530,ProdFawcett_Revision2019,3.2.3,59.97332386314757,
,,,,115,0,115,0,,,,,,,,,,,,,3973.6840702000045,None,,,,,,,,,,,,,,,,,,,,,,front,B_aloud1,115,134,3971.7485121000063,None,3971.7485121000063,None,3971.7485121000063,None,1,1.0719684999930905,3971.7485121000063,None,3972.876413200007,None,3972.876413200007,None,3973.4021628000046,None,3973.4021628000046,None,3973.4021628000046,None,n,0.242251399991801,3973.4021628000046,None,base6,001,2019_Oct_24_1530,ProdFawcett_Revision2019,3.2.3,59.97332386314757,
,,,,116,0,116,0,,,,,,,,,,,,,3977.771906000009,None,,,,,,,,,,,,,,,,,,,,,,suspect,C_aloud2,116,318,3974.2032905000087,None,3974.2032905000087,None,3974.2032905000087,None,2,1.2171873000042979,3974.2032905000087,None,3975.4671659000014,None,3975.4671659000014,None,3975.9838193000032,None,3975.9838193000032,None,3975.9838193000032,None,f,1.756769899991923,3975.9838193000032,None,base6,001,2019_Oct_24_1530,ProdFawcett_Revision2019,3.2.3,59.97332386314757,
,,,,117,0,117,0,,,,,,,,,,,,,3981.674035700009,None,,,,,,,,,,,,,,,,,,,,,,route,C_aloud2,117,267,3978.2899430000107,None,3978.2899430000107,None,3978.2899430000107,None,6,2.1865855999931227,3978.2899430000107,None,3980.5165043000015,None,3980.5165043000015,None,3981.039113000006,None,3981.039113000006,None,3981.039113000006,None,r,0.5974862000002759,3981.039113000006,None,base6,001,2019_Oct_24_1530,ProdFawcett_Revision2019,3.2.3,59.97332386314757,
,,,,118,0,118,0,,,,,,,,,,,,,3988.4912066000106,None,,,,,,,,,,,,,,,,,,,,,,exchange,C_aloud2,118,121,3982.2020713000093,None,3982.2020713000093,None,3982.2020713000093,None,5,4.882350999992923,3982.2020713000093,None,3987.1408693999983,None,3987.1408693999983,None,3987.6675717000035,None,3987.6675717000035,None,3987.6675717000035,None,f,0.7844213000062155,3987.6675717000035,None,base6,001,2019_Oct_24_1530,ProdFawcett_Revision2019,3.2.3,59.97332386314757,
,,,,119,0,119,0,,,,,,,,,,,,,3996.4376169000025,None,,,,,,,,,,,,,,,,,,,,,,period,D_new,119,217,3989.01457520001,None,3989.01457520001,None,3989.01457520001,None,5,5.789902000004076,3989.01457520001,None,3994.846149200006,None,3994.846149200006,None,3995.3742410000123,None,3995.3742410000123,None,3995.3742410000123,None,f,1.022323299999698,3995.3742410000123,None,base6,001,2019_Oct_24_1530,ProdFawcett_Revision2019,3.2.3,59.97332386314757,
,,,,120,0,120,0,,,,,,,,,,,,,3999.297626700005,None,,,,,,,,,,,,,,,,,,,,,,degree,D_new,120,89,3996.963685300012,None,3996.963685300012,None,3996.963685300012,None,2,1.448677399996086,3996.963685300012,None,3998.4599192000023,None,3998.4599192000023,None,3998.9816901000013,None,3998.9816901000013,None,3998.9816901000013,None,n,0.27068129999679513,3998.9816901000013,None,base6,001,2019_Oct_24_1530,ProdFawcett_Revision2019,3.2.3,59.97332386314757,
,,,,121,0,121,0,,,,,,,,,,,,,4002.5961462999985,None,,,,,,,,,,,,,,,,,,,,,,trail,B_aloud1,121,336,3999.8255506999994,None,3999.8255506999994,None,3999.8255506999994,None,3,1.6107247000036296,3999.8255506999994,None,4001.481514900006,None,4001.481514900006,None,4001.9958487000113,None,4001.9958487000113,None,4001.9958487000113,None,f,0.5684068999980809,4001.9958487000113,None,base6,001,2019_Oct_24_1530,ProdFawcett_Revision2019,3.2.3,59.97332386314757,
,,,,122,0,122,0,,,,,,,,,,,,,4005.8188121999992,None,,,,,,,,,,,,,,,,,,,,,,scale,D_new,122,272,4003.116413200012,None,4003.116413200012,None,4003.116413200012,None,4,1.7681913999986136,4003.116413200012,None,4004.9239369999996,None,4004.9239369999996,None,4005.447948800007,None,4005.447948800007,None,4005.447948800007,None,f,0.3327988000091864,4005.447948800007,None,base6,001,2019_Oct_24_1530,ProdFawcett_Revision2019,3.2.3,59.97332386314757,
,,,,123,0,123,0,,,,,,,,,,,,,4009.235149800006,None,,,,,,,,,,,,,,,,,,,,,,grade,C_aloud2,123,140,4006.337097200012,None,4006.337097200012,None,4006.337097200012,None,4,1.9476885000040056,4006.337097200012,None,4008.3337610000017,None,4008.3337610000017,None,4008.8530911999987,None,4008.8530911999987,None,4008.8530911999987,None,f,0.3433115999941947,4008.8530911999987,None,base6,001,2019_Oct_24_1530,ProdFawcett_Revision2019,3.2.3,59.97332386314757,
,,,,124,0,124,0,,,,,,,,,,,,,4013.3556958000117,None,,,,,,,,,,,,,,,,,,,,,,tennis,A_silent,124,323,4009.7548085000017,None,4009.7548085000017,None,4009.7548085000017,None,3,2.7137894999905257,4009.7548085000017,None,4012.5149272000126,None,4012.5149272000126,None,4013.0373764000105,None,4013.0373764000105,None,4013.0373764000105,None,n,0.2873962000012398,4013.0373764000105,None,base6,001,2019_Oct_24_1530,ProdFawcett_Revision2019,3.2.3,59.97332386314757,
,,,,125,0,125,0,,,,,,,,,,,,,4016.543793500008,None,,,,,,,,,,,,,,,,,,,,,,marriage,D_new,125,179,4013.880849500012,None,4013.880849500012,None,4013.880849500012,None,1,1.84332159999758,4013.880849500012,None,4015.7681538000033,None,4015.7681538000033,None,4016.284738800008,None,4016.284738800008,None,4016.284738800008,None,n,0.22381169999425765,4016.284738800008,None,base6,001,2019_Oct_24_1530,ProdFawcett_Revision2019,3.2.3,59.97332386314757,
,,,,126,0,126,0,,,,,,,,,,,,,4019.5302115000086,None,,,,,,,,,,,,,,,,,,,,,,safety,A_silent,126,270,4017.0621574000106,None,4017.0621574000106,None,4017.0621574000106,None,3,1.3898649000038859,4017.0621574000106,None,4018.487842500006,None,4018.487842500006,None,4019.017119700002,None,4019.017119700002,None,4019.017119700002,None,f,0.48320619999140035,4019.017119700002,None,base6,001,2019_Oct_24_1530,ProdFawcett_Revision2019,3.2.3,59.97332386314757,
,,,,127,0,127,0,,,,,,,,,,,,,4022.5160508000117,None,,,,,,,,,,,,,,,,,,,,,,narrow,A_silent,127,197,4020.052661900001,None,4020.052661900001,None,4020.052661900001,None,2,1.407709299994167,4020.052661900001,None,4021.5115150000056,None,4021.5115150000056,None,4022.033392000012,None,4022.033392000012,None,4022.033392000012,None,n,0.44303609999769833,4022.033392000012,None,base6,001,2019_Oct_24_1530,ProdFawcett_Revision2019,3.2.3,59.97332386314757,
,,,,128,0,128,0,,,,,,,,,,,,,4025.5382296000025,None,,,,,,,,,,,,,,,,,,,,,,problem,D_new,128,238,4023.039631899999,None,4023.039631899999,None,4023.039631899999,None,4,1.6367356999980984,4023.039631899999,None,4024.728310899998,None,4024.728310899998,None,4025.244413200009,None,4025.244413200009,None,4025.244413200009,None,f,0.24802529999578837,4025.244413200009,None,base6,001,2019_Oct_24_1530,ProdFawcett_Revision2019,3.2.3,59.97332386314757,
,,,,129,0,129,0,,,,,,,,,,,,,4028.273594099999,None,,,,,,,,,,,,,,,,,,,,,,citizen,D_new,129,50,4026.0601138000056,None,4026.0601138000056,None,4026.0601138000056,None,2,1.4563133000046946,4026.0601138000056,None,4027.572202100011,None,4027.572202100011,None,4028.0872891000035,None,4028.0872891000035,None,4028.0872891000035,None,n,0.14118459999735933,4028.0872891000035,None,base6,001,2019_Oct_24_1530,ProdFawcett_Revision2019,3.2.3,59.97332386314757,
,,,,130,0,130,0,,,,,,,,,,,,,4031.072403099999,None,,,,,,,,,,,,,,,,,,,,,,birth,D_new,130,22,4028.792747300002,None,4028.792747300002,None,4028.792747300002,None,1,1.3555788000085158,4028.792747300002,None,4030.200464900001,None,4030.200464900001,None,4030.723673600005,None,4030.723673600005,None,4030.723673600005,None,n,0.3047872000024654,4030.723673600005,None,base6,001,2019_Oct_24_1530,ProdFawcett_Revision2019,3.2.3,59.97332386314757,
,,,,131,0,131,0,,,,,,,,,,,,,4034.227193800005,None,,,,,,,,,,,,,,,,,,,,,,ground,D_new,131,142,4031.5838197999983,None,4031.5838197999983,None,4031.5838197999983,None,3,1.620404299988877,4031.5838197999983,None,4033.250524300005,None,4033.250524300005,None,4033.780328699999,None,4033.780328699999,None,4033.780328699999,None,n,0.40809019999869633,4033.780328699999,None,base6,001,2019_Oct_24_1530,ProdFawcett_Revision2019,3.2.3,59.97332386314757,
,,,,132,0,132,0,,,,,,,,,,,,,4037.0618721000064,None,,,,,,,,,,,,,,,,,,,,,,discovery,D_new,132,95,4034.752599600004,None,4034.752599600004,None,4034.752599600004,None,3,1.419690399998217,4034.752599600004,None,4036.2226189000066,None,4036.2226189000066,None,4036.752891700002,None,4036.752891700002,None,4036.752891700002,None,n,0.26747160000377335,4036.752891700002,None,base6,001,2019_Oct_24_1530,ProdFawcett_Revision2019,3.2.3,59.97332386314757,
,,,,133,0,133,0,,,,,,,,,,,,,4039.8501370000013,None,,,,,,,,,,,,,,,,,,,,,,group,D_new,133,143,4037.581382900011,None,4037.581382900011,None,4037.581382900011,None,3,1.294933699988178,4037.581382900011,None,4038.9289111000107,None,4038.9289111000107,None,4039.4507171000005,None,4039.4507171000005,None,4039.4507171000005,None,n,0.361666900003911,4039.4507171000005,None,base6,001,2019_Oct_24_1530,ProdFawcett_Revision2019,3.2.3,59.97332386314757,
,,,,134,0,134,0,,,,,,,,,,,,,4043.2685646000027,None,,,,,,,,,,,,,,,,,,,,,,personnel,A_silent,134,219,4040.3710964000056,None,4040.3710964000056,None,4040.3710964000056,None,4,1.9692259000003105,4040.3710964000056,None,4042.39417710001,None,4042.39417710001,None,4042.9185910000087,None,4042.9185910000087,None,4042.9185910000087,None,f,0.3097662000072887,4042.9185910000087,None,base6,001,2019_Oct_24_1530,ProdFawcett_Revision2019,3.2.3,59.97332386314757,
,,,,135,0,135,0,,,,,,,,,,,,,4046.4382694000087,None,,,,,,,,,,,,,,,,,,,,,,fashion,D_new,135,125,4043.7893685000017,None,4043.7893685000017,None,4043.7893685000017,None,1,1.6870817000017269,4043.7893685000017,None,4045.5343808000034,None,4045.5343808000034,None,4046.0463724,None,4046.0463724,None,4046.0463724,None,n,0.35007270000642166,4046.0463724,None,base6,001,2019_Oct_24_1530,ProdFawcett_Revision2019,3.2.3,59.97332386314757,
,,,,136,0,136,0,,,,,,,,,,,,,4049.842332400003,None,,,,,,,,,,,,,,,,,,,,,,evidence,C_aloud2,136,120,4046.9642915000004,None,4046.9642915000004,None,4046.9642915000004,None,5,2.0241385999979684,4046.9642915000004,None,4049.035415400009,None,4049.035415400009,None,4049.5620705000038,None,4049.5620705000038,None,4049.5620705000038,None,f,0.25042510000639595,4049.5620705000038,None,base6,001,2019_Oct_24_1530,ProdFawcett_Revision2019,3.2.3,59.97332386314757,
,,,,137,0,137,0,,,,,,,,,,,,,4053.0307821000024,None,,,,,,,,,,,,,,,,,,,,,,whole,A_silent,137,355,4050.3642458000104,None,4050.3642458000104,None,4050.3642458000104,None,3,1.5761330000095768,4050.3642458000104,None,4051.992370100008,None,4051.992370100008,None,4052.513953300004,None,4052.513953300004,None,4052.513953300004,None,n,0.48267059998761397,4052.513953300004,None,base6,001,2019_Oct_24_1530,ProdFawcett_Revision2019,3.2.3,59.97332386314757,
,,,,138,0,138,0,,,,,,,,,,,,,4055.8321241000085,None,,,,,,,,,,,,,,,,,,,,,,volume,D_new,138,349,4053.5519210000057,None,4053.5519210000057,None,4053.5519210000057,None,1,1.4362546000047587,4053.5519210000057,None,4055.032949100001,None,4055.032949100001,None,4055.5491421000042,None,4055.5491421000042,None,4055.5491421000042,None,n,0.23922000000311527,4055.5491421000042,None,base6,001,2019_Oct_24_1530,ProdFawcett_Revision2019,3.2.3,59.97332386314757,
,,,,139,0,139,0,,,,,,,,,,,,,4058.7501242,None,,,,,,,,,,,,,,,,,,,,,,couch,A_silent,139,70,4056.3508108000096,None,4056.3508108000096,None,4056.3508108000096,None,5,1.581511500000488,4056.3508108000096,None,4057.9795054999995,None,4057.9795054999995,None,4058.500880899999,None,4058.500880899999,None,4058.500880899999,None,f,0.2076798000052804,4058.500880899999,None,base6,001,2019_Oct_24_1530,ProdFawcett_Revision2019,3.2.3,59.97332386314757,
,,,,140,0,140,0,,,,,,,,,,,,,4062.1201122000057,None,,,,,,,,,,,,,,,,,,,,,,cousin,D_new,140,76,4059.2645177000086,None,4059.2645177000086,None,4059.2645177000086,None,1,1.995888899997226,4059.2645177000086,None,4061.3146899999992,None,4061.3146899999992,None,4061.8369664000056,None,4061.8369664000056,None,4061.8369664000056,None,n,0.23920429999998305,4061.8369664000056,None,base6,001,2019_Oct_24_1530,ProdFawcett_Revision2019,3.2.3,59.97332386314757,
,,,,141,0,141,0,,,,,,,,,,,,,4065.9902545000077,None,,,,,,,,,,,,,,,,,,,,,,disease,C_aloud2,141,97,4062.6417154000083,None,4062.6417154000083,None,4062.6417154000083,None,2,2.467154499987373,4062.6417154000083,None,4065.153780000008,None,4065.153780000008,None,4065.675013500004,None,4065.675013500004,None,4065.675013500004,None,f,0.27339410000422504,4065.675013500004,None,base6,001,2019_Oct_24_1530,ProdFawcett_Revision2019,3.2.3,59.97332386314757,
,,,,142,0,142,0,,,,,,,,,,,,,4069.5797407000064,None,,,,,,,,,,,,,,,,,,,,,,congress,C_aloud2,142,67,4066.501594900008,None,4066.501594900008,None,4066.501594900008,None,2,2.0788448999956017,4066.501594900008,None,4068.6258326000097,None,4068.6258326000097,None,4069.152965800007,None,4069.152965800007,None,4069.152965800007,None,n,0.3874412000004668,4069.152965800007,None,base6,001,2019_Oct_24_1530,ProdFawcett_Revision2019,3.2.3,59.97332386314757,
,,,,143,0,143,0,,,,,,,,,,,,,4072.2484269000124,None,,,,,,,,,,,,,,,,,,,,,,level,D_new,143,170,4070.1006021000067,None,4070.1006021000067,None,4070.1006021000067,None,1,1.2557385999971302,4070.1006021000067,None,4071.407355400006,None,4071.407355400006,None,4071.9223326000065,None,4071.9223326000065,None,4071.9223326000065,None,n,0.2902274999942165,4071.9223326000065,None,base6,001,2019_Oct_24_1530,ProdFawcett_Revision2019,3.2.3,59.97332386314757,
,,,,144,0,144,0,,,,,,,,,,,,,4075.3835913000075,None,,,,,,,,,,,,,,,,,,,,,,defeat,D_new,144,88,4072.7690096000006,None,4072.7690096000006,None,4072.7690096000006,None,1,1.8999409999960335,4072.7690096000006,None,4074.7086183000065,None,4074.7086183000065,None,4075.2325867000036,None,4075.2325867000036,None,4075.2325867000036,None,n,0.10775120000471361,4075.2325867000036,None,base6,001,2019_Oct_24_1530,ProdFawcett_Revision2019,3.2.3,59.97332386314757,
,,,,145,0,145,0,,,,,,,,,,,,,4080.1077109000034,None,,,,,,,,,,,,,,,,,,,,,,quarter,C_aloud2,145,246,4075.906275000001,None,4075.906275000001,None,4075.906275000001,None,4,3.25807499999064,4075.906275000001,None,4079.2144489000057,None,4079.2144489000057,None,4079.741724899999,None,4079.741724899999,None,4079.741724899999,None,f,0.3344171000062488,4079.741724899999,None,base6,001,2019_Oct_24_1530,ProdFawcett_Revision2019,3.2.3,59.97332386314757,
,,,,146,0,146,0,,,,,,,,,,,,,4082.693465000004,None,,,,,,,,,,,,,,,,,,,,,,plane,C_aloud2,146,223,4080.6232894999994,None,4080.6232894999994,None,4080.6232894999994,None,6,1.421496799986926,4080.6232894999994,None,4082.0849051000114,None,4082.0849051000114,None,4082.6064343000035,None,4082.6064343000035,None,4082.6064343000035,None,r,0.05433240000274964,4082.6064343000035,None,base6,001,2019_Oct_24_1530,ProdFawcett_Revision2019,3.2.3,59.97332386314757,
,,,,147,0,147,0,,,,,,,,,,,,,4086.345309000011,None,,,,,,,,,,,,,,,,,,,,,,comfort,D_new,147,59,4083.216455600006,None,4083.216455600006,None,4083.216455600006,None,6,1.4521219000016572,4083.216455600006,None,4084.721131099999,None,4084.721131099999,None,4085.246965700004,None,4085.246965700004,None,4085.246965700004,None,r,1.0533241999946767,4085.246965700004,None,base6,001,2019_Oct_24_1530,ProdFawcett_Revision2019,3.2.3,59.97332386314757,
,,,,148,0,148,0,,,,,,,,,,,,,4089.015601600011,None,,,,,,,,,,,,,,,,,,,,,,expansion,D_new,148,123,4086.8657157999987,None,4086.8657157999987,None,4086.8657157999987,None,1,1.5147127999953227,4086.8657157999987,None,4088.422907500004,None,4088.422907500004,None,4088.9502632000076,None,4088.9502632000076,None,4088.9502632000076,None,n,0.030196399995475076,4088.9502632000076,None,base6,001,2019_Oct_24_1530,ProdFawcett_Revision2019,3.2.3,59.97332386314757,
,,,,149,0,149,0,,,,,,,,,,,,,4093.351294200009,None,,,,,,,,,,,,,,,,,,,,,,substance,B_aloud1,149,313,4089.542047499999,None,4089.542047499999,None,4089.542047499999,None,3,1.6302517000003718,4089.542047499999,None,4091.2357488999987,None,4091.2357488999987,None,4091.759228900002,None,4091.759228900002,None,4091.759228900002,None,f,1.5491131000017049,4091.759228900002,None,base6,001,2019_Oct_24_1530,ProdFawcett_Revision2019,3.2.3,59.97332386314757,
,,,,150,0,150,0,,,,,,,,,,,,,4096.226560800002,None,,,,,,,,,,,,,,,,,,,,,,pattern,D_new,150,214,4093.872455500008,None,4093.872455500008,None,4093.872455500008,None,2,1.4918343000026653,4093.872455500008,None,4095.4036881000065,None,4095.4036881000065,None,4095.912652800005,None,4095.912652800005,None,4095.912652800005,None,n,0.26776439999230206,4095.912652800005,None,base6,001,2019_Oct_24_1530,ProdFawcett_Revision2019,3.2.3,59.97332386314757,
,,,,151,0,151,0,,,,,,,,,,,,,4099.058194900004,None,,,,,,,,,,,,,,,,,,,,,,accident,D_new,151,0,4096.742751800004,None,4096.742751800004,None,4096.742751800004,None,1,1.3895819000026677,4096.742751800004,None,4098.184907900009,None,4098.184907900009,None,4098.708337100004,None,4098.708337100004,None,4098.708337100004,None,n,0.32030680000025313,4098.708337100004,None,base6,001,2019_Oct_24_1530,ProdFawcett_Revision2019,3.2.3,59.97332386314757,
,,,,152,0,152,0,,,,,,,,,,,,,4102.210028400004,None,,,,,,,,,,,,,,,,,,,,,,short,D_new,152,285,4099.578397300007,None,4099.578397300007,None,4099.578397300007,None,4,1.7858128999941982,4099.578397300007,None,4101.406224200007,None,4101.406224200007,None,4101.913887600007,None,4101.913887600007,None,4101.913887600007,None,f,0.2665268999990076,4101.913887600007,None,base6,001,2019_Oct_24_1530,ProdFawcett_Revision2019,3.2.3,59.97332386314757,
,,,,153,0,153,0,,,,,,,,,,,,,4105.1717107,None,,,,,,,,,,,,,,,,,,,,,,cross,C_aloud2,153,80,4102.736317900009,None,4102.736317900009,None,4102.736317900009,None,4,1.5002619000006234,4102.736317900009,None,4104.2877955,None,4104.2877955,None,4104.81441810001,None,4104.81441810001,None,4104.81441810001,None,f,0.3183545000065351,4104.81441810001,None,base6,001,2019_Oct_24_1530,ProdFawcett_Revision2019,3.2.3,59.97332386314757,
