StudyTrials.thisRepN,StudyTrials.thisTrialN,StudyTrials.thisN,StudyTrials.thisIndex,TestTrials.thisRepN,TestTrials.thisTrialN,TestTrials.thisN,TestTrials.thisIndex,textWelcome.started,textWelcome.stopped,keyWelcome.keys,keyWelcome.rt,keyWelcome.started,keyWelcome.stopped,textReady.started,textReady.stopped,keyReady.keys,keyReady.rt,keyReady.started,keyReady.stopped,polyback_2.started,polyback_2.stopped,studyPic,studyWord,studyType,studyN,studyOrder,polyback_3.started,polyback_3.stopped,studyPicChoice.started,studyPicChoice.stopped,polyback_4.started,polyback_4.stopped,polyback.started,polyback.stopped,studyWords.started,studyWords.stopped,getResearcher.started,getResearcher.stopped,kPress2.keys,kPress2.rt,kPress2.started,kPress2.stopped,testWord,testType,testN,testOrder,polyback_5.started,polyback_5.stopped,testWords.started,testWords.stopped,textScale.started,textScale.stopped,keyConf.keys,keyConf.rt,keyConf.started,keyConf.stopped,polyback_6.started,polyback_6.stopped,studyWords_2.started,studyWords_2.stopped,polyback_7.started,polyback_7.stopped,testWords_2.started,testWords_2.stopped,textScale_2.started,textScale_2.stopped,keyRKN.keys,keyRKN.rt,keyRKN.started,keyRKN.stopped,participant,session,date,expName,psychopyVersion,frameRate,
,,,,,,,,9.28042078751605,None,space,759.5268585557351,9.28042078751605,None,,,,,,,,,,,,,,,,,,,,,,,,,,,,,,,,,,,,,,,,,,,,,,,,,,,,,,,,,,base10,001,2019_Oct_29_1758,ProdFawcett_Revision2019,3.2.4,59.960280095433795,
,,,,,,,,,,,,,,768.8318741058465,None,space,17.390113205183297,768.8318741058465,None,,,,,,,,,,,,,,,,,,,,,,,,,,,,,,,,,,,,,,,,,,,,,,,,,,,,base10,001,2019_Oct_29_1758,ProdFawcett_Revision2019,3.2.4,59.960280095433795,
0,0,0,0,,,,,,,,,,,,,,,,,791.0387423026841,None,materials/speakPic.jpg,foundation,B_aloud1,0,132,787.3943422280718,None,787.3943422280718,None,788.2891945014708,None,788.5545366051374,None,788.5545366051374,None,,,,,,,,,,,,,,,,,,,,,,,,,,,,,,,,,,,base10,001,2019_Oct_29_1758,ProdFawcett_Revision2019,3.2.4,59.960280095433795,
1,0,1,0,,,,,,,,,,,,,,,,,795.3067490825197,None,materials/speakPic.jpg,crime,B_aloud1,1,78,791.6107946134871,None,791.6107946134871,None,792.5561018846929,None,792.8225278347963,None,792.8225278347963,None,,,,,,,,,,,,,,,,,,,,,,,,,,,,,,,,,,,base10,001,2019_Oct_29_1758,ProdFawcett_Revision2019,3.2.4,59.960280095433795,
2,0,2,0,,,,,,,,,,,,,,,,,799.5747154320125,None,materials/speakPic.jpg,republic,B_aloud1,2,260,795.889899856993,None,795.889899856993,None,796.8240648130886,None,797.0905140885152,None,797.0905140885152,None,,,,,,,,,,,,,,,,,,,,,,,,,,,,,,,,,,,base10,001,2019_Oct_29_1758,ProdFawcett_Revision2019,3.2.4,59.960280095433795,
3,0,3,0,,,,,,,,,,,,,,,,,803.84268364741,None,materials/readPic.jpg,dance,A_silent,3,84,800.2000447844621,None,800.2000447844621,None,801.092037382652,None,801.3585046961671,None,801.3585046961671,None,,,,,,,,,,,,,,,,,,,,,,,,,,,,,,,,,,,base10,001,2019_Oct_29_1758,ProdFawcett_Revision2019,3.2.4,59.960280095433795,
4,0,4,0,,,,,,,,,,,,,,,,,808.1106381787686,None,materials/readPic.jpg,speech,A_silent,4,298,804.4260925545823,None,804.4260925545823,None,805.3600202152738,None,805.6264837967465,None,805.6264837967465,None,,,,,,,,,,,,,,,,,,,,,,,,,,,,,,,,,,,base10,001,2019_Oct_29_1758,ProdFawcett_Revision2019,3.2.4,59.960280095433795,
5,0,5,0,,,,,,,,,,,,,,,,,812.3786434036447,None,materials/mumblePic.jpg,material,C_aloud2,5,182,808.6854366486659,None,808.6854366486659,None,809.63007090881,None,809.8944784475025,None,809.8944784475025,None,,,,,,,,,,,,,,,,,,,,,,,,,,,,,,,,,,,base10,001,2019_Oct_29_1758,ProdFawcett_Revision2019,3.2.4,59.960280095433795,
6,0,6,0,,,,,,,,,,,,,,,,,816.6466371213319,None,materials/mumblePic.jpg,master,C_aloud2,6,180,812.930498538306,None,812.930498538306,None,813.89600796171,None,814.1624712322373,None,814.1624712322373,None,,,,,,,,,,,,,,,,,,,,,,,,,,,,,,,,,,,base10,001,2019_Oct_29_1758,ProdFawcett_Revision2019,3.2.4,59.960280095433795,
7,0,7,0,,,,,,,,,,,,,,,,,820.9146308391355,None,materials/mumblePic.jpg,citizen,C_aloud2,7,50,817.1966753747547,None,817.1966753747547,None,818.1639444548637,None,818.4335759158712,None,818.4335759158712,None,,,,,,,,,,,,,,,,,,,,,,,,,,,,,,,,,,,base10,001,2019_Oct_29_1758,ProdFawcett_Revision2019,3.2.4,59.960280095433795,
8,0,8,0,,,,,,,,,,,,,,,,,825.1826233128086,None,materials/speakPic.jpg,background,B_aloud1,8,16,821.500287989038,None,821.500287989038,None,822.4319409716409,None,822.6984319214243,None,822.6984319214243,None,,,,,,,,,,,,,,,,,,,,,,,,,,,,,,,,,,,base10,001,2019_Oct_29_1758,ProdFawcett_Revision2019,3.2.4,59.960280095433795,
9,0,9,0,,,,,,,,,,,,,,,,,829.4506117434939,None,materials/mumblePic.jpg,permit,C_aloud2,9,218,825.7394137588562,None,825.7394137588562,None,826.6999132301426,None,826.9664203521097,None,826.9664203521097,None,,,,,,,,,,,,,,,,,,,,,,,,,,,,,,,,,,,base10,001,2019_Oct_29_1758,ProdFawcett_Revision2019,3.2.4,59.960280095433795,
10,0,10,0,,,,,,,,,,,,,,,,,833.71867419302,None,materials/speakPic.jpg,drink,B_aloud1,10,105,830.0510906885611,None,830.0510906885611,None,830.9680441003293,None,831.2344078497263,None,831.2344078497263,None,,,,,,,,,,,,,,,,,,,,,,,,,,,,,,,,,,,base10,001,2019_Oct_29_1758,ProdFawcett_Revision2019,3.2.4,59.960280095433795,
11,0,11,0,,,,,,,,,,,,,,,,,837.9867543695727,None,materials/readPic.jpg,minor,A_silent,11,191,834.3222249175888,None,834.3222249175888,None,835.2359917894937,None,835.5024283137172,None,835.5024283137172,None,,,,,,,,,,,,,,,,,,,,,,,,,,,,,,,,,,,base10,001,2019_Oct_29_1758,ProdFawcett_Revision2019,3.2.4,59.960280095433795,
12,0,12,0,,,,,,,,,,,,,,,,,842.2545904086437,None,materials/readPic.jpg,command,A_silent,12,60,838.5698050009087,None,838.5698050009087,None,839.5039086894831,None,839.770429806551,None,839.770429806551,None,,,,,,,,,,,,,,,,,,,,,,,,,,,,,,,,,,,base10,001,2019_Oct_29_1758,ProdFawcett_Revision2019,3.2.4,59.960280095433795,
13,0,13,0,,,,,,,,,,,,,,,,,846.5225741743343,None,materials/speakPic.jpg,empty,B_aloud1,13,112,842.8893133047968,None,842.8893133047968,None,843.7718884120695,None,844.0383784287842,None,844.0383784287842,None,,,,,,,,,,,,,,,,,,,,,,,,,,,,,,,,,,,base10,001,2019_Oct_29_1758,ProdFawcett_Revision2019,3.2.4,59.960280095433795,
14,0,14,0,,,,,,,,,,,,,,,,,850.7904145674547,None,materials/speakPic.jpg,crisis,B_aloud1,14,79,847.1057361448184,None,847.1057361448184,None,848.0399014119757,None,848.3064247061266,None,848.3064247061266,None,,,,,,,,,,,,,,,,,,,,,,,,,,,,,,,,,,,base10,001,2019_Oct_29_1758,ProdFawcett_Revision2019,3.2.4,59.960280095433795,
15,0,15,0,,,,,,,,,,,,,,,,,855.0585581887281,None,materials/readPic.jpg,trend,A_silent,15,340,851.3915954469703,None,851.3915954469703,None,852.3080276171677,None,852.5743562232237,None,852.5743562232237,None,,,,,,,,,,,,,,,,,,,,,,,,,,,,,,,,,,,base10,001,2019_Oct_29_1758,ProdFawcett_Revision2019,3.2.4,59.960280095433795,
16,0,16,0,,,,,,,,,,,,,,,,,859.3265674565919,None,materials/mumblePic.jpg,threat,C_aloud2,16,329,855.6163792996667,None,855.6163792996667,None,856.575861168094,None,856.8423583380645,None,856.8423583380645,None,,,,,,,,,,,,,,,,,,,,,,,,,,,,,,,,,,,base10,001,2019_Oct_29_1758,ProdFawcett_Revision2019,3.2.4,59.960280095433795,
17,0,17,0,,,,,,,,,,,,,,,,,863.5945487342542,None,materials/mumblePic.jpg,produce,C_aloud2,17,239,859.8794165578438,None,859.8794165578438,None,860.8438626609277,None,861.1009410959668,None,861.1009410959668,None,,,,,,,,,,,,,,,,,,,,,,,,,,,,,,,,,,,base10,001,2019_Oct_29_1758,ProdFawcett_Revision2019,3.2.4,59.960280095433795,
18,0,18,0,,,,,,,,,,,,,,,,,867.8625247247983,None,materials/speakPic.jpg,short,B_aloud1,18,285,864.1951710517751,None,864.1951710517751,None,865.1129613734083,None,865.3783208932728,None,865.3783208932728,None,,,,,,,,,,,,,,,,,,,,,,,,,,,,,,,,,,,base10,001,2019_Oct_29_1758,ProdFawcett_Revision2019,3.2.4,59.960280095433795,
19,0,19,0,,,,,,,,,,,,,,,,,872.1305075574201,None,materials/readPic.jpg,sound,A_silent,19,295,868.4636667289305,None,868.4636667289305,None,869.3798444983549,None,869.646312433877,None,869.646312433877,None,,,,,,,,,,,,,,,,,,,,,,,,,,,,,,,,,,,base10,001,2019_Oct_29_1758,ProdFawcett_Revision2019,3.2.4,59.960280095433795,
20,0,20,0,,,,,,,,,,,,,,,,,876.3985124712344,None,materials/mumblePic.jpg,silence,C_aloud2,20,288,872.6881831187056,None,872.6881831187056,None,873.6479588854127,None,873.9142924675252,None,873.9142924675252,None,,,,,,,,,,,,,,,,,,,,,,,,,,,,,,,,,,,base10,001,2019_Oct_29_1758,ProdFawcett_Revision2019,3.2.4,59.960280095433795,
21,0,21,0,,,,,,,,,,,,,,,,,880.6665089880116,None,materials/speakPic.jpg,couch,B_aloud1,21,70,876.9989718231373,None,876.9989718231373,None,877.9158673882484,None,878.1822905392619,None,878.1822905392619,None,,,,,,,,,,,,,,,,,,,,,,,,,,,,,,,,,,,base10,001,2019_Oct_29_1758,ProdFawcett_Revision2019,3.2.4,59.960280095433795,
22,0,22,0,,,,,,,,,,,,,,,,,884.9344887105981,None,materials/readPic.jpg,atmosphere,A_silent,22,12,881.2691823723726,None,881.2691823723726,None,882.1838592399145,None,882.450269328896,None,882.450269328896,None,,,,,,,,,,,,,,,,,,,,,,,,,,,,,,,,,,,base10,001,2019_Oct_29_1758,ProdFawcett_Revision2019,3.2.4,59.960280095433795,
23,0,23,0,,,,,,,,,,,,,,,,,889.2024640791351,None,materials/readPic.jpg,damage,A_silent,23,83,885.517632331932,None,885.517632331932,None,886.4518128382042,None,886.7182664676802,None,886.7182664676802,None,,,,,,,,,,,,,,,,,,,,,,,,,,,,,,,,,,,base10,001,2019_Oct_29_1758,ProdFawcett_Revision2019,3.2.4,59.960280095433795,
24,0,24,0,,,,,,,,,,,,,,,,,893.470464016893,None,materials/speakPic.jpg,review,B_aloud1,24,263,889.8371835541911,None,889.8371835541911,None,890.7198230391368,None,890.9862654724857,None,890.9862654724857,None,,,,,,,,,,,,,,,,,,,,,,,,,,,,,,,,,,,base10,001,2019_Oct_29_1758,ProdFawcett_Revision2019,3.2.4,59.960280095433795,
25,0,25,0,,,,,,,,,,,,,,,,,897.7384403184988,None,materials/readPic.jpg,charter,A_silent,25,47,894.078135224292,None,894.078135224292,None,894.9880577843869,None,895.2542408410227,None,895.2542408410227,None,,,,,,,,,,,,,,,,,,,,,,,,,,,,,,,,,,,base10,001,2019_Oct_29_1758,ProdFawcett_Revision2019,3.2.4,59.960280095433795,
26,0,26,0,,,,,,,,,,,,,,,,,902.0064449213678,None,materials/readPic.jpg,alert,A_silent,26,6,898.3215954469051,None,898.3215954469051,None,899.2557868383592,None,899.5222317596199,None,899.5222317596199,None,,,,,,,,,,,,,,,,,,,,,,,,,,,,,,,,,,,base10,001,2019_Oct_29_1758,ProdFawcett_Revision2019,3.2.4,59.960280095433795,
27,0,27,0,,,,,,,,,,,,,,,,,906.2744395721238,None,materials/readPic.jpg,defeat,A_silent,27,88,902.5779075698229,None,902.5779075698229,None,903.5237926852424,None,903.7902223673882,None,903.7902223673882,None,,,,,,,,,,,,,,,,,,,,,,,,,,,,,,,,,,,base10,001,2019_Oct_29_1758,ProdFawcett_Revision2019,3.2.4,59.960280095433795,
28,0,28,0,,,,,,,,,,,,,,,,,910.5424090315355,None,materials/mumblePic.jpg,month,C_aloud2,28,193,906.8615593705326,None,906.8615593705326,None,907.7917851589154,None,908.0581943148281,None,908.0581943148281,None,,,,,,,,,,,,,,,,,,,,,,,,,,,,,,,,,,,base10,001,2019_Oct_29_1758,ProdFawcett_Revision2019,3.2.4,59.960280095433795,
29,0,29,0,,,,,,,,,,,,,,,,,914.8104099023622,None,materials/mumblePic.jpg,collection,C_aloud2,29,54,911.0922491758829,None,911.0922491758829,None,912.0597990918905,None,912.3262060708366,None,912.3262060708366,None,,,,,,,,,,,,,,,,,,,,,,,,,,,,,,,,,,,base10,001,2019_Oct_29_1758,ProdFawcett_Revision2019,3.2.4,59.960280095433795,
30,0,30,0,,,,,,,,,,,,,,,,,919.0783973999787,None,materials/readPic.jpg,measure,A_silent,30,184,915.3988744791131,None,915.3988744791131,None,916.3278671393637,None,916.5941780182766,None,916.5941780182766,None,,,,,,,,,,,,,,,,,,,,,,,,,,,,,,,,,,,base10,001,2019_Oct_29_1758,ProdFawcett_Revision2019,3.2.4,59.960280095433795,
31,0,31,0,,,,,,,,,,,,,,,,,923.3464107109467,None,materials/readPic.jpg,running,A_silent,31,268,919.651699322043,None,919.651699322043,None,920.5953884430928,None,920.8621658269549,None,920.8621658269549,None,,,,,,,,,,,,,,,,,,,,,,,,,,,,,,,,,,,base10,001,2019_Oct_29_1758,ProdFawcett_Revision2019,3.2.4,59.960280095433795,
32,0,32,0,,,,,,,,,,,,,,,,,927.6143714623759,None,materials/speakPic.jpg,watch,B_aloud1,32,351,923.9478192449315,None,923.9478192449315,None,924.863758785883,None,925.1301651428221,None,925.1301651428221,None,,,,,,,,,,,,,,,,,,,,,,,,,,,,,,,,,,,base10,001,2019_Oct_29_1758,ProdFawcett_Revision2019,3.2.4,59.960280095433795,
33,0,33,0,,,,,,,,,,,,,,,,,931.8823602040065,None,materials/mumblePic.jpg,listen,C_aloud2,33,172,928.1825608011568,None,928.1825608011568,None,929.1317142501939,None,929.3981445543468,None,929.3981445543468,None,,,,,,,,,,,,,,,,,,,,,,,,,,,,,,,,,,,base10,001,2019_Oct_29_1758,ProdFawcett_Revision2019,3.2.4,59.960280095433795,
34,0,34,0,,,,,,,,,,,,,,,,,936.1503396156477,None,materials/speakPic.jpg,style,B_aloud1,34,311,932.4662032717606,None,932.4662032717606,None,933.3997415562626,None,933.6661528892582,None,933.6661528892582,None,,,,,,,,,,,,,,,,,,,,,,,,,,,,,,,,,,,base10,001,2019_Oct_29_1758,ProdFawcett_Revision2019,3.2.4,59.960280095433795,
35,0,35,0,,,,,,,,,,,,,,,,,940.4183389313985,None,materials/speakPic.jpg,recall,B_aloud1,35,255,936.7335065621883,None,936.7335065621883,None,937.667807737831,None,937.934339429019,None,937.934339429019,None,,,,,,,,,,,,,,,,,,,,,,,,,,,,,,,,,,,base10,001,2019_Oct_29_1758,ProdFawcett_Revision2019,3.2.4,59.960280095433795,
36,0,36,0,,,,,,,,,,,,,,,,,944.6863077689195,None,materials/speakPic.jpg,account,B_aloud1,36,1,940.9915273372317,None,940.9915273372317,None,941.9357249486493,None,942.2021381476661,None,942.2021381476661,None,,,,,,,,,,,,,,,,,,,,,,,,,,,,,,,,,,,base10,001,2019_Oct_29_1758,ProdFawcett_Revision2019,3.2.4,59.960280095433795,
37,0,37,0,,,,,,,,,,,,,,,,,948.9542856254848,None,materials/readPic.jpg,hearing,A_silent,37,150,945.2874242707621,None,945.2874242707621,None,946.2037873981753,None,946.4700895689894,None,946.4700895689894,None,,,,,,,,,,,,,,,,,,,,,,,,,,,,,,,,,,,base10,001,2019_Oct_29_1758,ProdFawcett_Revision2019,3.2.4,59.960280095433795,
38,0,38,0,,,,,,,,,,,,,,,,,953.222270013066,None,materials/speakPic.jpg,literature,B_aloud1,38,173,949.5557103315368,None,949.5557103315368,None,950.4717108291807,None,950.7381013248814,None,950.7381013248814,None,,,,,,,,,,,,,,,,,,,,,,,,,,,,,,,,,,,base10,001,2019_Oct_29_1758,ProdFawcett_Revision2019,3.2.4,59.960280095433795,
39,0,39,0,,,,,,,,,,,,,,,,,957.4902876780834,None,materials/readPic.jpg,dozen,A_silent,39,102,953.8270041053183,None,953.8270041053183,None,954.739727872191,None,955.0060829134891,None,955.0060829134891,None,,,,,,,,,,,,,,,,,,,,,,,,,,,,,,,,,,,base10,001,2019_Oct_29_1758,ProdFawcett_Revision2019,3.2.4,59.960280095433795,
40,0,40,0,,,,,,,,,,,,,,,,,961.758265845594,None,materials/readPic.jpg,accident,A_silent,40,0,958.0734490265604,None,958.0734490265604,None,959.0077909436077,None,959.2741929464974,None,959.2741929464974,None,,,,,,,,,,,,,,,,,,,,,,,,,,,,,,,,,,,base10,001,2019_Oct_29_1758,ProdFawcett_Revision2019,3.2.4,59.960280095433795,
41,0,41,0,,,,,,,,,,,,,,,,,966.0262751135742,None,materials/mumblePic.jpg,orchestra,C_aloud2,41,206,962.3160375070293,None,962.3160375070293,None,963.2757028674241,None,963.5420684829587,None,963.5420684829587,None,,,,,,,,,,,,,,,,,,,,,,,,,,,,,,,,,,,base10,001,2019_Oct_29_1758,ProdFawcett_Revision2019,3.2.4,59.960280095433795,
42,0,42,0,,,,,,,,,,,,,,,,,970.2942492380971,None,materials/readPic.jpg,strain,A_silent,42,308,966.6268112831749,None,966.6268112831749,None,967.5436956521589,None,967.8100407414604,None,967.8100407414604,None,,,,,,,,,,,,,,,,,,,,,,,,,,,,,,,,,,,base10,001,2019_Oct_29_1758,ProdFawcett_Revision2019,3.2.4,59.960280095433795,
43,0,43,0,,,,,,,,,,,,,,,,,974.5622361137066,None,materials/speakPic.jpg,quiet,B_aloud1,43,249,970.8955060023582,None,970.8955060023582,None,971.8116912359837,None,972.0780988368206,None,972.0780988368206,None,,,,,,,,,,,,,,,,,,,,,,,,,,,,,,,,,,,base10,001,2019_Oct_29_1758,ProdFawcett_Revision2019,3.2.4,59.960280095433795,
44,0,44,0,,,,,,,,,,,,,,,,,978.8302142813336,None,materials/mumblePic.jpg,signal,C_aloud2,44,287,975.1196868197294,None,975.1196868197294,None,976.0792902904795,None,976.3460272438824,None,976.3460272438824,None,,,,,,,,,,,,,,,,,,,,,,,,,,,,,,,,,,,base10,001,2019_Oct_29_1758,ProdFawcett_Revision2019,3.2.4,59.960280095433795,
45,0,45,0,,,,,,,,,,,,,,,,,983.0982219941216,None,materials/readPic.jpg,meeting,A_silent,45,187,979.4222659700317,None,979.4222659700317,None,980.3477390060434,None,980.5979974498041,None,980.5979974498041,None,,,,,,,,,,,,,,,,,,,,,,,,,,,,,,,,,,,base10,001,2019_Oct_29_1758,ProdFawcett_Revision2019,3.2.4,59.960280095433795,
46,0,46,0,,,,,,,,,,,,,,,,,987.3661939416779,None,materials/mumblePic.jpg,century,C_aloud2,46,45,983.6696174659301,None,983.6696174659301,None,984.6156559059164,None,984.8819845120888,None,984.8819845120888,None,,,,,,,,,,,,,,,,,,,,,,,,,,,,,,,,,,,base10,001,2019_Oct_29_1758,ProdFawcett_Revision2019,3.2.4,59.960280095433795,
47,0,47,0,,,,,,,,,,,,,,,,,991.6341910804622,None,materials/speakPic.jpg,escape,B_aloud1,47,118,987.9563914287137,None,987.9563914287137,None,988.8832583815092,None,989.1499760528095,None,989.1499760528095,None,,,,,,,,,,,,,,,,,,,,,,,,,,,,,,,,,,,base10,001,2019_Oct_29_1758,ProdFawcett_Revision2019,3.2.4,59.960280095433795,
48,0,48,0,,,,,,,,,,,,,,,,,995.9021891521988,None,materials/speakPic.jpg,worker,B_aloud1,48,356,992.2243350750068,None,992.2243350750068,None,993.1516259252094,None,993.4179707035655,None,993.4179707035655,None,,,,,,,,,,,,,,,,,,,,,,,,,,,,,,,,,,,base10,001,2019_Oct_29_1758,ProdFawcett_Revision2019,3.2.4,59.960280095433795,
49,0,49,0,,,,,,,,,,,,,,,,,1000.1701561236987,None,materials/mumblePic.jpg,community,C_aloud2,49,63,996.458099147887,None,996.458099147887,None,997.4192262238357,None,997.6859519811114,None,997.6859519811114,None,,,,,,,,,,,,,,,,,,,,,,,,,,,,,,,,,,,base10,001,2019_Oct_29_1758,ProdFawcett_Revision2019,3.2.4,59.960280095433795,
50,0,50,0,,,,,,,,,,,,,,,,,1004.4381520184688,None,materials/mumblePic.jpg,expansion,C_aloud2,50,123,1000.7367811158765,None,1000.7367811158765,None,1001.6872697020881,None,1001.9539534739451,None,1001.9539534739451,None,,,,,,,,,,,,,,,,,,,,,,,,,,,,,,,,,,,base10,001,2019_Oct_29_1758,ProdFawcett_Revision2019,3.2.4,59.960280095433795,
51,0,51,0,,,,,,,,,,,,,,,,,1008.7062670274172,None,materials/mumblePic.jpg,rapid,C_aloud2,51,252,1004.9880957268178,None,1004.9880957268178,None,1005.9555915283272,None,1006.2219328854699,None,1006.2219328854699,None,,,,,,,,,,,,,,,,,,,,,,,,,,,,,,,,,,,base10,001,2019_Oct_29_1758,ProdFawcett_Revision2019,3.2.4,59.960280095433795,
52,0,52,0,,,,,,,,,,,,,,,,,1012.9741319898749,None,materials/readPic.jpg,graduate,A_silent,52,141,1009.2943907445297,None,1009.2943907445297,None,1010.2232008459978,None,1010.4899225601694,None,1010.4899225601694,None,,,,,,,,,,,,,,,,,,,,,,,,,,,,,,,,,,,base10,001,2019_Oct_29_1758,ProdFawcett_Revision2019,3.2.4,59.960280095433795,
53,0,53,0,,,,,,,,,,,,,,,,,1017.2421201094985,None,materials/readPic.jpg,crowd,A_silent,53,81,1013.5476733843097,None,1013.5476733843097,None,1014.4916091311025,None,1014.7578593643848,None,1014.7578593643848,None,,,,,,,,,,,,,,,,,,,,,,,,,,,,,,,,,,,base10,001,2019_Oct_29_1758,ProdFawcett_Revision2019,3.2.4,59.960280095433795,
54,0,54,0,,,,,,,,,,,,,,,,,1021.5100967220496,None,materials/mumblePic.jpg,generation,C_aloud2,54,136,1017.8102799030021,None,1017.8102799030021,None,1018.7596190209733,None,1019.0259068856249,None,1019.0259068856249,None,,,,,,,,,,,,,,,,,,,,,,,,,,,,,,,,,,,base10,001,2019_Oct_29_1758,ProdFawcett_Revision2019,3.2.4,59.960280095433795,
55,0,55,0,,,,,,,,,,,,,,,,,1025.7780891957227,None,materials/mumblePic.jpg,income,C_aloud2,55,159,1022.0599374884041,None,1022.0599374884041,None,1023.0272190085379,None,1023.2938794551883,None,1023.2938794551883,None,,,,,,,,,,,,,,,,,,,,,,,,,,,,,,,,,,,base10,001,2019_Oct_29_1758,ProdFawcett_Revision2019,3.2.4,59.960280095433795,
56,0,56,0,,,,,,,,,,,,,,,,,1030.0460801144363,None,materials/readPic.jpg,science,A_silent,56,275,1026.3651719848858,None,1026.3651719848858,None,1027.2951542576775,None,1027.5618666418595,None,1027.5618666418595,None,,,,,,,,,,,,,,,,,,,,,,,,,,,,,,,,,,,base10,001,2019_Oct_29_1758,ProdFawcett_Revision2019,3.2.4,59.960280095433795,
57,0,57,0,,,,,,,,,,,,,,,,,1034.3140906264307,None,materials/mumblePic.jpg,owner,C_aloud2,57,208,1030.6173583379714,None,1030.6173583379714,None,1031.5631569945253,None,1031.8298544504214,None,1031.8298544504214,None,,,,,,,,,,,,,,,,,,,,,,,,,,,,,,,,,,,base10,001,2019_Oct_29_1758,ProdFawcett_Revision2019,3.2.4,59.960280095433795,
58,0,58,0,,,,,,,,,,,,,,,,,1038.5820538657717,None,materials/speakPic.jpg,rough,B_aloud1,58,266,1034.9031899608672,None,1034.9031899608672,None,1035.8311168128857,None,1036.097838216112,None,1036.097838216112,None,,,,,,,,,,,,,,,,,,,,,,,,,,,,,,,,,,,base10,001,2019_Oct_29_1758,ProdFawcett_Revision2019,3.2.4,59.960280095433795,
59,0,59,0,,,,,,,,,,,,,,,,,1042.85004447354,None,materials/readPic.jpg,cousin,A_silent,59,76,1039.1831725446973,None,1039.1831725446973,None,1040.0991251477972,None,1040.365830689785,None,1040.365830689785,None,,,,,,,,,,,,,,,,,,,,,,,,,,,,,,,,,,,base10,001,2019_Oct_29_1758,ProdFawcett_Revision2019,3.2.4,59.960280095433795,
60,0,60,0,,,,,,,,,,,,,,,,,1047.1180294831283,None,materials/mumblePic.jpg,substance,C_aloud2,60,313,1043.4082957019564,None,1043.4082957019564,None,1044.3671897741733,None,1044.6338216084987,None,1044.6338216084987,None,,,,,,,,,,,,,,,,,,,,,,,,,,,,,,,,,,,base10,001,2019_Oct_29_1758,ProdFawcett_Revision2019,3.2.4,59.960280095433795,
61,0,61,0,,,,,,,,,,,,,,,,,1051.386030975962,None,materials/speakPic.jpg,contract,B_aloud1,61,68,1047.718571872916,None,1047.718571872916,None,1048.6351026310585,None,1048.9018252784153,None,1048.9018252784153,None,,,,,,,,,,,,,,,,,,,,,,,,,,,,,,,,,,,base10,001,2019_Oct_29_1758,ProdFawcett_Revision2019,3.2.4,59.960280095433795,
62,0,62,0,,,,,,,,,,,,,,,,,1055.6540203395998,None,materials/speakPic.jpg,guest,B_aloud1,62,146,1051.9576680973405,None,1051.9576680973405,None,1052.9031047458993,None,1053.1697994029382,None,1053.1697994029382,None,,,,,,,,,,,,,,,,,,,,,,,,,,,,,,,,,,,base10,001,2019_Oct_29_1758,ProdFawcett_Revision2019,3.2.4,59.960280095433795,
63,0,63,0,,,,,,,,,,,,,,,,,1059.9219957081368,None,materials/readPic.jpg,attack,A_silent,63,13,1056.2450649996754,None,1056.2450649996754,None,1057.1710832244717,None,1057.437791565666,None,1057.437791565666,None,,,,,,,,,,,,,,,,,,,,,,,,,,,,,,,,,,,base10,001,2019_Oct_29_1758,ProdFawcett_Revision2019,3.2.4,59.960280095433795,
64,0,64,0,,,,,,,,,,,,,,,,,1064.1899972009705,None,materials/mumblePic.jpg,union,C_aloud2,64,344,1060.4945400261786,None,1060.4945400261786,None,1061.4390688561834,None,1061.7057849722914,None,1061.7057849722914,None,,,,,,,,,,,,,,,,,,,,,,,,,,,,,,,,,,,base10,001,2019_Oct_29_1758,ProdFawcett_Revision2019,3.2.4,59.960280095433795,
65,0,65,0,,,,,,,,,,,,,,,,,1068.4579772346187,None,materials/mumblePic.jpg,reach,C_aloud2,65,253,1064.7399620575598,None,1064.7399620575598,None,1065.7071732910117,None,1065.973868881003,None,1065.973868881003,None,,,,,,,,,,,,,,,,,,,,,,,,,,,,,,,,,,,base10,001,2019_Oct_29_1758,ProdFawcett_Revision2019,3.2.4,59.960280095433795,
66,0,66,0,,,,,,,,,,,,,,,,,1072.72597499541,None,materials/readPic.jpg,smell,A_silent,66,291,1069.058532375493,None,1069.058532375493,None,1069.975216147257,None,1070.2417584126815,None,1070.2417584126815,None,,,,,,,,,,,,,,,,,,,,,,,,,,,,,,,,,,,base10,001,2019_Oct_29_1758,ProdFawcett_Revision2019,3.2.4,59.960280095433795,
67,0,67,0,,,,,,,,,,,,,,,,,1076.9939450768288,None,materials/speakPic.jpg,search,B_aloud1,67,276,1073.3108263358008,None,1073.3108263358008,None,1074.243062760448,None,1074.5097362692468,None,1074.5097362692468,None,,,,,,,,,,,,,,,,,,,,,,,,,,,,,,,,,,,base10,001,2019_Oct_29_1758,ProdFawcett_Revision2019,3.2.4,59.960280095433795,
68,0,68,0,,,,,,,,,,,,,,,,,1081.2619506126503,None,materials/speakPic.jpg,piece,B_aloud1,68,221,1077.5770750140073,None,1077.5770750140073,None,1078.511036262964,None,1078.7777268768987,None,1078.7777268768987,None,,,,,,,,,,,,,,,,,,,,,,,,,,,,,,,,,,,base10,001,2019_Oct_29_1758,ProdFawcett_Revision2019,3.2.4,59.960280095433795,
69,0,69,0,,,,,,,,,,,,,,,,,1085.5299213161925,None,materials/mumblePic.jpg,smooth,C_aloud2,69,292,1081.8296529203653,None,1081.8296529203653,None,1082.7790402438259,None,1083.045705355471,None,1083.045705355471,None,,,,,,,,,,,,,,,,,,,,,,,,,,,,,,,,,,,base10,001,2019_Oct_29_1758,ProdFawcett_Revision2019,3.2.4,59.960280095433795,
70,0,70,0,,,,,,,,,,,,,,,,,1089.7979190769838,None,materials/mumblePic.jpg,pancakes,C_aloud2,70,210,1086.0798550724285,None,1086.0798550724285,None,1087.0470417366596,None,1087.3137003172887,None,1087.3137003172887,None,,,,,,,,,,,,,,,,,,,,,,,,,,,,,,,,,,,base10,001,2019_Oct_29_1758,ProdFawcett_Revision2019,3.2.4,59.960280095433795,
71,0,71,0,,,,,,,,,,,,,,,,,1094.0659193258034,None,materials/readPic.jpg,split,A_silent,71,299,1090.389201654587,None,1090.389201654587,None,1091.3150338993873,None,1091.5816784847993,None,1091.5816784847993,None,,,,,,,,,,,,,,,,,,,,,,,,,,,,,,,,,,,base10,001,2019_Oct_29_1758,ProdFawcett_Revision2019,3.2.4,59.960280095433795,
72,0,72,0,,,,,,,,,,,,,,,,,1098.333898115321,None,materials/speakPic.jpg,capital,B_aloud1,72,40,1094.6671303726034,None,1094.6671303726034,None,1095.5835121602286,None,1095.8496690925676,None,1095.8496690925676,None,,,,,,,,,,,,,,,,,,,,,,,,,,,,,,,,,,,base10,001,2019_Oct_29_1758,ProdFawcett_Revision2019,3.2.4,59.960280095433795,
73,0,73,0,,,,,,,,,,,,,,,,,1102.6018881010823,None,materials/readPic.jpg,afternoon,A_silent,73,3,1098.9349853828317,None,1098.9349853828317,None,1099.8510185357882,None,1100.117654724163,None,1100.117654724163,None,,,,,,,,,,,,,,,,,,,,,,,,,,,,,,,,,,,base10,001,2019_Oct_29_1758,ProdFawcett_Revision2019,3.2.4,59.960280095433795,
74,0,74,0,,,,,,,,,,,,,,,,,1106.869878086727,None,materials/readPic.jpg,sunset,A_silent,74,315,1103.1766794178402,None,1103.1766794178402,None,1104.118981464184,None,1104.3856515518855,None,1104.3856515518855,None,,,,,,,,,,,,,,,,,,,,,,,,,,,,,,,,,,,base10,001,2019_Oct_29_1758,ProdFawcett_Revision2019,3.2.4,59.960280095433795,
75,0,75,0,,,,,,,,,,,,,,,,,1111.1378537663259,None,materials/mumblePic.jpg,evidence,C_aloud2,75,120,1107.4545605523745,None,1107.4545605523745,None,1108.3869726939593,None,1108.6536266094772,None,1108.6536266094772,None,,,,,,,,,,,,,,,,,,,,,,,,,,,,,,,,,,,base10,001,2019_Oct_29_1758,ProdFawcett_Revision2019,3.2.4,59.960280095433795,
76,0,76,0,,,,,,,,,,,,,,,,,1115.4058437519707,None,materials/readPic.jpg,waste,A_silent,76,350,1111.7401719848858,None,1111.7401719848858,None,1112.6549695216818,None,1112.9216085090302,None,1112.9216085090302,None,,,,,,,,,,,,,,,,,,,,,,,,,,,,,,,,,,,base10,001,2019_Oct_29_1758,ProdFawcett_Revision2019,3.2.4,59.960280095433795,
77,0,77,0,,,,,,,,,,,,,,,,,1119.6738303166348,None,materials/speakPic.jpg,religion,B_aloud1,77,258,1115.9907812402816,None,1115.9907812402816,None,1116.9229455122259,None,1117.1896162219346,None,1117.1896162219346,None,,,,,,,,,,,,,,,,,,,,,,,,,,,,,,,,,,,base10,001,2019_Oct_29_1758,ProdFawcett_Revision2019,3.2.4,59.960280095433795,
78,0,78,0,,,,,,,,,,,,,,,,,1123.941815637285,None,materials/speakPic.jpg,clear,B_aloud1,78,52,1120.2422669030493,None,1120.2422669030493,None,1121.1908972444944,None,1121.4575940784998,None,1121.4575940784998,None,,,,,,,,,,,,,,,,,,,,,,,,,,,,,,,,,,,base10,001,2019_Oct_29_1758,ProdFawcett_Revision2019,3.2.4,59.960280095433795,
79,0,79,0,,,,,,,,,,,,,,,,,1128.2098165081115,None,materials/readPic.jpg,quick,A_silent,79,248,1124.5467724078335,None,1124.5467724078335,None,1125.4589568949305,None,1125.725589351263,None,1125.725589351263,None,,,,,,,,,,,,,,,,,,,,,,,,,,,,,,,,,,,base10,001,2019_Oct_29_1758,ProdFawcett_Revision2019,3.2.4,59.960280095433795,
80,0,80,0,,,,,,,,,,,,,,,,,1132.4777987187263,None,materials/mumblePic.jpg,article,C_aloud2,80,11,1128.7778749144636,None,1128.7778749144636,None,1129.726920134388,None,1129.9935522796586,None,1129.9935522796586,None,,,,,,,,,,,,,,,,,,,,,,,,,,,,,,,,,,,base10,001,2019_Oct_29_1758,ProdFawcett_Revision2019,3.2.4,59.960280095433795,
81,0,81,0,,,,,,,,,,,,,,,,,1136.7457846613834,None,materials/readPic.jpg,weight,A_silent,81,353,1133.0783407974523,None,1133.0783407974523,None,1133.9949185171863,None,1134.2616016670363,None,1134.2616016670363,None,,,,,,,,,,,,,,,,,,,,,,,,,,,,,,,,,,,base10,001,2019_Oct_29_1758,ProdFawcett_Revision2019,3.2.4,59.960280095433795,
82,0,82,0,,,,,,,,,,,,,,,,,1141.013782111113,None,materials/mumblePic.jpg,interview,C_aloud2,82,165,1137.3039223735686,None,1137.3039223735686,None,1138.262945823255,None,1138.5295649063773,None,1138.5295649063773,None,,,,,,,,,,,,,,,,,,,,,,,,,,,,,,,,,,,base10,001,2019_Oct_29_1758,ProdFawcett_Revision2019,3.2.4,59.960280095433795,
83,0,83,0,,,,,,,,,,,,,,,,,1145.2817612116924,None,materials/mumblePic.jpg,weather,C_aloud2,83,352,1141.5638073023874,None,1141.5638073023874,None,1142.530853393022,None,1142.7975617342163,None,1142.7975617342163,None,,,,,,,,,,,,,,,,,,,,,,,,,,,,,,,,,,,base10,001,2019_Oct_29_1758,ProdFawcett_Revision2019,3.2.4,59.960280095433795,
84,0,84,0,,,,,,,,,,,,,,,,,1149.5497381351888,None,materials/mumblePic.jpg,session,C_aloud2,84,281,1145.8316047770204,None,1145.8316047770204,None,1146.798850220861,None,1147.065569758066,None,1147.065569758066,None,,,,,,,,,,,,,,,,,,,,,,,,,,,,,,,,,,,base10,001,2019_Oct_29_1758,ProdFawcett_Revision2019,3.2.4,59.960280095433795,
85,0,85,0,,,,,,,,,,,,,,,,,1153.8177312309854,None,materials/speakPic.jpg,story,B_aloud1,85,306,1150.133554456639,None,1150.133554456639,None,1151.066871928866,None,1151.3335242894245,None,1151.3335242894245,None,,,,,,,,,,,,,,,,,,,,,,,,,,,,,,,,,,,base10,001,2019_Oct_29_1758,ProdFawcett_Revision2019,3.2.4,59.960280095433795,
86,0,86,0,,,,,,,,,,,,,,,,,1158.0857277477626,None,materials/mumblePic.jpg,harmony,C_aloud2,86,148,1154.3881790756714,None,1154.3881790756714,None,1155.3358272687765,None,1155.6015559495427,None,1155.6015559495427,None,,,,,,,,,,,,,,,,,,,,,,,,,,,,,,,,,,,base10,001,2019_Oct_29_1758,ProdFawcett_Revision2019,3.2.4,59.960280095433795,
87,0,87,0,,,,,,,,,,,,,,,,,1162.3537056043278,None,materials/speakPic.jpg,blind,B_aloud1,87,24,1158.676008583745,None,1158.676008583745,None,1159.6028615413234,None,1159.8695198108908,None,1159.8695198108908,None,,,,,,,,,,,,,,,,,,,,,,,,,,,,,,,,,,,base10,001,2019_Oct_29_1758,ProdFawcett_Revision2019,3.2.4,59.960280095433795,
88,0,88,0,,,,,,,,,,,,,,,,,1166.6216825278243,None,materials/speakPic.jpg,solution,B_aloud1,88,294,1162.92331840517,None,1162.92331840517,None,1163.8707277476788,None,1164.1375054426026,None,1164.1375054426026,None,,,,,,,,,,,,,,,,,,,,,,,,,,,,,,,,,,,base10,001,2019_Oct_29_1758,ProdFawcett_Revision2019,3.2.4,59.960280095433795,
89,0,89,0,,,,,,,,,,,,,,,,,1170.889674690552,None,materials/speakPic.jpg,report,B_aloud1,89,259,1167.1582244822057,None,1167.1582244822057,None,1168.1388203644892,None,1168.4054932512809,None,1168.4054932512809,None,,,,,,,,,,,,,,,,,,,,,,,,,,,,,,,,,,,base10,001,2019_Oct_29_1758,ProdFawcett_Revision2019,3.2.4,59.960280095433795,
,,,,,,,,,,,,,,,,,,,,,,,,,,,,,,,,,,,,,1171.3898479194613,None,k,123.39477825467475,1171.3898479194613,None,,,,,,,,,,,,,,,,,,,,,,,,,,,,,base10,001,2019_Oct_29_1758,ProdFawcett_Revision2019,3.2.4,59.960280095433795,
,,,,,,,,,,,,,,1294.811406978988,None,space,1.405332462512888,1294.811406978988,None,,,,,,,,,,,,,,,,,,,,,,,,,,,,,,,,,,,,,,,,,,,,,,,,,,,,base10,001,2019_Oct_29_1758,ProdFawcett_Revision2019,3.2.4,59.960280095433795,
,,,,0,0,0,0,,,,,,,,,,,,,1308.0997878958005,None,,,,,,,,,,,,,,,,,,,,,,incident,D_new,0,158,1296.7649772968143,None,1296.7649772968143,None,1296.7649772968143,None,6,5.49140169180464,1296.7649772968143,None,1302.3136076382361,None,1302.3136076382361,None,1302.8339422778226,None,1302.8339422778226,None,1302.8339422778226,None,r,5.22995956952218,1302.8339422778226,None,base10,001,2019_Oct_29_1758,ProdFawcett_Revision2019,3.2.4,59.960280095433795,
,,,,1,0,1,0,,,,,,,,,,,,,1312.6833429744001,None,,,,,,,,,,,,,,,,,,,,,,sweet,D_new,1,319,1308.6156328917714,None,1308.6156328917714,None,1308.6156328917714,None,1,2.2248012688942254,1308.6156328917714,None,1310.8995459352154,None,1310.8995459352154,None,1311.416436213185,None,1311.416436213185,None,1311.416436213185,None,n,1.223802326247096,1311.416436213185,None,base10,001,2019_Oct_29_1758,ProdFawcett_Revision2019,3.2.4,59.960280095433795,
,,,,2,0,2,0,,,,,,,,,,,,,1319.6689609379973,None,,,,,,,,,,,,,,,,,,,,,,generation,C_aloud2,2,136,1313.2022578839678,None,1313.2022578839678,None,1313.2022578839678,None,6,4.229057348915376,1313.2022578839678,None,1317.4848389002727,None,1317.4848389002727,None,1318.001665422693,None,1318.001665422693,None,1318.001665422693,None,r,1.6294828015379608,1318.001665422693,None,base10,001,2019_Oct_29_1758,ProdFawcett_Revision2019,3.2.4,59.960280095433795,
,,,,3,0,3,0,,,,,,,,,,,,,1325.2372482428327,None,,,,,,,,,,,,,,,,,,,,,,foundation,B_aloud1,3,132,1320.1879262300208,None,1320.1879262300208,None,1320.1879262300208,None,6,2.9631069229217246,1320.1879262300208,None,1323.1927809915505,None,1323.1927809915505,None,1323.7202335634502,None,1323.7202335634502,None,1323.7202335634502,None,r,1.4704677489353344,1323.7202335634502,None,base10,001,2019_Oct_29_1758,ProdFawcett_Revision2019,3.2.4,59.960280095433795,
,,,,4,0,4,0,,,,,,,,,,,,,1331.12253903097,None,,,,,,,,,,,,,,,,,,,,,,community,C_aloud2,4,63,1325.754221869749,None,1325.754221869749,None,1325.754221869749,None,6,3.6767114511458203,1325.754221869749,None,1329.488610748318,None,1329.488610748318,None,1330.005440380657,None,1330.005440380657,None,1330.005440380657,None,r,1.0811314299935475,1330.005440380657,None,base10,001,2019_Oct_29_1758,ProdFawcett_Revision2019,3.2.4,59.960280095433795,
,,,,5,0,5,0,,,,,,,,,,,,,1334.3068374075228,None,,,,,,,,,,,,,,,,,,,,,,income,C_aloud2,5,159,1331.6393689743709,None,1331.6393689743709,None,1331.6393689743709,None,6,1.7273822852876037,1331.6393689743709,None,1333.4231585494708,None,1333.4231585494708,None,1333.9401141381823,None,1333.9401141381823,None,1333.9401141381823,None,r,0.33024569251574576,1333.9401141381823,None,base10,001,2019_Oct_29_1758,ProdFawcett_Revision2019,3.2.4,59.960280095433795,
,,,,6,0,6,0,,,,,,,,,,,,,1342.8094146917574,None,,,,,,,,,,,,,,,,,,,,,,front,D_new,6,134,1334.824010698474,None,1334.824010698474,None,1334.824010698474,None,1,5.678317161160521,1334.824010698474,None,1340.5587460347451,None,1340.5587460347451,None,1341.0756276046159,None,1341.0756276046159,None,1341.0756276046159,None,n,1.6910325308563188,1341.0756276046159,None,base10,001,2019_Oct_29_1758,ProdFawcett_Revision2019,3.2.4,59.960280095433795,
,,,,7,0,7,0,,,,,,,,,,,,,1347.0606540399604,None,,,,,,,,,,,,,,,,,,,,,,cross,D_new,7,80,1343.326299993787,None,1343.326299993787,None,1343.326299993787,None,1,1.7117431735387072,1343.326299993787,None,1345.0935071841814,None,1345.0935071841814,None,1345.6103582758224,None,1345.6103582758224,None,1345.6103582758224,None,n,1.4031196740688756,1345.6103582758224,None,base10,001,2019_Oct_29_1758,ProdFawcett_Revision2019,3.2.4,59.960280095433795,
,,,,8,0,8,0,,,,,,,,,,,,,1350.5784253902966,None,,,,,,,,,,,,,,,,,,,,,,employment,D_new,8,111,1347.5784984760685,None,1347.5784984760685,None,1347.5784984760685,None,6,1.963018286973238,1347.5784984760685,None,1349.5948547614971,None,1349.5948547614971,None,1350.1117285563378,None,1350.1117285563378,None,1350.1117285563378,None,r,0.4215385332936421,1350.1117285563378,None,base10,001,2019_Oct_29_1758,ProdFawcett_Revision2019,3.2.4,59.960280095433795,
,,,,9,0,9,0,,,,,,,,,,,,,1354.5296815326437,None,,,,,,,,,,,,,,,,,,,,,,charter,A_silent,9,47,1351.095625427668,None,1351.095625427668,None,1351.095625427668,None,1,1.4216287242015824,1351.095625427668,None,1352.5659015985439,None,1352.5659015985439,None,1353.0958661441691,None,1353.0958661441691,None,1353.0958661441691,None,n,1.3973735771141946,1353.0958661441691,None,base10,001,2019_Oct_29_1758,ProdFawcett_Revision2019,3.2.4,59.960280095433795,
,,,,10,0,10,0,,,,,,,,,,,,,1359.1145518443082,None,,,,,,,,,,,,,,,,,,,,,,majority,D_new,10,176,1355.0633407974383,None,1355.0633407974383,None,1355.0633407974383,None,4,2.5262975057121366,1355.0633407974383,None,1357.647383840289,None,1357.647383840289,None,1358.1671866641846,None,1358.1671866641846,None,1358.1671866641846,None,f,0.9096893076784909,1358.1671866641846,None,base10,001,2019_Oct_29_1758,ProdFawcett_Revision2019,3.2.4,59.960280095433795,
,,,,11,0,11,0,,,,,,,,,,,,,1365.6499530385481,None,,,,,,,,,,,,,,,,,,,,,,silence,C_aloud2,11,288,1359.631939105573,None,1359.631939105573,None,1359.631939105573,None,6,4.620543322758749,1359.631939105573,None,1364.316006406676,None,1364.316006406676,None,1364.833012688905,None,1364.833012688905,None,1364.833012688905,None,r,0.7713615724351257,1364.833012688905,None,base10,001,2019_Oct_29_1758,ProdFawcett_Revision2019,3.2.4,59.960280095433795,
,,,,12,0,12,0,,,,,,,,,,,,,1372.7353993282886,None,,,,,,,,,,,,,,,,,,,,,,damage,A_silent,12,83,1366.1668787709204,None,1366.1668787709204,None,1366.1668787709204,None,3,4.805305716232397,1366.1668787709204,None,1371.0347947378177,None,1371.0347947378177,None,1371.5517198482994,None,1371.5517198482994,None,1371.5517198482994,None,f,1.1410667413147166,1371.5517198482994,None,base10,001,2019_Oct_29_1758,ProdFawcett_Revision2019,3.2.4,59.960280095433795,
,,,,13,0,13,0,,,,,,,,,,,,,1378.237021210487,None,,,,,,,,,,,,,,,,,,,,,,collection,C_aloud2,13,54,1373.2541366548976,None,1373.2541366548976,None,1373.2541366548976,None,6,3.1496429682010785,1373.2541366548976,None,1376.4698687565979,None,1376.4698687565979,None,1376.9869838900631,None,1376.9869838900631,None,1376.9869838900631,None,r,1.2089861292624846,1376.9869838900631,None,base10,001,2019_Oct_29_1758,ProdFawcett_Revision2019,3.2.4,59.960280095433795,
,,,,14,0,14,0,,,,,,,,,,,,,1382.7718865460483,None,,,,,,,,,,,,,,,,,,,,,,style,B_aloud1,14,311,1378.7541587360902,None,1378.7541587360902,None,1378.7541587360902,None,6,2.145426696515642,1378.7541587360902,None,1380.9432369223796,None,1380.9432369223796,None,1381.4712374821538,None,1381.4712374821538,None,1381.4712374821538,None,r,1.2523166635073721,1381.4712374821538,None,base10,001,2019_Oct_29_1758,ProdFawcett_Revision2019,3.2.4,59.960280095433795,
,,,,15,0,15,0,,,,,,,,,,,,,1386.7397387572564,None,,,,,,,,,,,,,,,,,,,,,,union,C_aloud2,15,344,1383.2901023201412,None,1383.2901023201412,None,1383.2901023201412,None,6,1.7218657087069005,1383.2901023201412,None,1385.072432667832,None,1385.072432667832,None,1385.5894168688683,None,1385.5894168688683,None,1385.5894168688683,None,r,1.1018097281921655,1385.5894168688683,None,base10,001,2019_Oct_29_1758,ProdFawcett_Revision2019,3.2.4,59.960280095433795,
,,,,16,0,16,0,,,,,,,,,,,,,1389.873914909549,None,,,,,,,,,,,,,,,,,,,,,,quiet,B_aloud1,16,249,1387.2610934876138,None,1387.2610934876138,None,1387.2610934876138,None,6,1.694194501498714,1387.2610934876138,None,1389.0070849661715,None,1389.0070849661715,None,1389.5238754120655,None,1389.5238754120655,None,1389.5238754120655,None,r,0.3115117870038375,1389.5238754120655,None,base10,001,2019_Oct_29_1758,ProdFawcett_Revision2019,3.2.4,59.960280095433795,
,,,,17,0,17,0,,,,,,,,,,,,,1395.3424115196103,None,,,,,,,,,,,,,,,,,,,,,,waste,A_silent,17,350,1390.3911099707475,None,1390.3911099707475,None,1390.3911099707475,None,6,3.8924367107683793,1390.3911099707475,None,1394.3419776699739,None,1394.3419776699739,None,1394.8589736891445,None,1394.8589736891445,None,1394.8589736891445,None,r,0.4478848666185513,1394.8589736891445,None,base10,001,2019_Oct_29_1758,ProdFawcett_Revision2019,3.2.4,59.960280095433795,
,,,,18,0,18,0,,,,,,,,,,,,,1399.893698762171,None,,,,,,,,,,,,,,,,,,,,,,court,D_new,18,75,1395.8592200037092,None,1395.8592200037092,None,1395.8592200037092,None,3,3.087233003578149,1395.8592200037092,None,1398.9983675436815,None,1398.9983675436815,None,1399.5269440816483,None,1399.5269440816483,None,1399.5269440816483,None,f,0.33169558993540704,1399.5269440816483,None,base10,001,2019_Oct_29_1758,ProdFawcett_Revision2019,3.2.4,59.960280095433795,
,,,,19,0,19,0,,,,,,,,,,,,,1404.8452593768016,None,,,,,,,,,,,,,,,,,,,,,,dance,A_silent,19,84,1400.4108297567582,None,1400.4108297567582,None,1400.4108297567582,None,3,3.735385022126138,1400.4108297567582,None,1404.211697767023,None,1404.211697767023,None,1404.728668905911,None,1404.728668905911,None,1404.728668905911,None,f,0.08164209732785821,1404.728668905911,None,base10,001,2019_Oct_29_1758,ProdFawcett_Revision2019,3.2.4,59.960280095433795,
,,,,20,0,20,0,,,,,,,,,,,,,1413.5981187410653,None,,,,,,,,,,,,,,,,,,,,,,science,A_silent,20,275,1405.3628491011914,None,1405.3628491011914,None,1405.3628491011914,None,3,6.038875101017766,1405.3628491011914,None,1411.4507174845785,None,1411.4507174845785,None,1411.9807563599898,None,1411.9807563599898,None,1411.9807563599898,None,f,1.5737550538033247,1411.9807563599898,None,base10,001,2019_Oct_29_1758,ProdFawcett_Revision2019,3.2.4,59.960280095433795,
,,,,21,0,21,0,,,,,,,,,,,,,1417.6993643093156,None,,,,,,,,,,,,,,,,,,,,,,opening,D_new,21,205,1414.114698015852,None,1414.114698015852,None,1414.114698015852,None,1,1.5916965230135247,1414.114698015852,None,1415.7653573427815,None,1415.7653573427815,None,1416.2827775704209,None,1416.2827775704209,None,1416.2827775704209,None,n,1.3754329165676609,1416.2827775704209,None,base10,001,2019_Oct_29_1758,ProdFawcett_Revision2019,3.2.4,59.960280095433795,
,,,,22,0,22,0,,,,,,,,,,,,,1421.5170700380113,None,,,,,,,,,,,,,,,,,,,,,,graduate,A_silent,22,141,1418.2169129812391,None,1418.2169129812391,None,1418.2169129812391,None,6,2.000306960195303,1418.2169129812391,None,1420.266760900733,None,1420.266760900733,None,1420.7836147913476,None,1420.7836147913476,None,1420.7836147913476,None,r,0.6977474031737074,1420.7836147913476,None,base10,001,2019_Oct_29_1758,ProdFawcett_Revision2019,3.2.4,59.960280095433795,
,,,,23,0,23,0,,,,,,,,,,,,,1427.1523542950163,None,,,,,,,,,,,,,,,,,,,,,,recall,B_aloud1,23,255,1422.0338912733132,None,1422.0338912733132,None,1422.0338912733132,None,4,3.5833096971036866,1422.0338912733132,None,1425.668402376119,None,1425.668402376119,None,1426.1853324625408,None,1426.1853324625408,None,1426.1853324625408,None,f,0.9197017478290945,1426.1853324625408,None,base10,001,2019_Oct_29_1758,ProdFawcett_Revision2019,3.2.4,59.960280095433795,
,,,,24,0,24,0,,,,,,,,,,,,,1430.603277352755,None,,,,,,,,,,,,,,,,,,,,,,crowd,A_silent,24,81,1427.6690968464827,None,1427.6690968464827,None,1427.6690968464827,None,6,1.9404568638419732,1427.6690968464827,None,1429.6577355850022,None,1429.6577355850022,None,1430.1864119549282,None,1430.1864119549282,None,1430.1864119549282,None,r,0.38272998691536486,1430.1864119549282,None,base10,001,2019_Oct_29_1758,ProdFawcett_Revision2019,3.2.4,59.960280095433795,
,,,,25,0,25,0,,,,,,,,,,,,,1435.1214029359398,None,,,,,,,,,,,,,,,,,,,,,,territory,D_new,25,324,1431.1205993033946,None,1431.1205993033946,None,1431.1205993033946,None,6,2.9442989985691383,1431.1205993033946,None,1434.1209271008847,None,1434.1209271008847,None,1434.637942402158,None,1434.637942402158,None,1434.637942402158,None,r,0.450428873533383,1434.637942402158,None,base10,001,2019_Oct_29_1758,ProdFawcett_Revision2019,3.2.4,59.960280095433795,
,,,,26,0,26,0,,,,,,,,,,,,,1438.2223440319067,None,,,,,,,,,,,,,,,,,,,,,,material,C_aloud2,26,182,1435.639022827614,None,1435.639022827614,None,1435.639022827614,None,6,1.529349070158787,1435.639022827614,None,1437.2219602537807,None,1437.2219602537807,None,1437.7415659016697,None,1437.7415659016697,None,1437.7415659016697,None,r,0.43462244200054556,1437.7415659016697,None,base10,001,2019_Oct_29_1758,ProdFawcett_Revision2019,3.2.4,59.960280095433795,
,,,,27,0,27,0,,,,,,,,,,,,,1441.0732201281935,None,,,,,,,,,,,,,,,,,,,,,,guest,B_aloud1,27,146,1438.7390138085466,None,1438.7390138085466,None,1438.7390138085466,None,6,1.3335970641346648,1438.7390138085466,None,1440.1229218760272,None,1440.1229218760272,None,1440.6398025129456,None,1440.6398025129456,None,1440.6398025129456,None,r,0.3842803384177387,1440.6398025129456,None,base10,001,2019_Oct_29_1758,ProdFawcett_Revision2019,3.2.4,59.960280095433795,
,,,,28,0,28,0,,,,,,,,,,,,,1443.8240548609756,None,,,,,,,,,,,,,,,,,,,,,,signal,C_aloud2,28,287,1441.589831747231,None,1441.589831747231,None,1441.589831747231,None,6,1.330228587379679,1441.589831747231,None,1442.9737992163282,None,1442.9737992163282,None,1443.4906618150417,None,1443.4906618150417,None,1443.4906618150417,None,r,0.2852033961098641,1443.4906618150417,None,base10,001,2019_Oct_29_1758,ProdFawcett_Revision2019,3.2.4,59.960280095433795,
,,,,29,0,29,0,,,,,,,,,,,,,1448.0753924861783,None,,,,,,,,,,,,,,,,,,,,,,smell,A_silent,29,291,1444.341812216211,None,1444.341812216211,None,1444.341812216211,None,4,2.7538293835241348,1444.341812216211,None,1447.146315232967,None,1447.146315232967,None,1447.6751912670443,None,1447.6751912670443,None,1447.6751912670443,None,f,0.36468246567528695,1447.6751912670443,None,base10,001,2019_Oct_29_1758,ProdFawcett_Revision2019,3.2.4,59.960280095433795,
,,,,30,0,30,0,,,,,,,,,,,,,1451.4596740686102,None,,,,,,,,,,,,,,,,,,,,,,private,D_new,30,237,1448.5922071904643,None,1448.5922071904643,None,1448.5922071904643,None,6,1.4154441127320752,1448.5922071904643,None,1450.0593356969766,None,1450.0593356969766,None,1450.5761902095983,None,1450.5761902095983,None,1450.5761902095983,None,r,0.8473639360163361,1450.5761902095983,None,base10,001,2019_Oct_29_1758,ProdFawcett_Revision2019,3.2.4,59.960280095433795,
,,,,31,0,31,0,,,,,,,,,,,,,1457.3282829507953,None,,,,,,,,,,,,,,,,,,,,,,voice,D_new,31,348,1451.9779144119238,None,1451.9779144119238,None,1451.9779144119238,None,4,3.1814800646388903,1451.9779144119238,None,1455.210832244833,None,1455.210832244833,None,1455.7278111588676,None,1455.7278111588676,None,1455.7278111588676,None,f,1.5674164956435561,1455.7278111588676,None,base10,001,2019_Oct_29_1758,ProdFawcett_Revision2019,3.2.4,59.960280095433795,
,,,,32,0,32,0,,,,,,,,,,,,,1463.280081482837,None,,,,,,,,,,,,,,,,,,,,,,piece,B_aloud1,32,221,1457.8449633016717,None,1457.8449633016717,None,1457.8449633016717,None,6,4.034391988650896,1457.8449633016717,None,1461.9295509112999,None,1461.9295509112999,None,1462.4338788330788,None,1462.4338788330788,None,1462.4338788330788,None,r,0.8130997698754072,1462.4338788330788,None,base10,001,2019_Oct_29_1758,ProdFawcett_Revision2019,3.2.4,59.960280095433795,
,,,,33,0,33,0,,,,,,,,,,,,,1469.1986685949378,None,,,,,,,,,,,,,,,,,,,,,,safety,D_new,33,270,1463.7971082914155,None,1463.7971082914155,None,1463.7971082914155,None,6,2.409821173059754,1463.7971082914155,None,1466.253414194216,None,1466.253414194216,None,1466.7811690614326,None,1466.7811690614326,None,1466.7811690614326,None,r,2.3853004291886464,1466.7811690614326,None,base10,001,2019_Oct_29_1758,ProdFawcett_Revision2019,3.2.4,59.960280095433795,
,,,,34,0,34,0,,,,,,,,,,,,,1475.1671434347518,None,,,,,,,,,,,,,,,,,,,,,,scene,D_new,34,273,1469.715800833539,None,1469.715800833539,None,1469.715800833539,None,1,3.7947123219491914,1469.715800833539,None,1473.5665422653547,None,1473.5665422653547,None,1474.083487279946,None,1474.083487279946,None,1474.083487279946,None,n,1.0431000809185207,1474.083487279946,None,base10,001,2019_Oct_29_1758,ProdFawcett_Revision2019,3.2.4,59.960280095433795,
,,,,35,0,35,0,,,,,,,,,,,,,1478.5849073210265,None,,,,,,,,,,,,,,,,,,,,,,sunset,A_silent,35,315,1475.684218759765,None,1475.684218759765,None,1475.684218759765,None,6,1.9941067985491827,1475.684218759765,None,1477.7346065808088,None,1477.7346065808088,None,1478.2512881756993,None,1478.2512881756993,None,1478.2512881756993,None,r,0.29857342783361673,1478.2512881756993,None,base10,001,2019_Oct_29_1758,ProdFawcett_Revision2019,3.2.4,59.960280095433795,
,,,,36,0,36,0,,,,,,,,,,,,,1485.103564719786,None,,,,,,,,,,,,,,,,,,,,,,death,D_new,36,86,1479.101663245703,None,1479.101663245703,None,1479.101663245703,None,5,4.456066430313513,1479.101663245703,None,1483.619726628065,None,1483.619726628065,None,1484.1367229582975,None,1484.1367229582975,None,1484.1367229582975,None,f,0.9256101885112002,1484.1367229582975,None,base10,001,2019_Oct_29_1758,ProdFawcett_Revision2019,3.2.4,59.960280095433795,
,,,,37,0,37,0,,,,,,,,,,,,,1488.9879607514013,None,,,,,,,,,,,,,,,,,,,,,,concern,D_new,37,65,1485.620796790463,None,1485.620796790463,None,1485.620796790463,None,6,1.4089500529225916,1485.620796790463,None,1487.075899732532,None,1487.075899732532,None,1487.604179884307,None,1487.604179884307,None,1487.604179884307,None,r,1.337064750958234,1487.604179884307,None,base10,001,2019_Oct_29_1758,ProdFawcett_Revision2019,3.2.4,59.960280095433795,
,,,,38,0,38,0,,,,,,,,,,,,,1494.5898472974077,None,,,,,,,,,,,,,,,,,,,,,,testimony,D_new,38,325,1489.5068430055398,None,1489.5068430055398,None,1489.5068430055398,None,6,3.3386900541372597,1489.5068430055398,None,1492.8945446911966,None,1492.8945446911966,None,1493.4226559682284,None,1493.4226559682284,None,1493.4226559682284,None,r,1.1183389313519,1493.4226559682284,None,base10,001,2019_Oct_29_1758,ProdFawcett_Revision2019,3.2.4,59.960280095433795,
,,,,39,0,39,0,,,,,,,,,,,,,1497.9573950363556,None,,,,,,,,,,,,,,,,,,,,,,personnel,D_new,39,219,1495.107650681166,None,1495.107650681166,None,1495.107650681166,None,1,1.5935099832713604,1495.107650681166,None,1496.7446407912066,None,1496.7446407912066,None,1497.2572236736305,None,1497.2572236736305,None,1497.2572236736305,None,n,0.6674861602950841,1497.2572236736305,None,base10,001,2019_Oct_29_1758,ProdFawcett_Revision2019,3.2.4,59.960280095433795,
,,,,40,0,40,0,,,,,,,,,,,,,1501.6086673508398,None,,,,,,,,,,,,,,,,,,,,,,symbol,D_new,40,321,1498.4747356472071,None,1498.4747356472071,None,1498.4747356472071,None,4,2.1067052310099825,1498.4747356472071,None,1500.6303803570336,None,1500.6303803570336,None,1501.1585106052225,None,1501.1585106052225,None,1501.1585106052225,None,f,0.41420352063141763,1501.1585106052225,None,base10,001,2019_Oct_29_1758,ProdFawcett_Revision2019,3.2.4,59.960280095433795,
,,,,41,0,41,0,,,,,,,,,,,,,1507.1770529327914,None,,,,,,,,,,,,,,,,,,,,,,owner,C_aloud2,41,208,1502.1256932263495,None,1502.1256932263495,None,1502.1256932263495,None,6,2.9915139641379938,1502.1256932263495,None,1505.1646012937417,None,1505.1646012937417,None,1505.6931429993128,None,1505.6931429993128,None,1505.6931429993128,None,r,1.4398737327428535,1505.6931429993128,None,base10,001,2019_Oct_29_1758,ProdFawcett_Revision2019,3.2.4,59.960280095433795,
,,,,42,0,42,0,,,,,,,,,,,,,1510.8615497294813,None,,,,,,,,,,,,,,,,,,,,,,empty,B_aloud1,42,112,1507.6947692355607,None,1507.6947692355607,None,1507.6947692355607,None,6,1.5658571250969544,1507.6947692355607,None,1509.3004192324588,None,1509.3004192324588,None,1509.8279203210259,None,1509.8279203210259,None,1509.8279203210259,None,r,0.9926917335251346,1509.8279203210259,None,base10,001,2019_Oct_29_1758,ProdFawcett_Revision2019,3.2.4,59.960280095433795,
,,,,43,0,43,0,,,,,,,,,,,,,1513.8790912483819,None,,,,,,,,,,,,,,,,,,,,,,shape,D_new,43,282,1511.3782723767217,None,1511.3782723767217,None,1511.3782723767217,None,6,1.5060953536303714,1511.3782723767217,None,1512.9334972320357,None,1512.9334972320357,None,1513.4622298936592,None,1513.4622298936592,None,1513.4622298936592,None,r,0.38182154623791575,1513.4622298936592,None,base10,001,2019_Oct_29_1758,ProdFawcett_Revision2019,3.2.4,59.960280095433795,
,,,,44,0,44,0,,,,,,,,,,,,,1516.8298193070805,None,,,,,,,,,,,,,,,,,,,,,,oxygen,D_new,44,209,1514.39662126021,None,1514.39662126021,None,1514.39662126021,None,1,1.4554074143525213,1514.39662126021,None,1515.90156994469,None,1515.90156994469,None,1516.4309762393823,None,1516.4309762393823,None,1516.4309762393823,None,n,0.357330969767645,1516.4309762393823,None,base10,001,2019_Oct_29_1758,ProdFawcett_Revision2019,3.2.4,59.960280095433795,
,,,,45,0,45,0,,,,,,,,,,,,,1519.9643133047502,None,,,,,,,,,,,,,,,,,,,,,,expansion,C_aloud2,45,123,1517.3506891833385,None,1517.3506891833385,None,1517.3506891833385,None,6,1.7489313926780596,1517.3506891833385,None,1519.163955339929,None,1519.163955339929,None,1519.6807967905188,None,1519.6807967905188,None,1519.6807967905188,None,r,0.23474746535066515,1519.6807967905188,None,base10,001,2019_Oct_29_1758,ProdFawcett_Revision2019,3.2.4,59.960280095433795,
,,,,46,0,46,0,,,,,,,,,,,,,1523.1153361946344,None,,,,,,,,,,,,,,,,,,,,,,shock,D_new,46,284,1520.4810527461814,None,1520.4810527461814,None,1520.4810527461814,None,6,1.778557255747728,1520.4810527461814,None,1522.3015301362611,None,1522.3015301362611,None,1522.799900789978,None,1522.799900789978,None,1522.799900789978,None,r,0.26753903087228537,1522.799900789978,None,base10,001,2019_Oct_29_1758,ProdFawcett_Revision2019,3.2.4,59.960280095433795,
,,,,47,0,47,0,,,,,,,,,,,,,1525.4494013186777,None,,,,,,,,,,,,,,,,,,,,,,sound,A_silent,47,295,1523.6319720719475,None,1523.6319720719475,None,1523.6319720719475,None,6,0.8596812216565013,1523.6319720719475,None,1524.5394961746642,None,1524.5394961746642,None,1525.065892268438,None,1525.065892268438,None,1525.065892268438,None,r,0.3372392237652093,1525.065892268438,None,base10,001,2019_Oct_29_1758,ProdFawcett_Revision2019,3.2.4,59.960280095433795,
,,,,48,0,48,0,,,,,,,,,,,,,1527.5167114511132,None,,,,,,,,,,,,,,,,,,,,,,clear,B_aloud1,48,52,1525.9661550662713,None,1525.9661550662713,None,1525.9661550662713,None,6,0.6773343906970695,1525.9661550662713,None,1526.6996889967704,None,1526.6996889967704,None,1527.216614418081,None,1527.216614418081,None,1527.216614418081,None,r,0.26685482368338853,1527.216614418081,None,base10,001,2019_Oct_29_1758,ProdFawcett_Revision2019,3.2.4,59.960280095433795,
,,,,49,0,49,0,,,,,,,,,,,,,1530.067493002396,None,,,,,,,,,,,,,,,,,,,,,,partner,D_new,49,211,1528.034647944267,None,1528.034647944267,None,1528.034647944267,None,6,1.1521412577712908,1528.034647944267,None,1529.2413985818857,None,1529.2413985818857,None,1529.7505619829753,None,1529.7505619829753,None,1529.7505619829753,None,r,0.2683843378908932,1529.7505619829753,None,base10,001,2019_Oct_29_1758,ProdFawcett_Revision2019,3.2.4,59.960280095433795,
,,,,50,0,50,0,,,,,,,,,,,,,1538.3533992660232,None,,,,,,,,,,,,,,,,,,,,,,defeat,A_silent,50,88,1530.5842507930938,None,1530.5842507930938,None,1530.5842507930938,None,3,2.9948040678864345,1530.5842507930938,None,1533.6351962430635,None,1533.6351962430635,None,1534.1519633638673,None,1534.1519633638673,None,1534.1519633638673,None,f,4.154398208600469,1534.1519633638673,None,base10,001,2019_Oct_29_1758,ProdFawcett_Revision2019,3.2.4,59.960280095433795,
,,,,51,0,51,0,,,,,,,,,,,,,1541.2542850034079,None,,,,,,,,,,,,,,,,,,,,,,month,C_aloud2,51,193,1538.869998445036,None,1538.869998445036,None,1538.869998445036,None,6,1.3964268831769004,1538.869998445036,None,1540.3077343410114,None,1540.3077343410114,None,1540.8206944704289,None,1540.8206944704289,None,1540.8206944704289,None,r,0.3977191017474979,1540.8206944704289,None,base10,001,2019_Oct_29_1758,ProdFawcett_Revision2019,3.2.4,59.960280095433795,
,,,,52,0,52,0,,,,,,,,,,,,,1544.0718417615863,None,,,,,,,,,,,,,,,,,,,,,,accident,A_silent,52,0,1541.7717207812238,None,1541.7717207812238,None,1541.7717207812238,None,6,1.342834173119627,1541.7717207812238,None,1543.1714430552674,None,1543.1714430552674,None,1543.6882785967318,None,1543.6882785967318,None,1543.6882785967318,None,r,0.3377965416293591,1543.6882785967318,None,base10,001,2019_Oct_29_1758,ProdFawcett_Revision2019,3.2.4,59.960280095433795,
,,,,53,0,53,0,,,,,,,,,,,,,1546.372381041292,None,,,,,,,,,,,,,,,,,,,,,,strain,A_silent,53,308,1544.5887000062503,None,1544.5887000062503,None,1544.5887000062503,None,6,0.909691795706749,1544.5887000062503,None,1545.543790508178,None,1545.543790508178,None,1546.0722970704082,None,1546.0722970704082,None,1546.0722970704082,None,r,0.2584903900278732,1546.0722970704082,None,base10,001,2019_Oct_29_1758,ProdFawcett_Revision2019,3.2.4,59.960280095433795,
,,,,54,0,54,0,,,,,,,,,,,,,1548.489825838129,None,,,,,,,,,,,,,,,,,,,,,,individual,D_new,54,160,1546.889303663629,None,1546.889303663629,None,1546.889303663629,None,6,0.784610312897712,1546.889303663629,None,1547.7291543820174,None,1547.7291543820174,None,1548.2565985569963,None,1548.2565985569963,None,1548.2565985569963,None,r,0.18521241517737508,1548.2565985569963,None,base10,001,2019_Oct_29_1758,ProdFawcett_Revision2019,3.2.4,59.960280095433795,
,,,,55,0,55,0,,,,,,,,,,,,,1550.3737513218075,None,,,,,,,,,,,,,,,,,,,,,,evidence,C_aloud2,55,120,1549.0068143932149,None,1549.0068143932149,None,1549.0068143932149,None,6,0.6756954033626243,1549.0068143932149,None,1549.7286769920029,None,1549.7286769920029,None,1550.2401775829494,None,1550.2401775829494,None,1550.2401775829494,None,r,0.09771070466376841,1550.2401775829494,None,base10,001,2019_Oct_29_1758,ProdFawcett_Revision2019,3.2.4,59.960280095433795,
,,,,56,0,56,0,,,,,,,,,,,,,1553.0412766685477,None,,,,,,,,,,,,,,,,,,,,,,match,D_new,56,181,1550.8905703800265,None,1550.8905703800265,None,1550.8905703800265,None,6,0.8552288983482867,1550.8905703800265,None,1551.8075477390084,None,1551.8075477390084,None,1552.3243991415948,None,1552.3243991415948,None,1552.3243991415948,None,r,0.6775663992157206,1552.3243991415948,None,base10,001,2019_Oct_29_1758,ProdFawcett_Revision2019,3.2.4,59.960280095433795,
,,,,57,0,57,0,,,,,,,,,,,,,1555.1918122161878,None,,,,,,,,,,,,,,,,,,,,,,treatment,D_new,57,339,1553.5596868196735,None,1553.5596868196735,None,1553.5596868196735,None,6,0.6261721714399755,1553.5596868196735,None,1554.2415652796626,None,1554.2415652796626,None,1554.7584499595687,None,1554.7584499595687,None,1554.7584499595687,None,r,0.38700006215367466,1554.7584499595687,None,base10,001,2019_Oct_29_1758,ProdFawcett_Revision2019,3.2.4,59.960280095433795,
,,,,58,0,58,0,,,,,,,,,,,,,1560.010097655002,None,,,,,,,,,,,,,,,,,,,,,,command,A_silent,58,60,1555.709770790534,None,1555.709770790534,None,1555.709770790534,None,3,1.643939167726785,1555.709770790534,None,1557.4092846924905,None,1557.4092846924905,None,1557.9259687752929,None,1557.9259687752929,None,1557.9259687752929,None,f,2.0511721714865416,1557.9259687752929,None,base10,001,2019_Oct_29_1758,ProdFawcett_Revision2019,3.2.4,59.960280095433795,
,,,,59,0,59,0,,,,,,,,,,,,,1563.977785656578,None,,,,,,,,,,,,,,,,,,,,,,institute,D_new,59,162,1560.5285864900798,None,1560.5285864900798,None,1560.5285864900798,None,1,1.7284841699292883,1560.5285864900798,None,1562.310835976852,None,1562.310835976852,None,1562.8276264228625,None,1562.8276264228625,None,1562.8276264228625,None,n,1.1097291162004694,1562.8276264228625,None,base10,001,2019_Oct_29_1758,ProdFawcett_Revision2019,3.2.4,59.960280095433795,
,,,,60,0,60,0,,,,,,,,,,,,,1568.1292706972454,None,,,,,,,,,,,,,,,,,,,,,,search,B_aloud1,60,276,1564.4946513653267,None,1564.4946513653267,None,1564.4946513653267,None,6,1.6343556011561304,1564.4946513653267,None,1566.178592399112,None,1566.178592399112,None,1566.6954808110604,None,1566.6954808110604,None,1566.6954808110604,None,f,1.393491012044251,1566.6954808110604,None,base10,001,2019_Oct_29_1758,ProdFawcett_Revision2019,3.2.4,59.960280095433795,
,,,,61,0,61,0,,,,,,,,,,,,,1571.713630341459,None,,,,,,,,,,,,,,,,,,,,,,payment,D_new,61,215,1568.6466713317204,None,1568.6466713317204,None,1568.6466713317204,None,6,2.2819698948878795,1568.6466713317204,None,1570.9801172482548,None,1570.9801172482548,None,1571.4969611867564,None,1571.4969611867564,None,1571.4969611867564,None,r,0.18375847477000207,1571.4969611867564,None,base10,001,2019_Oct_29_1758,ProdFawcett_Revision2019,3.2.4,59.960280095433795,
,,,,62,0,62,0,,,,,,,,,,,,,1575.831529514282,None,,,,,,,,,,,,,,,,,,,,,,tragedy,D_new,62,335,1572.231670087669,None,1572.231670087669,None,1572.231670087669,None,4,2.649088760255836,1572.231670087669,None,1574.9312244199682,None,1574.9312244199682,None,1575.4482061329763,None,1575.4482061329763,None,1575.4482061329763,None,f,0.3444753374205902,1575.4482061329763,None,base10,001,2019_Oct_29_1758,ProdFawcett_Revision2019,3.2.4,59.960280095433795,
,,,,63,0,63,0,,,,,,,,,,,,,1581.7834540025797,None,,,,,,,,,,,,,,,,,,,,,,crime,B_aloud1,63,78,1576.3487279965775,None,1576.3487279965775,None,1576.3487279965775,None,6,4.571174348471686,1576.3487279965775,None,1580.9716240592534,None,1580.9716240592534,None,1581.4999312682776,None,1581.4999312682776,None,1581.4999312682776,None,f,0.24436773033812642,1581.4999312682776,None,base10,001,2019_Oct_29_1758,ProdFawcett_Revision2019,3.2.4,59.960280095433795,
,,,,64,0,64,0,,,,,,,,,,,,,1585.2012440131512,None,,,,,,,,,,,,,,,,,,,,,,problem,D_new,64,238,1582.3017080301652,None,1582.3017080301652,None,1582.3017080301652,None,4,2.033976488164626,1582.3017080301652,None,1584.3881709895795,None,1584.3881709895795,None,1584.9176466381177,None,1584.9176466381177,None,1584.9176466381177,None,f,0.2503756919177249,1584.9176466381177,None,base10,001,2019_Oct_29_1758,ProdFawcett_Revision2019,3.2.4,59.960280095433795,
,,,,65,0,65,0,,,,,,,,,,,,,1588.1687867761357,None,,,,,,,,,,,,,,,,,,,,,,capital,B_aloud1,65,40,1585.7186452696333,None,1585.7186452696333,None,1585.7186452696333,None,6,1.777283386210911,1585.7186452696333,None,1587.5397900728276,None,1587.5397900728276,None,1588.0686362505658,None,1588.0686362505658,None,1588.0686362505658,None,r,0.05095322511624545,1588.0686362505658,None,base10,001,2019_Oct_29_1758,ProdFawcett_Revision2019,3.2.4,59.960280095433795,
,,,,66,0,66,0,,,,,,,,,,,,,1590.3528444361873,None,,,,,,,,,,,,,,,,,,,,,,present,D_new,66,231,1588.6857871493557,None,1588.6857871493557,None,1588.6857871493557,None,6,0.7299328233348206,1588.6857871493557,None,1589.458219817141,None,1589.458219817141,None,1589.9858751633437,None,1589.9858751633437,None,1589.9858751633437,None,r,0.3338427566923201,1589.9858751633437,None,base10,001,2019_Oct_29_1758,ProdFawcett_Revision2019,3.2.4,59.960280095433795,
,,,,67,0,67,0,,,,,,,,,,,,,1593.036967717926,None,,,,,,,,,,,,,,,,,,,,,,substance,C_aloud2,67,313,1590.8703318405896,None,1590.8703318405896,None,1590.8703318405896,None,6,1.2494283758569509,1590.8703318405896,None,1592.1582966349088,None,1592.1582966349088,None,1592.686852957704,None,1592.686852957704,None,1592.686852957704,None,r,0.30447938048746437,1592.686852957704,None,base10,001,2019_Oct_29_1758,ProdFawcett_Revision2019,3.2.4,59.960280095433795,
,,,,68,0,68,0,,,,,,,,,,,,,1596.8714981029043,None,,,,,,,,,,,,,,,,,,,,,,title,D_new,68,331,1593.5538197425194,None,1593.5538197425194,None,1593.5538197425194,None,1,1.6372846302110702,1593.5538197425194,None,1595.2414415002568,None,1595.2414415002568,None,1595.754344716086,None,1595.754344716086,None,1595.754344716086,None,f,1.0687463456997648,1595.754344716086,None,base10,001,2019_Oct_29_1758,ProdFawcett_Revision2019,3.2.4,59.960280095433795,
,,,,69,0,69,0,,,,,,,,,,,,,1602.406442122301,None,,,,,,,,,,,,,,,,,,,,,,birth,D_new,69,22,1597.388546370552,None,1597.388546370552,None,1597.388546370552,None,1,2.9068451825296506,1597.388546370552,None,1600.345364495879,None,1600.345364495879,None,1600.8727841015207,None,1600.8727841015207,None,1600.8727841015207,None,n,1.4858907134039328,1600.8727841015207,None,base10,001,2019_Oct_29_1758,ProdFawcett_Revision2019,3.2.4,59.960280095433795,
,,,,70,0,70,0,,,,,,,,,,,,,1607.841432170244,None,,,,,,,,,,,,,,,,,,,,,,cousin,A_silent,70,76,1602.9232910368592,None,1602.9232910368592,None,1602.9232910368592,None,1,3.9795981836505234,1602.9232910368592,None,1606.946419108077,None,1606.946419108077,None,1607.4746451452374,None,1607.4746451452374,None,1607.4746451452374,None,n,0.3246103128185496,1607.4746451452374,None,base10,001,2019_Oct_29_1758,ProdFawcett_Revision2019,3.2.4,59.960280095433795,
,,,,71,0,71,0,,,,,,,,,,,,,1611.0757771972567,None,,,,,,,,,,,,,,,,,,,,,,background,B_aloud1,71,16,1608.36054954282,None,1608.36054954282,None,1608.36054954282,None,5,1.8064881508471444,1608.36054954282,None,1610.2151704297867,None,1610.2151704297867,None,1610.742569820257,None,1610.742569820257,None,1610.742569820257,None,f,0.2957386329071596,1610.742569820257,None,base10,001,2019_Oct_29_1758,ProdFawcett_Revision2019,3.2.4,59.960280095433795,
,,,,72,0,72,0,,,,,,,,,,,,,1618.3946737576043,None,,,,,,,,,,,,,,,,,,,,,,bicycle,D_new,72,21,1611.5925163277425,None,1611.5925163277425,None,1611.5925163277425,None,4,5.861763699678704,1611.5925163277425,None,1617.5111230328912,None,1617.5111230328912,None,1618.0280484543182,None,1618.0280484543182,None,1618.0280484543182,None,f,0.32987311063334346,1618.0280484543182,None,base10,001,2019_Oct_29_1758,ProdFawcett_Revision2019,3.2.4,59.960280095433795,
,,,,73,0,73,0,,,,,,,,,,,,,1621.662478074315,None,,,,,,,,,,,,,,,,,,,,,,article,C_aloud2,73,11,1618.9116427194094,None,1618.9116427194094,None,1618.9116427194094,None,6,1.742731853039004,1618.9116427194094,None,1620.7121309946524,None,1620.7121309946524,None,1621.2290526839206,None,1621.2290526839206,None,1621.2290526839206,None,r,0.38448497850913554,1621.2290526839206,None,base10,001,2019_Oct_29_1758,ProdFawcett_Revision2019,3.2.4,59.960280095433795,
,,,,74,0,74,0,,,,,,,,,,,,,1623.9965873608598,None,,,,,,,,,,,,,,,,,,,,,,dozen,A_silent,74,102,1622.1827809915412,None,1622.1827809915412,None,1622.1827809915412,None,6,0.9109908564714715,1622.1827809915412,None,1623.1461703054374,None,1623.1461703054374,None,1623.6662794676377,None,1623.6662794676377,None,1623.6662794676377,None,r,0.2915649686474353,1623.6662794676377,None,base10,001,2019_Oct_29_1758,ProdFawcett_Revision2019,3.2.4,59.960280095433795,
,,,,75,0,75,0,,,,,,,,,,,,,1626.6640256267274,None,,,,,,,,,,,,,,,,,,,,,,escape,B_aloud1,75,118,1624.5145916526671,None,1624.5145916526671,None,1624.5145916526671,None,6,0.6592287118546665,1624.5145916526671,None,1625.2186673509423,None,1625.2186673509423,None,1625.7469555886928,None,1625.7469555886928,None,1625.7469555886928,None,r,0.8751757168211043,1625.7469555886928,None,base10,001,2019_Oct_29_1758,ProdFawcett_Revision2019,3.2.4,59.960280095433795,
,,,,76,0,76,0,,,,,,,,,,,,,1630.698519002297,None,,,,,,,,,,,,,,,,,,,,,,heavy,D_new,76,151,1627.180842196918,None,1627.180842196918,None,1627.180842196918,None,1,2.296363749424927,1627.180842196918,None,1629.5315739876823,None,1629.5315739876823,None,1630.04844840453,None,1630.04844840453,None,1630.04844840453,None,n,0.6045705043943599,1630.04844840453,None,base10,001,2019_Oct_29_1758,ProdFawcett_Revision2019,3.2.4,59.960280095433795,
,,,,77,0,77,0,,,,,,,,,,,,,1635.8000743298326,None,,,,,,,,,,,,,,,,,,,,,,colonel,D_new,77,55,1631.2165711886482,None,1631.2165711886482,None,1631.2165711886482,None,1,3.892836661078036,1631.2165711886482,None,1635.1665752317058,None,1635.1665752317058,None,1635.6834201032761,None,1635.6834201032761,None,1635.6834201032761,None,n,0.07415438198950142,1635.6834201032761,None,base10,001,2019_Oct_29_1758,ProdFawcett_Revision2019,3.2.4,59.960280095433795,
,,,,78,0,78,0,,,,,,,,,,,,,1640.7516355663538,None,,,,,,,,,,,,,,,,,,,,,,poetry,D_new,78,225,1636.3214085339569,None,1636.3214085339569,None,1636.3214085339569,None,6,2.883115942007862,1636.3214085339569,None,1639.2563687255606,None,1639.2563687255606,None,1639.784612178919,None,1639.784612178919,None,1639.784612178919,None,f,0.9247804316692054,1639.784612178919,None,base10,001,2019_Oct_29_1758,ProdFawcett_Revision2019,3.2.4,59.960280095433795,
,,,,79,0,79,0,,,,,,,,,,,,,1643.6525505380705,None,,,,,,,,,,,,,,,,,,,,,,write,D_new,79,358,1641.2687003172468,None,1641.2687003172468,None,1641.2687003172468,None,6,0.7601505256025121,1641.2687003172468,None,1642.0742663432611,None,1642.0742663432611,None,1642.6022106114542,None,1642.6022106114542,None,1642.6022106114542,None,r,1.0022214965429157,1642.6022106114542,None,base10,001,2019_Oct_29_1758,ProdFawcett_Revision2019,3.2.4,59.960280095433795,
,,,,80,0,80,0,,,,,,,,,,,,,1645.703252472449,None,,,,,,,,,,,,,,,,,,,,,,permit,C_aloud2,80,218,1644.1692647882737,None,1644.1692647882737,None,1644.1692647882737,None,6,0.659314859774895,1644.1692647882737,None,1644.8862287740922,None,1644.8862287740922,None,1645.4030873297015,None,1645.4030873297015,None,1645.4030873297015,None,r,0.26523760647978634,1645.4030873297015,None,base10,001,2019_Oct_29_1758,ProdFawcett_Revision2019,3.2.4,59.960280095433795,
,,,,81,0,81,0,,,,,,,,,,,,,1651.071503389976,None,,,,,,,,,,,,,,,,,,,,,,government,D_new,81,139,1646.2225153946783,None,1646.2225153946783,None,1646.2225153946783,None,5,3.5739326366456226,1646.2225153946783,None,1649.8442563911667,None,1649.8442563911667,None,1650.371615662123,None,1650.371615662123,None,1650.371615662123,None,f,0.6643876346061006,1650.371615662123,None,base10,001,2019_Oct_29_1758,ProdFawcett_Revision2019,3.2.4,59.960280095433795,
,,,,82,0,82,0,,,,,,,,,,,,,1654.3226522360928,None,,,,,,,,,,,,,,,,,,,,,,travel,D_new,82,338,1651.5895257199882,None,1651.5895257199882,None,1651.5895257199882,None,1,1.7826777384616435,1651.5895257199882,None,1653.4121695590438,None,1653.4121695590438,None,1653.939284070395,None,1653.939284070395,None,1653.939284070395,None,n,0.34463985823094845,1653.939284070395,None,base10,001,2019_Oct_29_1758,ProdFawcett_Revision2019,3.2.4,59.960280095433795,
,,,,83,0,83,0,,,,,,,,,,,,,1657.1566663556732,None,,,,,,,,,,,,,,,,,,,,,,clean,D_new,83,51,1654.8396271070233,None,1654.8396271070233,None,1654.8396271070233,None,6,1.4926758722867817,1654.8396271070233,None,1656.3802575106965,None,1656.3802575106965,None,1656.906756857643,None,1656.906756857643,None,1656.906756857643,None,r,0.21698046894744039,1656.906756857643,None,base10,001,2019_Oct_29_1758,ProdFawcett_Revision2019,3.2.4,59.960280095433795,
,,,,84,0,84,0,,,,,,,,,,,,,1661.1080279281596,None,,,,,,,,,,,,,,,,,,,,,,express,D_new,84,124,1657.674511102843,None,1657.674511102843,None,1657.674511102843,None,4,2.673552279593423,1657.674511102843,None,1660.407918143901,None,1660.407918143901,None,1660.9246746905847,None,1660.9246746905847,None,1660.9246746905847,None,f,0.1347039247630164,1660.9246746905847,None,base10,001,2019_Oct_29_1758,ProdFawcett_Revision2019,3.2.4,59.960280095433795,
,,,,85,0,85,0,,,,,,,,,,,,,1667.5600149282254,None,,,,,,,,,,,,,,,,,,,,,,report,B_aloud1,85,259,1661.6247661255766,None,1661.6247661255766,None,1661.6247661255766,None,6,4.346309012849815,1661.6247661255766,None,1666.014256702154,None,1666.014256702154,None,1666.5429526653606,None,1666.5429526653606,None,1666.5429526653606,None,r,0.9800528705818579,1666.5429526653606,None,base10,001,2019_Oct_29_1758,ProdFawcett_Revision2019,3.2.4,59.960280095433795,
,,,,86,0,86,0,,,,,,,,,,,,,1672.0613155439496,None,,,,,,,,,,,,,,,,,,,,,,orchestra,C_aloud2,86,206,1668.0772793431534,None,1668.0772793431534,None,1668.0772793431534,None,6,2.669447036110796,1668.0772793431534,None,1670.811006717733,None,1670.811006717733,None,1671.327935871086,None,1671.327935871086,None,1671.327935871086,None,r,0.6915382222505286,1671.327935871086,None,base10,001,2019_Oct_29_1758,ProdFawcett_Revision2019,3.2.4,59.960280095433795,
,,,,87,0,87,0,,,,,,,,,,,,,1676.1125440070173,None,,,,,,,,,,,,,,,,,,,,,,smooth,C_aloud2,87,292,1672.578283883864,None,1672.578283883864,None,1672.578283883864,None,6,1.8167431735200807,1672.578283883864,None,1674.445469303988,None,1674.445469303988,None,1674.9623872613302,None,1674.9623872613302,None,1674.9623872613302,None,r,1.1040421098005027,1674.9623872613302,None,base10,001,2019_Oct_29_1758,ProdFawcett_Revision2019,3.2.4,59.960280095433795,
,,,,88,0,88,0,,,,,,,,,,,,,1679.2803648068802,None,,,,,,,,,,,,,,,,,,,,,,division,D_new,88,101,1676.6293624432292,None,1676.6293624432292,None,1676.6293624432292,None,4,1.9417484606383368,1676.6293624432292,None,1678.6301778939087,None,1678.6301778939087,None,1679.1468330534408,None,1679.1468330534408,None,1679.1468330534408,None,f,0.08739348140079528,1679.1468330534408,None,base10,001,2019_Oct_29_1758,ProdFawcett_Revision2019,3.2.4,59.960280095433795,
,,,,89,0,89,0,,,,,,,,,,,,,1683.998436897411,None,,,,,,,,,,,,,,,,,,,,,,course,D_new,89,74,1679.7984076631255,None,1679.7984076631255,None,1679.7984076631255,None,5,2.9876068296143785,1679.7984076631255,None,1682.8480142439948,None,1682.8480142439948,None,1683.365145860589,None,1683.365145860589,None,1683.365145860589,None,f,0.5896236860426143,1683.365145860589,None,base10,001,2019_Oct_29_1758,ProdFawcett_Revision2019,3.2.4,59.960280095433795,
,,,,90,0,90,0,,,,,,,,,,,,,1688.6999443303794,None,,,,,,,,,,,,,,,,,,,,,,weight,A_silent,90,353,1684.5164010698209,None,1684.5164010698209,None,1684.5164010698209,None,6,2.661573365679942,1684.5164010698209,None,1687.2212626733817,None,1687.2212626733817,None,1687.7495869876584,None,1687.7495869876584,None,1687.7495869876584,None,r,0.9166116190608591,1687.7495869876584,None,base10,001,2019_Oct_29_1758,ProdFawcett_Revision2019,3.2.4,59.960280095433795,
,,,,91,0,91,0,,,,,,,,,,,,,1693.6181429993594,None,,,,,,,,,,,,,,,,,,,,,,master,C_aloud2,91,180,1689.216642408399,None,1689.216642408399,None,1689.216642408399,None,1,3.4492399079026654,1689.216642408399,None,1692.7177984076552,None,1692.7177984076552,None,1693.2346544753527,None,1693.2346544753527,None,1693.2346544753527,None,n,0.3347365801455453,1693.2346544753527,None,base10,001,2019_Oct_29_1758,ProdFawcett_Revision2019,3.2.4,59.960280095433795,
,,,,92,0,92,0,,,,,,,,,,,,,1696.6190651240759,None,,,,,,,,,,,,,,,,,,,,,,religion,B_aloud1,92,258,1694.1365472414764,None,1694.1365472414764,None,1694.1365472414764,None,6,1.560794613440521,1694.1365472414764,None,1695.7411096597789,None,1695.7411096597789,None,1696.268708714284,None,1696.268708714284,None,1696.268708714284,None,r,0.3170097032561898,1696.268708714284,None,base10,001,2019_Oct_29_1758,ProdFawcett_Revision2019,3.2.4,59.960280095433795,
,,,,93,0,93,0,,,,,,,,,,,,,1700.470132176415,None,,,,,,,,,,,,,,,,,,,,,,quantity,D_new,93,245,1697.1401371525135,None,1697.1401371525135,None,1697.1401371525135,None,1,2.357352739898488,1697.1401371525135,None,1699.553257137537,None,1699.553257137537,None,1700.0729812775971,None,1700.0729812775971,None,1700.0729812775971,None,n,0.36012346833013,1700.0729812775971,None,base10,001,2019_Oct_29_1758,ProdFawcett_Revision2019,3.2.4,59.960280095433795,
,,,,94,0,94,0,,,,,,,,,,,,,1704.92165515956,None,,,,,,,,,,,,,,,,,,,,,,surprise,D_new,94,317,1700.9871375256917,None,1700.9871375256917,None,1700.9871375256917,None,6,2.374262611148879,1700.9871375256917,None,1703.3953871991253,None,1703.3953871991253,None,1703.9211522672558,None,1703.9211522672558,None,1703.9211522672558,None,f,0.9600780617911369,1703.9211522672558,None,base10,001,2019_Oct_29_1758,ProdFawcett_Revision2019,3.2.4,59.960280095433795,
,,,,95,0,95,0,,,,,,,,,,,,,1708.4559457610594,None,,,,,,,,,,,,,,,,,,,,,,general,D_new,95,135,1705.4391164396657,None,1705.4391164396657,None,1705.4391164396657,None,6,1.801534179248847,1705.4391164396657,None,1707.294376749429,None,1707.294376749429,None,1707.8223869503709,None,1707.8223869503709,None,1707.8223869503709,None,r,0.5945639733690768,1707.8223869503709,None,base10,001,2019_Oct_29_1758,ProdFawcett_Revision2019,3.2.4,59.960280095433795,
,,,,96,0,96,0,,,,,,,,,,,,,1713.7743891895516,None,,,,,,,,,,,,,,,,,,,,,,track,D_new,96,334,1708.97280898178,None,1708.97280898178,None,1708.97280898178,None,3,2.019573303521611,1708.97280898178,None,1711.0568703738973,None,1711.0568703738973,None,1711.5736832120456,None,1711.5736832120456,None,1711.5736832120456,None,f,2.1626254898728803,1711.5736832120456,None,base10,001,2019_Oct_29_1758,ProdFawcett_Revision2019,3.2.4,59.960280095433795,
,,,,97,0,97,0,,,,,,,,,,,,,1716.5751433725236,None,,,,,,,,,,,,,,,,,,,,,,blind,B_aloud1,97,24,1714.2924202276627,None,1714.2924202276627,None,1714.2924202276627,None,6,1.5565226721810177,1714.2924202276627,None,1715.8979483112926,None,1715.8979483112926,None,1716.4252043291926,None,1716.4252043291926,None,1716.4252043291926,None,r,0.11127511353697628,1716.4252043291926,None,base10,001,2019_Oct_29_1758,ProdFawcett_Revision2019,3.2.4,59.960280095433795,
,,,,98,0,98,0,,,,,,,,,,,,,1719.0926774274558,None,,,,,,,,,,,,,,,,,,,,,,republic,B_aloud1,98,260,1717.0933644337347,None,1717.0933644337347,None,1717.0933644337347,None,6,1.146792622981593,1717.0933644337347,None,1718.2756515518995,None,1718.2756515518995,None,1718.7926167817786,None,1718.7926167817786,None,1718.7926167817786,None,r,0.2634844809072092,1718.7926167817786,None,base10,001,2019_Oct_29_1758,ProdFawcett_Revision2019,3.2.4,59.960280095433795,
,,,,99,0,99,0,,,,,,,,,,,,,1721.209969521733,None,,,,,,,,,,,,,,,,,,,,,,watch,B_aloud1,99,351,1719.6119095602771,None,1719.6119095602771,None,1719.6119095602771,None,6,0.6207314797211438,1719.6119095602771,None,1720.2811186788604,None,1720.2811186788604,None,1720.8097129439702,None,1720.8097129439702,None,1720.8097129439702,None,r,0.366574298706837,1720.8097129439702,None,base10,001,2019_Oct_29_1758,ProdFawcett_Revision2019,3.2.4,59.960280095433795,
,,,,100,0,100,0,,,,,,,,,,,,,1723.944159669103,None,,,,,,,,,,,,,,,,,,,,,,trend,A_silent,100,340,1721.7268262113212,None,1721.7268262113212,None,1721.7268262113212,None,4,1.5450174161233008,1721.7268262113212,None,1723.3273356347345,None,1723.3273356347345,None,1723.8440029234625,None,1723.8440029234625,None,1723.8440029234625,None,f,0.060077128815464675,1723.8440029234625,None,base10,001,2019_Oct_29_1758,ProdFawcett_Revision2019,3.2.4,59.960280095433795,
,,,,101,0,101,0,,,,,,,,,,,,,1730.7296569633763,None,,,,,,,,,,,,,,,,,,,,,,alert,A_silent,101,6,1724.4609948995057,None,1724.4609948995057,None,1724.4609948995057,None,6,4.906618461129256,1724.4609948995057,None,1729.4291136405664,None,1729.4291136405664,None,1729.9460695403395,None,1729.9460695403395,None,1729.9460695403395,None,f,0.7496522984001786,1729.9460695403395,None,base10,001,2019_Oct_29_1758,ProdFawcett_Revision2019,3.2.4,59.960280095433795,
,,,,102,0,102,0,,,,,,,,,,,,,1737.2649701436749,None,,,,,,,,,,,,,,,,,,,,,,universal,D_new,102,345,1731.247136903694,None,1731.247136903694,None,1731.247136903694,None,6,4.176283199572936,1731.247136903694,None,1735.4809336318867,None,1735.4809336318867,None,1735.9977934316266,None,1735.9977934316266,None,1735.9977934316266,None,f,1.2336132363416255,1735.9977934316266,None,base10,001,2019_Oct_29_1758,ProdFawcett_Revision2019,3.2.4,59.960280095433795,
,,,,103,0,103,0,,,,,,,,,,,,,1742.7333134291694,None,,,,,,,,,,,,,,,,,,,,,,edition,D_new,103,107,1737.7862552093575,None,1737.7862552093575,None,1737.7862552093575,None,3,3.700359208858572,1737.7862552093575,None,1741.5494992847089,None,1741.5494992847089,None,1742.0664819306694,None,1742.0664819306694,None,1742.0664819306694,None,f,0.6200475834775716,1742.0664819306694,None,base10,001,2019_Oct_29_1758,ProdFawcett_Revision2019,3.2.4,59.960280095433795,
,,,,104,0,104,0,,,,,,,,,,,,,1747.4846622503828,None,,,,,,,,,,,,,,,,,,,,,,hunger,D_new,104,155,1743.2501626547892,None,1743.2501626547892,None,1743.2501626547892,None,1,3.5642053866758943,1743.2501626547892,None,1746.857054487802,None,1746.857054487802,None,1747.3847135659307,None,1747.3847135659307,None,1747.3847135659307,None,n,0.061929775518365204,1747.3847135659307,None,base10,001,2019_Oct_29_1758,ProdFawcett_Revision2019,3.2.4,59.960280095433795,
,,,,105,0,105,0,,,,,,,,,,,,,1752.10275486717,None,,,,,,,,,,,,,,,,,,,,,,production,D_new,105,240,1748.0034490266116,None,1748.0034490266116,None,1748.0034490266116,None,5,2.4667189152678475,1748.0034490266116,None,1750.5232079990674,None,1750.5232079990674,None,1751.0526211358374,None,1751.0526211358374,None,1751.0526211358374,None,f,1.0175679542589933,1751.0526211358374,None,base10,001,2019_Oct_29_1758,ProdFawcett_Revision2019,3.2.4,59.960280095433795,
,,,,106,0,106,0,,,,,,,,,,,,,1757.137687068549,None,,,,,,,,,,,,,,,,,,,,,,atmosphere,A_silent,106,12,1752.6213416681858,None,1752.6213416681858,None,1752.6213416681858,None,6,2.5524643901735544,1752.6213416681858,None,1755.226959320833,None,1755.226959320833,None,1755.7539677800378,None,1755.7539677800378,None,1755.7539677800378,None,f,1.3404988492839038,1755.7539677800378,None,base10,001,2019_Oct_29_1758,ProdFawcett_Revision2019,3.2.4,59.960280095433795,
,,,,107,0,107,0,,,,,,,,,,,,,1761.0722155874828,None,,,,,,,,,,,,,,,,,,,,,,surface,D_new,107,316,1757.6544184238883,None,1757.6544184238883,None,1757.6544184238883,None,6,1.66325433854945,1757.6544184238883,None,1759.371821546345,None,1759.371821546345,None,1759.8885998631595,None,1759.8885998631595,None,1759.8885998631595,None,r,1.1491752192378044,1759.8885998631595,None,base10,001,2019_Oct_29_1758,ProdFawcett_Revision2019,3.2.4,59.960280095433795,
,,,,108,0,108,0,,,,,,,,,,,,,1764.9953716489254,None,,,,,,,,,,,,,,,,,,,,,,message,D_new,108,189,1761.5902562667616,None,1761.5902562667616,None,1761.5902562667616,None,6,2.6790452199056745,1761.5902562667616,None,1764.3233103191014,None,1764.3233103191014,None,1764.8401424395852,None,1764.8401424395852,None,1764.8401424395852,None,r,0.12565497285686433,1764.8401424395852,None,base10,001,2019_Oct_29_1758,ProdFawcett_Revision2019,3.2.4,59.960280095433795,
,,,,109,0,109,0,,,,,,,,,,,,,1767.2409354979172,None,,,,,,,,,,,,,,,,,,,,,,season,D_new,109,277,1765.523730484536,None,1765.523730484536,None,1765.523730484536,None,6,0.6256991353584453,1765.523730484536,None,1766.2072127885185,None,1766.2072127885185,None,1766.724119860679,None,1766.724119860679,None,1766.724119860679,None,r,0.48114573606289923,1766.724119860679,None,base10,001,2019_Oct_29_1758,ProdFawcett_Revision2019,3.2.4,59.960280095433795,
,,,,110,0,110,0,,,,,,,,,,,,,1771.6755818871316,None,,,,,,,,,,,,,,,,,,,,,,junior,D_new,110,167,1767.7618240343872,None,1767.7618240343872,None,1767.7618240343872,None,1,2.939549978240393,1767.7618240343872,None,1770.758518069284,None,1770.758518069284,None,1771.2755280836718,None,1771.2755280836718,None,1771.2755280836718,None,n,0.3533395533449948,1771.2755280836718,None,base10,001,2019_Oct_29_1758,ProdFawcett_Revision2019,3.2.4,59.960280095433795,
,,,,111,0,111,0,,,,,,,,,,,,,1778.2274986004923,None,,,,,,,,,,,,,,,,,,,,,,afternoon,A_silent,111,3,1772.1924606581451,None,1772.1924606581451,None,1772.1924606581451,None,3,5.300190023030154,1772.1924606581451,None,1777.5440399328945,None,1777.5440399328945,None,1778.06091839273,None,1778.06091839273,None,1778.06091839273,None,f,0.11954375810455531,1778.06091839273,None,base10,001,2019_Oct_29_1758,ProdFawcett_Revision2019,3.2.4,59.960280095433795,
,,,,112,0,112,0,,,,,,,,,,,,,1782.0455140884733,None,,,,,,,,,,,,,,,,,,,,,,audience,D_new,112,14,1778.744330098969,None,1778.744330098969,None,1778.744330098969,None,6,1.7564237730111927,1778.744330098969,None,1780.5617064750986,None,1780.5617064750986,None,1781.0783802948426,None,1781.0783802948426,None,1781.0783802948426,None,r,0.9341609131079167,1781.0783802948426,None,base10,001,2019_Oct_29_1758,ProdFawcett_Revision2019,3.2.4,59.960280095433795,
,,,,113,0,113,0,,,,,,,,,,,,,1785.3131196741015,None,,,,,,,,,,,,,,,,,,,,,,listen,C_aloud2,113,172,1782.5633152951486,None,1782.5633152951486,None,1782.5633152951486,None,6,1.5367957330308855,1782.5633152951486,None,1784.1628260869766,None,1784.1628260869766,None,1784.6795216769679,None,1784.6795216769679,None,1784.6795216769679,None,r,0.5887155564269051,1784.6795216769679,None,base10,001,2019_Oct_29_1758,ProdFawcett_Revision2019,3.2.4,59.960280095433795,
,,,,114,0,114,0,,,,,,,,,,,,,1788.8474547490478,None,,,,,,,,,,,,,,,,,,,,,,frank,D_new,114,133,1785.8314116440015,None,1785.8314116440015,None,1785.8314116440015,None,1,1.516588915954344,1785.8314116440015,None,1787.401790134958,None,1787.401790134958,None,1787.9138775891624,None,1787.9138775891624,None,1787.9138775891624,None,n,0.8981457983609289,1787.9138775891624,None,base10,001,2019_Oct_29_1758,ProdFawcett_Revision2019,3.2.4,59.960280095433795,
,,,,115,0,115,0,,,,,,,,,,,,,1792.7654649500037,None,,,,,,,,,,,,,,,,,,,,,,drink,B_aloud1,115,105,1789.364507992752,None,1789.364507992752,None,1789.364507992752,None,1,2.5117036760784686,1789.364507992752,None,1791.9319468806498,None,1791.9319468806498,None,1792.4485731169116,None,1792.4485731169116,None,1792.4485731169116,None,n,0.28361261426471174,1792.4485731169116,None,base10,001,2019_Oct_29_1758,ProdFawcett_Revision2019,3.2.4,59.960280095433795,
,,,,116,0,116,0,,,,,,,,,,,,,1796.0163525533862,None,,,,,,,,,,,,,,,,,,,,,,crisis,B_aloud1,116,79,1793.2822927163215,None,1793.2822927163215,None,1793.2822927163215,None,6,1.6419985071988776,1793.2822927163215,None,1794.9730142439948,None,1794.9730142439948,None,1795.4996364371618,None,1795.4996364371618,None,1795.4996364371618,None,r,0.47238352929707617,1795.4996364371618,None,base10,001,2019_Oct_29_1758,ProdFawcett_Revision2019,3.2.4,59.960280095433795,
,,,,117,0,117,0,,,,,,,,,,,,,1800.1009768613148,None,,,,,,,,,,,,,,,,,,,,,,emergency,D_new,117,110,1796.5331700566458,None,1796.5331700566458,None,1796.5331700566458,None,5,2.9429041487164795,1796.5331700566458,None,1799.5342013435438,None,1799.5342013435438,None,1800.0510748274392,None,1800.0510748274392,None,1800.0510748274392,None,r,0.016643341397866607,1800.0510748274392,None,base10,001,2019_Oct_29_1758,ProdFawcett_Revision2019,3.2.4,59.960280095433795,
,,,,118,0,118,0,,,,,,,,,,,,,1802.8519055171637,None,,,,,,,,,,,,,,,,,,,,,,business,D_new,118,38,1800.6178257759893,None,1800.6178257759893,None,1800.6178257759893,None,6,1.5532210611272603,1800.6178257759893,None,1802.2230282390956,None,1802.2230282390956,None,1802.73523511854,None,1802.73523511854,None,1802.73523511854,None,r,0.07626889343373477,1802.73523511854,None,base10,001,2019_Oct_29_1758,ProdFawcett_Revision2019,3.2.4,59.960280095433795,
,,,,119,0,119,0,,,,,,,,,,,,,1805.7528525223024,None,,,,,,,,,,,,,,,,,,,,,,worker,B_aloud1,119,356,1803.3690775642172,None,1803.3690775642172,None,1803.3690775642172,None,6,1.4179175220197067,1803.3690775642172,None,1804.8416542265331,None,1804.8416542265331,None,1805.369337873999,None,1805.369337873999,None,1805.369337873999,None,r,0.33754556195344776,1805.369337873999,None,base10,001,2019_Oct_29_1758,ProdFawcett_Revision2019,3.2.4,59.960280095433795,
,,,,120,0,120,0,,,,,,,,,,,,,1807.9368218573509,None,,,,,,,,,,,,,,,,,,,,,,pancakes,C_aloud2,120,210,1806.270309759304,None,1806.270309759304,None,1806.270309759304,None,6,1.0285612987354398,1806.270309759304,None,1807.3533949119737,None,1807.3533949119737,None,1807.870016172179,None,1807.870016172179,None,1807.870016172179,None,r,0.028878833050839603,1807.870016172179,None,base10,001,2019_Oct_29_1758,ProdFawcett_Revision2019,3.2.4,59.960280095433795,
,,,,121,0,121,0,,,,,,,,,,,,,1810.2374112085672,None,,,,,,,,,,,,,,,,,,,,,,couch,B_aloud1,121,70,1808.4544688063907,None,1808.4544688063907,None,1808.4544688063907,None,6,0.6443384959129617,1808.4544688063907,None,1809.1539096224587,None,1809.1539096224587,None,1809.6706142314943,None,1809.6706142314943,None,1809.6706142314943,None,r,0.5248385892482474,1809.6706142314943,None,base10,001,2019_Oct_29_1758,ProdFawcett_Revision2019,3.2.4,59.960280095433795,
,,,,122,0,122,0,,,,,,,,,,,,,1812.3714334141696,None,,,,,,,,,,,,,,,,,,,,,,interior,D_new,122,164,1810.7542069415795,None,1810.7542069415795,None,1810.7542069415795,None,6,0.7203526776283979,1810.7542069415795,None,1811.5378531442257,None,1811.5378531442257,None,1812.0547406232217,None,1812.0547406232217,None,1812.0547406232217,None,r,0.28399950230959803,1812.0547406232217,None,base10,001,2019_Oct_29_1758,ProdFawcett_Revision2019,3.2.4,59.960280095433795,
,,,,123,0,123,0,,,,,,,,,,,,,1814.5221179324435,None,,,,,,,,,,,,,,,,,,,,,,weather,C_aloud2,123,352,1812.8894109597895,None,1812.8894109597895,None,1812.8894109597895,None,6,0.9450827268883586,1812.8894109597895,None,1813.8784919449827,None,1813.8784919449827,None,1814.4054602849064,None,1814.4054602849064,None,1814.4054602849064,None,r,0.07736766804009676,1814.4054602849064,None,base10,001,2019_Oct_29_1758,ProdFawcett_Revision2019,3.2.4,59.960280095433795,
,,,,124,0,124,0,,,,,,,,,,,,,1816.8562887976877,None,,,,,,,,,,,,,,,,,,,,,,measure,A_silent,124,184,1815.0395465572365,None,1815.0395465572365,None,1815.0395465572365,None,6,0.7552130372496322,1815.0395465572365,None,1815.855872364249,None,1815.855872364249,None,1816.3727669963846,None,1816.3727669963846,None,1816.3727669963846,None,r,0.4455526528181508,1816.3727669963846,None,base10,001,2019_Oct_29_1758,ProdFawcett_Revision2019,3.2.4,59.960280095433795,
,,,,125,0,125,0,,,,,,,,,,,,,1821.924499906716,None,,,,,,,,,,,,,,,,,,,,,,husband,D_new,125,156,1817.3743294769665,None,1817.3743294769665,None,1817.3743294769665,None,2,2.9245894756168127,1817.3743294769665,None,1820.357296137372,None,1820.357296137372,None,1820.8741851713276,None,1820.8741851713276,None,1820.8741851713276,None,n,1.0162275299662724,1820.8741851713276,None,base10,001,2019_Oct_29_1758,ProdFawcett_Revision2019,3.2.4,59.960280095433795,
,,,,126,0,126,0,,,,,,,,,,,,,1824.5586328295758,None,,,,,,,,,,,,,,,,,,,,,,century,C_aloud2,126,45,1822.442298625363,None,1822.442298625363,None,1822.442298625363,None,6,1.4718856129329652,1822.442298625363,None,1823.9462368601235,None,1823.9462368601235,None,1824.4752578217303,None,1824.4752578217303,None,1824.4752578217303,None,r,0.046724824234843254,1824.4752578217303,None,base10,001,2019_Oct_29_1758,ProdFawcett_Revision2019,3.2.4,59.960280095433795,
,,,,127,0,127,0,,,,,,,,,,,,,1827.6595804565586,None,,,,,,,,,,,,,,,,,,,,,,trash,D_new,127,337,1825.075415189378,None,1825.075415189378,None,1825.075415189378,None,6,1.6623259936459363,1825.075415189378,None,1826.7926895564888,None,1826.7926895564888,None,1827.3097141879844,None,1827.3097141879844,None,1827.3097141879844,None,r,0.31641506508458406,1827.3097141879844,None,base10,001,2019_Oct_29_1758,ProdFawcett_Revision2019,3.2.4,59.960280095433795,
,,,,128,0,128,0,,,,,,,,,,,,,1831.1940523729427,None,,,,,,,,,,,,,,,,,,,,,,quick,A_silent,128,248,1828.1793577781646,None,1828.1793577781646,None,1828.1793577781646,None,6,1.9744059836957604,1828.1793577781646,None,1830.2103293525288,None,1830.2103293525288,None,1830.7286894321442,None,1830.7286894321442,None,1830.7286894321442,None,r,0.4168091061292216,1830.7286894321442,None,base10,001,2019_Oct_29_1758,ProdFawcett_Revision2019,3.2.4,59.960280095433795,
,,,,129,0,129,0,,,,,,,,,,,,,1836.5455828201957,None,,,,,,,,,,,,,,,,,,,,,,threat,C_aloud2,129,329,1831.7109392299317,None,1831.7109392299317,None,1831.7109392299317,None,4,4.202260682941414,1831.7109392299317,None,1835.9788091684459,None,1835.9788091684459,None,1836.4957109536044,None,1836.4957109536044,None,1836.4957109536044,None,f,0.00970641290768981,1836.4957109536044,None,base10,001,2019_Oct_29_1758,ProdFawcett_Revision2019,3.2.4,59.960280095433795,
,,,,130,0,130,0,,,,,,,,,,,,,1840.596947502694,None,,,,,,,,,,,,,,,,,,,,,,society,D_new,130,293,1837.0632580704987,None,1837.0632580704987,None,1837.0632580704987,None,4,2.594121726695448,1837.0632580704987,None,1839.7019854451064,None,1839.7019854451064,None,1840.2300525595201,None,1840.2300525595201,None,1840.2300525595201,None,f,0.3309874355327338,1840.2300525595201,None,base10,001,2019_Oct_29_1758,ProdFawcett_Revision2019,3.2.4,59.960280095433795,
,,,,131,0,131,0,,,,,,,,,,,,,1844.914835479227,None,,,,,,,,,,,,,,,,,,,,,,place,D_new,131,222,1841.1138032593299,None,1841.1138032593299,None,1841.1138032593299,None,5,3.0708372208755463,1841.1138032593299,None,1844.236311500892,None,1844.236311500892,None,1844.7647882067831,None,1844.7647882067831,None,1844.7647882067831,None,f,0.10870031721424311,1844.7647882067831,None,base10,001,2019_Oct_29_1758,ProdFawcett_Revision2019,3.2.4,59.960280095433795,
,,,,132,0,132,0,,,,,,,,,,,,,1849.8330702246167,None,,,,,,,,,,,,,,,,,,,,,,pattern,D_new,132,214,1845.4316654226277,None,1845.4316654226277,None,1845.4316654226277,None,6,2.9367692976957187,1845.4316654226277,None,1848.4326500591123,None,1848.4326500591123,None,1848.9495872986736,None,1848.9495872986736,None,1848.9495872986736,None,f,0.8348068669438362,1848.9495872986736,None,base10,001,2019_Oct_29_1758,ProdFawcett_Revision2019,3.2.4,59.960280095433795,
,,,,133,0,133,0,,,,,,,,,,,,,1853.801009205752,None,,,,,,,,,,,,,,,,,,,,,,meeting,A_silent,133,187,1850.349967966671,None,1850.349967966671,None,1850.349967966671,None,4,2.8104528207331896,1850.349967966671,None,1853.2053402375896,None,1853.2053402375896,None,1853.7342352429405,None,1853.7342352429405,None,1853.7342352429405,None,f,0.02648472972214222,1853.7342352429405,None,base10,001,2019_Oct_29_1758,ProdFawcett_Revision2019,3.2.4,59.960280095433795,
,,,,134,0,134,0,,,,,,,,,,,,,1857.6855523418635,None,,,,,,,,,,,,,,,,,,,,,,drove,D_new,134,106,1854.3182129750494,None,1854.3182129750494,None,1854.3182129750494,None,1,1.9298519623698667,1854.3182129750494,None,1856.2909398520133,None,1856.2909398520133,None,1856.8186350065516,None,1856.8186350065516,None,1856.8186350065516,None,n,0.8293375629000366,1856.8186350065516,None,base10,001,2019_Oct_29_1758,ProdFawcett_Revision2019,3.2.4,59.960280095433795,
,,,,135,0,135,0,,,,,,,,,,,,,1864.9877047956688,None,,,,,,,,,,,,,,,,,,,,,,story,B_aloud1,135,306,1858.202455682098,None,1858.202455682098,None,1858.202455682098,None,3,3.501518940087408,1858.202455682098,None,1861.7702086832142,None,1861.7702086832142,None,1862.2868921441259,None,1862.2868921441259,None,1862.2868921441259,None,f,2.6646871307166293,1862.2868921441259,None,base10,001,2019_Oct_29_1758,ProdFawcett_Revision2019,3.2.4,59.960280095433795,
,,,,136,0,136,0,,,,,,,,,,,,,1868.522142190719,None,,,,,,,,,,,,,,,,,,,,,,whole,D_new,136,355,1865.504616221995,None,1865.504616221995,None,1865.504616221995,None,1,2.054665049421601,1865.504616221995,None,1867.62202680856,None,1867.62202680856,None,1868.1387099582935,None,1868.1387099582935,None,1868.1387099582935,None,n,0.3413674815092236,1868.1387099582935,None,base10,001,2019_Oct_29_1758,ProdFawcett_Revision2019,3.2.4,59.960280095433795,
,,,,137,0,137,0,,,,,,,,,,,,,1873.0569104932947,None,,,,,,,,,,,,,,,,,,,,,,interview,C_aloud2,137,165,1869.0397157430416,None,1869.0397157430416,None,1869.0397157430416,None,6,1.951455184374936,1869.0397157430416,None,1871.0563211420085,None,1871.0563211420085,None,1871.5734524476575,None,1871.5734524476575,None,1871.5734524476575,None,r,1.450032655382529,1871.5734524476575,None,base10,001,2019_Oct_29_1758,ProdFawcett_Revision2019,3.2.4,59.960280095433795,
,,,,138,0,138,0,,,,,,,,,,,,,1878.108587734052,None,,,,,,,,,,,,,,,,,,,,,,account,B_aloud1,138,1,1873.5752948311856,None,1873.5752948311856,None,1873.5752948311856,None,6,2.7194815574912354,1873.5752948311856,None,1876.3580154880183,None,1876.3580154880183,None,1876.8748171300394,None,1876.8748171300394,None,1876.8748171300394,None,r,1.1878531442489475,1876.8748171300394,None,base10,001,2019_Oct_29_1758,ProdFawcett_Revision2019,3.2.4,59.960280095433795,
,,,,139,0,139,0,,,,,,,,,,,,,1880.4925194376847,None,,,,,,,,,,,,,,,,,,,,,,solution,B_aloud1,139,294,1878.6261146358447,None,1878.6261146358447,None,1878.6261146358447,None,6,0.8286387384869158,1878.6261146358447,None,1879.5089892393444,None,1879.5089892393444,None,1880.025789326406,None,1880.025789326406,None,1880.025789326406,None,r,0.428890340263024,1880.025789326406,None,base10,001,2019_Oct_29_1758,ProdFawcett_Revision2019,3.2.4,59.960280095433795,
,,,,140,0,140,0,,,,,,,,,,,,,1882.5099754307885,None,,,,,,,,,,,,,,,,,,,,,,hearing,A_silent,140,150,1881.0093111277092,None,1881.0093111277092,None,1881.0093111277092,None,6,0.6052584437420592,1881.0093111277092,None,1881.6763161659474,None,1881.6763161659474,None,1882.1931859178003,None,1882.1931859178003,None,1882.1931859178003,None,r,0.26926136715337634,1882.1931859178003,None,base10,001,2019_Oct_29_1758,ProdFawcett_Revision2019,3.2.4,59.960280095433795,
,,,,141,0,141,0,,,,,,,,,,,,,1886.627902593813,None,,,,,,,,,,,,,,,,,,,,,,spoke,D_new,141,300,1883.0271331716795,None,1883.0271331716795,None,1883.0271331716795,None,6,2.7870958511484787,1883.0271331716795,None,1885.8676366859581,None,1885.8676366859581,None,1886.3945151459193,None,1886.3945151459193,None,1886.3945151459193,None,r,0.18766654224600643,1886.3945151459193,None,base10,001,2019_Oct_29_1758,ProdFawcett_Revision2019,3.2.4,59.960280095433795,
,,,,142,0,142,0,,,,,,,,,,,,,1888.4951166262617,None,,,,,,,,,,,,,,,,,,,,,,literature,B_aloud1,142,173,1887.1460334639996,None,1887.1460334639996,None,1887.1460334639996,None,6,0.6281781427096575,1887.1460334639996,None,1887.828251228435,None,1887.828251228435,None,1888.3452814579941,None,1888.3452814579941,None,1888.3452814579941,None,r,0.10081513959448785,1888.3452814579941,None,base10,001,2019_Oct_29_1758,ProdFawcett_Revision2019,3.2.4,59.960280095433795,
,,,,143,0,143,0,,,,,,,,,,,,,1892.1462570753647,None,,,,,,,,,,,,,,,,,,,,,,welcome,D_new,143,354,1889.013240343309,None,1889.013240343309,None,1889.013240343309,None,2,2.473569384776056,1889.013240343309,None,1891.5460381290177,None,1891.5460381290177,None,1892.062908813823,None,1892.062908813823,None,1892.062908813823,None,n,0.039786962792277336,1892.062908813823,None,base10,001,2019_Oct_29_1758,ProdFawcett_Revision2019,3.2.4,59.960280095433795,
,,,,144,0,144,0,,,,,,,,,,,,,1895.6640250047203,None,,,,,,,,,,,,,,,,,,,,,,shear,D_new,144,283,1892.663322137203,None,1892.663322137203,None,1892.663322137203,None,1,1.750795857515186,1892.663322137203,None,1894.4523546060082,None,1894.4523546060082,None,1894.9803458356764,None,1894.9803458356764,None,1894.9803458356764,None,n,0.6422525969101116,1894.9803458356764,None,base10,001,2019_Oct_29_1758,ProdFawcett_Revision2019,3.2.4,59.960280095433795,
,,,,145,0,145,0,,,,,,,,,,,,,1898.948380294838,None,,,,,,,,,,,,,,,,,,,,,,speech,A_silent,145,298,1896.1809625552269,None,1896.1809625552269,None,1896.1809625552269,None,6,1.6414747775997967,1896.1809625552269,None,1897.8690452198498,None,1897.8690452198498,None,1898.398344218498,None,1898.398344218498,None,1898.398344218498,None,r,0.5031224731355906,1898.398344218498,None,base10,001,2019_Oct_29_1758,ProdFawcett_Revision2019,3.2.4,59.960280095433795,
,,,,146,0,146,0,,,,,,,,,,,,,1902.1492075636052,None,,,,,,,,,,,,,,,,,,,,,,strength,D_new,146,310,1899.4660738944076,None,1899.4660738944076,None,1899.4660738944076,None,6,1.4513998258626089,1899.4660738944076,None,1900.9821888412116,None,1900.9821888412116,None,1901.499182372354,None,1901.499182372354,None,1901.499182372354,None,r,0.6021160664968193,1901.499182372354,None,base10,001,2019_Oct_29_1758,ProdFawcett_Revision2019,3.2.4,59.960280095433795,
,,,,147,0,147,0,,,,,,,,,,,,,1907.1175847484265,None,,,,,,,,,,,,,,,,,,,,,,military,D_new,147,190,1902.6660064066527,None,1902.6660064066527,None,1902.6660064066527,None,5,3.2116545375902206,1902.6660064066527,None,1905.933809790411,None,1905.933809790411,None,1906.4506266716635,None,1906.4506266716635,None,1906.4506266716635,None,f,0.6184711077949032,1906.4506266716635,None,base10,001,2019_Oct_29_1758,ProdFawcett_Revision2019,3.2.4,59.960280095433795,
,,,,148,0,148,0,,,,,,,,,,,,,1912.1858219817514,None,,,,,,,,,,,,,,,,,,,,,,suggestion,D_new,148,314,1907.6361202339176,None,1907.6361202339176,None,1907.6361202339176,None,3,3.5610633202595636,1907.6361202339176,None,1911.2521341046086,None,1911.2521341046086,None,1911.7692330658901,None,1911.7692330658901,None,1911.7692330658901,None,f,0.37151738500688225,1911.7692330658901,None,base10,001,2019_Oct_29_1758,ProdFawcett_Revision2019,3.2.4,59.960280095433795,
,,,,149,0,149,0,,,,,,,,,,,,,1915.253388380981,None,,,,,,,,,,,,,,,,,,,,,,session,C_aloud2,149,281,1912.7031187410466,None,1912.7031187410466,None,1912.7031187410466,None,3,1.5583317782729864,1912.7031187410466,None,1914.309006344527,None,1914.309006344527,None,1914.8364247061545,None,1914.8364247061545,None,1914.8364247061545,None,f,0.36819338193163276,1914.8364247061545,None,base10,001,2019_Oct_29_1758,ProdFawcett_Revision2019,3.2.4,59.960280095433795,
,,,,150,0,150,0,,,,,,,,,,,,,1919.6547459103167,None,,,,,,,,,,,,,,,,,,,,,,minor,A_silent,150,191,1915.77015301364,None,1915.77015301364,None,1915.77015301364,None,5,2.2983914909418672,1915.77015301364,None,1918.120936119929,None,1918.120936119929,None,1918.637845680234,None,1918.637845680234,None,1918.637845680234,None,f,0.9753016731701791,1918.637845680234,None,base10,001,2019_Oct_29_1758,ProdFawcett_Revision2019,3.2.4,59.960280095433795,
,,,,151,0,151,0,,,,,,,,,,,,,1924.6562132239342,None,,,,,,,,,,,,,,,,,,,,,,range,D_new,151,251,1920.17153293523,None,1920.17153293523,None,1920.17153293523,None,3,3.6170389376347885,1920.17153293523,None,1923.839285625494,None,1923.839285625494,None,1924.3561395161087,None,1924.3561395161087,None,1924.3561395161087,None,f,0.26412732468452305,1924.3561395161087,None,base10,001,2019_Oct_29_1758,ProdFawcett_Revision2019,3.2.4,59.960280095433795,
