StudyTrials.thisRepN,StudyTrials.thisTrialN,StudyTrials.thisN,StudyTrials.thisIndex,TestTrials.thisRepN,TestTrials.thisTrialN,TestTrials.thisN,TestTrials.thisIndex,textWelcome.started,textWelcome.stopped,keyWelcome.keys,keyWelcome.rt,keyWelcome.started,keyWelcome.stopped,textReady.started,textReady.stopped,keyReady.keys,keyReady.rt,keyReady.started,keyReady.stopped,polyback_2.started,polyback_2.stopped,studyPic,studyWord,studyType,studyN,studyOrder,polyback_3.started,polyback_3.stopped,studyPicChoice.started,studyPicChoice.stopped,polyback_4.started,polyback_4.stopped,polyback.started,polyback.stopped,studyWords.started,studyWords.stopped,getResearcher.started,getResearcher.stopped,kPress2.keys,kPress2.rt,kPress2.started,kPress2.stopped,testWord,testType,testN,testOrder,polyback_5.started,polyback_5.stopped,testWords.started,testWords.stopped,textScale.started,textScale.stopped,keyConf.keys,keyConf.rt,keyConf.started,keyConf.stopped,polyback_6.started,polyback_6.stopped,studyWords_2.started,studyWords_2.stopped,polyback_7.started,polyback_7.stopped,testWords_2.started,testWords_2.stopped,textScale_2.started,textScale_2.stopped,keyRKN.keys,keyRKN.rt,keyRKN.started,keyRKN.stopped,participant,session,date,expName,psychopyVersion,frameRate,
,,,,,,,,31.33364029356744,None,space,4045.3457734651747,31.33364029356744,None,,,,,,,,,,,,,,,,,,,,,,,,,,,,,,,,,,,,,,,,,,,,,,,,,,,,,,,,,,sing21,001,2019_Nov_05_1359,ProdFawcett_Revision2019,3.2.4,59.90509528916813,
,,,,,,,,,,,,,,4076.6983202712145,None,space,16.21202929649735,4076.6983202712145,None,,,,,,,,,,,,,,,,,,,,,,,,,,,,,,,,,,,,,,,,,,,,,,,,,,,,sing21,001,2019_Nov_05_1359,ProdFawcett_Revision2019,3.2.4,59.90509528916813,
0,0,0,0,,,,,,,,,,,,,,,,,4097.721497480874,None,materials/singPic.jpg,benefit,C_sing,0,20,4094.1533952229656,None,4094.1533952229656,None,4094.971954655717,None,4095.237305778428,None,4095.237305778428,None,,,,,,,,,,,,,,,,,,,,,,,,,,,,,,,,,,,sing21,001,2019_Nov_05_1359,ProdFawcett_Revision2019,3.2.4,59.90509528916813,
1,0,1,0,,,,,,,,,,,,,,,,,4101.9894924426335,None,materials/singPic.jpg,research,C_sing,1,261,4098.307248864847,None,4098.307248864847,None,4099.238838091667,None,4099.505293276103,None,4099.505293276103,None,,,,,,,,,,,,,,,,,,,,,,,,,,,,,,,,,,,sing21,001,2019_Nov_05_1359,ProdFawcett_Revision2019,3.2.4,59.90509528916813,
2,0,2,0,,,,,,,,,,,,,,,,,4106.257486782386,None,materials/singPic.jpg,strain,C_sing,2,308,4102.572646638029,None,4102.572646638029,None,4103.506861354748,None,4103.773281395785,None,4103.773281395785,None,,,,,,,,,,,,,,,,,,,,,,,,,,,,,,,,,,,sing21,001,2019_Nov_05_1359,ProdFawcett_Revision2019,3.2.4,59.90509528916813,
3,0,3,0,,,,,,,,,,,,,,,,,4110.525451265799,None,materials/singPic.jpg,member,C_sing,3,188,4106.840631958679,None,4106.840631958679,None,4107.774750575365,None,4108.041227218986,None,4108.041227218986,None,,,,,,,,,,,,,,,,,,,,,,,,,,,,,,,,,,,sing21,001,2019_Nov_05_1359,ProdFawcett_Revision2019,3.2.4,59.90509528916813,
4,0,4,0,,,,,,,,,,,,,,,,,4114.793451203557,None,materials/singPic.jpg,material,C_sing,4,182,4111.116189898632,None,4111.116189898632,None,4112.042757044197,None,4112.309244573,None,4112.309244573,None,,,,,,,,,,,,,,,,,,,,,,,,,,,,,,,,,,,sing21,001,2019_Nov_05_1359,ProdFawcett_Revision2019,3.2.4,59.90509528916813,
5,0,5,0,,,,,,,,,,,,,,,,,4119.061627169256,None,materials/speakPic.jpg,motion,B_aloud,5,194,4115.428610126255,None,4115.428610126255,None,4116.310774087207,None,4116.577240778774,None,4116.577240778774,None,,,,,,,,,,,,,,,,,,,,,,,,,,,,,,,,,,,sing21,001,2019_Nov_05_1359,ProdFawcett_Revision2019,3.2.4,59.90509528916813,
6,0,6,0,,,,,,,,,,,,,,,,,4123.329438950052,None,materials/speakPic.jpg,expansion,B_aloud,6,123,4119.6283613236155,None,4119.6283613236155,None,4120.578719599405,None,4120.8452248554095,None,4120.8452248554095,None,,,,,,,,,,,,,,,,,,,,,,,,,,,,,,,,,,,sing21,001,2019_Nov_05_1359,ProdFawcett_Revision2019,3.2.4,59.90509528916813,
7,0,7,0,,,,,,,,,,,,,,,,,4127.597513839661,None,materials/singPic.jpg,column,C_sing,7,57,4123.931564346596,None,4123.931564346596,None,4124.846833053452,None,4125.1132073769695,None,4125.1132073769695,None,,,,,,,,,,,,,,,,,,,,,,,,,,,,,,,,,,,sing21,001,2019_Nov_05_1359,ProdFawcett_Revision2019,3.2.4,59.90509528916813,
8,0,8,0,,,,,,,,,,,,,,,,,4131.865405859309,None,materials/singPic.jpg,region,C_sing,8,256,4128.189090315369,None,4128.189090315369,None,4129.114710455935,None,4129.381210113817,None,4129.381210113817,None,,,,,,,,,,,,,,,,,,,,,,,,,,,,,,,,,,,sing21,001,2019_Nov_05_1359,ProdFawcett_Revision2019,3.2.4,59.90509528916813,
9,0,9,0,,,,,,,,,,,,,,,,,4136.133412639145,None,materials/speakPic.jpg,appearance,B_aloud,9,10,4132.454331031884,None,4132.454331031884,None,4133.382925608021,None,4133.633108788927,None,4133.633108788927,None,,,,,,,,,,,,,,,,,,,,,,,,,,,,,,,,,,,sing21,001,2019_Nov_05_1359,ProdFawcett_Revision2019,3.2.4,59.90509528916813,
10,0,10,0,,,,,,,,,,,,,,,,,4140.401383653691,None,materials/readPic.jpg,majority,A_silent,10,176,4136.734597561706,None,4136.734597561706,None,4137.650462150923,None,4137.917281520204,None,4137.917281520204,None,,,,,,,,,,,,,,,,,,,,,,,,,,,,,,,,,,,sing21,001,2019_Nov_05_1359,ProdFawcett_Revision2019,3.2.4,59.90509528916813,
11,0,11,0,,,,,,,,,,,,,,,,,4144.669378615392,None,materials/readPic.jpg,country,A_silent,11,73,4140.9749073210405,None,4140.9749073210405,None,4141.91841730423,None,4142.185187846015,None,4142.185187846015,None,,,,,,,,,,,,,,,,,,,,,,,,,,,,,,,,,,,sing21,001,2019_Nov_05_1359,ProdFawcett_Revision2019,3.2.4,59.90509528916813,
12,0,12,0,,,,,,,,,,,,,,,,,4148.937372644141,None,materials/singPic.jpg,colonel,C_sing,12,55,4145.287471543183,None,4145.287471543183,None,4146.186824345321,None,4146.453141133301,None,4146.453141133301,None,,,,,,,,,,,,,,,,,,,,,,,,,,,,,,,,,,,sing21,001,2019_Nov_05_1359,ProdFawcett_Revision2019,3.2.4,59.90509528916813,
13,0,13,0,,,,,,,,,,,,,,,,,4153.205357964791,None,materials/readPic.jpg,gesture,A_silent,13,137,4149.539121726702,None,4149.539121726702,None,4150.454399452661,None,4150.721142004128,None,4150.721142004128,None,,,,,,,,,,,,,,,,,,,,,,,,,,,,,,,,,,,sing21,001,2019_Nov_05_1359,ProdFawcett_Revision2019,3.2.4,59.90509528916813,
14,0,14,0,,,,,,,,,,,,,,,,,4157.473337998381,None,materials/singPic.jpg,chief,C_sing,14,48,4153.8068408285035,None,4153.8068408285035,None,4154.722390371317,None,4154.989118305675,None,4154.989118305675,None,,,,,,,,,,,,,,,,,,,,,,,,,,,,,,,,,,,sing21,001,2019_Nov_05_1359,ProdFawcett_Revision2019,3.2.4,59.90509528916813,
15,0,15,0,,,,,,,,,,,,,,,,,4161.741339180211,None,materials/speakPic.jpg,hunger,B_aloud,15,155,4158.074991291913,None,4158.074991291913,None,4158.990714063577,None,4159.257124774507,None,4159.257124774507,None,,,,,,,,,,,,,,,,,,,,,,,,,,,,,,,,,,,sing21,001,2019_Nov_05_1359,ProdFawcett_Revision2019,3.2.4,59.90509528916813,
16,0,16,0,,,,,,,,,,,,,,,,,4166.0093282329035,None,materials/singPic.jpg,edition,C_sing,16,107,4162.349894258892,None,4162.349894258892,None,4163.25868912111,None,4163.525123468309,None,4163.525123468309,None,,,,,,,,,,,,,,,,,,,,,,,,,,,,,,,,,,,sing21,001,2019_Nov_05_1359,ProdFawcett_Revision2019,3.2.4,59.90509528916813,
17,0,17,0,,,,,,,,,,,,,,,,,4170.277310132515,None,materials/speakPic.jpg,cross,B_aloud,17,80,4166.597289295285,None,4166.597289295285,None,4167.526764632727,None,4167.793081109645,None,4167.793081109645,None,,,,,,,,,,,,,,,,,,,,,,,,,,,,,,,,,,,sing21,001,2019_Nov_05_1359,ProdFawcett_Revision2019,3.2.4,59.90509528916813,
18,0,18,0,,,,,,,,,,,,,,,,,4174.545289855043,None,materials/speakPic.jpg,interview,B_aloud,18,165,4170.843759407871,None,4170.843759407871,None,4171.794338184991,None,4172.061086023517,None,4172.061086023517,None,,,,,,,,,,,,,,,,,,,,,,,,,,,,,,,,,,,sing21,001,2019_Nov_05_1359,ProdFawcett_Revision2019,3.2.4,59.90509528916813,
19,0,19,0,,,,,,,,,,,,,,,,,4178.813299122965,None,materials/readPic.jpg,public,A_silent,19,244,4175.146576475701,None,4175.146576475701,None,4176.0623331467505,None,4176.329068856139,None,4176.329068856139,None,,,,,,,,,,,,,,,,,,,,,,,,,,,,,,,,,,,sing21,001,2019_Nov_05_1359,ProdFawcett_Revision2019,3.2.4,59.90509528916813,
20,0,20,0,,,,,,,,,,,,,,,,,4183.0812847546185,None,materials/readPic.jpg,treatment,A_silent,20,339,4179.396429060143,None,4179.396429060143,None,4180.330331218487,None,4180.5970731479465,None,4180.5970731479465,None,,,,,,,,,,,,,,,,,,,,,,,,,,,,,,,,,,,sing21,001,2019_Nov_05_1359,ProdFawcett_Revision2019,3.2.4,59.90509528916813,
21,0,21,0,,,,,,,,,,,,,,,,,4187.3494585432345,None,materials/readPic.jpg,territory,A_silent,21,324,4183.652794986614,None,4183.652794986614,None,4184.59832027118,None,4184.8650587796,None,4184.8650587796,None,,,,,,,,,,,,,,,,,,,,,,,,,,,,,,,,,,,sing21,001,2019_Nov_05_1359,ProdFawcett_Revision2019,3.2.4,59.90509528916813,
22,0,22,0,,,,,,,,,,,,,,,,,4191.617253529897,None,materials/singPic.jpg,trend,C_sing,22,340,4187.967646016041,None,4187.967646016041,None,4188.866316787957,None,4189.1330378801795,None,4189.1330378801795,None,,,,,,,,,,,,,,,,,,,,,,,,,,,,,,,,,,,sing21,001,2019_Nov_05_1359,ProdFawcett_Revision2019,3.2.4,59.90509528916813,
23,0,23,0,,,,,,,,,,,,,,,,,4195.885250668682,None,materials/readPic.jpg,orchestra,A_silent,23,206,4192.255608633452,None,4192.255608633452,None,4193.13429184549,None,4193.40142750513,None,4193.40142750513,None,,,,,,,,,,,,,,,,,,,,,,,,,,,,,,,,,,,sing21,001,2019_Nov_05_1359,ProdFawcett_Revision2019,3.2.4,59.90509528916813,
24,0,24,0,,,,,,,,,,,,,,,,,4200.153231324279,None,materials/singPic.jpg,travel,C_sing,24,338,4196.491041861067,None,4196.491041861067,None,4197.402266281017,None,4197.669016296568,None,4197.669016296568,None,,,,,,,,,,,,,,,,,,,,,,,,,,,,,,,,,,,sing21,001,2019_Nov_05_1359,ProdFawcett_Revision2019,3.2.4,59.90509528916813,
25,0,25,0,,,,,,,,,,,,,,,,,4204.42136343848,None,materials/speakPic.jpg,session,B_aloud,25,281,4200.741292840685,None,4200.741292840685,None,4201.670629470667,None,4201.937002239225,None,4201.937002239225,None,,,,,,,,,,,,,,,,,,,,,,,,,,,,,,,,,,,sing21,001,2019_Nov_05_1359,ProdFawcett_Revision2019,3.2.4,59.90509528916813,
26,0,26,0,,,,,,,,,,,,,,,,,4208.6892299558385,None,materials/readPic.jpg,entrance,A_silent,26,115,4205.023572183854,None,4205.023572183854,None,4205.938250917476,None,4206.204990047903,None,4206.204990047903,None,,,,,,,,,,,,,,,,,,,,,,,,,,,,,,,,,,,sing21,001,2019_Nov_05_1359,ProdFawcett_Revision2019,3.2.4,59.90509528916813,
27,0,27,0,,,,,,,,,,,,,,,,,4212.957182310114,None,materials/speakPic.jpg,state,B_aloud,27,303,4209.281367481512,None,4209.281367481512,None,4210.206282888597,None,4210.47296977049,None,4210.47296977049,None,,,,,,,,,,,,,,,,,,,,,,,,,,,,,,,,,,,sing21,001,2019_Nov_05_1359,ProdFawcett_Revision2019,3.2.4,59.90509528916813,
28,0,28,0,,,,,,,,,,,,,,,,,4217.225181625923,None,materials/singPic.jpg,private,C_sing,28,237,4213.562783168512,None,4213.562783168512,None,4214.474276606343,None,4214.740967842285,None,4214.740967842285,None,,,,,,,,,,,,,,,,,,,,,,,,,,,,,,,,,,,sing21,001,2019_Nov_05_1359,ProdFawcett_Revision2019,3.2.4,59.90509528916813,
29,0,29,0,,,,,,,,,,,,,,,,,4221.49316134851,None,materials/readPic.jpg,thing,A_silent,29,328,4217.817599676549,None,4217.817599676549,None,4218.742206568364,None,4219.00894663186,None,4219.00894663186,None,,,,,,,,,,,,,,,,,,,,,,,,,,,,,,,,,,,sing21,001,2019_Nov_05_1359,ProdFawcett_Revision2019,3.2.4,59.90509528916813,
30,0,30,0,,,,,,,,,,,,,,,,,4225.761139827082,None,materials/speakPic.jpg,short,B_aloud,30,285,4222.094691795704,None,4222.094691795704,None,4223.010957890132,None,4223.276940038544,None,4223.276940038544,None,,,,,,,,,,,,,,,,,,,,,,,,,,,,,,,,,,,sing21,001,2019_Nov_05_1359,ProdFawcett_Revision2019,3.2.4,59.90509528916813,
31,0,31,0,,,,,,,,,,,,,,,,,4230.029177085264,None,materials/singPic.jpg,permit,C_sing,31,218,4226.365664614015,None,4226.365664614015,None,4227.278182185721,None,4227.544937488332,None,4227.544937488332,None,,,,,,,,,,,,,,,,,,,,,,,,,,,,,,,,,,,sing21,001,2019_Nov_05_1359,ProdFawcett_Revision2019,3.2.4,59.90509528916813,
32,0,32,0,,,,,,,,,,,,,,,,,4234.29712881759,None,materials/speakPic.jpg,alert,B_aloud,32,6,4230.617197238316,None,4230.617197238316,None,4231.5461849225685,None,4231.812936182134,None,4231.812936182134,None,,,,,,,,,,,,,,,,,,,,,,,,,,,,,,,,,,,sing21,001,2019_Nov_05_1359,ProdFawcett_Revision2019,3.2.4,59.90509528916813,
33,0,33,0,,,,,,,,,,,,,,,,,4238.56509205699,None,materials/singPic.jpg,income,C_sing,33,159,4234.915111650189,None,4234.915111650189,None,4235.814152516017,None,4236.080907507625,None,4236.080907507625,None,,,,,,,,,,,,,,,,,,,,,,,,,,,,,,,,,,,sing21,001,2019_Nov_05_1359,ProdFawcett_Revision2019,3.2.4,59.90509528916813,
34,0,34,0,,,,,,,,,,,,,,,,,4242.833095104783,None,materials/singPic.jpg,solution,C_sing,34,294,4239.155094855989,None,4239.155094855989,None,4240.082135970646,None,4240.348899670353,None,4240.348899670353,None,,,,,,,,,,,,,,,,,,,,,,,,,,,,,,,,,,,sing21,001,2019_Nov_05_1359,ProdFawcett_Revision2019,3.2.4,59.90509528916813,
35,0,35,0,,,,,,,,,,,,,,,,,4247.101089133532,None,materials/speakPic.jpg,command,B_aloud,35,60,4243.420506313385,None,4243.420506313385,None,4244.350157056644,None,4244.616879392939,None,4244.616879392939,None,,,,,,,,,,,,,,,,,,,,,,,,,,,,,,,,,,,sing21,001,2019_Nov_05_1359,ProdFawcett_Revision2019,3.2.4,59.90509528916813,
36,0,36,0,,,,,,,,,,,,,,,,,4251.369070100132,None,materials/speakPic.jpg,foundation,B_aloud,36,132,4247.667569509242,None,4247.667569509242,None,4248.618134913209,None,4248.884864402586,None,4248.884864402586,None,,,,,,,,,,,,,,,,,,,,,,,,,,,,,,,,,,,sing21,001,2019_Nov_05_1359,ProdFawcett_Revision2019,3.2.4,59.90509528916813,
37,0,37,0,,,,,,,,,,,,,,,,,4255.637064128881,None,materials/singPic.jpg,color,C_sing,37,56,4251.986944081611,None,4251.986944081611,None,4252.886179946479,None,4253.152856565255,None,4253.152856565255,None,,,,,,,,,,,,,,,,,,,,,,,,,,,,,,,,,,,sing21,001,2019_Nov_05_1359,ProdFawcett_Revision2019,3.2.4,59.90509528916813,
38,0,38,0,,,,,,,,,,,,,,,,,4259.9052242334,None,materials/readPic.jpg,phrase,A_silent,38,220,4256.238912421453,None,4256.238912421453,None,4257.154193257447,None,4257.420867077191,None,4257.420867077191,None,,,,,,,,,,,,,,,,,,,,,,,,,,,,,,,,,,,sing21,001,2019_Nov_05_1359,ProdFawcett_Revision2019,3.2.4,59.90509528916813,
39,0,39,0,,,,,,,,,,,,,,,,,4264.173327735276,None,materials/readPic.jpg,ground,A_silent,39,142,4260.4795891646645,None,4260.4795891646645,None,4261.422142812691,None,4261.688825029531,None,4261.688825029531,None,,,,,,,,,,,,,,,,,,,,,,,,,,,,,,,,,,,sing21,001,2019_Nov_05_1359,ProdFawcett_Revision2019,3.2.4,59.90509528916813,
40,0,40,0,,,,,,,,,,,,,,,,,4268.441054612165,None,materials/speakPic.jpg,grade,B_aloud,40,140,4264.757796852617,None,4264.757796852617,None,4265.690063133661,None,4265.956797910039,None,4265.956797910039,None,,,,,,,,,,,,,,,,,,,,,,,,,,,,,,,,,,,sing21,001,2019_Nov_05_1359,ProdFawcett_Revision2019,3.2.4,59.90509528916813,
41,0,41,0,,,,,,,,,,,,,,,,,4272.70903682278,None,materials/singPic.jpg,heavy,C_sing,41,151,4269.058987684257,None,4269.058987684257,None,4269.958076444629,None,4270.224804689933,None,4270.224804689933,None,,,,,,,,,,,,,,,,,,,,,,,,,,,,,,,,,,,sing21,001,2019_Nov_05_1359,ProdFawcett_Revision2019,3.2.4,59.90509528916813,
42,0,42,0,,,,,,,,,,,,,,,,,4276.97701685637,None,materials/speakPic.jpg,drama,B_aloud,42,103,4273.299668470456,None,4273.299668470456,None,4274.226071095327,None,4274.492799340689,None,4274.492799340689,None,,,,,,,,,,,,,,,,,,,,,,,,,,,,,,,,,,,sing21,001,2019_Nov_05_1359,ProdFawcett_Revision2019,3.2.4,59.90509528916813,
43,0,43,0,,,,,,,,,,,,,,,,,4281.245010574115,None,materials/readPic.jpg,harmony,A_silent,43,148,4277.568882876134,None,4277.568882876134,None,4278.494044908846,None,4278.76078030729,None,4278.76078030729,None,,,,,,,,,,,,,,,,,,,,,,,,,,,,,,,,,,,sing21,001,2019_Nov_05_1359,ProdFawcett_Revision2019,3.2.4,59.90509528916813,
44,0,44,0,,,,,,,,,,,,,,,,,4285.51299278473,None,materials/singPic.jpg,breath,C_sing,44,27,4281.863141444279,None,4281.863141444279,None,4282.762039559602,None,4283.028840579733,None,4283.028840579733,None,,,,,,,,,,,,,,,,,,,,,,,,,,,,,,,,,,,sing21,001,2019_Nov_05_1359,ProdFawcett_Revision2019,3.2.4,59.90509528916813,
45,0,45,0,,,,,,,,,,,,,,,,,4289.780972507317,None,materials/speakPic.jpg,dispute,B_aloud,45,99,4286.1153001181665,None,4286.1153001181665,None,4287.030497294269,None,4287.296768053726,None,4287.296768053726,None,,,,,,,,,,,,,,,,,,,,,,,,,,,,,,,,,,,sing21,001,2019_Nov_05_1359,ProdFawcett_Revision2019,3.2.4,59.90509528916813,
46,0,46,0,,,,,,,,,,,,,,,,,4294.048972445133,None,materials/readPic.jpg,debate,A_silent,46,87,4290.372966349416,None,4290.372966349416,None,4291.2980021148105,None,4291.564755240397,None,4291.564755240397,None,,,,,,,,,,,,,,,,,,,,,,,,,,,,,,,,,,,sing21,001,2019_Nov_05_1359,ProdFawcett_Revision2019,3.2.4,59.90509528916813,
47,0,47,0,,,,,,,,,,,,,,,,,4298.316956210707,None,materials/singPic.jpg,article,C_sing,47,11,4294.651945325604,None,4294.651945325604,None,4295.566034396936,None,4295.832732474955,None,4295.832732474955,None,,,,,,,,,,,,,,,,,,,,,,,,,,,,,,,,,,,sing21,001,2019_Nov_05_1359,ProdFawcett_Revision2019,3.2.4,59.90509528916813,
48,0,48,0,,,,,,,,,,,,,,,,,4302.58494090935,None,materials/singPic.jpg,corner,C_sing,48,69,4298.908718666411,None,4298.908718666411,None,4299.833984263241,None,4300.100720905641,None,4300.100720905641,None,,,,,,,,,,,,,,,,,,,,,,,,,,,,,,,,,,,sing21,001,2019_Nov_05_1359,ProdFawcett_Revision2019,3.2.4,59.90509528916813,
49,0,49,0,,,,,,,,,,,,,,,,,4306.8529371151235,None,materials/readPic.jpg,business,A_silent,49,38,4303.186769919761,None,4303.186769919761,None,4304.101953411708,None,4304.368698140199,None,4304.368698140199,None,,,,,,,,,,,,,,,,,,,,,,,,,,,,,,,,,,,sing21,001,2019_Nov_05_1359,ProdFawcett_Revision2019,3.2.4,59.90509528916813,
50,0,50,0,,,,,,,,,,,,,,,,,4311.120905641583,None,materials/speakPic.jpg,sweet,B_aloud,50,319,4307.444108664524,None,4307.444108664524,None,4308.369976985734,None,4308.6366990110255,None,4308.6366990110255,None,,,,,,,,,,,,,,,,,,,,,,,,,,,,,,,,,,,sing21,001,2019_Nov_05_1359,ProdFawcett_Revision2019,3.2.4,59.90509528916813,
51,0,51,0,,,,,,,,,,,,,,,,,4315.3889071344165,None,materials/speakPic.jpg,period,B_aloud,51,217,4311.687402189476,None,4311.687402189476,None,4312.637959818356,None,4312.904685264686,None,4312.904685264686,None,,,,,,,,,,,,,,,,,,,,,,,,,,,,,,,,,,,sing21,001,2019_Nov_05_1359,ProdFawcett_Revision2019,3.2.4,59.90509528916813,
52,0,52,0,,,,,,,,,,,,,,,,,4319.656899919151,None,materials/readPic.jpg,youth,A_silent,52,359,4315.990140884474,None,4315.990140884474,None,4316.905961000186,None,4317.172667786304,None,4317.172667786304,None,,,,,,,,,,,,,,,,,,,,,,,,,,,,,,,,,,,sing21,001,2019_Nov_05_1359,ProdFawcett_Revision2019,3.2.4,59.90509528916813,
53,0,53,0,,,,,,,,,,,,,,,,,4323.924875598692,None,materials/speakPic.jpg,month,B_aloud,53,193,4320.248083286686,None,4320.248083286686,None,4321.17393699073,None,4321.440656527935,None,4321.440656527935,None,,,,,,,,,,,,,,,,,,,,,,,,,,,,,,,,,,,sing21,001,2019_Nov_05_1359,ProdFawcett_Revision2019,3.2.4,59.90509528916813,
54,0,54,0,,,,,,,,,,,,,,,,,4328.19286869443,None,materials/singPic.jpg,afternoon,C_sing,54,3,4324.526084779471,None,4324.526084779471,None,4325.441918579338,None,4325.708643714606,None,4325.708643714606,None,,,,,,,,,,,,,,,,,,,,,,,,,,,,,,,,,,,sing21,001,2019_Nov_05_1359,ProdFawcett_Revision2019,3.2.4,59.90509528916813,
55,0,55,0,,,,,,,,,,,,,,,,,4332.460869565199,None,materials/speakPic.jpg,suspect,B_aloud,55,318,4328.794653853343,None,4328.794653853343,None,4329.70990234497,None,4329.976629968267,None,4329.976629968267,None,,,,,,,,,,,,,,,,,,,,,,,,,,,,,,,,,,,sing21,001,2019_Nov_05_1359,ProdFawcett_Revision2019,3.2.4,59.90509528916813,
56,0,56,0,,,,,,,,,,,,,,,,,4336.729094980401,None,materials/readPic.jpg,leader,A_silent,56,168,4333.062272501062,None,4333.062272501062,None,4333.977908191853,None,4334.244618709956,None,4334.244618709956,None,,,,,,,,,,,,,,,,,,,,,,,,,,,,,,,,,,,sing21,001,2019_Nov_05_1359,ProdFawcett_Revision2019,3.2.4,59.90509528916813,
57,0,57,0,,,,,,,,,,,,,,,,,4340.996822790301,None,materials/readPic.jpg,executive,A_silent,57,122,4337.31196833984,None,4337.31196833984,None,4338.245920880756,None,4338.51259034645,None,4338.51259034645,None,,,,,,,,,,,,,,,,,,,,,,,,,,,,,,,,,,,sing21,001,2019_Nov_05_1359,ProdFawcett_Revision2019,3.2.4,59.90509528916813,
58,0,58,0,,,,,,,,,,,,,,,,,4345.264785407751,None,materials/speakPic.jpg,people,B_aloud,58,216,4341.581986378063,None,4341.581986378063,None,4342.513881321123,None,4342.780592461291,None,4342.780592461291,None,,,,,,,,,,,,,,,,,,,,,,,,,,,,,,,,,,,sing21,001,2019_Nov_05_1359,ProdFawcett_Revision2019,3.2.4,59.90509528916813,
59,0,59,0,,,,,,,,,,,,,,,,,4349.532794675615,None,materials/singPic.jpg,exchange,C_sing,59,121,4345.88269795361,None,4345.88269795361,None,4346.781859177689,None,4347.048562853772,None,4347.048562853772,None,,,,,,,,,,,,,,,,,,,,,,,,,,,,,,,,,,,sing21,001,2019_Nov_05_1359,ProdFawcett_Revision2019,3.2.4,59.90509528916813,
60,0,60,0,,,,,,,,,,,,,,,,,4353.800789948378,None,materials/speakPic.jpg,tennis,B_aloud,60,323,4350.125806742522,None,4350.125806742522,None,4351.049848541385,None,4351.316559992556,None,4351.316559992556,None,,,,,,,,,,,,,,,,,,,,,,,,,,,,,,,,,,,sing21,001,2019_Nov_05_1359,ProdFawcett_Revision2019,3.2.4,59.90509528916813,
61,0,61,0,,,,,,,,,,,,,,,,,4358.068785843148,None,materials/singPic.jpg,voice,C_sing,61,348,4354.402352428937,None,4354.402352428937,None,4355.317842881137,None,4355.584557131282,None,4355.584557131282,None,,,,,,,,,,,,,,,,,,,,,,,,,,,,,,,,,,,sing21,001,2019_Nov_05_1359,ProdFawcett_Revision2019,3.2.4,59.90509528916813,
62,0,62,0,,,,,,,,,,,,,,,,,4362.336763699714,None,materials/readPic.jpg,service,A_silent,62,280,4358.670670834137,None,4358.670670834137,None,4359.585864278139,None,4359.852539030893,None,4359.852539030893,None,,,,,,,,,,,,,,,,,,,,,,,,,,,,,,,,,,,sing21,001,2019_Nov_05_1359,ProdFawcett_Revision2019,3.2.4,59.90509528916813,
63,0,63,0,,,,,,,,,,,,,,,,,4366.604752130399,None,materials/readPic.jpg,answer,A_silent,63,8,4362.920218946296,None,4362.920218946296,None,4363.853799527278,None,4364.120532437635,None,4364.120532437635,None,,,,,,,,,,,,,,,,,,,,,,,,,,,,,,,,,,,sing21,001,2019_Nov_05_1359,ProdFawcett_Revision2019,3.2.4,59.90509528916813,
64,0,64,0,,,,,,,,,,,,,,,,,4370.872755489196,None,materials/readPic.jpg,title,A_silent,64,331,4367.1878733594785,None,4367.1878733594785,None,4368.12178764696,None,4368.388523045345,None,4368.388523045345,None,,,,,,,,,,,,,,,,,,,,,,,,,,,,,,,,,,,sing21,001,2019_Nov_05_1359,ProdFawcett_Revision2019,3.2.4,59.90509528916813,
65,0,65,0,,,,,,,,,,,,,,,,,4375.14073241275,None,materials/readPic.jpg,personnel,A_silent,65,219,4371.44672762329,None,4371.44672762329,None,4372.389818063064,None,4372.656526093197,None,4372.656526093197,None,,,,,,,,,,,,,,,,,,,,,,,,,,,,,,,,,,,sing21,001,2019_Nov_05_1359,ProdFawcett_Revision2019,3.2.4,59.90509528916813,
66,0,66,0,,,,,,,,,,,,,,,,,4379.408696274157,None,materials/speakPic.jpg,error,B_aloud,66,117,4375.742388505314,None,4375.742388505314,None,4376.657769795333,None,4376.92451421282,None,4376.92451421282,None,,,,,,,,,,,,,,,,,,,,,,,,,,,,,,,,,,,sing21,001,2019_Nov_05_1359,ProdFawcett_Revision2019,3.2.4,59.90509528916813,
67,0,67,0,,,,,,,,,,,,,,,,,4383.676710518135,None,materials/speakPic.jpg,emergency,B_aloud,67,110,4379.978216085117,None,4379.978216085117,None,4380.925779374258,None,4381.192523169739,None,4381.192523169739,None,,,,,,,,,,,,,,,,,,,,,,,,,,,,,,,,,,,sing21,001,2019_Nov_05_1359,ProdFawcett_Revision2019,3.2.4,59.90509528916813,
68,0,68,0,,,,,,,,,,,,,,,,,4387.944694594771,None,materials/speakPic.jpg,track,B_aloud,68,334,4384.2431986689335,None,4384.2431986689335,None,4385.193754120788,None,4385.460484543117,None,4385.460484543117,None,,,,,,,,,,,,,,,,,,,,,,,,,,,,,,,,,,,sing21,001,2019_Nov_05_1359,ProdFawcett_Revision2019,3.2.4,59.90509528916813,
69,0,69,0,,,,,,,,,,,,,,,,,4392.2126783604035,None,materials/readPic.jpg,junior,A_silent,69,167,4388.533970268094,None,4388.533970268094,None,4389.461761833692,None,4389.7284813708975,None,4389.7284813708975,None,,,,,,,,,,,,,,,,,,,,,,,,,,,,,,,,,,,sing21,001,2019_Nov_05_1359,ProdFawcett_Revision2019,3.2.4,59.90509528916813,
70,0,70,0,,,,,,,,,,,,,,,,,4396.480670834135,None,materials/singPic.jpg,instrument,C_sing,70,163,4392.83090968465,None,4392.83090968465,None,4393.7297875847435,None,4393.996480375703,None,4393.996480375703,None,,,,,,,,,,,,,,,,,,,,,,,,,,,,,,,,,,,sing21,001,2019_Nov_05_1359,ProdFawcett_Revision2019,3.2.4,59.90509528916813,
71,0,71,0,,,,,,,,,,,,,,,,,4400.748666417843,None,materials/speakPic.jpg,pretty,B_aloud,71,233,4397.073279218748,None,4397.073279218748,None,4397.997724388901,None,4398.264473782445,None,4398.264473782445,None,,,,,,,,,,,,,,,,,,,,,,,,,,,,,,,,,,,sing21,001,2019_Nov_05_1359,ProdFawcett_Revision2019,3.2.4,59.90509528916813,
72,0,72,0,,,,,,,,,,,,,,,,,4405.016646451433,None,materials/readPic.jpg,symbol,A_silent,72,321,4401.350019593199,None,4401.350019593199,None,4402.265740498842,None,4402.532465945114,None,4402.532465945114,None,,,,,,,,,,,,,,,,,,,,,,,,,,,,,,,,,,,sing21,001,2019_Nov_05_1359,ProdFawcett_Revision2019,3.2.4,59.90509528916813,
73,0,73,0,,,,,,,,,,,,,,,,,4409.2846243079985,None,materials/readPic.jpg,fashion,A_silent,73,125,4405.60721496545,None,4405.60721496545,None,4406.533692542114,None,4406.800462772895,None,4406.800462772895,None,,,,,,,,,,,,,,,,,,,,,,,,,,,,,,,,,,,sing21,001,2019_Nov_05_1359,ProdFawcett_Revision2019,3.2.4,59.90509528916813,
74,0,74,0,,,,,,,,,,,,,,,,,4413.5527318529785,None,materials/singPic.jpg,cousin,C_sing,74,76,4409.902786589519,None,4409.902786589519,None,4410.801708652114,None,4411.0684611556935,None,4411.0684611556935,None,,,,,,,,,,,,,,,,,,,,,,,,,,,,,,,,,,,sing21,001,2019_Nov_05_1359,ProdFawcett_Revision2019,3.2.4,59.90509528916813,
75,0,75,0,,,,,,,,,,,,,,,,,4417.8206089444575,None,materials/speakPic.jpg,mankind,B_aloud,75,178,4414.145046028483,None,4414.145046028483,None,4415.06968215463,None,4415.336446476344,None,4415.336446476344,None,,,,,,,,,,,,,,,,,,,,,,,,,,,,,,,,,,,sing21,001,2019_Nov_05_1359,ProdFawcett_Revision2019,3.2.4,59.90509528916813,
76,0,76,0,,,,,,,,,,,,,,,,,4422.088576226903,None,materials/speakPic.jpg,career,B_aloud,76,42,4418.387104248279,None,4418.387104248279,None,4419.337663432234,None,4419.604577035527,None,4419.604577035527,None,,,,,,,,,,,,,,,,,,,,,,,,,,,,,,,,,,,sing21,001,2019_Nov_05_1359,ProdFawcett_Revision2019,3.2.4,59.90509528916813,
77,0,77,0,,,,,,,,,,,,,,,,,4426.356581762782,None,materials/readPic.jpg,level,A_silent,77,170,4422.689823350112,None,4422.689823350112,None,4423.605680475186,None,4423.872415251622,None,4423.872415251622,None,,,,,,,,,,,,,,,,,,,,,,,,,,,,,,,,,,,sing21,001,2019_Nov_05_1359,ProdFawcett_Revision2019,3.2.4,59.90509528916813,
78,0,78,0,,,,,,,,,,,,,,,,,4430.624556198309,None,materials/readPic.jpg,express,A_silent,78,124,4426.93972040806,None,4426.93972040806,None,4427.873641226615,None,4428.1403859551065,None,4428.1403859551065,None,,,,,,,,,,,,,,,,,,,,,,,,,,,,,,,,,,,sing21,001,2019_Nov_05_1359,ProdFawcett_Revision2019,3.2.4,59.90509528916813,
79,0,79,0,,,,,,,,,,,,,,,,,4434.893898115319,None,materials/speakPic.jpg,curve,B_aloud,79,82,4431.2097340921755,None,4431.2097340921755,None,4432.141665422649,None,4432.408556633687,None,4432.408556633687,None,,,,,,,,,,,,,,,,,,,,,,,,,,,,,,,,,,,sing21,001,2019_Nov_05_1359,ProdFawcett_Revision2019,3.2.4,59.90509528916813,
80,0,80,0,,,,,,,,,,,,,,,,,4439.160535858653,None,materials/readPic.jpg,property,A_silent,80,242,4435.484098090441,None,4435.484098090441,None,4436.409764259472,None,4436.676380854624,None,4436.676380854624,None,,,,,,,,,,,,,,,,,,,,,,,,,,,,,,,,,,,sing21,001,2019_Nov_05_1359,ProdFawcett_Revision2019,3.2.4,59.90509528916813,
81,0,81,0,,,,,,,,,,,,,,,,,4443.428519313282,None,materials/readPic.jpg,mechanical,A_silent,81,185,4439.744070100132,None,4439.744070100132,None,4440.677613049687,None,4440.9444221558515,None,4440.9444221558515,None,,,,,,,,,,,,,,,,,,,,,,,,,,,,,,,,,,,sing21,001,2019_Nov_05_1359,ProdFawcett_Revision2019,3.2.4,59.90509528916813,
82,0,82,0,,,,,,,,,,,,,,,,,4447.6965148970485,None,materials/speakPic.jpg,capital,B_aloud,82,40,4444.0177766374545,None,4444.0177766374545,None,4444.94560303539,None,4445.212346208864,None,4445.212346208864,None,,,,,,,,,,,,,,,,,,,,,,,,,,,,,,,,,,,sing21,001,2019_Nov_05_1359,ProdFawcett_Revision2019,3.2.4,59.90509528916813,
83,0,83,0,,,,,,,,,,,,,,,,,4451.964497107663,None,materials/singPic.jpg,discussion,C_sing,83,96,4448.302345275879,None,4448.302345275879,None,4449.213608882274,None,4449.480361696857,None,4449.480361696857,None,,,,,,,,,,,,,,,,,,,,,,,,,,,,,,,,,,,sing21,001,2019_Nov_05_1359,ProdFawcett_Revision2019,3.2.4,59.90509528916813,
84,0,84,0,,,,,,,,,,,,,,,,,4456.232617714733,None,materials/singPic.jpg,institute,C_sing,84,162,4452.564325744868,None,4452.564325744868,None,4453.481573054683,None,4453.748332089337,None,4453.748332089337,None,,,,,,,,,,,,,,,,,,,,,,,,,,,,,,,,,,,sing21,001,2019_Nov_05_1359,ProdFawcett_Revision2019,3.2.4,59.90509528916813,
85,0,85,0,,,,,,,,,,,,,,,,,4460.500473036023,None,materials/singPic.jpg,drink,C_sing,85,105,4456.820626671659,None,4456.820626671659,None,4457.749582011544,None,4458.016330783081,None,4458.016330783081,None,,,,,,,,,,,,,,,,,,,,,,,,,,,,,,,,,,,sing21,001,2019_Nov_05_1359,ProdFawcett_Revision2019,3.2.4,59.90509528916813,
86,0,86,0,,,,,,,,,,,,,,,,,4464.768485724926,None,materials/singPic.jpg,listen,C_sing,86,172,4461.086748771544,None,4461.086748771544,None,4462.017493313411,None,4462.2844019406475,None,4462.2844019406475,None,,,,,,,,,,,,,,,,,,,,,,,,,,,,,,,,,,,sing21,001,2019_Nov_05_1359,ProdFawcett_Revision2019,3.2.4,59.90509528916813,
87,0,87,0,,,,,,,,,,,,,,,,,4469.036463270488,None,materials/readPic.jpg,dance,A_silent,87,84,4465.40370311623,None,4465.40370311623,None,4466.285543011734,None,4466.552293649293,None,4466.552293649293,None,,,,,,,,,,,,,,,,,,,,,,,,,,,,,,,,,,,sing21,001,2019_Nov_05_1359,ProdFawcett_Revision2019,3.2.4,59.90509528916813,
88,0,88,0,,,,,,,,,,,,,,,,,4473.304450457159,None,materials/readPic.jpg,subject,A_silent,88,312,4469.620075262792,None,4469.620075262792,None,4470.553549169621,None,4470.820332151547,None,4470.820332151547,None,,,,,,,,,,,,,,,,,,,,,,,,,,,,,,,,,,,sing21,001,2019_Nov_05_1359,ProdFawcett_Revision2019,3.2.4,59.90509528916813,
89,0,89,0,,,,,,,,,,,,,,,,,4477.572588169423,None,materials/speakPic.jpg,nation,B_aloud,89,198,4473.893696896208,None,4473.893696896208,None,4474.821591403859,None,4475.071471667616,None,4475.071471667616,None,,,,,,,,,,,,,,,,,,,,,,,,,,,,,,,,,,,sing21,001,2019_Nov_05_1359,ProdFawcett_Revision2019,3.2.4,59.90509528916813,
,,,,,,,,,,,,,,,,,,,,,,,,,,,,,,,,,,,,,4478.072657523153,None,k,86.65039030910702,4478.072657523153,None,,,,,,,,,,,,,,,,,,,,,,,,,,,,,sing21,001,2019_Nov_05_1359,ProdFawcett_Revision2019,3.2.4,59.90509528916813,
,,,,,,,,,,,,,,4564.749453256198,None,space,9.893023885088041,4564.749453256198,None,,,,,,,,,,,,,,,,,,,,,,,,,,,,,,,,,,,,,,,,,,,,,,,,,,,,sing21,001,2019_Nov_05_1359,ProdFawcett_Revision2019,3.2.4,59.90509528916813,
,,,,0,0,0,0,,,,,,,,,,,,,4583.20658891584,None,,,,,,,,,,,,,,,,,,,,,,research,C_sing,0,261,4575.189920072153,None,4575.189920072153,None,4575.189920072153,None,6,4.683980842237361,4575.189920072153,None,4579.926378988603,None,4579.926378988603,None,4580.456494059821,None,4580.456494059821,None,4580.456494059821,None,r,2.706181812507566,4580.456494059821,None,sing21,001,2019_Nov_05_1359,ProdFawcett_Revision2019,3.2.4,59.90509528916813,
,,,,1,0,1,0,,,,,,,,,,,,,4590.290473347006,None,,,,,,,,,,,,,,,,,,,,,,display,D_new,1,98,4583.738536729477,None,4583.738536729477,None,4583.738536729477,None,3,4.583131803199649,4583.738536729477,None,4588.373249984463,None,4588.373249984463,None,4588.890346768661,None,4588.890346768661,None,4588.890346768661,None,f,1.3672311376431026,4588.890346768661,None,sing21,001,2019_Nov_05_1359,ProdFawcett_Revision2019,3.2.4,59.90509528916813,
,,,,2,0,2,0,,,,,,,,,,,,,4594.641954344697,None,,,,,,,,,,,,,,,,,,,,,,cousin,C_sing,2,76,4590.807427380758,None,4590.807427380758,None,4590.807427380758,None,6,2.35374447965296,4590.807427380758,None,4593.224727250112,None,4593.224727250112,None,4593.741593580868,None,4593.741593580868,None,4593.741593580868,None,r,0.85157056665048,4593.741593580868,None,sing21,001,2019_Nov_05_1359,ProdFawcett_Revision2019,3.2.4,59.90509528916813,
,,,,3,0,3,0,,,,,,,,,,,,,4601.310679853195,None,,,,,,,,,,,,,,,,,,,,,,treatment,A_silent,3,339,4595.159642346203,None,4595.159642346203,None,4595.159642346203,None,1,2.809581389592495,4595.159642346203,None,4598.026332960115,None,4598.026332960115,None,4598.543141133268,None,4598.543141133268,None,4598.543141133268,None,n,2.729752130340785,4598.543141133268,None,sing21,001,2019_Nov_05_1359,ProdFawcett_Revision2019,3.2.4,59.90509528916813,
,,,,4,0,4,0,,,,,,,,,,,,,4606.27878926415,None,,,,,,,,,,,,,,,,,,,,,,report,D_new,4,259,4601.8274678111775,None,4601.8274678111775,None,4601.8274678111775,None,3,2.4851166262524202,4601.8274678111775,None,4604.365849972004,None,4604.365849972004,None,4604.895129688375,None,4604.895129688375,None,4604.895129688375,None,f,1.3372725010849535,4604.895129688375,None,sing21,001,2019_Nov_05_1359,ProdFawcett_Revision2019,3.2.4,59.90509528916813,
,,,,5,0,5,0,,,,,,,,,,,,,4611.980613298481,None,,,,,,,,,,,,,,,,,,,,,,number,D_new,5,203,4606.795732723782,None,4606.795732723782,None,4606.795732723782,None,2,3.412603719625622,4606.795732723782,None,4610.263341108395,None,4610.263341108395,None,4610.780146171572,None,4610.780146171572,None,4610.780146171572,None,f,1.1566162841627374,4610.780146171572,None,sing21,001,2019_Nov_05_1359,ProdFawcett_Revision2019,3.2.4,59.90509528916813,
,,,,6,0,6,0,,,,,,,,,,,,,4616.965710642515,None,,,,,,,,,,,,,,,,,,,,,,title,A_silent,6,331,4612.497403433488,None,4612.497403433488,None,4612.497403433488,None,1,2.06259718851652,4612.497403433488,None,4614.61466442747,None,4614.61466442747,None,4615.131642408436,None,4615.131642408436,None,4615.131642408436,None,n,1.7881949368747883,4615.131642408436,None,sing21,001,2019_Nov_05_1359,ProdFawcett_Revision2019,3.2.4,59.90509528916813,
,,,,7,0,7,0,,,,,,,,,,,,,4623.450887603394,None,,,,,,,,,,,,,,,,,,,,,,search,D_new,7,276,4617.482344342861,None,4617.482344342861,None,4617.482344342861,None,3,4.029248616017867,4617.482344342861,None,4621.5669624307775,None,4621.5669624307775,None,4622.0836555327405,None,4622.0836555327405,None,4622.0836555327405,None,f,1.324773589556571,4622.0836555327405,None,sing21,001,2019_Nov_05_1359,ProdFawcett_Revision2019,3.2.4,59.90509528916813,
,,,,8,0,8,0,,,,,,,,,,,,,4629.285891646461,None,,,,,,,,,,,,,,,,,,,,,,gesture,A_silent,8,137,4623.968452136614,None,4623.968452136614,None,4623.968452136614,None,1,2.711234683112707,4623.968452136614,None,4626.735038875428,None,4626.735038875428,None,4627.252075013996,None,4627.252075013996,None,4627.252075013996,None,n,1.9951853579841554,4627.252075013996,None,sing21,001,2019_Nov_05_1359,ProdFawcett_Revision2019,3.2.4,59.90509528916813,
,,,,9,0,9,0,,,,,,,,,,,,,4633.9373098214855,None,,,,,,,,,,,,,,,,,,,,,,property,A_silent,9,242,4629.804788517766,None,4629.804788517766,None,4629.804788517766,None,6,2.090861168107949,4629.804788517766,None,4631.953348883486,None,4631.953348883486,None,4632.470231075422,None,4632.470231075422,None,4632.470231075422,None,r,1.4330851527047344,4632.470231075422,None,sing21,001,2019_Nov_05_1359,ProdFawcett_Revision2019,3.2.4,59.90509528916813,
,,,,10,0,10,0,,,,,,,,,,,,,4638.53884990979,None,,,,,,,,,,,,,,,,,,,,,,direction,D_new,10,94,4634.454519188905,None,4634.454519188905,None,4634.454519188905,None,1,2.48810039187083,4634.454519188905,None,4637.005018660217,None,4637.005018660217,None,4637.521911426273,None,4637.521911426273,None,4637.521911426273,None,n,0.9807877713465132,4637.521911426273,None,sing21,001,2019_Nov_05_1359,ProdFawcett_Revision2019,3.2.4,59.90509528916813,
,,,,11,0,11,0,,,,,,,,,,,,,4643.556983890012,None,,,,,,,,,,,,,,,,,,,,,,present,D_new,11,231,4639.055657771998,None,4639.055657771998,None,4639.055657771998,None,3,2.2075735522666946,4639.055657771998,None,4641.322970703477,None,4641.322970703477,None,4641.839884928777,None,4641.839884928777,None,4641.839884928777,None,n,1.6784076631302014,4641.839884928777,None,sing21,001,2019_Nov_05_1359,ProdFawcett_Revision2019,3.2.4,59.90509528916813,
,,,,12,0,12,0,,,,,,,,,,,,,4647.424918206118,None,,,,,,,,,,,,,,,,,,,,,,pancakes,D_new,12,210,4644.074182372307,None,4644.074182372307,None,4644.074182372307,None,1,1.5879955837735906,4644.074182372307,None,4645.724369285337,None,4645.724369285337,None,4646.241246190213,None,4646.241246190213,None,4646.241246190213,None,n,1.14892828266602,4646.241246190213,None,sing21,001,2019_Nov_05_1359,ProdFawcett_Revision2019,3.2.4,59.90509528916813,
,,,,13,0,13,0,,,,,,,,,,,,,4654.077028363477,None,,,,,,,,,,,,,,,,,,,,,,nature,D_new,13,200,4647.941576475685,None,4647.941576475685,None,4647.941576475685,None,2,4.393075200612657,4647.941576475685,None,4652.393075511616,None,4652.393075511616,None,4652.910018660186,None,4652.910018660186,None,4652.910018660186,None,f,1.1280285501270555,4652.910018660186,None,sing21,001,2019_Nov_05_1359,ProdFawcett_Revision2019,3.2.4,59.90509528916813,
,,,,14,0,14,0,,,,,,,,,,,,,4658.261501212895,None,,,,,,,,,,,,,,,,,,,,,,season,D_new,14,277,4654.593792685191,None,4654.593792685191,None,4654.593792685191,None,1,2.412120420485735,4654.593792685191,None,4657.061126764922,None,4657.061126764922,None,4657.577990918711,None,4657.577990918711,None,4657.577990918711,None,n,0.6514906388474628,4657.577990918711,None,sing21,001,2019_Nov_05_1359,ProdFawcett_Revision2019,3.2.4,59.90509528916813,
,,,,15,0,15,0,,,,,,,,,,,,,4662.229547179188,None,,,,,,,,,,,,,,,,,,,,,,portion,D_new,15,228,4658.77834297443,None,4658.77834297443,None,4658.77834297443,None,1,2.1630161100183614,4658.77834297443,None,4660.995891957427,None,4660.995891957427,None,4661.51263948495,None,4661.51263948495,None,4661.51263948495,None,n,0.6770090812933631,4661.51263948495,None,sing21,001,2019_Nov_05_1359,ProdFawcett_Revision2019,3.2.4,59.90509528916813,
,,,,16,0,16,0,,,,,,,,,,,,,4667.5978882876225,None,,,,,,,,,,,,,,,,,,,,,,court,D_new,16,75,4662.746331716131,None,4662.746331716131,None,4662.746331716131,None,2,2.8915292032179423,4662.746331716131,None,4665.6972821421805,None,4665.6972821421805,None,4666.213976799161,None,4666.213976799161,None,4666.213976799161,None,n,1.334879330766853,4666.213976799161,None,sing21,001,2019_Nov_05_1359,ProdFawcett_Revision2019,3.2.4,59.90509528916813,
,,,,17,0,17,0,,,,,,,,,,,,,4671.432250419864,None,,,,,,,,,,,,,,,,,,,,,,minor,D_new,17,191,4668.114620886976,None,4668.114620886976,None,4668.114620886976,None,1,1.7063649934716523,4668.114620886976,None,4669.881830254395,None,4669.881830254395,None,4670.398703738232,None,4670.398703738232,None,4670.398703738232,None,n,0.9908244697144255,4670.398703738232,None,sing21,001,2019_Nov_05_1359,ProdFawcett_Revision2019,3.2.4,59.90509528916813,
,,,,18,0,18,0,,,,,,,,,,,,,4675.333480437868,None,,,,,,,,,,,,,,,,,,,,,,hunger,B_aloud,18,155,4671.949146295956,None,4671.949146295956,None,4671.949146295956,None,1,1.8873474528663792,4671.949146295956,None,4673.899737202213,None,4673.899737202213,None,4674.4166470734635,None,4674.4166470734635,None,4674.4166470734635,None,n,0.8678279530140571,4674.4166470734635,None,sing21,001,2019_Nov_05_1359,ProdFawcett_Revision2019,3.2.4,59.90509528916813,
,,,,19,0,19,0,,,,,,,,,,,,,4680.201790134946,None,,,,,,,,,,,,,,,,,,,,,,recall,D_new,19,255,4675.850102009077,None,4675.850102009077,None,4675.850102009077,None,6,2.7462045157444663,4675.850102009077,None,4678.639773278614,None,4678.639773278614,None,4679.167979100603,None,4679.167979100603,None,4679.167979100603,None,r,0.9881548174307682,4679.167979100603,None,sing21,001,2019_Nov_05_1359,ProdFawcett_Revision2019,3.2.4,59.90509528916813,
,,,,20,0,20,0,,,,,,,,,,,,,4684.536328295071,None,,,,,,,,,,,,,,,,,,,,,,career,B_aloud,20,42,4680.718594576116,None,4680.718594576116,None,4680.718594576116,None,6,2.0533765627769753,4680.718594576116,None,4682.835875163262,None,4682.835875163262,None,4683.352767307311,None,4683.352767307311,None,4683.352767307311,None,r,1.1471182434470393,4683.352767307311,None,sing21,001,2019_Nov_05_1359,ProdFawcett_Revision2019,3.2.4,59.90509528916813,
,,,,21,0,21,0,,,,,,,,,,,,,4689.604759594426,None,,,,,,,,,,,,,,,,,,,,,,phrase,A_silent,21,220,4685.053123095131,None,4685.053123095131,None,4685.053123095131,None,3,1.862631398893427,4685.053123095131,None,4686.959424954897,None,4686.959424954897,None,4687.487366113055,None,4687.487366113055,None,4687.487366113055,None,f,2.0682804627576843,4687.487366113055,None,sing21,001,2019_Nov_05_1359,ProdFawcett_Revision2019,3.2.4,59.90509528916813,
,,,,22,0,22,0,,,,,,,,,,,,,4694.156085712486,None,,,,,,,,,,,,,,,,,,,,,,express,A_silent,22,124,4690.121527337178,None,4690.121527337178,None,4690.121527337178,None,1,2.3378954406944104,4690.121527337178,None,4692.522243888758,None,4692.522243888758,None,4693.039062014082,None,4693.039062014082,None,4693.039062014082,None,n,1.0767204702133313,4693.039062014082,None,sing21,001,2019_Nov_05_1359,ProdFawcett_Revision2019,3.2.4,59.90509528916813,
,,,,23,0,23,0,,,,,,,,,,,,,4698.624132300785,None,,,,,,,,,,,,,,,,,,,,,,junior,A_silent,23,167,4694.675962866226,None,4694.675962866226,None,4694.675962866226,None,6,2.2237886421498843,4694.675962866226,None,4696.9568529576645,None,4696.9568529576645,None,4697.473555389675,None,4697.473555389675,None,4697.473555389675,None,r,1.1136244324152358,4697.473555389675,None,sing21,001,2019_Nov_05_1359,ProdFawcett_Revision2019,3.2.4,59.90509528916813,
,,,,24,0,24,0,,,,,,,,,,,,,4703.375501337287,None,,,,,,,,,,,,,,,,,,,,,,detective,D_new,24,92,4699.1415012129,None,4699.1415012129,None,4699.1415012129,None,3,2.4454643278731965,4699.1415012129,None,4701.641628102283,None,4701.641628102283,None,4702.158548547595,None,4702.158548547595,None,4702.158548547595,None,f,1.1726628101896495,4702.158548547595,None,sing21,001,2019_Nov_05_1359,ProdFawcett_Revision2019,3.2.4,59.90509528916813,
,,,,25,0,25,0,,,,,,,,,,,,,4707.743621011381,None,,,,,,,,,,,,,,,,,,,,,,comfort,D_new,25,59,4703.8922165205,None,4703.8922165205,None,4703.8922165205,None,1,2.518476705881767,4703.8922165205,None,4706.476504322956,None,4706.476504322956,None,4706.993392423959,None,4706.993392423959,None,4706.993392423959,None,n,0.7052802139660344,4706.993392423959,None,sing21,001,2019_Nov_05_1359,ProdFawcett_Revision2019,3.2.4,59.90509528916813,
,,,,26,0,26,0,,,,,,,,,,,,,4712.028284816828,None,,,,,,,,,,,,,,,,,,,,,,poetry,D_new,26,225,4708.260498849268,None,4708.260498849268,None,4708.260498849268,None,2,2.0220103252795525,4708.260498849268,None,4710.344324500824,None,4710.344324500824,None,4710.861269826477,None,4710.861269826477,None,4710.861269826477,None,n,1.1335180692840368,4710.861269826477,None,sing21,001,2019_Nov_05_1359,ProdFawcett_Revision2019,3.2.4,59.90509528916813,
,,,,27,0,27,0,,,,,,,,,,,,,4716.696264850383,None,,,,,,,,,,,,,,,,,,,,,,chief,C_sing,27,48,4712.548429744376,None,4712.548429744376,None,4712.548429744376,None,6,2.6301601667073555,4712.548429744376,None,4715.229287802475,None,4715.229287802475,None,4715.746101884695,None,4715.746101884695,None,4715.746101884695,None,r,0.912052932777442,4715.746101884695,None,sing21,001,2019_Nov_05_1359,ProdFawcett_Revision2019,3.2.4,59.90509528916813,
,,,,28,0,28,0,,,,,,,,,,,,,4721.347699819598,None,,,,,,,,,,,,,,,,,,,,,,character,D_new,28,46,4717.213103501883,None,4717.213103501883,None,4717.213103501883,None,6,3.0451694967923686,4717.213103501883,None,4720.304179884319,None,4720.304179884319,None,4720.830961000174,None,4720.830961000174,None,4720.830961000174,None,r,0.4755859302240424,4720.830961000174,None,sing21,001,2019_Nov_05_1359,ProdFawcett_Revision2019,3.2.4,59.90509528916813,
,,,,29,0,29,0,,,,,,,,,,,,,4726.149194190453,None,,,,,,,,,,,,,,,,,,,,,,evidence,D_new,29,120,4721.86545157677,None,4721.86545157677,None,4721.86545157677,None,2,2.6409942774917,4721.86545157677,None,4724.565412390395,None,4724.565412390395,None,4725.08233656775,None,4725.08233656775,None,4725.08233656775,None,n,1.0240362007752992,4725.08233656775,None,sing21,001,2019_Nov_05_1359,ProdFawcett_Revision2019,3.2.4,59.90509528916813,
,,,,30,0,30,0,,,,,,,,,,,,,4729.566899608122,None,,,,,,,,,,,,,,,,,,,,,,distance,D_new,30,100,4726.66647539963,None,4726.66647539963,None,4726.66647539963,None,1,1.6150553586194292,4726.66647539963,None,4728.333355103561,None,4728.333355103561,None,4728.850010263093,None,4728.850010263093,None,4728.850010263093,None,n,0.6712859986000694,4728.850010263093,None,sing21,001,2019_Nov_05_1359,ProdFawcett_Revision2019,3.2.4,59.90509528916813,
,,,,31,0,31,0,,,,,,,,,,,,,4733.484939354355,None,,,,,,,,,,,,,,,,,,,,,,service,A_silent,31,280,4730.084294955537,None,4730.084294955537,None,4730.084294955537,None,6,2.149279405362904,4730.084294955537,None,4732.273263046576,None,4732.273263046576,None,4732.801301237778,None,4732.801301237778,None,4732.801301237778,None,r,0.6479321390506811,4732.801301237778,None,sing21,001,2019_Nov_05_1359,ProdFawcett_Revision2019,3.2.4,59.90509528916813,
,,,,32,0,32,0,,,,,,,,,,,,,4737.436030353943,None,,,,,,,,,,,,,,,,,,,,,,growth,D_new,32,144,4734.001648006495,None,4734.001648006495,None,4734.001648006495,None,2,1.8314517633989453,4734.001648006495,None,4735.873696274182,None,4735.873696274182,None,4736.385705044493,None,4736.385705044493,None,4736.385705044493,None,f,1.008077066624537,4736.385705044493,None,sing21,001,2019_Nov_05_1359,ProdFawcett_Revision2019,3.2.4,59.90509528916813,
,,,,33,0,33,0,,,,,,,,,,,,,4741.420621073572,None,,,,,,,,,,,,,,,,,,,,,,thing,A_silent,33,328,4737.953160104516,None,4737.953160104516,None,4737.953160104516,None,1,2.3034611556795426,4737.953160104516,None,4740.320250357676,None,4740.320250357676,None,4740.837214343483,None,4740.837214343483,None,4740.837214343483,None,n,0.5476136716897599,4740.837214343483,None,sing21,001,2019_Nov_05_1359,ProdFawcett_Revision2019,3.2.4,59.90509528916813,
,,,,34,0,34,0,,,,,,,,,,,,,4744.321644585405,None,,,,,,,,,,,,,,,,,,,,,,theme,D_new,34,326,4741.93853859551,None,4741.93853859551,None,4741.93853859551,None,1,1.2780126889701933,4741.93853859551,None,4743.271312433935,None,4743.271312433935,None,4743.788003358815,None,4743.788003358815,None,4743.788003358815,None,n,0.5006574609433301,4743.788003358815,None,sing21,001,2019_Nov_05_1359,ProdFawcett_Revision2019,3.2.4,59.90509528916813,
,,,,35,0,35,0,,,,,,,,,,,,,4749.173133669188,None,,,,,,,,,,,,,,,,,,,,,,month,B_aloud,35,193,4744.838202089944,None,4744.838202089944,None,4744.838202089944,None,6,1.682334390701726,4744.838202089944,None,4746.572329103714,None,4746.572329103714,None,4747.089029669703,None,4747.089029669703,None,4747.089029669703,None,r,2.039097779430449,4747.089029669703,None,sing21,001,2019_Nov_05_1359,ProdFawcett_Revision2019,3.2.4,59.90509528916813,
,,,,36,0,36,0,,,,,,,,,,,,,4752.924307084642,None,,,,,,,,,,,,,,,,,,,,,,period,B_aloud,36,217,4749.690731168725,None,4749.690731168725,None,4749.690731168725,None,2,2.021274180500768,4749.690731168725,None,4751.77387136902,None,4751.77387136902,None,4752.290777508228,None,4752.290777508228,None,4752.290777508228,None,f,0.5898133980226703,4752.290777508228,None,sing21,001,2019_Nov_05_1359,ProdFawcett_Revision2019,3.2.4,59.90509528916813,
,,,,37,0,37,0,,,,,,,,,,,,,4756.0419104932225,None,,,,,,,,,,,,,,,,,,,,,,people,B_aloud,37,216,4753.441022267856,None,4753.441022267856,None,4753.441022267856,None,2,1.4468781488831155,4753.441022267856,None,4754.941579896724,None,4754.941579896724,None,4755.45825744851,None,4755.45825744851,None,4755.45825744851,None,f,0.5500189712038264,4755.45825744851,None,sing21,001,2019_Nov_05_1359,ProdFawcett_Revision2019,3.2.4,59.90509528916813,
,,,,38,0,38,0,,,,,,,,,,,,,4763.7608334888355,None,,,,,,,,,,,,,,,,,,,,,,edition,C_sing,38,107,4756.55920320953,None,4756.55920320953,None,4756.55920320953,None,2,4.848409529135097,4756.55920320953,None,4761.460171673796,None,4761.460171673796,None,4761.977239223721,None,4761.977239223721,None,4761.977239223721,None,f,1.7424018784076907,4761.977239223721,None,sing21,001,2019_Nov_05_1359,ProdFawcett_Revision2019,3.2.4,59.90509528916813,
,,,,39,0,39,0,,,,,,,,,,,,,4767.36198171298,None,,,,,,,,,,,,,,,,,,,,,,estate,D_new,39,119,4764.277621757763,None,4764.277621757763,None,4764.277621757763,None,1,1.7055153324618004,4764.277621757763,None,4766.0449020339875,None,4766.0449020339875,None,4766.561808795144,None,4766.561808795144,None,4766.561808795144,None,n,0.7582083099987358,4766.561808795144,None,sing21,001,2019_Nov_05_1359,ProdFawcett_Revision2019,3.2.4,59.90509528916813,
,,,,40,0,40,0,,,,,,,,,,,,,4771.613405486103,None,,,,,,,,,,,,,,,,,,,,,,travel,C_sing,40,338,4767.878757852828,None,4767.878757852828,None,4767.878757852828,None,6,2.7683093860396184,4767.878757852828,None,4770.696318964998,None,4770.696318964998,None,4771.2134210362565,None,4771.2134210362565,None,4771.2134210362565,None,r,0.3533961560460739,4771.2134210362565,None,sing21,001,2019_Nov_05_1359,ProdFawcett_Revision2019,3.2.4,59.90509528916813,
,,,,41,0,41,0,,,,,,,,,,,,,4774.914420911868,None,,,,,,,,,,,,,,,,,,,,,,personnel,A_silent,41,219,4772.131555949512,None,4772.131555949512,None,4772.131555949512,None,1,1.691903340164572,4772.131555949512,None,4773.880713441584,None,4773.880713441584,None,4774.397541829967,None,4774.397541829967,None,4774.397541829967,None,n,0.47397026809630916,4774.397541829967,None,sing21,001,2019_Nov_05_1359,ProdFawcett_Revision2019,3.2.4,59.90509528916813,
,,,,42,0,42,0,,,,,,,,,,,,,4777.748553834681,None,,,,,,,,,,,,,,,,,,,,,,military,D_new,42,190,4775.431517074059,None,4775.431517074059,None,4775.431517074059,None,1,1.311411643982865,4775.431517074059,None,4776.798251228465,None,4776.798251228465,None,4777.315144616528,None,4777.315144616528,None,4777.315144616528,None,n,0.3954161224537529,4777.315144616528,None,sing21,001,2019_Nov_05_1359,ProdFawcett_Revision2019,3.2.4,59.90509528916813,
,,,,43,0,43,0,,,,,,,,,,,,,4781.533041923249,None,,,,,,,,,,,,,,,,,,,,,,working,D_new,43,357,4778.2664909497835,None,4778.2664909497835,None,4778.2664909497835,None,2,2.31634540023515,4778.2664909497835,None,4780.6328108477755,None,4780.6328108477755,None,4781.149715742969,None,4781.149715742969,None,4781.149715742969,None,n,0.3365232940996066,4781.149715742969,None,sing21,001,2019_Nov_05_1359,ProdFawcett_Revision2019,3.2.4,59.90509528916813,
,,,,44,0,44,0,,,,,,,,,,,,,4786.934811842977,None,,,,,,,,,,,,,,,,,,,,,,voice,C_sing,44,348,4782.049892392883,None,4782.049892392883,None,4782.049892392883,None,3,3.8125555141014047,4782.049892392883,None,4785.906945947616,None,4785.906945947616,None,4786.434653542354,None,4786.434653542354,None,4786.434653542354,None,f,0.4674429309088737,4786.434653542354,None,sing21,001,2019_Nov_05_1359,ProdFawcett_Revision2019,3.2.4,59.90509528916813,
,,,,45,0,45,0,,,,,,,,,,,,,4791.986482241715,None,,,,,,,,,,,,,,,,,,,,,,concern,D_new,45,65,4787.4522659700015,None,4787.4522659700015,None,4787.4522659700015,None,2,3.161720470234286,4787.4522659700015,None,4790.669320768793,None,4790.669320768793,None,4791.185996143555,None,4791.185996143555,None,4791.185996143555,None,f,0.7637849100865424,4791.185996143555,None,sing21,001,2019_Nov_05_1359,ProdFawcett_Revision2019,3.2.4,59.90509528916813,
,,,,46,0,46,0,,,,,,,,,,,,,4798.221669154707,None,,,,,,,,,,,,,,,,,,,,,,command,B_aloud,46,60,4792.503294146911,None,4792.503294146911,None,4792.503294146911,None,4,4.094467562332284,4792.503294146911,None,4796.626168750401,None,4796.626168750401,None,4797.15451514587,None,4797.15451514587,None,4797.15451514587,None,f,1.027264414995443,4797.15451514587,None,sing21,001,2019_Nov_05_1359,ProdFawcett_Revision2019,3.2.4,59.90509528916813,
,,,,47,0,47,0,,,,,,,,,,,,,4801.439252659096,None,,,,,,,,,,,,,,,,,,,,,,benefit,C_sing,47,20,4798.739264166215,None,4798.739264166215,None,4798.739264166215,None,1,1.6665211171493866,4798.739264166215,None,4800.455548920843,None,4800.455548920843,None,4800.972506686579,None,4800.972506686579,None,4800.972506686579,None,n,0.4331339802592993,4800.972506686579,None,sing21,001,2019_Nov_05_1359,ProdFawcett_Revision2019,3.2.4,59.90509528916813,
,,,,48,0,48,0,,,,,,,,,,,,,4805.740651551925,None,,,,,,,,,,,,,,,,,,,,,,interview,B_aloud,48,165,4801.955976550351,None,4801.955976550351,None,4801.955976550351,None,6,2.897067860874813,4801.955976550351,None,4804.907144367753,None,4804.907144367753,None,4805.4238869192195,None,4805.4238869192195,None,4805.4238869192195,None,r,0.277440131874755,4805.4238869192195,None,sing21,001,2019_Nov_05_1359,ProdFawcett_Revision2019,3.2.4,59.90509528916813,
,,,,49,0,49,0,,,,,,,,,,,,,4811.4423773091985,None,,,,,,,,,,,,,,,,,,,,,,alert,B_aloud,49,6,4806.2576071406365,None,4806.2576071406365,None,4806.2576071406365,None,5,4.251358773442917,4806.2576071406365,None,4810.558817565441,None,4810.558817565441,None,4811.075542700768,None,4811.075542700768,None,4811.075542700768,None,f,0.32107202836778015,4811.075542700768,None,sing21,001,2019_Nov_05_1359,ProdFawcett_Revision2019,3.2.4,59.90509528916813,
,,,,50,0,50,0,,,,,,,,,,,,,4814.843477016839,None,,,,,,,,,,,,,,,,,,,,,,debate,A_silent,50,87,4811.959156248078,None,4811.959156248078,None,4811.959156248078,None,6,1.9260732723632827,4811.959156248078,None,4813.931556260504,None,4813.931556260504,None,4814.459873110638,None,4814.459873110638,None,4814.459873110638,None,r,0.34486937860492617,4814.459873110638,None,sing21,001,2019_Nov_05_1359,ProdFawcett_Revision2019,3.2.4,59.90509528916813,
,,,,51,0,51,0,,,,,,,,,,,,,4818.711332338105,None,,,,,,,,,,,,,,,,,,,,,,sweet,B_aloud,51,319,4815.360431672598,None,4815.360431672598,None,4815.360431672598,None,2,2.076146980165504,4815.360431672598,None,4817.494310505688,None,4817.494310505688,None,4818.011315232958,None,4818.011315232958,None,4818.011315232958,None,f,0.6649577035568655,4818.011315232958,None,sing21,001,2019_Nov_05_1359,ProdFawcett_Revision2019,3.2.4,59.90509528916813,
,,,,52,0,52,0,,,,,,,,,,,,,4821.412129750592,None,,,,,,,,,,,,,,,,,,,,,,goose,D_new,52,138,4819.228282017808,None,4819.228282017808,None,4819.228282017808,None,1,1.224596939748153,4819.228282017808,None,4820.4991864154,None,4820.4991864154,None,4821.030368227919,None,4821.030368227919,None,4821.030368227919,None,n,0.3337021832703613,4821.030368227919,None,sing21,001,2019_Nov_05_1359,ProdFawcett_Revision2019,3.2.4,59.90509528916813,
,,,,53,0,53,0,,,,,,,,,,,,,4825.6634990980965,None,,,,,,,,,,,,,,,,,,,,,,waste,D_new,53,350,4821.928866392991,None,4821.928866392991,None,4821.928866392991,None,2,2.323520246311091,4821.928866392991,None,4824.313033526181,None,4824.313033526181,None,4824.8298749766545,None,4824.8298749766545,None,4824.8298749766545,None,f,0.7910418609972112,4824.8298749766545,None,sing21,001,2019_Nov_05_1359,ProdFawcett_Revision2019,3.2.4,59.90509528916813,
,,,,54,0,54,0,,,,,,,,,,,,,4828.297576040321,None,,,,,,,,,,,,,,,,,,,,,,generation,D_new,54,136,4826.182665609231,None,4826.182665609231,None,4826.182665609231,None,1,1.3736362505005673,4826.182665609231,None,4827.614012253529,None,4827.614012253529,None,4828.130839086894,None,4828.130839086894,None,4828.130839086894,None,n,0.12876656092703342,4828.130839086894,None,sing21,001,2019_Nov_05_1359,ProdFawcett_Revision2019,3.2.4,59.90509528916813,
,,,,55,0,55,0,,,,,,,,,,,,,4832.382232381671,None,,,,,,,,,,,,,,,,,,,,,,session,B_aloud,55,281,4828.815295142122,None,4828.815295142122,None,4828.815295142122,None,5,2.1569521676865406,4828.815295142122,None,4831.03171518317,None,4831.03171518317,None,4831.548779934063,None,4831.548779934063,None,4831.548779934063,None,r,0.791433725215029,4831.548779934063,None,sing21,001,2019_Nov_05_1359,ProdFawcett_Revision2019,3.2.4,59.90509528916813,
,,,,56,0,56,0,,,,,,,,,,,,,4836.883633451536,None,,,,,,,,,,,,,,,,,,,,,,drink,C_sing,56,105,4832.89925887913,None,4832.89925887913,None,4832.89925887913,None,3,2.6640589039889164,4832.89925887913,None,4835.616564968601,None,4835.616564968601,None,4836.133372519747,None,4836.133372519747,None,4836.133372519747,None,f,0.7177299869363196,4836.133372519747,None,sing21,001,2019_Nov_05_1359,ProdFawcett_Revision2019,3.2.4,59.90509528916813,
,,,,57,0,57,0,,,,,,,,,,,,,4839.484299309552,None,,,,,,,,,,,,,,,,,,,,,,substance,D_new,57,313,4837.401073894405,None,4837.401073894405,None,4837.401073894405,None,1,1.353856440866366,4837.401073894405,None,4838.817595011496,None,4838.817595011496,None,4839.3342548360815,None,4839.3342548360815,None,4839.3342548360815,None,n,0.1170243204687722,4839.3342548360815,None,sing21,001,2019_Nov_05_1359,ProdFawcett_Revision2019,3.2.4,59.90509528916813,
,,,,58,0,58,0,,,,,,,,,,,,,4844.2692626111675,None,,,,,,,,,,,,,,,,,,,,,,public,A_silent,58,244,4840.00129688374,None,4840.00129688374,None,4840.00129688374,None,2,2.2583044100319967,4840.00129688374,None,4842.307199726289,None,4842.307199726289,None,4842.83542420849,None,4842.83542420849,None,4842.83542420849,None,f,1.3997424892731942,4842.83542420849,None,sing21,001,2019_Nov_05_1359,ProdFawcett_Revision2019,3.2.4,59.90509528916813,
,,,,59,0,59,0,,,,,,,,,,,,,4848.370535236667,None,,,,,,,,,,,,,,,,,,,,,,country,A_silent,59,73,4844.786443988327,None,4844.786443988327,None,4844.786443988327,None,3,2.168059961462859,4844.786443988327,None,4847.020012129098,None,4847.020012129098,None,4847.536867885792,None,4847.536867885792,None,4847.536867885792,None,f,0.7856574609177187,4847.536867885792,None,sing21,001,2019_Nov_05_1359,ProdFawcett_Revision2019,3.2.4,59.90509528916813,
,,,,60,0,60,0,,,,,,,,,,,,,4852.971897431125,None,,,,,,,,,,,,,,,,,,,,,,member,C_sing,60,188,4848.887340921792,None,4848.887340921792,None,4848.887340921792,None,2,2.259807177935727,4848.887340921792,None,4851.204785718699,None,4851.204785718699,None,4851.721417553024,None,4851.721417553024,None,4851.721417553024,None,n,1.209583566582296,4851.721417553024,None,sing21,001,2019_Nov_05_1359,ProdFawcett_Revision2019,3.2.4,59.90509528916813,
,,,,61,0,61,0,,,,,,,,,,,,,4856.322950177244,None,,,,,,,,,,,,,,,,,,,,,,space,D_new,61,297,4853.488540772523,None,4853.488540772523,None,4853.488540772523,None,1,1.9295126578072086,4853.488540772523,None,4855.472578839341,None,4855.472578839341,None,4855.989543758158,None,4855.989543758158,None,4855.989543758158,None,n,0.30048485414590687,4855.989543758158,None,sing21,001,2019_Nov_05_1359,ProdFawcett_Revision2019,3.2.4,59.90509528916813,
,,,,62,0,62,0,,,,,,,,,,,,,4860.124332897947,None,,,,,,,,,,,,,,,,,,,,,,error,B_aloud,62,117,4856.8266626236145,None,4856.8266626236145,None,4856.8266626236145,None,6,2.367093674140051,4856.8266626236145,None,4859.257113889384,None,4859.257113889384,None,4859.7740334017435,None,4859.7740334017435,None,4859.7740334017435,None,r,0.30847639485727996,4859.7740334017435,None,sing21,001,2019_Nov_05_1359,ProdFawcett_Revision2019,3.2.4,59.90509528916813,
,,,,63,0,63,0,,,,,,,,,,,,,4864.508856751898,None,,,,,,,,,,,,,,,,,,,,,,order,D_new,63,207,4860.640877962287,None,4860.640877962287,None,4860.640877962287,None,4,2.832789699546993,4860.640877962287,None,4863.51503203332,None,4863.51503203332,None,4864.042025875475,None,4864.042025875475,None,4864.042025875475,None,f,0.42428407043917105,4864.042025875475,None,sing21,001,2019_Nov_05_1359,ProdFawcett_Revision2019,3.2.4,59.90509528916813,
,,,,64,0,64,0,,,,,,,,,,,,,4868.462152764841,None,,,,,,,,,,,,,,,,,,,,,,candidate,D_new,64,39,4865.027278410154,None,4865.027278410154,None,4865.027278410154,None,1,2.326183056575246,4865.027278410154,None,4867.381736020383,None,4867.381736020383,None,4867.894346582063,None,4867.894346582063,None,4867.894346582063,None,n,0.5395372270722874,4867.894346582063,None,sing21,001,2019_Nov_05_1359,ProdFawcett_Revision2019,3.2.4,59.90509528916813,
,,,,65,0,65,0,,,,,,,,,,,,,4871.077562045131,None,,,,,,,,,,,,,,,,,,,,,,burden,D_new,65,36,4868.993487590982,None,4868.993487590982,None,4868.993487590982,None,1,1.1760045406408608,4868.993487590982,None,4870.227291472314,None,4870.227291472314,None,4870.743992660311,None,4870.743992660311,None,4870.743992660311,None,n,0.2899328232742846,4870.743992660311,None,sing21,001,2019_Nov_05_1359,ProdFawcett_Revision2019,3.2.4,59.90509528916813,
,,,,66,0,66,0,,,,,,,,,,,,,4875.895595571317,None,,,,,,,,,,,,,,,,,,,,,,question,D_new,66,247,4871.610952603107,None,4871.610952603107,None,4871.610952603107,None,4,3.429972942743916,4871.610952603107,None,4875.095400572231,None,4875.095400572231,None,4875.61463705916,None,4875.61463705916,None,4875.61463705916,None,f,0.24233345774700865,4875.61463705916,None,sing21,001,2019_Nov_05_1359,ProdFawcett_Revision2019,3.2.4,59.90509528916813,
,,,,67,0,67,0,,,,,,,,,,,,,4882.164198544517,None,,,,,,,,,,,,,,,,,,,,,,cover,D_new,67,77,4876.412383529241,None,4876.412383529241,None,4876.412383529241,None,2,3.2930568514275365,4876.412383529241,None,4879.763591466064,None,4879.763591466064,None,4880.280421720468,None,4880.280421720468,None,4880.280421720468,None,f,1.8409025315195322,4880.280421720468,None,sing21,001,2019_Nov_05_1359,ProdFawcett_Revision2019,3.2.4,59.90509528916813,
,,,,68,0,68,0,,,,,,,,,,,,,4889.64995832555,None,,,,,,,,,,,,,,,,,,,,,,expansion,B_aloud,68,123,4882.68148472975,None,4882.68148472975,None,4882.68148472975,None,2,2.902882689551916,4882.68148472975,None,4885.648591466073,None,4885.648591466073,None,4886.165450643748,None,4886.165450643748,None,4886.165450643748,None,f,3.451065186294727,4886.165450643748,None,sing21,001,2019_Nov_05_1359,ProdFawcett_Revision2019,3.2.4,59.90509528916813,
,,,,69,0,69,0,,,,,,,,,,,,,4894.768086085736,None,,,,,,,,,,,,,,,,,,,,,,income,C_sing,69,159,4890.167159606877,None,4890.167159606877,None,4890.167159606877,None,4,2.8488101013354026,4890.167159606877,None,4893.067616781744,None,4893.067616781744,None,4893.584516700881,None,4893.584516700881,None,4893.584516700881,None,f,1.1352540897205472,4893.584516700881,None,sing21,001,2019_Nov_05_1359,ProdFawcett_Revision2019,3.2.4,59.90509528916813,
,,,,70,0,70,0,,,,,,,,,,,,,4898.9195229209145,None,,,,,,,,,,,,,,,,,,,,,,childhood,D_new,70,49,4895.286512098042,None,4895.286512098042,None,4895.286512098042,None,2,2.7934154382091947,4895.286512098042,None,4898.13584623998,None,4898.13584623998,None,4898.652688001515,None,4898.652688001515,None,4898.652688001515,None,n,0.2271969272987917,4898.652688001515,None,sing21,001,2019_Nov_05_1359,ProdFawcett_Revision2019,3.2.4,59.90509528916813,
,,,,71,0,71,0,,,,,,,,,,,,,4901.686998818186,None,,,,,,,,,,,,,,,,,,,,,,department,D_new,71,90,4899.43824158737,None,4899.43824158737,None,4899.43824158737,None,1,1.4172239846084267,4899.43824158737,None,4900.920062200632,None,4900.920062200632,None,4901.436874105886,None,4901.436874105886,None,4901.436874105886,None,n,0.21088667039293796,4901.436874105886,None,sing21,001,2019_Nov_05_1359,ProdFawcett_Revision2019,3.2.4,59.90509528916813,
,,,,72,0,72,0,,,,,,,,,,,,,4904.371063631261,None,,,,,,,,,,,,,,,,,,,,,,permit,C_sing,72,218,4902.203887230193,None,4902.203887230193,None,4902.203887230193,None,1,1.3082185731036589,4902.203887230193,None,4903.5610362630105,None,4903.5610362630105,None,4904.087751446175,None,4904.087751446175,None,4904.087751446175,None,n,0.24023822852177545,4904.087751446175,None,sing21,001,2019_Nov_05_1359,ProdFawcett_Revision2019,3.2.4,59.90509528916813,
,,,,73,0,73,0,,,,,,,,,,,,,4907.005225477391,None,,,,,,,,,,,,,,,,,,,,,,bucket,D_new,73,33,4904.888006468886,None,4904.888006468886,None,4904.888006468886,None,1,1.2398749766871333,4904.888006468886,None,4906.176290041651,None,4906.176290041651,None,4906.705106674111,None,4906.705106674111,None,4906.705106674111,None,n,0.2538803881034255,4906.705106674111,None,sing21,001,2019_Nov_05_1359,ProdFawcett_Revision2019,3.2.4,59.90509528916813,
,,,,74,0,74,0,,,,,,,,,,,,,4911.423437830468,None,,,,,,,,,,,,,,,,,,,,,,course,D_new,74,74,4907.521911426273,None,4907.521911426273,None,4907.521911426273,None,3,3.0048727996763773,4907.521911426273,None,4910.579625241051,None,4910.579625241051,None,4911.106645829452,None,4911.106645829452,None,4911.106645829452,None,f,0.2764897057786584,4911.106645829452,None,sing21,001,2019_Nov_05_1359,ProdFawcett_Revision2019,3.2.4,59.90509528916813,
,,,,75,0,75,0,,,,,,,,,,,,,4915.274592896691,None,,,,,,,,,,,,,,,,,,,,,,heavy,C_sing,75,151,4911.9402746158885,None,4911.9402746158885,None,4911.9402746158885,None,1,2.4022662810166366,4911.9402746158885,None,4914.393763761909,None,4914.393763761909,None,4914.924353424169,None,4914.924353424169,None,4914.924353424169,None,n,0.3070697269286029,4914.924353424169,None,sing21,001,2019_Nov_05_1359,ProdFawcett_Revision2019,3.2.4,59.90509528916813,
,,,,76,0,76,0,,,,,,,,,,,,,4917.708637494536,None,,,,,,,,,,,,,,,,,,,,,,appearance,B_aloud,76,10,4915.793248429429,None,4915.793248429429,None,4915.793248429429,None,1,1.1255955712986179,4915.793248429429,None,4916.974785096711,None,4916.974785096711,None,4917.491815948219,None,4917.491815948219,None,4917.491815948219,None,n,0.17858742299722508,4917.491815948219,None,sing21,001,2019_Nov_05_1359,ProdFawcett_Revision2019,3.2.4,59.90509528916813,
,,,,77,0,77,0,,,,,,,,,,,,,4920.142626733868,None,,,,,,,,,,,,,,,,,,,,,,frank,D_new,77,133,4918.225473658007,None,4918.225473658007,None,4918.225473658007,None,1,1.2047723455470987,4918.225473658007,None,4919.48311749706,None,4919.48311749706,None,4920.00933569693,None,4920.00933569693,None,4920.00933569693,None,n,0.08502550225239247,4920.00933569693,None,sing21,001,2019_Nov_05_1359,ProdFawcett_Revision2019,3.2.4,59.90509528916813,
,,,,78,0,78,0,,,,,,,,,,,,,4925.3777116377605,None,,,,,,,,,,,,,,,,,,,,,,breath,C_sing,78,27,4920.661389873712,None,4920.661389873712,None,4920.661389873712,None,5,3.7210997076472268,4920.661389873712,None,4924.443970890075,None,4924.443970890075,None,4924.960883560358,None,4924.960883560358,None,4924.960883560358,None,r,0.3811808795435354,4924.960883560358,None,sing21,001,2019_Nov_05_1359,ProdFawcett_Revision2019,3.2.4,59.90509528916813,
,,,,79,0,79,0,,,,,,,,,,,,,4928.945462150907,None,,,,,,,,,,,,,,,,,,,,,,resistance,D_new,79,262,4925.896202649747,None,4925.896202649747,None,4925.896202649747,None,2,1.7419045842252672,4925.896202649747,None,4927.684029980737,None,4927.684029980737,None,4928.211671020719,None,4928.211671020719,None,4928.211671020719,None,n,0.691037196025718,4928.211671020719,None,sing21,001,2019_Nov_05_1359,ProdFawcett_Revision2019,3.2.4,59.90509528916813,
,,,,80,0,80,0,,,,,,,,,,,,,4933.346682216856,None,,,,,,,,,,,,,,,,,,,,,,fight,D_new,80,127,4929.462472476182,None,4929.462472476182,None,4929.462472476182,None,2,2.775921813736204,4929.462472476182,None,4932.296370591503,None,4932.296370591503,None,4932.813329290308,None,4932.813329290308,None,4932.813329290308,None,n,0.49619705171789974,4932.813329290308,None,sing21,001,2019_Nov_05_1359,ProdFawcett_Revision2019,3.2.4,59.90509528916813,
,,,,81,0,81,0,,,,,,,,,,,,,4937.0312035827665,None,,,,,,,,,,,,,,,,,,,,,,symbol,A_silent,81,321,4933.863568762841,None,4933.863568762841,None,4933.863568762841,None,4,2.374678422580473,4933.863568762841,None,4936.287881756551,None,4936.287881756551,None,4936.814594762691,None,4936.814594762691,None,4936.814594762691,None,f,0.1754920071689412,4936.814594762691,None,sing21,001,2019_Nov_05_1359,ProdFawcett_Revision2019,3.2.4,59.90509528916813,
,,,,82,0,82,0,,,,,,,,,,,,,4941.299190147431,None,,,,,,,,,,,,,,,,,,,,,,oxygen,D_new,82,209,4937.548157305457,None,4937.548157305457,None,4937.548157305457,None,2,2.865071530744899,4937.548157305457,None,4940.465618274524,None,4940.465618274524,None,4940.982517882716,None,4940.982517882716,None,4940.982517882716,None,n,0.2704590408829972,4940.982517882716,None,sing21,001,2019_Nov_05_1359,ProdFawcett_Revision2019,3.2.4,59.90509528916813,
,,,,83,0,83,0,,,,,,,,,,,,,4949.651865708758,None,,,,,,,,,,,,,,,,,,,,,,speech,D_new,83,298,4941.817095540231,None,4941.817095540231,None,4941.817095540231,None,4,6.147650370083284,4941.817095540231,None,4948.017895751691,None,4948.017895751691,None,4948.534872799646,None,4948.534872799646,None,4948.534872799646,None,f,1.0780484543647617,4948.534872799646,None,sing21,001,2019_Nov_05_1359,ProdFawcett_Revision2019,3.2.4,59.90509528916813,
,,,,84,0,84,0,,,,,,,,,,,,,4955.403649001673,None,,,,,,,,,,,,,,,,,,,,,,track,B_aloud,84,334,4950.16858773405,None,4950.16858773405,None,4950.16858773405,None,3,3.8281569944811054,4950.16858773405,None,4954.05319680291,None,4954.05319680291,None,4954.570078372839,None,4954.570078372839,None,4954.570078372839,None,f,0.7860919325612485,4954.570078372839,None,sing21,001,2019_Nov_05_1359,ProdFawcett_Revision2019,3.2.4,59.90509528916813,
,,,,85,0,85,0,,,,,,,,,,,,,4963.7894694283605,None,,,,,,,,,,,,,,,,,,,,,,discovery,D_new,85,95,4955.922385084268,None,4955.922385084268,None,4955.922385084268,None,3,3.945623250619974,4955.922385084268,None,4959.921715494187,None,4959.921715494187,None,4960.438416060235,None,4960.438416060235,None,4960.438416060235,None,f,3.309829259174876,4960.438416060235,None,sing21,001,2019_Nov_05_1359,ProdFawcett_Revision2019,3.2.4,59.90509528916813,
,,,,86,0,86,0,,,,,,,,,,,,,4966.973771536956,None,,,,,,,,,,,,,,,,,,,,,,dispute,B_aloud,86,99,4964.3064405672485,None,4964.3064405672485,None,4964.3064405672485,None,1,1.753133358201012,4964.3064405672485,None,4966.110853393038,None,4966.110853393038,None,4966.640334017517,None,4966.640334017517,None,4966.640334017517,None,n,0.2996880636783317,4966.640334017517,None,sing21,001,2019_Nov_05_1359,ProdFawcett_Revision2019,3.2.4,59.90509528916813,
,,,,87,0,87,0,,,,,,,,,,,,,4969.424547179195,None,,,,,,,,,,,,,,,,,,,,,,congress,D_new,87,67,4967.490615164512,None,4967.490615164512,None,4967.490615164512,None,1,1.1207883933093399,4967.490615164512,None,4968.662110468373,None,4968.662110468373,None,4969.191100329685,None,4969.191100329685,None,4969.191100329685,None,n,0.19628164457390085,4969.191100329685,None,sing21,001,2019_Nov_05_1359,ProdFawcett_Revision2019,3.2.4,59.90509528916813,
,,,,88,0,88,0,,,,,,,,,,,,,4972.092133793631,None,,,,,,,,,,,,,,,,,,,,,,straight,D_new,88,307,4969.941299371771,None,4969.941299371771,None,4969.941299371771,None,1,1.2944221558282152,4969.941299371771,None,4971.291789201961,None,4971.291789201961,None,4971.808616657334,None,4971.808616657334,None,4971.808616657334,None,n,0.24303445912664756,4971.808616657334,None,sing21,001,2019_Nov_05_1359,ProdFawcett_Revision2019,3.2.4,59.90509528916813,
,,,,89,0,89,0,,,,,,,,,,,,,4977.777145922766,None,,,,,,,,,,,,,,,,,,,,,,mechanical,A_silent,89,185,4972.608758474817,None,4972.608758474817,None,4972.608758474817,None,3,2.722393481351901,4972.608758474817,None,4975.382367357088,None,4975.382367357088,None,4975.909842010296,None,4975.909842010296,None,4975.909842010296,None,r,1.8291220376850106,4975.909842010296,None,sing21,001,2019_Nov_05_1359,ProdFawcett_Revision2019,3.2.4,59.90509528916813,
,,,,90,0,90,0,,,,,,,,,,,,,4982.128500653082,None,,,,,,,,,,,,,,,,,,,,,,sight,D_new,90,286,4978.294244261982,None,4978.294244261982,None,4978.294244261982,None,2,2.5806291596964,4978.294244261982,None,4980.928240965353,None,4980.928240965353,None,4981.445319711405,None,4981.445319711405,None,4981.445319711405,None,f,0.6373909933608957,4981.445319711405,None,sing21,001,2019_Nov_05_1359,ProdFawcett_Revision2019,3.2.4,59.90509528916813,
,,,,91,0,91,0,,,,,,,,,,,,,4985.562956397363,None,,,,,,,,,,,,,,,,,,,,,,danger,D_new,91,85,4982.645377558016,None,4982.645377558016,None,4982.645377558016,None,1,2.0370877651148476,4982.645377558016,None,4984.745973129291,None,4984.745973129291,None,4985.262959196349,None,4985.262959196349,None,4985.262959196349,None,n,0.2514722896157764,4985.262959196349,None,sing21,001,2019_Nov_05_1359,ProdFawcett_Revision2019,3.2.4,59.90509528916813,
,,,,92,0,92,0,,,,,,,,,,,,,4989.3974889593665,None,,,,,,,,,,,,,,,,,,,,,,victory,D_new,92,346,4986.079594451701,None,4986.079594451701,None,4986.079594451701,None,1,2.578954095894005,4986.079594451701,None,4988.7023853953,None,4988.7023853953,None,4989.230657149979,None,4989.230657149979,None,4989.230657149979,None,n,0.1317755178315565,4989.230657149979,None,sing21,001,2019_Nov_05_1359,ProdFawcett_Revision2019,3.2.4,59.90509528916813,
,,,,93,0,93,0,,,,,,,,,,,,,4992.931911115244,None,,,,,,,,,,,,,,,,,,,,,,subject,A_silent,93,312,4989.919009143487,None,4989.919009143487,None,4989.919009143487,None,6,2.1471294395742007,4989.919009143487,None,4992.12135348632,None,4992.12135348632,None,4992.651515830075,None,4992.651515830075,None,4992.651515830075,None,r,0.2396989488042891,4992.651515830075,None,sing21,001,2019_Nov_05_1359,ProdFawcett_Revision2019,3.2.4,59.90509528916813,
,,,,94,0,94,0,,,,,,,,,,,,,4995.38265659014,None,,,,,,,,,,,,,,,,,,,,,,household,D_new,94,154,4993.449094358424,None,4993.449094358424,None,4993.449094358424,None,1,1.1772697020787746,4993.449094358424,None,4994.67007526278,None,4994.67007526278,None,4995.199172731256,None,4995.199172731256,None,4995.199172731256,None,n,0.14681936928536743,4995.199172731256,None,sing21,001,2019_Nov_05_1359,ProdFawcett_Revision2019,3.2.4,59.90509528916813,
,,,,95,0,95,0,,,,,,,,,,,,,4999.75072588172,None,,,,,,,,,,,,,,,,,,,,,,material,C_sing,95,182,4995.899466629373,None,4995.899466629373,None,4995.899466629373,None,3,2.6462520992499776,4995.899466629373,None,4998.600351433735,None,4998.600351433735,None,4999.117183865164,None,4999.117183865164,None,4999.117183865164,None,f,0.5884036200586706,4999.117183865164,None,sing21,001,2019_Nov_05_1359,ProdFawcett_Revision2019,3.2.4,59.90509528916813,
,,,,96,0,96,0,,,,,,,,,,,,,5003.718471729779,None,,,,,,,,,,,,,,,,,,,,,,capital,B_aloud,96,40,5000.268227903231,None,5000.268227903231,None,5000.268227903231,None,6,1.9814918828196824,5000.268227903231,None,5002.288972756127,None,5002.288972756127,None,5002.818235678307,None,5002.818235678307,None,5002.818235678307,None,r,0.8632897929055616,5002.818235678307,None,sing21,001,2019_Nov_05_1359,ProdFawcett_Revision2019,3.2.4,59.90509528916813,
,,,,97,0,97,0,,,,,,,,,,,,,5007.836542265373,None,,,,,,,,,,,,,,,,,,,,,,state,B_aloud,97,303,5004.235356409801,None,5004.235356409801,None,5004.235356409801,None,2,2.0139786651707254,5004.235356409801,None,5006.302608695638,None,5006.302608695638,None,5006.81955308828,None,5006.81955308828,None,5006.81955308828,None,f,0.9818361634388566,5006.81955308828,None,sing21,001,2019_Nov_05_1359,ProdFawcett_Revision2019,3.2.4,59.90509528916813,
,,,,98,0,98,0,,,,,,,,,,,,,5012.638009267917,None,,,,,,,,,,,,,,,,,,,,,,answer,A_silent,98,8,5008.353359457629,None,5008.353359457629,None,5008.353359457629,None,6,2.6318458045716397,5008.353359457629,None,5011.037512906652,None,5011.037512906652,None,5011.554243017978,None,5011.554243017978,None,5011.554243017978,None,r,1.0467030540457927,5011.554243017978,None,sing21,001,2019_Nov_05_1359,ProdFawcett_Revision2019,3.2.4,59.90509528916813,
,,,,99,0,99,0,,,,,,,,,,,,,5016.189111152606,None,,,,,,,,,,,,,,,,,,,,,,company,D_new,99,64,5013.154800335877,None,5013.154800335877,None,5013.154800335877,None,1,1.9748308142297901,5013.154800335877,None,5015.188769048953,None,5015.188769048953,None,5015.705653728917,None,5015.705653728917,None,5015.705653728917,None,n,0.43978074262849987,5015.705653728917,None,sing21,001,2019_Nov_05_1359,ProdFawcett_Revision2019,3.2.4,59.90509528916813,
,,,,100,0,100,0,,,,,,,,,,,,,5020.557079368038,None,,,,,,,,,,,,,,,,,,,,,,review,D_new,100,263,5016.707078124047,None,5016.707078124047,None,5016.707078124047,None,4,2.5098861727747135,5016.707078124047,None,5019.273372519761,None,5019.273372519761,None,5019.790278969973,None,5019.790278969973,None,5019.790278969973,None,f,0.7226864465046674,5019.790278969973,None,sing21,001,2019_Nov_05_1359,ProdFawcett_Revision2019,3.2.4,59.90509528916813,
,,,,101,0,101,0,,,,,,,,,,,,,5024.908503141138,None,,,,,,,,,,,,,,,,,,,,,,colonel,C_sing,101,55,5021.075922124786,None,5021.075922124786,None,5021.075922124786,None,6,2.2522886732476763,5021.075922124786,None,5023.37941873481,None,5023.37941873481,None,5023.908071779588,None,5023.908071779588,None,5023.908071779588,None,r,0.9570131243672222,5023.908071779588,None,sing21,001,2019_Nov_05_1359,ProdFawcett_Revision2019,3.2.4,59.90509528916813,
,,,,102,0,102,0,,,,,,,,,,,,,5030.793625987426,None,,,,,,,,,,,,,,,,,,,,,,level,A_silent,102,170,5025.425479567086,None,5025.425479567086,None,5025.425479567086,None,4,4.4948398332926445,5025.425479567086,None,5029.963994837366,None,5029.963994837366,None,5030.476779249846,None,5030.476779249846,None,5030.476779249846,None,f,0.2754008832271211,5030.476779249846,None,sing21,001,2019_Nov_05_1359,ProdFawcett_Revision2019,3.2.4,59.90509528916813,
,,,,103,0,103,0,,,,,,,,,,,,,5033.4944212228875,None,,,,,,,,,,,,,,,,,,,,,,universal,D_new,103,345,5031.310432605562,None,5031.310432605562,None,5031.310432605562,None,1,1.2972631709999405,5031.310432605562,None,5032.660798656463,None,5032.660798656463,None,5033.177515394636,None,5033.177515394636,None,5033.177515394636,None,n,0.27820737700676546,5033.177515394636,None,sing21,001,2019_Nov_05_1359,ProdFawcett_Revision2019,3.2.4,59.90509528916813,
,,,,104,0,104,0,,,,,,,,,,,,,5037.928980220167,None,,,,,,,,,,,,,,,,,,,,,,problem,D_new,104,238,5034.011994775152,None,5034.011994775152,None,5034.011994775152,None,2,2.6923667350783944,5034.011994775152,None,5036.762105803296,None,5036.762105803296,None,5037.279019717593,None,5037.279019717593,None,5037.279019717593,None,n,0.6092327548540197,5037.279019717593,None,sing21,001,2019_Nov_05_1359,ProdFawcett_Revision2019,3.2.4,59.90509528916813,
,,,,105,0,105,0,,,,,,,,,,,,,5040.746632767317,None,,,,,,,,,,,,,,,,,,,,,,running,D_new,105,268,5038.447002239234,None,5038.447002239234,None,5038.447002239234,None,1,1.2887304845498875,5038.447002239234,None,5039.785503514344,None,5039.785503514344,None,5040.313231635257,None,5040.313231635257,None,5040.313231635257,None,n,0.3908250917447731,5040.313231635257,None,sing21,001,2019_Nov_05_1359,ProdFawcett_Revision2019,3.2.4,59.90509528916813,
,,,,106,0,106,0,,,,,,,,,,,,,5045.531523916172,None,,,,,,,,,,,,,,,,,,,,,,nation,B_aloud,106,198,5041.264114884601,None,5041.264114884601,None,5041.264114884601,None,4,3.3190085215028375,5041.264114884601,None,5044.6478991727345,None,5044.6478991727345,None,5045.164802512911,None,5045.164802512911,None,5045.164802512911,None,f,0.3302534677204676,5045.164802512911,None,sing21,001,2019_Nov_05_1359,ProdFawcett_Revision2019,3.2.4,59.90509528916813,
,,,,107,0,107,0,,,,,,,,,,,,,5048.099020028603,None,,,,,,,,,,,,,,,,,,,,,,provision,D_new,107,243,5046.049084406288,None,5046.049084406288,None,5046.049084406288,None,1,1.2458832493284717,5046.049084406288,None,5047.348769359931,None,5047.348769359931,None,5047.865565404005,None,5047.865565404005,None,5047.865565404005,None,n,0.19010107609210536,5047.865565404005,None,sing21,001,2019_Nov_05_1359,ProdFawcett_Revision2019,3.2.4,59.90509528916813,
,,,,108,0,108,0,,,,,,,,,,,,,5050.8666016669595,None,,,,,,,,,,,,,,,,,,,,,,ground,A_silent,108,142,5048.616034707986,None,5048.616034707986,None,5048.616034707986,None,2,1.4627648193272762,5048.616034707986,None,5050.132930273074,None,5050.132930273074,None,5050.649818063073,None,5050.649818063073,None,5050.649818063073,None,n,0.1809973875642754,5050.649818063073,None,sing21,001,2019_Nov_05_1359,ProdFawcett_Revision2019,3.2.4,59.90509528916813,
,,,,109,0,109,0,,,,,,,,,,,,,5055.1845481122145,None,,,,,,,,,,,,,,,,,,,,,,pretty,B_aloud,109,233,5051.384148472978,None,5051.384148472978,None,5051.384148472978,None,5,2.886312433925923,5051.384148472978,None,5054.334269142244,None,5054.334269142244,None,5054.85117248242,None,5054.85117248242,None,5054.85117248242,None,r,0.2997281831339933,5054.85117248242,None,sing21,001,2019_Nov_05_1359,ProdFawcett_Revision2019,3.2.4,59.90509528916813,
,,,,110,0,110,0,,,,,,,,,,,,,5060.03603564098,None,,,,,,,,,,,,,,,,,,,,,,institute,C_sing,110,162,5055.702920631971,None,5055.702920631971,None,5055.702920631971,None,4,3.0953221993986517,5055.702920631971,None,5058.852398457413,None,5058.852398457413,None,5059.3691503389855,None,5059.3691503389855,None,5059.3691503389855,None,f,0.6290520619368181,5059.3691503389855,None,sing21,001,2019_Nov_05_1359,ProdFawcett_Revision2019,3.2.4,59.90509528916813,
,,,,111,0,111,0,,,,,,,,,,,,,5063.220419543446,None,,,,,,,,,,,,,,,,,,,,,,threat,D_new,111,329,5060.552915655891,None,5060.552915655891,None,5060.552915655891,None,2,1.6691814392688684,5060.552915655891,None,5062.286683149869,None,5062.286683149869,None,5062.803579336964,None,5062.803579336964,None,5062.803579336964,None,n,0.3703486346639693,5062.803579336964,None,sing21,001,2019_Nov_05_1359,ProdFawcett_Revision2019,3.2.4,59.90509528916813,
,,,,112,0,112,0,,,,,,,,,,,,,5065.921222864941,None,,,,,,,,,,,,,,,,,,,,,,right,D_new,112,265,5063.737307022442,None,5063.737307022442,None,5063.737307022442,None,1,1.420485787151847,5063.737307022442,None,5065.220928344817,None,5065.220928344817,None,5065.7378310629865,None,5065.7378310629865,None,5065.7378310629865,None,n,0.14817036758176982,5065.7378310629865,None,sing21,001,2019_Nov_05_1359,ProdFawcett_Revision2019,3.2.4,59.90509528916813,
,,,,113,0,113,0,,,,,,,,,,,,,5069.272173913021,None,,,,,,,,,,,,,,,,,,,,,,crisis,D_new,113,79,5066.437970703468,None,5066.437970703468,None,5066.437970703468,None,1,2.1196302170865238,5066.437970703468,None,5068.611471356591,None,5068.611471356591,None,5069.138925172621,None,5069.138925172621,None,5069.138925172621,None,n,0.09150805498939008,5069.138925172621,None,sing21,001,2019_Nov_05_1359,ProdFawcett_Revision2019,3.2.4,59.90509528916813,
,,,,114,0,114,0,,,,,,,,,,,,,5071.60616937239,None,,,,,,,,,,,,,,,,,,,,,,fashion,A_silent,114,125,5069.789824283158,None,5069.789824283158,None,5069.789824283158,None,1,1.063808857346885,5069.789824283158,None,5070.894807177945,None,5070.894807177945,None,5071.422741805087,None,5071.422741805087,None,5071.422741805087,None,n,0.1431933818385005,5071.422741805087,None,sing21,001,2019_Nov_05_1359,ProdFawcett_Revision2019,3.2.4,59.90509528916813,
,,,,115,0,115,0,,,,,,,,,,,,,5075.09059868136,None,,,,,,,,,,,,,,,,,,,,,,relation,D_new,115,257,5072.122956397361,None,5072.122956397361,None,5072.122956397361,None,1,2.218379672849551,5072.122956397361,None,5074.407116066432,None,5074.407116066432,None,5074.923998258368,None,5074.923998258368,None,5074.923998258368,None,n,0.12122566398466006,5074.923998258368,None,sing21,001,2019_Nov_05_1359,ProdFawcett_Revision2019,3.2.4,59.90509528916813,
,,,,116,0,116,0,,,,,,,,,,,,,5080.742411519575,None,,,,,,,,,,,,,,,,,,,,,,attack,D_new,116,13,5075.607535609859,None,5075.607535609859,None,5075.607535609859,None,1,4.342356160923373,5075.607535609859,None,5080.008768426953,None,5080.008768426953,None,5080.525746407919,None,5080.525746407919,None,5080.525746407919,None,f,0.18357156187994406,5080.525746407919,None,sing21,001,2019_Nov_05_1359,ProdFawcett_Revision2019,3.2.4,59.90509528916813,
,,,,117,0,117,0,,,,,,,,,,,,,5087.161178391485,None,,,,,,,,,,,,,,,,,,,,,,article,C_sing,117,11,5081.259757106425,None,5081.259757106425,None,5081.259757106425,None,2,5.088832493580412,5081.259757106425,None,5086.4108017664985,None,5086.4108017664985,None,5086.927715058788,None,5086.927715058788,None,5086.927715058788,None,f,0.19677023077383637,5086.927715058788,None,sing21,001,2019_Nov_05_1359,ProdFawcett_Revision2019,3.2.4,59.90509528916813,
,,,,118,0,118,0,,,,,,,,,,,,,5091.812559246144,None,,,,,,,,,,,,,,,,,,,,,,pressure,D_new,118,232,5087.679095291416,None,5087.679095291416,None,5087.679095291416,None,1,3.2776768053881824,5087.679095291416,None,5091.012374510174,None,5091.012374510174,None,5091.529006033437,None,5091.529006033437,None,5091.529006033437,None,n,0.23528456804342568,5091.529006033437,None,sing21,001,2019_Nov_05_1359,ProdFawcett_Revision2019,3.2.4,59.90509528916813,
,,,,119,0,119,0,,,,,,,,,,,,,5095.696969583863,None,,,,,,,,,,,,,,,,,,,,,,harmony,A_silent,119,148,5092.329659762385,None,5092.329659762385,None,5092.329659762385,None,1,2.650762891047634,5092.329659762385,None,5095.030271816882,None,5095.030271816882,None,5095.546923866379,None,5095.546923866379,None,5095.546923866379,None,n,0.11329383589327335,5095.546923866379,None,sing21,001,2019_Nov_05_1359,ProdFawcett_Revision2019,3.2.4,59.90509528916813,
,,,,120,0,120,0,,,,,,,,,,,,,5101.315494495211,None,,,,,,,,,,,,,,,,,,,,,,column,C_sing,120,57,5096.214788828744,None,5096.214788828744,None,5096.214788828744,None,4,3.5093661752762273,5096.214788828744,None,5099.781648628472,None,5099.781648628472,None,5100.298514648282,None,5100.298514648282,None,5100.298514648282,None,r,0.9776659202761948,5100.298514648282,None,sing21,001,2019_Nov_05_1359,ProdFawcett_Revision2019,3.2.4,59.90509528916813,
,,,,121,0,121,0,,,,,,,,,,,,,5105.533432543394,None,,,,,,,,,,,,,,,,,,,,,,agreement,D_new,121,5,5101.834221558762,None,5101.834221558762,None,5101.834221558762,None,3,2.106265783426352,5101.834221558762,None,5103.999677800573,None,5103.999677800573,None,5104.516255831288,None,5104.516255831288,None,5104.516255831288,None,f,0.9757579150027595,5104.516255831288,None,sing21,001,2019_Nov_05_1359,ProdFawcett_Revision2019,3.2.4,59.90509528916813,
,,,,122,0,122,0,,,,,,,,,,,,,5110.38503421034,None,,,,,,,,,,,,,,,,,,,,,,motion,B_aloud,122,194,5106.050284567988,None,5106.050284567988,None,5106.050284567988,None,4,3.169048329931684,5106.050284567988,None,5109.2845294520375,None,5109.2845294520375,None,5109.801336070173,None,5109.801336070173,None,5109.801336070173,None,f,0.5459529141080566,5109.801336070173,None,sing21,001,2019_Nov_05_1359,ProdFawcett_Revision2019,3.2.4,59.90509528916813,
,,,,123,0,123,0,,,,,,,,,,,,,5113.019150028005,None,,,,,,,,,,,,,,,,,,,,,,territory,A_silent,123,324,5110.903876345081,None,5110.903876345081,None,5110.903876345081,None,1,1.2672308266046457,5110.903876345081,None,5112.235516576446,None,5112.235516576446,None,5112.7523658020655,None,5112.7523658020655,None,5112.7523658020655,None,n,0.2187612738343887,5112.7523658020655,None,sing21,001,2019_Nov_05_1359,ProdFawcett_Revision2019,3.2.4,59.90509528916813,
,,,,124,0,124,0,,,,,,,,,,,,,5117.387009392318,None,,,,,,,,,,,,,,,,,,,,,,tennis,B_aloud,124,323,5113.535940162954,None,5113.535940162954,None,5113.535940162954,None,6,1.8350314113195054,5113.535940162954,None,5115.436397648824,None,5115.436397648824,None,5115.953479504853,None,5115.953479504853,None,5115.953479504853,None,r,1.3854394476511516,5115.953479504853,None,sing21,001,2019_Nov_05_1359,ProdFawcett_Revision2019,3.2.4,59.90509528916813,
,,,,125,0,125,0,,,,,,,,,,,,,5123.539081607247,None,,,,,,,,,,,,,,,,,,,,,,orchestra,A_silent,125,206,5117.905744230899,None,5117.905744230899,None,5117.905744230899,None,1,4.71289948374033,5117.905744230899,None,5122.672055420815,None,5122.672055420815,None,5123.189122659678,None,5123.189122659678,None,5123.189122659678,None,f,0.3098236611112952,5123.189122659678,None,sing21,001,2019_Nov_05_1359,ProdFawcett_Revision2019,3.2.4,59.90509528916813,
,,,,126,0,126,0,,,,,,,,,,,,,5128.157140324707,None,,,,,,,,,,,,,,,,,,,,,,executive,A_silent,126,122,5124.056740685424,None,5124.056740685424,None,5124.056740685424,None,6,2.9455532748252153,5124.056740685424,None,5127.056686881871,None,5127.056686881871,None,5127.573596753122,None,5127.573596753122,None,5127.573596753122,None,r,0.5486035952344537,5127.573596753122,None,sing21,001,2019_Nov_05_1359,ProdFawcett_Revision2019,3.2.4,59.90509528916813,
,,,,127,0,127,0,,,,,,,,,,,,,5130.607873670466,None,,,,,,,,,,,,,,,,,,,,,,south,D_new,127,296,5128.673949119868,None,5128.673949119868,None,5128.673949119868,None,1,1.1041204826906323,5128.673949119868,None,5129.840922746807,None,5129.840922746807,None,5130.357848790183,None,5130.357848790183,None,5130.357848790183,None,n,0.2041553150047548,5130.357848790183,None,sing21,001,2019_Nov_05_1359,ProdFawcett_Revision2019,3.2.4,59.90509528916813,
,,,,128,0,128,0,,,,,,,,,,,,,5133.875560427958,None,,,,,,,,,,,,,,,,,,,,,,exchange,C_sing,128,121,5131.125092678994,None,5131.125092678994,None,5131.125092678994,None,1,1.9256761212018318,5131.125092678994,None,5133.1086623748415,None,5133.1086623748415,None,5133.625509423378,None,5133.625509423378,None,5133.625509423378,None,n,0.21682310133473948,5133.625509423378,None,sing21,001,2019_Nov_05_1359,ProdFawcett_Revision2019,3.2.4,59.90509528916813,
,,,,129,0,129,0,,,,,,,,,,,,,5136.543110032973,None,,,,,,,,,,,,,,,,,,,,,,entrance,A_silent,129,115,5134.392721900833,None,5134.392721900833,None,5134.392721900833,None,1,1.3450665546697564,5134.392721900833,None,5135.792709149711,None,5135.792709149711,None,5136.309600049746,None,5136.309600049746,None,5136.309600049746,None,n,0.1881025688489899,5136.309600049746,None,sing21,001,2019_Nov_05_1359,ProdFawcett_Revision2019,3.2.4,59.90509528916813,
,,,,130,0,130,0,,,,,,,,,,,,,5139.894168688159,None,,,,,,,,,,,,,,,,,,,,,,instrument,C_sing,130,163,5137.060854948068,None,5137.060854948068,None,5137.060854948068,None,6,1.3969111152691767,5137.060854948068,None,5138.510298252164,None,5138.510298252164,None,5139.027209678432,None,5139.027209678432,None,5139.027209678432,None,r,0.83040585933486,5139.027209678432,None,sing21,001,2019_Nov_05_1359,ProdFawcett_Revision2019,3.2.4,59.90509528916813,
,,,,131,0,131,0,,,,,,,,,,,,,5142.761525471171,None,,,,,,,,,,,,,,,,,,,,,,shear,D_new,131,283,5140.411082913459,None,5140.411082913459,None,5140.411082913459,None,1,1.478410151146818,5140.411082913459,None,5141.94477887667,None,5141.94477887667,None,5142.461428127135,None,5142.461428127135,None,5142.461428127135,None,n,0.26037040492519736,5142.461428127135,None,sing21,001,2019_Nov_05_1359,ProdFawcett_Revision2019,3.2.4,59.90509528916813,
,,,,132,0,132,0,,,,,,,,,,,,,5145.2790657461155,None,,,,,,,,,,,,,,,,,,,,,,spoke,D_new,132,300,5143.278387447877,None,5143.278387447877,None,5143.278387447877,None,1,1.170822914747987,5143.278387447877,None,5144.502659389167,None,5144.502659389167,None,5145.029071344179,None,5145.029071344179,None,5145.029071344179,None,n,0.21216520492453128,5145.029071344179,None,sing21,001,2019_Nov_05_1359,ProdFawcett_Revision2019,3.2.4,59.90509528916813,
,,,,133,0,133,0,,,,,,,,,,,,,5149.096870062815,None,,,,,,,,,,,,,,,,,,,,,,degree,D_new,133,89,5145.795900354569,None,5145.795900354569,None,5145.795900354569,None,4,2.4050836598617025,5145.795900354569,None,5148.263394601003,None,5148.263394601003,None,5148.7802233003895,None,5148.7802233003895,None,5148.7802233003895,None,f,0.2771673819515854,5148.7802233003895,None,sing21,001,2019_Nov_05_1359,ProdFawcett_Revision2019,3.2.4,59.90509528916813,
,,,,134,0,134,0,,,,,,,,,,,,,5154.498634384538,None,,,,,,,,,,,,,,,,,,,,,,business,A_silent,134,38,5149.615887292428,None,5149.615887292428,None,5149.615887292428,None,2,3.2653576537850313,5149.615887292428,None,5152.931372768537,None,5152.931372768537,None,5153.448180319683,None,5153.448180319683,None,5153.448180319683,None,n,1.009354979149066,5153.448180319683,None,sing21,001,2019_Nov_05_1359,ProdFawcett_Revision2019,3.2.4,59.90509528916813,
,,,,135,0,135,0,,,,,,,,,,,,,5157.966378366633,None,,,,,,,,,,,,,,,,,,,,,,foundation,B_aloud,135,132,5155.016769608774,None,5155.016769608774,None,5155.016769608774,None,6,2.0478574982844293,5155.016769608774,None,5157.116058344196,None,5157.116058344196,None,5157.6328991727205,None,5157.6328991727205,None,5157.6328991727205,None,r,0.2956568389781751,5157.6328991727205,None,sing21,001,2019_Nov_05_1359,ProdFawcett_Revision2019,3.2.4,59.90509528916813,
,,,,136,0,136,0,,,,,,,,,,,,,5162.334349070094,None,,,,,,,,,,,,,,,,,,,,,,worker,D_new,136,356,5158.483778379043,None,5158.483778379043,None,5158.483778379043,None,1,3.084515767870471,5158.483778379043,None,5161.606778627844,None,5161.606778627844,None,5162.134284692409,None,5162.134284692409,None,5162.134284692409,None,n,0.15389842633157969,5162.134284692409,None,sing21,001,2019_Nov_05_1359,ProdFawcett_Revision2019,3.2.4,59.90509528916813,
,,,,137,0,137,0,,,,,,,,,,,,,5166.435565093008,None,,,,,,,,,,,,,,,,,,,,,,discussion,C_sing,137,96,5162.852720034833,None,5162.852720034833,None,5162.852720034833,None,3,2.4275779062882066,5162.852720034833,None,5165.325484854111,None,5165.325484854111,None,5165.8520908751525,None,5165.8520908751525,None,5165.8520908751525,None,f,0.540849972050637,5165.8520908751525,None,sing21,001,2019_Nov_05_1359,ProdFawcett_Revision2019,3.2.4,59.90509528916813,
,,,,138,0,138,0,,,,,,,,,,,,,5170.153346395469,None,,,,,,,,,,,,,,,,,,,,,,suspect,B_aloud,138,318,5166.952704173687,None,5166.952704173687,None,5166.952704173687,None,6,2.287060707807541,5166.952704173687,None,5169.290772221168,None,5169.290772221168,None,5169.819936866348,None,5169.819936866348,None,5169.819936866348,None,r,0.2927281209267676,5169.819936866348,None,sing21,001,2019_Nov_05_1359,ProdFawcett_Revision2019,3.2.4,59.90509528916813,
,,,,139,0,139,0,,,,,,,,,,,,,5173.821269204433,None,,,,,,,,,,,,,,,,,,,,,,marriage,D_new,139,179,5170.655869876209,None,5170.655869876209,None,5170.655869876209,None,2,1.567747092107311,5170.655869876209,None,5172.27515612368,None,5172.27515612368,None,5172.787526279804,None,5172.787526279804,None,5172.787526279804,None,n,0.9961112148012035,5172.787526279804,None,sing21,001,2019_Nov_05_1359,ProdFawcett_Revision2019,3.2.4,59.90509528916813,
,,,,140,0,140,0,,,,,,,,,,,,,5176.33876500593,None,,,,,,,,,,,,,,,,,,,,,,salary,D_new,140,271,5174.338103501883,None,5174.338103501883,None,5174.338103501883,None,1,1.1742501710541546,5174.338103501883,None,5175.558532064431,None,5175.558532064431,None,5176.0885006531025,None,5176.0885006531025,None,5176.0885006531025,None,n,0.20777383836684749,5176.0885006531025,None,sing21,001,2019_Nov_05_1359,ProdFawcett_Revision2019,3.2.4,59.90509528916813,
,,,,141,0,141,0,,,,,,,,,,,,,5181.0400634447,None,,,,,,,,,,,,,,,,,,,,,,dance,A_silent,141,84,5176.855553585861,None,5176.855553585861,None,5176.855553585861,None,1,3.2875828823889606,5176.855553585861,None,5180.20685078064,None,5180.20685078064,None,5180.723406730103,None,5180.723406730103,None,5180.723406730103,None,n,0.27609131060307845,5180.723406730103,None,sing21,001,2019_Nov_05_1359,ProdFawcett_Revision2019,3.2.4,59.90509528916813,
,,,,142,0,142,0,,,,,,,,,,,,,5185.691666044644,None,,,,,,,,,,,,,,,,,,,,,,region,C_sing,142,256,5181.556931641477,None,5181.556931641477,None,5181.556931641477,None,3,2.8504966722684912,5181.556931641477,None,5184.457927474054,None,5184.457927474054,None,5184.974604403833,None,5184.974604403833,None,5184.974604403833,None,f,0.6804136343998834,5184.974604403833,None,sing21,001,2019_Nov_05_1359,ProdFawcett_Revision2019,3.2.4,59.90509528916813,
,,,,143,0,143,0,,,,,,,,,,,,,5191.810036387411,None,,,,,,,,,,,,,,,,,,,,,,store,D_new,143,305,5186.208443117503,None,5186.208443117503,None,5186.208443117503,None,2,3.9822731231106445,5186.208443117503,None,5190.23011507123,None,5190.23011507123,None,5190.759735025174,None,5190.759735025174,None,5190.759735025174,None,f,1.0149312682333402,5190.759735025174,None,sing21,001,2019_Nov_05_1359,ProdFawcett_Revision2019,3.2.4,59.90509528916813,
,,,,144,0,144,0,,,,,,,,,,,,,5197.328426012304,None,,,,,,,,,,,,,,,,,,,,,,design,D_new,144,91,5192.327686446486,None,5192.327686446486,None,5192.327686446486,None,2,4.14313304721145,5192.327686446486,None,5196.528501897119,None,5196.528501897119,None,5197.0451707408065,None,5197.0451707408065,None,5197.0451707408065,None,f,0.241940971580334,5197.0451707408065,None,sing21,001,2019_Nov_05_1359,ProdFawcett_Revision2019,3.2.4,59.90509528916813,
,,,,145,0,145,0,,,,,,,,,,,,,5202.380128444347,None,,,,,,,,,,,,,,,,,,,,,,science,D_new,145,275,5197.846758412663,None,5197.846758412663,None,5197.846758412663,None,6,3.5754008832154796,5197.846758412663,None,5201.479767680517,None,5201.479767680517,None,5201.996658891556,None,5201.996658891556,None,5201.996658891556,None,r,0.3452870560577139,5201.996658891556,None,sing21,001,2019_Nov_05_1359,ProdFawcett_Revision2019,3.2.4,59.90509528916813,
,,,,146,0,146,0,,,,,,,,,,,,,5208.148586490017,None,,,,,,,,,,,,,,,,,,,,,,trial,D_new,146,341,5202.897112023376,None,5202.897112023376,None,5202.897112023376,None,4,3.3254235865315422,5202.897112023376,None,5206.271550973412,None,5206.271550973412,None,5206.798206755018,None,5206.798206755018,None,5206.798206755018,None,f,1.3033100080792792,5206.798206755018,None,sing21,001,2019_Nov_05_1359,ProdFawcett_Revision2019,3.2.4,59.90509528916813,
,,,,147,0,147,0,,,,,,,,,,,,,5213.033398955013,None,,,,,,,,,,,,,,,,,,,,,,strain,C_sing,147,308,5208.665863345144,None,5208.665863345144,None,5208.665863345144,None,2,2.9714638924924657,5208.665863345144,None,5211.699551844271,None,5211.699551844271,None,5212.2165285812225,None,5212.2165285812225,None,5212.2165285812225,None,f,0.7734048640704714,5212.2165285812225,None,sing21,001,2019_Nov_05_1359,ProdFawcett_Revision2019,3.2.4,59.90509528916813,
,,,,148,0,148,0,,,,,,,,,,,,,5217.534772345563,None,,,,,,,,,,,,,,,,,,,,,,majority,A_silent,148,176,5213.553952851915,None,5213.553952851915,None,5213.553952851915,None,1,3.131255209329538,5213.553952851915,None,5216.734467562346,None,5216.734467562346,None,5217.25271070475,None,5217.25271070475,None,5217.25271070475,None,n,0.24106114328606054,5217.25271070475,None,sing21,001,2019_Nov_05_1359,ProdFawcett_Revision2019,3.2.4,59.90509528916813,
,,,,149,0,149,0,,,,,,,,,,,,,5220.519078497251,None,,,,,,,,,,,,,,,,,,,,,,emergency,B_aloud,149,110,5218.05156154756,None,5218.05156154756,None,5218.05156154756,None,6,1.4422641040291637,5218.05156154756,None,5219.552141879685,None,5219.552141879685,None,5220.068805125309,None,5220.068805125309,None,5220.068805125309,None,r,0.4085849350085482,5220.068805125309,None,sing21,001,2019_Nov_05_1359,ProdFawcett_Revision2019,3.2.4,59.90509528916813,
,,,,150,0,150,0,,,,,,,,,,,,,5224.02012751135,None,,,,,,,,,,,,,,,,,,,,,,bitter,D_new,150,23,5221.0360247558565,None,5221.0360247558565,None,5221.0360247558565,None,6,2.1127184798242524,5221.0360247558565,None,5223.20318840578,None,5223.20318840578,None,5223.720064688707,None,5223.720064688707,None,5223.720064688707,None,r,0.2525104185915552,5223.720064688707,None,sing21,001,2019_Nov_05_1359,ProdFawcett_Revision2019,3.2.4,59.90509528916813,
,,,,151,0,151,0,,,,,,,,,,,,,5226.687677116366,None,,,,,,,,,,,,,,,,,,,,,,mankind,B_aloud,151,178,5224.5367873359355,None,5224.5367873359355,None,5224.5367873359355,None,1,1.1958067425293848,5224.5367873359355,None,5225.775825713761,None,5225.775825713761,None,5226.304014119552,None,5226.304014119552,None,5226.304014119552,None,n,0.34861479134997353,5226.304014119552,None,sing21,001,2019_Nov_05_1359,ProdFawcett_Revision2019,3.2.4,59.90509528916813,
,,,,152,0,152,0,,,,,,,,,,,,,5229.371720781259,None,,,,,,,,,,,,,,,,,,,,,,curve,B_aloud,152,82,5227.204266343208,None,5227.204266343208,None,5227.204266343208,None,1,1.3040806742501445,5227.204266343208,None,5228.571487839741,None,5228.571487839741,None,5229.088409529126,None,5229.088409529126,None,5229.088409529126,None,n,0.2358776512555778,5229.088409529126,None,sing21,001,2019_Nov_05_1359,ProdFawcett_Revision2019,3.2.4,59.90509528916813,
,,,,153,0,153,0,,,,,,,,,,,,,5233.022850345238,None,,,,,,,,,,,,,,,,,,,,,,drama,B_aloud,153,103,5229.88877744606,None,5229.88877744606,None,5229.88877744606,None,3,2.1315083659719676,5229.88877744606,None,5232.0726528581,None,5232.0726528581,None,5232.589821173111,None,5232.589821173111,None,5232.589821173111,None,f,0.3985892890486866,5232.589821173111,None,sing21,001,2019_Nov_05_1359,ProdFawcett_Revision2019,3.2.4,59.90509528916813,
,,,,154,0,154,0,,,,,,,,,,,,,5235.907015612349,None,,,,,,,,,,,,,,,,,,,,,,corner,C_sing,154,69,5233.539834546216,None,5233.539834546216,None,5233.539834546216,None,1,1.5041133295744658,5233.539834546216,None,5235.106881258951,None,5235.106881258951,None,5235.626460471482,None,5235.626460471482,None,5235.626460471482,None,n,0.24176152265863493,5235.626460471482,None,sing21,001,2019_Nov_05_1359,ProdFawcett_Revision2019,3.2.4,59.90509528916813,
,,,,155,0,155,0,,,,,,,,,,,,,5239.641660135589,None,,,,,,,,,,,,,,,,,,,,,,listen,C_sing,155,172,5236.423921751557,None,5236.423921751557,None,5236.423921751557,None,6,2.347949866321869,5236.423921751557,None,5238.811682216823,None,5238.811682216823,None,5239.324808110949,None,5239.324808110949,None,5239.324808110949,None,r,0.278978354181163,5239.324808110949,None,sing21,001,2019_Nov_05_1359,ProdFawcett_Revision2019,3.2.4,59.90509528916813,
