StudyTrials.thisRepN,StudyTrials.thisTrialN,StudyTrials.thisN,StudyTrials.thisIndex,TestTrials.thisRepN,TestTrials.thisTrialN,TestTrials.thisN,TestTrials.thisIndex,textWelcome.started,textWelcome.stopped,keyWelcome.keys,keyWelcome.rt,keyWelcome.started,keyWelcome.stopped,textReady.started,textReady.stopped,keyReady.keys,keyReady.rt,keyReady.started,keyReady.stopped,polyback_2.started,polyback_2.stopped,studyPic,studyWord,studyType,studyN,studyOrder,polyback_3.started,polyback_3.stopped,studyPicChoice.started,studyPicChoice.stopped,polyback_4.started,polyback_4.stopped,polyback.started,polyback.stopped,studyWords.started,studyWords.stopped,getResearcher.started,getResearcher.stopped,kPress2.keys,kPress2.rt,kPress2.started,kPress2.stopped,testWord,testType,testN,testOrder,polyback_5.started,polyback_5.stopped,testWords.started,testWords.stopped,textScale.started,textScale.stopped,keyConf.keys,keyConf.rt,keyConf.started,keyConf.stopped,polyback_6.started,polyback_6.stopped,studyWords_2.started,studyWords_2.stopped,polyback_7.started,polyback_7.stopped,testWords_2.started,testWords_2.stopped,textScale_2.started,textScale_2.stopped,keyRKN.keys,keyRKN.rt,keyRKN.started,keyRKN.stopped,participant,session,date,expName,psychopyVersion,frameRate,
,,,,,,,,10.850304161227541,None,space,1526.4818551346834,10.850304161227541,None,,,,,,,,,,,,,,,,,,,,,,,,,,,,,,,,,,,,,,,,,,,,,,,,,,,,,,,,,,sing9,001,2019_Oct_26_1502,ProdFawcett_Revision2019,3.2.4,59.99932824338381,
,,,,,,,,,,,,,,1537.351267649443,None,space,26.051219754939666,1537.351267649443,None,,,,,,,,,,,,,,,,,,,,,,,,,,,,,,,,,,,,,,,,,,,,,,,,,,,,sing9,001,2019_Oct_26_1502,ProdFawcett_Revision2019,3.2.4,59.99932824338381,
0,0,0,0,,,,,,,,,,,,,,,,,1568.2108583691006,None,materials/singPic.jpg,population,C_sing,0,227,1564.5996983267833,None,1564.5996983267833,None,1565.4609050196013,None,1565.7266815948242,None,1565.7266815948242,None,,,,,,,,,,,,,,,,,,,,,,,,,,,,,,,,,,,sing9,001,2019_Oct_26_1502,ProdFawcett_Revision2019,3.2.4,59.99932824338381,
1,0,1,0,,,,,,,,,,,,,,,,,1572.47886732599,None,materials/singPic.jpg,character,C_sing,1,46,1568.80047023698,None,1568.80047023698,None,1569.727936182113,None,1569.9946476332552,None,1569.9946476332552,None,,,,,,,,,,,,,,,,,,,,,,,,,,,,,,,,,,,sing9,001,2019_Oct_26_1502,ProdFawcett_Revision2019,3.2.4,59.99932824338381,
2,0,2,0,,,,,,,,,,,,,,,,,1576.7468240343442,None,materials/speakPic.jpg,range,B_aloud,2,251,1573.1001520806167,None,1573.1001520806167,None,1573.99593269889,None,1574.2626055856235,None,1574.2626055856235,None,,,,,,,,,,,,,,,,,,,,,,,,,,,,,,,,,,,sing9,001,2019_Oct_26_1502,ProdFawcett_Revision2019,3.2.4,59.99932824338381,
3,0,3,0,,,,,,,,,,,,,,,,,1581.014808732958,None,materials/singPic.jpg,mankind,C_sing,3,178,1577.3647306711355,None,1577.3647306711355,None,1578.2639043353847,None,1578.5306073894317,None,1578.5306073894317,None,,,,,,,,,,,,,,,,,,,,,,,,,,,,,,,,,,,sing9,001,2019_Oct_26_1502,ProdFawcett_Revision2019,3.2.4,59.99932824338381,
4,0,4,0,,,,,,,,,,,,,,,,,1585.2827959196293,None,materials/speakPic.jpg,waste,B_aloud,4,350,1581.6182701996586,None,1581.6182701996586,None,1582.5320006842085,None,1582.7986067052407,None,1582.7986067052407,None,,,,,,,,,,,,,,,,,,,,,,,,,,,,,,,,,,,sing9,001,2019_Oct_26_1502,ProdFawcett_Revision2019,3.2.4,59.99932824338381,
5,0,5,0,,,,,,,,,,,,,,,,,1589.5507837283076,None,materials/speakPic.jpg,trail,B_aloud,5,336,1585.8661258319335,None,1585.8661258319335,None,1586.7998908378358,None,1587.066581140767,None,1587.066581140767,None,,,,,,,,,,,,,,,,,,,,,,,,,,,,,,,,,,,sing9,001,2019_Oct_26_1502,ProdFawcett_Revision2019,3.2.4,59.99932824338381,
6,0,6,0,,,,,,,,,,,,,,,,,1593.8187749579956,None,materials/singPic.jpg,mechanical,C_sing,6,185,1590.1584082851186,None,1590.1584082851186,None,1591.0678811345424,None,1591.334555887297,None,1591.334555887297,None,,,,,,,,,,,,,,,,,,,,,,,,,,,,,,,,,,,sing9,001,2019_Oct_26_1502,ProdFawcett_Revision2019,3.2.4,59.99932824338381,
7,0,7,0,,,,,,,,,,,,,,,,,1598.086762766674,None,materials/readPic.jpg,listen,A_silent,7,172,1594.4202917210932,None,1594.4202917210932,None,1595.3358362878498,None,1595.602565777197,None,1595.602565777197,None,,,,,,,,,,,,,,,,,,,,,,,,,,,,,,,,,,,sing9,001,2019_Oct_26_1502,ProdFawcett_Revision2019,3.2.4,59.99932824338381,
8,0,8,0,,,,,,,,,,,,,,,,,1602.35475213037,None,materials/readPic.jpg,break,A_silent,8,26,1598.6747160539962,None,1598.6747160539962,None,1599.6038558188593,None,1599.8705355476704,None,1599.8705355476704,None,,,,,,,,,,,,,,,,,,,,,,,,,,,,,,,,,,,sing9,001,2019_Oct_26_1502,ProdFawcett_Revision2019,3.2.4,59.99932824338381,
9,0,9,0,,,,,,,,,,,,,,,,,1606.6227411830623,None,materials/speakPic.jpg,close,B_aloud,9,53,1602.9460088946798,None,1602.9460088946798,None,1603.8718591777142,None,1604.1385728058813,None,1604.1385728058813,None,,,,,,,,,,,,,,,,,,,,,,,,,,,,,,,,,,,sing9,001,2019_Oct_26_1502,ProdFawcett_Revision2019,3.2.4,59.99932824338381,
10,0,10,0,,,,,,,,,,,,,,,,,1610.8907355227857,None,materials/singPic.jpg,executive,C_sing,10,122,1607.231461715477,None,1607.231461715477,None,1608.1398389003007,None,1608.4065254711604,None,1608.4065254711604,None,,,,,,,,,,,,,,,,,,,,,,,,,,,,,,,,,,,sing9,001,2019_Oct_26_1502,ProdFawcett_Revision2019,3.2.4,59.99932824338381,
11,0,11,0,,,,,,,,,,,,,,,,,1615.158727996517,None,materials/singPic.jpg,childhood,C_sing,11,49,1611.4739603159833,None,1611.4739603159833,None,1612.4078058717423,None,1612.674506437761,None,1612.674506437761,None,,,,,,,,,,,,,,,,,,,,,,,,,,,,,,,,,,,sing9,001,2019_Oct_26_1502,ProdFawcett_Revision2019,3.2.4,59.99932824338381,
12,0,12,0,,,,,,,,,,,,,,,,,1619.4267018100363,None,materials/readPic.jpg,produce,A_silent,12,239,1615.763367232692,None,1615.763367232692,None,1616.6757812402793,None,1616.942501710524,None,1616.942501710524,None,,,,,,,,,,,,,,,,,,,,,,,,,,,,,,,,,,,sing9,001,2019_Oct_26_1502,ProdFawcett_Revision2019,3.2.4,59.99932824338381,
13,0,13,0,,,,,,,,,,,,,,,,,1623.6946877526934,None,materials/singPic.jpg,equipment,C_sing,13,116,1620.0446019157826,None,1620.0446019157826,None,1620.9438281395705,None,1621.212857809296,None,1621.212857809296,None,,,,,,,,,,,,,,,,,,,,,,,,,,,,,,,,,,,sing9,001,2019_Oct_26_1502,ProdFawcett_Revision2019,3.2.4,59.99932824338381,
14,0,14,0,,,,,,,,,,,,,,,,,1627.9626901785086,None,materials/speakPic.jpg,distance,B_aloud,14,100,1624.2962259749766,None,1624.2962259749766,None,1625.211792622984,None,1625.4784785718657,None,1625.4784785718657,None,,,,,,,,,,,,,,,,,,,,,,,,,,,,,,,,,,,sing9,001,2019_Oct_26_1502,ProdFawcett_Revision2019,3.2.4,59.99932824338381,
15,0,15,0,,,,,,,,,,,,,,,,,1632.230761647079,None,materials/speakPic.jpg,property,B_aloud,15,242,1628.5458425079123,None,1628.5458425079123,None,1629.4797860297258,None,1629.7464685575687,None,1629.7464685575687,None,,,,,,,,,,,,,,,,,,,,,,,,,,,,,,,,,,,sing9,001,2019_Oct_26_1502,ProdFawcett_Revision2019,3.2.4,59.99932824338381,
16,0,16,0,,,,,,,,,,,,,,,,,1636.4986608198087,None,materials/singPic.jpg,committee,C_sing,16,62,1632.8485236673441,None,1632.8485236673441,None,1633.7477467810968,None,1634.0144594762533,None,1634.0144594762533,None,,,,,,,,,,,,,,,,,,,,,,,,,,,,,,,,,,,sing9,001,2019_Oct_26_1502,ProdFawcett_Revision2019,3.2.4,59.99932824338381,
17,0,17,0,,,,,,,,,,,,,,,,,1640.766663867631,None,materials/readPic.jpg,cross,A_silent,17,80,1637.1001925110468,None,1637.1001925110468,None,1638.0157594700577,None,1638.2824444858998,None,1638.2824444858998,None,,,,,,,,,,,,,,,,,,,,,,,,,,,,,,,,,,,sing9,001,2019_Oct_26_1502,ProdFawcett_Revision2019,3.2.4,59.99932824338381,
18,0,18,0,,,,,,,,,,,,,,,,,1645.0347204080317,None,materials/speakPic.jpg,spoke,B_aloud,18,300,1641.353942277783,None,1641.353942277783,None,1642.2837311065523,None,1642.5504929402086,None,1642.5504929402086,None,,,,,,,,,,,,,,,,,,,,,,,,,,,,,,,,,,,sing9,001,2019_Oct_26_1502,ProdFawcett_Revision2019,3.2.4,59.99932824338381,
19,0,19,0,,,,,,,,,,,,,,,,,1649.3026220687898,None,materials/speakPic.jpg,broad,B_aloud,19,31,1645.6178083597624,None,1645.6178083597624,None,1646.551778316847,None,1646.8184148161963,None,1646.8184148161963,None,,,,,,,,,,,,,,,,,,,,,,,,,,,,,,,,,,,sing9,001,2019_Oct_26_1502,ProdFawcett_Revision2019,3.2.4,59.99932824338381,
20,0,20,0,,,,,,,,,,,,,,,,,1653.5706406667887,None,materials/readPic.jpg,budget,A_silent,20,34,1649.9036682838923,None,1649.9036682838923,None,1650.8197655035183,None,1651.0864097779267,None,1651.0864097779267,None,,,,,,,,,,,,,,,,,,,,,,,,,,,,,,,,,,,sing9,001,2019_Oct_26_1502,ProdFawcett_Revision2019,3.2.4,59.99932824338381,
21,0,21,0,,,,,,,,,,,,,,,,,1657.8386088822444,None,materials/readPic.jpg,style,A_silent,21,311,1654.1453697829274,None,1654.1453697829274,None,1655.087707283703,None,1655.3543826584646,None,1655.3543826584646,None,,,,,,,,,,,,,,,,,,,,,,,,,,,,,,,,,,,sing9,001,2019_Oct_26_1502,ProdFawcett_Revision2019,3.2.4,59.99932824338381,
22,0,22,0,,,,,,,,,,,,,,,,,1662.1065942028945,None,materials/readPic.jpg,stranger,A_silent,22,309,1658.4095633513643,None,1658.4095633513643,None,1659.355697891384,None,1659.6224140075792,None,1659.6224140075792,None,,,,,,,,,,,,,,,,,,,,,,,,,,,,,,,,,,,sing9,001,2019_Oct_26_1502,ProdFawcett_Revision2019,3.2.4,59.99932824338381,
23,0,23,0,,,,,,,,,,,,,,,,,1666.3745714374527,None,materials/singPic.jpg,surprise,C_sing,23,317,1662.7637506997562,None,1662.7637506997562,None,1663.623842445726,None,1663.8903791129997,None,1663.8903791129997,None,,,,,,,,,,,,,,,,,,,,,,,,,,,,,,,,,,,sing9,001,2019_Oct_26_1502,ProdFawcett_Revision2019,3.2.4,59.99932824338381,
24,0,24,0,,,,,,,,,,,,,,,,,1670.642593767494,None,materials/speakPic.jpg,welcome,B_aloud,24,354,1666.9760378180072,None,1666.9760378180072,None,1667.8917192262306,None,1668.1583656776638,None,1668.1583656776638,None,,,,,,,,,,,,,,,,,,,,,,,,,,,,,,,,,,,sing9,001,2019_Oct_26_1502,ProdFawcett_Revision2019,3.2.4,59.99932824338381,
25,0,25,0,,,,,,,,,,,,,,,,,1674.9105594949215,None,materials/singPic.jpg,century,C_sing,25,45,1671.2504378926242,None,1671.2504378926242,None,1672.1597148099681,None,1672.4263593954092,None,1672.4263593954092,None,,,,,,,,,,,,,,,,,,,,,,,,,,,,,,,,,,,sing9,001,2019_Oct_26_1502,ProdFawcett_Revision2019,3.2.4,59.99932824338381,
26,0,26,0,,,,,,,,,,,,,,,,,1679.1785361074726,None,materials/readPic.jpg,primary,A_silent,26,234,1675.5287519437552,None,1675.5287519437552,None,1676.4276923555299,None,1676.6943440940522,None,1676.6943440940522,None,,,,,,,,,,,,,,,,,,,,,,,,,,,,,,,,,,,sing9,001,2019_Oct_26_1502,ProdFawcett_Revision2019,3.2.4,59.99932824338381,
27,0,27,0,,,,,,,,,,,,,,,,,1683.4465348012745,None,materials/speakPic.jpg,colonel,B_aloud,27,55,1679.779851962434,None,1679.779851962434,None,1680.695856814069,None,1680.962322883628,None,1680.962322883628,None,,,,,,,,,,,,,,,,,,,,,,,,,,,,,,,,,,,sing9,001,2019_Oct_26_1502,ProdFawcett_Revision2019,3.2.4,59.99932824338381,
28,0,28,0,,,,,,,,,,,,,,,,,1687.7145160788787,None,materials/singPic.jpg,pressure,C_sing,28,232,1684.0642408409622,None,1684.0642408409622,None,1684.9637183554005,None,1685.2303240654292,None,1685.2303240654292,None,,,,,,,,,,,,,,,,,,,,,,,,,,,,,,,,,,,sing9,001,2019_Oct_26_1502,ProdFawcett_Revision2019,3.2.4,59.99932824338381,
29,0,29,0,,,,,,,,,,,,,,,,,1691.9824942464475,None,materials/speakPic.jpg,reading,B_aloud,29,254,1688.3051928220375,None,1688.3051928220375,None,1689.2316470734659,None,1689.4982807737833,None,1689.4982807737833,None,,,,,,,,,,,,,,,,,,,,,,,,,,,,,,,,,,,sing9,001,2019_Oct_26_1502,ProdFawcett_Revision2019,3.2.4,59.99932824338381,
30,0,30,0,,,,,,,,,,,,,,,,,1696.250495739252,None,materials/speakPic.jpg,stand,B_aloud,30,302,1692.5656866952777,None,1692.5656866952777,None,1693.4996855756617,None,1693.7662664054078,None,1693.7662664054078,None,,,,,,,,,,,,,,,,,,,,,,,,,,,,,,,,,,,sing9,001,2019_Oct_26_1502,ProdFawcett_Revision2019,3.2.4,59.99932824338381,
31,0,31,0,,,,,,,,,,,,,,,,,1700.5184826149198,None,materials/readPic.jpg,block,A_silent,31,25,1696.85168563787,None,1696.85168563787,None,1697.7676870684663,None,1698.0342750513228,None,1698.0342750513228,None,,,,,,,,,,,,,,,,,,,,,,,,,,,,,,,,,,,sing9,001,2019_Oct_26_1502,ProdFawcett_Revision2019,3.2.4,59.99932824338381,
32,0,32,0,,,,,,,,,,,,,,,,,1704.7864579834568,None,materials/speakPic.jpg,center,B_aloud,32,44,1701.1083342663478,None,1701.1083342663478,None,1702.0356506188982,None,1702.3024777632672,None,1702.3024777632672,None,,,,,,,,,,,,,,,,,,,,,,,,,,,,,,,,,,,sing9,001,2019_Oct_26_1502,ProdFawcett_Revision2019,3.2.4,59.99932824338381,
33,0,33,0,,,,,,,,,,,,,,,,,1709.0544660073356,None,materials/speakPic.jpg,strain,B_aloud,33,308,1705.3696532313188,None,1705.3696532313188,None,1706.3036801019916,None,1706.5702460035973,None,1706.5702460035973,None,,,,,,,,,,,,,,,,,,,,,,,,,,,,,,,,,,,sing9,001,2019_Oct_26_1502,ProdFawcett_Revision2019,3.2.4,59.99932824338381,
34,0,34,0,,,,,,,,,,,,,,,,,1713.3224388878443,None,materials/readPic.jpg,fashion,A_silent,34,125,1709.6566601356026,None,1709.6566601356026,None,1710.5716315232858,None,1710.8384117061505,None,1710.8384117061505,None,,,,,,,,,,,,,,,,,,,,,,,,,,,,,,,,,,,sing9,001,2019_Oct_26_1502,ProdFawcett_Revision2019,3.2.4,59.99932824338381,
35,0,35,0,,,,,,,,,,,,,,,,,1717.5904910741956,None,materials/speakPic.jpg,course,B_aloud,35,74,1713.912782546482,None,1713.912782546482,None,1714.8396373701398,None,1715.1062343720696,None,1715.1062343720696,None,,,,,,,,,,,,,,,,,,,,,,,,,,,,,,,,,,,sing9,001,2019_Oct_26_1502,ProdFawcett_Revision2019,3.2.4,59.99932824338381,
36,0,36,0,,,,,,,,,,,,,,,,,1721.8584247682884,None,materials/readPic.jpg,error,A_silent,36,117,1718.1915826957847,None,1718.1915826957847,None,1719.1076796044072,None,1719.374219381716,None,1719.374219381716,None,,,,,,,,,,,,,,,,,,,,,,,,,,,,,,,,,,,sing9,001,2019_Oct_26_1502,ProdFawcett_Revision2019,3.2.4,59.99932824338381,
37,0,37,0,,,,,,,,,,,,,,,,,1726.1264259501186,None,materials/speakPic.jpg,trash,B_aloud,37,337,1722.4598435653315,None,1722.4598435653315,None,1723.3756111214752,None,1723.6422236735525,None,1723.6422236735525,None,,,,,,,,,,,,,,,,,,,,,,,,,,,,,,,,,,,sing9,001,2019_Oct_26_1502,ProdFawcett_Revision2019,3.2.4,59.99932824338381,
38,0,38,0,,,,,,,,,,,,,,,,,1730.3943954095885,None,materials/singPic.jpg,mayor,C_sing,38,183,1726.7442358648987,None,1726.7442358648987,None,1727.6436281644565,None,1727.9101999751292,None,1727.9101999751292,None,,,,,,,,,,,,,,,,,,,,,,,,,,,,,,,,,,,sing9,001,2019_Oct_26_1502,ProdFawcett_Revision2019,3.2.4,59.99932824338381,
39,0,39,0,,,,,,,,,,,,,,,,,1734.6623866393056,None,materials/speakPic.jpg,engineer,B_aloud,39,114,1730.9852466256125,None,1730.9852466256125,None,1731.911589848838,None,1732.178202711948,None,1732.178202711948,None,,,,,,,,,,,,,,,,,,,,,,,,,,,,,,,,,,,sing9,001,2019_Oct_26_1502,ProdFawcett_Revision2019,3.2.4,59.99932824338381,
40,0,40,0,,,,,,,,,,,,,,,,,1738.9305231075268,None,materials/readPic.jpg,bitter,A_silent,40,23,1735.2634630216926,None,1735.2634630216926,None,1736.1795966287318,None,1736.4461746594461,None,1736.4461746594461,None,,,,,,,,,,,,,,,,,,,,,,,,,,,,,,,,,,,sing9,001,2019_Oct_26_1502,ProdFawcett_Revision2019,3.2.4,59.99932824338381,
41,0,41,0,,,,,,,,,,,,,,,,,1743.1984291223343,None,materials/readPic.jpg,fellow,A_silent,41,126,1739.5163413572009,None,1739.5163413572009,None,1740.4475766623218,None,1740.7141553150432,None,1740.7141553150432,None,,,,,,,,,,,,,,,,,,,,,,,,,,,,,,,,,,,sing9,001,2019_Oct_26_1502,ProdFawcett_Revision2019,3.2.4,59.99932824338381,
42,0,42,0,,,,,,,,,,,,,,,,,1747.4663587734103,None,materials/readPic.jpg,session,A_silent,42,281,1743.7732229271496,None,1743.7732229271496,None,1744.7156562169548,None,1744.982173913042,None,1744.982173913042,None,,,,,,,,,,,,,,,,,,,,,,,,,,,,,,,,,,,sing9,001,2019_Oct_26_1502,ProdFawcett_Revision2019,3.2.4,59.99932824338381,
43,0,43,0,,,,,,,,,,,,,,,,,1751.7343437830277,None,materials/readPic.jpg,tragedy,A_silent,43,335,1748.0385037631495,None,1748.0385037631495,None,1748.983580269938,None,1749.2501374634448,None,1749.2501374634448,None,,,,,,,,,,,,,,,,,,,,,,,,,,,,,,,,,,,sing9,001,2019_Oct_26_1502,ProdFawcett_Revision2019,3.2.4,59.99932824338381,
44,0,44,0,,,,,,,,,,,,,,,,,1756.0023291036778,None,materials/speakPic.jpg,degree,B_aloud,44,89,1752.3689310816699,None,1752.3689310816699,None,1753.25156838962,None,1753.5181299371761,None,1753.5181299371761,None,,,,,,,,,,,,,,,,,,,,,,,,,,,,,,,,,,,sing9,001,2019_Oct_26_1502,ProdFawcett_Revision2019,3.2.4,59.99932824338381,
45,0,45,0,,,,,,,,,,,,,,,,,1760.2703439696343,None,materials/readPic.jpg,principal,A_silent,45,236,1756.6077396280307,None,1756.6077396280307,None,1757.519545002171,None,1757.7861121477908,None,1757.7861121477908,None,,,,,,,,,,,,,,,,,,,,,,,,,,,,,,,,,,,sing9,001,2019_Oct_26_1502,ProdFawcett_Revision2019,3.2.4,59.99932824338381,
46,0,46,0,,,,,,,,,,,,,,,,,1764.538306276052,None,materials/readPic.jpg,commercial,A_silent,46,61,1760.8534978540847,None,1760.8534978540847,None,1761.7875328108494,None,1762.0541148846096,None,1762.0541148846096,None,,,,,,,,,,,,,,,,,,,,,,,,,,,,,,,,,,,sing9,001,2019_Oct_26_1502,ProdFawcett_Revision2019,3.2.4,59.99932824338381,
47,0,47,0,,,,,,,,,,,,,,,,,1768.8062884866667,None,materials/singPic.jpg,collection,C_sing,47,54,1765.1473188405798,None,1765.1473188405798,None,1766.055529638601,None,1766.3221036262985,None,1766.3221036262985,None,,,,,,,,,,,,,,,,,,,,,,,,,,,,,,,,,,,sing9,001,2019_Oct_26_1502,ProdFawcett_Revision2019,3.2.4,59.99932824338381,
48,0,48,0,,,,,,,,,,,,,,,,,1773.0742890464608,None,materials/speakPic.jpg,attack,B_aloud,48,13,1769.4080120669096,None,1769.4080120669096,None,1770.3235373515054,None,1770.5900802388496,None,1770.5900802388496,None,,,,,,,,,,,,,,,,,,,,,,,,,,,,,,,,,,,sing9,001,2019_Oct_26_1502,ProdFawcett_Revision2019,3.2.4,59.99932824338381,
49,0,49,0,,,,,,,,,,,,,,,,,1777.3422793431673,None,materials/speakPic.jpg,afternoon,B_aloud,49,3,1773.6574553710234,None,1773.6574553710234,None,1774.59149841388,None,1774.858063382475,None,1774.858063382475,None,,,,,,,,,,,,,,,,,,,,,,,,,,,,,,,,,,,sing9,001,2019_Oct_26_1502,ProdFawcett_Revision2019,3.2.4,59.99932824338381,
50,0,50,0,,,,,,,,,,,,,,,,,1781.6102559557185,None,materials/singPic.jpg,member,C_sing,50,188,1777.947944890213,None,1777.947944890213,None,1778.8595023947128,None,1779.126050569117,None,1779.126050569117,None,,,,,,,,,,,,,,,,,,,,,,,,,,,,,,,,,,,sing9,001,2019_Oct_26_1502,ProdFawcett_Revision2019,3.2.4,59.99932824338381,
51,0,51,0,,,,,,,,,,,,,,,,,1785.8782443863747,None,materials/singPic.jpg,write,C_sing,51,358,1782.1936185233644,None,1782.1936185233644,None,1783.1274892703805,None,1783.3940477079013,None,1783.3940477079013,None,,,,,,,,,,,,,,,,,,,,,,,,,,,,,,,,,,,sing9,001,2019_Oct_26_1502,ProdFawcett_Revision2019,3.2.4,59.99932824338381,
52,0,52,0,,,,,,,,,,,,,,,,,1790.1462527212861,None,materials/singPic.jpg,figure,C_sing,52,128,1786.4638303165848,None,1786.4638303165848,None,1787.39551937551,None,1787.6620547987695,None,1787.6620547987695,None,,,,,,,,,,,,,,,,,,,,,,,,,,,,,,,,,,,sing9,001,2019_Oct_26_1502,ProdFawcett_Revision2019,3.2.4,59.99932824338381,
53,0,53,0,,,,,,,,,,,,,,,,,1794.4142206257384,None,materials/speakPic.jpg,carry,B_aloud,53,43,1790.766882813943,None,1790.766882813943,None,1791.6634994091,None,1791.9300317223242,None,1791.9300317223242,None,,,,,,,,,,,,,,,,,,,,,,,,,,,,,,,,,,,sing9,001,2019_Oct_26_1502,ProdFawcett_Revision2019,3.2.4,59.99932824338381,
54,0,54,0,,,,,,,,,,,,,,,,,1798.6822003483248,None,materials/singPic.jpg,period,C_sing,54,217,1795.0229330720904,None,1795.0229330720904,None,1795.9314825526963,None,1796.1980910617567,None,1796.1980910617567,None,,,,,,,,,,,,,,,,,,,,,,,,,,,,,,,,,,,sing9,001,2019_Oct_26_1502,ProdFawcett_Revision2019,3.2.4,59.99932824338381,
55,0,55,0,,,,,,,,,,,,,,,,,1802.950210860232,None,materials/readPic.jpg,bureau,A_silent,55,37,1799.3005128444347,None,1799.3005128444347,None,1800.1995014616987,None,1800.4660048516525,None,1800.4660048516525,None,,,,,,,,,,,,,,,,,,,,,,,,,,,,,,,,,,,sing9,001,2019_Oct_26_1502,ProdFawcett_Revision2019,3.2.4,59.99932824338381,
56,0,56,0,,,,,,,,,,,,,,,,,1807.2181871617795,None,materials/readPic.jpg,death,A_silent,56,86,1803.5334381414286,None,1803.5334381414286,None,1804.4674538160034,None,1804.7339718230942,None,1804.7339718230942,None,,,,,,,,,,,,,,,,,,,,,,,,,,,,,,,,,,,sing9,001,2019_Oct_26_1502,ProdFawcett_Revision2019,3.2.4,59.99932824338381,
57,0,57,0,,,,,,,,,,,,,,,,,1811.4861690613907,None,materials/singPic.jpg,breath,C_sing,57,27,1807.8272690800368,None,1807.8272690800368,None,1808.7354450457206,None,1809.0019748709165,None,1809.0019748709165,None,,,,,,,,,,,,,,,,,,,,,,,,,,,,,,,,,,,sing9,001,2019_Oct_26_1502,ProdFawcett_Revision2019,3.2.4,59.99932824338381,
58,0,58,0,,,,,,,,,,,,,,,,,1815.7541705541953,None,materials/speakPic.jpg,interview,B_aloud,58,165,1812.0759476270468,None,1812.0759476270468,None,1813.0034527585958,None,1813.2699595695594,None,1813.2699595695594,None,,,,,,,,,,,,,,,,,,,,,,,,,,,,,,,,,,,sing9,001,2019_Oct_26_1502,ProdFawcett_Revision2019,3.2.4,59.99932824338381,
59,0,59,0,,,,,,,,,,,,,,,,,1820.0221549418347,None,materials/speakPic.jpg,treatment,B_aloud,59,339,1816.3373735771456,None,1816.3373735771456,None,1817.2715055669541,None,1817.5379595073755,None,1817.5379595073755,None,,,,,,,,,,,,,,,,,,,,,,,,,,,,,,,,,,,sing9,001,2019_Oct_26_1502,ProdFawcett_Revision2019,3.2.4,59.99932824338381,
60,0,60,0,,,,,,,,,,,,,,,,,1824.2901651427383,None,materials/singPic.jpg,shear,C_sing,60,283,1820.6399290912377,None,1820.6399290912377,None,1821.5392738072842,None,1821.805945761007,None,1821.805945761007,None,,,,,,,,,,,,,,,,,,,,,,,,,,,,,,,,,,,sing9,001,2019_Oct_26_1502,ProdFawcett_Revision2019,3.2.4,59.99932824338381,
61,0,61,0,,,,,,,,,,,,,,,,,1828.5581286931701,None,materials/singPic.jpg,height,C_sing,61,152,1824.873362567625,None,1824.873362567625,None,1825.8074164956051,None,1826.0739301486465,None,1826.0739301486465,None,,,,,,,,,,,,,,,,,,,,,,,,,,,,,,,,,,,sing9,001,2019_Oct_26_1502,ProdFawcett_Revision2019,3.2.4,59.99932824338381,
62,0,62,0,,,,,,,,,,,,,,,,,1832.826315232931,None,materials/speakPic.jpg,dance,B_aloud,62,84,1829.145794924436,None,1829.145794924436,None,1830.0754055482976,None,1830.3419235553883,None,1830.3419235553883,None,,,,,,,,,,,,,,,,,,,,,,,,,,,,,,,,,,,sing9,001,2019_Oct_26_1502,ProdFawcett_Revision2019,3.2.4,59.99932824338381,
63,0,63,0,,,,,,,,,,,,,,,,,1837.0941064875224,None,materials/readPic.jpg,clean,A_silent,63,51,1833.4315472414019,None,1833.4315472414019,None,1834.3434561796312,None,1834.6099570815277,None,1834.6099570815277,None,,,,,,,,,,,,,,,,,,,,,,,,,,,,,,,,,,,sing9,001,2019_Oct_26_1502,ProdFawcett_Revision2019,3.2.4,59.99932824338381,
64,0,64,0,,,,,,,,,,,,,,,,,1841.3620905641583,None,materials/readPic.jpg,tough,A_silent,64,333,1837.677317907568,None,1837.677317907568,None,1838.6113942277734,None,1838.8778839335719,None,1838.8778839335719,None,,,,,,,,,,,,,,,,,,,,,,,,,,,,,,,,,,,sing9,001,2019_Oct_26_1502,ProdFawcett_Revision2019,3.2.4,59.99932824338381,
65,0,65,0,,,,,,,,,,,,,,,,,1845.6300877029134,None,materials/speakPic.jpg,government,B_aloud,65,139,1841.9496662934544,None,1841.9496662934544,None,1842.8793926105427,None,1843.1458732972387,None,1843.1458732972387,None,,,,,,,,,,,,,,,,,,,,,,,,,,,,,,,,,,,sing9,001,2019_Oct_26_1502,ProdFawcett_Revision2019,3.2.4,59.99932824338381,
66,0,66,0,,,,,,,,,,,,,,,,,1849.898068669514,None,materials/singPic.jpg,institute,C_sing,66,162,1846.2509295888594,None,1846.2509295888594,None,1847.1473661130876,None,1847.4138620389276,None,1847.4138620389276,None,,,,,,,,,,,,,,,,,,,,,,,,,,,,,,,,,,,sing9,001,2019_Oct_26_1502,ProdFawcett_Revision2019,3.2.4,59.99932824338381,
67,0,67,0,,,,,,,,,,,,,,,,,1854.1660707843548,None,materials/readPic.jpg,finish,A_silent,67,130,1850.5040847173077,None,1850.5040847173077,None,1851.4153676058922,None,1851.6818520246306,None,1851.6818520246306,None,,,,,,,,,,,,,,,,,,,,,,,,,,,,,,,,,,,sing9,001,2019_Oct_26_1502,ProdFawcett_Revision2019,3.2.4,59.99932824338381,
68,0,68,0,,,,,,,,,,,,,,,,,1858.434042731853,None,materials/singPic.jpg,emergency,C_sing,68,110,1854.7839917273086,None,1854.7839917273086,None,1855.6833678546827,None,1855.9498336132383,None,1855.9498336132383,None,,,,,,,,,,,,,,,,,,,,,,,,,,,,,,,,,,,sing9,001,2019_Oct_26_1502,ProdFawcett_Revision2019,3.2.4,59.99932824338381,
69,0,69,0,,,,,,,,,,,,,,,,,1862.702008148277,None,materials/readPic.jpg,power,A_silent,69,230,1859.035524662555,None,1859.035524662555,None,1859.9513326491287,None,1860.2178407041065,None,1860.2178407041065,None,,,,,,,,,,,,,,,,,,,,,,,,,,,,,,,,,,,sing9,001,2019_Oct_26_1502,ProdFawcett_Revision2019,3.2.4,59.99932824338381,
70,0,70,0,,,,,,,,,,,,,,,,,1866.9701533246262,None,materials/readPic.jpg,damage,A_silent,70,83,1863.2882779747306,None,1863.2882779747306,None,1864.2193950985966,None,1864.485816383647,None,1864.485816383647,None,,,,,,,,,,,,,,,,,,,,,,,,,,,,,,,,,,,sing9,001,2019_Oct_26_1502,ProdFawcett_Revision2019,3.2.4,59.99932824338381,
71,0,71,0,,,,,,,,,,,,,,,,,1871.2380049138446,None,materials/readPic.jpg,dozen,A_silent,71,102,1867.5532387883286,None,1867.5532387883286,None,1868.4873275486752,None,1868.7560263108753,None,1868.7560263108753,None,,,,,,,,,,,,,,,,,,,,,,,,,,,,,,,,,,,sing9,001,2019_Oct_26_1502,ProdFawcett_Revision2019,3.2.4,59.99932824338381,
72,0,72,0,,,,,,,,,,,,,,,,,1875.5059983205865,None,materials/speakPic.jpg,addition,B_aloud,72,2,1871.8559345648973,None,1871.8559345648973,None,1872.7553125583217,None,1873.0218119052006,None,1873.0218119052006,None,,,,,,,,,,,,,,,,,,,,,,,,,,,,,,,,,,,sing9,001,2019_Oct_26_1502,ProdFawcett_Revision2019,3.2.4,59.99932824338381,
73,0,73,0,,,,,,,,,,,,,,,,,1879.7739767991588,None,materials/singPic.jpg,hearing,C_sing,73,150,1876.1148472973728,None,1876.1148472973728,None,1877.0233134291193,None,1877.289781675674,None,1877.289781675674,None,,,,,,,,,,,,,,,,,,,,,,,,,,,,,,,,,,,sing9,001,2019_Oct_26_1502,ProdFawcett_Revision2019,3.2.4,59.99932824338381,
74,0,74,0,,,,,,,,,,,,,,,,,1884.0419683398504,None,materials/singPic.jpg,service,C_sing,74,280,1880.3654546868056,None,1880.3654546868056,None,1881.2913021708082,None,1881.557802139694,None,1881.557802139694,None,,,,,,,,,,,,,,,,,,,,,,,,,,,,,,,,,,,sing9,001,2019_Oct_26_1502,ProdFawcett_Revision2019,3.2.4,59.99932824338381,
75,0,75,0,,,,,,,,,,,,,,,,,1888.310106674122,None,materials/speakPic.jpg,sweet,B_aloud,75,319,1884.6307572930236,None,1884.6307572930236,None,1885.5592822043982,None,1885.8257544939988,None,1885.8257544939988,None,,,,,,,,,,,,,,,,,,,,,,,,,,,,,,,,,,,sing9,001,2019_Oct_26_1502,ProdFawcett_Revision2019,3.2.4,59.99932824338381,
76,0,76,0,,,,,,,,,,,,,,,,,1892.577952665306,None,materials/speakPic.jpg,sight,B_aloud,76,286,1888.878365677665,None,1888.878365677665,None,1889.8272712570615,None,1890.093746345694,None,1890.093746345694,None,,,,,,,,,,,,,,,,,,,,,,,,,,,,,,,,,,,sing9,001,2019_Oct_26_1502,ProdFawcett_Revision2019,3.2.4,59.99932824338381,
77,0,77,0,,,,,,,,,,,,,,,,,1896.8459526030929,None,materials/readPic.jpg,space,A_silent,77,297,1893.184577657521,None,1893.184577657521,None,1894.095286745025,None,1894.3617431734747,None,1894.3617431734747,None,,,,,,,,,,,,,,,,,,,,,,,,,,,,,,,,,,,sing9,001,2019_Oct_26_1502,ProdFawcett_Revision2019,3.2.4,59.99932824338381,
78,0,78,0,,,,,,,,,,,,,,,,,1901.1139360577217,None,materials/readPic.jpg,corner,A_silent,78,69,1897.4291708652163,None,1897.4291708652163,None,1898.3632558935205,None,1898.6297235180682,None,1898.6297235180682,None,,,,,,,,,,,,,,,,,,,,,,,,,,,,,,,,,,,sing9,001,2019_Oct_26_1502,ProdFawcett_Revision2019,3.2.4,59.99932824338381,
79,0,79,0,,,,,,,,,,,,,,,,,1905.381908627227,None,materials/speakPic.jpg,health,B_aloud,79,149,1901.7014629594923,None,1901.7014629594923,None,1902.6312353051035,None,1902.8977144367818,None,1902.8977144367818,None,,,,,,,,,,,,,,,,,,,,,,,,,,,,,,,,,,,sing9,001,2019_Oct_26_1502,ProdFawcett_Revision2019,3.2.4,59.99932824338381,
80,0,80,0,,,,,,,,,,,,,,,,,1909.6500276792794,None,materials/readPic.jpg,appeal,A_silent,80,9,1905.983006157854,None,1905.983006157854,None,1906.8992417739646,None,1907.1656913603365,None,1907.1656913603365,None,,,,,,,,,,,,,,,,,,,,,,,,,,,,,,,,,,,sing9,001,2019_Oct_26_1502,ProdFawcett_Revision2019,3.2.4,59.99932824338381,
81,0,81,0,,,,,,,,,,,,,,,,,1913.9178842445544,None,materials/singPic.jpg,public,C_sing,81,244,1910.2721114013693,None,1910.2721114013693,None,1911.167229582643,None,1911.4336847670493,None,1911.4336847670493,None,,,,,,,,,,,,,,,,,,,,,,,,,,,,,,,,,,,sing9,001,2019_Oct_26_1502,ProdFawcett_Revision2019,3.2.4,59.99932824338381,
82,0,82,0,,,,,,,,,,,,,,,,,1918.1859047085745,None,materials/singPic.jpg,position,C_sing,82,229,1914.5047148099693,None,1914.5047148099693,None,1915.4351455495344,None,1915.7018081731512,None,1915.7018081731512,None,,,,,,,,,,,,,,,,,,,,,,,,,,,,,,,,,,,sing9,001,2019_Oct_26_1502,ProdFawcett_Revision2019,3.2.4,59.99932824338381,
83,0,83,0,,,,,,,,,,,,,,,,,1922.4538607949216,None,materials/readPic.jpg,grade,A_silent,83,140,1918.7874233376933,None,1918.7874233376933,None,1919.7032173291082,None,1919.9696572743705,None,1919.9696572743705,None,,,,,,,,,,,,,,,,,,,,,,,,,,,,,,,,,,,sing9,001,2019_Oct_26_1502,ProdFawcett_Revision2019,3.2.4,59.99932824338381,
84,0,84,0,,,,,,,,,,,,,,,,,1926.721887790016,None,materials/singPic.jpg,notice,C_sing,84,201,1923.0770370715763,None,1923.0770370715763,None,1923.9711874105851,None,1924.237656901154,None,1924.237656901154,None,,,,,,,,,,,,,,,,,,,,,,,,,,,,,,,,,,,sing9,001,2019_Oct_26_1502,ProdFawcett_Revision2019,3.2.4,59.99932824338381,
85,0,85,0,,,,,,,,,,,,,,,,,1930.9898821297393,None,materials/singPic.jpg,business,C_sing,85,38,1927.31342787834,None,1927.31342787834,None,1928.239126391738,None,1928.5056982023816,None,1928.5056982023816,None,,,,,,,,,,,,,,,,,,,,,,,,,,,,,,,,,,,sing9,001,2019_Oct_26_1502,ProdFawcett_Revision2019,3.2.4,59.99932824338381,
86,0,86,0,,,,,,,,,,,,,,,,,1935.257845058164,None,materials/singPic.jpg,running,C_sing,86,268,1931.5730755116092,None,1931.5730755116092,None,1932.5071680039691,None,1932.7736203893728,None,1932.7736203893728,None,,,,,,,,,,,,,,,,,,,,,,,,,,,,,,,,,,,sing9,001,2019_Oct_26_1502,ProdFawcett_Revision2019,3.2.4,59.99932824338381,
87,0,87,0,,,,,,,,,,,,,,,,,1939.525815139641,None,materials/speakPic.jpg,discovery,B_aloud,87,95,1935.8766066430253,None,1935.8766066430253,None,1936.7751545686333,None,1937.0416383653646,None,1937.0416383653646,None,,,,,,,,,,,,,,,,,,,,,,,,,,,,,,,,,,,sing9,001,2019_Oct_26_1502,ProdFawcett_Revision2019,3.2.4,59.99932824338381,
88,0,88,0,,,,,,,,,,,,,,,,,1943.7938169434492,None,materials/singPic.jpg,material,C_sing,88,182,1940.145935497916,None,1940.145935497916,None,1941.043132736202,None,1941.3095925856906,None,1941.3095925856906,None,,,,,,,,,,,,,,,,,,,,,,,,,,,,,,,,,,,sing9,001,2019_Oct_26_1502,ProdFawcett_Revision2019,3.2.4,59.99932824338381,
89,0,89,0,,,,,,,,,,,,,,,,,1948.061790445965,None,materials/readPic.jpg,blind,A_silent,89,24,1944.3987093363248,None,1944.3987093363248,None,1945.311359706422,None,1945.5776018535835,None,1945.5776018535835,None,,,,,,,,,,,,,,,,,,,,,,,,,,,,,,,,,,,sing9,001,2019_Oct_26_1502,ProdFawcett_Revision2019,3.2.4,59.99932824338381,
,,,,,,,,,,,,,,,,,,,,,,,,,,,,,,,,,,,,,1948.5619521676854,None,k,96.88481744105229,1948.5619521676854,None,,,,,,,,,,,,,,,,,,,,,,,,,,,,,sing9,001,2019_Oct_26_1502,ProdFawcett_Revision2019,3.2.4,59.99932824338381,
,,,,,,,,,,,,,,2045.4752755489026,None,space,9.898548236611532,2045.4752755489026,None,,,,,,,,,,,,,,,,,,,,,,,,,,,,,,,,,,,,,,,,,,,,,,,,,,,,sing9,001,2019_Oct_26_1502,ProdFawcett_Revision2019,3.2.4,59.99932824338381,
,,,,0,0,0,0,,,,,,,,,,,,,2063.615295764117,None,,,,,,,,,,,,,,,,,,,,,,build,D_new,0,35,2055.916533246258,None,2055.916533246258,None,2055.916533246258,None,1,2.9455343036388513,2055.916533246258,None,2058.912555514078,None,2058.912555514078,None,2059.429563351354,None,2059.429563351354,None,2059.429563351354,None,f,4.151809417176992,2059.429563351354,None,sing9,001,2019_Oct_26_1502,ProdFawcett_Revision2019,3.2.4,59.99932824338381,
,,,,1,0,1,0,,,,,,,,,,,,,2068.49900976551,None,,,,,,,,,,,,,,,,,,,,,,clear,D_new,1,52,2064.130762891087,None,2064.130762891087,None,2064.130762891087,None,6,2.4986275424598716,2064.130762891087,None,2066.6817664987175,None,2066.6817664987175,None,2067.1984620886797,None,2067.1984620886797,None,2067.1984620886797,None,r,1.2546330160985235,2067.1984620886797,None,sing9,001,2019_Oct_26_1502,ProdFawcett_Revision2019,3.2.4,59.99932824338381,
,,,,2,0,2,0,,,,,,,,,,,,,2072.1999828948174,None,,,,,,,,,,,,,,,,,,,,,,committee,C_sing,2,62,2069.015986813465,None,2069.015986813465,None,2069.015986813465,None,6,1.781149157177424,2069.015986813465,None,2070.8497014368186,None,2070.8497014368186,None,2071.366447409324,None,2071.366447409324,None,2071.366447409324,None,r,0.7910766933928244,2071.366447409324,None,sing9,001,2019_Oct_26_1502,ProdFawcett_Revision2019,3.2.4,59.99932824338381,
,,,,3,0,3,0,,,,,,,,,,,,,2080.252648815076,None,,,,,,,,,,,,,,,,,,,,,,welcome,B_aloud,3,354,2072.7168436275388,None,2072.7168436275388,None,2072.7168436275388,None,6,5.671670398704009,2072.7168436275388,None,2078.452022143436,None,2078.452022143436,None,2078.9689077564108,None,2078.9689077564108,None,2078.9689077564108,None,r,1.2438116564007942,2078.9689077564108,None,sing9,001,2019_Oct_26_1502,ProdFawcett_Revision2019,3.2.4,59.99932824338381,
,,,,4,0,4,0,,,,,,,,,,,,,2083.4201539466158,None,,,,,,,,,,,,,,,,,,,,,,material,C_sing,4,182,2080.769656030345,None,2080.769656030345,None,2080.769656030345,None,6,1.5866013559571002,2080.769656030345,None,2082.4091969894944,None,2082.4091969894944,None,2082.93677862786,None,2082.93677862786,None,2082.93677862786,None,r,0.43549853828153573,2082.93677862786,None,sing9,001,2019_Oct_26_1502,ProdFawcett_Revision2019,3.2.4,59.99932824338381,
,,,,5,0,5,0,,,,,,,,,,,,,2086.937864962354,None,,,,,,,,,,,,,,,,,,,,,,subject,D_new,5,312,2083.942282764183,None,2083.942282764183,None,2083.942282764183,None,6,0.15034583568922244,2083.942282764183,None,2084.1537597188435,None,2084.1537597188435,None,2084.6735211793275,None,2084.6735211793275,None,2084.6735211793275,None,f,2.226505255966913,2084.6735211793275,None,sing9,001,2019_Oct_26_1502,ProdFawcett_Revision2019,3.2.4,59.99932824338381,
,,,,6,0,6,0,,,,,,,,,,,,,2090.6891111525765,None,,,,,,,,,,,,,,,,,,,,,,pressure,C_sing,6,232,2087.455486720166,None,2087.455486720166,None,2087.455486720166,None,6,1.8843590221949853,2087.455486720166,None,2089.4053850220807,None,2089.4053850220807,None,2089.9222581949434,None,2089.9222581949434,None,2089.9222581949434,None,r,0.7295232319447678,2089.9222581949434,None,sing9,001,2019_Oct_26_1502,ProdFawcett_Revision2019,3.2.4,59.99932824338381,
,,,,7,0,7,0,,,,,,,,,,,,,2094.0068551346485,None,,,,,,,,,,,,,,,,,,,,,,style,A_silent,7,311,2091.2063133669144,None,2091.2063133669144,None,2091.2063133669144,None,1,1.3335992411302868,2091.2063133669144,None,2092.5783100080735,None,2092.5783100080735,None,2093.106588604831,None,2093.106588604831,None,2093.106588604831,None,f,0.8576758723647799,2093.106588604831,None,sing9,001,2019_Oct_26_1502,ProdFawcett_Revision2019,3.2.4,59.99932824338381,
,,,,8,0,8,0,,,,,,,,,,,,,2097.5746547863237,None,,,,,,,,,,,,,,,,,,,,,,ground,D_new,8,142,2094.523511538224,None,2094.523511538224,None,2094.523511538224,None,6,2.1199409093824215,2094.523511538224,None,2096.707886110584,None,2096.707886110584,None,2097.2243870125094,None,2097.2243870125094,None,2097.2243870125094,None,r,0.3151670087536331,2097.2243870125094,None,sing9,001,2019_Oct_26_1502,ProdFawcett_Revision2019,3.2.4,59.99932824338381,
,,,,9,0,9,0,,,,,,,,,,,,,2101.9759777943545,None,,,,,,,,,,,,,,,,,,,,,,charter,D_new,9,47,2098.0922644149978,None,2098.0922644149978,None,2098.0922644149978,None,1,2.727272190095391,2098.0922644149978,None,2100.8637037382578,None,2100.8637037382578,None,2101.3924951794324,None,2101.3924951794324,None,2101.3924951794324,None,f,0.5467683647293597,2101.3924951794324,None,sing9,001,2019_Oct_26_1502,ProdFawcett_Revision2019,3.2.4,59.99932824338381,
,,,,10,0,10,0,,,,,,,,,,,,,2105.2770395596162,None,,,,,,,,,,,,,,,,,,,,,,colonel,B_aloud,10,55,2102.4931812527066,None,2102.4931812527066,None,2102.4931812527066,None,6,1.4619932201167103,2102.4931812527066,None,2104.009941220371,None,2104.009941220371,None,2104.526831809402,None,2104.526831809402,None,2104.526831809402,None,r,0.7087606518762186,2104.526831809402,None,sing9,001,2019_Oct_26_1502,ProdFawcett_Revision2019,3.2.4,59.99932824338381,
,,,,11,0,11,0,,,,,,,,,,,,,2107.827850345202,None,,,,,,,,,,,,,,,,,,,,,,character,C_sing,11,46,2105.7960291099153,None,2105.7960291099153,None,2105.7960291099153,None,6,1.094955837528687,2105.7960291099153,None,2106.944228089822,None,2106.944228089822,None,2107.4609585121507,None,2107.4609585121507,None,2107.4609585121507,None,r,0.33401318654068746,2107.4609585121507,None,sing9,001,2019_Oct_26_1502,ProdFawcett_Revision2019,3.2.4,59.99932824338381,
,,,,12,0,12,0,,,,,,,,,,,,,2110.211775206815,None,,,,,,,,,,,,,,,,,,,,,,period,C_sing,12,217,2108.3445900976367,None,2108.3445900976367,None,2108.3445900976367,None,6,0.7143344529322349,2108.3445900976367,None,2109.1114645145135,None,2109.1114645145135,None,2109.6284033090633,None,2109.6284033090633,None,2109.6284033090633,None,r,0.5342878024384845,2109.6284033090633,None,sing9,001,2019_Oct_26_1502,ProdFawcett_Revision2019,3.2.4,59.99932824338381,
,,,,13,0,13,0,,,,,,,,,,,,,2112.5791733532387,None,,,,,,,,,,,,,,,,,,,,,,community,D_new,13,63,2110.7304745910224,None,2110.7304745910224,None,2110.7304745910224,None,6,0.7601293773623183,2110.7304745910224,None,2111.5456288486603,None,2111.5456288486603,None,2112.062486160343,None,2112.062486160343,None,2112.062486160343,None,r,0.4762415251461789,2112.062486160343,None,sing9,001,2019_Oct_26_1502,ProdFawcett_Revision2019,3.2.4,59.99932824338381,
,,,,14,0,14,0,,,,,,,,,,,,,2115.4300366983807,None,,,,,,,,,,,,,,,,,,,,,,order,D_new,14,207,2113.0959812153887,None,2113.0959812153887,None,2113.0959812153887,None,1,1.4911040617153049,2113.0959812153887,None,2114.6466162841243,None,2114.6466162841243,None,2115.163296945946,None,2115.163296945946,None,2115.163296945946,None,f,0.2312455681967549,2115.163296945946,None,sing9,001,2019_Oct_26_1502,ProdFawcett_Revision2019,3.2.4,59.99932824338381,
,,,,15,0,15,0,,,,,,,,,,,,,2118.9312632953806,None,,,,,,,,,,,,,,,,,,,,,,brief,D_new,15,28,2115.9468936990597,None,2115.9468936990597,None,2115.9468936990597,None,1,2.287294893321814,2115.9468936990597,None,2118.2870436026715,None,2118.2870436026715,None,2118.814556820289,None,2118.814556820289,None,2118.814556820289,None,f,0.08365864280494861,2118.814556820289,None,sing9,001,2019_Oct_26_1502,ProdFawcett_Revision2019,3.2.4,59.99932824338381,
,,,,16,0,16,0,,,,,,,,,,,,,2121.6986698388937,None,,,,,,,,,,,,,,,,,,,,,,fellow,A_silent,16,126,2119.4480027368118,None,2119.4480027368118,None,2119.4480027368118,None,1,1.5140918703691568,2119.4480027368118,None,2121.0151993531035,None,2121.0151993531035,None,2121.532061329839,None,2121.532061329839,None,2121.532061329839,None,f,0.1339049573871307,2121.532061329839,None,sing9,001,2019_Oct_26_1502,ProdFawcett_Revision2019,3.2.4,59.99932824338381,
,,,,17,0,17,0,,,,,,,,,,,,,2124.1995950737037,None,,,,,,,,,,,,,,,,,,,,,,quick,D_new,17,248,2122.2173626920267,None,2122.2173626920267,None,2122.2173626920267,None,1,1.2731840517371893,2122.2173626920267,None,2123.539797536854,None,2123.539797536854,None,2124.066362816433,None,2124.066362816433,None,2124.066362816433,None,f,0.09552683960646391,2124.066362816433,None,sing9,001,2019_Oct_26_1502,ProdFawcett_Revision2019,3.2.4,59.99932824338381,
,,,,18,0,18,0,,,,,,,,,,,,,2126.8001763388747,None,,,,,,,,,,,,,,,,,,,,,,benefit,D_new,18,20,2124.7163189649873,None,2124.7163189649873,None,2124.7163189649873,None,1,1.3174410648935009,2124.7163189649873,None,2126.0834179262165,None,2126.0834179262165,None,2126.6003134913044,None,2126.6003134913044,None,2126.6003134913044,None,f,0.1616759967582766,2126.6003134913044,None,sing9,001,2019_Oct_26_1502,ProdFawcett_Revision2019,3.2.4,59.99932824338381,
,,,,19,0,19,0,,,,,,,,,,,,,2129.1010841574753,None,,,,,,,,,,,,,,,,,,,,,,shear,C_sing,19,283,2127.317078435037,None,2127.317078435037,None,2127.317078435037,None,1,1.1169552777137142,2127.317078435037,None,2128.4841773962835,None,2128.4841773962835,None,2129.0010449710826,None,2129.0010449710826,None,2129.0010449710826,None,f,0.05721434348379262,2129.0010449710826,None,sing9,001,2019_Oct_26_1502,ProdFawcett_Revision2019,3.2.4,59.99932824338381,
,,,,20,0,20,0,,,,,,,,,,,,,2133.869229644828,None,,,,,,,,,,,,,,,,,,,,,,front,D_new,20,134,2129.6176836474333,None,2129.6176836474333,None,2129.6176836474333,None,4,3.2716759967734106,2129.6176836474333,None,2132.952135037631,None,2132.952135037631,None,2133.469096846413,None,2133.469096846413,None,2133.469096846413,None,f,0.3643730173644144,2133.469096846413,None,sing9,001,2019_Oct_26_1502,ProdFawcett_Revision2019,3.2.4,59.99932824338381,
,,,,21,0,21,0,,,,,,,,,,,,,2136.2865298252145,None,,,,,,,,,,,,,,,,,,,,,,resistance,D_new,21,262,2134.387120731466,None,2134.387120731466,None,2134.387120731466,None,6,0.9341689991997555,2134.387120731466,None,2135.3862776015303,None,2135.3862776015303,None,2135.903181874717,None,2135.903181874717,None,2135.903181874717,None,r,0.3460390620166436,2135.903181874717,None,sing9,001,2019_Oct_26_1502,ProdFawcett_Revision2019,3.2.4,59.99932824338381,
,,,,22,0,22,0,,,,,,,,,,,,,2138.637369534117,None,,,,,,,,,,,,,,,,,,,,,,match,D_new,22,181,2136.803571561846,None,2136.803571561846,None,2136.803571561846,None,1,1.109789761772845,2136.803571561846,None,2137.970396218181,None,2137.970396218181,None,2138.4873340797494,None,2138.4873340797494,None,2138.4873340797494,None,f,0.11377215900574811,2138.4873340797494,None,sing9,001,2019_Oct_26_1502,ProdFawcett_Revision2019,3.2.4,59.99932824338381,
,,,,23,0,23,0,,,,,,,,,,,,,2141.988292902912,None,,,,,,,,,,,,,,,,,,,,,,budget,A_silent,23,34,2139.154330720892,None,2139.154330720892,None,2139.154330720892,None,6,1.110912794683827,2139.154330720892,None,2140.3093192137894,None,2140.3093192137894,None,2140.8379299620574,None,2140.8379299620574,None,2140.8379299620574,None,f,1.1076876904990058,2140.8379299620574,None,sing9,001,2019_Oct_26_1502,ProdFawcett_Revision2019,3.2.4,59.99932824338381,
,,,,24,0,24,0,,,,,,,,,,,,,2145.6060505691275,None,,,,,,,,,,,,,,,,,,,,,,carry,B_aloud,24,43,2142.5052223673556,None,2142.5052223673556,None,2142.5052223673556,None,4,1.951471045584185,2142.5052223673556,None,2144.509386079473,None,2144.509386079473,None,2145.0392343098647,None,2145.0392343098647,None,2145.0392343098647,None,f,0.5296305280644447,2145.0392343098647,None,sing9,001,2019_Oct_26_1502,ProdFawcett_Revision2019,3.2.4,59.99932824338381,
,,,,25,0,25,0,,,,,,,,,,,,,2147.8736023511738,None,,,,,,,,,,,,,,,,,,,,,,property,B_aloud,25,242,2146.122984387621,None,2146.122984387621,None,2146.122984387621,None,6,0.9175744852982461,2146.122984387621,None,2147.1066819058324,None,2147.1066819058324,None,2147.623339242389,None,2147.623339242389,None,2147.623339242389,None,r,0.2171804441313725,2147.623339242389,None,sing9,001,2019_Oct_26_1502,ProdFawcett_Revision2019,3.2.4,59.99932824338381,
,,,,26,0,26,0,,,,,,,,,,,,,2150.1741490949644,None,,,,,,,,,,,,,,,,,,,,,,mechanical,C_sing,26,185,2148.3922277165984,None,2148.3922277165984,None,2148.3922277165984,None,6,0.8162076258158777,2148.3922277165984,None,2149.246196118678,None,2149.246196118678,None,2149.774094980414,None,2149.774094980414,None,2149.774094980414,None,r,0.3622883622592781,2149.774094980414,None,sing9,001,2019_Oct_26_1502,ProdFawcett_Revision2019,3.2.4,59.99932824338381,
,,,,27,0,27,0,,,,,,,,,,,,,2153.4084801268764,None,,,,,,,,,,,,,,,,,,,,,,piece,D_new,27,221,2150.693994526344,None,2150.693994526344,None,2150.693994526344,None,3,2.050188157008961,2150.693994526344,None,2152.808442806476,None,2152.808442806476,None,2153.325103875104,None,2153.325103875104,None,2153.325103875104,None,f,0.051081047451589257,2153.325103875104,None,sing9,001,2019_Oct_26_1502,ProdFawcett_Revision2019,3.2.4,59.99932824338381,
,,,,28,0,28,0,,,,,,,,,,,,,2156.32606300927,None,,,,,,,,,,,,,,,,,,,,,,childhood,C_sing,28,49,2153.9252966971544,None,2153.9252966971544,None,2153.9252966971544,None,6,1.7232925918942783,2153.9252966971544,None,2155.698145176342,None,2155.698145176342,None,2156.2259893014852,None,2156.2259893014852,None,2156.2259893014852,None,r,0.054001679411157966,2156.2259893014852,None,sing9,001,2019_Oct_26_1502,ProdFawcett_Revision2019,3.2.4,59.99932824338381,
,,,,29,0,29,0,,,,,,,,,,,,,2159.9438408907154,None,,,,,,,,,,,,,,,,,,,,,,state,D_new,29,303,2156.843383404863,None,2156.843383404863,None,2156.843383404863,None,3,2.05244230889366,2156.843383404863,None,2158.96021428128,None,2158.96021428128,None,2159.4771645829314,None,2159.4771645829314,None,2159.4771645829314,None,r,0.4269400385674089,2159.4771645829314,None,sing9,001,2019_Oct_26_1502,ProdFawcett_Revision2019,3.2.4,59.99932824338381,
,,,,30,0,30,0,,,,,,,,,,,,,2163.4117130061495,None,,,,,,,,,,,,,,,,,,,,,,block,A_silent,30,25,2160.4606428437983,None,2160.4606428437983,None,2160.4606428437983,None,4,1.891694967955118,2160.4606428437983,None,2162.4112698264653,None,2162.4112698264653,None,2162.9282316352474,None,2162.9282316352474,None,2162.9282316352474,None,r,0.4475321888457984,2162.9282316352474,None,sing9,001,2019_Oct_26_1502,ProdFawcett_Revision2019,3.2.4,59.99932824338381,
,,,,31,0,31,0,,,,,,,,,,,,,2166.395835354837,None,,,,,,,,,,,,,,,,,,,,,,comfort,D_new,31,59,2163.928882254142,None,2163.928882254142,None,2163.928882254142,None,4,1.7912465012050234,2163.928882254142,None,2165.779066679097,None,2165.779066679097,None,2166.295926478808,None,2166.295926478808,None,2166.295926478808,None,r,0.05613485103822313,2166.295926478808,None,sing9,001,2019_Oct_26_1502,ProdFawcett_Revision2019,3.2.4,59.99932824338381,
,,,,32,0,32,0,,,,,,,,,,,,,2170.2806381787523,None,,,,,,,,,,,,,,,,,,,,,,attack,B_aloud,32,13,2166.912651925115,None,2166.912651925115,None,2166.912651925115,None,6,0.9670809230592567,2166.912651925115,None,2167.9296398581646,None,2167.9296398581646,None,2168.4466296572646,None,2168.4466296572646,None,2168.4466296572646,None,r,1.800686695263721,2168.4466296572646,None,sing9,001,2019_Oct_26_1502,ProdFawcett_Revision2019,3.2.4,59.99932824338381,
,,,,33,0,33,0,,,,,,,,,,,,,2172.6144619642873,None,,,,,,,,,,,,,,,,,,,,,,device,D_new,33,93,2170.797265036992,None,2170.797265036992,None,2170.797265036992,None,6,1.0501990421034861,2170.797265036992,None,2171.8976441500126,None,2171.8976441500126,None,2172.414522920939,None,2172.414522920939,None,2172.414522920939,None,r,0.15251819367404096,2172.414522920939,None,sing9,001,2019_Oct_26_1502,ProdFawcett_Revision2019,3.2.4,59.99932824338381,
,,,,34,0,34,0,,,,,,,,,,,,,2176.499095913401,None,,,,,,,,,,,,,,,,,,,,,,signal,D_new,34,287,2173.1313388691924,None,2173.1313388691924,None,2173.1313388691924,None,4,2.139933756290702,2173.1313388691924,None,2175.319564595382,None,2175.319564595382,None,2175.848730173544,None,2175.848730173544,None,2175.848730173544,None,f,0.6064247060858179,2175.848730173544,None,sing9,001,2019_Oct_26_1502,ProdFawcett_Revision2019,3.2.4,59.99932824338381,
,,,,35,0,35,0,,,,,,,,,,,,,2178.9832163960964,None,,,,,,,,,,,,,,,,,,,,,,guard,D_new,35,145,2177.015678298194,None,2177.015678298194,None,2177.015678298194,None,6,0.9993895005318336,2177.015678298194,None,2178.066263917397,None,2178.066263917397,None,2178.5829439572117,None,2178.5829439572117,None,2178.5829439572117,None,r,0.35174721651128493,2178.5829439572117,None,sing9,001,2019_Oct_26_1502,ProdFawcett_Revision2019,3.2.4,59.99932824338381,
,,,,36,0,36,0,,,,,,,,,,,,,2182.1008490390086,None,,,,,,,,,,,,,,,,,,,,,,music,D_new,36,196,2179.500095477997,None,2179.500095477997,None,2179.500095477997,None,3,1.8668526466353796,2179.500095477997,None,2181.4052948311146,None,2181.4052948311146,None,2181.9340330907435,None,2181.9340330907435,None,2181.9340330907435,None,f,0.12850003110361286,2181.9340330907435,None,sing9,001,2019_Oct_26_1502,ProdFawcett_Revision2019,3.2.4,59.99932824338381,
,,,,37,0,37,0,,,,,,,,,,,,,2187.152375443169,None,,,,,,,,,,,,,,,,,,,,,,empty,D_new,37,112,2182.6176329539157,None,2182.6176329539157,None,2182.6176329539157,None,4,1.9094090937287547,2182.6176329539157,None,2184.584846675367,None,2184.584846675367,None,2185.1017801828566,None,2185.1017801828566,None,2185.1017801828566,None,r,2.009088138322113,2185.1017801828566,None,sing9,001,2019_Oct_26_1502,ProdFawcett_Revision2019,3.2.4,59.99932824338381,
,,,,38,0,38,0,,,,,,,,,,,,,2189.2862430801615,None,,,,,,,,,,,,,,,,,,,,,,primary,A_silent,38,234,2187.6691665111575,None,2187.6691665111575,None,2187.6691665111575,None,6,0.8811416930984706,2187.6691665111575,None,2188.602786900534,None,2188.602786900534,None,2189.1196986378054,None,2189.1196986378054,None,2189.1196986378054,None,r,0.11845058156177402,2189.1196986378054,None,sing9,001,2019_Oct_26_1502,ProdFawcett_Revision2019,3.2.4,59.99932824338381,
,,,,39,0,39,0,,,,,,,,,,,,,2191.3203489457082,None,,,,,,,,,,,,,,,,,,,,,,collection,C_sing,39,54,2189.8035868010193,None,2189.8035868010193,None,2189.8035868010193,None,6,0.8985594327386934,2189.8035868010193,None,2190.753535485477,None,2190.753535485477,None,2191.2702124152565,None,2191.2702124152565,None,2191.2702124152565,None,r,0.01612458791350946,2191.2702124152565,None,sing9,001,2019_Oct_26_1502,ProdFawcett_Revision2019,3.2.4,59.99932824338381,
,,,,40,0,40,0,,,,,,,,,,,,,2193.137597188528,None,,,,,,,,,,,,,,,,,,,,,,range,B_aloud,40,251,2191.837019655417,None,2191.837019655417,None,2191.837019655417,None,6,0.6415267151605804,2191.837019655417,None,2192.5373070224596,None,2192.5373070224596,None,2193.0543683523138,None,2193.0543683523138,None,2193.0543683523138,None,r,0.047634819929953665,2193.0543683523138,None,sing9,001,2019_Oct_26_1502,ProdFawcett_Revision2019,3.2.4,59.99932824338381,
,,,,41,0,41,0,,,,,,,,,,,,,2194.9214589164476,None,,,,,,,,,,,,,,,,,,,,,,waste,B_aloud,41,350,2193.6543895005307,None,2193.6543895005307,None,2193.6543895005307,None,6,0.6080761336197611,2193.6543895005307,None,2194.321303414821,None,2194.321303414821,None,2194.837954220304,None,2194.837954220304,None,2194.837954220304,None,r,0.040487031161319464,2194.837954220304,None,sing9,001,2019_Oct_26_1502,ProdFawcett_Revision2019,3.2.4,59.99932824338381,
,,,,42,0,42,0,,,,,,,,,,,,,2198.0557734651957,None,,,,,,,,,,,,,,,,,,,,,,search,D_new,42,276,2195.438142999308,None,2195.438142999308,None,2195.438142999308,None,6,1.9514726006018464,2195.438142999308,None,2197.4555181314936,None,2197.4555181314936,None,2197.9724348447926,None,2197.9724348447926,None,2197.9724348447926,None,r,0.049521365930559114,2197.9724348447926,None,sing9,001,2019_Oct_26_1502,ProdFawcett_Revision2019,3.2.4,59.99932824338381,
,,,,43,0,43,0,,,,,,,,,,,,,2200.623085774714,None,,,,,,,,,,,,,,,,,,,,,,addition,B_aloud,43,2,2198.5732624245866,None,2198.5732624245866,None,2198.5732624245866,None,6,1.3842125396477059,2198.5732624245866,None,2200.009001990402,None,2200.009001990402,None,2200.5397642595053,None,2200.5397642595053,None,2200.5397642595053,None,r,0.042345275869593024,2200.5397642595053,None,sing9,001,2019_Oct_26_1502,ProdFawcett_Revision2019,3.2.4,59.99932824338381,
,,,,44,0,44,0,,,,,,,,,,,,,2203.0571860421624,None,,,,,,,,,,,,,,,,,,,,,,audience,D_new,44,14,2201.1398600485118,None,2201.1398600485118,None,2201.1398600485118,None,6,1.1695521552464925,2201.1398600485118,None,2202.373723642464,None,2202.373723642464,None,2202.8905371026776,None,2202.8905371026776,None,2202.8905371026776,None,r,0.13100143062183633,2202.8905371026776,None,sing9,001,2019_Oct_26_1502,ProdFawcett_Revision2019,3.2.4,59.99932824338381,
,,,,45,0,45,0,,,,,,,,,,,,,2206.2583473284903,None,,,,,,,,,,,,,,,,,,,,,,impact,D_new,45,157,2203.574049262912,None,2203.574049262912,None,2203.574049262912,None,4,2.007756422215607,2203.574049262912,None,2205.641389873723,None,2205.641389873723,None,2206.1584527585946,None,2206.1584527585946,None,2206.1584527585946,None,f,0.06271039371495135,2206.1584527585946,None,sing9,001,2019_Oct_26_1502,ProdFawcett_Revision2019,3.2.4,59.99932824338381,
,,,,46,0,46,0,,,,,,,,,,,,,2208.2754643279186,None,,,,,,,,,,,,,,,,,,,,,,engineer,B_aloud,46,114,2206.7751887789927,None,2206.7751887789927,None,2206.7751887789927,None,6,0.8698376562970225,2206.7751887789927,None,2207.708664551843,None,2207.708664551843,None,2208.225605212414,None,2208.225605212414,None,2208.225605212414,None,r,0.0033622566261328757,2208.225605212414,None,sing9,001,2019_Oct_26_1502,ProdFawcett_Revision2019,3.2.4,59.99932824338381,
,,,,47,0,47,0,,,,,,,,,,,,,2210.909764570504,None,,,,,,,,,,,,,,,,,,,,,,crisis,D_new,47,79,2208.7924647011096,None,2208.7924647011096,None,2208.7924647011096,None,4,1.3250581576139666,2208.7924647011096,None,2210.1760897555505,None,2210.1760897555505,None,2210.6930276170897,None,2210.6930276170897,None,2210.6930276170897,None,f,0.16781209179316647,2210.6930276170897,None,sing9,001,2019_Oct_26_1502,ProdFawcett_Revision2019,3.2.4,59.99932824338381,
,,,,48,0,48,0,,,,,,,,,,,,,2213.1771238415095,None,,,,,,,,,,,,,,,,,,,,,,clean,A_silent,48,51,2211.4268604217214,None,2211.4268604217214,None,2211.4268604217214,None,6,0.8745754804986063,2211.4268604217214,None,2212.3601371524564,None,2212.3601371524564,None,2212.8770392486185,None,2212.8770392486185,None,2212.8770392486185,None,r,0.25591497169807553,2212.8770392486185,None,sing9,001,2019_Oct_26_1502,ProdFawcett_Revision2019,3.2.4,59.99932824338381,
,,,,49,0,49,0,,,,,,,,,,,,,2216.7947692355374,None,,,,,,,,,,,,,,,,,,,,,,finish,A_silent,49,130,2213.693945387815,None,2213.693945387815,None,2213.693945387815,None,4,2.407259749947116,2213.693945387815,None,2216.1613817876496,None,2216.1613817876496,None,2216.678070535534,None,2216.678070535534,None,2216.678070535534,None,f,0.07040710333967581,2216.678070535534,None,sing9,001,2019_Oct_26_1502,ProdFawcett_Revision2019,3.2.4,59.99932824338381,
,,,,50,0,50,0,,,,,,,,,,,,,2220.5294069166994,None,,,,,,,,,,,,,,,,,,,,,,power,A_silent,50,230,2217.3116542265343,None,2217.3116542265343,None,2217.3116542265343,None,6,1.2610502581228502,2217.3116542265343,None,2218.6286751259468,None,2218.6286751259468,None,2219.145669279096,None,2219.145669279096,None,2219.145669279096,None,r,1.3466688437038101,2219.145669279096,None,sing9,001,2019_Oct_26_1502,ProdFawcett_Revision2019,3.2.4,59.99932824338381,
,,,,51,0,51,0,,,,,,,,,,,,,2231.982938670146,None,,,,,,,,,,,,,,,,,,,,,,equipment,C_sing,51,116,2221.051060832251,None,2221.051060832251,None,2221.051060832251,None,6,10.073331467312528,2221.051060832251,None,2231.182650370087,None,2231.182650370087,None,2231.7035501026257,None,2231.7035501026257,None,2231.7035501026257,None,r,0.24423368787392974,2231.7035501026257,None,sing9,001,2019_Oct_26_1502,ProdFawcett_Revision2019,3.2.4,59.99932824338381,
,,,,52,0,52,0,,,,,,,,,,,,,2237.83489177085,None,,,,,,,,,,,,,,,,,,,,,,murder,D_new,52,195,2232.502816756867,None,2232.502816756867,None,2232.502816756867,None,1,4.364891148841707,2232.502816756867,None,2236.9041500279855,None,2236.9041500279855,None,2237.434497418668,None,2237.434497418668,None,2237.434497418668,None,f,0.36108415748458356,2237.434497418668,None,sing9,001,2019_Oct_26_1502,ProdFawcett_Revision2019,3.2.4,59.99932824338381,
,,,,53,0,53,0,,,,,,,,,,,,,2239.7853781800077,None,,,,,,,,,,,,,,,,,,,,,,month,D_new,53,193,2238.351553461456,None,2238.351553461456,None,2238.351553461456,None,1,0.756263295392273,2238.351553461456,None,2239.1565142750333,None,2239.1565142750333,None,2239.6851959320775,None,2239.6851959320775,None,2239.6851959320775,None,f,0.05396031597047113,2239.6851959320775,None,sing9,001,2019_Oct_26_1502,ProdFawcett_Revision2019,3.2.4,59.99932824338381,
,,,,54,0,54,0,,,,,,,,,,,,,2242.3026721403294,None,,,,,,,,,,,,,,,,,,,,,,enemy,D_new,54,113,2240.3021390806825,None,2240.3021390806825,None,2240.3021390806825,None,1,1.3008857374079525,2240.3021390806825,None,2241.641233750066,None,2241.641233750066,None,2242.169413136784,None,2242.169413136784,None,2242.169413136784,None,f,0.09020432917168364,2242.169413136784,None,sing9,001,2019_Oct_26_1502,ProdFawcett_Revision2019,3.2.4,59.99932824338381,
,,,,55,0,55,0,,,,,,,,,,,,,2245.003649623686,None,,,,,,,,,,,,,,,,,,,,,,treatment,B_aloud,55,339,2242.819534739072,None,2242.819534739072,None,2242.819534739072,None,1,1.5193388070038054,2242.819534739072,None,2244.4034409404558,None,2244.4034409404558,None,2244.920271816867,None,2244.920271816867,None,2244.920271816867,None,f,0.03459165268577635,2244.920271816867,None,sing9,001,2019_Oct_26_1502,ProdFawcett_Revision2019,3.2.4,59.99932824338381,
,,,,56,0,56,0,,,,,,,,,,,,,2247.1208546370617,None,,,,,,,,,,,,,,,,,,,,,,death,A_silent,56,86,2245.5204599738645,None,2245.5204599738645,None,2245.5204599738645,None,6,0.7784496485546697,2245.5204599738645,None,2246.354000746389,None,2246.354000746389,None,2246.8708785843046,None,2246.8708785843046,None,2246.8708785843046,None,r,0.20395938295405358,2246.8708785843046,None,sing9,001,2019_Oct_26_1502,ProdFawcett_Revision2019,3.2.4,59.99932824338381,
,,,,57,0,57,0,,,,,,,,,,,,,2249.7886857000703,None,,,,,,,,,,,,,,,,,,,,,,curve,D_new,57,82,2247.6376254898205,None,2247.6376254898205,None,2247.6376254898205,None,1,1.4130195310281124,2247.6376254898205,None,2249.104773900588,None,2249.104773900588,None,2249.6219027181505,None,2249.6219027181505,None,2249.6219027181505,None,f,0.1330465883074794,2249.6219027181505,None,sing9,001,2019_Oct_26_1502,ProdFawcett_Revision2019,3.2.4,59.99932824338381,
,,,,58,0,58,0,,,,,,,,,,,,,2252.6392156496877,None,,,,,,,,,,,,,,,,,,,,,,commercial,A_silent,58,61,2250.306374634558,None,2250.306374634558,None,2250.306374634558,None,6,1.272774460434448,2250.306374634558,None,2251.6290110094997,None,2251.6290110094997,None,2252.1561830565333,None,2252.1561830565333,None,2252.1561830565333,None,r,0.44636343847378157,2252.1561830565333,None,sing9,001,2019_Oct_26_1502,ProdFawcett_Revision2019,3.2.4,59.99932824338381,
,,,,59,0,59,0,,,,,,,,,,,,,2254.7899944019446,None,,,,,,,,,,,,,,,,,,,,,,population,C_sing,59,227,2253.156292218686,None,2253.156292218686,None,2253.156292218686,None,6,0.894366797292605,2253.156292218686,None,2254.0942961995315,None,2254.0942961995315,None,2254.623150774394,None,2254.623150774394,None,2254.623150774394,None,r,0.1312937737093307,2254.623150774394,None,sing9,001,2019_Oct_26_1502,ProdFawcett_Revision2019,3.2.4,59.99932824338381,
,,,,60,0,60,0,,,,,,,,,,,,,2256.7571465447545,None,,,,,,,,,,,,,,,,,,,,,,produce,A_silent,60,239,2255.307246065815,None,2255.307246065815,None,2255.307246065815,None,6,0.8150765068130568,2255.307246065815,None,2256.1609106176475,None,2256.1609106176475,None,2256.6906145425164,None,2256.6906145425164,None,2256.6906145425164,None,f,0.031614107108907774,2256.6906145425164,None,sing9,001,2019_Oct_26_1502,ProdFawcett_Revision2019,3.2.4,59.99932824338381,
,,,,61,0,61,0,,,,,,,,,,,,,2258.474492131616,None,,,,,,,,,,,,,,,,,,,,,,vision,D_new,61,347,2257.27425887913,None,2257.27425887913,None,2257.27425887913,None,6,0.4878366610792,2257.27425887913,None,2257.812038626609,None,2257.812038626609,None,2258.340969397279,None,2258.340969397279,None,2258.340969397279,None,r,0.08518349193036556,2258.340969397279,None,sing9,001,2019_Oct_26_1502,ProdFawcett_Revision2019,3.2.4,59.99932824338381,
,,,,62,0,62,0,,,,,,,,,,,,,2260.791818747268,None,,,,,,,,,,,,,,,,,,,,,,dozen,A_silent,62,102,2258.9951533246203,None,2258.9951533246203,None,2258.9951533246203,None,6,1.0715176961093675,2258.9951533246203,None,2260.1249716987077,None,2260.1249716987077,None,2260.644663183426,None,2260.644663183426,None,2260.644663183426,None,r,0.10933072087937035,2260.644663183426,None,sing9,001,2019_Oct_26_1502,ProdFawcett_Revision2019,3.2.4,59.99932824338381,
,,,,63,0,63,0,,,,,,,,,,,,,2263.1424634571013,None,,,,,,,,,,,,,,,,,,,,,,relation,D_new,63,257,2261.309067301103,None,2261.309067301103,None,2261.309067301103,None,1,1.0931047459307592,2261.309067301103,None,2262.459059526038,None,2262.459059526038,None,2262.97586054611,None,2262.97586054611,None,2262.97586054611,None,f,0.12238974933279678,2262.97586054611,None,sing9,001,2019_Oct_26_1502,ProdFawcett_Revision2019,3.2.4,59.99932824338381,
,,,,64,0,64,0,,,,,,,,,,,,,2265.6266881258925,None,,,,,,,,,,,,,,,,,,,,,,health,B_aloud,64,149,2263.659246438998,None,2263.659246438998,None,2263.659246438998,None,1,1.2545894756622147,2263.659246438998,None,2264.97643870124,None,2264.97643870124,None,2265.4933299122786,None,2265.4933299122786,None,2265.4933299122786,None,f,0.09262797786504962,2265.4933299122786,None,sing9,001,2019_Oct_26_1502,ProdFawcett_Revision2019,3.2.4,59.99932824338381,
,,,,65,0,65,0,,,,,,,,,,,,,2267.9773085774796,None,,,,,,,,,,,,,,,,,,,,,,stranger,A_silent,65,309,2266.144760838448,None,2266.144760838448,None,2266.144760838448,None,4,1.1129265410418157,2266.144760838448,None,2267.3105734900746,None,2267.3105734900746,None,2267.8272501088504,None,2267.8272501088504,None,2267.8272501088504,None,f,0.10228494121110998,2267.8272501088504,None,sing9,001,2019_Oct_26_1502,ProdFawcett_Revision2019,3.2.4,59.99932824338381,
,,,,66,0,66,0,,,,,,,,,,,,,2269.91137214654,None,,,,,,,,,,,,,,,,,,,,,,fashion,A_silent,66,125,2268.4949978229706,None,2268.4949978229706,None,2268.4949978229706,None,4,0.530611432477599,2268.4949978229706,None,2269.0777433600742,None,2269.0777433600742,None,2269.5944628973084,None,2269.5944628973084,None,2269.5944628973084,None,f,0.27092772282776423,2269.5944628973084,None,sing9,001,2019_Oct_26_1502,ProdFawcett_Revision2019,3.2.4,59.99932824338381,
,,,,67,0,67,0,,,,,,,,,,,,,2271.8953047832183,None,,,,,,,,,,,,,,,,,,,,,,portion,D_new,67,228,2270.429126702744,None,2270.429126702744,None,2270.429126702744,None,4,0.7728836225578561,2270.429126702744,None,2271.2498833737627,None,2271.2498833737627,None,2271.778459289664,None,2271.778459289664,None,2271.778459289664,None,f,0.07083970890380442,2271.778459289664,None,sing9,001,2019_Oct_26_1502,ProdFawcett_Revision2019,3.2.4,59.99932824338381,
,,,,68,0,68,0,,,,,,,,,,,,,2275.9298883498122,None,,,,,,,,,,,,,,,,,,,,,,government,B_aloud,68,139,2272.4130618274503,None,2272.4130618274503,None,2272.4130618274503,None,6,1.7164582944533322,2272.4130618274503,None,2274.1792762953264,None,2274.1792762953264,None,2274.6960315979377,None,2274.6960315979377,None,2274.6960315979377,None,r,1.1934008210373577,2274.6960315979377,None,sing9,001,2019_Oct_26_1502,ProdFawcett_Revision2019,3.2.4,59.99932824338381,
,,,,69,0,69,0,,,,,,,,,,,,,2278.164034334768,None,,,,,,,,,,,,,,,,,,,,,,afternoon,B_aloud,69,3,2276.4482729986776,None,2276.4482729986776,None,2276.4482729986776,None,6,1.0250351433642209,2276.4482729986776,None,2277.5189774211613,None,2277.5189774211613,None,2278.0471552528325,None,2278.0471552528325,None,2278.0471552528325,None,r,0.07446383032947779,2278.0471552528325,None,sing9,001,2019_Oct_26_1502,ProdFawcett_Revision2019,3.2.4,59.99932824338381,
,,,,70,0,70,0,,,,,,,,,,,,,2281.348136157234,None,,,,,,,,,,,,,,,,,,,,,,society,D_new,70,293,2278.681105616706,None,2278.681105616706,None,2278.681105616706,None,6,1.9440094545134343,2278.681105616706,None,2280.669230577827,None,2280.669230577827,None,2281.19805094233,None,2281.19805094233,None,2281.19805094233,None,r,0.11487684270832688,2281.19805094233,None,sing9,001,2019_Oct_26_1502,ProdFawcett_Revision2019,3.2.4,59.99932824338381,
,,,,71,0,71,0,,,,,,,,,,,,,2283.715614231507,None,,,,,,,,,,,,,,,,,,,,,,tough,A_silent,71,333,2281.864851651422,None,2281.864851651422,None,2281.864851651422,None,6,1.20846550972783,2281.864851651422,None,2283.132023387443,None,2283.132023387443,None,2283.6489469428197,None,2283.6489469428197,None,2283.6489469428197,None,r,0.024295266543049365,2283.6489469428197,None,sing9,001,2019_Oct_26_1502,ProdFawcett_Revision2019,3.2.4,59.99932824338381,
,,,,72,0,72,0,,,,,,,,,,,,,2285.982994339749,None,,,,,,,,,,,,,,,,,,,,,,service,C_sing,72,280,2284.2329946507525,None,2284.2329946507525,None,2284.2329946507525,None,6,1.0158956894883886,2284.2329946507525,None,2285.2881367792434,None,2285.2881367792434,None,2285.8161973626993,None,2285.8161973626993,None,2285.8161973626993,None,r,0.12027990297065116,2285.8161973626993,None,sing9,001,2019_Oct_26_1502,ProdFawcett_Revision2019,3.2.4,59.99932824338381,
,,,,73,0,73,0,,,,,,,,,,,,,2289.1673353237566,None,,,,,,,,,,,,,,,,,,,,,,household,D_new,73,154,2286.5013469552796,None,2286.5013469552796,None,2286.5013469552796,None,4,1.9556754991644993,2286.5013469552796,None,2288.517127262545,None,2288.517127262545,None,2289.0337108913227,None,2289.0337108913227,None,2289.0337108913227,None,f,0.08658922684844583,2289.0337108913227,None,sing9,001,2019_Oct_26_1502,ProdFawcett_Revision2019,3.2.4,59.99932824338381,
,,,,74,0,74,0,,,,,,,,,,,,,2290.9510726503795,None,,,,,,,,,,,,,,,,,,,,,,meeting,D_new,74,187,2289.6843098836835,None,2289.6843098836835,None,2289.6843098836835,None,4,0.5086119922925718,2289.6843098836835,None,2290.23900883249,None,2290.23900883249,None,2290.7676649872446,None,2290.7676649872446,None,2290.7676649872446,None,f,0.13652858120622113,2290.7676649872446,None,sing9,001,2019_Oct_26_1502,ProdFawcett_Revision2019,3.2.4,59.99932824338381,
,,,,75,0,75,0,,,,,,,,,,,,,2294.2187541207823,None,,,,,,,,,,,,,,,,,,,,,,grade,A_silent,75,140,2291.4679284070444,None,2291.4679284070444,None,2291.4679284070444,None,6,2.0444716053898446,2291.4679284070444,None,2293.5686483796744,None,2293.5686483796744,None,2294.085529016593,None,2294.085529016593,None,2294.085529016593,None,r,0.09850127511890605,2294.085529016593,None,sing9,001,2019_Oct_26_1502,ProdFawcett_Revision2019,3.2.4,59.99932824338381,
,,,,76,0,76,0,,,,,,,,,,,,,2296.1862113578245,None,,,,,,,,,,,,,,,,,,,,,,degree,B_aloud,76,89,2294.735530882608,None,2294.735530882608,None,2294.735530882608,None,4,0.7203959071775898,2294.735530882608,None,2295.519197922491,None,2295.519197922491,None,2296.0361137028085,None,2296.0361137028085,None,2296.0361137028085,None,f,0.10835168254561722,2296.0361137028085,None,sing9,001,2019_Oct_26_1502,ProdFawcett_Revision2019,3.2.4,59.99932824338381,
,,,,77,0,77,0,,,,,,,,,,,,,2304.5385899110406,None,,,,,,,,,,,,,,,,,,,,,,orchestra,D_new,77,206,2296.707962928398,None,2296.707962928398,None,2296.707962928398,None,4,7.0754829881188925,2296.707962928398,None,2303.82700752627,None,2303.82700752627,None,2304.355331529514,None,2304.355331529514,None,2304.355331529514,None,f,0.14828481682343408,2304.355331529514,None,sing9,001,2019_Oct_26_1502,ProdFawcett_Revision2019,3.2.4,59.99932824338381,
,,,,78,0,78,0,,,,,,,,,,,,,2312.491072339355,None,,,,,,,,,,,,,,,,,,,,,,public,C_sing,78,244,2305.055475213041,None,2305.055475213041,None,2305.055475213041,None,6,6.719516389857745,2305.055475213041,None,2311.824357156176,None,2311.824357156176,None,2312.341015736776,None,2312.341015736776,None,2312.341015736776,None,f,0.10652640418265946,2312.341015736776,None,sing9,001,2019_Oct_26_1502,ProdFawcett_Revision2019,3.2.4,59.99932824338381,
,,,,79,0,79,0,,,,,,,,,,,,,2316.2590433538426,None,,,,,,,,,,,,,,,,,,,,,,error,A_silent,79,117,2313.0080161099613,None,2313.0080161099613,None,2313.0080161099613,None,4,2.4867369534040336,2313.0080161099613,None,2315.558746656723,None,2315.558746656723,None,2316.0756397337827,None,2316.0756397337827,None,2316.0756397337827,None,f,0.13951359086786397,2316.0756397337827,None,sing9,001,2019_Oct_26_1502,ProdFawcett_Revision2019,3.2.4,59.99932824338381,
,,,,80,0,80,0,,,,,,,,,,,,,2322.5276460160385,None,,,,,,,,,,,,,,,,,,,,,,space,A_silent,80,297,2316.7756456428324,None,2316.7756456428324,None,2316.7756456428324,None,6,1.3673769982124213,2316.7756456428324,None,2318.1929871866596,None,2318.1929871866596,None,2318.7097938047955,None,2318.7097938047955,None,2318.7097938047955,None,r,3.7847272501094267,2318.7097938047955,None,sing9,001,2019_Oct_26_1502,ProdFawcett_Revision2019,3.2.4,59.99932824338381,
,,,,81,0,81,0,,,,,,,,,,,,,2328.062536542886,None,,,,,,,,,,,,,,,,,,,,,,emergency,C_sing,81,110,2323.0451474155707,None,2323.0451474155707,None,2323.0451474155707,None,6,1.8737528767669573,2323.0451474155707,None,2324.978351060505,None,2324.978351060505,None,2325.495185979962,None,2325.495185979962,None,2325.495185979962,None,r,2.5348519624385517,2325.495185979962,None,sing9,001,2019_Oct_26_1502,ProdFawcett_Revision2019,3.2.4,59.99932824338381,
,,,,82,0,82,0,,,,,,,,,,,,,2331.7305215525266,None,,,,,,,,,,,,,,,,,,,,,,listen,A_silent,82,172,2328.580272127874,None,2328.580272127874,None,2328.580272127874,None,4,2.401677862770157,2328.580272127874,None,2331.0357404988317,None,2331.0357404988317,None,2331.563700006227,None,2331.563700006227,None,2331.563700006227,None,f,0.12269826460396871,2331.563700006227,None,sing9,001,2019_Oct_26_1502,ProdFawcett_Revision2019,3.2.4,59.99932824338381,
,,,,83,0,83,0,,,,,,,,,,,,,2335.0648731106485,None,,,,,,,,,,,,,,,,,,,,,,figure,C_sing,83,128,2332.2472672140284,None,2332.2472672140284,None,2332.2472672140284,None,4,2.1184070410963614,2332.2472672140284,None,2334.4312841326173,None,2334.4312841326173,None,2334.948218884121,None,2334.948218884121,None,2334.948218884121,None,f,0.08156061454792507,2334.948218884121,None,sing9,001,2019_Oct_26_1502,ProdFawcett_Revision2019,3.2.4,59.99932824338381,
,,,,84,0,84,0,,,,,,,,,,,,,2338.532467500161,None,,,,,,,,,,,,,,,,,,,,,,notice,C_sing,84,201,2335.582281209179,None,2335.582281209179,None,2335.582281209179,None,1,0.703278596745804,2335.582281209179,None,2336.3485432605667,None,2336.3485432605667,None,2336.8654562418233,None,2336.8654562418233,None,2336.8654562418233,None,f,1.6199549045122694,2336.8654562418233,None,sing9,001,2019_Oct_26_1502,ProdFawcett_Revision2019,3.2.4,59.99932824338381,
,,,,85,0,85,0,,,,,,,,,,,,,2340.3665301362053,None,,,,,,,,,,,,,,,,,,,,,,phrase,D_new,85,220,2339.050170740811,None,2339.050170740811,None,2339.050170740811,None,6,0.5871676929818932,2339.050170740811,None,2339.699464141304,None,2339.699464141304,None,2340.2163992038404,None,2340.2163992038404,None,2340.2163992038404,None,f,0.1091254587227013,2340.2163992038404,None,sing9,001,2019_Oct_26_1502,ProdFawcett_Revision2019,3.2.4,59.99932824338381,
,,,,86,0,86,0,,,,,,,,,,,,,2346.084806866944,None,,,,,,,,,,,,,,,,,,,,,,executive,C_sing,86,122,2340.8850018660014,None,2340.8850018660014,None,2340.8850018660014,None,4,0.21629470671177842,2340.8850018660014,None,2341.166651427513,None,2341.166651427513,None,2341.6835239783395,None,2341.6835239783395,None,2341.6835239783395,None,r,4.361800709099043,2341.6835239783395,None,sing9,001,2019_Oct_26_1502,ProdFawcett_Revision2019,3.2.4,59.99932824338381,
,,,,87,0,87,0,,,,,,,,,,,,,2348.5188897182234,None,,,,,,,,,,,,,,,,,,,,,,interview,B_aloud,87,165,2346.603054363368,None,2346.603054363368,None,2346.603054363368,None,6,1.1698059339541942,2346.603054363368,None,2347.8354195434367,None,2347.8354195434367,None,2348.35231821856,None,2348.35231821856,None,2348.35231821856,None,f,0.13290321576641873,2348.35231821856,None,sing9,001,2019_Oct_26_1502,ProdFawcett_Revision2019,3.2.4,59.99932824338381,
,,,,88,0,88,0,,,,,,,,,,,,,2350.8863015488023,None,,,,,,,,,,,,,,,,,,,,,,break,A_silent,88,26,2349.0357666231284,None,2349.0357666231284,None,2349.0357666231284,None,4,1.0333740747882985,2349.0357666231284,None,2350.1194597872673,None,2350.1194597872673,None,2350.6363603284117,None,2350.6363603284117,None,2350.6363603284117,None,f,0.21672824531560764,2350.6363603284117,None,sing9,001,2019_Oct_26_1502,ProdFawcett_Revision2019,3.2.4,59.99932824338381,
,,,,89,0,89,0,,,,,,,,,,,,,2352.670212104247,None,,,,,,,,,,,,,,,,,,,,,,color,D_new,89,56,2351.403161348513,None,2351.403161348513,None,2351.403161348513,None,4,0.6421776450879406,2351.403161348513,None,2352.0930941717816,None,2352.0930941717816,None,2352.620295453118,None,2352.620295453118,None,2352.620295453118,None,f,0.0166679106769152,2352.620295453118,None,sing9,001,2019_Oct_26_1502,ProdFawcett_Revision2019,3.2.4,59.99932824338381,
,,,,90,0,90,0,,,,,,,,,,,,,2354.6542753623216,None,,,,,,,,,,,,,,,,,,,,,,blind,A_silent,90,24,2353.187122286501,None,2353.187122286501,None,2353.187122286501,None,4,0.705734589806525,2353.187122286501,None,2353.9539444548136,None,2353.9539444548136,None,2354.4709308328747,None,2354.4709308328747,None,2354.4709308328747,None,f,0.14992815823643468,2354.4709308328747,None,sing9,001,2019_Oct_26_1502,ProdFawcett_Revision2019,3.2.4,59.99932824338381,
,,,,91,0,91,0,,,,,,,,,,,,,2356.671537600283,None,,,,,,,,,,,,,,,,,,,,,,birth,D_new,91,22,2355.171239037125,None,2355.171239037125,None,2355.171239037125,None,6,0.34523667351459153,2355.171239037125,None,2355.571146358154,None,2355.571146358154,None,2356.0880506313406,None,2356.0880506313406,None,2356.0880506313406,None,r,0.5484297443763353,2356.0880506313406,None,sing9,001,2019_Oct_26_1502,ProdFawcett_Revision2019,3.2.4,59.99932824338381,
,,,,92,0,92,0,,,,,,,,,,,,,2359.0389656030165,None,,,,,,,,,,,,,,,,,,,,,,fight,D_new,92,127,2357.188291036873,None,2357.188291036873,None,2357.188291036873,None,6,1.024651054322021,2357.188291036873,None,2358.27200690427,None,2358.27200690427,None,2358.7888023263076,None,2358.7888023263076,None,2358.7888023263076,None,r,0.20815264043631032,2358.7888023263076,None,sing9,001,2019_Oct_26_1502,ProdFawcett_Revision2019,3.2.4,59.99932824338381,
,,,,93,0,93,0,,,,,,,,,,,,,2360.672681159427,None,,,,,,,,,,,,,,,,,,,,,,write,C_sing,93,358,2359.5555937052995,None,2359.5555937052995,None,2359.5555937052995,None,6,0.43298438761848956,2359.5555937052995,None,2360.0391316787864,None,2360.0391316787864,None,2360.5561034396815,None,2360.5561034396815,None,2360.5561034396815,None,r,0.0801495925989002,2360.5561034396815,None,sing9,001,2019_Oct_26_1502,ProdFawcett_Revision2019,3.2.4,59.99932824338381,
,,,,94,0,94,0,,,,,,,,,,,,,2363.7437985942524,None,,,,,,,,,,,,,,,,,,,,,,trend,D_new,94,340,2361.1895558872784,None,2361.1895558872784,None,2361.1895558872784,None,4,1.8787438576691784,2361.1895558872784,None,2363.110424830491,None,2363.110424830491,None,2363.6263251850323,None,2363.6263251850323,None,2363.6263251850323,None,f,0.0899029669817537,2363.6263251850323,None,sing9,001,2019_Oct_26_1502,ProdFawcett_Revision2019,3.2.4,59.99932824338381,
,,,,95,0,95,0,,,,,,,,,,,,,2366.7970224544406,None,,,,,,,,,,,,,,,,,,,,,,position,C_sing,95,229,2364.273798905255,None,2364.273798905255,None,2364.273798905255,None,6,1.9065030789352022,2364.273798905255,None,2366.229397586605,None,2366.229397586605,None,2366.757869627414,None,2366.757869627414,None,2366.757869627414,None,r,0.014053616963792592,2366.757869627414,None,sing9,001,2019_Oct_26_1502,ProdFawcett_Revision2019,3.2.4,59.99932824338381,
,,,,96,0,96,0,,,,,,,,,,,,,2369.442203147337,None,,,,,,,,,,,,,,,,,,,,,,disease,D_new,96,97,2367.3246302170737,None,2367.3246302170737,None,2367.3246302170737,None,6,1.1350895689683966,2367.3246302170737,None,2368.5253290414694,None,2368.5253290414694,None,2369.0419331964804,None,2369.0419331964804,None,2369.0419331964804,None,r,0.353705915302271,2369.0419331964804,None,sing9,001,2019_Oct_26_1502,ProdFawcett_Revision2019,3.2.4,59.99932824338381,
,,,,97,0,97,0,,,,,,,,,,,,,2371.676071406342,None,,,,,,,,,,,,,,,,,,,,,,strain,B_aloud,97,308,2369.9592103626346,None,2369.9592103626346,None,2369.9592103626346,None,4,1.0284770168364048,2369.9592103626346,None,2371.0296967717877,None,2371.0296967717877,None,2371.5598025129,None,2371.5598025129,None,2371.5598025129,None,f,0.07601076070568524,2371.5598025129,None,sing9,001,2019_Oct_26_1502,ProdFawcett_Revision2019,3.2.4,59.99932824338381,
,,,,98,0,98,0,,,,,,,,,,,,,2374.2770162343804,None,,,,,,,,,,,,,,,,,,,,,,broke,D_new,98,32,2372.193150152394,None,2372.193150152394,None,2372.193150152394,None,4,1.4342364869080484,2372.193150152394,None,2373.6650270572864,None,2373.6650270572864,None,2374.19376220688,None,2374.19376220688,None,2374.19376220688,None,f,0.050046028511133045,2374.19376220688,None,sing9,001,2019_Oct_26_1502,ProdFawcett_Revision2019,3.2.4,59.99932824338381,
,,,,99,0,99,0,,,,,,,,,,,,,2377.81158269578,None,,,,,,,,,,,,,,,,,,,,,,object,D_new,99,204,2374.798468930763,None,2374.798468930763,None,2374.798468930763,None,6,1.0929700814886019,2374.798468930763,None,2375.944100578461,None,2375.944100578461,None,2376.4638412017084,None,2376.4638412017084,None,2376.4638412017084,None,r,1.2993584001960699,2376.4638412017084,None,sing9,001,2019_Oct_26_1502,ProdFawcett_Revision2019,3.2.4,59.99932824338381,
,,,,100,0,100,0,,,,,,,,,,,,,2380.5621524538146,None,,,,,,,,,,,,,,,,,,,,,,course,B_aloud,100,74,2378.3292675872217,None,2378.3292675872217,None,2378.3292675872217,None,4,1.5298538284550887,2378.3292675872217,None,2379.9018355414446,None,2379.9018355414446,None,2380.428895627294,None,2380.428895627294,None,2380.428895627294,None,f,0.08610219566617161,2380.428895627294,None,sing9,001,2019_Oct_26_1502,ProdFawcett_Revision2019,3.2.4,59.99932824338381,
,,,,101,0,101,0,,,,,,,,,,,,,2382.74616377434,None,,,,,,,,,,,,,,,,,,,,,,article,D_new,101,11,2381.080303539202,None,2381.080303539202,None,2381.080303539202,None,4,0.9306671020749491,2381.080303539202,None,2382.062683958444,None,2382.062683958444,None,2382.5795471791935,None,2382.5795471791935,None,2382.5795471791935,None,f,0.11930895067052916,2382.5795471791935,None,sing9,001,2019_Oct_26_1502,ProdFawcett_Revision2019,3.2.4,59.99932824338381,
,,,,102,0,102,0,,,,,,,,,,,,,2386.764078808221,None,,,,,,,,,,,,,,,,,,,,,,broad,B_aloud,102,31,2383.2680294830934,None,2383.2680294830934,None,2383.2680294830934,None,4,1.4307656901073642,2383.2680294830934,None,2384.7635196243064,None,2384.7635196243064,None,2385.2804668159515,None,2385.2804668159515,None,2385.2804668159515,None,r,1.442667786293896,2385.2804668159515,None,sing9,001,2019_Oct_26_1502,ProdFawcett_Revision2019,3.2.4,59.99932824338381,
,,,,103,0,103,0,,,,,,,,,,,,,2394.0164757106395,None,,,,,,,,,,,,,,,,,,,,,,testimony,D_new,103,325,2387.2809659762424,None,2387.2809659762424,None,2387.2809659762424,None,1,6.0335130932217,2387.2809659762424,None,2393.366119611863,None,2393.366119611863,None,2393.8829921627184,None,2393.8829921627184,None,2393.8829921627184,None,f,0.08719848230248317,2393.8829921627184,None,sing9,001,2019_Oct_26_1502,ProdFawcett_Revision2019,3.2.4,59.99932824338381,
,,,,104,0,104,0,,,,,,,,,,,,,2397.267346830864,None,,,,,,,,,,,,,,,,,,,,,,surprise,C_sing,104,317,2394.534316725767,None,2394.534316725767,None,2394.534316725767,None,1,1.5404531318054069,2394.534316725767,None,2396.1337183554133,None,2396.1337183554133,None,2396.6505859302124,None,2396.6505859302124,None,2396.6505859302124,None,r,0.5836841450654902,2396.6505859302124,None,sing9,001,2019_Oct_26_1502,ProdFawcett_Revision2019,3.2.4,59.99932824338381,
,,,,105,0,105,0,,,,,,,,,,,,,2402.135634135717,None,,,,,,,,,,,,,,,,,,,,,,sight,B_aloud,105,286,2397.7851228463114,None,2397.7851228463114,None,2397.7851228463114,None,6,3.304660384397721,2397.7851228463114,None,2401.1409992535773,None,2401.1409992535773,None,2401.6688048143405,None,2401.6688048143405,None,2401.6688048143405,None,r,0.4289830191992223,2401.6688048143405,None,sing9,001,2019_Oct_26_1502,ProdFawcett_Revision2019,3.2.4,59.99932824338381,
,,,,106,0,106,0,,,,,,,,,,,,,2406.6036996952025,None,,,,,,,,,,,,,,,,,,,,,,business,C_sing,106,38,2402.6538247185235,None,2402.6538247185235,None,2402.6538247185235,None,6,2.972110157366842,2402.6538247185235,None,2405.676228152006,None,2405.676228152006,None,2406.2036723269266,None,2406.2036723269266,None,2406.2036723269266,None,r,0.3584583566407673,2406.2036723269266,None,sing9,001,2019_Oct_26_1502,ProdFawcett_Revision2019,3.2.4,59.99932824338381,
,,,,107,0,107,0,,,,,,,,,,,,,2452.6678338620404,None,,,,,,,,,,,,,,,,,,,,,,suspect,D_new,107,318,2407.1212325060624,None,2407.1212325060624,None,2407.1212325060624,None,4,44.13369534118101,2407.1212325060624,None,2451.3041515829973,None,2451.3041515829973,None,2451.834255769092,None,2451.834255769092,None,2451.834255769092,None,f,0.7885793369205203,2451.834255769092,None,sing9,001,2019_Oct_26_1502,ProdFawcett_Revision2019,3.2.4,59.99932824338381,
,,,,108,0,108,0,,,,,,,,,,,,,2455.3854319835664,None,,,,,,,,,,,,,,,,,,,,,,rough,D_new,108,266,2453.1845540212817,None,2453.1845540212817,None,2453.1845540212817,None,6,1.1983230702171568,2453.1845540212817,None,2454.423352926533,None,2454.423352926533,None,2454.9518339864444,None,2454.9518339864444,None,2454.9518339864444,None,r,0.3915108540095389,2454.9518339864444,None,sing9,001,2019_Oct_26_1502,ProdFawcett_Revision2019,3.2.4,59.99932824338381,
,,,,109,0,109,0,,,,,,,,,,,,,2458.1362104248255,None,,,,,,,,,,,,,,,,,,,,,,prime,D_new,109,235,2455.9023710891197,None,2455.9023710891197,None,2455.9023710891197,None,4,1.5444429930939805,2455.9023710891197,None,2457.502658145182,None,2457.502658145182,None,2458.0196137338935,None,2458.0196137338935,None,2458.0196137338935,None,f,0.08324407538748346,2458.0196137338935,None,sing9,001,2019_Oct_26_1502,ProdFawcett_Revision2019,3.2.4,59.99932824338381,
,,,,110,0,110,0,,,,,,,,,,,,,2459.953516825277,None,,,,,,,,,,,,,,,,,,,,,,trail,B_aloud,110,336,2458.653296012926,None,2458.653296012926,None,2458.653296012926,None,4,0.5851368414587341,2458.653296012926,None,2459.303247185424,None,2459.303247185424,None,2459.8201769608713,None,2459.8201769608713,None,2459.8201769608713,None,f,0.09084064190392382,2459.8201769608713,None,sing9,001,2019_Oct_26_1502,ProdFawcett_Revision2019,3.2.4,59.99932824338381,
,,,,111,0,111,0,,,,,,,,,,,,,2461.9875150836597,None,,,,,,,,,,,,,,,,,,,,,,management,D_new,111,177,2460.4734711077763,None,2460.4734711077763,None,2460.4734711077763,None,6,0.7731510853918735,2460.4734711077763,None,2461.289240840939,None,2461.289240840939,None,2461.804674068553,None,2461.804674068553,None,2461.804674068553,None,r,0.13782359892502427,2461.804674068553,None,sing9,001,2019_Oct_26_1502,ProdFawcett_Revision2019,3.2.4,59.99932824338381,
,,,,112,0,112,0,,,,,,,,,,,,,2464.288125583116,None,,,,,,,,,,,,,,,,,,,,,,nature,D_new,112,200,2462.505120047281,None,2462.505120047281,None,2462.505120047281,None,4,1.157667164254235,2462.505120047281,None,2463.721343534242,None,2463.721343534242,None,2464.2382135970693,None,2464.2382135970693,None,2464.2382135970693,None,f,0.016319275979185477,2464.2382135970693,None,sing9,001,2019_Oct_26_1502,ProdFawcett_Revision2019,3.2.4,59.99932824338381,
,,,,113,0,113,0,,,,,,,,,,,,,2467.8558680101996,None,,,,,,,,,,,,,,,,,,,,,,member,C_sing,113,188,2464.807223362557,None,2464.807223362557,None,2464.807223362557,None,4,2.2948015798756387,2464.807223362557,None,2467.1557694221556,None,2467.1557694221556,None,2467.672461591079,None,2467.672461591079,None,2467.672461591079,None,f,0.1498771537153516,2467.672461591079,None,sing9,001,2019_Oct_26_1502,ProdFawcett_Revision2019,3.2.4,59.99932824338381,
,,,,114,0,114,0,,,,,,,,,,,,,2469.6398808857193,None,,,,,,,,,,,,,,,,,,,,,,dance,B_aloud,114,84,2468.3727442930976,None,2468.3727442930976,None,2468.3727442930976,None,4,0.5852033961564302,2468.3727442930976,None,2469.0228910866426,None,2469.0228910866426,None,2469.539846675383,None,2469.539846675383,None,2469.539846675383,None,f,0.05864931267569773,2469.539846675383,None,sing9,001,2019_Oct_26_1502,ProdFawcett_Revision2019,3.2.4,59.99932824338381,
,,,,115,0,115,0,,,,,,,,,,,,,2472.707349629898,None,,,,,,,,,,,,,,,,,,,,,,general,D_new,115,135,2470.1571627169324,None,2470.1571627169324,None,2470.1571627169324,None,6,0.7046650494448841,2470.1571627169324,None,2470.9235976861382,None,2470.9235976861382,None,2471.4404055482883,None,2471.4404055482883,None,2471.4404055482883,None,r,1.2212340610858519,2471.4404055482883,None,sing9,001,2019_Oct_26_1502,ProdFawcett_Revision2019,3.2.4,59.99932824338381,
,,,,116,0,116,0,,,,,,,,,,,,,2478.6258835603658,None,,,,,,,,,,,,,,,,,,,,,,harmony,D_new,116,148,2473.224270386272,None,2473.224270386272,None,2473.224270386272,None,4,4.717489892384037,2473.224270386272,None,2477.9924460409093,None,2477.9924460409093,None,2478.5092955775326,None,2478.5092955775326,None,2478.5092955775326,None,f,0.07232568264589645,2478.5092955775326,None,sing9,001,2019_Oct_26_1502,ProdFawcett_Revision2019,3.2.4,59.99932824338381,
,,,,117,0,117,0,,,,,,,,,,,,,2481.610228276404,None,,,,,,,,,,,,,,,,,,,,,,force,D_new,117,131,2479.143326491263,None,2479.143326491263,None,2479.143326491263,None,6,1.7584866579563823,2479.143326491263,None,2480.9599266032164,None,2480.9599266032164,None,2481.4767525035713,None,2481.4767525035713,None,2481.4767525035713,None,r,0.08854730360326357,2481.4767525035713,None,sing9,001,2019_Oct_26_1502,ProdFawcett_Revision2019,3.2.4,59.99932824338381,
,,,,118,0,118,0,,,,,,,,,,,,,2486.795171673817,None,,,,,,,,,,,,,,,,,,,,,,religion,D_new,118,258,2482.1280792436446,None,2482.1280792436446,None,2482.1280792436446,None,6,3.9969089382211678,2482.1280792436446,None,2486.178219817113,None,2486.178219817113,None,2486.6951607886876,None,2486.6951607886876,None,2486.6951607886876,None,r,0.061726379295578226,2486.6951607886876,None,sing9,001,2019_Oct_26_1502,ProdFawcett_Revision2019,3.2.4,59.99932824338381,
,,,,119,0,119,0,,,,,,,,,,,,,2488.8291503389773,None,,,,,,,,,,,,,,,,,,,,,,season,D_new,119,277,2487.3120510667504,None,2487.3120510667504,None,2487.3120510667504,None,6,0.7968293213634752,2487.3120510667504,None,2488.162148721778,None,2488.162148721778,None,2488.679150338983,None,2488.679150338983,None,2488.679150338983,None,f,0.10990389998187311,2488.679150338983,None,sing9,001,2019_Oct_26_1502,ProdFawcett_Revision2019,3.2.4,59.99932824338381,
,,,,120,0,120,0,,,,,,,,,,,,,2490.579680910625,None,,,,,,,,,,,,,,,,,,,,,,revolution,D_new,120,264,2489.348033215152,None,2489.348033215152,None,2489.348033215152,None,6,0.49682123531238176,2489.348033215152,None,2489.8961528892105,None,2489.8961528892105,None,2490.4130238850485,None,2490.4130238850485,None,2490.4130238850485,None,f,0.11961280088871717,2490.4130238850485,None,sing9,001,2019_Oct_26_1502,ProdFawcett_Revision2019,3.2.4,59.99932824338381,
,,,,121,0,121,0,,,,,,,,,,,,,2492.2967590346525,None,,,,,,,,,,,,,,,,,,,,,,raise,D_new,121,250,2491.0963034148153,None,2491.0963034148153,None,2491.0963034148153,None,6,0.5567913790000603,2491.0963034148153,None,2491.7133268022735,None,2491.7133268022735,None,2492.2302142812696,None,2492.2302142812696,None,2492.2302142812696,None,f,0.03039746219292283,2492.2302142812696,None,sing9,001,2019_Oct_26_1502,ProdFawcett_Revision2019,3.2.4,59.99932824338381,
,,,,122,0,122,0,,,,,,,,,,,,,2494.097288673249,None,,,,,,,,,,,,,,,,,,,,,,express,D_new,122,124,2492.813540150528,None,2492.813540150528,None,2492.813540150528,None,1,0.5833473284728825,2492.813540150528,None,2493.44718635318,None,2493.44718635318,None,2493.9640125645383,None,2493.9640125645383,None,2493.9640125645383,None,f,0.08882689557503909,2493.9640125645383,None,sing9,001,2019_Oct_26_1502,ProdFawcett_Revision2019,3.2.4,59.99932824338381,
,,,,123,0,123,0,,,,,,,,,,,,,2495.981368103501,None,,,,,,,,,,,,,,,,,,,,,,spoke,B_aloud,123,300,2494.614175530267,None,2494.614175530267,None,2494.614175530267,None,4,0.5104693039611448,2494.614175530267,None,2495.1811053057027,None,2495.1811053057027,None,2495.69794022516,None,2495.69794022516,None,2495.69794022516,None,f,0.24268022639444098,2495.69794022516,None,sing9,001,2019_Oct_26_1502,ProdFawcett_Revision2019,3.2.4,59.99932824338381,
,,,,124,0,124,0,,,,,,,,,,,,,2498.5821872861707,None,,,,,,,,,,,,,,,,,,,,,,guest,D_new,124,146,2496.49816539156,None,2496.49816539156,None,2496.49816539156,None,6,1.3540215836255811,2496.49816539156,None,2497.915286123025,None,2497.915286123025,None,2498.4321257075353,None,2498.4321257075353,None,2498.4321257075353,None,r,0.116567145625595,2498.4321257075353,None,sing9,001,2019_Oct_26_1502,ProdFawcett_Revision2019,3.2.4,59.99932824338381,
,,,,125,0,125,0,,,,,,,,,,,,,2500.3493192137685,None,,,,,,,,,,,,,,,,,,,,,,stand,B_aloud,125,302,2499.099236486916,None,2499.099236486916,None,2499.099236486916,None,6,0.48959009765530936,2499.099236486916,None,2499.649047085899,None,2499.649047085899,None,2500.1658922684437,None,2500.1658922684437,None,2500.1658922684437,None,r,0.14236020401585847,2500.1658922684437,None,sing9,001,2019_Oct_26_1502,ProdFawcett_Revision2019,3.2.4,59.99932824338381,
,,,,126,0,126,0,,,,,,,,,,,,,2502.316516141058,None,,,,,,,,,,,,,,,,,,,,,,reading,B_aloud,126,254,2500.8671272625506,None,2500.8671272625506,None,2500.8671272625506,None,6,0.6574684331717435,2500.8671272625506,None,2501.58304130123,None,2501.58304130123,None,2502.0999903588963,None,2502.0999903588963,None,2502.0999903588963,None,r,0.17611619082163088,2502.0999903588963,None,sing9,001,2019_Oct_26_1502,ProdFawcett_Revision2019,3.2.4,59.99932824338381,
,,,,127,0,127,0,,,,,,,,,,,,,2504.6005464327754,None,,,,,,,,,,,,,,,,,,,,,,trash,B_aloud,127,337,2502.8333311563183,None,2502.8333311563183,None,2502.8333311563183,None,6,1.1465973129088525,2502.8333311563183,None,2504.0337640728976,None,2504.0337640728976,None,2504.5506907383096,None,2504.5506907383096,None,2504.5506907383096,None,r,0.013234745274530724,2504.5506907383096,None,sing9,001,2019_Oct_26_1502,ProdFawcett_Revision2019,3.2.4,59.99932824338381,
,,,,128,0,128,0,,,,,,,,,,,,,2506.5178270199685,None,,,,,,,,,,,,,,,,,,,,,,institute,C_sing,128,162,2505.1177632642793,None,2505.1177632642793,None,2505.1177632642793,None,6,0.6699412203743123,2505.1177632642793,None,2505.839745599311,None,2505.839745599311,None,2506.367677116359,None,2506.367677116359,None,2506.367677116359,None,r,0.11642843813751824,2506.367677116359,None,sing9,001,2019_Oct_26_1502,ProdFawcett_Revision2019,3.2.4,59.99932824338381,
,,,,129,0,129,0,,,,,,,,,,,,,2509.235588729236,None,,,,,,,,,,,,,,,,,,,,,,mankind,C_sing,129,178,2507.034661939426,None,2507.034661939426,None,2507.034661939426,None,6,0.8009740623238031,2507.034661939426,None,2507.8747452882817,None,2507.8747452882817,None,2508.401893077069,None,2508.401893077069,None,2508.401893077069,None,r,0.7856484418734908,2508.401893077069,None,sing9,001,2019_Oct_26_1502,ProdFawcett_Revision2019,3.2.4,59.99932824338381,
,,,,130,0,130,0,,,,,,,,,,,,,2511.436047770112,None,,,,,,,,,,,,,,,,,,,,,,appeal,A_silent,130,9,2509.7530559183797,None,2509.7530559183797,None,2509.7530559183797,None,4,1.05040306027513,2509.7530559183797,None,2510.8426727623155,None,2510.8426727623155,None,2511.3694504571613,None,2511.3694504571613,None,2511.3694504571613,None,f,0.017965727427508682,2511.3694504571613,None,sing9,001,2019_Oct_26_1502,ProdFawcett_Revision2019,3.2.4,59.99932824338381,
,,,,131,0,131,0,,,,,,,,,,,,,2513.186570877646,None,,,,,,,,,,,,,,,,,,,,,,opening,D_new,131,205,2511.952810536779,None,2511.952810536779,None,2511.952810536779,None,4,0.5547039248631336,2511.952810536779,None,2512.557853455248,None,2512.557853455248,None,2513.0866190831584,None,2513.0866190831584,None,2513.0866190831584,None,f,0.05269702058285475,2513.0866190831584,None,sing9,001,2019_Oct_26_1502,ProdFawcett_Revision2019,3.2.4,59.99932824338381,
,,,,132,0,132,0,,,,,,,,,,,,,2514.8705402127234,None,,,,,,,,,,,,,,,,,,,,,,republic,D_new,132,260,2513.7040725881525,None,2513.7040725881525,None,2513.7040725881525,None,4,0.4434847919328604,2513.7040725881525,None,2514.2036458916555,None,2514.2036458916555,None,2514.720483299112,None,2514.720483299112,None,2514.720483299112,None,f,0.10733687877655029,2514.720483299112,None,sing9,001,2019_Oct_26_1502,ProdFawcett_Revision2019,3.2.4,59.99932824338381,
,,,,133,0,133,0,,,,,,,,,,,,,2516.4043363189558,None,,,,,,,,,,,,,,,,,,,,,,payment,D_new,133,215,2515.3881181190372,None,2515.3881181190372,None,2515.3881181190372,None,4,0.3273213286011014,2515.3881181190372,None,2515.770900976553,None,2515.770900976553,None,2516.2875971885223,None,2516.2875971885223,None,2516.2875971885223,None,f,0.06750606454443187,2516.2875971885223,None,sing9,001,2019_Oct_26_1502,ProdFawcett_Revision2019,3.2.4,59.99932824338381,
,,,,134,0,134,0,,,,,,,,,,,,,2518.438405175082,None,,,,,,,,,,,,,,,,,,,,,,exchange,D_new,134,121,2516.9230664925126,None,2516.9230664925126,None,2516.9230664925126,None,4,0.8566884368774481,2516.9230664925126,None,2517.8380540523794,None,2517.8380540523794,None,2518.3549614355725,None,2518.3549614355725,None,2518.3549614355725,None,f,0.04822012814111076,2518.3549614355725,None,sing9,001,2019_Oct_26_1502,ProdFawcett_Revision2019,3.2.4,59.99932824338381,
,,,,135,0,135,0,,,,,,,,,,,,,2520.2388763450726,None,,,,,,,,,,,,,,,,,,,,,,agency,D_new,135,4,2518.95619611867,None,2518.95619611867,None,2518.95619611867,None,4,0.5667509485501796,2518.95619611867,None,2519.5765438203525,None,2519.5765438203525,None,2520.1053498786932,None,2520.1053498786932,None,2520.1053498786932,None,f,0.0977386950107757,2520.1053498786932,None,sing9,001,2019_Oct_26_1502,ProdFawcett_Revision2019,3.2.4,59.99932824338381,
,,,,136,0,136,0,,,,,,,,,,,,,2521.9115021459293,None,,,,,,,,,,,,,,,,,,,,,,recall,D_new,136,255,2520.756166573352,None,2520.756166573352,None,2520.756166573352,None,4,0.5347033028374426,2520.756166573352,None,2521.344588542648,None,2521.344588542648,None,2521.8726774273673,None,2521.8726774273673,None,2521.8726774273673,None,f,0.0021468557824846357,2521.8726774273673,None,sing9,001,2019_Oct_26_1502,ProdFawcett_Revision2019,3.2.4,59.99932824338381,
,,,,137,0,137,0,,,,,,,,,,,,,2523.75678764694,None,,,,,,,,,,,,,,,,,,,,,,heavy,D_new,137,151,2522.439593207673,None,2522.439593207673,None,2522.439593207673,None,4,0.5951527026190888,2522.439593207673,None,2523.089667226479,None,2523.089667226479,None,2523.6065077439707,None,2523.6065077439707,None,2523.6065077439707,None,f,0.1088551968568936,2523.6065077439707,None,sing9,001,2019_Oct_26_1502,ProdFawcett_Revision2019,3.2.4,59.99932824338381,
,,,,138,0,138,0,,,,,,,,,,,,,2525.540361074818,None,,,,,,,,,,,,,,,,,,,,,,bitter,A_silent,138,23,2524.2738946942845,None,2524.2738946942845,None,2524.2738946942845,None,4,0.625122224300867,2524.2738946942845,None,2524.945837531879,None,2524.945837531879,None,2525.473685700068,None,2525.473685700068,None,2525.473685700068,None,f,0.033272998698521405,2525.473685700068,None,sing9,001,2019_Oct_26_1502,ProdFawcett_Revision2019,3.2.4,59.99932824338381,
,,,,139,0,139,0,,,,,,,,,,,,,2528.3579327610787,None,,,,,,,,,,,,,,,,,,,,,,principal,A_silent,139,236,2526.0591904584144,None,2526.0591904584144,None,2526.0591904584144,None,6,0.8953029171971139,2526.0591904584144,None,2527.0074902033957,None,2527.0074902033957,None,2527.524345649057,None,2527.524345649057,None,2527.524345649057,None,r,0.7907330347807147,2527.524345649057,None,sing9,001,2019_Oct_26_1502,ProdFawcett_Revision2019,3.2.4,59.99932824338381,
,,,,140,0,140,0,,,,,,,,,,,,,2530.875355787779,None,,,,,,,,,,,,,,,,,,,,,,machinery,D_new,140,175,2528.877096784214,None,2528.877096784214,None,2528.877096784214,None,6,1.109359022200806,2528.877096784214,None,2530.0418175032537,None,2530.0418175032537,None,2530.5586760589504,None,2530.5586760589504,None,2530.5586760589504,None,r,0.28371866641100496,2530.5586760589504,None,sing9,001,2019_Oct_26_1502,ProdFawcett_Revision2019,3.2.4,59.99932824338381,
,,,,141,0,141,0,,,,,,,,,,,,,2534.2764262611163,None,,,,,,,,,,,,,,,,,,,,,,crime,D_new,141,78,2531.3921866641613,None,2531.3921866641613,None,2531.3921866641613,None,1,1.498167568584904,2531.3921866641613,None,2532.9428226659074,None,2532.9428226659074,None,2533.4594890215667,None,2533.4594890215667,None,2533.4594890215667,None,f,0.7751993531128392,2533.4594890215667,None,sing9,001,2019_Oct_26_1502,ProdFawcett_Revision2019,3.2.4,59.99932824338381,
,,,,142,0,142,0,,,,,,,,,,,,,2537.94434564907,None,,,,,,,,,,,,,,,,,,,,,,finance,D_new,142,129,2534.7941413199005,None,2534.7941413199005,None,2534.7941413199005,None,4,2.4404382036591414,2534.7941413199005,None,2537.2941923244216,None,2537.2941923244216,None,2537.8108583691064,None,2537.8108583691064,None,2537.8108583691064,None,f,0.0870153013675008,2537.8108583691064,None,sing9,001,2019_Oct_26_1502,ProdFawcett_Revision2019,3.2.4,59.99932824338381,
,,,,143,0,143,0,,,,,,,,,,,,,2540.811775828828,None,,,,,,,,,,,,,,,,,,,,,,hearing,C_sing,143,150,2538.462024942448,None,2538.462024942448,None,2538.462024942448,None,4,1.6357202836370561,2538.462024942448,None,2540.1512601853465,None,2540.1512601853465,None,2540.6785143372545,None,2540.6785143372545,None,2540.6785143372545,None,f,0.09181594825349748,2540.6785143372545,None,sing9,001,2019_Oct_26_1502,ProdFawcett_Revision2019,3.2.4,59.99932824338381,
,,,,144,0,144,0,,,,,,,,,,,,,2542.962440442876,None,,,,,,,,,,,,,,,,,,,,,,solution,D_new,144,294,2541.3290645020898,None,2541.3290645020898,None,2541.3290645020898,None,4,0.9686132362985518,2541.3290645020898,None,2542.349842632335,None,2542.349842632335,None,2542.879079119244,None,2542.879079119244,None,2542.879079119244,None,f,0.050609255442395806,2542.879079119244,None,sing9,001,2019_Oct_26_1502,ProdFawcett_Revision2019,3.2.4,59.99932824338381,
,,,,145,0,145,0,,,,,,,,,,,,,2544.7297617714794,None,,,,,,,,,,,,,,,,,,,,,,nation,D_new,145,198,2543.4795232319448,None,2543.4795232319448,None,2543.4795232319448,None,4,0.5065798967552837,2543.4795232319448,None,2544.046143559128,None,2544.046143559128,None,2544.5629675934615,None,2544.5629675934615,None,2544.5629675934615,None,f,0.1185843129933346,2544.5629675934615,None,sing9,001,2019_Oct_26_1502,ProdFawcett_Revision2019,3.2.4,59.99932824338381,
,,,,146,0,146,0,,,,,,,,,,,,,2546.2968268333643,None,,,,,,,,,,,,,,,,,,,,,,corner,A_silent,146,69,2545.247163960943,None,2545.247163960943,None,2545.247163960943,None,4,0.23425732413306832,2545.247163960943,None,2545.530049138528,None,2545.530049138528,None,2546.0468831249455,None,2546.0468831249455,None,2546.0468831249455,None,f,0.20249300243449397,2546.0468831249455,None,sing9,001,2019_Oct_26_1502,ProdFawcett_Revision2019,3.2.4,59.99932824338381,
,,,,147,0,147,0,,,,,,,,,,,,,2547.7473801082233,None,,,,,,,,,,,,,,,,,,,,,,height,C_sing,147,152,2546.8136306524684,None,2546.8136306524684,None,2546.8136306524684,None,4,0.3161068607296329,2546.8136306524684,None,2547.1706120544695,None,2547.1706120544695,None,2547.6973592709983,None,2547.6973592709983,None,2547.6973592709983,None,f,0.01631181189441122,2547.6973592709983,None,sing9,001,2019_Oct_26_1502,ProdFawcett_Revision2019,3.2.4,59.99932824338381,
,,,,148,0,148,0,,,,,,,,,,,,,2549.281250233238,None,,,,,,,,,,,,,,,,,,,,,,author,D_new,148,15,2548.2650513155386,None,2548.2650513155386,None,2548.2650513155386,None,4,0.3521804441115819,2548.2650513155386,None,2548.6810098277056,None,2548.6810098277056,None,2549.197834173043,None,2549.197834173043,None,2549.197834173043,None,f,0.035374447994399816,2549.197834173043,None,sing9,001,2019_Oct_26_1502,ProdFawcett_Revision2019,3.2.4,59.99932824338381,
,,,,149,0,149,0,,,,,,,,,,,,,2550.7149045219703,None,,,,,,,,,,,,,,,,,,,,,,direction,D_new,149,94,2549.80011787024,None,2549.80011787024,None,2549.80011787024,None,4,0.28991540710558183,2549.80011787024,None,2550.1481548174343,None,2550.1481548174343,None,2550.6650799278286,None,2550.6650799278286,None,2550.6650799278286,None,f,0.01641133296652697,2550.6650799278286,None,sing9,001,2019_Oct_26_1502,ProdFawcett_Revision2019,3.2.4,59.99932824338381,
,,,,150,0,150,0,,,,,,,,,,,,,2552.365487031144,None,,,,,,,,,,,,,,,,,,,,,,report,D_new,150,259,2551.23182403433,None,2551.23182403433,None,2551.23182403433,None,4,0.4974289357487578,2551.23182403433,None,2551.781982335,None,2551.781982335,None,2552.298657398758,None,2552.298657398758,None,2552.298657398758,None,f,0.023057473415974528,2552.298657398758,None,sing9,001,2019_Oct_26_1502,ProdFawcett_Revision2019,3.2.4,59.99932824338381,
,,,,151,0,151,0,,,,,,,,,,,,,2557.000234185485,None,,,,,,,,,,,,,,,,,,,,,,bureau,A_silent,151,37,2552.883033526159,None,2552.883033526159,None,2552.883033526159,None,6,2.694125147740124,2552.883033526159,None,2555.633142377308,None,2555.633142377308,None,2556.1500304783112,None,2556.1500304783112,None,2556.1500304783112,None,r,0.802722211839864,2556.1500304783112,None,sing9,001,2019_Oct_26_1502,ProdFawcett_Revision2019,3.2.4,59.99932824338381,
,,,,152,0,152,0,,,,,,,,,,,,,2562.6686589537712,None,,,,,,,,,,,,,,,,,,,,,,literature,D_new,152,173,2557.5186427816225,None,2557.5186427816225,None,2557.5186427816225,None,4,3.146023511828389,2557.5186427816225,None,2560.7179713255027,None,2560.7179713255027,None,2561.234755862417,None,2561.234755862417,None,2561.234755862417,None,f,1.3902348074770998,2561.234755862417,None,sing9,001,2019_Oct_26_1502,ProdFawcett_Revision2019,3.2.4,59.99932824338381,
