StudyTrials.thisRepN,StudyTrials.thisTrialN,StudyTrials.thisN,StudyTrials.thisIndex,TestTrials.thisRepN,TestTrials.thisTrialN,TestTrials.thisN,TestTrials.thisIndex,textWelcome.started,textWelcome.stopped,keyWelcome.keys,keyWelcome.rt,keyWelcome.started,keyWelcome.stopped,textReady.started,textReady.stopped,keyReady.keys,keyReady.rt,keyReady.started,keyReady.stopped,polyback_2.started,polyback_2.stopped,studyPic,studyWord,studyType,studyN,studyOrder,polyback_3.started,polyback_3.stopped,studyPicChoice.started,studyPicChoice.stopped,polyback_4.started,polyback_4.stopped,polyback.started,polyback.stopped,studyWords.started,studyWords.stopped,getResearcher.started,getResearcher.stopped,kPress2.keys,kPress2.rt,kPress2.started,kPress2.stopped,testWord,testType,testN,testOrder,polyback_5.started,polyback_5.stopped,testWords.started,testWords.stopped,textScale.started,textScale.stopped,keyConf.keys,keyConf.rt,keyConf.started,keyConf.stopped,polyback_6.started,polyback_6.stopped,studyWords_2.started,studyWords_2.stopped,polyback_7.started,polyback_7.stopped,testWords_2.started,testWords_2.stopped,textScale_2.started,textScale_2.stopped,keyRKN.keys,keyRKN.rt,keyRKN.started,keyRKN.stopped,participant,session,date,expName,psychopyVersion,frameRate,
,,,,,,,,13.522948933255975,None,space,569.712470921193,13.522948933255975,None,,,,,,,,,,,,,,,,,,,,,,,,,,,,,,,,,,,,,,,,,,,,,,,,,,,,,,,,,,sing6,001,2019_Oct_24_1416,ProdFawcett_Revision2019,3.2.4,59.97907056465202,
,,,,,,,,,,,,,,583.2652478696255,None,space,10.153441562477383,583.2652478696255,None,,,,,,,,,,,,,,,,,,,,,,,,,,,,,,,,,,,,,,,,,,,,,,,,,,,,sing6,001,2019_Oct_24_1416,ProdFawcett_Revision2019,3.2.4,59.97907056465202,
0,0,0,0,,,,,,,,,,,,,,,,,598.2198774647113,None,materials/speakPic.jpg,country,B_aloud,0,73,594.5713578403956,None,594.5713578403956,None,595.4709404739697,None,595.7356876282865,None,595.7356876282865,None,,,,,,,,,,,,,,,,,,,,,,,,,,,,,,,,,,,sing6,001,2019_Oct_24_1416,ProdFawcett_Revision2019,3.2.4,59.97907056465202,
1,0,1,0,,,,,,,,,,,,,,,,,602.4878475461883,None,materials/readPic.jpg,appeal,A_silent,1,9,598.821361572438,None,598.821361572438,None,599.7373110655026,None,600.003661752824,None,600.003661752824,None,,,,,,,,,,,,,,,,,,,,,,,,,,,,,,,,,,,sing6,001,2019_Oct_24_1416,ProdFawcett_Revision2019,3.2.4,59.97907056465202,
2,0,2,0,,,,,,,,,,,,,,,,,606.7559942775406,None,materials/speakPic.jpg,close,B_aloud,2,53,603.0894128257787,None,603.0894128257787,None,604.0053859550972,None,604.27164271941,None,604.27164271941,None,,,,,,,,,,,,,,,,,,,,,,,,,,,,,,,,,,,sing6,001,2019_Oct_24_1416,ProdFawcett_Revision2019,3.2.4,59.97907056465202,
3,0,3,0,,,,,,,,,,,,,,,,,611.0238315606111,None,materials/readPic.jpg,season,A_silent,3,277,607.3572855632228,None,607.3572855632228,None,608.2731989799067,None,608.5396215089859,None,608.5396215089859,None,,,,,,,,,,,,,,,,,,,,,,,,,,,,,,,,,,,sing6,001,2019_Oct_24_1416,ProdFawcett_Revision2019,3.2.4,59.97907056465202,
4,0,4,0,,,,,,,,,,,,,,,,,615.2918492255994,None,materials/speakPic.jpg,grade,B_aloud,4,140,611.6150880139321,None,611.6150880139321,None,612.5411811905215,None,612.8076133607101,None,612.8076133607101,None,,,,,,,,,,,,,,,,,,,,,,,,,,,,,,,,,,,sing6,001,2019_Oct_24_1416,ProdFawcett_Revision2019,3.2.4,59.97907056465202,
5,0,5,0,,,,,,,,,,,,,,,,,619.5598305032036,None,materials/readPic.jpg,style,A_silent,5,311,615.8993350749515,None,615.8993350749515,None,616.8091792623018,None,617.0756238726171,None,617.0756238726171,None,,,,,,,,,,,,,,,,,,,,,,,,,,,,,,,,,,,sing6,001,2019_Oct_24_1416,ProdFawcett_Revision2019,3.2.4,59.97907056465202,
6,0,6,0,,,,,,,,,,,,,,,,,623.8279710144998,None,materials/singPic.jpg,colonel,C_sing,6,55,620.1798109100055,None,620.1798109100055,None,621.0772227405687,None,621.343602662193,None,621.343602662193,None,,,,,,,,,,,,,,,,,,,,,,,,,,,,,,,,,,,sing6,001,2019_Oct_24_1416,ProdFawcett_Revision2019,3.2.4,59.97907056465202,
7,0,7,0,,,,,,,,,,,,,,,,,628.0957943024259,None,materials/singPic.jpg,charter,C_sing,7,47,624.4121944392682,None,624.4121944392682,None,625.3453532997519,None,625.6115945139027,None,625.6115945139027,None,,,,,,,,,,,,,,,,,,,,,,,,,,,,,,,,,,,sing6,001,2019_Oct_24_1416,ProdFawcett_Revision2019,3.2.4,59.97907056465202,
8,0,8,0,,,,,,,,,,,,,,,,,632.363780556072,None,materials/singPic.jpg,discovery,C_sing,8,95,628.6860067176749,None,628.6860067176749,None,629.6131439323217,None,629.8794212228677,None,629.8794212228677,None,,,,,,,,,,,,,,,,,,,,,,,,,,,,,,,,,,,sing6,001,2019_Oct_24_1416,ProdFawcett_Revision2019,3.2.4,59.97907056465202,
9,0,9,0,,,,,,,,,,,,,,,,,636.6317717857892,None,materials/speakPic.jpg,discussion,B_aloud,9,96,632.9883171611582,None,632.9883171611582,None,633.8811488461797,None,634.1475645331811,None,634.1475645331811,None,,,,,,,,,,,,,,,,,,,,,,,,,,,,,,,,,,,sing6,001,2019_Oct_24_1416,ProdFawcett_Revision2019,3.2.4,59.97907056465202,
10,0,10,0,,,,,,,,,,,,,,,,,640.8997431112803,None,materials/readPic.jpg,command,A_silent,10,60,637.2331324252009,None,637.2331324252009,None,638.1491434969212,None,638.4155492318241,None,638.4155492318241,None,,,,,,,,,,,,,,,,,,,,,,,,,,,,,,,,,,,sing6,001,2019_Oct_24_1416,ProdFawcett_Revision2019,3.2.4,59.97907056465202,
11,0,11,0,,,,,,,,,,,,,,,,,645.1677411830606,None,materials/readPic.jpg,agreement,A_silent,11,5,641.4831974248955,None,641.4831974248955,None,642.4171400136838,None,642.6835606767418,None,642.6835606767418,None,,,,,,,,,,,,,,,,,,,,,,,,,,,,,,,,,,,sing6,001,2019_Oct_24_1416,ProdFawcett_Revision2019,3.2.4,59.97907056465202,
12,0,12,0,,,,,,,,,,,,,,,,,649.4357330347702,None,materials/readPic.jpg,passage,A_silent,12,212,645.7513270510681,None,645.7513270510681,None,646.685329974498,None,646.9515102320147,None,646.9515102320147,None,,,,,,,,,,,,,,,,,,,,,,,,,,,,,,,,,,,sing6,001,2019_Oct_24_1416,ProdFawcett_Revision2019,3.2.4,59.97907056465202,
13,0,13,0,,,,,,,,,,,,,,,,,653.7038962493098,None,materials/singPic.jpg,broad,C_sing,13,31,650.0889696460799,None,650.0889696460799,None,650.953171611618,None,651.2195104808197,None,651.2195104808197,None,,,,,,,,,,,,,,,,,,,,,,,,,,,,,,,,,,,sing6,001,2019_Oct_24_1416,ProdFawcett_Revision2019,3.2.4,59.97907056465202,
14,0,14,0,,,,,,,,,,,,,,,,,657.9717083411088,None,materials/speakPic.jpg,brief,B_aloud,14,28,654.2946880637028,None,654.2946880637028,None,655.2211311189894,None,655.4875076195895,None,655.4875076195895,None,,,,,,,,,,,,,,,,,,,,,,,,,,,,,,,,,,,sing6,001,2019_Oct_24_1416,ProdFawcett_Revision2019,3.2.4,59.97907056465202,
15,0,15,0,,,,,,,,,,,,,,,,,662.2397089009173,None,materials/singPic.jpg,capital,C_sing,15,40,658.5805691360292,None,658.5805691360292,None,659.489096535428,None,659.755483921137,None,659.755483921137,None,,,,,,,,,,,,,,,,,,,,,,,,,,,,,,,,,,,sing6,001,2019_Oct_24_1416,ProdFawcett_Revision2019,3.2.4,59.97907056465202,
16,0,16,0,,,,,,,,,,,,,,,,,666.5076917335391,None,materials/singPic.jpg,quick,C_sing,16,248,662.8319509236899,None,662.8319509236899,None,663.7570625738736,None,664.0245020837319,None,664.0245020837319,None,,,,,,,,,,,,,,,,,,,,,,,,,,,,,,,,,,,sing6,001,2019_Oct_24_1416,ProdFawcett_Revision2019,3.2.4,59.97907056465202,
17,0,17,0,,,,,,,,,,,,,,,,,670.7763761895912,None,materials/singPic.jpg,murder,C_sing,17,195,667.0912275300216,None,667.0912275300216,None,668.0251953100669,None,668.2914713565988,None,668.2914713565988,None,,,,,,,,,,,,,,,,,,,,,,,,,,,,,,,,,,,sing6,001,2019_Oct_24_1416,ProdFawcett_Revision2019,3.2.4,59.97907056465202,
18,0,18,0,,,,,,,,,,,,,,,,,675.0436922311346,None,materials/speakPic.jpg,thing,B_aloud,18,328,671.3943686633138,None,671.3943686633138,None,672.2930518753565,None,672.5594650743296,None,672.5594650743296,None,,,,,,,,,,,,,,,,,,,,,,,,,,,,,,,,,,,sing6,001,2019_Oct_24_1416,ProdFawcett_Revision2019,3.2.4,59.97907056465202,
19,0,19,0,,,,,,,,,,,,,,,,,679.311655781552,None,materials/readPic.jpg,sound,A_silent,19,295,675.6525632891717,None,675.6525632891717,None,676.5610664303094,None,676.8274668781523,None,676.8274668781523,None,,,,,,,,,,,,,,,,,,,,,,,,,,,,,,,,,,,sing6,001,2019_Oct_24_1416,ProdFawcett_Revision2019,3.2.4,59.97907056465202,
20,0,20,0,,,,,,,,,,,,,,,,,683.5796566523641,None,materials/singPic.jpg,management,C_sing,20,177,679.9298662685906,None,679.9298662685906,None,680.8290026124305,None,681.0954298065626,None,681.0954298065626,None,,,,,,,,,,,,,,,,,,,,,,,,,,,,,,,,,,,sing6,001,2019_Oct_24_1416,ProdFawcett_Revision2019,3.2.4,59.97907056465202,
21,0,21,0,,,,,,,,,,,,,,,,,687.8476254898269,None,materials/readPic.jpg,column,A_silent,21,57,684.1815817627648,None,684.1815817627648,None,685.097052621757,None,685.3634079741314,None,685.3634079741314,None,,,,,,,,,,,,,,,,,,,,,,,,,,,,,,,,,,,sing6,001,2019_Oct_24_1416,ProdFawcett_Revision2019,3.2.4,59.97907056465202,
22,0,22,0,,,,,,,,,,,,,,,,,692.1156064564275,None,materials/singPic.jpg,resistance,C_sing,22,262,688.4565444423788,None,688.4565444423788,None,689.3649944019417,None,689.6314069789223,None,689.6314069789223,None,,,,,,,,,,,,,,,,,,,,,,,,,,,,,,,,,,,sing6,001,2019_Oct_24_1416,ProdFawcett_Revision2019,3.2.4,59.97907056465202,
23,0,23,0,,,,,,,,,,,,,,,,,696.3836088822572,None,materials/singPic.jpg,patient,C_sing,23,213,692.7158238477423,None,692.7158238477423,None,693.63301206693,None,693.8993966536073,None,693.8993966536073,None,,,,,,,,,,,,,,,,,,,,,,,,,,,,,,,,,,,sing6,001,2019_Oct_24_1416,ProdFawcett_Revision2019,3.2.4,59.97907056465202,
24,0,24,0,,,,,,,,,,,,,,,,,700.6516109970835,None,materials/readPic.jpg,weight,A_silent,24,353,696.9853993282304,None,696.9853993282304,None,697.9010204018123,None,698.1673810412467,None,698.1673810412467,None,,,,,,,,,,,,,,,,,,,,,,,,,,,,,,,,,,,sing6,001,2019_Oct_24_1416,ProdFawcett_Revision2019,3.2.4,59.97907056465202,
25,0,25,0,,,,,,,,,,,,,,,,,704.9195879206382,None,materials/speakPic.jpg,problem,B_aloud,25,238,701.2413998258417,None,701.2413998258417,None,702.1689615599898,None,702.4353921751608,None,702.4353921751608,None,,,,,,,,,,,,,,,,,,,,,,,,,,,,,,,,,,,sing6,001,2019_Oct_24_1416,ProdFawcett_Revision2019,3.2.4,59.97907056465202,
26,0,26,0,,,,,,,,,,,,,,,,,709.1875601791398,None,materials/speakPic.jpg,weather,B_aloud,26,352,705.4905056913703,None,705.4905056913703,None,706.4371552528464,None,706.703379050814,None,706.703379050814,None,,,,,,,,,,,,,,,,,,,,,,,,,,,,,,,,,,,sing6,001,2019_Oct_24_1416,ProdFawcett_Revision2019,3.2.4,59.97907056465202,
27,0,27,0,,,,,,,,,,,,,,,,,713.4555725570681,None,materials/readPic.jpg,match,A_silent,27,181,709.7908860484022,None,709.7908860484022,None,710.705566337012,None,710.9713603284181,None,710.9713603284181,None,,,,,,,,,,,,,,,,,,,,,,,,,,,,,,,,,,,sing6,001,2019_Oct_24_1416,ProdFawcett_Revision2019,3.2.4,59.97907056465202,
28,0,28,0,,,,,,,,,,,,,,,,,717.7235286434006,None,materials/readPic.jpg,people,A_silent,28,216,714.038999191398,None,714.038999191398,None,714.9729735025176,None,715.2393596442125,None,715.2393596442125,None,,,,,,,,,,,,,,,,,,,,,,,,,,,,,,,,,,,sing6,001,2019_Oct_24_1416,ProdFawcett_Revision2019,3.2.4,59.97907056465202,
29,0,29,0,,,,,,,,,,,,,,,,,721.9915369782975,None,materials/speakPic.jpg,taste,B_aloud,29,322,718.3090760092018,None,718.3090760092018,None,719.2409759283473,None,719.5073259936617,None,719.5073259936617,None,,,,,,,,,,,,,,,,,,,,,,,,,,,,,,,,,,,sing6,001,2019_Oct_24_1416,ProdFawcett_Revision2019,3.2.4,59.97907056465202,
30,0,30,0,,,,,,,,,,,,,,,,,726.2595294520142,None,materials/readPic.jpg,debate,A_silent,30,87,722.6009535361081,None,722.6009535361081,None,723.5089394787647,None,723.7753172233643,None,723.7753172233643,None,,,,,,,,,,,,,,,,,,,,,,,,,,,,,,,,,,,sing6,001,2019_Oct_24_1416,ProdFawcett_Revision2019,3.2.4,59.97907056465202,
31,0,31,0,,,,,,,,,,,,,,,,,730.5275175716961,None,materials/singPic.jpg,right,C_sing,31,265,726.8777010636404,None,726.8777010636404,None,727.7769347515132,None,728.0432997449825,None,728.0432997449825,None,,,,,,,,,,,,,,,,,,,,,,,,,,,,,,,,,,,sing6,001,2019_Oct_24_1416,ProdFawcett_Revision2019,3.2.4,59.97907056465202,
32,0,32,0,,,,,,,,,,,,,,,,,734.7954926292296,None,materials/singPic.jpg,working,C_sing,32,357,731.07918050632,None,731.07918050632,None,732.0451520806091,None,732.3112819555972,None,732.3112819555972,None,,,,,,,,,,,,,,,,,,,,,,,,,,,,,,,,,,,sing6,001,2019_Oct_24_1416,ProdFawcett_Revision2019,3.2.4,59.97907056465202,
33,0,33,0,,,,,,,,,,,,,,,,,739.0635255333764,None,materials/speakPic.jpg,agency,B_aloud,33,4,735.3823804192361,None,735.3823804192361,None,736.3128786465095,None,736.579285314423,None,736.579285314423,None,,,,,,,,,,,,,,,,,,,,,,,,,,,,,,,,,,,sing6,001,2019_Oct_24_1416,ProdFawcett_Revision2019,3.2.4,59.97907056465202,
34,0,34,0,,,,,,,,,,,,,,,,,743.3314744666277,None,materials/speakPic.jpg,blind,B_aloud,34,24,739.6469111152546,None,739.6469111152546,None,740.5808782733075,None,740.8472669030307,None,740.8472669030307,None,,,,,,,,,,,,,,,,,,,,,,,,,,,,,,,,,,,sing6,001,2019_Oct_24_1416,ProdFawcett_Revision2019,3.2.4,59.97907056465202,
35,0,35,0,,,,,,,,,,,,,,,,,747.5994744044292,None,materials/speakPic.jpg,oxygen,B_aloud,35,209,743.9015438203642,None,743.9015438203642,None,744.8488663929893,None,745.1152531566913,None,745.1152531566913,None,,,,,,,,,,,,,,,,,,,,,,,,,,,,,,,,,,,sing6,001,2019_Oct_24_1416,ProdFawcett_Revision2019,3.2.4,59.97907056465202,
36,0,36,0,,,,,,,,,,,,,,,,,751.8674438639136,None,materials/singPic.jpg,stranger,C_sing,36,309,748.2508630341472,None,748.2508630341472,None,749.1168274553784,None,749.3832434533833,None,749.3832434533833,None,,,,,,,,,,,,,,,,,,,,,,,,,,,,,,,,,,,sing6,001,2019_Oct_24_1416,ProdFawcett_Revision2019,3.2.4,59.97907056465202,
37,0,37,0,,,,,,,,,,,,,,,,,756.135417677433,None,materials/speakPic.jpg,budget,B_aloud,37,34,752.4714442993136,None,752.4714442993136,None,753.3850115071255,None,753.6512206879415,None,753.6512206879415,None,,,,,,,,,,,,,,,,,,,,,,,,,,,,,,,,,,,sing6,001,2019_Oct_24_1416,ProdFawcett_Revision2019,3.2.4,59.97907056465202,
38,0,38,0,,,,,,,,,,,,,,,,,760.4034238352906,None,materials/readPic.jpg,order,A_silent,38,207,756.7410633202671,None,756.7410633202671,None,757.6528435031505,None,757.9192184487183,None,757.9192184487183,None,,,,,,,,,,,,,,,,,,,,,,,,,,,,,,,,,,,sing6,001,2019_Oct_24_1416,ProdFawcett_Revision2019,3.2.4,59.97907056465202,
39,0,39,0,,,,,,,,,,,,,,,,,764.6714166200254,None,materials/speakPic.jpg,reach,B_aloud,39,253,760.9950248802634,None,760.9950248802634,None,761.9208866703993,None,762.1872034583648,None,762.1872034583648,None,,,,,,,,,,,,,,,,,,,,,,,,,,,,,,,,,,,sing6,001,2019_Oct_24_1416,ProdFawcett_Revision2019,3.2.4,59.97907056465202,
40,0,40,0,,,,,,,,,,,,,,,,,768.9394100267527,None,materials/readPic.jpg,mechanical,A_silent,40,185,765.2727847235219,None,765.2727847235219,None,766.1887833551009,None,766.4551959320816,None,766.4551959320816,None,,,,,,,,,,,,,,,,,,,,,,,,,,,,,,,,,,,sing6,001,2019_Oct_24_1416,ProdFawcett_Revision2019,3.2.4,59.97907056465202,
41,0,41,0,,,,,,,,,,,,,,,,,773.2073906823498,None,materials/speakPic.jpg,object,B_aloud,41,204,769.5411339180282,None,769.5411339180282,None,770.4568688188156,None,770.7248292591976,None,770.7248292591976,None,,,,,,,,,,,,,,,,,,,,,,,,,,,,,,,,,,,sing6,001,2019_Oct_24_1416,ProdFawcett_Revision2019,3.2.4,59.97907056465202,
42,0,42,0,,,,,,,,,,,,,,,,,777.4753697829292,None,materials/readPic.jpg,heavy,A_silent,42,151,773.8111982957053,None,773.8111982957053,None,774.7249440194137,None,774.9911743484554,None,774.9911743484554,None,,,,,,,,,,,,,,,,,,,,,,,,,,,,,,,,,,,sing6,001,2019_Oct_24_1416,ProdFawcett_Revision2019,3.2.4,59.97907056465202,
43,0,43,0,,,,,,,,,,,,,,,,,781.7433560365753,None,materials/readPic.jpg,review,A_silent,43,263,778.0587279965257,None,778.0587279965257,None,778.9928018287028,None,779.2591444299323,None,779.2591444299323,None,,,,,,,,,,,,,,,,,,,,,,,,,,,,,,,,,,,sing6,001,2019_Oct_24_1416,ProdFawcett_Revision2019,3.2.4,59.97907056465202,
44,0,44,0,,,,,,,,,,,,,,,,,786.0113522423344,None,materials/readPic.jpg,employment,A_silent,44,111,782.3144905766094,None,782.3144905766094,None,783.2608026995149,None,783.5271425017127,None,783.5271425017127,None,,,,,,,,,,,,,,,,,,,,,,,,,,,,,,,,,,,sing6,001,2019_Oct_24_1416,ProdFawcett_Revision2019,3.2.4,59.97907056465202,
45,0,45,0,,,,,,,,,,,,,,,,,790.2793493811041,None,materials/singPic.jpg,music,C_sing,45,196,786.6704344716127,None,786.6704344716127,None,787.5288362256688,None,787.7952994961815,None,787.7952994961815,None,,,,,,,,,,,,,,,,,,,,,,,,,,,,,,,,,,,sing6,001,2019_Oct_24_1416,ProdFawcett_Revision2019,3.2.4,59.97907056465202,
46,0,46,0,,,,,,,,,,,,,,,,,794.54732817068,None,materials/singPic.jpg,cover,C_sing,46,77,790.8667064750916,None,790.8667064750916,None,791.7967814268923,None,792.0631221621006,None,792.0631221621006,None,,,,,,,,,,,,,,,,,,,,,,,,,,,,,,,,,,,sing6,001,2019_Oct_24_1416,ProdFawcett_Revision2019,3.2.4,59.97907056465202,
47,0,47,0,,,,,,,,,,,,,,,,,798.815333084538,None,materials/speakPic.jpg,property,B_aloud,47,242,795.1351869129867,None,795.1351869129867,None,796.0649620576005,None,796.3311018846871,None,796.3311018846871,None,,,,,,,,,,,,,,,,,,,,,,,,,,,,,,,,,,,sing6,001,2019_Oct_24_1416,ProdFawcett_Revision2019,3.2.4,59.97907056465202,
48,0,48,0,,,,,,,,,,,,,,,,,803.083313118128,None,materials/speakPic.jpg,couch,B_aloud,48,70,799.3987087143178,None,799.3987087143178,None,800.3334446725203,None,800.5991005784745,None,800.5991005784745,None,,,,,,,,,,,,,,,,,,,,,,,,,,,,,,,,,,,sing6,001,2019_Oct_24_1416,ProdFawcett_Revision2019,3.2.4,59.97907056465202,
49,0,49,0,,,,,,,,,,,,,,,,,807.3512772905378,None,materials/singPic.jpg,threat,C_sing,49,329,803.701325185044,None,803.701325185044,None,804.6007227716618,None,804.867066305902,None,804.867066305902,None,,,,,,,,,,,,,,,,,,,,,,,,,,,,,,,,,,,sing6,001,2019_Oct_24_1416,ProdFawcett_Revision2019,3.2.4,59.97907056465202,
50,0,50,0,,,,,,,,,,,,,,,,,811.6193061516533,None,materials/singPic.jpg,sleep,C_sing,50,290,807.9357529389818,None,807.9357529389818,None,808.8686962741776,None,809.1350553585944,None,809.1350553585944,None,,,,,,,,,,,,,,,,,,,,,,,,,,,,,,,,,,,sing6,001,2019_Oct_24_1416,ProdFawcett_Revision2019,3.2.4,59.97907056465202,
51,0,51,0,,,,,,,,,,,,,,,,,815.8872609939717,None,materials/speakPic.jpg,center,B_aloud,51,44,812.2073064004508,None,812.2073064004508,None,813.1367677427479,None,813.4030549853924,None,813.4030549853924,None,,,,,,,,,,,,,,,,,,,,,,,,,,,,,,,,,,,sing6,001,2019_Oct_24_1416,ProdFawcett_Revision2019,3.2.4,59.97907056465202,
52,0,52,0,,,,,,,,,,,,,,,,,820.1552167693008,None,materials/speakPic.jpg,revolution,B_aloud,52,264,816.4706733221392,None,816.4706733221392,None,817.4048090439755,None,817.6710256888764,None,817.6710256888764,None,,,,,,,,,,,,,,,,,,,,,,,,,,,,,,,,,,,sing6,001,2019_Oct_24_1416,ProdFawcett_Revision2019,3.2.4,59.97907056465202,
53,0,53,0,,,,,,,,,,,,,,,,,824.4232428313699,None,materials/singPic.jpg,suggestion,C_sing,53,314,820.7733765627927,None,820.7733765627927,None,821.6727203458431,None,821.9390265596885,None,821.9390265596885,None,,,,,,,,,,,,,,,,,,,,,,,,,,,,,,,,,,,sing6,001,2019_Oct_24_1416,ProdFawcett_Revision2019,3.2.4,59.97907056465202,
54,0,54,0,,,,,,,,,,,,,,,,,828.6912315730588,None,materials/readPic.jpg,public,A_silent,54,244,825.0252519126661,None,825.0252519126661,None,825.9406661690591,None,826.2069845120423,None,826.2069845120423,None,,,,,,,,,,,,,,,,,,,,,,,,,,,,,,,,,,,sing6,001,2019_Oct_24_1416,ProdFawcett_Revision2019,3.2.4,59.97907056465202,
55,0,55,0,,,,,,,,,,,,,,,,,832.9592187597154,None,materials/singPic.jpg,rapid,C_sing,55,252,829.3095810785599,None,829.3095810785599,None,830.2086269204447,None,830.4749906698999,None,830.4749906698999,None,,,,,,,,,,,,,,,,,,,,,,,,,,,,,,,,,,,sing6,001,2019_Oct_24_1416,ProdFawcett_Revision2019,3.2.4,59.97907056465202,
56,0,56,0,,,,,,,,,,,,,,,,,837.2272124774609,None,materials/readPic.jpg,write,A_silent,56,358,833.5675216147356,None,833.5675216147356,None,834.4767158051836,None,834.7429697704792,None,834.7429697704792,None,,,,,,,,,,,,,,,,,,,,,,,,,,,,,,,,,,,sing6,001,2019_Oct_24_1416,ProdFawcett_Revision2019,3.2.4,59.97907056465202,
57,0,57,0,,,,,,,,,,,,,,,,,841.4951968650857,None,materials/speakPic.jpg,member,B_aloud,57,188,837.8200867699197,None,837.8200867699197,None,838.7447701685596,None,839.0109830814181,None,839.0109830814181,None,,,,,,,,,,,,,,,,,,,,,,,,,,,,,,,,,,,sing6,001,2019_Oct_24_1416,ProdFawcett_Revision2019,3.2.4,59.97907056465202,
58,0,58,0,,,,,,,,,,,,,,,,,845.7631818747323,None,materials/singPic.jpg,finance,C_sing,58,129,842.1042206257407,None,842.1042206257407,None,843.0133594576182,None,843.2789596939692,None,843.2789596939692,None,,,,,,,,,,,,,,,,,,,,,,,,,,,,,,,,,,,sing6,001,2019_Oct_24_1416,ProdFawcett_Revision2019,3.2.4,59.97907056465202,
59,0,59,0,,,,,,,,,,,,,,,,,850.0311905206181,None,materials/speakPic.jpg,design,B_aloud,59,91,846.3662331280793,None,846.3662331280793,None,847.2806577719748,None,847.546966784852,None,847.546966784852,None,,,,,,,,,,,,,,,,,,,,,,,,,,,,,,,,,,,sing6,001,2019_Oct_24_1416,ProdFawcett_Revision2019,3.2.4,59.97907056465202,
60,0,60,0,,,,,,,,,,,,,,,,,854.2991453629511,None,materials/singPic.jpg,defeat,C_sing,60,88,850.6492374199152,None,850.6492374199152,None,851.5482904148812,None,851.8151228463103,None,851.8151228463103,None,,,,,,,,,,,,,,,,,,,,,,,,,,,,,,,,,,,sing6,001,2019_Oct_24_1416,ProdFawcett_Revision2019,3.2.4,59.97907056465202,
61,0,61,0,,,,,,,,,,,,,,,,,858.5671378366678,None,materials/readPic.jpg,meeting,A_silent,61,187,854.8682705106767,None,854.8682705106767,None,855.8167030540499,None,856.0829554643278,None,856.0829554643278,None,,,,,,,,,,,,,,,,,,,,,,,,,,,,,,,,,,,sing6,001,2019_Oct_24_1416,ProdFawcett_Revision2019,3.2.4,59.97907056465202,
62,0,62,0,,,,,,,,,,,,,,,,,862.835120669275,None,materials/readPic.jpg,month,A_silent,62,193,859.1505622939585,None,859.1505622939585,None,860.0848709336278,None,860.3509314548719,None,860.3509314548719,None,,,,,,,,,,,,,,,,,,,,,,,,,,,,,,,,,,,sing6,001,2019_Oct_24_1416,ProdFawcett_Revision2019,3.2.4,59.97907056465202,
63,0,63,0,,,,,,,,,,,,,,,,,867.1031274491543,None,materials/readPic.jpg,master,A_silent,63,180,863.418542016545,None,863.418542016545,None,864.3525850594015,None,864.6189338807017,None,864.6189338807017,None,,,,,,,,,,,,,,,,,,,,,,,,,,,,,,,,,,,sing6,001,2019_Oct_24_1416,ProdFawcett_Revision2019,3.2.4,59.97907056465202,
64,0,64,0,,,,,,,,,,,,,,,,,871.3710981526383,None,materials/singPic.jpg,court,C_sing,64,75,867.7583697207156,None,867.7583697207156,None,868.6205943273089,None,868.8868971201155,None,868.8868971201155,None,,,,,,,,,,,,,,,,,,,,,,,,,,,,,,,,,,,sing6,001,2019_Oct_24_1416,ProdFawcett_Revision2019,3.2.4,59.97907056465202,
65,0,65,0,,,,,,,,,,,,,,,,,875.6390937363904,None,materials/singPic.jpg,accident,C_sing,65,0,871.9558944454911,None,871.9558944454911,None,872.8885653417965,None,873.1549088760366,None,873.1549088760366,None,,,,,,,,,,,,,,,,,,,,,,,,,,,,,,,,,,,sing6,001,2019_Oct_24_1416,ProdFawcett_Revision2019,3.2.4,59.97907056465202,
66,0,66,0,,,,,,,,,,,,,,,,,879.9070560427936,None,materials/singPic.jpg,whole,C_sing,66,355,876.2224762082478,None,876.2224762082478,None,877.1565892268554,None,877.4229116128699,None,877.4229116128699,None,,,,,,,,,,,,,,,,,,,,,,,,,,,,,,,,,,,sing6,001,2019_Oct_24_1416,ProdFawcett_Revision2019,3.2.4,59.97907056465202,
67,0,67,0,,,,,,,,,,,,,,,,,884.1750771288207,None,materials/singPic.jpg,guard,C_sing,67,145,880.4928291969991,None,880.4928291969991,None,881.424624308027,None,881.6909022205655,None,881.6909022205655,None,,,,,,,,,,,,,,,,,,,,,,,,,,,,,,,,,,,sing6,001,2019_Oct_24_1416,ProdFawcett_Revision2019,3.2.4,59.97907056465202,
68,0,68,0,,,,,,,,,,,,,,,,,888.4430568514072,None,materials/singPic.jpg,smell,C_sing,68,291,884.7585056291573,None,884.7585056291573,None,885.6926034086064,None,885.9589037133846,None,885.9589037133846,None,,,,,,,,,,,,,,,,,,,,,,,,,,,,,,,,,,,sing6,001,2019_Oct_24_1416,ProdFawcett_Revision2019,3.2.4,59.97907056465202,
69,0,69,0,,,,,,,,,,,,,,,,,892.7110508801416,None,materials/speakPic.jpg,balance,B_aloud,69,17,889.06154755241,None,889.06154755241,None,889.9605738010869,None,890.2268744168687,None,890.2268744168687,None,,,,,,,,,,,,,,,,,,,,,,,,,,,,,,,,,,,sing6,001,2019_Oct_24_1416,ProdFawcett_Revision2019,3.2.4,59.97907056465202,
70,0,70,0,,,,,,,,,,,,,,,,,896.9789973253792,None,materials/speakPic.jpg,council,B_aloud,70,71,893.2944915096159,None,893.2944915096159,None,894.2285180692998,None,894.4948556944728,None,894.4948556944728,None,,,,,,,,,,,,,,,,,,,,,,,,,,,,,,,,,,,sing6,001,2019_Oct_24_1416,ProdFawcett_Revision2019,3.2.4,59.97907056465202,
71,0,71,0,,,,,,,,,,,,,,,,,901.2470386266068,None,materials/speakPic.jpg,search,B_aloud,71,276,897.5513198979897,None,897.5513198979897,None,898.4965152080695,None,898.7629747465398,None,898.7629747465398,None,,,,,,,,,,,,,,,,,,,,,,,,,,,,,,,,,,,sing6,001,2019_Oct_24_1416,ProdFawcett_Revision2019,3.2.4,59.97907056465202,
72,0,72,0,,,,,,,,,,,,,,,,,905.5149909809115,None,materials/readPic.jpg,relation,A_silent,72,257,901.8483078310674,None,901.8483078310674,None,902.7646491882915,None,903.030833177836,None,903.030833177836,None,,,,,,,,,,,,,,,,,,,,,,,,,,,,,,,,,,,sing6,001,2019_Oct_24_1416,ProdFawcett_Revision2019,3.2.4,59.97907056465202,
73,0,73,0,,,,,,,,,,,,,,,,,909.7829775455612,None,materials/readPic.jpg,beauty,A_silent,73,18,906.0901023200859,None,906.0901023200859,None,907.0325144616509,None,907.2988262735598,None,907.2988262735598,None,,,,,,,,,,,,,,,,,,,,,,,,,,,,,,,,,,,sing6,001,2019_Oct_24_1416,ProdFawcett_Revision2019,3.2.4,59.97907056465202,
74,0,74,0,,,,,,,,,,,,,,,,,914.0509619332006,None,materials/singPic.jpg,production,C_sing,74,240,910.4011435591237,None,910.4011435591237,None,911.3005063133751,None,911.5555585619295,None,911.5555585619295,None,,,,,,,,,,,,,,,,,,,,,,,,,,,,,,,,,,,sing6,001,2019_Oct_24_1416,ProdFawcett_Revision2019,3.2.4,59.97907056465202,
75,0,75,0,,,,,,,,,,,,,,,,,918.3189752441394,None,materials/speakPic.jpg,permit,B_aloud,75,218,914.6529131678835,None,914.6529131678835,None,915.5684630217147,None,915.8349741867278,None,915.8349741867278,None,,,,,,,,,,,,,,,,,,,,,,,,,,,,,,,,,,,sing6,001,2019_Oct_24_1416,ProdFawcett_Revision2019,3.2.4,59.97907056465202,
76,0,76,0,,,,,,,,,,,,,,,,,922.5869338185003,None,materials/speakPic.jpg,death,B_aloud,76,86,918.8880599614349,None,918.8880599614349,None,919.8372924052965,None,920.1027984076645,None,920.1027984076645,None,,,,,,,,,,,,,,,,,,,,,,,,,,,,,,,,,,,sing6,001,2019_Oct_24_1416,ProdFawcett_Revision2019,3.2.4,59.97907056465202,
77,0,77,0,,,,,,,,,,,,,,,,,926.854926292217,None,materials/readPic.jpg,pressure,A_silent,77,232,923.2050015550194,None,923.2050015550194,None,924.1045344280719,None,924.370748895948,None,924.370748895948,None,,,,,,,,,,,,,,,,,,,,,,,,,,,,,,,,,,,sing6,001,2019_Oct_24_1416,ProdFawcett_Revision2019,3.2.4,59.97907056465202,
78,0,78,0,,,,,,,,,,,,,,,,,931.1231268271513,None,materials/readPic.jpg,leader,A_silent,78,168,927.439210051627,None,927.439210051627,None,928.3724363998335,None,928.6387845991267,None,928.6387845991267,None,,,,,,,,,,,,,,,,,,,,,,,,,,,,,,,,,,,sing6,001,2019_Oct_24_1416,ProdFawcett_Revision2019,3.2.4,59.97907056465202,
79,0,79,0,,,,,,,,,,,,,,,,,935.3909544691269,None,materials/speakPic.jpg,build,B_aloud,79,35,931.7127418050659,None,931.7127418050659,None,932.6404581078532,None,932.9067518815718,None,932.9067518815718,None,,,,,,,,,,,,,,,,,,,,,,,,,,,,,,,,,,,sing6,001,2019_Oct_24_1416,ProdFawcett_Revision2019,3.2.4,59.97907056465202,
80,0,80,0,,,,,,,,,,,,,,,,,939.6589261056215,None,materials/readPic.jpg,place,A_silent,80,222,935.9922998693801,None,935.9922998693801,None,936.9084036200802,None,937.1747552404122,None,937.1747552404122,None,,,,,,,,,,,,,,,,,,,,,,,,,,,,,,,,,,,sing6,001,2019_Oct_24_1416,ProdFawcett_Revision2019,3.2.4,59.97907056465202,
81,0,81,0,,,,,,,,,,,,,,,,,943.9269154693029,None,materials/speakPic.jpg,military,B_aloud,81,190,940.2608294457896,None,940.2608294457896,None,941.1763802326313,None,941.4427411830547,None,941.4427411830547,None,,,,,,,,,,,,,,,,,,,,,,,,,,,,,,,,,,,sing6,001,2019_Oct_24_1416,ProdFawcett_Revision2019,3.2.4,59.97907056465202,
82,0,82,0,,,,,,,,,,,,,,,,,948.194886483805,None,materials/speakPic.jpg,still,B_aloud,82,304,944.5011392050801,None,944.5011392050801,None,945.4446687814925,None,945.7107196616271,None,945.7107196616271,None,,,,,,,,,,,,,,,,,,,,,,,,,,,,,,,,,,,sing6,001,2019_Oct_24_1416,ProdFawcett_Revision2019,3.2.4,59.97907056465202,
83,0,83,0,,,,,,,,,,,,,,,,,952.46287615849,None,materials/singPic.jpg,space,C_sing,83,297,948.8023104434978,None,948.8023104434978,None,949.7124973564787,None,949.9787130683544,None,949.9787130683544,None,,,,,,,,,,,,,,,,,,,,,,,,,,,,,,,,,,,sing6,001,2019_Oct_24_1416,ProdFawcett_Revision2019,3.2.4,59.97907056465202,
84,0,84,0,,,,,,,,,,,,,,,,,956.7309563351446,None,materials/readPic.jpg,escape,A_silent,84,118,953.0647655035136,None,953.0647655035136,None,953.9803772470041,None,954.2466937239515,None,954.2466937239515,None,,,,,,,,,,,,,,,,,,,,,,,,,,,,,,,,,,,sing6,001,2019_Oct_24_1416,ProdFawcett_Revision2019,3.2.4,59.97907056465202,
85,0,85,0,,,,,,,,,,,,,,,,,960.9988688810117,None,materials/readPic.jpg,clear,A_silent,85,52,957.3182266592048,None,957.3182266592048,None,958.2484017540555,None,958.5146880636894,None,958.5146880636894,None,,,,,,,,,,,,,,,,,,,,,,,,,,,,,,,,,,,sing6,001,2019_Oct_24_1416,ProdFawcett_Revision2019,3.2.4,59.97907056465202,
86,0,86,0,,,,,,,,,,,,,,,,,965.2668921440636,None,materials/singPic.jpg,period,C_sing,86,217,961.6170933631947,None,961.6170933631947,None,962.5163590844022,None,962.782693910558,None,962.782693910558,None,,,,,,,,,,,,,,,,,,,,,,,,,,,,,,,,,,,sing6,001,2019_Oct_24_1416,ProdFawcett_Revision2019,3.2.4,59.97907056465202,
87,0,87,0,,,,,,,,,,,,,,,,,969.5354770790582,None,materials/singPic.jpg,entrance,C_sing,87,115,965.8516837718489,None,965.8516837718489,None,966.7844224668806,None,967.0506969583948,None,967.0506969583948,None,,,,,,,,,,,,,,,,,,,,,,,,,,,,,,,,,,,sing6,001,2019_Oct_24_1416,ProdFawcett_Revision2019,3.2.4,59.97907056465202,
88,0,88,0,,,,,,,,,,,,,,,,,973.8031989799056,None,materials/speakPic.jpg,tragedy,B_aloud,88,335,970.136749704543,None,970.136749704543,None,971.0523406108114,None,971.3186570877733,None,971.3186570877733,None,,,,,,,,,,,,,,,,,,,,,,,,,,,,,,,,,,,sing6,001,2019_Oct_24_1416,ProdFawcett_Revision2019,3.2.4,59.97907056465202,
89,0,89,0,,,,,,,,,,,,,,,,,978.0708341108402,None,materials/readPic.jpg,commercial,A_silent,89,61,974.4075878584408,None,974.4075878584408,None,975.3203697829158,None,975.586639609377,None,975.586639609377,None,,,,,,,,,,,,,,,,,,,,,,,,,,,,,,,,,,,sing6,001,2019_Oct_24_1416,ProdFawcett_Revision2019,3.2.4,59.97907056465202,
,,,,,,,,,,,,,,,,,,,,,,,,,,,,,,,,,,,,,978.5709697082784,None,k,88.74845369160175,978.5709697082784,None,,,,,,,,,,,,,,,,,,,,,,,,,,,,,sing6,001,2019_Oct_24_1416,ProdFawcett_Revision2019,3.2.4,59.97907056465202,
,,,,,,,,,,,,,,1067.3484748398332,None,space,3.954504571753205,1067.3484748398332,None,,,,,,,,,,,,,,,,,,,,,,,,,,,,,,,,,,,,,,,,,,,,,,,,,,,,sing6,001,2019_Oct_24_1416,ProdFawcett_Revision2019,3.2.4,59.97907056465202,
,,,,0,0,0,0,,,,,,,,,,,,,1082.6213186539826,None,,,,,,,,,,,,,,,,,,,,,,threat,C_sing,0,329,1071.8544361510285,None,1071.8544361510285,None,1071.8544361510285,None,6,7.432137836658512,1071.8544361510285,None,1079.3520995832514,None,1079.3520995832514,None,1079.8702982521645,None,1079.8702982521645,None,1079.8702982521645,None,r,2.7120575978042325,1079.8702982521645,None,sing6,001,2019_Oct_24_1416,ProdFawcett_Revision2019,3.2.4,59.97907056465202,
,,,,1,0,1,0,,,,,,,,,,,,,1086.8544227778912,None,,,,,,,,,,,,,,,,,,,,,,disease,D_new,1,97,1083.1535342414718,None,1083.1535342414718,None,1083.1535342414718,None,1,1.5732978789455956,1083.1535342414718,None,1084.7869586987654,None,1084.7869586987654,None,1085.3039201965585,None,1085.3039201965585,None,1085.3039201965585,None,n,1.5106108104810119,1085.3039201965585,None,sing6,001,2019_Oct_24_1416,ProdFawcett_Revision2019,3.2.4,59.97907056465202,
,,,,2,0,2,0,,,,,,,,,,,,,1091.7892430179782,None,,,,,,,,,,,,,,,,,,,,,,charter,C_sing,2,47,1087.371140138086,None,1087.371140138086,None,1087.371140138086,None,2,2.8349732537171803,1087.371140138086,None,1090.2554251415131,None,1090.2554251415131,None,1090.7722942713153,None,1090.7722942713153,None,1090.7722942713153,None,n,0.9779647944233147,1090.7722942713153,None,sing6,001,2019_Oct_24_1416,ProdFawcett_Revision2019,3.2.4,59.97907056465202,
,,,,3,0,3,0,,,,,,,,,,,,,1100.8754378926387,None,,,,,,,,,,,,,,,,,,,,,,agency,B_aloud,3,4,1092.3064474093408,None,1092.3064474093408,None,1092.3064474093408,None,5,4.571046215089154,1092.3064474093408,None,1096.9410396840249,None,1096.9410396840249,None,1097.4576724513317,None,1097.4576724513317,None,1097.4576724513317,None,f,3.371615040116012,1097.4576724513317,None,sing6,001,2019_Oct_24_1416,ProdFawcett_Revision2019,3.2.4,59.97907056465202,
,,,,4,0,4,0,,,,,,,,,,,,,1110.4615973129403,None,,,,,,,,,,,,,,,,,,,,,,blind,B_aloud,4,24,1101.3927878335526,None,1101.3927878335526,None,1101.3927878335526,None,2,2.0042980655562133,1101.3927878335526,None,1103.449918828148,None,1103.449918828148,None,1103.9763796106272,None,1103.9763796106272,None,1103.9763796106272,None,n,6.436351620330242,1103.9763796106272,None,sing6,001,2019_Oct_24_1416,ProdFawcett_Revision2019,3.2.4,59.97907056465202,
,,,,5,0,5,0,,,,,,,,,,,,,1116.4303075822681,None,,,,,,,,,,,,,,,,,,,,,,community,D_new,5,63,1110.97949648567,None,1110.97949648567,None,1110.97949648567,None,1,3.8334222802805016,1110.97949648567,None,1114.852794053615,None,1114.852794053615,None,1115.380488897179,None,1115.380488897179,None,1115.380488897179,None,n,1.0086577097827103,1115.380488897179,None,sing6,001,2019_Oct_24_1416,ProdFawcett_Revision2019,3.2.4,59.97907056465202,
,,,,6,0,6,0,,,,,,,,,,,,,1121.1650317223393,None,,,,,,,,,,,,,,,,,,,,,,shape,D_new,6,282,1116.9475775953324,None,1116.9475775953324,None,1116.9475775953324,None,2,2.5770712819648907,1116.9475775953324,None,1119.5811982957093,None,1119.5811982957093,None,1120.0979100578552,None,1120.0979100578552,None,1120.0979100578552,None,n,1.0266007339669159,1120.0979100578552,None,sing6,001,2019_Oct_24_1416,ProdFawcett_Revision2019,3.2.4,59.97907056465202,
,,,,7,0,7,0,,,,,,,,,,,,,1126.3166137961089,None,,,,,,,,,,,,,,,,,,,,,,motion,D_new,7,194,1121.6817133171571,None,1121.6817133171571,None,1121.6817133171571,None,3,2.8022292716195807,1121.6817133171571,None,1124.5326267338532,None,1124.5326267338532,None,1125.049373017362,None,1125.049373017362,None,1125.049373017362,None,n,1.2344644523254829,1125.049373017362,None,sing6,001,2019_Oct_24_1416,ProdFawcett_Revision2019,3.2.4,59.97907056465202,
,,,,8,0,8,0,,,,,,,,,,,,,1130.0510070286837,None,,,,,,,,,,,,,,,,,,,,,,instrument,D_new,8,163,1126.8356739441515,None,1126.8356739441515,None,1126.8356739441515,None,3,1.7044000746391248,1126.8356739441515,None,1128.590577844123,None,1128.590577844123,None,1129.1178643403691,None,1129.1178643403691,None,1129.1178643403691,None,n,0.8857230826542946,1129.1178643403691,None,sing6,001,2019_Oct_24_1416,ProdFawcett_Revision2019,3.2.4,59.97907056465202,
,,,,9,0,9,0,,,,,,,,,,,,,1133.702275922129,None,,,,,,,,,,,,,,,,,,,,,,mankind,D_new,9,178,1130.568044100277,None,1130.568044100277,None,1130.568044100277,None,1,1.3401555016462225,1130.568044100277,None,1131.9683970890183,None,1131.9683970890183,None,1132.4850724637654,None,1132.4850724637654,None,1132.4850724637654,None,n,1.1750786838238128,1132.4850724637654,None,sing6,001,2019_Oct_24_1416,ProdFawcett_Revision2019,3.2.4,59.97907056465202,
,,,,10,0,10,0,,,,,,,,,,,,,1137.820129688378,None,,,,,,,,,,,,,,,,,,,,,,volume,D_new,10,349,1134.2204108353617,None,1134.2204108353617,None,1134.2204108353617,None,2,1.9668199912994169,1134.2204108353617,None,1136.2412940847134,None,1136.2412940847134,None,1136.7697431112756,None,1136.7697431112756,None,1136.7697431112756,None,n,1.0173969024181133,1136.7697431112756,None,sing6,001,2019_Oct_24_1416,ProdFawcett_Revision2019,3.2.4,59.97907056465202,
,,,,11,0,11,0,,,,,,,,,,,,,1143.405120047275,None,,,,,,,,,,,,,,,,,,,,,,private,D_new,11,237,1138.3372749891132,None,1138.3372749891132,None,1138.3372749891132,None,3,3.0744062947051134,1138.3372749891132,None,1141.4575701312424,None,1141.4575701312424,None,1141.9714760216448,None,1141.9714760216448,None,1141.9714760216448,None,n,1.3997511973720975,1141.9714760216448,None,sing6,001,2019_Oct_24_1416,ProdFawcett_Revision2019,3.2.4,59.97907056465202,
,,,,12,0,12,0,,,,,,,,,,,,,1147.3731482863805,None,,,,,,,,,,,,,,,,,,,,,,staff,D_new,12,301,1143.922620513782,None,1143.922620513782,None,1143.922620513782,None,1,2.01644554331142,1143.922620513782,None,1145.9893755053781,None,1145.9893755053781,None,1146.5062359271105,None,1146.5062359271105,None,1146.5062359271105,None,n,0.8327648193080677,1146.5062359271105,None,sing6,001,2019_Oct_24_1416,ProdFawcett_Revision2019,3.2.4,59.97907056465202,
,,,,13,0,13,0,,,,,,,,,,,,,1150.8242299558478,None,,,,,,,,,,,,,,,,,,,,,,curve,D_new,13,82,1147.8905933942879,None,1147.8905933942879,None,1147.8905933942879,None,1,1.4321275735564996,1147.8905933942879,None,1149.3736210113857,None,1149.3736210113857,None,1149.8904895191954,None,1149.8904895191954,None,1149.8904895191954,None,n,0.8878354170446983,1149.8904895191954,None,sing6,001,2019_Oct_24_1416,ProdFawcett_Revision2019,3.2.4,59.97907056465202,
,,,,14,0,14,0,,,,,,,,,,,,,1155.8256282266666,None,,,,,,,,,,,,,,,,,,,,,,master,A_silent,14,180,1151.34106922934,None,1151.34106922934,None,1151.34106922934,None,4,2.5335463705851,1151.34106922934,None,1153.9129691484704,None,1153.9129691484704,None,1154.4418750388722,None,1154.4418750388722,None,1154.4418750388722,None,f,1.3447023698390694,1154.4418750388722,None,sing6,001,2019_Oct_24_1416,ProdFawcett_Revision2019,3.2.4,59.97907056465202,
,,,,15,0,15,0,,,,,,,,,,,,,1161.027882378563,None,,,,,,,,,,,,,,,,,,,,,,design,B_aloud,15,91,1156.342915655914,None,1156.342915655914,None,1156.342915655914,None,6,2.2274544380197767,1156.342915655914,None,1158.617164893949,None,1158.617164893949,None,1159.1434829259233,None,1159.1434829259233,None,1159.1434829259233,None,f,1.8430562293942785,1159.1434829259233,None,sing6,001,2019_Oct_24_1416,ProdFawcett_Revision2019,3.2.4,59.97907056465202,
,,,,16,0,16,0,,,,,,,,,,,,,1164.82846924178,None,,,,,,,,,,,,,,,,,,,,,,country,B_aloud,16,73,1161.5456786091963,None,1161.5456786091963,None,1161.5456786091963,None,6,1.6247011258237762,1161.5456786091963,None,1163.2280540523789,None,1163.2280540523789,None,1163.7447443552956,None,1163.7447443552956,None,1163.7447443552956,None,f,1.0415873608289985,1163.7447443552956,None,sing6,001,2019_Oct_24_1416,ProdFawcett_Revision2019,3.2.4,59.97907056465202,
,,,,17,0,17,0,,,,,,,,,,,,,1169.2799530385091,None,,,,,,,,,,,,,,,,,,,,,,death,B_aloud,17,86,1165.3456481308676,None,1165.3456481308676,None,1165.3456481308676,None,6,1.9765316912380513,1165.3456481308676,None,1167.3793509361276,None,1167.3793509361276,None,1167.8961908316269,None,1167.8961908316269,None,1167.8961908316269,None,r,1.337097406227258,1167.8961908316269,None,sing6,001,2019_Oct_24_1416,ProdFawcett_Revision2019,3.2.4,59.97907056465202,
,,,,18,0,18,0,,,,,,,,,,,,,1175.848639671589,None,,,,,,,,,,,,,,,,,,,,,,month,A_silent,18,193,1169.7971002052655,None,1169.7971002052655,None,1169.7971002052655,None,3,3.5406260496383766,1169.7971002052655,None,1173.3978898426285,None,1173.3978898426285,None,1173.9145586863306,None,1173.9145586863306,None,1173.9145586863306,None,n,1.894892392854672,1173.9145586863306,None,sing6,001,2019_Oct_24_1416,ProdFawcett_Revision2019,3.2.4,59.97907056465202,
,,,,19,0,19,0,,,,,,,,,,,,,1182.2672998693888,None,,,,,,,,,,,,,,,,,,,,,,estate,D_new,19,119,1176.36561547553,None,1176.36561547553,None,1176.36561547553,None,2,4.611391428741626,1176.36561547553,None,1181.0335320644372,None,1181.0335320644372,None,1181.5504739690223,None,1181.5504739690223,None,1181.5504739690223,None,n,0.682338122787769,1181.5504739690223,None,sing6,001,2019_Oct_24_1416,ProdFawcett_Revision2019,3.2.4,59.97907056465202,
,,,,20,0,20,0,,,,,,,,,,,,,1186.0851100951695,None,,,,,,,,,,,,,,,,,,,,,,problem,B_aloud,20,238,1182.7854832991288,None,1182.7854832991288,None,1182.7854832991288,None,5,1.8712465012067696,1182.7854832991288,None,1184.7179741245345,None,1184.7179741245345,None,1185.234930646271,None,1185.234930646271,None,1185.234930646271,None,f,0.8056559059477877,1185.234930646271,None,sing6,001,2019_Oct_24_1416,ProdFawcett_Revision2019,3.2.4,59.97907056465202,
,,,,21,0,21,0,,,,,,,,,,,,,1190.2363080798677,None,,,,,,,,,,,,,,,,,,,,,,military,B_aloud,21,190,1186.6033902469353,None,1186.6033902469353,None,1186.6033902469353,None,5,2.7007597810588777,1186.6033902469353,None,1189.3694193568517,None,1189.3694193568517,None,1189.8864629595046,None,1189.8864629595046,None,1189.8864629595046,None,f,0.31386857001052704,1189.8864629595046,None,sing6,001,2019_Oct_24_1416,ProdFawcett_Revision2019,3.2.4,59.97907056465202,
,,,,22,0,22,0,,,,,,,,,,,,,1195.4601850469626,None,,,,,,,,,,,,,,,,,,,,,,population,D_new,22,227,1190.7555358586833,None,1190.7555358586833,None,1190.7555358586833,None,3,2.2928036947123474,1190.7555358586833,None,1193.1039979473862,None,1193.1039979473862,None,1193.6207806182792,None,1193.6207806182792,None,1193.6207806182792,None,n,1.7791842383594485,1193.6207806182792,None,sing6,001,2019_Oct_24_1416,ProdFawcett_Revision2019,3.2.4,59.97907056465202,
,,,,23,0,23,0,,,,,,,,,,,,,1198.9724460409343,None,,,,,,,,,,,,,,,,,,,,,,management,C_sing,23,177,1195.9886558437574,None,1195.9886558437574,None,1195.9886558437574,None,5,1.667148099775659,1195.9886558437574,None,1197.7053952852002,None,1197.7053952852002,None,1198.222739628036,None,1198.222739628036,None,1198.222739628036,None,f,0.712905703796423,1198.222739628036,None,sing6,001,2019_Oct_24_1416,ProdFawcett_Revision2019,3.2.4,59.97907056465202,
,,,,24,0,24,0,,,,,,,,,,,,,1203.2904553088301,None,,,,,,,,,,,,,,,,,,,,,,candidate,D_new,24,39,1199.4916097530659,None,1199.4916097530659,None,1199.4916097530659,None,3,2.2278304409992415,1199.4916097530659,None,1201.7619835790247,None,1201.7619835790247,None,1202.2900158611737,None,1202.2900158611737,None,1202.2900158611737,None,n,0.9580307271244237,1202.2900158611737,None,sing6,001,2019_Oct_24_1416,ProdFawcett_Revision2019,3.2.4,59.97907056465202,
,,,,25,0,25,0,,,,,,,,,,,,,1208.291875038878,None,,,,,,,,,,,,,,,,,,,,,,resistance,C_sing,25,262,1203.8095540212817,None,1203.8095540212817,None,1203.8095540212817,None,4,2.445924923813436,1203.8095540212817,None,1206.307968837471,None,1206.307968837471,None,1206.8247925608011,None,1206.8247925608011,None,1206.8247925608011,None,n,1.4303078932716744,1206.8247925608011,None,sing6,001,2019_Oct_24_1416,ProdFawcett_Revision2019,3.2.4,59.97907056465202,
,,,,26,0,26,0,,,,,,,,,,,,,1212.693778379049,None,,,,,,,,,,,,,,,,,,,,,,block,D_new,26,25,1208.8092741183063,None,1208.8092741183063,None,1208.8092741183063,None,2,2.5175915904692374,1208.8092741183063,None,1211.3831230951037,None,1211.3831230951037,None,1211.9098109100014,None,1211.9098109100014,None,1211.9098109100014,None,n,0.7451060521270847,1211.9098109100014,None,sing6,001,2019_Oct_24_1416,ProdFawcett_Revision2019,3.2.4,59.97907056465202,
,,,,27,0,27,0,,,,,,,,,,,,,1221.6794871555612,None,,,,,,,,,,,,,,,,,,,,,,institute,D_new,27,162,1213.2121950612636,None,1213.2121950612636,None,1213.2121950612636,None,2,7.090853393034195,1213.2121950612636,None,1220.3624407538737,None,1220.3624407538737,None,1220.8792492380453,None,1220.8792492380453,None,1220.8792492380453,None,n,0.7509874354727799,1220.8792492380453,None,sing6,001,2019_Oct_24_1416,ProdFawcett_Revision2019,3.2.4,59.97907056465202,
,,,,28,0,28,0,,,,,,,,,,,,,1226.3474861603609,None,,,,,,,,,,,,,,,,,,,,,,build,B_aloud,28,35,1222.196647384466,None,1222.196647384466,None,1222.196647384466,None,6,1.4257700441521592,1222.196647384466,None,1223.6799732537183,None,1223.6799732537183,None,1224.1969471916382,None,1224.1969471916382,None,1224.1969471916382,None,f,2.105035143365967,1224.1969471916382,None,sing6,001,2019_Oct_24_1416,ProdFawcett_Revision2019,3.2.4,59.97907056465202,
,,,,29,0,29,0,,,,,,,,,,,,,1230.1654515767877,None,,,,,,,,,,,,,,,,,,,,,,weather,B_aloud,29,352,1226.864506437778,None,1226.864506437778,None,1226.864506437778,None,1,1.885379424027633,1226.864506437778,None,1228.815051626545,None,1228.815051626545,None,1229.3319456366298,None,1229.3319456366298,None,1229.3319456366298,None,n,0.7858241587382508,1229.3319456366298,None,sing6,001,2019_Oct_24_1416,ProdFawcett_Revision2019,3.2.4,59.97907056465202,
,,,,30,0,30,0,,,,,,,,,,,,,1239.2849465074396,None,,,,,,,,,,,,,,,,,,,,,,place,A_silent,30,222,1230.6826463270554,None,1230.6826463270554,None,1230.6826463270554,None,4,6.50705231075699,1230.6826463270554,None,1237.2415089879942,None,1237.2415089879942,None,1237.7678239099332,None,1237.7678239099332,None,1237.7678239099332,None,n,1.4694168688292848,1237.7678239099332,None,sing6,001,2019_Oct_24_1416,ProdFawcett_Revision2019,3.2.4,59.97907056465202,
,,,,31,0,31,0,,,,,,,,,,,,,1244.2863727685617,None,,,,,,,,,,,,,,,,,,,,,,mechanical,A_silent,31,185,1239.804469117371,None,1239.804469117371,None,1239.804469117371,None,3,3.1765783417213243,1239.804469117371,None,1243.0360608322517,None,1243.0360608322517,None,1243.552975057537,None,1243.552975057537,None,1243.552975057537,None,n,0.7003054052474909,1243.552975057537,None,sing6,001,2019_Oct_24_1416,ProdFawcett_Revision2019,3.2.4,59.97907056465202,
,,,,32,0,32,0,,,,,,,,,,,,,1247.3874475959456,None,,,,,,,,,,,,,,,,,,,,,,cover,C_sing,32,77,1244.8034530696023,None,1244.8034530696023,None,1244.8034530696023,None,2,1.658133669217932,1244.8034530696023,None,1246.5107663121307,None,1246.5107663121307,None,1247.0373421658296,None,1247.0373421658296,None,1247.0373421658296,None,n,0.3115301362267928,1247.0373421658296,None,sing6,001,2019_Oct_24_1416,ProdFawcett_Revision2019,3.2.4,59.97907056465202,
,,,,33,0,33,0,,,,,,,,,,,,,1250.755157678679,None,,,,,,,,,,,,,,,,,,,,,,object,B_aloud,33,204,1247.9097278721165,None,1247.9097278721165,None,1247.9097278721165,None,1,1.8553218884044327,1247.9097278721165,None,1249.8215071219747,None,1249.8215071219747,None,1250.340964110219,None,1250.340964110219,None,1250.340964110219,None,n,0.36757293027767446,1250.340964110219,None,sing6,001,2019_Oct_24_1416,ProdFawcett_Revision2019,3.2.4,59.97907056465202,
,,,,34,0,34,0,,,,,,,,,,,,,1254.5728910866455,None,,,,,,,,,,,,,,,,,,,,,,still,B_aloud,34,304,1251.2719798469916,None,1251.2719798469916,None,1251.2719798469916,None,2,2.11687908192107,1251.2719798469916,None,1253.43917428625,None,1253.43917428625,None,1253.956037818003,None,1253.956037818003,None,1253.956037818003,None,n,0.5843565341783687,1253.956037818003,None,sing6,001,2019_Oct_24_1416,ProdFawcett_Revision2019,3.2.4,59.97907056465202,
,,,,35,0,35,0,,,,,,,,,,,,,1259.0242871804512,None,,,,,,,,,,,,,,,,,,,,,,quick,C_sing,35,248,1255.091944081607,None,1255.091944081607,None,1255.091944081607,None,1,2.928217018095893,1255.091944081607,None,1258.0641714872181,None,1258.0641714872181,None,1258.5937049822824,None,1258.5937049822824,None,1258.5937049822824,None,n,0.3872075013932772,1258.5937049822824,None,sing6,001,2019_Oct_24_1416,ProdFawcett_Revision2019,3.2.4,59.97907056465202,
,,,,36,0,36,0,,,,,,,,,,,,,1262.925450332783,None,,,,,,,,,,,,,,,,,,,,,,birth,D_new,36,22,1259.541631212298,None,1259.541631212298,None,1259.541631212298,None,1,2.591052124160342,1259.541631212298,None,1262.1920432916668,None,1262.1920432916668,None,1262.7087351496011,None,1262.7087351496011,None,1262.7087351496011,None,n,0.1759675312496256,1262.7087351496011,None,sing6,001,2019_Oct_24_1416,ProdFawcett_Revision2019,3.2.4,59.97907056465202,
,,,,37,0,37,0,,,,,,,,,,,,,1266.2599701436848,None,,,,,,,,,,,,,,,,,,,,,,meeting,A_silent,37,187,1263.4426534801314,None,1263.4426534801314,None,1263.4426534801314,None,4,1.8896790446015075,1263.4426534801314,None,1265.3824889593816,None,1265.3824889593816,None,1265.90985600547,None,1265.90985600547,None,1265.90985600547,None,n,0.3019073832256254,1265.90985600547,None,sing6,001,2019_Oct_24_1416,ProdFawcett_Revision2019,3.2.4,59.97907056465202,
,,,,38,0,38,0,,,,,,,,,,,,,1269.8944470361457,None,,,,,,,,,,,,,,,,,,,,,,court,C_sing,38,75,1266.7784838589287,None,1266.7784838589287,None,1266.7784838589287,None,5,1.4330696025281213,1266.7784838589287,None,1268.2471309945977,None,1268.2471309945977,None,1268.7607137525629,None,1268.7607137525629,None,1268.7607137525629,None,f,1.0915525284653995,1268.7607137525629,None,sing6,001,2019_Oct_24_1416,ProdFawcett_Revision2019,3.2.4,59.97907056465202,
,,,,39,0,39,0,,,,,,,,,,,,,1273.3954733470164,None,,,,,,,,,,,,,,,,,,,,,,heavy,A_silent,39,151,1270.411493748834,None,1270.411493748834,None,1270.411493748834,None,2,1.631967095847358,1270.411493748834,None,1272.0951346644288,None,1272.0951346644288,None,1272.6118420725252,None,1272.6118420725252,None,1272.6118420725252,None,n,0.7438023263093783,1272.6118420725252,None,sing6,001,2019_Oct_24_1416,ProdFawcett_Revision2019,3.2.4,59.97907056465202,
,,,,40,0,40,0,,,,,,,,,,,,,1277.296730422342,None,,,,,,,,,,,,,,,,,,,,,,council,B_aloud,40,71,1273.912538408913,None,1273.912538408913,None,1273.912538408913,None,4,1.6110347079666099,1273.912538408913,None,1275.579586365624,None,1275.579586365624,None,1276.0963379361783,None,1276.0963379361783,None,1276.0963379361783,None,n,1.1547288051224314,1276.0963379361783,None,sing6,001,2019_Oct_24_1416,ProdFawcett_Revision2019,3.2.4,59.97907056465202,
,,,,41,0,41,0,,,,,,,,,,,,,1280.0142560801178,None,,,,,,,,,,,,,,,,,,,,,,universal,D_new,41,345,1277.8145499782258,None,1277.8145499782258,None,1277.8145499782258,None,1,1.3166536045318935,1277.8145499782258,None,1279.1806160975393,None,1279.1806160975393,None,1279.6974447969114,None,1279.6974447969114,None,1279.6974447969114,None,n,0.27418454935832415,1279.6974447969114,None,sing6,001,2019_Oct_24_1416,ProdFawcett_Revision2019,3.2.4,59.97907056465202,
,,,,42,0,42,0,,,,,,,,,,,,,1282.8484415624844,None,,,,,,,,,,,,,,,,,,,,,,close,B_aloud,42,53,1280.5309927225317,None,1280.5309927225317,None,1280.5309927225317,None,1,1.5925545810750918,1280.5309927225317,None,1282.1815108540177,None,1282.1815108540177,None,1282.69856409778,None,1282.69856409778,None,1282.69856409778,None,n,0.10414442993351258,1282.69856409778,None,sing6,001,2019_Oct_24_1416,ProdFawcett_Revision2019,3.2.4,59.97907056465202,
,,,,43,0,43,0,,,,,,,,,,,,,1286.73284723518,None,,,,,,,,,,,,,,,,,,,,,,grade,B_aloud,43,140,1283.3654742800281,None,1283.3654742800281,None,1283.3654742800281,None,1,2.6210303539119195,1283.3654742800281,None,1286.049456366236,None,1286.049456366236,None,1286.5663298501022,None,1286.5663298501022,None,1286.5663298501022,None,n,0.13252503576222807,1286.5663298501022,None,sing6,001,2019_Oct_24_1416,ProdFawcett_Revision2019,3.2.4,59.97907056465202,
,,,,44,0,44,0,,,,,,,,,,,,,1291.5177841015102,None,,,,,,,,,,,,,,,,,,,,,,chief,D_new,44,48,1287.249823039121,None,1287.249823039121,None,1287.249823039121,None,1,3.63263419791474,1287.249823039121,None,1290.9342675872467,None,1290.9342675872467,None,1291.4510079616884,None,1291.4510079616884,None,1291.4510079616884,None,n,0.023882565161329694,1291.4510079616884,None,sing6,001,2019_Oct_24_1416,ProdFawcett_Revision2019,3.2.4,59.97907056465202,
,,,,45,0,45,0,,,,,,,,,,,,,1295.8595695714466,None,,,,,,,,,,,,,,,,,,,,,,style,A_silent,45,311,1292.0348444983538,None,1292.0348444983538,None,1292.0348444983538,None,1,1.535229520421126,1292.0348444983538,None,1293.6350121291325,None,1293.6350121291325,None,1294.1520149903663,None,1294.1520149903663,None,1294.1520149903663,None,n,1.681941593575175,1294.1520149903663,None,sing6,001,2019_Oct_24_1416,ProdFawcett_Revision2019,3.2.4,59.97907056465202,
,,,,46,0,46,0,,,,,,,,,,,,,1298.4031402002875,None,,,,,,,,,,,,,,,,,,,,,,congress,D_new,46,67,1296.385927722833,None,1296.385927722833,None,1296.385927722833,None,1,1.2480811096611433,1296.385927722833,None,1297.686264539414,None,1297.686264539414,None,1298.2032123530516,None,1298.2032123530516,None,1298.2032123530516,None,n,0.15908813833084423,1298.2032123530516,None,sing6,001,2019_Oct_24_1416,ProdFawcett_Revision2019,3.2.4,59.97907056465202,
,,,,47,0,47,0,,,,,,,,,,,,,1303.354684331658,None,,,,,,,,,,,,,,,,,,,,,,guard,C_sing,47,145,1298.9207824843033,None,1298.9207824843033,None,1298.9207824843033,None,4,2.84160291099397,1298.9207824843033,None,1301.821248056236,None,1301.821248056236,None,1302.3377001306217,None,1302.3377001306217,None,1302.3377001306217,None,n,0.9764694905752549,1302.3377001306217,None,sing6,001,2019_Oct_24_1416,ProdFawcett_Revision2019,3.2.4,59.97907056465202,
,,,,48,0,48,0,,,,,,,,,,,,,1307.289211295647,None,,,,,,,,,,,,,,,,,,,,,,position,D_new,48,229,1303.872411830569,None,1303.872411830569,None,1303.872411830569,None,4,1.409366797277471,1303.872411830569,None,1305.3386857000733,None,1305.3386857000733,None,1305.8555902842636,None,1305.8555902842636,None,1305.8555902842636,None,f,1.3941092865570681,1305.8555902842636,None,sing6,001,2019_Oct_24_1416,ProdFawcett_Revision2019,3.2.4,59.97907056465202,
,,,,49,0,49,0,,,,,,,,,,,,,1311.3070893201511,None,,,,,,,,,,,,,,,,,,,,,,accident,C_sing,49,0,1307.8071418797044,None,1307.8071418797044,None,1307.8071418797044,None,2,2.538238477325649,1307.8071418797044,None,1310.406975492937,None,1310.406975492937,None,1310.923813833433,None,1310.923813833433,None,1310.923813833433,None,n,0.34964514523744583,1310.923813833433,None,sing6,001,2019_Oct_24_1416,ProdFawcett_Revision2019,3.2.4,59.97907056465202,
,,,,50,0,50,0,,,,,,,,,,,,,1314.0580851527047,None,,,,,,,,,,,,,,,,,,,,,,damage,D_new,50,83,1311.8253393046034,None,1311.8253393046034,None,1311.8253393046034,None,1,1.391896809116588,1311.8253393046034,None,1313.2636608198081,None,1313.2636608198081,None,1313.7914147539996,None,1313.7914147539996,None,1313.7914147539996,None,n,0.2338222305115778,1313.7914147539996,None,sing6,001,2019_Oct_24_1416,ProdFawcett_Revision2019,3.2.4,59.97907056465202,
,,,,51,0,51,0,,,,,,,,,,,,,1316.7923682901019,None,,,,,,,,,,,,,,,,,,,,,,touch,D_new,51,332,1314.57482583815,None,1314.57482583815,None,1314.57482583815,None,1,1.5300674877071287,1314.57482583815,None,1316.1587451016967,None,1316.1587451016967,None,1316.6754671269591,None,1316.6754671269591,None,1316.6754671269591,None,n,0.07767556136241183,1316.6754671269591,None,sing6,001,2019_Oct_24_1416,ProdFawcett_Revision2019,3.2.4,59.97907056465202,
,,,,52,0,52,0,,,,,,,,,,,,,1319.693198668916,None,,,,,,,,,,,,,,,,,,,,,,stranger,C_sing,52,309,1317.3104633949115,None,1317.3104633949115,None,1317.3104633949115,None,1,1.6665870498254662,1317.3104633949115,None,1319.0265690116357,None,1319.0265690116357,None,1319.543309697081,None,1319.543309697081,None,1319.543309697081,None,n,0.11334577346860897,1319.543309697081,None,sing6,001,2019_Oct_24_1416,ProdFawcett_Revision2019,3.2.4,59.97907056465202,
,,,,53,0,53,0,,,,,,,,,,,,,1323.594369907325,None,,,,,,,,,,,,,,,,,,,,,,research,D_new,53,261,1320.2114153760049,None,1320.2114153760049,None,1320.2114153760049,None,5,2.013236611310276,1320.2114153760049,None,1322.2657551160082,None,1322.2657551160082,None,1322.794169932211,None,1322.794169932211,None,1322.794169932211,None,f,0.7665870498167351,1322.794169932211,None,sing6,001,2019_Oct_24_1416,ProdFawcett_Revision2019,3.2.4,59.97907056465202,
,,,,54,0,54,0,,,,,,,,,,,,,1327.0954599738761,None,,,,,,,,,,,,,,,,,,,,,,guide,D_new,54,147,1324.1110751383967,None,1324.1110751383967,None,1324.1110751383967,None,5,1.9851800709147938,1324.1110751383967,None,1326.1481641475402,None,1326.1481641475402,None,1326.6618741058628,None,1326.6618741058628,None,1326.6618741058628,None,f,0.38622286495228764,1326.6618741058628,None,sing6,001,2019_Oct_24_1416,ProdFawcett_Revision2019,3.2.4,59.97907056465202,
,,,,55,0,55,0,,,,,,,,,,,,,1331.9803134913236,None,,,,,,,,,,,,,,,,,,,,,,member,B_aloud,55,188,1327.6122849412204,None,1327.6122849412204,None,1327.6122849412204,None,5,2.531970516894944,1327.6122849412204,None,1330.1964362132276,None,1330.1964362132276,None,1330.7130982148374,None,1330.7130982148374,None,1330.7130982148374,None,r,1.2307865273323841,1330.7130982148374,None,sing6,001,2019_Oct_24_1416,ProdFawcett_Revision2019,3.2.4,59.97907056465202,
,,,,56,0,56,0,,,,,,,,,,,,,1334.664482801527,None,,,,,,,,,,,,,,,,,,,,,,provision,D_new,56,243,1332.4981255831372,None,1332.4981255831372,None,1332.4981255831372,None,1,1.2776285998697858,1332.4981255831372,None,1333.8182170181099,None,1333.8182170181099,None,1334.3310490141157,None,1334.3310490141157,None,1334.3310490141157,None,n,0.29313273620209657,1334.3310490141157,None,sing6,001,2019_Oct_24_1416,ProdFawcett_Revision2019,3.2.4,59.97907056465202,
,,,,57,0,57,0,,,,,,,,,,,,,1340.999673757542,None,,,,,,,,,,,,,,,,,,,,,,frank,D_new,57,133,1335.182375132179,None,1335.182375132179,None,1335.182375132179,None,1,5.025805187528022,1335.182375132179,None,1340.2560200908192,None,1340.2560200908192,None,1340.7830649374955,None,1340.7830649374955,None,1340.7830649374955,None,n,0.16827641973213758,1340.7830649374955,None,sing6,001,2019_Oct_24_1416,ProdFawcett_Revision2019,3.2.4,59.97907056465202,
,,,,58,0,58,0,,,,,,,,,,,,,1343.5171114013792,None,,,,,,,,,,,,,,,,,,,,,,agreement,A_silent,58,5,1341.5164977918757,None,1341.5164977918757,None,1341.5164977918757,None,1,1.179152516022441,1341.5164977918757,None,1342.7502522236755,None,1342.7502522236755,None,1343.2671614729188,None,1343.2671614729188,None,1343.2671614729188,None,n,0.21206817192432936,1343.2671614729188,None,sing6,001,2019_Oct_24_1416,ProdFawcett_Revision2019,3.2.4,59.97907056465202,
,,,,59,0,59,0,,,,,,,,,,,,,1350.3359177707316,None,,,,,,,,,,,,,,,,,,,,,,working,C_sing,59,357,1344.0351365304523,None,1344.0351365304523,None,1344.0351365304523,None,1,5.484063569063437,1344.0351365304523,None,1349.5583006779925,None,1349.5583006779925,None,1350.0859429620032,None,1350.0859429620032,None,1350.0859429620032,None,n,0.21719506126828492,1350.0859429620032,None,sing6,001,2019_Oct_24_1416,ProdFawcett_Revision2019,3.2.4,59.97907056465202,
,,,,60,0,60,0,,,,,,,,,,,,,1352.586600422961,None,,,,,,,,,,,,,,,,,,,,,,orchestra,D_new,60,206,1350.854045530883,None,1350.854045530883,None,1350.854045530883,None,1,1.0414819307043217,1350.854045530883,None,1351.9530344591622,None,1351.9530344591622,None,1352.4700152391597,None,1352.4700152391597,None,1352.4700152391597,None,n,0.08084375194448512,1352.4700152391597,None,sing6,001,2019_Oct_24_1416,ProdFawcett_Revision2019,3.2.4,59.97907056465202,
,,,,61,0,61,0,,,,,,,,,,,,,1355.3208804503374,None,,,,,,,,,,,,,,,,,,,,,,mayor,D_new,61,183,1353.103752565774,None,1353.103752565774,None,1353.103752565774,None,2,1.4394094047456747,1353.103752565774,None,1354.6039593829773,None,1354.6039593829773,None,1355.1207902593742,None,1355.1207902593742,None,1355.1207902593742,None,n,0.15852615537005477,1355.1207902593742,None,sing6,001,2019_Oct_24_1416,ProdFawcett_Revision2019,3.2.4,59.97907056465202,
,,,,62,0,62,0,,,,,,,,,,,,,1360.2724031224789,None,,,,,,,,,,,,,,,,,,,,,,revolution,B_aloud,62,264,1355.840385955089,None,1355.840385955089,None,1355.840385955089,None,4,2.470412701368332,1355.840385955089,None,1358.3716865708848,None,1358.3716865708848,None,1358.8888673259935,None,1358.8888673259935,None,1358.8888673259935,None,n,1.349793804809451,1358.8888673259935,None,sing6,001,2019_Oct_24_1416,ProdFawcett_Revision2019,3.2.4,59.97907056465202,
,,,,63,0,63,0,,,,,,,,,,,,,1365.3072743671073,None,,,,,,,,,,,,,,,,,,,,,,production,C_sing,63,240,1360.7914265721192,None,1360.7914265721192,None,1360.7914265721192,None,4,3.5747776326461462,1360.7914265721192,None,1364.423729551534,None,1364.423729551534,None,1364.9413292280951,None,1364.9413292280951,None,1364.9413292280951,None,n,0.3208359768614173,1364.9413292280951,None,sing6,001,2019_Oct_24_1416,ProdFawcett_Revision2019,3.2.4,59.97907056465202,
,,,,64,0,64,0,,,,,,,,,,,,,1371.2258058095467,None,,,,,,,,,,,,,,,,,,,,,,poetry,D_new,64,225,1365.8253878211108,None,1365.8253878211108,None,1365.8253878211108,None,1,3.260744852887001,1365.8253878211108,None,1369.141682527843,None,1369.141682527843,None,1369.6586689058895,None,1369.6586689058895,None,1369.6586689058895,None,n,1.5235864900168963,1369.6586689058895,None,sing6,001,2019_Oct_24_1416,ProdFawcett_Revision2019,3.2.4,59.97907056465202,
,,,,65,0,65,0,,,,,,,,,,,,,1373.9098734216677,None,,,,,,,,,,,,,,,,,,,,,,school,D_new,65,274,1371.7431809417176,None,1371.7431809417176,None,1371.7431809417176,None,1,1.446394538783352,1371.7431809417176,None,1373.2272924052959,None,1373.2272924052959,None,1373.7432431423804,None,1373.7432431423804,None,1373.7432431423804,None,n,0.11821017603506334,1373.7432431423804,None,sing6,001,2019_Oct_24_1416,ProdFawcett_Revision2019,3.2.4,59.97907056465202,
,,,,66,0,66,0,,,,,,,,,,,,,1377.9445331840543,None,,,,,,,,,,,,,,,,,,,,,,search,B_aloud,66,276,1374.428222927163,None,1374.428222927163,None,1374.428222927163,None,4,1.9773303476977162,1374.428222927163,None,1376.4606356907461,None,1376.4606356907461,None,1376.9776357529481,None,1376.9776357529481,None,1376.9776357529481,None,f,0.9242327548709,1376.9776357529481,None,sing6,001,2019_Oct_24_1416,ProdFawcett_Revision2019,3.2.4,59.97907056465202,
,,,,67,0,67,0,,,,,,,,,,,,,1381.2620970952266,None,,,,,,,,,,,,,,,,,,,,,,broke,D_new,67,32,1378.4616355663456,None,1378.4616355663456,None,1378.4616355663456,None,4,1.5354304285574472,1378.4616355663456,None,1380.0617416184687,None,1380.0617416184687,None,1380.5786944081628,None,1380.5786944081628,None,1380.5786944081628,None,f,0.642588791451999,1380.5786944081628,None,sing6,001,2019_Oct_24_1416,ProdFawcett_Revision2019,3.2.4,59.97907056465202,
,,,,68,0,68,0,,,,,,,,,,,,,1385.0467372644198,None,,,,,,,,,,,,,,,,,,,,,,break,D_new,68,26,1381.7799294022552,None,1381.7799294022552,None,1381.7799294022552,None,2,2.536892455056659,1381.7799294022552,None,1384.3708310008078,None,1384.3708310008078,None,1384.8967189152172,None,1384.8967189152172,None,1384.8967189152172,None,n,0.1165018349129241,1384.8967189152172,None,sing6,001,2019_Oct_24_1416,ProdFawcett_Revision2019,3.2.4,59.97907056465202,
,,,,69,0,69,0,,,,,,,,,,,,,1387.380675810171,None,,,,,,,,,,,,,,,,,,,,,,health,D_new,69,149,1385.5653955961898,None,1385.5653955961898,None,1385.5653955961898,None,2,1.1113485102978302,1385.5653955961898,None,1386.7306067674363,None,1386.7306067674363,None,1387.2474388878618,None,1387.2474388878618,None,1387.2474388878618,None,n,0.0937379486131249,1387.2474388878618,None,sing6,001,2019_Oct_24_1416,ProdFawcett_Revision2019,3.2.4,59.97907056465202,
,,,,70,0,70,0,,,,,,,,,,,,,1390.815190023015,None,,,,,,,,,,,,,,,,,,,,,,discussion,B_aloud,70,96,1387.9005458107858,None,1387.9005458107858,None,1387.9005458107858,None,5,1.9519770479673753,1387.9005458107858,None,1389.9050982770423,None,1389.9050982770423,None,1390.4318311874085,None,1390.4318311874085,None,1390.4318311874085,None,f,0.3489257946202997,1390.4318311874085,None,sing6,001,2019_Oct_24_1416,ProdFawcett_Revision2019,3.2.4,59.97907056465202,
,,,,71,0,71,0,,,,,,,,,,,,,1395.7500597126345,None,,,,,,,,,,,,,,,,,,,,,,budget,B_aloud,71,34,1391.3320392486203,None,1391.3320392486203,None,1391.3320392486203,None,1,3.6802155252808006,1391.3320392486203,None,1395.0543922995566,None,1395.0543922995566,None,1395.566576475714,None,1395.566576475714,None,1395.566576475714,None,n,0.14203924861794803,1395.566576475714,None,sing6,001,2019_Oct_24_1416,ProdFawcett_Revision2019,3.2.4,59.97907056465202,
,,,,72,0,72,0,,,,,,,,,,,,,1399.8014159980085,None,,,,,,,,,,,,,,,,,,,,,,tragedy,B_aloud,72,335,1396.2674320457882,None,1396.2674320457882,None,1396.2674320457882,None,6,1.9205821981595363,1396.2674320457882,None,1398.2507675561355,None,1398.2507675561355,None,1398.7676708963118,None,1398.7676708963118,None,1398.7676708963118,None,r,0.9962950177286984,1398.7676708963118,None,sing6,001,2019_Oct_24_1416,ProdFawcett_Revision2019,3.2.4,59.97907056465202,
,,,,73,0,73,0,,,,,,,,,,,,,1407.6537068483012,None,,,,,,,,,,,,,,,,,,,,,,history,D_new,73,153,1400.3194174908276,None,1400.3194174908276,None,1400.3194174908276,None,5,6.55677893885877,1400.3194174908276,None,1406.93675094856,None,1406.93675094856,None,1407.453573427876,None,1407.453573427876,None,1407.453573427876,None,f,0.15866299683693796,1407.453573427876,None,sing6,001,2019_Oct_24_1416,ProdFawcett_Revision2019,3.2.4,59.97907056465202,
,,,,74,0,74,0,,,,,,,,,,,,,1415.6895941406983,None,,,,,,,,,,,,,,,,,,,,,,appeal,A_silent,74,9,1408.170458729859,None,1408.170458729859,None,1408.170458729859,None,4,6.84874758971273,1408.170458729859,None,1415.0731638365396,None,1415.0731638365396,None,1415.589524786963,None,1415.589524786963,None,1415.589524786963,None,f,0.06157616470591165,1415.589524786963,None,sing6,001,2019_Oct_24_1416,ProdFawcett_Revision2019,3.2.4,59.97907056465202,
,,,,75,0,75,0,,,,,,,,,,,,,1419.790859302113,None,,,,,,,,,,,,,,,,,,,,,,broad,C_sing,75,31,1416.2064719785994,None,1416.2064719785994,None,1416.2064719785994,None,4,2.5643605772202136,1416.2064719785994,None,1418.8238579958997,None,1418.8238579958997,None,1419.3406982024026,None,1419.3406982024026,None,1419.3406982024026,None,f,0.4067285563214682,1419.3406982024026,None,sing6,001,2019_Oct_24_1416,ProdFawcett_Revision2019,3.2.4,59.97907056465202,
,,,,76,0,76,0,,,,,,,,,,,,,1422.1916125520947,None,,,,,,,,,,,,,,,,,,,,,,burden,D_new,76,36,1420.29880388132,None,1420.29880388132,None,1420.29880388132,None,1,1.0879029047791846,1420.29880388132,None,1421.4319045841985,None,1421.4319045841985,None,1421.9581806307106,None,1421.9581806307106,None,1421.9581806307106,None,n,0.1885357964783907,1421.9581806307106,None,sing6,001,2019_Oct_24_1416,ProdFawcett_Revision2019,3.2.4,59.97907056465202,
,,,,77,0,77,0,,,,,,,,,,,,,1424.7590694781393,None,,,,,,,,,,,,,,,,,,,,,,relation,A_silent,77,257,1422.7091151956265,None,1422.7091151956265,None,1422.7091151956265,None,1,1.269398830627324,1422.7091151956265,None,1424.042150587804,None,1424.042150587804,None,1424.5589861292538,None,1424.5589861292538,None,1424.5589861292538,None,n,0.1555150214699097,1424.5589861292538,None,sing6,001,2019_Oct_24_1416,ProdFawcett_Revision2019,3.2.4,59.97907056465202,
,,,,78,0,78,0,,,,,,,,,,,,,1438.6132397213369,None,,,,,,,,,,,,,,,,,,,,,,running,D_new,78,268,1425.2773415438278,None,1425.2773415438278,None,1425.2773415438278,None,1,12.661260496359318,1425.2773415438278,None,1437.996417553033,None,1437.996417553033,None,1438.5132848168287,None,1438.5132848168287,None,1438.5132848168287,None,n,0.06457454749033786,1438.5132848168287,None,sing6,001,2019_Oct_24_1416,ProdFawcett_Revision2019,3.2.4,59.97907056465202,
,,,,79,0,79,0,,,,,,,,,,,,,1442.9813469552755,None,,,,,,,,,,,,,,,,,,,,,,course,D_new,79,74,1439.1300270572829,None,1439.1300270572829,None,1439.1300270572829,None,1,3.1119058282056358,1439.1300270572829,None,1442.2851461715472,None,1442.2851461715472,None,1442.8145048827573,None,1442.8145048827573,None,1442.8145048827573,None,n,0.13112054487282876,1442.8145048827573,None,sing6,001,2019_Oct_24_1416,ProdFawcett_Revision2019,3.2.4,59.97907056465202,
,,,,80,0,80,0,,,,,,,,,,,,,1445.5153660508804,None,,,,,,,,,,,,,,,,,,,,,,leader,A_silent,80,168,1443.4981638365425,None,1443.4981638365425,None,1443.4981638365425,None,2,1.263206754985731,1443.4981638365425,None,1444.8041596690891,None,1444.8041596690891,None,1445.3319263544254,None,1445.3319263544254,None,1445.3319263544254,None,n,0.1422068793908693,1445.3319263544254,None,sing6,001,2019_Oct_24_1416,ProdFawcett_Revision2019,3.2.4,59.97907056465202,
,,,,81,0,81,0,,,,,,,,,,,,,1448.8498423213314,None,,,,,,,,,,,,,,,,,,,,,,appearance,D_new,81,10,1446.0322902282787,None,1446.0322902282787,None,1446.0322902282787,None,4,2.0968971201073145,1446.0322902282787,None,1448.182874914477,None,1448.182874914477,None,1448.6996522983245,None,1448.6996522983245,None,1448.6996522983245,None,f,0.10991167505562771,1448.6996522983245,None,sing6,001,2019_Oct_24_1416,ProdFawcett_Revision2019,3.2.4,59.97907056465202,
,,,,82,0,82,0,,,,,,,,,,,,,1451.6005797101534,None,,,,,,,,,,,,,,,,,,,,,,color,D_new,82,56,1449.3667991540715,None,1449.3667991540715,None,1449.3667991540715,None,1,1.4264918828121154,1449.3667991540715,None,1450.8504857871594,None,1450.8504857871594,None,1451.3671779560827,None,1451.3671779560827,None,1451.3671779560827,None,n,0.1857753312215209,1451.3671779560827,None,sing6,001,2019_Oct_24_1416,ProdFawcett_Revision2019,3.2.4,59.97907056465202,
,,,,83,0,83,0,,,,,,,,,,,,,1453.95499720097,None,,,,,,,,,,,,,,,,,,,,,,bucket,D_new,83,33,1452.1183902469347,None,1452.1183902469347,None,1452.1183902469347,None,1,1.1306201405677712,1452.1183902469347,None,1453.2911317410035,None,1453.2911317410035,None,1453.803946009837,None,1453.803946009837,None,1453.803946009837,None,n,0.1252341854851693,1453.803946009837,None,sing6,001,2019_Oct_24_1416,ProdFawcett_Revision2019,3.2.4,59.97907056465202,
,,,,84,0,84,0,,,,,,,,,,,,,1459.8531314922002,None,,,,,,,,,,,,,,,,,,,,,,public,A_silent,84,244,1454.484801890896,None,1454.484801890896,None,1454.484801890896,None,1,4.508373141754419,1454.484801890896,None,1459.0529252970155,None,1459.0529252970155,None,1459.5698578714946,None,1459.5698578714946,None,1459.5698578714946,None,n,0.2386070162319811,1459.5698578714946,None,sing6,001,2019_Oct_24_1416,ProdFawcett_Revision2019,3.2.4,59.97907056465202,
,,,,85,0,85,0,,,,,,,,,,,,,1462.3205632269674,None,,,,,,,,,,,,,,,,,,,,,,capital,C_sing,85,40,1460.3702002861246,None,1460.3702002861246,None,1460.3702002861246,None,1,1.190886048381799,1460.3702002861246,None,1461.6204913852125,None,1461.6204913852125,None,1462.137148721784,None,1462.137148721784,None,1462.137148721784,None,n,0.14362287739641033,1462.137148721784,None,sing6,001,2019_Oct_24_1416,ProdFawcett_Revision2019,3.2.4,59.97907056465202,
,,,,86,0,86,0,,,,,,,,,,,,,1464.9547144989774,None,,,,,,,,,,,,,,,,,,,,,,weight,A_silent,86,353,1462.8381601044966,None,1462.8381601044966,None,1462.8381601044966,None,1,1.2664393232553266,1462.8381601044966,None,1464.154476270458,None,1464.154476270458,None,1464.6713970268174,None,1464.6713970268174,None,1464.6713970268174,None,n,0.24163898736878764,1464.6713970268174,None,sing6,001,2019_Oct_24_1416,ProdFawcett_Revision2019,3.2.4,59.97907056465202,
,,,,87,0,87,0,,,,,,,,,,,,,1474.7077421160648,None,,,,,,,,,,,,,,,,,,,,,,treatment,D_new,87,339,1465.473194625869,None,1465.473194625869,None,1465.473194625869,None,2,8.510781551289256,1465.473194625869,None,1474.0409721963078,None,1474.0409721963078,None,1474.5576752503548,None,1474.5576752503548,None,1474.5576752503548,None,n,0.11413136777991895,1474.5576752503548,None,sing6,001,2019_Oct_24_1416,ProdFawcett_Revision2019,3.2.4,59.97907056465202,
,,,,88,0,88,0,,,,,,,,,,,,,1477.0419027181779,None,,,,,,,,,,,,,,,,,,,,,,harmony,D_new,88,148,1475.226125831934,None,1475.226125831934,None,1475.226125831934,None,1,1.1577853455237346,1475.226125831934,None,1476.4417475275259,None,1476.4417475275259,None,1476.9584169932205,None,1476.9584169932205,None,1476.9584169932205,None,n,0.04187597188865766,1476.9584169932205,None,sing6,001,2019_Oct_24_1416,ProdFawcett_Revision2019,3.2.4,59.97907056465202,
,,,,89,0,89,0,,,,,,,,,,,,,1480.276220376938,None,,,,,,,,,,,,,,,,,,,,,,oxygen,B_aloud,89,209,1477.5586259874399,None,1477.5586259874399,None,1477.5586259874399,None,1,1.1367378864233615,1477.5586259874399,None,1478.7590554829949,None,1478.7590554829949,None,1479.2759345649101,None,1479.2759345649101,None,1479.2759345649101,None,n,0.9633687877067132,1479.2759345649101,None,sing6,001,2019_Oct_24_1416,ProdFawcett_Revision2019,3.2.4,59.97907056465202,
,,,,90,0,90,0,,,,,,,,,,,,,1488.1286903651198,None,,,,,,,,,,,,,,,,,,,,,,permit,B_aloud,90,218,1480.7942128506547,None,1480.7942128506547,None,1480.7942128506547,None,1,1.2054761460458394,1480.7942128506547,None,1482.0600597126322,None,1482.0600597126322,None,1482.5769649188296,None,1482.5769649188296,None,1482.5769649188296,None,f,5.510700068422011,1482.5769649188296,None,sing6,001,2019_Oct_24_1416,ProdFawcett_Revision2019,3.2.4,59.97907056465202,
,,,,91,0,91,0,,,,,,,,,,,,,1500.582540585936,None,,,,,,,,,,,,,,,,,,,,,,column,A_silent,91,57,1488.6460704733472,None,1488.6460704733472,None,1488.6460704733472,None,4,10.14488492878445,1488.6460704733472,None,1498.8355912172701,None,1498.8355912172701,None,1499.3653505007242,None,1499.3653505007242,None,1499.3653505007242,None,f,1.1770905641606078,1499.3653505007242,None,sing6,001,2019_Oct_24_1416,ProdFawcett_Revision2019,3.2.4,59.97907056465202,
,,,,92,0,92,0,,,,,,,,,,,,,1503.9335560117033,None,,,,,,,,,,,,,,,,,,,,,,suggestion,C_sing,92,314,1501.1012455682067,None,1501.1012455682067,None,1501.1012455682067,None,6,1.5286679728742456,1501.1012455682067,None,1502.6682717546792,None,1502.6682717546792,None,1503.1835805809533,None,1503.1835805809533,None,1503.1835805809533,None,r,0.7107404988491908,1503.1835805809533,None,sing6,001,2019_Oct_24_1416,ProdFawcett_Revision2019,3.2.4,59.97907056465202,
,,,,93,0,93,0,,,,,,,,,,,,,1508.6849807177932,None,,,,,,,,,,,,,,,,,,,,,,couch,B_aloud,93,70,1504.4512887976598,None,1504.4512887976598,None,1504.4512887976598,None,5,2.6667664987180615,1504.4512887976598,None,1507.1679072588158,None,1507.1679072588158,None,1507.6847546184,None,1507.6847546184,None,1507.6847546184,None,r,0.952881134551717,1507.6847546184,None,sing6,001,2019_Oct_24_1416,ProdFawcett_Revision2019,3.2.4,59.97907056465202,
,,,,94,0,94,0,,,,,,,,,,,,,1513.9199751197448,None,,,,,,,,,,,,,,,,,,,,,,education,D_new,94,108,1509.2040881383436,None,1509.2040881383436,None,1509.2040881383436,None,4,4.058120296074776,1509.2040881383436,None,1513.3197726565995,None,1513.3197726565995,None,1513.8366974559904,None,1513.8366974559904,None,1513.8366974559904,None,f,0.04892610562092159,1513.8366974559904,None,sing6,001,2019_Oct_24_1416,ProdFawcett_Revision2019,3.2.4,59.97907056465202,
,,,,95,0,95,0,,,,,,,,,,,,,1517.1209893014893,None,,,,,,,,,,,,,,,,,,,,,,colonel,C_sing,95,55,1514.4383862038958,None,1514.4383862038958,None,1514.4383862038958,None,6,1.3110984636441572,1514.4383862038958,None,1515.8037628288876,None,1515.8037628288876,None,1516.3207526279875,None,1516.3207526279875,None,1516.3207526279875,None,r,0.7570980282325763,1516.3207526279875,None,sing6,001,2019_Oct_24_1416,ProdFawcett_Revision2019,3.2.4,59.97907056465202,
,,,,96,0,96,0,,,,,,,,,,,,,1522.4726618772256,None,,,,,,,,,,,,,,,,,,,,,,smell,C_sing,96,291,1517.6392056975892,None,1517.6392056975892,None,1517.6392056975892,None,3,3.374461031286046,1517.6392056975892,None,1521.0602708838705,None,1521.0602708838705,None,1521.5889074454171,None,1521.5889074454171,None,1521.5889074454171,None,n,0.8481265161390183,1521.5889074454171,None,sing6,001,2019_Oct_24_1416,ProdFawcett_Revision2019,3.2.4,59.97907056465202,
,,,,97,0,97,0,,,,,,,,,,,,,1525.3902233003755,None,,,,,,,,,,,,,,,,,,,,,,period,C_sing,97,217,1522.9914887727791,None,1522.9914887727791,None,1522.9914887727791,None,6,1.3414713566016871,1522.9914887727791,None,1524.3898224171135,None,1524.3898224171135,None,1524.906753125586,None,1524.906753125586,None,1524.906753125586,None,r,0.442932450081571,1524.906753125586,None,sing6,001,2019_Oct_24_1416,ProdFawcett_Revision2019,3.2.4,59.97907056465202,
,,,,98,0,98,0,,,,,,,,,,,,,1532.9590974684397,None,,,,,,,,,,,,,,,,,,,,,,escape,A_silent,98,118,1525.9081361572462,None,1525.9081361572462,None,1525.9081361572462,None,2,6.296329539094586,1525.9081361572462,None,1532.2480646264885,None,1532.2480646264885,None,1532.7759818374034,None,1532.7759818374034,None,1532.7759818374034,None,n,0.14097872737329453,1532.7759818374034,None,sing6,001,2019_Oct_24_1416,ProdFawcett_Revision2019,3.2.4,59.97907056465202,
,,,,99,0,99,0,,,,,,,,,,,,,1535.6600575356133,None,,,,,,,,,,,,,,,,,,,,,,concern,D_new,99,65,1533.4762822665944,None,1533.4762822665944,None,1533.4762822665944,None,1,1.3678581202984788,1533.4762822665944,None,1534.8931423773174,None,1534.8931423773174,None,1535.4099486844643,None,1535.4099486844643,None,1535.4099486844643,None,n,0.21051191142760217,1535.4099486844643,None,sing6,001,2019_Oct_24_1416,ProdFawcett_Revision2019,3.2.4,59.97907056465202,
,,,,100,0,100,0,,,,,,,,,,,,,1537.9774466629315,None,,,,,,,,,,,,,,,,,,,,,,evidence,D_new,100,120,1536.1770883871359,None,1536.1770883871359,None,1536.1770883871359,None,1,1.154829259190592,1536.1770883871359,None,1537.3782387883402,None,1537.3782387883402,None,1537.8940840953,None,1537.8940840953,None,1537.8940840953,None,n,0.04588045032869559,1537.8940840953,None,sing6,001,2019_Oct_24_1416,ProdFawcett_Revision2019,3.2.4,59.97907056465202,
,,,,101,0,101,0,,,,,,,,,,,,,1540.32818716178,None,,,,,,,,,,,,,,,,,,,,,,junior,D_new,101,167,1538.4981678795884,None,1538.4981678795884,None,1538.4981678795884,None,1,0.7703408596134977,1538.4981678795884,None,1539.327885177583,None,1539.327885177583,None,1539.846383964672,None,1539.846383964672,None,1539.846383964672,None,n,0.44547334701928776,1539.846383964672,None,sing6,001,2019_Oct_24_1416,ProdFawcett_Revision2019,3.2.4,59.97907056465202,
,,,,102,0,102,0,,,,,,,,,,,,,1542.3954864091647,None,,,,,,,,,,,,,,,,,,,,,,victory,D_new,102,346,1540.846300926787,None,1540.846300926787,None,1540.846300926787,None,1,0.7098858617973747,1540.846300926787,None,1541.6118013310916,None,1541.6118013310916,None,1542.1287541208003,None,1542.1287541208003,None,1542.1287541208003,None,n,0.2189721340982942,1542.1287541208003,None,sing6,001,2019_Oct_24_1416,ProdFawcett_Revision2019,3.2.4,59.97907056465202,
,,,,103,0,103,0,,,,,,,,,,,,,1544.6627057286823,None,,,,,,,,,,,,,,,,,,,,,,season,A_silent,103,277,1542.9129476892558,None,1542.9129476892558,None,1542.9129476892558,None,1,0.9547546184039675,1542.9129476892558,None,1543.9180217080284,None,1543.9180217080284,None,1544.4494529452058,None,1544.4494529452058,None,1544.4494529452058,None,n,0.17825402748712804,1544.4494529452058,None,sing6,001,2019_Oct_24_1416,ProdFawcett_Revision2019,3.2.4,59.97907056465202,
,,,,104,0,104,0,,,,,,,,,,,,,1549.06417957331,None,,,,,,,,,,,,,,,,,,,,,,spoke,D_new,104,300,1545.1802316974645,None,1545.1802316974645,None,1545.1802316974645,None,1,2.823706537295948,1545.1802316974645,None,1548.0536897431157,None,1548.0536897431157,None,1548.5808757852792,None,1548.5808757852792,None,1548.5808757852792,None,n,0.4464956148440251,1548.5808757852792,None,sing6,001,2019_Oct_24_1416,ProdFawcett_Revision2019,3.2.4,59.97907056465202,
,,,,105,0,105,0,,,,,,,,,,,,,1552.4651455495477,None,,,,,,,,,,,,,,,,,,,,,,commercial,A_silent,105,61,1549.5826730733388,None,1549.5826730733388,None,1549.5826730733388,None,1,2.0768243453348987,1549.5826730733388,None,1551.714975119743,None,1551.714975119743,None,1552.2318940100813,None,1552.2318940100813,None,1552.2318940100813,None,n,0.18718479815288447,1552.2318940100813,None,sing6,001,2019_Oct_24_1416,ProdFawcett_Revision2019,3.2.4,59.97907056465202,
,,,,106,0,106,0,,,,,,,,,,,,,1557.5333622566395,None,,,,,,,,,,,,,,,,,,,,,,passage,A_silent,106,212,1552.9830786216335,None,1552.9830786216335,None,1552.9830786216335,None,1,3.619737513217842,1552.9830786216335,None,1556.6665251601662,None,1556.6665251601662,None,1557.1834101511486,None,1557.1834101511486,None,1557.1834101511486,None,n,0.31567923120746855,1557.1834101511486,None,sing6,001,2019_Oct_24_1416,ProdFawcett_Revision2019,3.2.4,59.97907056465202,
,,,,107,0,107,0,,,,,,,,,,,,,1561.584655097351,None,,,,,,,,,,,,,,,,,,,,,,clear,A_silent,107,52,1558.0512558313203,None,1558.0512558313203,None,1558.0512558313203,None,3,2.6793528021371458,1558.0512558313203,None,1560.7742119176546,None,1560.7742119176546,None,1561.3013550413598,None,1561.3013550413598,None,1561.3013550413598,None,n,0.23719817129313014,1561.3013550413598,None,sing6,001,2019_Oct_24_1416,ProdFawcett_Revision2019,3.2.4,59.97907056465202,
,,,,108,0,108,0,,,,,,,,,,,,,1564.735755427013,None,,,,,,,,,,,,,,,,,,,,,,taste,B_aloud,108,322,1562.102130061583,None,1562.102130061583,None,1562.102130061583,None,2,1.9005293276131852,1562.102130061583,None,1564.052109846365,None,1564.052109846365,None,1564.5690082104848,None,1564.5690082104848,None,1564.5690082104848,None,n,0.12943459600501228,1564.5690082104848,None,sing6,001,2019_Oct_24_1416,ProdFawcett_Revision2019,3.2.4,59.97907056465202,
,,,,109,0,109,0,,,,,,,,,,,,,1568.1034480935486,None,,,,,,,,,,,,,,,,,,,,,,detective,D_new,109,92,1565.2538667039917,None,1565.2538667039917,None,1565.2538667039917,None,1,2.0607569820276694,1565.2538667039917,None,1567.369693661749,None,1567.369693661749,None,1567.8868209243083,None,1567.8868209243083,None,1567.8868209243083,None,n,0.17134726628137287,1567.8868209243083,None,sing6,001,2019_Oct_24_1416,ProdFawcett_Revision2019,3.2.4,59.97907056465202,
,,,,110,0,110,0,,,,,,,,,,,,,1571.421017291781,None,,,,,,,,,,,,,,,,,,,,,,executive,D_new,110,122,1568.6219944641489,None,1568.6219944641489,None,1568.6219944641489,None,2,2.1162533432943746,1568.6219944641489,None,1570.787505131564,None,1570.787505131564,None,1571.3043742613663,None,1571.3043742613663,None,1571.3043742613663,None,n,0.07435560117301065,1571.3043742613663,None,sing6,001,2019_Oct_24_1416,ProdFawcett_Revision2019,3.2.4,59.97907056465202,
,,,,111,0,111,0,,,,,,,,,,,,,1573.9384499595762,None,,,,,,,,,,,,,,,,,,,,,,balance,B_aloud,111,17,1571.9383330223354,None,1571.9383330223354,None,1571.9383330223354,None,1,1.1515792747377418,1571.9383330223354,None,1573.144617776954,None,1573.144617776954,None,1573.67168501587,None,1573.67168501587,None,1573.67168501587,None,n,0.22643745724053588,1573.67168501587,None,sing6,001,2019_Oct_24_1416,ProdFawcett_Revision2019,3.2.4,59.97907056465202,
,,,,112,0,112,0,,,,,,,,,,,,,1576.5227119487536,None,,,,,,,,,,,,,,,,,,,,,,incident,D_new,112,158,1574.4418688188161,None,1574.4418688188161,None,1574.4418688188161,None,1,1.4083059650438372,1574.4418688188161,None,1575.8950304783211,None,1575.8950304783211,None,1576.4226699633,None,1576.4226699633,None,1576.4226699633,None,n,0.059281582391122356,1576.4226699633,None,sing6,001,2019_Oct_24_1416,ProdFawcett_Revision2019,3.2.4,59.97907056465202,
,,,,113,0,113,0,,,,,,,,,,,,,1578.4566912359296,None,,,,,,,,,,,,,,,,,,,,,,platform,D_new,113,224,1577.0397297381423,None,1577.0397297381423,None,1577.0397297381423,None,1,0.6587034272524761,1577.0397297381423,None,1577.756349754316,None,1577.756349754316,None,1578.2732064439915,None,1578.2732064439915,None,1578.2732064439915,None,n,0.13636157242581248,1578.2732064439915,None,sing6,001,2019_Oct_24_1416,ProdFawcett_Revision2019,3.2.4,59.97907056465202,
,,,,114,0,114,0,,,,,,,,,,,,,1580.3738925172656,None,,,,,,,,,,,,,,,,,,,,,,surface,D_new,114,316,1578.9750877029292,None,1578.9750877029292,None,1578.9750877029292,None,1,0.6824678111588582,1578.9750877029292,None,1579.7069198233512,None,1579.7069198233512,None,1580.2238682590105,None,1580.2238682590105,None,1580.2238682590105,None,n,0.11360017415427137,1580.2238682590105,None,sing6,001,2019_Oct_24_1416,ProdFawcett_Revision2019,3.2.4,59.97907056465202,
,,,,115,0,115,0,,,,,,,,,,,,,1583.5081887168053,None,,,,,,,,,,,,,,,,,,,,,,space,C_sing,115,297,1580.8922311376518,None,1580.8922311376518,None,1580.8922311376518,None,2,1.941571188654052,1580.8922311376518,None,1582.8816259252344,None,1582.8816259252344,None,1583.4081613485178,None,1583.4081613485178,None,1583.4081613485178,None,n,0.06525253468134906,1583.4081613485178,None,sing6,001,2019_Oct_24_1416,ProdFawcett_Revision2019,3.2.4,59.97907056465202,
,,,,116,0,116,0,,,,,,,,,,,,,1586.0588514648261,None,,,,,,,,,,,,,,,,,,,,,,reach,B_aloud,116,253,1584.0250311003329,None,1584.0250311003329,None,1584.0250311003329,None,1,0.7361706164083444,1584.0250311003329,None,1584.825306649247,None,1584.825306649247,None,1585.3419972631673,None,1585.3419972631673,None,1585.3419972631673,None,n,0.683592710076482,1585.3419972631673,None,sing6,001,2019_Oct_24_1416,ProdFawcett_Revision2019,3.2.4,59.97907056465202,
,,,,117,0,117,0,,,,,,,,,,,,,1588.0928388380999,None,,,,,,,,,,,,,,,,,,,,,,fellow,D_new,117,126,1586.576092554591,None,1586.576092554591,None,1586.576092554591,None,1,0.7451536356238648,1586.576092554591,None,1587.3759625552048,None,1587.3759625552048,None,1587.8927474031225,None,1587.8927474031225,None,1587.8927474031225,None,n,0.16446196430479176,1587.8927474031225,None,sing6,001,2019_Oct_24_1416,ProdFawcett_Revision2019,3.2.4,59.97907056465202,
,,,,118,0,118,0,,,,,,,,,,,,,1591.827423337687,None,,,,,,,,,,,,,,,,,,,,,,sleep,C_sing,118,290,1588.6101072961465,None,1588.6101072961465,None,1588.6101072961465,None,4,1.9272376687295036,1588.6101072961465,None,1590.5937261304935,None,1590.5937261304935,None,1591.1105821981764,None,1591.1105821981764,None,1591.1105821981764,None,f,0.6749788517772686,1591.1105821981764,None,sing6,001,2019_Oct_24_1416,ProdFawcett_Revision2019,3.2.4,59.97907056465202,
,,,,119,0,119,0,,,,,,,,,,,,,1595.8953495677124,None,,,,,,,,,,,,,,,,,,,,,,prime,D_new,119,235,1592.3451943770633,None,1592.3451943770633,None,1592.3451943770633,None,2,2.8315005908953026,1592.3451943770633,None,1595.2171748460532,None,1595.2171748460532,None,1595.745185046966,None,1595.745185046966,None,1595.745185046966,None,n,0.10335603657586034,1595.745185046966,None,sing6,001,2019_Oct_24_1416,ProdFawcett_Revision2019,3.2.4,59.97907056465202,
,,,,120,0,120,0,,,,,,,,,,,,,1598.2794476581475,None,,,,,,,,,,,,,,,,,,,,,,trend,D_new,120,340,1596.4120921191789,None,1596.4120921191789,None,1596.4120921191789,None,1,1.1725405859324383,1596.4120921191789,None,1597.6458670771972,None,1597.6458670771972,None,1598.162761398271,None,1598.162761398271,None,1598.162761398271,None,n,0.06966225043288432,1598.162761398271,None,sing6,001,2019_Oct_24_1416,ProdFawcett_Revision2019,3.2.4,59.97907056465202,
,,,,121,0,121,0,,,,,,,,,,,,,1600.5301648317545,None,,,,,,,,,,,,,,,,,,,,,,session,D_new,121,281,1598.7980835976923,None,1598.7980835976923,None,1598.7980835976923,None,1,1.0022186975256773,1598.7980835976923,None,1599.8631737886462,None,1599.8631737886462,None,1600.3800895689492,None,1600.3800895689492,None,1600.3800895689492,None,n,0.10905548298615031,1600.3800895689492,None,sing6,001,2019_Oct_24_1416,ProdFawcett_Revision2019,3.2.4,59.97907056465202,
,,,,122,0,122,0,,,,,,,,,,,,,1602.9975775953208,None,,,,,,,,,,,,,,,,,,,,,,bitter,D_new,122,23,1601.0481134540023,None,1601.0481134540023,None,1601.0481134540023,None,1,0.5360956646036357,1601.0481134540023,None,1601.6345602413348,None,1601.6345602413348,None,1602.163875723083,None,1602.163875723083,None,1602.163875723083,None,n,0.7963478882884374,1602.163875723083,None,sing6,001,2019_Oct_24_1416,ProdFawcett_Revision2019,3.2.4,59.97907056465202,
,,,,123,0,123,0,,,,,,,,,,,,,1606.5485690738424,None,,,,,,,,,,,,,,,,,,,,,,write,A_silent,123,358,1603.5143982086302,None,1603.5143982086302,None,1603.5143982086302,None,2,1.926277912541991,1603.5143982086302,None,1605.4982126640534,None,1605.4982126640534,None,1606.0150920569722,None,1606.0150920569722,None,1606.0150920569722,None,n,0.4969913541135611,1606.0150920569722,None,sing6,001,2019_Oct_24_1416,ProdFawcett_Revision2019,3.2.4,59.97907056465202,
,,,,124,0,124,0,,,,,,,,,,,,,1611.5668943210767,None,,,,,,,,,,,,,,,,,,,,,,pretty,D_new,124,233,1607.0659326988825,None,1607.0659326988825,None,1607.0659326988825,None,2,2.8138990483275848,1607.0659326988825,None,1609.9330602724367,None,1609.9330602724367,None,1610.4497256951,None,1610.4497256951,None,1610.4497256951,None,n,1.0699474404391367,1610.4497256951,None,sing6,001,2019_Oct_24_1416,ProdFawcett_Revision2019,3.2.4,59.97907056465202,
,,,,125,0,125,0,,,,,,,,,,,,,1615.7847312931553,None,,,,,,,,,,,,,,,,,,,,,,narrow,D_new,125,197,1612.0842414629587,None,1612.0842414629587,None,1612.0842414629587,None,1,2.9079644834127976,1612.0842414629587,None,1615.0417301113484,None,1615.0417301113484,None,1615.568125272126,None,1615.568125272126,None,1615.568125272126,None,n,0.16731573054858018,1615.568125272126,None,sing6,001,2019_Oct_24_1416,ProdFawcett_Revision2019,3.2.4,59.97907056465202,
,,,,126,0,126,0,,,,,,,,,,,,,1618.9526273558586,None,,,,,,,,,,,,,,,,,,,,,,judge,D_new,126,166,1616.3058997325425,None,1616.3058997325425,None,1616.3058997325425,None,4,1.8218912110460224,1616.3058997325425,None,1618.1855828201806,None,1618.1855828201806,None,1618.7026335759147,None,1618.7026335759147,None,1618.7026335759147,None,f,0.20918112831714097,1618.7026335759147,None,sing6,001,2019_Oct_24_1416,ProdFawcett_Revision2019,3.2.4,59.97907056465202,
,,,,127,0,127,0,,,,,,,,,,,,,1621.4366333893122,None,,,,,,,,,,,,,,,,,,,,,,brief,B_aloud,127,28,1619.4694087827374,None,1619.4694087827374,None,1619.4694087827374,None,4,1.1696924177376786,1619.4694087827374,None,1620.690679542211,None,1620.690679542211,None,1621.2032375443232,None,1621.2032375443232,None,1621.2032375443232,None,f,0.18783759407233447,1621.2032375443232,None,sing6,001,2019_Oct_24_1416,ProdFawcett_Revision2019,3.2.4,59.97907056465202,
,,,,128,0,128,0,,,,,,,,,,,,,1623.9874071655213,None,,,,,,,,,,,,,,,,,,,,,,attack,D_new,128,13,1621.9549570815434,None,1621.9549570815434,None,1621.9549570815434,None,1,1.2359998756001005,1621.9549570815434,None,1623.2538433787413,None,1623.2538433787413,None,1623.770681719223,None,1623.770681719223,None,1623.770681719223,None,n,0.18027679293300025,1623.770681719223,None,sing6,001,2019_Oct_24_1416,ProdFawcett_Revision2019,3.2.4,59.97907056465202,
,,,,129,0,129,0,,,,,,,,,,,,,1627.2716249922232,None,,,,,,,,,,,,,,,,,,,,,,raise,D_new,129,250,1624.5044684953755,None,1624.5044684953755,None,1624.5044684953755,None,2,1.9826111836737255,1624.5044684953755,None,1626.538098836856,None,1626.538098836856,None,1627.0550379424094,None,1627.0550379424094,None,1627.0550379424094,None,n,0.16772967592987698,1627.0550379424094,None,sing6,001,2019_Oct_24_1416,ProdFawcett_Revision2019,3.2.4,59.97907056465202,
,,,,130,0,130,0,,,,,,,,,,,,,1632.1398230391205,None,,,,,,,,,,,,,,,,,,,,,,brilliant,D_new,130,30,1627.7892240467772,None,1627.7892240467772,None,1627.7892240467772,None,2,1.8256061454158043,1627.7892240467772,None,1629.6455710020527,None,1629.6455710020527,None,1630.1588981153182,None,1630.1588981153182,None,1630.1588981153182,None,n,1.9357084655057406,1630.1588981153182,None,sing6,001,2019_Oct_24_1416,ProdFawcett_Revision2019,3.2.4,59.97907056465202,
,,,,131,0,131,0,,,,,,,,,,,,,1635.9244423710916,None,,,,,,,,,,,,,,,,,,,,,,citizen,D_new,131,50,1632.673396778002,None,1632.673396778002,None,1632.673396778002,None,3,1.7011796355072875,1632.673396778002,None,1634.4239282826456,None,1634.4239282826456,None,1634.9408630341495,None,1634.9408630341495,None,1634.9408630341495,None,n,0.9455296386149712,1634.9408630341495,None,sing6,001,2019_Oct_24_1416,ProdFawcett_Revision2019,3.2.4,59.97907056465202,
,,,,132,0,132,0,,,,,,,,,,,,,1641.3261292529787,None,,,,,,,,,,,,,,,,,,,,,,command,A_silent,132,60,1636.4430297941144,None,1636.4430297941144,None,1636.4430297941144,None,4,3.7396641164377797,1636.4430297941144,None,1640.2424348448112,None,1640.2424348448112,None,1640.7592675872438,None,1640.7592675872438,None,1640.7592675872438,None,f,0.5270165453694062,1640.7592675872438,None,sing6,001,2019_Oct_24_1416,ProdFawcett_Revision2019,3.2.4,59.97907056465202,
,,,,133,0,133,0,,,,,,,,,,,,,1645.0605119114334,None,,,,,,,,,,,,,,,,,,,,,,trial,D_new,133,341,1641.8432558935165,None,1641.8432558935165,None,1641.8432558935165,None,4,2.14654475338466,1641.8432558935165,None,1644.043516203281,None,1644.043516203281,None,1644.5604509547848,None,1644.5604509547848,None,1644.5604509547848,None,f,0.4616741307399934,1644.5604509547848,None,sing6,001,2019_Oct_24_1416,ProdFawcett_Revision2019,3.2.4,59.97907056465202,
,,,,134,0,134,0,,,,,,,,,,,,,1649.6953501897078,None,,,,,,,,,,,,,,,,,,,,,,review,A_silent,134,263,1645.5773434098373,None,1645.5773434098373,None,1645.5773434098373,None,2,1.6362181999138556,1645.5773434098373,None,1647.263521801331,None,1647.263521801331,None,1647.7781271381536,None,1647.7781271381536,None,1647.7781271381536,None,f,1.8763003047788516,1647.7781271381536,None,sing6,001,2019_Oct_24_1416,ProdFawcett_Revision2019,3.2.4,59.97907056465202,
,,,,135,0,135,0,,,,,,,,,,,,,1654.296739752448,None,,,,,,,,,,,,,,,,,,,,,,vision,D_new,135,347,1650.2142144056706,None,1650.2142144056706,None,1650.2142144056706,None,5,2.6314181750349235,1650.2142144056706,None,1652.8965124090319,None,1652.8965124090319,None,1653.4134325433843,None,1653.4134325433843,None,1653.4134325433843,None,f,0.840531193636707,1653.4134325433843,None,sing6,001,2019_Oct_24_1416,ProdFawcett_Revision2019,3.2.4,59.97907056465202,
,,,,136,0,136,0,,,,,,,,,,,,,1656.7974410648749,None,,,,,,,,,,,,,,,,,,,,,,substance,D_new,136,313,1654.8158820053504,None,1654.8158820053504,None,1654.8158820053504,None,1,1.1577405610441929,1654.8158820053504,None,1656.0200071530853,None,1656.0200071530853,None,1656.5475269017916,None,1656.5475269017916,None,1656.5475269017916,None,n,0.2099766747560352,1656.5475269017916,None,sing6,001,2019_Oct_24_1416,ProdFawcett_Revision2019,3.2.4,59.97907056465202,
,,,,137,0,137,0,,,,,,,,,,,,,1660.348710580336,None,,,,,,,,,,,,,,,,,,,,,,suspect,D_new,137,318,1657.3146233750158,None,1657.3146233750158,None,1657.3146233750158,None,1,2.0429591963620624,1657.3146233750158,None,1659.4149757417472,None,1659.4149757417472,None,1659.9322703240614,None,1659.9322703240614,None,1659.9322703240614,None,n,0.3685560117010027,1659.9322703240614,None,sing6,001,2019_Oct_24_1416,ProdFawcett_Revision2019,3.2.4,59.97907056465202,
,,,,138,0,138,0,,,,,,,,,,,,,1662.4493108166935,None,,,,,,,,,,,,,,,,,,,,,,defeat,C_sing,138,88,1660.867114822424,None,1660.867114822424,None,1660.867114822424,None,1,0.7137911301979329,1660.867114822424,None,1661.6325253467658,None,1661.6325253467658,None,1662.1492427069752,None,1662.1492427069752,None,1662.1492427069752,None,n,0.255812340619741,1662.1492427069752,None,sing6,001,2019_Oct_24_1416,ProdFawcett_Revision2019,3.2.4,59.97907056465202,
,,,,139,0,139,0,,,,,,,,,,,,,1664.5332761087338,None,,,,,,,,,,,,,,,,,,,,,,whole,C_sing,139,355,1662.9670072152803,None,1662.9670072152803,None,1662.9670072152803,None,1,0.701645518434816,1662.9670072152803,None,1663.7329769235657,None,1663.7329769235657,None,1664.2498528954457,None,1664.2498528954457,None,1664.2498528954457,None,n,0.23468930771923624,1664.2498528954457,None,sing6,001,2019_Oct_24_1416,ProdFawcett_Revision2019,3.2.4,59.97907056465202,
,,,,140,0,140,0,,,,,,,,,,,,,1674.4196519873076,None,,,,,,,,,,,,,,,,,,,,,,figure,D_new,140,128,1665.0503106922988,None,1665.0503106922988,None,1665.0503106922988,None,1,8.721733843369293,1665.0503106922988,None,1673.8244999066956,None,1673.8244999066956,None,1674.3362990607711,None,1674.3362990607711,None,1674.3362990607711,None,n,0.03573334577959031,1674.3362990607711,None,sing6,001,2019_Oct_24_1416,ProdFawcett_Revision2019,3.2.4,59.97907056465202,
,,,,141,0,141,0,,,,,,,,,,,,,1676.7370286745136,None,,,,,,,,,,,,,,,,,,,,,,debate,A_silent,141,87,1674.936491571818,None,1674.936491571818,None,1674.936491571818,None,1,1.0838234745169757,1674.936491571818,None,1676.056726690309,None,1676.056726690309,None,1676.5703679169092,None,1676.5703679169092,None,1676.5703679169092,None,n,0.12153075821697712,1676.5703679169092,None,sing6,001,2019_Oct_24_1416,ProdFawcett_Revision2019,3.2.4,59.97907056465202,
,,,,142,0,142,0,,,,,,,,,,,,,1680.5882599365577,None,,,,,,,,,,,,,,,,,,,,,,foundation,D_new,142,132,1677.2557296137384,None,1677.2557296137384,None,1677.2557296137384,None,4,2.340793369410676,1677.2557296137384,None,1679.6546563413576,None,1679.6546563413576,None,1680.1715886048478,None,1680.1715886048478,None,1680.1715886048478,None,f,0.3763180319656385,1680.1715886048478,None,sing6,001,2019_Oct_24_1416,ProdFawcett_Revision2019,3.2.4,59.97907056465202,
,,,,143,0,143,0,,,,,,,,,,,,,1682.788950674876,None,,,,,,,,,,,,,,,,,,,,,,symbol,D_new,143,321,1681.1052397835447,None,1681.1052397835447,None,1681.1052397835447,None,1,0.9226058966160053,1681.1052397835447,None,1682.0887003172247,None,1682.0887003172247,None,1682.6055896622565,None,1682.6055896622565,None,1682.6055896622565,None,n,0.14266187720932066,1682.6055896622565,None,sing6,001,2019_Oct_24_1416,ProdFawcett_Revision2019,3.2.4,59.97907056465202,
,,,,144,0,144,0,,,,,,,,,,,,,1684.906183056548,None,,,,,,,,,,,,,,,,,,,,,,murder,C_sing,144,195,1683.3060564782063,None,1683.3060564782063,None,1683.3060564782063,None,1,0.8013603284198325,1683.3060564782063,None,1684.1581663245597,None,1684.1581663245597,None,1684.6728640293586,None,1684.6728640293586,None,1684.6728640293586,None,n,0.19505566959560383,1684.6728640293586,None,sing6,001,2019_Oct_24_1416,ProdFawcett_Revision2019,3.2.4,59.97907056465202,
,,,,145,0,145,0,,,,,,,,,,,,,1688.1239326366922,None,,,,,,,,,,,,,,,,,,,,,,cousin,D_new,145,76,1685.4248808857374,None,1685.4248808857374,None,1685.4248808857374,None,1,2.0503974622115493,1685.4248808857374,None,1687.5404543758195,None,1687.5404543758195,None,1688.0571222864965,None,1688.0571222864965,None,1688.0571222864965,None,n,0.02650898799765855,1688.0571222864965,None,sing6,001,2019_Oct_24_1416,ProdFawcett_Revision2019,3.2.4,59.97907056465202,
,,,,146,0,146,0,,,,,,,,,,,,,1690.2411687503918,None,,,,,,,,,,,,,,,,,,,,,,employment,A_silent,146,111,1688.6429007277475,None,1688.6429007277475,None,1688.6429007277475,None,1,0.8805703800462652,1688.6429007277475,None,1689.5629299620632,None,1689.5629299620632,None,1690.0911986067076,None,1690.0911986067076,None,1690.0911986067076,None,n,0.10390557939535938,1690.0911986067076,None,sing6,001,2019_Oct_24_1416,ProdFawcett_Revision2019,3.2.4,59.97907056465202,
,,,,147,0,147,0,,,,,,,,,,,,,1693.6923312807194,None,,,,,,,,,,,,,,,,,,,,,,order,A_silent,147,207,1690.758883187169,None,1690.758883187169,None,1690.758883187169,None,4,2.2120541767799295,1690.758883187169,None,1693.025478012074,None,1693.025478012074,None,1693.5421997263184,None,1693.5421997263184,None,1693.5421997263184,None,f,0.11689183306589257,1693.5421997263184,None,sing6,001,2019_Oct_24_1416,ProdFawcett_Revision2019,3.2.4,59.97907056465202,
,,,,148,0,148,0,,,,,,,,,,,,,1695.959664116439,None,,,,,,,,,,,,,,,,,,,,,,pressure,A_silent,148,232,1694.2090784972388,None,1694.2090784972388,None,1694.2090784972388,None,1,0.9857457859034184,1694.2090784972388,None,1695.2428220439178,None,1695.2428220439178,None,1695.7597020588437,None,1695.7597020588437,None,1695.7597020588437,None,n,0.15556104994902853,1695.7597020588437,None,sing6,001,2019_Oct_24_1416,ProdFawcett_Revision2019,3.2.4,59.97907056465202,
,,,,149,0,149,0,,,,,,,,,,,,,1698.360594016296,None,,,,,,,,,,,,,,,,,,,,,,thing,B_aloud,149,328,1696.476475710646,None,1696.476475710646,None,1696.476475710646,None,1,1.206503389927093,1696.476475710646,None,1697.7436207003775,None,1697.7436207003775,None,1698.2604705479898,None,1698.2604705479898,None,1698.2604705479898,None,n,0.05414349692000542,1698.2604705479898,None,sing6,001,2019_Oct_24_1416,ProdFawcett_Revision2019,3.2.4,59.97907056465202,
,,,,150,0,150,0,,,,,,,,,,,,,1700.06095882316,None,,,,,,,,,,,,,,,,,,,,,,portion,D_new,150,228,1698.879014430553,None,1698.879014430553,None,1698.879014430553,None,1,0.5078232879313873,1698.879014430553,None,1699.4345331840595,None,1699.4345331840595,None,1699.9610036076483,None,1699.9610036076483,None,1699.9610036076483,None,n,0.06593114386487287,1699.9610036076483,None,sing6,001,2019_Oct_24_1416,ProdFawcett_Revision2019,3.2.4,59.97907056465202,
,,,,151,0,151,0,,,,,,,,,,,,,1701.7781915158266,None,,,,,,,,,,,,,,,,,,,,,,stand,D_new,151,302,1700.577771039374,None,1700.577771039374,None,1700.577771039374,None,1,0.47336785470542964,1700.577771039374,None,1701.1112685824482,None,1701.1112685824482,None,1701.628206754991,None,1701.628206754991,None,1701.628206754991,None,n,0.11061951857118402,1701.628206754991,None,sing6,001,2019_Oct_24_1416,ProdFawcett_Revision2019,3.2.4,59.97907056465202,
,,,,152,0,152,0,,,,,,,,,,,,,1703.7787031162588,None,,,,,,,,,,,,,,,,,,,,,,silence,D_new,152,288,1702.2958316228178,None,1702.2958316228178,None,1702.2958316228178,None,1,0.6990607700427063,1702.2958316228178,None,1703.0327869005414,None,1703.0327869005414,None,1703.5455044473492,None,1703.5455044473492,None,1703.5455044473492,None,n,0.18485196243273094,1703.5455044473492,None,sing6,001,2019_Oct_24_1416,ProdFawcett_Revision2019,3.2.4,59.97907056465202,
,,,,153,0,153,0,,,,,,,,,,,,,1706.4962303290376,None,,,,,,,,,,,,,,,,,,,,,,collection,D_new,153,54,1704.2979103688558,None,1704.2979103688558,None,1704.2979103688558,None,2,1.3049433974083513,1704.2979103688558,None,1705.662597188537,None,1705.662597188537,None,1706.1800817938638,None,1706.1800817938638,None,1706.1800817938638,None,n,0.27006499969866127,1706.1800817938638,None,sing6,001,2019_Oct_24_1416,ProdFawcett_Revision2019,3.2.4,59.97907056465202,
