StudyTrials.thisRepN,StudyTrials.thisTrialN,StudyTrials.thisN,StudyTrials.thisIndex,TestTrials.thisRepN,TestTrials.thisTrialN,TestTrials.thisN,TestTrials.thisIndex,textWelcome.started,textWelcome.stopped,keyWelcome.keys,keyWelcome.rt,keyWelcome.started,keyWelcome.stopped,textReady.started,textReady.stopped,keyReady.keys,keyReady.rt,keyReady.started,keyReady.stopped,polyback_2.started,polyback_2.stopped,studyPic,studyWord,studyType,studyN,studyOrder,polyback_3.started,polyback_3.stopped,studyPicChoice.started,studyPicChoice.stopped,polyback_4.started,polyback_4.stopped,polyback.started,polyback.stopped,studyWords.started,studyWords.stopped,getResearcher.started,getResearcher.stopped,kPress2.keys,kPress2.rt,kPress2.started,kPress2.stopped,testWord,testType,testN,testOrder,polyback_5.started,polyback_5.stopped,testWords.started,testWords.stopped,textScale.started,textScale.stopped,keyConf.keys,keyConf.rt,keyConf.started,keyConf.stopped,polyback_6.started,polyback_6.stopped,studyWords_2.started,studyWords_2.stopped,polyback_7.started,polyback_7.stopped,testWords_2.started,testWords_2.stopped,textScale_2.started,textScale_2.stopped,keyRKN.keys,keyRKN.rt,keyRKN.started,keyRKN.stopped,participant,session,date,expName,psychopyVersion,frameRate,
,,,,,,,,16.93403840489941,None,space,19.7187543832423,16.93403840489941,None,,,,,,,,,,,,,,,,,,,,,,,,,,,,,,,,,,,,,,,,,,,,,,,,,,,,,,,,,,sing29,001,2019_Nov_11_1510,ProdFawcett_Revision2019,3.2.4,59.928224894090285,
,,,,,,,,,,,,,,36.66973951061948,None,space,2.0944967159309726,36.66973951061948,None,,,,,,,,,,,,,,,,,,,,,,,,,,,,,,,,,,,,,,,,,,,,,,,,,,,,sing29,001,2019_Nov_11_1510,ProdFawcett_Revision2019,3.2.4,59.928224894090285,
0,0,0,0,,,,,,,,,,,,,,,,,43.57219089181308,None,materials/speakPic.jpg,series,B_aloud,0,279,39.92482516014479,None,39.92482516014479,None,40.823281356956954,None,41.08769718953113,None,41.08769718953113,None,,,,,,,,,,,,,,,,,,,,,,,,,,,,,,,,,,,sing29,001,2019_Nov_11_1510,ProdFawcett_Revision2019,3.2.4,59.928224894090285,
1,0,1,0,,,,,,,,,,,,,,,,,47.83996496827274,None,materials/readPic.jpg,nature,A_silent,1,200,44.20785688494425,None,44.20785688494425,None,45.089231693636634,None,45.355791913281564,None,45.355791913281564,None,,,,,,,,,,,,,,,,,,,,,,,,,,,,,,,,,,,sing29,001,2019_Nov_11_1510,ProdFawcett_Revision2019,3.2.4,59.928224894090285,
2,0,2,0,,,,,,,,,,,,,,,,,52.10798691659534,None,materials/readPic.jpg,medicine,A_silent,2,186,48.42659183030514,None,48.42659183030514,None,49.35741163305886,None,49.62373300001775,None,49.62373300001775,None,,,,,,,,,,,,,,,,,,,,,,,,,,,,,,,,,,,sing29,001,2019_Nov_11_1510,ProdFawcett_Revision2019,3.2.4,59.928224894090285,
3,0,3,0,,,,,,,,,,,,,,,,,56.376314583915814,None,materials/speakPic.jpg,institute,B_aloud,3,162,52.72987067433269,None,52.72987067433269,None,53.62528118839157,None,53.87926587631716,None,53.87926587631716,None,,,,,,,,,,,,,,,,,,,,,,,,,,,,,,,,,,,sing29,001,2019_Nov_11_1510,ProdFawcett_Revision2019,3.2.4,59.928224894090285,
4,0,4,0,,,,,,,,,,,,,,,,,60.64403392330155,None,materials/speakPic.jpg,addition,B_aloud,4,2,56.94919839732336,None,56.94919839732336,None,57.893649286505365,None,58.15979804507788,None,58.15979804507788,None,,,,,,,,,,,,,,,,,,,,,,,,,,,,,,,,,,,sing29,001,2019_Nov_11_1510,ProdFawcett_Revision2019,3.2.4,59.928224894090285,
5,0,5,0,,,,,,,,,,,,,,,,,64.91205649363633,None,materials/speakPic.jpg,native,B_aloud,5,199,61.22738464705935,None,61.22738464705935,None,62.1613888412877,None,62.42784767294347,None,62.42784767294347,None,,,,,,,,,,,,,,,,,,,,,,,,,,,,,,,,,,,sing29,001,2019_Nov_11_1510,ProdFawcett_Revision2019,3.2.4,59.928224894090285,
6,0,6,0,,,,,,,,,,,,,,,,,69.18033066790736,None,materials/singPic.jpg,history,C_sing,6,153,65.56814065935157,None,65.56814065935157,None,66.42942105281156,None,66.6959147171508,None,66.6959147171508,None,,,,,,,,,,,,,,,,,,,,,,,,,,,,,,,,,,,sing29,001,2019_Nov_11_1510,ProdFawcett_Revision2019,3.2.4,59.928224894090285,
7,0,7,0,,,,,,,,,,,,,,,,,73.44799744726186,None,materials/readPic.jpg,conference,A_silent,7,66,69.78324429746988,None,69.78324429746988,None,70.69753474793424,None,70.9639718091629,None,70.9639718091629,None,,,,,,,,,,,,,,,,,,,,,,,,,,,,,,,,,,,sing29,001,2019_Nov_11_1510,ProdFawcett_Revision2019,3.2.4,59.928224894090285,
8,0,8,0,,,,,,,,,,,,,,,,,77.71613508985433,None,materials/speakPic.jpg,shape,B_aloud,8,282,74.03808798424814,None,74.03808798424814,None,74.9656064572331,None,75.23193902041157,None,75.23193902041157,None,,,,,,,,,,,,,,,,,,,,,,,,,,,,,,,,,,,sing29,001,2019_Nov_11_1510,ProdFawcett_Revision2019,3.2.4,59.928224894090285,
9,0,9,0,,,,,,,,,,,,,,,,,81.98418938281145,None,materials/speakPic.jpg,account,B_aloud,9,1,78.29942454541015,None,78.29942454541015,None,79.23351986442617,None,79.50000015550302,None,79.50000015550302,None,,,,,,,,,,,,,,,,,,,,,,,,,,,,,,,,,,,sing29,001,2019_Nov_11_1510,ProdFawcett_Revision2019,3.2.4,59.928224894090285,
10,0,10,0,,,,,,,,,,,,,,,,,86.2521982688778,None,materials/speakPic.jpg,religion,B_aloud,10,258,82.55543668211226,None,82.55543668211226,None,83.50179901479487,None,83.76797327586769,None,83.76797327586769,None,,,,,,,,,,,,,,,,,,,,,,,,,,,,,,,,,,,sing29,001,2019_Nov_11_1510,ProdFawcett_Revision2019,3.2.4,59.928224894090285,
11,0,11,0,,,,,,,,,,,,,,,,,90.52022363826757,None,materials/speakPic.jpg,people,B_aloud,11,216,86.81875715119656,None,86.81875715119656,None,87.7699102218686,None,88.03601886065405,None,88.03601886065405,None,,,,,,,,,,,,,,,,,,,,,,,,,,,,,,,,,,,sing29,001,2019_Nov_11_1510,ProdFawcett_Revision2019,3.2.4,59.928224894090285,
12,0,12,0,,,,,,,,,,,,,,,,,94.78824776363285,None,materials/singPic.jpg,object,C_sing,12,204,91.1712517777886,None,91.1712517777886,None,92.03762645119332,None,92.30572428500477,None,92.30572428500477,None,,,,,,,,,,,,,,,,,,,,,,,,,,,,,,,,,,,sing29,001,2019_Nov_11_1510,ProdFawcett_Revision2019,3.2.4,59.928224894090285,
13,0,13,0,,,,,,,,,,,,,,,,,99.05639815747543,None,materials/readPic.jpg,edition,A_silent,13,107,95.39721605998182,None,95.39721605998182,None,96.30561170079591,None,96.57212931260494,None,96.57212931260494,None,,,,,,,,,,,,,,,,,,,,,,,,,,,,,,,,,,,sing29,001,2019_Nov_11_1510,ProdFawcett_Revision2019,3.2.4,59.928224894090285,
14,0,14,0,,,,,,,,,,,,,,,,,103.32432524893704,None,materials/readPic.jpg,trial,A_silent,14,341,99.63947923894318,None,99.63947923894318,None,100.5736470223809,None,100.84016028010456,None,100.84016028010456,None,,,,,,,,,,,,,,,,,,,,,,,,,,,,,,,,,,,sing29,001,2019_Nov_11_1510,ProdFawcett_Revision2019,3.2.4,59.928224894090285,
15,0,15,0,,,,,,,,,,,,,,,,,107.59233444600943,None,materials/speakPic.jpg,research,B_aloud,15,261,103.91128893057748,None,103.91128893057748,None,104.84186366052313,None,105.10812438129221,None,105.10812438129221,None,,,,,,,,,,,,,,,,,,,,,,,,,,,,,,,,,,,sing29,001,2019_Nov_11_1510,ProdFawcett_Revision2019,3.2.4,59.928224894090285,
16,0,16,0,,,,,,,,,,,,,,,,,111.86034861917949,None,materials/speakPic.jpg,track,B_aloud,16,334,108.17553588683859,None,108.17553588683859,None,109.10968438789803,None,109.37635843577618,None,109.37635843577618,None,,,,,,,,,,,,,,,,,,,,,,,,,,,,,,,,,,,sing29,001,2019_Nov_11_1510,ProdFawcett_Revision2019,3.2.4,59.928224894090285,
17,0,17,0,,,,,,,,,,,,,,,,,116.12836994548991,None,materials/readPic.jpg,distance,A_silent,17,100,112.49808902300856,None,112.49808902300856,None,113.37782918363075,None,113.64420248860858,None,113.64420248860858,None,,,,,,,,,,,,,,,,,,,,,,,,,,,,,,,,,,,sing29,001,2019_Nov_11_1510,ProdFawcett_Revision2019,3.2.4,59.928224894090285,
18,0,18,0,,,,,,,,,,,,,,,,,120.39659155972981,None,materials/speakPic.jpg,reading,B_aloud,18,254,116.72015048963249,None,116.72015048963249,None,117.64575409804968,None,117.91221510674814,None,117.91221510674814,None,,,,,,,,,,,,,,,,,,,,,,,,,,,,,,,,,,,sing29,001,2019_Nov_11_1510,ProdFawcett_Revision2019,3.2.4,59.928224894090285,
19,0,19,0,,,,,,,,,,,,,,,,,124.66444089966603,None,materials/readPic.jpg,weight,A_silent,19,353,120.99731881639786,None,120.99731881639786,None,121.91378319951252,None,122.18025073933927,None,122.18025073933927,None,,,,,,,,,,,,,,,,,,,,,,,,,,,,,,,,,,,sing29,001,2019_Nov_11_1510,ProdFawcett_Revision2019,3.2.4,59.928224894090285,
20,0,20,0,,,,,,,,,,,,,,,,,128.93248772847676,None,materials/readPic.jpg,enemy,A_silent,20,113,125.25219546982294,None,125.25219546982294,None,126.18214041241276,None,126.4482863719303,None,126.4482863719303,None,,,,,,,,,,,,,,,,,,,,,,,,,,,,,,,,,,,sing29,001,2019_Nov_11_1510,ProdFawcett_Revision2019,3.2.4,59.928224894090285,
21,0,21,0,,,,,,,,,,,,,,,,,133.20062101698375,None,materials/readPic.jpg,military,A_silent,21,190,129.5079986104247,None,129.5079986104247,None,130.44982958420655,None,130.71630334415534,None,130.71630334415534,None,,,,,,,,,,,,,,,,,,,,,,,,,,,,,,,,,,,sing29,001,2019_Nov_11_1510,ProdFawcett_Revision2019,3.2.4,59.928224894090285,
22,0,22,0,,,,,,,,,,,,,,,,,137.46852384996942,None,materials/singPic.jpg,dream,C_sing,22,104,133.8516410703461,None,133.8516410703461,None,134.71783722624855,None,134.98444378580257,None,134.98444378580257,None,,,,,,,,,,,,,,,,,,,,,,,,,,,,,,,,,,,sing29,001,2019_Nov_11_1510,ProdFawcett_Revision2019,3.2.4,59.928224894090285,
23,0,23,0,,,,,,,,,,,,,,,,,141.73653242502962,None,materials/singPic.jpg,tragedy,C_sing,23,335,138.053587595335,None,138.053587595335,None,138.98610393637307,None,139.25259511266347,None,139.25259511266347,None,,,,,,,,,,,,,,,,,,,,,,,,,,,,,,,,,,,sing29,001,2019_Nov_11_1510,ProdFawcett_Revision2019,3.2.4,59.928224894090285,
24,0,24,0,,,,,,,,,,,,,,,,,146.00457396673664,None,materials/readPic.jpg,fight,A_silent,24,127,142.35467229131564,None,142.35467229131564,None,143.2542008371662,None,143.52039873470278,None,143.52039873470278,None,,,,,,,,,,,,,,,,,,,,,,,,,,,,,,,,,,,sing29,001,2019_Nov_11_1510,ProdFawcett_Revision2019,3.2.4,59.928224894090285,
25,0,25,0,,,,,,,,,,,,,,,,,150.27258627387005,None,materials/speakPic.jpg,dozen,B_aloud,25,102,146.59650814789336,None,146.59650814789336,None,147.52206603841364,None,147.78995954121626,None,147.78995954121626,None,,,,,,,,,,,,,,,,,,,,,,,,,,,,,,,,,,,sing29,001,2019_Nov_11_1510,ProdFawcett_Revision2019,3.2.4,59.928224894090285,
26,0,26,0,,,,,,,,,,,,,,,,,154.5406228394795,None,materials/speakPic.jpg,gesture,B_aloud,26,137,150.84270928611352,None,150.84270928611352,None,151.79001925438774,None,152.05655739259942,None,152.05655739259942,None,,,,,,,,,,,,,,,,,,,,,,,,,,,,,,,,,,,sing29,001,2019_Nov_11_1510,ProdFawcett_Revision2019,3.2.4,59.928224894090285,
27,0,27,0,,,,,,,,,,,,,,,,,158.80869672582105,None,materials/speakPic.jpg,permit,B_aloud,27,218,155.12381246207667,None,155.12381246207667,None,156.0582554859144,None,156.32452926893973,None,156.32452926893973,None,,,,,,,,,,,,,,,,,,,,,,,,,,,,,,,,,,,sing29,001,2019_Nov_11_1510,ProdFawcett_Revision2019,3.2.4,59.928224894090285,
28,0,28,0,,,,,,,,,,,,,,,,,163.07668570749684,None,materials/speakPic.jpg,citizen,B_aloud,28,50,159.3790349542868,None,159.3790349542868,None,160.3260336054533,None,160.593508183037,None,160.593508183037,None,,,,,,,,,,,,,,,,,,,,,,,,,,,,,,,,,,,sing29,001,2019_Nov_11_1510,ProdFawcett_Revision2019,3.2.4,59.928224894090285,
29,0,29,0,,,,,,,,,,,,,,,,,167.344724450149,None,materials/speakPic.jpg,blind,B_aloud,29,24,163.64320633606508,None,163.64320633606508,None,164.59404311353182,None,164.86051003134628,None,164.86051003134628,None,,,,,,,,,,,,,,,,,,,,,,,,,,,,,,,,,,,sing29,001,2019_Nov_11_1510,ProdFawcett_Revision2019,3.2.4,59.928224894090285,
30,0,30,0,,,,,,,,,,,,,,,,,171.61277998713058,None,materials/speakPic.jpg,travel,B_aloud,30,338,167.9112388585952,None,167.9112388585952,None,168.86261554265434,None,169.12852638155903,None,169.12852638155903,None,,,,,,,,,,,,,,,,,,,,,,,,,,,,,,,,,,,sing29,001,2019_Nov_11_1510,ProdFawcett_Revision2019,3.2.4,59.928224894090285,
31,0,31,0,,,,,,,,,,,,,,,,,175.8807848301176,None,materials/speakPic.jpg,appearance,B_aloud,31,10,172.185366789711,None,172.185366789711,None,173.13011500072616,None,173.39658938268713,None,173.39658938268713,None,,,,,,,,,,,,,,,,,,,,,,,,,,,,,,,,,,,sing29,001,2019_Nov_11_1510,ProdFawcett_Revision2019,3.2.4,59.928224894090285,
32,0,32,0,,,,,,,,,,,,,,,,,180.1488269938368,None,materials/speakPic.jpg,detective,B_aloud,32,92,176.4481675675995,None,176.4481675675995,None,177.398146901244,None,177.6645917376253,None,177.6645917376253,None,,,,,,,,,,,,,,,,,,,,,,,,,,,,,,,,,,,sing29,001,2019_Nov_11_1510,ProdFawcett_Revision2019,3.2.4,59.928224894090285,
33,0,33,0,,,,,,,,,,,,,,,,,184.41683090380548,None,materials/readPic.jpg,health,A_silent,33,149,180.78308537335192,None,180.78308537335192,None,181.6661554763043,None,181.93262457116145,None,181.93262457116145,None,,,,,,,,,,,,,,,,,,,,,,,,,,,,,,,,,,,sing29,001,2019_Nov_11_1510,ProdFawcett_Revision2019,3.2.4,59.928224894090285,
34,0,34,0,,,,,,,,,,,,,,,,,188.6848845747504,None,materials/singPic.jpg,finish,C_sing,34,130,185.03472569728342,None,185.03472569728342,None,185.93413574980923,None,186.20065771570376,None,186.20065771570376,None,,,,,,,,,,,,,,,,,,,,,,,,,,,,,,,,,,,sing29,001,2019_Nov_11_1510,ProdFawcett_Revision2019,3.2.4,59.928224894090285,
35,0,35,0,,,,,,,,,,,,,,,,,192.9529348246283,None,materials/singPic.jpg,estate,C_sing,35,119,189.28474443540108,None,189.28474443540108,None,190.20235985209797,None,190.4686815300629,None,190.4686815300629,None,,,,,,,,,,,,,,,,,,,,,,,,,,,,,,,,,,,sing29,001,2019_Nov_11_1510,ProdFawcett_Revision2019,3.2.4,59.928224894090285,
36,0,36,0,,,,,,,,,,,,,,,,,197.22095055282887,None,materials/readPic.jpg,under,A_silent,36,343,193.59016051335914,None,193.59016051335914,None,194.47032208724897,None,194.73671965070275,None,194.73671965070275,None,,,,,,,,,,,,,,,,,,,,,,,,,,,,,,,,,,,sing29,001,2019_Nov_11_1510,ProdFawcett_Revision2019,3.2.4,59.928224894090285,
37,0,37,0,,,,,,,,,,,,,,,,,201.4889578838647,None,materials/singPic.jpg,company,C_sing,37,64,197.83010825189376,None,197.83010825189376,None,198.73837358115122,None,199.00475124021455,None,199.00475124021455,None,,,,,,,,,,,,,,,,,,,,,,,,,,,,,,,,,,,sing29,001,2019_Nov_11_1510,ProdFawcett_Revision2019,3.2.4,59.928224894090285,
38,0,38,0,,,,,,,,,,,,,,,,,205.75701746392565,None,materials/singPic.jpg,benefit,C_sing,38,20,202.08883764890584,None,202.08883764890584,None,203.0062204330386,None,203.27275079609785,None,203.27275079609785,None,,,,,,,,,,,,,,,,,,,,,,,,,,,,,,,,,,,sing29,001,2019_Nov_11_1510,ProdFawcett_Revision2019,3.2.4,59.928224894090285,
39,0,39,0,,,,,,,,,,,,,,,,,210.0249874742292,None,materials/readPic.jpg,generation,A_silent,39,136,206.39522562093146,None,206.39522562093146,None,207.2743185778562,None,207.54080353402446,None,207.54080353402446,None,,,,,,,,,,,,,,,,,,,,,,,,,,,,,,,,,,,sing29,001,2019_Nov_11_1510,ProdFawcett_Revision2019,3.2.4,59.928224894090285,
40,0,40,0,,,,,,,,,,,,,,,,,214.2933039453302,None,materials/singPic.jpg,budget,C_sing,40,34,210.642789898895,None,210.642789898895,None,211.54245901950355,None,211.80882983643244,None,211.80882983643244,None,,,,,,,,,,,,,,,,,,,,,,,,,,,,,,,,,,,sing29,001,2019_Nov_11_1510,ProdFawcett_Revision2019,3.2.4,59.928224894090285,
41,0,41,0,,,,,,,,,,,,,,,,,218.56106931361876,None,materials/readPic.jpg,crime,A_silent,41,78,214.89431981566042,None,214.89431981566042,None,215.81038082386146,None,216.07683405740738,None,216.07683405740738,None,,,,,,,,,,,,,,,,,,,,,,,,,,,,,,,,,,,sing29,001,2019_Nov_11_1510,ProdFawcett_Revision2019,3.2.4,59.928224894090285,
42,0,42,0,,,,,,,,,,,,,,,,,222.8290937499902,None,materials/singPic.jpg,production,C_sing,42,240,219.18323826395147,None,219.18323826395147,None,220.07838939892156,None,220.34530385451637,None,220.34530385451637,None,,,,,,,,,,,,,,,,,,,,,,,,,,,,,,,,,,,sing29,001,2019_Nov_11_1510,ProdFawcett_Revision2019,3.2.4,59.928224894090285,
43,0,43,0,,,,,,,,,,,,,,,,,227.097140267795,None,materials/singPic.jpg,stranger,C_sing,43,309,223.38329698190353,None,223.38329698190353,None,224.34680694700558,None,224.61289474838202,None,224.61289474838202,None,,,,,,,,,,,,,,,,,,,,,,,,,,,,,,,,,,,sing29,001,2019_Nov_11_1510,ProdFawcett_Revision2019,3.2.4,59.928224894090285,
44,0,44,0,,,,,,,,,,,,,,,,,231.3651631491358,None,materials/singPic.jpg,interior,C_sing,44,164,227.68026115804366,None,227.68026115804366,None,228.6145054489824,None,228.88092664889984,None,228.88092664889984,None,,,,,,,,,,,,,,,,,,,,,,,,,,,,,,,,,,,sing29,001,2019_Nov_11_1510,ProdFawcett_Revision2019,3.2.4,59.928224894090285,
45,0,45,0,,,,,,,,,,,,,,,,,235.63316301602515,None,materials/speakPic.jpg,write,B_aloud,45,358,231.99992442551718,None,231.99992442551718,None,232.88270342675844,None,233.14893677899056,None,233.14893677899056,None,,,,,,,,,,,,,,,,,,,,,,,,,,,,,,,,,,,sing29,001,2019_Nov_11_1510,ProdFawcett_Revision2019,3.2.4,59.928224894090285,
46,0,46,0,,,,,,,,,,,,,,,,,239.90119180648196,None,materials/readPic.jpg,attack,A_silent,46,13,236.23790784951404,None,236.23790784951404,None,237.15062087703097,None,237.41697458862438,None,237.41697458862438,None,,,,,,,,,,,,,,,,,,,,,,,,,,,,,,,,,,,sing29,001,2019_Nov_11_1510,ProdFawcett_Revision2019,3.2.4,59.928224894090285,
47,0,47,0,,,,,,,,,,,,,,,,,244.16922246297543,None,materials/readPic.jpg,volume,A_silent,47,349,240.48434068728,None,240.48434068728,None,241.41857253797468,None,241.68499187185546,None,241.68499187185546,None,,,,,,,,,,,,,,,,,,,,,,,,,,,,,,,,,,,sing29,001,2019_Nov_11_1510,ProdFawcett_Revision2019,3.2.4,59.928224894090285,
48,0,48,0,,,,,,,,,,,,,,,,,248.43723912419443,None,materials/singPic.jpg,empty,C_sing,48,112,244.77650603927202,None,244.77650603927202,None,245.6869969281928,None,245.95302097331853,None,245.95302097331853,None,,,,,,,,,,,,,,,,,,,,,,,,,,,,,,,,,,,sing29,001,2019_Nov_11_1510,ProdFawcett_Revision2019,3.2.4,59.928224894090285,
49,0,49,0,,,,,,,,,,,,,,,,,252.70528097690737,None,materials/singPic.jpg,space,C_sing,49,297,249.03713070746733,None,249.03713070746733,None,249.95505837429016,None,250.22105784993403,None,250.22105784993403,None,,,,,,,,,,,,,,,,,,,,,,,,,,,,,,,,,,,sing29,001,2019_Nov_11_1510,ProdFawcett_Revision2019,3.2.4,59.928224894090285,
50,0,50,0,,,,,,,,,,,,,,,,,256.97329950416304,None,materials/singPic.jpg,narrow,C_sing,50,197,253.29276994785357,None,253.29276994785357,None,254.22270089516894,None,254.4890698460614,None,254.4890698460614,None,,,,,,,,,,,,,,,,,,,,,,,,,,,,,,,,,,,sing29,001,2019_Nov_11_1510,ProdFawcett_Revision2019,3.2.4,59.928224894090285,
51,0,51,0,,,,,,,,,,,,,,,,,261.24133140468086,None,materials/readPic.jpg,accident,A_silent,51,0,257.60851889253206,None,257.60851889253206,None,258.4910957398073,None,258.75709303840824,None,258.75709303840824,None,,,,,,,,,,,,,,,,,,,,,,,,,,,,,,,,,,,sing29,001,2019_Nov_11_1510,ProdFawcett_Revision2019,3.2.4,59.928224894090285,
52,0,52,0,,,,,,,,,,,,,,,,,265.5094964158101,None,materials/readPic.jpg,relation,A_silent,52,257,261.81631761933534,None,261.81631761933534,None,262.75889749580995,None,263.02513675715807,None,263.02513675715807,None,,,,,,,,,,,,,,,,,,,,,,,,,,,,,,,,,,,sing29,001,2019_Nov_11_1510,ProdFawcett_Revision2019,3.2.4,59.928224894090285,
53,0,53,0,,,,,,,,,,,,,,,,,269.7773927176678,None,materials/readPic.jpg,marriage,A_silent,53,179,266.0925202721552,None,266.0925202721552,None,267.02672973041047,None,267.2931521743525,None,267.2931521743525,None,,,,,,,,,,,,,,,,,,,,,,,,,,,,,,,,,,,sing29,001,2019_Nov_11_1510,ProdFawcett_Revision2019,3.2.4,59.928224894090285,
54,0,54,0,,,,,,,,,,,,,,,,,274.0454146659903,None,materials/speakPic.jpg,close,B_aloud,54,53,270.3984551082907,None,270.3984551082907,None,271.2947914875141,None,271.5524360952437,None,271.5524360952437,None,,,,,,,,,,,,,,,,,,,,,,,,,,,,,,,,,,,sing29,001,2019_Nov_11_1510,ProdFawcett_Revision2019,3.2.4,59.928224894090285,
55,0,55,0,,,,,,,,,,,,,,,,,278.31342915016637,None,materials/singPic.jpg,territory,C_sing,55,324,274.6297696284504,None,274.6297696284504,None,275.5636758557565,None,275.829199803071,None,275.829199803071,None,,,,,,,,,,,,,,,,,,,,,,,,,,,,,,,,,,,sing29,001,2019_Nov_11_1510,ProdFawcett_Revision2019,3.2.4,59.928224894090285,
56,0,56,0,,,,,,,,,,,,,,,,,282.5814504764768,None,materials/readPic.jpg,literature,A_silent,56,173,278.9317350937107,None,278.9317350937107,None,279.8312484002623,None,280.09724911993055,None,280.09724911993055,None,,,,,,,,,,,,,,,,,,,,,,,,,,,,,,,,,,,sing29,001,2019_Nov_11_1510,ProdFawcett_Revision2019,3.2.4,59.928224894090285,
57,0,57,0,,,,,,,,,,,,,,,,,286.849510367544,None,materials/speakPic.jpg,principal,B_aloud,57,236,283.18259852440053,None,283.18259852440053,None,284.09893632803175,None,284.3653920496266,None,284.3653920496266,None,,,,,,,,,,,,,,,,,,,,,,,,,,,,,,,,,,,sing29,001,2019_Nov_11_1510,ProdFawcett_Revision2019,3.2.4,59.928224894090285,
58,0,58,0,,,,,,,,,,,,,,,,,291.1175018372686,None,materials/singPic.jpg,general,C_sing,58,135,287.46713240867064,None,287.46713240867064,None,288.36685253427993,None,288.6227412015595,None,288.6227412015595,None,,,,,,,,,,,,,,,,,,,,,,,,,,,,,,,,,,,sing29,001,2019_Nov_11_1510,ProdFawcett_Revision2019,3.2.4,59.928224894090285,
59,0,59,0,,,,,,,,,,,,,,,,,295.3855418239451,None,materials/singPic.jpg,speech,C_sing,59,298,291.70167112908587,None,291.70167112908587,None,292.6353456568464,None,292.9013087447762,None,292.9013087447762,None,,,,,,,,,,,,,,,,,,,,,,,,,,,,,,,,,,,sing29,001,2019_Nov_11_1510,ProdFawcett_Revision2019,3.2.4,59.928224894090285,
60,0,60,0,,,,,,,,,,,,,,,,,299.65358212162766,None,materials/speakPic.jpg,disease,B_aloud,60,97,295.9869396097682,None,295.9869396097682,None,296.903003417024,None,297.169343444349,None,297.169343444349,None,,,,,,,,,,,,,,,,,,,,,,,,,,,,,,,,,,,sing29,001,2019_Nov_11_1510,ProdFawcett_Revision2019,3.2.4,59.928224894090285,
61,0,61,0,,,,,,,,,,,,,,,,,303.9215953617794,None,materials/readPic.jpg,level,A_silent,61,170,300.25462380546435,None,300.25462380546435,None,301.1709936427243,None,301.43737378983644,None,301.43737378983644,None,,,,,,,,,,,,,,,,,,,,,,,,,,,,,,,,,,,sing29,001,2019_Nov_11_1510,ProdFawcett_Revision2019,3.2.4,59.928224894090285,
62,0,62,0,,,,,,,,,,,,,,,,,308.1896204201629,None,materials/singPic.jpg,household,C_sing,62,154,304.52881455981276,None,304.52881455981276,None,305.43905042373024,None,305.70539418312853,None,305.70539418312853,None,,,,,,,,,,,,,,,,,,,,,,,,,,,,,,,,,,,sing29,001,2019_Nov_11_1510,ProdFawcett_Revision2019,3.2.4,59.928224894090285,
63,0,63,0,,,,,,,,,,,,,,,,,312.45764641156495,None,materials/readPic.jpg,owner,A_silent,63,208,308.78217692452915,None,308.78217692452915,None,309.7069824912895,None,309.9734273276707,None,309.9734273276707,None,,,,,,,,,,,,,,,,,,,,,,,,,,,,,,,,,,,sing29,001,2019_Nov_11_1510,ProdFawcett_Revision2019,3.2.4,59.928224894090285,
64,0,64,0,,,,,,,,,,,,,,,,,316.72567582403406,None,materials/speakPic.jpg,quantity,B_aloud,64,245,313.04853716725063,None,313.04853716725063,None,313.97509587540605,None,314.2428970093964,None,314.2428970093964,None,,,,,,,,,,,,,,,,,,,,,,,,,,,,,,,,,,,sing29,001,2019_Nov_11_1510,ProdFawcett_Revision2019,3.2.4,59.928224894090285,
65,0,65,0,,,,,,,,,,,,,,,,,320.9937024374482,None,materials/singPic.jpg,impact,C_sing,65,157,317.33521948167106,None,317.33521948167106,None,318.2431175127225,None,318.5094622051389,None,318.5094622051389,None,,,,,,,,,,,,,,,,,,,,,,,,,,,,,,,,,,,sing29,001,2019_Nov_11_1510,ProdFawcett_Revision2019,3.2.4,59.928224894090285,
66,0,66,0,,,,,,,,,,,,,,,,,325.26172500778296,None,materials/singPic.jpg,question,C_sing,66,247,321.5768628254717,None,321.5768628254717,None,322.51120041824095,None,322.7773793444054,None,322.7773793444054,None,,,,,,,,,,,,,,,,,,,,,,,,,,,,,,,,,,,sing29,001,2019_Nov_11_1510,ProdFawcett_Revision2019,3.2.4,59.928224894090285,
67,0,67,0,,,,,,,,,,,,,,,,,329.5297705925692,None,materials/readPic.jpg,display,A_silent,67,98,325.88045982874144,None,325.88045982874144,None,326.77917447162383,None,327.04552445114416,None,327.04552445114416,None,,,,,,,,,,,,,,,,,,,,,,,,,,,,,,,,,,,sing29,001,2019_Nov_11_1510,ProdFawcett_Revision2019,3.2.4,59.928224894090285,
68,0,68,0,,,,,,,,,,,,,,,,,333.79784292388024,None,materials/speakPic.jpg,smooth,B_aloud,68,292,330.12263219392105,None,330.12263219392105,None,331.0471864677512,None,331.313574390016,None,331.313574390016,None,,,,,,,,,,,,,,,,,,,,,,,,,,,,,,,,,,,sing29,001,2019_Nov_11_1510,ProdFawcett_Revision2019,3.2.4,59.928224894090285,
69,0,69,0,,,,,,,,,,,,,,,,,338.06581853229375,None,materials/speakPic.jpg,sound,B_aloud,69,295,334.3678440217319,None,334.3678440217319,None,335.3156814563546,None,335.58158420910047,None,335.58158420910047,None,,,,,,,,,,,,,,,,,,,,,,,,,,,,,,,,,,,sing29,001,2019_Nov_11_1510,ProdFawcett_Revision2019,3.2.4,59.928224894090285,
70,0,70,0,,,,,,,,,,,,,,,,,342.3338246193051,None,materials/singPic.jpg,bicycle,C_sing,70,21,338.6696154191849,None,338.6696154191849,None,339.58326208701885,None,339.8496108225148,None,339.8496108225148,None,,,,,,,,,,,,,,,,,,,,,,,,,,,,,,,,,,,sing29,001,2019_Nov_11_1510,ProdFawcett_Revision2019,3.2.4,59.928224894090285,
71,0,71,0,,,,,,,,,,,,,,,,,346.6018493666828,None,materials/readPic.jpg,shear,A_silent,71,283,342.93615200236616,None,342.93615200236616,None,343.8513226000981,None,344.11761068940416,None,344.11761068940416,None,,,,,,,,,,,,,,,,,,,,,,,,,,,,,,,,,,,sing29,001,2019_Nov_11_1510,ProdFawcett_Revision2019,3.2.4,59.928224894090285,
72,0,72,0,,,,,,,,,,,,,,,,,350.8698983725361,None,materials/readPic.jpg,power,A_silent,72,230,347.1853475073327,None,347.1853475073327,None,348.11930069656034,None,348.3856562741904,None,348.3856562741904,None,,,,,,,,,,,,,,,,,,,,,,,,,,,,,,,,,,,sing29,001,2019_Nov_11_1510,ProdFawcett_Revision2019,3.2.4,59.928224894090285,
73,0,73,0,,,,,,,,,,,,,,,,,355.1379296510419,None,materials/singPic.jpg,broke,C_sing,73,32,351.488123143488,None,351.488123143488,None,352.3872722618945,None,352.6539183192234,None,352.6539183192234,None,,,,,,,,,,,,,,,,,,,,,,,,,,,,,,,,,,,sing29,001,2019_Nov_11_1510,ProdFawcett_Revision2019,3.2.4,59.928224894090285,
74,0,74,0,,,,,,,,,,,,,,,,,359.4059376040899,None,materials/singPic.jpg,education,C_sing,74,108,355.7213298247699,None,355.7213298247699,None,356.6553533013763,None,356.9217051469333,None,356.9217051469333,None,,,,,,,,,,,,,,,,,,,,,,,,,,,,,,,,,,,sing29,001,2019_Nov_11_1510,ProdFawcett_Revision2019,3.2.4,59.928224894090285,
75,0,75,0,,,,,,,,,,,,,,,,,363.6739573753697,None,materials/readPic.jpg,force,A_silent,75,131,360.0264946097976,None,360.0264946097976,None,360.9239024050413,None,361.18974046851815,None,361.18974046851815,None,,,,,,,,,,,,,,,,,,,,,,,,,,,,,,,,,,,sing29,001,2019_Nov_11_1510,ProdFawcett_Revision2019,3.2.4,59.928224894090285,
76,0,76,0,,,,,,,,,,,,,,,,,367.9420723145166,None,materials/readPic.jpg,reach,A_silent,76,253,364.24686171518,None,364.24686171518,None,365.1919206212907,None,365.4577627278469,None,365.4577627278469,None,,,,,,,,,,,,,,,,,,,,,,,,,,,,,,,,,,,sing29,001,2019_Nov_11_1510,ProdFawcett_Revision2019,3.2.4,59.928224894090285,
77,0,77,0,,,,,,,,,,,,,,,,,372.2100311286007,None,materials/speakPic.jpg,piece,B_aloud,77,221,368.5271058922905,None,368.5271058922905,None,369.45942101238086,None,369.7258002264747,None,369.7258002264747,None,,,,,,,,,,,,,,,,,,,,,,,,,,,,,,,,,,,sing29,001,2019_Nov_11_1510,ProdFawcett_Revision2019,3.2.4,59.928224894090285,
78,0,78,0,,,,,,,,,,,,,,,,,376.4780742253382,None,materials/singPic.jpg,brilliant,C_sing,78,30,372.81896956836397,None,372.81896956836397,None,373.7274672191794,None,373.99382124177885,None,373.99382124177885,None,,,,,,,,,,,,,,,,,,,,,,,,,,,,,,,,,,,sing29,001,2019_Nov_11_1510,ProdFawcett_Revision2019,3.2.4,59.928224894090285,
79,0,79,0,,,,,,,,,,,,,,,,,380.74609710667903,None,materials/speakPic.jpg,music,B_aloud,79,196,377.0672556914893,None,377.0672556914893,None,377.9960135237892,None,378.261850965254,None,378.261850965254,None,,,,,,,,,,,,,,,,,,,,,,,,,,,,,,,,,,,sing29,001,2019_Nov_11_1510,ProdFawcett_Revision2019,3.2.4,59.928224894090285,
80,0,80,0,,,,,,,,,,,,,,,,,385.0140829782939,None,materials/singPic.jpg,crowd,C_sing,80,81,381.3527079767779,None,381.3527079767779,None,382.2635559007032,None,382.5298974830588,None,382.5298974830588,None,,,,,,,,,,,,,,,,,,,,,,,,,,,,,,,,,,,sing29,001,2019_Nov_11_1510,ProdFawcett_Revision2019,3.2.4,59.928224894090285,
81,0,81,0,,,,,,,,,,,,,,,,,389.2821369602451,None,materials/readPic.jpg,charter,A_silent,81,47,385.6327667942518,None,385.6327667942518,None,386.53159930844674,None,386.7978852207101,None,386.7978852207101,None,,,,,,,,,,,,,,,,,,,,,,,,,,,,,,,,,,,sing29,001,2019_Nov_11_1510,ProdFawcett_Revision2019,3.2.4,59.928224894090285,
82,0,82,0,,,,,,,,,,,,,,,,,393.55015704253094,None,materials/singPic.jpg,story,C_sing,82,306,389.9002926878421,None,389.9002926878421,None,390.79958922314097,None,391.06592862845366,None,391.06592862845366,None,,,,,,,,,,,,,,,,,,,,,,,,,,,,,,,,,,,sing29,001,2019_Nov_11_1510,ProdFawcett_Revision2019,3.2.4,59.928224894090285,
83,0,83,0,,,,,,,,,,,,,,,,,397.81820511536614,None,materials/readPic.jpg,harmony,A_silent,83,148,394.1519986340612,None,394.1519986340612,None,395.06791160335763,None,395.33383301646984,None,395.33383301646984,None,,,,,,,,,,,,,,,,,,,,,,,,,,,,,,,,,,,sing29,001,2019_Nov_11_1510,ProdFawcett_Revision2019,3.2.4,59.928224894090285,
84,0,84,0,,,,,,,,,,,,,,,,,402.08637448058096,None,materials/singPic.jpg,count,C_sing,84,72,398.4203953447362,None,398.4203953447362,None,399.33566950750003,None,399.60198714238584,None,399.60198714238584,None,,,,,,,,,,,,,,,,,,,,,,,,,,,,,,,,,,,sing29,001,2019_Nov_11_1510,ProdFawcett_Revision2019,3.2.4,59.928224894090285,
85,0,85,0,,,,,,,,,,,,,,,,,406.35423408371855,None,materials/readPic.jpg,turkey,A_silent,85,342,402.6959654111455,None,402.6959654111455,None,403.6043455016544,None,403.8700569856479,None,403.8700569856479,None,,,,,,,,,,,,,,,,,,,,,,,,,,,,,,,,,,,sing29,001,2019_Nov_11_1510,ProdFawcett_Revision2019,3.2.4,59.928224894090285,
86,0,86,0,,,,,,,,,,,,,,,,,410.6222774914621,None,materials/speakPic.jpg,colonel,B_aloud,86,55,406.9466888890894,None,406.9466888890894,None,407.87180328490865,None,408.1380534314702,None,408.1380534314702,None,,,,,,,,,,,,,,,,,,,,,,,,,,,,,,,,,,,sing29,001,2019_Nov_11_1510,ProdFawcett_Revision2019,3.2.4,59.928224894090285,
87,0,87,0,,,,,,,,,,,,,,,,,414.890383411432,None,materials/speakPic.jpg,birth,B_aloud,87,22,411.205778431167,None,411.205778431167,None,412.13984762567054,None,412.40608533198804,None,412.40608533198804,None,,,,,,,,,,,,,,,,,,,,,,,,,,,,,,,,,,,sing29,001,2019_Nov_11_1510,ProdFawcett_Revision2019,3.2.4,59.928224894090285,
88,0,88,0,,,,,,,,,,,,,,,,,419.15832854124767,None,materials/singPic.jpg,chief,C_sing,88,48,415.4953988202295,None,415.4953988202295,None,416.40764222853284,None,416.6741038592437,None,416.6741038592437,None,,,,,,,,,,,,,,,,,,,,,,,,,,,,,,,,,,,sing29,001,2019_Nov_11_1510,ProdFawcett_Revision2019,3.2.4,59.928224894090285,
89,0,89,0,,,,,,,,,,,,,,,,,423.42634147039337,None,materials/singPic.jpg,clean,C_sing,89,51,419.7581890239104,None,419.7581890239104,None,420.67698284272626,None,420.9420234865587,None,420.9420234865587,None,,,,,,,,,,,,,,,,,,,,,,,,,,,,,,,,,,,sing29,001,2019_Nov_11_1510,ProdFawcett_Revision2019,3.2.4,59.928224894090285,
,,,,,,,,,,,,,,,,,,,,,,,,,,,,,,,,,,,,,423.92653818175256,None,k,86.8465626517127,423.92653818175256,None,,,,,,,,,,,,,,,,,,,,,,,,,,,,,sing29,001,2019_Nov_11_1510,ProdFawcett_Revision2019,3.2.4,59.928224894090285,
,,,,,,,,,,,,,,510.8041902474084,None,space,9.208706864620126,510.8041902474084,None,,,,,,,,,,,,,,,,,,,,,,,,,,,,,,,,,,,,,,,,,,,,,,,,,,,,sing29,001,2019_Nov_11_1510,ProdFawcett_Revision2019,3.2.4,59.928224894090285,
,,,,0,0,0,0,,,,,,,,,,,,,528.1778280018076,None,,,,,,,,,,,,,,,,,,,,,,color,D_new,0,56,520.5607374701084,None,520.5607374701084,None,520.5607374701084,None,1,3.1725082424391076,520.5607374701084,None,523.7915108396511,None,523.7915108396511,None,524.3114555054455,None,524.3114555054455,None,524.3114555054455,None,f,3.8288626724568076,524.3114555054455,None,sing29,001,2019_Nov_11_1510,ProdFawcett_Revision2019,3.2.4,59.928224894090285,
,,,,1,0,1,0,,,,,,,,,,,,,532.4776372617654,None,,,,,,,,,,,,,,,,,,,,,,curve,D_new,1,82,528.7097271201363,None,528.7097271201363,None,528.7097271201363,None,1,1.5183308551329446,528.7097271201363,None,530.2936202385355,None,530.2936202385355,None,530.8102884550491,None,530.8102884550491,None,530.8102884550491,None,r,1.626583370938988,530.8102884550491,None,sing29,001,2019_Nov_11_1510,ProdFawcett_Revision2019,3.2.4,59.928224894090285,
,,,,2,0,2,0,,,,,,,,,,,,,536.8623440343275,None,,,,,,,,,,,,,,,,,,,,,,personnel,D_new,2,219,532.9986595637021,None,532.9986595637021,None,532.9986595637021,None,1,1.557630830159269,532.9986595637021,None,534.6004750307196,None,534.6004750307196,None,535.1285369557664,None,535.1285369557664,None,535.1285369557664,None,r,1.6998461452815263,535.1285369557664,None,sing29,001,2019_Nov_11_1510,ProdFawcett_Revision2019,3.2.4,59.928224894090285,
,,,,3,0,3,0,,,,,,,,,,,,,540.0300487875271,None,,,,,,,,,,,,,,,,,,,,,,raise,D_new,3,250,537.3795195017932,None,537.3795195017932,None,537.3795195017932,None,1,1.2166795060352342,537.3795195017932,None,538.6462358465011,None,538.6462358465011,None,539.1631146141457,None,539.1631146141457,None,539.1631146141457,None,r,0.8329956325412695,539.1631146141457,None,sing29,001,2019_Nov_11_1510,ProdFawcett_Revision2019,3.2.4,59.928224894090285,
,,,,4,0,4,0,,,,,,,,,,,,,545.7652494844295,None,,,,,,,,,,,,,,,,,,,,,,pattern,D_new,4,214,540.5484412218683,None,540.5484412218683,None,540.5484412218683,None,1,3.7994663757308444,540.5484412218683,None,544.3979792689553,None,544.3979792689553,None,544.9148135627273,None,544.9148135627273,None,544.9148135627273,None,f,0.8093019436946634,544.9148135627273,None,sing29,001,2019_Nov_11_1510,ProdFawcett_Revision2019,3.2.4,59.928224894090285,
,,,,5,0,5,0,,,,,,,,,,,,,550.8167004678465,None,,,,,,,,,,,,,,,,,,,,,,shear,A_silent,5,283,546.2823294730218,None,546.2823294730218,None,546.2823294730218,None,6,2.696904338566128,546.2823294730218,None,549.0232365098772,None,549.0232365098772,None,549.5497577106966,None,549.5497577106966,None,549.5497577106966,None,r,1.2293760191282672,549.5497577106966,None,sing29,001,2019_Nov_11_1510,ProdFawcett_Revision2019,3.2.4,59.928224894090285,
,,,,6,0,6,0,,,,,,,,,,,,,555.0348473006692,None,,,,,,,,,,,,,,,,,,,,,,surface,D_new,6,316,551.3335764364361,None,551.3335764364361,None,551.3335764364361,None,2,2.1262495058890636,551.3335764364361,None,553.5175393446044,None,553.5175393446044,None,554.0343823465472,None,554.0343823465472,None,554.0343823465472,None,f,0.9609382556475339,554.0343823465472,None,sing29,001,2019_Nov_11_1510,ProdFawcett_Revision2019,3.2.4,59.928224894090285,
,,,,7,0,7,0,,,,,,,,,,,,,561.8035271823998,None,,,,,,,,,,,,,,,,,,,,,,revolution,D_new,7,264,555.5536008130942,None,555.5536008130942,None,555.5536008130942,None,1,1.7932901055587536,555.5536008130942,None,557.4022612009625,None,557.4022612009625,None,557.9191517868388,None,557.9191517868388,None,557.9191517868388,None,n,3.8514442034838794,557.9191517868388,None,sing29,001,2019_Nov_11_1510,ProdFawcett_Revision2019,3.2.4,59.928224894090285,
,,,,8,0,8,0,,,,,,,,,,,,,564.7879423556411,None,,,,,,,,,,,,,,,,,,,,,,staff,D_new,8,301,562.3207244202923,None,562.3207244202923,None,562.3207244202923,None,1,1.0337199035507183,562.3207244202923,None,563.3934500870972,None,563.3934500870972,None,563.9209733495762,None,563.9209733495762,None,563.9209733495762,None,n,0.8338017603566641,563.9209733495762,None,sing29,001,2019_Nov_11_1510,ProdFawcett_Revision2019,3.2.4,59.928224894090285,
,,,,9,0,9,0,,,,,,,,,,,,,568.5057997972862,None,,,,,,,,,,,,,,,,,,,,,,patient,D_new,9,213,565.3055809111919,None,565.3055809111919,None,565.3055809111919,None,5,1.8331813031841193,565.3055809111919,None,567.1765544318213,None,567.1765544318213,None,567.705487484959,None,567.705487484959,None,567.705487484959,None,f,0.7528083073461858,567.705487484959,None,sing29,001,2019_Nov_11_1510,ProdFawcett_Revision2019,3.2.4,59.928224894090285,
,,,,10,0,10,0,,,,,,,,,,,,,572.0568578244937,None,,,,,,,,,,,,,,,,,,,,,,medicine,A_silent,10,186,569.0225389231911,None,569.0225389231911,None,569.0225389231911,None,6,1.8676295830248364,569.0225389231911,None,570.9286928320247,None,570.9286928320247,None,571.4564959999949,None,571.4564959999949,None,571.4564959999949,None,r,0.5619653221976932,571.4564959999949,None,sing29,001,2019_Nov_11_1510,ProdFawcett_Revision2019,3.2.4,59.928224894090285,
,,,,11,0,11,0,,,,,,,,,,,,,575.695385695772,None,,,,,,,,,,,,,,,,,,,,,,state,D_new,11,303,572.5736712808567,None,572.5736712808567,None,572.5736712808567,None,1,1.212407215217354,572.5736712808567,None,573.8408233451131,None,573.8408233451131,None,574.3576436436107,None,574.3576436436107,None,574.3576436436107,None,n,1.3088949922109805,574.3576436436107,None,sing29,001,2019_Nov_11_1510,ProdFawcett_Revision2019,3.2.4,59.928224894090285,
,,,,12,0,12,0,,,,,,,,,,,,,580.1260989789358,None,,,,,,,,,,,,,,,,,,,,,,waste,D_new,12,350,576.2248291099223,None,576.2248291099223,None,576.2248291099223,None,1,1.833440993279055,576.2248291099223,None,578.0969390468471,None,578.0969390468471,None,578.6257100658057,None,578.6257100658057,None,578.6257100658057,None,n,1.4639237587202842,578.6257100658057,None,sing29,001,2019_Nov_11_1510,ProdFawcett_Revision2019,3.2.4,59.928224894090285,
,,,,13,0,13,0,,,,,,,,,,,,,582.9435900242926,None,,,,,,,,,,,,,,,,,,,,,,couch,D_new,13,70,580.6429115022808,None,580.6429115022808,None,580.6429115022808,None,1,1.2790228561493677,580.6429115022808,None,581.9646532235316,None,581.9646532235316,None,582.4935337166379,None,582.4935337166379,None,582.4935337166379,None,n,0.40395431817978533,582.4935337166379,None,sing29,001,2019_Nov_11_1510,ProdFawcett_Revision2019,3.2.4,59.928224894090285,
,,,,14,0,14,0,,,,,,,,,,,,,586.0280272478666,None,,,,,,,,,,,,,,,,,,,,,,south,D_new,14,296,583.4604687919372,None,583.4604687919372,None,583.4604687919372,None,1,1.1970739923947349,583.4604687919372,None,584.7109559052438,None,584.7109559052438,None,585.2276726387096,None,585.2276726387096,None,585.2276726387096,None,n,0.7585637862628118,585.2276726387096,None,sing29,001,2019_Nov_11_1510,ProdFawcett_Revision2019,3.2.4,59.928224894090285,
,,,,15,0,15,0,,,,,,,,,,,,,588.5620850595468,None,,,,,,,,,,,,,,,,,,,,,,bureau,D_new,15,37,586.545744176955,None,586.545744176955,None,586.545744176955,None,1,0.7439412123826514,586.545744176955,None,587.333628063449,None,587.333628063449,None,587.8619101808159,None,587.8619101808159,None,587.8619101808159,None,n,0.6674268692477199,587.8619101808159,None,sing29,001,2019_Nov_11_1510,ProdFawcett_Revision2019,3.2.4,59.928224894090285,
,,,,16,0,16,0,,,,,,,,,,,,,591.4629919844398,None,,,,,,,,,,,,,,,,,,,,,,household,C_sing,16,154,589.079546963632,None,589.079546963632,None,589.079546963632,None,6,1.321601768505161,589.079546963632,None,590.4526445004325,None,590.4526445004325,None,590.9797622109548,None,590.9797622109548,None,590.9797622109548,None,r,0.4373035024573255,590.9797622109548,None,sing29,001,2019_Nov_11_1510,ProdFawcett_Revision2019,3.2.4,59.928224894090285,
,,,,17,0,17,0,,,,,,,,,,,,,594.8475398328839,None,,,,,,,,,,,,,,,,,,,,,,clear,D_new,17,52,591.9799939105004,None,591.9799939105004,None,591.9799939105004,None,1,1.1010710739133174,591.9799939105004,None,593.1203562512693,None,593.1203562512693,None,593.647147405385,None,593.647147405385,None,593.647147405385,None,n,1.1537427562791436,593.647147405385,None,sing29,001,2019_Nov_11_1510,ProdFawcett_Revision2019,3.2.4,59.928224894090285,
,,,,18,0,18,0,,,,,,,,,,,,,598.5819543063616,None,,,,,,,,,,,,,,,,,,,,,,object,C_sing,18,204,595.369463119497,None,595.369463119497,None,595.369463119497,None,1,1.136157227268768,595.369463119497,None,596.5646216253116,None,596.5646216253116,None,597.0822054437887,None,597.0822054437887,None,597.0822054437887,None,n,1.454510537042097,597.0822054437887,None,sing29,001,2019_Nov_11_1510,ProdFawcett_Revision2019,3.2.4,59.928224894090285,
,,,,19,0,19,0,,,,,,,,,,,,,601.9996718885628,None,,,,,,,,,,,,,,,,,,,,,,literature,A_silent,19,173,599.10083439827,None,599.10083439827,None,599.10083439827,None,5,1.7884200610130847,599.10083439827,None,600.9494350729666,None,600.9494350729666,None,601.4663359220445,None,601.4663359220445,None,601.4663359220445,None,f,0.4944897493942335,601.4663359220445,None,sing29,001,2019_Nov_11_1510,ProdFawcett_Revision2019,3.2.4,59.928224894090285,
,,,,20,0,20,0,,,,,,,,,,,,,605.0174751218443,None,,,,,,,,,,,,,,,,,,,,,,chief,C_sing,20,48,602.5169216864866,None,602.5169216864866,None,602.5169216864866,None,6,1.4837814983093267,602.5169216864866,None,604.0403356253447,None,604.0403356253447,None,604.5673339095239,None,604.5673339095239,None,604.5673339095239,None,r,0.4170703785036949,604.5673339095239,None,sing29,001,2019_Nov_11_1510,ProdFawcett_Revision2019,3.2.4,59.928224894090285,
,,,,21,0,21,0,,,,,,,,,,,,,608.4850815038141,None,,,,,,,,,,,,,,,,,,,,,,edition,A_silent,21,107,605.5342556115608,None,605.5342556115608,None,605.5342556115608,None,1,0.9222621588612583,605.5342556115608,None,606.5062025501878,None,606.5062025501878,None,607.0346675391423,None,607.0346675391423,None,607.0346675391423,None,n,1.4056685838120302,607.0346675391423,None,sing29,001,2019_Nov_11_1510,ProdFawcett_Revision2019,3.2.4,59.928224894090285,
,,,,22,0,22,0,,,,,,,,,,,,,611.2026083459731,None,,,,,,,,,,,,,,,,,,,,,,tragedy,C_sing,22,335,609.0030214242773,None,609.0030214242773,None,609.0030214242773,None,6,1.2775636155206485,609.0030214242773,None,610.3356900339028,None,610.3356900339028,None,610.8525227726442,None,610.8525227726442,None,610.8525227726442,None,r,0.3161492095312042,610.8525227726442,None,sing29,001,2019_Nov_11_1510,ProdFawcett_Revision2019,3.2.4,59.928224894090285,
,,,,23,0,23,0,,,,,,,,,,,,,613.7369370439679,None,,,,,,,,,,,,,,,,,,,,,,general,C_sing,23,135,611.7197166361208,None,611.7197166361208,None,611.7197166361208,None,6,1.0484908273415385,611.7197166361208,None,612.8074660746769,None,612.8074660746769,None,613.3367975266307,None,613.3367975266307,None,613.3367975266307,None,r,0.3596179103437862,613.3367975266307,None,sing29,001,2019_Nov_11_1510,ProdFawcett_Revision2019,3.2.4,59.928224894090285,
,,,,24,0,24,0,,,,,,,,,,,,,617.3047561230104,None,,,,,,,,,,,,,,,,,,,,,,partner,D_new,24,211,614.255108974983,None,614.255108974983,None,614.255108974983,None,3,2.089324062448668,614.255108974983,None,616.4043088651357,None,616.4043088651357,None,616.9212246425062,None,616.9212246425062,None,616.9212246425062,None,f,0.3346049336141732,616.9212246425062,None,sing29,001,2019_Nov_11_1510,ProdFawcett_Revision2019,3.2.4,59.928224894090285,
,,,,25,0,25,0,,,,,,,,,,,,,619.9720700970432,None,,,,,,,,,,,,,,,,,,,,,,crime,A_silent,25,78,617.822161734991,None,617.822161734991,None,617.822161734991,None,2,1.3855486660793304,617.822161734991,None,619.258549013473,None,619.258549013473,None,619.7886763300409,None,619.7886763300409,None,619.7886763300409,None,f,0.14700636411771484,619.7886763300409,None,sing29,001,2019_Nov_11_1510,ProdFawcett_Revision2019,3.2.4,59.928224894090285,
,,,,26,0,26,0,,,,,,,,,,,,,623.3399710328916,None,,,,,,,,,,,,,,,,,,,,,,estate,C_sing,26,119,620.4890620709087,None,620.4890620709087,None,620.4890620709087,None,6,1.2545078001883212,620.4890620709087,None,621.8061125761227,None,621.8061125761227,None,622.3261163330764,None,622.3261163330764,None,622.3261163330764,None,r,0.9775130148279914,622.3261163330764,None,sing29,001,2019_Nov_11_1510,ProdFawcett_Revision2019,3.2.4,59.928224894090285,
,,,,27,0,27,0,,,,,,,,,,,,,626.2241837722614,None,,,,,,,,,,,,,,,,,,,,,,pancakes,D_new,27,210,623.8580533941496,None,623.8580533941496,None,623.8580533941496,None,1,0.813673756465505,623.8580533941496,None,624.7119822253793,None,624.7119822253793,None,625.2404459703095,None,625.2404459703095,None,625.2404459703095,None,n,0.95091795005942,625.2404459703095,None,sing29,001,2019_Nov_11_1510,ProdFawcett_Revision2019,3.2.4,59.928224894090285,
,,,,28,0,28,0,,,,,,,,,,,,,628.4749209344737,None,,,,,,,,,,,,,,,,,,,,,,disease,B_aloud,28,97,626.7422602244034,None,626.7422602244034,None,626.7422602244034,None,6,0.9771849033907074,626.7422602244034,None,627.7746163661985,None,627.7746163661985,None,628.2916509478999,None,628.2916509478999,None,628.2916509478999,None,r,0.1404428913490392,628.2916509478999,None,sing29,001,2019_Nov_11_1510,ProdFawcett_Revision2019,3.2.4,59.928224894090285,
,,,,29,0,29,0,,,,,,,,,,,,,630.809008664941,None,,,,,,,,,,,,,,,,,,,,,,hearing,D_new,29,150,628.9930527457019,None,628.9930527457019,None,628.9930527457019,None,1,0.9021462842079018,628.9930527457019,None,629.9586660450692,None,629.9586660450692,None,630.4755653391163,None,630.4755653391163,None,630.4755653391163,None,n,0.2922371944016504,630.4755653391163,None,sing29,001,2019_Nov_11_1510,ProdFawcett_Revision2019,3.2.4,59.928224894090285,
,,,,30,0,30,0,,,,,,,,,,,,,633.6097678930363,None,,,,,,,,,,,,,,,,,,,,,,taste,D_new,30,322,631.3261169550884,None,631.3261169550884,None,631.3261169550884,None,1,1.217032186954384,631.3261169550884,None,632.592786337875,None,632.592786337875,None,633.1095951291469,None,633.1095951291469,None,633.1095951291469,None,n,0.4658663028310457,633.1095951291469,None,sing29,001,2019_Nov_11_1510,ProdFawcett_Revision2019,3.2.4,59.928224894090285,
,,,,31,0,31,0,,,,,,,,,,,,,636.7275163581434,None,,,,,,,,,,,,,,,,,,,,,,history,C_sing,31,153,634.1271778591023,None,634.1271778591023,None,634.1271778591023,None,5,1.816019675489997,634.1271778591023,None,635.9647179128007,None,635.9647179128007,None,636.4939492207897,None,636.4939492207897,None,636.4939492207897,None,f,0.18491831891265065,636.4939492207897,None,sing29,001,2019_Nov_11_1510,ProdFawcett_Revision2019,3.2.4,59.928224894090285,
,,,,32,0,32,0,,,,,,,,,,,,,639.7617332494445,None,,,,,,,,,,,,,,,,,,,,,,colonel,B_aloud,32,55,637.2451406074136,None,637.2451406074136,None,637.2451406074136,None,6,1.0017307489556515,637.2451406074136,None,638.3008175417393,None,638.3008175417393,None,638.8282419042779,None,638.8282419042779,None,638.8282419042779,None,r,0.8912980803770552,638.8282419042779,None,sing29,001,2019_Nov_11_1510,ProdFawcett_Revision2019,3.2.4,59.928224894090285,
,,,,33,0,33,0,,,,,,,,,,,,,643.5297009272025,None,,,,,,,,,,,,,,,,,,,,,,universal,D_new,33,345,640.2787989317561,None,640.2787989317561,None,640.2787989317561,None,4,1.8245944247178159,640.2787989317561,None,642.1624866928265,None,642.1624866928265,None,642.679313833458,None,642.679313833458,None,642.679313833458,None,n,0.8080205985561406,642.679313833458,None,sing29,001,2019_Nov_11_1510,ProdFawcett_Revision2019,3.2.4,59.928224894090285,
,,,,34,0,34,0,,,,,,,,,,,,,646.3806456548872,None,,,,,,,,,,,,,,,,,,,,,,piece,B_aloud,34,221,644.0465992882315,None,644.0465992882315,None,644.0465992882315,None,6,0.9839620373513753,644.0465992882315,None,645.0801136167489,None,645.0801136167489,None,645.5970517865591,None,645.5970517865591,None,645.5970517865591,None,r,0.7373245575704459,645.5970517865591,None,sing29,001,2019_Nov_11_1510,ProdFawcett_Revision2019,3.2.4,59.928224894090285,
,,,,35,0,35,0,,,,,,,,,,,,,649.3690025194604,None,,,,,,,,,,,,,,,,,,,,,,discussion,D_new,35,96,646.8991046445341,None,646.8991046445341,None,646.8991046445341,None,5,1.23519369926521,646.8991046445341,None,648.1978580387769,None,648.1978580387769,None,648.714968505967,None,648.714968505967,None,648.714968505967,None,f,0.6274644512250234,648.714968505967,None,sing29,001,2019_Nov_11_1510,ProdFawcett_Revision2019,3.2.4,59.928224894090285,
,,,,36,0,36,0,,,,,,,,,,,,,653.0662197301648,None,,,,,,,,,,,,,,,,,,,,,,testimony,D_new,36,325,649.8992166067306,None,649.8992166067306,None,649.8992166067306,None,4,1.1953895833482875,649.8992166067306,None,651.1321346743501,None,651.1321346743501,None,651.6488501637913,None,651.6488501637913,None,651.6488501637913,None,f,1.3813874044394652,651.6488501637913,None,sing29,001,2019_Nov_11_1510,ProdFawcett_Revision2019,3.2.4,59.928224894090285,
,,,,37,0,37,0,,,,,,,,,,,,,656.8005269065374,None,,,,,,,,,,,,,,,,,,,,,,machinery,D_new,37,175,653.5839379032776,None,653.5839379032776,None,653.5839379032776,None,1,1.446135764737619,653.5839379032776,None,655.0721745639927,None,655.0721745639927,None,655.6001046224525,None,655.6001046224525,None,655.6001046224525,None,n,1.1663521876637333,655.6001046224525,None,sing29,001,2019_Nov_11_1510,ProdFawcett_Revision2019,3.2.4,59.928224894090285,
,,,,38,0,38,0,,,,,,,,,,,,,659.1513430331989,None,,,,,,,,,,,,,,,,,,,,,,dozen,B_aloud,38,102,657.3194841279591,None,657.3194841279591,None,657.3194841279591,None,1,0.8783667576774405,657.3194841279591,None,658.2510596755398,None,658.2510596755398,None,658.7711725956352,None,658.7711725956352,None,658.7711725956352,None,n,0.34703242642922305,658.7711725956352,None,sing29,001,2019_Nov_11_1510,ProdFawcett_Revision2019,3.2.4,59.928224894090285,
,,,,39,0,39,0,,,,,,,,,,,,,663.3860444098053,None,,,,,,,,,,,,,,,,,,,,,,character,D_new,39,46,659.6702476945894,None,659.6702476945894,None,659.6702476945894,None,5,2.135359496617866,659.6702476945894,None,661.8688670763032,None,661.8688670763032,None,662.3856223745253,None,662.3856223745253,None,662.3856223745253,None,f,0.9567508694954086,662.3856223745253,None,sing29,001,2019_Nov_11_1510,ProdFawcett_Revision2019,3.2.4,59.928224894090285,
,,,,40,0,40,0,,,,,,,,,,,,,666.1535944063686,None,,,,,,,,,,,,,,,,,,,,,,month,D_new,40,193,663.904319594846,None,663.904319594846,None,663.904319594846,None,1,1.5095328035240527,663.904319594846,None,665.47004995691,None,665.47004995691,None,665.9867256375702,None,665.9867256375702,None,665.9867256375702,None,n,0.13088163076690762,665.9867256375702,None,sing29,001,2019_Nov_11_1510,ProdFawcett_Revision2019,3.2.4,59.928224894090285,
,,,,41,0,41,0,,,,,,,,,,,,,668.8544454123645,None,,,,,,,,,,,,,,,,,,,,,,management,D_new,41,177,666.6724440196791,None,666.6724440196791,None,666.6724440196791,None,1,1.4131706729954203,666.6724440196791,None,668.1375371613416,None,668.1375371613416,None,668.6544417424926,None,668.6544417424926,None,668.6544417424926,None,n,0.15091757685195262,668.6544417424926,None,sing29,001,2019_Nov_11_1510,ProdFawcett_Revision2019,3.2.4,59.928224894090285,
,,,,42,0,42,0,,,,,,,,,,,,,671.6053323240147,None,,,,,,,,,,,,,,,,,,,,,,volume,A_silent,42,349,669.3724235865783,None,669.3724235865783,None,669.3724235865783,None,6,0.6009269225851313,669.3724235865783,None,670.0383507844041,None,670.0383507844041,None,670.555160508694,None,670.555160508694,None,670.555160508694,None,r,1.0019820418856398,670.555160508694,None,sing29,001,2019_Nov_11_1510,ProdFawcett_Revision2019,3.2.4,59.928224894090285,
,,,,43,0,43,0,,,,,,,,,,,,,673.9560579479008,None,,,,,,,,,,,,,,,,,,,,,,candidate,D_new,43,39,672.1231313587142,None,672.1231313587142,None,672.1231313587142,None,1,0.6582266867492308,672.1231313587142,None,672.8291251616066,None,672.8291251616066,None,673.3558880141669,None,673.3558880141669,None,673.3558880141669,None,n,0.5616449859128352,673.3558880141669,None,sing29,001,2019_Nov_11_1510,ProdFawcett_Revision2019,3.2.4,59.928224894090285,
,,,,44,0,44,0,,,,,,,,,,,,,676.4735223400347,None,,,,,,,,,,,,,,,,,,,,,,turkey,A_silent,44,342,674.4744223916929,None,674.4744223916929,None,674.4744223916929,None,6,1.2429281100066873,674.4744223916929,None,675.7732610016075,None,675.7732610016075,None,676.2901602956548,None,676.2901602956548,None,676.2901602956548,None,r,0.1468206934750924,676.2901602956548,None,sing29,001,2019_Nov_11_1510,ProdFawcett_Revision2019,3.2.4,59.928224894090285,
,,,,45,0,45,0,,,,,,,,,,,,,681.7419479742772,None,,,,,,,,,,,,,,,,,,,,,,whole,D_new,45,355,676.9905572327424,None,676.9905572327424,None,676.9905572327424,None,1,3.7022129017148018,676.9905572327424,None,680.7471669676687,None,680.7471669676687,None,681.2750600164023,None,681.2750600164023,None,681.2750600164023,None,n,0.4336939656418508,681.2750600164023,None,sing29,001,2019_Nov_11_1510,ProdFawcett_Revision2019,3.2.4,59.928224894090285,
,,,,46,0,46,0,,,,,,,,,,,,,684.1259739544829,None,,,,,,,,,,,,,,,,,,,,,,music,B_aloud,46,196,682.2587471243597,None,682.2587471243597,None,682.2587471243597,None,6,1.2339269714132115,682.2587471243597,None,683.5423862440756,None,683.5423862440756,None,684.0593580025446,None,684.0593580025446,None,684.0593580025446,None,r,0.025824702654972498,684.0593580025446,None,sing29,001,2019_Nov_11_1510,ProdFawcett_Revision2019,3.2.4,59.928224894090285,
,,,,47,0,47,0,,,,,,,,,,,,,686.2099760805207,None,,,,,,,,,,,,,,,,,,,,,,voice,D_new,47,348,684.6427084152964,None,684.6427084152964,None,684.6427084152964,None,6,0.7458532778953213,684.6427084152964,None,685.4305235694418,None,685.4305235694418,None,685.9597570544737,None,685.9597570544737,None,685.9597570544737,None,r,0.20480964716057315,685.9597570544737,None,sing29,001,2019_Nov_11_1510,ProdFawcett_Revision2019,3.2.4,59.928224894090285,
,,,,48,0,48,0,,,,,,,,,,,,,688.510551348507,None,,,,,,,,,,,,,,,,,,,,,,owner,A_silent,48,208,686.726838675848,None,686.726838675848,None,686.726838675848,None,6,1.0455763891629886,686.726838675848,None,687.8271017559094,None,687.8271017559094,None,688.3439842556271,None,688.3439842556271,None,688.3439842556271,None,r,0.13285558649363338,688.3439842556271,None,sing29,001,2019_Nov_11_1510,ProdFawcett_Revision2019,3.2.4,59.928224894090285,
,,,,49,0,49,0,,,,,,,,,,,,,690.5113552992797,None,,,,,,,,,,,,,,,,,,,,,,brilliant,C_sing,49,30,689.0274248290476,None,689.0274248290476,None,689.0274248290476,None,6,0.665113294857747,689.0274248290476,None,689.7444086545535,None,689.7444086545535,None,690.2613284750033,None,690.2613284750033,None,690.2613284750033,None,r,0.2150669393984117,690.2613284750033,None,sing29,001,2019_Nov_11_1510,ProdFawcett_Revision2019,3.2.4,59.928224894090285,
,,,,50,0,50,0,,,,,,,,,,,,,692.6286804850823,None,,,,,,,,,,,,,,,,,,,,,,store,D_new,50,305,691.0285683984833,None,691.0285683984833,None,691.0285683984833,None,1,0.6876009020420497,691.0285683984833,None,691.7784330330777,None,691.7784330330777,None,692.2951102687683,None,692.2951102687683,None,692.2951102687683,None,n,0.2934656685031314,692.2951102687683,None,sing29,001,2019_Nov_11_1510,ProdFawcett_Revision2019,3.2.4,59.928224894090285,
,,,,51,0,51,0,,,,,,,,,,,,,694.7126651947784,None,,,,,,,,,,,,,,,,,,,,,,appearance,B_aloud,51,10,693.1476302423576,None,693.1476302423576,None,693.1476302423576,None,6,0.7212623364457613,693.1476302423576,None,693.918399152073,None,693.918399152073,None,694.4459283236678,None,694.4459283236678,None,694.4459283236678,None,r,0.22295249910507664,694.4459283236678,None,sing29,001,2019_Nov_11_1510,ProdFawcett_Revision2019,3.2.4,59.928224894090285,
,,,,52,0,52,0,,,,,,,,,,,,,696.87990468285,None,,,,,,,,,,,,,,,,,,,,,,drama,D_new,52,103,695.2306474120716,None,695.2306474120716,None,695.2306474120716,None,1,0.773674950728946,695.2306474120716,None,696.0387964561477,None,696.0387964561477,None,696.5632905191966,None,696.5632905191966,None,696.5632905191966,None,n,0.27344807177792063,696.5632905191966,None,sing29,001,2019_Nov_11_1510,ProdFawcett_Revision2019,3.2.4,59.928224894090285,
,,,,53,0,53,0,,,,,,,,,,,,,699.4475222299385,None,,,,,,,,,,,,,,,,,,,,,,close,B_aloud,53,53,697.3967470627807,None,697.3967470627807,None,697.3967470627807,None,6,1.1673996562140019,697.3967470627807,None,698.6140600882449,None,698.6140600882449,None,699.1305979932021,None,699.1305979932021,None,699.1305979932021,None,r,0.28137437328382475,699.1305979932021,None,sing29,001,2019_Nov_11_1510,ProdFawcett_Revision2019,3.2.4,59.928224894090285,
,,,,54,0,54,0,,,,,,,,,,,,,701.481543809408,None,,,,,,,,,,,,,,,,,,,,,,account,B_aloud,54,1,699.9656160984222,None,699.9656160984222,None,699.9656160984222,None,6,0.6701145839779201,699.9656160984222,None,700.697864414402,None,700.697864414402,None,701.214998518056,None,701.214998518056,None,701.214998518056,None,r,0.22876022704690513,701.214998518056,None,sing29,001,2019_Nov_11_1510,ProdFawcett_Revision2019,3.2.4,59.928224894090285,
,,,,55,0,55,0,,,,,,,,,,,,,703.5322119904671,None,,,,,,,,,,,,,,,,,,,,,,listen,D_new,55,172,701.9985429364139,None,701.9985429364139,None,701.9985429364139,None,1,0.6775062659953619,701.9985429364139,None,702.7318775967066,None,702.7318775967066,None,703.2487324168814,None,703.2487324168814,None,703.2487324168814,None,n,0.2349044635905102,703.2487324168814,None,sing29,001,2019_Nov_11_1510,ProdFawcett_Revision2019,3.2.4,59.928224894090285,
,,,,56,0,56,0,,,,,,,,,,,,,706.1162186260932,None,,,,,,,,,,,,,,,,,,,,,,bicycle,C_sing,56,21,704.0507083008462,None,704.0507083008462,None,704.0507083008462,None,6,0.6488495417793274,704.0507083008462,None,704.7492171198907,None,704.7492171198907,None,705.2660517246687,None,705.2660517246687,None,705.2660517246687,None,r,0.8014334893234718,705.2660517246687,None,sing29,001,2019_Nov_11_1510,ProdFawcett_Revision2019,3.2.4,59.928224894090285,
,,,,57,0,57,0,,,,,,,,,,,,,708.3003706259714,None,,,,,,,,,,,,,,,,,,,,,,marriage,A_silent,57,179,706.6343529253701,None,706.6343529253701,None,706.6343529253701,None,1,0.8972762396626877,706.6343529253701,None,707.5718235936071,None,707.5718235936071,None,708.1002444196953,None,708.1002444196953,None,708.1002444196953,None,n,0.16731195249326447,708.1002444196953,None,sing29,001,2019_Nov_11_1510,ProdFawcett_Revision2019,3.2.4,59.928224894090285,
,,,,58,0,58,0,,,,,,,,,,,,,711.3678682802077,None,,,,,,,,,,,,,,,,,,,,,,style,D_new,58,311,708.817980879967,None,708.817980879967,None,708.817980879967,None,5,1.3134745570573614,708.817980879967,None,710.1842291293914,None,710.1842291293914,None,710.7011654331646,None,710.7011654331646,None,710.7011654331646,None,f,0.6302034819620985,710.7011654331646,None,sing29,001,2019_Nov_11_1510,ProdFawcett_Revision2019,3.2.4,59.928224894090285,
,,,,59,0,59,0,,,,,,,,,,,,,713.1852529614779,None,,,,,,,,,,,,,,,,,,,,,,addition,B_aloud,59,2,711.8852518107552,None,711.8852518107552,None,711.8852518107552,None,6,0.6460265393948248,711.8852518107552,None,712.575525810241,None,712.575525810241,None,713.1018781347472,None,713.1018781347472,None,713.1018781347472,None,r,0.03722494231624296,713.1018781347472,None,sing29,001,2019_Nov_11_1510,ProdFawcett_Revision2019,3.2.4,59.928224894090285,
,,,,60,0,60,0,,,,,,,,,,,,,715.3858195523939,None,,,,,,,,,,,,,,,,,,,,,,enemy,A_silent,60,113,713.7021270640308,None,713.7021270640308,None,713.7021270640308,None,6,0.7737844248767942,713.7021270640308,None,714.5253549279383,None,714.5253549279383,None,715.0525298635833,None,715.0525298635833,None,715.0525298635833,None,r,0.2948975405947749,715.0525298635833,None,sing29,001,2019_Nov_11_1510,ProdFawcett_Revision2019,3.2.4,59.928224894090285,
,,,,61,0,61,0,,,,,,,,,,,,,718.4035776897907,None,,,,,,,,,,,,,,,,,,,,,,display,A_silent,61,98,715.9029620532125,None,715.9029620532125,None,715.9029620532125,None,1,1.3800861549104866,715.9029620532125,None,717.3366302053479,None,717.3366302053479,None,717.8532312445437,None,717.8532312445437,None,717.8532312445437,None,n,0.5017078900070828,717.8532312445437,None,sing29,001,2019_Nov_11_1510,ProdFawcett_Revision2019,3.2.4,59.928224894090285,
,,,,62,0,62,0,,,,,,,,,,,,,721.1711186671772,None,,,,,,,,,,,,,,,,,,,,,,permit,B_aloud,62,218,718.9209686844846,None,718.9209686844846,None,718.9209686844846,None,6,1.2101937847919544,718.9209686844846,None,720.1874816312021,None,720.1874816312021,None,720.704229776284,None,720.704229776284,None,720.704229776284,None,r,0.4269606835416653,720.704229776284,None,sing29,001,2019_Nov_11_1510,ProdFawcett_Revision2019,3.2.4,59.928224894090285,
,,,,63,0,63,0,,,,,,,,,,,,,723.4218160206084,None,,,,,,,,,,,,,,,,,,,,,,public,D_new,63,244,721.6878294915267,None,721.6878294915267,None,721.6878294915267,None,1,0.8508284114025173,721.6878294915267,None,722.5881200023263,None,722.5881200023263,None,723.1049471429579,None,723.1049471429579,None,723.1049471429579,None,n,0.2818299972227578,723.1049471429579,None,sing29,001,2019_Nov_11_1510,ProdFawcett_Revision2019,3.2.4,59.928224894090285,
,,,,64,0,64,0,,,,,,,,,,,,,725.7057667684381,None,,,,,,,,,,,,,,,,,,,,,,brief,D_new,64,28,723.9388061284375,None,723.9388061284375,None,723.9388061284375,None,1,1.0561123428678911,723.9388061284375,None,725.0557596619489,None,725.0557596619489,None,725.5725581900191,None,725.5725581900191,None,725.5725581900191,None,n,0.08592569877623646,725.5725581900191,None,sing29,001,2019_Nov_11_1510,ProdFawcett_Revision2019,3.2.4,59.928224894090285,
,,,,65,0,65,0,,,,,,,,,,,,,727.4730959506695,None,,,,,,,,,,,,,,,,,,,,,,discovery,D_new,65,95,726.2230482889844,None,726.2230482889844,None,726.2230482889844,None,1,0.6034087512762198,726.2230482889844,None,726.8895368528234,None,726.8895368528234,None,727.4069623691947,None,727.4069623691947,None,727.4069623691947,None,n,0.02788263002912572,727.4069623691947,None,sing29,001,2019_Nov_11_1510,ProdFawcett_Revision2019,3.2.4,59.928224894090285,
,,,,66,0,66,0,,,,,,,,,,,,,729.2903817319992,None,,,,,,,,,,,,,,,,,,,,,,empty,C_sing,66,112,727.9898938567275,None,727.9898938567275,None,727.9898938567275,None,6,0.6449112715142746,727.9898938567275,None,728.6903436648523,None,728.6903436648523,None,729.2070118813662,None,729.2070118813662,None,729.2070118813662,None,r,0.04370040035814782,729.2070118813662,None,sing29,001,2019_Nov_11_1510,ProdFawcett_Revision2019,3.2.4,59.928224894090285,
,,,,67,0,67,0,,,,,,,,,,,,,731.3410635973268,None,,,,,,,,,,,,,,,,,,,,,,threat,D_new,67,329,729.8072430833021,None,729.8072430833021,None,729.8072430833021,None,6,0.6670944037250592,729.8072430833021,None,730.5144121782524,None,730.5144121782524,None,731.0409327570597,None,731.0409327570597,None,731.0409327570597,None,r,0.2580585568509832,731.0409327570597,None,sing29,001,2019_Nov_11_1510,ProdFawcett_Revision2019,3.2.4,59.928224894090285,
,,,,68,0,68,0,,,,,,,,,,,,,734.0085458256605,None,,,,,,,,,,,,,,,,,,,,,,judge,D_new,68,166,731.8624889631709,None,731.8624889631709,None,731.8624889631709,None,1,1.2917451827488549,731.8624889631709,None,733.2082282262296,None,733.2082282262296,None,733.7250401275622,None,733.7250401275622,None,733.7250401275622,None,n,0.23705973587493645,733.7250401275622,None,sing29,001,2019_Nov_11_1510,ProdFawcett_Revision2019,3.2.4,59.928224894090285,
,,,,69,0,69,0,,,,,,,,,,,,,736.2258762674666,None,,,,,,,,,,,,,,,,,,,,,,generation,A_silent,69,136,734.5278380006538,None,734.5278380006538,None,734.5278380006538,None,1,0.9067846292075501,734.5278380006538,None,735.4922868931766,None,735.4922868931766,None,736.010052650223,None,736.010052650223,None,736.010052650223,None,n,0.16791685936095746,736.010052650223,None,sing29,001,2019_Nov_11_1510,ProdFawcett_Revision2019,3.2.4,59.928224894090285,
,,,,70,0,70,0,,,,,,,,,,,,,738.6432119341749,None,,,,,,,,,,,,,,,,,,,,,,research,B_aloud,70,261,736.7440286050972,None,736.7440286050972,None,736.7440286050972,None,6,1.2824128226570792,736.7440286050972,None,738.0764549409695,None,738.0764549409695,None,738.5933965318465,None,738.5933965318465,None,738.5933965318465,None,r,0.016815166896776645,738.5933965318465,None,sing29,001,2019_Nov_11_1510,ProdFawcett_Revision2019,3.2.4,59.928224894090285,
,,,,71,0,71,0,,,,,,,,,,,,,740.8440397702162,None,,,,,,,,,,,,,,,,,,,,,,finish,C_sing,71,130,739.160199242949,None,739.160199242949,None,739.160199242949,None,6,0.6661679165483747,739.160199242949,None,739.8769936657387,None,739.8769936657387,None,740.3939399217073,None,740.3939399217073,None,740.3939399217073,None,r,0.40866481659486453,740.3939399217073,None,sing29,001,2019_Nov_11_1510,ProdFawcett_Revision2019,3.2.4,59.928224894090285,
,,,,72,0,72,0,,,,,,,,,,,,,742.9780743808413,None,,,,,,,,,,,,,,,,,,,,,,background,D_new,72,16,741.362945053619,None,741.362945053619,None,741.362945053619,None,1,0.6790668946134701,741.362945053619,None,742.0943859977589,None,742.0943859977589,None,742.6113139043674,None,742.6113139043674,None,742.6113139043674,None,n,0.3183343384014279,742.6113139043674,None,sing29,001,2019_Nov_11_1510,ProdFawcett_Revision2019,3.2.4,59.928224894090285,
,,,,73,0,73,0,,,,,,,,,,,,,745.1787762594114,None,,,,,,,,,,,,,,,,,,,,,,territory,C_sing,73,324,743.4958267646253,None,743.4958267646253,None,743.4958267646253,None,6,1.010216550438372,743.4958267646253,None,744.5618462068607,None,744.5618462068607,None,745.0790434447534,None,745.0790434447534,None,745.0790434447534,None,r,0.06660786577981526,745.0790434447534,None,sing29,001,2019_Nov_11_1510,ProdFawcett_Revision2019,3.2.4,59.928224894090285,
,,,,74,0,74,0,,,,,,,,,,,,,748.0130100072432,None,,,,,,,,,,,,,,,,,,,,,,story,C_sing,74,306,745.6955017010479,None,745.6955017010479,None,745.6955017010479,None,6,1.4020229702887264,745.6955017010479,None,747.1625995880412,None,747.1625995880412,None,747.679583164742,None,747.679583164742,None,747.679583164742,None,r,0.29807104685573904,747.679583164742,None,sing29,001,2019_Nov_11_1510,ProdFawcett_Revision2019,3.2.4,59.928224894090285,
,,,,75,0,75,0,,,,,,,,,,,,,750.313635969224,None,,,,,,,,,,,,,,,,,,,,,,property,D_new,75,242,748.5309748081949,None,748.5309748081949,None,748.5309748081949,None,1,1.03063627805318,748.5309748081949,None,749.6135229807074,None,749.6135229807074,None,750.1302537094474,None,750.1302537094474,None,750.1302537094474,None,n,0.13513588323075965,750.1302537094474,None,sing29,001,2019_Nov_11_1510,ProdFawcett_Revision2019,3.2.4,59.928224894090285,
,,,,76,0,76,0,,,,,,,,,,,,,752.7811863700953,None,,,,,,,,,,,,,,,,,,,,,,weather,D_new,76,352,750.8318934269172,None,750.8318934269172,None,750.8318934269172,None,1,1.1614569516241318,750.8318934269172,None,752.047497473853,None,752.047497473853,None,752.5643320786311,None,752.5643320786311,None,752.5643320786311,None,n,0.17363159647834436,752.5643320786311,None,sing29,001,2019_Nov_11_1510,ProdFawcett_Revision2019,3.2.4,59.928224894090285,
,,,,77,0,77,0,,,,,,,,,,,,,754.9151541144087,None,,,,,,,,,,,,,,,,,,,,,,trial,A_silent,77,341,753.2982741338402,None,753.2982741338402,None,753.2982741338402,None,6,0.7028296268144913,753.2982741338402,None,754.0648929781354,None,754.0648929781354,None,754.5840013485225,None,754.5840013485225,None,754.5840013485225,None,r,0.28934825872329384,754.5840013485225,None,sing29,001,2019_Nov_11_1510,ProdFawcett_Revision2019,3.2.4,59.928224894090285,
,,,,78,0,78,0,,,,,,,,,,,,,756.9159008400585,None,,,,,,,,,,,,,,,,,,,,,,quantity,B_aloud,78,245,755.4360681862216,None,755.4360681862216,None,755.4360681862216,None,6,0.5892952943843284,755.4360681862216,None,756.0823127408936,None,756.0823127408936,None,756.6018677160426,None,756.6018677160426,None,756.6018677160426,None,r,0.2718560315436207,756.6018677160426,None,sing29,001,2019_Nov_11_1510,ProdFawcett_Revision2019,3.2.4,59.928224894090285,
,,,,79,0,79,0,,,,,,,,,,,,,759.2666846220856,None,,,,,,,,,,,,,,,,,,,,,,congress,D_new,79,67,757.4340562877502,None,757.4340562877502,None,757.4340562877502,None,1,1.0949028898996858,757.4340562877502,None,758.5703276542582,None,758.5703276542582,None,759.1000752323761,None,759.1000752323761,None,759.1000752323761,None,n,0.12559919213049398,759.1000752323761,None,sing29,001,2019_Nov_11_1510,ProdFawcett_Revision2019,3.2.4,59.928224894090285,
,,,,80,0,80,0,,,,,,,,,,,,,761.1670395111481,None,,,,,,,,,,,,,,,,,,,,,,military,A_silent,80,190,759.78400377437,None,759.78400377437,None,759.78400377437,None,6,0.7129298609709167,759.78400377437,None,760.5502783349106,None,760.5502783349106,None,761.0671555475247,None,761.0671555475247,None,761.0671555475247,None,r,0.061599734525088934,761.0671555475247,None,sing29,001,2019_Nov_11_1510,ProdFawcett_Revision2019,3.2.4,59.928224894090285,
,,,,81,0,81,0,,,,,,,,,,,,,763.2845478795449,None,,,,,,,,,,,,,,,,,,,,,,oxygen,D_new,81,209,761.6839795469947,None,761.6839795469947,None,761.6839795469947,None,1,0.9171806301667402,761.6839795469947,None,762.6509370147334,None,762.6509370147334,None,763.1678366197867,None,763.1678366197867,None,763.1678366197867,None,n,0.08097883572372666,763.1678366197867,None,sing29,001,2019_Nov_11_1510,ProdFawcett_Revision2019,3.2.4,59.928224894090285,
,,,,82,0,82,0,,,,,,,,,,,,,765.4685863621959,None,,,,,,,,,,,,,,,,,,,,,,emergency,D_new,82,110,763.803108257181,None,763.803108257181,None,763.803108257181,None,6,0.6935827934009922,763.803108257181,None,764.5518650880412,None,764.5518650880412,None,765.0686356255623,None,765.0686356255623,None,765.0686356255623,None,r,0.35681387933141195,765.0686356255623,None,sing29,001,2019_Nov_11_1510,ProdFawcett_Revision2019,3.2.4,59.928224894090285,
,,,,83,0,83,0,,,,,,,,,,,,,769.1195858891555,None,,,,,,,,,,,,,,,,,,,,,,budget,C_sing,83,34,765.9854200339556,None,765.9854200339556,None,765.9854200339556,None,1,2.1758164143423073,765.9854200339556,None,768.219337986192,None,768.219337986192,None,768.7362997924655,None,768.7362997924655,None,768.7362997924655,None,n,0.33606852832849654,768.7362997924655,None,sing29,001,2019_Nov_11_1510,ProdFawcett_Revision2019,3.2.4,59.928224894090285,
,,,,84,0,84,0,,,,,,,,,,,,,771.1869196431766,None,,,,,,,,,,,,,,,,,,,,,,vision,D_new,84,347,769.6381521759075,None,769.6381521759075,None,769.6381521759075,None,1,0.8822288314474918,769.6381521759075,None,770.5701006198041,None,770.5701006198041,None,771.0870807754378,None,771.0870807754378,None,771.0870807754378,None,n,0.06572927354272906,771.0870807754378,None,sing29,001,2019_Nov_11_1510,ProdFawcett_Revision2019,3.2.4,59.928224894090285,
,,,,85,0,85,0,,,,,,,,,,,,,773.554505529844,None,,,,,,,,,,,,,,,,,,,,,,poetry,D_new,85,225,771.7051724357781,None,771.7051724357781,None,771.7051724357781,None,1,0.9757259737677941,771.7051724357781,None,772.7259277389763,None,772.7259277389763,None,773.2542537082035,None,773.2542537082035,None,773.2542537082035,None,n,0.25876547371990455,773.2542537082035,None,sing29,001,2019_Nov_11_1510,ProdFawcett_Revision2019,3.2.4,59.928224894090285,
,,,,86,0,86,0,,,,,,,,,,,,,776.4719813048013,None,,,,,,,,,,,,,,,,,,,,,,safety,D_new,86,270,774.0717264042004,None,774.0717264042004,None,774.0717264042004,None,6,1.3286668941157131,774.0717264042004,None,775.4550264961648,None,775.4550264961648,None,775.9719080628644,None,775.9719080628644,None,775.9719080628644,None,r,0.45210832591328654,775.9719080628644,None,sing29,001,2019_Nov_11_1510,ProdFawcett_Revision2019,3.2.4,59.928224894090285,
,,,,87,0,87,0,,,,,,,,,,,,,778.6061085952446,None,,,,,,,,,,,,,,,,,,,,,,production,C_sing,87,240,776.9913266618377,None,776.9913266618377,None,776.9913266618377,None,1,0.8811766978055857,776.9913266618377,None,777.9225467294442,None,777.9225467294442,None,778.4395859762373,None,778.4395859762373,None,778.4395859762373,None,n,0.12031457645161936,778.4395859762373,None,sing29,001,2019_Nov_11_1510,ProdFawcett_Revision2019,3.2.4,59.928224894090285,
,,,,88,0,88,0,,,,,,,,,,,,,781.4235442815153,None,,,,,,,,,,,,,,,,,,,,,,narrow,C_sing,88,197,779.1245112927871,None,779.1245112927871,None,779.1245112927871,None,6,1.2114213258751079,779.1245112927871,None,780.3772448031658,None,780.3772448031658,None,780.9067952034151,None,780.9067952034151,None,780.9067952034151,None,r,0.4690964122025889,780.9067952034151,None,sing29,001,2019_Nov_11_1510,ProdFawcett_Revision2019,3.2.4,59.928224894090285,
,,,,89,0,89,0,,,,,,,,,,,,,783.4744174155952,None,,,,,,,,,,,,,,,,,,,,,,comedy,D_new,89,58,781.941219535786,None,781.941219535786,None,781.941219535786,None,1,0.8505429078011275,781.941219535786,None,782.8572889411518,None,782.8572889411518,None,783.3742638096816,None,783.3742638096816,None,783.3742638096816,None,n,0.06592956147210316,783.3742638096816,None,sing29,001,2019_Nov_11_1510,ProdFawcett_Revision2019,3.2.4,59.928224894090285,
,,,,90,0,90,0,,,,,,,,,,,,,785.991801879161,None,,,,,,,,,,,,,,,,,,,,,,strain,D_new,90,308,783.9924123841384,None,783.9924123841384,None,783.9924123841384,None,1,0.9832588525555366,783.9924123841384,None,785.0414732856644,None,785.0414732856644,None,785.558147100288,None,785.558147100288,None,785.558147100288,None,n,0.38552845068261377,785.558147100288,None,sing29,001,2019_Nov_11_1510,ProdFawcett_Revision2019,3.2.4,59.928224894090285,
,,,,91,0,91,0,,,,,,,,,,,,,788.725984653093,None,,,,,,,,,,,,,,,,,,,,,,detective,B_aloud,91,92,786.5103821611875,None,786.5103821611875,None,786.5103821611875,None,6,1.0975853175264092,786.5103821611875,None,787.6589255174598,None,787.6589255174598,None,788.1765802453277,None,788.1765802453277,None,788.1765802453277,None,r,0.5109802259210028,788.1765802453277,None,sing29,001,2019_Nov_11_1510,ProdFawcett_Revision2019,3.2.4,59.928224894090285,
,,,,92,0,92,0,,,,,,,,,,,,,791.6268999751506,None,,,,,,,,,,,,,,,,,,,,,,smooth,B_aloud,92,292,789.2429700958304,None,789.2429700958304,None,789.2429700958304,None,1,0.6286133077644536,789.2429700958304,None,789.9142263832074,None,789.9142263832074,None,790.4430882159478,None,790.4430882159478,None,790.4430882159478,None,r,1.1484369921852249,790.4430882159478,None,sing29,001,2019_Nov_11_1510,ProdFawcett_Revision2019,3.2.4,59.928224894090285,
,,,,93,0,93,0,,,,,,,,,,,,,793.8442789339084,None,,,,,,,,,,,,,,,,,,,,,,resistance,D_new,93,262,792.1465774867037,None,792.1465774867037,None,792.1465774867037,None,1,0.876687324728664,792.1465774867037,None,793.0656953738775,None,793.0656953738775,None,793.5943957944511,None,793.5943957944511,None,793.5943957944511,None,n,0.20528548649599543,793.5943957944511,None,sing29,001,2019_Nov_11_1510,ProdFawcett_Revision2019,3.2.4,59.928224894090285,
,,,,94,0,94,0,,,,,,,,,,,,,796.3950349741912,None,,,,,,,,,,,,,,,,,,,,,,conference,A_silent,94,66,794.3634880702724,None,794.3634880702724,None,794.3634880702724,None,6,1.131592590714945,794.3634880702724,None,795.5446935983438,None,795.5446935983438,None,796.0615027006214,None,796.0615027006214,None,796.0615027006214,None,r,0.2903901291638249,796.0615027006214,None,sing29,001,2019_Nov_11_1510,ProdFawcett_Revision2019,3.2.4,59.928224894090285,
,,,,95,0,95,0,,,,,,,,,,,,,798.5457273826256,None,,,,,,,,,,,,,,,,,,,,,,childhood,D_new,95,49,796.9145479635164,None,796.9145479635164,None,796.9145479635164,None,1,0.9484348773439706,796.9145479635164,None,797.9288119473616,None,797.9288119473616,None,798.4457768636963,None,798.4457768636963,None,798.4457768636963,None,n,0.06609190665722053,798.4457768636963,None,sing29,001,2019_Nov_11_1510,ProdFawcett_Revision2019,3.2.4,59.928224894090285,
,,,,96,0,96,0,,,,,,,,,,,,,800.9965490762962,None,,,,,,,,,,,,,,,,,,,,,,travel,B_aloud,96,338,799.062553901245,None,799.062553901245,None,799.062553901245,None,6,0.8485223011591643,799.062553901245,None,799.9627958950927,None,799.9627958950927,None,800.4797318878599,None,800.4797318878599,None,800.4797318878599,None,r,0.4710666358562321,800.4797318878599,None,sing29,001,2019_Nov_11_1510,ProdFawcett_Revision2019,3.2.4,59.928224894090285,
,,,,97,0,97,0,,,,,,,,,,,,,803.263928797019,None,,,,,,,,,,,,,,,,,,,,,,relation,A_silent,97,257,801.5155258911024,None,801.5155258911024,None,801.5155258911024,None,1,1.0193697710153629,801.5155258911024,None,802.5969382693319,None,802.5969382693319,None,803.11391966899,None,803.11391966899,None,803.11391966899,None,n,0.11694762439560691,803.11391966899,None,sing29,001,2019_Nov_11_1510,ProdFawcett_Revision2019,3.2.4,59.928224894090285,
,,,,98,0,98,0,,,,,,,,,,,,,806.1647352669412,None,,,,,,,,,,,,,,,,,,,,,,health,A_silent,98,149,803.7823613511474,None,803.7823613511474,None,803.7823613511474,None,1,1.3522352475033586,803.7823613511474,None,805.1860789936837,None,805.1860789936837,None,805.7145604659617,None,805.7145604659617,None,805.7145604659617,None,n,0.4122569370688325,805.7145604659617,None,sing29,001,2019_Nov_11_1510,ProdFawcett_Revision2019,3.2.4,59.928224894090285,
,,,,99,0,99,0,,,,,,,,,,,,,810.5561510631277,None,,,,,,,,,,,,,,,,,,,,,,place,D_new,99,222,806.6816267858359,None,806.6816267858359,None,806.6816267858359,None,5,3.2612264650019824,806.6816267858359,None,809.9868298246143,None,809.9868298246143,None,810.5161289319334,None,810.5161289319334,None,810.5161289319334,None,f,0.010540307790279257,810.5161289319334,None,sing29,001,2019_Nov_11_1510,ProdFawcett_Revision2019,3.2.4,59.928224894090285,
,,,,100,0,100,0,,,,,,,,,,,,,813.8673157778682,None,,,,,,,,,,,,,,,,,,,,,,swift,D_new,100,320,811.0830495143483,None,811.0830495143483,None,811.0830495143483,None,5,1.6760327190859243,811.0830495143483,None,812.8045793160417,None,812.8045793160417,None,813.333674403358,None,813.333674403358,None,813.333674403358,None,f,0.48871716514190666,813.333674403358,None,sing29,001,2019_Nov_11_1510,ProdFawcett_Revision2019,3.2.4,59.928224894090285,
,,,,101,0,101,0,,,,,,,,,,,,,816.241227839649,None,,,,,,,,,,,,,,,,,,,,,,individual,D_new,101,160,814.386496612677,None,814.386496612677,None,814.386496612677,None,1,1.2198682515952441,814.386496612677,None,815.6566368235577,None,815.6566368235577,None,816.1846371693965,None,816.1846371693965,None,816.1846371693965,None,n,0.022199926540451997,816.1846371693965,None,sing29,001,2019_Nov_11_1510,ProdFawcett_Revision2019,3.2.4,59.928224894090285,
,,,,102,0,102,0,,,,,,,,,,,,,818.8689249234382,None,,,,,,,,,,,,,,,,,,,,,,trail,D_new,102,336,816.768139353126,None,816.768139353126,None,816.768139353126,None,6,1.0066947173436347,816.768139353126,None,817.8351509048256,None,817.8351509048256,None,818.3520128781407,None,818.3520128781407,None,818.3520128781407,None,r,0.47836563805549304,818.3520128781407,None,sing29,001,2019_Nov_11_1510,ProdFawcett_Revision2019,3.2.4,59.928224894090285,
,,,,103,0,103,0,,,,,,,,,,,,,821.4864365573989,None,,,,,,,,,,,,,,,,,,,,,,reading,B_aloud,103,254,819.3904790458083,None,819.3904790458083,None,819.3904790458083,None,1,0.887816989081557,819.3904790458083,None,820.3360439588465,None,820.3360439588465,None,820.8529578701804,None,820.8529578701804,None,820.8529578701804,None,n,0.5932994979427804,820.8529578701804,None,sing29,001,2019_Nov_11_1510,ProdFawcett_Revision2019,3.2.4,59.928224894090285,
,,,,104,0,104,0,,,,,,,,,,,,,823.870396915317,None,,,,,,,,,,,,,,,,,,,,,,education,C_sing,104,108,822.0043413341726,None,822.0043413341726,None,822.0043413341726,None,6,1.1373996966447066,822.0043413341726,None,823.2034816511065,None,823.2034816511065,None,823.7204655388133,None,823.7204655388133,None,823.7204655388133,None,r,0.11722535284434343,823.7204655388133,None,sing29,001,2019_Nov_11_1510,ProdFawcett_Revision2019,3.2.4,59.928224894090285,
,,,,105,0,105,0,,,,,,,,,,,,,825.9878300202371,None,,,,,,,,,,,,,,,,,,,,,,benefit,C_sing,105,20,824.3886214063633,None,824.3886214063633,None,824.3886214063633,None,6,0.841614233629798,824.3886214063633,None,825.287544112328,None,825.287544112328,None,825.8044987654613,None,825.8044987654613,None,825.8044987654613,None,r,0.1453179119921515,825.8044987654613,None,sing29,001,2019_Nov_11_1510,ProdFawcett_Revision2019,3.2.4,59.928224894090285,
,,,,106,0,106,0,,,,,,,,,,,,,829.1555459696564,None,,,,,,,,,,,,,,,,,,,,,,fight,A_silent,106,127,826.5058980752143,None,826.5058980752143,None,826.5058980752143,None,2,1.8116562598841028,826.5058980752143,None,828.3718420051683,None,828.3718420051683,None,828.8887739548562,None,828.8887739548562,None,828.8887739548562,None,f,0.22873410253441762,828.8887739548562,None,sing29,001,2019_Nov_11_1510,ProdFawcett_Revision2019,3.2.4,59.928224894090285,
,,,,107,0,107,0,,,,,,,,,,,,,831.806429180334,None,,,,,,,,,,,,,,,,,,,,,,accident,A_silent,107,0,829.6736373500911,None,829.6736373500911,None,829.6736373500911,None,6,1.348252503365984,829.6736373500911,None,831.0727424611342,None,831.0727424611342,None,831.5899129525022,None,831.5899129525022,None,831.5899129525022,None,r,0.17564380595581497,831.5899129525022,None,sing29,001,2019_Nov_11_1510,ProdFawcett_Revision2019,3.2.4,59.928224894090285,
,,,,108,0,108,0,,,,,,,,,,,,,834.890728628205,None,,,,,,,,,,,,,,,,,,,,,,instrument,D_new,108,163,832.3259054709393,None,832.3259054709393,None,832.3259054709393,None,1,1.5274324486972546,832.3259054709393,None,833.8961712349834,None,833.8961712349834,None,834.4237812681646,None,834.4237812681646,None,834.4237812681646,None,n,0.42159520627637903,834.4237812681646,None,sing29,001,2019_Nov_11_1510,ProdFawcett_Revision2019,3.2.4,59.928224894090285,
,,,,109,0,109,0,,,,,,,,,,,,,839.275422649517,None,,,,,,,,,,,,,,,,,,,,,,institute,B_aloud,109,162,835.409601566973,None,835.409601566973,None,835.409601566973,None,4,3.019380656229032,835.409601566973,None,838.4810676590663,None,838.4810676590663,None,839.0090023826177,None,839.0090023826177,None,839.0090023826177,None,f,0.2199447590960517,839.0090023826177,None,sing29,001,2019_Nov_11_1510,ProdFawcett_Revision2019,3.2.4,59.928224894090285,
,,,,110,0,110,0,,,,,,,,,,,,,843.0098337019273,None,,,,,,,,,,,,,,,,,,,,,,community,D_new,110,63,839.7952233194864,None,839.7952233194864,None,839.7952233194864,None,1,1.5457827417117187,839.7952233194864,None,841.3927055384898,None,841.3927055384898,None,841.9096489954037,None,841.9096489954037,None,841.9096489954037,None,n,1.0552116691976607,841.9096489954037,None,sing29,001,2019_Nov_11_1510,ProdFawcett_Revision2019,3.2.4,59.928224894090285,
,,,,111,0,111,0,,,,,,,,,,,,,845.2106671360785,None,,,,,,,,,,,,,,,,,,,,,,author,D_new,111,15,843.5268633075312,None,843.5268633075312,None,843.5268633075312,None,1,0.7980671592795261,843.5268633075312,None,844.3771032953895,None,844.3771032953895,None,844.8937273490368,None,844.8937273490368,None,844.8937273490368,None,n,0.2709295443667088,844.8937273490368,None,sing29,001,2019_Nov_11_1510,ProdFawcett_Revision2019,3.2.4,59.928224894090285,
,,,,112,0,112,0,,,,,,,,,,,,,847.844807022269,None,,,,,,,,,,,,,,,,,,,,,,people,B_aloud,112,216,845.7286960042869,None,845.7286960042869,None,845.7286960042869,None,6,1.0922543619383305,845.7286960042869,None,846.877841779378,None,846.877841779378,None,847.3947821262306,None,847.3947821262306,None,847.3947821262306,None,r,0.41015546884023024,847.3947821262306,None,sing29,001,2019_Nov_11_1510,ProdFawcett_Revision2019,3.2.4,59.928224894090285,
,,,,113,0,113,0,,,,,,,,,,,,,850.1622288687682,None,,,,,,,,,,,,,,,,,,,,,,present,D_new,113,231,848.3629123979782,None,848.3629123979782,None,848.3629123979782,None,1,0.9534996117088212,848.3629123979782,None,849.369451301265,None,849.369451301265,None,849.8955361605239,None,849.8955361605239,None,849.8955361605239,None,n,0.22889084960957007,849.8955361605239,None,sing29,001,2019_Nov_11_1510,ProdFawcett_Revision2019,3.2.4,59.928224894090285,
,,,,114,0,114,0,,,,,,,,,,,,,852.9129975980999,None,,,,,,,,,,,,,,,,,,,,,,nature,A_silent,114,200,850.6799700563325,None,850.6799700563325,None,850.6799700563325,None,6,1.1892304185114426,850.6799700563325,None,851.9195032237338,None,851.9195032237338,None,852.4462869137029,None,852.4462869137029,None,852.4462869137029,None,r,0.4221724336009629,852.4462869137029,None,sing29,001,2019_Nov_11_1510,ProdFawcett_Revision2019,3.2.4,59.928224894090285,
,,,,115,0,115,0,,,,,,,,,,,,,855.0137716611863,None,,,,,,,,,,,,,,,,,,,,,,signal,D_new,115,287,853.4307739293537,None,853.4307739293537,None,853.4307739293537,None,1,0.8854163329829134,853.4307739293537,None,854.3801334278377,None,854.3801334278377,None,854.8970632004829,None,854.8970632004829,None,854.8970632004829,None,n,0.07553529592701125,854.8970632004829,None,sing29,001,2019_Nov_11_1510,ProdFawcett_Revision2019,3.2.4,59.928224894090285,
,,,,116,0,116,0,,,,,,,,,,,,,857.4646393837601,None,,,,,,,,,,,,,,,,,,,,,,broke,C_sing,116,32,855.5309993776767,None,855.5309993776767,None,855.5309993776767,None,2,1.1690713140101252,855.5309993776767,None,856.7514899524814,None,856.7514899524814,None,857.2810279124866,None,857.2810279124866,None,857.2810279124866,None,f,0.13981745807859625,857.2810279124866,None,sing29,001,2019_Nov_11_1510,ProdFawcett_Revision2019,3.2.4,59.928224894090285,
,,,,117,0,117,0,,,,,,,,,,,,,860.148772256763,None,,,,,,,,,,,,,,,,,,,,,,employment,D_new,117,111,857.9839396449119,None,857.9839396449119,None,857.9839396449119,None,1,1.4359944777756937,857.9839396449119,None,859.4817904372466,None,859.4817904372466,None,859.9989892301697,None,859.9989892301697,None,859.9989892301697,None,n,0.10098243717447986,859.9989892301697,None,sing29,001,2019_Nov_11_1510,ProdFawcett_Revision2019,3.2.4,59.928224894090285,
,,,,118,0,118,0,,,,,,,,,,,,,862.5495067287726,None,,,,,,,,,,,,,,,,,,,,,,write,B_aloud,118,358,860.6659511452955,None,860.6659511452955,None,860.6659511452955,None,1,0.9943664354752855,860.6659511452955,None,861.7032205614843,None,861.7032205614843,None,862.2327619425565,None,862.2327619425565,None,862.2327619425565,None,n,0.28351254023255024,862.2327619425565,None,sing29,001,2019_Nov_11_1510,ProdFawcett_Revision2019,3.2.4,59.928224894090285,
,,,,119,0,119,0,,,,,,,,,,,,,864.7169238013281,None,,,,,,,,,,,,,,,,,,,,,,charter,A_silent,119,47,863.0678773926865,None,863.0678773926865,None,863.0678773926865,None,6,0.9839368458569879,863.0678773926865,None,864.104831137682,None,864.104831137682,None,864.6333769882232,None,864.6333769882232,None,864.6333769882232,None,r,0.05042373026299174,864.6333769882232,None,sing29,001,2019_Nov_11_1510,ProdFawcett_Revision2019,3.2.4,59.928224894090285,
,,,,120,0,120,0,,,,,,,,,,,,,866.884082116807,None,,,,,,,,,,,,,,,,,,,,,,speech,C_sing,120,298,865.2347386973385,None,865.2347386973385,None,865.2347386973385,None,6,0.6897216526490411,865.2347386973385,None,865.9838441660387,None,865.9838441660387,None,866.5007779817632,None,866.5007779817632,None,866.5007779817632,None,r,0.3431013093045294,866.5007779817632,None,sing29,001,2019_Nov_11_1510,ProdFawcett_Revision2019,3.2.4,59.928224894090285,
,,,,121,0,121,0,,,,,,,,,,,,,869.5350620503824,None,,,,,,,,,,,,,,,,,,,,,,power,A_silent,121,230,867.4017132082114,None,867.4017132082114,None,867.4017132082114,None,6,1.0018389790791389,867.4017132082114,None,868.4680389914569,None,868.4680389914569,None,868.9849423285835,None,868.9849423285835,None,868.9849423285835,None,r,0.5073946365753272,868.9849423285835,None,sing29,001,2019_Nov_11_1510,ProdFawcett_Revision2019,3.2.4,59.928224894090285,
,,,,122,0,122,0,,,,,,,,,,,,,871.5190383940143,None,,,,,,,,,,,,,,,,,,,,,,space,C_sing,122,297,870.0520238566561,None,870.0520238566561,None,870.0520238566561,None,6,0.5355077221258853,870.0520238566561,None,870.6404113242298,None,870.6404113242298,None,871.1688352603788,None,871.1688352603788,None,871.1688352603788,None,r,0.3074174022219722,871.1688352603788,None,sing29,001,2019_Nov_11_1510,ProdFawcett_Revision2019,3.2.4,59.928224894090285,
,,,,123,0,123,0,,,,,,,,,,,,,873.8197679210269,None,,,,,,,,,,,,,,,,,,,,,,under,A_silent,123,343,872.0361361099543,None,872.0361361099543,None,872.0361361099543,None,1,1.0314511140393279,872.0361361099543,None,873.1195445253439,None,873.1195445253439,None,873.6362348232909,None,873.6362348232909,None,873.6362348232909,None,n,0.13509234237676537,873.6362348232909,None,sing29,001,2019_Nov_11_1510,ProdFawcett_Revision2019,3.2.4,59.928224894090285,
,,,,124,0,124,0,,,,,,,,,,,,,875.7869306527924,None,,,,,,,,,,,,,,,,,,,,,,stranger,C_sing,124,309,874.3379930340853,None,874.3379930340853,None,874.3379930340853,None,6,0.8416437792093348,874.3379930340853,None,875.2368746872445,None,875.2368746872445,None,875.7540078578801,None,875.7540078578801,None,875.7540078578801,None,r,0.001164095838475987,875.7540078578801,None,sing29,001,2019_Nov_11_1510,ProdFawcett_Revision2019,3.2.4,59.928224894090285,
,,,,125,0,125,0,,,,,,,,,,,,,877.9542752609262,None,,,,,,,,,,,,,,,,,,,,,,blind,B_aloud,125,24,876.3037944921442,None,876.3037944921442,None,876.3037944921442,None,6,0.7475296007830821,876.3037944921442,None,877.0926347224007,None,877.0926347224007,None,877.6208611696753,None,877.6208611696753,None,877.6208611696753,None,r,0.28620149898711134,877.6208611696753,None,sing29,001,2019_Nov_11_1510,ProdFawcett_Revision2019,3.2.4,59.928224894090285,
,,,,126,0,126,0,,,,,,,,,,,,,880.4717545813531,None,,,,,,,,,,,,,,,,,,,,,,series,B_aloud,126,279,878.4721430279741,None,878.4721430279741,None,878.4721430279741,None,6,0.9077705185497962,878.4721430279741,None,879.427800400016,None,879.427800400016,None,879.9550960060286,None,879.9550960060286,None,879.9550960060286,None,r,0.4799533242041889,879.9550960060286,None,sing29,001,2019_Nov_11_1510,ProdFawcett_Revision2019,3.2.4,59.928224894090285,
,,,,127,0,127,0,,,,,,,,,,,,,882.8559438397621,None,,,,,,,,,,,,,,,,,,,,,,dance,D_new,127,84,880.989017130527,None,880.989017130527,None,880.989017130527,None,1,0.8619092477974846,880.989017130527,None,881.8932984716226,None,881.8932984716226,None,882.4223748985731,None,882.4223748985731,None,882.4223748985731,None,n,0.3965327795765461,882.4223748985731,None,sing29,001,2019_Nov_11_1510,ProdFawcett_Revision2019,3.2.4,59.928224894090285,
,,,,128,0,128,0,,,,,,,,,,,,,885.1400087268313,None,,,,,,,,,,,,,,,,,,,,,,sunset,D_new,128,315,883.3741297660519,None,883.3741297660519,None,883.3741297660519,None,1,0.8365896190516651,883.3741297660519,None,884.2617744577532,None,884.2617744577532,None,884.7932499857715,None,884.7932499857715,None,884.7932499857715,None,n,0.29745401075024347,884.7932499857715,None,sing29,001,2019_Nov_11_1510,ProdFawcett_Revision2019,3.2.4,59.928224894090285,
,,,,129,0,129,0,,,,,,,,,,,,,887.8909027916219,None,,,,,,,,,,,,,,,,,,,,,,principal,B_aloud,129,236,885.6578743168362,None,885.6578743168362,None,885.6578743168362,None,6,1.096939046847183,885.6578743168362,None,886.8072763609549,None,886.8072763609549,None,887.3240764440558,None,887.3240764440558,None,887.3240764440558,None,r,0.5268990732329257,887.3240764440558,None,sing29,001,2019_Nov_11_1510,ProdFawcett_Revision2019,3.2.4,59.928224894090285,
,,,,130,0,130,0,,,,,,,,,,,,,889.8748060488198,None,,,,,,,,,,,,,,,,,,,,,,front,D_new,130,134,888.4081606757044,None,888.4081606757044,None,888.4081606757044,None,1,0.8503286245972959,888.4081606757044,None,889.2977587967299,None,889.2977587967299,None,889.8249110289295,None,889.8249110289295,None,889.8249110289295,None,n,0.0016274949298349384,889.8249110289295,None,sing29,001,2019_Nov_11_1510,ProdFawcett_Revision2019,3.2.4,59.928224894090285,
,,,,131,0,131,0,,,,,,,,,,,,,892.4590362978332,None,,,,,,,,,,,,,,,,,,,,,,shape,B_aloud,131,282,890.392004841743,None,890.392004841743,None,890.392004841743,None,6,1.0753045293995456,890.392004841743,None,891.5158558685763,None,891.5158558685763,None,892.042246757839,None,892.042246757839,None,892.042246757839,None,r,0.36814507563826737,892.042246757839,None,sing29,001,2019_Nov_11_1510,ProdFawcett_Revision2019,3.2.4,59.928224894090285,
,,,,132,0,132,0,,,,,,,,,,,,,895.0433004465114,None,,,,,,,,,,,,,,,,,,,,,,weight,A_silent,132,353,892.97699985476,None,892.97699985476,None,892.97699985476,None,6,1.1852576265694097,892.97699985476,None,894.2165075196609,None,894.2165075196609,None,894.7430899886825,None,894.7430899886825,None,894.7430899886825,None,r,0.26715299727470665,894.7430899886825,None,sing29,001,2019_Nov_11_1510,ProdFawcett_Revision2019,3.2.4,59.928224894090285,
,,,,133,0,133,0,,,,,,,,,,,,,897.1605432156974,None,,,,,,,,,,,,,,,,,,,,,,question,C_sing,133,247,895.5644742084195,None,895.5644742084195,None,895.5644742084195,None,6,0.693935474320142,895.5644742084195,None,896.3101116480804,None,896.3101116480804,None,896.8272280243865,None,896.8272280243865,None,896.8272280243865,None,r,0.28689037750245916,896.8272280243865,None,sing29,001,2019_Nov_11_1510,ProdFawcett_Revision2019,3.2.4,59.928224894090285,
,,,,134,0,134,0,,,,,,,,,,,,,900.4781351825342,None,,,,,,,,,,,,,,,,,,,,,,century,D_new,134,45,897.6781820822542,None,897.6781820822542,None,897.6781820822542,None,2,2.0761824996243377,897.6781820822542,None,899.7998610424737,None,899.7998610424737,None,900.3282053610609,None,900.3282053610609,None,900.3282053610609,None,f,0.10625772267030698,900.3282053610609,None,sing29,001,2019_Nov_11_1510,ProdFawcett_Revision2019,3.2.4,59.928224894090285,
,,,,135,0,135,0,,,,,,,,,,,,,902.7621733230784,None,,,,,,,,,,,,,,,,,,,,,,society,D_new,135,293,900.9956891444252,None,900.9956891444252,None,900.9956891444252,None,1,1.0861779247247796,900.9956891444252,None,902.1355059804918,None,902.1355059804918,None,902.6622722541193,None,902.6622722541193,None,902.6622722541193,None,n,0.051560768570652726,902.6622722541193,None,sing29,001,2019_Nov_11_1510,ProdFawcett_Revision2019,3.2.4,59.928224894090285,
,,,,136,0,136,0,,,,,,,,,,,,,905.7466049796432,None,,,,,,,,,,,,,,,,,,,,,,citizen,B_aloud,136,50,903.2845671619231,None,903.2845671619231,None,903.2845671619231,None,6,1.7811285229604437,903.2845671619231,None,905.1296298312076,None,905.1296298312076,None,905.6473570234974,None,905.6473570234974,None,905.6473570234974,None,r,0.06633418041019468,905.6473570234974,None,sing29,001,2019_Nov_11_1510,ProdFawcett_Revision2019,3.2.4,59.928224894090285,
,,,,137,0,137,0,,,,,,,,,,,,,907.7366487413116,None,,,,,,,,,,,,,,,,,,,,,,clean,C_sing,137,51,906.264583464863,None,906.264583464863,None,906.264583464863,None,1,0.8414316730479641,906.264583464863,None,907.1520151173846,None,907.1520151173846,None,907.6804070199054,None,907.6804070199054,None,907.6804070199054,None,n,0.01718557516369401,907.6804070199054,None,sing29,001,2019_Nov_11_1510,ProdFawcett_Revision2019,3.2.4,59.928224894090285,
,,,,138,0,138,0,,,,,,,,,,,,,910.2813911676134,None,,,,,,,,,,,,,,,,,,,,,,strength,D_new,138,310,908.2642923631519,None,908.2642923631519,None,908.2642923631519,None,6,0.8814933020169065,908.2642923631519,None,909.1869936626287,None,909.1869936626287,None,909.7147327633421,None,909.7147327633421,None,909.7147327633421,None,r,0.5272026151881164,909.7147327633421,None,sing29,001,2019_Nov_11_1510,ProdFawcett_Revision2019,3.2.4,59.928224894090285,
,,,,139,0,139,0,,,,,,,,,,,,,912.8987364133096,None,,,,,,,,,,,,,,,,,,,,,,fashion,D_new,139,125,910.7990455844753,None,910.7990455844753,None,910.7990455844753,None,1,1.1784276215714726,910.7990455844753,None,912.0317963308122,None,912.0317963308122,None,912.5487814625434,None,912.5487814625434,None,912.5487814625434,None,n,0.31695751438951447,912.5487814625434,None,sing29,001,2019_Nov_11_1510,ProdFawcett_Revision2019,3.2.4,59.928224894090285,
,,,,140,0,140,0,,,,,,,,,,,,,915.8498344359017,None,,,,,,,,,,,,,,,,,,,,,,equipment,D_new,140,116,913.4188496444111,None,913.4188496444111,None,913.4188496444111,None,1,1.5105130947563339,913.4188496444111,None,914.9828271760863,None,914.9828271760863,None,915.5037269416188,None,915.5037269416188,None,915.5037269416188,None,n,0.30576564881630475,915.5037269416188,None,sing29,001,2019_Nov_11_1510,ProdFawcett_Revision2019,3.2.4,59.928224894090285,
,,,,141,0,141,0,,,,,,,,,,,,,918.5172183863075,None,,,,,,,,,,,,,,,,,,,,,,native,B_aloud,141,199,916.3691063954983,None,916.3691063954983,None,916.3691063954983,None,6,1.0000027990549825,916.3691063954983,None,917.4335244673165,None,917.4335244673165,None,917.9504918716999,None,917.9504918716999,None,917.9504918716999,None,r,0.5232742971184052,917.9504918716999,None,sing29,001,2019_Nov_11_1510,ProdFawcett_Revision2019,3.2.4,59.928224894090285,
,,,,142,0,142,0,,,,,,,,,,,,,921.8517548985793,None,,,,,,,,,,,,,,,,,,,,,,crisis,D_new,142,79,919.0356478303748,None,919.0356478303748,None,919.0356478303748,None,1,2.0852570356578326,919.0356478303748,None,921.1849313811687,None,921.1849313811687,None,921.7017025407021,None,921.7017025407021,None,921.7017025407021,None,n,0.10798598357700939,921.7017025407021,None,sing29,001,2019_Nov_11_1510,ProdFawcett_Revision2019,3.2.4,59.928224894090285,
,,,,143,0,143,0,,,,,,,,,,,,,925.1693226069402,None,,,,,,,,,,,,,,,,,,,,,,birth,B_aloud,143,22,922.3693424491295,None,922.3693424491295,None,922.3693424491295,None,1,1.824261026177055,922.3693424491295,None,924.252443963698,None,924.252443963698,None,924.7694098130511,None,924.7694098130511,None,924.7694098130511,None,n,0.35969597287544275,924.7694098130511,None,sing29,001,2019_Nov_11_1510,ProdFawcett_Revision2019,3.2.4,59.928224894090285,
,,,,144,0,144,0,,,,,,,,,,,,,927.5035061272866,None,,,,,,,,,,,,,,,,,,,,,,plane,D_new,144,223,925.686563696693,None,925.686563696693,None,925.686563696693,None,1,0.8982646170536555,925.686563696693,None,926.6365943463444,None,926.6365943463444,None,927.1532737590779,None,927.1532737590779,None,927.1532737590779,None,n,0.31180414328537154,927.1532737590779,None,sing29,001,2019_Nov_11_1510,ProdFawcett_Revision2019,3.2.4,59.928224894090285,
,,,,145,0,145,0,,,,,,,,,,,,,931.1378889092424,None,,,,,,,,,,,,,,,,,,,,,,sound,B_aloud,145,295,928.0213574110111,None,928.0213574110111,None,928.0213574110111,None,5,2.4436390077537453,928.0213574110111,None,930.521094144346,None,930.521094144346,None,931.0379996585153,None,931.0379996585153,None,931.0379996585153,None,f,0.06687626404550429,931.0379996585153,None,sing29,001,2019_Nov_11_1510,ProdFawcett_Revision2019,3.2.4,59.928224894090285,
,,,,146,0,146,0,,,,,,,,,,,,,933.7388839421641,None,,,,,,,,,,,,,,,,,,,,,,track,B_aloud,146,334,931.6548600456991,None,931.6548600456991,None,931.6548600456991,None,6,1.2339272824192449,931.6548600456991,None,932.9384885912076,None,932.9384885912076,None,933.4552992485159,None,933.4552992485159,None,933.4552992485159,None,r,0.24188126346848549,933.4552992485159,None,sing29,001,2019_Nov_11_1510,ProdFawcett_Revision2019,3.2.4,59.928224894090285,
,,,,147,0,147,0,,,,,,,,,,,,,937.0602900878313,None,,,,,,,,,,,,,,,,,,,,,,silence,D_new,147,288,934.2562270419184,None,934.2562270419184,None,934.2562270419184,None,3,2.160357545054694,934.2562270419184,None,936.4732166210368,None,936.4732166210368,None,936.9756143225774,None,936.9756143225774,None,936.9756143225774,None,f,0.06488955706822708,936.9756143225774,None,sing29,001,2019_Nov_11_1510,ProdFawcett_Revision2019,3.2.4,59.928224894090285,
,,,,148,0,148,0,,,,,,,,,,,,,939.6572883813407,None,,,,,,,,,,,,,,,,,,,,,,attack,A_silent,148,13,937.5904873807718,None,937.5904873807718,None,937.5904873807718,None,6,0.9375944486653225,937.5904873807718,None,938.59032876766,None,938.59032876766,None,939.1072423679881,None,939.1072423679881,None,939.1072423679881,None,r,0.5008171685319667,939.1072423679881,None,sing29,001,2019_Nov_11_1510,ProdFawcett_Revision2019,3.2.4,59.928224894090285,
,,,,149,0,149,0,,,,,,,,,,,,,942.1582255982279,None,,,,,,,,,,,,,,,,,,,,,,course,D_new,149,74,940.1741805222476,None,940.1741805222476,None,940.1741805222476,None,1,0.8906521207038622,940.1741805222476,None,941.1116574106067,None,941.1116574106067,None,941.6412790312532,None,941.6412790312532,None,941.6412790312532,None,n,0.4706368254237532,941.6412790312532,None,sing29,001,2019_Nov_11_1510,ProdFawcett_Revision2019,3.2.4,59.928224894090285,
,,,,150,0,150,0,,,,,,,,,,,,,944.5089624183337,None,,,,,,,,,,,,,,,,,,,,,,throw,D_new,150,330,942.6755475495673,None,942.6755475495673,None,942.6755475495673,None,1,0.9328049547004866,942.6755475495673,None,943.6586260185837,None,943.6586260185837,None,944.1755085183016,None,944.1755085183016,None,944.1755085183016,None,n,0.29640001107190983,944.1755085183016,None,sing29,001,2019_Nov_11_1510,ProdFawcett_Revision2019,3.2.4,59.928224894090285,
,,,,151,0,151,0,,,,,,,,,,,,,946.7596566617041,None,,,,,,,,,,,,,,,,,,,,,,harmony,A_silent,151,148,945.0262514030263,None,945.0262514030263,None,945.0262514030263,None,6,1.0456071787673409,945.0262514030263,None,946.1153708234602,None,946.1153708234602,None,946.643352819939,None,946.643352819939,None,946.643352819939,None,r,0.06846799327354347,946.643352819939,None,sing29,001,2019_Nov_11_1510,ProdFawcett_Revision2019,3.2.4,59.928224894090285,
,,,,152,0,152,0,,,,,,,,,,,,,948.9437022974954,None,,,,,,,,,,,,,,,,,,,,,,evidence,D_new,152,120,947.2774833759464,None,947.2774833759464,None,947.2774833759464,None,1,0.8587086840054781,947.2774833759464,None,948.1830488612355,None,948.1830488612355,None,948.7103273619124,None,948.7103273619124,None,948.7103273619124,None,n,0.19373503088741018,948.7103273619124,None,sing29,001,2019_Nov_11_1510,ProdFawcett_Revision2019,3.2.4,59.928224894090285,
,,,,153,0,153,0,,,,,,,,,,,,,951.4111329610176,None,,,,,,,,,,,,,,,,,,,,,,force,A_silent,153,131,949.4655668039551,None,949.4655668039551,None,949.4655668039551,None,6,0.8867748076349926,949.4655668039551,None,950.4109432472954,None,950.4109432472954,None,950.9276593587489,None,950.9276593587489,None,950.9276593587489,None,r,0.4480263708292114,950.9276593587489,None,sing29,001,2019_Nov_11_1510,ProdFawcett_Revision2019,3.2.4,59.928224894090285,
,,,,154,0,154,0,,,,,,,,,,,,,953.5618567810681,None,,,,,,,,,,,,,,,,,,,,,,beauty,D_new,154,18,951.9282499593359,None,951.9282499593359,None,951.9282499593359,None,1,0.8473255496799084,951.9282499593359,None,952.8281722389112,None,952.8281722389112,None,953.3449975135062,None,953.3449975135062,None,953.3449975135062,None,n,0.17520466534028856,953.3449975135062,None,sing29,001,2019_Nov_11_1510,ProdFawcett_Revision2019,3.2.4,59.928224894090285,
