StudyTrials.thisRepN,StudyTrials.thisTrialN,StudyTrials.thisN,StudyTrials.thisIndex,TestTrials.thisRepN,TestTrials.thisTrialN,TestTrials.thisN,TestTrials.thisIndex,keyWelcome.keys,keyWelcome.rt,keyReady.keys,keyReady.rt,studyPic,studyWord,studyType,studyN,studyOrder,kPress2.keys,kPress2.rt,testWord,testType,testN,testOrder,keyConf.keys,keyConf.rt,keyRKN.keys,keyRKN.rt,date,frameRate,expName,session,participant,
,,,,,,,,space,3.3079311,,,,,,,,,,,,,,,,,,2019_Nov_04_0900,59.9863471074,ProdFawcett_Revision2019,001,sing16,
,,,,,,,,,,space,100.6747627,,,,,,,,,,,,,,,,2019_Nov_04_0900,59.9863471074,ProdFawcett_Revision2019,001,sing16,
0,0,0,0,,,,,,,,,materials/speakPic.jpg,emergency,B_aloud,0,110,,,,,,,,,,,2019_Nov_04_0900,59.9863471074,ProdFawcett_Revision2019,001,sing16,
1,0,1,0,,,,,,,,,materials/singPic.jpg,shear,C_sing,1,283,,,,,,,,,,,2019_Nov_04_0900,59.9863471074,ProdFawcett_Revision2019,001,sing16,
2,0,2,0,,,,,,,,,materials/singPic.jpg,instrument,C_sing,2,163,,,,,,,,,,,2019_Nov_04_0900,59.9863471074,ProdFawcett_Revision2019,001,sing16,
3,0,3,0,,,,,,,,,materials/speakPic.jpg,history,B_aloud,3,153,,,,,,,,,,,2019_Nov_04_0900,59.9863471074,ProdFawcett_Revision2019,001,sing16,
4,0,4,0,,,,,,,,,materials/singPic.jpg,conference,C_sing,4,66,,,,,,,,,,,2019_Nov_04_0900,59.9863471074,ProdFawcett_Revision2019,001,sing16,
5,0,5,0,,,,,,,,,materials/readPic.jpg,trial,A_silent,5,341,,,,,,,,,,,2019_Nov_04_0900,59.9863471074,ProdFawcett_Revision2019,001,sing16,
6,0,6,0,,,,,,,,,materials/readPic.jpg,oxygen,A_silent,6,209,,,,,,,,,,,2019_Nov_04_0900,59.9863471074,ProdFawcett_Revision2019,001,sing16,
7,0,7,0,,,,,,,,,materials/singPic.jpg,phrase,C_sing,7,220,,,,,,,,,,,2019_Nov_04_0900,59.9863471074,ProdFawcett_Revision2019,001,sing16,
8,0,8,0,,,,,,,,,materials/singPic.jpg,salary,C_sing,8,271,,,,,,,,,,,2019_Nov_04_0900,59.9863471074,ProdFawcett_Revision2019,001,sing16,
9,0,9,0,,,,,,,,,materials/readPic.jpg,course,A_silent,9,74,,,,,,,,,,,2019_Nov_04_0900,59.9863471074,ProdFawcett_Revision2019,001,sing16,
10,0,10,0,,,,,,,,,materials/speakPic.jpg,impact,B_aloud,10,157,,,,,,,,,,,2019_Nov_04_0900,59.9863471074,ProdFawcett_Revision2019,001,sing16,
11,0,11,0,,,,,,,,,materials/readPic.jpg,industry,A_silent,11,161,,,,,,,,,,,2019_Nov_04_0900,59.9863471074,ProdFawcett_Revision2019,001,sing16,
12,0,12,0,,,,,,,,,materials/singPic.jpg,agency,C_sing,12,4,,,,,,,,,,,2019_Nov_04_0900,59.9863471074,ProdFawcett_Revision2019,001,sing16,
13,0,13,0,,,,,,,,,materials/readPic.jpg,mankind,A_silent,13,178,,,,,,,,,,,2019_Nov_04_0900,59.9863471074,ProdFawcett_Revision2019,001,sing16,
14,0,14,0,,,,,,,,,materials/speakPic.jpg,drama,B_aloud,14,103,,,,,,,,,,,2019_Nov_04_0900,59.9863471074,ProdFawcett_Revision2019,001,sing16,
15,0,15,0,,,,,,,,,materials/speakPic.jpg,shape,B_aloud,15,282,,,,,,,,,,,2019_Nov_04_0900,59.9863471074,ProdFawcett_Revision2019,001,sing16,
16,0,16,0,,,,,,,,,materials/speakPic.jpg,portion,B_aloud,16,228,,,,,,,,,,,2019_Nov_04_0900,59.9863471074,ProdFawcett_Revision2019,001,sing16,
17,0,17,0,,,,,,,,,materials/readPic.jpg,touch,A_silent,17,332,,,,,,,,,,,2019_Nov_04_0900,59.9863471074,ProdFawcett_Revision2019,001,sing16,
18,0,18,0,,,,,,,,,materials/readPic.jpg,session,A_silent,18,281,,,,,,,,,,,2019_Nov_04_0900,59.9863471074,ProdFawcett_Revision2019,001,sing16,
19,0,19,0,,,,,,,,,materials/singPic.jpg,production,C_sing,19,240,,,,,,,,,,,2019_Nov_04_0900,59.9863471074,ProdFawcett_Revision2019,001,sing16,
20,0,20,0,,,,,,,,,materials/singPic.jpg,problem,C_sing,20,238,,,,,,,,,,,2019_Nov_04_0900,59.9863471074,ProdFawcett_Revision2019,001,sing16,
21,0,21,0,,,,,,,,,materials/readPic.jpg,hearing,A_silent,21,150,,,,,,,,,,,2019_Nov_04_0900,59.9863471074,ProdFawcett_Revision2019,001,sing16,
22,0,22,0,,,,,,,,,materials/speakPic.jpg,scene,B_aloud,22,273,,,,,,,,,,,2019_Nov_04_0900,59.9863471074,ProdFawcett_Revision2019,001,sing16,
23,0,23,0,,,,,,,,,materials/readPic.jpg,sunset,A_silent,23,315,,,,,,,,,,,2019_Nov_04_0900,59.9863471074,ProdFawcett_Revision2019,001,sing16,
24,0,24,0,,,,,,,,,materials/singPic.jpg,permit,C_sing,24,218,,,,,,,,,,,2019_Nov_04_0900,59.9863471074,ProdFawcett_Revision2019,001,sing16,
25,0,25,0,,,,,,,,,materials/singPic.jpg,travel,C_sing,25,338,,,,,,,,,,,2019_Nov_04_0900,59.9863471074,ProdFawcett_Revision2019,001,sing16,
26,0,26,0,,,,,,,,,materials/singPic.jpg,audience,C_sing,26,14,,,,,,,,,,,2019_Nov_04_0900,59.9863471074,ProdFawcett_Revision2019,001,sing16,
27,0,27,0,,,,,,,,,materials/readPic.jpg,machinery,A_silent,27,175,,,,,,,,,,,2019_Nov_04_0900,59.9863471074,ProdFawcett_Revision2019,001,sing16,
28,0,28,0,,,,,,,,,materials/speakPic.jpg,cousin,B_aloud,28,76,,,,,,,,,,,2019_Nov_04_0900,59.9863471074,ProdFawcett_Revision2019,001,sing16,
29,0,29,0,,,,,,,,,materials/singPic.jpg,build,C_sing,29,35,,,,,,,,,,,2019_Nov_04_0900,59.9863471074,ProdFawcett_Revision2019,001,sing16,
30,0,30,0,,,,,,,,,materials/singPic.jpg,command,C_sing,30,60,,,,,,,,,,,2019_Nov_04_0900,59.9863471074,ProdFawcett_Revision2019,001,sing16,
31,0,31,0,,,,,,,,,materials/singPic.jpg,mayor,C_sing,31,183,,,,,,,,,,,2019_Nov_04_0900,59.9863471074,ProdFawcett_Revision2019,001,sing16,
32,0,32,0,,,,,,,,,materials/speakPic.jpg,native,B_aloud,32,199,,,,,,,,,,,2019_Nov_04_0900,59.9863471074,ProdFawcett_Revision2019,001,sing16,
33,0,33,0,,,,,,,,,materials/speakPic.jpg,principal,B_aloud,33,236,,,,,,,,,,,2019_Nov_04_0900,59.9863471074,ProdFawcett_Revision2019,001,sing16,
34,0,34,0,,,,,,,,,materials/readPic.jpg,sight,A_silent,34,286,,,,,,,,,,,2019_Nov_04_0900,59.9863471074,ProdFawcett_Revision2019,001,sing16,
35,0,35,0,,,,,,,,,materials/speakPic.jpg,express,B_aloud,35,124,,,,,,,,,,,2019_Nov_04_0900,59.9863471074,ProdFawcett_Revision2019,001,sing16,
36,0,36,0,,,,,,,,,materials/speakPic.jpg,career,B_aloud,36,42,,,,,,,,,,,2019_Nov_04_0900,59.9863471074,ProdFawcett_Revision2019,001,sing16,
37,0,37,0,,,,,,,,,materials/singPic.jpg,listen,C_sing,37,172,,,,,,,,,,,2019_Nov_04_0900,59.9863471074,ProdFawcett_Revision2019,001,sing16,
38,0,38,0,,,,,,,,,materials/speakPic.jpg,throw,B_aloud,38,330,,,,,,,,,,,2019_Nov_04_0900,59.9863471074,ProdFawcett_Revision2019,001,sing16,
39,0,39,0,,,,,,,,,materials/speakPic.jpg,cover,B_aloud,39,77,,,,,,,,,,,2019_Nov_04_0900,59.9863471074,ProdFawcett_Revision2019,001,sing16,
40,0,40,0,,,,,,,,,materials/readPic.jpg,range,A_silent,40,251,,,,,,,,,,,2019_Nov_04_0900,59.9863471074,ProdFawcett_Revision2019,001,sing16,
41,0,41,0,,,,,,,,,materials/readPic.jpg,incident,A_silent,41,158,,,,,,,,,,,2019_Nov_04_0900,59.9863471074,ProdFawcett_Revision2019,001,sing16,
42,0,42,0,,,,,,,,,materials/singPic.jpg,suggestion,C_sing,42,314,,,,,,,,,,,2019_Nov_04_0900,59.9863471074,ProdFawcett_Revision2019,001,sing16,
43,0,43,0,,,,,,,,,materials/singPic.jpg,carry,C_sing,43,43,,,,,,,,,,,2019_Nov_04_0900,59.9863471074,ProdFawcett_Revision2019,001,sing16,
44,0,44,0,,,,,,,,,materials/speakPic.jpg,running,B_aloud,44,268,,,,,,,,,,,2019_Nov_04_0900,59.9863471074,ProdFawcett_Revision2019,001,sing16,
45,0,45,0,,,,,,,,,materials/readPic.jpg,strength,A_silent,45,310,,,,,,,,,,,2019_Nov_04_0900,59.9863471074,ProdFawcett_Revision2019,001,sing16,
46,0,46,0,,,,,,,,,materials/readPic.jpg,display,A_silent,46,98,,,,,,,,,,,2019_Nov_04_0900,59.9863471074,ProdFawcett_Revision2019,001,sing16,
47,0,47,0,,,,,,,,,materials/speakPic.jpg,contract,B_aloud,47,68,,,,,,,,,,,2019_Nov_04_0900,59.9863471074,ProdFawcett_Revision2019,001,sing16,
48,0,48,0,,,,,,,,,materials/readPic.jpg,marriage,A_silent,48,179,,,,,,,,,,,2019_Nov_04_0900,59.9863471074,ProdFawcett_Revision2019,001,sing16,
49,0,49,0,,,,,,,,,materials/speakPic.jpg,measure,B_aloud,49,184,,,,,,,,,,,2019_Nov_04_0900,59.9863471074,ProdFawcett_Revision2019,001,sing16,
50,0,50,0,,,,,,,,,materials/singPic.jpg,close,C_sing,50,53,,,,,,,,,,,2019_Nov_04_0900,59.9863471074,ProdFawcett_Revision2019,001,sing16,
51,0,51,0,,,,,,,,,materials/readPic.jpg,expansion,A_silent,51,123,,,,,,,,,,,2019_Nov_04_0900,59.9863471074,ProdFawcett_Revision2019,001,sing16,
52,0,52,0,,,,,,,,,materials/readPic.jpg,count,A_silent,52,72,,,,,,,,,,,2019_Nov_04_0900,59.9863471074,ProdFawcett_Revision2019,001,sing16,
53,0,53,0,,,,,,,,,materials/speakPic.jpg,reach,B_aloud,53,253,,,,,,,,,,,2019_Nov_04_0900,59.9863471074,ProdFawcett_Revision2019,001,sing16,
54,0,54,0,,,,,,,,,materials/speakPic.jpg,drink,B_aloud,54,105,,,,,,,,,,,2019_Nov_04_0900,59.9863471074,ProdFawcett_Revision2019,001,sing16,
55,0,55,0,,,,,,,,,materials/readPic.jpg,title,A_silent,55,331,,,,,,,,,,,2019_Nov_04_0900,59.9863471074,ProdFawcett_Revision2019,001,sing16,
56,0,56,0,,,,,,,,,materials/singPic.jpg,music,C_sing,56,196,,,,,,,,,,,2019_Nov_04_0900,59.9863471074,ProdFawcett_Revision2019,001,sing16,
57,0,57,0,,,,,,,,,materials/singPic.jpg,short,C_sing,57,285,,,,,,,,,,,2019_Nov_04_0900,59.9863471074,ProdFawcett_Revision2019,001,sing16,
58,0,58,0,,,,,,,,,materials/readPic.jpg,primary,A_silent,58,234,,,,,,,,,,,2019_Nov_04_0900,59.9863471074,ProdFawcett_Revision2019,001,sing16,
59,0,59,0,,,,,,,,,materials/singPic.jpg,force,C_sing,59,131,,,,,,,,,,,2019_Nov_04_0900,59.9863471074,ProdFawcett_Revision2019,001,sing16,
60,0,60,0,,,,,,,,,materials/speakPic.jpg,broad,B_aloud,60,31,,,,,,,,,,,2019_Nov_04_0900,59.9863471074,ProdFawcett_Revision2019,001,sing16,
61,0,61,0,,,,,,,,,materials/speakPic.jpg,council,B_aloud,61,71,,,,,,,,,,,2019_Nov_04_0900,59.9863471074,ProdFawcett_Revision2019,001,sing16,
62,0,62,0,,,,,,,,,materials/speakPic.jpg,bitter,B_aloud,62,23,,,,,,,,,,,2019_Nov_04_0900,59.9863471074,ProdFawcett_Revision2019,001,sing16,
63,0,63,0,,,,,,,,,materials/speakPic.jpg,institute,B_aloud,63,162,,,,,,,,,,,2019_Nov_04_0900,59.9863471074,ProdFawcett_Revision2019,001,sing16,
64,0,64,0,,,,,,,,,materials/speakPic.jpg,message,B_aloud,64,189,,,,,,,,,,,2019_Nov_04_0900,59.9863471074,ProdFawcett_Revision2019,001,sing16,
65,0,65,0,,,,,,,,,materials/singPic.jpg,patient,C_sing,65,213,,,,,,,,,,,2019_Nov_04_0900,59.9863471074,ProdFawcett_Revision2019,001,sing16,
66,0,66,0,,,,,,,,,materials/readPic.jpg,brief,A_silent,66,28,,,,,,,,,,,2019_Nov_04_0900,59.9863471074,ProdFawcett_Revision2019,001,sing16,
67,0,67,0,,,,,,,,,materials/singPic.jpg,resistance,C_sing,67,262,,,,,,,,,,,2019_Nov_04_0900,59.9863471074,ProdFawcett_Revision2019,001,sing16,
68,0,68,0,,,,,,,,,materials/readPic.jpg,crowd,A_silent,68,81,,,,,,,,,,,2019_Nov_04_0900,59.9863471074,ProdFawcett_Revision2019,001,sing16,
69,0,69,0,,,,,,,,,materials/singPic.jpg,beginning,C_sing,69,19,,,,,,,,,,,2019_Nov_04_0900,59.9863471074,ProdFawcett_Revision2019,001,sing16,
70,0,70,0,,,,,,,,,materials/speakPic.jpg,atmosphere,B_aloud,70,12,,,,,,,,,,,2019_Nov_04_0900,59.9863471074,ProdFawcett_Revision2019,001,sing16,
71,0,71,0,,,,,,,,,materials/readPic.jpg,account,A_silent,71,1,,,,,,,,,,,2019_Nov_04_0900,59.9863471074,ProdFawcett_Revision2019,001,sing16,
72,0,72,0,,,,,,,,,materials/readPic.jpg,committee,A_silent,72,62,,,,,,,,,,,2019_Nov_04_0900,59.9863471074,ProdFawcett_Revision2019,001,sing16,
73,0,73,0,,,,,,,,,materials/singPic.jpg,school,C_sing,73,274,,,,,,,,,,,2019_Nov_04_0900,59.9863471074,ProdFawcett_Revision2019,001,sing16,
74,0,74,0,,,,,,,,,materials/readPic.jpg,poetry,A_silent,74,225,,,,,,,,,,,2019_Nov_04_0900,59.9863471074,ProdFawcett_Revision2019,001,sing16,
75,0,75,0,,,,,,,,,materials/readPic.jpg,victory,A_silent,75,346,,,,,,,,,,,2019_Nov_04_0900,59.9863471074,ProdFawcett_Revision2019,001,sing16,
76,0,76,0,,,,,,,,,materials/speakPic.jpg,collection,B_aloud,76,54,,,,,,,,,,,2019_Nov_04_0900,59.9863471074,ProdFawcett_Revision2019,001,sing16,
77,0,77,0,,,,,,,,,materials/speakPic.jpg,still,B_aloud,77,304,,,,,,,,,,,2019_Nov_04_0900,59.9863471074,ProdFawcett_Revision2019,001,sing16,
78,0,78,0,,,,,,,,,materials/readPic.jpg,block,A_silent,78,25,,,,,,,,,,,2019_Nov_04_0900,59.9863471074,ProdFawcett_Revision2019,001,sing16,
79,0,79,0,,,,,,,,,materials/readPic.jpg,season,A_silent,79,277,,,,,,,,,,,2019_Nov_04_0900,59.9863471074,ProdFawcett_Revision2019,001,sing16,
80,0,80,0,,,,,,,,,materials/speakPic.jpg,voice,B_aloud,80,348,,,,,,,,,,,2019_Nov_04_0900,59.9863471074,ProdFawcett_Revision2019,001,sing16,
81,0,81,0,,,,,,,,,materials/readPic.jpg,order,A_silent,81,207,,,,,,,,,,,2019_Nov_04_0900,59.9863471074,ProdFawcett_Revision2019,001,sing16,
82,0,82,0,,,,,,,,,materials/singPic.jpg,meeting,C_sing,82,187,,,,,,,,,,,2019_Nov_04_0900,59.9863471074,ProdFawcett_Revision2019,001,sing16,
83,0,83,0,,,,,,,,,materials/speakPic.jpg,review,B_aloud,83,263,,,,,,,,,,,2019_Nov_04_0900,59.9863471074,ProdFawcett_Revision2019,001,sing16,
84,0,84,0,,,,,,,,,materials/singPic.jpg,charter,C_sing,84,47,,,,,,,,,,,2019_Nov_04_0900,59.9863471074,ProdFawcett_Revision2019,001,sing16,
85,0,85,0,,,,,,,,,materials/singPic.jpg,split,C_sing,85,299,,,,,,,,,,,2019_Nov_04_0900,59.9863471074,ProdFawcett_Revision2019,001,sing16,
86,0,86,0,,,,,,,,,materials/singPic.jpg,surprise,C_sing,86,317,,,,,,,,,,,2019_Nov_04_0900,59.9863471074,ProdFawcett_Revision2019,001,sing16,
87,0,87,0,,,,,,,,,materials/speakPic.jpg,smooth,B_aloud,87,292,,,,,,,,,,,2019_Nov_04_0900,59.9863471074,ProdFawcett_Revision2019,001,sing16,
88,0,88,0,,,,,,,,,materials/readPic.jpg,union,A_silent,88,344,,,,,,,,,,,2019_Nov_04_0900,59.9863471074,ProdFawcett_Revision2019,001,sing16,
89,0,89,0,,,,,,,,,materials/singPic.jpg,grade,C_sing,89,140,,,,,,,,,,,2019_Nov_04_0900,59.9863471074,ProdFawcett_Revision2019,001,sing16,
,,,,,,,,,,,,,,,,,k,71.2388404,,,,,,,,,2019_Nov_04_0900,59.9863471074,ProdFawcett_Revision2019,001,sing16,
,,,,,,,,,,space,5.5517329,,,,,,,,,,,,,,,,2019_Nov_04_0900,59.9863471074,ProdFawcett_Revision2019,001,sing16,
,,,,0,0,0,0,,,,,,,,,,,,hearing,A_silent,0,150,2,5.0171672,f,2.0908061,2019_Nov_04_0900,59.9863471074,ProdFawcett_Revision2019,001,sing16,
,,,,1,0,1,0,,,,,,,,,,,,article,D_new,1,11,2,3.6786464,f,1.4589335,2019_Nov_04_0900,59.9863471074,ProdFawcett_Revision2019,001,sing16,
,,,,2,0,2,0,,,,,,,,,,,,crowd,A_silent,2,81,3,3.8862885,f,0.7529793,2019_Nov_04_0900,59.9863471074,ProdFawcett_Revision2019,001,sing16,
,,,,3,0,3,0,,,,,,,,,,,,mayor,C_sing,3,183,3,5.7212196,f,0.8390599,2019_Nov_04_0900,59.9863471074,ProdFawcett_Revision2019,001,sing16,
,,,,4,0,4,0,,,,,,,,,,,,emergency,B_aloud,4,110,6,2.3973554,r,1.1299801,2019_Nov_04_0900,59.9863471074,ProdFawcett_Revision2019,001,sing16,
,,,,5,0,5,0,,,,,,,,,,,,bitter,B_aloud,5,23,6,1.5618523,r,0.4894772,2019_Nov_04_0900,59.9863471074,ProdFawcett_Revision2019,001,sing16,
,,,,6,0,6,0,,,,,,,,,,,,congress,D_new,6,67,2,3.8062774,f,0.7545563,2019_Nov_04_0900,59.9863471074,ProdFawcett_Revision2019,001,sing16,
,,,,7,0,7,0,,,,,,,,,,,,harmony,D_new,7,148,3,2.9484224,f,0.5504632,2019_Nov_04_0900,59.9863471074,ProdFawcett_Revision2019,001,sing16,
,,,,8,0,8,0,,,,,,,,,,,,touch,A_silent,8,332,3,2.6101194,f,0.4738023,2019_Nov_04_0900,59.9863471074,ProdFawcett_Revision2019,001,sing16,
,,,,9,0,9,0,,,,,,,,,,,,majority,D_new,9,176,5,3.828737,r,1.5850765,2019_Nov_04_0900,59.9863471074,ProdFawcett_Revision2019,001,sing16,
,,,,10,0,10,0,,,,,,,,,,,,brief,A_silent,10,28,3,4.6840127,f,0.2926779,2019_Nov_04_0900,59.9863471074,ProdFawcett_Revision2019,001,sing16,
,,,,11,0,11,0,,,,,,,,,,,,display,A_silent,11,98,1,3.4493988,f,0.4333303,2019_Nov_04_0900,59.9863471074,ProdFawcett_Revision2019,001,sing16,
,,,,12,0,12,0,,,,,,,,,,,,debate,D_new,12,87,2,1.7316796,f,0.1484478,2019_Nov_04_0900,59.9863471074,ProdFawcett_Revision2019,001,sing16,
,,,,13,0,13,0,,,,,,,,,,,,season,A_silent,13,277,2,8.7617524,f,0.2946606,2019_Nov_04_0900,59.9863471074,ProdFawcett_Revision2019,001,sing16,
,,,,14,0,14,0,,,,,,,,,,,,degree,D_new,14,89,3,7.5154111,f,0.1107121,2019_Nov_04_0900,59.9863471074,ProdFawcett_Revision2019,001,sing16,
,,,,15,0,15,0,,,,,,,,,,,,drama,B_aloud,15,103,5,1.4912947,r,0.5504904,2019_Nov_04_0900,59.9863471074,ProdFawcett_Revision2019,001,sing16,
,,,,16,0,16,0,,,,,,,,,,,,portion,B_aloud,16,228,4,2.2090867,r,0.4265097,2019_Nov_04_0900,59.9863471074,ProdFawcett_Revision2019,001,sing16,
,,,,17,0,17,0,,,,,,,,,,,,quick,D_new,17,248,2,1.9852016,f,0.8952846,2019_Nov_04_0900,59.9863471074,ProdFawcett_Revision2019,001,sing16,
,,,,18,0,18,0,,,,,,,,,,,,smooth,B_aloud,18,292,4,7.3251064,r,0.438529,2019_Nov_04_0900,59.9863471074,ProdFawcett_Revision2019,001,sing16,
,,,,19,0,19,0,,,,,,,,,,,,oxygen,A_silent,19,209,2,1.3548118,f,0.9753578,2019_Nov_04_0900,59.9863471074,ProdFawcett_Revision2019,001,sing16,
,,,,20,0,20,0,,,,,,,,,,,,recall,D_new,20,255,2,1.8954637,f,0.3590976,2019_Nov_04_0900,59.9863471074,ProdFawcett_Revision2019,001,sing16,
,,,,21,0,21,0,,,,,,,,,,,,design,D_new,21,91,3,2.2204291,f,0.5387752,2019_Nov_04_0900,59.9863471074,ProdFawcett_Revision2019,001,sing16,
,,,,22,0,22,0,,,,,,,,,,,,history,B_aloud,22,153,4,3.2797735,r,0.2945717,2019_Nov_04_0900,59.9863471074,ProdFawcett_Revision2019,001,sing16,
,,,,23,0,23,0,,,,,,,,,,,,staff,D_new,23,301,1,1.6426922,f,0.266637,2019_Nov_04_0900,59.9863471074,ProdFawcett_Revision2019,001,sing16,
,,,,24,0,24,0,,,,,,,,,,,,research,D_new,24,261,2,4.7613024,f,0.4432186,2019_Nov_04_0900,59.9863471074,ProdFawcett_Revision2019,001,sing16,
,,,,25,0,25,0,,,,,,,,,,,,religion,D_new,25,258,1,1.8357723,f,0.3570825,2019_Nov_04_0900,59.9863471074,ProdFawcett_Revision2019,001,sing16,
,,,,26,0,26,0,,,,,,,,,,,,generation,D_new,26,136,1,1.2983585,f,0.3312924,2019_Nov_04_0900,59.9863471074,ProdFawcett_Revision2019,001,sing16,
,,,,27,0,27,0,,,,,,,,,,,,shape,B_aloud,27,282,3,5.0616991,f,0.7668286,2019_Nov_04_0900,59.9863471074,ProdFawcett_Revision2019,001,sing16,
,,,,28,0,28,0,,,,,,,,,,,,couch,D_new,28,70,3,4.5785832,f,0.3151478,2019_Nov_04_0900,59.9863471074,ProdFawcett_Revision2019,001,sing16,
,,,,29,0,29,0,,,,,,,,,,,,listen,C_sing,29,172,4,3.6162823,r,0.4503558,2019_Nov_04_0900,59.9863471074,ProdFawcett_Revision2019,001,sing16,
,,,,30,0,30,0,,,,,,,,,,,,worker,D_new,30,356,1,2.4150549,f,0.4656207,2019_Nov_04_0900,59.9863471074,ProdFawcett_Revision2019,001,sing16,
,,,,31,0,31,0,,,,,,,,,,,,smell,D_new,31,291,1,1.4335346,f,0.100864,2019_Nov_04_0900,59.9863471074,ProdFawcett_Revision2019,001,sing16,
,,,,32,0,32,0,,,,,,,,,,,,incident,A_silent,32,158,2,6.2883928,f,0.5457458,2019_Nov_04_0900,59.9863471074,ProdFawcett_Revision2019,001,sing16,
,,,,33,0,33,0,,,,,,,,,,,,salary,C_sing,33,271,6,2.1638899,r,0.0775482,2019_Nov_04_0900,59.9863471074,ProdFawcett_Revision2019,001,sing16,
,,,,34,0,34,0,,,,,,,,,,,,budget,D_new,34,34,1,1.8293179,f,1.0081823,2019_Nov_04_0900,59.9863471074,ProdFawcett_Revision2019,001,sing16,
,,,,35,0,35,0,,,,,,,,,,,,mechanical,D_new,35,185,1,3.9620259,f,0.1012597,2019_Nov_04_0900,59.9863471074,ProdFawcett_Revision2019,001,sing16,
,,,,36,0,36,0,,,,,,,,,,,,voice,B_aloud,36,348,6,1.9414533,r,0.7331384,2019_Nov_04_0900,59.9863471074,ProdFawcett_Revision2019,001,sing16,
,,,,37,0,37,0,,,,,,,,,,,,background,D_new,37,16,3,2.3439017,f,0.0621601,2019_Nov_04_0900,59.9863471074,ProdFawcett_Revision2019,001,sing16,
,,,,38,0,38,0,,,,,,,,,,,,shear,C_sing,38,283,2,2.7172714,f,0.0622286,2019_Nov_04_0900,59.9863471074,ProdFawcett_Revision2019,001,sing16,
,,,,39,0,39,0,,,,,,,,,,,,dream,D_new,39,104,3,3.2669907,f,0.5158304,2019_Nov_04_0900,59.9863471074,ProdFawcett_Revision2019,001,sing16,
,,,,40,0,40,0,,,,,,,,,,,,cover,B_aloud,40,77,4,5.2116186,f,0.4785351,2019_Nov_04_0900,59.9863471074,ProdFawcett_Revision2019,001,sing16,
,,,,41,0,41,0,,,,,,,,,,,,silence,D_new,41,288,3,8.6221249,f,0.4296332,2019_Nov_04_0900,59.9863471074,ProdFawcett_Revision2019,001,sing16,
,,,,42,0,42,0,,,,,,,,,,,,block,A_silent,42,25,4,3.0469458,f,0.1617242,2019_Nov_04_0900,59.9863471074,ProdFawcett_Revision2019,001,sing16,
,,,,43,0,43,0,,,,,,,,,,,,guest,D_new,43,146,4,2.4966381,f,2.001448,2019_Nov_04_0900,59.9863471074,ProdFawcett_Revision2019,001,sing16,
,,,,44,0,44,0,,,,,,,,,,,,brilliant,D_new,44,30,1,1.2542146,f,0.5919666,2019_Nov_04_0900,59.9863471074,ProdFawcett_Revision2019,001,sing16,
,,,,45,0,45,0,,,,,,,,,,,,measure,B_aloud,45,184,1,1.4751448,f,0.6051068,2019_Nov_04_0900,59.9863471074,ProdFawcett_Revision2019,001,sing16,
,,,,46,0,46,0,,,,,,,,,,,,primary,A_silent,46,234,2,3.5933283,f,0.4948632,2019_Nov_04_0900,59.9863471074,ProdFawcett_Revision2019,001,sing16,
,,,,47,0,47,0,,,,,,,,,,,,contract,B_aloud,47,68,5,1.8151746,r,0.2823708,2019_Nov_04_0900,59.9863471074,ProdFawcett_Revision2019,001,sing16,
,,,,48,0,48,0,,,,,,,,,,,,scene,B_aloud,48,273,4,3.1432607,f,0.4950471,2019_Nov_04_0900,59.9863471074,ProdFawcett_Revision2019,001,sing16,
,,,,49,0,49,0,,,,,,,,,,,,command,C_sing,49,60,2,2.2204507,f,0.0762801000001,2019_Nov_04_0900,59.9863471074,ProdFawcett_Revision2019,001,sing16,
,,,,50,0,50,0,,,,,,,,,,,,benefit,D_new,50,20,2,8.366226,f,0.8901714,2019_Nov_04_0900,59.9863471074,ProdFawcett_Revision2019,001,sing16,
,,,,51,0,51,0,,,,,,,,,,,,course,A_silent,51,74,5,1.7583689,r,0.4501978,2019_Nov_04_0900,59.9863471074,ProdFawcett_Revision2019,001,sing16,
,,,,52,0,52,0,,,,,,,,,,,,nation,D_new,52,198,2,1.6561683,f,0.6038994,2019_Nov_04_0900,59.9863471074,ProdFawcett_Revision2019,001,sing16,
,,,,53,0,53,0,,,,,,,,,,,,problem,C_sing,53,238,2,6.357281,f,0.0728761999999,2019_Nov_04_0900,59.9863471074,ProdFawcett_Revision2019,001,sing16,
,,,,54,0,54,0,,,,,,,,,,,,write,D_new,54,358,4,5.9242315,f,0.6174427,2019_Nov_04_0900,59.9863471074,ProdFawcett_Revision2019,001,sing16,
,,,,55,0,55,0,,,,,,,,,,,,mankind,A_silent,55,178,1,1.2489118,f,0.0803717000001,2019_Nov_04_0900,59.9863471074,ProdFawcett_Revision2019,001,sing16,
,,,,56,0,56,0,,,,,,,,,,,,session,A_silent,56,281,2,6.5836224,f,0.0910581000001,2019_Nov_04_0900,59.9863471074,ProdFawcett_Revision2019,001,sing16,
,,,,57,0,57,0,,,,,,,,,,,,taste,D_new,57,322,5,6.6804539,r,0.2720106,2019_Nov_04_0900,59.9863471074,ProdFawcett_Revision2019,001,sing16,
,,,,58,0,58,0,,,,,,,,,,,,union,A_silent,58,344,1,1.6832213,f,0.1113434,2019_Nov_04_0900,59.9863471074,ProdFawcett_Revision2019,001,sing16,
,,,,59,0,59,0,,,,,,,,,,,,attack,D_new,59,13,2,3.2437403,f,0.0795211,2019_Nov_04_0900,59.9863471074,ProdFawcett_Revision2019,001,sing16,
,,,,60,0,60,0,,,,,,,,,,,,throw,B_aloud,60,330,4,3.2038706,r,0.2285564,2019_Nov_04_0900,59.9863471074,ProdFawcett_Revision2019,001,sing16,
,,,,61,0,61,0,,,,,,,,,,,,victory,A_silent,61,346,2,3.0658755,f,0.6457079,2019_Nov_04_0900,59.9863471074,ProdFawcett_Revision2019,001,sing16,
,,,,62,0,62,0,,,,,,,,,,,,sight,A_silent,62,286,2,6.3364913,f,0.4336202,2019_Nov_04_0900,59.9863471074,ProdFawcett_Revision2019,001,sing16,
,,,,63,0,63,0,,,,,,,,,,,,audience,C_sing,63,14,6,1.6891946,r,0.4451634,2019_Nov_04_0900,59.9863471074,ProdFawcett_Revision2019,001,sing16,
,,,,64,0,64,0,,,,,,,,,,,,council,B_aloud,64,71,6,1.2790502,r,0.3776858,2019_Nov_04_0900,59.9863471074,ProdFawcett_Revision2019,001,sing16,
,,,,65,0,65,0,,,,,,,,,,,,surprise,C_sing,65,317,2,3.5469458,f,4.5286746,2019_Nov_04_0900,59.9863471074,ProdFawcett_Revision2019,001,sing16,
,,,,66,0,66,0,,,,,,,,,,,,close,C_sing,66,53,5,5.882455,r,0.3182779,2019_Nov_04_0900,59.9863471074,ProdFawcett_Revision2019,001,sing16,
,,,,67,0,67,0,,,,,,,,,,,,pancakes,D_new,67,210,1,1.5314503,f,0.9009981,2019_Nov_04_0900,59.9863471074,ProdFawcett_Revision2019,001,sing16,
,,,,68,0,68,0,,,,,,,,,,,,science,D_new,68,275,1,1.673955,f,0.2286844,2019_Nov_04_0900,59.9863471074,ProdFawcett_Revision2019,001,sing16,
,,,,69,0,69,0,,,,,,,,,,,,carry,C_sing,69,43,6,1.3558537,r,0.4016968,2019_Nov_04_0900,59.9863471074,ProdFawcett_Revision2019,001,sing16,
,,,,70,0,70,0,,,,,,,,,,,,school,C_sing,70,274,1,3.5558688,f,0.4450122,2019_Nov_04_0900,59.9863471074,ProdFawcett_Revision2019,001,sing16,
,,,,71,0,71,0,,,,,,,,,,,,agency,C_sing,71,4,2,1.9495624,r,7.9822616,2019_Nov_04_0900,59.9863471074,ProdFawcett_Revision2019,001,sing16,
,,,,72,0,72,0,,,,,,,,,,,,express,B_aloud,72,124,4,5.159745,f,0.9399863,2019_Nov_04_0900,59.9863471074,ProdFawcett_Revision2019,001,sing16,
,,,,73,0,73,0,,,,,,,,,,,,raise,D_new,73,250,2,1.4269832,f,0.3991604,2019_Nov_04_0900,59.9863471074,ProdFawcett_Revision2019,001,sing16,
,,,,74,0,74,0,,,,,,,,,,,,turkey,D_new,74,342,1,2.0721416,f,0.6421778,2019_Nov_04_0900,59.9863471074,ProdFawcett_Revision2019,001,sing16,
,,,,75,0,75,0,,,,,,,,,,,,foundation,D_new,75,132,2,2.9242468,f,0.4174103,2019_Nov_04_0900,59.9863471074,ProdFawcett_Revision2019,001,sing16,
,,,,76,0,76,0,,,,,,,,,,,,comfort,D_new,76,59,4,5.7003431,f,0.0663599,2019_Nov_04_0900,59.9863471074,ProdFawcett_Revision2019,001,sing16,
,,,,77,0,77,0,,,,,,,,,,,,appearance,D_new,77,10,2,2.1255184,f,0.2056643,2019_Nov_04_0900,59.9863471074,ProdFawcett_Revision2019,001,sing16,
,,,,78,0,78,0,,,,,,,,,,,,strength,A_silent,78,310,4,2.8763863,f,0.000434900000073,2019_Nov_04_0900,59.9863471074,ProdFawcett_Revision2019,001,sing16,
,,,,79,0,79,0,,,,,,,,,,,,error,D_new,79,117,5,2.5840523,r,0.2774347,2019_Nov_04_0900,59.9863471074,ProdFawcett_Revision2019,001,sing16,
,,,,80,0,80,0,,,,,,,,,,,,message,B_aloud,80,189,6,2.1110333,r,1.0977238,2019_Nov_04_0900,59.9863471074,ProdFawcett_Revision2019,001,sing16,
,,,,81,0,81,0,,,,,,,,,,,,patient,C_sing,81,213,6,1.7592388,r,0.3440345,2019_Nov_04_0900,59.9863471074,ProdFawcett_Revision2019,001,sing16,
,,,,82,0,82,0,,,,,,,,,,,,executive,D_new,82,122,1,1.5498774,f,0.2330818,2019_Nov_04_0900,59.9863471074,ProdFawcett_Revision2019,001,sing16,
,,,,83,0,83,0,,,,,,,,,,,,trash,D_new,83,337,3,2.3732692,f,0.0244157,2019_Nov_04_0900,59.9863471074,ProdFawcett_Revision2019,001,sing16,
,,,,84,0,84,0,,,,,,,,,,,,reach,B_aloud,84,253,5,1.6205398,r,0.268542,2019_Nov_04_0900,59.9863471074,ProdFawcett_Revision2019,001,sing16,
,,,,85,0,85,0,,,,,,,,,,,,empty,D_new,85,112,5,1.384129,r,0.1485541,2019_Nov_04_0900,59.9863471074,ProdFawcett_Revision2019,001,sing16,
,,,,86,0,86,0,,,,,,,,,,,,entrance,D_new,86,115,4,2.5072378,f,0.363176,2019_Nov_04_0900,59.9863471074,ProdFawcett_Revision2019,001,sing16,
,,,,87,0,87,0,,,,,,,,,,,,phrase,C_sing,87,220,5,1.4393213,r,0.3267807,2019_Nov_04_0900,59.9863471074,ProdFawcett_Revision2019,001,sing16,
,,,,88,0,88,0,,,,,,,,,,,,force,C_sing,88,131,1,1.2655742,f,0.6590399,2019_Nov_04_0900,59.9863471074,ProdFawcett_Revision2019,001,sing16,
,,,,89,0,89,0,,,,,,,,,,,,still,B_aloud,89,304,6,1.8063964,r,0.1286334,2019_Nov_04_0900,59.9863471074,ProdFawcett_Revision2019,001,sing16,
,,,,90,0,90,0,,,,,,,,,,,,track,D_new,90,334,3,1.7761087,f,0.1340576,2019_Nov_04_0900,59.9863471074,ProdFawcett_Revision2019,001,sing16,
,,,,91,0,91,0,,,,,,,,,,,,sunset,A_silent,91,315,3,3.329877,f,0.407106,2019_Nov_04_0900,59.9863471074,ProdFawcett_Revision2019,001,sing16,
,,,,92,0,92,0,,,,,,,,,,,,chief,D_new,92,48,2,3.0418661,f,0.0673663,2019_Nov_04_0900,59.9863471074,ProdFawcett_Revision2019,001,sing16,
,,,,93,0,93,0,,,,,,,,,,,,range,A_silent,93,251,4,1.6034913,f,0.338103,2019_Nov_04_0900,59.9863471074,ProdFawcett_Revision2019,001,sing16,
,,,,94,0,94,0,,,,,,,,,,,,shock,D_new,94,284,4,8.3785168,f,0.396714,2019_Nov_04_0900,59.9863471074,ProdFawcett_Revision2019,001,sing16,
,,,,95,0,95,0,,,,,,,,,,,,general,D_new,95,135,4,10.2679858,f,0.4585577,2019_Nov_04_0900,59.9863471074,ProdFawcett_Revision2019,001,sing16,
,,,,96,0,96,0,,,,,,,,,,,,atmosphere,B_aloud,96,12,2,1.4048188,f,0.000770099999954,2019_Nov_04_0900,59.9863471074,ProdFawcett_Revision2019,001,sing16,
,,,,97,0,97,0,,,,,,,,,,,,impact,B_aloud,97,157,3,4.6865692,f,0.2901365,2019_Nov_04_0900,59.9863471074,ProdFawcett_Revision2019,001,sing16,
,,,,98,0,98,0,,,,,,,,,,,,watch,D_new,98,351,3,4.316805,f,0.3601939,2019_Nov_04_0900,59.9863471074,ProdFawcett_Revision2019,001,sing16,
,,,,99,0,99,0,,,,,,,,,,,,angle,D_new,99,7,2,3.1850062,f,0.1506856,2019_Nov_04_0900,59.9863471074,ProdFawcett_Revision2019,001,sing16,
,,,,100,0,100,0,,,,,,,,,,,,signal,D_new,100,287,5,2.5450434,r,0.3593691,2019_Nov_04_0900,59.9863471074,ProdFawcett_Revision2019,001,sing16,
,,,,101,0,101,0,,,,,,,,,,,,master,D_new,101,180,2,2.7377602,f,0.0512443,2019_Nov_04_0900,59.9863471074,ProdFawcett_Revision2019,001,sing16,
,,,,102,0,102,0,,,,,,,,,,,,drink,B_aloud,102,105,6,2.0505094,r,0.3277956,2019_Nov_04_0900,59.9863471074,ProdFawcett_Revision2019,001,sing16,
,,,,103,0,103,0,,,,,,,,,,,,strain,D_new,103,308,2,2.0840908,f,0.0772932,2019_Nov_04_0900,59.9863471074,ProdFawcett_Revision2019,001,sing16,
,,,,104,0,104,0,,,,,,,,,,,,build,C_sing,104,35,4,2.0179222,r,0.5188147,2019_Nov_04_0900,59.9863471074,ProdFawcett_Revision2019,001,sing16,
,,,,105,0,105,0,,,,,,,,,,,,burden,D_new,105,36,1,1.7694893,f,0.5567447,2019_Nov_04_0900,59.9863471074,ProdFawcett_Revision2019,001,sing16,
,,,,106,0,106,0,,,,,,,,,,,,music,C_sing,106,196,6,2.076915,r,0.0345229,2019_Nov_04_0900,59.9863471074,ProdFawcett_Revision2019,001,sing16,
,,,,107,0,107,0,,,,,,,,,,,,enemy,D_new,107,113,2,1.5345212,f,0.7581882,2019_Nov_04_0900,59.9863471074,ProdFawcett_Revision2019,001,sing16,
,,,,108,0,108,0,,,,,,,,,,,,machinery,A_silent,108,175,2,1.3325586,f,0.0300242999999,2019_Nov_04_0900,59.9863471074,ProdFawcett_Revision2019,001,sing16,
,,,,109,0,109,0,,,,,,,,,,,,broad,B_aloud,109,31,6,1.3339504,r,0.3232821,2019_Nov_04_0900,59.9863471074,ProdFawcett_Revision2019,001,sing16,
,,,,110,0,110,0,,,,,,,,,,,,judge,D_new,110,166,2,1.2838992,f,0.1576736,2019_Nov_04_0900,59.9863471074,ProdFawcett_Revision2019,001,sing16,
,,,,111,0,111,0,,,,,,,,,,,,notice,D_new,111,201,5,3.0173665,r,0.262177,2019_Nov_04_0900,59.9863471074,ProdFawcett_Revision2019,001,sing16,
,,,,112,0,112,0,,,,,,,,,,,,title,A_silent,112,331,3,4.4099849,f,0.1431235,2019_Nov_04_0900,59.9863471074,ProdFawcett_Revision2019,001,sing16,
,,,,113,0,113,0,,,,,,,,,,,,thing,D_new,113,328,1,2.7489784,f,0.5730717,2019_Nov_04_0900,59.9863471074,ProdFawcett_Revision2019,001,sing16,
,,,,114,0,114,0,,,,,,,,,,,,native,B_aloud,114,199,4,2.0489982,r,0.8423034,2019_Nov_04_0900,59.9863471074,ProdFawcett_Revision2019,001,sing16,
,,,,115,0,115,0,,,,,,,,,,,,expansion,A_silent,115,123,2,8.3131494,f,0.4455799,2019_Nov_04_0900,59.9863471074,ProdFawcett_Revision2019,001,sing16,
,,,,116,0,116,0,,,,,,,,,,,,clear,D_new,116,52,5,2.0023573,r,0.3768755,2019_Nov_04_0900,59.9863471074,ProdFawcett_Revision2019,001,sing16,
,,,,117,0,117,0,,,,,,,,,,,,guide,D_new,117,147,6,2.8654242,r,0.0854978,2019_Nov_04_0900,59.9863471074,ProdFawcett_Revision2019,001,sing16,
,,,,118,0,118,0,,,,,,,,,,,,resistance,C_sing,118,262,2,1.6637797,f,0.5724526,2019_Nov_04_0900,59.9863471074,ProdFawcett_Revision2019,001,sing16,
,,,,119,0,119,0,,,,,,,,,,,,career,B_aloud,119,42,6,3.1422835,r,1.2437231,2019_Nov_04_0900,59.9863471074,ProdFawcett_Revision2019,001,sing16,
,,,,120,0,120,0,,,,,,,,,,,,principal,B_aloud,120,236,6,0.9089396,r,0.2861134,2019_Nov_04_0900,59.9863471074,ProdFawcett_Revision2019,001,sing16,
,,,,121,0,121,0,,,,,,,,,,,,split,C_sing,121,299,4,1.7114892,r,0.3454575,2019_Nov_04_0900,59.9863471074,ProdFawcett_Revision2019,001,sing16,
,,,,122,0,122,0,,,,,,,,,,,,discussion,D_new,122,96,5,4.2647679,r,0.264481,2019_Nov_04_0900,59.9863471074,ProdFawcett_Revision2019,001,sing16,
,,,,123,0,123,0,,,,,,,,,,,,suggestion,C_sing,123,314,3,2.3692327,f,0.7125703,2019_Nov_04_0900,59.9863471074,ProdFawcett_Revision2019,001,sing16,
,,,,124,0,124,0,,,,,,,,,,,,broke,D_new,124,32,2,3.5375613,f,0.3915399,2019_Nov_04_0900,59.9863471074,ProdFawcett_Revision2019,001,sing16,
,,,,125,0,125,0,,,,,,,,,,,,review,B_aloud,125,263,2,2.9241785,f,0.088837,2019_Nov_04_0900,59.9863471074,ProdFawcett_Revision2019,001,sing16,
,,,,126,0,126,0,,,,,,,,,,,,produce,D_new,126,239,4,7.6166142,f,0.244738,2019_Nov_04_0900,59.9863471074,ProdFawcett_Revision2019,001,sing16,
,,,,127,0,127,0,,,,,,,,,,,,little,D_new,127,174,1,1.6723,f,0.7890285,2019_Nov_04_0900,59.9863471074,ProdFawcett_Revision2019,001,sing16,
,,,,128,0,128,0,,,,,,,,,,,,direction,D_new,128,94,4,3.3688748,r,0.3078696,2019_Nov_04_0900,59.9863471074,ProdFawcett_Revision2019,001,sing16,
,,,,129,0,129,0,,,,,,,,,,,,charter,C_sing,129,47,2,6.8162658,f,0.2671621,2019_Nov_04_0900,59.9863471074,ProdFawcett_Revision2019,001,sing16,
,,,,130,0,130,0,,,,,,,,,,,,point,D_new,130,226,4,10.5756607,f,0.4350401,2019_Nov_04_0900,59.9863471074,ProdFawcett_Revision2019,001,sing16,
,,,,131,0,131,0,,,,,,,,,,,,agreement,D_new,131,5,2,1.8811175,f,0.7211603,2019_Nov_04_0900,59.9863471074,ProdFawcett_Revision2019,001,sing16,
,,,,132,0,132,0,,,,,,,,,,,,finish,D_new,132,130,5,9.2066214,r,0.2944785,2019_Nov_04_0900,59.9863471074,ProdFawcett_Revision2019,001,sing16,
,,,,133,0,133,0,,,,,,,,,,,,level,D_new,133,170,2,3.0429067,f,0.0455113,2019_Nov_04_0900,59.9863471074,ProdFawcett_Revision2019,001,sing16,
,,,,134,0,134,0,,,,,,,,,,,,quiet,D_new,134,249,2,2.5560863,f,0.3503329,2019_Nov_04_0900,59.9863471074,ProdFawcett_Revision2019,001,sing16,
,,,,135,0,135,0,,,,,,,,,,,,bright,D_new,135,29,4,3.952647,r,0.3439924,2019_Nov_04_0900,59.9863471074,ProdFawcett_Revision2019,001,sing16,
,,,,136,0,136,0,,,,,,,,,,,,material,D_new,136,182,3,1.5516937,f,0.7064759,2019_Nov_04_0900,59.9863471074,ProdFawcett_Revision2019,001,sing16,
,,,,137,0,137,0,,,,,,,,,,,,meeting,C_sing,137,187,2,1.0725513,f,0.5779439,2019_Nov_04_0900,59.9863471074,ProdFawcett_Revision2019,001,sing16,
,,,,138,0,138,0,,,,,,,,,,,,addition,D_new,138,2,2,5.8870045,f,1.146658,2019_Nov_04_0900,59.9863471074,ProdFawcett_Revision2019,001,sing16,
,,,,139,0,139,0,,,,,,,,,,,,series,D_new,139,279,5,3.008906,r,0.3008046,2019_Nov_04_0900,59.9863471074,ProdFawcett_Revision2019,001,sing16,
,,,,140,0,140,0,,,,,,,,,,,,region,D_new,140,256,2,1.5864285,f,0.38194,2019_Nov_04_0900,59.9863471074,ProdFawcett_Revision2019,001,sing16,
,,,,141,0,141,0,,,,,,,,,,,,industry,A_silent,141,161,5,8.1414133,r,0.3166723,2019_Nov_04_0900,59.9863471074,ProdFawcett_Revision2019,001,sing16,
,,,,142,0,142,0,,,,,,,,,,,,search,D_new,142,276,2,4.0790993,f,0.3447577,2019_Nov_04_0900,59.9863471074,ProdFawcett_Revision2019,001,sing16,
,,,,143,0,143,0,,,,,,,,,,,,appeal,D_new,143,9,2,2.2600985,f,0.227274,2019_Nov_04_0900,59.9863471074,ProdFawcett_Revision2019,001,sing16,
,,,,144,0,144,0,,,,,,,,,,,,count,A_silent,144,72,2,3.7282133,f,0.1605098,2019_Nov_04_0900,59.9863471074,ProdFawcett_Revision2019,001,sing16,
,,,,145,0,145,0,,,,,,,,,,,,permit,C_sing,145,218,5,2.5441086,r,0.1238372,2019_Nov_04_0900,59.9863471074,ProdFawcett_Revision2019,001,sing16,
,,,,146,0,146,0,,,,,,,,,,,,beginning,C_sing,146,19,5,1.7848249,r,0.2453418,2019_Nov_04_0900,59.9863471074,ProdFawcett_Revision2019,001,sing16,
,,,,147,0,147,0,,,,,,,,,,,,trend,D_new,147,340,1,1.6828856,f,1.1600124,2019_Nov_04_0900,59.9863471074,ProdFawcett_Revision2019,001,sing16,
,,,,148,0,148,0,,,,,,,,,,,,beauty,D_new,148,18,5,2.5729841,r,0.2949527,2019_Nov_04_0900,59.9863471074,ProdFawcett_Revision2019,001,sing16,
,,,,149,0,149,0,,,,,,,,,,,,murder,D_new,149,195,1,1.4165155,f,0.7677349,2019_Nov_04_0900,59.9863471074,ProdFawcett_Revision2019,001,sing16,
,,,,150,0,150,0,,,,,,,,,,,,cousin,B_aloud,150,76,6,1.3932903,r,1.3759156,2019_Nov_04_0900,59.9863471074,ProdFawcett_Revision2019,001,sing16,
,,,,151,0,151,0,,,,,,,,,,,,committee,A_silent,151,62,4,2.2822814,r,0.2982699,2019_Nov_04_0900,59.9863471074,ProdFawcett_Revision2019,001,sing16,
,,,,152,0,152,0,,,,,,,,,,,,order,A_silent,152,207,4,9.8082265,f,0.3925589,2019_Nov_04_0900,59.9863471074,ProdFawcett_Revision2019,001,sing16,
,,,,153,0,153,0,,,,,,,,,,,,provision,D_new,153,243,1,1.5135945,f,0.8793395,2019_Nov_04_0900,59.9863471074,ProdFawcett_Revision2019,001,sing16,
,,,,154,0,154,0,,,,,,,,,,,,private,D_new,154,237,4,3.6049669,f,0.6251023,2019_Nov_04_0900,59.9863471074,ProdFawcett_Revision2019,001,sing16,
,,,,155,0,155,0,,,,,,,,,,,,youth,D_new,155,359,1,1.7920609,f,0.9118091,2019_Nov_04_0900,59.9863471074,ProdFawcett_Revision2019,001,sing16,
,,,,156,0,156,0,,,,,,,,,,,,marriage,A_silent,156,179,6,2.1803237,r,0.0561792999999,2019_Nov_04_0900,59.9863471074,ProdFawcett_Revision2019,001,sing16,
,,,,157,0,157,0,,,,,,,,,,,,account,A_silent,157,1,3,2.2812186,f,0.3948739,2019_Nov_04_0900,59.9863471074,ProdFawcett_Revision2019,001,sing16,
,,,,158,0,158,0,,,,,,,,,,,,instrument,C_sing,158,163,5,2.587825,r,0.2884268,2019_Nov_04_0900,59.9863471074,ProdFawcett_Revision2019,001,sing16,
,,,,159,0,159,0,,,,,,,,,,,,institute,B_aloud,159,162,3,2.388803,f,0.0335261,2019_Nov_04_0900,59.9863471074,ProdFawcett_Revision2019,001,sing16,
,,,,160,0,160,0,,,,,,,,,,,,blind,D_new,160,24,3,8.888227,f,0.0239509,2019_Nov_04_0900,59.9863471074,ProdFawcett_Revision2019,001,sing16,
,,,,161,0,161,0,,,,,,,,,,,,running,B_aloud,161,268,2,2.0171359,f,0.3192206,2019_Nov_04_0900,59.9863471074,ProdFawcett_Revision2019,001,sing16,
,,,,162,0,162,0,,,,,,,,,,,,society,D_new,162,293,6,3.1830659,r,0.3438877,2019_Nov_04_0900,59.9863471074,ProdFawcett_Revision2019,001,sing16,
,,,,163,0,163,0,,,,,,,,,,,,whole,D_new,163,355,4,5.28475,f,0.4340442,2019_Nov_04_0900,59.9863471074,ProdFawcett_Revision2019,001,sing16,
,,,,164,0,164,0,,,,,,,,,,,,travel,C_sing,164,338,5,2.3332633,r,0.4883162,2019_Nov_04_0900,59.9863471074,ProdFawcett_Revision2019,001,sing16,
,,,,165,0,165,0,,,,,,,,,,,,conference,C_sing,165,66,5,1.4146773,r,0.24769,2019_Nov_04_0900,59.9863471074,ProdFawcett_Revision2019,001,sing16,
,,,,166,0,166,0,,,,,,,,,,,,grade,C_sing,166,140,2,2.392006,f,0.2444623,2019_Nov_04_0900,59.9863471074,ProdFawcett_Revision2019,001,sing16,
,,,,167,0,167,0,,,,,,,,,,,,death,D_new,167,86,1,2.1317408,f,0.1781813,2019_Nov_04_0900,59.9863471074,ProdFawcett_Revision2019,001,sing16,
,,,,168,0,168,0,,,,,,,,,,,,threat,D_new,168,329,4,3.6515505,f,0.4120542,2019_Nov_04_0900,59.9863471074,ProdFawcett_Revision2019,001,sing16,
,,,,169,0,169,0,,,,,,,,,,,,figure,D_new,169,128,3,2.2711224,f,0.0212436999998,2019_Nov_04_0900,59.9863471074,ProdFawcett_Revision2019,001,sing16,
,,,,170,0,170,0,,,,,,,,,,,,poetry,A_silent,170,225,6,1.9388849,r,0.4085201,2019_Nov_04_0900,59.9863471074,ProdFawcett_Revision2019,001,sing16,
,,,,171,0,171,0,,,,,,,,,,,,pattern,D_new,171,214,3,3.2534463,f,0.0441756999999,2019_Nov_04_0900,59.9863471074,ProdFawcett_Revision2019,001,sing16,
,,,,172,0,172,0,,,,,,,,,,,,stand,D_new,172,302,2,5.0898324,f,0.500376,2019_Nov_04_0900,59.9863471074,ProdFawcett_Revision2019,001,sing16,
,,,,173,0,173,0,,,,,,,,,,,,production,C_sing,173,240,5,1.9791485,r,0.3476567,2019_Nov_04_0900,59.9863471074,ProdFawcett_Revision2019,001,sing16,
,,,,174,0,174,0,,,,,,,,,,,,short,C_sing,174,285,2,1.3413116,f,0.3128721,2019_Nov_04_0900,59.9863471074,ProdFawcett_Revision2019,001,sing16,
,,,,175,0,175,0,,,,,,,,,,,,collection,B_aloud,175,54,6,1.656537,r,0.3867311,2019_Nov_04_0900,59.9863471074,ProdFawcett_Revision2019,001,sing16,
,,,,176,0,176,0,,,,,,,,,,,,revolution,D_new,176,264,1,1.8795172,f,2.4286976,2019_Nov_04_0900,59.9863471074,ProdFawcett_Revision2019,001,sing16,
,,,,177,0,177,0,,,,,,,,,,,,trial,A_silent,177,341,3,1.8268977,f,0.5096226,2019_Nov_04_0900,59.9863471074,ProdFawcett_Revision2019,001,sing16,
,,,,178,0,178,0,,,,,,,,,,,,working,D_new,178,357,2,2.2218417,f,0.2597349,2019_Nov_04_0900,59.9863471074,ProdFawcett_Revision2019,001,sing16,
,,,,179,0,179,0,,,,,,,,,,,,population,D_new,179,227,2,1.5254931,f,0.4081426,2019_Nov_04_0900,59.9863471074,ProdFawcett_Revision2019,001,sing16,
