StudyTrials.thisRepN,StudyTrials.thisTrialN,StudyTrials.thisN,StudyTrials.thisIndex,TestTrials.thisRepN,TestTrials.thisTrialN,TestTrials.thisN,TestTrials.thisIndex,textWelcome.started,textWelcome.stopped,keyWelcome.keys,keyWelcome.rt,keyWelcome.started,keyWelcome.stopped,textReady.started,textReady.stopped,keyReady.keys,keyReady.rt,keyReady.started,keyReady.stopped,polyback_2.started,polyback_2.stopped,studyPic,studyWord,studyType,studyN,studyOrder,polyback_3.started,polyback_3.stopped,studyPicChoice.started,studyPicChoice.stopped,polyback_4.started,polyback_4.stopped,polyback.started,polyback.stopped,studyWords.started,studyWords.stopped,getResearcher.started,getResearcher.stopped,kPress2.keys,kPress2.rt,kPress2.started,kPress2.stopped,testWord,testType,testN,testOrder,polyback_5.started,polyback_5.stopped,testWords.started,testWords.stopped,textScale.started,textScale.stopped,keyConf.keys,keyConf.rt,keyConf.started,keyConf.stopped,polyback_6.started,polyback_6.stopped,studyWords_2.started,studyWords_2.stopped,polyback_7.started,polyback_7.stopped,testWords_2.started,testWords_2.stopped,textScale_2.started,textScale_2.stopped,keyRKN.keys,keyRKN.rt,keyRKN.started,keyRKN.stopped,participant,session,date,expName,psychopyVersion,frameRate,
,,,,,,,,9.916285998537205,None,space,2.2489124215207994,9.916285998537205,None,,,,,,,,,,,,,,,,,,,,,,,,,,,,,,,,,,,,,,,,,,,,,,,,,,,,,,,,,,sing25,001,2019_Nov_07_1411,ProdFawcett_Revision2019,3.2.4,60.00179140589014,
,,,,,,,,,,,,,,12.181731355260126,None,space,10.230657460866496,12.181731355260126,None,,,,,,,,,,,,,,,,,,,,,,,,,,,,,,,,,,,,,,,,,,,,,,,,,,,,sing25,001,2019_Nov_07_1411,ProdFawcett_Revision2019,3.2.4,60.00179140589014,
0,0,0,0,,,,,,,,,,,,,,,,,27.219828326138668,None,materials/singPic.jpg,break,C_sing,0,26,23.6185087391641,None,23.6185087391641,None,24.47125085524749,None,24.735489830141887,None,24.735489830141887,None,,,,,,,,,,,,,,,,,,,,,,,,,,,,,,,,,,,sing25,001,2019_Nov_07_1411,ProdFawcett_Revision2019,3.2.4,60.00179140589014,
1,0,1,0,,,,,,,,,,,,,,,,,31.487710393732414,None,materials/speakPic.jpg,community,B_aloud,1,63,27.828740125638433,None,27.828740125638433,None,28.737267835997045,None,29.00347826082725,None,29.00347826082725,None,,,,,,,,,,,,,,,,,,,,,,,,,,,,,,,,,,,sing25,001,2019_Nov_07_1411,ProdFawcett_Revision2019,3.2.4,60.00179140589014,
2,0,2,0,,,,,,,,,,,,,,,,,35.75569073832594,None,materials/speakPic.jpg,comfort,B_aloud,2,59,32.058854885865,None,32.058854885865,None,33.005894445464946,None,33.27147850964684,None,33.27147850964684,None,,,,,,,,,,,,,,,,,,,,,,,,,,,,,,,,,,,sing25,001,2019_Nov_07_1411,ProdFawcett_Revision2019,3.2.4,60.00179140589014,
3,0,3,0,,,,,,,,,,,,,,,,,40.0236791690113,None,materials/singPic.jpg,novel,C_sing,3,202,36.365759780979715,None,36.365759780979715,None,37.27316912356764,None,37.5394495241344,None,37.5394495241344,None,,,,,,,,,,,,,,,,,,,,,,,,,,,,,,,,,,,sing25,001,2019_Nov_07_1411,ProdFawcett_Revision2019,3.2.4,60.00179140589014,
4,0,4,0,,,,,,,,,,,,,,,,,44.29212570749223,None,materials/speakPic.jpg,production,B_aloud,4,240,40.615748895914294,None,40.615748895914294,None,41.54128319956362,None,41.807433911715634,None,41.807433911715634,None,,,,,,,,,,,,,,,,,,,,,,,,,,,,,,,,,,,sing25,001,2019_Nov_07_1411,ProdFawcett_Revision2019,3.2.4,60.00179140589014,
5,0,5,0,,,,,,,,,,,,,,,,,48.55982614913955,None,materials/singPic.jpg,enemy,C_sing,5,113,44.8968448714586,None,44.8968448714586,None,45.81110219564289,None,46.07542669645045,None,46.07542669645045,None,,,,,,,,,,,,,,,,,,,,,,,,,,,,,,,,,,,sing25,001,2019_Nov_07_1411,ProdFawcett_Revision2019,3.2.4,60.00179140589014,
6,0,6,0,,,,,,,,,,,,,,,,,52.8276388628874,None,materials/speakPic.jpg,angle,B_aloud,6,7,49.14491665107198,None,49.14491665107198,None,50.07731510850135,None,50.34342290228233,None,50.34342290228233,None,,,,,,,,,,,,,,,,,,,,,,,,,,,,,,,,,,,sing25,001,2019_Nov_07_1411,ProdFawcett_Revision2019,3.2.4,60.00179140589014,
7,0,7,0,,,,,,,,,,,,,,,,,57.09564470977057,None,materials/speakPic.jpg,childhood,B_aloud,7,49,53.41128662053961,None,53.41128662053961,None,54.345914349658415,None,54.61142812704202,None,54.61142812704202,None,,,,,,,,,,,,,,,,,,,,,,,,,,,,,,,,,,,sing25,001,2019_Nov_07_1411,ProdFawcett_Revision2019,3.2.4,60.00179140589014,
8,0,8,0,,,,,,,,,,,,,,,,,61.36361105926335,None,materials/singPic.jpg,watch,C_sing,8,351,57.704864713479765,None,57.704864713479765,None,58.61304067913443,None,58.87938110344112,None,58.87938110344112,None,,,,,,,,,,,,,,,,,,,,,,,,,,,,,,,,,,,sing25,001,2019_Nov_07_1411,ProdFawcett_Revision2019,3.2.4,60.00179140589014,
9,0,9,0,,,,,,,,,,,,,,,,,65.63159824593458,None,materials/readPic.jpg,trend,A_silent,9,340,61.95683865144383,None,61.95683865144383,None,62.8820414255606,None,63.14736860105768,None,63.14736860105768,None,,,,,,,,,,,,,,,,,,,,,,,,,,,,,,,,,,,sing25,001,2019_Nov_07_1411,ProdFawcett_Revision2019,3.2.4,60.00179140589014,
10,0,10,0,,,,,,,,,,,,,,,,,69.89960036077537,None,materials/singPic.jpg,group,C_sing,10,143,66.23513901839033,None,66.23513901839033,None,67.14927411824465,None,67.41596690926235,None,67.41596690926235,None,,,,,,,,,,,,,,,,,,,,,,,,,,,,,,,,,,,sing25,001,2019_Nov_07_1411,ProdFawcett_Revision2019,3.2.4,60.00179140589014,
11,0,11,0,,,,,,,,,,,,,,,,,74.16759096842725,None,materials/speakPic.jpg,machinery,B_aloud,11,175,70.50156838959083,None,70.50156838959083,None,71.41717049200088,None,71.68335137143731,None,71.68335137143731,None,,,,,,,,,,,,,,,,,,,,,,,,,,,,,,,,,,,sing25,001,2019_Nov_07_1411,ProdFawcett_Revision2019,3.2.4,60.00179140589014,
12,0,12,0,,,,,,,,,,,,,,,,,78.43556695897132,None,materials/readPic.jpg,council,A_silent,12,71,74.76912079367321,None,74.76912079367321,None,75.68596068909392,None,75.95135752938222,None,75.95135752938222,None,,,,,,,,,,,,,,,,,,,,,,,,,,,,,,,,,,,sing25,001,2019_Nov_07_1411,ProdFawcett_Revision2019,3.2.4,60.00179140589014,
13,0,13,0,,,,,,,,,,,,,,,,,82.7035507245455,None,materials/speakPic.jpg,bicycle,B_aloud,13,21,79.02433165383991,None,79.02433165383991,None,79.9530615163967,None,80.21934907010291,None,80.21934907010291,None,,,,,,,,,,,,,,,,,,,,,,,,,,,,,,,,,,,sing25,001,2019_Nov_07_1411,ProdFawcett_Revision2019,3.2.4,60.00179140589014,
14,0,14,0,,,,,,,,,,,,,,,,,86.97154257632792,None,materials/readPic.jpg,solution,A_silent,14,294,83.30499035888352,None,83.30499035888352,None,84.22118181246333,None,84.47236300294753,None,84.47236300294753,None,,,,,,,,,,,,,,,,,,,,,,,,,,,,,,,,,,,sing25,001,2019_Nov_07_1411,ProdFawcett_Revision2019,3.2.4,60.00179140589014,
15,0,15,0,,,,,,,,,,,,,,,,,91.23954282514751,None,materials/singPic.jpg,goose,C_sing,15,138,87.58999098080676,None,87.58999098080676,None,88.48904521984514,None,88.7553315294208,None,88.7553315294208,None,,,,,,,,,,,,,,,,,,,,,,,,,,,,,,,,,,,sing25,001,2019_Nov_07_1411,ProdFawcett_Revision2019,3.2.4,60.00179140589014,
16,0,16,0,,,,,,,,,,,,,,,,,95.5075228586793,None,materials/speakPic.jpg,quiet,B_aloud,16,249,91.82785190013237,None,91.82785190013237,None,92.75702183239628,None,93.0236695278436,None,93.0236695278436,None,,,,,,,,,,,,,,,,,,,,,,,,,,,,,,,,,,,sing25,001,2019_Nov_07_1411,ProdFawcett_Revision2019,3.2.4,60.00179140589014,
17,0,17,0,,,,,,,,,,,,,,,,,99.77552124147769,None,materials/speakPic.jpg,sunset,B_aloud,17,315,96.07428002730012,None,96.07428002730012,None,97.02509641100187,None,97.29132798407227,None,97.29132798407227,None,,,,,,,,,,,,,,,,,,,,,,,,,,,,,,,,,,,sing25,001,2019_Nov_07_1411,ProdFawcett_Revision2019,3.2.4,60.00179140589014,
18,0,18,0,,,,,,,,,,,,,,,,,104.04347888287157,None,materials/singPic.jpg,curve,C_sing,18,82,100.39365584368352,None,100.39365584368352,None,101.29303477017675,None,101.55931019468699,None,101.55931019468699,None,,,,,,,,,,,,,,,,,,,,,,,,,,,,,,,,,,,sing25,001,2019_Nov_07_1411,ProdFawcett_Revision2019,3.2.4,60.00179140589014,
19,0,19,0,,,,,,,,,,,,,,,,,108.31147788767703,None,materials/singPic.jpg,pressure,C_sing,19,232,104.62821981706657,None,104.62821981706657,None,105.56104497099295,None,105.82731510850135,None,105.82731510850135,None,,,,,,,,,,,,,,,,,,,,,,,,,,,,,,,,,,,sing25,001,2019_Nov_07_1411,ProdFawcett_Revision2019,3.2.4,60.00179140589014,
20,0,20,0,,,,,,,,,,,,,,,,,112.57949119852856,None,materials/readPic.jpg,universal,A_silent,20,345,108.91356627480127,None,108.91356627480127,None,109.82911830558442,None,110.09531318023801,None,110.09531318023801,None,,,,,,,,,,,,,,,,,,,,,,,,,,,,,,,,,,,sing25,001,2019_Nov_07_1411,ProdFawcett_Revision2019,3.2.4,60.00179140589014,
21,0,21,0,,,,,,,,,,,,,,,,,116.8474687441485,None,materials/speakPic.jpg,corner,B_aloud,21,69,113.16471605398692,None,113.16471605398692,None,114.09700939222239,None,114.36326366860885,None,114.36326366860885,None,,,,,,,,,,,,,,,,,,,,,,,,,,,,,,,,,,,sing25,001,2019_Nov_07_1411,ProdFawcett_Revision2019,3.2.4,60.00179140589014,
22,0,22,0,,,,,,,,,,,,,,,,,121.11544411268551,None,materials/speakPic.jpg,tennis,B_aloud,22,323,117.43082789075561,None,117.43082789075561,None,118.36511724814773,None,118.63127853453625,None,118.63127853453625,None,,,,,,,,,,,,,,,,,,,,,,,,,,,,,,,,,,,sing25,001,2019_Nov_07_1411,ProdFawcett_Revision2019,3.2.4,60.00179140589014,
23,0,23,0,,,,,,,,,,,,,,,,,125.38344809354749,None,materials/readPic.jpg,sound,A_silent,23,295,121.70771692472044,None,121.70771692472044,None,122.63352335628588,None,122.8992573240539,None,122.8992573240539,None,,,,,,,,,,,,,,,,,,,,,,,,,,,,,,,,,,,sing25,001,2019_Nov_07_1411,ProdFawcett_Revision2019,3.2.4,60.00179140589014,
24,0,24,0,,,,,,,,,,,,,,,,,129.65142221807037,None,materials/readPic.jpg,brief,A_silent,24,28,125.95499004784506,None,125.95499004784506,None,126.90124681219459,None,127.16722616157494,None,127.16722616157494,None,,,,,,,,,,,,,,,,,,,,,,,,,,,,,,,,,,,sing25,001,2019_Nov_07_1411,ProdFawcett_Revision2019,3.2.4,60.00179140589014,
25,0,25,0,,,,,,,,,,,,,,,,,133.91938172536902,None,materials/readPic.jpg,accident,A_silent,25,0,130.24082633573562,None,130.24082633573562,None,131.16897773207165,None,131.43522827641573,None,131.43522827641573,None,,,,,,,,,,,,,,,,,,,,,,,,,,,,,,,,,,,sing25,001,2019_Nov_07_1411,ProdFawcett_Revision2019,3.2.4,60.00179140589014,
26,0,26,0,,,,,,,,,,,,,,,,,138.1874127634801,None,materials/speakPic.jpg,school,B_aloud,26,274,134.52104030596092,None,134.52104030596092,None,135.43703769356944,None,135.7032303912565,None,135.7032303912565,None,,,,,,,,,,,,,,,,,,,,,,,,,,,,,,,,,,,sing25,001,2019_Nov_07_1411,ProdFawcett_Revision2019,3.2.4,60.00179140589014,
27,0,27,0,,,,,,,,,,,,,,,,,142.4553629407892,None,materials/singPic.jpg,route,C_sing,27,267,138.78994308633264,None,138.78994308633264,None,139.70590533060022,None,139.9712104247883,None,139.9712104247883,None,,,,,,,,,,,,,,,,,,,,,,,,,,,,,,,,,,,sing25,001,2019_Nov_07_1411,ProdFawcett_Revision2019,3.2.4,60.00179140589014,
28,0,28,0,,,,,,,,,,,,,,,,,146.72336412256118,None,materials/speakPic.jpg,collection,B_aloud,28,54,143.04068203014322,None,143.04068203014322,None,143.9730092678219,None,144.23919419036247,None,144.23919419036247,None,,,,,,,,,,,,,,,,,,,,,,,,,,,,,,,,,,,sing25,001,2019_Nov_07_1411,ProdFawcett_Revision2019,3.2.4,60.00179140589014,
29,0,29,0,,,,,,,,,,,,,,,,,150.99136250535958,None,materials/singPic.jpg,worker,C_sing,29,356,147.34154071030207,None,147.34154071030207,None,148.24099241150543,None,148.50719412823673,None,148.50719412823673,None,,,,,,,,,,,,,,,,,,,,,,,,,,,,,,,,,,,sing25,001,2019_Nov_07_1411,ProdFawcett_Revision2019,3.2.4,60.00179140589014,
30,0,30,0,,,,,,,,,,,,,,,,,155.25933942897245,None,materials/speakPic.jpg,clean,B_aloud,30,51,151.5827222118387,None,151.5827222118387,None,152.50903526775073,None,152.7751797598321,None,152.7751797598321,None,,,,,,,,,,,,,,,,,,,,,,,,,,,,,,,,,,,sing25,001,2019_Nov_07_1411,ProdFawcett_Revision2019,3.2.4,60.00179140589014,
31,0,31,0,,,,,,,,,,,,,,,,,159.52734558680095,None,materials/speakPic.jpg,citizen,B_aloud,31,50,155.82754773891065,None,155.82754773891065,None,156.77690365118906,None,157.0436567767756,None,157.0436567767756,None,,,,,,,,,,,,,,,,,,,,,,,,,,,,,,,,,,,sing25,001,2019_Nov_07_1411,ProdFawcett_Revision2019,3.2.4,60.00179140589014,
32,0,32,0,,,,,,,,,,,,,,,,,163.7953194003785,None,materials/speakPic.jpg,society,B_aloud,32,293,160.09420756355394,None,160.09420756355394,None,161.04496547859162,None,161.31114169303328,None,161.31114169303328,None,,,,,,,,,,,,,,,,,,,,,,,,,,,,,,,,,,,sing25,001,2019_Nov_07_1411,ProdFawcett_Revision2019,3.2.4,60.00179140589014,
33,0,33,0,,,,,,,,,,,,,,,,,168.06344747147523,None,materials/singPic.jpg,piece,C_sing,33,221,164.41367357084528,None,164.41367357084528,None,165.31288206751924,None,165.57913789886516,None,165.57913789886516,None,,,,,,,,,,,,,,,,,,,,,,,,,,,,,,,,,,,sing25,001,2019_Nov_07_1411,ProdFawcett_Revision2019,3.2.4,60.00179140589014,
34,0,34,0,,,,,,,,,,,,,,,,,172.33132051990833,None,materials/readPic.jpg,straight,A_silent,34,307,168.66526652977336,None,168.66526652977336,None,169.58089600049425,None,169.84711388940923,None,169.84711388940923,None,,,,,,,,,,,,,,,,,,,,,,,,,,,,,,,,,,,sing25,001,2019_Nov_07_1411,ProdFawcett_Revision2019,3.2.4,60.00179140589014,
35,0,35,0,,,,,,,,,,,,,,,,,176.59928842436057,None,materials/speakPic.jpg,series,B_aloud,35,279,172.91721372143365,None,172.91721372143365,None,173.84888163208961,None,174.1151188032236,None,174.1151188032236,None,,,,,,,,,,,,,,,,,,,,,,,,,,,,,,,,,,,sing25,001,2019_Nov_07_1411,ProdFawcett_Revision2019,3.2.4,60.00179140589014,
36,0,36,0,,,,,,,,,,,,,,,,,180.86731573054567,None,materials/speakPic.jpg,employment,B_aloud,36,111,177.18262237973977,None,177.18262237973977,None,178.11689276597463,None,178.38311189890373,None,178.38311189890373,None,,,,,,,,,,,,,,,,,,,,,,,,,,,,,,,,,,,sing25,001,2019_Nov_07_1411,ProdFawcett_Revision2019,3.2.4,60.00179140589014,
37,0,37,0,,,,,,,,,,,,,,,,,185.13529452006333,None,materials/singPic.jpg,trash,C_sing,37,337,181.47748149523977,None,181.47748149523977,None,182.3848050008528,None,182.6511224108981,None,182.6511224108981,None,,,,,,,,,,,,,,,,,,,,,,,,,,,,,,,,,,,sing25,001,2019_Nov_07_1411,ProdFawcett_Revision2019,3.2.4,60.00179140589014,
38,0,38,0,,,,,,,,,,,,,,,,,189.40325931448024,None,materials/singPic.jpg,weather,C_sing,38,352,185.7186446476262,None,185.7186446476262,None,186.65278814453632,None,186.91909155936446,None,186.91909155936446,None,,,,,,,,,,,,,,,,,,,,,,,,,,,,,,,,,,,sing25,001,2019_Nov_07_1411,ProdFawcett_Revision2019,3.2.4,60.00179140589014,
39,0,39,0,,,,,,,,,,,,,,,,,193.671270759427,None,materials/readPic.jpg,candidate,A_silent,39,39,190.00520339608192,None,190.00520339608192,None,190.92116719530895,None,191.18707159289625,None,191.18707159289625,None,,,,,,,,,,,,,,,,,,,,,,,,,,,,,,,,,,,sing25,001,2019_Nov_07_1411,ProdFawcett_Revision2019,3.2.4,60.00179140589014,
40,0,40,0,,,,,,,,,,,,,,,,,197.93925608007703,None,materials/singPic.jpg,working,C_sing,40,357,194.28961995395366,None,194.28961995395366,None,195.18886328290682,None,195.45507743977942,None,195.45507743977942,None,,,,,,,,,,,,,,,,,,,,,,,,,,,,,,,,,,,sing25,001,2019_Nov_07_1411,ProdFawcett_Revision2019,3.2.4,60.00179140589014,
41,0,41,0,,,,,,,,,,,,,,,,,202.2075166386785,None,materials/singPic.jpg,agreement,C_sing,41,5,198.52723549166694,None,198.52723549166694,None,199.45680630707648,None,199.72304845426697,None,199.72304845426697,None,,,,,,,,,,,,,,,,,,,,,,,,,,,,,,,,,,,sing25,001,2019_Nov_07_1411,ProdFawcett_Revision2019,3.2.4,60.00179140589014,
42,0,42,0,,,,,,,,,,,,,,,,,206.47525035764556,None,materials/readPic.jpg,portion,A_silent,42,228,202.80918952531647,None,202.80918952531647,None,203.7249477513833,None,203.99103968392592,None,203.99103968392592,None,,,,,,,,,,,,,,,,,,,,,,,,,,,,,,,,,,,sing25,001,2019_Nov_07_1411,ProdFawcett_Revision2019,3.2.4,60.00179140589014,
43,0,43,0,,,,,,,,,,,,,,,,,210.74324905138928,None,materials/readPic.jpg,background,A_silent,43,16,207.04797319148201,None,207.04797319148201,None,207.9928313739365,None,208.25913105672225,None,208.25913105672225,None,,,,,,,,,,,,,,,,,,,,,,,,,,,,,,,,,,,sing25,001,2019_Nov_07_1411,ProdFawcett_Revision2019,3.2.4,60.00179140589014,
44,0,44,0,,,,,,,,,,,,,,,,,215.01119331957307,None,materials/singPic.jpg,exchange,C_sing,44,121,211.36182527826168,None,211.36182527826168,None,212.26094420591835,None,212.5270034831483,None,212.5270034831483,None,,,,,,,,,,,,,,,,,,,,,,,,,,,,,,,,,,,sing25,001,2019_Nov_07_1411,ProdFawcett_Revision2019,3.2.4,60.00179140589014,
45,0,45,0,,,,,,,,,,,,,,,,,219.27920974057633,None,materials/speakPic.jpg,suggestion,B_aloud,45,314,215.59769639850128,None,215.59769639850128,None,216.52890309132636,None,216.7950096410932,None,216.7950096410932,None,,,,,,,,,,,,,,,,,,,,,,,,,,,,,,,,,,,sing25,001,2019_Nov_07_1411,ProdFawcett_Revision2019,3.2.4,60.00179140589014,
46,0,46,0,,,,,,,,,,,,,,,,,223.5475312557537,None,materials/readPic.jpg,oxygen,A_silent,46,209,219.87227281206287,None,219.87227281206287,None,220.79674161842559,None,221.06299433973618,None,221.06299433973618,None,,,,,,,,,,,,,,,,,,,,,,,,,,,,,,,,,,,sing25,001,2019_Nov_07_1411,ProdFawcett_Revision2019,3.2.4,60.00179140589014,
47,0,47,0,,,,,,,,,,,,,,,,,227.8151726067299,None,materials/readPic.jpg,tragedy,A_silent,47,335,224.13565528392792,None,224.13565528392792,None,225.06470485788304,None,225.33094793802593,None,225.33094793802593,None,,,,,,,,,,,,,,,,,,,,,,,,,,,,,,,,,,,sing25,001,2019_Nov_07_1411,ProdFawcett_Revision2019,3.2.4,60.00179140589014,
48,0,48,0,,,,,,,,,,,,,,,,,232.08315917139407,None,materials/readPic.jpg,fight,A_silent,48,127,228.39852522232104,None,228.39852522232104,None,229.3328043166548,None,229.59897555515636,None,229.59897555515636,None,,,,,,,,,,,,,,,,,,,,,,,,,,,,,,,,,,,sing25,001,2019_Nov_07_1411,ProdFawcett_Revision2019,3.2.4,60.00179140589014,
49,0,49,0,,,,,,,,,,,,,,,,,236.35113422898576,None,materials/singPic.jpg,under,C_sing,49,343,232.69090470857918,None,232.69090470857918,None,233.60251415055245,None,233.86696056474466,None,233.86696056474466,None,,,,,,,,,,,,,,,,,,,,,,,,,,,,,,,,,,,sing25,001,2019_Nov_07_1411,ProdFawcett_Revision2019,3.2.4,60.00179140589014,
50,0,50,0,,,,,,,,,,,,,,,,,240.61915096093435,None,materials/readPic.jpg,partner,A_silent,50,211,236.94389904825948,None,236.94389904825948,None,237.86878335510846,None,238.13494650740176,None,238.13494650740176,None,,,,,,,,,,,,,,,,,,,,,,,,,,,,,,,,,,,sing25,001,2019_Nov_07_1411,ProdFawcett_Revision2019,3.2.4,60.00179140589014,
51,0,51,0,,,,,,,,,,,,,,,,,244.8871477887733,None,materials/readPic.jpg,safety,A_silent,51,270,241.2058589910157,None,241.2058589910157,None,242.13674566149712,None,242.40293338301126,None,242.40293338301126,None,,,,,,,,,,,,,,,,,,,,,,,,,,,,,,,,,,,sing25,001,2019_Nov_07_1411,ProdFawcett_Revision2019,3.2.4,60.00179140589014,
52,0,52,0,,,,,,,,,,,,,,,,,249.15512595628388,None,materials/readPic.jpg,device,A_silent,52,93,245.47046059579588,None,245.47046059579588,None,246.4046899296809,None,246.6709320768714,None,246.6709320768714,None,,,,,,,,,,,,,,,,,,,,,,,,,,,,,,,,,,,sing25,001,2019_Nov_07_1411,ProdFawcett_Revision2019,3.2.4,60.00179140589014,
53,0,53,0,,,,,,,,,,,,,,,,,253.4232201280538,None,materials/readPic.jpg,estate,A_silent,53,119,249.72652080608532,None,249.72652080608532,None,250.67273558489978,None,250.93906139198225,None,250.93906139198225,None,,,,,,,,,,,,,,,,,,,,,,,,,,,,,,,,,,,sing25,001,2019_Nov_07_1411,ProdFawcett_Revision2019,3.2.4,60.00179140589014,
54,0,54,0,,,,,,,,,,,,,,,,,257.69107731536496,None,materials/singPic.jpg,gesture,C_sing,54,137,254.03067114506848,None,254.03067114506848,None,254.94075387192424,None,255.2068865459878,None,255.2068865459878,None,,,,,,,,,,,,,,,,,,,,,,,,,,,,,,,,,,,sing25,001,2019_Nov_07_1411,ProdFawcett_Revision2019,3.2.4,60.00179140589014,
55,0,55,0,,,,,,,,,,,,,,,,,261.95907756418455,None,materials/singPic.jpg,produce,C_sing,55,239,258.27911737258546,None,258.27911737258546,None,259.2087391925743,None,259.47489114885684,None,259.47489114885684,None,,,,,,,,,,,,,,,,,,,,,,,,,,,,,,,,,,,sing25,001,2019_Nov_07_1411,ProdFawcett_Revision2019,3.2.4,60.00179140589014,
56,0,56,0,,,,,,,,,,,,,,,,,266.22718884120695,None,materials/readPic.jpg,salary,A_silent,56,271,262.5609616221627,None,262.5609616221627,None,263.47670647501945,None,263.7428593642544,None,263.7428593642544,None,,,,,,,,,,,,,,,,,,,,,,,,,,,,,,,,,,,sing25,001,2019_Nov_07_1411,ProdFawcett_Revision2019,3.2.4,60.00179140589014,
57,0,57,0,,,,,,,,,,,,,,,,,270.49509174597915,None,materials/speakPic.jpg,region,B_aloud,57,256,266.812117621419,None,266.812117621419,None,267.7446852646535,None,268.01084468490444,None,268.01084468490444,None,,,,,,,,,,,,,,,,,,,,,,,,,,,,,,,,,,,sing25,001,2019_Nov_07_1411,ProdFawcett_Revision2019,3.2.4,60.00179140589014,
58,0,58,0,,,,,,,,,,,,,,,,,274.7630848416593,None,materials/singPic.jpg,display,C_sing,58,98,271.1132061328972,None,271.1132061328972,None,272.01259034639224,None,272.27886359393597,None,272.27886359393597,None,,,,,,,,,,,,,,,,,,,,,,,,,,,,,,,,,,,sing25,001,2019_Nov_07_1411,ProdFawcett_Revision2019,3.2.4,60.00179140589014,
59,0,59,0,,,,,,,,,,,,,,,,,279.0310658082599,None,materials/readPic.jpg,fashion,A_silent,59,125,275.36497356463224,None,275.36497356463224,None,276.2805999253178,None,276.5468557566637,None,276.5468557566637,None,,,,,,,,,,,,,,,,,,,,,,,,,,,,,,,,,,,sing25,001,2019_Nov_07_1411,ProdFawcett_Revision2019,3.2.4,60.00179140589014,
60,0,60,0,,,,,,,,,,,,,,,,,283.2990346457809,None,materials/singPic.jpg,strain,C_sing,60,308,279.6365108540049,None,279.6365108540049,None,280.548667972791,None,280.8149129190715,None,280.8149129190715,None,,,,,,,,,,,,,,,,,,,,,,,,,,,,,,,,,,,sing25,001,2019_Nov_07_1411,ProdFawcett_Revision2019,3.2.4,60.00179140589014,
61,0,61,0,,,,,,,,,,,,,,,,,287.56711544434074,None,materials/readPic.jpg,marriage,A_silent,61,179,283.9009718853049,None,283.9009718853049,None,284.8166072650347,None,285.08281706785783,None,285.08281706785783,None,,,,,,,,,,,,,,,,,,,,,,,,,,,,,,,,,,,sing25,001,2019_Nov_07_1411,ProdFawcett_Revision2019,3.2.4,60.00179140589014,
62,0,62,0,,,,,,,,,,,,,,,,,291.83499999996275,None,materials/speakPic.jpg,character,B_aloud,62,46,288.1687192884274,None,288.1687192884274,None,289.0846128008561,None,289.35079554643016,None,289.35079554643016,None,,,,,,,,,,,,,,,,,,,,,,,,,,,,,,,,,,,sing25,001,2019_Nov_07_1411,ProdFawcett_Revision2019,3.2.4,60.00179140589014,
63,0,63,0,,,,,,,,,,,,,,,,,296.1030077128671,None,materials/speakPic.jpg,column,B_aloud,63,57,292.418357591494,None,292.418357591494,None,293.35254773893394,None,293.6188368475996,None,293.6188368475996,None,,,,,,,,,,,,,,,,,,,,,,,,,,,,,,,,,,,sing25,001,2019_Nov_07_1411,ProdFawcett_Revision2019,3.2.4,60.00179140589014,
64,0,64,0,,,,,,,,,,,,,,,,,300.3709781053476,None,materials/readPic.jpg,hunger,A_silent,64,155,296.69515612360556,None,296.69515612360556,None,297.62095353601035,None,297.8867531255819,None,297.8867531255819,None,,,,,,,,,,,,,,,,,,,,,,,,,,,,,,,,,,,sing25,001,2019_Nov_07_1411,ProdFawcett_Revision2019,3.2.4,60.00179140589014,
65,0,65,0,,,,,,,,,,,,,,,,,304.6389820862096,None,materials/singPic.jpg,point,C_sing,65,226,300.99660882004537,None,300.99660882004537,None,301.88862971938215,None,302.15474933129735,None,302.15474933129735,None,,,,,,,,,,,,,,,,,,,,,,,,,,,,,,,,,,,sing25,001,2019_Nov_07_1411,ProdFawcett_Revision2019,3.2.4,60.00179140589014,
66,0,66,0,,,,,,,,,,,,,,,,,308.9070675498806,None,materials/readPic.jpg,voice,A_silent,66,348,305.24164707341697,None,305.24164707341697,None,306.15658860479016,None,306.42276046518236,None,306.42276046518236,None,,,,,,,,,,,,,,,,,,,,,,,,,,,,,,,,,,,sing25,001,2019_Nov_07_1411,ProdFawcett_Revision2019,3.2.4,60.00179140589014,
67,0,67,0,,,,,,,,,,,,,,,,,313.1749636125751,None,materials/singPic.jpg,order,C_sing,67,207,309.51355259062257,None,309.51355259062257,None,310.42456459533423,None,310.6907296136487,None,310.6907296136487,None,,,,,,,,,,,,,,,,,,,,,,,,,,,,,,,,,,,sing25,001,2019_Nov_07_1411,ProdFawcett_Revision2019,3.2.4,60.00179140589014,
68,0,68,0,,,,,,,,,,,,,,,,,317.44293462706264,None,materials/singPic.jpg,smooth,C_sing,68,292,313.75831436214503,None,313.75831436214503,None,314.6926379299257,None,314.95872644148767,None,314.95872644148767,None,,,,,,,,,,,,,,,,,,,,,,,,,,,,,,,,,,,sing25,001,2019_Nov_07_1411,ProdFawcett_Revision2019,3.2.4,60.00179140589014,
69,0,69,0,,,,,,,,,,,,,,,,,321.7109115506755,None,materials/readPic.jpg,audience,A_silent,69,14,318.06150121288374,None,318.06150121288374,None,318.96058561920654,None,319.22670274297707,None,319.22670274297707,None,,,,,,,,,,,,,,,,,,,,,,,,,,,,,,,,,,,sing25,001,2019_Nov_07_1411,ProdFawcett_Revision2019,3.2.4,60.00179140589014,
70,0,70,0,,,,,,,,,,,,,,,,,325.97892081853934,None,materials/speakPic.jpg,error,B_aloud,70,117,322.3001396404579,None,322.3001396404579,None,323.2285404615104,None,323.49474715429824,None,323.49474715429824,None,,,,,,,,,,,,,,,,,,,,,,,,,,,,,,,,,,,sing25,001,2019_Nov_07_1411,ProdFawcett_Revision2019,3.2.4,60.00179140589014,
71,0,71,0,,,,,,,,,,,,,,,,,330.247012502281,None,materials/singPic.jpg,sight,C_sing,71,286,326.5834306773031,None,326.5834306773031,None,327.49667537468486,None,327.7626967096003,None,327.7626967096003,None,,,,,,,,,,,,,,,,,,,,,,,,,,,,,,,,,,,sing25,001,2019_Nov_07_1411,ProdFawcett_Revision2019,3.2.4,60.00179140589014,
72,0,72,0,,,,,,,,,,,,,,,,,334.51474311121274,None,materials/readPic.jpg,place,A_silent,72,222,330.8384530695621,None,330.8384530695621,None,331.7645322510507,None,332.0306782980915,None,332.0306782980915,None,,,,,,,,,,,,,,,,,,,,,,,,,,,,,,,,,,,sing25,001,2019_Nov_07_1411,ProdFawcett_Revision2019,3.2.4,60.00179140589014,
73,0,73,0,,,,,,,,,,,,,,,,,338.78289201960433,None,materials/singPic.jpg,stranger,C_sing,73,309,335.13322883623186,None,335.13322883623186,None,336.0325769733172,None,336.2986841449747,None,336.2986841449747,None,,,,,,,,,,,,,,,,,,,,,,,,,,,,,,,,,,,sing25,001,2019_Nov_07_1411,ProdFawcett_Revision2019,3.2.4,60.00179140589014,
74,0,74,0,,,,,,,,,,,,,,,,,343.0508823163109,None,materials/singPic.jpg,distance,C_sing,74,100,339.36926572117954,None,339.36926572117954,None,340.3006114324089,None,340.56665702548344,None,340.56665702548344,None,,,,,,,,,,,,,,,,,,,,,,,,,,,,,,,,,,,sing25,001,2019_Nov_07_1411,ProdFawcett_Revision2019,3.2.4,60.00179140589014,
75,0,75,0,,,,,,,,,,,,,,,,,347.31884462269954,None,materials/speakPic.jpg,testimony,B_aloud,75,325,343.64228774025105,None,343.64228774025105,None,344.5685286433436,None,344.8346426571952,None,344.8346426571952,None,,,,,,,,,,,,,,,,,,,,,,,,,,,,,,,,,,,sing25,001,2019_Nov_07_1411,ProdFawcett_Revision2019,3.2.4,60.00179140589014,
76,0,76,0,,,,,,,,,,,,,,,,,351.5868918329943,None,materials/speakPic.jpg,pretty,B_aloud,76,233,347.90222305152565,None,347.90222305152565,None,348.83646669145674,None,349.1026572121773,None,349.1026572121773,None,,,,,,,,,,,,,,,,,,,,,,,,,,,,,,,,,,,sing25,001,2019_Nov_07_1411,ProdFawcett_Revision2019,3.2.4,60.00179140589014,
77,0,77,0,,,,,,,,,,,,,,,,,355.8548351682257,None,materials/speakPic.jpg,country,B_aloud,77,73,352.161105927662,None,352.161105927662,None,353.1044230888365,None,353.3706154754618,None,353.3706154754618,None,,,,,,,,,,,,,,,,,,,,,,,,,,,,,,,,,,,sing25,001,2019_Nov_07_1411,ProdFawcett_Revision2019,3.2.4,60.00179140589014,
78,0,78,0,,,,,,,,,,,,,,,,,360.1228232878493,None,materials/singPic.jpg,empty,C_sing,78,112,356.47294302412774,None,356.47294302412774,None,357.3725405859295,None,357.6386253653327,None,357.6386253653327,None,,,,,,,,,,,,,,,,,,,,,,,,,,,,,,,,,,,sing25,001,2019_Nov_07_1411,ProdFawcett_Revision2019,3.2.4,60.00179140589014,
79,0,79,0,,,,,,,,,,,,,,,,,364.390834110789,None,materials/speakPic.jpg,crime,B_aloud,79,78,360.7081784536131,None,360.7081784536131,None,361.6404391366523,None,361.90659233683255,None,361.90659233683255,None,,,,,,,,,,,,,,,,,,,,,,,,,,,,,,,,,,,sing25,001,2019_Nov_07_1411,ProdFawcett_Revision2019,3.2.4,60.00179140589014,
80,0,80,0,,,,,,,,,,,,,,,,,368.6589158424176,None,materials/speakPic.jpg,division,B_aloud,80,101,364.9743773713708,None,364.9743773713708,None,365.9083781177178,None,366.17458978656214,None,366.17458978656214,None,,,,,,,,,,,,,,,,,,,,,,,,,,,,,,,,,,,sing25,001,2019_Nov_07_1411,ProdFawcett_Revision2019,3.2.4,60.00179140589014,
81,0,81,0,,,,,,,,,,,,,,,,,372.9268486035289,None,materials/readPic.jpg,course,A_silent,81,74,369.2469092492247,None,369.2469092492247,None,370.17651209793985,None,370.4425741742598,None,370.4425741742598,None,,,,,,,,,,,,,,,,,,,,,,,,,,,,,,,,,,,sing25,001,2019_Nov_07_1411,ProdFawcett_Revision2019,3.2.4,60.00179140589014,
82,0,82,0,,,,,,,,,,,,,,,,,377.1947754556313,None,materials/speakPic.jpg,service,B_aloud,82,280,373.51180413004477,None,373.51180413004477,None,374.4443602662068,None,374.7105532748392,None,374.7105532748392,None,,,,,,,,,,,,,,,,,,,,,,,,,,,,,,,,,,,sing25,001,2019_Nov_07_1411,ProdFawcett_Revision2019,3.2.4,60.00179140589014,
83,0,83,0,,,,,,,,,,,,,,,,,381.4627439820906,None,materials/readPic.jpg,general,A_silent,83,135,377.7961939416127,None,377.7961939416127,None,378.7123654910829,None,378.9786060831975,None,378.9786060831975,None,,,,,,,,,,,,,,,,,,,,,,,,,,,,,,,,,,,sing25,001,2019_Nov_07_1411,ProdFawcett_Revision2019,3.2.4,60.00179140589014,
84,0,84,0,,,,,,,,,,,,,,,,,385.730729613686,None,materials/readPic.jpg,search,A_silent,84,276,382.04731044347864,None,382.04731044347864,None,382.9805638489779,None,383.24653449025936,None,383.24653449025936,None,,,,,,,,,,,,,,,,,,,,,,,,,,,,,,,,,,,sing25,001,2019_Nov_07_1411,ProdFawcett_Revision2019,3.2.4,60.00179140589014,
85,0,85,0,,,,,,,,,,,,,,,,,389.99875567574054,None,materials/speakPic.jpg,problem,B_aloud,85,238,386.3220025502378,None,386.3220025502378,None,387.248343285406,None,387.5145157678053,None,387.5145157678053,None,,,,,,,,,,,,,,,,,,,,,,,,,,,,,,,,,,,sing25,001,2019_Nov_07_1411,ProdFawcett_Revision2019,3.2.4,60.00179140589014,
86,0,86,0,,,,,,,,,,,,,,,,,394.26676960871555,None,materials/readPic.jpg,staff,A_silent,86,301,390.59027057280764,None,390.59027057280764,None,391.51647819858044,None,391.78252441366203,None,391.78252441366203,None,,,,,,,,,,,,,,,,,,,,,,,,,,,,,,,,,,,sing25,001,2019_Nov_07_1411,ProdFawcett_Revision2019,3.2.4,60.00179140589014,
87,0,87,0,,,,,,,,,,,,,,,,,398.5344075387111,None,materials/singPic.jpg,entrance,C_sing,87,115,394.8850074640941,None,394.8850074640941,None,395.78448155743536,None,396.0504916962236,None,396.0504916962236,None,,,,,,,,,,,,,,,,,,,,,,,,,,,,,,,,,,,sing25,001,2019_Nov_07_1411,ProdFawcett_Revision2019,3.2.4,60.00179140589014,
88,0,88,0,,,,,,,,,,,,,,,,,402.8026957765687,None,materials/singPic.jpg,signal,C_sing,88,287,399.1237911301432,None,399.1237911301432,None,400.052410897566,None,400.31851869123057,None,400.31851869123057,None,,,,,,,,,,,,,,,,,,,,,,,,,,,,,,,,,,,sing25,001,2019_Nov_07_1411,ProdFawcett_Revision2019,3.2.4,60.00179140589014,
89,0,89,0,,,,,,,,,,,,,,,,,407.0706988243619,None,materials/readPic.jpg,material,A_silent,89,182,403.4046196428826,None,403.4046196428826,None,404.32056602591183,None,404.5864775766386,None,404.5864775766386,None,,,,,,,,,,,,,,,,,,,,,,,,,,,,,,,,,,,sing25,001,2019_Nov_07_1411,ProdFawcett_Revision2019,3.2.4,60.00179140589014,
,,,,,,,,,,,,,,,,,,,,,,,,,,,,,,,,,,,,,407.5708552590804,None,k,74.95095633505844,407.5708552590804,None,,,,,,,,,,,,,,,,,,,,,,,,,,,,,sing25,001,2019_Nov_07_1411,ProdFawcett_Revision2019,3.2.4,60.00179140589014,
,,,,,,,,,,,,,,482.54409435833804,None,space,13.080834732856601,482.54409435833804,None,,,,,,,,,,,,,,,,,,,,,,,,,,,,,,,,,,,,,,,,,,,,,,,,,,,,sing25,001,2019_Nov_07_1411,ProdFawcett_Revision2019,3.2.4,60.00179140589014,
,,,,0,0,0,0,,,,,,,,,,,,,505.2349371772725,None,,,,,,,,,,,,,,,,,,,,,,court,D_new,0,75,496.1688278284855,None,496.1688278284855,None,496.1688278284855,None,2,5.215735211852007,496.1688278284855,None,501.4497508862987,None,501.4497508862987,None,501.9678379050456,None,501.9678379050456,None,501.9678379050456,None,n,3.232932139071636,501.9678379050456,None,sing25,001,2019_Nov_07_1411,ProdFawcett_Revision2019,3.2.4,60.00179140589014,
,,,,1,0,1,0,,,,,,,,,,,,,511.28613733896054,None,,,,,,,,,,,,,,,,,,,,,,display,C_sing,1,98,505.75407352112234,None,505.75407352112234,None,505.75407352112234,None,6,3.214522921014577,505.75407352112234,None,509.01874976675026,None,509.01874976675026,None,509.5357314797584,None,509.5357314797584,None,509.5357314797584,None,r,1.71245848108083,509.5357314797584,None,sing25,001,2019_Nov_07_1411,ProdFawcett_Revision2019,3.2.4,60.00179140589014,
,,,,2,0,2,0,,,,,,,,,,,,,517.2878892206354,None,,,,,,,,,,,,,,,,,,,,,,partner,A_silent,2,211,511.80562480562367,None,511.80562480562367,None,511.80562480562367,None,6,3.962043913663365,511.80562480562367,None,515.820865211077,None,515.820865211077,None,516.3377094606403,None,516.3377094606403,None,516.3377094606403,None,r,0.9019111152738333,516.3377094606403,None,sing25,001,2019_Nov_07_1411,ProdFawcett_Revision2019,3.2.4,60.00179140589014,
,,,,3,0,3,0,,,,,,,,,,,,,522.2061118367128,None,,,,,,,,,,,,,,,,,,,,,,production,B_aloud,3,240,517.8072519748239,None,517.8072519748239,None,517.8072519748239,None,6,3.1605330596212298,517.8072519748239,None,521.022448839969,None,521.022448839969,None,521.5400771287968,None,521.5400771287968,None,521.5400771287968,None,r,0.6192028985824436,521.5400771287968,None,sing25,001,2019_Nov_07_1411,ProdFawcett_Revision2019,3.2.4,60.00179140589014,
,,,,4,0,4,0,,,,,,,,,,,,,528.5081013247836,None,,,,,,,,,,,,,,,,,,,,,,permit,D_new,4,218,522.7228935746243,None,522.7228935746243,None,522.7228935746243,None,5,3.836219754884951,522.7228935746243,None,526.6241945014335,None,526.6241945014335,None,527.1410729613854,None,527.1410729613854,None,527.1410729613854,None,f,1.3299287803238258,527.1410729613854,None,sing25,001,2019_Nov_07_1411,ProdFawcett_Revision2019,3.2.4,60.00179140589014,
,,,,5,0,5,0,,,,,,,,,,,,,534.3933056540554,None,,,,,,,,,,,,,,,,,,,,,,question,D_new,5,247,529.0304301175056,None,529.0304301175056,None,529.0304301175056,None,6,3.4406248056329787,529.0304301175056,None,532.5259233687539,None,532.5259233687539,None,533.0292479939526,None,533.0292479939526,None,533.0292479939526,None,r,1.3297082788776606,533.0292479939526,None,sing25,001,2019_Nov_07_1411,ProdFawcett_Revision2019,3.2.4,60.00179140589014,
,,,,6,0,6,0,,,,,,,,,,,,,540.6284838588908,None,,,,,,,,,,,,,,,,,,,,,,range,D_new,6,251,534.9110138707329,None,534.9110138707329,None,534.9110138707329,None,2,3.6953915532212704,534.9110138707329,None,538.6514396342682,None,538.6514396342682,None,539.1781625924632,None,539.1781625924632,None,539.1781625924632,None,n,1.4040243825875223,539.1781625924632,None,sing25,001,2019_Nov_07_1411,ProdFawcett_Revision2019,3.2.4,60.00179140589014,
,,,,7,0,7,0,,,,,,,,,,,,,546.497038937523,None,,,,,,,,,,,,,,,,,,,,,,fight,A_silent,7,127,541.1456098774215,None,541.1456098774215,None,541.1456098774215,None,1,3.6203355725156143,541.1456098774215,None,544.818235056242,None,544.818235056242,None,545.3301974870265,None,545.3301974870265,None,545.3301974870265,None,n,1.1245779684977606,545.3301974870265,None,sing25,001,2019_Nov_07_1411,ProdFawcett_Revision2019,3.2.4,60.00179140589014,
,,,,8,0,8,0,,,,,,,,,,,,,552.5489600049332,None,,,,,,,,,,,,,,,,,,,,,,under,C_sing,8,343,547.0142595011275,None,547.0142595011275,None,547.0142595011275,None,3,3.311802886077203,547.0142595011275,None,550.3817086520139,None,550.3817086520139,None,550.8984676867258,None,550.8984676867258,None,550.8984676867258,None,f,1.6030447222292423,550.8984676867258,None,sing25,001,2019_Nov_07_1411,ProdFawcett_Revision2019,3.2.4,60.00179140589014,
,,,,9,0,9,0,,,,,,,,,,,,,556.6002802139847,None,,,,,,,,,,,,,,,,,,,,,,country,B_aloud,9,73,553.0668545126682,None,553.0668545126682,None,553.0668545126682,None,6,1.8588175653712824,553.0668545126682,None,554.9725349878427,None,554.9725349878427,None,555.4998973688344,None,555.4998973688344,None,555.4998973688344,None,r,1.065797723364085,555.4998973688344,None,sing25,001,2019_Nov_07_1411,ProdFawcett_Revision2019,3.2.4,60.00179140589014,
,,,,10,0,10,0,,,,,,,,,,,,,561.7183174721431,None,,,,,,,,,,,,,,,,,,,,,,portion,A_silent,10,228,557.1185423275456,None,557.1185423275456,None,557.1185423275456,None,4,3.4233911798801273,557.1185423275456,None,560.6014993468998,None,560.6014993468998,None,561.1181706786156,None,561.1181706786156,None,561.1181706786156,None,f,0.5594006966566667,561.1181706786156,None,sing25,001,2019_Nov_07_1411,ProdFawcett_Revision2019,3.2.4,60.00179140589014,
,,,,11,0,11,0,,,,,,,,,,,,,566.6866383652668,None,,,,,,,,,,,,,,,,,,,,,,listen,D_new,11,172,562.2354783230694,None,562.2354783230694,None,562.2354783230694,None,2,2.642290850286372,562.2354783230694,None,564.9360810474027,None,564.9360810474027,None,565.4529172108741,None,565.4529172108741,None,565.4529172108741,None,n,1.1927657523192465,565.4529172108741,None,sing25,001,2019_Nov_07_1411,ProdFawcett_Revision2019,3.2.4,60.00179140589014,
,,,,12,0,12,0,,,,,,,,,,,,,571.6216498723952,None,,,,,,,,,,,,,,,,,,,,,,pattern,D_new,12,214,567.2048255271511,None,567.2048255271511,None,567.2048255271511,None,2,2.9516834608512,567.2048255271511,None,570.2103044721298,None,570.2103044721298,None,570.7378920195624,None,570.7378920195624,None,570.7378920195624,None,n,0.8427676182473078,570.7378920195624,None,sing25,001,2019_Nov_07_1411,ProdFawcett_Revision2019,3.2.4,60.00179140589014,
,,,,13,0,13,0,,,,,,,,,,,,,575.4064719785238,None,,,,,,,,,,,,,,,,,,,,,,author,D_new,13,15,572.1393154816469,None,572.1393154816469,None,572.1393154816469,None,1,1.8418426944408566,572.1393154816469,None,574.0389531628462,None,574.0389531628462,None,574.5556210735813,None,574.5556210735813,None,574.5556210735813,None,n,0.8169562107650563,574.5556210735813,None,sing25,001,2019_Nov_07_1411,ProdFawcett_Revision2019,3.2.4,60.00179140589014,
,,,,14,0,14,0,,,,,,,,,,,,,580.0407688000705,None,,,,,,,,,,,,,,,,,,,,,,citizen,B_aloud,14,50,575.9280512533151,None,575.9280512533151,None,575.9280512533151,None,6,2.547975679510273,575.9280512533151,None,578.5402674628422,None,578.5402674628422,None,579.0594526341883,None,579.0594526341883,None,579.0594526341883,None,r,0.9364971698960289,579.0594526341883,None,sing25,001,2019_Nov_07_1411,ProdFawcett_Revision2019,3.2.4,60.00179140589014,
,,,,15,0,15,0,,,,,,,,,,,,,585.6257610250032,None,,,,,,,,,,,,,,,,,,,,,,government,D_new,15,139,580.5575256576994,None,580.5575256576994,None,580.5575256576994,None,4,4.014232132816687,580.5575256576994,None,584.6156005472876,None,584.6156005472876,None,585.1429106798023,None,585.1429106798023,None,585.1429106798023,None,f,0.4366983890067786,585.1429106798023,None,sing25,001,2019_Nov_07_1411,ProdFawcett_Revision2019,3.2.4,60.00179140589014,
,,,,16,0,16,0,,,,,,,,,,,,,589.0935451264959,None,,,,,,,,,,,,,,,,,,,,,,signal,C_sing,16,287,586.1428581202636,None,586.1428581202636,None,586.1428581202636,None,6,1.7171331716235727,586.1428581202636,None,587.909806555952,None,587.909806555952,None,588.426746283425,None,588.426746283425,None,588.426746283425,None,r,0.6331983578857034,588.426746283425,None,sing25,001,2019_Nov_07_1411,ProdFawcett_Revision2019,3.2.4,60.00179140589014,
,,,,17,0,17,0,,,,,,,,,,,,,596.9793633761583,None,,,,,,,,,,,,,,,,,,,,,,afternoon,D_new,17,3,589.6125278347172,None,589.6125278347172,None,589.6125278347172,None,2,6.326996019110084,589.6125278347172,None,595.9848877277691,None,595.9848877277691,None,596.5126425949857,None,596.5126425949857,None,596.5126425949857,None,n,0.42684922565240413,596.5126425949857,None,sing25,001,2019_Nov_07_1411,ProdFawcett_Revision2019,3.2.4,60.00179140589014,
,,,,18,0,18,0,,,,,,,,,,,,,603.3812353051035,None,,,,,,,,,,,,,,,,,,,,,,crowd,D_new,18,81,597.4962135348469,None,597.4962135348469,None,597.4962135348469,None,1,4.346791067975573,597.4962135348469,None,601.8977514461149,None,601.8977514461149,None,602.4144349069102,None,602.4144349069102,None,602.4144349069102,None,n,0.9325356099288911,602.4144349069102,None,sing25,001,2019_Nov_07_1411,ProdFawcett_Revision2019,3.2.4,60.00179140589014,
,,,,19,0,19,0,,,,,,,,,,,,,607.5326606332092,None,,,,,,,,,,,,,,,,,,,,,,scene,D_new,19,273,603.898602351197,None,603.898602351197,None,603.898602351197,None,6,2.087800584617071,603.898602351197,None,606.0488502207445,None,606.0488502207445,None,606.5656157864723,None,606.5656157864723,None,606.5656157864723,None,r,0.9330888846889138,606.5656157864723,None,sing25,001,2019_Nov_07_1411,ProdFawcett_Revision2019,3.2.4,60.00179140589014,
,,,,20,0,20,0,,,,,,,,,,,,,611.4672451327788,None,,,,,,,,,,,,,,,,,,,,,,novel,C_sing,20,202,608.0499443303561,None,608.0499443303561,None,608.0499443303561,None,1,1.9681908937636763,608.0499443303561,None,610.0746563413413,None,610.0746563413413,None,610.6003775579156,None,610.6003775579156,None,610.6003775579156,None,n,0.8177100827451795,610.6003775579156,None,sing25,001,2019_Nov_07_1411,ProdFawcett_Revision2019,3.2.4,60.00179140589014,
,,,,21,0,21,0,,,,,,,,,,,,,615.56840082095,None,,,,,,,,,,,,,,,,,,,,,,surface,D_new,21,316,611.9856378677068,None,611.9856378677068,None,611.9856378677068,None,2,2.2732135971309617,611.9856378677068,None,614.3085392174544,None,614.3085392174544,None,614.835009641014,None,614.835009641014,None,614.835009641014,None,n,0.6868566897464916,614.835009641014,None,sing25,001,2019_Nov_07_1411,ProdFawcett_Revision2019,3.2.4,60.00179140589014,
,,,,22,0,22,0,,,,,,,,,,,,,619.336266094353,None,,,,,,,,,,,,,,,,,,,,,,skill,D_new,22,289,616.0858891584212,None,616.0858891584212,None,616.0858891584212,None,1,1.6603368165669963,616.0858891584212,None,617.7907311687013,None,617.7907311687013,None,618.3191861043451,None,618.3191861043451,None,618.3191861043451,None,n,0.9704702369635925,618.3191861043451,None,sing25,001,2019_Nov_07_1411,ProdFawcett_Revision2019,3.2.4,60.00179140589014,
,,,,23,0,23,0,,,,,,,,,,,,,624.3045048826607,None,,,,,,,,,,,,,,,,,,,,,,staff,A_silent,23,301,619.853794862167,None,619.853794862167,None,619.853794862167,None,3,3.1797166760079563,619.853794862167,None,623.0874619020615,None,623.0874619020615,None,623.6041497169062,None,623.6041497169062,None,623.6041497169062,None,f,0.653214841033332,623.6041497169062,None,sing25,001,2019_Nov_07_1411,ProdFawcett_Revision2019,3.2.4,60.00179140589014,
,,,,24,0,24,0,,,,,,,,,,,,,628.956070784363,None,,,,,,,,,,,,,,,,,,,,,,dance,D_new,24,84,624.8217944889329,None,624.8217944889329,None,624.8217944889329,None,6,3.243888163124211,624.8217944889329,None,628.1097172979498,None,628.1097172979498,None,628.6391786402091,None,628.6391786402091,None,628.6391786402091,None,r,0.282321639591828,628.6391786402091,None,sing25,001,2019_Nov_07_1411,ProdFawcett_Revision2019,3.2.4,60.00179140589014,
,,,,25,0,25,0,,,,,,,,,,,,,633.7073064004071,None,,,,,,,,,,,,,,,,,,,,,,quick,D_new,25,248,629.4767018100247,None,629.4767018100247,None,629.4767018100247,None,3,3.140675810049288,629.4767018100247,None,632.6737578527536,None,632.6737578527536,None,633.1922613049392,None,633.1922613049392,None,633.1922613049392,None,f,0.48093767499085516,633.1922613049392,None,sing25,001,2019_Nov_07_1411,ProdFawcett_Revision2019,3.2.4,60.00179140589014,
,,,,26,0,26,0,,,,,,,,,,,,,641.0763693475164,None,,,,,,,,,,,,,,,,,,,,,,impact,D_new,26,157,634.2242747403216,None,634.2242747403216,None,634.2242747403216,None,1,5.464219692745246,634.2242747403216,None,639.7425340547925,None,639.7425340547925,None,640.2594840454403,None,640.2594840454403,None,640.2594840454403,None,n,0.7737071593292058,640.2594840454403,None,sing25,001,2019_Nov_07_1411,ProdFawcett_Revision2019,3.2.4,60.00179140589014,
,,,,27,0,27,0,,,,,,,,,,,,,646.1780409901403,None,,,,,,,,,,,,,,,,,,,,,,match,D_new,27,181,641.5937516327249,None,641.5937516327249,None,641.5937516327249,None,1,3.566923866397701,641.5937516327249,None,645.2109305218328,None,645.2109305218328,None,645.7278015176998,None,645.7278015176998,None,645.7278015176998,None,n,0.4091997885843739,645.7278015176998,None,sing25,001,2019_Nov_07_1411,ProdFawcett_Revision2019,3.2.4,60.00179140589014,
,,,,28,0,28,0,,,,,,,,,,,,,651.1794871555176,None,,,,,,,,,,,,,,,,,,,,,,carry,D_new,28,43,646.6960583442124,None,646.6960583442124,None,646.6960583442124,None,1,3.248141755349934,646.6960583442124,None,649.9958120295778,None,649.9958120295778,None,650.5124653230887,None,650.5124653230887,None,650.5124653230887,None,n,0.624407849740237,650.5124653230887,None,sing25,001,2019_Nov_07_1411,ProdFawcett_Revision2019,3.2.4,60.00179140589014,
,,,,29,0,29,0,,,,,,,,,,,,,657.5982266591163,None,,,,,,,,,,,,,,,,,,,,,,article,D_new,29,11,651.697854388156,None,651.697854388156,None,651.697854388156,None,3,4.662037693662569,651.697854388156,None,656.4144635192351,None,656.4144635192351,None,656.931274802424,None,656.931274802424,None,656.931274802424,None,f,0.6285553897032514,656.931274802424,None,sing25,001,2019_Nov_07_1411,ProdFawcett_Revision2019,3.2.4,60.00179140589014,
,,,,30,0,30,0,,,,,,,,,,,,,664.2168243452907,None,,,,,,,,,,,,,,,,,,,,,,accident,A_silent,30,0,658.1167696086923,None,658.1167696086923,None,658.1167696086923,None,5,4.754778565722518,658.1167696086923,None,662.9331856067292,None,662.9331856067292,None,663.45019997505,None,663.45019997505,None,663.45019997505,None,f,0.7257404988631606,663.45019997505,None,sing25,001,2019_Nov_07_1411,ProdFawcett_Revision2019,3.2.4,60.00179140589014,
,,,,31,0,31,0,,,,,,,,,,,,,669.7227141257608,None,,,,,,,,,,,,,,,,,,,,,,substance,D_new,31,313,664.7353281084215,None,664.7353281084215,None,664.7353281084215,None,4,3.495638489839621,664.7353281084215,None,668.2753194003599,None,668.2753194003599,None,668.8019104931736,None,668.8019104931736,None,668.8019104931736,None,f,0.8930409902241081,668.8019104931736,None,sing25,001,2019_Nov_07_1411,ProdFawcett_Revision2019,3.2.4,60.00179140589014,
,,,,32,0,32,0,,,,,,,,,,,,,672.5361301859375,None,,,,,,,,,,,,,,,,,,,,,,smooth,C_sing,32,292,670.2520025501726,None,670.2520025501726,None,670.2520025501726,None,6,1.323438141378574,670.2520025501726,None,671.6357644461095,None,671.6357644461095,None,672.1526593891904,None,672.1526593891904,None,672.1526593891904,None,r,0.35026963986456394,672.1526593891904,None,sing25,001,2019_Nov_07_1411,ProdFawcett_Revision2019,3.2.4,60.00179140589014,
,,,,33,0,33,0,,,,,,,,,,,,,678.4044473470422,None,,,,,,,,,,,,,,,,,,,,,,point,C_sing,33,226,673.0545238539344,None,673.0545238539344,None,673.0545238539344,None,5,4.447972880559973,673.0545238539344,None,677.5445988057181,None,677.5445988057181,None,678.0711861664895,None,678.0711861664895,None,678.0711861664895,None,f,0.29537009389605373,678.0711861664895,None,sing25,001,2019_Nov_07_1411,ProdFawcett_Revision2019,3.2.4,60.00179140589014,
,,,,34,0,34,0,,,,,,,,,,,,,684.5731526403688,None,,,,,,,,,,,,,,,,,,,,,,discovery,D_new,34,95,678.9218579336302,None,678.9218579336302,None,678.9218579336302,None,1,4.788062138482928,678.9218579336302,None,683.7729280960048,None,683.7729280960048,None,684.2899692106294,None,684.2899692106294,None,684.2899692106294,None,n,0.23585836903657764,684.2899692106294,None,sing25,001,2019_Nov_07_1411,ProdFawcett_Revision2019,3.2.4,60.00179140589014,
,,,,35,0,35,0,,,,,,,,,,,,,689.4913541083224,None,,,,,,,,,,,,,,,,,,,,,,salary,A_silent,35,271,685.0901247123256,None,685.0901247123256,None,685.0901247123256,None,3,3.5157743982272223,685.0901247123256,None,688.6464470983483,None,688.6464470983483,None,689.1745344280498,None,689.1745344280498,None,689.1745344280498,None,f,0.2710776263847947,689.1745344280498,None,sing25,001,2019_Nov_07_1411,ProdFawcett_Revision2019,3.2.4,60.00179140589014,
,,,,36,0,36,0,,,,,,,,,,,,,692.7757339677773,None,,,,,,,,,,,,,,,,,,,,,,shear,D_new,36,283,690.0086514896248,None,690.0086514896248,None,690.0086514896248,None,1,1.7967826708918437,690.0086514896248,None,691.8586642408045,None,691.8586642408045,None,692.3755859301891,None,692.3755859301891,None,692.3755859301891,None,n,0.35872177651617676,692.3755859301891,None,sing25,001,2019_Nov_07_1411,ProdFawcett_Revision2019,3.2.4,60.00179140589014,
,,,,37,0,37,0,,,,,,,,,,,,,695.9932381663239,None,,,,,,,,,,,,,,,,,,,,,,angle,B_aloud,37,7,693.2924345337087,None,693.2924345337087,None,693.2924345337087,None,6,1.7848948808386922,693.2924345337087,None,695.1431778316619,None,695.1431778316619,None,695.6599601915805,None,695.6599601915805,None,695.6599601915805,None,r,0.29001337313093245,695.6599601915805,None,sing25,001,2019_Nov_07_1411,ProdFawcett_Revision2019,3.2.4,60.00179140589014,
,,,,38,0,38,0,,,,,,,,,,,,,699.9778512781486,None,,,,,,,,,,,,,,,,,,,,,,goose,C_sing,38,138,696.5107529389206,None,696.5107529389206,None,696.5107529389206,None,4,2.0702795919496566,696.5107529389206,None,698.633366610622,None,698.633366610622,None,699.1609893013956,None,699.1609893013956,None,699.1609893013956,None,f,0.7722547738812864,699.1609893013956,None,sing25,001,2019_Nov_07_1411,ProdFawcett_Revision2019,3.2.4,60.00179140589014,
,,,,39,0,39,0,,,,,,,,,,,,,704.2460623872466,None,,,,,,,,,,,,,,,,,,,,,,candidate,A_silent,39,39,700.4977418050403,None,700.4977418050403,None,700.4977418050403,None,5,1.891593580832705,700.4977418050403,None,702.4453517446527,None,702.4453517446527,None,702.9626009205822,None,702.9626009205822,None,702.9626009205822,None,r,1.2504422466736287,702.9626009205822,None,sing25,001,2019_Nov_07_1411,ProdFawcett_Revision2019,3.2.4,60.00179140589014,
,,,,40,0,40,0,,,,,,,,,,,,,709.8643518690951,None,,,,,,,,,,,,,,,,,,,,,,piece,C_sing,40,221,704.7638129004044,None,704.7638129004044,None,704.7638129004044,None,6,3.9449972009751946,704.7638129004044,None,708.764002301381,None,708.764002301381,None,709.2806702121161,None,709.2806702121161,None,709.2806702121161,None,r,0.5479206319432706,709.2806702121161,None,sing25,001,2019_Nov_07_1411,ProdFawcett_Revision2019,3.2.4,60.00179140589014,
,,,,41,0,41,0,,,,,,,,,,,,,717.1664554954041,None,,,,,,,,,,,,,,,,,,,,,,month,D_new,41,193,710.3814900167054,None,710.3814900167054,None,710.3814900167054,None,4,5.446657336549833,710.3814900167054,None,715.8828248429345,None,715.8828248429345,None,716.3997110779164,None,716.3997110779164,None,716.3997110779164,None,f,0.72518380288966,716.3997110779164,None,sing25,001,2019_Nov_07_1411,ProdFawcett_Revision2019,3.2.4,60.00179140589014,
,,,,42,0,42,0,,,,,,,,,,,,,722.284943086328,None,,,,,,,,,,,,,,,,,,,,,,alert,D_new,42,6,717.6848308141343,None,717.6848308141343,None,717.6848308141343,None,5,3.502914411830716,717.6848308141343,None,721.2511547552422,None,721.2511547552422,None,721.7680481432471,None,721.7680481432471,None,721.7680481432471,None,f,0.48395347385667264,721.7680481432471,None,sing25,001,2019_Nov_07_1411,ProdFawcett_Revision2019,3.2.4,60.00179140589014,
,,,,43,0,43,0,,,,,,,,,,,,,728.1033339552814,None,,,,,,,,,,,,,,,,,,,,,,rough,D_new,43,266,722.8026233128039,None,722.8026233128039,None,722.8026233128039,None,2,3.3689428998623043,722.8026233128039,None,726.2361584872706,None,726.2361584872706,None,726.7529141008854,None,726.7529141008854,None,726.7529141008854,None,n,1.30723238165956,726.7529141008854,None,sing25,001,2019_Nov_07_1411,ProdFawcett_Revision2019,3.2.4,60.00179140589014,
,,,,44,0,44,0,,,,,,,,,,,,,734.9886639297474,None,,,,,,,,,,,,,,,,,,,,,,growth,D_new,44,144,728.6217133171158,None,728.6217133171158,None,728.6217133171158,None,6,5.542210611398332,728.6217133171158,None,734.2115543944528,None,734.2115543944528,None,734.7386757478816,None,734.7386757478816,None,734.7386757478816,None,r,0.21674472850281745,734.7386757478816,None,sing25,001,2019_Nov_07_1411,ProdFawcett_Revision2019,3.2.4,60.00179140589014,
,,,,45,0,45,0,,,,,,,,,,,,,738.9399589474779,None,,,,,,,,,,,,,,,,,,,,,,solution,A_silent,45,294,735.5060054736678,None,735.5060054736678,None,735.5060054736678,None,4,2.536754991626367,735.5060054736678,None,738.1062415251508,None,738.1062415251508,None,738.6233308452647,None,738.6233308452647,None,738.6233308452647,None,f,0.2674404429271817,738.6233308452647,None,sing25,001,2019_Nov_07_1411,ProdFawcett_Revision2019,3.2.4,60.00179140589014,
,,,,46,0,46,0,,,,,,,,,,,,,742.9579595073592,None,,,,,,,,,,,,,,,,,,,,,,speech,D_new,46,298,739.4580543633783,None,739.4580543633783,None,739.4580543633783,None,6,2.016487217741087,739.4580543633783,None,741.5240290476941,None,741.5240290476941,None,742.0408558810595,None,742.0408558810595,None,742.0408558810595,None,r,0.8744865335756913,742.0408558810595,None,sing25,001,2019_Nov_07_1411,ProdFawcett_Revision2019,3.2.4,60.00179140589014,
,,,,47,0,47,0,,,,,,,,,,,,,749.4431066118414,None,,,,,,,,,,,,,,,,,,,,,,collection,B_aloud,47,54,743.4771207314916,None,743.4771207314916,None,743.4771207314916,None,3,5.085044784471393,743.4771207314916,None,748.6154434906784,None,748.6154434906784,None,749.1437391926302,None,749.1437391926302,None,749.1437391926302,None,f,0.2588268956169486,749.1437391926302,None,sing25,001,2019_Nov_07_1411,ProdFawcett_Revision2019,3.2.4,60.00179140589014,
,,,,48,0,48,0,,,,,,,,,,,,,754.928247185424,None,,,,,,,,,,,,,,,,,,,,,,position,D_new,48,229,749.9614166199462,None,749.9614166199462,None,749.9614166199462,None,6,3.928553212666884,749.9614166199462,None,753.9444999066181,None,753.9444999066181,None,754.4613198979059,None,754.4613198979059,None,754.4613198979059,None,f,0.4285155812976882,754.4613198979059,None,sing25,001,2019_Nov_07_1411,ProdFawcett_Revision2019,3.2.4,60.00179140589014,
,,,,49,0,49,0,,,,,,,,,,,,,760.6133880699053,None,,,,,,,,,,,,,,,,,,,,,,trend,A_silent,49,340,755.4456363127101,None,755.4456363127101,None,755.4456363127101,None,4,4.300408347393386,755.4456363127101,None,759.7963127448456,None,759.7963127448456,None,760.3132642905694,None,760.3132642905694,None,760.3132642905694,None,f,0.256986067048274,760.3132642905694,None,sing25,001,2019_Nov_07_1411,ProdFawcett_Revision2019,3.2.4,60.00179140589014,
,,,,50,0,50,0,,,,,,,,,,,,,767.548922995571,None,,,,,,,,,,,,,,,,,,,,,,clean,B_aloud,50,51,761.1315945138922,None,761.1315945138922,None,761.1315945138922,None,3,5.558087951736525,761.1315945138922,None,766.7371620949125,None,766.7371620949125,None,767.2653221993241,None,767.2653221993241,None,767.2653221993241,None,f,0.247995272744447,767.2653221993241,None,sing25,001,2019_Nov_07_1411,ProdFawcett_Revision2019,3.2.4,60.00179140589014,
,,,,51,0,51,0,,,,,,,,,,,,,772.100264663808,None,,,,,,,,,,,,,,,,,,,,,,material,A_silent,51,182,768.0676195807755,None,768.0676195807755,None,768.0676195807755,None,5,3.1256042793393135,768.0676195807755,None,771.2500115070725,None,771.2500115070725,None,771.7667836038163,None,771.7667836038163,None,771.7667836038163,None,f,0.2909874353790656,771.7667836038163,None,sing25,001,2019_Nov_07_1411,ProdFawcett_Revision2019,3.2.4,60.00179140589014,
,,,,52,0,52,0,,,,,,,,,,,,,777.7018458045786,None,,,,,,,,,,,,,,,,,,,,,,history,D_new,52,153,772.6225533370161,None,772.6225533370161,None,772.6225533370161,None,5,4.178285749745555,772.6225533370161,None,776.8413195869653,None,776.8413195869653,None,777.3684885239927,None,777.3684885239927,None,777.3684885239927,None,f,0.2879899856634438,777.3684885239927,None,sing25,001,2019_Nov_07_1411,ProdFawcett_Revision2019,3.2.4,60.00179140589014,
,,,,53,0,53,0,,,,,,,,,,,,,782.8368370963726,None,,,,,,,,,,,,,,,,,,,,,,sleep,D_new,53,290,778.2196840206161,None,778.2196840206161,None,778.2196840206161,None,1,3.74938452441711,778.2196840206161,None,782.0200099520152,None,782.0200099520152,None,782.5367046090541,None,782.5367046090541,None,782.5367046090541,None,n,0.2636163462884724,782.5367046090541,None,sing25,001,2019_Nov_07_1411,ProdFawcett_Revision2019,3.2.4,60.00179140589014,
,,,,54,0,54,0,,,,,,,,,,,,,789.0555165763944,None,,,,,,,,,,,,,,,,,,,,,,recall,D_new,54,255,783.3544628972886,None,783.3544628972886,None,783.3544628972886,None,3,4.693749455735087,783.3544628972886,None,788.0938897181768,None,788.0938897181768,None,788.6219157802407,None,788.6219157802407,None,788.6219157802407,None,f,0.38598308141808957,788.6219157802407,None,sing25,001,2019_Nov_07_1411,ProdFawcett_Revision2019,3.2.4,60.00179140589014,
,,,,55,0,55,0,,,,,,,,,,,,,794.5238828761503,None,,,,,,,,,,,,,,,,,,,,,,fashion,A_silent,55,125,789.5737597187981,None,789.5737597187981,None,789.5737597187981,None,4,4.033778068027459,789.5737597187981,None,793.6735311313532,None,793.6735311313532,None,794.1905053802766,None,794.1905053802766,None,794.1905053802766,None,f,0.28977265662979335,794.1905053802766,None,sing25,001,2019_Nov_07_1411,ProdFawcett_Revision2019,3.2.4,60.00179140589014,
,,,,56,0,56,0,,,,,,,,,,,,,797.6581625924446,None,,,,,,,,,,,,,,,,,,,,,,military,D_new,56,190,795.0427530010929,None,795.0427530010929,None,795.0427530010929,None,6,1.757576973293908,795.0427530010929,None,796.8487908191746,None,796.8487908191746,None,797.3757765751798,None,797.3757765751798,None,797.3757765751798,None,r,0.24789201968815178,797.3757765751798,None,sing25,001,2019_Nov_07_1411,ProdFawcett_Revision2019,3.2.4,60.00179140589014,
,,,,57,0,57,0,,,,,,,,,,,,,803.4600270572118,None,,,,,,,,,,,,,,,,,,,,,,executive,D_new,57,122,798.1756173415342,None,798.1756173415342,None,798.1756173415342,None,3,2.392375443247147,798.1756173415342,None,800.625733345747,None,800.625733345747,None,801.1428232878679,None,801.1428232878679,None,801.1428232878679,None,f,2.272663743235171,801.1428232878679,None,sing25,001,2019_Nov_07_1411,ProdFawcett_Revision2019,3.2.4,60.00179140589014,
,,,,58,0,58,0,,,,,,,,,,,,,806.4774898923934,None,,,,,,,,,,,,,,,,,,,,,,guard,D_new,58,145,803.977793431608,None,803.977793431608,None,803.977793431608,None,1,1.605377868982032,803.977793431608,None,805.6439357466297,None,805.6439357466297,None,806.1608266467229,None,806.1608266467229,None,806.1608266467229,None,n,0.27841139514930546,806.1608266467229,None,sing25,001,2019_Nov_07_1411,ProdFawcett_Revision2019,3.2.4,60.00179140589014,
,,,,59,0,59,0,,,,,,,,,,,,,810.1120700378669,None,,,,,,,,,,,,,,,,,,,,,,distance,C_sing,59,100,806.9967313553207,None,806.9967313553207,None,806.9967313553207,None,4,2.258393356925808,806.9967313553207,None,809.3004885861883,None,809.3004885861883,None,809.8291795732221,None,809.8291795732221,None,809.8291795732221,None,f,0.2497956707375124,809.8291795732221,None,sing25,001,2019_Nov_07_1411,ProdFawcett_Revision2019,3.2.4,60.00179140589014,
,,,,60,0,60,0,,,,,,,,,,,,,814.0966794177657,None,,,,,,,,,,,,,,,,,,,,,,track,D_new,60,334,810.6296805995516,None,810.6296805995516,None,810.6296805995516,None,3,2.480901909642853,810.6296805995516,None,813.1628459910862,None,813.1628459910862,None,813.6799545934191,None,813.6799545934191,None,813.6799545934191,None,f,0.3829361820826307,813.6799545934191,None,sing25,001,2019_Nov_07_1411,ProdFawcett_Revision2019,3.2.4,60.00179140589014,
,,,,61,0,61,0,,,,,,,,,,,,,817.914575169445,None,,,,,,,,,,,,,,,,,,,,,,meeting,D_new,61,187,814.6138178764377,None,814.6138178764377,None,814.6138178764377,None,2,2.2884061080403626,814.6138178764377,None,816.9641976114362,None,816.9641976114362,None,817.4809768613195,None,817.4809768613195,None,817.4809768613195,None,n,0.39737077814061195,817.4809768613195,None,sing25,001,2019_Nov_07_1411,ProdFawcett_Revision2019,3.2.4,60.00179140589014,
,,,,62,0,62,0,,,,,,,,,,,,,821.3820874540834,None,,,,,,,,,,,,,,,,,,,,,,brief,A_silent,62,28,818.4318022640655,None,818.4318022640655,None,818.4318022640655,None,5,2.0701719847274944,818.4318022640655,None,820.5652568886289,None,820.5652568886289,None,821.0819686508039,None,821.0819686508039,None,821.0819686508039,None,f,0.25197735894471407,821.0819686508039,None,sing25,001,2019_Nov_07_1411,ProdFawcett_Revision2019,3.2.4,60.00179140589014,
,,,,63,0,63,0,,,,,,,,,,,,,826.2669039621251,None,,,,,,,,,,,,,,,,,,,,,,suggestion,B_aloud,63,314,821.9015323132044,None,821.9015323132044,None,821.9015323132044,None,1,3.192694221623242,821.9015323132044,None,825.1393077066168,None,825.1393077066168,None,825.6675586240599,None,825.6675586240599,None,825.6675586240599,None,n,0.5622286496218294,825.6675586240599,None,sing25,001,2019_Nov_07_1411,ProdFawcett_Revision2019,3.2.4,60.00179140589014,
,,,,64,0,64,0,,,,,,,,,,,,,830.2515593704302,None,,,,,,,,,,,,,,,,,,,,,,thick,D_new,64,327,826.7839466318255,None,826.7839466318255,None,826.7839466318255,None,1,2.3585000310558826,826.7839466318255,None,829.1908039434347,None,829.1908039434347,None,829.7180123778526,None,829.7180123778526,None,829.7180123778526,None,n,0.4874189835973084,829.7180123778526,None,sing25,001,2019_Nov_07_1411,ProdFawcett_Revision2019,3.2.4,60.00179140589014,
,,,,65,0,65,0,,,,,,,,,,,,,833.6193276108243,None,,,,,,,,,,,,,,,,,,,,,,universal,A_silent,65,345,830.7713562853169,None,830.7713562853169,None,830.7713562853169,None,4,1.9859118616441265,830.7713562853169,None,832.8190100764623,None,832.8190100764623,None,833.3221580518875,None,833.3221580518875,None,833.3221580518875,None,f,0.2594576101982966,833.3221580518875,None,sing25,001,2019_Nov_07_1411,ProdFawcett_Revision2019,3.2.4,60.00179140589014,
,,,,66,0,66,0,,,,,,,,,,,,,837.0203644958092,None,,,,,,,,,,,,,,,,,,,,,,nature,D_new,66,200,834.1375928344205,None,834.1375928344205,None,834.1375928344205,None,1,2.02791347890161,834.1375928344205,None,836.2084838588489,None,836.2084838588489,None,836.7368632206926,None,836.7368632206926,None,836.7368632206926,None,n,0.23618025751784444,836.7368632206926,None,sing25,001,2019_Nov_07_1411,ProdFawcett_Revision2019,3.2.4,60.00179140589014,
,,,,67,0,67,0,,,,,,,,,,,,,842.8055927722016,None,,,,,,,,,,,,,,,,,,,,,,sight,C_sing,67,286,837.5377747713355,None,837.5377747713355,None,837.5377747713355,None,3,4.2189749331446365,837.5377747713355,None,841.812210611417,None,841.812210611417,None,842.3389307706384,None,842.3389307706384,None,842.3389307706384,None,f,0.4338558189338073,842.3389307706384,None,sing25,001,2019_Nov_07_1411,ProdFawcett_Revision2019,3.2.4,60.00179140589014,
,,,,68,0,68,0,,,,,,,,,,,,,847.9569655407686,None,,,,,,,,,,,,,,,,,,,,,,appearance,D_new,68,10,843.3245658393716,None,843.3245658393716,None,843.3245658393716,None,4,2.856903340201825,843.3245658393716,None,846.2285979971057,None,846.2285979971057,None,846.7575716861757,None,846.7575716861757,None,846.7575716861757,None,f,1.150900665554218,846.7575716861757,None,sing25,001,2019_Nov_07_1411,ProdFawcett_Revision2019,3.2.4,60.00179140589014,
,,,,69,0,69,0,,,,,,,,,,,,,852.2417497044662,None,,,,,,,,,,,,,,,,,,,,,,device,A_silent,69,93,848.4748348571593,None,848.4748348571593,None,848.4748348571593,None,6,2.8261367169907317,848.4748348571593,None,851.3581585494103,None,851.3581585494103,None,851.8750870808726,None,851.8750870808726,None,851.8750870808726,None,f,0.32113080797716975,851.8750870808726,None,sing25,001,2019_Nov_07_1411,ProdFawcett_Revision2019,3.2.4,60.00179140589014,
,,,,70,0,70,0,,,,,,,,,,,,,855.3425906574121,None,,,,,,,,,,,,,,,,,,,,,,worker,C_sing,70,356,852.7604848541087,None,852.7604848541087,None,852.7604848541087,None,6,1.6600043539656326,852.7604848541087,None,854.4757345897378,None,854.4757345897378,None,854.9925897243666,None,854.9925897243666,None,854.9925897243666,None,r,0.3082904148614034,854.9925897243666,None,sing25,001,2019_Nov_07_1411,ProdFawcett_Revision2019,3.2.4,60.00179140589014,
,,,,71,0,71,0,,,,,,,,,,,,,858.7438073023222,None,,,,,,,,,,,,,,,,,,,,,,watch,C_sing,71,351,855.860742675839,None,855.860742675839,None,855.860742675839,None,4,2.015563226887025,855.860742675839,None,857.9267618336016,None,857.9267618336016,None,858.4436869440833,None,858.4436869440833,None,858.4436869440833,None,f,0.25686726381536573,858.4436869440833,None,sing25,001,2019_Nov_07_1411,ProdFawcett_Revision2019,3.2.4,60.00179140589014,
,,,,72,0,72,0,,,,,,,,,,,,,864.3289923493285,None,,,,,,,,,,,,,,,,,,,,,,relation,D_new,72,257,859.2625567580108,None,859.2625567580108,None,859.2625567580108,None,4,4.205755737959407,859.2625567580108,None,863.5284219692694,None,863.5284219692694,None,864.0458166946191,None,864.0458166946191,None,864.0458166946191,None,f,0.2378061827039346,864.0458166946191,None,sing25,001,2019_Nov_07_1411,ProdFawcett_Revision2019,3.2.4,60.00179140589014,
,,,,73,0,73,0,,,,,,,,,,,,,867.3629548422759,None,,,,,,,,,,,,,,,,,,,,,,society,B_aloud,73,293,864.8476830254076,None,864.8476830254076,None,864.8476830254076,None,6,1.635610188357532,864.8476830254076,None,866.5351726068184,None,866.5351726068184,None,867.0629573302576,None,867.0629573302576,None,867.0629573302576,None,r,0.2607908813515678,867.0629573302576,None,sing25,001,2019_Nov_07_1411,ProdFawcett_Revision2019,3.2.4,60.00179140589014,
,,,,74,0,74,0,,,,,,,,,,,,,873.4650205262005,None,,,,,,,,,,,,,,,,,,,,,,design,D_new,74,91,867.8805147104431,None,867.8805147104431,None,867.8805147104431,None,4,4.7465288921957836,867.8805147104431,None,872.6814144429518,None,872.6814144429518,None,873.198348261416,None,873.198348261416,None,873.198348261416,None,f,0.2206702121766284,873.198348261416,None,sing25,001,2019_Nov_07_1411,ProdFawcett_Revision2019,3.2.4,60.00179140589014,
,,,,75,0,75,0,,,,,,,,,,,,,878.7499841387616,None,,,,,,,,,,,,,,,,,,,,,,drama,D_new,75,103,873.9825707532,None,873.9825707532,None,873.9825707532,None,5,3.0285718728555366,873.9825707532,None,877.065996454563,None,877.065996454563,None,877.5830702245003,None,877.5830702245003,None,877.5830702245003,None,f,1.1242688312195241,877.5830702245003,None,sing25,001,2019_Nov_07_1411,ProdFawcett_Revision2019,3.2.4,60.00179140589014,
,,,,76,0,76,0,,,,,,,,,,,,,882.767953287228,None,,,,,,,,,,,,,,,,,,,,,,division,B_aloud,76,101,879.2685090501327,None,879.2685090501327,None,879.2685090501327,None,4,2.3659939665813,879.2685090501327,None,881.6841245256364,None,881.6841245256364,None,882.2011295639677,None,882.2011295639677,None,882.2011295639677,None,f,0.5213345151860267,882.2011295639677,None,sing25,001,2019_Nov_07_1411,ProdFawcett_Revision2019,3.2.4,60.00179140589014,
,,,,77,0,77,0,,,,,,,,,,,,,885.8521238415269,None,,,,,,,,,,,,,,,,,,,,,,stranger,C_sing,77,309,883.2865027679363,None,883.2865027679363,None,883.2865027679363,None,6,1.6997919387649745,883.2865027679363,None,885.0350985879777,None,885.0350985879777,None,885.5542075635167,None,885.5542075635167,None,885.5542075635167,None,r,0.2569925980642438,885.5542075635167,None,sing25,001,2019_Nov_07_1411,ProdFawcett_Revision2019,3.2.4,60.00179140589014,
,,,,78,0,78,0,,,,,,,,,,,,,890.5703526777215,None,,,,,,,,,,,,,,,,,,,,,,graduate,D_new,78,141,886.3704565528315,None,886.3704565528315,None,886.3704565528315,None,3,3.2955884182592854,886.3704565528315,None,889.719986626762,None,889.719986626762,None,890.2369683397701,None,890.2369683397701,None,890.2369683397701,None,f,0.2932478074217215,890.2369683397701,None,sing25,001,2019_Nov_07_1411,ProdFawcett_Revision2019,3.2.4,60.00179140589014,
,,,,79,0,79,0,,,,,,,,,,,,,894.4382537164493,None,,,,,,,,,,,,,,,,,,,,,,audience,A_silent,79,14,891.0885401504347,None,891.0885401504347,None,891.0885401504347,None,2,2.1453175343340263,891.0885401504347,None,893.2876659202157,None,893.2876659202157,None,893.8048675125465,None,893.8048675125465,None,893.8048675125465,None,n,0.5969981962116435,893.8048675125465,None,sing25,001,2019_Nov_07_1411,ProdFawcett_Revision2019,3.2.4,60.00179140589014,
,,,,80,0,80,0,,,,,,,,,,,,,899.522939914139,None,,,,,,,,,,,,,,,,,,,,,,health,D_new,80,149,894.9564987248741,None,894.9564987248741,None,894.9564987248741,None,1,3.6774043665500358,894.9564987248741,None,898.6894221558468,None,898.6894221558468,None,899.2063870746642,None,899.2063870746642,None,899.2063870746642,None,n,0.2755343036260456,899.2063870746642,None,sing25,001,2019_Nov_07_1411,ProdFawcett_Revision2019,3.2.4,60.00179140589014,
,,,,81,0,81,0,,,,,,,,,,,,,904.8580783106154,None,,,,,,,,,,,,,,,,,,,,,,sound,A_silent,81,295,900.0399972009473,None,900.0399972009473,None,900.0399972009473,None,4,3.9295036387629807,900.0399972009473,None,904.0243459600024,None,904.0243459600024,None,904.5411594202742,None,904.5411594202742,None,904.5411594202742,None,f,0.26800988987088203,904.5411594202742,None,sing25,001,2019_Nov_07_1411,ProdFawcett_Revision2019,3.2.4,60.00179140589014,
,,,,82,0,82,0,,,,,,,,,,,,,907.6922404677607,None,,,,,,,,,,,,,,,,,,,,,,council,A_silent,82,71,905.376505877939,None,905.376505877939,None,905.376505877939,None,1,1.5126805374165997,905.376505877939,None,906.9419658518163,None,906.9419658518163,None,907.4589929713402,None,907.4589929713402,None,907.4589929713402,None,n,0.1981607264606282,907.4589929713402,None,sing25,001,2019_Nov_07_1411,ProdFawcett_Revision2019,3.2.4,60.00179140589014,
,,,,83,0,83,0,,,,,,,,,,,,,911.7937326615211,None,,,,,,,,,,,,,,,,,,,,,,motion,D_new,83,194,908.2106139204698,None,908.2106139204698,None,908.2106139204698,None,3,2.7181209181435406,908.2106139204698,None,910.9933905579383,None,910.9933905579383,None,911.5101856689434,None,911.5101856689434,None,911.5101856689434,None,f,0.24294489016756415,911.5101856689434,None,sing25,001,2019_Nov_07_1411,ProdFawcett_Revision2019,3.2.4,60.00179140589014,
,,,,84,0,84,0,,,,,,,,,,,,,916.1949458853342,None,,,,,,,,,,,,,,,,,,,,,,management,D_new,84,177,912.3107653791085,None,912.3107653791085,None,912.3107653791085,None,4,3.0101782048586756,912.3107653791085,None,915.3779293400003,None,915.3779293400003,None,915.895408347249,None,915.895408347249,None,915.895408347249,None,f,0.26543633767869323,915.895408347249,None,sing25,001,2019_Nov_07_1411,ProdFawcett_Revision2019,3.2.4,60.00179140589014,
,,,,85,0,85,0,,,,,,,,,,,,,919.6460303538479,None,,,,,,,,,,,,,,,,,,,,,,problem,B_aloud,85,238,916.7137873980682,None,916.7137873980682,None,916.7137873980682,None,5,1.9428239099215716,916.7137873980682,None,918.7013845866313,None,918.7013845866313,None,919.2291354107438,None,919.2291354107438,None,919.2291354107438,None,f,0.3791876593604684,919.2291354107438,None,sing25,001,2019_Nov_07_1411,ProdFawcett_Revision2019,3.2.4,60.00179140589014,
,,,,86,0,86,0,,,,,,,,,,,,,922.9969325744314,None,,,,,,,,,,,,,,,,,,,,,,group,C_sing,86,143,920.1633936678991,None,920.1633936678991,None,920.1633936678991,None,4,1.949116439674981,920.1633936678991,None,922.1524762081681,None,922.1524762081681,None,922.6801884679589,None,922.6801884679589,None,922.6801884679589,None,f,0.2800363873830065,922.6801884679589,None,sing25,001,2019_Nov_07_1411,ProdFawcett_Revision2019,3.2.4,60.00179140589014,
,,,,87,0,87,0,,,,,,,,,,,,,926.214727561106,None,,,,,,,,,,,,,,,,,,,,,,drove,D_new,87,106,923.5156565279467,None,923.5156565279467,None,923.5156565279467,None,1,1.868238166323863,923.5156565279467,None,925.4478372830199,None,925.4478372830199,None,925.9646040927619,None,925.9646040927619,None,925.9646040927619,None,n,0.21168439381290227,925.9646040927619,None,sing25,001,2019_Nov_07_1411,ProdFawcett_Revision2019,3.2.4,60.00179140589014,
,,,,88,0,88,0,,,,,,,,,,,,,933.4002926540561,None,,,,,,,,,,,,,,,,,,,,,,native,D_new,88,199,926.7334925669711,None,926.7334925669711,None,926.7334925669711,None,2,5.778073956607841,926.7334925669711,None,932.5665559493937,None,932.5665559493937,None,933.0834561795928,None,933.0834561795928,None,933.0834561795928,None,f,0.26804596628062427,933.0834561795928,None,sing25,001,2019_Nov_07_1411,ProdFawcett_Revision2019,3.2.4,60.00179140589014,
,,,,89,0,89,0,,,,,,,,,,,,,938.8022168314783,None,,,,,,,,,,,,,,,,,,,,,,empty,C_sing,89,112,933.9183877588948,None,933.9183877588948,None,933.9183877588948,None,4,3.9848609815817326,933.9183877588948,None,937.9589460097486,None,937.9589460097486,None,938.4851141382242,None,938.4851141382242,None,938.4851141382242,None,f,0.27500621997751296,938.4851141382242,None,sing25,001,2019_Nov_07_1411,ProdFawcett_Revision2019,3.2.4,60.00179140589014,
,,,,90,0,90,0,,,,,,,,,,,,,943.603481681901,None,,,,,,,,,,,,,,,,,,,,,,series,B_aloud,90,279,939.3205271505285,None,939.3205271505285,None,939.3205271505285,None,6,3.375273060868494,939.3205271505285,None,942.7529439571081,None,942.7529439571081,None,943.2700227032183,None,943.2700227032183,None,943.2700227032183,None,f,0.2969891771208495,943.2700227032183,None,sing25,001,2019_Nov_07_1411,ProdFawcett_Revision2019,3.2.4,60.00179140589014,
,,,,91,0,91,0,,,,,,,,,,,,,947.3211000185693,None,,,,,,,,,,,,,,,,,,,,,,course,A_silent,91,74,944.1214191080071,None,944.1214191080071,None,944.1214191080071,None,4,2.3172448218101636,944.1214191080071,None,946.5041291906964,None,946.5041291906964,None,947.02118958754,None,947.02118958754,None,947.02118958754,None,f,0.25840890721883625,947.02118958754,None,sing25,001,2019_Nov_07_1411,ProdFawcett_Revision2019,3.2.4,60.00179140589014,
,,,,92,0,92,0,,,,,,,,,,,,,952.1059479380492,None,,,,,,,,,,,,,,,,,,,,,,school,B_aloud,92,274,947.8393982085399,None,947.8393982085399,None,947.8393982085399,None,6,3.431261740392074,947.8393982085399,None,951.311271381448,None,951.311271381448,None,951.8391680661589,None,951.8391680661589,None,951.8391680661589,None,f,0.2314670025371015,951.8391680661589,None,sing25,001,2019_Nov_07_1411,ProdFawcett_Revision2019,3.2.4,60.00179140589014,
,,,,93,0,93,0,,,,,,,,,,,,,958.8747567953542,None,,,,,,,,,,,,,,,,,,,,,,front,D_new,93,134,952.6235473036068,None,952.6235473036068,None,952.6235473036068,None,4,4.470523107564077,952.6235473036068,None,957.1575555140153,None,957.1575555140153,None,957.6744084716775,None,957.6744084716775,None,957.6744084716775,None,f,1.1566262362757698,957.6744084716775,None,sing25,001,2019_Nov_07_1411,ProdFawcett_Revision2019,3.2.4,60.00179140589014,
,,,,94,0,94,0,,,,,,,,,,,,,963.1429803445935,None,,,,,,,,,,,,,,,,,,,,,,service,B_aloud,94,280,959.3936916090315,None,959.3936916090315,None,959.3936916090315,None,6,2.9485404615988955,959.3936916090315,None,962.3804733470315,None,962.3804733470315,None,962.9092106735334,None,962.9092106735334,None,962.9092106735334,None,r,0.20052466250490397,962.9092106735334,None,sing25,001,2019_Nov_07_1411,ProdFawcett_Revision2019,3.2.4,60.00179140589014,
,,,,95,0,95,0,,,,,,,,,,,,,968.3944632082712,None,,,,,,,,,,,,,,,,,,,,,,produce,C_sing,95,239,963.6603119362844,None,963.6603119362844,None,963.6603119362844,None,4,3.5531806306680664,963.6603119362844,None,967.2683995770058,None,967.2683995770058,None,967.7944184237858,None,967.7944184237858,None,967.7944184237858,None,f,0.5631510854000226,967.7944184237858,None,sing25,001,2019_Nov_07_1411,ProdFawcett_Revision2019,3.2.4,60.00179140589014,
,,,,96,0,96,0,,,,,,,,,,,,,972.5293061515549,None,,,,,,,,,,,,,,,,,,,,,,welcome,D_new,96,354,968.9132823287509,None,968.9132823287509,None,968.9132823287509,None,6,2.676421907148324,968.9132823287509,None,971.6453013621503,None,971.6453013621503,None,972.1622441997752,None,972.1622441997752,None,972.1622441997752,None,f,0.3310720283770934,972.1622441997752,None,sing25,001,2019_Nov_07_1411,ProdFawcett_Revision2019,3.2.4,60.00179140589014,
,,,,97,0,97,0,,,,,,,,,,,,,977.7638048143126,None,,,,,,,,,,,,,,,,,,,,,,property,D_new,97,242,973.0476068295538,None,973.0476068295538,None,973.0476068295538,None,3,3.8533156061312184,973.0476068295538,None,976.9637270634994,None,976.9637270634994,None,977.4807563599898,None,977.4807563599898,None,977.4807563599898,None,f,0.24452385399490595,977.4807563599898,None,sing25,001,2019_Nov_07_1411,ProdFawcett_Revision2019,3.2.4,60.00179140589014,
,,,,98,0,98,0,,,,,,,,,,,,,983.0656758100959,None,,,,,,,,,,,,,,,,,,,,,,primary,D_new,98,234,978.2823424767703,None,978.2823424767703,None,978.2823424767703,None,1,3.275239472510293,978.2823424767703,None,981.6061199228279,None,981.6061199228279,None,982.1320398706011,None,982.1320398706011,None,982.1320398706011,None,n,0.8966452074237168,982.1320398706011,None,sing25,001,2019_Nov_07_1411,ProdFawcett_Revision2019,3.2.4,60.00179140589014,
,,,,99,0,99,0,,,,,,,,,,,,,986.6165882938076,None,,,,,,,,,,,,,,,,,,,,,,crime,B_aloud,99,78,983.583300055936,None,983.583300055936,None,983.583300055936,None,3,2.1496619393583387,983.583300055936,None,985.7831000807928,None,985.7831000807928,None,986.2999200720806,None,986.2999200720806,None,986.2999200720806,None,f,0.2733367544133216,986.2999200720806,None,sing25,001,2019_Nov_07_1411,ProdFawcett_Revision2019,3.2.4,60.00179140589014,
,,,,100,0,100,0,,,,,,,,,,,,,990.4345848105149,None,,,,,,,,,,,,,,,,,,,,,,plane,D_new,100,223,987.1342545250664,None,987.1342545250664,None,987.1342545250664,None,4,2.0699374882970005,987.1342545250664,None,989.2569499906385,None,989.2569499906385,None,989.7844212228665,None,989.7844212228665,None,989.7844212228665,None,f,0.6119953971356153,989.7844212228665,None,sing25,001,2019_Nov_07_1411,ProdFawcett_Revision2019,3.2.4,60.00179140589014,
,,,,101,0,101,0,,,,,,,,,,,,,994.4356686570682,None,,,,,,,,,,,,,,,,,,,,,,south,D_new,101,296,990.9523605150171,None,990.9523605150171,None,990.9523605150171,None,2,2.5638085464015603,990.9523605150171,None,993.5687317284755,None,993.5687317284755,None,994.0857417428633,None,994.0857417428633,None,994.0857417428633,None,f,0.31090906262397766,994.0857417428633,None,sing25,001,2019_Nov_07_1411,ProdFawcett_Revision2019,3.2.4,60.00179140589014,
,,,,102,0,102,0,,,,,,,,,,,,,998.9037901971024,None,,,,,,,,,,,,,,,,,,,,,,spoke,D_new,102,300,994.9528556321748,None,994.9528556321748,None,994.9528556321748,None,1,2.611074205371551,994.9528556321748,None,997.5922087454237,None,997.5922087454237,None,998.1202208122704,None,998.1202208122704,None,998.1202208122704,None,n,0.7475782172987238,998.1202208122704,None,sing25,001,2019_Nov_07_1411,ProdFawcett_Revision2019,3.2.4,60.00179140589014,
,,,,103,0,103,0,,,,,,,,,,,,,1005.7726183367195,None,,,,,,,,,,,,,,,,,,,,,,bicycle,B_aloud,103,21,999.4222647260176,None,999.4222647260176,None,999.4222647260176,None,2,4.885208994266577,999.4222647260176,None,1004.3722995583666,None,1004.3722995583666,None,1004.8890875162324,None,1004.8890875162324,None,1004.8890875162324,None,f,0.8504301175707951,1004.8890875162324,None,sing25,001,2019_Nov_07_1411,ProdFawcett_Revision2019,3.2.4,60.00179140589014,
,,,,104,0,104,0,,,,,,,,,,,,,1009.7404145674082,None,,,,,,,,,,,,,,,,,,,,,,shape,D_new,104,282,1006.2902438265737,None,1006.2902438265737,None,1006.2902438265737,None,1,2.625796790467575,1006.2902438265737,None,1008.9637995272642,None,1008.9637995272642,None,1009.4904708589893,None,1009.4904708589893,None,1009.4904708589893,None,n,0.21690769423730671,1009.4904708589893,None,sing25,001,2019_Nov_07_1411,ProdFawcett_Revision2019,3.2.4,60.00179140589014,
,,,,105,0,105,0,,,,,,,,,,,,,1013.0081831186544,None,,,,,,,,,,,,,,,,,,,,,,exchange,C_sing,105,121,1010.2593552900944,None,1010.2593552900944,None,1010.2593552900944,None,4,1.911630279268138,1010.2593552900944,None,1012.2246541642817,None,1012.2246541642817,None,1012.7415587485302,None,1012.7415587485302,None,1012.7415587485302,None,f,0.2214172420790419,1012.7415587485302,None,sing25,001,2019_Nov_07_1411,ProdFawcett_Revision2019,3.2.4,60.00179140589014,
,,,,106,0,106,0,,,,,,,,,,,,,1015.7590486408444,None,,,,,,,,,,,,,,,,,,,,,,quiet,B_aloud,106,249,1013.5273266156437,None,1013.5273266156437,None,1013.5273266156437,None,6,1.4434596005594358,1013.5273266156437,None,1015.025515021407,None,1015.025515021407,None,1015.5452855009353,None,1015.5452855009353,None,1015.5452855009353,None,r,0.17754525097552687,1015.5452855009353,None,sing25,001,2019_Nov_07_1411,ProdFawcett_Revision2019,3.2.4,60.00179140589014,
,,,,107,0,107,0,,,,,,,,,,,,,1019.5103386825649,None,,,,,,,,,,,,,,,,,,,,,,background,A_silent,107,16,1016.2782254151534,None,1016.2782254151534,None,1016.2782254151534,None,4,2.380681097158231,1016.2782254151534,None,1018.7098077998962,None,1018.7098077998962,None,1019.2282820177497,None,1019.2282820177497,None,1019.2282820177497,None,f,0.24634508916642517,1019.2282820177497,None,sing25,001,2019_Nov_07_1411,ProdFawcett_Revision2019,3.2.4,60.00179140589014,
,,,,108,0,108,0,,,,,,,,,,,,,1022.7945761025185,None,,,,,,,,,,,,,,,,,,,,,,safety,A_silent,108,270,1020.0283330222592,None,1020.0283330222592,None,1020.0283330222592,None,5,1.9265009019291028,1020.0283330222592,None,1022.01086614409,None,1022.01086614409,None,1022.5278991727391,None,1022.5278991727391,None,1022.5278991727391,None,f,0.21847483981400728,1022.5278991727391,None,sing25,001,2019_Nov_07_1411,ProdFawcett_Revision2019,3.2.4,60.00179140589014,
,,,,109,0,109,0,,,,,,,,,,,,,1028.3128071157262,None,,,,,,,,,,,,,,,,,,,,,,estate,A_silent,109,119,1023.3133146731416,None,1023.3133146731416,None,1023.3133146731416,None,4,4.257616159738973,1023.3133146731416,None,1027.6293210798176,None,1027.6293210798176,None,1028.1462396590505,None,1028.1462396590505,None,1028.1462396590505,None,f,0.11968868575058877,1028.1462396590505,None,sing25,001,2019_Nov_07_1411,ProdFawcett_Revision2019,3.2.4,60.00179140589014,
,,,,110,0,110,0,,,,,,,,,,,,,1030.9685361074517,None,,,,,,,,,,,,,,,,,,,,,,pretty,B_aloud,110,233,1028.8313093237812,None,1028.8313093237812,None,1028.8313093237812,None,6,1.4269244883907959,1028.8313093237812,None,1030.3136045282008,None,1030.3136045282008,None,1030.8302407164592,None,1030.8302407164592,None,1030.8302407164592,None,r,0.10820830997545272,1030.8302407164592,None,sing25,001,2019_Nov_07_1411,ProdFawcett_Revision2019,3.2.4,60.00179140589014,
,,,,111,0,111,0,,,,,,,,,,,,,1034.247950177174,None,,,,,,,,,,,,,,,,,,,,,,corner,B_aloud,111,69,1031.4983582135756,None,1031.4983582135756,None,1031.4983582135756,None,3,1.5437656280118972,1031.4983582135756,None,1033.086258319323,None,1033.086258319323,None,1033.614490576554,None,1033.614490576554,None,1033.614490576554,None,f,0.5954979163361713,1033.614490576554,None,sing25,001,2019_Nov_07_1411,ProdFawcett_Revision2019,3.2.4,60.00179140589014,
,,,,112,0,112,0,,,,,,,,,,,,,1038.132661255193,None,,,,,,,,,,,,,,,,,,,,,,gesture,C_sing,112,137,1034.7660574112087,None,1034.7660574112087,None,1034.7660574112087,None,6,2.5636673509143293,1034.7660574112087,None,1037.3823782422114,None,1037.3823782422114,None,1037.8992974435678,None,1037.8992974435678,None,1037.8992974435678,None,r,0.1909659762168303,1037.8992974435678,None,sing25,001,2019_Nov_07_1411,ProdFawcett_Revision2019,3.2.4,60.00179140589014,
,,,,113,0,113,0,,,,,,,,,,,,,1042.7673225725302,None,,,,,,,,,,,,,,,,,,,,,,testimony,B_aloud,113,325,1038.6509258567821,None,1038.6509258567821,None,1038.6509258567821,None,2,2.791244013234973,1038.6509258567821,None,1041.5003906200873,None,1041.5003906200873,None,1042.0172420226736,None,1042.0172420226736,None,1042.0172420226736,None,f,0.7121739130234346,1042.0172420226736,None,sing25,001,2019_Nov_07_1411,ProdFawcett_Revision2019,3.2.4,60.00179140589014,
,,,,114,0,114,0,,,,,,,,,,,,,1050.8865746096708,None,,,,,,,,,,,,,,,,,,,,,,color,D_new,114,56,1043.2852851899806,None,1043.2852851899806,None,1043.2852851899806,None,4,6.715697269421071,1043.2852851899806,None,1050.0530157989124,None,1050.0530157989124,None,1050.569739690167,None,1050.569739690167,None,1050.569739690167,None,f,0.27102257881779224,1050.569739690167,None,sing25,001,2019_Nov_07_1411,ProdFawcett_Revision2019,3.2.4,60.00179140589014,
,,,,115,0,115,0,,,,,,,,,,,,,1054.271109348745,None,,,,,,,,,,,,,,,,,,,,,,right,D_new,115,265,1051.4034443615237,None,1051.4034443615237,None,1051.4034443615237,None,1,1.933588978019543,1051.4034443615237,None,1053.3872482427396,None,1053.3872482427396,None,1053.9042053865269,None,1053.9042053865269,None,1053.9042053865269,None,n,0.32864464761223644,1053.9042053865269,None,sing25,001,2019_Nov_07_1411,ProdFawcett_Revision2019,3.2.4,60.00179140589014,
,,,,116,0,116,0,,,,,,,,,,,,,1057.6887031162623,None,,,,,,,,,,,,,,,,,,,,,,provision,D_new,116,243,1054.7899617465446,None,1054.7899617465446,None,1054.7899617465446,None,1,2.0023116875672713,1054.7899617465446,None,1056.8446308390703,None,1056.8446308390703,None,1057.3732897927985,None,1057.3732897927985,None,1057.3732897927985,None,n,0.27546930394601077,1057.3732897927985,None,sing25,001,2019_Nov_07_1411,ProdFawcett_Revision2019,3.2.4,60.00179140589014,
,,,,117,0,117,0,,,,,,,,,,,,,1060.439461964299,None,,,,,,,,,,,,,,,,,,,,,,error,B_aloud,117,117,1058.2065049449448,None,1058.2065049449448,None,1058.2065049449448,None,6,1.4499984449939802,1058.2065049449448,None,1059.693952540867,None,1059.693952540867,None,1060.2226637431886,None,1060.2226637431886,None,1060.2226637431886,None,r,0.17787864652927965,1060.2226637431886,None,sing25,001,2019_Nov_07_1411,ProdFawcett_Revision2019,3.2.4,60.00179140589014,
,,,,118,0,118,0,,,,,,,,,,,,,1064.3073073334526,None,,,,,,,,,,,,,,,,,,,,,,crisis,D_new,118,79,1060.9582101759734,None,1060.9582101759734,None,1060.9582101759734,None,5,2.322453816072084,1060.9582101759734,None,1063.3282400323078,None,1063.3282400323078,None,1063.840719039552,None,1063.840719039552,None,1063.840719039552,None,f,0.4314032468246296,1063.840719039552,None,sing25,001,2019_Nov_07_1411,ProdFawcett_Revision2019,3.2.4,60.00179140589014,
,,,,119,0,119,0,,,,,,,,,,,,,1070.3091882813023,None,,,,,,,,,,,,,,,,,,,,,,marriage,A_silent,119,179,1064.8260459040757,None,1064.8260459040757,None,1064.8260459040757,None,6,4.7099996890174225,1064.8260459040757,None,1069.5925125955837,None,1069.5925125955837,None,1070.109542514081,None,1070.109542514081,None,1070.109542514081,None,f,0.1619496796047315,1070.109542514081,None,sing25,001,2019_Nov_07_1411,ProdFawcett_Revision2019,3.2.4,60.00179140589014,
,,,,120,0,120,0,,,,,,,,,,,,,1075.9609970764723,None,,,,,,,,,,,,,,,,,,,,,,pressure,C_sing,120,232,1070.828334888327,None,1070.828334888327,None,1070.828334888327,None,6,4.387126640533097,1070.828334888327,None,1075.2664421222871,None,1075.2664421222871,None,1075.79435186903,None,1075.79435186903,None,1075.79435186903,None,r,0.13336847664322704,1075.79435186903,None,sing25,001,2019_Nov_07_1411,ProdFawcett_Revision2019,3.2.4,60.00179140589014,
,,,,121,0,121,0,,,,,,,,,,,,,1081.8294174907496,None,,,,,,,,,,,,,,,,,,,,,,medicine,D_new,121,186,1076.4792486160295,None,1076.4792486160295,None,1076.4792486160295,None,4,4.407995894784108,1076.4792486160295,None,1080.918825029512,None,1080.918825029512,None,1081.4464956148295,None,1081.4464956148295,None,1081.4464956148295,None,f,0.3363298501353711,1081.4464956148295,None,sing25,001,2019_Nov_07_1411,ProdFawcett_Revision2019,3.2.4,60.00179140589014,
,,,,122,0,122,0,,,,,,,,,,,,,1084.63038533309,None,,,,,,,,,,,,,,,,,,,,,,order,C_sing,122,207,1082.3472550848965,None,1082.3472550848965,None,1082.3472550848965,None,6,1.483515270287171,1082.3472550848965,None,1083.8709793493617,None,1083.8709793493617,None,1084.397007215186,None,1084.397007215186,None,1084.397007215186,None,r,0.1856820301618427,1084.397007215186,None,sing25,001,2019_Nov_07_1411,ProdFawcett_Revision2019,3.2.4,60.00179140589014,
,,,,123,0,123,0,,,,,,,,,,,,,1088.2316896808334,None,,,,,,,,,,,,,,,,,,,,,,beauty,D_new,123,18,1085.149141941918,None,1085.149141941918,None,1085.149141941918,None,4,2.2333718977170065,1085.149141941918,None,1087.4478441250976,None,1087.4478441250976,None,1087.9648286371958,None,1087.9648286371958,None,1087.9648286371958,None,f,0.22595073701813817,1087.9648286371958,None,sing25,001,2019_Nov_07_1411,ProdFawcett_Revision2019,3.2.4,60.00179140589014,
,,,,124,0,124,0,,,,,,,,,,,,,1091.4492116066394,None,,,,,,,,,,,,,,,,,,,,,,symbol,D_new,124,321,1088.7502326304093,None,1088.7502326304093,None,1088.7502326304093,None,2,1.3926080736564472,1088.7502326304093,None,1090.198733283556,None,1090.198733283556,None,1090.7156754991738,None,1090.7156754991738,None,1090.7156754991738,None,n,0.6912772905780002,1090.7156754991738,None,sing25,001,2019_Nov_07_1411,ProdFawcett_Revision2019,3.2.4,60.00179140589014,
,,,,125,0,125,0,,,,,,,,,,,,,1097.1342386639444,None,,,,,,,,,,,,,,,,,,,,,,taste,D_new,125,322,1091.9677256328287,None,1091.9677256328287,None,1091.9677256328287,None,6,4.39869534119498,1091.9677256328287,None,1096.4173465198837,None,1096.4173465198837,None,1096.9341960564489,None,1096.9341960564489,None,1096.9341960564489,None,r,0.15182310121599585,1096.9341960564489,None,sing25,001,2019_Nov_07_1411,ProdFawcett_Revision2019,3.2.4,60.00179140589014,
,,,,126,0,126,0,,,,,,,,,,,,,1101.3024647011189,None,,,,,,,,,,,,,,,,,,,,,,heavy,D_new,126,151,1097.6522137214197,None,1097.6522137214197,None,1097.6522137214197,None,3,2.2336281643947586,1097.6522137214197,None,1099.9231846737675,None,1099.9231846737675,None,1100.4518392734462,None,1100.4518392734462,None,1100.4518392734462,None,f,0.8019487466663122,1100.4518392734462,None,sing25,001,2019_Nov_07_1411,ProdFawcett_Revision2019,3.2.4,60.00179140589014,
,,,,127,0,127,0,,,,,,,,,,,,,1104.7365932698594,None,,,,,,,,,,,,,,,,,,,,,,bureau,D_new,127,37,1101.821203893749,None,1101.821203893749,None,1101.821203893749,None,1,2.032395658432506,1101.821203893749,None,1103.9031694345176,None,1103.9031694345176,None,1104.4197403121507,None,1104.4197403121507,None,1104.4197403121507,None,n,0.2746967717539519,1104.4197403121507,None,sing25,001,2019_Nov_07_1411,ProdFawcett_Revision2019,3.2.4,60.00179140589014,
,,,,128,0,128,0,,,,,,,,,,,,,1108.1710452820407,None,,,,,,,,,,,,,,,,,,,,,,benefit,D_new,128,20,1105.255143061513,None,1105.255143061513,None,1105.255143061513,None,1,2.0388925172155723,1105.255143061513,None,1107.353954095859,None,1107.353954095859,None,1107.874070722144,None,1107.874070722144,None,1107.874070722144,None,n,0.25123561604414135,1107.874070722144,None,sing25,001,2019_Nov_07_1411,ProdFawcett_Revision2019,3.2.4,60.00179140589014,
,,,,129,0,129,0,,,,,,,,,,,,,1111.422017478384,None,,,,,,,,,,,,,,,,,,,,,,finish,D_new,129,130,1108.6881128319073,None,1108.6881128319073,None,1108.6881128319073,None,3,1.8210524352034554,1108.6881128319073,None,1110.571637121262,None,1110.571637121262,None,1111.0885827579768,None,1111.0885827579768,None,1111.0885827579768,None,f,0.29305809538345784,1111.0885827579768,None,sing25,001,2019_Nov_07_1411,ProdFawcett_Revision2019,3.2.4,60.00179140589014,
,,,,130,0,130,0,,,,,,,,,,,,,1115.4066019778838,None,,,,,,,,,,,,,,,,,,,,,,committee,D_new,130,62,1111.9402040181449,None,1111.9402040181449,None,1111.9402040181449,None,6,2.473666106816381,1111.9402040181449,None,1114.4729380480712,None,1114.4729380480712,None,1114.9901831808966,None,1114.9901831808966,None,1114.9901831808966,None,f,0.38314579834695905,1114.9901831808966,None,sing25,001,2019_Nov_07_1411,ProdFawcett_Revision2019,3.2.4,60.00179140589014,
,,,,131,0,131,0,,,,,,,,,,,,,1119.9578596752835,None,,,,,,,,,,,,,,,,,,,,,,working,C_sing,131,357,1115.9248724885983,None,1115.9248724885983,None,1115.9248724885983,None,4,3.135813584551215,1115.9248724885983,None,1119.1243478260003,None,1119.1243478260003,None,1119.64118927659,None,1119.64118927659,None,1119.64118927659,None,f,0.2762608074117452,1119.64118927659,None,sing25,001,2019_Nov_07_1411,ProdFawcett_Revision2019,3.2.4,60.00179140589014,
,,,,132,0,132,0,,,,,,,,,,,,,1123.4757417428773,None,,,,,,,,,,,,,,,,,,,,,,century,D_new,132,45,1120.476310567814,None,1120.476310567814,None,1120.476310567814,None,2,1.7123605150263757,1120.476310567814,None,1122.2419667848153,None,1122.2419667848153,None,1122.7589074453572,None,1122.7589074453572,None,1122.7589074453572,None,n,0.6777934316778556,1122.7589074453572,None,sing25,001,2019_Nov_07_1411,ProdFawcett_Revision2019,3.2.4,60.00179140589014,
,,,,133,0,133,0,,,,,,,,,,,,,1127.477029296453,None,,,,,,,,,,,,,,,,,,,,,,guide,D_new,133,147,1123.9933656776557,None,1123.9933656776557,None,1123.9933656776557,None,5,2.5949402874102816,1123.9933656776557,None,1126.6432602475397,None,1126.6432602475397,None,1127.1602540896274,None,1127.1602540896274,None,1127.1602540896274,None,f,0.28392112953588367,1127.1602540896274,None,sing25,001,2019_Nov_07_1411,ProdFawcett_Revision2019,3.2.4,60.00179140589014,
,,,,134,0,134,0,,,,,,,,,,,,,1131.9450083971024,None,,,,,,,,,,,,,,,,,,,,,,trash,C_sing,134,337,1127.994160602102,None,1127.994160602102,None,1127.994160602102,None,6,3.0428316850448027,1127.994160602102,None,1131.0855769111076,None,1131.0855769111076,None,1131.6115687006386,None,1131.6115687006386,None,1131.6115687006386,None,f,0.28839895501732826,1131.6115687006386,None,sing25,001,2019_Nov_07_1411,ProdFawcett_Revision2019,3.2.4,60.00179140589014,
,,,,135,0,135,0,,,,,,,,,,,,,1135.5294762704289,None,,,,,,,,,,,,,,,,,,,,,,place,A_silent,135,222,1132.4621698699193,None,1132.4621698699193,None,1132.4621698699193,None,3,2.1016862598480657,1132.4621698699193,None,1134.6291531380266,None,1134.6291531380266,None,1135.1460166696925,None,1135.1460166696925,None,1135.1460166696925,None,f,0.34577222110237926,1135.1460166696925,None,sing25,001,2019_Nov_07_1411,ProdFawcett_Revision2019,3.2.4,60.00179140589014,
,,,,136,0,136,0,,,,,,,,,,,,,1140.2475558250444,None,,,,,,,,,,,,,,,,,,,,,,budget,D_new,136,34,1136.0482366112992,None,1136.0482366112992,None,1136.0482366112992,None,4,3.3954170554643497,1136.0482366112992,None,1139.4878991727019,None,1139.4878991727019,None,1140.0141671331367,None,1140.0141671331367,None,1140.0141671331367,None,f,0.19014617160428315,1140.0141671331367,None,sing25,001,2019_Nov_07_1411,ProdFawcett_Revision2019,3.2.4,60.00179140589014,
,,,,137,0,137,0,,,,,,,,,,,,,1145.3660399949877,None,,,,,,,,,,,,,,,,,,,,,,guest,D_new,137,146,1140.7645546431886,None,1140.7645546431886,None,1140.7645546431886,None,5,3.8386499346233904,1140.7645546431886,None,1144.6656891832827,None,1144.6656891832827,None,1145.1823384336894,None,1145.1823384336894,None,1145.1823384336894,None,f,0.14155470544937998,1145.1823384336894,None,sing25,001,2019_Nov_07_1411,ProdFawcett_Revision2019,3.2.4,60.00179140589014,
,,,,138,0,138,0,,,,,,,,,,,,,1148.150051315548,None,,,,,,,,,,,,,,,,,,,,,,route,C_sing,138,267,1145.8841994774994,None,1145.8841994774994,None,1145.8841994774994,None,6,1.4469447035808116,1145.8841994774994,None,1147.3740119425347,None,1147.3740119425347,None,1147.9000248801894,None,1147.9000248801894,None,1147.9000248801894,None,r,0.2079131678910926,1147.9000248801894,None,sing25,001,2019_Nov_07_1411,ProdFawcett_Revision2019,3.2.4,60.00179140589014,
,,,,139,0,139,0,,,,,,,,,,,,,1152.751493748743,None,,,,,,,,,,,,,,,,,,,,,,count,D_new,139,72,1148.6672581948806,None,1148.6672581948806,None,1148.6672581948806,None,6,3.2159208807861432,1148.6672581948806,None,1151.934522609925,None,1151.934522609925,None,1152.4513945387444,None,1152.4513945387444,None,1152.4513945387444,None,f,0.25604155007749796,1152.4513945387444,None,sing25,001,2019_Nov_07_1411,ProdFawcett_Revision2019,3.2.4,60.00179140589014,
,,,,140,0,140,0,,,,,,,,,,,,,1157.9530515642837,None,,,,,,,,,,,,,,,,,,,,,,hunger,A_silent,140,155,1153.2700562915998,None,1153.2700562915998,None,1153.2700562915998,None,6,3.812528145732358,1153.2700562915998,None,1157.1267033650074,None,1157.1267033650074,None,1157.6529990046984,None,1157.6529990046984,None,1157.6529990046984,None,f,0.25340393104124814,1157.6529990046984,None,sing25,001,2019_Nov_07_1411,ProdFawcett_Revision2019,3.2.4,60.00179140589014,
,,,,141,0,141,0,,,,,,,,,,,,,1161.7209373639198,None,,,,,,,,,,,,,,,,,,,,,,strain,C_sing,141,308,1158.4720619517611,None,1158.4720619517611,None,1158.4720619517611,None,4,2.442678360384889,1158.4720619517611,None,1160.9706213845639,None,1160.9706213845639,None,1161.4876276667928,None,1161.4876276667928,None,1161.4876276667928,None,f,0.1866078870370984,1161.4876276667928,None,sing25,001,2019_Nov_07_1411,ProdFawcett_Revision2019,3.2.4,60.00179140589014,
,,,,142,0,142,0,,,,,,,,,,,,,1166.205597437336,None,,,,,,,,,,,,,,,,,,,,,,still,D_new,142,304,1162.2382098649396,None,1162.2382098649396,None,1162.2382098649396,None,3,2.979870933573693,1162.2382098649396,None,1165.2611609752057,None,1165.2611609752057,None,1165.7887432356365,None,1165.7887432356365,None,1165.7887432356365,None,f,0.3814673136221245,1165.7887432356365,None,sing25,001,2019_Nov_07_1411,ProdFawcett_Revision2019,3.2.4,60.00179140589014,
,,,,143,0,143,0,,,,,,,,,,,,,1171.9242047645384,None,,,,,,,,,,,,,,,,,,,,,,strength,D_new,143,310,1166.7230761335231,None,1166.7230761335231,None,1166.7230761335231,None,3,4.430779374320991,1166.7230761335231,None,1171.1969527896727,None,1171.1969527896727,None,1171.7242237357423,None,1171.7242237357423,None,1171.7242237357423,None,f,0.16583722084760666,1171.7242237357423,None,sing25,001,2019_Nov_07_1411,ProdFawcett_Revision2019,3.2.4,60.00179140589014,
,,,,144,0,144,0,,,,,,,,,,,,,1174.5582857497502,None,,,,,,,,,,,,,,,,,,,,,,general,A_silent,144,135,1172.443102879799,None,1172.443102879799,None,1172.443102879799,None,6,1.3504257635213435,1172.443102879799,None,1173.8580372581491,None,1173.8580372581491,None,1174.374784785672,None,1174.374784785672,None,1174.374784785672,None,r,0.1394041177118197,1174.374784785672,None,sing25,001,2019_Nov_07_1411,ProdFawcett_Revision2019,3.2.4,60.00179140589014,
,,,,145,0,145,0,,,,,,,,,,,,,1177.7257712881546,None,,,,,,,,,,,,,,,,,,,,,,character,B_aloud,145,46,1175.0781041238224,None,1175.0781041238224,None,1175.0781041238224,None,5,1.8195804565912113,1175.0781041238224,None,1176.9588878521463,None,1176.9588878521463,None,1177.4762527212733,None,1177.4762527212733,None,1177.4762527212733,None,f,0.20537475892342627,1177.4762527212733,None,sing25,001,2019_Nov_07_1411,ProdFawcett_Revision2019,3.2.4,60.00179140589014,
,,,,146,0,146,0,,,,,,,,,,,,,1181.0102699508425,None,,,,,,,,,,,,,,,,,,,,,,capital,D_new,146,40,1178.2430559183704,None,1178.2430559183704,None,1178.2430559183704,None,6,2.0622214964823797,1178.2430559183704,None,1180.3499869378284,None,1180.3499869378284,None,1180.8767403743695,None,1180.8767403743695,None,1180.8767403743695,None,f,0.10067518812138587,1180.8767403743695,None,sing25,001,2019_Nov_07_1411,ProdFawcett_Revision2019,3.2.4,60.00179140589014,
,,,,147,0,147,0,,,,,,,,,,,,,1185.828247807338,None,,,,,,,,,,,,,,,,,,,,,,tennis,B_aloud,147,323,1181.529206630541,None,1181.529206630541,None,1181.529206630541,None,1,3.392151831765659,1181.529206630541,None,1184.9667497045593,None,1184.9667497045593,None,1185.4948127759853,None,1185.4948127759853,None,1185.4948127759853,None,n,0.2909345648949966,1185.4948127759853,None,sing25,001,2019_Nov_07_1411,ProdFawcett_Revision2019,3.2.4,60.00179140589014,
,,,,148,0,148,0,,,,,,,,,,,,,1188.8125262797112,None,,,,,,,,,,,,,,,,,,,,,,enemy,C_sing,148,113,1186.3459009765647,None,1186.3459009765647,None,1186.3459009765647,None,6,1.6310157367261127,1186.3459009765647,None,1188.0289432107238,None,1188.0289432107238,None,1188.5458701872267,None,1188.5458701872267,None,1188.5458701872267,None,r,0.23093798593617976,1188.5458701872267,None,sing25,001,2019_Nov_07_1411,ProdFawcett_Revision2019,3.2.4,60.00179140589014,
,,,,149,0,149,0,,,,,,,,,,,,,1192.7637304845266,None,,,,,,,,,,,,,,,,,,,,,,region,B_aloud,149,256,1189.3314374572365,None,1189.3314374572365,None,1189.3314374572365,None,6,1.7974127635825425,1189.3314374572365,None,1191.179973253631,None,1191.179973253631,None,1191.6969941530842,None,1191.6969941530842,None,1191.6969941530842,None,r,1.03166480071377,1191.6969941530842,None,sing25,001,2019_Nov_07_1411,ProdFawcett_Revision2019,3.2.4,60.00179140589014,
,,,,150,0,150,0,,,,,,,,,,,,,1197.015149281593,None,,,,,,,,,,,,,,,,,,,,,,waste,D_new,150,350,1193.2810598991346,None,1193.2810598991346,None,1193.2810598991346,None,3,2.9276662312913686,1193.2810598991346,None,1196.2649698326131,None,1196.2649698326131,None,1196.781641786336,None,1196.781641786336,None,1196.781641786336,None,f,0.19493282330222428,1196.781641786336,None,sing25,001,2019_Nov_07_1411,ProdFawcett_Revision2019,3.2.4,60.00179140589014,
,,,,151,0,151,0,,,,,,,,,,,,,1200.8497561733238,None,,,,,,,,,,,,,,,,,,,,,,state,D_new,151,303,1197.532193506253,None,1197.532193506253,None,1197.532193506253,None,4,2.540649063885212,1197.532193506253,None,1200.1328226658516,None,1200.1328226658516,None,1200.6495163898217,None,1200.6495163898217,None,1200.6495163898217,None,f,0.1593792374478653,1200.6495163898217,None,sing25,001,2019_Nov_07_1411,ProdFawcett_Revision2019,3.2.4,60.00179140589014,
,,,,152,0,152,0,,,,,,,,,,,,,1206.4013901846483,None,,,,,,,,,,,,,,,,,,,,,,volume,D_new,152,349,1201.3667944889748,None,1201.3667944889748,None,1201.3667944889748,None,1,4.32087796239648,1201.3667944889748,None,1205.7516010449035,None,1205.7516010449035,None,1206.268198357895,None,1206.268198357895,None,1206.268198357895,None,n,0.09995459346100688,1206.268198357895,None,sing25,001,2019_Nov_07_1411,ProdFawcett_Revision2019,3.2.4,60.00179140589014,
,,,,153,0,153,0,,,,,,,,,,,,,1209.5022787210764,None,,,,,,,,,,,,,,,,,,,,,,machinery,B_aloud,153,175,1206.9197294270853,None,1206.9197294270853,None,1206.9197294270853,None,3,1.7838318715803325,1206.9197294270853,None,1208.757652547094,None,1208.757652547094,None,1209.286105305655,None,1209.286105305655,None,1209.286105305655,None,f,0.16934378305450082,1209.286105305655,None,sing25,001,2019_Nov_07_1411,ProdFawcett_Revision2019,3.2.4,60.00179140589014,
,,,,154,0,154,0,,,,,,,,,,,,,1212.853330223239,None,,,,,,,,,,,,,,,,,,,,,,comfort,B_aloud,154,59,1210.021025066846,None,1210.021025066846,None,1210.021025066846,None,5,1.9464442993048579,1210.021025066846,None,1212.0197679915,None,1212.0197679915,None,1212.53676556563,None,1212.53676556563,None,1212.53676556563,None,f,0.27046681591309607,1212.53676556563,None,sing25,001,2019_Nov_07_1411,ProdFawcett_Revision2019,3.2.4,60.00179140589014,
