StudyTrials.thisRepN,StudyTrials.thisTrialN,StudyTrials.thisN,StudyTrials.thisIndex,TestTrials.thisRepN,TestTrials.thisTrialN,TestTrials.thisN,TestTrials.thisIndex,textWelcome.started,textWelcome.stopped,keyWelcome.keys,keyWelcome.rt,keyWelcome.started,keyWelcome.stopped,textReady.started,textReady.stopped,keyReady.keys,keyReady.rt,keyReady.started,keyReady.stopped,polyback_2.started,polyback_2.stopped,studyPic,studyWord,studyType,studyN,studyOrder,polyback_3.started,polyback_3.stopped,studyPicChoice.started,studyPicChoice.stopped,polyback_4.started,polyback_4.stopped,polyback.started,polyback.stopped,studyWords.started,studyWords.stopped,getResearcher.started,getResearcher.stopped,kPress2.keys,kPress2.rt,kPress2.started,kPress2.stopped,testWord,testType,testN,testOrder,polyback_5.started,polyback_5.stopped,testWords.started,testWords.stopped,textScale.started,textScale.stopped,keyConf.keys,keyConf.rt,keyConf.started,keyConf.stopped,polyback_6.started,polyback_6.stopped,studyWords_2.started,studyWords_2.stopped,polyback_7.started,polyback_7.stopped,testWords_2.started,testWords_2.stopped,textScale_2.started,textScale_2.stopped,keyRKN.keys,keyRKN.rt,keyRKN.started,keyRKN.stopped,participant,session,date,expName,psychopyVersion,frameRate,
,,,,,,,,10.280733078703634,None,space,549.9695251341182,10.280733078703634,None,,,,,,,,,,,,,,,,,,,,,,,,,,,,,,,,,,,,,,,,,,,,,,,,,,,,,,,,,,sing32,001,2019_Nov_12_1016,ProdFawcett_Revision2019,3.2.4,59.9205189664144,
,,,,,,,,,,,,,,560.2720721807855,None,space,20.105618605128257,560.2720721807855,None,,,,,,,,,,,,,,,,,,,,,,,,,,,,,,,,,,,,,,,,,,,,,,,,,,,,sing32,001,2019_Nov_12_1016,ProdFawcett_Revision2019,3.2.4,59.9205189664144,
0,0,0,0,,,,,,,,,,,,,,,,,585.1800156187237,None,materials/readPic.jpg,patient,A_silent,0,213,581.5505924510799,None,581.5505924510799,None,582.4303015110927,None,582.6957707213296,None,582.6957707213296,None,,,,,,,,,,,,,,,,,,,,,,,,,,,,,,,,,,,sing32,001,2019_Nov_12_1016,ProdFawcett_Revision2019,3.2.4,59.9205189664144,
1,0,1,0,,,,,,,,,,,,,,,,,589.4480518733326,None,materials/singPic.jpg,crowd,C_sing,1,81,585.7861410082987,None,585.7861410082987,None,586.6972955842502,None,586.9637901816022,None,586.9637901816022,None,,,,,,,,,,,,,,,,,,,,,,,,,,,,,,,,,,,sing32,001,2019_Nov_12_1016,ProdFawcett_Revision2019,3.2.4,59.9205189664144,
2,0,2,0,,,,,,,,,,,,,,,,,593.7160554722941,None,materials/speakPic.jpg,skill,B_aloud,2,289,590.036173741697,None,590.036173741697,None,590.9653169105586,None,591.2318379434291,None,591.2318379434291,None,,,,,,,,,,,,,,,,,,,,,,,,,,,,,,,,,,,sing32,001,2019_Nov_12_1016,ProdFawcett_Revision2019,3.2.4,59.9205189664144,
3,0,3,0,,,,,,,,,,,,,,,,,597.9840954589745,None,materials/speakPic.jpg,shock,B_aloud,3,284,594.2992255015124,None,594.2992255015124,None,595.2334001270792,None,595.4998689109343,None,595.4998689109343,None,,,,,,,,,,,,,,,,,,,,,,,,,,,,,,,,,,,sing32,001,2019_Nov_12_1016,ProdFawcett_Revision2019,3.2.4,59.9205189664144,
4,0,4,0,,,,,,,,,,,,,,,,,602.2521261154616,None,materials/speakPic.jpg,leader,B_aloud,4,168,598.5560807757574,None,598.5560807757574,None,599.5011244425696,None,599.7678952133429,None,599.7678952133429,None,,,,,,,,,,,,,,,,,,,,,,,,,,,,,,,,,,,sing32,001,2019_Nov_12_1016,ProdFawcett_Revision2019,3.2.4,59.9205189664144,
5,0,5,0,,,,,,,,,,,,,,,,,606.5203909595584,None,materials/speakPic.jpg,store,B_aloud,5,305,602.8186884188472,None,602.8186884188472,None,603.7694070139987,None,604.0359308459301,None,604.0359308459301,None,,,,,,,,,,,,,,,,,,,,,,,,,,,,,,,,,,,sing32,001,2019_Nov_12_1016,ProdFawcett_Revision2019,3.2.4,59.9205189664144,
6,0,6,0,,,,,,,,,,,,,,,,,610.7881746772036,None,materials/speakPic.jpg,incident,B_aloud,6,158,607.0902996885852,None,607.0902996885852,None,608.0376174320118,None,608.3039692775783,None,608.3039692775783,None,,,,,,,,,,,,,,,,,,,,,,,,,,,,,,,,,,,sing32,001,2019_Nov_12_1016,ProdFawcett_Revision2019,3.2.4,59.9205189664144,
7,0,7,0,,,,,,,,,,,,,,,,,615.056195381505,None,materials/readPic.jpg,agency,A_silent,7,4,611.4239013165206,None,611.4239013165206,None,612.3061861290626,None,612.5719980680296,None,612.5719980680296,None,,,,,,,,,,,,,,,,,,,,,,,,,,,,,,,,,,,sing32,001,2019_Nov_12_1016,ProdFawcett_Revision2019,3.2.4,59.9205189664144,
8,0,8,0,,,,,,,,,,,,,,,,,619.3242649137537,None,materials/readPic.jpg,present,A_silent,8,231,615.6302146781818,None,615.6302146781818,None,616.5735425243329,None,616.8400231264095,None,616.8400231264095,None,,,,,,,,,,,,,,,,,,,,,,,,,,,,,,,,,,,sing32,001,2019_Nov_12_1016,ProdFawcett_Revision2019,3.2.4,59.9205189664144,
9,0,9,0,,,,,,,,,,,,,,,,,623.5922274599143,None,materials/singPic.jpg,symbol,C_sing,9,321,619.9323070339306,None,619.9323070339306,None,620.8416248078429,None,621.1080584480078,None,621.1080584480078,None,,,,,,,,,,,,,,,,,,,,,,,,,,,,,,,,,,,sing32,001,2019_Nov_12_1016,ProdFawcett_Revision2019,3.2.4,59.9205189664144,
10,0,10,0,,,,,,,,,,,,,,,,,627.8602817528736,None,materials/speakPic.jpg,alert,B_aloud,10,6,624.194030175684,None,624.194030175684,None,625.1096097464324,None,625.3760797743162,None,625.3760797743162,None,,,,,,,,,,,,,,,,,,,,,,,,,,,,,,,,,,,sing32,001,2019_Nov_12_1016,ProdFawcett_Revision2019,3.2.4,59.9205189664144,
11,0,11,0,,,,,,,,,,,,,,,,,632.1282897059136,None,materials/singPic.jpg,tennis,C_sing,11,323,628.4684423663712,None,628.4684423663712,None,629.3776018381759,None,629.6441244260786,None,629.6441244260786,None,,,,,,,,,,,,,,,,,,,,,,,,,,,,,,,,,,,sing32,001,2019_Nov_12_1016,ProdFawcett_Revision2019,3.2.4,59.9205189664144,
12,0,12,0,,,,,,,,,,,,,,,,,636.3963486639695,None,materials/speakPic.jpg,pretty,B_aloud,12,233,632.713340389033,None,632.713340389033,None,633.645643379874,None,633.9121358002012,None,633.9121358002012,None,,,,,,,,,,,,,,,,,,,,,,,,,,,,,,,,,,,sing32,001,2019_Nov_12_1016,ProdFawcett_Revision2019,3.2.4,59.9205189664144,
13,0,13,0,,,,,,,,,,,,,,,,,640.6643563060061,None,materials/singPic.jpg,scale,C_sing,13,272,636.9809337709448,None,636.9809337709448,None,637.9136765244184,None,638.1801611695846,None,638.1801611695846,None,,,,,,,,,,,,,,,,,,,,,,,,,,,,,,,,,,,sing32,001,2019_Nov_12_1016,ProdFawcett_Revision2019,3.2.4,59.9205189664144,
14,0,14,0,,,,,,,,,,,,,,,,,644.9323981587222,None,materials/singPic.jpg,engineer,C_sing,14,114,641.2556793601689,None,641.2556793601689,None,642.1817665830749,None,642.4481719216856,None,642.4481719216856,None,,,,,,,,,,,,,,,,,,,,,,,,,,,,,,,,,,,sing32,001,2019_Nov_12_1016,ProdFawcett_Revision2019,3.2.4,59.9205189664144,
15,0,15,0,,,,,,,,,,,,,,,,,649.200403934723,None,materials/speakPic.jpg,people,B_aloud,15,216,645.5244066703308,None,645.5244066703308,None,646.449759607829,None,646.7162112863443,None,646.7162112863443,None,,,,,,,,,,,,,,,,,,,,,,,,,,,,,,,,,,,sing32,001,2019_Nov_12_1016,ProdFawcett_Revision2019,3.2.4,59.9205189664144,
16,0,16,0,,,,,,,,,,,,,,,,,653.4685387782665,None,materials/singPic.jpg,permit,C_sing,16,218,649.8016244470782,None,649.8016244470782,None,650.7182617495855,None,650.9842347897065,None,650.9842347897065,None,,,,,,,,,,,,,,,,,,,,,,,,,,,,,,,,,,,sing32,001,2019_Nov_12_1016,ProdFawcett_Revision2019,3.2.4,59.9205189664144,
17,0,17,0,,,,,,,,,,,,,,,,,657.7364478313684,None,materials/readPic.jpg,threat,A_silent,17,329,654.0755138365057,None,654.0755138365057,None,654.9858538874687,None,655.2522887716623,None,655.2522887716623,None,,,,,,,,,,,,,,,,,,,,,,,,,,,,,,,,,,,sing32,001,2019_Nov_12_1016,ProdFawcett_Revision2019,3.2.4,59.9205189664144,
18,0,18,0,,,,,,,,,,,,,,,,,662.004673177682,None,materials/readPic.jpg,guide,A_silent,18,147,658.3196545593091,None,658.3196545593091,None,659.2538204767043,None,659.5063425029366,None,659.5063425029366,None,,,,,,,,,,,,,,,,,,,,,,,,,,,,,,,,,,,sing32,001,2019_Nov_12_1016,ProdFawcett_Revision2019,3.2.4,59.9205189664144,
19,0,19,0,,,,,,,,,,,,,,,,,666.2725296707649,None,materials/speakPic.jpg,bicycle,B_aloud,19,21,662.5950078544556,None,662.5950078544556,None,663.5219164444861,None,663.7883373333898,None,663.7883373333898,None,,,,,,,,,,,,,,,,,,,,,,,,,,,,,,,,,,,sing32,001,2019_Nov_12_1016,ProdFawcett_Revision2019,3.2.4,59.9205189664144,
20,0,20,0,,,,,,,,,,,,,,,,,670.5405460209731,None,materials/readPic.jpg,oxygen,A_silent,20,209,666.8620781241189,None,666.8620781241189,None,667.7898948519432,None,668.0563630137913,None,668.0563630137913,None,,,,,,,,,,,,,,,,,,,,,,,,,,,,,,,,,,,sing32,001,2019_Nov_12_1016,ProdFawcett_Revision2019,3.2.4,59.9205189664144,
21,0,21,0,,,,,,,,,,,,,,,,,674.8085726343852,None,materials/readPic.jpg,break,A_silent,21,26,671.126667498087,None,671.126667498087,None,672.0586467315879,None,672.3244011344214,None,672.3244011344214,None,,,,,,,,,,,,,,,,,,,,,,,,,,,,,,,,,,,sing32,001,2019_Nov_12_1016,ProdFawcett_Revision2019,3.2.4,59.9205189664144,
22,0,22,0,,,,,,,,,,,,,,,,,679.0765843195113,None,materials/readPic.jpg,express,A_silent,22,124,675.3917507497536,None,675.3917507497536,None,676.3258712602692,None,676.5924153076048,None,676.5924153076048,None,,,,,,,,,,,,,,,,,,,,,,,,,,,,,,,,,,,sing32,001,2019_Nov_12_1016,ProdFawcett_Revision2019,3.2.4,59.9205189664144,
23,0,23,0,,,,,,,,,,,,,,,,,683.3446168420342,None,materials/readPic.jpg,health,A_silent,23,149,679.6481373378047,None,679.6481373378047,None,680.5939544767898,None,680.8604229496414,None,680.8604229496414,None,,,,,,,,,,,,,,,,,,,,,,,,,,,,,,,,,,,sing32,001,2019_Nov_12_1016,ProdFawcett_Revision2019,3.2.4,59.9205189664144,
24,0,24,0,,,,,,,,,,,,,,,,,687.6126586947503,None,materials/speakPic.jpg,personnel,B_aloud,24,219,683.9293879306642,None,683.9293879306642,None,684.8620184109459,None,685.1284616922931,None,685.1284616922931,None,,,,,,,,,,,,,,,,,,,,,,,,,,,,,,,,,,,sing32,001,2019_Nov_12_1016,ProdFawcett_Revision2019,3.2.4,59.9205189664144,
25,0,25,0,,,,,,,,,,,,,,,,,691.8806853081624,None,materials/speakPic.jpg,harmony,B_aloud,25,148,688.1856501162692,None,688.1856501162692,None,689.1300319620932,None,689.3964957698481,None,689.3964957698481,None,,,,,,,,,,,,,,,,,,,,,,,,,,,,,,,,,,,sing32,001,2019_Nov_12_1016,ProdFawcett_Revision2019,3.2.4,59.9205189664144,
26,0,26,0,,,,,,,,,,,,,,,,,696.1489302478585,None,materials/readPic.jpg,suspect,A_silent,26,318,692.4818952463102,None,692.4818952463102,None,693.3980498673482,None,693.6645550389076,None,693.6645550389076,None,,,,,,,,,,,,,,,,,,,,,,,,,,,,,,,,,,,sing32,001,2019_Nov_12_1016,ProdFawcett_Revision2019,3.2.4,59.9205189664144,
27,0,27,0,,,,,,,,,,,,,,,,,700.4167715016374,None,materials/singPic.jpg,universal,C_sing,27,345,696.750126812738,None,696.750126812738,None,697.6660767917638,None,697.9325381114613,None,697.9325381114613,None,,,,,,,,,,,,,,,,,,,,,,,,,,,,,,,,,,,sing32,001,2019_Nov_12_1016,ProdFawcett_Revision2019,3.2.4,59.9205189664144,
28,0,28,0,,,,,,,,,,,,,,,,,704.6847934499674,None,materials/speakPic.jpg,speech,B_aloud,28,298,701.0186650311953,None,701.0186650311953,None,701.9341149124084,None,702.2006393663469,None,702.2006393663469,None,,,,,,,,,,,,,,,,,,,,,,,,,,,,,,,,,,,sing32,001,2019_Nov_12_1016,ProdFawcett_Revision2019,3.2.4,59.9205189664144,
29,0,29,0,,,,,,,,,,,,,,,,,708.9527979819395,None,materials/readPic.jpg,watch,A_silent,29,351,705.2860876707564,None,705.2860876707564,None,706.2025968387461,None,706.4685900942713,None,706.4685900942713,None,,,,,,,,,,,,,,,,,,,,,,,,,,,,,,,,,,,sing32,001,2019_Nov_12_1016,ProdFawcett_Revision2019,3.2.4,59.9205189664144,
30,0,30,0,,,,,,,,,,,,,,,,,713.2208326815162,None,materials/singPic.jpg,company,C_sing,30,64,709.5580111906165,None,709.5580111906165,None,710.4701280194422,None,710.7366079995118,None,710.7366079995118,None,,,,,,,,,,,,,,,,,,,,,,,,,,,,,,,,,,,sing32,001,2019_Nov_12_1016,ProdFawcett_Revision2019,3.2.4,59.9205189664144,
31,0,31,0,,,,,,,,,,,,,,,,,717.4891071667953,None,materials/readPic.jpg,frank,A_silent,31,133,713.8225458275265,None,713.8225458275265,None,714.7383042267902,None,715.0046507852385,None,715.0046507852385,None,,,,,,,,,,,,,,,,,,,,,,,,,,,,,,,,,,,sing32,001,2019_Nov_12_1016,ProdFawcett_Revision2019,3.2.4,59.9205189664144,
32,0,32,0,,,,,,,,,,,,,,,,,721.7571558616473,None,materials/speakPic.jpg,sweet,B_aloud,32,319,718.0902486835839,None,718.0902486835839,None,719.00611811204,None,719.272673044572,None,719.272673044572,None,,,,,,,,,,,,,,,,,,,,,,,,,,,,,,,,,,,sing32,001,2019_Nov_12_1016,ProdFawcett_Revision2019,3.2.4,59.9205189664144,
33,0,33,0,,,,,,,,,,,,,,,,,726.0249221629492,None,materials/speakPic.jpg,travel,B_aloud,33,338,722.3299992442626,None,722.3299992442626,None,723.2742293191113,None,723.5409120751574,None,723.5409120751574,None,,,,,,,,,,,,,,,,,,,,,,,,,,,,,,,,,,,sing32,001,2019_Nov_12_1016,ProdFawcett_Revision2019,3.2.4,59.9205189664144,
34,0,34,0,,,,,,,,,,,,,,,,,730.2929294939822,None,materials/singPic.jpg,direction,C_sing,34,94,726.6298551551299,None,726.6298551551299,None,727.5423909091623,None,727.8088830184715,None,727.8088830184715,None,,,,,,,,,,,,,,,,,,,,,,,,,,,,,,,,,,,sing32,001,2019_Nov_12_1016,ProdFawcett_Revision2019,3.2.4,59.9205189664144,
35,0,35,0,,,,,,,,,,,,,,,,,734.5609691696591,None,materials/readPic.jpg,collection,A_silent,35,54,730.894619625542,None,730.894619625542,None,731.810260153492,None,732.0768325023819,None,732.0768325023819,None,,,,,,,,,,,,,,,,,,,,,,,,,,,,,,,,,,,sing32,001,2019_Nov_12_1016,ProdFawcett_Revision2019,3.2.4,59.9205189664144,
36,0,36,0,,,,,,,,,,,,,,,,,738.8292290376412,None,materials/singPic.jpg,platform,C_sing,36,224,735.1790057819162,None,735.1790057819162,None,736.0783704275527,None,736.3447931824921,None,736.3447931824921,None,,,,,,,,,,,,,,,,,,,,,,,,,,,,,,,,,,,sing32,001,2019_Nov_12_1016,ProdFawcett_Revision2019,3.2.4,59.9205189664144,
37,0,37,0,,,,,,,,,,,,,,,,,743.0970553631341,None,materials/singPic.jpg,angle,C_sing,37,7,739.4137283069431,None,739.4137283069431,None,740.3462981410266,None,740.6128042456112,None,740.6128042456112,None,,,,,,,,,,,,,,,,,,,,,,,,,,,,,,,,,,,sing32,001,2019_Nov_12_1016,ProdFawcett_Revision2019,3.2.4,59.9205189664144,
38,0,38,0,,,,,,,,,,,,,,,,,747.3650592730992,None,materials/singPic.jpg,general,C_sing,38,135,743.6801753203617,None,743.6801753203617,None,744.6143614531611,None,744.8810442092072,None,744.8810442092072,None,,,,,,,,,,,,,,,,,,,,,,,,,,,,,,,,,,,sing32,001,2019_Nov_12_1016,ProdFawcett_Revision2019,3.2.4,59.9205189664144,
39,0,39,0,,,,,,,,,,,,,,,,,751.6330886855721,None,materials/speakPic.jpg,voice,B_aloud,39,348,747.9668038307282,None,747.9668038307282,None,748.8826371824543,None,749.1488531183568,None,749.1488531183568,None,,,,,,,,,,,,,,,,,,,,,,,,,,,,,,,,,,,sing32,001,2019_Nov_12_1016,ProdFawcett_Revision2019,3.2.4,59.9205189664144,
40,0,40,0,,,,,,,,,,,,,,,,,755.9011355143739,None,materials/singPic.jpg,meeting,C_sing,40,187,752.2402304430871,None,752.2402304430871,None,753.1504995846481,None,753.4168850188726,None,753.4168850188726,None,,,,,,,,,,,,,,,,,,,,,,,,,,,,,,,,,,,sing32,001,2019_Nov_12_1016,ProdFawcett_Revision2019,3.2.4,59.9205189664144,
41,0,41,0,,,,,,,,,,,,,,,,,760.1693841861561,None,materials/singPic.jpg,fashion,C_sing,41,125,756.4842747539951,None,756.4842747539951,None,757.4184316522151,None,757.6850077331619,None,757.6850077331619,None,,,,,,,,,,,,,,,,,,,,,,,,,,,,,,,,,,,sing32,001,2019_Nov_12_1016,ProdFawcett_Revision2019,3.2.4,59.9205189664144,
42,0,42,0,,,,,,,,,,,,,,,,,764.4371759899514,None,materials/speakPic.jpg,grade,B_aloud,42,140,760.7599953473546,None,760.7599953473546,None,761.6865232659038,None,761.9529211403569,None,761.9529211403569,None,,,,,,,,,,,,,,,,,,,,,,,,,,,,,,,,,,,sing32,001,2019_Nov_12_1016,ProdFawcett_Revision2019,3.2.4,59.9205189664144,
43,0,43,0,,,,,,,,,,,,,,,,,768.705258895483,None,materials/singPic.jpg,mechanical,C_sing,43,185,765.0551199223992,None,765.0551199223992,None,765.9546257648035,None,766.2211738552141,None,766.2211738552141,None,,,,,,,,,,,,,,,,,,,,,,,,,,,,,,,,,,,sing32,001,2019_Nov_12_1016,ProdFawcett_Revision2019,3.2.4,59.9205189664144,
44,0,44,0,,,,,,,,,,,,,,,,,772.9732136664825,None,materials/speakPic.jpg,gesture,B_aloud,44,137,769.294579381356,None,769.294579381356,None,770.2225914210285,None,770.4890004916961,None,770.4890004916961,None,,,,,,,,,,,,,,,,,,,,,,,,,,,,,,,,,,,sing32,001,2019_Nov_12_1016,ProdFawcett_Revision2019,3.2.4,59.9205189664144,
45,0,45,0,,,,,,,,,,,,,,,,,777.2412542751699,None,materials/readPic.jpg,fellow,A_silent,45,126,773.547004995693,None,773.547004995693,None,774.490613991351,None,774.7570075117255,None,774.7570075117255,None,,,,,,,,,,,,,,,,,,,,,,,,,,,,,,,,,,,sing32,001,2019_Nov_12_1016,ProdFawcett_Revision2019,3.2.4,59.9205189664144,
46,0,46,0,,,,,,,,,,,,,,,,,781.5093085681292,None,materials/speakPic.jpg,beginning,B_aloud,46,19,777.8426156732748,None,777.8426156732748,None,778.7585451258929,None,779.0250642927422,None,779.0250642927422,None,,,,,,,,,,,,,,,,,,,,,,,,,,,,,,,,,,,sing32,001,2019_Nov_12_1016,ProdFawcett_Revision2019,3.2.4,59.9205189664144,
47,0,47,0,,,,,,,,,,,,,,,,,785.7773976937606,None,materials/speakPic.jpg,reach,B_aloud,47,253,782.0924182621529,None,782.0924182621529,None,783.0266600650502,None,783.2930694467359,None,783.2930694467359,None,,,,,,,,,,,,,,,,,,,,,,,,,,,,,,,,,,,sing32,001,2019_Nov_12_1016,ProdFawcett_Revision2019,3.2.4,59.9205189664144,
48,0,48,0,,,,,,,,,,,,,,,,,790.0453390915063,None,materials/readPic.jpg,subject,A_silent,48,312,786.3785771533003,None,786.3785771533003,None,787.2946344294323,None,787.5645659552247,None,787.5645659552247,None,,,,,,,,,,,,,,,,,,,,,,,,,,,,,,,,,,,sing32,001,2019_Nov_12_1016,ProdFawcett_Revision2019,3.2.4,59.9205189664144,
49,0,49,0,,,,,,,,,,,,,,,,,794.3133828102582,None,materials/speakPic.jpg,afternoon,B_aloud,49,3,790.6300753474497,None,790.6300753474497,None,791.562725421114,None,791.8291357358103,None,791.8291357358103,None,,,,,,,,,,,,,,,,,,,,,,,,,,,,,,,,,,,sing32,001,2019_Nov_12_1016,ProdFawcett_Revision2019,3.2.4,59.9205189664144,
50,0,50,0,,,,,,,,,,,,,,,,,798.58136619383,None,materials/singPic.jpg,junior,C_sing,50,167,794.9312502351968,None,794.9312502351968,None,795.8307119147357,None,796.0971539520688,None,796.0971539520688,None,,,,,,,,,,,,,,,,,,,,,,,,,,,,,,,,,,,sing32,001,2019_Nov_12_1016,ProdFawcett_Revision2019,3.2.4,59.9205189664144,
51,0,51,0,,,,,,,,,,,,,,,,,802.8496332149516,None,materials/readPic.jpg,nature,A_silent,51,200,799.183118215602,None,799.183118215602,None,800.0987469253159,None,800.365182120513,None,800.365182120513,None,,,,,,,,,,,,,,,,,,,,,,,,,,,,,,,,,,,sing32,001,2019_Nov_12_1016,ProdFawcett_Revision2019,3.2.4,59.9205189664144,
52,0,52,0,,,,,,,,,,,,,,,,,807.1174327939225,None,materials/speakPic.jpg,measure,B_aloud,52,184,803.4361726842762,None,803.4361726842762,None,804.36673186392,None,804.6331997147499,None,804.6331997147499,None,,,,,,,,,,,,,,,,,,,,,,,,,,,,,,,,,,,sing32,001,2019_Nov_12_1016,ProdFawcett_Revision2019,3.2.4,59.9205189664144,
53,0,53,0,,,,,,,,,,,,,,,,,811.3854877088888,None,materials/speakPic.jpg,budget,B_aloud,53,34,807.6845493101719,None,807.6845493101719,None,808.6350439809321,None,808.9012795102026,None,808.9012795102026,None,,,,,,,,,,,,,,,,,,,,,,,,,,,,,,,,,,,sing32,001,2019_Nov_12_1016,ProdFawcett_Revision2019,3.2.4,59.9205189664144,
54,0,54,0,,,,,,,,,,,,,,,,,815.6535236524796,None,materials/singPic.jpg,sleep,C_sing,54,290,812.0034036507714,None,812.0034036507714,None,812.9029017180292,None,813.1692498315097,None,813.1692498315097,None,,,,,,,,,,,,,,,,,,,,,,,,,,,,,,,,,,,sing32,001,2019_Nov_12_1016,ProdFawcett_Revision2019,3.2.4,59.9205189664144,
55,0,55,0,,,,,,,,,,,,,,,,,819.9215098350978,None,materials/speakPic.jpg,research,B_aloud,55,261,816.2408792018105,None,816.2408792018105,None,817.1708356516319,None,817.427414130434,None,817.427414130434,None,,,,,,,,,,,,,,,,,,,,,,,,,,,,,,,,,,,sing32,001,2019_Nov_12_1016,ProdFawcett_Revision2019,3.2.4,59.9205189664144,
56,0,56,0,,,,,,,,,,,,,,,,,824.1897883634665,None,materials/readPic.jpg,center,A_silent,56,44,820.5235091067298,None,820.5235091067298,None,821.4389110929915,None,821.7052999482839,None,821.7052999482839,None,,,,,,,,,,,,,,,,,,,,,,,,,,,,,,,,,,,sing32,001,2019_Nov_12_1016,ProdFawcett_Revision2019,3.2.4,59.9205189664144,
57,0,57,0,,,,,,,,,,,,,,,,,828.4575636839436,None,materials/speakPic.jpg,sound,B_aloud,57,295,824.7953371477197,None,824.7953371477197,None,825.7068758161913,None,825.973352686211,None,825.973352686211,None,,,,,,,,,,,,,,,,,,,,,,,,,,,,,,,,,,,sing32,001,2019_Nov_12_1016,ProdFawcett_Revision2019,3.2.4,59.9205189664144,
58,0,58,0,,,,,,,,,,,,,,,,,832.7256182879064,None,materials/singPic.jpg,science,C_sing,58,275,829.0671922462498,None,829.0671922462498,None,829.9749058506859,None,830.2414013810485,None,830.2414013810485,None,,,,,,,,,,,,,,,,,,,,,,,,,,,,,,,,,,,sing32,001,2019_Nov_12_1016,ProdFawcett_Revision2019,3.2.4,59.9205189664144,
59,0,59,0,,,,,,,,,,,,,,,,,836.993637748179,None,materials/readPic.jpg,height,A_silent,59,152,833.3273367210204,None,833.3273367210204,None,834.2429896892136,None,834.5093972048635,None,834.5093972048635,None,,,,,,,,,,,,,,,,,,,,,,,,,,,,,,,,,,,sing32,001,2019_Nov_12_1016,ProdFawcett_Revision2019,3.2.4,59.9205189664144,
60,0,60,0,,,,,,,,,,,,,,,,,841.2616537873837,None,materials/speakPic.jpg,cousin,B_aloud,60,76,837.5814884192223,None,837.5814884192223,None,838.5110299868975,None,838.7774219522398,None,838.7774219522398,None,,,,,,,,,,,,,,,,,,,,,,,,,,,,,,,,,,,sing32,001,2019_Nov_12_1016,ProdFawcett_Revision2019,3.2.4,59.9205189664144,
61,0,61,0,,,,,,,,,,,,,,,,,845.530049876048,None,materials/speakPic.jpg,owner,B_aloud,61,208,841.8447815197724,None,841.8447815197724,None,842.7790167915373,None,843.0454597618809,None,843.0454597618809,None,,,,,,,,,,,,,,,,,,,,,,,,,,,,,,,,,,,sing32,001,2019_Nov_12_1016,ProdFawcett_Revision2019,3.2.4,59.9205189664144,
62,0,62,0,,,,,,,,,,,,,,,,,849.7976902198861,None,materials/singPic.jpg,household,C_sing,62,154,846.1374625198805,None,846.1374625198805,None,847.047097208997,None,847.313464293853,None,847.313464293853,None,,,,,,,,,,,,,,,,,,,,,,,,,,,,,,,,,,,sing32,001,2019_Nov_12_1016,ProdFawcett_Revision2019,3.2.4,59.9205189664144,
63,0,63,0,,,,,,,,,,,,,,,,,854.0657124792197,None,materials/singPic.jpg,force,C_sing,63,131,850.3808465648326,None,850.3808465648326,None,851.3150880567118,None,851.5815444003238,None,851.5815444003238,None,,,,,,,,,,,,,,,,,,,,,,,,,,,,,,,,,,,sing32,001,2019_Nov_12_1016,ProdFawcett_Revision2019,3.2.4,59.9205189664144,
64,0,64,0,,,,,,,,,,,,,,,,,858.3337353605602,None,materials/readPic.jpg,volume,A_silent,64,349,854.6570675670082,None,854.6570675670082,None,855.5831731392827,None,855.8495318269706,None,855.8495318269706,None,,,,,,,,,,,,,,,,,,,,,,,,,,,,,,,,,,,sing32,001,2019_Nov_12_1016,ProdFawcett_Revision2019,3.2.4,59.9205189664144,
65,0,65,0,,,,,,,,,,,,,,,,,862.6017921415623,None,materials/readPic.jpg,still,A_silent,65,304,858.9180184806028,None,858.9180184806028,None,859.8511568338436,None,860.1175789667905,None,860.1175789667905,None,,,,,,,,,,,,,,,,,,,,,,,,,,,,,,,,,,,sing32,001,2019_Nov_12_1016,ProdFawcett_Revision2019,3.2.4,59.9205189664144,
66,0,66,0,,,,,,,,,,,,,,,,,866.8700420573587,None,materials/singPic.jpg,captain,C_sing,66,41,863.2102553639997,None,863.2102553639997,None,864.1192101937922,None,864.3855856758018,None,864.3855856758018,None,,,,,,,,,,,,,,,,,,,,,,,,,,,,,,,,,,,sing32,001,2019_Nov_12_1016,ProdFawcett_Revision2019,3.2.4,59.9205189664144,
67,0,67,0,,,,,,,,,,,,,,,,,871.1378335501649,None,materials/singPic.jpg,dozen,C_sing,67,102,867.452956750567,None,867.452956750567,None,868.3871845581743,None,868.6543076988601,None,868.6543076988601,None,,,,,,,,,,,,,,,,,,,,,,,,,,,,,,,,,,,sing32,001,2019_Nov_12_1016,ProdFawcett_Revision2019,3.2.4,59.9205189664144,
68,0,68,0,,,,,,,,,,,,,,,,,875.4061534423236,None,materials/singPic.jpg,route,C_sing,68,267,871.7297294775635,None,871.7297294775635,None,872.6553010523494,None,872.9216619170911,None,872.9216619170911,None,,,,,,,,,,,,,,,,,,,,,,,,,,,,,,,,,,,sing32,001,2019_Nov_12_1016,ProdFawcett_Revision2019,3.2.4,59.9205189664144,
69,0,69,0,,,,,,,,,,,,,,,,,879.6738892650319,None,materials/speakPic.jpg,reading,B_aloud,69,254,875.998389299406,None,875.998389299406,None,876.9232931440929,None,877.1896661380597,None,877.1896661380597,None,,,,,,,,,,,,,,,,,,,,,,,,,,,,,,,,,,,sing32,001,2019_Nov_12_1016,ProdFawcett_Revision2019,3.2.4,59.9205189664144,
70,0,70,0,,,,,,,,,,,,,,,,,883.9418913089612,None,materials/readPic.jpg,weight,A_silent,70,353,880.2751981031179,None,880.2751981031179,None,881.1912553792354,None,881.4576672489784,None,881.4576672489784,None,,,,,,,,,,,,,,,,,,,,,,,,,,,,,,,,,,,sing32,001,2019_Nov_12_1016,ProdFawcett_Revision2019,3.2.4,59.9205189664144,
71,0,71,0,,,,,,,,,,,,,,,,,888.2101701483334,None,materials/readPic.jpg,dance,A_silent,71,84,884.5153638569318,None,884.5153638569318,None,885.4593040740874,None,885.7257109677303,None,885.7257109677303,None,,,,,,,,,,,,,,,,,,,,,,,,,,,,,,,,,,,sing32,001,2019_Nov_12_1016,ProdFawcett_Revision2019,3.2.4,59.9205189664144,
72,0,72,0,,,,,,,,,,,,,,,,,892.4779722153326,None,materials/singPic.jpg,little,C_sing,72,174,888.8281744159613,None,888.8281744159613,None,889.7274211902841,None,889.9937335380673,None,889.9937335380673,None,,,,,,,,,,,,,,,,,,,,,,,,,,,,,,,,,,,sing32,001,2019_Nov_12_1016,ProdFawcett_Revision2019,3.2.4,59.9205189664144,
73,0,73,0,,,,,,,,,,,,,,,,,896.7459913646017,None,materials/readPic.jpg,edition,A_silent,73,107,893.0798386873503,None,893.0798386873503,None,893.9953613440011,None,894.2620111333963,None,894.2620111333963,None,,,,,,,,,,,,,,,,,,,,,,,,,,,,,,,,,,,sing32,001,2019_Nov_12_1016,ProdFawcett_Revision2019,3.2.4,59.9205189664144,
74,0,74,0,,,,,,,,,,,,,,,,,901.014042236493,None,materials/speakPic.jpg,crime,B_aloud,74,78,897.3367381244607,None,897.3367381244607,None,898.2634358523501,None,898.5297727696161,None,898.5297727696161,None,,,,,,,,,,,,,,,,,,,,,,,,,,,,,,,,,,,sing32,001,2019_Nov_12_1016,ProdFawcett_Revision2019,3.2.4,59.9205189664144,
75,0,75,0,,,,,,,,,,,,,,,,,905.2820613857621,None,materials/readPic.jpg,build,A_silent,75,35,901.6070263742586,None,901.6070263742586,None,902.5323612733919,None,902.7978084022034,None,902.7978084022034,None,,,,,,,,,,,,,,,,,,,,,,,,,,,,,,,,,,,sing32,001,2019_Nov_12_1016,ProdFawcett_Revision2019,3.2.4,59.9205189664144,
76,0,76,0,,,,,,,,,,,,,,,,,909.5501231428643,None,materials/singPic.jpg,question,C_sing,76,247,905.8864927250979,None,905.8864927250979,None,906.7996069504879,None,907.0666902824014,None,907.0666902824014,None,,,,,,,,,,,,,,,,,,,,,,,,,,,,,,,,,,,sing32,001,2019_Nov_12_1016,ProdFawcett_Revision2019,3.2.4,59.9205189664144,
77,0,77,0,,,,,,,,,,,,,,,,,913.8181808568916,None,materials/readPic.jpg,goose,A_silent,77,138,910.141414785423,None,910.141414785423,None,911.0674814819213,None,911.3338806004031,None,911.3338806004031,None,,,,,,,,,,,,,,,,,,,,,,,,,,,,,,,,,,,sing32,001,2019_Nov_12_1016,ProdFawcett_Revision2019,3.2.4,59.9205189664144,
78,0,78,0,,,,,,,,,,,,,,,,,918.0861449580843,None,materials/singPic.jpg,member,C_sing,78,188,914.4226722204039,None,914.4226722204039,None,915.3358523790957,None,915.6019302282657,None,915.6019302282657,None,,,,,,,,,,,,,,,,,,,,,,,,,,,,,,,,,,,sing32,001,2019_Nov_12_1016,ProdFawcett_Revision2019,3.2.4,59.9205189664144,
79,0,79,0,,,,,,,,,,,,,,,,,922.3541373608168,None,materials/readPic.jpg,evidence,A_silent,79,120,918.6947117455566,None,918.6947117455566,None,919.6036018860614,None,919.8699176549126,None,919.8699176549126,None,,,,,,,,,,,,,,,,,,,,,,,,,,,,,,,,,,,sing32,001,2019_Nov_12_1016,ProdFawcett_Revision2019,3.2.4,59.9205189664144,
80,0,80,0,,,,,,,,,,,,,,,,,926.6221807685652,None,materials/readPic.jpg,income,A_silent,80,159,922.9375145201047,None,922.9375145201047,None,923.8715681642934,None,924.1379697708326,None,924.1379697708326,None,,,,,,,,,,,,,,,,,,,,,,,,,,,,,,,,,,,sing32,001,2019_Nov_12_1016,ProdFawcett_Revision2019,3.2.4,59.9205189664144,
81,0,81,0,,,,,,,,,,,,,,,,,930.8902562099393,None,materials/singPic.jpg,payment,C_sing,81,215,927.2270375642547,None,927.2270375642547,None,928.1395929116698,None,928.4059789679013,None,928.4059789679013,None,,,,,,,,,,,,,,,,,,,,,,,,,,,,,,,,,,,sing32,001,2019_Nov_12_1016,ProdFawcett_Revision2019,3.2.4,59.9205189664144,
82,0,82,0,,,,,,,,,,,,,,,,,935.1582451916183,None,materials/readPic.jpg,death,A_silent,82,86,931.4919606477779,None,931.4919606477779,None,932.4076590228651,None,932.6739847439021,None,932.6739847439021,None,,,,,,,,,,,,,,,,,,,,,,,,,,,,,,,,,,,sing32,001,2019_Nov_12_1016,ProdFawcett_Revision2019,3.2.4,59.9205189664144,
83,0,83,0,,,,,,,,,,,,,,,,,939.4262938864558,None,materials/singPic.jpg,month,C_sing,83,193,935.77643575189,None,935.77643575189,None,936.6757089617313,None,936.9321667701879,None,936.9321667701879,None,,,,,,,,,,,,,,,,,,,,,,,,,,,,,,,,,,,sing32,001,2019_Nov_12_1016,ProdFawcett_Revision2019,3.2.4,59.9205189664144,
84,0,84,0,,,,,,,,,,,,,,,,,943.6943046385713,None,materials/singPic.jpg,session,C_sing,84,281,940.0130445289251,None,940.0130445289251,None,940.9437299770361,None,941.2100547650625,None,941.2100547650625,None,,,,,,,,,,,,,,,,,,,,,,,,,,,,,,,,,,,sing32,001,2019_Nov_12_1016,ProdFawcett_Revision2019,3.2.4,59.9205189664144,
85,0,85,0,,,,,,,,,,,,,,,,,947.9623097925505,None,materials/readPic.jpg,debate,A_silent,85,87,944.2857191285293,None,944.2857191285293,None,945.2117062074685,None,945.4780546319525,None,945.4780546319525,None,,,,,,,,,,,,,,,,,,,,,,,,,,,,,,,,,,,sing32,001,2019_Nov_12_1016,ProdFawcett_Revision2019,3.2.4,59.9205189664144,
86,0,86,0,,,,,,,,,,,,,,,,,952.230335472952,None,materials/singPic.jpg,rural,C_sing,86,269,948.5670586691267,None,948.5670586691267,None,949.4798279887473,None,949.7461306953337,None,949.7461306953337,None,,,,,,,,,,,,,,,,,,,,,,,,,,,,,,,,,,,sing32,001,2019_Nov_12_1016,ProdFawcett_Revision2019,3.2.4,59.9205189664144,
87,0,87,0,,,,,,,,,,,,,,,,,956.498361464357,None,materials/speakPic.jpg,education,B_aloud,87,108,952.8320859396918,None,952.8320859396918,None,953.7477684534679,None,954.0141597968031,None,954.0141597968031,None,,,,,,,,,,,,,,,,,,,,,,,,,,,,,,,,,,,sing32,001,2019_Nov_12_1016,ProdFawcett_Revision2019,3.2.4,59.9205189664144,
88,0,88,0,,,,,,,,,,,,,,,,,960.7664257095021,None,materials/speakPic.jpg,story,B_aloud,88,306,957.068620697275,None,957.068620697275,None,958.0158992539364,None,958.2821997834835,None,958.2821997834835,None,,,,,,,,,,,,,,,,,,,,,,,,,,,,,,,,,,,sing32,001,2019_Nov_12_1016,ProdFawcett_Revision2019,3.2.4,59.9205189664144,
89,0,89,0,,,,,,,,,,,,,,,,,965.0344339735602,None,materials/readPic.jpg,smooth,A_silent,89,292,961.3514990960684,None,961.3514990960684,None,962.2840599109768,None,962.5502018274128,None,962.5502018274128,None,,,,,,,,,,,,,,,,,,,,,,,,,,,,,,,,,,,sing32,001,2019_Nov_12_1016,ProdFawcett_Revision2019,3.2.4,59.9205189664144,
,,,,,,,,,,,,,,,,,,,,,,,,,,,,,,,,,,,,,965.5346170006524,None,k,102.72295949673571,965.5346170006524,None,,,,,,,,,,,,,,,,,,,,,,,,,,,,,sing32,001,2019_Nov_12_1016,ProdFawcett_Revision2019,3.2.4,59.9205189664144,
,,,,,,,,,,,,,,1068.2839815374318,None,space,1.1090975193801569,1068.2839815374318,None,,,,,,,,,,,,,,,,,,,,,,,,,,,,,,,,,,,,,,,,,,,,,,,,,,,,sing32,001,2019_Nov_12_1016,ProdFawcett_Revision2019,3.2.4,59.9205189664144,
,,,,0,0,0,0,,,,,,,,,,,,,1080.654884304182,None,,,,,,,,,,,,,,,,,,,,,,couch,D_new,0,70,1069.940008789039,None,1069.940008789039,None,1069.940008789039,None,1,4.069573930974002,1069.940008789039,None,1074.058612520923,None,1074.058612520923,None,1074.5883793814137,None,1074.5883793814137,None,1074.5883793814137,None,n,6.028235932972166,1074.5883793814137,None,sing32,001,2019_Nov_12_1016,ProdFawcett_Revision2019,3.2.4,59.9205189664144,
,,,,1,0,1,0,,,,,,,,,,,,,1090.9244289383787,None,,,,,,,,,,,,,,,,,,,,,,weight,A_silent,1,353,1081.171452065726,None,1081.171452065726,None,1081.171452065726,None,5,8.148777232854627,1081.171452065726,None,1089.3630924705067,None,1089.3630924705067,None,1089.8906356373773,None,1089.8906356373773,None,1089.8906356373773,None,f,0.9902431165828602,1089.8906356373773,None,sing32,001,2019_Nov_12_1016,ProdFawcett_Revision2019,3.2.4,59.9205189664144,
,,,,2,0,2,0,,,,,,,,,,,,,1096.826291585021,None,,,,,,,,,,,,,,,,,,,,,,little,C_sing,2,174,1091.4447309501847,None,1091.4447309501847,None,1091.4447309501847,None,6,3.7719112351187505,1091.4447309501847,None,1095.2633332203404,None,1095.2633332203404,None,1095.7927290505468,None,1095.7927290505468,None,1095.7927290505468,None,r,0.9996930369816255,1095.7927290505468,None,sing32,001,2019_Nov_12_1016,ProdFawcett_Revision2019,3.2.4,59.9205189664144,
,,,,3,0,3,0,,,,,,,,,,,,,1102.561490104883,None,,,,,,,,,,,,,,,,,,,,,,express,A_silent,3,124,1097.344424640265,None,1097.344424640265,None,1097.344424640265,None,1,2.1437336469098227,1097.344424640265,None,1099.5437375655893,None,1099.5437375655893,None,1100.0605102801492,None,1100.0605102801492,None,1100.0605102801492,None,n,2.467656142951455,1100.0605102801492,None,sing32,001,2019_Nov_12_1016,ProdFawcett_Revision2019,3.2.4,59.9205189664144,
,,,,4,0,4,0,,,,,,,,,,,,,1106.4458807397314,None,,,,,,,,,,,,,,,,,,,,,,disease,D_new,4,97,1103.079573088151,None,1103.079573088151,None,1103.079573088151,None,1,1.9197566937073134,1103.079573088151,None,1105.0622677756328,None,1105.0622677756328,None,1105.5789478103834,None,1105.5789478103834,None,1105.5789478103834,None,n,0.8288922180363443,1105.5789478103834,None,sing32,001,2019_Nov_12_1016,ProdFawcett_Revision2019,3.2.4,59.9205189664144,
,,,,5,0,5,0,,,,,,,,,,,,,1114.4485597462917,None,,,,,,,,,,,,,,,,,,,,,,rural,C_sing,5,269,1106.962834770864,None,1106.962834770864,None,1106.962834770864,None,3,5.908980954307481,1106.962834770864,None,1112.931436527855,None,1112.931436527855,None,1113.4482981901674,None,1113.4482981901674,None,1113.4482981901674,None,f,0.9592678418703144,1113.4482981901674,None,sing32,001,2019_Nov_12_1016,ProdFawcett_Revision2019,3.2.4,59.9205189664144,
,,,,6,0,6,0,,,,,,,,,,,,,1119.1735336295533,None,,,,,,,,,,,,,,,,,,,,,,thick,D_new,6,327,1114.9656440889667,None,1114.9656440889667,None,1114.9656440889667,None,2,2.617563571970095,1114.9656440889667,None,1117.6328333495621,None,1117.6328333495621,None,1118.1496079301578,None,1118.1496079301578,None,1118.1496079301578,None,n,1.000935506352107,1118.1496079301578,None,sing32,001,2019_Nov_12_1016,ProdFawcett_Revision2019,3.2.4,59.9205189664144,
,,,,7,0,7,0,,,,,,,,,,,,,1131.3039621244388,None,,,,,,,,,,,,,,,,,,,,,,story,B_aloud,7,306,1119.700112677514,None,1119.700112677514,None,1119.700112677514,None,6,9.18661641223298,1119.700112677514,None,1128.9239922858105,None,1128.9239922858105,None,1129.4532363450417,None,1129.4532363450417,None,1129.4532363450417,None,r,1.8174440834409324,1129.4532363450417,None,sing32,001,2019_Nov_12_1016,ProdFawcett_Revision2019,3.2.4,59.9205189664144,
,,,,8,0,8,0,,,,,,,,,,,,,1136.1055246812903,None,,,,,,,,,,,,,,,,,,,,,,break,A_silent,8,26,1131.820935437936,None,1131.820935437936,None,1131.820935437936,None,3,2.304978492378723,1131.820935437936,None,1134.1882327109342,None,1134.1882327109342,None,1134.7049043485167,None,1134.7049043485167,None,1134.7049043485167,None,n,1.3651653261767933,1134.7049043485167,None,sing32,001,2019_Nov_12_1016,ProdFawcett_Revision2019,3.2.4,59.9205189664144,
,,,,9,0,9,0,,,,,,,,,,,,,1143.3244611586124,None,,,,,,,,,,,,,,,,,,,,,,congress,D_new,9,67,1136.6239886470285,None,1136.6239886470285,None,1136.6239886470285,None,1,4.078147436172003,1136.6239886470285,None,1140.7451364088338,None,1140.7451364088338,None,1141.2736508477537,None,1141.2736508477537,None,1141.2736508477537,None,n,2.012357516447082,1141.2736508477537,None,sing32,001,2019_Nov_12_1016,ProdFawcett_Revision2019,3.2.4,59.9205189664144,
,,,,10,0,10,0,,,,,,,,,,,,,1146.942155664161,None,,,,,,,,,,,,,,,,,,,,,,build,A_silent,10,35,1143.8421171304944,None,1143.8421171304944,None,1143.8421171304944,None,6,2.24379363998014,1143.8421171304944,None,1146.1421266783873,None,1146.1421266783873,None,1146.6590956378059,None,1146.6590956378059,None,1146.6590956378059,None,r,0.24274803747539409,1146.6590956378059,None,sing32,001,2019_Nov_12_1016,ProdFawcett_Revision2019,3.2.4,59.9205189664144,
,,,,11,0,11,0,,,,,,,,,,,,,1153.877709912791,None,,,,,,,,,,,,,,,,,,,,,,measure,B_aloud,11,184,1147.4596676402143,None,1147.4596676402143,None,1147.4596676402143,None,5,5.001627805933822,1147.4596676402143,None,1152.5004470712738,None,1152.5004470712738,None,1153.0274733459955,None,1153.0274733459955,None,1153.0274733459955,None,f,0.8098381182207959,1153.0274733459955,None,sing32,001,2019_Nov_12_1016,ProdFawcett_Revision2019,3.2.4,59.9205189664144,
,,,,12,0,12,0,,,,,,,,,,,,,1158.912644606171,None,,,,,,,,,,,,,,,,,,,,,,figure,D_new,12,128,1154.394989256296,None,1154.394989256296,None,1154.394989256296,None,4,3.201751835164032,1154.394989256296,None,1157.6623123739118,None,1157.6623123739118,None,1158.1791886535066,None,1158.1791886535066,None,1158.1791886535066,None,f,0.6903349566709949,1158.1791886535066,None,sing32,001,2019_Nov_12_1016,ProdFawcett_Revision2019,3.2.4,59.9205189664144,
,,,,13,0,13,0,,,,,,,,,,,,,1163.647479559906,None,,,,,,,,,,,,,,,,,,,,,,property,D_new,13,242,1159.431734005193,None,1159.431734005193,None,1159.431734005193,None,2,2.6369750178128015,1159.431734005193,None,1162.1303830879915,None,1162.1303830879915,None,1162.647569440669,None,1162.647569440669,None,1162.647569440669,None,n,0.9580216404283419,1162.647569440669,None,sing32,001,2019_Nov_12_1016,ProdFawcett_Revision2019,3.2.4,59.9205189664144,
,,,,14,0,14,0,,,,,,,,,,,,,1167.0985911112657,None,,,,,,,,,,,,,,,,,,,,,,light,D_new,14,171,1164.1645253378229,None,1164.1645253378229,None,1164.1645253378229,None,2,2.016554854781134,1164.1645253378229,None,1166.2316914595576,None,1166.2316914595576,None,1166.7487506107427,None,1166.7487506107427,None,1166.7487506107427,None,n,0.3035313809814397,1166.7487506107427,None,sing32,001,2019_Nov_12_1016,ProdFawcett_Revision2019,3.2.4,59.9205189664144,
,,,,15,0,15,0,,,,,,,,,,,,,1174.5176724552148,None,,,,,,,,,,,,,,,,,,,,,,background,D_new,15,16,1167.6163254566927,None,1167.6163254566927,None,1167.6163254566927,None,4,6.163751554646296,1167.6163254566927,None,1173.834103125264,None,1173.834103125264,None,1174.351233807858,None,1174.351233807858,None,1174.351233807858,None,f,0.13331338747229893,1174.351233807858,None,sing32,001,2019_Nov_12_1016,ProdFawcett_Revision2019,3.2.4,59.9205189664144,
,,,,16,0,16,0,,,,,,,,,,,,,1180.5363054527843,None,,,,,,,,,,,,,,,,,,,,,,volume,A_silent,16,349,1175.0348162000591,None,1175.0348162000591,None,1175.0348162000591,None,6,3.5530260738159996,1175.0348162000591,None,1178.6522264460364,None,1178.6522264460364,None,1179.169241434356,None,1179.169241434356,None,1179.169241434356,None,r,1.3225466050353134,1179.169241434356,None,sing32,001,2019_Nov_12_1016,ProdFawcett_Revision2019,3.2.4,59.9205189664144,
,,,,17,0,17,0,,,,,,,,,,,,,1185.9381940684252,None,,,,,,,,,,,,,,,,,,,,,,people,B_aloud,17,216,1181.0537036006135,None,1181.0537036006135,None,1181.0537036006135,None,5,3.3663679867750034,1181.0537036006135,None,1184.470829338199,None,1184.470829338199,None,1184.9876322203636,None,1184.9876322203636,None,1184.9876322203636,None,f,0.9119995795335853,1184.9876322203636,None,sing32,001,2019_Nov_12_1016,ProdFawcett_Revision2019,3.2.4,59.9205189664144,
,,,,18,0,18,0,,,,,,,,,,,,,1190.2727725665318,None,,,,,,,,,,,,,,,,,,,,,,curve,D_new,18,82,1186.4547621409874,None,1186.4547621409874,None,1186.4547621409874,None,2,1.9884899751923513,1186.4547621409874,None,1188.4932945529436,None,1188.4932945529436,None,1189.0055480378505,None,1189.0055480378505,None,1189.0055480378505,None,n,1.2217921353294514,1189.0055480378505,None,sing32,001,2019_Nov_12_1016,ProdFawcett_Revision2019,3.2.4,59.9205189664144,
,,,,19,0,19,0,,,,,,,,,,,,,1196.558026118917,None,,,,,,,,,,,,,,,,,,,,,,crisis,D_new,19,79,1190.7914302890713,None,1190.7914302890713,None,1190.7914302890713,None,3,4.795524373388616,1190.7914302890713,None,1195.6411328583927,None,1195.6411328583927,None,1196.1579674631648,None,1196.1579674631648,None,1196.1579674631648,None,f,0.3650499429204501,1196.1579674631648,None,sing32,001,2019_Nov_12_1016,ProdFawcett_Revision2019,3.2.4,59.9205189664144,
,,,,20,0,20,0,,,,,,,,,,,,,1203.5769054333068,None,,,,,,,,,,,,,,,,,,,,,,impact,D_new,20,157,1197.0748252689955,None,1197.0748252689955,None,1197.0748252689955,None,4,5.168375904366258,1197.0748252689955,None,1202.2806621693162,None,1202.2806621693162,None,1202.7933628809842,None,1202.7933628809842,None,1202.7933628809842,None,f,0.7453786825790303,1202.7933628809842,None,sing32,001,2019_Nov_12_1016,ProdFawcett_Revision2019,3.2.4,59.9205189664144,
,,,,21,0,21,0,,,,,,,,,,,,,1206.594612254703,None,,,,,,,,,,,,,,,,,,,,,,burden,D_new,21,36,1204.09422831767,None,1204.09422831767,None,1204.09422831767,None,1,1.6767035592492903,1204.09422831767,None,1205.827887046311,None,1205.827887046311,None,1206.3444084679504,None,1206.3444084679504,None,1206.3444084679504,None,n,0.21046902518719435,1206.3444084679504,None,sing32,001,2019_Nov_12_1016,ProdFawcett_Revision2019,3.2.4,59.9205189664144,
,,,,22,0,22,0,,,,,,,,,,,,,1211.8796443707397,None,,,,,,,,,,,,,,,,,,,,,,broad,D_new,22,31,1207.1114589887147,None,1207.1114589887147,None,1207.1114589887147,None,6,3.243698783131549,1207.1114589887147,None,1210.4006741368212,None,1210.4006741368212,None,1210.9292112792027,None,1210.9292112792027,None,1210.9292112792027,None,r,0.9129789377329871,1210.9292112792027,None,sing32,001,2019_Nov_12_1016,ProdFawcett_Revision2019,3.2.4,59.9205189664144,
,,,,23,0,23,0,,,,,,,,,,,,,1220.7825069020037,None,,,,,,,,,,,,,,,,,,,,,,company,C_sing,23,64,1212.3970369204762,None,1212.3970369204762,None,1212.3970369204762,None,3,6.909645574341994,1212.3970369204762,None,1219.365282886487,None,1219.365282886487,None,1219.8821650751925,None,1219.8821650751925,None,1219.8821650751925,None,f,0.8562679081223905,1219.8821650751925,None,sing32,001,2019_Nov_12_1016,ProdFawcett_Revision2019,3.2.4,59.9205189664144,
,,,,24,0,24,0,,,,,,,,,,,,,1223.7834190829017,None,,,,,,,,,,,,,,,,,,,,,,tennis,C_sing,24,323,1221.2992873917246,None,1221.2992873917246,None,1221.2992873917246,None,1,1.8069818381773075,1221.2992873917246,None,1223.166548743524,None,1223.166548743524,None,1223.683262677936,None,1223.683262677936,None,1223.683262677936,None,n,0.0623517472849926,1223.683262677936,None,sing32,001,2019_Nov_12_1016,ProdFawcett_Revision2019,3.2.4,59.9205189664144,
,,,,25,0,25,0,,,,,,,,,,,,,1228.5851147503708,None,,,,,,,,,,,,,,,,,,,,,,sound,B_aloud,25,295,1224.3005494544777,None,1224.3005494544777,None,1224.3005494544777,None,5,3.48482989986951,1224.3005494544777,None,1227.8243384667003,None,1227.8243384667003,None,1228.3515693834488,None,1228.3515693834488,None,1228.3515693834488,None,f,0.19427307143632788,1228.3515693834488,None,sing32,001,2019_Nov_12_1016,ProdFawcett_Revision2019,3.2.4,59.9205189664144,
,,,,26,0,26,0,,,,,,,,,,,,,1231.985919820756,None,,,,,,,,,,,,,,,,,,,,,,leader,B_aloud,26,168,1229.1017350719485,None,1229.1017350719485,None,1229.1017350719485,None,6,2.243858018249739,1229.1017350719485,None,1231.3923926663556,None,1231.3923926663556,None,1231.9194226731488,None,1231.9194226731488,None,1231.9194226731488,None,r,0.02634999195288401,1231.9194226731488,None,sing32,001,2019_Nov_12_1016,ProdFawcett_Revision2019,3.2.4,59.9205189664144,
,,,,27,0,27,0,,,,,,,,,,,,,1235.2035945463285,None,,,,,,,,,,,,,,,,,,,,,,error,D_new,27,117,1232.5054922122508,None,1232.5054922122508,None,1232.5054922122508,None,2,1.9595623646455351,1232.5054922122508,None,1234.5201741883066,None,1234.5201741883066,None,1235.037026831429,None,1235.037026831429,None,1235.037026831429,None,n,0.13256977188575547,1235.037026831429,None,sing32,001,2019_Nov_12_1016,ProdFawcett_Revision2019,3.2.4,59.9205189664144,
,,,,28,0,28,0,,,,,,,,,,,,,1241.4556684127601,None,,,,,,,,,,,,,,,,,,,,,,produce,D_new,28,239,1235.721648295017,None,1235.721648295017,None,1235.721648295017,None,2,4.23121375417395,1235.721648295017,None,1240.0054006209539,None,1240.0054006209539,None,1240.5220358708175,None,1240.5220358708175,None,1240.5220358708175,None,n,0.8949545791256242,1240.5220358708175,None,sing32,001,2019_Nov_12_1016,ProdFawcett_Revision2019,3.2.4,59.9205189664144,
,,,,29,0,29,0,,,,,,,,,,,,,1245.69039840193,None,,,,,,,,,,,,,,,,,,,,,,cross,D_new,29,80,1241.9725583766267,None,1241.9725583766267,None,1241.9725583766267,None,3,2.596033863577759,1241.9725583766267,None,1244.6233871612349,None,1244.6233871612349,None,1245.1402382493397,None,1245.1402382493397,None,1245.1402382493397,None,n,0.5168507771013537,1245.1402382493397,None,sing32,001,2019_Nov_12_1016,ProdFawcett_Revision2019,3.2.4,59.9205189664144,
,,,,30,0,30,0,,,,,,,,,,,,,1251.1421636881132,None,,,,,,,,,,,,,,,,,,,,,,nation,D_new,30,198,1246.2073088921898,None,1246.2073088921898,None,1246.2073088921898,None,3,4.049179394845851,1246.2073088921898,None,1250.2956902951555,None,1250.2956902951555,None,1250.8252721070166,None,1250.8252721070166,None,1250.8252721070166,None,n,0.2709214582137065,1250.8252721070166,None,sing32,001,2019_Nov_12_1016,ProdFawcett_Revision2019,3.2.4,59.9205189664144,
,,,,31,0,31,0,,,,,,,,,,,,,1257.8441657276853,None,,,,,,,,,,,,,,,,,,,,,,straight,D_new,31,307,1251.6595851613965,None,1251.6595851613965,None,1251.6595851613965,None,5,5.509429860510863,1251.6595851613965,None,1257.2273289769655,None,1257.2273289769655,None,1257.7442360461719,None,1257.7442360461719,None,1257.7442360461719,None,f,0.05636923390557058,1257.7442360461719,None,sing32,001,2019_Nov_12_1016,ProdFawcett_Revision2019,3.2.4,59.9205189664144,
,,,,32,0,32,0,,,,,,,,,,,,,1261.2787404626142,None,,,,,,,,,,,,,,,,,,,,,,guide,A_silent,32,147,1258.3611172707606,None,1258.3611172707606,None,1258.3611172707606,None,3,1.7987868273921777,1258.3611172707606,None,1260.2117142936186,None,1260.2117142936186,None,1260.7283843761688,None,1260.7283843761688,None,1260.7283843761688,None,n,0.503303973324364,1260.7283843761688,None,sing32,001,2019_Nov_12_1016,ProdFawcett_Revision2019,3.2.4,59.9205189664144,
,,,,33,0,33,0,,,,,,,,,,,,,1268.5977571483963,None,,,,,,,,,,,,,,,,,,,,,,cousin,B_aloud,33,76,1261.7960244712012,None,1261.7960244712012,None,1261.7960244712012,None,6,6.076380299506127,1261.7960244712012,None,1267.9185960189352,None,1267.9185960189352,None,1268.430945915723,None,1268.430945915723,None,1268.430945915723,None,r,0.12038299778942019,1268.430945915723,None,sing32,001,2019_Nov_12_1016,ProdFawcett_Revision2019,3.2.4,59.9205189664144,
,,,,34,0,34,0,,,,,,,,,,,,,1271.4819384761504,None,,,,,,,,,,,,,,,,,,,,,,message,D_new,34,189,1269.1158217823104,None,1269.1158217823104,None,1269.1158217823104,None,6,1.4919761980709154,1269.1158217823104,None,1270.664982050279,None,1270.664982050279,None,1271.1818888084817,None,1271.1818888084817,None,1271.1818888084817,None,r,0.2659534467384219,1271.1818888084817,None,sing32,001,2019_Nov_12_1016,ProdFawcett_Revision2019,3.2.4,59.9205189664144,
,,,,35,0,35,0,,,,,,,,,,,,,1275.8667071389355,None,,,,,,,,,,,,,,,,,,,,,,patient,A_silent,35,213,1272.0005514138174,None,1272.0005514138174,None,1272.0005514138174,None,5,2.702490008145105,1272.0005514138174,None,1274.7662241775542,None,1274.7662241775542,None,1275.2830500741547,None,1275.2830500741547,None,1275.2830500741547,None,f,0.5481762446725043,1275.2830500741547,None,sing32,001,2019_Nov_12_1016,ProdFawcett_Revision2019,3.2.4,59.9205189664144,
,,,,36,0,36,0,,,,,,,,,,,,,1284.7028610384295,None,,,,,,,,,,,,,,,,,,,,,,write,D_new,36,358,1276.3849835680012,None,1276.3849835680012,None,1276.3849835680012,None,3,5.934057998296339,1276.3849835680012,None,1282.358850036282,None,1282.358850036282,None,1282.8856113338115,None,1282.8856113338115,None,1282.8856113338115,None,n,1.769051223018323,1282.8856113338115,None,sing32,001,2019_Nov_12_1016,ProdFawcett_Revision2019,3.2.4,59.9205189664144,
,,,,37,0,37,0,,,,,,,,,,,,,1291.0881002534443,None,,,,,,,,,,,,,,,,,,,,,,gesture,B_aloud,37,137,1285.220658207094,None,1285.220658207094,None,1285.220658207094,None,4,5.178020203587948,1285.220658207094,None,1290.4549129789375,None,1290.4549129789375,None,1290.9714185392659,None,1290.9714185392659,None,1290.9714185392659,None,f,0.0762207533698529,1290.9714185392659,None,sing32,001,2019_Nov_12_1016,ProdFawcett_Revision2019,3.2.4,59.9205189664144,
,,,,38,0,38,0,,,,,,,,,,,,,1297.995352946833,None,,,,,,,,,,,,,,,,,,,,,,sight,D_new,38,286,1291.6051183518139,None,1291.6051183518139,None,1291.6051183518139,None,3,4.945383285477874,1291.6051183518139,None,1296.606673071321,None,1296.606673071321,None,1297.1234784415283,None,1297.1234784415283,None,1297.1234784415283,None,f,0.8427705543144839,1297.1234784415283,None,sing32,001,2019_Nov_12_1016,ProdFawcett_Revision2019,3.2.4,59.9205189664144,
,,,,39,0,39,0,,,,,,,,,,,,,1304.9759408789832,None,,,,,,,,,,,,,,,,,,,,,,answer,D_new,39,8,1298.5237821700866,None,1298.5237821700866,None,1298.5237821700866,None,5,4.90585036687844,1298.5237821700866,None,1303.480821031233,None,1303.480821031233,None,1304.0089781241404,None,1304.0089781241404,None,1304.0089781241404,None,f,0.9332189038250363,1304.0089781241404,None,sing32,001,2019_Nov_12_1016,ProdFawcett_Revision2019,3.2.4,59.9205189664144,
,,,,40,0,40,0,,,,,,,,,,,,,1308.0492916680523,None,,,,,,,,,,,,,,,,,,,,,,science,C_sing,40,275,1305.4939666371356,None,1305.4939666371356,None,1305.4939666371356,None,6,1.7440158538374817,1305.4939666371356,None,1307.2933051893633,None,1307.2933051893633,None,1307.8103329289297,None,1307.8103329289297,None,1307.8103329289297,None,r,0.20304157747887075,1307.8103329289297,None,sing32,001,2019_Nov_12_1016,ProdFawcett_Revision2019,3.2.4,59.9205189664144,
,,,,41,0,41,0,,,,,,,,,,,,,1311.6280674920563,None,,,,,,,,,,,,,,,,,,,,,,dance,A_silent,41,84,1308.5769797637622,None,1308.5769797637622,None,1308.5769797637622,None,6,1.460874965894618,1308.5769797637622,None,1310.0828212358756,None,1310.0828212358756,None,1310.6109584243968,None,1310.6109584243968,None,1310.6109584243968,None,r,0.9783073244179832,1310.6109584243968,None,sing32,001,2019_Nov_12_1016,ProdFawcett_Revision2019,3.2.4,59.9205189664144,
,,,,42,0,42,0,,,,,,,,,,,,,1315.7792867448297,None,,,,,,,,,,,,,,,,,,,,,,solution,D_new,42,294,1312.1354182767682,None,1312.1354182767682,None,1312.1354182767682,None,3,2.2617315389215946,1312.1354182767682,None,1314.4624514558382,None,1314.4624514558382,None,1314.9791380217066,None,1314.9791380217066,None,1314.9791380217066,None,n,0.7623499745532172,1314.9791380217066,None,sing32,001,2019_Nov_12_1016,ProdFawcett_Revision2019,3.2.4,59.9205189664144,
,,,,43,0,43,0,,,,,,,,,,,,,1319.534243482325,None,,,,,,,,,,,,,,,,,,,,,,instrument,D_new,43,163,1316.3295927592844,None,1316.3295927592844,None,1316.3295927592844,None,3,2.0352799101528944,1316.3295927592844,None,1318.4199269695528,None,1318.4199269695528,None,1318.935530923176,None,1318.935530923176,None,1318.935530923176,None,n,0.5739549184218049,1318.935530923176,None,sing32,001,2019_Nov_12_1016,ProdFawcett_Revision2019,3.2.4,59.9205189664144,
,,,,44,0,44,0,,,,,,,,,,,,,1323.7485836004635,None,,,,,,,,,,,,,,,,,,,,,,charter,D_new,44,47,1320.0644541485235,None,1320.0644541485235,None,1320.0644541485235,None,1,2.89254645886831,1320.0644541485235,None,1323.014999824285,None,1323.014999824285,None,1323.5318574435078,None,1323.5318574435078,None,1323.5318574435078,None,n,0.17734905240649823,1323.5318574435078,None,sing32,001,2019_Nov_12_1016,ProdFawcett_Revision2019,3.2.4,59.9205189664144,
,,,,45,0,45,0,,,,,,,,,,,,,1327.4832048929966,None,,,,,,,,,,,,,,,,,,,,,,motion,D_new,45,194,1324.266077538181,None,1324.266077538181,None,1324.266077538181,None,2,2.050433060445357,1324.266077538181,None,1326.3660887032893,None,1326.3660887032893,None,1326.882942590455,None,1326.882942590455,None,1326.882942590455,None,n,0.5534941380028613,1326.882942590455,None,sing32,001,2019_Nov_12_1016,ProdFawcett_Revision2019,3.2.4,59.9205189664144,
,,,,46,0,46,0,,,,,,,,,,,,,1330.8842363758304,None,,,,,,,,,,,,,,,,,,,,,,subject,A_silent,46,312,1328.0057567229378,None,1328.0057567229378,None,1328.0057567229378,None,6,1.9196108318428742,1328.0057567229378,None,1329.974866041899,None,1329.974866041899,None,1330.506517910384,None,1330.506517910384,None,1330.506517910384,None,r,0.3383115043397993,1330.506517910384,None,sing32,001,2019_Nov_12_1016,ProdFawcett_Revision2019,3.2.4,59.9205189664144,
,,,,47,0,47,0,,,,,,,,,,,,,1334.718784239827,None,,,,,,,,,,,,,,,,,,,,,,scale,C_sing,47,272,1331.400920453656,None,1331.400920453656,None,1331.400920453656,None,3,2.6601854031760013,1331.400920453656,None,1334.1055570259196,None,1334.1055570259196,None,1334.6186200597149,None,1334.6186200597149,None,1334.6186200597149,None,f,0.06612798337300774,1334.6186200597149,None,sing32,001,2019_Nov_12_1016,ProdFawcett_Revision2019,3.2.4,59.9205189664144,
,,,,48,0,48,0,,,,,,,,,,,,,1338.236536312601,None,,,,,,,,,,,,,,,,,,,,,,resistance,D_new,48,262,1335.2364022689726,None,1335.2364022689726,None,1335.2364022689726,None,2,2.3279214124922873,1335.2364022689726,None,1337.6196336285939,None,1337.6196336285939,None,1338.1376002955803,None,1338.1376002955803,None,1338.1376002955803,None,n,0.050431194409611635,1338.1376002955803,None,sing32,001,2019_Nov_12_1016,ProdFawcett_Revision2019,3.2.4,59.9205189664144,
,,,,49,0,49,0,,,,,,,,,,,,,1342.7268402308837,None,,,,,,,,,,,,,,,,,,,,,,citizen,D_new,49,50,1338.7572575606318,None,1338.7572575606318,None,1338.7572575606318,None,3,3.3586413511802675,1338.7572575606318,None,1342.1711382605572,None,1342.1711382605572,None,1342.6894433021953,None,1342.6894433021953,None,1342.6894433021953,None,f,0.0022725215821992606,1342.6894433021953,None,sing32,001,2019_Nov_12_1016,ProdFawcett_Revision2019,3.2.4,59.9205189664144,
,,,,50,0,50,0,,,,,,,,,,,,,1346.3723532992008,None,,,,,,,,,,,,,,,,,,,,,,meeting,C_sing,50,187,1343.2546449538786,None,1343.2546449538786,None,1343.2546449538786,None,4,2.1176134884590283,1343.2546449538786,None,1345.4221870508918,None,1345.4221870508918,None,1345.9390154355497,None,1345.9390154355497,None,1345.9390154355497,None,f,0.3930451571504818,1345.9390154355497,None,sing32,001,2019_Nov_12_1016,ProdFawcett_Revision2019,3.2.4,59.9205189664144,
,,,,51,0,51,0,,,,,,,,,,,,,1349.7235255278501,None,,,,,,,,,,,,,,,,,,,,,,waste,D_new,51,350,1346.8895891018474,None,1346.8895891018474,None,1346.8895891018474,None,1,1.5458999910042621,1346.8895891018474,None,1348.4792227708676,None,1348.4792227708676,None,1349.006644334353,None,1349.006644334353,None,1349.006644334353,None,n,0.6687262527411804,1349.006644334353,None,sing32,001,2019_Nov_12_1016,ProdFawcett_Revision2019,3.2.4,59.9205189664144,
,,,,52,0,52,0,,,,,,,,,,,,,1352.6578080725449,None,,,,,,,,,,,,,,,,,,,,,,platform,C_sing,52,224,1350.241330471661,None,1350.241330471661,None,1350.241330471661,None,1,0.9141688470845111,1350.241330471661,None,1351.2073004950362,None,1351.2073004950362,None,1351.7074897422426,None,1351.7074897422426,None,1351.7074897422426,None,n,0.9122406092501478,1351.7074897422426,None,sing32,001,2019_Nov_12_1016,ProdFawcett_Revision2019,3.2.4,59.9205189664144,
,,,,53,0,53,0,,,,,,,,,,,,,1357.3593100143044,None,,,,,,,,,,,,,,,,,,,,,,fashion,C_sing,53,125,1353.1746255719772,None,1353.1746255719772,None,1353.1746255719772,None,6,3.4847316219529603,1353.1746255719772,None,1356.6983962348313,None,1356.6983962348313,None,1357.2259266504552,None,1357.2259266504552,None,1357.2259266504552,None,r,0.08997499821998645,1357.2259266504552,None,sing32,001,2019_Nov_12_1016,ProdFawcett_Revision2019,3.2.4,59.9205189664144,
,,,,54,0,54,0,,,,,,,,,,,,,1361.0604987729312,None,,,,,,,,,,,,,,,,,,,,,,narrow,D_new,54,197,1357.8765710084554,None,1357.8765710084554,None,1357.8765710084554,None,3,2.5593516269291285,1357.8765710084554,None,1360.482490822993,None,1360.482490822993,None,1361.0103804506507,None,1361.0103804506507,None,1361.0103804506507,None,f,0.008789343439275399,1361.0103804506507,None,sing32,001,2019_Nov_12_1016,ProdFawcett_Revision2019,3.2.4,59.9205189664144,
,,,,55,0,55,0,,,,,,,,,,,,,1365.862008769749,None,,,,,,,,,,,,,,,,,,,,,,bicycle,B_aloud,55,21,1361.5774524930457,None,1361.5774524930457,None,1361.5774524930457,None,6,3.585216138351825,1361.5774524930457,None,1365.211705585447,None,1365.211705585447,None,1365.7285488984053,None,1365.7285488984053,None,1365.7285488984053,None,r,0.09084457128483336,1365.7285488984053,None,sing32,001,2019_Nov_12_1016,ProdFawcett_Revision2019,3.2.4,59.9205189664144,
,,,,56,0,56,0,,,,,,,,,,,,,1370.330081660868,None,,,,,,,,,,,,,,,,,,,,,,direction,C_sing,56,94,1366.378710885925,None,1366.378710885925,None,1366.378710885925,None,4,3.1516465751628857,1366.378710885925,None,1369.5665679014928,None,1369.5665679014928,None,1370.0800262240373,None,1370.0800262240373,None,1370.0800262240373,None,f,0.2108055338030681,1370.0800262240373,None,sing32,001,2019_Nov_12_1016,ProdFawcett_Revision2019,3.2.4,59.9205189664144,
,,,,57,0,57,0,,,,,,,,,,,,,1375.1482976614498,None,,,,,,,,,,,,,,,,,,,,,,owner,B_aloud,57,208,1370.8468534424173,None,1370.8468534424173,None,1370.8468534424173,None,2,2.62792753931717,1370.8468534424173,None,1373.5310363874014,None,1373.5310363874014,None,1374.0479817103478,None,1374.0479817103478,None,1374.0479817103478,None,n,1.0592360881564673,1374.0479817103478,None,sing32,001,2019_Nov_12_1016,ProdFawcett_Revision2019,3.2.4,59.9205189664144,
,,,,58,0,58,0,,,,,,,,,,,,,1378.0491414521093,None,,,,,,,,,,,,,,,,,,,,,,spoke,D_new,58,300,1375.665537507186,None,1375.665537507186,None,1375.665537507186,None,2,1.488620131247444,1375.665537507186,None,1377.2155325155327,None,1377.2155325155327,None,1377.7325674082385,None,1377.7325674082385,None,1377.7325674082385,None,n,0.2693969062966062,1377.7325674082385,None,sing32,001,2019_Nov_12_1016,ProdFawcett_Revision2019,3.2.4,59.9205189664144,
,,,,59,0,59,0,,,,,,,,,,,,,1380.7833344892424,None,,,,,,,,,,,,,,,,,,,,,,harmony,B_aloud,59,148,1378.566231703895,None,1378.566231703895,None,1378.566231703895,None,6,1.5003385301388334,1378.566231703895,None,1380.1166795371391,None,1380.1166795371391,None,1380.6332728011766,None,1380.6332728011766,None,1380.6332728011766,None,r,0.11265511818055529,1380.6332728011766,None,sing32,001,2019_Nov_12_1016,ProdFawcett_Revision2019,3.2.4,59.9205189664144,
,,,,60,0,60,0,,,,,,,,,,,,,1390.9533596589608,None,,,,,,,,,,,,,,,,,,,,,,judge,D_new,60,166,1381.3043928678817,None,1381.3043928678817,None,1381.3043928678817,None,2,8.497357847663807,1381.3043928678817,None,1389.8529544491175,None,1389.8529544491175,None,1390.3728030140192,None,1390.3728030140192,None,1390.3728030140192,None,n,0.5326029251446016,1390.3728030140192,None,sing32,001,2019_Nov_12_1016,ProdFawcett_Revision2019,3.2.4,59.9205189664144,
,,,,61,0,61,0,,,,,,,,,,,,,1396.1217016636656,None,,,,,,,,,,,,,,,,,,,,,,evidence,A_silent,61,120,1391.4707099118532,None,1391.4707099118532,None,1391.4707099118532,None,6,3.802559331408702,1391.4707099118532,None,1395.3380483931687,None,1395.3380483931687,None,1395.85492933786,None,1395.85492933786,None,1395.85492933786,None,r,0.21822676139709074,1395.85492933786,None,sing32,001,2019_Nov_12_1016,ProdFawcett_Revision2019,3.2.4,59.9205189664144,
,,,,62,0,62,0,,,,,,,,,,,,,1399.2892726842401,None,,,,,,,,,,,,,,,,,,,,,,husband,D_new,62,156,1396.6399050063046,None,1396.6399050063046,None,1396.6399050063046,None,1,1.3850684726639884,1396.6399050063046,None,1398.0889810227236,None,1398.0889810227236,None,1398.6057111294504,None,1398.6057111294504,None,1398.6057111294504,None,n,0.635300871974323,1398.6057111294504,None,sing32,001,2019_Nov_12_1016,ProdFawcett_Revision2019,3.2.4,59.9205189664144,
,,,,63,0,63,0,,,,,,,,,,,,,1402.8904107799754,None,,,,,,,,,,,,,,,,,,,,,,level,D_new,63,170,1399.8067597798217,None,1399.8067597798217,None,1399.8067597798217,None,2,1.946139030304039,1399.8067597798217,None,1401.806830067202,None,1401.806830067202,None,1402.3235334274068,None,1402.3235334274068,None,1402.3235334274068,None,n,0.5339197249704739,1402.3235334274068,None,sing32,001,2019_Nov_12_1016,ProdFawcett_Revision2019,3.2.4,59.9205189664144,
,,,,64,0,64,0,,,,,,,,,,,,,1406.9918771426455,None,,,,,,,,,,,,,,,,,,,,,,agency,A_silent,64,4,1403.4078708180168,None,1403.4078708180168,None,1403.4078708180168,None,3,2.6736911541374866,1403.4078708180168,None,1406.1415065322217,None,1406.1415065322217,None,1406.6583862328844,None,1406.6583862328844,None,1406.6583862328844,None,f,0.28614271883270703,1406.6583862328844,None,sing32,001,2019_Nov_12_1016,ProdFawcett_Revision2019,3.2.4,59.9205189664144,
,,,,65,0,65,0,,,,,,,,,,,,,1410.0427698701096,None,,,,,,,,,,,,,,,,,,,,,,beginning,B_aloud,65,19,1407.510648071402,None,1407.510648071402,None,1407.510648071402,None,2,1.8263768006872851,1407.510648071402,None,1409.3810213502584,None,1409.3810213502584,None,1409.9093121757905,None,1409.9093121757905,None,1409.9093121757905,None,n,0.09972783854755107,1409.9093121757905,None,sing32,001,2019_Nov_12_1016,ProdFawcett_Revision2019,3.2.4,59.9205189664144,
,,,,66,0,66,0,,,,,,,,,,,,,1414.8109751565207,None,,,,,,,,,,,,,,,,,,,,,,minor,D_new,66,191,1410.5595671541523,None,1410.5595671541523,None,1410.5595671541523,None,4,3.384884357044939,1410.5595671541523,None,1413.9939098785253,None,1413.9939098785253,None,1414.5108751058578,None,1414.5108751058578,None,1414.5108751058578,None,f,0.2658756952150725,1414.5108751058578,None,sing32,001,2019_Nov_12_1016,ProdFawcett_Revision2019,3.2.4,59.9205189664144,
,,,,67,0,67,0,,,,,,,,,,,,,1418.428674949173,None,,,,,,,,,,,,,,,,,,,,,,character,D_new,67,46,1415.3287067029014,None,1415.3287067029014,None,1415.3287067029014,None,6,2.4633135647454765,1415.3287067029014,None,1417.8355029637314,None,1417.8355029637314,None,1418.362100361046,None,1418.362100361046,None,1418.362100361046,None,r,0.02263564609165769,1418.362100361046,None,sing32,001,2019_Nov_12_1016,ProdFawcett_Revision2019,3.2.4,59.9205189664144,
,,,,68,0,68,0,,,,,,,,,,,,,1421.613002356491,None,,,,,,,,,,,,,,,,,,,,,,close,D_new,68,53,1418.945931589231,None,1418.945931589231,None,1418.945931589231,None,2,1.614124466505018,1418.945931589231,None,1420.5988108370657,None,1420.5988108370657,None,1421.129530309263,None,1421.129530309263,None,1421.129530309263,None,n,0.43830494210124016,1421.129530309263,None,sing32,001,2019_Nov_12_1016,ProdFawcett_Revision2019,3.2.4,59.9205189664144,
,,,,69,0,69,0,,,,,,,,,,,,,1424.4807190212305,None,,,,,,,,,,,,,,,,,,,,,,voice,B_aloud,69,348,1422.1302319390234,None,1422.1302319390234,None,1422.1302319390234,None,2,1.509906632854836,1422.1302319390234,None,1423.6859905124438,None,1423.6859905124438,None,1424.2139112407312,None,1424.2139112407312,None,1424.2139112407312,None,n,0.23378608564962633,1424.2139112407312,None,sing32,001,2019_Nov_12_1016,ProdFawcett_Revision2019,3.2.4,59.9205189664144,
,,,,70,0,70,0,,,,,,,,,,,,,1429.232114427854,None,,,,,,,,,,,,,,,,,,,,,,goose,A_silent,70,138,1424.997672741345,None,1424.997672741345,None,1424.997672741345,None,6,3.3060209848190425,1424.997672741345,None,1428.3652620490757,None,1428.3652620490757,None,1428.8821006969374,None,1428.8821006969374,None,1428.8821006969374,None,r,0.30143551086075604,1428.8821006969374,None,sing32,001,2019_Nov_12_1016,ProdFawcett_Revision2019,3.2.4,59.9205189664144,
,,,,71,0,71,0,,,,,,,,,,,,,1432.9000525911397,None,,,,,,,,,,,,,,,,,,,,,,society,D_new,71,293,1429.7501451621065,None,1429.7501451621065,None,1429.7501451621065,None,5,2.321180355240358,1429.7501451621065,None,1432.133137669036,None,1432.133137669036,None,1432.6498503594194,None,1432.6498503594194,None,1432.6498503594194,None,r,0.2063858260808047,1432.6498503594194,None,sing32,001,2019_Nov_12_1016,ProdFawcett_Revision2019,3.2.4,59.9205189664144,
,,,,72,0,72,0,,,,,,,,,,,,,1439.6855656781117,None,,,,,,,,,,,,,,,,,,,,,,article,D_new,72,11,1433.4181057178212,None,1433.4181057178212,None,1433.4181057178212,None,5,5.252881238280679,1433.4181057178212,None,1438.735258233035,None,1438.735258233035,None,1439.2519479089678,None,1439.2519479089678,None,1439.2519479089678,None,r,0.38700728469120804,1439.2519479089678,None,sing32,001,2019_Nov_12_1016,ProdFawcett_Revision2019,3.2.4,59.9205189664144,
,,,,73,0,73,0,,,,,,,,,,,,,1443.9867959249532,None,,,,,,,,,,,,,,,,,,,,,,drink,D_new,73,105,1440.2028369354666,None,1440.2028369354666,None,1440.2028369354666,None,2,3.0921685242501553,1440.2028369354666,None,1443.3236687150638,None,1443.3236687150638,None,1443.8535727292474,None,1443.8535727292474,None,1443.8535727292474,None,n,0.09738378557085525,1443.8535727292474,None,sing32,001,2019_Nov_12_1016,ProdFawcett_Revision2019,3.2.4,59.9205189664144,
,,,,74,0,74,0,,,,,,,,,,,,,1448.3382116713765,None,,,,,,,,,,,,,,,,,,,,,,reading,B_aloud,74,254,1444.5042043359863,None,1444.5042043359863,None,1444.5042043359863,None,3,2.982965262781363,1444.5042043359863,None,1447.5380293595954,None,1447.5380293595954,None,1448.0549025291402,None,1448.0549025291402,None,1448.0549025291402,None,f,0.2404528124461649,1448.0549025291402,None,sing32,001,2019_Nov_12_1016,ProdFawcett_Revision2019,3.2.4,59.9205189664144,
,,,,75,0,75,0,,,,,,,,,,,,,1451.0723704978445,None,,,,,,,,,,,,,,,,,,,,,,session,C_sing,75,281,1448.8561839364702,None,1448.8561839364702,None,1448.8561839364702,None,6,1.4623220772919012,1448.8561839364702,None,1450.3722938970313,None,1450.3722938970313,None,1450.889008453465,None,1450.889008453465,None,1450.889008453465,None,r,0.15013819556043018,1450.889008453465,None,sing32,001,2019_Nov_12_1016,ProdFawcett_Revision2019,3.2.4,59.9205189664144,
,,,,76,0,76,0,,,,,,,,,,,,,1454.6068668281223,None,,,,,,,,,,,,,,,,,,,,,,incident,B_aloud,76,158,1451.5902528821753,None,1451.5902528821753,None,1451.5902528821753,None,5,2.392782356997486,1451.5902528821753,None,1454.0399941406504,None,1454.0399941406504,None,1454.5569313774322,None,1454.5569313774322,None,1454.5569313774322,None,f,0.009973343665478751,1454.5569313774322,None,sing32,001,2019_Nov_12_1016,ProdFawcett_Revision2019,3.2.4,59.9205189664144,
,,,,77,0,77,0,,,,,,,,,,,,,1458.8415386591514,None,,,,,,,,,,,,,,,,,,,,,,dozen,C_sing,77,102,1455.1259366337472,None,1455.1259366337472,None,1455.1259366337472,None,5,2.5841207748744637,1455.1259366337472,None,1457.7579287117987,None,1457.7579287117987,None,1458.2778447650344,None,1458.2778447650344,None,1458.2778447650344,None,f,0.5209986654808745,1458.2778447650344,None,sing32,001,2019_Nov_12_1016,ProdFawcett_Revision2019,3.2.4,59.9205189664144,
,,,,78,0,78,0,,,,,,,,,,,,,1462.0093003264628,None,,,,,,,,,,,,,,,,,,,,,,household,C_sing,78,154,1459.3593062822329,None,1459.3593062822329,None,1459.3593062822329,None,6,1.623435989182326,1459.3593062822329,None,1461.042300561894,None,1461.042300561894,None,1461.559425335363,None,1461.559425335363,None,1461.559425335363,None,r,0.414676253523794,1461.559425335363,None,sing32,001,2019_Nov_12_1016,ProdFawcett_Revision2019,3.2.4,59.9205189664144,
,,,,79,0,79,0,,,,,,,,,,,,,1467.3275612674333,None,,,,,,,,,,,,,,,,,,,,,,tragedy,D_new,79,335,1462.527342878937,None,1462.527342878937,None,1462.527342878937,None,4,3.814580339254462,1462.527342878937,None,1466.3941806404328,None,1466.3941806404328,None,1466.9108211774,None,1466.9108211774,None,1466.9108211774,None,f,0.3834475088515319,1466.9108211774,None,sing32,001,2019_Nov_12_1016,ProdFawcett_Revision2019,3.2.4,59.9205189664144,
,,,,80,0,80,0,,,,,,,,,,,,,1470.9121958243777,None,,,,,,,,,,,,,,,,,,,,,,enemy,D_new,80,113,1467.8445078343939,None,1467.8445078343939,None,1467.8445078343939,None,2,2.104938123782631,1467.8445078343939,None,1470.0019154865877,None,1470.0019154865877,None,1470.5293762368383,None,1470.5293762368383,None,1470.5293762368383,None,n,0.34113046363927424,1470.5293762368383,None,sing32,001,2019_Nov_12_1016,ProdFawcett_Revision2019,3.2.4,59.9205189664144,
,,,,81,0,81,0,,,,,,,,,,,,,1474.2298017864814,None,,,,,,,,,,,,,,,,,,,,,,death,A_silent,81,86,1471.4295317709912,None,1471.4295317709912,None,1471.4295317709912,None,6,1.687775687474641,1471.4295317709912,None,1473.1794187980122,None,1473.1794187980122,None,1473.696438762432,None,1473.696438762432,None,1473.696438762432,None,r,0.484878105824464,1473.696438762432,None,sing32,001,2019_Nov_12_1016,ProdFawcett_Revision2019,3.2.4,59.9205189664144,
,,,,82,0,82,0,,,,,,,,,,,,,1476.6473601335601,None,,,,,,,,,,,,,,,,,,,,,,novel,D_new,82,202,1474.747461179446,None,1474.747461179446,None,1474.747461179446,None,1,1.2823164107685443,1474.747461179446,None,1476.080478426913,None,1476.080478426913,None,1476.597202313511,None,1476.597202313511,None,1476.597202313511,None,n,0.01647088314348366,1476.597202313511,None,sing32,001,2019_Nov_12_1016,ProdFawcett_Revision2019,3.2.4,59.9205189664144,
,,,,83,0,83,0,,,,,,,,,,,,,1482.749187263311,None,,,,,,,,,,,,,,,,,,,,,,afternoon,B_aloud,83,3,1477.1640401683107,None,1477.1640401683107,None,1477.1640401683107,None,3,4.913383556660847,1477.1640401683107,None,1482.1223619296215,None,1482.1223619296215,None,1482.649223993125,None,1482.649223993125,None,1482.649223993125,None,n,0.05164536222582683,1482.649223993125,None,sing32,001,2019_Nov_12_1016,ProdFawcett_Revision2019,3.2.4,59.9205189664144,
,,,,84,0,84,0,,,,,,,,,,,,,1487.4674925537402,None,,,,,,,,,,,,,,,,,,,,,,finance,D_new,84,129,1483.267297926126,None,1483.267297926126,None,1483.267297926126,None,2,3.281490689565544,1483.267297926126,None,1486.6004781407828,None,1486.6004781407828,None,1487.1173382480629,None,1487.1173382480629,None,1487.1173382480629,None,n,0.31156466859101783,1487.1173382480629,None,sing32,001,2019_Nov_12_1016,ProdFawcett_Revision2019,3.2.4,59.9205189664144,
,,,,85,0,85,0,,,,,,,,,,,,,1490.9852807032294,None,,,,,,,,,,,,,,,,,,,,,,group,D_new,85,143,1487.98462821242,None,1487.98462821242,None,1487.98462821242,None,2,2.0679075602674857,1487.98462821242,None,1490.1019306947856,None,1490.1019306947856,None,1490.6184835280292,None,1490.6184835280292,None,1490.6184835280292,None,n,0.33014541713055223,1490.6184835280292,None,sing32,001,2019_Nov_12_1016,ProdFawcett_Revision2019,3.2.4,59.9205189664144,
,,,,86,0,86,0,,,,,,,,,,,,,1494.7864846700395,None,,,,,,,,,,,,,,,,,,,,,,store,B_aloud,86,305,1491.50353100778,None,1491.50353100778,None,1491.50353100778,None,5,2.3417331934615504,1491.50353100778,None,1493.9028647083032,None,1493.9028647083032,None,1494.4195394559501,None,1494.4195394559501,None,1494.4195394559501,None,f,0.32072131022869144,1494.4195394559501,None,sing32,001,2019_Nov_12_1016,ProdFawcett_Revision2019,3.2.4,59.9205189664144,
,,,,87,0,87,0,,,,,,,,,,,,,1497.6205905943643,None,,,,,,,,,,,,,,,,,,,,,,education,B_aloud,87,108,1495.3055687819578,None,1495.3055687819578,None,1495.3055687819578,None,6,1.7151103247597348,1495.3055687819578,None,1497.0705050832476,None,1497.0705050832476,None,1497.5872759317717,None,1497.5872759317717,None,1497.5872759317717,None,r,0.0008680180326336995,1497.5872759317717,None,sing32,001,2019_Nov_12_1016,ProdFawcett_Revision2019,3.2.4,59.9205189664144,
,,,,88,0,88,0,,,,,,,,,,,,,1501.488917453069,None,,,,,,,,,,,,,,,,,,,,,,quantity,D_new,88,245,1498.1394243463728,None,1498.1394243463728,None,1498.1394243463728,None,2,2.2895255321927834,1498.1394243463728,None,1500.4884938627656,None,1500.4884938627656,None,1501.0078914688202,None,1501.0078914688202,None,1501.0078914688202,None,n,0.4368817781942198,1501.0078914688202,None,sing32,001,2019_Nov_12_1016,ProdFawcett_Revision2019,3.2.4,59.9205189664144,
,,,,89,0,89,0,,,,,,,,,,,,,1504.289492254553,None,,,,,,,,,,,,,,,,,,,,,,atmosphere,D_new,89,12,1502.0074327348266,None,1502.0074327348266,None,1502.0074327348266,None,1,1.5002890801697504,1502.0074327348266,None,1503.5458399668423,None,1503.5458399668423,None,1504.072780403876,None,1504.072780403876,None,1504.072780403876,None,n,0.17910343784024008,1504.072780403876,None,sing32,001,2019_Nov_12_1016,ProdFawcett_Revision2019,3.2.4,59.9205189664144,
,,,,90,0,90,0,,,,,,,,,,,,,1510.3246807289106,None,,,,,,,,,,,,,,,,,,,,,,travel,B_aloud,90,338,1504.8069476275123,None,1504.8069476275123,None,1504.8069476275123,None,4,4.436592853526236,1504.8069476275123,None,1509.307743958634,None,1509.307743958634,None,1509.8245440417377,None,1509.8245440417377,None,1509.8245440417377,None,f,0.459773693306488,1509.8245440417377,None,sing32,001,2019_Nov_12_1016,ProdFawcett_Revision2019,3.2.4,59.9205189664144,
,,,,91,0,91,0,,,,,,,,,,,,,1513.158926294971,None,,,,,,,,,,,,,,,,,,,,,,frank,A_silent,91,133,1510.8416129896068,None,1510.8416129896068,None,1510.8416129896068,None,6,1.313773744928767,1510.8416129896068,None,1512.2086760750244,None,1512.2086760750244,None,1512.7255119238253,None,1512.7255119238253,None,1512.7255119238253,None,r,0.3906765346764587,1512.7255119238253,None,sing32,001,2019_Nov_12_1016,ProdFawcett_Revision2019,3.2.4,59.9205189664144,
,,,,92,0,92,0,,,,,,,,,,,,,1516.2768119137763,None,,,,,,,,,,,,,,,,,,,,,,permit,C_sing,92,218,1513.6765707596496,None,1513.6765707596496,None,1513.6765707596496,None,6,1.6787695727689425,1513.6765707596496,None,1515.3969688101351,None,1515.3969688101351,None,1515.926717943279,None,1515.926717943279,None,1515.926717943279,None,r,0.3090187726484146,1515.926717943279,None,sing32,001,2019_Nov_12_1016,ProdFawcett_Revision2019,3.2.4,59.9205189664144,
,,,,93,0,93,0,,,,,,,,,,,,,1521.5617236704566,None,,,,,,,,,,,,,,,,,,,,,,crowd,C_sing,93,81,1516.793684150296,None,1516.793684150296,None,1516.793684150296,None,3,3.562058624025667,1516.793684150296,None,1520.4006710267713,None,1520.4006710267713,None,1520.928117470743,None,1520.928117470743,None,1520.928117470743,None,f,0.5954134064086247,1520.928117470743,None,sing32,001,2019_Nov_12_1016,ProdFawcett_Revision2019,3.2.4,59.9205189664144,
,,,,94,0,94,0,,,,,,,,,,,,,1526.1964865018672,None,,,,,,,,,,,,,,,,,,,,,,strength,D_new,94,310,1522.0793133980478,None,1522.0793133980478,None,1522.0793133980478,None,5,3.3000244761933573,1522.0793133980478,None,1525.4295840200066,None,1525.4295840200066,None,1525.946593410219,None,1525.946593410219,None,1525.946593410219,None,f,0.21676472169929184,1525.946593410219,None,sing32,001,2019_Nov_12_1016,ProdFawcett_Revision2019,3.2.4,59.9205189664144,
,,,,95,0,95,0,,,,,,,,,,,,,1529.0305927371955,None,,,,,,,,,,,,,,,,,,,,,,season,D_new,95,277,1526.7149874773459,None,1526.7149874773459,None,1526.7149874773459,None,2,1.4159327181841945,1526.7149874773459,None,1528.1695518184424,None,1528.1695518184424,None,1528.697283144007,None,1528.697283144007,None,1528.697283144007,None,n,0.2974838673399063,1528.697283144007,None,sing32,001,2019_Nov_12_1016,ProdFawcett_Revision2019,3.2.4,59.9205189664144,
,,,,96,0,96,0,,,,,,,,,,,,,1532.898624451118,None,,,,,,,,,,,,,,,,,,,,,,sleep,C_sing,96,290,1529.5477417691436,None,1529.5477417691436,None,1529.5477417691436,None,6,2.5027690428396454,1529.5477417691436,None,1532.1025514629582,None,1532.1025514629582,None,1532.6317382970738,None,1532.6317382970738,None,1532.6317382970738,None,r,0.2187352563632885,1532.6317382970738,None,sing32,001,2019_Nov_12_1016,ProdFawcett_Revision2019,3.2.4,59.9205189664144,
,,,,97,0,97,0,,,,,,,,,,,,,1537.0998108771892,None,,,,,,,,,,,,,,,,,,,,,,force,C_sing,97,131,1533.41579183242,None,1533.41579183242,None,1533.41579183242,None,3,3.0110136590810725,1533.41579183242,None,1536.4830126912275,None,1536.4830126912275,None,1536.9998923918902,None,1536.9998923918902,None,1536.9998923918902,None,f,0.06683956533379387,1536.9998923918902,None,sing32,001,2019_Nov_12_1016,ProdFawcett_Revision2019,3.2.4,59.9205189664144,
,,,,98,0,98,0,,,,,,,,,,,,,1540.53423943925,None,,,,,,,,,,,,,,,,,,,,,,range,D_new,98,251,1537.6169443588296,None,1537.6169443588296,None,1537.6169443588296,None,2,1.537135217062314,1537.6169443588296,None,1539.2071555661823,None,1539.2071555661823,None,1539.7341003573238,None,1539.7341003573238,None,1539.7341003573238,None,n,0.7565836104186019,1539.7341003573238,None,sing32,001,2019_Nov_12_1016,ProdFawcett_Revision2019,3.2.4,59.9205189664144,
,,,,99,0,99,0,,,,,,,,,,,,,1542.8683004231862,None,,,,,,,,,,,,,,,,,,,,,,clean,D_new,99,51,1541.0511962694145,None,1541.0511962694145,None,1541.0511962694145,None,2,1.0075770416588057,1541.0511962694145,None,1542.1058957115747,None,1542.1058957115747,None,1542.6183473073615,None,1542.6183473073615,None,1542.6183473073615,None,n,0.2086350222089095,1542.6183473073615,None,sing32,001,2019_Nov_12_1016,ProdFawcett_Revision2019,3.2.4,59.9205189664144,
,,,,100,0,100,0,,,,,,,,,,,,,1550.7875280955195,None,,,,,,,,,,,,,,,,,,,,,,growth,D_new,100,144,1543.3867603458493,None,1543.3867603458493,None,1543.3867603458493,None,4,6.567391134653008,1543.3867603458493,None,1549.9917306587595,None,1549.9917306587595,None,1550.504213666165,None,1550.504213666165,None,1550.504213666165,None,f,0.24999790071160533,1550.504213666165,None,sing32,001,2019_Nov_12_1016,ProdFawcett_Revision2019,3.2.4,59.9205189664144,
,,,,101,0,101,0,,,,,,,,,,,,,1559.5070005918533,None,,,,,,,,,,,,,,,,,,,,,,election,D_new,101,109,1551.3061954592558,None,1551.3061954592558,None,1551.3061954592558,None,3,7.438994753625593,1551.3061954592558,None,1558.8068123398552,None,1558.8068123398552,None,1559.3236612509063,None,1559.3236612509063,None,1559.3236612509063,None,f,0.15011362607765477,1559.3236612509063,None,sing32,001,2019_Nov_12_1016,ProdFawcett_Revision2019,3.2.4,59.9205189664144,
,,,,102,0,102,0,,,,,,,,,,,,,1565.5590141853027,None,,,,,,,,,,,,,,,,,,,,,,bright,D_new,102,29,1560.0271750911488,None,1560.0271750911488,None,1560.0271750911488,None,3,4.606773837294895,1560.0271750911488,None,1564.680001156943,None,1564.680001156943,None,1565.2088206928602,None,1565.2088206928602,None,1565.2088206928602,None,f,0.31200847429863643,1565.2088206928602,None,sing32,001,2019_Nov_12_1016,ProdFawcett_Revision2019,3.2.4,59.9205189664144,
,,,,103,0,103,0,,,,,,,,,,,,,1568.9100582794345,None,,,,,,,,,,,,,,,,,,,,,,month,C_sing,103,193,1566.0758226655598,None,1566.0758226655598,None,1566.0758226655598,None,6,2.1650366318499437,1566.0758226655598,None,1568.281268009203,None,1568.281268009203,None,1568.809956300538,None,1568.809956300538,None,1568.809956300538,None,r,0.05496130928804632,1568.809956300538,None,sing32,001,2019_Nov_12_1016,ProdFawcett_Revision2019,3.2.4,59.9205189664144,
,,,,104,0,104,0,,,,,,,,,,,,,1575.1287443968322,None,,,,,,,,,,,,,,,,,,,,,,youth,D_new,104,359,1569.4268972382997,None,1569.4268972382997,None,1569.4268972382997,None,4,5.045991893319297,1569.4268972382997,None,1574.5180102078448,None,1574.5180102078448,None,1575.0454995706532,None,1575.0454995706532,None,1575.0454995706532,None,f,0.03490172672900371,1575.0454995706532,None,sing32,001,2019_Nov_12_1016,ProdFawcett_Revision2019,3.2.4,59.9205189664144,
,,,,105,0,105,0,,,,,,,,,,,,,1580.7638577321195,None,,,,,,,,,,,,,,,,,,,,,,scene,D_new,105,273,1575.6455251975567,None,1575.6455251975567,None,1575.6455251975567,None,2,3.9466640085884137,1575.6455251975567,None,1579.6468090307462,None,1579.6468090307462,None,1580.163686243366,None,1580.163686243366,None,1580.163686243366,None,n,0.5571966656425502,1580.163686243366,None,sing32,001,2019_Nov_12_1016,ProdFawcett_Revision2019,3.2.4,59.9205189664144,
,,,,106,0,106,0,,,,,,,,,,,,,1586.5323702925816,None,,,,,,,,,,,,,,,,,,,,,,graduate,D_new,106,141,1581.282339425219,None,1581.282339425219,None,1581.282339425219,None,4,4.445493226128747,1581.282339425219,None,1585.7674650918925,None,1585.7674650918925,None,1586.2823481333908,None,1586.2823481333908,None,1586.2823481333908,None,f,0.21362138303811662,1586.2823481333908,None,sing32,001,2019_Nov_12_1016,ProdFawcett_Revision2019,3.2.4,59.9205189664144,
,,,,107,0,107,0,,,,,,,,,,,,,1588.9832000723982,None,,,,,,,,,,,,,,,,,,,,,,reach,B_aloud,107,253,1587.0491451841808,None,1587.0491451841808,None,1587.0491451841808,None,2,1.3026590088702505,1587.0491451841808,None,1588.405687866194,None,1588.405687866194,None,1588.9331685208308,None,1588.9331685208308,None,1588.9331685208308,None,n,0.0026037430798169225,1588.9331685208308,None,sing32,001,2019_Nov_12_1016,ProdFawcett_Revision2019,3.2.4,59.9205189664144,
,,,,108,0,108,0,,,,,,,,,,,,,1592.0174126096244,None,,,,,,,,,,,,,,,,,,,,,,payment,C_sing,108,215,1589.5010973850294,None,1589.5010973850294,None,1589.5010973850294,None,6,1.5945640487479977,1589.5010973850294,None,1591.1391537710588,None,1591.1391537710588,None,1591.6671650021162,None,1591.6671650021162,None,1591.6671650021162,None,r,0.3094249466084875,1591.6671650021162,None,sing32,001,2019_Nov_12_1016,ProdFawcett_Revision2019,3.2.4,59.9205189664144,
,,,,109,0,109,0,,,,,,,,,,,,,1595.2683612559777,None,,,,,,,,,,,,,,,,,,,,,,grade,B_aloud,109,140,1592.5345184117177,None,1592.5345184117177,None,1592.5345184117177,None,2,1.9048927790863672,1592.5345184117177,None,1594.5015159992472,None,1594.5015159992472,None,1595.0183969439386,None,1595.0183969439386,None,1595.0183969439386,None,n,0.21306126104900613,1595.0183969439386,None,sing32,001,2019_Nov_12_1016,ProdFawcett_Revision2019,3.2.4,59.9205189664144,
,,,,110,0,110,0,,,,,,,,,,,,,1598.2027283943316,None,,,,,,,,,,,,,,,,,,,,,,council,D_new,110,71,1595.7852577509766,None,1595.7852577509766,None,1595.7852577509766,None,2,1.3823599205206847,1595.7852577509766,None,1597.2190695879253,None,1597.2190695879253,None,1597.735817421999,None,1597.735817421999,None,1597.735817421999,None,n,0.4316307511617197,1597.735817421999,None,sing32,001,2019_Nov_12_1016,ProdFawcett_Revision2019,3.2.4,59.9205189664144,
,,,,111,0,111,0,,,,,,,,,,,,,1601.2539654055436,None,,,,,,,,,,,,,,,,,,,,,,century,D_new,111,45,1598.7194504148938,None,1598.7194504148938,None,1598.7194504148938,None,1,1.8088301474490436,1598.7194504148938,None,1600.58672638399,None,1600.58672638399,None,1601.1036518025503,None,1601.1036518025503,None,1601.1036518025503,None,n,0.10336567692866083,1601.1036518025503,None,sing32,001,2019_Nov_12_1016,ProdFawcett_Revision2019,3.2.4,59.9205189664144,
,,,,112,0,112,0,,,,,,,,,,,,,1605.8551367789332,None,,,,,,,,,,,,,,,,,,,,,,health,A_silent,112,149,1601.7705938132858,None,1601.7705938132858,None,1601.7705938132858,None,3,2.509068782426766,1601.7705938132858,None,1604.3252647983754,None,1604.3252647983754,None,1604.8380578788638,None,1604.8380578788638,None,1604.8380578788638,None,f,0.9689062319666846,1604.8380578788638,None,sing32,001,2019_Nov_12_1016,ProdFawcett_Revision2019,3.2.4,59.9205189664144,
,,,,113,0,113,0,,,,,,,,,,,,,1611.6069763022679,None,,,,,,,,,,,,,,,,,,,,,,speech,B_aloud,113,298,1606.3720904990478,None,1606.3720904990478,None,1606.3720904990478,None,3,4.37049286068941,1606.3720904990478,None,1610.8067747081077,None,1610.8067747081077,None,1611.3234503887797,None,1611.3234503887797,None,1611.3234503887797,None,f,0.24363129479752388,1611.3234503887797,None,sing32,001,2019_Nov_12_1016,ProdFawcett_Revision2019,3.2.4,59.9205189664144,
,,,,114,0,114,0,,,,,,,,,,,,,1614.47444011904,None,,,,,,,,,,,,,,,,,,,,,,engineer,C_sing,114,114,1612.123766433171,None,1612.123766433171,None,1612.123766433171,None,6,1.6673239262308925,1612.123766433171,None,1613.8302945445466,None,1613.8302945445466,None,1614.3412194113916,None,1614.3412194113916,None,1614.3412194113916,None,r,0.09734833087713923,1614.3412194113916,None,sing32,001,2019_Nov_12_1016,ProdFawcett_Revision2019,3.2.4,59.9205189664144,
,,,,115,0,115,0,,,,,,,,,,,,,1618.1923476326629,None,,,,,,,,,,,,,,,,,,,,,,length,D_new,115,169,1614.991442356113,None,1614.991442356113,None,1614.991442356113,None,3,2.4628753571596462,1614.991442356113,None,1617.5088697385218,None,1617.5088697385218,None,1618.0258054202714,None,1618.0258054202714,None,1618.0258054202714,None,f,0.13291561068035662,1618.0258054202714,None,sing32,001,2019_Nov_12_1016,ProdFawcett_Revision2019,3.2.4,59.9205189664144,
,,,,116,0,116,0,,,,,,,,,,,,,1621.960319975522,None,,,,,,,,,,,,,,,,,,,,,,route,C_sing,116,267,1618.7095759711665,None,1618.7095759711665,None,1618.7095759711665,None,6,2.0254682896629674,1618.7095759711665,None,1620.7808623017336,None,1620.7808623017336,None,1621.3099822695513,None,1621.3099822695513,None,1621.3099822695513,None,r,0.6167173243738944,1621.3099822695513,None,sing32,001,2019_Nov_12_1016,ProdFawcett_Revision2019,3.2.4,59.9205189664144,
,,,,117,0,117,0,,,,,,,,,,,,,1629.1626036311209,None,,,,,,,,,,,,,,,,,,,,,,blind,D_new,117,24,1622.4770314218767,None,1622.4770314218767,None,1622.4770314218767,None,1,5.44873795278545,1622.4770314218767,None,1627.978833546731,None,1627.978833546731,None,1628.495692098979,None,1628.495692098979,None,1628.495692098979,None,n,0.6301123571756762,1628.495692098979,None,sing32,001,2019_Nov_12_1016,ProdFawcett_Revision2019,3.2.4,59.9205189664144,
,,,,118,0,118,0,,,,,,,,,,,,,1634.0808211556287,None,,,,,,,,,,,,,,,,,,,,,,count,D_new,118,72,1629.6795822317217,None,1629.6795822317217,None,1629.6795822317217,None,3,3.1822066567110596,1629.6795822317217,None,1632.913818965215,None,1632.913818965215,None,1633.4305366316985,None,1633.4305366316985,None,1633.4305366316985,None,n,0.6078290810110047,1633.4305366316985,None,sing32,001,2019_Nov_12_1016,ProdFawcett_Revision2019,3.2.4,59.9205189664144,
,,,,119,0,119,0,,,,,,,,,,,,,1636.7982537629432,None,,,,,,,,,,,,,,,,,,,,,,oxygen,A_silent,119,209,1634.5975133196189,None,1634.5975133196189,None,1634.5975133196189,None,1,1.4406713875214336,1634.5975133196189,None,1636.098041563484,None,1636.098041563484,None,1636.6148942066066,None,1636.6148942066066,None,1636.6148942066066,None,n,0.13437236325989943,1636.6148942066066,None,sing32,001,2019_Nov_12_1016,ProdFawcett_Revision2019,3.2.4,59.9205189664144,
,,,,120,0,120,0,,,,,,,,,,,,,1640.4160443693836,None,,,,,,,,,,,,,,,,,,,,,,rough,D_new,120,266,1637.315194731811,None,1637.315194731811,None,1637.315194731811,None,2,2.330047761206515,1637.315194731811,None,1639.699199874609,None,1639.699199874609,None,1640.216181274256,None,1640.216181274256,None,1640.216181274256,None,f,0.16505093812884297,1640.216181274256,None,sing32,001,2019_Nov_12_1016,ProdFawcett_Revision2019,3.2.4,59.9205189664144,
,,,,121,0,121,0,,,,,,,,,,,,,1645.0675567454018,None,,,,,,,,,,,,,,,,,,,,,,relation,D_new,121,257,1640.9332276119967,None,1640.9332276119967,None,1640.9332276119967,None,2,2.3518359156587394,1640.9332276119967,None,1643.3385889217752,None,1643.3385889217752,None,1643.8671633848862,None,1643.8671633848862,None,1643.8671633848862,None,f,1.1619872170267627,1643.8671633848862,None,sing32,001,2019_Nov_12_1016,ProdFawcett_Revision2019,3.2.4,59.9205189664144,
,,,,122,0,122,0,,,,,,,,,,,,,1647.5016568850115,None,,,,,,,,,,,,,,,,,,,,,,murder,D_new,122,195,1645.5844417331682,None,1645.5844417331682,None,1645.5844417331682,None,1,1.3007851971051423,1645.5844417331682,None,1646.9349157531105,None,1646.9349157531105,None,1647.451756889015,None,1647.451756889015,None,1647.451756889015,None,n,0.009638701114454307,1647.451756889015,None,sing32,001,2019_Nov_12_1016,ProdFawcett_Revision2019,3.2.4,59.9205189664144,
,,,,123,0,123,0,,,,,,,,,,,,,1651.5363788502145,None,,,,,,,,,,,,,,,,,,,,,,general,C_sing,123,135,1648.0197106337,None,1648.0197106337,None,1648.0197106337,None,3,2.6654768610023893,1648.0197106337,None,1650.7361620167649,None,1650.7361620167649,None,1651.2528831043164,None,1651.2528831043164,None,1651.2528831043164,None,f,0.24060831549286377,1651.2528831043164,None,sing32,001,2019_Nov_12_1016,ProdFawcett_Revision2019,3.2.4,59.9205189664144,
,,,,124,0,124,0,,,,,,,,,,,,,1656.3546343485796,None,,,,,,,,,,,,,,,,,,,,,,shock,B_aloud,124,284,1652.0530791003548,None,1652.0530791003548,None,1652.0530791003548,None,4,3.408166273817187,1652.0530791003548,None,1655.5209660098335,None,1655.5209660098335,None,1656.0378320262244,None,1656.0378320262244,None,1656.0378320262244,None,f,0.2785722083208384,1656.0378320262244,None,sing32,001,2019_Nov_12_1016,ProdFawcett_Revision2019,3.2.4,59.9205189664144,
,,,,125,0,125,0,,,,,,,,,,,,,1659.1054951357073,None,,,,,,,,,,,,,,,,,,,,,,territory,D_new,125,324,1656.872739413273,None,1656.872739413273,None,1656.872739413273,None,1,1.2354950641747564,1656.872739413273,None,1658.159691680994,None,1658.159691680994,None,1658.688863897827,None,1658.688863897827,None,1658.688863897827,None,n,0.3794510804582387,1658.688863897827,None,sing32,001,2019_Nov_12_1016,ProdFawcett_Revision2019,3.2.4,59.9205189664144,
,,,,126,0,126,0,,,,,,,,,,,,,1663.9736226395034,None,,,,,,,,,,,,,,,,,,,,,,under,D_new,126,343,1659.6223079700576,None,1659.6223079700576,None,1659.6223079700576,None,2,3.4782558528968366,1659.6223079700576,None,1663.156835089947,None,1663.156835089947,None,1663.6735061055224,None,1663.6735061055224,None,1663.6735061055224,None,n,0.26705036526254844,1663.6735061055224,None,sing32,001,2019_Nov_12_1016,ProdFawcett_Revision2019,3.2.4,59.9205189664144,
,,,,127,0,127,0,,,,,,,,,,,,,1668.7417551504914,None,,,,,,,,,,,,,,,,,,,,,,treatment,D_new,127,339,1664.4933091702405,None,1664.4933091702405,None,1664.4933091702405,None,5,2.3825723376940005,1664.4933091702405,None,1666.941443771182,None,1666.941443771182,None,1667.463648207311,None,1667.463648207311,None,1667.463648207311,None,f,1.2369841613835888,1667.463648207311,None,sing32,001,2019_Nov_12_1016,ProdFawcett_Revision2019,3.2.4,59.9205189664144,
,,,,128,0,128,0,,,,,,,,,,,,,1673.5600635198934,None,,,,,,,,,,,,,,,,,,,,,,fellow,A_silent,128,126,1669.258875258878,None,1669.258875258878,None,1669.258875258878,None,2,3.4648210113227833,1669.258875258878,None,1672.7647524966742,None,1672.7647524966742,None,1673.2932224617398,None,1673.2932224617398,None,1673.2932224617398,None,n,0.2302872670115903,1673.2932224617398,None,sing32,001,2019_Nov_12_1016,ProdFawcett_Revision2019,3.2.4,59.9205189664144,
,,,,129,0,129,0,,,,,,,,,,,,,1676.6611663164222,None,,,,,,,,,,,,,,,,,,,,,,smooth,A_silent,129,292,1674.0778152816638,None,1674.0778152816638,None,1674.0778152816638,None,6,1.7017407944513252,1674.0778152816638,None,1675.8332652748359,None,1675.8332652748359,None,1676.3609064086195,None,1676.3609064086195,None,1676.3609064086195,None,r,0.2670609394699568,1676.3609064086195,None,sing32,001,2019_Nov_12_1016,ProdFawcett_Revision2019,3.2.4,59.9205189664144,
,,,,130,0,130,0,,,,,,,,,,,,,1680.0288529690733,None,,,,,,,,,,,,,,,,,,,,,,junior,C_sing,130,167,1677.1822974704992,None,1677.1822974704992,None,1677.1822974704992,None,2,1.629664197389502,1677.1822974704992,None,1678.8617546777677,None,1678.8617546777677,None,1679.3804503430583,None,1679.3804503430583,None,1679.3804503430583,None,n,0.6074592947406927,1679.3804503430583,None,sing32,001,2019_Nov_12_1016,ProdFawcett_Revision2019,3.2.4,59.9205189664144,
,,,,131,0,131,0,,,,,,,,,,,,,1682.796374975078,None,,,,,,,,,,,,,,,,,,,,,,colonel,D_new,131,55,1680.5468790382147,None,1680.5468790382147,None,1680.5468790382147,None,1,1.3361979068577057,1680.5468790382147,None,1681.9463841031102,None,1681.9463841031102,None,1682.4630460995104,None,1682.4630460995104,None,1682.4630460995104,None,n,0.30020423770474736,1682.4630460995104,None,sing32,001,2019_Nov_12_1016,ProdFawcett_Revision2019,3.2.4,59.9205189664144,
,,,,132,0,132,0,,,,,,,,,,,,,1689.7318023332336,None,,,,,,,,,,,,,,,,,,,,,,notice,D_new,132,201,1683.314968630366,None,1683.314968630366,None,1683.314968630366,None,2,5.560386344222934,1683.314968630366,None,1688.9316134903202,None,1688.9316134903202,None,1689.4485012771474,None,1689.4485012771474,None,1689.4485012771474,None,n,0.25048711331328377,1689.4485012771474,None,sing32,001,2019_Nov_12_1016,ProdFawcett_Revision2019,3.2.4,59.9205189664144,
,,,,133,0,133,0,,,,,,,,,,,,,1692.7327782703796,None,,,,,,,,,,,,,,,,,,,,,,drove,D_new,133,106,1690.248744235112,None,1690.248744235112,None,1690.248744235112,None,2,1.5459388667804888,1690.248744235112,None,1691.8394773107138,None,1691.8394773107138,None,1692.366093368386,None,1692.366093368386,None,1692.366093368386,None,n,0.33319389892858453,1692.366093368386,None,sing32,001,2019_Nov_12_1016,ProdFawcett_Revision2019,3.2.4,59.9205189664144,
,,,,134,0,134,0,,,,,,,,,,,,,1696.8341917620128,None,,,,,,,,,,,,,,,,,,,,,,stand,D_new,134,302,1693.2500022547902,None,1693.2500022547902,None,1693.2500022547902,None,2,2.7287924161792034,1693.2500022547902,None,1696.0339516030945,None,1696.0339516030945,None,1696.5506742456782,None,1696.5506742456782,None,1696.5506742456782,None,n,0.2442651252495125,1696.5506742456782,None,sing32,001,2019_Nov_12_1016,ProdFawcett_Revision2019,3.2.4,59.9205189664144,
,,,,135,0,135,0,,,,,,,,,,,,,1699.7350965098594,None,,,,,,,,,,,,,,,,,,,,,,display,D_new,135,98,1697.352085342558,None,1697.352085342558,None,1697.352085342558,None,1,1.4829044611105928,1697.352085342558,None,1698.884743937786,None,1698.884743937786,None,1699.4015001690277,None,1699.4015001690277,None,1699.4015001690277,None,n,0.289664240917773,1699.4015001690277,None,sing32,001,2019_Nov_12_1016,ProdFawcett_Revision2019,3.2.4,59.9205189664144,
,,,,136,0,136,0,,,,,,,,,,,,,1703.3528158958943,None,,,,,,,,,,,,,,,,,,,,,,present,A_silent,136,231,1700.2531720289844,None,1700.2531720289844,None,1700.2531720289844,None,3,2.0528934297180967,1700.2531720289844,None,1702.369419267634,None,1702.369419267634,None,1702.8860019574786,None,1702.8860019574786,None,1702.8860019574786,None,f,0.42003737672348507,1702.8860019574786,None,sing32,001,2019_Nov_12_1016,ProdFawcett_Revision2019,3.2.4,59.9205189664144,
,,,,137,0,137,0,,,,,,,,,,,,,1706.6204932494584,None,,,,,,,,,,,,,,,,,,,,,,watch,A_silent,137,351,1703.8696293522662,None,1703.8696293522662,None,1703.8696293522662,None,2,1.8606714435154572,1703.8696293522662,None,1705.786909193368,None,1705.786909193368,None,1706.3038632245007,None,1706.3038632245007,None,1706.3038632245007,None,n,0.2827272498252569,1706.3038632245007,None,sing32,001,2019_Nov_12_1016,ProdFawcett_Revision2019,3.2.4,59.9205189664144,
,,,,138,0,138,0,,,,,,,,,,,,,1713.5395414712693,None,,,,,,,,,,,,,,,,,,,,,,symbol,C_sing,138,321,1707.1382375470857,None,1707.1382375470857,None,1707.1382375470857,None,4,5.671300450252602,1707.1382375470857,None,1712.859857851552,None,1712.859857851552,None,1713.3725980610034,None,1713.3725980610034,None,1713.3725980610034,None,f,0.12589433691755403,1713.3725980610034,None,sing32,001,2019_Nov_12_1016,ProdFawcett_Revision2019,3.2.4,59.9205189664144,
,,,,139,0,139,0,,,,,,,,,,,,,1720.8254008635413,None,,,,,,,,,,,,,,,,,,,,,,debate,A_silent,139,87,1714.0563129418006,None,1714.0563129418006,None,1714.0563129418006,None,6,5.94546912315127,1714.0563129418006,None,1720.047859173952,None,1720.047859173952,None,1720.5750465498422,None,1720.5750465498422,None,1720.5750465498422,None,r,0.20222269839723594,1720.5750465498422,None,sing32,001,2019_Nov_12_1016,ProdFawcett_Revision2019,3.2.4,59.9205189664144,
,,,,140,0,140,0,,,,,,,,,,,,,1723.9765115751798,None,,,,,,,,,,,,,,,,,,,,,,budget,B_aloud,140,34,1721.342010299908,None,1721.342010299908,None,1721.342010299908,None,6,1.8836541724012932,1721.342010299908,None,1723.275784971629,None,1723.275784971629,None,1723.7927529980225,None,1723.7927529980225,None,1723.7927529980225,None,r,0.14475996703549754,1723.7927529980225,None,sing32,001,2019_Nov_12_1016,ProdFawcett_Revision2019,3.2.4,59.9205189664144,
,,,,141,0,141,0,,,,,,,,,,,,,1727.06037841356,None,,,,,,,,,,,,,,,,,,,,,,alert,B_aloud,141,6,1724.4945790081547,None,1724.4945790081547,None,1724.4945790081547,None,2,1.7943985313177109,1724.4945790081547,None,1726.343561287329,None,1726.343561287329,None,1726.8604114424088,None,1726.8604114424088,None,1726.8604114424088,None,n,0.15729848903720267,1726.8604114424088,None,sing32,001,2019_Nov_12_1016,ProdFawcett_Revision2019,3.2.4,59.9205189664144,
,,,,142,0,142,0,,,,,,,,,,,,,1730.0947819085268,None,,,,,,,,,,,,,,,,,,,,,,appearance,D_new,142,10,1727.5793465202005,None,1727.5793465202005,None,1727.5793465202005,None,2,1.606419290343183,1727.5793465202005,None,1729.2339450097643,None,1729.2339450097643,None,1729.7612807355617,None,1729.7612807355617,None,1729.7612807355617,None,n,0.2874520545155974,1729.7612807355617,None,sing32,001,2019_Nov_12_1016,ProdFawcett_Revision2019,3.2.4,59.9205189664144,
,,,,143,0,143,0,,,,,,,,,,,,,1733.3458375409828,None,,,,,,,,,,,,,,,,,,,,,,collection,A_silent,143,54,1730.614515090172,None,1730.614515090172,None,1730.614515090172,None,1,1.9067081217071973,1730.614515090172,None,1732.5788784560136,None,1732.5788784560136,None,1733.0964377050113,None,1733.0964377050113,None,1733.0964377050113,None,n,0.2164300791482674,1733.0964377050113,None,sing32,001,2019_Nov_12_1016,ProdFawcett_Revision2019,3.2.4,59.9205189664144,
,,,,144,0,144,0,,,,,,,,,,,,,1735.3464468019374,None,,,,,,,,,,,,,,,,,,,,,,crime,B_aloud,144,78,1733.8633700434584,None,1733.8633700434584,None,1733.8633700434584,None,1,0.8097109167283634,1733.8633700434584,None,1734.7295817496633,None,1734.7295817496633,None,1735.2463022152078,None,1735.2463022152078,None,1735.2463022152078,None,n,0.05924448532459792,1735.2463022152078,None,sing32,001,2019_Nov_12_1016,ProdFawcett_Revision2019,3.2.4,59.9205189664144,
,,,,145,0,145,0,,,,,,,,,,,,,1738.2139470064285,None,,,,,,,,,,,,,,,,,,,,,,comedy,D_new,145,58,1735.8645086367906,None,1735.8645086367906,None,1735.8645086367906,None,1,1.1119556654593907,1735.8645086367906,None,1737.019248789642,None,1737.019248789642,None,1737.5471632978006,None,1737.5471632978006,None,1737.5471632978006,None,n,0.6212539703701623,1737.5471632978006,None,sing32,001,2019_Nov_12_1016,ProdFawcett_Revision2019,3.2.4,59.9205189664144,
,,,,146,0,146,0,,,,,,,,,,,,,1742.1820256511564,None,,,,,,,,,,,,,,,,,,,,,,appeal,D_new,146,9,1738.7308568746812,None,1738.7308568746812,None,1738.7308568746812,None,2,2.7898394928633934,1738.7308568746812,None,1741.581677821945,None,1741.581677821945,None,1742.098586446169,None,1742.098586446169,None,1742.098586446169,None,n,0.04563019321358297,1742.098586446169,None,sing32,001,2019_Nov_12_1016,ProdFawcett_Revision2019,3.2.4,59.9205189664144,
,,,,147,0,147,0,,,,,,,,,,,,,1745.366322579881,None,,,,,,,,,,,,,,,,,,,,,,institute,D_new,147,162,1742.701445649669,None,1742.701445649669,None,1742.701445649669,None,3,1.7868544562952593,1742.701445649669,None,1744.5500478793983,None,1744.5500478793983,None,1745.066179921385,None,1745.066179921385,None,1745.066179921385,None,f,0.2538621515122941,1745.066179921385,None,sing32,001,2019_Nov_12_1016,ProdFawcett_Revision2019,3.2.4,59.9205189664144,
,,,,148,0,148,0,,,,,,,,,,,,,1749.1842281963764,None,,,,,,,,,,,,,,,,,,,,,,cover,D_new,148,77,1745.8836575934838,None,1745.8836575934838,None,1745.8836575934838,None,2,2.612259673929657,1745.8836575934838,None,1748.539283647202,None,1748.539283647202,None,1749.067431098927,None,1749.067431098927,None,1749.067431098927,None,n,0.0767475977045251,1749.067431098927,None,sing32,001,2019_Nov_12_1016,ProdFawcett_Revision2019,3.2.4,59.9205189664144,
,,,,149,0,149,0,,,,,,,,,,,,,1755.7029207516025,None,,,,,,,,,,,,,,,,,,,,,,captain,C_sing,149,41,1749.7022427582997,None,1749.7022427582997,None,1749.7022427582997,None,5,5.233957761025522,1749.7022427582997,None,1754.9860305389302,None,1754.9860305389302,None,1755.5028673207562,None,1755.5028673207562,None,1755.5028673207562,None,f,0.15275002480484545,1755.5028673207562,None,sing32,001,2019_Nov_12_1016,ProdFawcett_Revision2019,3.2.4,59.9205189664144,
,,,,150,0,150,0,,,,,,,,,,,,,1762.005029279666,None,,,,,,,,,,,,,,,,,,,,,,trash,D_new,150,337,1756.2197404280887,None,1756.2197404280887,None,1756.2197404280887,None,3,5.084106313079246,1756.2197404280887,None,1761.3546872196166,None,1761.3546872196166,None,1761.8715277334995,None,1761.8715277334995,None,1761.8715277334995,None,f,0.09564961554133333,1761.8715277334995,None,sing32,001,2019_Nov_12_1016,ProdFawcett_Revision2019,3.2.4,59.9205189664144,
,,,,151,0,151,0,,,,,,,,,,,,,1765.9894086872082,None,,,,,,,,,,,,,,,,,,,,,,center,A_silent,151,44,1762.5229751092556,None,1762.5229751092556,None,1762.5229751092556,None,2,1.2200809797650436,1762.5229751092556,None,1763.8054006831517,None,1763.8054006831517,None,1764.3223696425703,None,1764.3223696425703,None,1764.3223696425703,None,f,1.6205862402857747,1764.3223696425703,None,sing32,001,2019_Nov_12_1016,ProdFawcett_Revision2019,3.2.4,59.9205189664144,
,,,,152,0,152,0,,,,,,,,,,,,,1768.440363802496,None,,,,,,,,,,,,,,,,,,,,,,angle,C_sing,152,7,1766.506228674698,None,1766.506228674698,None,1766.506228674698,None,1,1.1735037729667965,1766.506228674698,None,1767.728505357547,None,1767.728505357547,None,1768.2401517585386,None,1768.2401517585386,None,1768.2401517585386,None,n,0.15933153593505267,1768.2401517585386,None,sing32,001,2019_Nov_12_1016,ProdFawcett_Revision2019,3.2.4,59.9205189664144,
,,,,153,0,153,0,,,,,,,,,,,,,1771.807978301731,None,,,,,,,,,,,,,,,,,,,,,,pretty,B_aloud,153,233,1768.962395941242,None,1768.962395941242,None,1768.962395941242,None,6,1.3163740669551771,1768.962395941242,None,1770.340936084831,None,1770.340936084831,None,1770.8576375789999,None,1770.8576375789999,None,1770.8576375789999,None,r,0.9098029434244381,1770.8576375789999,None,sing32,001,2019_Nov_12_1016,ProdFawcett_Revision2019,3.2.4,59.9205189664144,
