StudyTrials.thisRepN,StudyTrials.thisTrialN,StudyTrials.thisN,StudyTrials.thisIndex,TestTrials.thisRepN,TestTrials.thisTrialN,TestTrials.thisN,TestTrials.thisIndex,textWelcome.started,textWelcome.stopped,keyWelcome.keys,keyWelcome.rt,keyWelcome.started,keyWelcome.stopped,textReady.started,textReady.stopped,keyReady.keys,keyReady.rt,keyReady.started,keyReady.stopped,polyback_2.started,polyback_2.stopped,studyPic,studyWord,studyType,studyN,studyOrder,polyback_3.started,polyback_3.stopped,studyPicChoice.started,studyPicChoice.stopped,polyback_4.started,polyback_4.stopped,polyback.started,polyback.stopped,studyWords.started,studyWords.stopped,getResearcher.started,getResearcher.stopped,kPress2.keys,kPress2.rt,kPress2.started,kPress2.stopped,testWord,testType,testN,testOrder,polyback_5.started,polyback_5.stopped,testWords.started,testWords.stopped,textScale.started,textScale.stopped,keyConf.keys,keyConf.rt,keyConf.started,keyConf.stopped,polyback_6.started,polyback_6.stopped,studyWords_2.started,studyWords_2.stopped,polyback_7.started,polyback_7.stopped,testWords_2.started,testWords_2.stopped,textScale_2.started,textScale_2.stopped,keyRKN.keys,keyRKN.rt,keyRKN.started,keyRKN.stopped,participant,session,date,expName,psychopyVersion,frameRate,
,,,,,,,,11.1434323178255,None,space,651.6341770699364,11.1434323178255,None,,,,,,,,,,,,,,,,,,,,,,,,,,,,,,,,,,,,,,,,,,,,,,,,,,,,,,,,,,sing2,001,2019_Oct_22_1252,ProdFawcett_Revision2019,3.2.4,59.97864181308594,
,,,,,,,,,,,,,,662.8067934536957,None,space,13.873702618526295,662.8067934536957,None,,,,,,,,,,,,,,,,,,,,,,,,,,,,,,,,,,,,,,,,,,,,,,,,,,,,sing2,001,2019_Oct_22_1252,ProdFawcett_Revision2019,3.2.4,59.97864181308594,
0,0,0,0,,,,,,,,,,,,,,,,,681.4960087627987,None,materials/speakPic.jpg,subject,B_aloud,0,312,677.8622717599501,None,677.8622717599501,None,678.7454555689474,None,679.0158103811555,None,679.0158103811555,None,,,,,,,,,,,,,,,,,,,,,,,,,,,,,,,,,,,sing2,001,2019_Oct_22_1252,ProdFawcett_Revision2019,3.2.4,59.97864181308594,
1,0,1,0,,,,,,,,,,,,,,,,,685.764088288357,None,materials/speakPic.jpg,contract,B_aloud,1,68,682.0458322850172,None,682.0458322850172,None,683.0149196729762,None,683.279632607766,None,683.279632607766,None,,,,,,,,,,,,,,,,,,,,,,,,,,,,,,,,,,,sing2,001,2019_Oct_22_1252,ProdFawcett_Revision2019,3.2.4,59.97864181308594,
2,0,2,0,,,,,,,,,,,,,,,,,690.0318359753583,None,materials/singPic.jpg,measure,C_sing,2,184,686.3742103284458,None,686.3742103284458,None,687.2827681244817,None,687.5367089016945,None,687.5367089016945,None,,,,,,,,,,,,,,,,,,,,,,,,,,,,,,,,,,,sing2,001,2019_Oct_22_1252,ProdFawcett_Revision2019,3.2.4,59.97864181308594,
3,0,3,0,,,,,,,,,,,,,,,,,694.2996685657417,None,materials/singPic.jpg,rapid,C_sing,3,252,690.6151695937733,None,690.6151695937733,None,691.5505142564652,None,691.8004182347795,None,691.8004182347795,None,,,,,,,,,,,,,,,,,,,,,,,,,,,,,,,,,,,sing2,001,2019_Oct_22_1252,ProdFawcett_Revision2019,3.2.4,59.97864181308594,
4,0,4,0,,,,,,,,,,,,,,,,,698.5676998861018,None,materials/singPic.jpg,burden,C_sing,4,36,694.850056555646,None,694.850056555646,None,695.8186031120713,None,696.0717732277117,None,696.0717732277117,None,,,,,,,,,,,,,,,,,,,,,,,,,,,,,,,,,,,sing2,001,2019_Oct_22_1252,ProdFawcett_Revision2019,3.2.4,59.97864181308594,
5,0,5,0,,,,,,,,,,,,,,,,,702.8359025682439,None,materials/singPic.jpg,guide,C_sing,5,147,699.1367843506741,None,699.1367843506741,None,700.0851832996123,None,700.3515149969608,None,700.3515149969608,None,,,,,,,,,,,,,,,,,,,,,,,,,,,,,,,,,,,sing2,001,2019_Oct_22_1252,ProdFawcett_Revision2019,3.2.4,59.97864181308594,
6,0,6,0,,,,,,,,,,,,,,,,,707.1037410676363,None,materials/singPic.jpg,majority,C_sing,6,176,703.418969036371,None,703.418969036371,None,704.3529717277852,None,704.619311200222,None,704.619311200222,None,,,,,,,,,,,,,,,,,,,,,,,,,,,,,,,,,,,sing2,001,2019_Oct_22_1252,ProdFawcett_Revision2019,3.2.4,59.97864181308594,
7,0,7,0,,,,,,,,,,,,,,,,,711.371682197554,None,materials/speakPic.jpg,patient,B_aloud,7,213,707.7218275440973,None,707.7218275440973,None,708.6224663099856,None,708.8873901037732,None,708.8873901037732,None,,,,,,,,,,,,,,,,,,,,,,,,,,,,,,,,,,,sing2,001,2019_Oct_22_1252,ProdFawcett_Revision2019,3.2.4,59.97864181308594,
8,0,8,0,,,,,,,,,,,,,,,,,715.6395567731815,None,materials/readPic.jpg,figure,A_silent,8,128,711.9899210647563,None,711.9899210647563,None,712.8886860468192,None,713.1553275016486,None,713.1553275016486,None,,,,,,,,,,,,,,,,,,,,,,,,,,,,,,,,,,,sing2,001,2019_Oct_22_1252,ProdFawcett_Revision2019,3.2.4,59.97864181308594,
9,0,9,0,,,,,,,,,,,,,,,,,719.9073293402907,None,materials/speakPic.jpg,broke,B_aloud,9,32,716.2248148685903,None,716.2248148685903,None,717.1584023730829,None,717.4233759270865,None,717.4233759270865,None,,,,,,,,,,,,,,,,,,,,,,,,,,,,,,,,,,,sing2,001,2019_Oct_22_1252,ProdFawcett_Revision2019,3.2.4,59.97864181308594,
10,0,10,0,,,,,,,,,,,,,,,,,724.1755768066505,None,materials/readPic.jpg,plane,A_silent,10,223,720.476548779523,None,720.476548779523,None,721.4265851511154,None,721.6912865788327,None,721.6912865788327,None,,,,,,,,,,,,,,,,,,,,,,,,,,,,,,,,,,,sing2,001,2019_Oct_22_1252,ProdFawcett_Revision2019,3.2.4,59.97864181308594,
11,0,11,0,,,,,,,,,,,,,,,,,728.4437281735591,None,materials/speakPic.jpg,personnel,B_aloud,11,219,724.7474260741728,None,724.7474260741728,None,725.6943194650812,None,725.9591456043418,None,725.9591456043418,None,,,,,,,,,,,,,,,,,,,,,,,,,,,,,,,,,,,sing2,001,2019_Oct_22_1252,ProdFawcett_Revision2019,3.2.4,59.97864181308594,
12,0,12,0,,,,,,,,,,,,,,,,,732.7115200227709,None,materials/singPic.jpg,career,C_sing,12,42,729.049051461101,None,729.049051461101,None,729.9604294183664,None,730.2272643161123,None,730.2272643161123,None,,,,,,,,,,,,,,,,,,,,,,,,,,,,,,,,,,,sing2,001,2019_Oct_22_1252,ProdFawcett_Revision2019,3.2.4,59.97864181308594,
13,0,13,0,,,,,,,,,,,,,,,,,736.979524907947,None,materials/speakPic.jpg,stand,B_aloud,13,302,733.333482510352,None,733.333482510352,None,734.2299028525013,None,734.4954638882191,None,734.4954638882191,None,,,,,,,,,,,,,,,,,,,,,,,,,,,,,,,,,,,sing2,001,2019_Oct_22_1252,ProdFawcett_Revision2019,3.2.4,59.97864181308594,
14,0,14,0,,,,,,,,,,,,,,,,,741.2473310632631,None,materials/speakPic.jpg,symbol,B_aloud,14,321,737.5489113549702,None,737.5489113549702,None,738.4974207094056,None,738.7631294708699,None,738.7631294708699,None,,,,,,,,,,,,,,,,,,,,,,,,,,,,,,,,,,,sing2,001,2019_Oct_22_1252,ProdFawcett_Revision2019,3.2.4,59.97864181308594,
15,0,15,0,,,,,,,,,,,,,,,,,745.5153965937207,None,materials/readPic.jpg,danger,A_silent,15,85,741.8567241159035,None,741.8567241159035,None,742.7664130242774,None,743.0310475866427,None,743.0310475866427,None,,,,,,,,,,,,,,,,,,,,,,,,,,,,,,,,,,,sing2,001,2019_Oct_22_1252,ProdFawcett_Revision2019,3.2.4,59.97864181308594,
16,0,16,0,,,,,,,,,,,,,,,,,749.7833940149285,None,materials/speakPic.jpg,minor,B_aloud,16,191,746.116632078134,None,746.116632078134,None,747.0342054954381,None,747.2990960120806,None,747.2990960120806,None,,,,,,,,,,,,,,,,,,,,,,,,,,,,,,,,,,,sing2,001,2019_Oct_22_1252,ProdFawcett_Revision2019,3.2.4,59.97864181308594,
17,0,17,0,,,,,,,,,,,,,,,,,754.0512144762324,None,materials/singPic.jpg,victory,C_sing,17,346,750.4011209736927,None,750.4011209736927,None,751.3021233002655,None,751.5670682421187,None,751.5670682421187,None,,,,,,,,,,,,,,,,,,,,,,,,,,,,,,,,,,,sing2,001,2019_Oct_22_1252,ProdFawcett_Revision2019,3.2.4,59.97864181308594,
18,0,18,0,,,,,,,,,,,,,,,,,758.3194989517797,None,materials/speakPic.jpg,couch,B_aloud,18,70,754.6417586635216,None,754.6417586635216,None,755.5681810053647,None,755.821658079396,None,755.821658079396,None,,,,,,,,,,,,,,,,,,,,,,,,,,,,,,,,,,,sing2,001,2019_Oct_22_1252,ProdFawcett_Revision2019,3.2.4,59.97864181308594,
19,0,19,0,,,,,,,,,,,,,,,,,762.5871545823757,None,materials/singPic.jpg,history,C_sing,19,153,758.9428758740542,None,758.9428758740542,None,759.8370666466653,None,760.0862254654639,None,760.0862254654639,None,,,,,,,,,,,,,,,,,,,,,,,,,,,,,,,,,,,sing2,001,2019_Oct_22_1252,ProdFawcett_Revision2019,3.2.4,59.97864181308594,
20,0,20,0,,,,,,,,,,,,,,,,,766.8551280564279,None,materials/readPic.jpg,committee,A_silent,20,62,763.1888777170097,None,763.1888777170097,None,764.1067702218425,None,764.3709675162099,None,764.3709675162099,None,,,,,,,,,,,,,,,,,,,,,,,,,,,,,,,,,,,sing2,001,2019_Oct_22_1252,ProdFawcett_Revision2019,3.2.4,59.97864181308594,
21,0,21,0,,,,,,,,,,,,,,,,,771.1231037075049,None,materials/singPic.jpg,clear,C_sing,21,52,767.4739416542579,None,767.4739416542579,None,768.3732583529782,None,768.6388753689826,None,768.6388753689826,None,,,,,,,,,,,,,,,,,,,,,,,,,,,,,,,,,,,sing2,001,2019_Oct_22_1252,ProdFawcett_Revision2019,3.2.4,59.97864181308594,
22,0,22,0,,,,,,,,,,,,,,,,,775.3914519383106,None,materials/singPic.jpg,hearing,C_sing,22,150,771.6762079840992,None,771.6762079840992,None,772.6409170935513,None,772.8970022258582,None,772.8970022258582,None,,,,,,,,,,,,,,,,,,,,,,,,,,,,,,,,,,,sing2,001,2019_Oct_22_1252,ProdFawcett_Revision2019,3.2.4,59.97864181308594,
23,0,23,0,,,,,,,,,,,,,,,,,779.6590369715705,None,materials/singPic.jpg,music,C_sing,23,196,775.9742898204131,None,775.9742898204131,None,776.9088675535168,None,777.17481920711,None,777.17481920711,None,,,,,,,,,,,,,,,,,,,,,,,,,,,,,,,,,,,sing2,001,2019_Oct_22_1252,ProdFawcett_Revision2019,3.2.4,59.97864181308594,
24,0,24,0,,,,,,,,,,,,,,,,,783.9271898934385,None,materials/readPic.jpg,whole,A_silent,24,355,780.2940008751466,None,780.2940008751466,None,781.1765891163959,None,781.4427684230614,None,781.4427684230614,None,,,,,,,,,,,,,,,,,,,,,,,,,,,,,,,,,,,sing2,001,2019_Oct_22_1252,ProdFawcett_Revision2019,3.2.4,59.97864181308594,
25,0,25,0,,,,,,,,,,,,,,,,,788.1949201643583,None,materials/speakPic.jpg,carry,B_aloud,25,43,784.5297238089261,None,784.5297238089261,None,785.4460684595397,None,785.7107611792162,None,785.7107611792162,None,,,,,,,,,,,,,,,,,,,,,,,,,,,,,,,,,,,sing2,001,2019_Oct_22_1252,ProdFawcett_Revision2019,3.2.4,59.97864181308594,
26,0,26,0,,,,,,,,,,,,,,,,,792.4633293515071,None,materials/speakPic.jpg,mayor,B_aloud,26,183,788.7615054212511,None,788.7615054212511,None,789.7128436449566,None,789.9786494388245,None,789.9786494388245,None,,,,,,,,,,,,,,,,,,,,,,,,,,,,,,,,,,,sing2,001,2019_Oct_22_1252,ProdFawcett_Revision2019,3.2.4,59.97864181308594,
27,0,27,0,,,,,,,,,,,,,,,,,796.730877686583,None,materials/readPic.jpg,department,A_silent,27,90,793.098152682418,None,793.098152682418,None,793.9808612812194,None,794.2465983437723,None,794.2465983437723,None,,,,,,,,,,,,,,,,,,,,,,,,,,,,,,,,,,,sing2,001,2019_Oct_22_1252,ProdFawcett_Revision2019,3.2.4,59.97864181308594,
28,0,28,0,,,,,,,,,,,,,,,,,800.9988306345185,None,materials/speakPic.jpg,service,B_aloud,28,280,797.3218078266364,None,797.3218078266364,None,798.2480787107488,None,798.5146047840244,None,798.5146047840244,None,,,,,,,,,,,,,,,,,,,,,,,,,,,,,,,,,,,sing2,001,2019_Oct_22_1252,ProdFawcett_Revision2019,3.2.4,59.97864181308594,
29,0,29,0,,,,,,,,,,,,,,,,,805.2667826495017,None,materials/speakPic.jpg,addition,B_aloud,29,2,801.5704839711543,None,801.5704839711543,None,802.51687105163,None,802.7826028271811,None,802.7826028271811,None,,,,,,,,,,,,,,,,,,,,,,,,,,,,,,,,,,,sing2,001,2019_Oct_22_1252,ProdFawcett_Revision2019,3.2.4,59.97864181308594,
30,0,30,0,,,,,,,,,,,,,,,,,809.534733731416,None,materials/singPic.jpg,under,C_sing,30,343,805.890321292507,None,805.890321292507,None,806.7874569379492,None,807.0396138108335,None,807.0396138108335,None,,,,,,,,,,,,,,,,,,,,,,,,,,,,,,,,,,,sing2,001,2019_Oct_22_1252,ProdFawcett_Revision2019,3.2.4,59.97864181308594,
31,0,31,0,,,,,,,,,,,,,,,,,813.8027246216079,None,materials/singPic.jpg,discovery,C_sing,31,95,810.1179840014665,None,810.1179840014665,None,811.0543381749303,None,811.31852085219,None,811.31852085219,None,,,,,,,,,,,,,,,,,,,,,,,,,,,,,,,,,,,sing2,001,2019_Oct_22_1252,ProdFawcett_Revision2019,3.2.4,59.97864181308594,
32,0,32,0,,,,,,,,,,,,,,,,,818.0705301548587,None,materials/readPic.jpg,present,A_silent,32,231,814.4044657943305,None,814.4044657943305,None,815.3206546332221,None,815.5865272923838,None,815.5865272923838,None,,,,,,,,,,,,,,,,,,,,,,,,,,,,,,,,,,,sing2,001,2019_Oct_22_1252,ProdFawcett_Revision2019,3.2.4,59.97864181308594,
33,0,33,0,,,,,,,,,,,,,,,,,822.338647000608,None,materials/speakPic.jpg,childhood,B_aloud,33,49,818.6387864225544,None,818.6387864225544,None,819.5885494239046,None,819.854403423029,None,819.854403423029,None,,,,,,,,,,,,,,,,,,,,,,,,,,,,,,,,,,,sing2,001,2019_Oct_22_1252,ProdFawcett_Revision2019,3.2.4,59.97864181308594,
34,0,34,0,,,,,,,,,,,,,,,,,826.6065794224851,None,materials/readPic.jpg,heavy,A_silent,34,151,822.9449101345963,None,822.9449101345963,None,823.8557606333634,None,824.1223824950866,None,824.1223824950866,None,,,,,,,,,,,,,,,,,,,,,,,,,,,,,,,,,,,sing2,001,2019_Oct_22_1252,ProdFawcett_Revision2019,3.2.4,59.97864181308594,
35,0,35,0,,,,,,,,,,,,,,,,,830.8745578725357,None,materials/singPic.jpg,military,C_sing,35,190,827.225166611257,None,827.225166611257,None,828.1247840483557,None,828.3906029043137,None,828.3906029043137,None,,,,,,,,,,,,,,,,,,,,,,,,,,,,,,,,,,,sing2,001,2019_Oct_22_1252,ProdFawcett_Revision2019,3.2.4,59.97864181308594,
36,0,36,0,,,,,,,,,,,,,,,,,835.1425353896338,None,materials/singPic.jpg,collection,C_sing,36,54,831.4268625644036,None,831.4268625644036,None,832.3924941042205,None,832.6583459263202,None,832.6583459263202,None,,,,,,,,,,,,,,,,,,,,,,,,,,,,,,,,,,,sing2,001,2019_Oct_22_1252,ProdFawcett_Revision2019,3.2.4,59.97864181308594,
37,0,37,0,,,,,,,,,,,,,,,,,839.3941784881172,None,materials/speakPic.jpg,message,B_aloud,37,189,835.7107754852623,None,835.7107754852623,None,836.6444964093389,None,836.9096180000342,None,836.9096180000342,None,,,,,,,,,,,,,,,,,,,,,,,,,,,,,,,,,,,sing2,001,2019_Oct_22_1252,ProdFawcett_Revision2019,3.2.4,59.97864181308594,
38,0,38,0,,,,,,,,,,,,,,,,,843.6618378506973,None,materials/readPic.jpg,device,A_silent,38,93,839.9962617624551,None,839.9962617624551,None,840.9128004779341,None,841.1631124901469,None,841.1631124901469,None,,,,,,,,,,,,,,,,,,,,,,,,,,,,,,,,,,,sing2,001,2019_Oct_22_1252,ProdFawcett_Revision2019,3.2.4,59.97864181308594,
39,0,39,0,,,,,,,,,,,,,,,,,847.929729842348,None,materials/speakPic.jpg,debate,B_aloud,39,87,844.2464384890627,None,844.2464384890627,None,845.1810389252496,None,845.4455083459034,None,845.4455083459034,None,,,,,,,,,,,,,,,,,,,,,,,,,,,,,,,,,,,sing2,001,2019_Oct_22_1252,ProdFawcett_Revision2019,3.2.4,59.97864181308594,
40,0,40,0,,,,,,,,,,,,,,,,,852.1976691063028,None,materials/singPic.jpg,discussion,C_sing,40,96,848.5475622306112,None,848.5475622306112,None,849.4471215104568,None,849.71355490532,None,849.71355490532,None,,,,,,,,,,,,,,,,,,,,,,,,,,,,,,,,,,,sing2,001,2019_Oct_22_1252,ProdFawcett_Revision2019,3.2.4,59.97864181308594,
41,0,41,0,,,,,,,,,,,,,,,,,856.4660577672767,None,materials/readPic.jpg,universal,A_silent,41,345,852.7993813559297,None,852.7993813559297,None,853.7162276518065,None,853.981431035907,None,853.981431035907,None,,,,,,,,,,,,,,,,,,,,,,,,,,,,,,,,,,,sing2,001,2019_Oct_22_1252,ProdFawcett_Revision2019,3.2.4,59.97864181308594,
42,0,42,0,,,,,,,,,,,,,,,,,860.7335725142038,None,materials/singPic.jpg,century,C_sing,42,45,857.0844704842311,None,857.0844704842311,None,857.9844396639965,None,858.2494558251929,None,858.2494558251929,None,,,,,,,,,,,,,,,,,,,,,,,,,,,,,,,,,,,sing2,001,2019_Oct_22_1252,ProdFawcett_Revision2019,3.2.4,59.97864181308594,
43,0,43,0,,,,,,,,,,,,,,,,,865.0016629248275,None,materials/speakPic.jpg,government,B_aloud,43,139,861.3352779218112,None,861.3352779218112,None,862.2515581950429,None,862.517451691383,None,862.517451691383,None,,,,,,,,,,,,,,,,,,,,,,,,,,,,,,,,,,,sing2,001,2019_Oct_22_1252,ProdFawcett_Revision2019,3.2.4,59.97864181308594,
44,0,44,0,,,,,,,,,,,,,,,,,869.2696777620586,None,materials/singPic.jpg,council,C_sing,44,71,865.6195233031758,None,865.6195233031758,None,866.5202447954798,None,866.7853502141079,None,866.7853502141079,None,,,,,,,,,,,,,,,,,,,,,,,,,,,,,,,,,,,sing2,001,2019_Oct_22_1252,ProdFawcett_Revision2019,3.2.4,59.97864181308594,
45,0,45,0,,,,,,,,,,,,,,,,,873.537500711449,None,materials/singPic.jpg,phrase,C_sing,45,220,869.8404316824744,None,869.8404316824744,None,870.7882338195923,None,871.053358520323,None,871.053358520323,None,,,,,,,,,,,,,,,,,,,,,,,,,,,,,,,,,,,sing2,001,2019_Oct_22_1252,ProdFawcett_Revision2019,3.2.4,59.97864181308594,
46,0,46,0,,,,,,,,,,,,,,,,,877.805497199588,None,materials/readPic.jpg,region,A_silent,46,256,874.1391992769786,None,874.1391992769786,None,875.0576518954476,None,875.30458674283,None,875.30458674283,None,,,,,,,,,,,,,,,,,,,,,,,,,,,,,,,,,,,sing2,001,2019_Oct_22_1252,ProdFawcett_Revision2019,3.2.4,59.97864181308594,
47,0,47,0,,,,,,,,,,,,,,,,,882.0734526355518,None,materials/readPic.jpg,curve,A_silent,47,82,878.390112455003,None,878.390112455003,None,879.3242734461674,None,879.5892662822735,None,879.5892662822735,None,,,,,,,,,,,,,,,,,,,,,,,,,,,,,,,,,,,sing2,001,2019_Oct_22_1252,ProdFawcett_Revision2019,3.2.4,59.97864181308594,
48,0,48,0,,,,,,,,,,,,,,,,,886.3415909404284,None,materials/singPic.jpg,trash,C_sing,48,337,882.6630771915079,None,882.6630771915079,None,883.5933313823189,None,883.8572618374019,None,883.8572618374019,None,,,,,,,,,,,,,,,,,,,,,,,,,,,,,,,,,,,sing2,001,2019_Oct_22_1252,ProdFawcett_Revision2019,3.2.4,59.97864181308594,
49,0,49,0,,,,,,,,,,,,,,,,,890.6093579095323,None,materials/readPic.jpg,payment,A_silent,49,215,886.943523379101,None,886.943523379101,None,887.8589365803055,None,888.12513205898,None,888.12513205898,None,,,,,,,,,,,,,,,,,,,,,,,,,,,,,,,,,,,sing2,001,2019_Oct_22_1252,ProdFawcett_Revision2019,3.2.4,59.97864181308594,
50,0,50,0,,,,,,,,,,,,,,,,,894.8773208095226,None,materials/singPic.jpg,chief,C_sing,50,48,891.232271750574,None,891.232271750574,None,892.1281288690516,None,892.3933251000708,None,892.3933251000708,None,,,,,,,,,,,,,,,,,,,,,,,,,,,,,,,,,,,sing2,001,2019_Oct_22_1252,ProdFawcett_Revision2019,3.2.4,59.97864181308594,
51,0,51,0,,,,,,,,,,,,,,,,,899.1453061016509,None,materials/speakPic.jpg,conference,B_aloud,51,66,895.4795546085807,None,895.4795546085807,None,896.3960640899604,None,896.6498188882833,None,896.6498188882833,None,,,,,,,,,,,,,,,,,,,,,,,,,,,,,,,,,,,sing2,001,2019_Oct_22_1252,ProdFawcett_Revision2019,3.2.4,59.97864181308594,
52,0,52,0,,,,,,,,,,,,,,,,,903.4131987153087,None,materials/singPic.jpg,order,C_sing,52,207,899.7632488954114,None,899.7632488954114,None,900.6647276762524,None,900.9290353761171,None,900.9290353761171,None,,,,,,,,,,,,,,,,,,,,,,,,,,,,,,,,,,,sing2,001,2019_Oct_22_1252,ProdFawcett_Revision2019,3.2.4,59.97864181308594,
53,0,53,0,,,,,,,,,,,,,,,,,907.6648063596222,None,materials/speakPic.jpg,provision,B_aloud,53,243,903.9983837254113,None,903.9983837254113,None,904.9136059717275,None,905.1637571962201,None,905.1637571962201,None,,,,,,,,,,,,,,,,,,,,,,,,,,,,,,,,,,,sing2,001,2019_Oct_22_1252,ProdFawcett_Revision2019,3.2.4,59.97864181308594,
54,0,54,0,,,,,,,,,,,,,,,,,911.9324545261334,None,materials/readPic.jpg,drama,A_silent,54,103,908.2704229215742,None,908.2704229215742,None,909.1832485906198,None,909.4490490974858,None,909.4490490974858,None,,,,,,,,,,,,,,,,,,,,,,,,,,,,,,,,,,,sing2,001,2019_Oct_22_1252,ProdFawcett_Revision2019,3.2.4,59.97864181308594,
55,0,55,0,,,,,,,,,,,,,,,,,916.2004870905075,None,materials/readPic.jpg,sweet,A_silent,55,319,912.5158326177625,None,912.5158326177625,None,913.4509527374175,None,913.7050959765911,None,913.7050959765911,None,,,,,,,,,,,,,,,,,,,,,,,,,,,,,,,,,,,sing2,001,2019_Oct_22_1252,ProdFawcett_Revision2019,3.2.4,59.97864181308594,
56,0,56,0,,,,,,,,,,,,,,,,,920.4688182162354,None,materials/speakPic.jpg,graduate,B_aloud,56,141,916.7685374752036,None,916.7685374752036,None,917.7198697899003,None,917.9741361856577,None,917.9741361856577,None,,,,,,,,,,,,,,,,,,,,,,,,,,,,,,,,,,,sing2,001,2019_Oct_22_1252,ProdFawcett_Revision2019,3.2.4,59.97864181308594,
57,0,57,0,,,,,,,,,,,,,,,,,924.7364520767005,None,materials/speakPic.jpg,welcome,B_aloud,57,354,921.041577785043,None,921.041577785043,None,921.9858478786191,None,922.2522293362417,None,922.2522293362417,None,,,,,,,,,,,,,,,,,,,,,,,,,,,,,,,,,,,sing2,001,2019_Oct_22_1252,ProdFawcett_Revision2019,3.2.4,59.97864181308594,
58,0,58,0,,,,,,,,,,,,,,,,,929.0049256411148,None,materials/speakPic.jpg,ground,B_aloud,58,142,925.3048821942066,None,925.3048821942066,None,926.2537100141635,None,926.5208151721745,None,926.5208151721745,None,,,,,,,,,,,,,,,,,,,,,,,,,,,,,,,,,,,sing2,001,2019_Oct_22_1252,ProdFawcett_Revision2019,3.2.4,59.97864181308594,
59,0,59,0,,,,,,,,,,,,,,,,,933.272340867552,None,materials/readPic.jpg,break,A_silent,59,26,929.5740536458907,None,929.5740536458907,None,930.5236922466429,None,930.788196810463,None,930.788196810463,None,,,,,,,,,,,,,,,,,,,,,,,,,,,,,,,,,,,sing2,001,2019_Oct_22_1252,ProdFawcett_Revision2019,3.2.4,59.97864181308594,
60,0,60,0,,,,,,,,,,,,,,,,,937.5403106096201,None,materials/speakPic.jpg,congress,B_aloud,60,67,933.8485578395776,None,933.8485578395776,None,934.7914489526884,None,935.056128610333,None,935.056128610333,None,,,,,,,,,,,,,,,,,,,,,,,,,,,,,,,,,,,sing2,001,2019_Oct_22_1252,ProdFawcett_Revision2019,3.2.4,59.97864181308594,
61,0,61,0,,,,,,,,,,,,,,,,,941.8082486295025,None,materials/speakPic.jpg,month,B_aloud,61,193,938.1068610342918,None,938.1068610342918,None,939.0587093004142,None,939.3245094962767,None,939.3245094962767,None,,,,,,,,,,,,,,,,,,,,,,,,,,,,,,,,,,,sing2,001,2019_Oct_22_1252,ProdFawcett_Revision2019,3.2.4,59.97864181308594,
62,0,62,0,,,,,,,,,,,,,,,,,946.0762597347493,None,materials/readPic.jpg,error,A_silent,62,117,942.4100258784601,None,942.4100258784601,None,943.3267437307513,None,943.575827287219,None,943.575827287219,None,,,,,,,,,,,,,,,,,,,,,,,,,,,,,,,,,,,sing2,001,2019_Oct_22_1252,ProdFawcett_Revision2019,3.2.4,59.97864181308594,
63,0,63,0,,,,,,,,,,,,,,,,,950.3442232567468,None,materials/singPic.jpg,afternoon,C_sing,63,3,946.7016267553554,None,946.7016267553554,None,947.5932875311119,None,947.8603056087159,None,947.8603056087159,None,,,,,,,,,,,,,,,,,,,,,,,,,,,,,,,,,,,sing2,001,2019_Oct_22_1252,ProdFawcett_Revision2019,3.2.4,59.97864181308594,
64,0,64,0,,,,,,,,,,,,,,,,,954.6121544346097,None,materials/speakPic.jpg,character,B_aloud,64,46,950.9505405050004,None,950.9505405050004,None,951.862911178905,None,952.1280069564818,None,952.1280069564818,None,,,,,,,,,,,,,,,,,,,,,,,,,,,,,,,,,,,sing2,001,2019_Oct_22_1252,ProdFawcett_Revision2019,3.2.4,59.97864181308594,
65,0,65,0,,,,,,,,,,,,,,,,,958.8812481359346,None,materials/speakPic.jpg,trend,B_aloud,65,340,955.1813695197925,None,955.1813695197925,None,956.130778290506,None,956.3959459093749,None,956.3959459093749,None,,,,,,,,,,,,,,,,,,,,,,,,,,,,,,,,,,,sing2,001,2019_Oct_22_1252,ProdFawcett_Revision2019,3.2.4,59.97864181308594,
66,0,66,0,,,,,,,,,,,,,,,,,963.1484431733261,None,materials/readPic.jpg,evidence,A_silent,66,120,959.4819415448001,None,959.4819415448001,None,960.3985632976401,None,960.6641762706568,None,960.6641762706568,None,,,,,,,,,,,,,,,,,,,,,,,,,,,,,,,,,,,sing2,001,2019_Oct_22_1252,ProdFawcett_Revision2019,3.2.4,59.97864181308594,
67,0,67,0,,,,,,,,,,,,,,,,,967.4160257185576,None,materials/singPic.jpg,staff,C_sing,67,301,963.7328786699218,None,963.7328786699218,None,964.6665915079648,None,964.9158479812322,None,964.9158479812322,None,,,,,,,,,,,,,,,,,,,,,,,,,,,,,,,,,,,sing2,001,2019_Oct_22_1252,ProdFawcett_Revision2019,3.2.4,59.97864181308594,
68,0,68,0,,,,,,,,,,,,,,,,,971.6843978965189,None,materials/readPic.jpg,volume,A_silent,68,349,968.0061158437165,None,968.0061158437165,None,968.9330833710846,None,969.2002146532177,None,969.2002146532177,None,,,,,,,,,,,,,,,,,,,,,,,,,,,,,,,,,,,sing2,001,2019_Oct_22_1252,ProdFawcett_Revision2019,3.2.4,59.97864181308594,
69,0,69,0,,,,,,,,,,,,,,,,,975.9520000348566,None,materials/speakPic.jpg,drove,B_aloud,69,106,972.2548622745671,None,972.2548622745671,None,973.2027434060583,None,973.4538158168434,None,973.4538158168434,None,,,,,,,,,,,,,,,,,,,,,,,,,,,,,,,,,,,sing2,001,2019_Oct_22_1252,ProdFawcett_Revision2019,3.2.4,59.97864181308594,
70,0,70,0,,,,,,,,,,,,,,,,,980.2199731979053,None,materials/readPic.jpg,cross,A_silent,70,80,976.544463723083,None,976.544463723083,None,977.471359409159,None,977.7274373884429,None,977.7274373884429,None,,,,,,,,,,,,,,,,,,,,,,,,,,,,,,,,,,,sing2,001,2019_Oct_22_1252,ProdFawcett_Revision2019,3.2.4,59.97864181308594,
71,0,71,0,,,,,,,,,,,,,,,,,984.4879911451717,None,materials/readPic.jpg,state,A_silent,71,303,980.8035120772547,None,980.8035120772547,None,981.7384163619136,None,982.0040358659462,None,982.0040358659462,None,,,,,,,,,,,,,,,,,,,,,,,,,,,,,,,,,,,sing2,001,2019_Oct_22_1252,ProdFawcett_Revision2019,3.2.4,59.97864181308594,
72,0,72,0,,,,,,,,,,,,,,,,,988.7558675867622,None,materials/singPic.jpg,revolution,C_sing,72,264,985.0725836975034,None,985.0725836975034,None,986.0056645805598,None,986.271652932337,None,986.271652932337,None,,,,,,,,,,,,,,,,,,,,,,,,,,,,,,,,,,,sing2,001,2019_Oct_22_1252,ProdFawcett_Revision2019,3.2.4,59.97864181308594,
73,0,73,0,,,,,,,,,,,,,,,,,993.0245237090276,None,materials/readPic.jpg,member,A_silent,73,188,989.3578616037266,None,989.3578616037266,None,990.2743956542108,None,990.5399828140507,None,990.5399828140507,None,,,,,,,,,,,,,,,,,,,,,,,,,,,,,,,,,,,sing2,001,2019_Oct_22_1252,ProdFawcett_Revision2019,3.2.4,59.97864181308594,
74,0,74,0,,,,,,,,,,,,,,,,,997.2917899658205,None,materials/singPic.jpg,fashion,C_sing,74,125,993.6490995419445,None,993.6490995419445,None,994.54249943787,None,994.8078744947561,None,994.8078744947561,None,,,,,,,,,,,,,,,,,,,,,,,,,,,,,,,,,,,sing2,001,2019_Oct_22_1252,ProdFawcett_Revision2019,3.2.4,59.97864181308594,
75,0,75,0,,,,,,,,,,,,,,,,,1001.5597379377577,None,materials/singPic.jpg,threat,C_sing,75,329,997.8607963690301,None,997.8607963690301,None,998.8102723159827,None,999.0755332353292,None,999.0755332353292,None,,,,,,,,,,,,,,,,,,,,,,,,,,,,,,,,,,,sing2,001,2019_Oct_22_1252,ProdFawcett_Revision2019,3.2.4,59.97864181308594,
76,0,76,0,,,,,,,,,,,,,,,,,1005.8282171001774,None,materials/readPic.jpg,quantity,A_silent,76,245,1002.186195329472,None,1002.186195329472,None,1003.0771712799906,None,1003.3445087561267,None,1003.3445087561267,None,,,,,,,,,,,,,,,,,,,,,,,,,,,,,,,,,,,sing2,001,2019_Oct_22_1252,ProdFawcett_Revision2019,3.2.4,59.97864181308594,
77,0,77,0,,,,,,,,,,,,,,,,,1010.0956712018233,None,materials/speakPic.jpg,rural,B_aloud,77,269,1006.4290784497862,None,1006.4290784497862,None,1007.3463399327011,None,1007.6114708534442,None,1007.6114708534442,None,,,,,,,,,,,,,,,,,,,,,,,,,,,,,,,,,,,sing2,001,2019_Oct_22_1252,ProdFawcett_Revision2019,3.2.4,59.97864181308594,
78,0,78,0,,,,,,,,,,,,,,,,,1014.3636129536899,None,materials/readPic.jpg,thick,A_silent,78,327,1010.7024456221843,None,1010.7024456221843,None,1011.6142484074226,None,1011.879508704762,None,1011.879508704762,None,,,,,,,,,,,,,,,,,,,,,,,,,,,,,,,,,,,sing2,001,2019_Oct_22_1252,ProdFawcett_Revision2019,3.2.4,59.97864181308594,
79,0,79,0,,,,,,,,,,,,,,,,,1018.6316697761649,None,materials/readPic.jpg,route,A_silent,79,267,1014.9523946957197,None,1014.9523946957197,None,1015.8807667056681,None,1016.1474311745842,None,1016.1474311745842,None,,,,,,,,,,,,,,,,,,,,,,,,,,,,,,,,,,,sing2,001,2019_Oct_22_1252,ProdFawcett_Revision2019,3.2.4,59.97864181308594,
80,0,80,0,,,,,,,,,,,,,,,,,1022.9000040119281,None,materials/readPic.jpg,nation,A_silent,80,198,1019.2040692052688,None,1019.2040692052688,None,1020.1502049966366,None,1020.4066717277165,None,1020.4066717277165,None,,,,,,,,,,,,,,,,,,,,,,,,,,,,,,,,,,,sing2,001,2019_Oct_22_1252,ProdFawcett_Revision2019,3.2.4,59.97864181308594,
81,0,81,0,,,,,,,,,,,,,,,,,1027.1679264817503,None,materials/readPic.jpg,pretty,A_silent,81,233,1023.4840687947581,None,1023.4840687947581,None,1024.4180870362325,None,1024.667348174553,None,1024.667348174553,None,,,,,,,,,,,,,,,,,,,,,,,,,,,,,,,,,,,sing2,001,2019_Oct_22_1252,ProdFawcett_Revision2019,3.2.4,59.97864181308594,
82,0,82,0,,,,,,,,,,,,,,,,,1031.4354928549146,None,materials/singPic.jpg,problem,C_sing,82,238,1027.8088892925298,None,1027.8088892925298,None,1028.6861855328898,None,1028.9513180086506,None,1028.9513180086506,None,,,,,,,,,,,,,,,,,,,,,,,,,,,,,,,,,,,sing2,001,2019_Oct_22_1252,ProdFawcett_Revision2019,3.2.4,59.97864181308594,
83,0,83,0,,,,,,,,,,,,,,,,,1035.7034828120377,None,materials/readPic.jpg,article,A_silent,83,11,1032.0446610535146,None,1032.0446610535146,None,1032.9536122663994,None,1033.2200357092079,None,1033.2200357092079,None,,,,,,,,,,,,,,,,,,,,,,,,,,,,,,,,,,,sing2,001,2019_Oct_22_1252,ProdFawcett_Revision2019,3.2.4,59.97864181308594,
84,0,84,0,,,,,,,,,,,,,,,,,1039.9714665491483,None,materials/readPic.jpg,number,A_silent,84,203,1036.2867346371058,None,1036.2867346371058,None,1037.222595562227,None,1037.4872546936967,None,1037.4872546936967,None,,,,,,,,,,,,,,,,,,,,,,,,,,,,,,,,,,,sing2,001,2019_Oct_22_1252,ProdFawcett_Revision2019,3.2.4,59.97864181308594,
85,0,85,0,,,,,,,,,,,,,,,,,1044.239494137466,None,materials/singPic.jpg,youth,C_sing,85,359,1040.5904253846966,None,1040.5904253846966,None,1041.4899286842556,None,1041.7465459400555,None,1041.7465459400555,None,,,,,,,,,,,,,,,,,,,,,,,,,,,,,,,,,,,sing2,001,2019_Oct_22_1252,ProdFawcett_Revision2019,3.2.4,59.97864181308594,
86,0,86,0,,,,,,,,,,,,,,,,,1048.507528567803,None,materials/speakPic.jpg,escape,B_aloud,86,118,1044.8336033344385,None,1044.8336033344385,None,1045.7582753601018,None,1046.0234756341088,None,1046.0234756341088,None,,,,,,,,,,,,,,,,,,,,,,,,,,,,,,,,,,,sing2,001,2019_Oct_22_1252,ProdFawcett_Revision2019,3.2.4,59.97864181308594,
87,0,87,0,,,,,,,,,,,,,,,,,1052.7751493662363,None,materials/readPic.jpg,property,A_silent,87,242,1049.1085793173406,None,1049.1085793173406,None,1050.0248157394235,None,1050.29108585848,None,1050.29108585848,None,,,,,,,,,,,,,,,,,,,,,,,,,,,,,,,,,,,sing2,001,2019_Oct_22_1252,ProdFawcett_Revision2019,3.2.4,59.97864181308594,
88,0,88,0,,,,,,,,,,,,,,,,,1057.0433106851997,None,materials/singPic.jpg,marriage,C_sing,88,179,1053.3644890448195,None,1053.3644890448195,None,1054.2928056965466,None,1054.5432293582708,None,1054.5432293582708,None,,,,,,,,,,,,,,,,,,,,,,,,,,,,,,,,,,,sing2,001,2019_Oct_22_1252,ProdFawcett_Revision2019,3.2.4,59.97864181308594,
89,0,89,0,,,,,,,,,,,,,,,,,1061.2945258456166,None,materials/speakPic.jpg,frank,B_aloud,89,133,1057.6449134622817,None,1057.6449134622817,None,1058.560231186042,None,1058.8270579977543,None,1058.8270579977543,None,,,,,,,,,,,,,,,,,,,,,,,,,,,,,,,,,,,sing2,001,2019_Oct_22_1252,ProdFawcett_Revision2019,3.2.4,59.97864181308594,
,,,,,,,,,,,,,,,,,,,,,,,,,,,,,,,,,,,,,1061.7948429115932,None,k,136.54082687199116,1061.7948429115932,None,,,,,,,,,,,,,,,,,,,,,,,,,,,,,sing2,001,2019_Oct_22_1252,ProdFawcett_Revision2019,3.2.4,59.97864181308594,
,,,,,,,,,,,,,,1198.352931297617,None,space,2.030282212072052,1198.352931297617,None,,,,,,,,,,,,,,,,,,,,,,,,,,,,,,,,,,,,,,,,,,,,,,,,,,,,sing2,001,2019_Oct_22_1252,ProdFawcett_Revision2019,3.2.4,59.97864181308594,
,,,,0,0,0,0,,,,,,,,,,,,,1217.5446671180543,None,,,,,,,,,,,,,,,,,,,,,,contract,B_aloud,0,68,1200.9259011034155,None,1200.9259011034155,None,1200.9259011034155,None,6,8.792411191214342,1200.9259011034155,None,1209.7463646262186,None,1209.7463646262186,None,1210.2783124065609,None,1210.2783124065609,None,1210.2783124065609,None,r,7.21560020634206,1210.2783124065609,None,sing2,001,2019_Oct_22_1252,ProdFawcett_Revision2019,3.2.4,59.97864181308594,
,,,,1,0,1,0,,,,,,,,,,,,,1222.593701785081,None,,,,,,,,,,,,,,,,,,,,,,under,C_sing,1,343,1218.0753727585543,None,1218.0753727585543,None,1218.0753727585543,None,1,2.8595523631665856,1218.0753727585543,None,1220.9761803982547,None,1220.9761803982547,None,1221.4841633391916,None,1221.4841633391916,None,1221.4841633391916,None,n,1.0736958386842161,1221.4841633391916,None,sing2,001,2019_Oct_22_1252,ProdFawcett_Revision2019,3.2.4,59.97864181308594,
,,,,2,0,2,0,,,,,,,,,,,,,1234.171710747527,None,,,,,,,,,,,,,,,,,,,,,,health,D_new,2,149,1223.11049228732,None,1223.11049228732,None,1223.11049228732,None,1,8.847178859112319,1223.11049228732,None,1232.0049327941379,None,1232.0049327941379,None,1232.5297825882444,None,1232.5297825882444,None,1232.5297825882444,None,n,1.6030825220514089,1232.5297825882444,None,sing2,001,2019_Oct_22_1252,ProdFawcett_Revision2019,3.2.4,59.97864181308594,
,,,,3,0,3,0,,,,,,,,,,,,,1238.5818899496808,None,,,,,,,,,,,,,,,,,,,,,,length,D_new,3,169,1234.689427412115,None,1234.689427412115,None,1234.689427412115,None,1,2.4356505326577462,1234.689427412115,None,1237.1525773157482,None,1237.1525773157482,None,1237.6709672985016,None,1237.6709672985016,None,1237.6709672985016,None,n,0.8703294966835529,1237.6709672985016,None,sing2,001,2019_Oct_22_1252,ProdFawcett_Revision2019,3.2.4,59.97864181308594,
,,,,4,0,4,0,,,,,,,,,,,,,1242.9181388180004,None,,,,,,,,,,,,,,,,,,,,,,device,A_silent,4,93,1239.1001110586221,None,1239.1001110586221,None,1239.1001110586221,None,1,2.0165832198108546,1239.1001110586221,None,1241.1657454285305,None,1241.1657454285305,None,1241.6833352045505,None,1241.6833352045505,None,1241.6833352045505,None,n,1.2092940298025496,1241.6833352045505,None,sing2,001,2019_Oct_22_1252,ProdFawcett_Revision2019,3.2.4,59.97864181308594,
,,,,5,0,5,0,,,,,,,,,,,,,1247.91771243501,None,,,,,,,,,,,,,,,,,,,,,,disease,D_new,5,97,1243.4365897570387,None,1243.4365897570387,None,1243.4365897570387,None,1,2.759982447081711,1243.4365897570387,None,1246.241470240755,None,1246.241470240755,None,1246.767385836807,None,1246.767385836807,None,1246.767385836807,None,n,1.1096650234539993,1246.767385836807,None,sing2,001,2019_Oct_22_1252,ProdFawcett_Revision2019,3.2.4,59.97864181308594,
,,,,6,0,6,0,,,,,,,,,,,,,1253.369328538538,None,,,,,,,,,,,,,,,,,,,,,,chief,C_sing,6,48,1248.436323850823,None,1248.436323850823,None,1248.436323850823,None,6,2.3995382872526534,1248.436323850823,None,1250.873898549471,None,1250.873898549471,None,1251.3854981263867,None,1251.3854981263867,None,1251.3854981263867,None,r,1.9387314685736783,1251.3854981263867,None,sing2,001,2019_Oct_22_1252,ProdFawcett_Revision2019,3.2.4,59.97864181308594,
,,,,7,0,7,0,,,,,,,,,,,,,1262.2720765162958,None,,,,,,,,,,,,,,,,,,,,,,property,A_silent,7,242,1253.8719647423713,None,1253.8719647423713,None,1253.8719647423713,None,1,4.844064490520395,1253.8719647423713,None,1258.7594086494064,None,1258.7594086494064,None,1259.2634378288058,None,1259.2634378288058,None,1259.2634378288058,None,n,2.971600279735867,1259.2634378288058,None,sing2,001,2019_Oct_22_1252,ProdFawcett_Revision2019,3.2.4,59.97864181308594,
,,,,8,0,8,0,,,,,,,,,,,,,1266.4240047720377,None,,,,,,,,,,,,,,,,,,,,,,shock,D_new,8,284,1262.7891267047962,None,1262.7891267047962,None,1262.7891267047962,None,1,1.974725222447887,1262.7891267047962,None,1264.8124325321405,None,1264.8124325321405,None,1265.340053038206,None,1265.340053038206,None,1265.340053038206,None,n,1.0473676992114633,1265.340053038206,None,sing2,001,2019_Oct_22_1252,ProdFawcett_Revision2019,3.2.4,59.97864181308594,
,,,,9,0,9,0,,,,,,,,,,,,,1274.7092901422875,None,,,,,,,,,,,,,,,,,,,,,,congress,B_aloud,9,67,1266.94019628549,None,1266.94019628549,None,1266.94019628549,None,1,5.902193773188628,1266.94019628549,None,1272.864518745453,None,1272.864518745453,None,1273.3838473306387,None,1273.3838473306387,None,1273.3838473306387,None,n,1.2834684997797012,1273.3838473306387,None,sing2,001,2019_Oct_22_1252,ProdFawcett_Revision2019,3.2.4,59.97864181308594,
,,,,10,0,10,0,,,,,,,,,,,,,1278.5102939928183,None,,,,,,,,,,,,,,,,,,,,,,literature,D_new,10,173,1275.2259033737355,None,1275.2259033737355,None,1275.2259033737355,None,1,1.9609602979035117,1275.2259033737355,None,1277.2329886089428,None,1277.2329886089428,None,1277.760441174265,None,1277.760441174265,None,1277.760441174265,None,n,0.7138677727198228,1277.760441174265,None,sing2,001,2019_Oct_22_1252,ProdFawcett_Revision2019,3.2.4,59.97864181308594,
,,,,11,0,11,0,,,,,,,,,,,,,1283.1118765548454,None,,,,,,,,,,,,,,,,,,,,,,addition,B_aloud,11,2,1279.0288540933398,None,1279.0288540933398,None,1279.0288540933398,None,6,2.6689442340284586,1279.0288540933398,None,1281.761448507954,None,1281.761448507954,None,1282.2700360357412,None,1282.2700360357412,None,1282.2700360357412,None,r,0.8042883368907496,1282.2700360357412,None,sing2,001,2019_Oct_22_1252,ProdFawcett_Revision2019,3.2.4,59.97864181308594,
,,,,12,0,12,0,,,,,,,,,,,,,1294.8828242913587,None,,,,,,,,,,,,,,,,,,,,,,whole,A_silent,12,355,1283.629579224391,None,1283.629579224391,None,1283.629579224391,None,2,2.7960545733221807,1283.629579224391,None,1286.468743264908,None,1286.468743264908,None,1286.9962630064692,None,1286.9962630064692,None,1286.9962630064692,None,n,7.852908439002931,1286.9962630064692,None,sing2,001,2019_Oct_22_1252,ProdFawcett_Revision2019,3.2.4,59.97864181308594,
,,,,13,0,13,0,,,,,,,,,,,,,1303.551751420251,None,,,,,,,,,,,,,,,,,,,,,,escape,B_aloud,13,118,1295.401129992737,None,1295.401129992737,None,1295.401129992737,None,3,4.159961423370987,1295.401129992737,None,1299.590543565224,None,1299.590543565224,None,1300.106323623797,None,1300.106323623797,None,1300.106323623797,None,f,3.3981194985681213,1300.106323623797,None,sing2,001,2019_Oct_22_1252,ProdFawcett_Revision2019,3.2.4,59.97864181308594,
,,,,14,0,14,0,,,,,,,,,,,,,1309.4565153095173,None,,,,,,,,,,,,,,,,,,,,,,service,B_aloud,14,280,1304.0698913578526,None,1304.0698913578526,None,1304.0698913578526,None,5,4.226917238498572,1304.0698913578526,None,1308.3361894670525,None,1308.3361894670525,None,1308.8381968259928,None,1308.8381968259928,None,1308.8381968259928,None,f,0.5937235552119091,1308.8381968259928,None,sing2,001,2019_Oct_22_1252,ProdFawcett_Revision2019,3.2.4,59.97864181308594,
,,,,15,0,15,0,,,,,,,,,,,,,1314.771438185824,None,,,,,,,,,,,,,,,,,,,,,,figure,A_silent,15,128,1309.9731730141793,None,1309.9731730141793,None,1309.9731730141793,None,1,3.3237618487910368,1309.9731730141793,None,1313.346601173922,None,1313.346601173922,None,1313.8713635765598,None,1313.8713635765598,None,1313.8713635765598,None,n,0.8573224826832302,1313.8713635765598,None,sing2,001,2019_Oct_22_1252,ProdFawcett_Revision2019,3.2.4,59.97864181308594,
,,,,16,0,16,0,,,,,,,,,,,,,1317.7723217409803,None,,,,,,,,,,,,,,,,,,,,,,piece,D_new,16,221,1315.289452789817,None,1315.289452789817,None,1315.289452789817,None,1,1.3106410082546063,1315.289452789817,None,1316.6446382260183,None,1316.6446382260183,None,1317.1721931107459,None,1317.1721931107459,None,1317.1721931107459,None,n,0.5633076124940999,1317.1721931107459,None,sing2,001,2019_Oct_22_1252,ProdFawcett_Revision2019,3.2.4,59.97864181308594,
,,,,17,0,17,0,,,,,,,,,,,,,1322.9404876938206,None,,,,,,,,,,,,,,,,,,,,,,clear,C_sing,17,52,1318.2904094303376,None,1318.2904094303376,None,1318.2904094303376,None,2,2.916948926402256,1318.2904094303376,None,1321.256610102777,None,1321.256610102777,None,1321.77363883215,None,1321.77363883215,None,1321.77363883215,None,n,1.1221019717631862,1321.77363883215,None,sing2,001,2019_Oct_22_1252,ProdFawcett_Revision2019,3.2.4,59.97864181308594,
,,,,18,0,18,0,,,,,,,,,,,,,1328.1277059070999,None,,,,,,,,,,,,,,,,,,,,,,error,A_silent,18,117,1323.4472079688567,None,1323.4472079688567,None,1323.4472079688567,None,6,3.3443753364263102,1323.4472079688567,None,1326.8186824174481,None,1326.8186824174481,None,1327.3417408431415,None,1327.3417408431415,None,1327.3417408431415,None,r,0.7618294847197831,1327.3417408431415,None,sing2,001,2019_Oct_22_1252,ProdFawcett_Revision2019,3.2.4,59.97864181308594,
,,,,19,0,19,0,,,,,,,,,,,,,1331.263197424647,None,,,,,,,,,,,,,,,,,,,,,,territory,D_new,19,324,1328.6591299609863,None,1328.6591299609863,None,1328.6591299609863,None,6,2.003487259382382,1328.6591299609863,None,1330.7007096120506,None,1330.7007096120506,None,1331.2268161629909,None,1331.2268161629909,None,1331.2268161629909,None,r,0.01208955975016579,1331.2268161629909,None,sing2,001,2019_Oct_22_1252,ProdFawcett_Revision2019,3.2.4,59.97864181308594,
,,,,20,0,20,0,,,,,,,,,,,,,1334.4773903494352,None,,,,,,,,,,,,,,,,,,,,,,substance,D_new,20,313,1331.7939086632105,None,1331.7939086632105,None,1331.7939086632105,None,1,1.4366199242067523,1331.7939086632105,None,1333.2770441425964,None,1333.2770441425964,None,1333.7944071985548,None,1333.7944071985548,None,1333.7944071985548,None,n,0.6448182958411053,1333.7944071985548,None,sing2,001,2019_Oct_22_1252,ProdFawcett_Revision2019,3.2.4,59.97864181308594,
,,,,21,0,21,0,,,,,,,,,,,,,1337.7119827929419,None,,,,,,,,,,,,,,,,,,,,,,republic,D_new,21,260,1334.9953387101414,None,1334.9953387101414,None,1334.9953387101414,None,1,2.0029290117672645,1334.9953387101414,None,1337.0617173064966,None,1337.0617173064966,None,1337.5784997227602,None,1337.5784997227602,None,1337.5784997227602,None,n,0.10020778008038178,1337.5784997227602,None,sing2,001,2019_Oct_22_1252,ProdFawcett_Revision2019,3.2.4,59.97864181308594,
,,,,22,0,22,0,,,,,,,,,,,,,1341.1820341299172,None,,,,,,,,,,,,,,,,,,,,,,permit,D_new,22,218,1338.231375755393,None,1338.231375755393,None,1338.231375755393,None,1,1.8874432849697769,1338.231375755393,None,1340.1690404889523,None,1340.1690404889523,None,1340.6858670674264,None,1340.6858670674264,None,1340.6858670674264,None,n,0.46433015418006107,1340.6858670674264,None,sing2,001,2019_Oct_22_1252,ProdFawcett_Revision2019,3.2.4,59.97864181308594,
,,,,23,0,23,0,,,,,,,,,,,,,1345.4974048483418,None,,,,,,,,,,,,,,,,,,,,,,danger,A_silent,23,85,1341.7150293632294,None,1341.7150293632294,None,1341.7150293632294,None,5,2.42694995587226,1341.7150293632294,None,1344.1704763827147,None,1344.1704763827147,None,1344.6856083141756,None,1344.6856083141756,None,1344.6856083141756,None,f,0.7764098551124334,1344.6856083141756,None,sing2,001,2019_Oct_22_1252,ProdFawcett_Revision2019,3.2.4,59.97864181308594,
,,,,24,0,24,0,,,,,,,,,,,,,1349.7653394472436,None,,,,,,,,,,,,,,,,,,,,,,member,A_silent,24,188,1346.0145296771661,None,1346.0145296771661,None,1346.0145296771661,None,5,2.8076608367846347,1346.0145296771661,None,1348.8553143462632,None,1348.8553143462632,None,1349.3821231385227,None,1349.3821231385227,None,1349.3821231385227,None,f,0.34395983850117773,1349.3821231385227,None,sing2,001,2019_Oct_22_1252,ProdFawcett_Revision2019,3.2.4,59.97864181308594,
,,,,25,0,25,0,,,,,,,,,,,,,1356.5013144476688,None,,,,,,,,,,,,,,,,,,,,,,afternoon,C_sing,25,3,1350.2821968147764,None,1350.2821968147764,None,1350.2821968147764,None,6,4.827776411082596,1350.2821968147764,None,1355.1509097259259,None,1355.1509097259259,None,1355.6695789879886,None,1355.6695789879886,None,1355.6695789879886,None,r,0.7919757891795598,1355.6695789879886,None,sing2,001,2019_Oct_22_1252,ProdFawcett_Revision2019,3.2.4,59.97864181308594,
,,,,26,0,26,0,,,,,,,,,,,,,1362.4692016810295,None,,,,,,,,,,,,,,,,,,,,,,couch,B_aloud,26,70,1357.0188283393509,None,1357.0188283393509,None,1357.0188283393509,None,6,2.442668591509573,1357.0188283393509,None,1359.5098732078332,None,1359.5098732078332,None,1360.0352097191499,None,1360.0352097191499,None,1360.0352097191499,None,r,2.3943078647134826,1360.0352097191499,None,sing2,001,2019_Oct_22_1252,ProdFawcett_Revision2019,3.2.4,59.97864181308594,
,,,,27,0,27,0,,,,,,,,,,,,,1365.9202116427477,None,,,,,,,,,,,,,,,,,,,,,,rough,D_new,27,266,1362.9872557822382,None,1362.9872557822382,None,1362.9872557822382,None,1,1.5293580712168477,1362.9872557822382,None,1364.5436047370313,None,1364.5436047370313,None,1365.069995854341,None,1365.069995854341,None,1365.069995854341,None,n,0.8072814149199985,1365.069995854341,None,sing2,001,2019_Oct_22_1252,ProdFawcett_Revision2019,3.2.4,59.97864181308594,
,,,,28,0,28,0,,,,,,,,,,,,,1370.3549596491503,None,,,,,,,,,,,,,,,,,,,,,,universal,A_silent,28,345,1366.4385783003527,None,1366.4385783003527,None,1366.4385783003527,None,6,2.5016761423903517,1366.4385783003527,None,1368.9955788032967,None,1368.9955788032967,None,1369.5230823727907,None,1369.5230823727907,None,1369.5230823727907,None,r,0.7850709347403608,1369.5230823727907,None,sing2,001,2019_Oct_22_1252,ProdFawcett_Revision2019,3.2.4,59.97864181308594,
,,,,29,0,29,0,,,,,,,,,,,,,1373.305793739506,None,,,,,,,,,,,,,,,,,,,,,,fashion,C_sing,29,125,1370.8735701319529,None,1370.8735701319529,None,1370.8735701319529,None,6,1.3235982619808055,1370.8735701319529,None,1372.255399685062,None,1372.255399685062,None,1372.7724013573606,None,1372.7724013573606,None,1372.7724013573606,None,r,0.49600907374406233,1372.7724013573606,None,sing2,001,2019_Oct_22_1252,ProdFawcett_Revision2019,3.2.4,59.97864181308594,
,,,,30,0,30,0,,,,,,,,,,,,,1379.5409923248226,None,,,,,,,,,,,,,,,,,,,,,,sleep,D_new,30,290,1373.8226545280777,None,1373.8226545280777,None,1373.8226545280777,None,2,1.9103379683801904,1373.8226545280777,None,1375.7900124369771,None,1375.7900124369771,None,1376.3067681070534,None,1376.3067681070534,None,1376.3067681070534,None,f,3.2013379904674366,1376.3067681070534,None,sing2,001,2019_Oct_22_1252,ProdFawcett_Revision2019,3.2.4,59.97864181308594,
,,,,31,0,31,0,,,,,,,,,,,,,1383.6151994499378,None,,,,,,,,,,,,,,,,,,,,,,committee,A_silent,31,62,1380.0499459013226,None,1380.0499459013226,None,1380.0499459013226,None,6,1.5774964320589788,1380.0499459013226,None,1381.681683475792,None,1381.681683475792,None,1382.2096591455047,None,1382.2096591455047,None,1382.2096591455047,None,r,1.3781961231143214,1382.2096591455047,None,sing2,001,2019_Oct_22_1252,ProdFawcett_Revision2019,3.2.4,59.97864181308594,
,,,,32,0,32,0,,,,,,,,,,,,,1387.1632393787731,None,,,,,,,,,,,,,,,,,,,,,,thick,A_silent,32,327,1384.1286000362597,None,1384.1286000362597,None,1384.1286000362597,None,6,2.1075259554199874,1384.1286000362597,None,1386.2763739344664,None,1386.2763739344664,None,1386.79325058416,None,1386.79325058416,None,1386.79325058416,None,r,0.33810741308843717,1386.79325058416,None,sing2,001,2019_Oct_22_1252,ProdFawcett_Revision2019,3.2.4,59.97864181308594,
,,,,33,0,33,0,,,,,,,,,,,,,1395.412688050943,None,,,,,,,,,,,,,,,,,,,,,,present,A_silent,33,231,1387.6936119367601,None,1387.6936119367601,None,1387.6936119367601,None,4,6.045661234180443,1387.6936119367601,None,1393.7813261662377,None,1393.7813261662377,None,1394.2955897815991,None,1394.2955897815991,None,1394.2955897815991,None,f,1.0759621063480154,1394.2955897815991,None,sing2,001,2019_Oct_22_1252,ProdFawcett_Revision2019,3.2.4,59.97864181308594,
,,,,34,0,34,0,,,,,,,,,,,,,1401.6499650590122,None,,,,,,,,,,,,,,,,,,,,,,discussion,C_sing,34,96,1395.9295647005783,None,1395.9295647005783,None,1395.9295647005783,None,5,2.177751639857888,1395.9295647005783,None,1398.152924393362,None,1398.152924393362,None,1398.6655655141803,None,1398.6655655141803,None,1398.6655655141803,None,f,2.9604751355946064,1398.6655655141803,None,sing2,001,2019_Oct_22_1252,ProdFawcett_Revision2019,3.2.4,59.97864181308594,
,,,,35,0,35,0,,,,,,,,,,,,,1406.9326436150586,None,,,,,,,,,,,,,,,,,,,,,,session,D_new,35,281,1402.1833064369275,None,1402.1833064369275,None,1402.1833064369275,None,5,3.066656631708611,1402.1833064369275,None,1405.2993267751299,None,1405.2993267751299,None,1405.8157733097905,None,1405.8157733097905,None,1405.8157733097905,None,f,1.0823466553119943,1405.8157733097905,None,sing2,001,2019_Oct_22_1252,ProdFawcett_Revision2019,3.2.4,59.97864181308594,
,,,,36,0,36,0,,,,,,,,,,,,,1414.9520721871522,None,,,,,,,,,,,,,,,,,,,,,,platform,D_new,36,224,1407.4357606271515,None,1407.4357606271515,None,1407.4357606271515,None,1,2.1590268639847636,1407.4357606271515,None,1409.6407951809815,None,1409.6407951809815,None,1410.1669934773818,None,1410.1669934773818,None,1410.1669934773818,None,f,4.738318707444705,1410.1669934773818,None,sing2,001,2019_Oct_22_1252,ProdFawcett_Revision2019,3.2.4,59.97864181308594,
,,,,37,0,37,0,,,,,,,,,,,,,1417.603907608951,None,,,,,,,,,,,,,,,,,,,,,,bucket,D_new,37,33,1415.4711305120727,None,1415.4711305120727,None,1415.4711305120727,None,1,1.41844748693984,1415.4711305120727,None,1416.9245159029379,None,1416.9245159029379,None,1417.4538155058399,None,1417.4538155058399,None,1417.4538155058399,None,n,0.10838463041000068,1417.4538155058399,None,sing2,001,2019_Oct_22_1252,ProdFawcett_Revision2019,3.2.4,59.97864181308594,
,,,,38,0,38,0,,,,,,,,,,,,,1421.4217245093314,None,,,,,,,,,,,,,,,,,,,,,,month,B_aloud,38,193,1418.1101554727647,None,1418.1101554727647,None,1418.1101554727647,None,5,2.5788617284270003,1418.1101554727647,None,1420.7447001463734,None,1420.7447001463734,None,1421.2703585442505,None,1421.2703585442505,None,1421.2703585442505,None,f,0.10735272761667147,1421.2703585442505,None,sing2,001,2019_Oct_22_1252,ProdFawcett_Revision2019,3.2.4,59.97864181308594,
,,,,39,0,39,0,,,,,,,,,,,,,1425.3221605022554,None,,,,,,,,,,,,,,,,,,,,,,welcome,B_aloud,39,354,1421.9386792203295,None,1421.9386792203295,None,1421.9386792203295,None,5,2.5587579720886424,1421.9386792203295,None,1424.5382085507736,None,1424.5382085507736,None,1425.054935919703,None,1425.054935919703,None,1425.054935919703,None,f,0.22607193648582324,1425.054935919703,None,sing2,001,2019_Oct_22_1252,ProdFawcett_Revision2019,3.2.4,59.97864181308594,
,,,,40,0,40,0,,,,,,,,,,,,,1428.1225774930208,None,,,,,,,,,,,,,,,,,,,,,,thing,D_new,40,328,1425.838533018541,None,1425.838533018541,None,1425.838533018541,None,1,1.2341840985463932,1425.838533018541,None,1427.1095213407534,None,1427.1095213407534,None,1427.6087299975334,None,1427.6087299975334,None,1427.6087299975334,None,n,0.48002919676946476,1427.6087299975334,None,sing2,001,2019_Oct_22_1252,ProdFawcett_Revision2019,3.2.4,59.97864181308594,
,,,,41,0,41,0,,,,,,,,,,,,,1433.5907370081404,None,,,,,,,,,,,,,,,,,,,,,,revolution,C_sing,41,264,1428.6396581596346,None,1428.6396581596346,None,1428.6396581596346,None,6,1.3526989795500413,1428.6396581596346,None,1430.043646255741,None,1430.043646255741,None,1430.5565685218899,None,1430.5565685218899,None,1430.5565685218899,None,r,2.9875313295051455,1430.5565685218899,None,sing2,001,2019_Oct_22_1252,ProdFawcett_Revision2019,3.2.4,59.97864181308594,
,,,,42,0,42,0,,,,,,,,,,,,,1439.7096051867702,None,,,,,,,,,,,,,,,,,,,,,,comfort,D_new,42,59,1434.0941395196132,None,1434.0941395196132,None,1434.0941395196132,None,3,4.033600908645894,1434.0941395196132,None,1438.1757422594237,None,1438.1757422594237,None,1438.6924836234539,None,1438.6924836234539,None,1438.6924836234539,None,f,0.9794953627861105,1438.6924836234539,None,sing2,001,2019_Oct_22_1252,ProdFawcett_Revision2019,3.2.4,59.97864181308594,
,,,,43,0,43,0,,,,,,,,,,,,,1444.0773258477566,None,,,,,,,,,,,,,,,,,,,,,,match,D_new,43,181,1440.2288809017045,None,1440.2288809017045,None,1440.2288809017045,None,1,1.8594027714570984,1440.2288809017045,None,1442.1268407010357,None,1442.1268407010357,None,1442.6435475439066,None,1442.6435475439066,None,1442.6435475439066,None,n,1.3963551872875541,1442.6435475439066,None,sing2,001,2019_Oct_22_1252,ProdFawcett_Revision2019,3.2.4,59.97864181308594,
,,,,44,0,44,0,,,,,,,,,,,,,1447.7616646539536,None,,,,,,,,,,,,,,,,,,,,,,colonel,D_new,44,55,1444.5945903162356,None,1444.5945903162356,None,1444.5945903162356,None,1,2.4935932144289836,1444.5945903162356,None,1447.1285608501057,None,1447.1285608501057,None,1447.6450394178974,None,1447.6450394178974,None,1447.6450394178974,None,n,0.07521694683237001,1447.6450394178974,None,sing2,001,2019_Oct_22_1252,ProdFawcett_Revision2019,3.2.4,59.97864181308594,
,,,,45,0,45,0,,,,,,,,,,,,,1450.4630192830227,None,,,,,,,,,,,,,,,,,,,,,,history,C_sing,45,153,1448.2793486634037,None,1448.2793486634037,None,1448.2793486634037,None,6,1.3444272737251595,1448.2793486634037,None,1449.6624346625176,None,1449.6624346625176,None,1450.1712625944056,None,1450.1712625944056,None,1450.1712625944056,None,r,0.2524653863511048,1450.1712625944056,None,sing2,001,2019_Oct_22_1252,ProdFawcett_Revision2019,3.2.4,59.97864181308594,
,,,,46,0,46,0,,,,,,,,,,,,,1456.2840099533205,None,,,,,,,,,,,,,,,,,,,,,,concern,D_new,46,65,1450.9803042776184,None,1450.9803042776184,None,1450.9803042776184,None,2,4.202408146462403,1450.9803042776184,None,1455.2188203154947,None,1455.2188203154947,None,1455.732480588078,None,1455.732480588078,None,1455.732480588078,None,n,0.5226793148322031,1455.732480588078,None,sing2,001,2019_Oct_22_1252,ProdFawcett_Revision2019,3.2.4,59.97864181308594,
,,,,47,0,47,0,,,,,,,,,,,,,1461.6328814378357,None,,,,,,,,,,,,,,,,,,,,,,raise,D_new,47,250,1456.8044824018143,None,1456.8044824018143,None,1456.8044824018143,None,2,3.162045755132567,1456.8044824018143,None,1460.0052033654065,None,1460.0052033654065,None,1460.532330312184,None,1460.532330312184,None,1460.532330312184,None,n,1.0591198223410174,1460.532330312184,None,sing2,001,2019_Oct_22_1252,ProdFawcett_Revision2019,3.2.4,59.97864181308594,
,,,,48,0,48,0,,,,,,,,,,,,,1465.5670875242213,None,,,,,,,,,,,,,,,,,,,,,,guide,C_sing,48,147,1462.149428425997,None,1462.149428425997,None,1462.149428425997,None,2,1.441495183040388,1462.149428425997,None,1463.6229499172769,None,1463.6229499172769,None,1464.1500924141146,None,1464.1500924141146,None,1464.1500924141146,None,n,1.3843122777761891,1464.1500924141146,None,sing2,001,2019_Oct_22_1252,ProdFawcett_Revision2019,3.2.4,59.97864181308594,
,,,,49,0,49,0,,,,,,,,,,,,,1469.1017711844179,None,,,,,,,,,,,,,,,,,,,,,,heavy,A_silent,49,151,1466.084303165495,None,1466.084303165495,None,1466.084303165495,None,1,2.010115322424099,1466.084303165495,None,1468.1397727637086,None,1468.1397727637086,None,1468.6514643970295,None,1468.6514643970295,None,1468.6514643970295,None,n,0.4113383046351373,1468.6514643970295,None,sing2,001,2019_Oct_22_1252,ProdFawcett_Revision2019,3.2.4,59.97864181308594,
,,,,50,0,50,0,,,,,,,,,,,,,1474.803427484876,None,,,,,,,,,,,,,,,,,,,,,,article,A_silent,50,11,1469.6196878229384,None,1469.6196878229384,None,1469.6196878229384,None,3,3.522755821235478,1469.6196878229384,None,1473.203189382155,None,1473.203189382155,None,1473.7210136532667,None,1473.7210136532667,None,1473.7210136532667,None,f,1.0449207397177815,1473.7210136532667,None,sing2,001,2019_Oct_22_1252,ProdFawcett_Revision2019,3.2.4,59.97864181308594,
,,,,51,0,51,0,,,,,,,,,,,,,1477.9574179912452,None,,,,,,,,,,,,,,,,,,,,,,discovery,C_sing,51,95,1475.3223188020056,None,1475.3223188020056,None,1475.3223188020056,None,6,1.1719384005409665,1475.3223188020056,None,1476.5452620638534,None,1476.5452620638534,None,1477.0709363227943,None,1477.0709363227943,None,1477.0709363227943,None,r,0.8622002295451239,1477.0709363227943,None,sing2,001,2019_Oct_22_1252,ProdFawcett_Revision2019,3.2.4,59.97864181308594,
,,,,52,0,52,0,,,,,,,,,,,,,1484.5229293600423,None,,,,,,,,,,,,,,,,,,,,,,guest,D_new,52,146,1478.4887717588572,None,1478.4887717588572,None,1478.4887717588572,None,3,3.564482264977414,1478.4887717588572,None,1482.0929822832113,None,1482.0929822832113,None,1482.6056983553572,None,1482.6056983553572,None,1482.6056983553572,None,f,1.8796620285138488,1482.6056983553572,None,sing2,001,2019_Oct_22_1252,ProdFawcett_Revision2019,3.2.4,59.97864181308594,
,,,,53,0,53,0,,,,,,,,,,,,,1487.3570816121064,None,,,,,,,,,,,,,,,,,,,,,,dispute,D_new,53,99,1485.0404939449509,None,1485.0404939449509,None,1485.0404939449509,None,1,1.3251741063431837,1485.0404939449509,None,1486.423528006766,None,1486.423528006766,None,1486.9404967128648,None,1486.9404967128648,None,1486.9404967128648,None,n,0.3682695785537362,1486.9404967128648,None,sing2,001,2019_Oct_22_1252,ProdFawcett_Revision2019,3.2.4,59.97864181308594,
,,,,54,0,54,0,,,,,,,,,,,,,1490.9109537512995,None,,,,,,,,,,,,,,,,,,,,,,people,D_new,54,216,1487.8744623950915,None,1487.8744623950915,None,1487.8744623950915,None,1,1.786073914496228,1487.8744623950915,None,1489.7248778464273,None,1489.7248778464273,None,1490.2416552866343,None,1490.2416552866343,None,1490.2416552866343,None,n,0.6346731172525324,1490.2416552866343,None,sing2,001,2019_Oct_22_1252,ProdFawcett_Revision2019,3.2.4,59.97864181308594,
,,,,55,0,55,0,,,,,,,,,,,,,1494.246805470786,None,,,,,,,,,,,,,,,,,,,,,,majority,C_sing,55,176,1491.430487908423,None,1491.430487908423,None,1491.430487908423,None,6,1.3978557693772018,1491.430487908423,None,1492.8843450884451,None,1492.8843450884451,None,1493.4136275863275,None,1493.4136275863275,None,1493.4136275863275,None,r,0.8071651004138403,1493.4136275863275,None,sing2,001,2019_Oct_22_1252,ProdFawcett_Revision2019,3.2.4,59.97864181308594,
,,,,56,0,56,0,,,,,,,,,,,,,1497.644351793686,None,,,,,,,,,,,,,,,,,,,,,,volume,A_silent,56,349,1494.776210503187,None,1494.776210503187,None,1494.776210503187,None,6,1.940738049976062,1494.776210503187,None,1496.7602038801415,None,1496.7602038801415,None,1497.2629427145002,None,1497.2629427145002,None,1497.2629427145002,None,r,0.3419196689501405,1497.2629427145002,None,sing2,001,2019_Oct_22_1252,ProdFawcett_Revision2019,3.2.4,59.97864181308594,
,,,,57,0,57,0,,,,,,,,,,,,,1500.244458342786,None,,,,,,,,,,,,,,,,,,,,,,trend,B_aloud,57,340,1498.1603790983208,None,1498.1603790983208,None,1498.1603790983208,None,6,1.1318590205628425,1498.1603790983208,None,1499.3330772754853,None,1499.3330772754853,None,1499.8608797173947,None,1499.8608797173947,None,1499.8608797173947,None,r,0.34340718894964084,1499.8608797173947,None,sing2,001,2019_Oct_22_1252,ProdFawcett_Revision2019,3.2.4,59.97864181308594,
,,,,58,0,58,0,,,,,,,,,,,,,1504.5635153614567,None,,,,,,,,,,,,,,,,,,,,,,answer,D_new,58,8,1500.7625084009487,None,1500.7625084009487,None,1500.7625084009487,None,1,1.537842502060812,1500.7625084009487,None,1502.334900988033,None,1502.334900988033,None,1502.848338894546,None,1502.848338894546,None,1502.848338894546,None,n,1.6672620271565393,1502.848338894546,None,sing2,001,2019_Oct_22_1252,ProdFawcett_Revision2019,3.2.4,59.97864181308594,
,,,,59,0,59,0,,,,,,,,,,,,,1507.4346609259956,None,,,,,,,,,,,,,,,,,,,,,,debate,B_aloud,59,87,1505.0813349675736,None,1505.0813349675736,None,1505.0813349675736,None,6,1.2425012105959468,1505.0813349675736,None,1506.3543783873902,None,1506.3543783873902,None,1506.8799991540727,None,1506.8799991540727,None,1506.8799991540727,None,r,0.5315033593215048,1506.8799991540727,None,sing2,001,2019_Oct_22_1252,ProdFawcett_Revision2019,3.2.4,59.97864181308594,
,,,,60,0,60,0,,,,,,,,,,,,,1510.847742704791,None,,,,,,,,,,,,,,,,,,,,,,sunset,D_new,60,315,1507.9639253857895,None,1507.9639253857895,None,1507.9639253857895,None,1,1.3282309397473,1507.9639253857895,None,1509.3354601686588,None,1509.3354601686588,None,1509.8472653175122,None,1509.8472653175122,None,1509.8472653175122,None,n,0.95666350168176,1509.8472653175122,None,sing2,001,2019_Oct_22_1252,ProdFawcett_Revision2019,3.2.4,59.97864181308594,
,,,,61,0,61,0,,,,,,,,,,,,,1514.4487356080208,None,,,,,,,,,,,,,,,,,,,,,,level,D_new,61,170,1511.3660645782365,None,1511.3660645782365,None,1511.3660645782365,None,4,1.8289588386542164,1511.3660645782365,None,1513.2371333254268,None,1513.2371333254268,None,1513.7485811336082,None,1513.7485811336082,None,1513.7485811336082,None,f,0.6548238347750157,1513.7485811336082,None,sing2,001,2019_Oct_22_1252,ProdFawcett_Revision2019,3.2.4,59.97864181308594,
,,,,62,0,62,0,,,,,,,,,,,,,1518.0830165524385,None,,,,,,,,,,,,,,,,,,,,,,institute,D_new,62,162,1514.965434364858,None,1514.965434364858,None,1514.965434364858,None,1,1.7424211276811548,1514.965434364858,None,1516.7661682661274,None,1516.7661682661274,None,1517.2828440088197,None,1517.2828440088197,None,1517.2828440088197,None,n,0.7603802179801278,1517.2828440088197,None,sing2,001,2019_Oct_22_1252,ProdFawcett_Revision2019,3.2.4,59.97864181308594,
,,,,63,0,63,0,,,,,,,,,,,,,1520.950807033223,None,,,,,,,,,,,,,,,,,,,,,,rapid,C_sing,63,252,1518.6015946911066,None,1518.6015946911066,None,1518.6015946911066,None,2,1.4255566692445427,1518.6015946911066,None,1520.0563139671576,None,1520.0563139671576,None,1520.5747350500897,None,1520.5747350500897,None,1520.5747350500897,None,n,0.33272335585206747,1520.5747350500897,None,sing2,001,2019_Oct_22_1252,ProdFawcett_Revision2019,3.2.4,59.97864181308594,
,,,,64,0,64,0,,,,,,,,,,,,,1525.185979183414,None,,,,,,,,,,,,,,,,,,,,,,captain,D_new,64,41,1521.4692613933003,None,1521.4692613933003,None,1521.4692613933003,None,2,2.477542429114692,1521.4692613933003,None,1523.9928513204795,None,1523.9928513204795,None,1524.5184627571143,None,1524.5184627571143,None,1524.5184627571143,None,n,0.6284546430688351,1524.5184627571143,None,sing2,001,2019_Oct_22_1252,ProdFawcett_Revision2019,3.2.4,59.97864181308594,
,,,,65,0,65,0,,,,,,,,,,,,,1528.1731491292594,None,,,,,,,,,,,,,,,,,,,,,,cross,A_silent,65,80,1525.7034258987987,None,1525.7034258987987,None,1525.7034258987987,None,1,1.6991885038441978,1525.7034258987987,None,1527.4422655336675,None,1527.4422655336675,None,1527.9694963549264,None,1527.9694963549264,None,1527.9694963549264,None,n,0.17722449236316606,1527.9694963549264,None,sing2,001,2019_Oct_22_1252,ProdFawcett_Revision2019,3.2.4,59.97864181308594,
,,,,66,0,66,0,,,,,,,,,,,,,1533.938308506622,None,,,,,,,,,,,,,,,,,,,,,,agreement,D_new,66,5,1528.703911372053,None,1528.703911372053,None,1528.703911372053,None,4,2.914106373093091,1528.703911372053,None,1531.6538531992119,None,1531.6538531992119,None,1532.1558418980567,None,1532.1558418980567,None,1532.1558418980567,None,r,1.7424643568811007,1532.1558418980567,None,sing2,001,2019_Oct_22_1252,ProdFawcett_Revision2019,3.2.4,59.97864181308594,
,,,,67,0,67,0,,,,,,,,,,,,,1536.7722004504176,None,,,,,,,,,,,,,,,,,,,,,,account,D_new,67,1,1534.4583132089465,None,1534.4583132089465,None,1534.4583132089465,None,2,1.623875146615319,1534.4583132089465,None,1536.1281615241896,None,1536.1281615241896,None,1536.6389587173471,None,1536.6389587173471,None,1536.6389587173471,None,n,0.09920013538794592,1536.6389587173471,None,sing2,001,2019_Oct_22_1252,ProdFawcett_Revision2019,3.2.4,59.97864181308594,
,,,,68,0,68,0,,,,,,,,,,,,,1545.775187619438,None,,,,,,,,,,,,,,,,,,,,,,drink,D_new,68,105,1537.290590433171,None,1537.290590433171,None,1537.290590433171,None,2,5.670521633408498,1537.290590433171,None,1543.013781718677,None,1543.013781718677,None,1543.5408206519787,None,1543.5408206519787,None,1543.5408206519787,None,f,2.188106744433753,1543.5408206519787,None,sing2,001,2019_Oct_22_1252,ProdFawcett_Revision2019,3.2.4,59.97864181308594,
,,,,69,0,69,0,,,,,,,,,,,,,1553.4104976676754,None,,,,,,,,,,,,,,,,,,,,,,brief,D_new,69,28,1546.2923622084782,None,1546.2923622084782,None,1546.2923622084782,None,3,5.21287521161139,1546.2923622084782,None,1551.543599139026,None,1551.543599139026,None,1552.0605827731779,None,1552.0605827731779,None,1552.0605827731779,None,f,1.3164452284690924,1552.0605827731779,None,sing2,001,2019_Oct_22_1252,ProdFawcett_Revision2019,3.2.4,59.97864181308594,
,,,,70,0,70,0,,,,,,,,,,,,,1556.1464126448263,None,,,,,,,,,,,,,,,,,,,,,,height,D_new,70,152,1553.9126869624015,None,1553.9126869624015,None,1553.9126869624015,None,1,1.3997485242434777,1553.9126869624015,None,1555.3684275673004,None,1555.3684275673004,None,1555.8953212629422,None,1555.8953212629422,None,1555.8953212629422,None,n,0.22554167901398614,1555.8953212629422,None,sing2,001,2019_Oct_22_1252,ProdFawcett_Revision2019,3.2.4,59.97864181308594,
,,,,71,0,71,0,,,,,,,,,,,,,1558.6296019274741,None,,,,,,,,,,,,,,,,,,,,,,close,D_new,71,53,1556.6622126074508,None,1556.6622126074508,None,1556.6622126074508,None,1,1.274604025122244,1556.6622126074508,None,1557.9820975120529,None,1557.9820975120529,None,1558.5120514620212,None,1558.5120514620212,None,1558.5120514620212,None,n,0.08015191799495369,1558.5120514620212,None,sing2,001,2019_Oct_22_1252,ProdFawcett_Revision2019,3.2.4,59.97864181308594,
,,,,72,0,72,0,,,,,,,,,,,,,1563.4323598262272,None,,,,,,,,,,,,,,,,,,,,,,burden,C_sing,72,36,1559.1462294649682,None,1559.1462294649682,None,1559.1462294649682,None,5,1.9105345213320106,1559.1462294649682,None,1561.1035728158895,None,1561.1035728158895,None,1561.630650002393,None,1561.630650002393,None,1561.630650002393,None,f,1.7690524936188012,1561.630650002393,None,sing2,001,2019_Oct_22_1252,ProdFawcett_Revision2019,3.2.4,59.97864181308594,
,,,,73,0,73,0,,,,,,,,,,,,,1566.0809956649318,None,,,,,,,,,,,,,,,,,,,,,,enemy,D_new,73,113,1563.9645287286257,None,1563.9645287286257,None,1563.9645287286257,None,1,1.2117450322839431,1563.9645287286257,None,1565.214327899448,None,1565.214327899448,None,1565.7162515989621,None,1565.7162515989621,None,1565.7162515989621,None,n,0.33189515891717747,1565.7162515989621,None,sing2,001,2019_Oct_22_1252,ProdFawcett_Revision2019,3.2.4,59.97864181308594,
,,,,74,0,74,0,,,,,,,,,,,,,1569.4827429955476,None,,,,,,,,,,,,,,,,,,,,,,alert,D_new,74,6,1566.5990454121493,None,1566.5990454121493,None,1566.5990454121493,None,5,2.136422033945564,1566.5990454121493,None,1568.7986144262832,None,1568.7986144262832,None,1569.3153576563345,None,1569.3153576563345,None,1569.3153576563345,None,f,0.13255286478670314,1569.3153576563345,None,sing2,001,2019_Oct_22_1252,ProdFawcett_Revision2019,3.2.4,59.97864181308594,
,,,,75,0,75,0,,,,,,,,,,,,,1575.1171349674696,None,,,,,,,,,,,,,,,,,,,,,,sound,D_new,75,295,1569.999598808121,None,1569.999598808121,None,1569.999598808121,None,4,3.3279721864964813,1569.999598808121,None,1573.3669686594512,None,1573.3669686594512,None,1573.8703655729187,None,1573.8703655729187,None,1573.8703655729187,None,f,1.2093273069476709,1573.8703655729187,None,sing2,001,2019_Oct_22_1252,ProdFawcett_Revision2019,3.2.4,59.97864181308594,
,,,,76,0,76,0,,,,,,,,,,,,,1578.1849360845517,None,,,,,,,,,,,,,,,,,,,,,,music,C_sing,76,196,1575.636474126717,None,1575.636474126717,None,1575.636474126717,None,6,1.659013646421954,1575.636474126717,None,1577.3405789416865,None,1577.3405789416865,None,1577.851772039663,None,1577.851772039663,None,1577.851772039663,None,r,0.29189352924004197,1577.851772039663,None,sing2,001,2019_Oct_22_1252,ProdFawcett_Revision2019,3.2.4,59.97864181308594,
,,,,77,0,77,0,,,,,,,,,,,,,1580.9860599816311,None,,,,,,,,,,,,,,,,,,,,,,hearing,C_sing,77,150,1578.7037683113595,None,1578.7037683113595,None,1578.7037683113595,None,6,1.50378162227571,1578.7037683113595,None,1580.2565762036247,None,1580.2565762036247,None,1580.7702019550488,None,1580.7702019550488,None,1580.7702019550488,None,r,0.18158628785749897,1580.7702019550488,None,sing2,001,2019_Oct_22_1252,ProdFawcett_Revision2019,3.2.4,59.97864181308594,
,,,,78,0,78,0,,,,,,,,,,,,,1583.853477882687,None,,,,,,,,,,,,,,,,,,,,,,broke,B_aloud,78,32,1581.5023625225876,None,1581.5023625225876,None,1581.5023625225876,None,3,1.5042101822327822,1581.5023625225876,None,1583.06208957528,None,1583.06208957528,None,1583.586391695775,None,1583.586391695775,None,1583.586391695775,None,f,0.22869087982689962,1583.586391695775,None,sing2,001,2019_Oct_22_1252,ProdFawcett_Revision2019,3.2.4,59.97864181308594,
,,,,79,0,79,0,,,,,,,,,,,,,1586.5731470766477,None,,,,,,,,,,,,,,,,,,,,,,measure,C_sing,79,184,1584.3569261113298,None,1584.3569261113298,None,1584.3569261113298,None,4,1.402102183259558,1584.3569261113298,None,1585.8205708183232,None,1585.8205708183232,None,1586.3372630440863,None,1586.3372630440863,None,1586.3372630440863,None,f,0.2129402108839713,1586.3372630440863,None,sing2,001,2019_Oct_22_1252,ProdFawcett_Revision2019,3.2.4,59.97864181308594,
,,,,80,0,80,0,,,,,,,,,,,,,1592.0723631974543,None,,,,,,,,,,,,,,,,,,,,,,region,A_silent,80,256,1587.1044473519432,None,1587.1044473519432,None,1587.1044473519432,None,5,3.1419531949213706,1587.1044473519432,None,1590.2771240699803,None,1590.2771240699803,None,1590.795178171189,None,1590.795178171189,None,1590.795178171189,None,f,1.2350567686371505,1590.795178171189,None,sing2,001,2019_Oct_22_1252,ProdFawcett_Revision2019,3.2.4,59.97864181308594,
,,,,81,0,81,0,,,,,,,,,,,,,1597.8747071532416,None,,,,,,,,,,,,,,,,,,,,,,background,D_new,81,16,1592.5893194635282,None,1592.5893194635282,None,1592.5893194635282,None,6,4.664863583864644,1592.5893194635282,None,1597.293956712936,None,1597.293956712936,None,1597.7971492984216,None,1597.7971492984216,None,1597.7971492984216,None,r,0.03247352835023776,1597.7971492984216,None,sing2,001,2019_Oct_22_1252,ProdFawcett_Revision2019,3.2.4,59.97864181308594,
,,,,82,0,82,0,,,,,,,,,,,,,1600.7248523443122,None,,,,,,,,,,,,,,,,,,,,,,staff,C_sing,82,301,1598.3914547373424,None,1598.3914547373424,None,1598.3914547373424,None,2,1.2942835754947737,1598.3914547373424,None,1599.7134765329538,None,1599.7134765329538,None,1600.2268202060368,None,1600.2268202060368,None,1600.2268202060368,None,n,0.4506380039383657,1600.2268202060368,None,sing2,001,2019_Oct_22_1252,ProdFawcett_Revision2019,3.2.4,59.97864181308594,
,,,,83,0,83,0,,,,,,,,,,,,,1604.3125462031458,None,,,,,,,,,,,,,,,,,,,,,,character,B_aloud,83,46,1601.2458656243398,None,1601.2458656243398,None,1601.2458656243398,None,6,1.9915684394072741,1601.2458656243398,None,1603.280371547211,None,1603.280371547211,None,1603.7924024831736,None,1603.7924024831736,None,1603.7924024831736,None,r,0.49325360084185377,1603.7924024831736,None,sing2,001,2019_Oct_22_1252,ProdFawcett_Revision2019,3.2.4,59.97864181308594,
,,,,84,0,84,0,,,,,,,,,,,,,1607.6771276154323,None,,,,,,,,,,,,,,,,,,,,,,department,A_silent,84,90,1604.8448208460468,None,1604.8448208460468,None,1604.8448208460468,None,6,1.9049336960888468,1604.8448208460468,None,1606.7935423034942,None,1606.7935423034942,None,1607.2970073262695,None,1607.2970073262695,None,1607.2970073262695,None,r,0.34068095014663413,1607.2970073262695,None,sing2,001,2019_Oct_22_1252,ProdFawcett_Revision2019,3.2.4,59.97864181308594,
,,,,85,0,85,0,,,,,,,,,,,,,1610.4111106515047,None,,,,,,,,,,,,,,,,,,,,,,union,D_new,85,344,1608.1953875995823,None,1608.1953875995823,None,1608.1953875995823,None,5,1.2016418388811871,1608.1953875995823,None,1609.4608926550718,None,1609.4608926550718,None,1609.9777739697602,None,1609.9777739697602,None,1609.9777739697602,None,r,0.39521847694413736,1609.9777739697602,None,sing2,001,2019_Oct_22_1252,ProdFawcett_Revision2019,3.2.4,59.97864181308594,
,,,,86,0,86,0,,,,,,,,,,,,,1613.5348046397557,None,,,,,,,,,,,,,,,,,,,,,,collection,C_sing,86,54,1610.930295554048,None,1610.930295554048,None,1610.930295554048,None,5,1.3393290268140845,1610.930295554048,None,1612.319632371422,None,1612.319632371422,None,1612.8457833955763,None,1612.8457833955763,None,1612.8457833955763,None,r,0.6554915549349971,1612.8457833955763,None,sing2,001,2019_Oct_22_1252,ProdFawcett_Revision2019,3.2.4,59.97864181308594,
,,,,87,0,87,0,,,,,,,,,,,,,1616.587109798158,None,,,,,,,,,,,,,,,,,,,,,,write,D_new,87,358,1614.0542398984544,None,1614.0542398984544,None,1614.0542398984544,None,3,1.3349796714028344,1614.0542398984544,None,1615.4360940207262,None,1615.4360940207262,None,1615.9520022118231,None,1615.9520022118231,None,1615.9520022118231,None,f,0.5965011091902852,1615.9520022118231,None,sing2,001,2019_Oct_22_1252,ProdFawcett_Revision2019,3.2.4,59.97864181308594,
,,,,88,0,88,0,,,,,,,,,,,,,1619.4806169896037,None,,,,,,,,,,,,,,,,,,,,,,center,D_new,88,44,1617.114711644128,None,1617.114711644128,None,1617.114711644128,None,1,1.545809737406671,1617.114711644128,None,1618.7139309060294,None,1618.7139309060294,None,1619.2309590134537,None,1619.2309590134537,None,1619.2309590134537,None,n,0.21356563485460356,1619.2309590134537,None,sing2,001,2019_Oct_22_1252,ProdFawcett_Revision2019,3.2.4,59.97864181308594,
,,,,89,0,89,0,,,,,,,,,,,,,1623.1821277413983,None,,,,,,,,,,,,,,,,,,,,,,interview,D_new,89,165,1619.9889921033755,None,1619.9889921033755,None,1619.9889921033755,None,2,1.9354684412828647,1619.9889921033755,None,1621.9647246595123,None,1621.9647246595123,None,1622.469465099275,None,1622.469465099275,None,1622.469465099275,None,n,0.6791895550559275,1622.469465099275,None,sing2,001,2019_Oct_22_1252,ProdFawcett_Revision2019,3.2.4,59.97864181308594,
,,,,90,0,90,0,,,,,,,,,,,,,1625.7825580429635,None,,,,,,,,,,,,,,,,,,,,,,ground,B_aloud,90,142,1623.7003752854653,None,1623.7003752854653,None,1623.7003752854653,None,3,1.3995563253411092,1623.7003752854653,None,1625.148972808849,None,1625.148972808849,None,1625.6658587885322,None,1625.6658587885322,None,1625.6658587885322,None,f,0.07477003772510216,1625.6658587885322,None,sing2,001,2019_Oct_22_1252,ProdFawcett_Revision2019,3.2.4,59.97864181308594,
,,,,91,0,91,0,,,,,,,,,,,,,1628.3404078908497,None,,,,,,,,,,,,,,,,,,,,,,place,D_new,91,222,1626.2993892864324,None,1626.2993892864324,None,1626.2993892864324,None,1,1.1448284034268,1626.2993892864324,None,1627.4889113985118,None,1627.4889113985118,None,1628.0091204288183,None,1628.0091204288183,None,1628.0091204288183,None,n,0.3070557833998464,1628.0091204288183,None,sing2,001,2019_Oct_22_1252,ProdFawcett_Revision2019,3.2.4,59.97864181308594,
,,,,92,0,92,0,,,,,,,,,,,,,1630.7673805498052,None,,,,,,,,,,,,,,,,,,,,,,rural,B_aloud,92,269,1628.8533441520412,None,1628.8533441520412,None,1628.8533441520412,None,6,1.0143844395061024,1628.8533441520412,None,1629.924213920487,None,1629.924213920487,None,1630.4510870900704,None,1630.4510870900704,None,1630.4510870900704,None,r,0.28075687802629545,1630.4510870900704,None,sing2,001,2019_Oct_22_1252,ProdFawcett_Revision2019,3.2.4,59.97864181308594,
,,,,93,0,93,0,,,,,,,,,,,,,1635.21921342134,None,,,,,,,,,,,,,,,,,,,,,,bicycle,D_new,93,21,1631.2850791763049,None,1631.2850791763049,None,1631.2850791763049,None,1,2.3988276488962583,1631.2850791763049,None,1633.7192655141116,None,1633.7192655141116,None,1634.2351625091396,None,1634.2351625091396,None,1634.2351625091396,None,n,0.9448236761963926,1634.2351625091396,None,sing2,001,2019_Oct_22_1252,ProdFawcett_Revision2019,3.2.4,59.97864181308594,
,,,,94,0,94,0,,,,,,,,,,,,,1639.803519230336,None,,,,,,,,,,,,,,,,,,,,,,executive,D_new,94,122,1635.7355551485089,None,1635.7355551485089,None,1635.7355551485089,None,5,2.6839335713302717,1635.7355551485089,None,1638.4565249505686,None,1638.4565249505686,None,1638.9710768643417,None,1638.9710768643417,None,1638.9710768643417,None,r,0.7924015501630493,1638.9710768643417,None,sing2,001,2019_Oct_22_1252,ProdFawcett_Revision2019,3.2.4,59.97864181308594,
,,,,95,0,95,0,,,,,,,,,,,,,1642.7717516752891,None,,,,,,,,,,,,,,,,,,,,,,poetry,D_new,95,225,1640.3057212761487,None,1640.3057212761487,None,1640.3057212761487,None,1,1.2975885880296119,1640.3057212761487,None,1641.6441630157642,None,1641.6441630157642,None,1642.1710259222891,None,1642.1710259222891,None,1642.1710259222891,None,n,0.5602582431747578,1642.1710259222891,None,sing2,001,2019_Oct_22_1252,ProdFawcett_Revision2019,3.2.4,59.97864181308594,
,,,,96,0,96,0,,,,,,,,,,,,,1647.0896629646304,None,,,,,,,,,,,,,,,,,,,,,,mayor,B_aloud,96,183,1643.2899740283028,None,1643.2899740283028,None,1643.2899740283028,None,6,2.9525421104044653,1643.2899740283028,None,1646.2942359922454,None,1646.2942359922454,None,1646.8222396521596,None,1646.8222396521596,None,1646.8222396521596,None,r,0.22026242926949635,1646.8222396521596,None,sing2,001,2019_Oct_22_1252,ProdFawcett_Revision2019,3.2.4,59.97864181308594,
,,,,97,0,97,0,,,,,,,,,,,,,1649.864047578245,None,,,,,,,,,,,,,,,,,,,,,,graduate,B_aloud,97,141,1647.6088270299952,None,1647.6088270299952,None,1647.6088270299952,None,6,1.3385095379780978,1647.6088270299952,None,1648.9967817569268,None,1648.9967817569268,None,1649.523023904534,None,1649.523023904534,None,1649.523023904534,None,r,0.3116026247735135,1649.523023904534,None,sing2,001,2019_Oct_22_1252,ProdFawcett_Revision2019,3.2.4,59.97864181308594,
,,,,98,0,98,0,,,,,,,,,,,,,1652.4245210344088,None,,,,,,,,,,,,,,,,,,,,,,quantity,A_silent,98,245,1650.3953982358216,None,1650.3953982358216,None,1650.3953982358216,None,2,1.198760410421528,1650.3953982358216,None,1651.6475787447998,None,1651.6475787447998,None,1652.1602326166467,None,1652.1602326166467,None,1652.1602326166467,None,n,0.2179600854869932,1652.1602326166467,None,sing2,001,2019_Oct_22_1252,ProdFawcett_Revision2019,3.2.4,59.97864181308594,
,,,,99,0,99,0,,,,,,,,,,,,,1656.5288020006265,None,,,,,,,,,,,,,,,,,,,,,,command,D_new,99,60,1652.9436664397363,None,1652.9436664397363,None,1652.9436664397363,None,2,2.682131317909807,1652.9436664397363,None,1655.6479354634648,None,1655.6479354634648,None,1656.161042775435,None,1656.161042775435,None,1656.161042775435,None,n,0.33739242068259045,1656.161042775435,None,sing2,001,2019_Oct_22_1252,ProdFawcett_Revision2019,3.2.4,59.97864181308594,
,,,,100,0,100,0,,,,,,,,,,,,,1660.4936890028766,None,,,,,,,,,,,,,,,,,,,,,,death,D_new,100,86,1657.0591160902986,None,1657.0591160902986,None,1657.0591160902986,None,1,2.734549058775883,1657.0591160902986,None,1659.8508679584484,None,1659.8508679584484,None,1660.376690876088,None,1660.376690876088,None,1660.376690876088,None,n,0.07387684157583863,1660.376690876088,None,sing2,001,2019_Oct_22_1252,ProdFawcett_Revision2019,3.2.4,59.97864181308594,
,,,,101,0,101,0,,,,,,,,,,,,,1663.1438251126674,None,,,,,,,,,,,,,,,,,,,,,,order,C_sing,101,207,1661.011100575095,None,1661.011100575095,None,1661.011100575095,None,2,1.2307123892824166,1661.011100575095,None,1662.2843066487112,None,1662.2843066487112,None,1662.8108737927978,None,1662.8108737927978,None,1662.8108737927978,None,n,0.29510990635026246,1662.8108737927978,None,sing2,001,2019_Oct_22_1252,ProdFawcett_Revision2019,3.2.4,59.97864181308594,
,,,,102,0,102,0,,,,,,,,,,,,,1665.782225893403,None,,,,,,,,,,,,,,,,,,,,,,suggestion,D_new,102,314,1663.6609396784916,None,1663.6609396784916,None,1663.6609396784916,None,5,1.429061344708316,1663.6609396784916,None,1665.1337810095865,None,1665.1337810095865,None,1665.6631580519024,None,1665.6631580519024,None,1665.6631580519024,None,f,0.0822225657175295,1665.6631580519024,None,sing2,001,2019_Oct_22_1252,ProdFawcett_Revision2019,3.2.4,59.97864181308594,
,,,,103,0,103,0,,,,,,,,,,,,,1668.9126228961395,None,,,,,,,,,,,,,,,,,,,,,,reading,D_new,103,254,1666.3021114821895,None,1666.3021114821895,None,1666.3021114821895,None,4,1.955567843571771,1666.3021114821895,None,1668.295575475553,None,1668.295575475553,None,1668.8122297591763,None,1668.8122297591763,None,1668.8122297591763,None,f,0.061597259948030114,1668.8122297591763,None,sing2,001,2019_Oct_22_1252,ProdFawcett_Revision2019,3.2.4,59.97864181308594,
,,,,104,0,104,0,,,,,,,,,,,,,1671.71321840171,None,,,,,,,,,,,,,,,,,,,,,,emergency,D_new,104,110,1669.4347396093654,None,1669.4347396093654,None,1669.4347396093654,None,1,1.5902789029642008,1669.4347396093654,None,1671.052673073078,None,1671.052673073078,None,1671.567020347924,None,1671.567020347924,None,1671.567020347924,None,n,0.1064694834058173,1671.567020347924,None,sing2,001,2019_Oct_22_1252,ProdFawcett_Revision2019,3.2.4,59.97864181308594,
,,,,105,0,105,0,,,,,,,,,,,,,1676.5979684140766,None,,,,,,,,,,,,,,,,,,,,,,travel,D_new,105,338,1672.2298307001474,None,1672.2298307001474,None,1672.2298307001474,None,2,1.6512830831343308,1672.2298307001474,None,1673.9140339097357,None,1673.9140339097357,None,1674.4307192935375,None,1674.4307192935375,None,1674.4307192935375,None,f,2.130486571113579,1674.4307192935375,None,sing2,001,2019_Oct_22_1252,ProdFawcett_Revision2019,3.2.4,59.97864181308594,
,,,,106,0,106,0,,,,,,,,,,,,,1679.2820798782632,None,,,,,,,,,,,,,,,,,,,,,,marriage,C_sing,106,179,1677.1156835237052,None,1677.1156835237052,None,1677.1156835237052,None,6,1.52595105022192,1677.1156835237052,None,1678.6825695189182,None,1678.6825695189182,None,1679.1987283772323,None,1679.1987283772323,None,1679.1987283772323,None,r,0.042877771134953946,1679.1987283772323,None,sing2,001,2019_Oct_22_1252,ProdFawcett_Revision2019,3.2.4,59.97864181308594,
,,,,107,0,107,0,,,,,,,,,,,,,1681.8850392437307,None,,,,,,,,,,,,,,,,,,,,,,curve,A_silent,107,82,1679.7843618514598,None,1679.7843618514598,None,1679.7843618514598,None,6,1.4087840496213175,1679.7843618514598,None,1681.2414795708028,None,1681.2414795708028,None,1681.7665632379358,None,1681.7665632379358,None,1681.7665632379358,None,r,0.07450568652711809,1681.7665632379358,None,sing2,001,2019_Oct_22_1252,ProdFawcett_Revision2019,3.2.4,59.97864181308594,
,,,,108,0,108,0,,,,,,,,,,,,,1684.017815718602,None,,,,,,,,,,,,,,,,,,,,,,conference,B_aloud,108,66,1682.406973710109,None,1682.406973710109,None,1682.406973710109,None,6,0.6894622442196123,1682.406973710109,None,1683.1415939882281,None,1683.1415939882281,None,1683.6523072109558,None,1683.6523072109558,None,1683.6523072109558,None,r,0.3159037749283016,1683.6523072109558,None,sing2,001,2019_Oct_22_1252,ProdFawcett_Revision2019,3.2.4,59.97864181308594,
,,,,109,0,109,0,,,,,,,,,,,,,1686.469034362235,None,,,,,,,,,,,,,,,,,,,,,,shear,D_new,109,283,1684.5351479853853,None,1684.5351479853853,None,1684.5351479853853,None,1,1.2169306706055067,1684.5351479853853,None,1685.8045430470956,None,1685.8045430470956,None,1686.3342192728305,None,1686.3342192728305,None,1686.3342192728305,None,n,0.0980410329066217,1686.3342192728305,None,sing2,001,2019_Oct_22_1252,ProdFawcett_Revision2019,3.2.4,59.97864181308594,
,,,,110,0,110,0,,,,,,,,,,,,,1692.752792093379,None,,,,,,,,,,,,,,,,,,,,,,subject,B_aloud,110,312,1687.0048628188088,None,1687.0048628188088,None,1687.0048628188088,None,2,3.827307109895628,1687.0048628188088,None,1690.878250081907,None,1690.878250081907,None,1691.4078040840104,None,1691.4078040840104,None,1691.4078040840104,None,n,1.304871620144695,1691.4078040840104,None,sing2,001,2019_Oct_22_1252,ProdFawcett_Revision2019,3.2.4,59.97864181308594,
,,,,111,0,111,0,,,,,,,,,,,,,1697.9544525923557,None,,,,,,,,,,,,,,,,,,,,,,bitter,D_new,111,23,1693.2700071125873,None,1693.2700071125873,None,1693.2700071125873,None,4,3.105771285132505,1693.2700071125873,None,1696.412422144669,None,1696.412422144669,None,1696.923134745448,None,1696.923134745448,None,1696.923134745448,None,f,0.9963575509027578,1696.923134745448,None,sing2,001,2019_Oct_22_1252,ProdFawcett_Revision2019,3.2.4,59.97864181308594,
,,,,112,0,112,0,,,,,,,,,,,,,1700.9234028286883,None,,,,,,,,,,,,,,,,,,,,,,population,D_new,112,227,1698.4733905596659,None,1698.4733905596659,None,1698.4733905596659,None,5,1.6142888376489282,1698.4733905596659,None,1700.1385166287655,None,1700.1385166287655,None,1700.6552592368098,None,1700.6552592368098,None,1700.6552592368098,None,f,0.2247424052329734,1700.6552592368098,None,sing2,001,2019_Oct_22_1252,ProdFawcett_Revision2019,3.2.4,59.97864181308594,
,,,,113,0,113,0,,,,,,,,,,,,,1704.172894730058,None,,,,,,,,,,,,,,,,,,,,,,scale,D_new,113,272,1701.43916795915,None,1701.43916795915,None,1701.43916795915,None,4,1.9120111562660895,1701.43916795915,None,1703.389336195367,None,1703.389336195367,None,1703.8918408456375,None,1703.8918408456375,None,1703.8918408456375,None,f,0.24356172553962097,1703.8918408456375,None,sing2,001,2019_Oct_22_1252,ProdFawcett_Revision2019,3.2.4,59.97864181308594,
,,,,114,0,114,0,,,,,,,,,,,,,1706.623978088086,None,,,,,,,,,,,,,,,,,,,,,,front,D_new,114,134,1704.6897819537553,None,1704.6897819537553,None,1704.6897819537553,None,1,1.1495658886269666,1704.6897819537553,None,1705.880159319844,None,1705.880159319844,None,1706.406986150192,None,1706.406986150192,None,1706.406986150192,None,n,0.17654371017124504,1706.406986150192,None,sing2,001,2019_Oct_22_1252,ProdFawcett_Revision2019,3.2.4,59.97864181308594,
,,,,115,0,115,0,,,,,,,,,,,,,1710.8255714107654,None,,,,,,,,,,,,,,,,,,,,,,finance,D_new,115,129,1707.1425593367312,None,1707.1425593367312,None,1707.1425593367312,None,2,2.9604297293699346,1707.1425593367312,None,1710.1584129471448,None,1710.1584129471448,None,1710.6749894804088,None,1710.6749894804088,None,1710.6749894804088,None,n,0.11585923947859555,1710.6749894804088,None,sing2,001,2019_Oct_22_1252,ProdFawcett_Revision2019,3.2.4,59.97864181308594,
,,,,116,0,116,0,,,,,,,,,,,,,1713.0932006062358,None,,,,,,,,,,,,,,,,,,,,,,sweet,A_silent,116,319,1711.3427596839028,None,1711.3427596839028,None,1711.3427596839028,None,2,1.063764940132387,1711.3427596839028,None,1712.4492733295774,None,1712.4492733295774,None,1712.9756293036626,None,1712.9756293036626,None,1712.9756293036626,None,n,0.07064864644780755,1712.9756293036626,None,sing2,001,2019_Oct_22_1252,ProdFawcett_Revision2019,3.2.4,59.97864181308594,
,,,,117,0,117,0,,,,,,,,,,,,,1715.109689281555,None,,,,,,,,,,,,,,,,,,,,,,waste,D_new,117,350,1713.6103867023485,None,1713.6103867023485,None,1713.6103867023485,None,2,0.7800392421195284,1713.6103867023485,None,1714.4262159923674,None,1714.4262159923674,None,1714.9303017740604,None,1714.9303017740604,None,1714.9303017740604,None,n,0.14041311567416415,1714.9303017740604,None,sing2,001,2019_Oct_22_1252,ProdFawcett_Revision2019,3.2.4,59.97864181308594,
,,,,118,0,118,0,,,,,,,,,,,,,1720.0945512855542,None,,,,,,,,,,,,,,,,,,,,,,management,D_new,118,177,1715.6264891138417,None,1715.6264891138417,None,1715.6264891138417,None,4,2.1956842949730344,1715.6264891138417,None,1717.8685191572295,None,1717.8685191572295,None,1718.3858949642163,None,1718.3858949642163,None,1718.3858949642163,None,f,1.668728088028729,1718.3858949642163,None,sing2,001,2019_Oct_22_1252,ProdFawcett_Revision2019,3.2.4,59.97864181308594,
,,,,119,0,119,0,,,,,,,,,,,,,1723.5519122080295,None,,,,,,,,,,,,,,,,,,,,,,crisis,D_new,119,79,1720.5998403318808,None,1720.5998403318808,None,1720.5998403318808,None,3,1.9337775263702497,1720.5998403318808,None,1722.579828009999,None,1722.579828009999,None,1723.095368908369,None,1723.095368908369,None,1723.095368908369,None,f,0.4303128145984374,1723.095368908369,None,sing2,001,2019_Oct_22_1252,ProdFawcett_Revision2019,3.2.4,59.97864181308594,
,,,,120,0,120,0,,,,,,,,,,,,,1726.296412069467,None,,,,,,,,,,,,,,,,,,,,,,count,D_new,120,72,1724.07139598293,None,1724.07139598293,None,1724.07139598293,None,2,1.486481855099555,1724.07139598293,None,1725.6047491788631,None,1725.6047491788631,None,1726.130045882077,None,1726.130045882077,None,1726.130045882077,None,f,0.12508603074820712,1726.130045882077,None,sing2,001,2019_Oct_22_1252,ProdFawcett_Revision2019,3.2.4,59.97864181308594,
,,,,121,0,121,0,,,,,,,,,,,,,1730.1318692836212,None,,,,,,,,,,,,,,,,,,,,,,industry,D_new,121,161,1726.8155752018793,None,1726.8155752018793,None,1726.8155752018793,None,5,2.55822211666964,1726.8155752018793,None,1729.4203166057123,None,1729.4203166057123,None,1729.9476354403887,None,1729.9476354403887,None,1729.9476354403887,None,f,0.1457377716433257,1729.9476354403887,None,sing2,001,2019_Oct_22_1252,ProdFawcett_Revision2019,3.2.4,59.97864181308594,
,,,,122,0,122,0,,,,,,,,,,,,,1732.5824677903438,None,,,,,,,,,,,,,,,,,,,,,,frank,B_aloud,122,133,1730.649908767722,None,1730.649908767722,None,1730.649908767722,None,6,1.0596765149384737,1730.649908767722,None,1731.752687285887,None,1731.752687285887,None,1732.2654204631108,None,1732.2654204631108,None,1732.2654204631108,None,r,0.2836886887671426,1732.2654204631108,None,sing2,001,2019_Oct_22_1252,ProdFawcett_Revision2019,3.2.4,59.97864181308594,
,,,,123,0,123,0,,,,,,,,,,,,,1736.0666637847316,None,,,,,,,,,,,,,,,,,,,,,,phrase,C_sing,123,220,1733.0993155168835,None,1733.0993155168835,None,1733.0993155168835,None,5,2.12971466552699,1733.0993155168835,None,1735.2726534240064,None,1735.2726534240064,None,1735.7992071951157,None,1735.7992071951157,None,1735.7992071951157,None,r,0.22965622827177867,1735.7992071951157,None,sing2,001,2019_Oct_22_1252,ProdFawcett_Revision2019,3.2.4,59.97864181308594,
,,,,124,0,124,0,,,,,,,,,,,,,1738.6188328799326,None,,,,,,,,,,,,,,,,,,,,,,career,C_sing,124,42,1736.584921591857,None,1736.584921591857,None,1736.584921591857,None,6,1.3798117756959982,1736.584921591857,None,1738.0001471036812,None,1738.0001471036812,None,1738.517232435348,None,1738.517232435348,None,1738.517232435348,None,r,0.05540335492696613,1738.517232435348,None,sing2,001,2019_Oct_22_1252,ProdFawcett_Revision2019,3.2.4,59.97864181308594,
,,,,125,0,125,0,,,,,,,,,,,,,1742.1394651832525,None,,,,,,,,,,,,,,,,,,,,,,public,D_new,125,244,1739.1510086244089,None,1739.1510086244089,None,1739.1510086244089,None,4,2.4136751695768908,1739.1510086244089,None,1741.5899893606547,None,1741.5899893606547,None,1742.1050139966537,None,1742.1050139966537,None,1742.1050139966537,None,f,0.0032879074569791555,1742.1050139966537,None,sing2,001,2019_Oct_22_1252,ProdFawcett_Revision2019,3.2.4,59.97864181308594,
,,,,126,0,126,0,,,,,,,,,,,,,1745.2188144064858,None,,,,,,,,,,,,,,,,,,,,,,message,B_aloud,126,189,1742.6685822283034,None,1742.6685822283034,None,1742.6685822283034,None,3,1.2797467452473938,1742.6685822283034,None,1744.0018075404805,None,1744.0018075404805,None,1744.50723871449,None,1744.50723871449,None,1744.50723871449,None,f,0.6649469322874211,1744.50723871449,None,sing2,001,2019_Oct_22_1252,ProdFawcett_Revision2019,3.2.4,59.97864181308594,
,,,,127,0,127,0,,,,,,,,,,,,,1747.5530741094844,None,,,,,,,,,,,,,,,,,,,,,,personnel,B_aloud,127,219,1745.7361575583345,None,1745.7361575583345,None,1745.7361575583345,None,6,1.1960298175690696,1745.7361575583345,None,1746.9771074936143,None,1746.9771074936143,None,1747.503123543167,None,1747.503123543167,None,1747.503123543167,None,r,0.013133280561305583,1747.503123543167,None,sing2,001,2019_Oct_22_1252,ProdFawcett_Revision2019,3.2.4,59.97864181308594,
,,,,128,0,128,0,,,,,,,,,,,,,1751.1540707447566,None,,,,,,,,,,,,,,,,,,,,,,meeting,D_new,128,187,1748.0570292705088,None,1748.0570292705088,None,1748.0570292705088,None,2,1.314961129508447,1748.0570292705088,None,1749.427256292256,None,1749.427256292256,None,1749.9536104003782,None,1749.9536104003782,None,1749.9536104003782,None,n,1.1542075853794813,1749.9536104003782,None,sing2,001,2019_Oct_22_1252,ProdFawcett_Revision2019,3.2.4,59.97864181308594,
,,,,129,0,129,0,,,,,,,,,,,,,1756.0555134494207,None,,,,,,,,,,,,,,,,,,,,,,fellow,D_new,129,126,1751.6731922029285,None,1751.6731922029285,None,1751.6731922029285,None,1,3.755255535885226,1751.6731922029285,None,1755.4886190571124,None,1755.4886190571124,None,1755.9965534818475,None,1755.9965534818475,None,1755.9965534818475,None,n,0.030902348924428225,1755.9965534818475,None,sing2,001,2019_Oct_22_1252,ProdFawcett_Revision2019,3.2.4,59.97864181308594,
,,,,130,0,130,0,,,,,,,,,,,,,1760.2067637219443,None,,,,,,,,,,,,,,,,,,,,,,carry,B_aloud,130,43,1756.5579748704913,None,1756.5579748704913,None,1756.5579748704913,None,2,1.7261880955775268,1756.5579748704913,None,1758.3395196706988,None,1758.3395196706988,None,1758.8562880918616,None,1758.8562880918616,None,1758.8562880918616,None,n,1.307819603011012,1758.8562880918616,None,sing2,001,2019_Oct_22_1252,ProdFawcett_Revision2019,3.2.4,59.97864181308594,
,,,,131,0,131,0,,,,,,,,,,,,,1763.0909318505437,None,,,,,,,,,,,,,,,,,,,,,,youth,C_sing,131,359,1760.7248215551372,None,1760.7248215551372,None,1760.7248215551372,None,6,1.3343753955559805,1760.7248215551372,None,1762.108576518367,None,1762.108576518367,None,1762.6240738765337,None,1762.6240738765337,None,1762.6240738765337,None,r,0.4190048015443608,1762.6240738765337,None,sing2,001,2019_Oct_22_1252,ProdFawcett_Revision2019,3.2.4,59.97864181308594,
,,,,132,0,132,0,,,,,,,,,,,,,1766.1751553996583,None,,,,,,,,,,,,,,,,,,,,,,weight,D_new,132,353,1763.6089918607613,None,1763.6089918607613,None,1763.6089918607613,None,3,1.3228742506471463,1763.6089918607613,None,1764.9815090972697,None,1764.9815090972697,None,1765.4920030640205,None,1765.4920030640205,None,1765.4920030640205,None,f,0.6393841673270799,1765.4920030640205,None,sing2,001,2019_Oct_22_1252,ProdFawcett_Revision2019,3.2.4,59.97864181308594,
,,,,133,0,133,0,,,,,,,,,,,,,1769.762206418498,None,,,,,,,,,,,,,,,,,,,,,,business,D_new,133,38,1766.6938473648624,None,1766.6938473648624,None,1766.6938473648624,None,5,1.9094074520398863,1766.6938473648624,None,1768.659212687402,None,1768.659212687402,None,1769.1764780888916,None,1769.1764780888916,None,1769.1764780888916,None,r,0.5547426322591491,1769.1764780888916,None,sing2,001,2019_Oct_22_1252,ProdFawcett_Revision2019,3.2.4,59.97864181308594,
,,,,134,0,134,0,,,,,,,,,,,,,1772.661945457221,None,,,,,,,,,,,,,,,,,,,,,,council,C_sing,134,71,1770.2793023242266,None,1770.2793023242266,None,1770.2793023242266,None,4,1.6759171977173537,1770.2793023242266,None,1771.993970925745,None,1771.993970925745,None,1772.510895780637,None,1772.510895780637,None,1772.510895780637,None,r,0.11634657875401899,1772.510895780637,None,sing2,001,2019_Oct_22_1252,ProdFawcett_Revision2019,3.2.4,59.97864181308594,
,,,,135,0,135,0,,,,,,,,,,,,,1777.8464685318177,None,,,,,,,,,,,,,,,,,,,,,,pretty,A_silent,135,233,1773.1940126621048,None,1773.1940126621048,None,1773.1940126621048,None,6,4.000765374628827,1773.1940126621048,None,1777.236362041789,None,1777.236362041789,None,1777.7626458635787,None,1777.7626458635787,None,1777.7626458635787,None,r,0.04057698237011209,1777.7626458635787,None,sing2,001,2019_Oct_22_1252,ProdFawcett_Revision2019,3.2.4,59.97864181308594,
,,,,136,0,136,0,,,,,,,,,,,,,1780.3460404382786,None,,,,,,,,,,,,,,,,,,,,,,store,D_new,136,305,1778.3637062541675,None,1778.3637062541675,None,1778.3637062541675,None,2,1.3271467885933816,1778.3637062541675,None,1779.74605082575,None,1779.74605082575,None,1780.2628630981199,None,1780.2628630981199,None,1780.2628630981199,None,n,0.03518204001011327,1780.2628630981199,None,sing2,001,2019_Oct_22_1252,ProdFawcett_Revision2019,3.2.4,59.97864181308594,
,,,,137,0,137,0,,,,,,,,,,,,,1784.2473469243268,None,,,,,,,,,,,,,,,,,,,,,,drama,A_silent,137,103,1780.8640531763085,None,1780.8640531763085,None,1780.8640531763085,None,6,1.2017848995747045,1780.8640531763085,None,1782.1216951818787,None,1782.1216951818787,None,1782.646980999969,None,1782.646980999969,None,1782.646980999969,None,r,1.5547395222820342,1782.646980999969,None,sing2,001,2019_Oct_22_1252,ProdFawcett_Revision2019,3.2.4,59.97864181308594,
,,,,138,0,138,0,,,,,,,,,,,,,1788.1652335200924,None,,,,,,,,,,,,,,,,,,,,,,route,A_silent,138,267,1784.7640969963977,None,1784.7640969963977,None,1784.7640969963977,None,3,1.8944268227205612,1784.7640969963977,None,1786.7156594521948,None,1786.7156594521948,None,1787.2320770637016,None,1787.2320770637016,None,1787.2320770637016,None,f,0.8902687332592905,1787.2320770637016,None,sing2,001,2019_Oct_22_1252,ProdFawcett_Revision2019,3.2.4,59.97864181308594,
,,,,139,0,139,0,,,,,,,,,,,,,1790.9664500956424,None,,,,,,,,,,,,,,,,,,,,,,government,B_aloud,139,139,1788.683844002895,None,1788.683844002895,None,1788.683844002895,None,6,1.6065066481241956,1788.683844002895,None,1790.3492431312916,None,1790.3492431312916,None,1790.86594375415,None,1790.86594375415,None,1790.86594375415,None,r,0.0635553250904195,1790.86594375415,None,sing2,001,2019_Oct_22_1252,ProdFawcett_Revision2019,3.2.4,59.97864181308594,
,,,,140,0,140,0,,,,,,,,,,,,,1793.667745323386,None,,,,,,,,,,,,,,,,,,,,,,finish,D_new,140,130,1791.4838414526894,None,1791.4838414526894,None,1791.4838414526894,None,3,1.4776298205833882,1791.4838414526894,None,1793.0000702863326,None,1793.0000702863326,None,1793.501949201629,None,1793.501949201629,None,1793.501949201629,None,f,0.12429391004843637,1793.501949201629,None,sing2,001,2019_Oct_22_1252,ProdFawcett_Revision2019,3.2.4,59.97864181308594,
,,,,141,0,141,0,,,,,,,,,,,,,1796.7853044968797,None,,,,,,,,,,,,,,,,,,,,,,state,A_silent,141,303,1794.1720494281035,None,1794.1720494281035,None,1794.1720494281035,None,3,1.5897396264481358,1794.1720494281035,None,1795.8062305410276,None,1795.8062305410276,None,1796.3358716235962,None,1796.3358716235962,None,1796.3358716235962,None,f,0.40117291087517515,1796.3358716235962,None,sing2,001,2019_Oct_22_1252,ProdFawcett_Revision2019,3.2.4,59.97864181308594,
,,,,142,0,142,0,,,,,,,,,,,,,1799.669508701656,None,,,,,,,,,,,,,,,,,,,,,,dream,D_new,142,104,1797.3017746676342,None,1797.3017746676342,None,1797.3017746676342,None,4,1.7239193398854695,1797.3017746676342,None,1799.0685481425608,None,1799.0685481425608,None,1799.5853501518723,None,1799.5853501518723,None,1799.5853501518723,None,f,0.03979388071456924,1799.5853501518723,None,sing2,001,2019_Oct_22_1252,ProdFawcett_Revision2019,3.2.4,59.97864181308594,
,,,,143,0,143,0,,,,,,,,,,,,,1802.336100209679,None,,,,,,,,,,,,,,,,,,,,,,century,C_sing,143,45,1800.1709242248326,None,1800.1709242248326,None,1800.1709242248326,None,4,1.5101549751125276,1800.1709242248326,None,1801.7237330500502,None,1801.7237330500502,None,1802.2361281687045,None,1802.2361281687045,None,1802.2361281687045,None,f,0.061408793029841036,1802.2361281687045,None,sing2,001,2019_Oct_22_1252,ProdFawcett_Revision2019,3.2.4,59.97864181308594,
,,,,144,0,144,0,,,,,,,,,,,,,1805.7049964561593,None,,,,,,,,,,,,,,,,,,,,,,break,A_silent,144,26,1802.854040795297,None,1802.854040795297,None,1802.854040795297,None,2,1.562372742104344,1802.854040795297,None,1804.45434576337,None,1804.45434576337,None,1804.9703792880755,None,1804.9703792880755,None,1804.9703792880755,None,f,0.6944121434935369,1804.9703792880755,None,sing2,001,2019_Oct_22_1252,ProdFawcett_Revision2019,3.2.4,59.97864181308594,
,,,,145,0,145,0,,,,,,,,,,,,,1808.5719142668531,None,,,,,,,,,,,,,,,,,,,,,,audience,D_new,145,14,1806.2248344616964,None,1806.2248344616964,None,1806.2248344616964,None,2,1.5833619195618667,1806.2248344616964,None,1807.8621535793645,None,1807.8621535793645,None,1808.388072907459,None,1808.388072907459,None,1808.388072907459,None,f,0.14096514327684417,1808.388072907459,None,sing2,001,2019_Oct_22_1252,ProdFawcett_Revision2019,3.2.4,59.97864181308594,
,,,,146,0,146,0,,,,,,,,,,,,,1811.3222276785527,None,,,,,,,,,,,,,,,,,,,,,,problem,C_sing,146,238,1809.0752959412057,None,1809.0752959412057,None,1809.0752959412057,None,1,1.5091890046023764,1809.0752959412057,None,1810.6298715657322,None,1810.6298715657322,None,1811.1421006096061,None,1811.1421006096061,None,1811.1421006096061,None,n,0.14649443817324936,1811.1421006096061,None,sing2,001,2019_Oct_22_1252,ProdFawcett_Revision2019,3.2.4,59.97864181308594,
,,,,147,0,147,0,,,,,,,,,,,,,1813.9413457468618,None,,,,,,,,,,,,,,,,,,,,,,entrance,D_new,147,115,1811.8418246579822,None,1811.8418246579822,None,1811.8418246579822,None,1,1.3266355022788048,1811.8418246579822,None,1813.222859291418,None,1813.222859291418,None,1813.7395832393668,None,1813.7395832393668,None,1813.7395832393668,None,n,0.1645235037431121,1813.7395832393668,None,sing2,001,2019_Oct_22_1252,ProdFawcett_Revision2019,3.2.4,59.97864181308594,
,,,,148,0,148,0,,,,,,,,,,,,,1816.5444285799167,None,,,,,,,,,,,,,,,,,,,,,,murder,D_new,148,195,1814.473660819931,None,1814.473660819931,None,1814.473660819931,None,1,1.2540319006657228,1814.473660819931,None,1815.7808360279305,None,1815.7808360279305,None,1816.3071403757785,None,1816.3071403757785,None,1816.3071403757785,None,n,0.21237045619636774,1816.3071403757785,None,sing2,001,2019_Oct_22_1252,ProdFawcett_Revision2019,3.2.4,59.97864181308594,
,,,,149,0,149,0,,,,,,,,,,,,,1821.2086714048637,None,,,,,,,,,,,,,,,,,,,,,,search,D_new,149,276,1817.059414340707,None,1817.059414340707,None,1817.059414340707,None,2,1.804659672663547,1817.059414340707,None,1818.9098717772285,None,1818.9098717772285,None,1819.4094533247408,None,1819.4094533247408,None,1819.4094533247408,None,n,1.7590677917469293,1819.4094533247408,None,sing2,001,2019_Oct_22_1252,ProdFawcett_Revision2019,3.2.4,59.97864181308594,
,,,,150,0,150,0,,,,,,,,,,,,,1824.1435523644323,None,,,,,,,,,,,,,,,,,,,,,,south,D_new,150,296,1821.717550963047,None,1821.717550963047,None,1821.717550963047,None,1,1.450782308646012,1821.717550963047,None,1823.2130248033209,None,1823.2130248033209,None,1823.7259483134258,None,1823.7259483134258,None,1823.7259483134258,None,n,0.3776213924284093,1823.7259483134258,None,sing2,001,2019_Oct_22_1252,ProdFawcett_Revision2019,3.2.4,59.97864181308594,
,,,,151,0,151,0,,,,,,,,,,,,,1826.795277069672,None,,,,,,,,,,,,,,,,,,,,,,series,D_new,151,279,1824.6615635473863,None,1824.6615635473863,None,1824.6615635473863,None,1,1.3779865081305616,1824.6615635473863,None,1826.093479263538,None,1826.093479263538,None,1826.6101217290852,None,1826.6101217290852,None,1826.6101217290852,None,n,0.14982526382664219,1826.6101217290852,None,sing2,001,2019_Oct_22_1252,ProdFawcett_Revision2019,3.2.4,59.97864181308594,
,,,,152,0,152,0,,,,,,,,,,,,,1829.9804283672129,None,,,,,,,,,,,,,,,,,,,,,,nation,A_silent,152,198,1827.311824057775,None,1827.311824057775,None,1827.311824057775,None,6,1.0718310739612207,1827.311824057775,None,1828.4441502025002,None,1828.4441502025002,None,1828.9611711568432,None,1828.9611711568432,None,1828.9611711568432,None,r,0.9977191153448075,1828.9611711568432,None,sing2,001,2019_Oct_22_1252,ProdFawcett_Revision2019,3.2.4,59.97864181308594,
,,,,153,0,153,0,,,,,,,,,,,,,1832.7121193225612,None,,,,,,,,,,,,,,,,,,,,,,minor,B_aloud,153,191,1830.5117193124606,None,1830.5117193124606,None,1830.5117193124606,None,6,1.0709730209200643,1830.5117193124606,None,1831.6450341308373,None,1831.6450341308373,None,1832.1622836712631,None,1832.1622836712631,None,1832.1622836712631,None,r,0.5095164891099557,1832.1622836712631,None,sing2,001,2019_Oct_22_1252,ProdFawcett_Revision2019,3.2.4,59.97864181308594,
