StudyTrials.thisRepN,StudyTrials.thisTrialN,StudyTrials.thisN,StudyTrials.thisIndex,TestTrials.thisRepN,TestTrials.thisTrialN,TestTrials.thisN,TestTrials.thisIndex,textWelcome.started,textWelcome.stopped,keyWelcome.keys,keyWelcome.rt,keyWelcome.started,keyWelcome.stopped,textReady.started,textReady.stopped,keyReady.keys,keyReady.rt,keyReady.started,keyReady.stopped,polyback_2.started,polyback_2.stopped,studyPic,studyWord,studyType,studyN,studyOrder,polyback_3.started,polyback_3.stopped,studyPicChoice.started,studyPicChoice.stopped,polyback_4.started,polyback_4.stopped,polyback.started,polyback.stopped,studyWords.started,studyWords.stopped,getResearcher.started,getResearcher.stopped,kPress2.keys,kPress2.rt,kPress2.started,kPress2.stopped,testWord,testType,testN,testOrder,polyback_5.started,polyback_5.stopped,testWords.started,testWords.stopped,textScale.started,textScale.stopped,keyConf.keys,keyConf.rt,keyConf.started,keyConf.stopped,polyback_6.started,polyback_6.stopped,studyWords_2.started,studyWords_2.stopped,polyback_7.started,polyback_7.stopped,testWords_2.started,testWords_2.stopped,textScale_2.started,textScale_2.stopped,keyRKN.keys,keyRKN.rt,keyRKN.started,keyRKN.stopped,participant,session,date,expName,psychopyVersion,frameRate,
,,,,,,,,10.923336132371332,None,space,10479.079526341986,10.923336132371332,None,,,,,,,,,,,,,,,,,,,,,,,,,,,,,,,,,,,,,,,,,,,,,,,,,,,,,,,,,,sing10,001,2019_Oct_28_1352,ProdFawcett_Revision2019,3.2.4,60.0117582303494,
,,,,,,,,,,,,,,10490.03437674942,None,space,20.527180133096408,10490.03437674942,None,,,,,,,,,,,,,,,,,,,,,,,,,,,,,,,,,,,,,,,,,,,,,,,,,,,,sing10,001,2019_Oct_28_1352,ProdFawcett_Revision2019,3.2.4,60.0117582303494,
0,0,0,0,,,,,,,,,,,,,,,,,10515.375560738961,None,materials/readPic.jpg,council,A_silent,0,71,10511.757483050344,None,10511.757483050344,None,10512.626080425456,None,10512.891340735194,None,10512.891340735194,None,,,,,,,,,,,,,,,,,,,,,,,,,,,,,,,,,,,sing10,001,2019_Oct_28_1352,ProdFawcett_Revision2019,3.2.4,60.0117582303494,
1,0,1,0,,,,,,,,,,,,,,,,,10519.643529887428,None,materials/speakPic.jpg,interview,B_aloud,1,165,10515.977022765437,None,10515.977022765437,None,10516.893003980862,None,10517.159349381109,None,10517.159349381109,None,,,,,,,,,,,,,,,,,,,,,,,,,,,,,,,,,,,sing10,001,2019_Oct_28_1352,ProdFawcett_Revision2019,3.2.4,60.0117582303494,
2,0,2,0,,,,,,,,,,,,,,,,,10523.911534490297,None,materials/speakPic.jpg,judge,B_aloud,2,166,10520.2149800958,None,10520.2149800958,None,10521.16110064066,None,10521.428788331163,None,10521.428788331163,None,,,,,,,,,,,,,,,,,,,,,,,,,,,,,,,,,,,sing10,001,2019_Oct_28_1352,ProdFawcett_Revision2019,3.2.4,60.0117582303494,
3,0,3,0,,,,,,,,,,,,,,,,,10528.179520121892,None,materials/readPic.jpg,quarter,A_silent,3,246,10524.51273527398,None,10524.51273527398,None,10525.428983330203,None,10525.695353610732,None,10525.695353610732,None,,,,,,,,,,,,,,,,,,,,,,,,,,,,,,,,,,,sing10,001,2019_Oct_28_1352,ProdFawcett_Revision2019,3.2.4,60.0117582303494,
4,0,4,0,,,,,,,,,,,,,,,,,10532.447514461644,None,materials/speakPic.jpg,people,B_aloud,4,216,10528.780916215735,None,10528.780916215735,None,10529.696902407159,None,10529.963274242706,None,10529.963274242706,None,,,,,,,,,,,,,,,,,,,,,,,,,,,,,,,,,,,sing10,001,2019_Oct_28_1352,ProdFawcett_Revision2019,3.2.4,60.0117582303494,
5,0,5,0,,,,,,,,,,,,,,,,,10536.715499782295,None,materials/singPic.jpg,count,C_sing,5,72,10533.065250357671,None,10533.065250357671,None,10533.96490638802,None,10534.231298127794,None,10534.231298127794,None,,,,,,,,,,,,,,,,,,,,,,,,,,,,,,,,,,,sing10,001,2019_Oct_28_1352,ProdFawcett_Revision2019,3.2.4,60.0117582303494,
6,0,6,0,,,,,,,,,,,,,,,,,10540.98343907448,None,materials/readPic.jpg,watch,A_silent,6,351,10537.317097406252,None,10537.317097406252,None,10538.232969459496,None,10538.499282204371,None,10538.499282204371,None,,,,,,,,,,,,,,,,,,,,,,,,,,,,,,,,,,,sing10,001,2019_Oct_28_1352,ProdFawcett_Revision2019,3.2.4,60.0117582303494,
7,0,7,0,,,,,,,,,,,,,,,,,10545.251451763383,None,materials/speakPic.jpg,addition,B_aloud,7,2,10541.56970236986,None,10541.56970236986,None,10542.500889469462,None,10542.767266281007,None,10542.767266281007,None,,,,,,,,,,,,,,,,,,,,,,,,,,,,,,,,,,,sing10,001,2019_Oct_28_1352,ProdFawcett_Revision2019,3.2.4,60.0117582303494,
8,0,8,0,,,,,,,,,,,,,,,,,10549.519470672414,None,materials/speakPic.jpg,owner,B_aloud,8,208,10545.834702369873,None,10545.834702369873,None,10546.76897990919,None,10547.035264041799,None,10547.035264041799,None,,,,,,,,,,,,,,,,,,,,,,,,,,,,,,,,,,,sing10,001,2019_Oct_28_1352,ProdFawcett_Revision2019,3.2.4,60.0117582303494,
9,0,9,0,,,,,,,,,,,,,,,,,10553.787446351955,None,materials/speakPic.jpg,surface,B_aloud,9,316,10550.09111183678,None,10550.09111183678,None,10551.036939416546,None,10551.303229769226,None,10551.303229769226,None,,,,,,,,,,,,,,,,,,,,,,,,,,,,,,,,,,,sing10,001,2019_Oct_28_1352,ProdFawcett_Revision2019,3.2.4,60.0117582303494,
10,0,10,0,,,,,,,,,,,,,,,,,10558.055419543467,None,materials/readPic.jpg,committee,A_silent,10,62,10554.388830627606,None,10554.388830627606,None,10555.30484418734,None,10555.571251166286,None,10555.571251166286,None,,,,,,,,,,,,,,,,,,,,,,,,,,,,,,,,,,,sing10,001,2019_Oct_28_1352,ProdFawcett_Revision2019,3.2.4,60.0117582303494,
11,0,11,0,,,,,,,,,,,,,,,,,10562.323410773184,None,materials/readPic.jpg,match,A_silent,11,181,10558.605953847116,None,10558.605953847116,None,10559.57293680415,None,10559.839236486936,None,10559.839236486936,None,,,,,,,,,,,,,,,,,,,,,,,,,,,,,,,,,,,sing10,001,2019_Oct_28_1352,ProdFawcett_Revision2019,3.2.4,60.0117582303494,
12,0,12,0,,,,,,,,,,,,,,,,,10566.591406045889,None,materials/singPic.jpg,territory,C_sing,12,324,10562.94157087768,None,10562.94157087768,None,10563.840879206313,None,10564.107220874575,None,10564.107220874575,None,,,,,,,,,,,,,,,,,,,,,,,,,,,,,,,,,,,sing10,001,2019_Oct_28_1352,ProdFawcett_Revision2019,3.2.4,60.0117582303494,
13,0,13,0,,,,,,,,,,,,,,,,,10570.859406294709,None,materials/speakPic.jpg,goose,B_aloud,13,138,10567.181104061718,None,10567.181104061718,None,10568.108877278108,None,10568.375191267056,None,10568.375191267056,None,,,,,,,,,,,,,,,,,,,,,,,,,,,,,,,,,,,sing10,001,2019_Oct_28_1352,ProdFawcett_Revision2019,3.2.4,60.0117582303494,
14,0,14,0,,,,,,,,,,,,,,,,,10575.127384151274,None,materials/readPic.jpg,minor,A_silent,14,191,10571.460631025722,None,10571.460631025722,None,10572.376863220765,None,10572.643181563704,None,10572.643181563704,None,,,,,,,,,,,,,,,,,,,,,,,,,,,,,,,,,,,sing10,001,2019_Oct_28_1352,ProdFawcett_Revision2019,3.2.4,60.0117582303494,
15,0,15,0,,,,,,,,,,,,,,,,,10579.395376625005,None,materials/singPic.jpg,finish,C_sing,15,130,10575.746894321113,None,10575.746894321113,None,10576.64481992909,None,10576.91116564034,None,10576.91116564034,None,,,,,,,,,,,,,,,,,,,,,,,,,,,,,,,,,,,sing10,001,2019_Oct_28_1352,ProdFawcett_Revision2019,3.2.4,60.0117582303494,
16,0,16,0,,,,,,,,,,,,,,,,,10583.663371897768,None,materials/readPic.jpg,straight,A_silent,16,307,10579.998944143823,None,10579.998944143823,None,10580.912922498013,None,10581.179186415393,None,10581.179186415393,None,,,,,,,,,,,,,,,,,,,,,,,,,,,,,,,,,,,sing10,001,2019_Oct_28_1352,ProdFawcett_Revision2019,3.2.4,60.0117582303494,
17,0,17,0,,,,,,,,,,,,,,,,,10587.931394538784,None,materials/readPic.jpg,display,A_silent,17,98,10584.230852771027,None,10584.230852771027,None,10585.18082135974,None,10585.44716707099,None,10585.44716707099,None,,,,,,,,,,,,,,,,,,,,,,,,,,,,,,,,,,,sing10,001,2019_Oct_28_1352,ProdFawcett_Revision2019,3.2.4,60.0117582303494,
18,0,18,0,,,,,,,,,,,,,,,,,10592.199358089187,None,materials/singPic.jpg,equipment,C_sing,18,116,10588.5393658643,None,10588.5393658643,None,10589.448840579716,None,10589.71515332465,None,10589.71515332465,None,,,,,,,,,,,,,,,,,,,,,,,,,,,,,,,,,,,sing10,001,2019_Oct_28_1352,ProdFawcett_Revision2019,3.2.4,60.0117582303494,
19,0,19,0,,,,,,,,,,,,,,,,,10596.46732692665,None,materials/readPic.jpg,contract,A_silent,19,68,10592.80636250542,None,10592.80636250542,None,10593.716806618148,None,10593.983125894156,None,10593.983125894156,None,,,,,,,,,,,,,,,,,,,,,,,,,,,,,,,,,,,sing10,001,2019_Oct_28_1352,ProdFawcett_Revision2019,3.2.4,60.0117582303494,
20,0,20,0,,,,,,,,,,,,,,,,,10600.73533246253,None,materials/singPic.jpg,shape,C_sing,20,282,10597.085309759306,None,10597.085309759306,None,10597.984793804819,None,10598.251129252953,None,10598.251129252953,None,,,,,,,,,,,,,,,,,,,,,,,,,,,,,,,,,,,sing10,001,2019_Oct_28_1352,ProdFawcett_Revision2019,3.2.4,60.0117582303494,
21,0,21,0,,,,,,,,,,,,,,,,,10605.003319027193,None,materials/speakPic.jpg,scale,B_aloud,21,272,10601.322101760306,None,10601.322101760306,None,10602.252858742315,None,10602.519114884606,None,10602.519114884606,None,,,,,,,,,,,,,,,,,,,,,,,,,,,,,,,,,,,sing10,001,2019_Oct_28_1352,ProdFawcett_Revision2019,3.2.4,60.0117582303494,
22,0,22,0,,,,,,,,,,,,,,,,,10609.271309945907,None,materials/speakPic.jpg,turkey,B_aloud,22,342,10605.586627791286,None,10605.586627791286,None,10606.52077595325,None,10606.78708558809,None,10606.78708558809,None,,,,,,,,,,,,,,,,,,,,,,,,,,,,,,,,,,,sing10,001,2019_Oct_28_1352,ProdFawcett_Revision2019,3.2.4,60.0117582303494,
23,0,23,0,,,,,,,,,,,,,,,,,10613.53927442932,None,materials/singPic.jpg,level,C_sing,23,170,10609.88906730112,None,10609.88906730112,None,10610.788779934053,None,10611.05510698515,None,10611.05510698515,None,,,,,,,,,,,,,,,,,,,,,,,,,,,,,,,,,,,sing10,001,2019_Oct_28_1352,ProdFawcett_Revision2019,3.2.4,60.0117582303494,
24,0,24,0,,,,,,,,,,,,,,,,,10617.80727374513,None,materials/speakPic.jpg,threat,B_aloud,24,329,10614.128068047517,None,10614.128068047517,None,10615.05677458481,None,10615.323054363369,None,10615.323054363369,None,,,,,,,,,,,,,,,,,,,,,,,,,,,,,,,,,,,sing10,001,2019_Oct_28_1352,ProdFawcett_Revision2019,3.2.4,60.0117582303494,
25,0,25,0,,,,,,,,,,,,,,,,,10622.07525564474,None,materials/readPic.jpg,corner,A_silent,25,69,10618.40844622755,None,10618.40844622755,None,10619.324756173417,None,10619.5910732724,None,10619.5910732724,None,,,,,,,,,,,,,,,,,,,,,,,,,,,,,,,,,,,sing10,001,2019_Oct_28_1352,ProdFawcett_Revision2019,3.2.4,60.0117582303494,
26,0,26,0,,,,,,,,,,,,,,,,,10626.343245630385,None,materials/readPic.jpg,primary,A_silent,26,234,10622.663421036268,None,10622.663421036268,None,10623.59236486908,None,10623.859017851588,None,10623.859017851588,None,,,,,,,,,,,,,,,,,,,,,,,,,,,,,,,,,,,sing10,001,2019_Oct_28_1352,ProdFawcett_Revision2019,3.2.4,60.0117582303494,
27,0,27,0,,,,,,,,,,,,,,,,,10630.611246501212,None,materials/readPic.jpg,executive,A_silent,27,122,10626.926424706122,None,10626.926424706122,None,10627.860885115399,None,10628.12704298069,None,10628.12704298069,None,,,,,,,,,,,,,,,,,,,,,,,,,,,,,,,,,,,sing10,001,2019_Oct_28_1352,ProdFawcett_Revision2019,3.2.4,60.0117582303494,
28,0,28,0,,,,,,,,,,,,,,,,,10634.879237108922,None,materials/singPic.jpg,audience,C_sing,28,14,10631.220548609796,None,10631.220548609796,None,10632.128791130206,None,10632.395032033324,None,10632.395032033324,None,,,,,,,,,,,,,,,,,,,,,,,,,,,,,,,,,,,sing10,001,2019_Oct_28_1352,ProdFawcett_Revision2019,3.2.4,60.0117582303494,
29,0,29,0,,,,,,,,,,,,,,,,,10639.14723455871,None,materials/singPic.jpg,congress,C_sing,29,67,10635.462386639323,None,10635.462386639323,None,10636.396747216524,None,10636.662995272782,None,10636.662995272782,None,,,,,,,,,,,,,,,,,,,,,,,,,,,,,,,,,,,sing10,001,2019_Oct_28_1352,ProdFawcett_Revision2019,3.2.4,60.0117582303494,
30,0,30,0,,,,,,,,,,,,,,,,,10643.415218013339,None,materials/readPic.jpg,scene,A_silent,30,273,10639.754557442327,None,10639.754557442327,None,10640.664659762406,None,10640.930988679465,None,10640.930988679465,None,,,,,,,,,,,,,,,,,,,,,,,,,,,,,,,,,,,sing10,001,2019_Oct_28_1352,ProdFawcett_Revision2019,3.2.4,60.0117582303494,
31,0,31,0,,,,,,,,,,,,,,,,,10647.683201467968,None,materials/readPic.jpg,appearance,A_silent,31,10,10643.998468308768,None,10643.998468308768,None,10644.932309199474,None,10645.198968402052,None,10645.198968402052,None,,,,,,,,,,,,,,,,,,,,,,,,,,,,,,,,,,,sing10,001,2019_Oct_28_1352,ProdFawcett_Revision2019,3.2.4,60.0117582303494,
32,0,32,0,,,,,,,,,,,,,,,,,10651.951188343577,None,materials/readPic.jpg,education,A_silent,32,108,10648.255121291266,None,10648.255121291266,None,10649.200285501021,None,10649.46696585184,None,10649.46696585184,None,,,,,,,,,,,,,,,,,,,,,,,,,,,,,,,,,,,sing10,001,2019_Oct_28_1352,ProdFawcett_Revision2019,3.2.4,60.0117582303494,
33,0,33,0,,,,,,,,,,,,,,,,,10656.219177085266,None,materials/speakPic.jpg,throw,B_aloud,33,330,10652.541504322959,None,10652.541504322959,None,10653.468271754682,None,10653.734980095818,None,10653.734980095818,None,,,,,,,,,,,,,,,,,,,,,,,,,,,,,,,,,,,sing10,001,2019_Oct_28_1352,ProdFawcett_Revision2019,3.2.4,60.0117582303494,
34,0,34,0,,,,,,,,,,,,,,,,,10660.487188841216,None,materials/singPic.jpg,produce,C_sing,34,239,10656.836905828211,None,10656.836905828211,None,10657.736737264437,None,10658.002932450094,None,10658.002932450094,None,,,,,,,,,,,,,,,,,,,,,,,,,,,,,,,,,,,sing10,001,2019_Oct_28_1352,ProdFawcett_Revision2019,3.2.4,60.0117582303494,
35,0,35,0,,,,,,,,,,,,,,,,,10664.755208061193,None,materials/singPic.jpg,substance,C_sing,35,313,10661.071746905509,None,10661.071746905509,None,10662.004664427426,None,10662.27093238791,None,10662.27093238791,None,,,,,,,,,,,,,,,,,,,,,,,,,,,,,,,,,,,sing10,001,2019_Oct_28_1352,ProdFawcett_Revision2019,3.2.4,60.0117582303494,
36,0,36,0,,,,,,,,,,,,,,,,,10669.023124961124,None,materials/readPic.jpg,travel,A_silent,36,338,10665.356821857335,None,10665.356821857335,None,10666.272288362263,None,10666.538932947675,None,10666.538932947675,None,,,,,,,,,,,,,,,,,,,,,,,,,,,,,,,,,,,sing10,001,2019_Oct_28_1352,ProdFawcett_Revision2019,3.2.4,60.0117582303494,
37,0,37,0,,,,,,,,,,,,,,,,,10673.29109224357,None,materials/singPic.jpg,mayor,C_sing,37,183,10669.641389251745,None,10669.641389251745,None,10670.540491074207,None,10670.806899297168,None,10670.806899297168,None,,,,,,,,,,,,,,,,,,,,,,,,,,,,,,,,,,,sing10,001,2019_Oct_28_1352,ProdFawcett_Revision2019,3.2.4,60.0117582303494,
38,0,38,0,,,,,,,,,,,,,,,,,10677.559110841597,None,materials/readPic.jpg,season,A_silent,38,277,10673.894643590203,None,10673.894643590203,None,10674.80824283138,None,10675.074912297074,None,10675.074912297074,None,,,,,,,,,,,,,,,,,,,,,,,,,,,,,,,,,,,sing10,001,2019_Oct_28_1352,ProdFawcett_Revision2019,3.2.4,60.0117582303494,
39,0,39,0,,,,,,,,,,,,,,,,,10681.827101760311,None,materials/speakPic.jpg,pressure,B_aloud,39,232,10678.146190520609,None,10678.146190520609,None,10679.076451763394,None,10679.34281209181,None,10679.34281209181,None,,,,,,,,,,,,,,,,,,,,,,,,,,,,,,,,,,,sing10,001,2019_Oct_28_1352,ProdFawcett_Revision2019,3.2.4,60.0117582303494,
40,0,40,0,,,,,,,,,,,,,,,,,10686.095083970868,None,materials/speakPic.jpg,position,B_aloud,40,229,10682.3940159856,None,10682.3940159856,None,10683.344207874616,None,10683.610871742247,None,10683.610871742247,None,,,,,,,,,,,,,,,,,,,,,,,,,,,,,,,,,,,sing10,001,2019_Oct_28_1352,ProdFawcett_Revision2019,3.2.4,60.0117582303494,
41,0,41,0,,,,,,,,,,,,,,,,,10690.363082353666,None,materials/speakPic.jpg,range,B_aloud,41,251,10686.670204640192,None,10686.670204640192,None,10687.612243888783,None,10687.878863282967,None,10687.878863282967,None,,,,,,,,,,,,,,,,,,,,,,,,,,,,,,,,,,,sing10,001,2019_Oct_28_1352,ProdFawcett_Revision2019,3.2.4,60.0117582303494,
42,0,42,0,,,,,,,,,,,,,,,,,10694.631073583383,None,materials/speakPic.jpg,distance,B_aloud,42,100,10690.932098339254,None,10690.932098339254,None,10691.880322821438,None,10692.14685233566,None,10692.14685233566,None,,,,,,,,,,,,,,,,,,,,,,,,,,,,,,,,,,,sing10,001,2019_Oct_28_1352,ProdFawcett_Revision2019,3.2.4,60.0117582303494,
43,0,43,0,,,,,,,,,,,,,,,,,10698.899173975224,None,materials/speakPic.jpg,curve,B_aloud,43,82,10695.197578839317,None,10695.197578839317,None,10696.148135846248,None,10696.414839211327,None,10696.414839211327,None,,,,,,,,,,,,,,,,,,,,,,,,,,,,,,,,,,,sing10,001,2019_Oct_28_1352,ProdFawcett_Revision2019,3.2.4,60.0117582303494,
44,0,44,0,,,,,,,,,,,,,,,,,10703.167055731814,None,materials/speakPic.jpg,direction,B_aloud,44,94,10699.47403464577,None,10699.47403464577,None,10700.416179013497,None,10700.682837283064,None,10700.682837283064,None,,,,,,,,,,,,,,,,,,,,,,,,,,,,,,,,,,,sing10,001,2019_Oct_28_1352,ProdFawcett_Revision2019,3.2.4,60.0117582303494,
45,0,45,0,,,,,,,,,,,,,,,,,10707.435021770245,None,materials/singPic.jpg,childhood,C_sing,45,49,10703.820206506178,None,10703.820206506178,None,10704.684173975256,None,10704.95080114447,None,10704.95080114447,None,,,,,,,,,,,,,,,,,,,,,,,,,,,,,,,,,,,sing10,001,2019_Oct_28_1352,ProdFawcett_Revision2019,3.2.4,60.0117582303494,
46,0,46,0,,,,,,,,,,,,,,,,,10711.703019220033,None,materials/singPic.jpg,provision,C_sing,46,243,10708.018691920151,None,10708.018691920151,None,10708.952166759991,None,10709.218797661248,None,10709.218797661248,None,,,,,,,,,,,,,,,,,,,,,,,,,,,,,,,,,,,sing10,001,2019_Oct_28_1352,ProdFawcett_Revision2019,3.2.4,60.0117582303494,
47,0,47,0,,,,,,,,,,,,,,,,,10715.97100516269,None,materials/speakPic.jpg,split,B_aloud,47,299,10712.29094638303,None,10712.29094638303,None,10713.220308826305,None,10713.486791689997,None,10713.486791689997,None,,,,,,,,,,,,,,,,,,,,,,,,,,,,,,,,,,,sing10,001,2019_Oct_28_1352,ProdFawcett_Revision2019,3.2.4,60.0117582303494,
48,0,48,0,,,,,,,,,,,,,,,,,10720.239134477859,None,materials/speakPic.jpg,charter,B_aloud,48,47,10716.554149094969,None,10716.554149094969,None,10717.488157927466,None,10717.755021148245,None,10717.755021148245,None,,,,,,,,,,,,,,,,,,,,,,,,,,,,,,,,,,,sing10,001,2019_Oct_28_1352,ProdFawcett_Revision2019,3.2.4,60.0117582303494,
49,0,49,0,,,,,,,,,,,,,,,,,10724.507004105253,None,materials/readPic.jpg,country,A_silent,49,73,10720.840134353435,None,10720.840134353435,None,10721.756103439722,None,10722.022785656562,None,10722.022785656562,None,,,,,,,,,,,,,,,,,,,,,,,,,,,,,,,,,,,sing10,001,2019_Oct_28_1352,ProdFawcett_Revision2019,3.2.4,60.0117582303494,
50,0,50,0,,,,,,,,,,,,,,,,,10728.774987870886,None,materials/readPic.jpg,community,A_silent,50,63,10725.057312620513,None,10725.057312620513,None,10726.024361199234,None,10726.290742364887,None,10726.290742364887,None,,,,,,,,,,,,,,,,,,,,,,,,,,,,,,,,,,,sing10,001,2019_Oct_28_1352,ProdFawcett_Revision2019,3.2.4,60.0117582303494,
51,0,51,0,,,,,,,,,,,,,,,,,10733.042959818384,None,materials/singPic.jpg,collection,C_sing,51,54,10729.38333768741,None,10729.38333768741,None,10730.292076257989,None,10730.558732972597,None,10730.558732972597,None,,,,,,,,,,,,,,,,,,,,,,,,,,,,,,,,,,,sing10,001,2019_Oct_28_1352,ProdFawcett_Revision2019,3.2.4,60.0117582303494,
52,0,52,0,,,,,,,,,,,,,,,,,10737.310923990794,None,materials/singPic.jpg,damage,C_sing,52,83,10733.63560459041,None,10733.63560459041,None,10734.560236984515,None,10734.826713628194,None,10734.826713628194,None,,,,,,,,,,,,,,,,,,,,,,,,,,,,,,,,,,,sing10,001,2019_Oct_28_1352,ProdFawcett_Revision2019,3.2.4,60.0117582303494,
53,0,53,0,,,,,,,,,,,,,,,,,10741.579092181404,None,materials/readPic.jpg,mechanical,A_silent,53,185,10737.912459725107,None,10737.912459725107,None,10738.82816041552,None,10739.078226659214,None,10739.078226659214,None,,,,,,,,,,,,,,,,,,,,,,,,,,,,,,,,,,,sing10,001,2019_Oct_28_1352,ProdFawcett_Revision2019,3.2.4,60.0117582303494,
54,0,54,0,,,,,,,,,,,,,,,,,10745.846774273785,None,materials/singPic.jpg,place,C_sing,54,222,10742.188278285728,None,10742.188278285728,None,10743.096076071437,None,10743.362728431937,None,10743.362728431937,None,,,,,,,,,,,,,,,,,,,,,,,,,,,,,,,,,,,sing10,001,2019_Oct_28_1352,ProdFawcett_Revision2019,3.2.4,60.0117582303494,
55,0,55,0,,,,,,,,,,,,,,,,,10750.114907943003,None,materials/readPic.jpg,command,A_silent,55,60,10746.455089257972,None,10746.455089257972,None,10747.364070100128,None,10747.630702245457,None,10747.630702245457,None,,,,,,,,,,,,,,,,,,,,,,,,,,,,,,,,,,,sing10,001,2019_Oct_28_1352,ProdFawcett_Revision2019,3.2.4,60.0117582303494,
56,0,56,0,,,,,,,,,,,,,,,,,10754.38290352677,None,materials/singPic.jpg,drove,C_sing,56,106,10750.732931828068,None,10750.732931828068,None,10751.632027430518,None,10751.89868259005,None,10751.89868259005,None,,,,,,,,,,,,,,,,,,,,,,,,,,,,,,,,,,,sing10,001,2019_Oct_28_1352,ProdFawcett_Revision2019,3.2.4,60.0117582303494,
57,0,57,0,,,,,,,,,,,,,,,,,10758.650910617667,None,materials/readPic.jpg,afternoon,A_silent,57,3,10754.984557131305,None,10754.984557131305,None,10755.900176027848,None,10756.166670398728,None,10756.166670398728,None,,,,,,,,,,,,,,,,,,,,,,,,,,,,,,,,,,,sing10,001,2019_Oct_28_1352,ProdFawcett_Revision2019,3.2.4,60.0117582303494,
58,0,58,0,,,,,,,,,,,,,,,,,10762.91889096226,None,materials/readPic.jpg,production,A_silent,58,240,10759.250762891083,None,10759.250762891083,None,10760.168022952043,None,10760.434662561456,None,10760.434662561456,None,,,,,,,,,,,,,,,,,,,,,,,,,,,,,,,,,,,sing10,001,2019_Oct_28_1352,ProdFawcett_Revision2019,3.2.4,60.0117582303494,
59,0,59,0,,,,,,,,,,,,,,,,,10767.186887790042,None,materials/speakPic.jpg,column,B_aloud,59,57,10763.5202338745,None,10763.5202338745,None,10764.436037818028,None,10764.702638552,None,10764.702638552,None,,,,,,,,,,,,,,,,,,,,,,,,,,,,,,,,,,,sing10,001,2019_Oct_28_1352,ProdFawcett_Revision2019,3.2.4,60.0117582303494,
60,0,60,0,,,,,,,,,,,,,,,,,10771.454873421637,None,materials/singPic.jpg,population,C_sing,60,227,10767.804688374687,None,10767.804688374687,None,10768.703993593343,None,10768.970627915638,None,10768.970627915638,None,,,,,,,,,,,,,,,,,,,,,,,,,,,,,,,,,,,sing10,001,2019_Oct_28_1352,ProdFawcett_Revision2019,3.2.4,60.0117582303494,
61,0,61,0,,,,,,,,,,,,,,,,,10775.72282577597,None,materials/readPic.jpg,track,A_silent,61,334,10772.056491882831,None,10772.056491882831,None,10772.971967717865,None,10773.238624121412,None,10773.238624121412,None,,,,,,,,,,,,,,,,,,,,,,,,,,,,,,,,,,,sing10,001,2019_Oct_28_1352,ProdFawcett_Revision2019,3.2.4,60.0117582303494,
62,0,62,0,,,,,,,,,,,,,,,,,10779.990813273645,None,materials/speakPic.jpg,beauty,B_aloud,62,18,10776.31244013185,None,10776.31244013185,None,10777.240117248264,None,10777.5070345836,None,10777.5070345836,None,,,,,,,,,,,,,,,,,,,,,,,,,,,,,,,,,,,sing10,001,2019_Oct_28_1352,ProdFawcett_Revision2019,3.2.4,60.0117582303494,
63,0,63,0,,,,,,,,,,,,,,,,,10784.258932014694,None,materials/readPic.jpg,appeal,A_silent,63,9,10780.595394974167,None,10780.595394974167,None,10781.507963861397,None,10781.774628662097,None,10781.774628662097,None,,,,,,,,,,,,,,,,,,,,,,,,,,,,,,,,,,,sing10,001,2019_Oct_28_1352,ProdFawcett_Revision2019,3.2.4,60.0117582303494,
64,0,64,0,,,,,,,,,,,,,,,,,10788.526795733022,None,materials/singPic.jpg,spoke,C_sing,64,300,10784.876879392948,None,10784.876879392948,None,10785.775976239354,None,10786.042589413468,None,10786.042589413468,None,,,,,,,,,,,,,,,,,,,,,,,,,,,,,,,,,,,sing10,001,2019_Oct_28_1352,ProdFawcett_Revision2019,3.2.4,60.0117582303494,
65,0,65,0,,,,,,,,,,,,,,,,,10792.794781986682,None,materials/speakPic.jpg,platform,B_aloud,65,224,10789.115128133388,None,10789.115128133388,None,10790.043934502697,None,10790.310587796208,None,10790.310587796208,None,,,,,,,,,,,,,,,,,,,,,,,,,,,,,,,,,,,sing10,001,2019_Oct_28_1352,ProdFawcett_Revision2019,3.2.4,60.0117582303494,
66,0,66,0,,,,,,,,,,,,,,,,,10797.062791565608,None,materials/singPic.jpg,device,C_sing,66,93,10793.415962555213,None,10793.415962555213,None,10794.311922311375,None,10794.578570006823,None,10794.578570006823,None,,,,,,,,,,,,,,,,,,,,,,,,,,,,,,,,,,,sing10,001,2019_Oct_28_1352,ProdFawcett_Revision2019,3.2.4,60.0117582303494,
67,0,67,0,,,,,,,,,,,,,,,,,10801.33076040307,None,materials/singPic.jpg,agency,C_sing,67,4,10797.65258723643,None,10797.65258723643,None,10798.580002488045,None,10798.846553461452,None,10798.846553461452,None,,,,,,,,,,,,,,,,,,,,,,,,,,,,,,,,,,,sing10,001,2019_Oct_28_1352,ProdFawcett_Revision2019,3.2.4,60.0117582303494,
68,0,68,0,,,,,,,,,,,,,,,,,10805.598860794911,None,materials/readPic.jpg,close,A_silent,68,53,10801.932369845104,None,10801.932369845104,None,10802.847904148803,None,10803.114538160095,None,10803.114538160095,None,,,,,,,,,,,,,,,,,,,,,,,,,,,,,,,,,,,sing10,001,2019_Oct_28_1352,ProdFawcett_Revision2019,3.2.4,60.0117582303494,
69,0,69,0,,,,,,,,,,,,,,,,,10809.866741929494,None,materials/speakPic.jpg,south,B_aloud,69,296,10806.186252099287,None,10806.186252099287,None,10807.115889469453,None,10807.382516327663,None,10807.382516327663,None,,,,,,,,,,,,,,,,,,,,,,,,,,,,,,,,,,,sing10,001,2019_Oct_28_1352,ProdFawcett_Revision2019,3.2.4,60.0117582303494,
70,0,70,0,,,,,,,,,,,,,,,,,10814.135020526242,None,materials/singPic.jpg,treatment,C_sing,70,339,10810.485173228837,None,10810.485173228837,None,10811.383893450256,None,10811.650649063871,None,10811.650649063871,None,,,,,,,,,,,,,,,,,,,,,,,,,,,,,,,,,,,sing10,001,2019_Oct_28_1352,ProdFawcett_Revision2019,3.2.4,60.0117582303494,
71,0,71,0,,,,,,,,,,,,,,,,,10818.402749580157,None,materials/readPic.jpg,problem,A_silent,71,238,10814.73716893699,None,10814.73716893699,None,10815.651886856998,None,10815.918462710688,None,10815.918462710688,None,,,,,,,,,,,,,,,,,,,,,,,,,,,,,,,,,,,sing10,001,2019_Oct_28_1352,ProdFawcett_Revision2019,3.2.4,60.0117582303494,
72,0,72,0,,,,,,,,,,,,,,,,,10822.670687317266,None,materials/speakPic.jpg,bucket,B_aloud,72,33,10818.990883249382,None,10818.990883249382,None,10819.91993375629,None,10820.186483796744,None,10820.186483796744,None,,,,,,,,,,,,,,,,,,,,,,,,,,,,,,,,,,,sing10,001,2019_Oct_28_1352,ProdFawcett_Revision2019,3.2.4,60.0117582303494,
73,0,73,0,,,,,,,,,,,,,,,,,10826.938803259342,None,materials/singPic.jpg,error,C_sing,73,117,10823.278132425214,None,10823.278132425214,None,10824.187855321274,None,10824.454466629366,None,10824.454466629366,None,,,,,,,,,,,,,,,,,,,,,,,,,,,,,,,,,,,sing10,001,2019_Oct_28_1352,ProdFawcett_Revision2019,3.2.4,60.0117582303494,
74,0,74,0,,,,,,,,,,,,,,,,,10831.20668905892,None,materials/singPic.jpg,government,C_sing,74,139,10827.53056851402,None,10827.53056851402,None,10828.455849350023,None,10828.722479629272,None,10828.722479629272,None,,,,,,,,,,,,,,,,,,,,,,,,,,,,,,,,,,,sing10,001,2019_Oct_28_1352,ProdFawcett_Revision2019,3.2.4,60.0117582303494,
75,0,75,0,,,,,,,,,,,,,,,,,10835.474670647527,None,materials/speakPic.jpg,tennis,B_aloud,75,323,10831.796303725801,None,10831.796303725801,None,10832.723825340567,None,10832.990575667121,None,10832.990575667121,None,,,,,,,,,,,,,,,,,,,,,,,,,,,,,,,,,,,sing10,001,2019_Oct_28_1352,ProdFawcett_Revision2019,3.2.4,60.0117582303494,
76,0,76,0,,,,,,,,,,,,,,,,,10839.74303756922,None,materials/readPic.jpg,blind,A_silent,76,24,10836.075778130267,None,10836.075778130267,None,10836.991823723365,None,10837.258452447597,None,10837.258452447597,None,,,,,,,,,,,,,,,,,,,,,,,,,,,,,,,,,,,sing10,001,2019_Oct_28_1352,ProdFawcett_Revision2019,3.2.4,60.0117582303494,
77,0,77,0,,,,,,,,,,,,,,,,,10844.010661815002,None,materials/singPic.jpg,fellow,C_sing,77,126,10840.364303352602,None,10840.364303352602,None,10841.259868134628,None,10841.526410399936,None,10841.526410399936,None,,,,,,,,,,,,,,,,,,,,,,,,,,,,,,,,,,,sing10,001,2019_Oct_28_1352,ProdFawcett_Revision2019,3.2.4,60.0117582303494,
78,0,78,0,,,,,,,,,,,,,,,,,10848.278697518224,None,materials/singPic.jpg,republic,C_sing,78,260,10844.600479878078,None,10844.600479878078,None,10845.527773527429,None,10845.794429619971,None,10845.794429619971,None,,,,,,,,,,,,,,,,,,,,,,,,,,,,,,,,,,,sing10,001,2019_Oct_28_1352,ProdFawcett_Revision2019,3.2.4,60.0117582303494,
79,0,79,0,,,,,,,,,,,,,,,,,10852.546635566337,None,materials/speakPic.jpg,waste,B_aloud,79,350,10848.867019655416,None,10848.867019655416,None,10849.795772221172,None,10850.06236735708,None,10850.06236735708,None,,,,,,,,,,,,,,,,,,,,,,,,,,,,,,,,,,,sing10,001,2019_Oct_28_1352,ProdFawcett_Revision2019,3.2.4,60.0117582303494,
80,0,80,0,,,,,,,,,,,,,,,,,10856.814599427744,None,materials/singPic.jpg,master,C_sing,80,180,10853.154264788202,None,10853.154264788202,None,10854.063745101681,None,10854.330532126653,None,10854.330532126653,None,,,,,,,,,,,,,,,,,,,,,,,,,,,,,,,,,,,sing10,001,2019_Oct_28_1352,ProdFawcett_Revision2019,3.2.4,60.0117582303494,
81,0,81,0,,,,,,,,,,,,,,,,,10861.082581016351,None,materials/singPic.jpg,management,C_sing,81,177,10857.414474404417,None,10857.414474404417,None,10858.3317717858,None,10858.598375940812,None,10858.598375940812,None,,,,,,,,,,,,,,,,,,,,,,,,,,,,,,,,,,,sing10,001,2019_Oct_28_1352,ProdFawcett_Revision2019,3.2.4,60.0117582303494,
82,0,82,0,,,,,,,,,,,,,,,,,10865.350589662266,None,materials/speakPic.jpg,weather,B_aloud,82,352,10861.673663618858,None,10861.673663618858,None,10862.599772345566,None,10862.866443055274,None,10862.866443055274,None,,,,,,,,,,,,,,,,,,,,,,,,,,,,,,,,,,,sing10,001,2019_Oct_28_1352,ProdFawcett_Revision2019,3.2.4,60.0117582303494,
83,0,83,0,,,,,,,,,,,,,,,,,10869.618625987438,None,materials/singPic.jpg,prime,C_sing,83,235,10865.957614604733,None,10865.957614604733,None,10866.867706039688,None,10867.134547179216,None,10867.134547179216,None,,,,,,,,,,,,,,,,,,,,,,,,,,,,,,,,,,,sing10,001,2019_Oct_28_1352,ProdFawcett_Revision2019,3.2.4,60.0117582303494,
84,0,84,0,,,,,,,,,,,,,,,,,10873.886547241418,None,materials/speakPic.jpg,evidence,B_aloud,84,120,10870.220413323375,None,10870.220413323375,None,10871.13607109536,None,10871.40234216582,None,10871.40234216582,None,,,,,,,,,,,,,,,,,,,,,,,,,,,,,,,,,,,sing10,001,2019_Oct_28_1352,ProdFawcett_Revision2019,3.2.4,60.0117582303494,
85,0,85,0,,,,,,,,,,,,,,,,,10878.154547179234,None,materials/speakPic.jpg,session,B_aloud,85,281,10874.469714187959,None,10874.469714187959,None,10875.403697829228,None,10875.670380668016,None,10875.670380668016,None,,,,,,,,,,,,,,,,,,,,,,,,,,,,,,,,,,,sing10,001,2019_Oct_28_1352,ProdFawcett_Revision2019,3.2.4,60.0117582303494,
86,0,86,0,,,,,,,,,,,,,,,,,10882.422524102789,None,materials/readPic.jpg,short,A_silent,86,285,10878.755706288503,None,10878.755706288503,None,10879.671734776406,None,10879.938329290308,None,10879.938329290308,None,,,,,,,,,,,,,,,,,,,,,,,,,,,,,,,,,,,sing10,001,2019_Oct_28_1352,ProdFawcett_Revision2019,3.2.4,60.0117582303494,
87,0,87,0,,,,,,,,,,,,,,,,,10886.690532748646,None,materials/speakPic.jpg,state,B_aloud,87,303,10883.010547676822,None,10883.010547676822,None,10883.939791005803,None,10884.206353175337,None,10884.206353175337,None,,,,,,,,,,,,,,,,,,,,,,,,,,,,,,,,,,,sing10,001,2019_Oct_28_1352,ProdFawcett_Revision2019,3.2.4,60.0117582303494,
88,0,88,0,,,,,,,,,,,,,,,,,10890.958646202635,None,materials/readPic.jpg,concern,A_silent,88,65,10887.298150152375,None,10887.298150152375,None,10888.207653480116,None,10888.474339117995,None,10888.474339117995,None,,,,,,,,,,,,,,,,,,,,,,,,,,,,,,,,,,,sing10,001,2019_Oct_28_1352,ProdFawcett_Revision2019,3.2.4,60.0117582303494,
89,0,89,0,,,,,,,,,,,,,,,,,10895.226497480879,None,materials/singPic.jpg,degree,C_sing,89,89,10891.57660508802,None,10891.57660508802,None,10892.475909062661,None,10892.742312931514,None,10892.742312931514,None,,,,,,,,,,,,,,,,,,,,,,,,,,,,,,,,,,,sing10,001,2019_Oct_28_1352,ProdFawcett_Revision2019,3.2.4,60.0117582303494,
,,,,,,,,,,,,,,,,,,,,,,,,,,,,,,,,,,,,,10895.726661379624,None,k,77.95211637747707,10895.726661379624,None,,,,,,,,,,,,,,,,,,,,,,,,,,,,,sing10,001,2019_Oct_28_1352,ProdFawcett_Revision2019,3.2.4,60.0117582303494,
,,,,,,,,,,,,,,10973.700840330916,None,space,10.441335137176793,10973.700840330916,None,,,,,,,,,,,,,,,,,,,,,,,,,,,,,,,,,,,,,,,,,,,,,,,,,,,,sing10,001,2019_Oct_28_1352,ProdFawcett_Revision2019,3.2.4,60.0117582303494,
,,,,0,0,0,0,,,,,,,,,,,,,11000.927084966097,None,,,,,,,,,,,,,,,,,,,,,,congress,C_sing,0,67,10984.691730733379,None,10984.691730733379,None,10984.691730733379,None,6,12.458232568285894,10984.691730733379,None,10997.20793867018,None,10997.20793867018,None,10997.728096037812,None,10997.728096037812,None,10997.728096037812,None,r,3.1488408907316625,10997.728096037812,None,sing10,001,2019_Oct_28_1352,ProdFawcett_Revision2019,3.2.4,60.0117582303494,
,,,,1,0,1,0,,,,,,,,,,,,,11008.128044722253,None,,,,,,,,,,,,,,,,,,,,,,benefit,D_new,1,20,11001.459628040087,None,11001.459628040087,None,11001.459628040087,None,3,3.3132185731083155,11001.459628040087,None,11004.826986067055,None,11004.826986067055,None,11005.343871369027,None,11005.343871369027,None,11005.343871369027,None,f,2.7413102568825707,11005.343871369027,None,sing10,001,2019_Oct_28_1352,ProdFawcett_Revision2019,3.2.4,60.0117582303494,
,,,,2,0,2,0,,,,,,,,,,,,,11016.147161783942,None,,,,,,,,,,,,,,,,,,,,,,crime,D_new,2,78,11008.644823350129,None,11008.644823350129,None,11008.644823350129,None,2,3.2714862847933546,11008.644823350129,None,11011.967187597184,None,11011.967187597184,None,11012.495927722834,None,11012.495927722834,None,11012.495927722834,None,n,3.612449772947002,11012.495927722834,None,sing10,001,2019_Oct_28_1352,ProdFawcett_Revision2019,3.2.4,60.0117582303494,
,,,,3,0,3,0,,,,,,,,,,,,,11021.265344280633,None,,,,,,,,,,,,,,,,,,,,,,treatment,C_sing,3,339,11016.664321079792,None,11016.664321079792,None,11016.664321079792,None,6,2.467598743562121,11016.664321079792,None,11019.169653853343,None,11019.169653853343,None,11019.698161037522,None,11019.698161037522,None,11019.698161037522,None,r,1.521663245628588,11019.698161037522,None,sing10,001,2019_Oct_28_1352,ProdFawcett_Revision2019,3.2.4,60.0117582303494,
,,,,4,0,4,0,,,,,,,,,,,,,11025.733429122367,None,,,,,,,,,,,,,,,,,,,,,,article,D_new,4,11,11021.782386950334,None,11021.782386950334,None,11021.782386950334,None,3,2.053217018081341,11021.782386950334,None,11023.899454500235,None,11023.899454500235,None,11024.41641568701,None,11024.41641568701,None,11024.41641568701,None,f,1.2759202587767504,11024.41641568701,None,sing10,001,2019_Oct_28_1352,ProdFawcett_Revision2019,3.2.4,60.0117582303494,
,,,,5,0,5,0,,,,,,,,,,,,,11031.75200161722,None,,,,,,,,,,,,,,,,,,,,,,fashion,D_new,5,125,11026.250435093592,None,11026.250435093592,None,11026.250435093592,None,2,1.8971235305070877,11026.250435093592,None,11028.20098836848,None,11028.20098836848,None,11028.717773216427,None,11028.717773216427,None,11028.717773216427,None,n,2.997554892092012,11028.717773216427,None,sing10,001,2019_Oct_28_1352,ProdFawcett_Revision2019,3.2.4,60.0117582303494,
,,,,6,0,6,0,,,,,,,,,,,,,11036.820247558644,None,,,,,,,,,,,,,,,,,,,,,,straight,A_silent,6,307,11032.269045530877,None,11032.269045530877,None,11032.269045530877,None,2,2.174846364359837,11032.269045530877,None,11034.492155563843,None,11034.492155563843,None,11035.019693350769,None,11035.019693350769,None,11035.019693350769,None,n,1.75124401319772,11035.019693350769,None,sing10,001,2019_Oct_28_1352,ProdFawcett_Revision2019,3.2.4,60.0117582303494,
,,,,7,0,7,0,,,,,,,,,,,,,11042.355301673175,None,,,,,,,,,,,,,,,,,,,,,,people,B_aloud,7,216,11037.336943770584,None,11037.336943770584,None,11037.336943770584,None,5,3.0177306089317426,11037.336943770584,None,11040.387949866301,None,11040.387949866301,None,11040.904733781179,None,11040.904733781179,None,11040.904733781179,None,f,1.4102288983995095,11040.904733781179,None,sing10,001,2019_Oct_28_1352,ProdFawcett_Revision2019,3.2.4,60.0117582303494,
,,,,8,0,8,0,,,,,,,,,,,,,11046.890045717475,None,,,,,,,,,,,,,,,,,,,,,,private,D_new,8,237,11042.872103315312,None,11042.872103315312,None,11042.872103315312,None,5,2.307062884850893,11042.872103315312,None,11045.239437395066,None,11045.239437395066,None,11045.75639049575,None,11045.75639049575,None,11045.75639049575,None,f,1.0858916464494541,11045.75639049575,None,sing10,001,2019_Oct_28_1352,ProdFawcett_Revision2019,3.2.4,60.0117582303494,
,,,,9,0,9,0,,,,,,,,,,,,,11050.741204826802,None,,,,,,,,,,,,,,,,,,,,,,production,A_silent,9,240,11047.408268644649,None,11047.408268644649,None,11047.408268644649,None,3,1.5941173726459965,11047.408268644649,None,11049.04556384898,None,11049.04556384898,None,11049.574046774884,None,11049.574046774884,None,11049.574046774884,None,f,1.1248196180677041,11049.574046774884,None,sing10,001,2019_Oct_28_1352,ProdFawcett_Revision2019,3.2.4,60.0117582303494,
,,,,10,0,10,0,,,,,,,,,,,,,11057.043071157532,None,,,,,,,,,,,,,,,,,,,,,,story,D_new,10,306,11051.25793089508,None,11051.25793089508,None,11051.25793089508,None,4,3.63206226285547,11051.25793089508,None,11054.928300677973,None,11054.928300677973,None,11055.442714747798,None,11055.442714747798,None,11055.442714747798,None,f,1.5511301859514788,11055.442714747798,None,sing10,001,2019_Oct_28_1352,ProdFawcett_Revision2019,3.2.4,60.0117582303494,
,,,,11,0,11,0,,,,,,,,,,,,,11062.044828637212,None,,,,,,,,,,,,,,,,,,,,,,state,B_aloud,11,303,11057.559886483825,None,11057.559886483825,None,11057.559886483825,None,6,1.969818374083843,11057.559886483825,None,11059.59400354547,None,11059.59400354547,None,11060.110721527657,None,11060.110721527657,None,11060.110721527657,None,r,1.8915938918944448,11060.110721527657,None,sing10,001,2019_Oct_28_1352,ProdFawcett_Revision2019,3.2.4,60.0117582303494,
,,,,12,0,12,0,,,,,,,,,,,,,11066.679402562673,None,,,,,,,,,,,,,,,,,,,,,,track,A_silent,12,334,11062.561477887677,None,11062.561477887677,None,11062.561477887677,None,4,2.4319409715826623,11062.561477887677,None,11065.03354979161,None,11065.03354979161,None,11065.562388505321,None,11065.562388505321,None,11065.562388505321,None,f,1.0789668470388278,11065.562388505321,None,sing10,001,2019_Oct_28_1352,ProdFawcett_Revision2019,3.2.4,60.0117582303494,
,,,,13,0,13,0,,,,,,,,,,,,,11070.730871431238,None,,,,,,,,,,,,,,,,,,,,,,property,D_new,13,242,11067.196561236575,None,11067.196561236575,None,11067.196561236575,None,4,2.0448569384752773,11067.196561236575,None,11069.296917335305,None,11069.296917335305,None,11069.813787398161,None,11069.813787398161,None,11069.813787398161,None,f,0.8759056415874511,11069.813787398161,None,sing10,001,2019_Oct_28_1352,ProdFawcett_Revision2019,3.2.4,60.0117582303494,
,,,,14,0,14,0,,,,,,,,,,,,,11076.665816072666,None,,,,,,,,,,,,,,,,,,,,,,shape,C_sing,14,282,11071.247616781737,None,11071.247616781737,None,11071.247616781737,None,2,1.929202587576583,11071.247616781737,None,11073.220349878713,None,11073.220349878713,None,11073.748549169628,None,11073.748549169628,None,11073.748549169628,None,n,2.8763385582133196,11073.748549169628,None,sing10,001,2019_Oct_28_1352,ProdFawcett_Revision2019,3.2.4,60.0117582303494,
,,,,15,0,15,0,,,,,,,,,,,,,11080.533690365148,None,,,,,,,,,,,,,,,,,,,,,,suspect,D_new,15,318,11077.183780556079,None,11077.183780556079,None,11077.183780556079,None,3,1.8575222367653623,11077.183780556079,None,11079.100019282196,None,11079.100019282196,None,11079.616915158287,None,11079.616915158287,None,11079.616915158287,None,n,0.8714082228834741,11079.616915158287,None,sing10,001,2019_Oct_28_1352,ProdFawcett_Revision2019,3.2.4,60.0117582303494,
,,,,16,0,16,0,,,,,,,,,,,,,11086.418809790397,None,,,,,,,,,,,,,,,,,,,,,,pretty,D_new,16,233,11081.050687006267,None,11081.050687006267,None,11081.050687006267,None,2,3.5262891086167656,11081.050687006267,None,11084.622682714427,None,11084.622682714427,None,11085.151791689976,None,11085.151791689976,None,11085.151791689976,None,n,1.2251038750982843,11085.151791689976,None,sing10,001,2019_Oct_28_1352,ProdFawcett_Revision2019,3.2.4,60.0117582303494,
,,,,17,0,17,0,,,,,,,,,,,,,11091.853980220214,None,,,,,,,,,,,,,,,,,,,,,,breath,D_new,17,27,11086.93571281957,None,11086.93571281957,None,11086.93571281957,None,2,3.08806120546069,11086.93571281957,None,11090.08670367609,None,11090.08670367609,None,11090.603581513977,None,11090.603581513977,None,11090.603581513977,None,n,1.2121487217955291,11090.603581513977,None,sing10,001,2019_Oct_28_1352,ProdFawcett_Revision2019,3.2.4,60.0117582303494,
,,,,18,0,18,0,,,,,,,,,,,,,11098.655922124803,None,,,,,,,,,,,,,,,,,,,,,,literature,D_new,18,173,11092.37268209242,None,11092.37268209242,None,11092.37268209242,None,1,3.266858866729308,11092.37268209242,None,11095.693084530707,None,11095.693084530707,None,11096.221850469592,None,11096.221850469592,None,11096.221850469592,None,n,2.401520495128352,11096.221850469592,None,sing10,001,2019_Oct_28_1352,ProdFawcett_Revision2019,3.2.4,60.0117582303494,
,,,,19,0,19,0,,,,,,,,,,,,,11103.307422404701,None,,,,,,,,,,,,,,,,,,,,,,damage,C_sing,19,83,11099.173479504883,None,11099.173479504883,None,11099.173479504883,None,3,2.658418237231672,11099.173479504883,None,11101.890453753818,None,11101.890453753818,None,11102.407100516255,None,11102.407100516255,None,11102.407100516255,None,f,0.856523294118233,11102.407100516255,None,sing10,001,2019_Oct_28_1352,ProdFawcett_Revision2019,3.2.4,60.0117582303494,
,,,,20,0,20,0,,,,,,,,,,,,,11107.32532593148,None,,,,,,,,,,,,,,,,,,,,,,mayor,C_sing,20,183,11103.824421844853,None,11103.824421844853,None,11103.824421844853,None,5,2.350776264211163,11103.824421844853,None,11106.225164209725,None,11106.225164209725,None,11106.741934440506,None,11106.741934440506,None,11106.741934440506,None,f,0.5452419605571777,11106.741934440506,None,sing10,001,2019_Oct_28_1352,ProdFawcett_Revision2019,3.2.4,60.0117582303494,
,,,,21,0,21,0,,,,,,,,,,,,,11111.660086147895,None,,,,,,,,,,,,,,,,,,,,,,material,D_new,21,182,11107.84253965295,None,11107.84253965295,None,11107.84253965295,None,4,2.748200223897584,11107.84253965295,None,11110.632465012139,None,11110.632465012139,None,11111.159812776023,None,11111.159812776023,None,11111.159812776023,None,f,0.45491571811726317,11111.159812776023,None,sing10,001,2019_Oct_28_1352,ProdFawcett_Revision2019,3.2.4,60.0117582303494,
,,,,22,0,22,0,,,,,,,,,,,,,11116.578310941113,None,,,,,,,,,,,,,,,,,,,,,,direction,B_aloud,22,94,11112.176814082253,None,11112.176814082253,None,11112.176814082253,None,6,2.134046463877894,11112.176814082253,None,11114.350406792306,None,11114.350406792306,None,11114.877702307655,None,11114.877702307655,None,11114.877702307655,None,r,1.6573378118337132,11114.877702307655,None,sing10,001,2019_Oct_28_1352,ProdFawcett_Revision2019,3.2.4,60.0117582303494,
,,,,23,0,23,0,,,,,,,,,,,,,11120.279341606016,None,,,,,,,,,,,,,,,,,,,,,,voice,D_new,23,348,11117.095063444693,None,11117.095063444693,None,11117.095063444693,None,4,2.159677800606005,11117.095063444693,None,11119.30082011572,None,11119.30082011572,None,11119.829225601803,None,11119.829225601803,None,11119.829225601803,None,f,0.40946600737515837,11119.829225601803,None,sing10,001,2019_Oct_28_1352,ProdFawcett_Revision2019,3.2.4,60.0117582303494,
,,,,24,0,24,0,,,,,,,,,,,,,11124.430744230922,None,,,,,,,,,,,,,,,,,,,,,,education,A_silent,24,108,11120.796350687335,None,11120.796350687335,None,11120.796350687335,None,6,2.506041550077498,11120.796350687335,None,11123.351380543667,None,11123.351380543667,None,11123.880440069654,None,11123.880440069654,None,11123.880440069654,None,r,0.5173266156343743,11123.880440069654,None,sing10,001,2019_Oct_28_1352,ProdFawcett_Revision2019,3.2.4,60.0117582303494,
,,,,25,0,25,0,,,,,,,,,,,,,11131.582946756214,None,,,,,,,,,,,,,,,,,,,,,,republic,C_sing,25,260,11124.94782328792,None,11124.94782328792,None,11124.94782328792,None,6,4.994083473284263,11124.94782328792,None,11129.999232132861,None,11129.999232132861,None,11130.515783728333,None,11130.515783728333,None,11130.515783728333,None,r,1.0260098277358338,11130.515783728333,None,sing10,001,2019_Oct_28_1352,ProdFawcett_Revision2019,3.2.4,60.0117582303494,
,,,,26,0,26,0,,,,,,,,,,,,,11136.184256702138,None,,,,,,,,,,,,,,,,,,,,,,charter,B_aloud,26,47,11132.100729924743,None,11132.100729924743,None,11132.100729924743,None,6,2.760896000545472,11132.100729924743,None,11134.91732599365,None,11134.91732599365,None,11135.433989550278,None,11135.433989550278,None,11135.433989550278,None,r,0.715302917174995,11135.433989550278,None,sing10,001,2019_Oct_28_1352,ProdFawcett_Revision2019,3.2.4,60.0117582303494,
,,,,27,0,27,0,,,,,,,,,,,,,11140.435657149996,None,,,,,,,,,,,,,,,,,,,,,,season,A_silent,27,277,11136.701208247803,None,11136.701208247803,None,11136.701208247803,None,5,2.5602257884456776,11136.701208247803,None,11139.318644647661,None,11139.318644647661,None,11139.835449399776,None,11139.835449399776,None,11139.835449399776,None,f,0.5614673135569319,11139.835449399776,None,sing10,001,2019_Oct_28_1352,ProdFawcett_Revision2019,3.2.4,60.0117582303494,
,,,,28,0,28,0,,,,,,,,,,,,,11144.870385955088,None,,,,,,,,,,,,,,,,,,,,,,tragedy,D_new,28,335,11140.953387447924,None,11140.953387447924,None,11140.953387447924,None,3,1.956114635861013,11140.953387447924,None,11142.956596379925,None,11142.956596379925,None,11143.469807799964,None,11143.469807799964,None,11143.469807799964,None,n,1.367243577784393,11143.469807799964,None,sing10,001,2019_Oct_28_1352,ProdFawcett_Revision2019,3.2.4,60.0117582303494,
,,,,29,0,29,0,,,,,,,,,,,,,11149.138277974736,None,,,,,,,,,,,,,,,,,,,,,,threat,B_aloud,29,329,11145.387045157666,None,11145.387045157666,None,11145.387045157666,None,5,2.2339432107983157,11145.387045157666,None,11147.671110903786,None,11147.671110903786,None,11148.188242209377,None,11148.188242209377,None,11148.188242209377,None,f,0.9121947502717376,11148.188242209377,None,sing10,001,2019_Oct_28_1352,ProdFawcett_Revision2019,3.2.4,60.0117582303494,
,,,,30,0,30,0,,,,,,,,,,,,,11153.48958698765,None,,,,,,,,,,,,,,,,,,,,,,religion,D_new,30,258,11149.655191267026,None,11149.655191267026,None,11149.655191267026,None,3,1.845470858970657,11149.655191267026,None,11151.545249113638,None,11151.545249113638,None,11152.072647571098,None,11152.072647571098,None,11152.072647571098,None,n,1.3795378491049632,11152.072647571098,None,sing10,001,2019_Oct_28_1352,ProdFawcett_Revision2019,3.2.4,60.0117582303494,
,,,,31,0,31,0,,,,,,,,,,,,,11158.124703302863,None,,,,,,,,,,,,,,,,,,,,,,cover,D_new,31,77,11154.006779871881,None,11154.006779871881,None,11154.006779871881,None,2,1.805186290992424,11154.006779871881,None,11155.86368538905,None,11155.86368538905,None,11156.39064533182,None,11156.39064533182,None,11156.39064533182,None,n,1.6852568886824884,11156.39064533182,None,sing10,001,2019_Oct_28_1352,ProdFawcett_Revision2019,3.2.4,60.0117582303494,
,,,,32,0,32,0,,,,,,,,,,,,,11162.909206941607,None,,,,,,,,,,,,,,,,,,,,,,emergency,D_new,32,110,11158.642655346135,None,11158.642655346135,None,11158.642655346135,None,3,2.4810172917786986,11158.642655346135,None,11161.162666853284,None,11161.162666853284,None,11161.675550475833,None,11161.675550475833,None,11161.675550475833,None,f,1.2004646388813853,11161.675550475833,None,sing10,001,2019_Oct_28_1352,ProdFawcett_Revision2019,3.2.4,60.0117582303494,
,,,,33,0,33,0,,,,,,,,,,,,,11168.561075138394,None,,,,,,,,,,,,,,,,,,,,,,device,C_sing,33,93,11163.42601946881,None,11163.42601946881,None,11163.42601946881,None,1,3.337346830929164,11163.42601946881,None,11166.815246625629,None,11166.815246625629,None,11167.344066990132,None,11167.344066990132,None,11167.344066990132,None,n,1.1792986875516362,11167.344066990132,None,sing10,001,2019_Oct_28_1352,ProdFawcett_Revision2019,3.2.4,60.0117582303494,
,,,,34,0,34,0,,,,,,,,,,,,,11172.845606456453,None,,,,,,,,,,,,,,,,,,,,,,committee,A_silent,34,62,11169.079562107392,None,11169.079562107392,None,11169.079562107392,None,5,2.2676186477183364,11169.079562107392,None,11171.411833364458,None,11171.411833364458,None,11171.928768426937,None,11171.928768426937,None,11171.928768426937,None,f,0.8749972010264173,11171.928768426937,None,sing10,001,2019_Oct_28_1352,ProdFawcett_Revision2019,3.2.4,60.0117582303494,
,,,,35,0,35,0,,,,,,,,,,,,,11177.630542700761,None,,,,,,,,,,,,,,,,,,,,,,danger,D_new,35,85,11173.362787211547,None,11173.362787211547,None,11173.362787211547,None,3,1.6088324936572462,11173.362787211547,None,11175.029632083082,None,11175.029632083082,None,11175.546539777308,None,11175.546539777308,None,11175.546539777308,None,f,2.0409526030998677,11175.546539777308,None,sing10,001,2019_Oct_28_1352,ProdFawcett_Revision2019,3.2.4,60.0117582303494,
,,,,36,0,36,0,,,,,,,,,,,,,11181.615100454073,None,,,,,,,,,,,,,,,,,,,,,,distance,B_aloud,36,100,11178.148474839865,None,11178.148474839865,None,11178.148474839865,None,4,2.3825399639317766,11178.148474839865,None,11180.581299993792,None,11180.581299993792,None,11181.098283883824,None,11181.098283883824,None,11181.098283883824,None,f,0.4802920321235433,11181.098283883824,None,sing10,001,2019_Oct_28_1352,ProdFawcett_Revision2019,3.2.4,60.0117582303494,
,,,,37,0,37,0,,,,,,,,,,,,,11185.366272936517,None,,,,,,,,,,,,,,,,,,,,,,conference,D_new,37,66,11182.13386670401,None,11182.13386670401,None,11182.13386670401,None,6,1.6126786714303307,11182.13386670401,None,11183.79904335388,None,11183.79904335388,None,11184.315909062629,None,11184.315909062629,None,11184.315909062629,None,r,1.0145450021373108,11184.315909062629,None,sing10,001,2019_Oct_28_1352,ProdFawcett_Revision2019,3.2.4,60.0117582303494,
,,,,38,0,38,0,,,,,,,,,,,,,11189.400742675876,None,,,,,,,,,,,,,,,,,,,,,,course,D_new,38,74,11185.883063071466,None,11185.883063071466,None,11185.883063071466,None,4,2.455031411314849,11185.883063071466,None,11188.3886965852,None,11188.3886965852,None,11188.917223051598,None,11188.917223051598,None,11188.917223051598,None,f,0.436813771200832,11188.917223051598,None,sing10,001,2019_Oct_28_1352,ProdFawcett_Revision2019,3.2.4,60.0117582303494,
,,,,39,0,39,0,,,,,,,,,,,,,11194.819196056458,None,,,,,,,,,,,,,,,,,,,,,,minute,D_new,39,192,11189.917662188236,None,11189.917662188236,None,11189.917662188236,None,4,2.4361926976707764,11189.917662188236,None,11192.40607824846,None,11192.40607824846,None,11192.93515052559,None,11192.93515052559,None,11192.93515052559,None,f,1.8508991104899906,11192.93515052559,None,sing10,001,2019_Oct_28_1352,ProdFawcett_Revision2019,3.2.4,60.0117582303494,
,,,,40,0,40,0,,,,,,,,,,,,,11199.003730484575,None,,,,,,,,,,,,,,,,,,,,,,reach,D_new,40,253,11195.33584344096,None,11195.33584344096,None,11195.33584344096,None,2,1.737737140036188,11195.33584344096,None,11197.12504043046,None,11197.12504043046,None,11197.653421658266,None,11197.653421658266,None,11197.653421658266,None,n,1.316507122013718,11197.653421658266,None,sing10,001,2019_Oct_28_1352,ProdFawcett_Revision2019,3.2.4,60.0117582303494,
,,,,41,0,41,0,,,,,,,,,,,,,11202.33819991292,None,,,,,,,,,,,,,,,,,,,,,,break,D_new,41,26,11199.520587174222,None,11199.520587174222,None,11199.520587174222,None,3,1.6648927038768306,11199.520587174222,None,11201.225651240908,None,11201.225651240908,None,11201.75460160477,None,11201.75460160477,None,11201.75460160477,None,f,0.5430733345565386,11201.75460160477,None,sing10,001,2019_Oct_28_1352,ProdFawcett_Revision2019,3.2.4,60.0117582303494,
,,,,42,0,42,0,,,,,,,,,,,,,11206.17259532254,None,,,,,,,,,,,,,,,,,,,,,,problem,A_silent,42,238,11202.85540057224,None,11202.85540057224,None,11202.85540057224,None,4,2.2177750824484974,11202.85540057224,None,11205.122515394643,None,11205.122515394643,None,11205.639214716677,None,11205.639214716677,None,11205.639214716677,None,f,0.4981482863659039,11205.639214716677,None,sing10,001,2019_Oct_28_1352,ProdFawcett_Revision2019,3.2.4,60.0117582303494,
,,,,43,0,43,0,,,,,,,,,,,,,11209.27373266156,None,,,,,,,,,,,,,,,,,,,,,,month,D_new,43,193,11206.690591217251,None,11206.690591217251,None,11206.690591217251,None,3,1.4784176151733845,11206.690591217251,None,11208.212165204983,None,11208.212165204983,None,11208.740323132428,None,11208.740323132428,None,11208.740323132428,None,f,0.4846152889658697,11208.740323132428,None,sing10,001,2019_Oct_28_1352,ProdFawcett_Revision2019,3.2.4,60.0117582303494,
,,,,44,0,44,0,,,,,,,,,,,,,11212.84138956276,None,,,,,,,,,,,,,,,,,,,,,,science,D_new,44,275,11209.791051191161,None,11209.791051191161,None,11209.791051191161,None,4,2.274491509597283,11209.791051191161,None,11212.113682279014,None,11212.113682279014,None,11212.641335448134,None,11212.641335448134,None,11212.641335448134,None,f,0.15140449086902663,11212.641335448134,None,sing10,001,2019_Oct_28_1352,ProdFawcett_Revision2019,3.2.4,60.0117582303494,
,,,,45,0,45,0,,,,,,,,,,,,,11216.15901909559,None,,,,,,,,,,,,,,,,,,,,,,capital,D_new,45,40,11213.359433041012,None,11213.359433041012,None,11213.359433041012,None,3,1.6973533619311638,11213.359433041012,None,11215.108721465454,None,11215.108721465454,None,11215.62564066681,None,11215.62564066681,None,11215.62564066681,None,f,0.4869092492153868,11215.62564066681,None,sing10,001,2019_Oct_28_1352,ProdFawcett_Revision2019,3.2.4,60.0117582303494,
,,,,46,0,46,0,,,,,,,,,,,,,11221.02722709463,None,,,,,,,,,,,,,,,,,,,,,,victory,D_new,46,346,11216.676562791574,None,11216.676562791574,None,11216.676562791574,None,2,1.9639220625977032,11216.676562791574,None,11218.682370156108,None,11218.682370156108,None,11219.210023014224,None,11219.210023014224,None,11219.210023014224,None,n,1.7750438514631242,11219.210023014224,None,sing10,001,2019_Oct_28_1352,ProdFawcett_Revision2019,3.2.4,60.0117582303494,
,,,,47,0,47,0,,,,,,,,,,,,,11224.394992846937,None,,,,,,,,,,,,,,,,,,,,,,health,D_new,47,149,11221.544278783374,None,11221.544278783374,None,11221.544278783374,None,3,1.9119039622019045,11221.544278783374,None,11223.511385830701,None,11223.511385830701,None,11224.028238166356,None,11224.028238166356,None,11224.028238166356,None,f,0.3319633638020605,11224.028238166356,None,sing10,001,2019_Oct_28_1352,ProdFawcett_Revision2019,3.2.4,60.0117582303494,
,,,,48,0,48,0,,,,,,,,,,,,,11227.04567456618,None,,,,,,,,,,,,,,,,,,,,,,discussion,D_new,48,96,11224.913465509715,None,11224.913465509715,None,11224.913465509715,None,3,1.3505784661392681,11224.913465509715,None,11226.328795795212,None,11226.328795795212,None,11226.845779374242,None,11226.845779374242,None,11226.845779374242,None,f,0.15406543505378067,11226.845779374242,None,sing10,001,2019_Oct_28_1352,ProdFawcett_Revision2019,3.2.4,60.0117582303494,
,,,,49,0,49,0,,,,,,,,,,,,,11230.813668905874,None,,,,,,,,,,,,,,,,,,,,,,native,D_new,49,199,11227.56260185357,None,11227.56260185357,None,11227.56260185357,None,1,1.7011043726815842,11227.56260185357,None,11229.302396902407,None,11229.302396902407,None,11229.8299897369,None,11229.8299897369,None,11229.8299897369,None,n,0.9457355228369124,11229.8299897369,None,sing10,001,2019_Oct_28_1352,ProdFawcett_Revision2019,3.2.4,60.0117582303494,
,,,,50,0,50,0,,,,,,,,,,,,,11235.515086458938,None,,,,,,,,,,,,,,,,,,,,,,salary,D_new,50,271,11231.331529514224,None,11231.331529514224,None,11231.331529514224,None,1,2.572133171663154,11231.331529514224,None,11233.953449648572,None,11233.953449648572,None,11234.481364060484,None,11234.481364060484,None,11234.481364060484,None,n,0.9981445543235168,11234.481364060484,None,sing10,001,2019_Oct_28_1352,ProdFawcett_Revision2019,3.2.4,60.0117582303494,
,,,,51,0,51,0,,,,,,,,,,,,,11239.33296479442,None,,,,,,,,,,,,,,,,,,,,,,working,D_new,51,357,11236.032149654813,None,11236.032149654813,None,11236.032149654813,None,3,2.0870280524832197,11236.032149654813,None,11238.182584748429,None,11238.182584748429,None,11238.699461031298,None,11238.699461031298,None,11238.699461031298,None,f,0.5876450830255635,11238.699461031298,None,sing10,001,2019_Oct_28_1352,ProdFawcett_Revision2019,3.2.4,60.0117582303494,
,,,,52,0,52,0,,,,,,,,,,,,,11242.883954095945,None,,,,,,,,,,,,,,,,,,,,,,debate,D_new,52,87,11239.849794426817,None,11239.849794426817,None,11239.849794426817,None,3,1.9899399763671681,11239.849794426817,None,11241.900299807196,None,11241.900299807196,None,11242.417342165834,None,11242.417342165834,None,11242.417342165834,None,f,0.42157460970338434,11242.417342165834,None,sing10,001,2019_Oct_28_1352,ProdFawcett_Revision2019,3.2.4,60.0117582303494,
,,,,53,0,53,0,,,,,,,,,,,,,11247.735585930233,None,,,,,,,,,,,,,,,,,,,,,,throw,B_aloud,53,330,11243.40299589478,None,11243.40299589478,None,11243.40299589478,None,4,3.219833924260456,11243.40299589478,None,11246.67314704234,None,11246.67314704234,None,11247.201963674801,None,11247.201963674801,None,11247.201963674801,None,f,0.5008835603366606,11247.201963674801,None,sing10,001,2019_Oct_28_1352,ProdFawcett_Revision2019,3.2.4,60.0117582303494,
,,,,54,0,54,0,,,,,,,,,,,,,11251.019778565678,None,,,,,,,,,,,,,,,,,,,,,,travel,A_silent,54,338,11248.252549605037,None,11248.252549605037,None,11248.252549605037,None,3,1.8179613734246232,11248.252549605037,None,11250.123263046611,None,11250.123263046611,None,11250.653031971131,None,11250.653031971131,None,11250.653031971131,None,f,0.32142843812471256,11250.653031971131,None,sing10,001,2019_Oct_28_1352,ProdFawcett_Revision2019,3.2.4,60.0117582303494,
,,,,55,0,55,0,,,,,,,,,,,,,11254.554211295617,None,,,,,,,,,,,,,,,,,,,,,,listen,D_new,55,172,11251.536736642418,None,11251.536736642418,None,11251.536736642418,None,5,2.053686011058744,11251.536736642418,None,11253.653957516945,None,11253.653957516945,None,11254.170751694997,None,11254.170751694997,None,11254.170751694997,None,f,0.34769670956302434,11254.170751694997,None,sing10,001,2019_Oct_28_1352,ProdFawcett_Revision2019,3.2.4,60.0117582303494,
,,,,56,0,56,0,,,,,,,,,,,,,11257.438444983505,None,,,,,,,,,,,,,,,,,,,,,,crisis,D_new,56,79,11255.071419108077,None,11255.071419108077,None,11255.071419108077,None,3,1.438758163829334,11255.071419108077,None,11256.571670087695,None,11256.571670087695,None,11257.088478571852,None,11257.088478571852,None,11257.088478571852,None,f,0.31009827699745074,11257.088478571852,None,sing10,001,2019_Oct_28_1352,ProdFawcett_Revision2019,3.2.4,60.0117582303494,
,,,,57,0,57,0,,,,,,,,,,,,,11262.056555638497,None,,,,,,,,,,,,,,,,,,,,,,vision,D_new,57,347,11257.955636623781,None,11257.955636623781,None,11257.955636623781,None,2,2.1144712943932973,11257.955636623781,None,11260.11039217515,None,11260.11039217515,None,11260.639497107652,None,11260.639497107652,None,11260.639497107652,None,n,1.382806182722561,11260.639497107652,None,sing10,001,2019_Oct_28_1352,ProdFawcett_Revision2019,3.2.4,60.0117582303494,
,,,,58,0,58,0,,,,,,,,,,,,,11265.32425483613,None,,,,,,,,,,,,,,,,,,,,,,union,D_new,58,344,11262.573631896521,None,11262.573631896521,None,11262.573631896521,None,2,1.3841326117981225,11262.573631896521,None,11264.007125707518,None,11264.007125707518,None,11264.524084406323,None,11264.524084406323,None,11264.524084406323,None,n,0.7618582446593791,11264.524084406323,None,sing10,001,2019_Oct_28_1352,ProdFawcett_Revision2019,3.2.4,60.0117582303494,
,,,,59,0,59,0,,,,,,,,,,,,,11270.742696398578,None,,,,,,,,,,,,,,,,,,,,,,level,C_sing,59,170,11265.84165484854,None,11265.84165484854,None,11265.84165484854,None,6,1.9639991914154962,11265.84165484854,None,11267.848155750486,None,11267.848155750486,None,11268.375298874162,None,11268.375298874162,None,11268.375298874162,None,r,2.326341979263816,11268.375298874162,None,sing10,001,2019_Oct_28_1352,ProdFawcett_Revision2019,3.2.4,60.0117582303494,
,,,,60,0,60,0,,,,,,,,,,,,,11273.660151458636,None,,,,,,,,,,,,,,,,,,,,,,drove,C_sing,60,106,11271.260425763496,None,11271.260425763496,None,11271.260425763496,None,3,1.6331240280997008,11271.260425763496,None,11272.943285749818,None,11272.943285749818,None,11273.46020277415,None,11273.46020277415,None,11273.46020277415,None,f,0.16134011320536956,11273.46020277415,None,sing10,001,2019_Oct_28_1352,ProdFawcett_Revision2019,3.2.4,60.0117582303494,
,,,,61,0,61,0,,,,,,,,,,,,,11276.377750824147,None,,,,,,,,,,,,,,,,,,,,,,clear,D_new,61,52,11274.176916091295,None,11274.176916091295,None,11274.176916091295,None,3,1.3641214156523347,11274.176916091295,None,11275.594078497263,None,11275.594078497263,None,11276.111019779812,None,11276.111019779812,None,11276.111019779812,None,f,0.22284070414025337,11276.111019779812,None,sing10,001,2019_Oct_28_1352,ProdFawcett_Revision2019,3.2.4,60.0117582303494,
,,,,62,0,62,0,,,,,,,,,,,,,11279.612103315303,None,,,,,,,,,,,,,,,,,,,,,,management,C_sing,62,177,11276.896607887058,None,11276.896607887058,None,11276.896607887058,None,4,1.8842495490680449,11276.896607887058,None,11278.834083784313,None,11278.834083784313,None,11279.36185264663,None,11279.36185264663,None,11279.36185264663,None,f,0.21133264910895377,11279.36185264663,None,sing10,001,2019_Oct_28_1352,ProdFawcett_Revision2019,3.2.4,60.0117582303494,
,,,,63,0,63,0,,,,,,,,,,,,,11284.31346395472,None,,,,,,,,,,,,,,,,,,,,,,master,C_sing,63,180,11280.128930770676,None,11280.128930770676,None,11280.128930770676,None,6,2.115988990466576,11280.128930770676,None,11282.283675125975,None,11282.283675125975,None,11282.812955775356,None,11282.812955775356,None,11282.812955775356,None,r,1.4637491447501816,11282.812955775356,None,sing10,001,2019_Oct_28_1352,ProdFawcett_Revision2019,3.2.4,60.0117582303494,
,,,,64,0,64,0,,,,,,,,,,,,,11286.914373950392,None,,,,,,,,,,,,,,,,,,,,,,scene,A_silent,64,273,11284.830387510126,None,11284.830387510126,None,11284.830387510126,None,4,1.2700155501370318,11284.830387510126,None,11286.152262548974,None,11286.152262548974,None,11286.680819493718,None,11286.680819493718,None,11286.680819493718,None,f,0.18756360019324347,11286.680819493718,None,sing10,001,2019_Oct_28_1352,ProdFawcett_Revision2019,3.2.4,60.0117582303494,
,,,,65,0,65,0,,,,,,,,,,,,,11291.332300491398,None,,,,,,,,,,,,,,,,,,,,,,tennis,B_aloud,65,323,11287.431049947161,None,11287.431049947161,None,11287.431049947161,None,5,3.117595011484809,11287.431049947161,None,11290.588015176996,None,11290.588015176996,None,11291.11582602479,None,11291.11582602479,None,11291.11582602479,None,f,0.17674566147616133,11291.11582602479,None,sing10,001,2019_Oct_28_1352,ProdFawcett_Revision2019,3.2.4,60.0117582303494,
,,,,66,0,66,0,,,,,,,,,,,,,11293.999786340748,None,,,,,,,,,,,,,,,,,,,,,,split,B_aloud,66,299,11291.849513901863,None,11291.849513901863,None,11291.849513901863,None,3,1.3704801890999079,11291.849513901863,None,11293.28288828762,None,11293.28288828762,None,11293.799841699307,None,11293.799841699307,None,11293.799841699307,None,f,0.16429308947408572,11293.799841699307,None,sing10,001,2019_Oct_28_1352,ProdFawcett_Revision2019,3.2.4,60.0117582303494,
,,,,67,0,67,0,,,,,,,,,,,,,11297.884437395027,None,,,,,,,,,,,,,,,,,,,,,,position,B_aloud,67,229,11294.51660135598,None,11294.51660135598,None,11294.51660135598,None,6,2.3837233314989135,11294.51660135598,None,11296.950749517942,None,11296.950749517942,None,11297.467669030302,None,11297.467669030302,None,11297.467669030302,None,r,0.36813429126050323,11297.467669030302,None,sing10,001,2019_Oct_28_1352,ProdFawcett_Revision2019,3.2.4,60.0117582303494,
,,,,68,0,68,0,,,,,,,,,,,,,11300.73533339554,None,,,,,,,,,,,,,,,,,,,,,,fellow,C_sing,68,126,11298.401549107453,None,11298.401549107453,None,11298.401549107453,None,6,1.1461597312591039,11298.401549107453,None,11299.589312682743,None,11299.589312682743,None,11300.11827299872,None,11300.11827299872,None,11300.11827299872,None,f,0.5815239161602221,11300.11827299872,None,sing10,001,2019_Oct_28_1352,ProdFawcett_Revision2019,3.2.4,60.0117582303494,
,,,,69,0,69,0,,,,,,,,,,,,,11310.321536356292,None,,,,,,,,,,,,,,,,,,,,,,quarter,A_silent,69,246,11301.256041239016,None,11301.256041239016,None,11301.256041239016,None,6,6.851122721913271,11301.256041239016,None,11308.170896311523,None,11308.170896311523,None,11308.68970019283,None,11308.68970019283,None,11308.68970019283,None,r,1.5853166013839655,11308.68970019283,None,sing10,001,2019_Oct_28_1352,ProdFawcett_Revision2019,3.2.4,60.0117582303494,
,,,,70,0,70,0,,,,,,,,,,,,,11314.439589786634,None,,,,,,,,,,,,,,,,,,,,,,concern,A_silent,70,65,11310.838860483898,None,11310.838860483898,None,11310.838860483898,None,4,2.0281657025334425,11310.838860483898,None,11312.910464949906,None,11312.910464949906,None,11313.43915718107,None,11313.43915718107,None,11313.43915718107,None,f,0.9562791566131637,11313.43915718107,None,sing10,001,2019_Oct_28_1352,ProdFawcett_Revision2019,3.2.4,60.0117582303494,
,,,,71,0,71,0,,,,,,,,,,,,,11318.690763202088,None,,,,,,,,,,,,,,,,,,,,,,pressure,B_aloud,71,232,11314.957456615055,None,11314.957456615055,None,11314.957456615055,None,6,2.7258729862514883,11314.957456615055,None,11317.740551097842,None,11317.740551097842,None,11318.257429557736,None,11318.257429557736,None,11318.257429557736,None,r,0.3851741618127562,11318.257429557736,None,sing10,001,2019_Oct_28_1352,ProdFawcett_Revision2019,3.2.4,60.0117582303494,
,,,,72,0,72,0,,,,,,,,,,,,,11321.658463954751,None,,,,,,,,,,,,,,,,,,,,,,collection,C_sing,72,54,11319.209502083715,None,11319.209502083715,None,11319.209502083715,None,3,1.4576973316143267,11319.209502083715,None,11320.724838278315,None,11320.724838278315,None,11321.24150338996,None,11321.24150338996,None,11321.24150338996,None,f,0.37731852958677337,11321.24150338996,None,sing10,001,2019_Oct_28_1352,ProdFawcett_Revision2019,3.2.4,60.0117582303494,
,,,,73,0,73,0,,,,,,,,,,,,,11326.109820551123,None,,,,,,,,,,,,,,,,,,,,,,sweet,D_new,73,319,11322.175163898733,None,11322.175163898733,None,11322.175163898733,None,1,1.699411581736058,11322.175163898733,None,11323.914983827854,None,11323.914983827854,None,11324.442648815108,None,11324.442648815108,None,11324.442648815108,None,n,1.6316364993690513,11324.442648815108,None,sing10,001,2019_Oct_28_1352,ProdFawcett_Revision2019,3.2.4,60.0117582303494,
,,,,74,0,74,0,,,,,,,,,,,,,11328.844007588516,None,,,,,,,,,,,,,,,,,,,,,,range,B_aloud,74,251,11326.626615351124,None,11326.626615351124,None,11326.626615351124,None,3,1.3921966162743047,11326.626615351124,None,11328.07723518071,None,11328.07723518071,None,11328.593835914682,None,11328.593835914682,None,11328.593835914682,None,f,0.20896467001875862,11328.593835914682,None,sing10,001,2019_Oct_28_1352,ProdFawcett_Revision2019,3.2.4,60.0117582303494,
,,,,75,0,75,0,,,,,,,,,,,,,11334.028975244146,None,,,,,,,,,,,,,,,,,,,,,,foundation,D_new,75,132,11329.361683149822,None,11329.361683149822,None,11329.361683149822,None,2,1.6567664986941963,11329.361683149822,None,11331.050467126945,None,11331.050467126945,None,11331.578281084774,None,11331.578281084774,None,11331.578281084774,None,n,2.4155548299313523,11331.578281084774,None,sing10,001,2019_Oct_28_1352,ProdFawcett_Revision2019,3.2.4,60.0117582303494,
,,,,76,0,76,0,,,,,,,,,,,,,11337.479925359192,None,,,,,,,,,,,,,,,,,,,,,,match,A_silent,76,181,11334.545784661314,None,11334.545784661314,None,11334.545784661314,None,3,1.895785283355508,11334.545784661314,None,11336.486166884366,None,11336.486166884366,None,11337.013223238173,None,11337.013223238173,None,11337.013223238173,None,f,0.4202121042762883,11337.013223238173,None,sing10,001,2019_Oct_28_1352,ProdFawcett_Revision2019,3.2.4,60.0117582303494,
,,,,77,0,77,0,,,,,,,,,,,,,11340.747705106682,None,,,,,,,,,,,,,,,,,,,,,,count,C_sing,77,72,11337.99681999127,None,11337.99681999127,None,11337.99681999127,None,4,1.5963450892595574,11337.99681999127,None,11339.619287180423,None,11339.619287180423,None,11340.132062262855,None,11340.132062262855,None,11340.132062262855,None,f,0.5740626360638998,11340.132062262855,None,sing10,001,2019_Oct_28_1352,ProdFawcett_Revision2019,3.2.4,60.0117582303494,
,,,,78,0,78,0,,,,,,,,,,,,,11343.698626920464,None,,,,,,,,,,,,,,,,,,,,,,childhood,C_sing,78,49,11341.252753312176,None,11341.252753312176,None,11341.252753312176,None,4,1.5164035578491166,11341.252753312176,None,11342.831546930422,None,11342.831546930422,None,11343.34840019903,None,11343.34840019903,None,11343.34840019903,None,f,0.31706972693791613,11343.34840019903,None,sing10,001,2019_Oct_28_1352,ProdFawcett_Revision2019,3.2.4,60.0117582303494,
,,,,79,0,79,0,,,,,,,,,,,,,11347.699705168896,None,,,,,,,,,,,,,,,,,,,,,,build,D_new,79,35,11344.215596504335,None,11344.215596504335,None,11344.215596504335,None,2,1.8098351683001965,11344.215596504335,None,11346.082474342256,None,11346.082474342256,None,11346.599539715098,None,11346.599539715098,None,11346.599539715098,None,n,1.0654876531334594,11346.599539715098,None,sing10,001,2019_Oct_28_1352,ProdFawcett_Revision2019,3.2.4,60.0117582303494,
,,,,80,0,80,0,,,,,,,,,,,,,11351.517679293407,None,,,,,,,,,,,,,,,,,,,,,,interview,B_aloud,80,165,11348.21751943772,None,11348.21751943772,None,11348.21751943772,None,6,1.8952671518200077,11348.21751943772,None,11350.167285874253,None,11350.167285874253,None,11350.684111774608,None,11350.684111774608,None,11350.684111774608,None,r,0.7891298127942719,11350.684111774608,None,sing10,001,2019_Oct_28_1352,ProdFawcett_Revision2019,3.2.4,60.0117582303494,
,,,,81,0,81,0,,,,,,,,,,,,,11355.168688188074,None,,,,,,,,,,,,,,,,,,,,,,finish,C_sing,81,130,11352.034637370147,None,11352.034637370147,None,11352.034637370147,None,4,1.7102534677251242,11352.034637370147,None,11353.801702432043,None,11353.801702432043,None,11354.318571250886,None,11354.318571250886,None,11354.318571250886,None,f,0.8178969956934452,11354.318571250886,None,sing10,001,2019_Oct_28_1352,ProdFawcett_Revision2019,3.2.4,60.0117582303494,
,,,,82,0,82,0,,,,,,,,,,,,,11359.120105119131,None,,,,,,,,,,,,,,,,,,,,,,judge,B_aloud,82,166,11355.689499595726,None,11355.689499595726,None,11355.689499595726,None,4,2.479153138003312,11355.689499595726,None,11358.210538346728,None,11358.210538346728,None,11358.738224482164,None,11358.738224482164,None,11358.738224482164,None,f,0.342323194607161,11358.738224482164,None,sing10,001,2019_Oct_28_1352,ProdFawcett_Revision2019,3.2.4,60.0117582303494,
,,,,83,0,83,0,,,,,,,,,,,,,11362.170993966516,None,,,,,,,,,,,,,,,,,,,,,,weather,B_aloud,83,352,11359.6375191267,None,11359.6375191267,None,11359.6375191267,None,3,1.643052808358334,11359.6375191267,None,11361.326251477294,None,11361.326251477294,None,11361.854122970719,None,11361.854122970719,None,11361.854122970719,None,f,0.2822227405849844,11361.854122970719,None,sing10,001,2019_Oct_28_1352,ProdFawcett_Revision2019,3.2.4,60.0117582303494,
,,,,84,0,84,0,,,,,,,,,,,,,11367.005825091735,None,,,,,,,,,,,,,,,,,,,,,,murder,D_new,84,195,11362.687806182774,None,11362.687806182774,None,11362.687806182774,None,1,1.960522485547699,11362.687806182774,None,11364.705160166719,None,11364.705160166719,None,11365.221816881269,None,11365.221816881269,None,11365.221816881269,None,n,1.7379293401027098,11365.221816881269,None,sing10,001,2019_Oct_28_1352,ProdFawcett_Revision2019,3.2.4,60.0117582303494,
,,,,85,0,85,0,,,,,,,,,,,,,11370.240137774439,None,,,,,,,,,,,,,,,,,,,,,,territory,C_sing,85,324,11367.524371151347,None,11367.524371151347,None,11367.524371151347,None,3,1.8673676681355573,11367.524371151347,None,11369.45706164086,None,11369.45706164086,None,11369.97343907447,None,11369.97343907447,None,11369.97343907447,None,f,0.22654661937849596,11369.97343907447,None,sing10,001,2019_Oct_28_1352,ProdFawcett_Revision2019,3.2.4,60.0117582303494,
,,,,86,0,86,0,,,,,,,,,,,,,11375.441746283497,None,,,,,,,,,,,,,,,,,,,,,,owner,B_aloud,86,208,11370.757504820533,None,11370.757504820533,None,11370.757504820533,None,6,1.8663848976721056,11370.757504820533,None,11372.664078808215,None,11372.664078808215,None,11373.191223486967,None,11373.191223486967,None,11373.191223486967,None,r,2.2165040119434707,11373.191223486967,None,sing10,001,2019_Oct_28_1352,ProdFawcett_Revision2019,3.2.4,60.0117582303494,
,,,,87,0,87,0,,,,,,,,,,,,,11378.89273745101,None,,,,,,,,,,,,,,,,,,,,,,mechanical,A_silent,87,185,11375.95992349321,None,11375.95992349321,None,11375.95992349321,None,3,2.2793577781994827,11375.95992349321,None,11378.292663743254,None,11378.292663743254,None,11378.809539093112,None,11378.809539093112,None,11378.809539093112,None,f,0.037523480714298785,11378.809539093112,None,sing10,001,2019_Oct_28_1352,ProdFawcett_Revision2019,3.2.4,60.0117582303494,
,,,,88,0,88,0,,,,,,,,,,,,,11381.576946258661,None,,,,,,,,,,,,,,,,,,,,,,quantity,D_new,88,245,11379.412056042813,None,11379.412056042813,None,11379.412056042813,None,4,1.1790557940257713,11379.412056042813,None,11380.643347017467,None,11380.643347017467,None,11381.16308204265,None,11381.16308204265,None,11381.16308204265,None,f,0.37253996392246336,11381.16308204265,None,sing10,001,2019_Oct_28_1352,ProdFawcett_Revision2019,3.2.4,60.0117582303494,
,,,,89,0,89,0,,,,,,,,,,,,,11384.811268893478,None,,,,,,,,,,,,,,,,,,,,,,addition,B_aloud,89,2,11382.094495241647,None,11382.094495241647,None,11382.094495241647,None,6,1.6251474155578762,11382.094495241647,None,11383.765336816548,None,11383.765336816548,None,11384.294394476572,None,11384.294394476572,None,11384.294394476572,None,r,0.48044753371505067,11384.294394476572,None,sing10,001,2019_Oct_28_1352,ProdFawcett_Revision2019,3.2.4,60.0117582303494,
,,,,90,0,90,0,,,,,,,,,,,,,11387.945645642874,None,,,,,,,,,,,,,,,,,,,,,,citizen,D_new,90,50,11385.344951172476,None,11385.344951172476,None,11385.344951172476,None,4,1.301705231075175,11385.344951172476,None,11386.711948124634,None,11386.711948124634,None,11387.232021210424,None,11387.232021210424,None,11387.232021210424,None,f,0.6786654848256148,11387.232021210424,None,sing10,001,2019_Oct_28_1352,ProdFawcett_Revision2019,3.2.4,60.0117582303494,
,,,,91,0,91,0,,,,,,,,,,,,,11390.796540088311,None,,,,,,,,,,,,,,,,,,,,,,symbol,D_new,91,321,11388.463401754037,None,11388.463401754037,None,11388.463401754037,None,4,1.5030102009186521,11388.463401754037,None,11390.016831809422,None,11390.016831809422,None,11390.529816819064,None,11390.529816819064,None,11390.529816819064,None,f,0.22861292533343658,11390.529816819064,None,sing10,001,2019_Oct_28_1352,ProdFawcett_Revision2019,3.2.4,60.0117582303494,
,,,,92,0,92,0,,,,,,,,,,,,,11395.633219195122,None,,,,,,,,,,,,,,,,,,,,,,produce,C_sing,92,239,11391.314391055552,None,11391.314391055552,None,11391.314391055552,None,6,2.532313864561729,11391.314391055552,None,11393.897372955165,None,11393.897372955165,None,11394.414347204089,None,11394.414347204089,None,11394.414347204089,None,r,1.191759656649083,11394.414347204089,None,sing10,001,2019_Oct_28_1352,ProdFawcett_Revision2019,3.2.4,60.0117582303494,
,,,,93,0,93,0,,,,,,,,,,,,,11399.649285003426,None,,,,,,,,,,,,,,,,,,,,,,skill,D_new,93,289,11396.164808110974,None,11396.164808110974,None,11396.164808110974,None,3,2.4891015114844777,11396.164808110974,None,11398.703427878325,None,11398.703427878325,None,11399.232387572294,None,11399.232387572294,None,11399.232387572294,None,f,0.37430117558687925,11399.232387572294,None,sing10,001,2019_Oct_28_1352,ProdFawcett_Revision2019,3.2.4,60.0117582303494,
,,,,94,0,94,0,,,,,,,,,,,,,11402.48350314115,None,,,,,,,,,,,,,,,,,,,,,,motion,D_new,94,194,11400.166141693131,None,11400.166141693131,None,11400.166141693131,None,3,1.3839012253447436,11400.166141693131,None,11401.571174659475,None,11401.571174659475,None,11402.10004074144,None,11402.10004074144,None,11402.10004074144,None,f,0.3376593891880475,11402.10004074144,None,sing10,001,2019_Oct_28_1352,ProdFawcett_Revision2019,3.2.4,60.0117582303494,
,,,,95,0,95,0,,,,,,,,,,,,,11405.717657523172,None,,,,,,,,,,,,,,,,,,,,,,turkey,B_aloud,95,342,11403.00134882133,None,11403.00134882133,None,11403.00134882133,None,6,1.596272314491216,11403.00134882133,None,11404.641180879495,None,11404.641180879495,None,11405.167639173975,None,11405.167639173975,None,11405.167639173975,None,r,0.5019686509040184,11405.167639173975,None,sing10,001,2019_Oct_28_1352,ProdFawcett_Revision2019,3.2.4,60.0117582303494,
,,,,96,0,96,0,,,,,,,,,,,,,11409.302279032185,None,,,,,,,,,,,,,,,,,,,,,,route,D_new,96,267,11406.234748087358,None,11406.234748087358,None,11406.234748087358,None,3,1.891338869172614,11406.234748087358,None,11408.185264663829,None,11408.185264663829,None,11408.702074080997,None,11408.702074080997,None,11408.702074080997,None,f,0.5594787584850565,11408.702074080997,None,sing10,001,2019_Oct_28_1352,ProdFawcett_Revision2019,3.2.4,60.0117582303494,
,,,,97,0,97,0,,,,,,,,,,,,,11412.069763637497,None,,,,,,,,,,,,,,,,,,,,,,corner,A_silent,97,69,11409.82038160105,None,11409.82038160105,None,11409.82038160105,None,5,1.1528002736740746,11409.82038160105,None,11411.036130185996,None,11411.036130185996,None,11411.552970392513,None,11411.552970392513,None,11411.552970392513,None,f,0.4682602475513704,11411.552970392513,None,sing10,001,2019_Oct_28_1352,ProdFawcett_Revision2019,3.2.4,60.0117582303494,
,,,,98,0,98,0,,,,,,,,,,,,,11414.670578155143,None,,,,,,,,,,,,,,,,,,,,,,watch,A_silent,98,351,11412.58654817444,None,11412.58654817444,None,11412.58654817444,None,3,1.2507616470684297,11412.58654817444,None,11413.886958076735,None,11413.886958076735,None,11414.403867636982,None,11414.403867636982,None,11414.403867636982,None,f,0.23355010262457654,11414.403867636982,None,sing10,001,2019_Oct_28_1352,ProdFawcett_Revision2019,3.2.4,60.0117582303494,
,,,,99,0,99,0,,,,,,,,,,,,,11418.071541954356,None,,,,,,,,,,,,,,,,,,,,,,society,D_new,99,293,11415.188402998087,None,11415.188402998087,None,11415.188402998087,None,2,1.6252914101351053,11415.188402998087,None,11416.871298438753,None,11416.871298438753,None,11417.387989985698,None,11417.387989985698,None,11417.387989985698,None,n,0.6493154817144386,11417.387989985698,None,sing10,001,2019_Oct_28_1352,ProdFawcett_Revision2019,3.2.4,60.0117582303494,
,,,,100,0,100,0,,,,,,,,,,,,,11420.955762891099,None,,,,,,,,,,,,,,,,,,,,,,grade,D_new,100,140,11418.588309075101,None,11418.588309075101,None,11418.588309075101,None,3,1.3285286434111185,11418.588309075101,None,11419.972211233457,None,11419.972211233457,None,11420.489202898578,None,11420.489202898578,None,11420.489202898578,None,f,0.4278285749605857,11420.489202898578,None,sing10,001,2019_Oct_28_1352,ProdFawcett_Revision2019,3.2.4,60.0117582303494,
,,,,101,0,101,0,,,,,,,,,,,,,11425.890732101747,None,,,,,,,,,,,,,,,,,,,,,,division,D_new,101,101,11421.474405983696,None,11421.474405983696,None,11421.474405983696,None,5,3.210402749304194,11421.474405983696,None,11424.740369471896,None,11424.740369471896,None,11425.257217764505,None,11425.257217764505,None,11425.257217764505,None,f,0.5870921192108653,11425.257217764505,None,sing10,001,2019_Oct_28_1352,ProdFawcett_Revision2019,3.2.4,60.0117582303494,
,,,,102,0,102,0,,,,,,,,,,,,,11429.675264352816,None,,,,,,,,,,,,,,,,,,,,,,guard,D_new,102,145,11426.407538719941,None,11426.407538719941,None,11426.407538719941,None,3,2.2934117061668076,11426.407538719941,None,11428.75825775956,None,11428.75825775956,None,11429.275137463468,None,11429.275137463468,None,11429.275137463468,None,f,0.3614240841125138,11429.275137463468,None,sing10,001,2019_Oct_28_1352,ProdFawcett_Revision2019,3.2.4,60.0117582303494,
,,,,103,0,103,0,,,,,,,,,,,,,11433.293031660141,None,,,,,,,,,,,,,,,,,,,,,,short,A_silent,103,285,11430.197011258337,None,11430.197011258337,None,11430.197011258337,None,1,1.8794408160611056,11430.197011258337,None,11432.12596037821,None,11432.12596037821,None,11432.642822043912,None,11432.642822043912,None,11432.642822043912,None,n,0.6094821795122698,11432.642822043912,None,sing10,001,2019_Oct_28_1352,ProdFawcett_Revision2019,3.2.4,60.0117582303494,
,,,,104,0,104,0,,,,,,,,,,,,,11436.077093985223,None,,,,,,,,,,,,,,,,,,,,,,provision,C_sing,104,243,11433.810385644087,None,11433.810385644087,None,11433.810385644087,None,3,1.4498715556692332,11433.810385644087,None,11435.300071530743,None,11435.300071530743,None,11435.827120420465,None,11435.827120420465,None,11435.827120420465,None,f,0.2170087702688761,11435.827120420465,None,sing10,001,2019_Oct_28_1352,ProdFawcett_Revision2019,3.2.4,60.0117582303494,
,,,,105,0,105,0,,,,,,,,,,,,,11439.86187286186,None,,,,,,,,,,,,,,,,,,,,,,trend,D_new,105,340,11436.59440318466,None,11436.59440318466,None,11436.59440318466,None,2,1.3692032095277682,11436.59440318466,None,11438.027687068505,None,11438.027687068505,None,11438.544679666637,None,11438.544679666637,None,11438.544679666637,None,n,1.2756145424791612,11438.544679666637,None,sing10,001,2019_Oct_28_1352,ProdFawcett_Revision2019,3.2.4,60.0117582303494,
,,,,106,0,106,0,,,,,,,,,,,,,11442.929361199262,None,,,,,,,,,,,,,,,,,,,,,,atmosphere,D_new,106,12,11440.380291721085,None,11440.380291721085,None,11440.380291721085,None,3,1.5992828264134005,11440.380291721085,None,11442.029030602716,None,11442.029030602716,None,11442.54588200536,None,11442.54588200536,None,11442.54588200536,None,f,0.3373993904097006,11442.54588200536,None,sing10,001,2019_Oct_28_1352,ProdFawcett_Revision2019,3.2.4,60.0117582303494,
,,,,107,0,107,0,,,,,,,,,,,,,11447.464090004389,None,,,,,,,,,,,,,,,,,,,,,,blind,A_silent,107,24,11443.446365304466,None,11443.446365304466,None,11443.446365304466,None,6,2.3419045841437764,11443.446365304466,None,11445.84693817253,None,11445.84693817253,None,11446.363606083207,None,11446.363606083207,None,11446.363606083207,None,r,1.0556786091765389,11446.363606083207,None,sing10,001,2019_Oct_28_1352,ProdFawcett_Revision2019,3.2.4,60.0117582303494,
,,,,108,0,108,0,,,,,,,,,,,,,11450.965183180931,None,,,,,,,,,,,,,,,,,,,,,,equipment,C_sing,108,116,11447.986702743045,None,11447.986702743045,None,11447.986702743045,None,4,2.216228773992043,11447.986702743045,None,11450.264906699012,None,11450.264906699012,None,11450.78588449338,None,11450.78588449338,None,11450.78588449338,None,f,0.14546215091831982,11450.78588449338,None,sing10,001,2019_Oct_28_1352,ProdFawcett_Revision2019,3.2.4,60.0117582303494,
,,,,109,0,109,0,,,,,,,,,,,,,11454.53292436403,None,,,,,,,,,,,,,,,,,,,,,,question,D_new,109,247,11451.48667692981,None,11451.48667692981,None,11451.48667692981,None,4,2.228553523658775,11451.48667692981,None,11453.755969708262,None,11453.755969708262,None,11454.285440069681,None,11454.285440069681,None,11454.285440069681,None,f,0.20607513841241598,11454.285440069681,None,sing10,001,2019_Oct_28_1352,ProdFawcett_Revision2019,3.2.4,60.0117582303494,
,,,,110,0,110,0,,,,,,,,,,,,,11457.633878833149,None,,,,,,,,,,,,,,,,,,,,,,primary,A_silent,110,234,11455.050507868407,None,11455.050507868407,None,11455.050507868407,None,3,1.7444507681648247,11455.050507868407,None,11456.83938359149,None,11456.83938359149,None,11457.367206879426,None,11457.367206879426,None,11457.367206879426,None,f,0.2277231448679231,11457.367206879426,None,sing10,001,2019_Oct_28_1352,ProdFawcett_Revision2019,3.2.4,60.0117582303494,
,,,,111,0,111,0,,,,,,,,,,,,,11461.585960689175,None,,,,,,,,,,,,,,,,,,,,,,government,C_sing,111,139,11458.151378988638,None,11458.151378988638,None,11458.151378988638,None,6,1.7471397026674822,11458.151378988638,None,11459.951224108983,None,11459.951224108983,None,11460.467962928407,None,11460.467962928407,None,11460.467962928407,None,r,1.07871773338411,11460.467962928407,None,sing10,001,2019_Oct_28_1352,ProdFawcett_Revision2019,3.2.4,60.0117582303494,
,,,,112,0,112,0,,,,,,,,,,,,,11464.502709149732,None,,,,,,,,,,,,,,,,,,,,,,broad,D_new,112,31,11462.102499533503,None,11462.102499533503,None,11462.102499533503,None,3,1.5478235989576206,11462.102499533503,None,11463.70227281208,None,11463.70227281208,None,11464.219302730635,None,11464.219302730635,None,11464.219302730635,None,f,0.24688716797390953,11464.219302730635,None,sing10,001,2019_Oct_28_1352,ProdFawcett_Revision2019,3.2.4,60.0117582303494,
,,,,113,0,113,0,,,,,,,,,,,,,11467.25364029361,None,,,,,,,,,,,,,,,,,,,,,,passage,D_new,113,212,11465.020210238232,None,11465.020210238232,None,11465.020210238232,None,3,1.5662483671912923,11465.020210238232,None,11466.636684082856,None,11466.636684082856,None,11467.153383715893,None,11467.153383715893,None,11467.153383715893,None,f,0.06481091002933681,11467.153383715893,None,sing10,001,2019_Oct_28_1352,ProdFawcett_Revision2019,3.2.4,60.0117582303494,
,,,,114,0,114,0,,,,,,,,,,,,,11470.221148535202,None,,,,,,,,,,,,,,,,,,,,,,running,D_new,114,268,11467.771272003476,None,11467.771272003476,None,11467.771272003476,None,3,1.726994464173913,11467.771272003476,None,11469.554140075867,None,11469.554140075867,None,11470.071093487612,None,11470.071093487612,None,11470.071093487612,None,f,0.10747527523199096,11470.071093487612,None,sing10,001,2019_Oct_28_1352,ProdFawcett_Revision2019,3.2.4,60.0117582303494,
,,,,115,0,115,0,,,,,,,,,,,,,11472.971894943097,None,,,,,,,,,,,,,,,,,,,,,,agency,C_sing,115,4,11470.73817409965,None,11470.73817409965,None,11470.73817409965,None,4,1.5515229831798933,11470.73817409965,None,11472.355091434962,None,11472.355091434962,None,11472.871975492919,None,11472.871975492919,None,11472.871975492919,None,f,0.05875007773283869,11472.871975492919,None,sing10,001,2019_Oct_28_1352,ProdFawcett_Revision2019,3.2.4,60.0117582303494,
,,,,116,0,116,0,,,,,,,,,,,,,11475.622815823881,None,,,,,,,,,,,,,,,,,,,,,,patient,D_new,116,213,11473.490016172174,None,11473.490016172174,None,11473.490016172174,None,4,1.4874525720370002,11473.490016172174,None,11475.039309261658,None,11475.039309261658,None,11475.55596628727,None,11475.55596628727,None,11475.55596628727,None,f,0.02148628479335457,11475.55596628727,None,sing10,001,2019_Oct_28_1352,ProdFawcett_Revision2019,3.2.4,60.0117582303494,
,,,,117,0,117,0,,,,,,,,,,,,,11478.657089631131,None,,,,,,,,,,,,,,,,,,,,,,population,C_sing,117,227,11476.141390495759,None,11476.141390495759,None,11476.141390495759,None,5,1.8602506686584093,11476.141390495759,None,11478.05681159423,None,11478.05681159423,None,11478.573676680971,None,11478.573676680971,None,11478.573676680971,None,f,0.04403931082924828,11478.573676680971,None,sing10,001,2019_Oct_28_1352,ProdFawcett_Revision2019,3.2.4,60.0117582303494,
,,,,118,0,118,0,,,,,,,,,,,,,11482.458272065676,None,,,,,,,,,,,,,,,,,,,,,,answer,D_new,118,8,11479.175343658659,None,11479.175343658659,None,11479.175343658659,None,2,2.290382223087363,11479.175343658659,None,11481.524603781814,None,11481.524603781814,None,11482.041528581234,None,11482.041528581234,None,11482.041528581234,None,f,0.3838704359950498,11482.041528581234,None,sing10,001,2019_Oct_28_1352,ProdFawcett_Revision2019,3.2.4,60.0117582303494,
,,,,119,0,119,0,,,,,,,,,,,,,11486.159531629062,None,,,,,,,,,,,,,,,,,,,,,,expansion,D_new,119,123,11482.976038751018,None,11482.976038751018,None,11482.976038751018,None,1,2.1689889283152297,11482.976038751018,None,11485.20912639174,None,11485.20912639174,None,11485.725798345462,None,11485.725798345462,None,11485.725798345462,None,n,0.38704609067644924,11485.725798345462,None,sing10,001,2019_Oct_28_1352,ProdFawcett_Revision2019,3.2.4,60.0117582303494,
,,,,120,0,120,0,,,,,,,,,,,,,11489.277053554775,None,,,,,,,,,,,,,,,,,,,,,,sunset,D_new,120,315,11486.677244510793,None,11486.677244510793,None,11486.677244510793,None,1,1.4115559494821355,11486.677244510793,None,11488.132540896942,None,11488.132540896942,None,11488.660046650504,None,11488.660046650504,None,11488.660046650504,None,n,0.5733610126771964,11488.660046650504,None,sing10,001,2019_Oct_28_1352,ProdFawcett_Revision2019,3.2.4,60.0117582303494,
,,,,121,0,121,0,,,,,,,,,,,,,11492.111129875004,None,,,,,,,,,,,,,,,,,,,,,,nation,D_new,121,198,11489.795314113318,None,11489.795314113318,None,11489.795314113318,None,3,1.661299993749708,11489.795314113318,None,11491.510961000167,None,11491.510961000167,None,11492.027849101229,None,11492.027849101229,None,11492.027849101229,None,f,0.036636499338783324,11492.027849101229,None,sing10,001,2019_Oct_28_1352,ProdFawcett_Revision2019,3.2.4,60.0117582303494,
,,,,122,0,122,0,,,,,,,,,,,,,11495.979004789435,None,,,,,,,,,,,,,,,,,,,,,,waste,B_aloud,122,350,11492.629281582369,None,11492.629281582369,None,11492.629281582369,None,4,1.635066243703477,11492.629281582369,None,11494.328594887105,None,11494.328594887105,None,11494.845260931761,None,11494.845260931761,None,11494.845260931761,None,f,1.0918302543577738,11494.845260931761,None,sing10,001,2019_Oct_28_1352,ProdFawcett_Revision2019,3.2.4,60.0117582303494,
,,,,123,0,123,0,,,,,,,,,,,,,11498.829875287658,None,,,,,,,,,,,,,,,,,,,,,,clean,D_new,123,51,11496.496260185377,None,11496.496260185377,None,11496.496260185377,None,3,1.5038548858719878,11496.496260185377,None,11498.063084841706,None,11498.063084841706,None,11498.579918517149,None,11498.579918517149,None,11498.579918517149,None,f,0.2041606021230109,11498.579918517149,None,sing10,001,2019_Oct_28_1352,ProdFawcett_Revision2019,3.2.4,60.0117582303494,
,,,,124,0,124,0,,,,,,,,,,,,,11503.014610934886,None,,,,,,,,,,,,,,,,,,,,,,stranger,D_new,124,309,11499.349258879141,None,11499.349258879141,None,11499.349258879141,None,3,2.8186169683467597,11499.349258879141,None,11502.230987124494,None,11502.230987124494,None,11502.74784723518,None,11502.74784723518,None,11502.74784723518,None,f,0.2199934689560905,11502.74784723518,None,sing10,001,2019_Oct_28_1352,ProdFawcett_Revision2019,3.2.4,60.0117582303494,
,,,,125,0,125,0,,,,,,,,,,,,,11506.365575045114,None,,,,,,,,,,,,,,,,,,,,,,evidence,B_aloud,125,120,11503.532332524715,None,11503.532332524715,None,11503.532332524715,None,5,2.0833690987201408,11503.532332524715,None,11505.665426074527,None,11505.665426074527,None,11506.18213223858,None,11506.18213223858,None,11506.18213223858,None,f,0.14559619332430884,11506.18213223858,None,sing10,001,2019_Oct_28_1352,ProdFawcett_Revision2019,3.2.4,60.0117582303494,
,,,,126,0,126,0,,,,,,,,,,,,,11508.966591714881,None,,,,,,,,,,,,,,,,,,,,,,music,D_new,126,196,11506.883360079606,None,11506.883360079606,None,11506.883360079606,None,3,1.3002379175741225,11506.883360079606,None,11508.223260869563,None,11508.223260869563,None,11508.749788828776,None,11508.749788828776,None,11508.749788828776,None,f,0.16971916402690113,11508.749788828776,None,sing10,001,2019_Oct_28_1352,ProdFawcett_Revision2019,3.2.4,60.0117582303494,
,,,,127,0,127,0,,,,,,,,,,,,,11511.834006655496,None,,,,,,,,,,,,,,,,,,,,,,detective,D_new,127,92,11509.484091248363,None,11509.484091248363,None,11509.484091248363,None,4,1.459791005763691,11509.484091248363,None,11510.988042234269,None,11510.988042234269,None,11511.517128506559,None,11511.517128506559,None,11511.517128506559,None,f,0.282725321885664,11511.517128506559,None,sing10,001,2019_Oct_28_1352,ProdFawcett_Revision2019,3.2.4,60.0117582303494,
,,,,128,0,128,0,,,,,,,,,,,,,11514.751584872778,None,,,,,,,,,,,,,,,,,,,,,,display,A_silent,128,98,11512.352633264905,None,11512.352633264905,None,11512.352633264905,None,5,1.6311059276922606,11512.352633264905,None,11514.034709211905,None,11514.034709211905,None,11514.551504944975,None,11514.551504944975,None,11514.551504944975,None,f,0.1600015550502576,11514.551504944975,None,sing10,001,2019_Oct_28_1352,ProdFawcett_Revision2019,3.2.4,60.0117582303494,
,,,,129,0,129,0,,,,,,,,,,,,,11517.502414318617,None,,,,,,,,,,,,,,,,,,,,,,poetry,D_new,129,225,11515.268350438506,None,11515.268350438506,None,11515.268350438506,None,3,1.2671984822954983,11515.268350438506,None,11516.585490452184,None,11516.585490452184,None,11517.102279343177,None,11517.102279343177,None,11517.102279343177,None,f,0.3528366610989906,11517.102279343177,None,sing10,001,2019_Oct_28_1352,ProdFawcett_Revision2019,3.2.4,60.0117582303494,
,,,,130,0,130,0,,,,,,,,,,,,,11521.120082726877,None,,,,,,,,,,,,,,,,,,,,,,exchange,D_new,130,121,11518.020134042425,None,11518.020134042425,None,11518.020134042425,None,2,1.794809354993049,11518.020134042425,None,11519.869767058524,None,11519.869767058524,None,11520.386832742428,None,11520.386832742428,None,11520.386832742428,None,f,0.7001234683557414,11520.386832742428,None,sing10,001,2019_Oct_28_1352,ProdFawcett_Revision2019,3.2.4,60.0117582303494,
,,,,131,0,131,0,,,,,,,,,,,,,11525.471409155929,None,,,,,,,,,,,,,,,,,,,,,,bucket,B_aloud,131,33,11521.638514337246,None,11521.638514337246,None,11521.638514337246,None,6,1.8002033961820416,11521.638514337246,None,11523.487628288858,None,11523.487628288858,None,11524.004487155587,None,11524.004487155587,None,11524.004487155587,None,r,1.426607576024253,11524.004487155587,None,sing10,001,2019_Oct_28_1352,ProdFawcett_Revision2019,3.2.4,60.0117582303494,
,,,,132,0,132,0,,,,,,,,,,,,,11528.8558415749,None,,,,,,,,,,,,,,,,,,,,,,place,C_sing,132,222,11525.98840175406,None,11525.98840175406,None,11525.98840175406,None,3,1.8747990918927826,11525.98840175406,None,11527.909580767562,None,11527.909580767562,None,11528.439027803717,None,11528.439027803717,None,11528.439027803717,None,f,0.3760322199668735,11528.439027803717,None,sing10,001,2019_Oct_28_1352,ProdFawcett_Revision2019,3.2.4,60.0117582303494,
,,,,133,0,133,0,,,,,,,,,,,,,11531.840225477412,None,,,,,,,,,,,,,,,,,,,,,,column,B_aloud,133,57,11529.373184984783,None,11529.373184984783,None,11529.373184984783,None,6,1.4418663308024406,11529.373184984783,None,11530.87321453006,None,11530.87321453006,None,11531.390098588075,None,11531.390098588075,None,11531.390098588075,None,r,0.41659700189484283,11531.390098588075,None,sing10,001,2019_Oct_28_1352,ProdFawcett_Revision2019,3.2.4,60.0117582303494,
,,,,134,0,134,0,,,,,,,,,,,,,11535.107856565272,None,,,,,,,,,,,,,,,,,,,,,,close,A_silent,134,53,11532.357280276192,None,11532.357280276192,None,11532.357280276192,None,3,1.9611354730441235,11532.357280276192,None,11534.374333830958,None,11534.374333830958,None,11534.891157243284,None,11534.891157243284,None,11534.891157243284,None,f,0.17889376130187884,11534.891157243284,None,sing10,001,2019_Oct_28_1352,ProdFawcett_Revision2019,3.2.4,60.0117582303494,
,,,,135,0,135,0,,,,,,,,,,,,,11538.175508801418,None,,,,,,,,,,,,,,,,,,,,,,substance,C_sing,135,313,11535.627180133131,None,11535.627180133131,None,11535.627180133131,None,4,1.2751906450139359,11535.627180133131,None,11536.958318405203,None,11536.958318405203,None,11537.475218013336,None,11537.475218013336,None,11537.475218013336,None,f,0.6595440691453405,11537.475218013336,None,sing10,001,2019_Oct_28_1352,ProdFawcett_Revision2019,3.2.4,60.0117582303494,
,,,,136,0,136,0,,,,,,,,,,,,,11540.976309634862,None,,,,,,,,,,,,,,,,,,,,,,executive,A_silent,136,122,11538.694389500539,None,11538.694389500539,None,11538.694389500539,None,6,1.2954935622401536,11538.694389500539,None,11540.042770417349,None,11540.042770417349,None,11540.55941158178,None,11540.55941158178,None,11540.55941158178,None,r,0.3749990669894032,11540.55941158178,None,sing10,001,2019_Oct_28_1352,ProdFawcett_Revision2019,3.2.4,60.0117582303494,
,,,,137,0,137,0,,,,,,,,,,,,,11544.043886919215,None,,,,,,,,,,,,,,,,,,,,,,narrow,D_new,137,197,11541.493082042667,None,11541.493082042667,None,11541.493082042667,None,4,1.641229395987466,11541.493082042667,None,11543.18042327551,None,11543.18042327551,None,11543.710344591644,None,11543.710344591644,None,11543.710344591644,None,f,0.29530633823014796,11543.710344591644,None,sing10,001,2019_Oct_28_1352,ProdFawcett_Revision2019,3.2.4,60.0117582303494,
,,,,138,0,138,0,,,,,,,,,,,,,11547.91173944145,None,,,,,,,,,,,,,,,,,,,,,,country,A_silent,138,73,11544.56225570693,None,11544.56225570693,None,11544.56225570693,None,6,1.41908876033267,11544.56225570693,None,11546.044623686,None,11546.044623686,None,11546.561341668246,None,11546.561341668246,None,11546.561341668246,None,r,1.3085435715620406,11546.561341668246,None,sing10,001,2019_Oct_28_1352,ProdFawcett_Revision2019,3.2.4,60.0117582303494,
,,,,139,0,139,0,,,,,,,,,,,,,11552.046317409957,None,,,,,,,,,,,,,,,,,,,,,,thick,D_new,139,327,11548.42865459976,None,11548.42865459976,None,11548.42865459976,None,1,1.8007862163358368,11548.42865459976,None,11550.279104932502,None,11550.279104932502,None,11550.796098774648,None,11550.796098774648,None,11550.796098774648,None,n,1.2172205635579303,11550.796098774648,None,sing10,001,2019_Oct_28_1352,ProdFawcett_Revision2019,3.2.4,60.0117582303494,
,,,,140,0,140,0,,,,,,,,,,,,,11555.347499222495,None,,,,,,,,,,,,,,,,,,,,,,platform,B_aloud,140,224,11552.56420538656,None,11552.56420538656,None,11552.56420538656,None,5,1.7848130869679153,11552.56420538656,None,11554.413858928892,None,11554.413858928892,None,11554.930547365802,None,11554.930547365802,None,11554.930547365802,None,f,0.3702808359521441,11554.930547365802,None,sing10,001,2019_Oct_28_1352,ProdFawcett_Revision2019,3.2.4,60.0117582303494,
,,,,141,0,141,0,,,,,,,,,,,,,11558.548489145993,None,,,,,,,,,,,,,,,,,,,,,,council,A_silent,141,71,11555.865156123647,None,11555.865156123647,None,11555.865156123647,None,3,1.771631523326505,11555.865156123647,None,11557.69823381229,None,11557.69823381229,None,11558.215066554723,None,11558.215066554723,None,11558.215066554723,None,f,0.2940082104760222,11558.215066554723,None,sing10,001,2019_Oct_28_1352,ProdFawcett_Revision2019,3.2.4,60.0117582303494,
,,,,142,0,142,0,,,,,,,,,,,,,11561.249243639992,None,,,,,,,,,,,,,,,,,,,,,,afternoon,A_silent,142,3,11559.066040306061,None,11559.066040306061,None,11559.066040306061,None,3,1.2429915406974033,11559.066040306061,None,11560.365627604653,None,11560.365627604653,None,11560.882515394653,None,11560.882515394653,None,11560.882515394653,None,f,0.3301371523994021,11560.882515394653,None,sing10,001,2019_Oct_28_1352,ProdFawcett_Revision2019,3.2.4,60.0117582303494,
,,,,143,0,143,0,,,,,,,,,,,,,11564.400253156666,None,,,,,,,,,,,,,,,,,,,,,,pancakes,D_new,143,210,11561.767033961543,None,11561.767033961543,None,11561.767033961543,None,2,1.7498186850571074,11561.767033961543,None,11563.56660602102,None,11563.56660602102,None,11564.083425701305,None,11564.083425701305,None,11564.083425701305,None,f,0.281037506996654,11564.083425701305,None,sing10,001,2019_Oct_28_1352,ProdFawcett_Revision2019,3.2.4,60.0117582303494,
,,,,144,0,144,0,,,,,,,,,,,,,11567.201177769515,None,,,,,,,,,,,,,,,,,,,,,,career,D_new,144,42,11564.916955899738,None,11564.916955899738,None,11564.916955899738,None,4,1.3512987497961149,11564.916955899738,None,11566.305195310095,None,11566.305195310095,None,11566.834233065892,None,11566.834233065892,None,11566.834233065892,None,f,0.3301051191519946,11566.834233065892,None,sing10,001,2019_Oct_28_1352,ProdFawcett_Revision2019,3.2.4,60.0117582303494,
,,,,145,0,145,0,,,,,,,,,,,,,11569.95191173727,None,,,,,,,,,,,,,,,,,,,,,,scale,B_aloud,145,272,11567.718232879299,None,11567.718232879299,None,11567.718232879299,None,6,1.2942165826680139,11567.718232879299,None,11569.068361634621,None,11569.068361634621,None,11569.585284879024,None,11569.585284879024,None,11569.585284879024,None,r,0.32353859551949427,11569.585284879024,None,sing10,001,2019_Oct_28_1352,ProdFawcett_Revision2019,3.2.4,60.0117582303494,
,,,,146,0,146,0,,,,,,,,,,,,,11572.852910990885,None,,,,,,,,,,,,,,,,,,,,,,permit,D_new,146,218,11570.46916153509,None,11570.46916153509,None,11570.46916153509,None,3,1.6075194376753643,11570.46916153509,None,11572.123966536077,None,11572.123966536077,None,11572.652762642305,None,11572.652762642305,None,11572.652762642305,None,f,0.1511252099298872,11572.652762642305,None,sing10,001,2019_Oct_28_1352,ProdFawcett_Revision2019,3.2.4,60.0117582303494,
,,,,147,0,147,0,,,,,,,,,,,,,11576.070556073915,None,,,,,,,,,,,,,,,,,,,,,,birth,D_new,147,22,11573.36965603038,None,11573.36965603038,None,11573.36965603038,None,2,1.7221515208366327,11573.36965603038,None,11575.153557877697,None,11575.153557877697,None,11575.670461217873,None,11575.670461217873,None,11575.670461217873,None,f,0.3579918516916223,11575.670461217873,None,sing10,001,2019_Oct_28_1352,ProdFawcett_Revision2019,3.2.4,60.0117582303494,
,,,,148,0,148,0,,,,,,,,,,,,,11578.80464390124,None,,,,,,,,,,,,,,,,,,,,,,contract,A_silent,148,68,11576.588030727115,None,11576.588030727115,None,11576.588030727115,None,3,0.9759438949986361,11576.588030727115,None,11577.6210179138,None,11577.6210179138,None,11578.137903837778,None,11578.137903837778,None,11578.137903837778,None,f,0.6260953535675071,11578.137903837778,None,sing10,001,2019_Oct_28_1352,ProdFawcett_Revision2019,3.2.4,60.0117582303494,
,,,,149,0,149,0,,,,,,,,,,,,,11581.505434160586,None,,,,,,,,,,,,,,,,,,,,,,power,D_new,149,230,11579.322093985218,None,11579.322093985218,None,11579.322093985218,None,3,1.3212409031693824,11579.322093985218,None,11580.70533681655,None,11580.70533681655,None,11581.222217142524,None,11581.222217142524,None,11581.222217142524,None,f,0.23706972692161798,11581.222217142524,None,sing10,001,2019_Oct_28_1352,ProdFawcett_Revision2019,3.2.4,60.0117582303494,
,,,,150,0,150,0,,,,,,,,,,,,,11584.406402313849,None,,,,,,,,,,,,,,,,,,,,,,general,D_new,150,135,11582.012051066733,None,11582.012051066733,None,11582.012051066733,None,3,1.5519531007157639,11582.012051066733,None,11583.611754680634,None,11583.611754680634,None,11584.13971760904,None,11584.13971760904,None,11584.13971760904,None,f,0.22403962182579562,11584.13971760904,None,sing10,001,2019_Oct_28_1352,ProdFawcett_Revision2019,3.2.4,60.0117582303494,
,,,,151,0,151,0,,,,,,,,,,,,,11587.540703800449,None,,,,,,,,,,,,,,,,,,,,,,smooth,D_new,151,292,11584.92316197051,None,11584.92316197051,None,11584.92316197051,None,2,1.728282950760331,11584.92316197051,None,11586.707161472936,None,11586.707161472936,None,11587.224051750964,None,11587.224051750964,None,11587.224051750964,None,f,0.2757442308939062,11587.224051750964,None,sing10,001,2019_Oct_28_1352,ProdFawcett_Revision2019,3.2.4,60.0117582303494,
