StudyTrials.thisRepN,StudyTrials.thisTrialN,StudyTrials.thisN,StudyTrials.thisIndex,TestTrials.thisRepN,TestTrials.thisTrialN,TestTrials.thisN,TestTrials.thisIndex,textWelcome.started,textWelcome.stopped,keyWelcome.keys,keyWelcome.rt,keyWelcome.started,keyWelcome.stopped,textReady.started,textReady.stopped,keyReady.keys,keyReady.rt,keyReady.started,keyReady.stopped,polyback_2.started,polyback_2.stopped,studyPic,studyWord,studyType,studyN,studyOrder,polyback_3.started,polyback_3.stopped,studyPicChoice.started,studyPicChoice.stopped,polyback_4.started,polyback_4.stopped,polyback.started,polyback.stopped,studyWords.started,studyWords.stopped,getResearcher.started,getResearcher.stopped,kPress2.keys,kPress2.rt,kPress2.started,kPress2.stopped,testWord,testType,testN,testOrder,polyback_5.started,polyback_5.stopped,testWords.started,testWords.stopped,textScale.started,textScale.stopped,keyConf.keys,keyConf.rt,keyConf.started,keyConf.stopped,polyback_6.started,polyback_6.stopped,studyWords_2.started,studyWords_2.stopped,polyback_7.started,polyback_7.stopped,testWords_2.started,testWords_2.stopped,textScale_2.started,textScale_2.stopped,keyRKN.keys,keyRKN.rt,keyRKN.started,keyRKN.stopped,participant,session,date,expName,psychopyVersion,frameRate,
,,,,,,,,13.846910799999023,None,space,1048.626281999983,13.846910799999023,None,,,,,,,,,,,,,,,,,,,,,,,,,,,,,,,,,,,,,,,,,,,,,,,,,,,,,,,,,,sing38,001,2019_Nov_14_1658,ProdFawcett_Revision2019,3.2.3,59.98494377619735,
,,,,,,,,,,,,,,1062.4931177999824,None,space,10.235986099985894,1062.4931177999824,None,,,,,,,,,,,,,,,,,,,,,,,,,,,,,,,,,,,,,,,,,,,,,,,,,,,,sing38,001,2019_Nov_14_1658,ProdFawcett_Revision2019,3.2.3,59.98494377619735,
0,0,0,0,,,,,,,,,,,,,,,,,1077.5252302000008,None,materials/speakPic.jpg,narrow,B_aloud,0,197,1073.8536197000067,None,1073.8536197000067,None,1074.7763817000086,None,1075.0410741000087,None,1075.0410741000087,None,,,,,,,,,,,,,,,,,,,,,,,,,,,,,,,,,,,sing38,001,2019_Nov_14_1658,ProdFawcett_Revision2019,3.2.3,59.98494377619735,
1,0,1,0,,,,,,,,,,,,,,,,,1081.7922308999987,None,materials/readPic.jpg,track,A_silent,1,334,1078.1002272999904,None,1078.1002272999904,None,1079.0421971000032,None,1079.3000011999975,None,1079.3000011999975,None,,,,,,,,,,,,,,,,,,,,,,,,,,,,,,,,,,,sing38,001,2019_Nov_14_1658,ProdFawcett_Revision2019,3.2.3,59.98494377619735,
2,0,2,0,,,,,,,,,,,,,,,,,1086.0589808000077,None,materials/readPic.jpg,enemy,A_silent,2,113,1082.3722965999914,None,1082.3722965999914,None,1083.3095146999985,None,1083.5666497999919,None,1083.5666497999919,None,,,,,,,,,,,,,,,,,,,,,,,,,,,,,,,,,,,sing38,001,2019_Nov_14_1658,ProdFawcett_Revision2019,3.2.3,59.98494377619735,
3,0,3,0,,,,,,,,,,,,,,,,,1090.3261898999917,None,materials/speakPic.jpg,revolution,B_aloud,3,264,1086.6360145999934,None,1086.6360145999934,None,1087.5765777000051,None,1087.8425180999911,None,1087.8425180999911,None,,,,,,,,,,,,,,,,,,,,,,,,,,,,,,,,,,,sing38,001,2019_Nov_14_1658,ProdFawcett_Revision2019,3.2.3,59.98494377619735,
4,0,4,0,,,,,,,,,,,,,,,,,1094.5931769000017,None,materials/speakPic.jpg,generation,B_aloud,4,136,1090.8748443000077,None,1090.8748443000077,None,1091.8435484000074,None,1092.0930578999978,None,1092.0930578999978,None,,,,,,,,,,,,,,,,,,,,,,,,,,,,,,,,,,,sing38,001,2019_Nov_14_1658,ProdFawcett_Revision2019,3.2.3,59.98494377619735,
5,0,5,0,,,,,,,,,,,,,,,,,1098.8601376999868,None,materials/speakPic.jpg,touch,B_aloud,5,332,1095.1857992000005,None,1095.1857992000005,None,1096.1106911999814,None,1096.3670418999973,None,1096.3670418999973,None,,,,,,,,,,,,,,,,,,,,,,,,,,,,,,,,,,,sing38,001,2019_Nov_14_1658,ProdFawcett_Revision2019,3.2.3,59.98494377619735,
6,0,6,0,,,,,,,,,,,,,,,,,1103.127012299985,None,materials/readPic.jpg,mechanical,A_silent,6,185,1099.4450337000017,None,1099.4450337000017,None,1100.3774321000092,None,1100.636745900003,None,1100.636745900003,None,,,,,,,,,,,,,,,,,,,,,,,,,,,,,,,,,,,sing38,001,2019_Nov_14_1658,ProdFawcett_Revision2019,3.2.3,59.98494377619735,
7,0,7,0,,,,,,,,,,,,,,,,,1107.393866600003,None,materials/speakPic.jpg,emergency,B_aloud,7,110,1103.6981692999834,None,1103.6981692999834,None,1104.6440397999831,None,1104.9077592999965,None,1104.9077592999965,None,,,,,,,,,,,,,,,,,,,,,,,,,,,,,,,,,,,sing38,001,2019_Nov_14_1658,ProdFawcett_Revision2019,3.2.3,59.98494377619735,
8,0,8,0,,,,,,,,,,,,,,,,,1111.6608889999916,None,materials/singPic.jpg,group,C_sing,8,143,1107.9794773999893,None,1107.9794773999893,None,1108.9109180000087,None,1109.1714727999934,None,1109.1714727999934,None,,,,,,,,,,,,,,,,,,,,,,,,,,,,,,,,,,,sing38,001,2019_Nov_14_1658,ProdFawcett_Revision2019,3.2.3,59.98494377619735,
9,0,9,0,,,,,,,,,,,,,,,,,1115.9279311999853,None,materials/singPic.jpg,speech,C_sing,9,298,1112.2609383999952,None,1112.2609383999952,None,1113.1779149000067,None,1113.434894200007,None,1113.434894200007,None,,,,,,,,,,,,,,,,,,,,,,,,,,,,,,,,,,,sing38,001,2019_Nov_14_1658,ProdFawcett_Revision2019,3.2.3,59.98494377619735,
10,0,10,0,,,,,,,,,,,,,,,,,1120.1950223000022,None,materials/speakPic.jpg,question,B_aloud,10,247,1116.5243694999954,None,1116.5243694999954,None,1117.4449515999877,None,1117.7148489999818,None,1117.7148489999818,None,,,,,,,,,,,,,,,,,,,,,,,,,,,,,,,,,,,sing38,001,2019_Nov_14_1658,ProdFawcett_Revision2019,3.2.3,59.98494377619735,
11,0,11,0,,,,,,,,,,,,,,,,,1124.4617624999955,None,materials/singPic.jpg,music,C_sing,11,196,1120.7836705000082,None,1120.7836705000082,None,1121.712083099992,None,1121.968698199984,None,1121.968698199984,None,,,,,,,,,,,,,,,,,,,,,,,,,,,,,,,,,,,sing38,001,2019_Nov_14_1658,ProdFawcett_Revision2019,3.2.3,59.98494377619735,
12,0,12,0,,,,,,,,,,,,,,,,,1128.7287761000043,None,materials/speakPic.jpg,direction,B_aloud,12,94,1125.0383011999947,None,1125.0383011999947,None,1125.9794432999915,None,1126.2388900000078,None,1126.2388900000078,None,,,,,,,,,,,,,,,,,,,,,,,,,,,,,,,,,,,sing38,001,2019_Nov_14_1658,ProdFawcett_Revision2019,3.2.3,59.98494377619735,
13,0,13,0,,,,,,,,,,,,,,,,,1132.995002999989,None,materials/readPic.jpg,payment,A_silent,13,215,1129.3081291999843,None,1129.3081291999843,None,1130.2506397999823,None,1130.504442000005,None,1130.504442000005,None,,,,,,,,,,,,,,,,,,,,,,,,,,,,,,,,,,,sing38,001,2019_Nov_14_1658,ProdFawcett_Revision2019,3.2.3,59.98494377619735,
14,0,14,0,,,,,,,,,,,,,,,,,1137.2620258000097,None,materials/singPic.jpg,employment,C_sing,14,111,1133.5878682000039,None,1133.5878682000039,None,1134.5134122000018,None,1134.7734957000066,None,1134.7734957000066,None,,,,,,,,,,,,,,,,,,,,,,,,,,,,,,,,,,,sing38,001,2019_Nov_14_1658,ProdFawcett_Revision2019,3.2.3,59.98494377619735,
15,0,15,0,,,,,,,,,,,,,,,,,1141.5280952999892,None,materials/speakPic.jpg,institute,B_aloud,15,162,1137.8431817000092,None,1137.8431817000092,None,1138.7787057999813,None,1139.0370112000091,None,1139.0370112000091,None,,,,,,,,,,,,,,,,,,,,,,,,,,,,,,,,,,,sing38,001,2019_Nov_14_1658,ProdFawcett_Revision2019,3.2.3,59.98494377619735,
16,0,16,0,,,,,,,,,,,,,,,,,1145.7976656999963,None,materials/speakPic.jpg,territory,B_aloud,16,324,1142.1039782000007,None,1142.1039782000007,None,1143.0481533999846,None,1143.3038435000053,None,1143.3038435000053,None,,,,,,,,,,,,,,,,,,,,,,,,,,,,,,,,,,,sing38,001,2019_Nov_14_1658,ProdFawcett_Revision2019,3.2.3,59.98494377619735,
17,0,17,0,,,,,,,,,,,,,,,,,1150.0638130999869,None,materials/singPic.jpg,produce,C_sing,17,239,1146.3963574999943,None,1146.3963574999943,None,1147.3134054999973,None,1147.5702803999884,None,1147.5702803999884,None,,,,,,,,,,,,,,,,,,,,,,,,,,,,,,,,,,,sing38,001,2019_Nov_14_1658,ProdFawcett_Revision2019,3.2.3,59.98494377619735,
18,0,18,0,,,,,,,,,,,,,,,,,1154.330578299996,None,materials/singPic.jpg,drove,C_sing,18,106,1150.675256699993,None,1150.675256699993,None,1151.580514900008,None,1151.8420036000025,None,1151.8420036000025,None,,,,,,,,,,,,,,,,,,,,,,,,,,,,,,,,,,,sing38,001,2019_Nov_14_1658,ProdFawcett_Revision2019,3.2.3,59.98494377619735,
19,0,19,0,,,,,,,,,,,,,,,,,1158.5975057999894,None,materials/singPic.jpg,profession,C_sing,19,241,1154.9265878000006,None,1154.9265878000006,None,1155.8475742999872,None,1156.1053716999886,None,1156.1053716999886,None,,,,,,,,,,,,,,,,,,,,,,,,,,,,,,,,,,,sing38,001,2019_Nov_14_1658,ProdFawcett_Revision2019,3.2.3,59.98494377619735,
20,0,20,0,,,,,,,,,,,,,,,,,1162.8649964999931,None,materials/readPic.jpg,burden,A_silent,20,36,1159.1829766999872,None,1159.1829766999872,None,1160.1152173999872,None,1160.3767817000044,None,1160.3767817000044,None,,,,,,,,,,,,,,,,,,,,,,,,,,,,,,,,,,,sing38,001,2019_Nov_14_1658,ProdFawcett_Revision2019,3.2.3,59.98494377619735,
21,0,21,0,,,,,,,,,,,,,,,,,1167.1315752000082,None,materials/singPic.jpg,budget,C_sing,21,34,1163.4646107000008,None,1163.4646107000008,None,1164.382003799983,None,1164.6430922999862,None,1164.6430922999862,None,,,,,,,,,,,,,,,,,,,,,,,,,,,,,,,,,,,sing38,001,2019_Nov_14_1658,ProdFawcett_Revision2019,3.2.3,59.98494377619735,
22,0,22,0,,,,,,,,,,,,,,,,,1171.3972518999944,None,materials/singPic.jpg,tough,C_sing,22,333,1167.732051400002,None,1167.732051400002,None,1168.6483710999892,None,1168.9098585000029,None,1168.9098585000029,None,,,,,,,,,,,,,,,,,,,,,,,,,,,,,,,,,,,sing38,001,2019_Nov_14_1658,ProdFawcett_Revision2019,3.2.3,59.98494377619735,
23,0,23,0,,,,,,,,,,,,,,,,,1175.6654918999993,None,materials/readPic.jpg,review,A_silent,23,263,1171.9942197999917,None,1171.9942197999917,None,1172.9158166999987,None,1173.1805478000024,None,1173.1805478000024,None,,,,,,,,,,,,,,,,,,,,,,,,,,,,,,,,,,,sing38,001,2019_Nov_14_1658,ProdFawcett_Revision2019,3.2.3,59.98494377619735,
24,0,24,0,,,,,,,,,,,,,,,,,1179.9323752000055,None,materials/singPic.jpg,bicycle,C_sing,24,21,1176.252097199991,None,1176.252097199991,None,1177.182323599991,None,1177.4434532999876,None,1177.4434532999876,None,,,,,,,,,,,,,,,,,,,,,,,,,,,,,,,,,,,sing38,001,2019_Nov_14_1658,ProdFawcett_Revision2019,3.2.3,59.98494377619735,
25,0,25,0,,,,,,,,,,,,,,,,,1184.1991931000084,None,materials/readPic.jpg,meeting,A_silent,25,187,1180.512378799991,None,1180.512378799991,None,1181.4485986999935,None,1181.7110428999877,None,1181.7110428999877,None,,,,,,,,,,,,,,,,,,,,,,,,,,,,,,,,,,,sing38,001,2019_Nov_14_1658,ProdFawcett_Revision2019,3.2.3,59.98494377619735,
26,0,26,0,,,,,,,,,,,,,,,,,1188.4660788000037,None,materials/speakPic.jpg,crime,B_aloud,26,78,1184.7679100999958,None,1184.7679100999958,None,1185.7161437000032,None,1185.9730053000094,None,1185.9730053000094,None,,,,,,,,,,,,,,,,,,,,,,,,,,,,,,,,,,,sing38,001,2019_Nov_14_1658,ProdFawcett_Revision2019,3.2.3,59.98494377619735,
27,0,27,0,,,,,,,,,,,,,,,,,1192.7330207999912,None,materials/speakPic.jpg,throw,B_aloud,27,330,1189.0434374999895,None,1189.0434374999895,None,1189.9839117999945,None,1190.2428650000074,None,1190.2428650000074,None,,,,,,,,,,,,,,,,,,,,,,,,,,,,,,,,,,,sing38,001,2019_Nov_14_1658,ProdFawcett_Revision2019,3.2.3,59.98494377619735,
28,0,28,0,,,,,,,,,,,,,,,,,1197.0000196000037,None,materials/speakPic.jpg,poetry,B_aloud,28,225,1193.3074990999885,None,1193.3074990999885,None,1194.249955999985,None,1194.5081425000099,None,1194.5081425000099,None,,,,,,,,,,,,,,,,,,,,,,,,,,,,,,,,,,,sing38,001,2019_Nov_14_1658,ProdFawcett_Revision2019,3.2.3,59.98494377619735,
29,0,29,0,,,,,,,,,,,,,,,,,1201.265698400006,None,materials/readPic.jpg,dream,A_silent,29,104,1197.5936884999974,None,1197.5936884999974,None,1198.5183544000029,None,1198.7748531999823,None,1198.7748531999823,None,,,,,,,,,,,,,,,,,,,,,,,,,,,,,,,,,,,sing38,001,2019_Nov_14_1658,ProdFawcett_Revision2019,3.2.3,59.98494377619735,
30,0,30,0,,,,,,,,,,,,,,,,,1205.534065999993,None,materials/singPic.jpg,suspect,C_sing,30,318,1201.875194399996,None,1201.875194399996,None,1202.7842388999998,None,1203.040534300002,None,1203.040534300002,None,,,,,,,,,,,,,,,,,,,,,,,,,,,,,,,,,,,sing38,001,2019_Nov_14_1658,ProdFawcett_Revision2019,3.2.3,59.98494377619735,
31,0,31,0,,,,,,,,,,,,,,,,,1209.800866799982,None,materials/readPic.jpg,science,A_silent,31,275,1206.1058625000005,None,1206.1058625000005,None,1207.0512206999992,None,1207.3108278999862,None,1207.3108278999862,None,,,,,,,,,,,,,,,,,,,,,,,,,,,,,,,,,,,sing38,001,2019_Nov_14_1658,ProdFawcett_Revision2019,3.2.3,59.98494377619735,
32,0,32,0,,,,,,,,,,,,,,,,,1214.0678473000007,None,materials/singPic.jpg,republic,C_sing,32,260,1210.417603399983,None,1210.417603399983,None,1211.3178353999974,None,1211.5766184999957,None,1211.5766184999957,None,,,,,,,,,,,,,,,,,,,,,,,,,,,,,,,,,,,sing38,001,2019_Nov_14_1658,ProdFawcett_Revision2019,3.2.3,59.98494377619735,
33,0,33,0,,,,,,,,,,,,,,,,,1218.334905900003,None,materials/readPic.jpg,under,A_silent,33,343,1214.6494594999822,None,1214.6494594999822,None,1215.586899899994,None,1215.841313299985,None,1215.841313299985,None,,,,,,,,,,,,,,,,,,,,,,,,,,,,,,,,,,,sing38,001,2019_Nov_14_1658,ProdFawcett_Revision2019,3.2.3,59.98494377619735,
34,0,34,0,,,,,,,,,,,,,,,,,1222.6019494000066,None,materials/speakPic.jpg,household,B_aloud,34,154,1218.9019106999913,None,1218.9019106999913,None,1219.8525569000049,None,1220.1102686999948,None,1220.1102686999948,None,,,,,,,,,,,,,,,,,,,,,,,,,,,,,,,,,,,sing38,001,2019_Nov_14_1658,ProdFawcett_Revision2019,3.2.3,59.98494377619735,
35,0,35,0,,,,,,,,,,,,,,,,,1226.8687866999826,None,materials/speakPic.jpg,position,B_aloud,35,229,1223.1851887000084,None,1223.1851887000084,None,1224.1194744999812,None,1224.3763203999843,None,1224.3763203999843,None,,,,,,,,,,,,,,,,,,,,,,,,,,,,,,,,,,,sing38,001,2019_Nov_14_1658,ProdFawcett_Revision2019,3.2.3,59.98494377619735,
36,0,36,0,,,,,,,,,,,,,,,,,1231.1364869999816,None,materials/readPic.jpg,executive,A_silent,36,122,1227.4547147999983,None,1227.4547147999983,None,1228.3874310999818,None,1228.6495369999902,None,1228.6495369999902,None,,,,,,,,,,,,,,,,,,,,,,,,,,,,,,,,,,,sing38,001,2019_Nov_14_1658,ProdFawcett_Revision2019,3.2.3,59.98494377619735,
37,0,37,0,,,,,,,,,,,,,,,,,1235.4026930999826,None,materials/readPic.jpg,company,A_silent,37,64,1231.6791451000026,None,1231.6791451000026,None,1232.6540256000008,None,1232.910199999984,None,1232.910199999984,None,,,,,,,,,,,,,,,,,,,,,,,,,,,,,,,,,,,sing38,001,2019_Nov_14_1658,ProdFawcett_Revision2019,3.2.3,59.98494377619735,
38,0,38,0,,,,,,,,,,,,,,,,,1239.6695925999957,None,materials/speakPic.jpg,command,B_aloud,38,60,1235.9463690999837,None,1235.9463690999837,None,1236.9196195999975,None,1237.178448599996,None,1237.178448599996,None,,,,,,,,,,,,,,,,,,,,,,,,,,,,,,,,,,,sing38,001,2019_Nov_14_1658,ProdFawcett_Revision2019,3.2.3,59.98494377619735,
39,0,39,0,,,,,,,,,,,,,,,,,1243.9366398999991,None,materials/readPic.jpg,region,A_silent,39,256,1240.245543500001,None,1240.245543500001,None,1241.1866454999836,None,1241.4485678999918,None,1241.4485678999918,None,,,,,,,,,,,,,,,,,,,,,,,,,,,,,,,,,,,sing38,001,2019_Nov_14_1658,ProdFawcett_Revision2019,3.2.3,59.98494377619735,
40,0,40,0,,,,,,,,,,,,,,,,,1248.203693699994,None,materials/speakPic.jpg,patient,B_aloud,40,213,1244.5132604999817,None,1244.5132604999817,None,1245.4534045000037,None,1245.7044579999929,None,1245.7044579999929,None,,,,,,,,,,,,,,,,,,,,,,,,,,,,,,,,,,,sing38,001,2019_Nov_14_1658,ProdFawcett_Revision2019,3.2.3,59.98494377619735,
41,0,41,0,,,,,,,,,,,,,,,,,1252.47050950001,None,materials/readPic.jpg,collection,A_silent,41,54,1248.786246500007,None,1248.786246500007,None,1249.7206001000013,None,1249.97523370001,None,1249.97523370001,None,,,,,,,,,,,,,,,,,,,,,,,,,,,,,,,,,,,sing38,001,2019_Nov_14_1658,ProdFawcett_Revision2019,3.2.3,59.98494377619735,
42,0,42,0,,,,,,,,,,,,,,,,,1256.7375310999923,None,materials/speakPic.jpg,measure,B_aloud,42,184,1253.0622022000025,None,1253.0622022000025,None,1253.9875546999974,None,1254.2465363999945,None,1254.2465363999945,None,,,,,,,,,,,,,,,,,,,,,,,,,,,,,,,,,,,sing38,001,2019_Nov_14_1658,ProdFawcett_Revision2019,3.2.3,59.98494377619735,
43,0,43,0,,,,,,,,,,,,,,,,,1261.0038629999908,None,materials/speakPic.jpg,department,B_aloud,43,90,1257.2883403000014,None,1257.2883403000014,None,1258.2551566000038,None,1258.5129652000032,None,1258.5129652000032,None,,,,,,,,,,,,,,,,,,,,,,,,,,,,,,,,,,,sing38,001,2019_Nov_14_1658,ProdFawcett_Revision2019,3.2.3,59.98494377619735,
44,0,44,0,,,,,,,,,,,,,,,,,1265.2711737999925,None,materials/speakPic.jpg,month,B_aloud,44,193,1261.5677596000023,None,1261.5677596000023,None,1262.5220249999838,None,1262.7792561999813,None,1262.7792561999813,None,,,,,,,,,,,,,,,,,,,,,,,,,,,,,,,,,,,sing38,001,2019_Nov_14_1658,ProdFawcett_Revision2019,3.2.3,59.98494377619735,
45,0,45,0,,,,,,,,,,,,,,,,,1269.5382808999857,None,materials/singPic.jpg,welcome,C_sing,45,354,1265.8625115999894,None,1265.8625115999894,None,1266.790111899987,None,1267.0513640999852,None,1267.0513640999852,None,,,,,,,,,,,,,,,,,,,,,,,,,,,,,,,,,,,sing38,001,2019_Nov_14_1658,ProdFawcett_Revision2019,3.2.3,59.98494377619735,
46,0,46,0,,,,,,,,,,,,,,,,,1273.8055651999894,None,materials/singPic.jpg,minute,C_sing,46,192,1270.123745799996,None,1270.123745799996,None,1271.0553265000053,None,1271.3114908999996,None,1271.3114908999996,None,,,,,,,,,,,,,,,,,,,,,,,,,,,,,,,,,,,sing38,001,2019_Nov_14_1658,ProdFawcett_Revision2019,3.2.3,59.98494377619735,
47,0,47,0,,,,,,,,,,,,,,,,,1278.0723804000008,None,materials/singPic.jpg,entrance,C_sing,47,115,1274.382698900008,None,1274.382698900008,None,1275.3222229999956,None,1275.581495099992,None,1275.581495099992,None,,,,,,,,,,,,,,,,,,,,,,,,,,,,,,,,,,,sing38,001,2019_Nov_14_1658,ProdFawcett_Revision2019,3.2.3,59.98494377619735,
48,0,48,0,,,,,,,,,,,,,,,,,1282.3391379999812,None,materials/speakPic.jpg,instrument,B_aloud,48,163,1278.6600999000075,None,1278.6600999000075,None,1279.590522399987,None,1279.8492795999919,None,1279.8492795999919,None,,,,,,,,,,,,,,,,,,,,,,,,,,,,,,,,,,,sing38,001,2019_Nov_14_1658,ProdFawcett_Revision2019,3.2.3,59.98494377619735,
49,0,49,0,,,,,,,,,,,,,,,,,1286.606101399986,None,materials/singPic.jpg,problem,C_sing,49,238,1282.926452499989,None,1282.926452499989,None,1283.8562292999995,None,1284.119488299999,None,1284.119488299999,None,,,,,,,,,,,,,,,,,,,,,,,,,,,,,,,,,,,sing38,001,2019_Nov_14_1658,ProdFawcett_Revision2019,3.2.3,59.98494377619735,
50,0,50,0,,,,,,,,,,,,,,,,,1290.8730200999998,None,materials/singPic.jpg,tragedy,C_sing,50,335,1287.1944209999929,None,1287.1944209999929,None,1288.1233887999842,None,1288.3862293999991,None,1288.3862293999991,None,,,,,,,,,,,,,,,,,,,,,,,,,,,,,,,,,,,sing38,001,2019_Nov_14_1658,ProdFawcett_Revision2019,3.2.3,59.98494377619735,
51,0,51,0,,,,,,,,,,,,,,,,,1295.1400162999926,None,materials/readPic.jpg,block,A_silent,51,25,1291.418658999988,None,1291.418658999988,None,1292.3900917999854,None,1292.6510406000016,None,1292.6510406000016,None,,,,,,,,,,,,,,,,,,,,,,,,,,,,,,,,,,,sing38,001,2019_Nov_14_1658,ProdFawcett_Revision2019,3.2.3,59.98494377619735,
52,0,52,0,,,,,,,,,,,,,,,,,1299.4069535000017,None,materials/readPic.jpg,rough,A_silent,52,266,1295.733164300007,None,1295.733164300007,None,1296.6560283,None,1296.9191593999858,None,1296.9191593999858,None,,,,,,,,,,,,,,,,,,,,,,,,,,,,,,,,,,,sing38,001,2019_Nov_14_1658,ProdFawcett_Revision2019,3.2.3,59.98494377619735,
53,0,53,0,,,,,,,,,,,,,,,,,1303.6739302999922,None,materials/readPic.jpg,report,A_silent,53,259,1300.0354701000033,None,1300.0354701000033,None,1300.9246367999876,None,1301.1813371999888,None,1301.1813371999888,None,,,,,,,,,,,,,,,,,,,,,,,,,,,,,,,,,,,sing38,001,2019_Nov_14_1658,ProdFawcett_Revision2019,3.2.3,59.98494377619735,
54,0,54,0,,,,,,,,,,,,,,,,,1307.9408412000048,None,materials/speakPic.jpg,management,B_aloud,54,177,1304.255748399999,None,1304.255748399999,None,1305.1905314000032,None,1305.4548113000055,None,1305.4548113000055,None,,,,,,,,,,,,,,,,,,,,,,,,,,,,,,,,,,,sing38,001,2019_Nov_14_1658,ProdFawcett_Revision2019,3.2.3,59.98494377619735,
55,0,55,0,,,,,,,,,,,,,,,,,1312.207896399981,None,materials/readPic.jpg,religion,A_silent,55,258,1308.5183171000099,None,1308.5183171000099,None,1309.457038099994,None,1309.7224240000069,None,1309.7224240000069,None,,,,,,,,,,,,,,,,,,,,,,,,,,,,,,,,,,,sing38,001,2019_Nov_14_1658,ProdFawcett_Revision2019,3.2.3,59.98494377619735,
56,0,56,0,,,,,,,,,,,,,,,,,1316.4747979000094,None,materials/speakPic.jpg,medicine,B_aloud,56,186,1312.7733564999944,None,1312.7733564999944,None,1313.7255384000018,None,1313.981009399984,None,1313.981009399984,None,,,,,,,,,,,,,,,,,,,,,,,,,,,,,,,,,,,sing38,001,2019_Nov_14_1658,ProdFawcett_Revision2019,3.2.3,59.98494377619735,
57,0,57,0,,,,,,,,,,,,,,,,,1320.7418111999868,None,materials/singPic.jpg,height,C_sing,57,152,1317.050550999993,None,1317.050550999993,None,1317.992387699982,None,1318.2530367999861,None,1318.2530367999861,None,,,,,,,,,,,,,,,,,,,,,,,,,,,,,,,,,,,sing38,001,2019_Nov_14_1658,ProdFawcett_Revision2019,3.2.3,59.98494377619735,
58,0,58,0,,,,,,,,,,,,,,,,,1325.0089736999944,None,materials/singPic.jpg,blind,C_sing,58,24,1321.2933722999878,None,1321.2933722999878,None,1322.2628875999944,None,1322.5145923999953,None,1322.5145923999953,None,,,,,,,,,,,,,,,,,,,,,,,,,,,,,,,,,,,sing38,001,2019_Nov_14_1658,ProdFawcett_Revision2019,3.2.3,59.98494377619735,
59,0,59,0,,,,,,,,,,,,,,,,,1329.2757625000086,None,materials/readPic.jpg,bureau,A_silent,59,37,1325.5697205000033,None,1325.5697205000033,None,1326.5309094999975,None,1326.7882631999964,None,1326.7882631999964,None,,,,,,,,,,,,,,,,,,,,,,,,,,,,,,,,,,,sing38,001,2019_Nov_14_1658,ProdFawcett_Revision2019,3.2.3,59.98494377619735,
60,0,60,0,,,,,,,,,,,,,,,,,1333.5425803999824,None,materials/speakPic.jpg,health,B_aloud,60,149,1329.888264899986,None,1329.888264899986,None,1330.7929877999995,None,1331.051725199999,None,1331.051725199999,None,,,,,,,,,,,,,,,,,,,,,,,,,,,,,,,,,,,sing38,001,2019_Nov_14_1658,ProdFawcett_Revision2019,3.2.3,59.98494377619735,
61,0,61,0,,,,,,,,,,,,,,,,,1337.8096791999997,None,materials/singPic.jpg,store,C_sing,61,305,1334.1401265999884,None,1334.1401265999884,None,1335.0602894999902,None,1335.316827200004,None,1335.316827200004,None,,,,,,,,,,,,,,,,,,,,,,,,,,,,,,,,,,,sing38,001,2019_Nov_14_1658,ProdFawcett_Revision2019,3.2.3,59.98494377619735,
62,0,62,0,,,,,,,,,,,,,,,,,1342.0759487999894,None,materials/singPic.jpg,machinery,C_sing,62,175,1338.3981831999845,None,1338.3981831999845,None,1339.326937899983,None,1339.5841443999961,None,1339.5841443999961,None,,,,,,,,,,,,,,,,,,,,,,,,,,,,,,,,,,,sing38,001,2019_Nov_14_1658,ProdFawcett_Revision2019,3.2.3,59.98494377619735,
63,0,63,0,,,,,,,,,,,,,,,,,1346.3441647999862,None,materials/singPic.jpg,threat,C_sing,63,329,1342.6628812999988,None,1342.6628812999988,None,1343.5941124999954,None,1343.8499349000049,None,1343.8499349000049,None,,,,,,,,,,,,,,,,,,,,,,,,,,,,,,,,,,,sing38,001,2019_Nov_14_1658,ProdFawcett_Revision2019,3.2.3,59.98494377619735,
64,0,64,0,,,,,,,,,,,,,,,,,1350.6106190999853,None,materials/readPic.jpg,detective,A_silent,64,92,1346.921392999997,None,1346.921392999997,None,1347.860536799999,None,1348.1147619999829,None,1348.1147619999829,None,,,,,,,,,,,,,,,,,,,,,,,,,,,,,,,,,,,sing38,001,2019_Nov_14_1658,ProdFawcett_Revision2019,3.2.3,59.98494377619735,
65,0,65,0,,,,,,,,,,,,,,,,,1354.8774886000028,None,materials/readPic.jpg,afternoon,A_silent,65,3,1351.1597984999826,None,1351.1597984999826,None,1352.1278342999867,None,1352.3854473000101,None,1352.3854473000101,None,,,,,,,,,,,,,,,,,,,,,,,,,,,,,,,,,,,sing38,001,2019_Nov_14_1658,ProdFawcett_Revision2019,3.2.3,59.98494377619735,
66,0,66,0,,,,,,,,,,,,,,,,,1359.1448563000013,None,materials/readPic.jpg,tennis,A_silent,66,323,1355.491833100008,None,1355.491833100008,None,1356.3945517999819,None,1356.649167800002,None,1356.649167800002,None,,,,,,,,,,,,,,,,,,,,,,,,,,,,,,,,,,,sing38,001,2019_Nov_14_1658,ProdFawcett_Revision2019,3.2.3,59.98494377619735,
67,0,67,0,,,,,,,,,,,,,,,,,1363.4114833000058,None,materials/readPic.jpg,dispute,A_silent,67,99,1359.7288278999913,None,1359.7288278999913,None,1360.6616805999947,None,1360.9178914999939,None,1360.9178914999939,None,,,,,,,,,,,,,,,,,,,,,,,,,,,,,,,,,,,sing38,001,2019_Nov_14_1658,ProdFawcett_Revision2019,3.2.3,59.98494377619735,
68,0,68,0,,,,,,,,,,,,,,,,,1367.6781736999983,None,materials/speakPic.jpg,surface,B_aloud,68,316,1363.9843565000047,None,1363.9843565000047,None,1364.9284362999897,None,1365.185221199994,None,1365.185221199994,None,,,,,,,,,,,,,,,,,,,,,,,,,,,,,,,,,,,sing38,001,2019_Nov_14_1658,ProdFawcett_Revision2019,3.2.3,59.98494377619735,
69,0,69,0,,,,,,,,,,,,,,,,,1371.9453230999934,None,materials/singPic.jpg,graduate,C_sing,69,141,1368.2615591000067,None,1368.2615591000067,None,1369.1955361999862,None,1369.4580603000068,None,1369.4580603000068,None,,,,,,,,,,,,,,,,,,,,,,,,,,,,,,,,,,,sing38,001,2019_Nov_14_1658,ProdFawcett_Revision2019,3.2.3,59.98494377619735,
70,0,70,0,,,,,,,,,,,,,,,,,1376.212323099986,None,materials/readPic.jpg,reading,A_silent,70,254,1372.5312000999984,None,1372.5312000999984,None,1373.4637096000079,None,1373.7255123000068,None,1373.7255123000068,None,,,,,,,,,,,,,,,,,,,,,,,,,,,,,,,,,,,sing38,001,2019_Nov_14_1658,ProdFawcett_Revision2019,3.2.3,59.98494377619735,
71,0,71,0,,,,,,,,,,,,,,,,,1380.4792060999898,None,materials/speakPic.jpg,trend,B_aloud,71,340,1376.7859833999828,None,1376.7859833999828,None,1377.7275786999962,None,1377.9874803999846,None,1377.9874803999846,None,,,,,,,,,,,,,,,,,,,,,,,,,,,,,,,,,,,sing38,001,2019_Nov_14_1658,ProdFawcett_Revision2019,3.2.3,59.98494377619735,
72,0,72,0,,,,,,,,,,,,,,,,,1384.7460932999966,None,materials/readPic.jpg,sound,A_silent,72,295,1381.0807155999937,None,1381.0807155999937,None,1381.9976805000042,None,1382.2525120000064,None,1382.2525120000064,None,,,,,,,,,,,,,,,,,,,,,,,,,,,,,,,,,,,sing38,001,2019_Nov_14_1658,ProdFawcett_Revision2019,3.2.3,59.98494377619735,
73,0,73,0,,,,,,,,,,,,,,,,,1389.0131005999865,None,materials/speakPic.jpg,edition,B_aloud,73,107,1385.342979899986,None,1385.342979899986,None,1386.26396750001,None,1386.5204722000053,None,1386.5204722000053,None,,,,,,,,,,,,,,,,,,,,,,,,,,,,,,,,,,,sing38,001,2019_Nov_14_1658,ProdFawcett_Revision2019,3.2.3,59.98494377619735,
74,0,74,0,,,,,,,,,,,,,,,,,1393.2800033999956,None,materials/readPic.jpg,subject,A_silent,74,312,1389.60315119999,None,1389.60315119999,None,1390.5317226999905,None,1390.8030355999945,None,1390.8030355999945,None,,,,,,,,,,,,,,,,,,,,,,,,,,,,,,,,,,,sing38,001,2019_Nov_14_1658,ProdFawcett_Revision2019,3.2.3,59.98494377619735,
75,0,75,0,,,,,,,,,,,,,,,,,1397.547102499986,None,materials/speakPic.jpg,pretty,B_aloud,75,233,1393.8832914000086,None,1393.8832914000086,None,1394.7970835999877,None,1395.0548506999912,None,1395.0548506999912,None,,,,,,,,,,,,,,,,,,,,,,,,,,,,,,,,,,,sing38,001,2019_Nov_14_1658,ProdFawcett_Revision2019,3.2.3,59.98494377619735,
76,0,76,0,,,,,,,,,,,,,,,,,1401.8138969999854,None,materials/readPic.jpg,birth,A_silent,76,22,1398.1270935999928,None,1398.1270935999928,None,1399.064229199983,None,1399.324124799983,None,1399.324124799983,None,,,,,,,,,,,,,,,,,,,,,,,,,,,,,,,,,,,sing38,001,2019_Nov_14_1658,ProdFawcett_Revision2019,3.2.3,59.98494377619735,
77,0,77,0,,,,,,,,,,,,,,,,,1406.0808866999869,None,materials/singPic.jpg,history,C_sing,77,153,1402.4111173999845,None,1402.4111173999845,None,1403.3314616999996,None,1403.5880229999893,None,1403.5880229999893,None,,,,,,,,,,,,,,,,,,,,,,,,,,,,,,,,,,,sing38,001,2019_Nov_14_1658,ProdFawcett_Revision2019,3.2.3,59.98494377619735,
78,0,78,0,,,,,,,,,,,,,,,,,1410.347821000003,None,materials/singPic.jpg,express,C_sing,78,124,1406.6643192000047,None,1406.6643192000047,None,1407.5982091999904,None,1407.8548147999973,None,1407.8548147999973,None,,,,,,,,,,,,,,,,,,,,,,,,,,,,,,,,,,,sing38,001,2019_Nov_14_1658,ProdFawcett_Revision2019,3.2.3,59.98494377619735,
79,0,79,0,,,,,,,,,,,,,,,,,1414.6148036000086,None,materials/speakPic.jpg,property,B_aloud,79,242,1410.9713407999952,None,1410.9713407999952,None,1411.8649204999965,None,1412.1254219999828,None,1412.1254219999828,None,,,,,,,,,,,,,,,,,,,,,,,,,,,,,,,,,,,sing38,001,2019_Nov_14_1658,ProdFawcett_Revision2019,3.2.3,59.98494377619735,
80,0,80,0,,,,,,,,,,,,,,,,,1418.8818519999913,None,materials/speakPic.jpg,individual,B_aloud,80,160,1415.210350999987,None,1415.210350999987,None,1416.1319064999989,None,1416.3972924999835,None,1416.3972924999835,None,,,,,,,,,,,,,,,,,,,,,,,,,,,,,,,,,,,sing38,001,2019_Nov_14_1658,ProdFawcett_Revision2019,3.2.3,59.98494377619735,
81,0,81,0,,,,,,,,,,,,,,,,,1423.1491100999992,None,materials/readPic.jpg,community,A_silent,81,63,1419.4694960000052,None,1419.4694960000052,None,1420.3987713999813,None,1420.6561977000092,None,1420.6561977000092,None,,,,,,,,,,,,,,,,,,,,,,,,,,,,,,,,,,,sing38,001,2019_Nov_14_1658,ProdFawcett_Revision2019,3.2.3,59.98494377619735,
82,0,82,0,,,,,,,,,,,,,,,,,1427.41583849999,None,materials/readPic.jpg,brilliant,A_silent,82,30,1423.741538400005,None,1423.741538400005,None,1424.666005200008,None,1424.926784099982,None,1424.926784099982,None,,,,,,,,,,,,,,,,,,,,,,,,,,,,,,,,,,,sing38,001,2019_Nov_14_1658,ProdFawcett_Revision2019,3.2.3,59.98494377619735,
83,0,83,0,,,,,,,,,,,,,,,,,1431.6825965000025,None,materials/speakPic.jpg,dozen,B_aloud,83,102,1427.9975707999838,None,1427.9975707999838,None,1428.9327900999924,None,1429.20174389999,None,1429.20174389999,None,,,,,,,,,,,,,,,,,,,,,,,,,,,,,,,,,,,sing38,001,2019_Nov_14_1658,ProdFawcett_Revision2019,3.2.3,59.98494377619735,
84,0,84,0,,,,,,,,,,,,,,,,,1435.9495151999872,None,materials/singPic.jpg,hearing,C_sing,84,150,1432.2717256000033,None,1432.2717256000033,None,1433.1996787000098,None,1433.4541089999839,None,1433.4541089999839,None,,,,,,,,,,,,,,,,,,,,,,,,,,,,,,,,,,,sing38,001,2019_Nov_14_1658,ProdFawcett_Revision2019,3.2.3,59.98494377619735,
85,0,85,0,,,,,,,,,,,,,,,,,1440.2166432999948,None,materials/singPic.jpg,thing,C_sing,85,328,1436.5350633999915,None,1436.5350633999915,None,1437.466612899996,None,1437.7360608000017,None,1437.7360608000017,None,,,,,,,,,,,,,,,,,,,,,,,,,,,,,,,,,,,sing38,001,2019_Nov_14_1658,ProdFawcett_Revision2019,3.2.3,59.98494377619735,
86,0,86,0,,,,,,,,,,,,,,,,,1444.4835501000052,None,materials/readPic.jpg,orchestra,A_silent,86,206,1440.816124999983,None,1440.816124999983,None,1441.7335602999956,None,1441.9949969000008,None,1441.9949969000008,None,,,,,,,,,,,,,,,,,,,,,,,,,,,,,,,,,,,sing38,001,2019_Nov_14_1658,ProdFawcett_Revision2019,3.2.3,59.98494377619735,
87,0,87,0,,,,,,,,,,,,,,,,,1448.750387100008,None,materials/singPic.jpg,quiet,C_sing,87,249,1445.0787946000055,None,1445.0787946000055,None,1446.0003652999876,None,1446.260534000001,None,1446.260534000001,None,,,,,,,,,,,,,,,,,,,,,,,,,,,,,,,,,,,sing38,001,2019_Nov_14_1658,ProdFawcett_Revision2019,3.2.3,59.98494377619735,
88,0,88,0,,,,,,,,,,,,,,,,,1453.017403100006,None,materials/singPic.jpg,guest,C_sing,88,146,1449.3671770000074,None,1449.3671770000074,None,1450.2678984999948,None,1450.5300140999898,None,1450.5300140999898,None,,,,,,,,,,,,,,,,,,,,,,,,,,,,,,,,,,,sing38,001,2019_Nov_14_1658,ProdFawcett_Revision2019,3.2.3,59.98494377619735,
89,0,89,0,,,,,,,,,,,,,,,,,1457.2834442000021,None,materials/singPic.jpg,pancakes,C_sing,89,210,1453.6048461000028,None,1453.6048461000028,None,1454.5347201999975,None,1454.7920268999878,None,1454.7920268999878,None,,,,,,,,,,,,,,,,,,,,,,,,,,,,,,,,,,,sing38,001,2019_Nov_14_1658,ProdFawcett_Revision2019,3.2.3,59.98494377619735,
,,,,,,,,,,,,,,,,,,,,,,,,,,,,,,,,,,,,,1457.7844388000085,None,k,79.64083280001068,1457.7844388000085,None,,,,,,,,,,,,,,,,,,,,,,,,,,,,,sing38,001,2019_Nov_14_1658,ProdFawcett_Revision2019,3.2.3,59.98494377619735,
,,,,,,,,,,,,,,1537.456562699983,None,space,0.15269610000541434,1537.456562699983,None,,,,,,,,,,,,,,,,,,,,,,,,,,,,,,,,,,,,,,,,,,,,,,,,,,,,sing38,001,2019_Nov_14_1658,ProdFawcett_Revision2019,3.2.3,59.98494377619735,
,,,,0,0,0,0,,,,,,,,,,,,,1548.275598999986,None,,,,,,,,,,,,,,,,,,,,,,fight,D_new,0,127,1538.1644076000084,None,1538.1644076000084,None,1538.1644076000084,None,2,6.773352299991529,1538.1644076000084,None,1544.9941087999905,None,1544.9941087999905,None,1545.510597799992,None,1545.510597799992,None,1545.510597799992,None,n,2.7308660999988206,1545.510597799992,None,sing38,001,2019_Nov_14_1658,ProdFawcett_Revision2019,3.2.3,59.98494377619735,
,,,,1,0,1,0,,,,,,,,,,,,,1557.0582686999987,None,,,,,,,,,,,,,,,,,,,,,,guard,D_new,1,145,1548.8096941999975,None,1548.8096941999975,None,1548.8096941999975,None,2,6.63977770000929,1548.8096941999975,None,1555.5064302999817,None,1555.5064302999817,None,1556.0248592999997,None,1556.0248592999997,None,1556.0248592999997,None,n,1.0007308000058401,1556.0248592999997,None,sing38,001,2019_Nov_14_1658,ProdFawcett_Revision2019,3.2.3,59.98494377619735,
,,,,2,0,2,0,,,,,,,,,,,,,1560.3722493000096,None,,,,,,,,,,,,,,,,,,,,,,junior,D_new,2,167,1557.579718199995,None,1557.579718199995,None,1557.579718199995,None,1,1.7256565999996383,1557.579718199995,None,1559.357367699995,None,1559.357367699995,None,1559.8780941999867,None,1559.8780941999867,None,1559.8780941999867,None,n,0.4590764000022318,1559.8780941999867,None,sing38,001,2019_Nov_14_1658,ProdFawcett_Revision2019,3.2.3,59.98494377619735,
,,,,3,0,3,0,,,,,,,,,,,,,1572.941342200007,None,,,,,,,,,,,,,,,,,,,,,,track,A_silent,3,334,1560.8919190999877,None,1560.8919190999877,None,1560.8919190999877,None,6,4.013662300014403,1560.8919190999877,None,1564.9506584999908,None,1564.9506584999908,None,1565.4702440999972,None,1565.4702440999972,None,1565.4702440999972,None,f,7.435013600013917,1565.4702440999972,None,sing38,001,2019_Nov_14_1658,ProdFawcett_Revision2019,3.2.3,59.98494377619735,
,,,,4,0,4,0,,,,,,,,,,,,,1579.8405781000038,None,,,,,,,,,,,,,,,,,,,,,,position,B_aloud,4,229,1573.462569700001,None,1573.462569700001,None,1573.462569700001,None,6,2.930642399995122,1573.462569700001,None,1576.4308520999912,None,1576.4308520999912,None,1576.9597902999958,None,1576.9597902999958,None,1576.9597902999958,None,r,2.841614600009052,1576.9597902999958,None,sing38,001,2019_Nov_14_1658,ProdFawcett_Revision2019,3.2.3,59.98494377619735,
,,,,5,0,5,0,,,,,,,,,,,,,1584.7245951000077,None,,,,,,,,,,,,,,,,,,,,,,sweet,D_new,5,319,1580.361538199999,None,1580.361538199999,None,1580.361538199999,None,1,2.6477879000012763,1580.361538199999,None,1583.0559809999831,None,1583.0559809999831,None,1583.5813223999867,None,1583.5813223999867,None,1583.5813223999867,None,n,1.1000020000210498,1583.5813223999867,None,sing38,001,2019_Nov_14_1658,ProdFawcett_Revision2019,3.2.3,59.98494377619735,
,,,,6,0,6,0,,,,,,,,,,,,,1589.241672700009,None,,,,,,,,,,,,,,,,,,,,,,religion,A_silent,6,258,1585.2452722000016,None,1585.2452722000016,None,1585.2452722000016,None,6,2.3401110999984667,1585.2452722000016,None,1587.6320447000035,None,1587.6320447000035,None,1588.1591775999987,None,1588.1591775999987,None,1588.1591775999987,None,f,1.0420678999798838,1588.1591775999987,None,sing38,001,2019_Nov_14_1658,ProdFawcett_Revision2019,3.2.3,59.98494377619735,
,,,,7,0,7,0,,,,,,,,,,,,,1593.4906405000074,None,,,,,,,,,,,,,,,,,,,,,,shape,D_new,7,282,1589.7595141000056,None,1589.7595141000056,None,1589.7595141000056,None,2,2.4498520999914035,1589.7595141000056,None,1592.253826500004,None,1592.253826500004,None,1592.7720898999833,None,1592.7720898999833,None,1592.7720898999833,None,n,0.6771796000248287,1592.7720898999833,None,sing38,001,2019_Nov_14_1658,ProdFawcett_Revision2019,3.2.3,59.98494377619735,
,,,,8,0,8,0,,,,,,,,,,,,,1598.7286032999982,None,,,,,,,,,,,,,,,,,,,,,,generation,B_aloud,8,136,1594.016702199995,None,1594.016702199995,None,1594.016702199995,None,6,2.3284789999888744,1594.016702199995,None,1596.3936977999983,None,1596.3936977999983,None,1596.9163390999893,None,1596.9163390999893,None,1596.9163390999893,None,r,1.7730010999948718,1596.9163390999893,None,sing38,001,2019_Nov_14_1658,ProdFawcett_Revision2019,3.2.3,59.98494377619735,
,,,,9,0,9,0,,,,,,,,,,,,,1605.8596124000032,None,,,,,,,,,,,,,,,,,,,,,,executive,A_silent,9,122,1599.2642015999882,None,1599.2642015999882,None,1599.2642015999882,None,6,3.3369873000192456,1599.2642015999882,None,1602.6594174999918,None,1602.6594174999918,None,1603.1666931000073,None,1603.1666931000073,None,1603.1666931000073,None,r,2.650709100009408,1603.1666931000073,None,sing38,001,2019_Nov_14_1658,ProdFawcett_Revision2019,3.2.3,59.98494377619735,
,,,,10,0,10,0,,,,,,,,,,,,,1609.8597290999896,None,,,,,,,,,,,,,,,,,,,,,,poetry,B_aloud,10,225,1606.3781444999913,None,1606.3781444999913,None,1606.3781444999913,None,6,2.2790756999747828,1606.3781444999913,None,1608.706104199984,None,1608.706104199984,None,1609.2334231999994,None,1609.2334231999994,None,1609.2334231999994,None,r,0.5925281000090763,1609.2334231999994,None,sing38,001,2019_Nov_14_1658,ProdFawcett_Revision2019,3.2.3,59.98494377619735,
,,,,11,0,11,0,,,,,,,,,,,,,1613.67789240001,None,,,,,,,,,,,,,,,,,,,,,,frank,D_new,11,133,1610.3779140999832,None,1610.3779140999832,None,1610.3779140999832,None,1,1.847758399992017,1610.3779140999832,None,1612.2721316000097,None,1612.2721316000097,None,1612.7912029,None,1612.7912029,None,1612.7912029,None,n,0.8500135999929626,1612.7912029,None,sing38,001,2019_Nov_14_1658,ProdFawcett_Revision2019,3.2.3,59.98494377619735,
,,,,12,0,12,0,,,,,,,,,,,,,1622.8775476999872,None,,,,,,,,,,,,,,,,,,,,,,course,D_new,12,74,1614.1937579000078,None,1614.1937579000078,None,1614.1937579000078,None,1,7.295153200015193,1614.1937579000078,None,1621.5197628999886,None,1621.5197628999886,None,1622.0453860999842,None,1622.0453860999842,None,1622.0453860999842,None,n,0.7959526000195183,1622.0453860999842,None,sing38,001,2019_Nov_14_1658,ProdFawcett_Revision2019,3.2.3,59.98494377619735,
,,,,13,0,13,0,,,,,,,,,,,,,1628.7438637999876,None,,,,,,,,,,,,,,,,,,,,,,weight,D_new,13,353,1623.4007110999955,None,1623.4007110999955,None,1623.4007110999955,None,3,3.632397800014587,1623.4007110999955,None,1627.0799595999997,None,1627.0799595999997,None,1627.600179800007,None,1627.600179800007,None,1627.600179800007,None,n,1.113278699980583,1627.600179800007,None,sing38,001,2019_Nov_14_1658,ProdFawcett_Revision2019,3.2.3,59.98494377619735,
,,,,14,0,14,0,,,,,,,,,,,,,1633.0688346000097,None,,,,,,,,,,,,,,,,,,,,,,territory,B_aloud,14,324,1629.2635681999964,None,1629.2635681999964,None,1629.2635681999964,None,6,2.0335673000081442,1629.2635681999964,None,1631.3440581999894,None,1631.3440581999894,None,1631.8624888999911,None,1631.8624888999911,None,1631.8624888999911,None,f,1.1786610999843106,1631.8624888999911,None,sing38,001,2019_Nov_14_1658,ProdFawcett_Revision2019,3.2.3,59.98494377619735,
,,,,15,0,15,0,,,,,,,,,,,,,1637.1949441999895,None,,,,,,,,,,,,,,,,,,,,,,threat,C_sing,15,329,1633.5951435999887,None,1633.5951435999887,None,1633.5951435999887,None,6,1.4221592000103556,1633.5951435999887,None,1635.0753105999902,None,1635.0753105999902,None,1635.593016800005,None,1635.593016800005,None,1635.593016800005,None,r,1.5601265000004787,1635.593016800005,None,sing38,001,2019_Nov_14_1658,ProdFawcett_Revision2019,3.2.3,59.98494377619735,
,,,,16,0,16,0,,,,,,,,,,,,,1641.5827060999873,None,,,,,,,,,,,,,,,,,,,,,,burden,A_silent,16,36,1637.7159590999945,None,1637.7159590999945,None,1637.7159590999945,None,3,2.757286300009582,1637.7159590999945,None,1640.525656599988,None,1640.525656599988,None,1641.0476344999915,None,1641.0476344999915,None,1641.0476344999915,None,n,0.4977447000273969,1641.0476344999915,None,sing38,001,2019_Nov_14_1658,ProdFawcett_Revision2019,3.2.3,59.98494377619735,
,,,,17,0,17,0,,,,,,,,,,,,,1646.4461031999963,None,,,,,,,,,,,,,,,,,,,,,,machinery,C_sing,17,175,1642.1277296000044,None,1642.1277296000044,None,1642.1277296000044,None,6,2.73748430001433,1642.1277296000044,None,1644.9077958999842,None,1644.9077958999842,None,1645.428888399998,None,1645.428888399998,None,1645.428888399998,None,r,0.972506499994779,1645.428888399998,None,sing38,001,2019_Nov_14_1658,ProdFawcett_Revision2019,3.2.3,59.98494377619735,
,,,,18,0,18,0,,,,,,,,,,,,,1653.5470304999908,None,,,,,,,,,,,,,,,,,,,,,,direction,B_aloud,18,94,1646.9653550999938,None,1646.9653550999938,None,1646.9653550999938,None,4,4.155654300004244,1646.9653550999938,None,1651.1645981000038,None,1651.1645981000038,None,1651.678417099989,None,1651.678417099989,None,1651.678417099989,None,f,1.8269497999863233,1651.678417099989,None,sing38,001,2019_Nov_14_1658,ProdFawcett_Revision2019,3.2.3,59.98494377619735,
,,,,19,0,19,0,,,,,,,,,,,,,1656.9439382999844,None,,,,,,,,,,,,,,,,,,,,,,answer,D_new,19,8,1654.0668998000037,None,1654.0668998000037,None,1654.0668998000037,None,2,1.7985726000042632,1654.0668998000037,None,1655.9050271000015,None,1655.9050271000015,None,1656.419074000005,None,1656.419074000005,None,1656.419074000005,None,n,0.47026289999485016,1656.419074000005,None,sing38,001,2019_Nov_14_1658,ProdFawcett_Revision2019,3.2.3,59.98494377619735,
,,,,20,0,20,0,,,,,,,,,,,,,1660.7188206999854,None,,,,,,,,,,,,,,,,,,,,,,range,D_new,20,251,1657.4778749999823,None,1657.4778749999823,None,1657.4778749999823,None,2,1.8833822000015061,1657.4778749999823,None,1659.4103593000036,None,1659.4103593000036,None,1659.935443800001,None,1659.935443800001,None,1659.935443800001,None,n,0.7378333000233397,1659.935443800001,None,sing38,001,2019_Nov_14_1658,ProdFawcett_Revision2019,3.2.3,59.98494377619735,
,,,,21,0,21,0,,,,,,,,,,,,,1664.5295608000015,None,,,,,,,,,,,,,,,,,,,,,,drove,C_sing,21,106,1661.238160399982,None,1661.238160399982,None,1661.238160399982,None,6,1.9950979999848641,1661.238160399982,None,1663.2794837999973,None,1663.2794837999973,None,1663.7982674000086,None,1663.7982674000086,None,1663.7982674000086,None,f,0.6909481999755371,1663.7982674000086,None,sing38,001,2019_Nov_14_1658,ProdFawcett_Revision2019,3.2.3,59.98494377619735,
,,,,22,0,22,0,,,,,,,,,,,,,1669.0306512000097,None,,,,,,,,,,,,,,,,,,,,,,device,D_new,22,93,1665.0491156000062,None,1665.0491156000062,None,1665.0491156000062,None,2,3.2003973000100814,1665.0491156000062,None,1668.2911553999875,None,1668.2911553999875,None,1668.8173876999936,None,1668.8173876999936,None,1668.8173876999936,None,n,0.1762076999875717,1668.8173876999936,None,sing38,001,2019_Nov_14_1658,ProdFawcett_Revision2019,3.2.3,59.98494377619735,
,,,,23,0,23,0,,,,,,,,,,,,,1672.3805887000053,None,,,,,,,,,,,,,,,,,,,,,,novel,D_new,23,202,1669.5488966999983,None,1669.5488966999983,None,1669.5488966999983,None,1,1.2124916999891866,1669.5488966999983,None,1670.8142742000055,None,1670.8142742000055,None,1671.3361988999823,None,1671.3361988999823,None,1671.3361988999823,None,n,1.0011137000110466,1671.3361988999823,None,sing38,001,2019_Nov_14_1658,ProdFawcett_Revision2019,3.2.3,59.98494377619735,
,,,,24,0,24,0,,,,,,,,,,,,,1676.6312961000076,None,,,,,,,,,,,,,,,,,,,,,,crime,B_aloud,24,78,1672.8985839000088,None,1672.8985839000088,None,1672.8985839000088,None,6,1.9908270000014454,1672.8985839000088,None,1674.9421265999845,None,1674.9421265999845,None,1675.4695195000095,None,1675.4695195000095,None,1675.4695195000095,None,r,1.115893199981656,1675.4695195000095,None,sing38,001,2019_Nov_14_1658,ProdFawcett_Revision2019,3.2.3,59.98494377619735,
,,,,25,0,25,0,,,,,,,,,,,,,1681.845902000001,None,,,,,,,,,,,,,,,,,,,,,,sound,A_silent,25,295,1677.1515137999959,None,1677.1515137999959,None,1677.1515137999959,None,3,2.9217581000120845,1677.1515137999959,None,1680.1252420000092,None,1680.1252420000092,None,1680.6445097999822,None,1680.6445097999822,None,1680.6445097999822,None,f,1.1568767999997362,1680.6445097999822,None,sing38,001,2019_Nov_14_1658,ProdFawcett_Revision2019,3.2.3,59.98494377619735,
,,,,26,0,26,0,,,,,,,,,,,,,1686.4104869999865,None,,,,,,,,,,,,,,,,,,,,,,payment,A_silent,26,215,1682.3689231000026,None,1682.3689231000026,None,1682.3689231000026,None,2,3.112529500009259,1682.3689231000026,None,1685.525960400002,None,1685.525960400002,None,1686.0468621999898,None,1686.0468621999898,None,1686.0468621999898,None,n,0.3306798000121489,1686.0468621999898,None,sing38,001,2019_Nov_14_1658,ProdFawcett_Revision2019,3.2.3,59.98494377619735,
,,,,27,0,27,0,,,,,,,,,,,,,1690.3815561000083,None,,,,,,,,,,,,,,,,,,,,,,rapid,D_new,27,252,1686.9398571999918,None,1686.9398571999918,None,1686.9398571999918,None,1,2.1974360000167508,1686.9398571999918,None,1689.1918459000008,None,1689.1918459000008,None,1689.712797699991,None,1689.712797699991,None,1689.712797699991,None,n,0.6245549000159372,1689.712797699991,None,sing38,001,2019_Nov_14_1658,ProdFawcett_Revision2019,3.2.3,59.98494377619735,
,,,,28,0,28,0,,,,,,,,,,,,,1694.665802500007,None,,,,,,,,,,,,,,,,,,,,,,pretty,B_aloud,28,233,1690.899744299997,None,1690.899744299997,None,1690.899744299997,None,6,2.237506300007226,1690.899744299997,None,1693.1920836000063,None,1693.1920836000063,None,1693.7044990999857,None,1693.7044990999857,None,1693.7044990999857,None,r,0.9288959999976214,1693.7044990999857,None,sing38,001,2019_Nov_14_1658,ProdFawcett_Revision2019,3.2.3,59.98494377619735,
,,,,29,0,29,0,,,,,,,,,,,,,1698.7991090999858,None,,,,,,,,,,,,,,,,,,,,,,damage,D_new,29,83,1695.1905430000043,None,1695.1905430000043,None,1695.1905430000043,None,2,2.522760699997889,1695.1905430000043,None,1697.768698800006,None,1697.768698800006,None,1698.2835734999971,None,1698.2835734999971,None,1698.2835734999971,None,n,0.48583550000330433,1698.2835734999971,None,sing38,001,2019_Nov_14_1658,ProdFawcett_Revision2019,3.2.3,59.98494377619735,
,,,,30,0,30,0,,,,,,,,,,,,,1701.765164499986,None,,,,,,,,,,,,,,,,,,,,,,straight,D_new,30,307,1699.3227409999818,None,1699.3227409999818,None,1699.3227409999818,None,1,1.390803300018888,1699.3227409999818,None,1700.760631299985,None,1700.760631299985,None,1701.2864560000016,None,1701.2864560000016,None,1701.2864560000016,None,n,0.44312699997681193,1701.2864560000016,None,sing38,001,2019_Nov_14_1658,ProdFawcett_Revision2019,3.2.3,59.98494377619735,
,,,,31,0,31,0,,,,,,,,,,,,,1705.132940999989,None,,,,,,,,,,,,,,,,,,,,,,tough,C_sing,31,333,1702.2895148999814,None,1702.2895148999814,None,1702.2895148999814,None,6,1.4238762999884784,1702.2895148999814,None,1703.7573338999937,None,1703.7573338999937,None,1704.2842531999922,None,1704.2842531999922,None,1704.2842531999922,None,f,0.8051525999908336,1704.2842531999922,None,sing38,001,2019_Nov_14_1658,ProdFawcett_Revision2019,3.2.3,59.98494377619735,
,,,,32,0,32,0,,,,,,,,,,,,,1711.5893095000065,None,,,,,,,,,,,,,,,,,,,,,,center,D_new,32,44,1705.6457021000097,None,1705.6457021000097,None,1705.6457021000097,None,3,4.699616500001866,1705.6457021000097,None,1710.3954340000055,None,1710.3954340000055,None,1710.9167624999827,None,1710.9167624999827,None,1710.9167624999827,None,n,0.6442576000117697,1710.9167624999827,None,sing38,001,2019_Nov_14_1658,ProdFawcett_Revision2019,3.2.3,59.98494377619735,
,,,,33,0,33,0,,,,,,,,,,,,,1715.8433281999896,None,,,,,,,,,,,,,,,,,,,,,,trail,D_new,33,336,1712.1159844000067,None,1712.1159844000067,None,1712.1159844000067,None,3,2.6932445999991614,1712.1159844000067,None,1714.862319799984,None,1714.862319799984,None,1715.3819153000077,None,1715.3819153000077,None,1715.3819153000077,None,n,0.4352192000078503,1715.3819153000077,None,sing38,001,2019_Nov_14_1658,ProdFawcett_Revision2019,3.2.3,59.98494377619735,
,,,,34,0,34,0,,,,,,,,,,,,,1723.9508371999837,None,,,,,,,,,,,,,,,,,,,,,,silence,D_new,34,288,1716.3563622999936,None,1716.3563622999936,None,1716.3563622999936,None,5,4.74889489999623,1716.3563622999936,None,1721.1704188000003,None,1721.1704188000003,None,1721.6888866999943,None,1721.6888866999943,None,1721.6888866999943,None,f,2.216634599986719,1721.6888866999943,None,sing38,001,2019_Nov_14_1658,ProdFawcett_Revision2019,3.2.3,59.98494377619735,
,,,,35,0,35,0,,,,,,,,,,,,,1728.0038904999965,None,,,,,,,,,,,,,,,,,,,,,,rural,D_new,35,269,1724.4682997000054,None,1724.4682997000054,None,1724.4682997000054,None,2,2.6367780000146013,1724.4682997000054,None,1727.1557445999933,None,1727.1557445999933,None,1727.6823789000046,None,1727.6823789000046,None,1727.6823789000046,None,n,0.28725669998675585,1727.6823789000046,None,sing38,001,2019_Nov_14_1658,ProdFawcett_Revision2019,3.2.3,59.98494377619735,
,,,,36,0,36,0,,,,,,,,,,,,,1732.468728799984,None,,,,,,,,,,,,,,,,,,,,,,rough,A_silent,36,266,1728.539844999992,None,1728.539844999992,None,1728.539844999992,None,4,2.4455443000188097,1728.539844999992,None,1731.0256219999865,None,1731.0256219999865,None,1731.5553006999835,None,1731.5553006999835,None,1731.5553006999835,None,f,0.8702211999916472,1731.5553006999835,None,sing38,001,2019_Nov_14_1658,ProdFawcett_Revision2019,3.2.3,59.98494377619735,
,,,,37,0,37,0,,,,,,,,,,,,,1736.601578300004,None,,,,,,,,,,,,,,,,,,,,,,candidate,D_new,37,39,1732.9793292999966,None,1732.9793292999966,None,1732.9793292999966,None,2,2.68577800001367,1732.9793292999966,None,1735.6991681999934,None,1735.6991681999934,None,1736.2072521999944,None,1736.2072521999944,None,1736.2072521999944,None,n,0.3621186999953352,1736.2072521999944,None,sing38,001,2019_Nov_14_1658,ProdFawcett_Revision2019,3.2.3,59.98494377619735,
,,,,38,0,38,0,,,,,,,,,,,,,1740.288075199991,None,,,,,,,,,,,,,,,,,,,,,,subject,A_silent,38,312,1737.127496800007,None,1737.127496800007,None,1737.127496800007,None,6,1.8898776000132784,1737.127496800007,None,1739.0696180000086,None,1739.0696180000086,None,1739.597404900007,None,1739.597404900007,None,1739.597404900007,None,f,0.6441294999967795,1739.597404900007,None,sing38,001,2019_Nov_14_1658,ProdFawcett_Revision2019,3.2.3,59.98494377619735,
,,,,39,0,39,0,,,,,,,,,,,,,1743.635580400005,None,,,,,,,,,,,,,,,,,,,,,,curve,D_new,39,82,1740.821446099988,None,1740.821446099988,None,1740.821446099988,None,2,1.9558537999982946,1740.821446099988,None,1742.8338555000082,None,1742.8338555000082,None,1743.3494181999995,None,1743.3494181999995,None,1743.3494181999995,None,n,0.24401180000859313,1743.3494181999995,None,sing38,001,2019_Nov_14_1658,ProdFawcett_Revision2019,3.2.3,59.98494377619735,
,,,,40,0,40,0,,,,,,,,,,,,,1747.5352660999924,None,,,,,,,,,,,,,,,,,,,,,,population,D_new,40,227,1744.1566078999895,None,1744.1566078999895,None,1744.1566078999895,None,2,2.3088375000224914,1744.1566078999895,None,1746.5207067999872,None,1746.5207067999872,None,1747.0335960999946,None,1747.0335960999946,None,1747.0335960999946,None,n,0.4717147000192199,1747.0335960999946,None,sing38,001,2019_Nov_14_1658,ProdFawcett_Revision2019,3.2.3,59.98494377619735,
,,,,41,0,41,0,,,,,,,,,,,,,1751.5859685000032,None,,,,,,,,,,,,,,,,,,,,,,platform,D_new,41,224,1748.0593724999926,None,1748.0593724999926,None,1748.0593724999926,None,1,2.622025599994231,1748.0593724999926,None,1750.727790200006,None,1750.727790200006,None,1751.255456999992,None,1751.255456999992,None,1751.255456999992,None,n,0.2980923999857623,1751.255456999992,None,sing38,001,2019_Nov_14_1658,ProdFawcett_Revision2019,3.2.3,59.98494377619735,
,,,,42,0,42,0,,,,,,,,,,,,,1756.7363908999832,None,,,,,,,,,,,,,,,,,,,,,,measure,B_aloud,42,184,1752.1037618999835,None,1752.1037618999835,None,1752.1037618999835,None,6,2.90559460001532,1752.1037618999835,None,1755.0644984999963,None,1755.0644984999963,None,1755.5862634000077,None,1755.5862634000077,None,1755.5862634000077,None,f,1.1191866000008304,1755.5862634000077,None,sing38,001,2019_Nov_14_1658,ProdFawcett_Revision2019,3.2.3,59.98494377619735,
,,,,43,0,43,0,,,,,,,,,,,,,1761.8852907999826,None,,,,,,,,,,,,,,,,,,,,,,strain,D_new,43,308,1757.254940999992,None,1757.254940999992,None,1757.254940999992,None,2,3.738520699989749,1757.254940999992,None,1761.0466891999822,None,1761.0466891999822,None,1761.568808799988,None,1761.568808799988,None,1761.568808799988,None,n,0.2805376000178512,1761.568808799988,None,sing38,001,2019_Nov_14_1658,ProdFawcett_Revision2019,3.2.3,59.98494377619735,
,,,,44,0,44,0,,,,,,,,,,,,,1765.5585074999835,None,,,,,,,,,,,,,,,,,,,,,,narrow,B_aloud,44,197,1762.4043303999933,None,1762.4043303999933,None,1762.4043303999933,None,6,1.7972547999816015,1762.4043303999933,None,1764.2422810999851,None,1764.2422810999851,None,1764.7680352999887,None,1764.7680352999887,None,1764.7680352999887,None,r,0.753560799988918,1764.7680352999887,None,sing38,001,2019_Nov_14_1658,ProdFawcett_Revision2019,3.2.3,59.98494377619735,
,,,,45,0,45,0,,,,,,,,,,,,,1769.0527727000008,None,,,,,,,,,,,,,,,,,,,,,,story,D_new,45,306,1766.087470700004,None,1766.087470700004,None,1766.087470700004,None,2,1.889893099985784,1766.087470700004,None,1768.0316923999926,None,1768.0316923999926,None,1768.5523202999902,None,1768.5523202999902,None,1768.5523202999902,None,n,0.4650695999735035,1768.5523202999902,None,sing38,001,2019_Nov_14_1658,ProdFawcett_Revision2019,3.2.3,59.98494377619735,
,,,,46,0,46,0,,,,,,,,,,,,,1776.2216957999917,None,,,,,,,,,,,,,,,,,,,,,,dispute,A_silent,46,99,1769.5606910999923,None,1769.5606910999923,None,1769.5606910999923,None,2,4.26463750001858,1769.5606910999923,None,1773.8819614999811,None,1773.8819614999811,None,1774.403378099989,None,1774.403378099989,None,1774.403378099989,None,n,1.7819742999854498,1774.403378099989,None,sing38,001,2019_Nov_14_1658,ProdFawcett_Revision2019,3.2.3,59.98494377619735,
,,,,47,0,47,0,,,,,,,,,,,,,1784.3058082000061,None,,,,,,,,,,,,,,,,,,,,,,history,C_sing,47,153,1776.7437199999986,None,1776.7437199999986,None,1776.7437199999986,None,3,6.569564400007948,1776.7437199999986,None,1783.3658387000032,None,1783.3658387000032,None,1783.8895098000066,None,1783.8895098000066,None,1783.8895098000066,None,f,0.3758335000020452,1783.8895098000066,None,sing38,001,2019_Nov_14_1658,ProdFawcett_Revision2019,3.2.3,59.98494377619735,
,,,,48,0,48,0,,,,,,,,,,,,,1789.6219936999842,None,,,,,,,,,,,,,,,,,,,,,,property,B_aloud,48,242,1784.823955400003,None,1784.823955400003,None,1784.823955400003,None,5,2.841373300005216,1784.823955400003,None,1787.7250793999992,None,1787.7250793999992,None,1788.2417208999977,None,1788.2417208999977,None,1788.2417208999977,None,f,1.335628499975428,1788.2417208999977,None,sing38,001,2019_Nov_14_1658,ProdFawcett_Revision2019,3.2.3,59.98494377619735,
,,,,49,0,49,0,,,,,,,,,,,,,1798.1055841000052,None,,,,,,,,,,,,,,,,,,,,,,afternoon,A_silent,49,3,1790.140825599985,None,1790.140825599985,None,1790.140825599985,None,2,6.052481399994576,1790.140825599985,None,1796.2239179000026,None,1796.2239179000026,None,1796.729523099988,None,1796.729523099988,None,1796.729523099988,None,n,1.3357680999906734,1796.729523099988,None,sing38,001,2019_Nov_14_1658,ProdFawcett_Revision2019,3.2.3,59.98494377619735,
,,,,50,0,50,0,,,,,,,,,,,,,1802.238779599982,None,,,,,,,,,,,,,,,,,,,,,,split,D_new,50,299,1798.6235164999962,None,1798.6235164999962,None,1798.6235164999962,None,2,2.5614402999926824,1798.6235164999962,None,1801.2140112000052,None,1801.2140112000052,None,1801.7239480999997,None,1801.7239480999997,None,1801.7239480999997,None,n,0.4855404000263661,1801.7239480999997,None,sing38,001,2019_Nov_14_1658,ProdFawcett_Revision2019,3.2.3,59.98494377619735,
,,,,51,0,51,0,,,,,,,,,,,,,1805.909807499993,None,,,,,,,,,,,,,,,,,,,,,,emergency,B_aloud,51,110,1802.7628009000036,None,1802.7628009000036,None,1802.7628009000036,None,6,1.5748006999783684,1802.7628009000036,None,1804.381252399995,None,1804.381252399995,None,1804.9101756000018,None,1804.9101756000018,None,1804.9101756000018,None,r,0.963266200007638,1804.9101756000018,None,sing38,001,2019_Nov_14_1658,ProdFawcett_Revision2019,3.2.3,59.98494377619735,
,,,,52,0,52,0,,,,,,,,,,,,,1808.7563499000098,None,,,,,,,,,,,,,,,,,,,,,,blind,C_sing,52,24,1806.4450174999947,None,1806.4450174999947,None,1806.4450174999947,None,6,1.6202727999771014,1806.4450174999947,None,1808.1178048999864,None,1808.1178048999864,None,1808.6400491000095,None,1808.6400491000095,None,1808.6400491000095,None,r,0.07329290002235211,1808.6400491000095,None,sing38,001,2019_Nov_14_1658,ProdFawcett_Revision2019,3.2.3,59.98494377619735,
,,,,53,0,53,0,,,,,,,,,,,,,1812.5071742,None,,,,,,,,,,,,,,,,,,,,,,quantity,D_new,53,245,1809.2797688999854,None,1809.2797688999854,None,1809.2797688999854,None,1,2.425572200008901,1809.2797688999854,None,1811.7399280999962,None,1811.7399280999962,None,1812.2481772000028,None,1812.2481772000028,None,1812.2481772000028,None,n,0.22548560000723228,1812.2481772000028,None,sing38,001,2019_Nov_14_1658,ProdFawcett_Revision2019,3.2.3,59.98494377619735,
,,,,54,0,54,0,,,,,,,,,,,,,1816.890093599999,None,,,,,,,,,,,,,,,,,,,,,,style,D_new,54,311,1813.0261388999934,None,1813.0261388999934,None,1813.0261388999934,None,2,2.863959399983287,1813.0261388999934,None,1815.9356531999947,None,1815.9356531999947,None,1816.4544733999937,None,1816.4544733999937,None,1816.4544733999937,None,n,0.40312319999793544,1816.4544733999937,None,sing38,001,2019_Nov_14_1658,ProdFawcett_Revision2019,3.2.3,59.98494377619735,
,,,,55,0,55,0,,,,,,,,,,,,,1821.4916713999992,None,,,,,,,,,,,,,,,,,,,,,,marriage,D_new,55,179,1817.4128856000025,None,1817.4128856000025,None,1817.4128856000025,None,1,3.156587000004947,1817.4128856000025,None,1820.623359899997,None,1820.623359899997,None,1821.1306547999848,None,1821.1306547999848,None,1821.1306547999848,None,n,0.3186279999790713,1821.1306547999848,None,sing38,001,2019_Nov_14_1658,ProdFawcett_Revision2019,3.2.3,59.98494377619735,
,,,,56,0,56,0,,,,,,,,,,,,,1826.3239463999926,None,,,,,,,,,,,,,,,,,,,,,,hearing,C_sing,56,150,1822.0128188999952,None,1822.0128188999952,None,1822.0128188999952,None,5,2.948567599989474,1822.0128188999952,None,1825.0103189999936,None,1825.0103189999936,None,1825.523933199991,None,1825.523933199991,None,1825.523933199991,None,f,0.7655438000219874,1825.523933199991,None,sing38,001,2019_Nov_14_1658,ProdFawcett_Revision2019,3.2.3,59.98494377619735,
,,,,57,0,57,0,,,,,,,,,,,,,1831.1343175999937,None,,,,,,,,,,,,,,,,,,,,,,suspect,C_sing,57,318,1826.8423998999933,None,1826.8423998999933,None,1826.8423998999933,None,6,2.0389496000134386,1826.8423998999933,None,1828.9333239999833,None,1828.9333239999833,None,1829.457181899983,None,1829.457181899983,None,1829.457181899983,None,f,1.639805399987381,1829.457181899983,None,sing38,001,2019_Nov_14_1658,ProdFawcett_Revision2019,3.2.3,59.98494377619735,
,,,,58,0,58,0,,,,,,,,,,,,,1836.1065936000086,None,,,,,,,,,,,,,,,,,,,,,,individual,B_aloud,58,160,1831.6661225999997,None,1831.6661225999997,None,1831.6661225999997,None,6,2.6072058000136167,1831.6661225999997,None,1834.3194057999935,None,1834.3194057999935,None,1834.844122999988,None,1834.844122999988,None,1834.844122999988,None,r,1.2293992000049911,1834.844122999988,None,sing38,001,2019_Nov_14_1658,ProdFawcett_Revision2019,3.2.3,59.98494377619735,
,,,,59,0,59,0,,,,,,,,,,,,,1839.792154499999,None,,,,,,,,,,,,,,,,,,,,,,length,D_new,59,169,1836.638336300006,None,1836.638336300006,None,1836.638336300006,None,2,2.115226800000528,1836.638336300006,None,1838.8084988000046,None,1838.8084988000046,None,1839.3248119000054,None,1839.3248119000054,None,1839.3248119000054,None,n,0.43683180000516586,1839.3248119000054,None,sing38,001,2019_Nov_14_1658,ProdFawcett_Revision2019,3.2.3,59.98494377619735,
,,,,60,0,60,0,,,,,,,,,,,,,1843.7418842999905,None,,,,,,,,,,,,,,,,,,,,,,number,D_new,60,203,1840.314644500002,None,1840.314644500002,None,1840.314644500002,None,3,2.478890500002308,1840.314644500002,None,1842.8339838999964,None,1842.8339838999964,None,1843.3632066999853,None,1843.3632066999853,None,1843.3632066999853,None,n,0.3341954000061378,1843.3632066999853,None,sing38,001,2019_Nov_14_1658,ProdFawcett_Revision2019,3.2.3,59.98494377619735,
,,,,61,0,61,0,,,,,,,,,,,,,1847.8753520000027,None,,,,,,,,,,,,,,,,,,,,,,edition,B_aloud,61,107,1844.2636508999858,None,1844.2636508999858,None,1844.2636508999858,None,6,2.2817035999905784,1844.2636508999858,None,1846.5991542999982,None,1846.5991542999982,None,1847.1242793999845,None,1847.1242793999845,None,1847.1242793999845,None,f,0.7090585000114515,1847.1242793999845,None,sing38,001,2019_Nov_14_1658,ProdFawcett_Revision2019,3.2.3,59.98494377619735,
,,,,62,0,62,0,,,,,,,,,,,,,1852.4577617000032,None,,,,,,,,,,,,,,,,,,,,,,report,A_silent,62,259,1848.4007425000018,None,1848.4007425000018,None,1848.4007425000018,None,2,2.160691700002644,1848.4007425000018,None,1850.5989573999832,None,1850.5989573999832,None,1851.1239943999972,None,1851.1239943999972,None,1851.1239943999972,None,n,1.2931852999900002,1851.1239943999972,None,sing38,001,2019_Nov_14_1658,ProdFawcett_Revision2019,3.2.3,59.98494377619735,
,,,,63,0,63,0,,,,,,,,,,,,,1856.5618501999998,None,,,,,,,,,,,,,,,,,,,,,,provision,D_new,63,243,1852.9828504000034,None,1852.9828504000034,None,1852.9828504000034,None,2,2.6342852000088897,1852.9828504000034,None,1855.6794282000046,None,1855.6794282000046,None,1856.1957153999829,None,1856.1957153999829,None,1856.1957153999829,None,n,0.32569969998439774,1856.1957153999829,None,sing38,001,2019_Nov_14_1658,ProdFawcett_Revision2019,3.2.3,59.98494377619735,
,,,,64,0,64,0,,,,,,,,,,,,,1862.7275007999851,None,,,,,,,,,,,,,,,,,,,,,,appearance,D_new,64,10,1857.077638799994,None,1857.077638799994,None,1857.077638799994,None,3,4.435343599994667,1857.077638799994,None,1861.5532424999983,None,1861.5532424999983,None,1862.0770140000095,None,1862.0770140000095,None,1862.0770140000095,None,f,0.6204508999944665,1862.0770140000095,None,sing38,001,2019_Nov_14_1658,ProdFawcett_Revision2019,3.2.3,59.98494377619735,
,,,,65,0,65,0,,,,,,,,,,,,,1870.6009003999934,None,,,,,,,,,,,,,,,,,,,,,,reach,D_new,65,253,1863.2463792999915,None,1863.2463792999915,None,1863.2463792999915,None,3,5.3633598999876995,1863.2463792999915,None,1868.6539662999858,None,1868.6539662999858,None,1869.1783667999844,None,1869.1783667999844,None,1869.1783667999844,None,f,1.3909424000012223,1869.1783667999844,None,sing38,001,2019_Nov_14_1658,ProdFawcett_Revision2019,3.2.3,59.98494377619735,
,,,,66,0,66,0,,,,,,,,,,,,,1875.736027899984,None,,,,,,,,,,,,,,,,,,,,,,community,A_silent,66,63,1871.1241671000025,None,1871.1241671000025,None,1871.1241671000025,None,6,3.4452089999977034,1871.1241671000025,None,1874.6256723999977,None,1874.6256723999977,None,1875.147484199988,None,1875.147484199988,None,1875.147484199988,None,f,0.5576765000005253,1875.147484199988,None,sing38,001,2019_Nov_14_1658,ProdFawcett_Revision2019,3.2.3,59.98494377619735,
,,,,67,0,67,0,,,,,,,,,,,,,1880.3959210999892,None,,,,,,,,,,,,,,,,,,,,,,block,A_silent,67,25,1876.2659688999993,None,1876.2659688999993,None,1876.2659688999993,None,2,3.2394475000037346,1876.2659688999993,None,1879.5537335999834,None,1879.5537335999834,None,1880.0818803999864,None,1880.0818803999864,None,1880.0818803999864,None,n,0.2798500999924727,1880.0818803999864,None,sing38,001,2019_Nov_14_1658,ProdFawcett_Revision2019,3.2.3,59.98494377619735,
,,,,68,0,68,0,,,,,,,,,,,,,1884.4801934999996,None,,,,,,,,,,,,,,,,,,,,,,union,D_new,68,344,1880.9022244999942,None,1880.9022244999942,None,1880.9022244999942,None,3,2.6031691000098363,1880.9022244999942,None,1883.5550169000053,None,1883.5550169000053,None,1884.0771771,None,1884.0771771,None,1884.0771771,None,f,0.35629769999650307,1884.0771771,None,sing38,001,2019_Nov_14_1658,ProdFawcett_Revision2019,3.2.3,59.98494377619735,
,,,,69,0,69,0,,,,,,,,,,,,,1887.7096509999828,None,,,,,,,,,,,,,,,,,,,,,,quarter,D_new,69,246,1884.9998354999989,None,1884.9998354999989,None,1884.9998354999989,None,2,1.6896053999953438,1884.9998354999989,None,1886.7440160999831,None,1886.7440160999831,None,1887.2603752999858,None,1887.2603752999858,None,1887.2603752999858,None,n,0.4131418000033591,1887.2603752999858,None,sing38,001,2019_Nov_14_1658,ProdFawcett_Revision2019,3.2.3,59.98494377619735,
,,,,70,0,70,0,,,,,,,,,,,,,1892.1155484000046,None,,,,,,,,,,,,,,,,,,,,,,bitter,D_new,70,23,1888.2396760999982,None,1888.2396760999982,None,1888.2396760999982,None,1,3.265578899998218,1888.2396760999982,None,1891.5410899999843,None,1891.5410899999843,None,1892.0666997999942,None,1892.0666997999942,None,1892.0666997999942,None,n,0.006676599994534627,1892.0666997999942,None,sing38,001,2019_Nov_14_1658,ProdFawcett_Revision2019,3.2.3,59.98494377619735,
,,,,71,0,71,0,,,,,,,,,,,,,1895.7790481999982,None,,,,,,,,,,,,,,,,,,,,,,science,A_silent,71,275,1892.6484433999867,None,1892.6484433999867,None,1892.6484433999867,None,6,1.2728910000005271,1892.6484433999867,None,1893.9597730999812,None,1893.9597730999812,None,1894.4818303000065,None,1894.4818303000065,None,1894.4818303000065,None,r,1.2638425000186544,1894.4818303000065,None,sing38,001,2019_Nov_14_1658,ProdFawcett_Revision2019,3.2.3,59.98494377619735,
,,,,72,0,72,0,,,,,,,,,,,,,1899.280096500006,None,,,,,,,,,,,,,,,,,,,,,,committee,D_new,72,62,1896.2984330999898,None,1896.2984330999898,None,1896.2984330999898,None,5,1.799437100009527,1896.2984330999898,None,1898.1455182000063,None,1898.1455182000063,None,1898.664752199984,None,1898.664752199984,None,1898.664752199984,None,f,0.5687104999960866,1898.664752199984,None,sing38,001,2019_Nov_14_1658,ProdFawcett_Revision2019,3.2.3,59.98494377619735,
,,,,73,0,73,0,,,,,,,,,,,,,1902.4628880000091,None,,,,,,,,,,,,,,,,,,,,,,instrument,B_aloud,73,163,1899.8014049000049,None,1899.8014049000049,None,1899.8014049000049,None,6,1.6478865999961272,1899.8014049000049,None,1901.4865721999959,None,1901.4865721999959,None,1902.0166585999832,None,1902.0166585999832,None,1902.0166585999832,None,r,0.4009125999873504,1902.0166585999832,None,sing38,001,2019_Nov_14_1658,ProdFawcett_Revision2019,3.2.3,59.98494377619735,
,,,,74,0,74,0,,,,,,,,,,,,,1905.8123129000014,None,,,,,,,,,,,,,,,,,,,,,,education,D_new,74,108,1902.9844232999894,None,1902.9844232999894,None,1902.9844232999894,None,5,1.9293134000035934,1902.9844232999894,None,1904.9567611000093,None,1904.9567611000093,None,1905.4839959999954,None,1905.4839959999954,None,1905.4839959999954,None,f,0.2854243000037968,1905.4839959999954,None,sing38,001,2019_Nov_14_1658,ProdFawcett_Revision2019,3.2.3,59.98494377619735,
,,,,75,0,75,0,,,,,,,,,,,,,1910.6634798999876,None,,,,,,,,,,,,,,,,,,,,,,foundation,D_new,75,132,1906.332772099995,None,1906.332772099995,None,1906.332772099995,None,4,3.3647468000126537,1906.332772099995,None,1909.746146199992,None,1909.746146199992,None,1910.2634225999936,None,1910.2634225999936,None,1910.2634225999936,None,f,0.35415949998423457,1910.2634225999936,None,sing38,001,2019_Nov_14_1658,ProdFawcett_Revision2019,3.2.3,59.98494377619735,
,,,,76,0,76,0,,,,,,,,,,,,,1914.2467595000053,None,,,,,,,,,,,,,,,,,,,,,,distance,D_new,76,100,1911.1843621000007,None,1911.1843621000007,None,1911.1843621000007,None,4,2.145829799992498,1911.1843621000007,None,1913.3759852999938,None,1913.3759852999938,None,1913.8980410000077,None,1913.8980410000077,None,1913.8980410000077,None,f,0.30335940001532435,1913.8980410000077,None,sing38,001,2019_Nov_14_1658,ProdFawcett_Revision2019,3.2.3,59.98494377619735,
,,,,77,0,77,0,,,,,,,,,,,,,1918.964027000009,None,,,,,,,,,,,,,,,,,,,,,,command,B_aloud,77,60,1914.7649585999898,None,1914.7649585999898,None,1914.7649585999898,None,6,2.0365275000222027,1914.7649585999898,None,1916.8577736000007,None,1916.8577736000007,None,1917.3797383999918,None,1917.3797383999918,None,1917.3797383999918,None,r,1.5501610000210349,1917.3797383999918,None,sing38,001,2019_Nov_14_1658,ProdFawcett_Revision2019,3.2.3,59.98494377619735,
,,,,78,0,78,0,,,,,,,,,,,,,1921.7912481999956,None,,,,,,,,,,,,,,,,,,,,,,trash,D_new,78,337,1919.4821359000052,None,1919.4821359000052,None,1919.4821359000052,None,1,1.702889000007417,1919.4821359000052,None,1921.220361899992,None,1921.220361899992,None,1921.7459934999933,None,1921.7459934999933,None,1921.7459934999933,None,n,0.0152337999898009,1921.7459934999933,None,sing38,001,2019_Nov_14_1658,ProdFawcett_Revision2019,3.2.3,59.98494377619735,
,,,,79,0,79,0,,,,,,,,,,,,,1924.7478618999885,None,,,,,,,,,,,,,,,,,,,,,,mankind,D_new,79,178,1922.3172343999904,None,1922.3172343999904,None,1922.3172343999904,None,1,1.7241541999974288,1922.3172343999904,None,1924.0796556999849,None,1924.0796556999849,None,1924.6000922000094,None,1924.6000922000094,None,1924.6000922000094,None,n,0.10534479998750612,1924.6000922000094,None,sing38,001,2019_Nov_14_1658,ProdFawcett_Revision2019,3.2.3,59.98494377619735,
,,,,80,0,80,0,,,,,,,,,,,,,1928.5816656000097,None,,,,,,,,,,,,,,,,,,,,,,group,C_sing,80,143,1925.2704094999935,None,1925.2704094999935,None,1925.2704094999935,None,3,1.490797400008887,1925.2704094999935,None,1926.7984829999914,None,1926.7984829999914,None,1927.3043004999927,None,1927.3043004999927,None,1927.3043004999927,None,f,1.2411441000003833,1927.3043004999927,None,sing38,001,2019_Nov_14_1658,ProdFawcett_Revision2019,3.2.3,59.98494377619735,
,,,,81,0,81,0,,,,,,,,,,,,,1932.2741203999904,None,,,,,,,,,,,,,,,,,,,,,,management,B_aloud,81,177,1929.1038535999833,None,1929.1038535999833,None,1929.1038535999833,None,5,1.594426099996781,1929.1038535999833,None,1930.7506869999925,None,1930.7506869999925,None,1931.2671247999824,None,1931.2671247999824,None,1931.2671247999824,None,f,0.9822923000028823,1931.2671247999824,None,sing38,001,2019_Nov_14_1658,ProdFawcett_Revision2019,3.2.3,59.98494377619735,
,,,,82,0,82,0,,,,,,,,,,,,,1936.579732299986,None,,,,,,,,,,,,,,,,,,,,,,solution,D_new,82,294,1932.802999300009,None,1932.802999300009,None,1932.802999300009,None,3,2.495318600005703,1932.802999300009,None,1935.3470095999946,None,1935.3470095999946,None,1935.8710908000066,None,1935.8710908000066,None,1935.8710908000066,None,f,0.6742776999890339,1935.8710908000066,None,sing38,001,2019_Nov_14_1658,ProdFawcett_Revision2019,3.2.3,59.98494377619735,
,,,,83,0,83,0,,,,,,,,,,,,,1942.3380767999915,None,,,,,,,,,,,,,,,,,,,,,,express,C_sing,83,124,1937.1006934999896,None,1937.1006934999896,None,1937.1006934999896,None,4,4.300603800016688,1937.1006934999896,None,1941.4400968999835,None,1941.4400968999835,None,1941.9626424000016,None,1941.9626424000016,None,1941.9626424000016,None,f,0.3424656999995932,1941.9626424000016,None,sing38,001,2019_Nov_14_1658,ProdFawcett_Revision2019,3.2.3,59.98494377619735,
,,,,84,0,84,0,,,,,,,,,,,,,1949.549180300004,None,,,,,,,,,,,,,,,,,,,,,,question,B_aloud,84,247,1942.861675299995,None,1942.861675299995,None,1942.861675299995,None,3,5.68363319998025,1942.861675299995,None,1948.581270099996,None,1948.581270099996,None,1949.1009515000042,None,1949.1009515000042,None,1949.1009515000042,None,f,0.40454550000140443,1949.1009515000042,None,sing38,001,2019_Nov_14_1658,ProdFawcett_Revision2019,3.2.3,59.98494377619735,
,,,,85,0,85,0,,,,,,,,,,,,,1953.36762189999,None,,,,,,,,,,,,,,,,,,,,,,object,D_new,85,204,1950.0778395000088,None,1950.0778395000088,None,1950.0778395000088,None,2,2.2035507000109646,1950.0778395000088,None,1952.331597499986,None,1952.331597499986,None,1952.857038599992,None,1952.857038599992,None,1952.857038599992,None,n,0.46460159998969175,1952.857038599992,None,sing38,001,2019_Nov_14_1658,ProdFawcett_Revision2019,3.2.3,59.98494377619735,
,,,,86,0,86,0,,,,,,,,,,,,,1956.348745700001,None,,,,,,,,,,,,,,,,,,,,,,under,A_silent,86,343,1953.884080399992,None,1953.884080399992,None,1953.884080399992,None,2,1.533434800017858,1953.884080399992,None,1955.460200600006,None,1955.460200600006,None,1955.9843303000089,None,1955.9843303000089,None,1955.9843303000089,None,n,0.329193400015356,1955.9843303000089,None,sing38,001,2019_Nov_14_1658,ProdFawcett_Revision2019,3.2.3,59.98494377619735,
,,,,87,0,87,0,,,,,,,,,,,,,1960.9502095000062,None,,,,,,,,,,,,,,,,,,,,,,department,B_aloud,87,90,1956.8694921999995,None,1956.8694921999995,None,1956.8694921999995,None,5,3.1958448000077624,1956.8694921999995,None,1960.1134115000023,None,1960.1134115000023,None,1960.6406780999969,None,1960.6406780999969,None,1960.6406780999969,None,f,0.26490400001057424,1960.6406780999969,None,sing38,001,2019_Nov_14_1658,ProdFawcett_Revision2019,3.2.3,59.98494377619735,
,,,,88,0,88,0,,,,,,,,,,,,,1965.1658390999946,None,,,,,,,,,,,,,,,,,,,,,,empty,D_new,88,112,1961.467948400008,None,1961.467948400008,None,1961.467948400008,None,2,2.797834299999522,1961.467948400008,None,1964.312820799998,None,1964.312820799998,None,1964.8338110999903,None,1964.8338110999903,None,1964.8338110999903,None,n,0.29569830000400543,1964.8338110999903,None,sing38,001,2019_Nov_14_1658,ProdFawcett_Revision2019,3.2.3,59.98494377619735,
,,,,89,0,89,0,,,,,,,,,,,,,1968.7563259000017,None,,,,,,,,,,,,,,,,,,,,,,company,A_silent,89,64,1965.6860777999973,None,1965.6860777999973,None,1965.6860777999973,None,6,2.1954790000163484,1965.6860777999973,None,1967.9271214999899,None,1967.9271214999899,None,1968.4490289999812,None,1968.4490289999812,None,1968.4490289999812,None,f,0.2564600999758113,1968.4490289999812,None,sing38,001,2019_Nov_14_1658,ProdFawcett_Revision2019,3.2.3,59.98494377619735,
,,,,90,0,90,0,,,,,,,,,,,,,1975.3849703999877,None,,,,,,,,,,,,,,,,,,,,,,problem,C_sing,90,238,1969.291699399997,None,1969.291699399997,None,1969.291699399997,None,4,4.333689799997956,1969.291699399997,None,1973.6827338000003,None,1973.6827338000003,None,1974.2013644999824,None,1974.2013644999824,None,1974.2013644999824,None,f,1.1441519999934826,1974.2013644999824,None,sing38,001,2019_Nov_14_1658,ProdFawcett_Revision2019,3.2.3,59.98494377619735,
,,,,91,0,91,0,,,,,,,,,,,,,1980.1177144999965,None,,,,,,,,,,,,,,,,,,,,,,corner,D_new,91,69,1975.9031313000014,None,1975.9031313000014,None,1975.9031313000014,None,1,3.338211299997056,1975.9031313000014,None,1979.2955108000024,None,1979.2955108000024,None,1979.81250130001,None,1979.81250130001,None,1979.81250130001,None,n,0.26092359999893233,1979.81250130001,None,sing38,001,2019_Nov_14_1658,ProdFawcett_Revision2019,3.2.3,59.98494377619735,
,,,,92,0,92,0,,,,,,,,,,,,,1984.803042399988,None,,,,,,,,,,,,,,,,,,,,,,employment,C_sing,92,111,1980.6223628000007,None,1980.6223628000007,None,1980.6223628000007,None,5,2.3072266000090167,1980.6223628000007,None,1982.9847754999937,None,1982.9847754999937,None,1983.5000381999998,None,1983.5000381999998,None,1983.5000381999998,None,f,1.2614079999912065,1983.5000381999998,None,sing38,001,2019_Nov_14_1658,ProdFawcett_Revision2019,3.2.3,59.98494377619735,
,,,,93,0,93,0,,,,,,,,,,,,,1987.5022405000054,None,,,,,,,,,,,,,,,,,,,,,,goose,D_new,93,138,1985.3225609000074,None,1985.3225609000074,None,1985.3225609000074,None,1,1.2309411000169348,1985.3225609000074,None,1986.5921727999812,None,1986.5921727999812,None,1987.122795000003,None,1987.122795000003,None,1987.122795000003,None,n,0.3427431999880355,1987.122795000003,None,sing38,001,2019_Nov_14_1658,ProdFawcett_Revision2019,3.2.3,59.98494377619735,
,,,,94,0,94,0,,,,,,,,,,,,,1990.9400973999873,None,,,,,,,,,,,,,,,,,,,,,,signal,D_new,94,287,1988.026393499982,None,1988.026393499982,None,1988.026393499982,None,1,1.9830388000118546,1988.026393499982,None,1990.0668296999938,None,1990.0668296999938,None,1990.5943042,None,1990.5943042,None,1990.5943042,None,n,0.31114809997961856,1990.5943042,None,sing38,001,2019_Nov_14_1658,ProdFawcett_Revision2019,3.2.3,59.98494377619735,
,,,,95,0,95,0,,,,,,,,,,,,,1994.5190169999842,None,,,,,,,,,,,,,,,,,,,,,,review,A_silent,95,263,1991.4753748000076,None,1991.4753748000076,None,1991.4753748000076,None,3,1.7819650000019465,1991.4753748000076,None,1993.317864599987,None,1993.317864599987,None,1993.8343414999836,None,1993.8343414999836,None,1993.8343414999836,None,n,0.639047800010303,1993.8343414999836,None,sing38,001,2019_Nov_14_1658,ProdFawcett_Revision2019,3.2.3,59.98494377619735,
,,,,96,0,96,0,,,,,,,,,,,,,1998.3519594999962,None,,,,,,,,,,,,,,,,,,,,,,colonel,D_new,96,55,1995.0372325000062,None,1995.0372325000062,None,1995.0372325000062,None,1,2.4121636999771,1995.0372325000062,None,1997.5002225000062,None,1997.5002225000062,None,1998.018108499993,None,1998.018108499993,None,1998.018108499993,None,n,0.29530119997798465,1998.018108499993,None,sing38,001,2019_Nov_14_1658,ProdFawcett_Revision2019,3.2.3,59.98494377619735,
,,,,97,0,97,0,,,,,,,,,,,,,2001.8703488000028,None,,,,,,,,,,,,,,,,,,,,,,accident,D_new,97,0,1998.8713457999984,None,1998.8713457999984,None,1998.8713457999984,None,3,1.914695900020888,1998.8713457999984,None,2000.8307406000094,None,2000.8307406000094,None,2001.351911500009,None,2001.351911500009,None,2001.351911500009,None,f,0.47348660000716336,2001.351911500009,None,sing38,001,2019_Nov_14_1658,ProdFawcett_Revision2019,3.2.3,59.98494377619735,
,,,,98,0,98,0,,,,,,,,,,,,,2005.4543577999866,None,,,,,,,,,,,,,,,,,,,,,,theme,D_new,98,326,2002.3879375999968,None,2002.3879375999968,None,2002.3879375999968,None,2,1.9980446000117809,2002.3879375999968,None,2004.4310438999964,None,2004.4310438999964,None,2004.9558512000076,None,2004.9558512000076,None,2004.9558512000076,None,n,0.45353629998862743,2004.9558512000076,None,sing38,001,2019_Nov_14_1658,ProdFawcett_Revision2019,3.2.3,59.98494377619735,
,,,,99,0,99,0,,,,,,,,,,,,,2008.7191403000033,None,,,,,,,,,,,,,,,,,,,,,,store,C_sing,99,305,2005.976393799996,None,2005.976393799996,None,2005.976393799996,None,5,2.0331380999996327,2005.976393799996,None,2008.0663391999842,None,2008.0663391999842,None,2008.5835212999955,None,2008.5835212999955,None,2008.5835212999955,None,f,0.10588140002801083,2008.5835212999955,None,sing38,001,2019_Nov_14_1658,ProdFawcett_Revision2019,3.2.3,59.98494377619735,
,,,,100,0,100,0,,,,,,,,,,,,,2015.770873500005,None,,,,,,,,,,,,,,,,,,,,,,place,D_new,100,222,2009.2266906999866,None,2009.2266906999866,None,2009.2266906999866,None,2,2.9589074999967124,2009.2266906999866,None,2012.2243812000088,None,2012.2243812000088,None,2012.7500013999816,None,2012.7500013999816,None,2012.7500013999816,None,n,2.9796739000012167,2012.7500013999816,None,sing38,001,2019_Nov_14_1658,ProdFawcett_Revision2019,3.2.3,59.98494377619735,
,,,,101,0,101,0,,,,,,,,,,,,,2021.2995192999952,None,,,,,,,,,,,,,,,,,,,,,,husband,D_new,101,156,2016.2897642999887,None,2016.2897642999887,None,2016.2897642999887,None,1,4.151437699998496,2016.2897642999887,None,2020.4830993000069,None,2020.4830993000069,None,2021.0085468000034,None,2021.0085468000034,None,2021.0085468000034,None,n,0.2328972999821417,2021.0085468000034,None,sing38,001,2019_Nov_14_1658,ProdFawcett_Revision2019,3.2.3,59.98494377619735,
,,,,102,0,102,0,,,,,,,,,,,,,2027.6712896999961,None,,,,,,,,,,,,,,,,,,,,,,republic,C_sing,102,260,2021.8291522999934,None,2021.8291522999934,None,2021.8291522999934,None,6,4.884497899998678,2021.8291522999934,None,2026.7645104999829,None,2026.7645104999829,None,2027.2935954999994,None,2027.2935954999994,None,2027.2935954999994,None,r,0.3319294000102673,2027.2935954999994,None,sing38,001,2019_Nov_14_1658,ProdFawcett_Revision2019,3.2.3,59.98494377619735,
,,,,103,0,103,0,,,,,,,,,,,,,2031.0759015000076,None,,,,,,,,,,,,,,,,,,,,,,throw,B_aloud,103,330,2028.192641200003,None,2028.192641200003,None,2028.192641200003,None,6,1.9767273000034038,2028.192641200003,None,2030.2114771000051,None,2030.2114771000051,None,2030.7427957000036,None,2030.7427957000036,None,2030.7427957000036,None,r,0.29071050000493415,2030.7427957000036,None,sing38,001,2019_Nov_14_1658,ProdFawcett_Revision2019,3.2.3,59.98494377619735,
,,,,104,0,104,0,,,,,,,,,,,,,2034.655376699986,None,,,,,,,,,,,,,,,,,,,,,,bureau,A_silent,104,37,2031.6116362999892,None,2031.6116362999892,None,2031.6116362999892,None,5,1.7977345999970566,2031.6116362999892,None,2033.4430848000047,None,2033.4430848000047,None,2033.9721699999936,None,2033.9721699999936,None,2033.9721699999936,None,f,0.6453660000115633,2033.9721699999936,None,sing38,001,2019_Nov_14_1658,ProdFawcett_Revision2019,3.2.3,59.98494377619735,
,,,,105,0,105,0,,,,,,,,,,,,,2038.5550158999977,None,,,,,,,,,,,,,,,,,,,,,,cousin,D_new,105,76,2035.1751674999832,None,2035.1751674999832,None,2035.1751674999832,None,1,2.730428499984555,2035.1751674999832,None,2037.946466399997,None,2037.946466399997,None,2038.470329999982,None,2038.470329999982,None,2038.470329999982,None,n,0.04308979999041185,2038.470329999982,None,sing38,001,2019_Nov_14_1658,ProdFawcett_Revision2019,3.2.3,59.98494377619735,
,,,,106,0,106,0,,,,,,,,,,,,,2045.4390342999832,None,,,,,,,,,,,,,,,,,,,,,,stranger,D_new,106,309,2039.077616399998,None,2039.077616399998,None,2039.077616399998,None,3,5.315992999996524,2039.077616399998,None,2044.4538593000034,None,2044.4538593000034,None,2044.9865026999905,None,2044.9865026999905,None,2044.9865026999905,None,f,0.4150919000094291,2044.9865026999905,None,sing38,001,2019_Nov_14_1658,ProdFawcett_Revision2019,3.2.3,59.98494377619735,
,,,,107,0,107,0,,,,,,,,,,,,,2049.622443100001,None,,,,,,,,,,,,,,,,,,,,,,portion,D_new,107,228,2045.9651367999904,None,2045.9651367999904,None,2045.9651367999904,None,2,2.724496100010583,2045.9651367999904,None,2048.7358971000067,None,2048.7358971000067,None,2049.255884399987,None,2049.255884399987,None,2049.255884399987,None,n,0.3296812999760732,2049.255884399987,None,sing38,001,2019_Nov_14_1658,ProdFawcett_Revision2019,3.2.3,59.98494377619735,
,,,,108,0,108,0,,,,,,,,,,,,,2053.240632800007,None,,,,,,,,,,,,,,,,,,,,,,month,B_aloud,108,193,2050.1402367999835,None,2050.1402367999835,None,2050.1402367999835,None,6,2.3893252999987453,2050.1402367999835,None,2052.5857856000075,None,2052.5857856000075,None,2053.1036110999994,None,2053.1036110999994,None,2053.1036110999994,None,r,0.09792209998704493,2053.1036110999994,None,sing38,001,2019_Nov_14_1658,ProdFawcett_Revision2019,3.2.3,59.98494377619735,
,,,,109,0,109,0,,,,,,,,,,,,,2055.672842900007,None,,,,,,,,,,,,,,,,,,,,,,graduate,C_sing,109,141,2053.7589293000055,None,2053.7589293000055,None,2053.7589293000055,None,6,0.9223897000192665,2053.7589293000055,None,2054.7205804999976,None,2054.7205804999976,None,2055.2311592999904,None,2055.2311592999904,None,2055.2311592999904,None,r,0.40230549999978393,2055.2311592999904,None,sing38,001,2019_Nov_14_1658,ProdFawcett_Revision2019,3.2.3,59.98494377619735,
,,,,110,0,110,0,,,,,,,,,,,,,2066.023623599991,None,,,,,,,,,,,,,,,,,,,,,,service,D_new,110,280,2056.1959338999877,None,2056.1959338999877,None,2056.1959338999877,None,4,8.894435800000792,2056.1959338999877,None,2065.135748200002,None,2065.135748200002,None,2065.6629762999946,None,2065.6629762999946,None,2065.6629762999946,None,f,0.3304414000012912,2065.6629762999946,None,sing38,001,2019_Nov_14_1658,ProdFawcett_Revision2019,3.2.3,59.98494377619735,
,,,,111,0,111,0,,,,,,,,,,,,,2069.724417599995,None,,,,,,,,,,,,,,,,,,,,,,mayor,D_new,111,183,2066.542366199981,None,2066.542366199981,None,2066.542366199981,None,1,2.2832212999928743,2066.542366199981,None,2068.8721829999995,None,2068.8721829999995,None,2069.388903599989,None,2069.388903599989,None,2069.388903599989,None,n,0.3008343999972567,2069.388903599989,None,sing38,001,2019_Nov_14_1658,ProdFawcett_Revision2019,3.2.3,59.98494377619735,
,,,,112,0,112,0,,,,,,,,,,,,,2073.463601299998,None,,,,,,,,,,,,,,,,,,,,,,meeting,A_silent,112,187,2070.245839499985,None,2070.245839499985,None,2070.245839499985,None,4,2.3556377000059,2070.245839499985,None,2072.65559770001,None,2072.65559770001,None,2073.1792541999894,None,2073.1792541999894,None,2073.1792541999894,None,f,0.262065499991877,2073.1792541999894,None,sing38,001,2019_Nov_14_1658,ProdFawcett_Revision2019,3.2.3,59.98494377619735,
,,,,113,0,113,0,,,,,,,,,,,,,2079.4913935000077,None,,,,,,,,,,,,,,,,,,,,,,citizen,D_new,113,50,2073.9961002999917,None,2073.9961002999917,None,2073.9961002999917,None,3,2.4295103999902494,2073.9961002999917,None,2076.468984899984,None,2076.468984899984,None,2076.997301700001,None,2076.997301700001,None,2076.997301700001,None,f,2.452283400023589,2076.997301700001,None,sing38,001,2019_Nov_14_1658,ProdFawcett_Revision2019,3.2.3,59.98494377619735,
,,,,114,0,114,0,,,,,,,,,,,,,2082.1587445999903,None,,,,,,,,,,,,,,,,,,,,,,skill,D_new,114,289,2080.0114705000015,None,2080.0114705000015,None,2080.0114705000015,None,2,1.4938342000241391,2080.0114705000015,None,2081.5448898999894,None,2081.5448898999894,None,2082.0487382999854,None,2082.0487382999854,None,2082.0487382999854,None,n,0.07288260001223534,2082.0487382999854,None,sing38,001,2019_Nov_14_1658,ProdFawcett_Revision2019,3.2.3,59.98494377619735,
,,,,115,0,115,0,,,,,,,,,,,,,2087.113968699996,None,,,,,,,,,,,,,,,,,,,,,,travel,D_new,115,338,2082.6785506999877,None,2082.6785506999877,None,2082.6785506999877,None,3,3.0909620000165887,2082.6785506999877,None,2085.818188300007,None,2085.818188300007,None,2086.3404331000056,None,2086.3404331000056,None,2086.3404331000056,None,f,0.7250839000043925,2086.3404331000056,None,sing38,001,2019_Nov_14_1658,ProdFawcett_Revision2019,3.2.3,59.98494377619735,
,,,,116,0,116,0,,,,,,,,,,,,,2091.099414299999,None,,,,,,,,,,,,,,,,,,,,,,dream,A_silent,116,104,2087.643567799998,None,2087.643567799998,None,2087.643567799998,None,2,2.7017363000195473,2087.643567799998,None,2090.3862084999855,None,2090.3862084999855,None,2090.9092062999844,None,2090.9092062999844,None,2090.9092062999844,None,n,0.16424650000408292,2090.9092062999844,None,sing38,001,2019_Nov_14_1658,ProdFawcett_Revision2019,3.2.3,59.98494377619735,
,,,,117,0,117,0,,,,,,,,,,,,,2098.476623399998,None,,,,,,,,,,,,,,,,,,,,,,volume,D_new,117,349,2091.6336171999865,None,2091.6336171999865,None,2091.6336171999865,None,4,5.183855200011749,2091.6336171999865,None,2096.869284399989,None,2096.869284399989,None,2097.3974847999925,None,2097.3974847999925,None,2097.3974847999925,None,f,1.0447165000077803,2097.3974847999925,None,sing38,001,2019_Nov_14_1658,ProdFawcett_Revision2019,3.2.3,59.98494377619735,
,,,,118,0,118,0,,,,,,,,,,,,,2105.7156168000074,None,,,,,,,,,,,,,,,,,,,,,,mechanical,A_silent,118,185,2098.9946094999905,None,2098.9946094999905,None,2098.9946094999905,None,5,5.815247899998212,2098.9946094999905,None,2104.8509072999877,None,2104.8509072999877,None,2105.3764646000054,None,2105.3764646000054,None,2105.3764646000054,None,f,0.28902630001539364,2105.3764646000054,None,sing38,001,2019_Nov_14_1658,ProdFawcett_Revision2019,3.2.3,59.98494377619735,
,,,,119,0,119,0,,,,,,,,,,,,,2111.6933447000047,None,,,,,,,,,,,,,,,,,,,,,,prime,D_new,119,235,2106.238904900005,None,2106.238904900005,None,2106.238904900005,None,3,4.378566099971067,2106.238904900005,None,2110.673436299985,None,2110.673436299985,None,2111.1958530999837,None,2111.1958530999837,None,2111.1958530999837,None,f,0.45367519999854267,2111.1958530999837,None,sing38,001,2019_Nov_14_1658,ProdFawcett_Revision2019,3.2.3,59.98494377619735,
,,,,120,0,120,0,,,,,,,,,,,,,2118.210326100001,None,,,,,,,,,,,,,,,,,,,,,,leader,D_new,120,168,2112.213338600006,None,2112.213338600006,None,2112.213338600006,None,2,4.052148799994029,2112.213338600006,None,2116.3368024000083,None,2116.3368024000083,None,2116.8635495000053,None,2116.8635495000053,None,2116.8635495000053,None,n,1.3140081999881659,2116.8635495000053,None,sing38,001,2019_Nov_14_1658,ProdFawcett_Revision2019,3.2.3,59.98494377619735,
,,,,121,0,121,0,,,,,,,,,,,,,2123.978369699995,None,,,,,,,,,,,,,,,,,,,,,,drink,D_new,121,105,2118.7291250999842,None,2118.7291250999842,None,2118.7291250999842,None,4,4.240258400008315,2118.7291250999842,None,2123.0243150999886,None,2123.0243150999886,None,2123.539739700005,None,2123.539739700005,None,2123.539739700005,None,f,0.39773339999374,2123.539739700005,None,sing38,001,2019_Nov_14_1658,ProdFawcett_Revision2019,3.2.3,59.98494377619735,
,,,,122,0,122,0,,,,,,,,,,,,,2127.311063100002,None,,,,,,,,,,,,,,,,,,,,,,speech,C_sing,122,298,2124.4960449000064,None,2124.4960449000064,None,2124.4960449000064,None,5,1.6895103999995627,2124.4960449000064,None,2126.2364774000016,None,2126.2364774000016,None,2126.763734499982,None,2126.763734499982,None,2126.763734499982,None,f,0.5017679000156932,2126.763734499982,None,sing38,001,2019_Nov_14_1658,ProdFawcett_Revision2019,3.2.3,59.98494377619735,
,,,,123,0,123,0,,,,,,,,,,,,,2131.5008087999886,None,,,,,,,,,,,,,,,,,,,,,,touch,B_aloud,123,332,2127.8303816999833,None,2127.8303816999833,None,2127.8303816999833,None,5,2.714885499997763,2127.8303816999833,None,2130.589922599989,None,2130.589922599989,None,2131.106459900009,None,2131.106459900009,None,2131.106459900009,None,f,0.3587056999967899,2131.106459900009,None,sing38,001,2019_Nov_14_1658,ProdFawcett_Revision2019,3.2.3,59.98494377619735,
,,,,124,0,124,0,,,,,,,,,,,,,2134.783927099983,None,,,,,,,,,,,,,,,,,,,,,,height,C_sing,124,152,2132.030857500009,None,2132.030857500009,None,2132.030857500009,None,6,1.3385849999904167,2132.030857500009,None,2133.428496599983,None,2133.428496599983,None,2133.9479554999853,None,2133.9479554999853,None,2133.9479554999853,None,r,0.7897174000099767,2133.9479554999853,None,sing38,001,2019_Nov_14_1658,ProdFawcett_Revision2019,3.2.3,59.98494377619735,
,,,,125,0,125,0,,,,,,,,,,,,,2140.565192000009,None,,,,,,,,,,,,,,,,,,,,,,second,D_new,125,278,2135.311983199994,None,2135.311983199994,None,2135.311983199994,None,2,4.353252999979304,2135.311983199994,None,2139.722740600002,None,2139.722740600002,None,2140.2437070999877,None,2140.2437070999877,None,2140.2437070999877,None,f,0.2778451999765821,2140.2437070999877,None,sing38,001,2019_Nov_14_1658,ProdFawcett_Revision2019,3.2.3,59.98494377619735,
,,,,126,0,126,0,,,,,,,,,,,,,2144.5305501999974,None,,,,,,,,,,,,,,,,,,,,,,school,D_new,126,274,2141.098849300004,None,2141.098849300004,None,2141.098849300004,None,2,2.2306722000066657,2141.098849300004,None,2143.3701320999826,None,2143.3701320999826,None,2143.9005576999916,None,2143.9005576999916,None,2143.9005576999916,None,n,0.5970079000107944,2143.9005576999916,None,sing38,001,2019_Nov_14_1658,ProdFawcett_Revision2019,3.2.3,59.98494377619735,
,,,,127,0,127,0,,,,,,,,,,,,,2147.562755799998,None,,,,,,,,,,,,,,,,,,,,,,division,D_new,127,101,2145.0553724000056,None,2145.0553724000056,None,2145.0553724000056,None,2,1.5543236000230536,2145.0553724000056,None,2146.6631949000002,None,2146.6631949000002,None,2147.1819188999943,None,2147.1819188999943,None,2147.1819188999943,None,n,0.3395981999929063,2147.1819188999943,None,sing38,001,2019_Nov_14_1658,ProdFawcett_Revision2019,3.2.3,59.98494377619735,
,,,,128,0,128,0,,,,,,,,,,,,,2150.934111999988,None,,,,,,,,,,,,,,,,,,,,,,music,C_sing,128,196,2148.083016699995,None,2148.083016699995,None,2148.083016699995,None,6,1.7105521000048611,2148.083016699995,None,2149.841675600008,None,2149.841675600008,None,2150.361154399987,None,2150.361154399987,None,2150.361154399987,None,r,0.536455699999351,2150.361154399987,None,sing38,001,2019_Nov_14_1658,ProdFawcett_Revision2019,3.2.3,59.98494377619735,
,,,,129,0,129,0,,,,,,,,,,,,,2158.8968209000013,None,,,,,,,,,,,,,,,,,,,,,,breath,D_new,129,27,2151.4689059999946,None,2151.4689059999946,None,2151.4689059999946,None,2,6.0044905000249855,2151.4689059999946,None,2157.527317500004,None,2157.527317500004,None,2158.0535930999904,None,2158.0535930999904,None,2158.0535930999904,None,n,0.803994399990188,2158.0535930999904,None,sing38,001,2019_Nov_14_1658,ProdFawcett_Revision2019,3.2.3,59.98494377619735,
,,,,130,0,130,0,,,,,,,,,,,,,2163.856752499996,None,,,,,,,,,,,,,,,,,,,,,,detective,A_silent,130,92,2159.420201300003,None,2159.420201300003,None,2159.420201300003,None,3,3.3812850000103936,2159.420201300003,None,2162.862527599995,None,2162.862527599995,None,2163.3828472000023,None,2163.3828472000023,None,2163.3828472000023,None,f,0.434718000004068,2163.3828472000023,None,sing38,001,2019_Nov_14_1658,ProdFawcett_Revision2019,3.2.3,59.98494377619735,
,,,,131,0,131,0,,,,,,,,,,,,,2167.2139202999824,None,,,,,,,,,,,,,,,,,,,,,,election,D_new,131,109,2164.382655499998,None,2164.382655499998,None,2164.382655499998,None,1,1.7550156000070274,2164.382655499998,None,2166.199319300009,None,2166.199319300009,None,2166.714783400006,None,2166.714783400006,None,2166.714783400006,None,n,0.462865800014697,2166.714783400006,None,sing38,001,2019_Nov_14_1658,ProdFawcett_Revision2019,3.2.3,59.98494377619735,
,,,,132,0,132,0,,,,,,,,,,,,,2174.0485000000044,None,,,,,,,,,,,,,,,,,,,,,,produce,C_sing,132,239,2167.7330614000093,None,2167.7330614000093,None,2167.7330614000093,None,3,4.516507000022102,2167.7330614000093,None,2172.2885045000003,None,2172.2885045000003,None,2172.8137024999887,None,2172.8137024999887,None,2172.8137024999887,None,f,1.1958189999859314,2172.8137024999887,None,sing38,001,2019_Nov_14_1658,ProdFawcett_Revision2019,3.2.3,59.98494377619735,
,,,,133,0,133,0,,,,,,,,,,,,,2180.0637242000084,None,,,,,,,,,,,,,,,,,,,,,,break,D_new,133,26,2174.5692802999984,None,2174.5692802999984,None,2174.5692802999984,None,2,2.7602103000099305,2174.5692802999984,None,2177.378705799987,None,2177.378705799987,None,2177.896328600007,None,2177.896328600007,None,2177.896328600007,None,n,2.137369200005196,2177.896328600007,None,sing38,001,2019_Nov_14_1658,ProdFawcett_Revision2019,3.2.3,59.98494377619735,
,,,,134,0,134,0,,,,,,,,,,,,,2182.8987220999843,None,,,,,,,,,,,,,,,,,,,,,,birth,A_silent,134,22,2180.5859525999986,None,2180.5859525999986,None,2180.5859525999986,None,6,1.3355496000149287,2180.5859525999986,None,2181.97658409999,None,2181.97658409999,None,2182.4999695000006,None,2182.4999695000006,None,2182.4999695000006,None,r,0.3575150999822654,2182.4999695000006,None,sing38,001,2019_Nov_14_1658,ProdFawcett_Revision2019,3.2.3,59.98494377619735,
,,,,135,0,135,0,,,,,,,,,,,,,2185.0484319999814,None,,,,,,,,,,,,,,,,,,,,,,tennis,A_silent,135,323,2183.415446900006,None,2183.415446900006,None,2183.415446900006,None,6,0.7620531999855302,2183.415446900006,None,2184.2256194000074,None,2184.2256194000074,None,2184.7483927999856,None,2184.7483927999856,None,2184.7483927999856,None,r,0.26929919997928664,2184.7483927999856,None,sing38,001,2019_Nov_14_1658,ProdFawcett_Revision2019,3.2.3,59.98494377619735,
,,,,136,0,136,0,,,,,,,,,,,,,2187.5496866999893,None,,,,,,,,,,,,,,,,,,,,,,welcome,C_sing,136,354,2185.5715004999947,None,2185.5715004999947,None,2185.5715004999947,None,6,0.9500227999815252,2185.5715004999947,None,2186.5660784000065,None,2186.5660784000065,None,2187.0828465000086,None,2187.0828465000086,None,2187.0828465000086,None,r,0.42269930001930334,2187.0828465000086,None,sing38,001,2019_Nov_14_1658,ProdFawcett_Revision2019,3.2.3,59.98494377619735,
,,,,137,0,137,0,,,,,,,,,,,,,2190.6890836000093,None,,,,,,,,,,,,,,,,,,,,,,minute,C_sing,137,192,2188.0676616999845,None,2188.0676616999845,None,2188.0676616999845,None,5,1.6457109000184573,2188.0676616999845,None,2189.750266099989,None,2189.750266099989,None,2190.2647814000084,None,2190.2647814000084,None,2190.2647814000084,None,f,0.3852496000181418,2190.2647814000084,None,sing38,001,2019_Nov_14_1658,ProdFawcett_Revision2019,3.2.3,59.98494377619735,
,,,,138,0,138,0,,,,,,,,,,,,,2196.0327285999956,None,,,,,,,,,,,,,,,,,,,,,,grade,D_new,138,140,2191.206130000006,None,2191.206130000006,None,2191.206130000006,None,3,3.835424199991394,2191.206130000006,None,2195.094467499992,None,2195.094467499992,None,2195.6221369999985,None,2195.6221369999985,None,2195.6221369999985,None,f,0.37139009998645633,2195.6221369999985,None,sing38,001,2019_Nov_14_1658,ProdFawcett_Revision2019,3.2.3,59.98494377619735,
,,,,139,0,139,0,,,,,,,,,,,,,2199.432558200002,None,,,,,,,,,,,,,,,,,,,,,,force,D_new,139,131,2196.5530935999996,None,2196.5530935999996,None,2196.5530935999996,None,4,1.848542699997779,2196.5530935999996,None,2198.442965399998,None,2198.442965399998,None,2198.964811999991,None,2198.964811999991,None,2198.964811999991,None,f,0.42856930001289584,2198.964811999991,None,sing38,001,2019_Nov_14_1658,ProdFawcett_Revision2019,3.2.3,59.98494377619735,
,,,,140,0,140,0,,,,,,,,,,,,,2203.467044799996,None,,,,,,,,,,,,,,,,,,,,,,trend,B_aloud,140,340,2199.9523381000035,None,2199.9523381000035,None,2199.9523381000035,None,6,2.433556000003591,2199.9523381000035,None,2202.430284400005,None,2202.430284400005,None,2202.9466066999885,None,2202.9466066999885,None,2202.9466066999885,None,r,0.48712869998416863,2202.9466066999885,None,sing38,001,2019_Nov_14_1658,ProdFawcett_Revision2019,3.2.3,59.98494377619735,
,,,,141,0,141,0,,,,,,,,,,,,,2207.8172607999877,None,,,,,,,,,,,,,,,,,,,,,,crisis,D_new,141,79,2203.984984199982,None,2203.984984199982,None,2203.984984199982,None,4,2.8565377999912016,2203.984984199982,None,2206.888587399997,None,2206.888587399997,None,2207.417831400002,None,2207.417831400002,None,2207.417831400002,None,f,0.3597209000145085,2207.417831400002,None,sing38,001,2019_Nov_14_1658,ProdFawcett_Revision2019,3.2.3,59.98494377619735,
,,,,142,0,142,0,,,,,,,,,,,,,2211.784020699997,None,,,,,,,,,,,,,,,,,,,,,,brief,D_new,142,28,2208.3384181,None,2208.3384181,None,2208.3384181,None,3,2.511850400012918,2208.3384181,None,2210.8959697999817,None,2210.8959697999817,None,2211.421888599987,None,2211.421888599987,None,2211.421888599987,None,f,0.32361950000631623,2211.421888599987,None,sing38,001,2019_Nov_14_1658,ProdFawcett_Revision2019,3.2.3,59.98494377619735,
,,,,143,0,143,0,,,,,,,,,,,,,2214.6338254,None,,,,,,,,,,,,,,,,,,,,,,household,B_aloud,143,154,2212.303318399994,None,2212.303318399994,None,2212.303318399994,None,6,1.4104893000039738,2212.303318399994,None,2213.7632075999863,None,2213.7632075999863,None,2214.286845499999,None,2214.286845499999,None,2214.286845499999,None,r,0.3067295999790076,2214.286845499999,None,sing38,001,2019_Nov_14_1658,ProdFawcett_Revision2019,3.2.3,59.98494377619735,
,,,,144,0,144,0,,,,,,,,,,,,,2217.4526025000087,None,,,,,,,,,,,,,,,,,,,,,,salary,D_new,144,271,2215.153340799996,None,2215.153340799996,None,2215.153340799996,None,2,1.5362755999958608,2215.153340799996,None,2216.746626599983,None,2216.746626599983,None,2217.26631810001,None,2217.26631810001,None,2217.26631810001,None,n,0.14343030002783053,2217.26631810001,None,sing38,001,2019_Nov_14_1658,ProdFawcett_Revision2019,3.2.3,59.98494377619735,
,,,,145,0,145,0,,,,,,,,,,,,,2220.735130099987,None,,,,,,,,,,,,,,,,,,,,,,surface,B_aloud,145,316,2217.970341899985,None,2217.970341899985,None,2217.970341899985,None,5,1.7996852000069339,2217.970341899985,None,2219.8048686999828,None,2219.8048686999828,None,2220.3363993999956,None,2220.3363993999956,None,2220.3363993999956,None,f,0.36137670002062805,2220.3363993999956,None,sing38,001,2019_Nov_14_1658,ProdFawcett_Revision2019,3.2.3,59.98494377619735,
,,,,146,0,146,0,,,,,,,,,,,,,2223.2179572999885,None,,,,,,,,,,,,,,,,,,,,,,guest,C_sing,146,146,2221.2449886999966,None,2221.2449886999966,None,2221.2449886999966,None,6,1.0446675999846775,2221.2449886999966,None,2222.349696499994,None,2222.349696499994,None,2222.869019500009,None,2222.869019500009,None,2222.869019500009,None,r,0.308626500016544,2222.869019500009,None,sing38,001,2019_Nov_14_1658,ProdFawcett_Revision2019,3.2.3,59.98494377619735,
,,,,147,0,147,0,,,,,,,,,,,,,2227.7299349000095,None,,,,,,,,,,,,,,,,,,,,,,author,D_new,147,15,2223.734654300002,None,2223.734654300002,None,2223.734654300002,None,4,2.6831540999992285,2223.734654300002,None,2226.461999799998,None,2226.461999799998,None,2226.988091999985,None,2226.988091999985,None,2226.988091999985,None,f,0.7173108000133652,2226.988091999985,None,sing38,001,2019_Nov_14_1658,ProdFawcett_Revision2019,3.2.3,59.98494377619735,
,,,,148,0,148,0,,,,,,,,,,,,,2232.561211799999,None,,,,,,,,,,,,,,,,,,,,,,sleep,D_new,148,290,2228.2597685999935,None,2228.2597685999935,None,2228.2597685999935,None,2,3.3419524999917485,2228.2597685999935,None,2231.6484048999846,None,2231.6484048999846,None,2232.1653483999835,None,2232.1653483999835,None,2232.1653483999835,None,f,0.37224609998520464,2232.1653483999835,None,sing38,001,2019_Nov_14_1658,ProdFawcett_Revision2019,3.2.3,59.98494377619735,
,,,,149,0,149,0,,,,,,,,,,,,,2235.4856587999966,None,,,,,,,,,,,,,,,,,,,,,,collection,A_silent,149,54,2233.0928599000035,None,2233.0928599000035,None,2233.0928599000035,None,6,1.636615499999607,2233.0928599000035,None,2234.7668293000024,None,2234.7668293000024,None,2235.275411299983,None,2235.275411299983,None,2235.275411299983,None,r,0.17418909998377785,2235.275411299983,None,sing38,001,2019_Nov_14_1658,ProdFawcett_Revision2019,3.2.3,59.98494377619735,
,,,,150,0,150,0,,,,,,,,,,,,,2239.0422475000087,None,,,,,,,,,,,,,,,,,,,,,,permit,D_new,150,218,2236.003169200005,None,2236.003169200005,None,2236.003169200005,None,1,2.118399300001329,2236.003169200005,None,2238.162961199996,None,2238.162961199996,None,2238.686441900005,None,2238.686441900005,None,2238.686441900005,None,n,0.3229609999980312,2238.686441900005,None,sing38,001,2019_Nov_14_1658,ProdFawcett_Revision2019,3.2.3,59.98494377619735,
,,,,151,0,151,0,,,,,,,,,,,,,2241.9814855000004,None,,,,,,,,,,,,,,,,,,,,,,figure,D_new,151,128,2239.565782599995,None,2239.565782599995,None,2239.565782599995,None,3,1.8039831999922171,2239.565782599995,None,2241.423250599997,None,2241.423250599997,None,2241.9387187999964,None,2241.9387187999964,None,2241.9387187999964,None,f,0.014847999991616234,2241.9387187999964,None,sing38,001,2019_Nov_14_1658,ProdFawcett_Revision2019,3.2.3,59.98494377619735,
