StudyTrials.thisRepN,StudyTrials.thisTrialN,StudyTrials.thisN,StudyTrials.thisIndex,TestTrials.thisRepN,TestTrials.thisTrialN,TestTrials.thisN,TestTrials.thisIndex,textWelcome.started,textWelcome.stopped,keyWelcome.keys,keyWelcome.rt,keyWelcome.started,keyWelcome.stopped,textReady.started,textReady.stopped,keyReady.keys,keyReady.rt,keyReady.started,keyReady.stopped,polyback_2.started,polyback_2.stopped,studyPic,studyWord,studyType,studyN,studyOrder,polyback_3.started,polyback_3.stopped,studyPicChoice.started,studyPicChoice.stopped,polyback_4.started,polyback_4.stopped,polyback.started,polyback.stopped,studyWords.started,studyWords.stopped,getResearcher.started,getResearcher.stopped,kPress2.keys,kPress2.rt,kPress2.started,kPress2.stopped,testWord,testType,testN,testOrder,polyback_5.started,polyback_5.stopped,testWords.started,testWords.stopped,textScale.started,textScale.stopped,keyConf.keys,keyConf.rt,keyConf.started,keyConf.stopped,polyback_6.started,polyback_6.stopped,studyWords_2.started,studyWords_2.stopped,polyback_7.started,polyback_7.stopped,testWords_2.started,testWords_2.stopped,textScale_2.started,textScale_2.stopped,keyRKN.keys,keyRKN.rt,keyRKN.started,keyRKN.stopped,participant,session,date,expName,psychopyVersion,frameRate,
,,,,,,,,14.388859700062312,None,space,1665.5817459999816,14.388859700062312,None,,,,,,,,,,,,,,,,,,,,,,,,,,,,,,,,,,,,,,,,,,,,,,,,,,,,,,,,,,sing15,001,2019_Oct_31_1615,ProdFawcett_Revision2019,3.2.3,59.97681294116825,
,,,,,,,,,,,,,,1679.9995284000179,None,space,5.874646999989636,1679.9995284000179,None,,,,,,,,,,,,,,,,,,,,,,,,,,,,,,,,,,,,,,,,,,,,,,,,,,,,sing15,001,2019_Oct_31_1615,ProdFawcett_Revision2019,3.2.3,59.97681294116825,
0,0,0,0,,,,,,,,,,,,,,,,,1690.664328700048,None,materials/singPic.jpg,people,C_sing,0,216,1687.0085440000985,None,1687.0085440000985,None,1687.9150965000736,None,1688.1721828000154,None,1688.1721828000154,None,,,,,,,,,,,,,,,,,,,,,,,,,,,,,,,,,,,sing15,001,2019_Oct_31_1615,ProdFawcett_Revision2019,3.2.3,59.97681294116825,
1,0,1,0,,,,,,,,,,,,,,,,,1694.9312374000438,None,materials/singPic.jpg,working,C_sing,1,357,1691.2503074000124,None,1691.2503074000124,None,1692.1818649000488,None,1692.4430332001066,None,1692.4430332001066,None,,,,,,,,,,,,,,,,,,,,,,,,,,,,,,,,,,,sing15,001,2019_Oct_31_1615,ProdFawcett_Revision2019,3.2.3,59.97681294116825,
2,0,2,0,,,,,,,,,,,,,,,,,1699.1981533000944,None,materials/singPic.jpg,graduate,C_sing,2,141,1695.51882690005,None,1695.51882690005,None,1696.448319700081,None,1696.7106257000705,None,1696.7106257000705,None,,,,,,,,,,,,,,,,,,,,,,,,,,,,,,,,,,,sing15,001,2019_Oct_31_1615,ProdFawcett_Revision2019,3.2.3,59.97681294116825,
3,0,3,0,,,,,,,,,,,,,,,,,1703.4651999000926,None,materials/readPic.jpg,colonel,A_silent,3,55,1699.7780620000558,None,1699.7780620000558,None,1700.7139714000514,None,1700.9729797000764,None,1700.9729797000764,None,,,,,,,,,,,,,,,,,,,,,,,,,,,,,,,,,,,sing15,001,2019_Oct_31_1615,ProdFawcett_Revision2019,3.2.3,59.97681294116825,
4,0,4,0,,,,,,,,,,,,,,,,,1707.73212410009,None,materials/speakPic.jpg,accident,B_aloud,4,0,1704.0307567000855,None,1704.0307567000855,None,1704.9822810000041,None,1705.2397933000466,None,1705.2397933000466,None,,,,,,,,,,,,,,,,,,,,,,,,,,,,,,,,,,,sing15,001,2019_Oct_31_1615,ProdFawcett_Revision2019,3.2.3,59.97681294116825,
5,0,5,0,,,,,,,,,,,,,,,,,1711.998309000046,None,materials/singPic.jpg,tough,C_sing,5,333,1708.3129333000397,None,1708.3129333000397,None,1709.2479346001055,None,1709.5079430000624,None,1709.5079430000624,None,,,,,,,,,,,,,,,,,,,,,,,,,,,,,,,,,,,sing15,001,2019_Oct_31_1615,ProdFawcett_Revision2019,3.2.3,59.97681294116825,
6,0,6,0,,,,,,,,,,,,,,,,,1716.265985700069,None,materials/singPic.jpg,welcome,C_sing,6,354,1712.5867303000996,None,1712.5867303000996,None,1713.5162902000593,None,1713.7771457000636,None,1713.7771457000636,None,,,,,,,,,,,,,,,,,,,,,,,,,,,,,,,,,,,sing15,001,2019_Oct_31_1615,ProdFawcett_Revision2019,3.2.3,59.97681294116825,
7,0,7,0,,,,,,,,,,,,,,,,,1720.5331745001022,None,materials/readPic.jpg,majority,A_silent,7,176,1716.8509917000774,None,1716.8509917000774,None,1717.7833089000778,None,1718.05015860009,None,1718.05015860009,None,,,,,,,,,,,,,,,,,,,,,,,,,,,,,,,,,,,sing15,001,2019_Oct_31_1615,ProdFawcett_Revision2019,3.2.3,59.97681294116825,
8,0,8,0,,,,,,,,,,,,,,,,,1724.7999168999959,None,materials/singPic.jpg,produce,C_sing,8,239,1721.1191590999952,None,1721.1191590999952,None,1722.0500079001067,None,1722.298873700085,None,1722.298873700085,None,,,,,,,,,,,,,,,,,,,,,,,,,,,,,,,,,,,sing15,001,2019_Oct_31_1615,ProdFawcett_Revision2019,3.2.3,59.97681294116825,
9,0,9,0,,,,,,,,,,,,,,,,,1729.066977800103,None,materials/readPic.jpg,scene,A_silent,9,273,1725.3828678000718,None,1725.3828678000718,None,1726.3173457999947,None,1726.5736489000265,None,1726.5736489000265,None,,,,,,,,,,,,,,,,,,,,,,,,,,,,,,,,,,,sing15,001,2019_Oct_31_1615,ProdFawcett_Revision2019,3.2.3,59.97681294116825,
10,0,10,0,,,,,,,,,,,,,,,,,1733.333765999996,None,materials/readPic.jpg,industry,A_silent,10,161,1729.6498477000277,None,1729.6498477000277,None,1730.5840133000165,None,1730.8406118000858,None,1730.8406118000858,None,,,,,,,,,,,,,,,,,,,,,,,,,,,,,,,,,,,sing15,001,2019_Oct_31_1615,ProdFawcett_Revision2019,3.2.3,59.97681294116825,
11,0,11,0,,,,,,,,,,,,,,,,,1737.600824900088,None,materials/speakPic.jpg,budget,B_aloud,11,34,1733.9077929001069,None,1733.9077929001069,None,1734.8511868000496,None,1735.113292700029,None,1735.113292700029,None,,,,,,,,,,,,,,,,,,,,,,,,,,,,,,,,,,,sing15,001,2019_Oct_31_1615,ProdFawcett_Revision2019,3.2.3,59.97681294116825,
12,0,12,0,,,,,,,,,,,,,,,,,1741.86761210009,None,materials/speakPic.jpg,research,B_aloud,12,261,1738.1745807999978,None,1738.1745807999978,None,1739.1190193000948,None,1739.3759630999994,None,1739.3759630999994,None,,,,,,,,,,,,,,,,,,,,,,,,,,,,,,,,,,,sing15,001,2019_Oct_31_1615,ProdFawcett_Revision2019,3.2.3,59.97681294116825,
13,0,13,0,,,,,,,,,,,,,,,,,1746.1348149999976,None,materials/speakPic.jpg,whole,B_aloud,13,355,1742.4316026000306,None,1742.4316026000306,None,1743.3852996000787,None,1743.6513412001077,None,1743.6513412001077,None,,,,,,,,,,,,,,,,,,,,,,,,,,,,,,,,,,,sing15,001,2019_Oct_31_1615,ProdFawcett_Revision2019,3.2.3,59.97681294116825,
14,0,14,0,,,,,,,,,,,,,,,,,1750.40157430002,None,materials/speakPic.jpg,resistance,B_aloud,14,262,1746.6958248000592,None,1746.6958248000592,None,1747.6517412000103,None,1747.912469800096,None,1747.912469800096,None,,,,,,,,,,,,,,,,,,,,,,,,,,,,,,,,,,,sing15,001,2019_Oct_31_1615,ProdFawcett_Revision2019,3.2.3,59.97681294116825,
15,0,15,0,,,,,,,,,,,,,,,,,1754.6685354000656,None,materials/speakPic.jpg,goose,B_aloud,15,138,1751.0015209000558,None,1751.0015209000558,None,1751.9189074001042,None,1752.1782945001032,None,1752.1782945001032,None,,,,,,,,,,,,,,,,,,,,,,,,,,,,,,,,,,,sing15,001,2019_Oct_31_1615,ProdFawcett_Revision2019,3.2.3,59.97681294116825,
16,0,16,0,,,,,,,,,,,,,,,,,1758.9355974000646,None,materials/singPic.jpg,literature,C_sing,16,173,1755.259043600061,None,1755.259043600061,None,1756.1862440000987,None,1756.4440298000118,None,1756.4440298000118,None,,,,,,,,,,,,,,,,,,,,,,,,,,,,,,,,,,,sing15,001,2019_Oct_31_1615,ProdFawcett_Revision2019,3.2.3,59.97681294116825,
17,0,17,0,,,,,,,,,,,,,,,,,1763.2019263000693,None,materials/readPic.jpg,appearance,A_silent,17,10,1759.5107001001015,None,1759.5107001001015,None,1760.4531440000283,None,1760.710900700069,None,1760.710900700069,None,,,,,,,,,,,,,,,,,,,,,,,,,,,,,,,,,,,sing15,001,2019_Oct_31_1615,ProdFawcett_Revision2019,3.2.3,59.97681294116825,
18,0,18,0,,,,,,,,,,,,,,,,,1767.469431500067,None,materials/readPic.jpg,length,A_silent,18,169,1763.7767959000776,None,1763.7767959000776,None,1764.719508200069,None,1764.9830438001081,None,1764.9830438001081,None,,,,,,,,,,,,,,,,,,,,,,,,,,,,,,,,,,,sing15,001,2019_Oct_31_1615,ProdFawcett_Revision2019,3.2.3,59.97681294116825,
19,0,19,0,,,,,,,,,,,,,,,,,1771.7367034000345,None,materials/readPic.jpg,course,A_silent,19,74,1768.0508999000303,None,1768.0508999000303,None,1768.9873624000465,None,1769.2383329001023,None,1769.2383329001023,None,,,,,,,,,,,,,,,,,,,,,,,,,,,,,,,,,,,sing15,001,2019_Oct_31_1615,ProdFawcett_Revision2019,3.2.3,59.97681294116825,
20,0,20,0,,,,,,,,,,,,,,,,,1776.00309620006,None,materials/readPic.jpg,capital,A_silent,20,40,1772.3102232000092,None,1772.3102232000092,None,1773.2536046000896,None,1773.5113017000258,None,1773.5113017000258,None,,,,,,,,,,,,,,,,,,,,,,,,,,,,,,,,,,,sing15,001,2019_Oct_31_1615,ProdFawcett_Revision2019,3.2.3,59.97681294116825,
21,0,21,0,,,,,,,,,,,,,,,,,1780.270290800021,None,materials/speakPic.jpg,volume,B_aloud,21,349,1776.6173348000739,None,1776.6173348000739,None,1777.520380300004,None,1777.7816975000314,None,1777.7816975000314,None,,,,,,,,,,,,,,,,,,,,,,,,,,,,,,,,,,,sing15,001,2019_Oct_31_1615,ProdFawcett_Revision2019,3.2.3,59.97681294116825,
22,0,22,0,,,,,,,,,,,,,,,,,1784.5363219000865,None,materials/readPic.jpg,comfort,A_silent,22,59,1780.8404698000522,None,1780.8404698000522,None,1781.7879330000142,None,1782.0436900000786,None,1782.0436900000786,None,,,,,,,,,,,,,,,,,,,,,,,,,,,,,,,,,,,sing15,001,2019_Oct_31_1615,ProdFawcett_Revision2019,3.2.3,59.97681294116825,
23,0,23,0,,,,,,,,,,,,,,,,,1788.8041858000215,None,materials/readPic.jpg,fellow,A_silent,23,126,1785.1222685000394,None,1785.1222685000394,None,1786.0548648000695,None,1786.3147592000896,None,1786.3147592000896,None,,,,,,,,,,,,,,,,,,,,,,,,,,,,,,,,,,,sing15,001,2019_Oct_31_1615,ProdFawcett_Revision2019,3.2.3,59.97681294116825,
24,0,24,0,,,,,,,,,,,,,,,,,1793.0711180000799,None,materials/readPic.jpg,enemy,A_silent,24,113,1789.38994620007,None,1789.38994620007,None,1790.3212863000808,None,1790.57477940002,None,1790.57477940002,None,,,,,,,,,,,,,,,,,,,,,,,,,,,,,,,,,,,sing15,001,2019_Oct_31_1615,ProdFawcett_Revision2019,3.2.3,59.97681294116825,
25,0,25,0,,,,,,,,,,,,,,,,,1797.3380828000372,None,materials/readPic.jpg,shear,A_silent,25,283,1793.648817700101,None,1793.648817700101,None,1794.5884685000638,None,1794.8446191000985,None,1794.8446191000985,None,,,,,,,,,,,,,,,,,,,,,,,,,,,,,,,,,,,sing15,001,2019_Oct_31_1615,ProdFawcett_Revision2019,3.2.3,59.97681294116825,
26,0,26,0,,,,,,,,,,,,,,,,,1801.6050245000515,None,materials/speakPic.jpg,agency,B_aloud,26,4,1797.905771800084,None,1797.905771800084,None,1798.855278700008,None,1799.116560800001,None,1799.116560800001,None,,,,,,,,,,,,,,,,,,,,,,,,,,,,,,,,,,,sing15,001,2019_Oct_31_1615,ProdFawcett_Revision2019,3.2.3,59.97681294116825,
27,0,27,0,,,,,,,,,,,,,,,,,1805.8710699001094,None,materials/singPic.jpg,track,C_sing,27,334,1802.2216071001021,None,1802.2216071001021,None,1803.1211680000415,None,1803.378524800064,None,1803.378524800064,None,,,,,,,,,,,,,,,,,,,,,,,,,,,,,,,,,,,sing15,001,2019_Oct_31_1615,ProdFawcett_Revision2019,3.2.3,59.97681294116825,
28,0,28,0,,,,,,,,,,,,,,,,,1810.1389490000438,None,materials/speakPic.jpg,strength,B_aloud,28,310,1806.4486779000144,None,1806.4486779000144,None,1807.3892314000987,None,1807.6524520000676,None,1807.6524520000676,None,,,,,,,,,,,,,,,,,,,,,,,,,,,,,,,,,,,sing15,001,2019_Oct_31_1615,ProdFawcett_Revision2019,3.2.3,59.97681294116825,
29,0,29,0,,,,,,,,,,,,,,,,,1814.4048671000637,None,materials/singPic.jpg,nature,C_sing,29,200,1810.7262374000857,None,1810.7262374000857,None,1811.6559875000967,None,1811.9127299000975,None,1811.9127299000975,None,,,,,,,,,,,,,,,,,,,,,,,,,,,,,,,,,,,sing15,001,2019_Oct_31_1615,ProdFawcett_Revision2019,3.2.3,59.97681294116825,
30,0,30,0,,,,,,,,,,,,,,,,,1818.673166600056,None,materials/readPic.jpg,shock,A_silent,30,284,1814.992291700095,None,1814.992291700095,None,1815.9227180000162,None,1816.179121299996,None,1816.179121299996,None,,,,,,,,,,,,,,,,,,,,,,,,,,,,,,,,,,,sing15,001,2019_Oct_31_1615,ProdFawcett_Revision2019,3.2.3,59.97681294116825,
31,0,31,0,,,,,,,,,,,,,,,,,1822.9398921000538,None,materials/singPic.jpg,split,C_sing,31,299,1819.2748512000544,None,1819.2748512000544,None,1820.1903382000746,None,1820.4458268000744,None,1820.4458268000744,None,,,,,,,,,,,,,,,,,,,,,,,,,,,,,,,,,,,sing15,001,2019_Oct_31_1615,ProdFawcett_Revision2019,3.2.3,59.97681294116825,
32,0,32,0,,,,,,,,,,,,,,,,,1827.206719400012,None,materials/readPic.jpg,generation,A_silent,32,136,1823.566708700033,None,1823.566708700033,None,1824.4583609000547,None,1824.7207113000331,None,1824.7207113000331,None,,,,,,,,,,,,,,,,,,,,,,,,,,,,,,,,,,,sing15,001,2019_Oct_31_1615,ProdFawcett_Revision2019,3.2.3,59.97681294116825,
33,0,33,0,,,,,,,,,,,,,,,,,1831.4738223000895,None,materials/singPic.jpg,running,C_sing,33,268,1827.7932888000505,None,1827.7932888000505,None,1828.723757400061,None,1828.9852655000286,None,1828.9852655000286,None,,,,,,,,,,,,,,,,,,,,,,,,,,,,,,,,,,,sing15,001,2019_Oct_31_1615,ProdFawcett_Revision2019,3.2.3,59.97681294116825,
34,0,34,0,,,,,,,,,,,,,,,,,1835.7409926000983,None,materials/speakPic.jpg,angle,B_aloud,34,7,1832.0459630000405,None,1832.0459630000405,None,1832.9908556001028,None,1833.253524000058,None,1833.253524000058,None,,,,,,,,,,,,,,,,,,,,,,,,,,,,,,,,,,,sing15,001,2019_Oct_31_1615,ProdFawcett_Revision2019,3.2.3,59.97681294116825,
35,0,35,0,,,,,,,,,,,,,,,,,1840.0077232000185,None,materials/speakPic.jpg,testimony,B_aloud,35,325,1836.3038287000963,None,1836.3038287000963,None,1837.2583824000321,None,1837.5089302000124,None,1837.5089302000124,None,,,,,,,,,,,,,,,,,,,,,,,,,,,,,,,,,,,sing15,001,2019_Oct_31_1615,ProdFawcett_Revision2019,3.2.3,59.97681294116825,
36,0,36,0,,,,,,,,,,,,,,,,,1844.2745854000095,None,materials/readPic.jpg,piece,A_silent,36,221,1840.592715900042,None,1840.592715900042,None,1841.5248933000257,None,1841.782283000066,None,1841.782283000066,None,,,,,,,,,,,,,,,,,,,,,,,,,,,,,,,,,,,sing15,001,2019_Oct_31_1615,ProdFawcett_Revision2019,3.2.3,59.97681294116825,
37,0,37,0,,,,,,,,,,,,,,,,,1848.5415376001038,None,materials/singPic.jpg,poetry,C_sing,37,225,1844.8821582000237,None,1844.8821582000237,None,1845.7914889000822,None,1846.0477920999983,None,1846.0477920999983,None,,,,,,,,,,,,,,,,,,,,,,,,,,,,,,,,,,,sing15,001,2019_Oct_31_1615,ProdFawcett_Revision2019,3.2.3,59.97681294116825,
38,0,38,0,,,,,,,,,,,,,,,,,1852.8083956000628,None,materials/readPic.jpg,population,A_silent,38,227,1849.1179881000426,None,1849.1179881000426,None,1850.0575960000278,None,1850.3170016000513,None,1850.3170016000513,None,,,,,,,,,,,,,,,,,,,,,,,,,,,,,,,,,,,sing15,001,2019_Oct_31_1615,ProdFawcett_Revision2019,3.2.3,59.97681294116825,
39,0,39,0,,,,,,,,,,,,,,,,,1857.0755603000289,None,materials/readPic.jpg,rough,A_silent,39,266,1853.3765682000667,None,1853.3765682000667,None,1854.3257695001084,None,1854.586270900094,None,1854.586270900094,None,,,,,,,,,,,,,,,,,,,,,,,,,,,,,,,,,,,sing15,001,2019_Oct_31_1615,ProdFawcett_Revision2019,3.2.3,59.97681294116825,
40,0,40,0,,,,,,,,,,,,,,,,,1861.3422177000903,None,materials/speakPic.jpg,balance,B_aloud,40,17,1857.6574116999982,None,1857.6574116999982,None,1858.5924087000312,None,1858.852198800072,None,1858.852198800072,None,,,,,,,,,,,,,,,,,,,,,,,,,,,,,,,,,,,sing15,001,2019_Oct_31_1615,ProdFawcett_Revision2019,3.2.3,59.97681294116825,
41,0,41,0,,,,,,,,,,,,,,,,,1865.6092677999986,None,materials/singPic.jpg,weight,C_sing,41,353,1861.9582220000448,None,1861.9582220000448,None,1862.8609032999957,None,1863.1121438000118,None,1863.1121438000118,None,,,,,,,,,,,,,,,,,,,,,,,,,,,,,,,,,,,sing15,001,2019_Oct_31_1615,ProdFawcett_Revision2019,3.2.3,59.97681294116825,
42,0,42,0,,,,,,,,,,,,,,,,,1869.8762089000084,None,materials/speakPic.jpg,break,B_aloud,42,26,1866.1793435000582,None,1866.1793435000582,None,1867.1265425001038,None,1867.379816200002,None,1867.379816200002,None,,,,,,,,,,,,,,,,,,,,,,,,,,,,,,,,,,,sing15,001,2019_Oct_31_1615,ProdFawcett_Revision2019,3.2.3,59.97681294116825,
43,0,43,0,,,,,,,,,,,,,,,,,1874.1433713000733,None,materials/singPic.jpg,machinery,C_sing,43,175,1870.4660576001043,None,1870.4660576001043,None,1871.3935610000044,None,1871.6531153999968,None,1871.6531153999968,None,,,,,,,,,,,,,,,,,,,,,,,,,,,,,,,,,,,sing15,001,2019_Oct_31_1615,ProdFawcett_Revision2019,3.2.3,59.97681294116825,
44,0,44,0,,,,,,,,,,,,,,,,,1878.409249600023,None,materials/singPic.jpg,question,C_sing,44,247,1874.7038187000435,None,1874.7038187000435,None,1875.6593079000013,None,1875.92732170003,None,1875.92732170003,None,,,,,,,,,,,,,,,,,,,,,,,,,,,,,,,,,,,sing15,001,2019_Oct_31_1615,ProdFawcett_Revision2019,3.2.3,59.97681294116825,
45,0,45,0,,,,,,,,,,,,,,,,,1882.6771621000953,None,materials/singPic.jpg,emergency,C_sing,45,110,1879.0039610000094,None,1879.0039610000094,None,1879.927278600051,None,1880.1914342000382,None,1880.1914342000382,None,,,,,,,,,,,,,,,,,,,,,,,,,,,,,,,,,,,sing15,001,2019_Oct_31_1615,ProdFawcett_Revision2019,3.2.3,59.97681294116825,
46,0,46,0,,,,,,,,,,,,,,,,,1886.9441956999945,None,materials/readPic.jpg,review,A_silent,46,263,1883.2606150000356,None,1883.2606150000356,None,1884.194366700016,None,1884.4559823001036,None,1884.4559823001036,None,,,,,,,,,,,,,,,,,,,,,,,,,,,,,,,,,,,sing15,001,2019_Oct_31_1615,ProdFawcett_Revision2019,3.2.3,59.97681294116825,
47,0,47,0,,,,,,,,,,,,,,,,,1891.2111533000134,None,materials/singPic.jpg,damage,C_sing,47,83,1887.5244506000308,None,1887.5244506000308,None,1888.4617254000623,None,1888.7242938000709,None,1888.7242938000709,None,,,,,,,,,,,,,,,,,,,,,,,,,,,,,,,,,,,sing15,001,2019_Oct_31_1615,ProdFawcett_Revision2019,3.2.3,59.97681294116825,
48,0,48,0,,,,,,,,,,,,,,,,,1895.4780426000943,None,materials/speakPic.jpg,provision,B_aloud,48,243,1891.7789478000486,None,1891.7789478000486,None,1892.7293134001084,None,1892.9902617000043,None,1892.9902617000043,None,,,,,,,,,,,,,,,,,,,,,,,,,,,,,,,,,,,sing15,001,2019_Oct_31_1615,ProdFawcett_Revision2019,3.2.3,59.97681294116825,
49,0,49,0,,,,,,,,,,,,,,,,,1899.744997800095,None,materials/speakPic.jpg,style,B_aloud,49,311,1896.0535400999943,None,1896.0535400999943,None,1896.9939191000303,None,1897.2513707000762,None,1897.2513707000762,None,,,,,,,,,,,,,,,,,,,,,,,,,,,,,,,,,,,sing15,001,2019_Oct_31_1615,ProdFawcett_Revision2019,3.2.3,59.97681294116825,
50,0,50,0,,,,,,,,,,,,,,,,,1904.012373100035,None,materials/speakPic.jpg,exchange,B_aloud,50,121,1900.2801307000918,None,1900.2801307000918,None,1901.2625436000526,None,1901.524598899996,None,1901.524598899996,None,,,,,,,,,,,,,,,,,,,,,,,,,,,,,,,,,,,sing15,001,2019_Oct_31_1615,ProdFawcett_Revision2019,3.2.3,59.97681294116825,
51,0,51,0,,,,,,,,,,,,,,,,,1908.278847400099,None,materials/readPic.jpg,corner,A_silent,51,69,1904.5976854000473,None,1904.5976854000473,None,1905.529196400079,None,1905.7857535000658,None,1905.7857535000658,None,,,,,,,,,,,,,,,,,,,,,,,,,,,,,,,,,,,sing15,001,2019_Oct_31_1615,ProdFawcett_Revision2019,3.2.3,59.97681294116825,
52,0,52,0,,,,,,,,,,,,,,,,,1912.545938800089,None,materials/singPic.jpg,count,C_sing,52,72,1908.8581725000404,None,1908.8581725000404,None,1909.8019333000993,None,1910.0465430000331,None,1910.0465430000331,None,,,,,,,,,,,,,,,,,,,,,,,,,,,,,,,,,,,sing15,001,2019_Oct_31_1615,ProdFawcett_Revision2019,3.2.3,59.97681294116825,
53,0,53,0,,,,,,,,,,,,,,,,,1916.8128778000828,None,materials/readPic.jpg,suspect,A_silent,53,318,1913.1196616000962,None,1913.1196616000962,None,1914.063028600067,None,1914.3193217000226,None,1914.3193217000226,None,,,,,,,,,,,,,,,,,,,,,,,,,,,,,,,,,,,sing15,001,2019_Oct_31_1615,ProdFawcett_Revision2019,3.2.3,59.97681294116825,
54,0,54,0,,,,,,,,,,,,,,,,,1921.0800253000343,None,materials/singPic.jpg,place,C_sing,54,222,1917.3981899000937,None,1917.3981899000937,None,1918.329895800096,None,1918.585439800052,None,1918.585439800052,None,,,,,,,,,,,,,,,,,,,,,,,,,,,,,,,,,,,sing15,001,2019_Oct_31_1615,ProdFawcett_Revision2019,3.2.3,59.97681294116825,
55,0,55,0,,,,,,,,,,,,,,,,,1925.3467333000153,None,materials/speakPic.jpg,frank,B_aloud,55,133,1921.6319083001,None,1921.6319083001,None,1922.59693530004,None,1922.8526800000109,None,1922.8526800000109,None,,,,,,,,,,,,,,,,,,,,,,,,,,,,,,,,,,,sing15,001,2019_Oct_31_1615,ProdFawcett_Revision2019,3.2.3,59.97681294116825,
56,0,56,0,,,,,,,,,,,,,,,,,1929.6140332000796,None,materials/speakPic.jpg,quantity,B_aloud,56,245,1925.9109569001012,None,1925.9109569001012,None,1926.8637844000477,None,1927.1252230000682,None,1927.1252230000682,None,,,,,,,,,,,,,,,,,,,,,,,,,,,,,,,,,,,sing15,001,2019_Oct_31_1615,ProdFawcett_Revision2019,3.2.3,59.97681294116825,
57,0,57,0,,,,,,,,,,,,,,,,,1933.8806750000222,None,materials/readPic.jpg,discovery,A_silent,57,95,1930.203792400076,None,1930.203792400076,None,1931.1311131000984,None,1931.3851749000605,None,1931.3851749000605,None,,,,,,,,,,,,,,,,,,,,,,,,,,,,,,,,,,,sing15,001,2019_Oct_31_1615,ProdFawcett_Revision2019,3.2.3,59.97681294116825,
58,0,58,0,,,,,,,,,,,,,,,,,1938.1475403000368,None,materials/speakPic.jpg,addition,B_aloud,58,2,1934.483445400023,None,1934.483445400023,None,1935.3983432000969,None,1935.6545418000314,None,1935.6545418000314,None,,,,,,,,,,,,,,,,,,,,,,,,,,,,,,,,,,,sing15,001,2019_Oct_31_1615,ProdFawcett_Revision2019,3.2.3,59.97681294116825,
59,0,59,0,,,,,,,,,,,,,,,,,1942.414410400088,None,materials/singPic.jpg,notice,C_sing,59,201,1938.7366243000142,None,1938.7366243000142,None,1939.6647259000456,None,1939.9213117000181,None,1939.9213117000181,None,,,,,,,,,,,,,,,,,,,,,,,,,,,,,,,,,,,sing15,001,2019_Oct_31_1615,ProdFawcett_Revision2019,3.2.3,59.97681294116825,
60,0,60,0,,,,,,,,,,,,,,,,,1946.6812831000425,None,materials/readPic.jpg,close,A_silent,60,53,1942.9897594000213,None,1942.9897594000213,None,1943.9318624000298,None,1944.1881569999969,None,1944.1881569999969,None,,,,,,,,,,,,,,,,,,,,,,,,,,,,,,,,,,,sing15,001,2019_Oct_31_1615,ProdFawcett_Revision2019,3.2.3,59.97681294116825,
61,0,61,0,,,,,,,,,,,,,,,,,1950.9484372000443,None,materials/singPic.jpg,motion,C_sing,61,194,1947.2619189000688,None,1947.2619189000688,None,1948.1986418000888,None,1948.4548745000502,None,1948.4548745000502,None,,,,,,,,,,,,,,,,,,,,,,,,,,,,,,,,,,,sing15,001,2019_Oct_31_1615,ProdFawcett_Revision2019,3.2.3,59.97681294116825,
62,0,62,0,,,,,,,,,,,,,,,,,1955.2154524000362,None,materials/singPic.jpg,quick,C_sing,62,248,1951.5830686000409,None,1951.5830686000409,None,1952.46546210011,None,1952.721133400104,None,1952.721133400104,None,,,,,,,,,,,,,,,,,,,,,,,,,,,,,,,,,,,sing15,001,2019_Oct_31_1615,ProdFawcett_Revision2019,3.2.3,59.97681294116825,
63,0,63,0,,,,,,,,,,,,,,,,,1959.4824312001,None,materials/readPic.jpg,member,A_silent,63,188,1955.795287200017,None,1955.795287200017,None,1956.7325725000119,None,1956.9949536001077,None,1956.9949536001077,None,,,,,,,,,,,,,,,,,,,,,,,,,,,,,,,,,,,sing15,001,2019_Oct_31_1615,ProdFawcett_Revision2019,3.2.3,59.97681294116825,
64,0,64,0,,,,,,,,,,,,,,,,,1963.7495258999988,None,materials/singPic.jpg,general,C_sing,64,135,1960.082271500025,None,1960.082271500025,None,1960.9994765000883,None,1961.260561500094,None,1961.260561500094,None,,,,,,,,,,,,,,,,,,,,,,,,,,,,,,,,,,,sing15,001,2019_Oct_31_1615,ProdFawcett_Revision2019,3.2.3,59.97681294116825,
65,0,65,0,,,,,,,,,,,,,,,,,1968.0165295000188,None,materials/readPic.jpg,theme,A_silent,65,326,1964.321726800059,None,1964.321726800059,None,1965.2666741000721,None,1965.5231476000044,None,1965.5231476000044,None,,,,,,,,,,,,,,,,,,,,,,,,,,,,,,,,,,,sing15,001,2019_Oct_31_1615,ProdFawcett_Revision2019,3.2.3,59.97681294116825,
66,0,66,0,,,,,,,,,,,,,,,,,1972.2833579001017,None,materials/speakPic.jpg,sight,B_aloud,66,286,1968.5931005000602,None,1968.5931005000602,None,1969.5335503000533,None,1969.795268899994,None,1969.795268899994,None,,,,,,,,,,,,,,,,,,,,,,,,,,,,,,,,,,,sing15,001,2019_Oct_31_1615,ProdFawcett_Revision2019,3.2.3,59.97681294116825,
67,0,67,0,,,,,,,,,,,,,,,,,1976.5525344000198,None,materials/singPic.jpg,discussion,C_sing,67,96,1972.8813718000893,None,1972.8813718000893,None,1973.8002172000706,None,1974.0608826000243,None,1974.0608826000243,None,,,,,,,,,,,,,,,,,,,,,,,,,,,,,,,,,,,sing15,001,2019_Oct_31_1615,ProdFawcett_Revision2019,3.2.3,59.97681294116825,
68,0,68,0,,,,,,,,,,,,,,,,,1980.8172043000814,None,materials/readPic.jpg,display,A_silent,68,98,1977.12600820011,None,1977.12600820011,None,1978.067346099997,None,1978.3170864999993,None,1978.3170864999993,None,,,,,,,,,,,,,,,,,,,,,,,,,,,,,,,,,,,sing15,001,2019_Oct_31_1615,ProdFawcett_Revision2019,3.2.3,59.97681294116825,
69,0,69,0,,,,,,,,,,,,,,,,,1985.0840588000137,None,materials/readPic.jpg,finance,A_silent,69,129,1981.385434200056,None,1981.385434200056,None,1982.334257600014,None,1982.5929625000572,None,1982.5929625000572,None,,,,,,,,,,,,,,,,,,,,,,,,,,,,,,,,,,,sing15,001,2019_Oct_31_1615,ProdFawcett_Revision2019,3.2.3,59.97681294116825,
70,0,70,0,,,,,,,,,,,,,,,,,1989.350686000078,None,materials/speakPic.jpg,department,B_aloud,70,90,1985.6527588000754,None,1985.6527588000754,None,1986.6013096000534,None,1986.8588946000673,None,1986.8588946000673,None,,,,,,,,,,,,,,,,,,,,,,,,,,,,,,,,,,,sing15,001,2019_Oct_31_1615,ProdFawcett_Revision2019,3.2.3,59.97681294116825,
71,0,71,0,,,,,,,,,,,,,,,,,1993.6180220000679,None,materials/speakPic.jpg,victory,B_aloud,71,346,1989.9236061000265,None,1989.9236061000265,None,1990.8683191000018,None,1991.1285400000634,None,1991.1285400000634,None,,,,,,,,,,,,,,,,,,,,,,,,,,,,,,,,,,,sing15,001,2019_Oct_31_1615,ProdFawcett_Revision2019,3.2.3,59.97681294116825,
72,0,72,0,,,,,,,,,,,,,,,,,1997.885176400072,None,materials/speakPic.jpg,instrument,B_aloud,72,163,1994.1682700000238,None,1994.1682700000238,None,1995.1337737001013,None,1995.3912285000551,None,1995.3912285000551,None,,,,,,,,,,,,,,,,,,,,,,,,,,,,,,,,,,,sing15,001,2019_Oct_31_1615,ProdFawcett_Revision2019,3.2.3,59.97681294116825,
73,0,73,0,,,,,,,,,,,,,,,,,2002.1520855000708,None,materials/speakPic.jpg,council,B_aloud,73,71,1998.4520527001005,None,1998.4520527001005,None,1999.4025991000235,None,1999.658785500098,None,1999.658785500098,None,,,,,,,,,,,,,,,,,,,,,,,,,,,,,,,,,,,sing15,001,2019_Oct_31_1615,ProdFawcett_Revision2019,3.2.3,59.97681294116825,
74,0,74,0,,,,,,,,,,,,,,,,,2006.418876800104,None,materials/speakPic.jpg,couch,B_aloud,74,70,2002.7148536000168,None,2002.7148536000168,None,2003.6689986001002,None,2003.9230117000407,None,2003.9230117000407,None,,,,,,,,,,,,,,,,,,,,,,,,,,,,,,,,,,,sing15,001,2019_Oct_31_1615,ProdFawcett_Revision2019,3.2.3,59.97681294116825,
75,0,75,0,,,,,,,,,,,,,,,,,2010.6880901000695,None,materials/readPic.jpg,range,A_silent,75,251,2007.0492784000235,None,2007.0492784000235,None,2007.9365585000487,None,2008.1976656001061,None,2008.1976656001061,None,,,,,,,,,,,,,,,,,,,,,,,,,,,,,,,,,,,sing15,001,2019_Oct_31_1615,ProdFawcett_Revision2019,3.2.3,59.97681294116825,
76,0,76,0,,,,,,,,,,,,,,,,,2014.9528680000221,None,materials/singPic.jpg,committee,C_sing,76,62,2011.271611400065,None,2011.271611400065,None,2012.2034889000934,None,2012.4611544000218,None,2012.4611544000218,None,,,,,,,,,,,,,,,,,,,,,,,,,,,,,,,,,,,sing15,001,2019_Oct_31_1615,ProdFawcett_Revision2019,3.2.3,59.97681294116825,
77,0,77,0,,,,,,,,,,,,,,,,,2019.2186896000057,None,materials/speakPic.jpg,speech,B_aloud,77,298,2015.5235360000515,None,2015.5235360000515,None,2016.4685347001068,None,2016.730869900086,None,2016.730869900086,None,,,,,,,,,,,,,,,,,,,,,,,,,,,,,,,,,,,sing15,001,2019_Oct_31_1615,ProdFawcett_Revision2019,3.2.3,59.97681294116825,
78,0,78,0,,,,,,,,,,,,,,,,,2023.487035099999,None,materials/singPic.jpg,command,C_sing,78,60,2019.7788525000215,None,2019.7788525000215,None,2020.737099400023,None,2020.9932477000402,None,2020.9932477000402,None,,,,,,,,,,,,,,,,,,,,,,,,,,,,,,,,,,,sing15,001,2019_Oct_31_1615,ProdFawcett_Revision2019,3.2.3,59.97681294116825,
79,0,79,0,,,,,,,,,,,,,,,,,2027.7537808000343,None,materials/singPic.jpg,guest,C_sing,79,146,2024.085323000094,None,2024.085323000094,None,2025.002543700044,None,2025.2629293000791,None,2025.2629293000791,None,,,,,,,,,,,,,,,,,,,,,,,,,,,,,,,,,,,sing15,001,2019_Oct_31_1615,ProdFawcett_Revision2019,3.2.3,59.97681294116825,
80,0,80,0,,,,,,,,,,,,,,,,,2032.0205431000795,None,materials/readPic.jpg,universal,A_silent,80,345,2028.349030900048,None,2028.349030900048,None,2029.2711852000793,None,2029.5267862000037,None,2029.5267862000037,None,,,,,,,,,,,,,,,,,,,,,,,,,,,,,,,,,,,sing15,001,2019_Oct_31_1615,ProdFawcett_Revision2019,3.2.3,59.97681294116825,
81,0,81,0,,,,,,,,,,,,,,,,,2036.2874998000916,None,materials/speakPic.jpg,report,B_aloud,81,259,2032.5921222000616,None,2032.5921222000616,None,2033.5378268000204,None,2033.7940345000243,None,2033.7940345000243,None,,,,,,,,,,,,,,,,,,,,,,,,,,,,,,,,,,,sing15,001,2019_Oct_31_1615,ProdFawcett_Revision2019,3.2.3,59.97681294116825,
82,0,82,0,,,,,,,,,,,,,,,,,2040.5544963000575,None,materials/singPic.jpg,sunset,C_sing,82,315,2036.8677876000293,None,2036.8677876000293,None,2037.8034243000438,None,2038.0609276000177,None,2038.0609276000177,None,,,,,,,,,,,,,,,,,,,,,,,,,,,,,,,,,,,sing15,001,2019_Oct_31_1615,ProdFawcett_Revision2019,3.2.3,59.97681294116825,
83,0,83,0,,,,,,,,,,,,,,,,,2044.82163520006,None,materials/speakPic.jpg,estate,B_aloud,83,119,2041.0970977999968,None,2041.0970977999968,None,2042.0722299000481,None,2042.3279148000292,None,2042.3279148000292,None,,,,,,,,,,,,,,,,,,,,,,,,,,,,,,,,,,,sing15,001,2019_Oct_31_1615,ProdFawcett_Revision2019,3.2.3,59.97681294116825,
84,0,84,0,,,,,,,,,,,,,,,,,2049.0869776000036,None,materials/readPic.jpg,husband,A_silent,84,156,2045.4309238001006,None,2045.4309238001006,None,2046.3385443000589,None,2046.6008656000486,None,2046.6008656000486,None,,,,,,,,,,,,,,,,,,,,,,,,,,,,,,,,,,,sing15,001,2019_Oct_31_1615,ProdFawcett_Revision2019,3.2.3,59.97681294116825,
85,0,85,0,,,,,,,,,,,,,,,,,2053.355317300069,None,materials/readPic.jpg,disease,A_silent,85,97,2049.666578000062,None,2049.666578000062,None,2050.605561000062,None,2050.8582160000224,None,2050.8582160000224,None,,,,,,,,,,,,,,,,,,,,,,,,,,,,,,,,,,,sing15,001,2019_Oct_31_1615,ProdFawcett_Revision2019,3.2.3,59.97681294116825,
86,0,86,0,,,,,,,,,,,,,,,,,2057.6222454000963,None,materials/speakPic.jpg,congress,B_aloud,86,67,2053.968370700022,None,2053.968370700022,None,2054.872554200003,None,2055.1349991000025,None,2055.1349991000025,None,,,,,,,,,,,,,,,,,,,,,,,,,,,,,,,,,,,sing15,001,2019_Oct_31_1615,ProdFawcett_Revision2019,3.2.3,59.97681294116825,
87,0,87,0,,,,,,,,,,,,,,,,,2061.8892724000616,None,materials/singPic.jpg,raise,C_sing,87,250,2058.203243600088,None,2058.203243600088,None,2059.140028900001,None,2059.3951295000734,None,2059.3951295000734,None,,,,,,,,,,,,,,,,,,,,,,,,,,,,,,,,,,,sing15,001,2019_Oct_31_1615,ProdFawcett_Revision2019,3.2.3,59.97681294116825,
88,0,88,0,,,,,,,,,,,,,,,,,2066.155410700012,None,materials/speakPic.jpg,religion,B_aloud,88,258,2062.5040239000227,None,2062.5040239000227,None,2063.4051723000593,None,2063.6704544000095,None,2063.6704544000095,None,,,,,,,,,,,,,,,,,,,,,,,,,,,,,,,,,,,sing15,001,2019_Oct_31_1615,ProdFawcett_Revision2019,3.2.3,59.97681294116825,
89,0,89,0,,,,,,,,,,,,,,,,,2070.4231635000324,None,materials/singPic.jpg,finish,C_sing,89,130,2066.7233666999964,None,2066.7233666999964,None,2067.673247000086,None,2067.9301673000446,None,2067.9301673000446,None,,,,,,,,,,,,,,,,,,,,,,,,,,,,,,,,,,,sing15,001,2019_Oct_31_1615,ProdFawcett_Revision2019,3.2.3,59.97681294116825,
,,,,,,,,,,,,,,,,,,,,,,,,,,,,,,,,,,,,,2070.9231652000453,None,k,135.67924139997922,2070.9231652000453,None,,,,,,,,,,,,,,,,,,,,,,,,,,,,,sing15,001,2019_Oct_31_1615,ProdFawcett_Revision2019,3.2.3,59.97681294116825,
,,,,,,,,,,,,,,2206.6323775000637,None,space,1.4339066999964416,2206.6323775000637,None,,,,,,,,,,,,,,,,,,,,,,,,,,,,,,,,,,,,,,,,,,,,,,,,,,,,sing15,001,2019_Oct_31_1615,ProdFawcett_Revision2019,3.2.3,59.97681294116825,
,,,,0,0,0,0,,,,,,,,,,,,,2225.540830800077,None,,,,,,,,,,,,,,,,,,,,,,budget,B_aloud,0,34,2208.6192406000337,None,2208.6192406000337,None,2208.6192406000337,None,1,9.950994599959813,2208.6192406000337,None,2218.634490000084,None,2218.634490000084,None,2219.1558831,None,2219.1558831,None,2219.1558831,None,n,6.358391399960965,2219.1558831,None,sing15,001,2019_Oct_31_1615,ProdFawcett_Revision2019,3.2.3,59.97681294116825,
,,,,1,0,1,0,,,,,,,,,,,,,2241.3198209000984,None,,,,,,,,,,,,,,,,,,,,,,design,D_new,1,91,2226.0659218000947,None,2226.0659218000947,None,2226.0659218000947,None,2,7.240384000004269,2226.0659218000947,None,2233.364204200101,None,2233.364204200101,None,2233.88954740006,None,2233.88954740006,None,2233.88954740006,None,f,7.393396600033157,2233.88954740006,None,sing15,001,2019_Oct_31_1615,ProdFawcett_Revision2019,3.2.3,59.97681294116825,
,,,,2,0,2,0,,,,,,,,,,,,,2251.822965200059,None,,,,,,,,,,,,,,,,,,,,,,quick,C_sing,2,248,2241.851706900052,None,2241.851706900052,None,2241.851706900052,None,2,7.654643499990925,2241.851706900052,None,2249.5647763001034,None,2249.5647763001034,None,2250.0868313000537,None,2250.0868313000537,None,2250.0868313000537,None,f,1.715244600083679,2250.0868313000537,None,sing15,001,2019_Oct_31_1615,ProdFawcett_Revision2019,3.2.3,59.97681294116825,
,,,,3,0,3,0,,,,,,,,,,,,,2263.034414499998,None,,,,,,,,,,,,,,,,,,,,,,track,C_sing,3,334,2252.34432490007,None,2252.34432490007,None,2252.34432490007,None,5,5.577930299914442,2252.34432490007,None,2257.9743009000085,None,2257.9743009000085,None,2258.496867400012,None,2258.496867400012,None,2258.496867400012,None,f,4.497493500006385,2258.496867400012,None,sing15,001,2019_Oct_31_1615,ProdFawcett_Revision2019,3.2.3,59.97681294116825,
,,,,4,0,4,0,,,,,,,,,,,,,2272.8034606000874,None,,,,,,,,,,,,,,,,,,,,,,literature,C_sing,4,173,2263.555945900036,None,2263.555945900036,None,2263.555945900036,None,6,2.9824085000436753,2263.555945900036,None,2266.579196800012,None,2266.579196800012,None,2267.1072356000077,None,2267.1072356000077,None,2267.1072356000077,None,r,5.663144499994814,2267.1072356000077,None,sing15,001,2019_Oct_31_1615,ProdFawcett_Revision2019,3.2.3,59.97681294116825,
,,,,5,0,5,0,,,,,,,,,,,,,2285.731000400032,None,,,,,,,,,,,,,,,,,,,,,,people,C_sing,5,216,2273.3223247000715,None,2273.3223247000715,None,2273.3223247000715,None,6,9.639977899962105,2273.3223247000715,None,2283.022480600048,None,2283.022480600048,None,2283.5419433000498,None,2283.5419433000498,None,2283.5419433000498,None,r,2.156405600020662,2283.5419433000498,None,sing15,001,2019_Oct_31_1615,ProdFawcett_Revision2019,3.2.3,59.97681294116825,
,,,,6,0,6,0,,,,,,,,,,,,,2295.09305460006,None,,,,,,,,,,,,,,,,,,,,,,emergency,C_sing,6,110,2286.258188100066,None,2286.258188100066,None,2286.258188100066,None,6,4.584243999910541,2286.258188100066,None,2290.9056161000626,None,2290.9056161000626,None,2291.424255500082,None,2291.424255500082,None,2291.424255500082,None,r,3.64181830000598,2291.424255500082,None,sing15,001,2019_Oct_31_1615,ProdFawcett_Revision2019,3.2.3,59.97681294116825,
,,,,7,0,7,0,,,,,,,,,,,,,2302.637704499997,None,,,,,,,,,,,,,,,,,,,,,,opening,D_new,7,205,2295.616176800104,None,2295.616176800104,None,2295.616176800104,None,2,5.042027599993162,2295.616176800104,None,2300.7168556000106,None,2300.7168556000106,None,2301.2375481000636,None,2301.2375481000636,None,2301.2375481000636,None,f,1.364821800030768,2301.2375481000636,None,sing15,001,2019_Oct_31_1615,ProdFawcett_Revision2019,3.2.3,59.97681294116825,
,,,,8,0,8,0,,,,,,,,,,,,,2308.5210255000275,None,,,,,,,,,,,,,,,,,,,,,,device,D_new,8,93,2303.160946400021,None,2303.160946400021,None,2303.160946400021,None,2,2.585394899942912,2303.160946400021,None,2305.8047084000427,None,2305.8047084000427,None,2306.3231678000884,None,2306.3231678000884,None,2306.3231678000884,None,n,2.1591708000050858,2306.3231678000884,None,sing15,001,2019_Oct_31_1615,ProdFawcett_Revision2019,3.2.3,59.97681294116825,
,,,,9,0,9,0,,,,,,,,,,,,,2313.7718170000007,None,,,,,,,,,,,,,,,,,,,,,,damage,C_sing,9,83,2309.045973500004,None,2309.045973500004,None,2309.045973500004,None,5,3.0523404999403283,2309.045973500004,None,2312.1527490000008,None,2312.1527490000008,None,2312.6776039000833,None,2312.6776039000833,None,2312.6776039000833,None,f,1.0611199999693781,2312.6776039000833,None,sing15,001,2019_Oct_31_1615,ProdFawcett_Revision2019,3.2.3,59.97681294116825,
,,,,10,0,10,0,,,,,,,,,,,,,2322.0232488000765,None,,,,,,,,,,,,,,,,,,,,,,benefit,D_new,10,20,2314.297125000041,None,2314.297125000041,None,2314.297125000041,None,3,3.5934818000532687,2314.297125000041,None,2317.934920000029,None,2317.934920000029,None,2318.453325600014,None,2318.453325600014,None,2318.453325600014,None,r,3.533010600018315,2318.453325600014,None,sing15,001,2019_Oct_31_1615,ProdFawcett_Revision2019,3.2.3,59.97681294116825,
,,,,11,0,11,0,,,,,,,,,,,,,2337.1468826000346,None,,,,,,,,,,,,,,,,,,,,,,native,D_new,11,199,2322.5447561000474,None,2322.5447561000474,None,2322.5447561000474,None,2,2.913645900087431,2322.5447561000474,None,2325.4988821001025,None,2325.4988821001025,None,2326.0247936000815,None,2326.0247936000815,None,2326.0247936000815,None,r,11.098478300031275,2326.0247936000815,None,sing15,001,2019_Oct_31_1615,ProdFawcett_Revision2019,3.2.3,59.97681294116825,
,,,,12,0,12,0,,,,,,,,,,,,,2344.1240769000724,None,,,,,,,,,,,,,,,,,,,,,,election,D_new,12,109,2337.676848400035,None,2337.676848400035,None,2337.676848400035,None,6,4.0854716000612825,2337.676848400035,None,2341.817086199997,None,2341.817086199997,None,2342.3388284000102,None,2342.3388284000102,None,2342.3388284000102,None,f,1.7434902000240982,2342.3388284000102,None,sing15,001,2019_Oct_31_1615,ProdFawcett_Revision2019,3.2.3,59.97681294116825,
,,,,13,0,13,0,,,,,,,,,,,,,2352.5416422000853,None,,,,,,,,,,,,,,,,,,,,,,goose,B_aloud,13,138,2344.6403732000617,None,2344.6403732000617,None,2344.6403732000617,None,6,5.954020300065167,2344.6403732000617,None,2350.646790900035,None,2350.646790900035,None,2351.173646200099,None,2351.173646200099,None,2351.173646200099,None,r,1.3332229999359697,2351.173646200099,None,sing15,001,2019_Oct_31_1615,ProdFawcett_Revision2019,3.2.3,59.97681294116825,
,,,,14,0,14,0,,,,,,,,,,,,,2359.2743004000513,None,,,,,,,,,,,,,,,,,,,,,,appeal,D_new,14,9,2353.0602272000397,None,2353.0602272000397,None,2353.0602272000397,None,3,4.2620954000158235,2353.0602272000397,None,2357.3515574000776,None,2357.3515574000776,None,2357.87193880009,None,2357.87193880009,None,2357.87193880009,None,f,1.3625777999404818,2357.87193880009,None,sing15,001,2019_Oct_31_1615,ProdFawcett_Revision2019,3.2.3,59.97681294116825,
,,,,15,0,15,0,,,,,,,,,,,,,2373.815151000046,None,,,,,,,,,,,,,,,,,,,,,,grade,D_new,15,140,2359.792659800034,None,2359.792659800034,None,2359.792659800034,None,2,10.873591999989003,2359.792659800034,None,2370.7155736000277,None,2370.7155736000277,None,2371.2487693000585,None,2371.2487693000585,None,2371.2487693000585,None,n,2.5294931000098586,2371.2487693000585,None,sing15,001,2019_Oct_31_1615,ProdFawcett_Revision2019,3.2.3,59.97681294116825,
,,,,16,0,16,0,,,,,,,,,,,,,2379.8325260001,None,,,,,,,,,,,,,,,,,,,,,,master,D_new,16,180,2374.332348200027,None,2374.332348200027,None,2374.332348200027,None,1,2.3661376999225467,2374.332348200027,None,2376.753292600042,None,2376.753292600042,None,2377.2752606000286,None,2377.2752606000286,None,2377.2752606000286,None,n,2.5270525000523776,2377.2752606000286,None,sing15,001,2019_Oct_31_1615,ProdFawcett_Revision2019,3.2.3,59.97681294116825,
,,,,17,0,17,0,,,,,,,,,,,,,2384.9935629999964,None,,,,,,,,,,,,,,,,,,,,,,state,D_new,17,303,2380.3496886000503,None,2380.3496886000503,None,2380.3496886000503,None,6,2.7887354999547824,2380.3496886000503,None,2383.1866443000035,None,2383.1866443000035,None,2383.707097000093,None,2383.707097000093,None,2383.707097000093,None,f,1.2471843999810517,2383.707097000093,None,sing15,001,2019_Oct_31_1615,ProdFawcett_Revision2019,3.2.3,59.97681294116825,
,,,,18,0,18,0,,,,,,,,,,,,,2390.6125808000797,None,,,,,,,,,,,,,,,,,,,,,,murder,D_new,18,195,2385.5121523001,None,2385.5121523001,None,2385.5121523001,None,1,2.450323299970478,2385.5121523001,None,2387.998460700037,None,2387.998460700037,None,2388.5259984000586,None,2388.5259984000586,None,2388.5259984000586,None,n,2.0443540000123903,2388.5259984000586,None,sing15,001,2019_Oct_31_1615,ProdFawcett_Revision2019,3.2.3,59.97681294116825,
,,,,19,0,19,0,,,,,,,,,,,,,2395.745571400039,None,,,,,,,,,,,,,,,,,,,,,,sight,B_aloud,19,286,2391.134432299994,None,2391.134432299994,None,2391.134432299994,None,6,2.211916900007054,2391.134432299994,None,2393.387523500016,None,2393.387523500016,None,2393.911700000055,None,2393.911700000055,None,2393.911700000055,None,r,1.794866400072351,2393.911700000055,None,sing15,001,2019_Oct_31_1615,ProdFawcett_Revision2019,3.2.3,59.97681294116825,
,,,,20,0,20,0,,,,,,,,,,,,,2400.993416100042,None,,,,,,,,,,,,,,,,,,,,,,testimony,B_aloud,20,325,2396.263664700091,None,2396.263664700091,None,2396.263664700091,None,6,2.722605300019495,2396.263664700091,None,2399.0327920001,None,2399.0327920001,None,2399.5601978000486,None,2399.5601978000486,None,2399.5601978000486,None,r,1.394497000030242,2399.5601978000486,None,sing15,001,2019_Oct_31_1615,ProdFawcett_Revision2019,3.2.3,59.97681294116825,
,,,,21,0,21,0,,,,,,,,,,,,,2406.7940905001014,None,,,,,,,,,,,,,,,,,,,,,,graduate,C_sing,21,141,2401.5149919000687,None,2401.5149919000687,None,2401.5149919000687,None,1,3.1833094999892637,2401.5149919000687,None,2404.757302800077,None,2404.757302800077,None,2405.2791795000667,None,2405.2791795000667,None,2405.2791795000667,None,n,1.4832177000353113,2405.2791795000667,None,sing15,001,2019_Oct_31_1615,ProdFawcett_Revision2019,3.2.3,59.97681294116825,
,,,,22,0,22,0,,,,,,,,,,,,,2411.527590600075,None,,,,,,,,,,,,,,,,,,,,,,detective,D_new,22,92,2407.3181989000877,None,2407.3181989000877,None,2407.3181989000877,None,3,2.6682342999847606,2407.3181989000877,None,2410.0396966000553,None,2410.0396966000553,None,2410.564861300052,None,2410.564861300052,None,2410.564861300052,None,f,0.9252368999877945,2410.564861300052,None,sing15,001,2019_Oct_31_1615,ProdFawcett_Revision2019,3.2.3,59.97681294116825,
,,,,23,0,23,0,,,,,,,,,,,,,2417.6452091000974,None,,,,,,,,,,,,,,,,,,,,,,command,C_sing,23,60,2412.0392594001023,None,2412.0392594001023,None,2412.0392594001023,None,1,2.9951484999619424,2412.0392594001023,None,2415.0851988000795,None,2415.0851988000795,None,2415.6104895001044,None,2415.6104895001044,None,2415.6104895001044,None,n,2.0003178000915796,2415.6104895001044,None,sing15,001,2019_Oct_31_1615,ProdFawcett_Revision2019,3.2.3,59.97681294116825,
,,,,24,0,24,0,,,,,,,,,,,,,2422.437317600008,None,,,,,,,,,,,,,,,,,,,,,,figure,D_new,24,128,2418.1663776000496,None,2418.1663776000496,None,2418.1663776000496,None,6,2.07574839994777,2418.1663776000496,None,2420.2892191000283,None,2420.2892191000283,None,2420.7870485000312,None,2420.7870485000312,None,2420.7870485000312,None,r,1.6151247000088915,2420.7870485000312,None,sing15,001,2019_Oct_31_1615,ProdFawcett_Revision2019,3.2.3,59.97681294116825,
,,,,25,0,25,0,,,,,,,,,,,,,2430.9957880000584,None,,,,,,,,,,,,,,,,,,,,,,place,C_sing,25,222,2422.9520406000083,None,2422.9520406000083,None,2422.9520406000083,None,6,5.3383638999657705,2422.9520406000083,None,2428.3376997000305,None,2428.3376997000305,None,2428.8602297001053,None,2428.8602297001053,None,2428.8602297001053,None,r,2.1023297000210732,2428.8602297001053,None,sing15,001,2019_Oct_31_1615,ProdFawcett_Revision2019,3.2.3,59.97681294116825,
,,,,26,0,26,0,,,,,,,,,,,,,2444.131314600003,None,,,,,,,,,,,,,,,,,,,,,,capital,A_silent,26,40,2431.5147847000044,None,2431.5147847000044,None,2431.5147847000044,None,5,8.343562300084159,2431.5147847000044,None,2439.90906440001,None,2439.90906440001,None,2440.4285189000657,None,2440.4285189000657,None,2440.4285189000657,None,f,3.6617990999948233,2440.4285189000657,None,sing15,001,2019_Oct_31_1615,ProdFawcett_Revision2019,3.2.3,59.97681294116825,
,,,,27,0,27,0,,,,,,,,,,,,,2448.48152390006,None,,,,,,,,,,,,,,,,,,,,,,tragedy,D_new,27,335,2444.6536988000153,None,2444.6536988000153,None,2444.6536988000153,None,4,1.9728381000459194,2444.6536988000153,None,2446.673105600057,None,2446.673105600057,None,2447.203296300024,None,2447.203296300024,None,2447.203296300024,None,f,1.2394534000195563,2447.203296300024,None,sing15,001,2019_Oct_31_1615,ProdFawcett_Revision2019,3.2.3,59.97681294116825,
,,,,28,0,28,0,,,,,,,,,,,,,2453.5152278000023,None,,,,,,,,,,,,,,,,,,,,,,blind,D_new,28,24,2449.0023189000785,None,2449.0023189000785,None,2449.0023189000785,None,6,2.592044899938628,2449.0023189000785,None,2451.6441596000222,None,2451.6441596000222,None,2452.1637204000726,None,2452.1637204000726,None,2452.1637204000726,None,r,1.3186327000148594,2452.1637204000726,None,sing15,001,2019_Oct_31_1615,ProdFawcett_Revision2019,3.2.3,59.97681294116825,
,,,,29,0,29,0,,,,,,,,,,,,,2457.4482348000165,None,,,,,,,,,,,,,,,,,,,,,,childhood,D_new,29,49,2454.0328523000935,None,2454.0328523000935,None,2454.0328523000935,None,1,1.7534656000789255,2454.0328523000935,None,2455.84327260009,None,2455.84327260009,None,2456.363455600105,None,2456.363455600105,None,2456.363455600105,None,n,1.0470821999479085,2456.363455600105,None,sing15,001,2019_Oct_31_1615,ProdFawcett_Revision2019,3.2.3,59.97681294116825,
,,,,30,0,30,0,,,,,,,,,,,,,2462.2499695000006,None,,,,,,,,,,,,,,,,,,,,,,touch,D_new,30,332,2457.9555172000546,None,2457.9555172000546,None,2457.9555172000546,None,6,2.639076399966143,2457.9555172000546,None,2460.643823900027,None,2460.643823900027,None,2461.167429000023,None,2461.167429000023,None,2461.167429000023,None,r,1.050794699927792,2461.167429000023,None,sing15,001,2019_Oct_31_1615,ProdFawcett_Revision2019,3.2.3,59.97681294116825,
,,,,31,0,31,0,,,,,,,,,,,,,2467.170577800018,None,,,,,,,,,,,,,,,,,,,,,,close,A_silent,31,53,2462.766333400039,None,2462.766333400039,None,2462.766333400039,None,1,2.4599823999451473,2462.766333400039,None,2465.2709202000406,None,2465.2709202000406,None,2465.799921800033,None,2465.799921800033,None,2465.799921800033,None,n,1.3222929999465123,2465.799921800033,None,sing15,001,2019_Oct_31_1615,ProdFawcett_Revision2019,3.2.3,59.97681294116825,
,,,,32,0,32,0,,,,,,,,,,,,,2473.620340500027,None,,,,,,,,,,,,,,,,,,,,,,enemy,A_silent,32,113,2467.6958844000474,None,2467.6958844000474,None,2467.6958844000474,None,6,4.194709800067358,2467.6958844000474,None,2471.9437817001017,None,2471.9437817001017,None,2472.4631494000787,None,2472.4631494000787,None,2472.4631494000787,None,r,1.1230577999958768,2472.4631494000787,None,sing15,001,2019_Oct_31_1615,ProdFawcett_Revision2019,3.2.3,59.97681294116825,
,,,,33,0,33,0,,,,,,,,,,,,,2478.400493800058,None,,,,,,,,,,,,,,,,,,,,,,produce,C_sing,33,239,2474.149943400058,None,2474.149943400058,None,2474.149943400058,None,6,2.1648633000440896,2474.149943400058,None,2476.3619743000017,None,2476.3619743000017,None,2476.8787448001094,None,2476.8787448001094,None,2476.8787448001094,None,r,1.4838360000867397,2476.8787448001094,None,sing15,001,2019_Oct_31_1615,ProdFawcett_Revision2019,3.2.3,59.97681294116825,
,,,,34,0,34,0,,,,,,,,,,,,,2482.719603500096,None,,,,,,,,,,,,,,,,,,,,,,welcome,C_sing,34,354,2478.9180243000155,None,2478.9180243000155,None,2478.9180243000155,None,1,2.100411899969913,2478.9180243000155,None,2481.057765900041,None,2481.057765900041,None,2481.583363700076,None,2481.583363700076,None,2481.583363700076,None,n,1.1150545999407768,2481.583363700076,None,sing15,001,2019_Oct_31_1615,ProdFawcett_Revision2019,3.2.3,59.97681294116825,
,,,,35,0,35,0,,,,,,,,,,,,,2487.915420100093,None,,,,,,,,,,,,,,,,,,,,,,course,A_silent,35,74,2483.2505650999956,None,2483.2505650999956,None,2483.2505650999956,None,6,2.6478065999690443,2483.2505650999956,None,2485.9407486000564,None,2485.9407486000564,None,2486.4640849001007,None,2486.4640849001007,None,2486.4640849001007,None,f,1.410058100009337,2486.4640849001007,None,sing15,001,2019_Oct_31_1615,ProdFawcett_Revision2019,3.2.3,59.97681294116825,
,,,,36,0,36,0,,,,,,,,,,,,,2493.4339436000446,None,,,,,,,,,,,,,,,,,,,,,,instrument,B_aloud,36,163,2488.4360724000726,None,2488.4360724000726,None,2488.4360724000726,None,6,2.398389399982989,2488.4360724000726,None,2490.879769299994,None,2490.879769299994,None,2491.3980572000146,None,2491.3980572000146,None,2491.3980572000146,None,r,1.996262799948454,2491.3980572000146,None,sing15,001,2019_Oct_31_1615,ProdFawcett_Revision2019,3.2.3,59.97681294116825,
,,,,37,0,37,0,,,,,,,,,,,,,2498.651738100103,None,,,,,,,,,,,,,,,,,,,,,,report,B_aloud,37,259,2493.953827899997,None,2493.953827899997,None,2493.953827899997,None,3,2.8484895000001416,2493.953827899997,None,2496.846580100013,None,2496.846580100013,None,2497.3654750999995,None,2497.3654750999995,None,2497.3654750999995,None,f,1.2528739999979734,2497.3654750999995,None,sing15,001,2019_Oct_31_1615,ProdFawcett_Revision2019,3.2.3,59.97681294116825,
,,,,38,0,38,0,,,,,,,,,,,,,2503.0858080000617,None,,,,,,,,,,,,,,,,,,,,,,crowd,D_new,38,81,2499.170781200053,None,2499.170781200053,None,2499.170781200053,None,6,2.615640199976042,2499.170781200053,None,2501.83300340001,None,2501.83300340001,None,2502.348711000057,None,2502.348711000057,None,2502.348711000057,None,f,0.6935515999794006,2502.348711000057,None,sing15,001,2019_Oct_31_1615,ProdFawcett_Revision2019,3.2.3,59.97681294116825,
,,,,39,0,39,0,,,,,,,,,,,,,2508.6849451001035,None,,,,,,,,,,,,,,,,,,,,,,science,D_new,39,275,2503.6078276000917,None,2503.6078276000917,None,2503.6078276000917,None,1,2.6105400000233203,2503.6078276000917,None,2506.2656787000597,None,2506.2656787000597,None,2506.782881000079,None,2506.782881000079,None,2506.782881000079,None,f,1.8593480999115855,2506.782881000079,None,sing15,001,2019_Oct_31_1615,ProdFawcett_Revision2019,3.2.3,59.97681294116825,
,,,,40,0,40,0,,,,,,,,,,,,,2512.751036700094,None,,,,,,,,,,,,,,,,,,,,,,taste,D_new,40,322,2509.2015984000172,None,2509.2015984000172,None,2509.2015984000172,None,6,2.2806452999357134,2509.2015984000172,None,2511.527804200072,None,2511.527804200072,None,2512.0484181001084,None,2512.0484181001084,None,2512.0484181001084,None,r,0.6578706000000238,2512.0484181001084,None,sing15,001,2019_Oct_31_1615,ProdFawcett_Revision2019,3.2.3,59.97681294116825,
,,,,41,0,41,0,,,,,,,,,,,,,2518.5866048000753,None,,,,,,,,,,,,,,,,,,,,,,school,D_new,41,274,2513.269306200091,None,2513.269306200091,None,2513.269306200091,None,1,3.1813547000056133,2513.269306200091,None,2516.496751500061,None,2516.496751500061,None,2517.015512000071,None,2517.015512000071,None,2517.015512000071,None,n,1.5386574000585824,2517.015512000071,None,sing15,001,2019_Oct_31_1615,ProdFawcett_Revision2019,3.2.3,59.97681294116825,
,,,,42,0,42,0,,,,,,,,,,,,,2527.5536113000708,None,,,,,,,,,,,,,,,,,,,,,,power,D_new,42,230,2519.1033800001023,None,2519.1033800001023,None,2519.1033800001023,None,6,5.795281399972737,2519.1033800001023,None,2524.9430775000947,None,2524.9430775000947,None,2525.474770800094,None,2525.474770800094,None,2525.474770800094,None,r,2.0396229999605566,2525.474770800094,None,sing15,001,2019_Oct_31_1615,ProdFawcett_Revision2019,3.2.3,59.97681294116825,
,,,,43,0,43,0,,,,,,,,,,,,,2532.608836800093,None,,,,,,,,,,,,,,,,,,,,,,silence,D_new,43,288,2528.07250270003,None,2528.07250270003,None,2528.07250270003,None,6,2.362370799994096,2528.07250270003,None,2530.4803183000768,None,2530.4803183000768,None,2530.9991672000615,None,2530.9991672000615,None,2530.9991672000615,None,f,1.5792347000679001,2530.9991672000615,None,sing15,001,2019_Oct_31_1615,ProdFawcett_Revision2019,3.2.3,59.97681294116825,
,,,,44,0,44,0,,,,,,,,,,,,,2538.285927799996,None,,,,,,,,,,,,,,,,,,,,,,material,D_new,44,182,2533.127162500052,None,2533.127162500052,None,2533.127162500052,None,5,3.659348399960436,2533.127162500052,None,2536.8260309000034,None,2536.8260309000034,None,2537.3539063000353,None,2537.3539063000353,None,2537.3539063000353,None,f,0.8883067000424489,2537.3539063000353,None,sing15,001,2019_Oct_31_1615,ProdFawcett_Revision2019,3.2.3,59.97681294116825,
,,,,45,0,45,0,,,,,,,,,,,,,2542.8864909000695,None,,,,,,,,,,,,,,,,,,,,,,breath,D_new,45,27,2538.807865500101,None,2538.807865500101,None,2538.807865500101,None,1,2.042470399988815,2538.807865500101,None,2540.8984066999983,None,2540.8984066999983,None,2541.4245308000827,None,2541.4245308000827,None,2541.4245308000827,None,n,1.4258413000497967,2541.4245308000827,None,sing15,001,2019_Oct_31_1615,ProdFawcett_Revision2019,3.2.3,59.97681294116825,
,,,,46,0,46,0,,,,,,,,,,,,,2547.4542125000153,None,,,,,,,,,,,,,,,,,,,,,,department,B_aloud,46,90,2543.398772500106,None,2543.398772500106,None,2543.398772500106,None,6,1.7954440000467002,2543.398772500106,None,2545.247665800038,None,2545.247665800038,None,2545.769584499998,None,2545.769584499998,None,2545.769584499998,None,f,1.6406924000475556,2545.769584499998,None,sing15,001,2019_Oct_31_1615,ProdFawcett_Revision2019,3.2.3,59.97681294116825,
,,,,47,0,47,0,,,,,,,,,,,,,2552.1566291000927,None,,,,,,,,,,,,,,,,,,,,,,narrow,D_new,47,197,2547.975022000028,None,2547.975022000028,None,2547.975022000028,None,1,2.595144800026901,2547.975022000028,None,2550.601043100003,None,2550.601043100003,None,2551.110294300015,None,2551.110294300015,None,2551.110294300015,None,n,1.0123100000200793,2551.110294300015,None,sing15,001,2019_Oct_31_1615,ProdFawcett_Revision2019,3.2.3,59.97681294116825,
,,,,48,0,48,0,,,,,,,,,,,,,2560.0887563000433,None,,,,,,,,,,,,,,,,,,,,,,generation,A_silent,48,136,2552.689327500062,None,2552.689327500062,None,2552.689327500062,None,1,5.336969699943438,2552.689327500062,None,2558.087202600087,None,2558.087202600087,None,2558.59334770008,None,2558.59334770008,None,2558.59334770008,None,f,1.4492234999779612,2558.59334770008,None,sing15,001,2019_Oct_31_1615,ProdFawcett_Revision2019,3.2.3,59.97681294116825,
,,,,49,0,49,0,,,,,,,,,,,,,2571.955379100051,None,,,,,,,,,,,,,,,,,,,,,,principal,D_new,49,236,2560.6085626001004,None,2560.6085626001004,None,2560.6085626001004,None,1,9.27372049994301,2560.6085626001004,None,2569.934785300051,None,2569.934785300051,None,2570.4582962000277,None,2570.4582962000277,None,2570.4582962000277,None,n,1.4640804999507964,2570.4582962000277,None,sing15,001,2019_Oct_31_1615,ProdFawcett_Revision2019,3.2.3,59.97681294116825,
,,,,50,0,50,0,,,,,,,,,,,,,2577.2873150000814,None,,,,,,,,,,,,,,,,,,,,,,height,D_new,50,152,2572.478453800082,None,2572.478453800082,None,2572.478453800082,None,6,2.3401204999536276,2572.478453800082,None,2574.863968700054,None,2574.863968700054,None,2575.3923062999966,None,2575.3923062999966,None,2575.3923062999966,None,r,1.865782499895431,2575.3923062999966,None,sing15,001,2019_Oct_31_1615,ProdFawcett_Revision2019,3.2.3,59.97681294116825,
,,,,51,0,51,0,,,,,,,,,,,,,2586.54711350007,None,,,,,,,,,,,,,,,,,,,,,,angle,B_aloud,51,7,2577.807655100012,None,2577.807655100012,None,2577.807655100012,None,6,6.722609500051476,2577.807655100012,None,2584.5917529000435,None,2584.5917529000435,None,2585.099121300038,None,2585.099121300038,None,2585.099121300038,None,r,1.3991939999395981,2585.099121300038,None,sing15,001,2019_Oct_31_1615,ProdFawcett_Revision2019,3.2.3,59.97681294116825,
,,,,52,0,52,0,,,,,,,,,,,,,2591.388704700046,None,,,,,,,,,,,,,,,,,,,,,,style,B_aloud,52,311,2587.0750117000425,None,2587.0750117000425,None,2587.0750117000425,None,6,2.93523949990049,2587.0750117000425,None,2590.0473722000606,None,2590.0473722000606,None,2590.573535200092,None,2590.573535200092,None,2590.573535200092,None,r,0.7807904999936,2590.573535200092,None,sing15,001,2019_Oct_31_1615,ProdFawcett_Revision2019,3.2.3,59.97681294116825,
,,,,53,0,53,0,,,,,,,,,,,,,2595.1772298000287,None,,,,,,,,,,,,,,,,,,,,,,brilliant,D_new,53,30,2591.907883100095,None,2591.907883100095,None,2591.907883100095,None,1,1.9666928000515327,2591.907883100095,None,2593.9151584000792,None,2593.9151584000792,None,2594.441556600039,None,2594.441556600039,None,2594.441556600039,None,n,0.6887201999779791,2594.441556600039,None,sing15,001,2019_Oct_31_1615,ProdFawcett_Revision2019,3.2.3,59.97681294116825,
,,,,54,0,54,0,,,,,,,,,,,,,2599.7568350000074,None,,,,,,,,,,,,,,,,,,,,,,resistance,B_aloud,54,262,2595.7066947000567,None,2595.7066947000567,None,2595.7066947000567,None,6,2.087601099978201,2595.7066947000567,None,2597.8355784000596,None,2597.8355784000596,None,2598.3604043000378,None,2598.3604043000378,None,2598.3604043000378,None,r,1.3619734999956563,2598.3604043000378,None,sing15,001,2019_Oct_31_1615,ProdFawcett_Revision2019,3.2.3,59.97681294116825,
,,,,55,0,55,0,,,,,,,,,,,,,2603.623553200043,None,,,,,,,,,,,,,,,,,,,,,,exchange,B_aloud,55,121,2600.280232100049,None,2600.280232100049,None,2600.280232100049,None,6,2.0501180000137538,2600.280232100049,None,2602.385454500094,None,2602.385454500094,None,2602.909527700045,None,2602.909527700045,None,2602.909527700045,None,f,0.6768998999614269,2602.909527700045,None,sing15,001,2019_Oct_31_1615,ProdFawcett_Revision2019,3.2.3,59.97681294116825,
,,,,56,0,56,0,,,,,,,,,,,,,2609.656747800065,None,,,,,,,,,,,,,,,,,,,,,,whole,B_aloud,56,355,2604.1452300000237,None,2604.1452300000237,None,2604.1452300000237,None,3,4.081342999939807,2604.1452300000237,None,2608.27343140007,None,2608.27343140007,None,2608.7897250000387,None,2608.7897250000387,None,2608.7897250000387,None,f,0.8367026000050828,2608.7897250000387,None,sing15,001,2019_Oct_31_1615,ProdFawcett_Revision2019,3.2.3,59.97681294116825,
,,,,57,0,57,0,,,,,,,,,,,,,2619.5413311000448,None,,,,,,,,,,,,,,,,,,,,,,recall,D_new,57,255,2610.176927100052,None,2610.176927100052,None,2610.176927100052,None,1,5.217202800093219,2610.176927100052,None,2615.436810900108,None,2615.436810900108,None,2615.9562248000875,None,2615.9562248000875,None,2615.9562248000875,None,f,3.5421695000259206,2615.9562248000875,None,sing15,001,2019_Oct_31_1615,ProdFawcett_Revision2019,3.2.3,59.97681294116825,
,,,,58,0,58,0,,,,,,,,,,,,,2625.5752359000035,None,,,,,,,,,,,,,,,,,,,,,,husband,A_silent,58,156,2620.064487399999,None,2620.064487399999,None,2620.064487399999,None,1,3.769806700060144,2620.064487399999,None,2623.8847848000005,None,2623.8847848000005,None,2624.4112841000315,None,2624.4112841000315,None,2624.4112841000315,None,n,1.1189330000197515,2624.4112841000315,None,sing15,001,2019_Oct_31_1615,ProdFawcett_Revision2019,3.2.3,59.97681294116825,
,,,,59,0,59,0,,,,,,,,,,,,,2634.6083971000044,None,,,,,,,,,,,,,,,,,,,,,,theme,A_silent,59,326,2626.0939929001033,None,2626.0939929001033,None,2626.0939929001033,None,6,4.556250000023283,2626.0939929001033,None,2630.6988541000756,None,2630.6988541000756,None,2631.222916500061,None,2631.222916500061,None,2631.222916500061,None,r,3.355707500013523,2631.222916500061,None,sing15,001,2019_Oct_31_1615,ProdFawcett_Revision2019,3.2.3,59.97681294116825,
,,,,60,0,60,0,,,,,,,,,,,,,2639.5287083000876,None,,,,,,,,,,,,,,,,,,,,,,entrance,D_new,60,115,2635.1206475000363,None,2635.1206475000363,None,2635.1206475000363,None,6,2.425616899970919,2635.1206475000363,None,2637.5923113001045,None,2637.5923113001045,None,2638.107658800087,None,2638.107658800087,None,2638.107658800087,None,r,1.3827675000065938,2638.107658800087,None,sing15,001,2019_Oct_31_1615,ProdFawcett_Revision2019,3.2.3,59.97681294116825,
,,,,61,0,61,0,,,,,,,,,,,,,2644.09311310004,None,,,,,,,,,,,,,,,,,,,,,,sound,D_new,61,295,2640.0475895000855,None,2640.0475895000855,None,2640.0475895000855,None,6,2.522703900001943,2640.0475895000855,None,2642.621726200101,None,2642.621726200101,None,2643.138535200036,None,2643.138535200036,None,2643.138535200036,None,f,0.9117225999943912,2643.138535200036,None,sing15,001,2019_Oct_31_1615,ProdFawcett_Revision2019,3.2.3,59.97681294116825,
,,,,62,0,62,0,,,,,,,,,,,,,2647.926491899998,None,,,,,,,,,,,,,,,,,,,,,,level,D_new,62,170,2644.6186886000214,None,2644.6186886000214,None,2644.6186886000214,None,1,1.7995576999383047,2644.6186886000214,None,2646.4610718000913,None,2646.4610718000913,None,2646.978013400105,None,2646.978013400105,None,2646.978013400105,None,n,0.9043877999065444,2646.978013400105,None,sing15,001,2019_Oct_31_1615,ProdFawcett_Revision2019,3.2.3,59.97681294116825,
,,,,63,0,63,0,,,,,,,,,,,,,2653.6955519000767,None,,,,,,,,,,,,,,,,,,,,,,short,D_new,63,285,2648.445373900002,None,2648.445373900002,None,2648.445373900002,None,1,3.7248639999888837,2648.445373900002,None,2652.22436880006,None,2652.22436880006,None,2652.743103700108,None,2652.743103700108,None,2652.743103700108,None,n,0.9151957998983562,2652.743103700108,None,sing15,001,2019_Oct_31_1615,ProdFawcett_Revision2019,3.2.3,59.97681294116825,
,,,,64,0,64,0,,,,,,,,,,,,,2659.5441715000197,None,,,,,,,,,,,,,,,,,,,,,,permit,D_new,64,218,2654.213292900007,None,2654.213292900007,None,2654.213292900007,None,1,1.8529728999128565,2654.213292900007,None,2656.1273048000876,None,2656.1273048000876,None,2656.639818900032,None,2656.639818900032,None,2656.639818900032,None,n,2.87469979992602,2656.639818900032,None,sing15,001,2019_Oct_31_1615,ProdFawcett_Revision2019,3.2.3,59.97681294116825,
,,,,65,0,65,0,,,,,,,,,,,,,2665.095146000036,None,,,,,,,,,,,,,,,,,,,,,,shear,A_silent,65,283,2660.0604005000787,None,2660.0604005000787,None,2660.0604005000787,None,1,1.7819619999499992,2660.0604005000787,None,2661.8903385000303,None,2661.8903385000303,None,2662.412264100043,None,2662.412264100043,None,2662.412264100043,None,f,2.6460804000962526,2662.412264100043,None,sing15,001,2019_Oct_31_1615,ProdFawcett_Revision2019,3.2.3,59.97681294116825,
,,,,66,0,66,0,,,,,,,,,,,,,2669.1111419000663,None,,,,,,,,,,,,,,,,,,,,,,congress,B_aloud,66,67,2665.622353200102,None,2665.622353200102,None,2665.622353200102,None,6,2.683911700034514,2665.622353200102,None,2668.3618133000564,None,2668.3618133000564,None,2668.879540099995,None,2668.879540099995,None,2668.879540099995,None,r,0.19450240000151098,2668.879540099995,None,sing15,001,2019_Oct_31_1615,ProdFawcett_Revision2019,3.2.3,59.97681294116825,
,,,,67,0,67,0,,,,,,,,,,,,,2680.663516300032,None,,,,,,,,,,,,,,,,,,,,,,addition,B_aloud,67,2,2669.6175720000174,None,2669.6175720000174,None,2669.6175720000174,None,6,8.720834400039166,2669.6175720000174,None,2678.376030800049,None,2678.376030800049,None,2678.898580200039,None,2678.898580200039,None,2678.898580200039,None,r,1.7278458999935538,2678.898580200039,None,sing15,001,2019_Oct_31_1615,ProdFawcett_Revision2019,3.2.3,59.97681294116825,
,,,,68,0,68,0,,,,,,,,,,,,,2685.795383800054,None,,,,,,,,,,,,,,,,,,,,,,rough,A_silent,68,266,2681.185140500078,None,2681.185140500078,None,2681.185140500078,None,5,3.1615149000426754,2681.185140500078,None,2684.381148900022,None,2684.381148900022,None,2684.898642400047,None,2684.898642400047,None,2684.898642400047,None,f,0.8556019000243396,2684.898642400047,None,sing15,001,2019_Oct_31_1615,ProdFawcett_Revision2019,3.2.3,59.97681294116825,
,,,,69,0,69,0,,,,,,,,,,,,,2691.4370381000917,None,,,,,,,,,,,,,,,,,,,,,,institute,D_new,69,162,2686.3157780000474,None,2686.3157780000474,None,2686.3157780000474,None,1,3.1661395999835804,2686.3157780000474,None,2689.503979800036,None,2689.503979800036,None,2690.0277919000946,None,2690.0277919000946,None,2690.0277919000946,None,f,1.3823491000803187,2690.0277919000946,None,sing15,001,2019_Oct_31_1615,ProdFawcett_Revision2019,3.2.3,59.97681294116825,
,,,,70,0,70,0,,,,,,,,,,,,,2698.631113800104,None,,,,,,,,,,,,,,,,,,,,,,accident,B_aloud,70,0,2691.9522693000035,None,2691.9522693000035,None,2691.9522693000035,None,6,4.682057700003497,2691.9522693000035,None,2696.6760966000147,None,2696.6760966000147,None,2697.1942871001083,None,2697.1942871001083,None,2697.1942871001083,None,r,1.3920911999884993,2697.1942871001083,None,sing15,001,2019_Oct_31_1615,ProdFawcett_Revision2019,3.2.3,59.97681294116825,
,,,,71,0,71,0,,,,,,,,,,,,,2704.8645522000734,None,,,,,,,,,,,,,,,,,,,,,,research,B_aloud,71,261,2699.1490089000436,None,2699.1490089000436,None,2699.1490089000436,None,6,4.349257900030352,2699.1490089000436,None,2703.54014190007,None,2703.54014190007,None,2704.053469900042,None,2704.053469900042,None,2704.053469900042,None,r,0.7648288999916986,2704.053469900042,None,sing15,001,2019_Oct_31_1615,ProdFawcett_Revision2019,3.2.3,59.97681294116825,
,,,,72,0,72,0,,,,,,,,,,,,,2708.614276400069,None,,,,,,,,,,,,,,,,,,,,,,council,B_aloud,72,71,2705.3828434000025,None,2705.3828434000025,None,2705.3828434000025,None,6,2.123837499995716,2705.3828434000025,None,2707.5544515000656,None,2707.5544515000656,None,2708.079527700087,None,2708.079527700087,None,2708.079527700087,None,r,0.49071729998104274,2708.079527700087,None,sing15,001,2019_Oct_31_1615,ProdFawcett_Revision2019,3.2.3,59.97681294116825,
,,,,73,0,73,0,,,,,,,,,,,,,2712.798644100083,None,,,,,,,,,,,,,,,,,,,,,,majority,A_silent,73,176,2709.1209894000785,None,2709.1209894000785,None,2709.1209894000785,None,1,2.321369200013578,2709.1209894000785,None,2711.4996107000625,None,2711.4996107000625,None,2712.0199002000736,None,2712.0199002000736,None,2712.0199002000736,None,n,0.7423163000494242,2712.0199002000736,None,sing15,001,2019_Oct_31_1615,ProdFawcett_Revision2019,3.2.3,59.97681294116825,
,,,,74,0,74,0,,,,,,,,,,,,,2716.815108500072,None,,,,,,,,,,,,,,,,,,,,,,shape,D_new,74,282,2713.3198895000387,None,2713.3198895000387,None,2713.3198895000387,None,6,2.514435000019148,2713.3198895000387,None,2715.8771610000404,None,2715.8771610000404,None,2716.3981163999997,None,2716.3981163999997,None,2716.3981163999997,None,r,0.3803928999695927,2716.3981163999997,None,sing15,001,2019_Oct_31_1615,ProdFawcett_Revision2019,3.2.3,59.97681294116825,
,,,,75,0,75,0,,,,,,,,,,,,,2721.565285400022,None,,,,,,,,,,,,,,,,,,,,,,range,A_silent,75,251,2717.3385964001063,None,2717.3385964001063,None,2717.3385964001063,None,1,2.7278408999554813,2717.3385964001063,None,2720.1141121000983,None,2720.1141121000983,None,2720.630898500094,None,2720.630898500094,None,2720.630898500094,None,n,0.8913989999564365,2720.630898500094,None,sing15,001,2019_Oct_31_1615,ProdFawcett_Revision2019,3.2.3,59.97681294116825,
,,,,76,0,76,0,,,,,,,,,,,,,2726.3557896000566,None,,,,,,,,,,,,,,,,,,,,,,tough,C_sing,76,333,2722.088830100023,None,2722.088830100023,None,2722.088830100023,None,6,2.1693874000338838,2722.088830100023,None,2724.3138709000777,None,2724.3138709000777,None,2724.834778600023,None,2724.834778600023,None,2724.834778600023,None,n,1.4955890999408439,2724.834778600023,None,sing15,001,2019_Oct_31_1615,ProdFawcett_Revision2019,3.2.3,59.97681294116825,
,,,,77,0,77,0,,,,,,,,,,,,,2730.68519800005,None,,,,,,,,,,,,,,,,,,,,,,poetry,C_sing,77,225,2726.8884119000286,None,2726.8884119000286,None,2726.8884119000286,None,6,3.0579293000046164,2726.8884119000286,None,2729.9908350000624,None,2729.9908350000624,None,2730.5179928001016,None,2730.5179928001016,None,2730.5179928001016,None,r,0.13258520001545548,2730.5179928001016,None,sing15,001,2019_Oct_31_1615,ProdFawcett_Revision2019,3.2.3,59.97681294116825,
,,,,78,0,78,0,,,,,,,,,,,,,2735.086022500065,None,,,,,,,,,,,,,,,,,,,,,,general,C_sing,78,135,2731.2128568000626,None,2731.2128568000626,None,2731.2128568000626,None,6,2.221636800095439,2731.2128568000626,None,2733.473814600031,None,2733.473814600031,None,2734.006331200013,None,2734.006331200013,None,2734.006331200013,None,f,1.0359919000184163,2734.006331200013,None,sing15,001,2019_Oct_31_1615,ProdFawcett_Revision2019,3.2.3,59.97681294116825,
,,,,79,0,79,0,,,,,,,,,,,,,2738.862081900006,None,,,,,,,,,,,,,,,,,,,,,,career,D_new,79,42,2735.618268600083,None,2735.618268600083,None,2735.618268600083,None,1,1.5760226000566036,2735.618268600083,None,2737.2469838000834,None,2737.2469838000834,None,2737.7665256001055,None,2737.7665256001055,None,2737.7665256001055,None,n,1.0519995999056846,2737.7665256001055,None,sing15,001,2019_Oct_31_1615,ProdFawcett_Revision2019,3.2.3,59.97681294116825,
,,,,80,0,80,0,,,,,,,,,,,,,2742.7228622999974,None,,,,,,,,,,,,,,,,,,,,,,incident,D_new,80,158,2739.3736351000844,None,2739.3736351000844,None,2739.3736351000844,None,1,2.0288918999722227,2739.3736351000844,None,2741.445184200071,None,2741.445184200071,None,2741.966622200096,None,2741.966622200096,None,2741.966622200096,None,n,0.7316217999905348,2741.966622200096,None,sing15,001,2019_Oct_31_1615,ProdFawcett_Revision2019,3.2.3,59.97681294116825,
,,,,81,0,81,0,,,,,,,,,,,,,2746.76777460007,None,,,,,,,,,,,,,,,,,,,,,,split,C_sing,81,299,2743.239672200056,None,2743.239672200056,None,2743.239672200056,None,6,2.3387645999900997,2743.239672200056,None,2745.6229011000833,None,2745.6229011000833,None,2746.1481966000283,None,2746.1481966000283,None,2746.1481966000283,None,r,0.5740467000287026,2746.1481966000283,None,sing15,001,2019_Oct_31_1615,ProdFawcett_Revision2019,3.2.3,59.97681294116825,
,,,,82,0,82,0,,,,,,,,,,,,,2750.7958564000437,None,,,,,,,,,,,,,,,,,,,,,,skill,D_new,82,289,2747.278509600088,None,2747.278509600088,None,2747.278509600088,None,1,1.7157564000226557,2747.278509600088,None,2749.0416221000487,None,2749.0416221000487,None,2749.558273700066,None,2749.558273700066,None,2749.558273700066,None,n,1.2041336999973282,2749.558273700066,None,sing15,001,2019_Oct_31_1615,ProdFawcett_Revision2019,3.2.3,59.97681294116825,
,,,,83,0,83,0,,,,,,,,,,,,,2757.2351540999953,None,,,,,,,,,,,,,,,,,,,,,,discovery,A_silent,83,95,2751.3204094000394,None,2751.3204094000394,None,2751.3204094000394,None,1,4.569805899984203,2751.3204094000394,None,2755.945019100094,None,2755.945019100094,None,2756.4606597000966,None,2756.4606597000966,None,2756.4606597000966,None,n,0.7336344999494031,2756.4606597000966,None,sing15,001,2019_Oct_31_1615,ProdFawcett_Revision2019,3.2.3,59.97681294116825,
,,,,84,0,84,0,,,,,,,,,,,,,2761.199602400069,None,,,,,,,,,,,,,,,,,,,,,,clear,D_new,84,52,2757.7527396000223,None,2757.7527396000223,None,2757.7527396000223,None,1,1.3935370999388397,2757.7527396000223,None,2759.2015780000947,None,2759.2015780000947,None,2759.7146996000083,None,2759.7146996000083,None,2759.7146996000083,None,f,1.4558687000535429,2759.7146996000083,None,sing15,001,2019_Oct_31_1615,ProdFawcett_Revision2019,3.2.3,59.97681294116825,
,,,,85,0,85,0,,,,,,,,,,,,,2765.049896300072,None,,,,,,,,,,,,,,,,,,,,,,balance,B_aloud,85,17,2761.723894500057,None,2761.723894500057,None,2761.723894500057,None,6,2.29464039998129,2761.723894500057,None,2764.0654560000403,None,2764.0654560000403,None,2764.5866478000535,None,2764.5866478000535,None,2764.5866478000535,None,r,0.4315265000332147,2764.5866478000535,None,sing15,001,2019_Oct_31_1615,ProdFawcett_Revision2019,3.2.3,59.97681294116825,
,,,,86,0,86,0,,,,,,,,,,,,,2768.3241048000054,None,,,,,,,,,,,,,,,,,,,,,,tennis,D_new,86,323,2765.570021499996,None,2765.570021499996,None,2765.570021499996,None,1,1.3042901000007987,2765.570021499996,None,2766.9304362999974,None,2766.9304362999974,None,2767.4521771,None,2767.4521771,None,2767.4521771,None,n,0.8379877000115812,2767.4521771,None,sing15,001,2019_Oct_31_1615,ProdFawcett_Revision2019,3.2.3,59.97681294116825,
,,,,87,0,87,0,,,,,,,,,,,,,2771.820106600062,None,,,,,,,,,,,,,,,,,,,,,,drove,D_new,87,106,2768.8494776000734,None,2768.8494776000734,None,2768.8494776000734,None,1,1.5607893000124022,2768.8494776000734,None,2770.45088150003,None,2770.45088150003,None,2770.9706680000527,None,2770.9706680000527,None,2770.9706680000527,None,n,0.8076689000008628,2770.9706680000527,None,sing15,001,2019_Oct_31_1615,ProdFawcett_Revision2019,3.2.3,59.97681294116825,
,,,,88,0,88,0,,,,,,,,,,,,,2775.0849397000857,None,,,,,,,,,,,,,,,,,,,,,,reading,D_new,88,254,2772.3414397001034,None,2772.3414397001034,None,2772.3414397001034,None,1,1.5731264000060037,2772.3414397001034,None,2773.9682938000187,None,2773.9682938000187,None,2774.4873104,None,2774.4873104,None,2774.4873104,None,n,0.5549807000206783,2774.4873104,None,sing15,001,2019_Oct_31_1615,ProdFawcett_Revision2019,3.2.3,59.97681294116825,
,,,,89,0,89,0,,,,,,,,,,,,,2780.621261900058,None,,,,,,,,,,,,,,,,,,,,,,revolution,D_new,89,264,2775.6108219000744,None,2775.6108219000744,None,2775.6108219000744,None,5,3.575270799919963,2775.6108219000744,None,2779.216777900001,None,2779.216777900001,None,2779.727691200096,None,2779.727691200096,None,2779.727691200096,None,f,0.8589412000728771,2779.727691200096,None,sing15,001,2019_Oct_31_1615,ProdFawcett_Revision2019,3.2.3,59.97681294116825,
,,,,90,0,90,0,,,,,,,,,,,,,2785.588526000036,None,,,,,,,,,,,,,,,,,,,,,,notice,C_sing,90,201,2781.138014300028,None,2781.138014300028,None,2781.138014300028,None,6,2.536281200009398,2781.138014300028,None,2783.733206700068,None,2783.733206700068,None,2784.254128700006,None,2784.254128700006,None,2784.254128700006,None,r,1.3001835000468418,2784.254128700006,None,sing15,001,2019_Oct_31_1615,ProdFawcett_Revision2019,3.2.3,59.97681294116825,
,,,,91,0,91,0,,,,,,,,,,,,,2789.5434222000185,None,,,,,,,,,,,,,,,,,,,,,,drama,D_new,91,103,2786.1046023000963,None,2786.1046023000963,None,2786.1046023000963,None,1,1.4735811999998987,2786.1046023000963,None,2787.6263460000046,None,2787.6263460000046,None,2788.154224200058,None,2788.154224200058,None,2788.154224200058,None,n,1.3678314000135288,2788.154224200058,None,sing15,001,2019_Oct_31_1615,ProdFawcett_Revision2019,3.2.3,59.97681294116825,
,,,,92,0,92,0,,,,,,,,,,,,,2795.603655700106,None,,,,,,,,,,,,,,,,,,,,,,volume,B_aloud,92,349,2790.063904000097,None,2790.063904000097,None,2790.063904000097,None,1,1.93906850006897,2790.063904000097,None,2792.0566043000435,None,2792.0566043000435,None,2792.568603700027,None,2792.568603700027,None,2792.568603700027,None,n,3.002032099990174,2792.568603700027,None,sing15,001,2019_Oct_31_1615,ProdFawcett_Revision2019,3.2.3,59.97681294116825,
,,,,93,0,93,0,,,,,,,,,,,,,2800.138490900048,None,,,,,,,,,,,,,,,,,,,,,,management,D_new,93,177,2796.1184001000365,None,2796.1184001000365,None,2796.1184001000365,None,1,2.387893999926746,2796.1184001000365,None,2798.5679872001056,None,2798.5679872001056,None,2799.076512800064,None,2799.076512800064,None,2799.076512800064,None,n,1.0300516999559477,2799.076512800064,None,sing15,001,2019_Oct_31_1615,ProdFawcett_Revision2019,3.2.3,59.97681294116825,
,,,,94,0,94,0,,,,,,,,,,,,,2803.2871309000766,None,,,,,,,,,,,,,,,,,,,,,,colonel,A_silent,94,55,2800.656048700097,None,2800.656048700097,None,2800.656048700097,None,1,1.58623669994995,2800.656048700097,None,2802.2944263000973,None,2802.2944263000973,None,2802.8188134999946,None,2802.8188134999946,None,2802.8188134999946,None,n,0.4316204000497237,2802.8188134999946,None,sing15,001,2019_Oct_31_1615,ProdFawcett_Revision2019,3.2.3,59.97681294116825,
,,,,95,0,95,0,,,,,,,,,,,,,2808.9951127000386,None,,,,,,,,,,,,,,,,,,,,,,trial,D_new,95,341,2803.7932278000517,None,2803.7932278000517,None,2803.7932278000517,None,3,4.001045100041665,2803.7932278000517,None,2807.8449917000253,None,2807.8449917000253,None,2808.3695176000474,None,2808.3695176000474,None,2808.3695176000474,None,f,0.585236300015822,2808.3695176000474,None,sing15,001,2019_Oct_31_1615,ProdFawcett_Revision2019,3.2.3,59.97681294116825,
,,,,96,0,96,0,,,,,,,,,,,,,2816.228477800032,None,,,,,,,,,,,,,,,,,,,,,,question,C_sing,96,247,2809.526006900007,None,2809.526006900007,None,2809.526006900007,None,6,5.70851219992619,2809.526006900007,None,2815.28750440001,None,2815.28750440001,None,2815.7946309000254,None,2815.7946309000254,None,2815.7946309000254,None,r,0.3994750001002103,2815.7946309000254,None,sing15,001,2019_Oct_31_1615,ProdFawcett_Revision2019,3.2.3,59.97681294116825,
,,,,97,0,97,0,,,,,,,,,,,,,2819.4235165000428,None,,,,,,,,,,,,,,,,,,,,,,commercial,D_new,97,61,2816.7551716000307,None,2816.7551716000307,None,2816.7551716000307,None,1,1.5833064999897033,2816.7551716000307,None,2818.386009900016,None,2818.386009900016,None,2818.9045303000603,None,2818.9045303000603,None,2818.9045303000603,None,n,0.4817360999295488,2818.9045303000603,None,sing15,001,2019_Oct_31_1615,ProdFawcett_Revision2019,3.2.3,59.97681294116825,
,,,,98,0,98,0,,,,,,,,,,,,,2823.4536910000024,None,,,,,,,,,,,,,,,,,,,,,,quarter,D_new,98,246,2819.9446377001004,None,2819.9446377001004,None,2819.9446377001004,None,1,2.3138504000380635,2819.9446377001004,None,2822.2998424000107,None,2822.2998424000107,None,2822.829545900109,None,2822.829545900109,None,2822.829545900109,None,n,0.5804786001099274,2822.829545900109,None,sing15,001,2019_Oct_31_1615,ProdFawcett_Revision2019,3.2.3,59.97681294116825,
,,,,99,0,99,0,,,,,,,,,,,,,2826.3232966000214,None,,,,,,,,,,,,,,,,,,,,,,surface,D_new,99,316,2823.96729150007,None,2823.96729150007,None,2823.96729150007,None,1,1.6348130999831483,2823.96729150007,None,2825.6315844000783,None,2825.6315844000783,None,2826.1449197001057,None,2826.1449197001057,None,2826.1449197001057,None,n,0.14542199997231364,2826.1449197001057,None,sing15,001,2019_Oct_31_1615,ProdFawcett_Revision2019,3.2.3,59.97681294116825,
,,,,100,0,100,0,,,,,,,,,,,,,2829.821802300052,None,,,,,,,,,,,,,,,,,,,,,,rapid,D_new,100,252,2826.8403113000095,None,2826.8403113000095,None,2826.8403113000095,None,1,2.2015458999667317,2826.8403113000095,None,2829.0809301000554,None,2829.0809301000554,None,2829.6044033000944,None,2829.6044033000944,None,2829.6044033000944,None,n,0.18213099997956306,2829.6044033000944,None,sing15,001,2019_Oct_31_1615,ProdFawcett_Revision2019,3.2.3,59.97681294116825,
,,,,101,0,101,0,,,,,,,,,,,,,2836.511973800021,None,,,,,,,,,,,,,,,,,,,,,,staff,D_new,101,301,2830.338525600033,None,2830.338525600033,None,2830.338525600033,None,5,4.759712800034322,2830.338525600033,None,2835.1460972001078,None,2835.1460972001078,None,2835.67071220011,None,2835.67071220011,None,2835.67071220011,None,f,0.8114365000510588,2835.67071220011,None,sing15,001,2019_Oct_31_1615,ProdFawcett_Revision2019,3.2.3,59.97681294116825,
,,,,102,0,102,0,,,,,,,,,,,,,2841.9873872000026,None,,,,,,,,,,,,,,,,,,,,,,smooth,D_new,102,292,2837.039321200107,None,2837.039321200107,None,2837.039321200107,None,1,3.6676149000413716,2837.039321200107,None,2840.7476706000743,None,2840.7476706000743,None,2841.273928200011,None,2841.273928200011,None,2841.273928200011,None,n,0.6800865000113845,2841.273928200011,None,sing15,001,2019_Oct_31_1615,ProdFawcett_Revision2019,3.2.3,59.97681294116825,
,,,,103,0,103,0,,,,,,,,,,,,,2848.9928435001057,None,,,,,,,,,,,,,,,,,,,,,,shock,A_silent,103,284,2842.497781400103,None,2842.497781400103,None,2842.497781400103,None,6,5.232512500020675,2842.497781400103,None,2847.7869594000513,None,2847.7869594000513,None,2848.307070900104,None,2848.307070900104,None,2848.307070900104,None,f,0.6473846000153571,2848.307070900104,None,sing15,001,2019_Oct_31_1615,ProdFawcett_Revision2019,3.2.3,59.97681294116825,
,,,,104,0,104,0,,,,,,,,,,,,,2857.124921900104,None,,,,,,,,,,,,,,,,,,,,,,machinery,C_sing,104,175,2849.5083566000685,None,2849.5083566000685,None,2849.5083566000685,None,6,2.245740700047463,2849.5083566000685,None,2851.7869050001027,None,2851.7869050001027,None,2852.297572700074,None,2852.297572700074,None,2852.297572700074,None,f,4.793230600073002,2852.297572700074,None,sing15,001,2019_Oct_31_1615,ProdFawcett_Revision2019,3.2.3,59.97681294116825,
,,,,105,0,105,0,,,,,,,,,,,,,2861.775680400082,None,,,,,,,,,,,,,,,,,,,,,,beginning,D_new,105,19,2857.655506900046,None,2857.655506900046,None,2857.655506900046,None,1,2.4427913000108674,2857.655506900046,None,2860.158565800055,None,2860.158565800055,None,2860.684398000012,None,2860.684398000012,None,2860.684398000012,None,n,1.0457797999260947,2860.684398000012,None,sing15,001,2019_Oct_31_1615,ProdFawcett_Revision2019,3.2.3,59.97681294116825,
,,,,106,0,106,0,,,,,,,,,,,,,2865.2096893000416,None,,,,,,,,,,,,,,,,,,,,,,search,D_new,106,276,2862.2940485000145,None,2862.2940485000145,None,2862.2940485000145,None,6,1.884178299922496,2862.2940485000145,None,2864.215599899995,None,2864.215599899995,None,2864.731434000074,None,2864.731434000074,None,2864.731434000074,None,r,0.43916880001779646,2864.731434000074,None,sing15,001,2019_Oct_31_1615,ProdFawcett_Revision2019,3.2.3,59.97681294116825,
,,,,107,0,107,0,,,,,,,,,,,,,2870.762338200002,None,,,,,,,,,,,,,,,,,,,,,,discussion,C_sing,107,96,2865.7321733999997,None,2865.7321733999997,None,2865.7321733999997,None,1,3.0222550000762567,2865.7321733999997,None,2868.799560900079,None,2868.799560900079,None,2869.3279559001094,None,2869.3279559001094,None,2869.3279559001094,None,f,1.4022063000593334,2869.3279559001094,None,sing15,001,2019_Oct_31_1615,ProdFawcett_Revision2019,3.2.3,59.97681294116825,
,,,,108,0,108,0,,,,,,,,,,,,,2879.3605292000575,None,,,,,,,,,,,,,,,,,,,,,,appearance,A_silent,108,10,2871.295109800063,None,2871.295109800063,None,2871.295109800063,None,6,6.075312900007702,2871.295109800063,None,2877.4172240000917,None,2877.4172240000917,None,2877.9433094999986,None,2877.9433094999986,None,2877.9433094999986,None,r,1.3708942000521347,2877.9433094999986,None,sing15,001,2019_Oct_31_1615,ProdFawcett_Revision2019,3.2.3,59.97681294116825,
,,,,109,0,109,0,,,,,,,,,,,,,2882.915653200005,None,,,,,,,,,,,,,,,,,,,,,,strength,B_aloud,109,310,2879.8726332000224,None,2879.8726332000224,None,2879.8726332000224,None,6,2.0256282999180257,2879.8726332000224,None,2881.9596016000723,None,2881.9596016000723,None,2882.478119000094,None,2882.478119000094,None,2882.478119000094,None,r,0.41184159996919334,2882.478119000094,None,sing15,001,2019_Oct_31_1615,ProdFawcett_Revision2019,3.2.3,59.97681294116825,
,,,,110,0,110,0,,,,,,,,,,,,,2887.676466600038,None,,,,,,,,,,,,,,,,,,,,,,charter,D_new,110,47,2883.4426958000986,None,2883.4426958000986,None,2883.4426958000986,None,1,2.85556599998381,2883.4426958000986,None,2886.3492140000453,None,2886.3492140000453,None,2886.8755991000216,None,2886.8755991000216,None,2886.8755991000216,None,n,0.7586238000076264,2886.8755991000216,None,sing15,001,2019_Oct_31_1615,ProdFawcett_Revision2019,3.2.3,59.97681294116825,
,,,,111,0,111,0,,,,,,,,,,,,,2891.0373012000928,None,,,,,,,,,,,,,,,,,,,,,,scene,A_silent,111,273,2888.195922000101,None,2888.195922000101,None,2888.195922000101,None,6,1.9023240000242367,2888.195922000101,None,2890.154043000075,None,2890.154043000075,None,2890.674576600082,None,2890.674576600082,None,2890.674576600082,None,r,0.32784390007145703,2890.674576600082,None,sing15,001,2019_Oct_31_1615,ProdFawcett_Revision2019,3.2.3,59.97681294116825,
,,,,112,0,112,0,,,,,,,,,,,,,2895.2591960000573,None,,,,,,,,,,,,,,,,,,,,,,broke,D_new,112,32,2891.563814699999,None,2891.563814699999,None,2891.563814699999,None,1,1.8786405000137165,2891.563814699999,None,2893.488749000011,None,2893.488749000011,None,2894.0121599000413,None,2894.0121599000413,None,2894.0121599000413,None,n,1.2145723999710754,2894.0121599000413,None,sing15,001,2019_Oct_31_1615,ProdFawcett_Revision2019,3.2.3,59.97681294116825,
,,,,113,0,113,0,,,,,,,,,,,,,2905.283779300051,None,,,,,,,,,,,,,,,,,,,,,,audience,D_new,113,14,2895.779907900025,None,2895.779907900025,None,2895.779907900025,None,6,7.84644480003044,2895.779907900025,None,2903.674117500079,None,2903.674117500079,None,2904.1836589000886,None,2904.1836589000886,None,2904.1836589000886,None,n,1.0742643000558019,2904.1836589000886,None,sing15,001,2019_Oct_31_1615,ProdFawcett_Revision2019,3.2.3,59.97681294116825,
,,,,114,0,114,0,,,,,,,,,,,,,2915.114260200062,None,,,,,,,,,,,,,,,,,,,,,,period,D_new,114,217,2905.813247500104,None,2905.813247500104,None,2905.813247500104,None,6,8.501358700101264,2905.813247500104,None,2914.3570204999996,None,2914.3570204999996,None,2914.876003500074,None,2914.876003500074,None,2914.876003500074,None,r,0.19025449990294874,2914.876003500074,None,sing15,001,2019_Oct_31_1615,ProdFawcett_Revision2019,3.2.3,59.97681294116825,
,,,,115,0,115,0,,,,,,,,,,,,,2918.1952811999945,None,,,,,,,,,,,,,,,,,,,,,,couch,B_aloud,115,70,2915.628769700066,None,2915.628769700066,None,2915.628769700066,None,6,1.9094607000006363,2915.628769700066,None,2917.5865989000304,None,2917.5865989000304,None,2918.109713700018,None,2918.109713700018,None,2918.109713700018,None,r,0.044431100017391145,2918.109713700018,None,sing15,001,2019_Oct_31_1615,ProdFawcett_Revision2019,3.2.3,59.97681294116825,
,,,,116,0,116,0,,,,,,,,,,,,,2921.9785147000803,None,,,,,,,,,,,,,,,,,,,,,,harmony,D_new,116,148,2918.7171944000293,None,2918.7171944000293,None,2918.7171944000293,None,5,2.2929809999186546,2918.7171944000293,None,2921.056042600074,None,2921.056042600074,None,2921.5779633000493,None,2921.5779633000493,None,2921.5779633000493,None,f,0.36845379997976124,2921.5779633000493,None,sing15,001,2019_Oct_31_1615,ProdFawcett_Revision2019,3.2.3,59.97681294116825,
,,,,117,0,117,0,,,,,,,,,,,,,2924.9301159000024,None,,,,,,,,,,,,,,,,,,,,,,speech,B_aloud,117,298,2922.4963453999953,None,2922.4963453999953,None,2922.4963453999953,None,6,1.4578624999849126,2922.4963453999953,None,2924.002613699995,None,2924.002613699995,None,2924.5279574000742,None,2924.5279574000742,None,2924.5279574000742,None,r,0.3624212999129668,2924.5279574000742,None,sing15,001,2019_Oct_31_1615,ProdFawcett_Revision2019,3.2.3,59.97681294116825,
,,,,118,0,118,0,,,,,,,,,,,,,2929.926631500013,None,,,,,,,,,,,,,,,,,,,,,,swift,D_new,118,320,2925.457685600035,None,2925.457685600035,None,2925.457685600035,None,6,3.7210569999879226,2925.457685600035,None,2929.2216198000824,None,2929.2216198000824,None,2929.7487617000006,None,2929.7487617000006,None,2929.7487617000006,None,r,0.14933339995332062,2929.7487617000006,None,sing15,001,2019_Oct_31_1615,ProdFawcett_Revision2019,3.2.3,59.97681294116825,
,,,,119,0,119,0,,,,,,,,,,,,,2935.257757000043,None,,,,,,,,,,,,,,,,,,,,,,suspect,A_silent,119,318,2930.450316100032,None,2930.450316100032,None,2930.450316100032,None,1,2.0801538000814617,2930.450316100032,None,2932.5588686000556,None,2932.5588686000556,None,2933.0843161999946,None,2933.0843161999946,None,2933.0843161999946,None,n,2.1423488000873476,2933.0843161999946,None,sing15,001,2019_Oct_31_1615,ProdFawcett_Revision2019,3.2.3,59.97681294116825,
,,,,120,0,120,0,,,,,,,,,,,,,2939.9474849000107,None,,,,,,,,,,,,,,,,,,,,,,heavy,D_new,120,151,2935.7851108000614,None,2935.7851108000614,None,2935.7851108000614,None,6,2.5454031999688596,2935.7851108000614,None,2938.379192400025,None,2938.379192400025,None,2938.8982733000303,None,2938.8982733000303,None,2938.8982733000303,None,f,1.008044800022617,2938.8982733000303,None,sing15,001,2019_Oct_31_1615,ProdFawcett_Revision2019,3.2.3,59.97681294116825,
,,,,121,0,121,0,,,,,,,,,,,,,2943.847732400056,None,,,,,,,,,,,,,,,,,,,,,,phrase,D_new,121,220,2940.473071800079,None,2940.473071800079,None,2940.473071800079,None,1,2.0574810000834987,2940.473071800079,None,2942.5708533000434,None,2942.5708533000434,None,2943.095118700061,None,2943.095118700061,None,2943.095118700061,None,n,0.7071388000622392,2943.095118700061,None,sing15,001,2019_Oct_31_1615,ProdFawcett_Revision2019,3.2.3,59.97681294116825,
,,,,122,0,122,0,,,,,,,,,,,,,2948.0970786000835,None,,,,,,,,,,,,,,,,,,,,,,nature,C_sing,122,200,2944.3648939999985,None,2944.3648939999985,None,2944.3648939999985,None,6,1.9733539000153542,2944.3648939999985,None,2946.385298700072,None,2946.385298700072,None,2946.912206100067,None,2946.912206100067,None,2946.912206100067,None,r,1.1463876999914646,2946.912206100067,None,sing15,001,2019_Oct_31_1615,ProdFawcett_Revision2019,3.2.3,59.97681294116825,
,,,,123,0,123,0,,,,,,,,,,,,,2952.2323572000023,None,,,,,,,,,,,,,,,,,,,,,,turkey,D_new,123,342,2948.616244600038,None,2948.616244600038,None,2948.616244600038,None,1,1.3460144000127912,2948.616244600038,None,2950.0068748000776,None,2950.0068748000776,None,2950.529870700091,None,2950.529870700091,None,2950.529870700091,None,n,1.664467600057833,2950.529870700091,None,sing15,001,2019_Oct_31_1615,ProdFawcett_Revision2019,3.2.3,59.97681294116825,
,,,,124,0,124,0,,,,,,,,,,,,,2958.164986000047,None,,,,,,,,,,,,,,,,,,,,,,universal,A_silent,124,345,2952.754666200024,None,2952.754666200024,None,2952.754666200024,None,6,4.127765399985947,2952.754666200024,None,2956.9314397000708,None,2956.9314397000708,None,2957.4502843000228,None,2957.4502843000228,None,2957.4502843000228,None,r,0.6803206000477076,2957.4502843000228,None,sing15,001,2019_Oct_31_1615,ProdFawcett_Revision2019,3.2.3,59.97681294116825,
,,,,125,0,125,0,,,,,,,,,,,,,2961.248025500099,None,,,,,,,,,,,,,,,,,,,,,,thing,D_new,125,328,2958.676718400093,None,2958.676718400093,None,2958.676718400093,None,1,1.5095315999351442,2958.676718400093,None,2960.240637000068,None,2960.240637000068,None,2960.7650980000617,None,2960.7650980000617,None,2960.7650980000617,None,n,0.43722830002661794,2960.7650980000617,None,sing15,001,2019_Oct_31_1615,ProdFawcett_Revision2019,3.2.3,59.97681294116825,
,,,,126,0,126,0,,,,,,,,,,,,,2966.382962600095,None,,,,,,,,,,,,,,,,,,,,,,finance,A_silent,126,129,2961.7668381000403,None,2961.7668381000403,None,2961.7668381000403,None,1,2.9313708998961374,2961.7668381000403,None,2964.744477700093,None,2964.744477700093,None,2965.2635388000635,None,2965.2635388000635,None,2965.2635388000635,None,n,1.074654299998656,2965.2635388000635,None,sing15,001,2019_Oct_31_1615,ProdFawcett_Revision2019,3.2.3,59.97681294116825,
,,,,127,0,127,0,,,,,,,,,,,,,2969.1995951000135,None,,,,,,,,,,,,,,,,,,,,,,working,C_sing,127,357,2966.907709500054,None,2966.907709500054,None,2966.907709500054,None,1,1.5984718999825418,2966.907709500054,None,2968.5678876000457,None,2968.5678876000457,None,2969.0843685000436,None,2969.0843685000436,None,2969.0843685000436,None,n,0.07792760001029819,2969.0843685000436,None,sing15,001,2019_Oct_31_1615,ProdFawcett_Revision2019,3.2.3,59.97681294116825,
,,,,128,0,128,0,,,,,,,,,,,,,2971.8239341001026,None,,,,,,,,,,,,,,,,,,,,,,division,D_new,128,101,2969.718534200103,None,2969.718534200103,None,2969.718534200103,None,1,1.4439574000425637,2969.718534200103,None,2971.2150151000824,None,2971.2150151000824,None,2971.739501400036,None,2971.739501400036,None,2971.739501400036,None,n,0.05496340000536293,2971.739501400036,None,sing15,001,2019_Oct_31_1615,ProdFawcett_Revision2019,3.2.3,59.97681294116825,
,,,,129,0,129,0,,,,,,,,,,,,,2976.7001011000248,None,,,,,,,,,,,,,,,,,,,,,,frank,B_aloud,129,133,2972.3560388000915,None,2972.3560388000915,None,2972.3560388000915,None,6,2.8861970000434667,2972.3560388000915,None,2975.2942213000497,None,2975.2942213000497,None,2975.8139294000575,None,2975.8139294000575,None,2975.8139294000575,None,r,0.8443036000244319,2975.8139294000575,None,sing15,001,2019_Oct_31_1615,ProdFawcett_Revision2019,3.2.3,59.97681294116825,
,,,,130,0,130,0,,,,,,,,,,,,,2982.8013761000475,None,,,,,,,,,,,,,,,,,,,,,,member,A_silent,130,188,2977.2192127000308,None,2977.2192127000308,None,2977.2192127000308,None,3,4.815183199942112,2977.2192127000308,None,2982.0809931000695,None,2982.0809931000695,None,2982.601827400038,None,2982.601827400038,None,2982.601827400038,None,f,0.1607228999491781,2982.601827400038,None,sing15,001,2019_Oct_31_1615,ProdFawcett_Revision2019,3.2.3,59.97681294116825,
,,,,131,0,131,0,,,,,,,,,,,,,2987.725713400054,None,,,,,,,,,,,,,,,,,,,,,,light,D_new,131,171,2983.323922300013,None,2983.323922300013,None,2983.323922300013,None,6,3.3423722999868914,2983.323922300013,None,2986.702768300078,None,2986.702768300078,None,2987.2057039000792,None,2987.2057039000792,None,2987.2057039000792,None,r,0.4925801999634132,2987.2057039000792,None,sing15,001,2019_Oct_31_1615,ProdFawcett_Revision2019,3.2.3,59.97681294116825,
,,,,132,0,132,0,,,,,,,,,,,,,2994.235013100086,None,,,,,,,,,,,,,,,,,,,,,,corner,A_silent,132,69,2988.253711800091,None,2988.253711800091,None,2988.253711800091,None,1,3.260734299896285,2988.253711800091,None,2991.560651500011,None,2991.560651500011,None,2992.0736236000666,None,2992.0736236000666,None,2992.0736236000666,None,n,2.1206487000454217,2992.0736236000666,None,sing15,001,2019_Oct_31_1615,ProdFawcett_Revision2019,3.2.3,59.97681294116825,
,,,,133,0,133,0,,,,,,,,,,,,,2999.223279800033,None,,,,,,,,,,,,,,,,,,,,,,thick,D_new,133,327,2994.752549200086,None,2994.752549200086,None,2994.752549200086,None,1,3.3934215999906883,2994.752549200086,None,2998.1901019000215,None,2998.1901019000215,None,2998.712553700083,None,2998.712553700083,None,2998.712553700083,None,n,0.4895265999948606,2998.712553700083,None,sing15,001,2019_Oct_31_1615,ProdFawcett_Revision2019,3.2.3,59.97681294116825,
,,,,134,0,134,0,,,,,,,,,,,,,3003.5188877000473,None,,,,,,,,,,,,,,,,,,,,,,sunset,C_sing,134,315,2999.7491978000617,None,2999.7491978000617,None,2999.7491978000617,None,6,1.8693571999901906,2999.7491978000617,None,3001.661572700017,None,3001.661572700017,None,3002.1844120000023,None,3002.1844120000023,None,3002.1844120000023,None,r,1.297770999954082,3002.1844120000023,None,sing15,001,2019_Oct_31_1615,ProdFawcett_Revision2019,3.2.3,59.97681294116825,
,,,,135,0,135,0,,,,,,,,,,,,,3007.9345887000673,None,,,,,,,,,,,,,,,,,,,,,,mayor,D_new,135,183,3004.035111300065,None,3004.035111300065,None,3004.035111300065,None,6,2.90313300001435,3004.035111300065,None,3006.995189700043,None,3006.995189700043,None,3007.514792800066,None,3007.514792800066,None,3007.514792800066,None,r,0.3754382999613881,3007.514792800066,None,sing15,001,2019_Oct_31_1615,ProdFawcett_Revision2019,3.2.3,59.97681294116825,
,,,,136,0,136,0,,,,,,,,,,,,,3012.4674707000377,None,,,,,,,,,,,,,,,,,,,,,,education,D_new,136,108,3008.454639600008,None,3008.454639600008,None,3008.454639600008,None,6,2.1555253999540582,3008.454639600008,None,3010.6689723000163,None,3010.6689723000163,None,3011.1854044001084,None,3011.1854044001084,None,3011.1854044001084,None,f,1.2492238000268117,3011.1854044001084,None,sing15,001,2019_Oct_31_1615,ProdFawcett_Revision2019,3.2.3,59.97681294116825,
,,,,137,0,137,0,,,,,,,,,,,,,3017.335336300079,None,,,,,,,,,,,,,,,,,,,,,,count,C_sing,137,72,3012.9872472001007,None,3012.9872472001007,None,3012.9872472001007,None,6,1.8311652999836951,3012.9872472001007,None,3014.8634638000512,None,3014.8634638000512,None,3015.3830336000537,None,3015.3830336000537,None,3015.3830336000537,None,f,1.9072668000590056,3015.3830336000537,None,sing15,001,2019_Oct_31_1615,ProdFawcett_Revision2019,3.2.3,59.97681294116825,
,,,,138,0,138,0,,,,,,,,,,,,,3025.9550490000984,None,,,,,,,,,,,,,,,,,,,,,,message,D_new,138,189,3017.8548608000856,None,3017.8548608000856,None,3017.8548608000856,None,6,3.5233837999403477,3017.8548608000856,None,3021.4344851000933,None,3021.4344851000933,None,3021.954862600076,None,3021.954862600076,None,3021.954862600076,None,f,3.9594115000218153,3021.954862600076,None,sing15,001,2019_Oct_31_1615,ProdFawcett_Revision2019,3.2.3,59.97681294116825,
,,,,139,0,139,0,,,,,,,,,,,,,3029.119394600042,None,,,,,,,,,,,,,,,,,,,,,,agency,B_aloud,139,4,3026.4741435000906,None,3026.4741435000906,None,3026.4741435000906,None,6,1.7520666000200436,3026.4741435000906,None,3028.2846013000235,None,3028.2846013000235,None,3028.8068957000505,None,3028.8068957000505,None,3028.8068957000505,None,r,0.2833049000473693,3028.8068957000505,None,sing15,001,2019_Oct_31_1615,ProdFawcett_Revision2019,3.2.3,59.97681294116825,
,,,,140,0,140,0,,,,,,,,,,,,,3034.054141700035,None,,,,,,,,,,,,,,,,,,,,,,raise,C_sing,140,250,3029.6371230001096,None,3029.6371230001096,None,3029.6371230001096,None,6,2.9494956999551505,3029.6371230001096,None,3032.6293026000494,None,3032.6293026000494,None,3033.1434689000016,None,3033.1434689000016,None,3033.1434689000016,None,r,0.86677740002051,3033.1434689000016,None,sing15,001,2019_Oct_31_1615,ProdFawcett_Revision2019,3.2.3,59.97681294116825,
,,,,141,0,141,0,,,,,,,,,,,,,3039.773922100081,None,,,,,,,,,,,,,,,,,,,,,,vision,D_new,141,347,3034.5745157001074,None,3034.5745157001074,None,3034.5745157001074,None,6,3.8280352000147104,3034.5745157001074,None,3038.4539635000983,None,3038.4539635000983,None,3038.961685300106,None,3038.961685300106,None,3038.961685300106,None,r,0.7766770999878645,3038.961685300106,None,sing15,001,2019_Oct_31_1615,ProdFawcett_Revision2019,3.2.3,59.97681294116825,
,,,,142,0,142,0,,,,,,,,,,,,,3044.92826220009,None,,,,,,,,,,,,,,,,,,,,,,object,D_new,142,204,3040.3079088000813,None,3040.3079088000813,None,3040.3079088000813,None,6,4.014591999934055,3040.3079088000813,None,3044.364729600027,None,3044.364729600027,None,3044.8955369000323,None,3044.8955369000323,None,3044.8955369000323,None,r,0.002621200052089989,3044.8955369000323,None,sing15,001,2019_Oct_31_1615,ProdFawcett_Revision2019,3.2.3,59.97681294116825,
,,,,143,0,143,0,,,,,,,,,,,,,3048.858580800006,None,,,,,,,,,,,,,,,,,,,,,,quantity,B_aloud,143,245,3045.459104700014,None,3045.459104700014,None,3045.459104700014,None,6,2.287286299979314,3045.459104700014,None,3047.804092300008,None,3047.804092300008,None,3048.3199036000296,None,3048.3199036000296,None,3048.3199036000296,None,r,0.4984534999821335,3048.3199036000296,None,sing15,001,2019_Oct_31_1615,ProdFawcett_Revision2019,3.2.3,59.97681294116825,
,,,,144,0,144,0,,,,,,,,,,,,,3052.8872314000037,None,,,,,,,,,,,,,,,,,,,,,,defeat,D_new,144,88,3049.3872859000694,None,3049.3872859000694,None,3049.3872859000694,None,1,2.6069812000496313,3049.3872859000694,None,3052.0268466999987,None,3052.0268466999987,None,3052.551870400086,None,3052.551870400086,None,3052.551870400086,None,n,0.2903002999955788,3052.551870400086,None,sing15,001,2019_Oct_31_1615,ProdFawcett_Revision2019,3.2.3,59.97681294116825,
,,,,145,0,145,0,,,,,,,,,,,,,3057.3882090999978,None,,,,,,,,,,,,,,,,,,,,,,cousin,D_new,145,76,3053.4065761000384,None,3053.4065761000384,None,3053.4065761000384,None,1,1.4277879999717698,3053.4065761000384,None,3054.88752930006,None,3054.88752930006,None,3055.405715700006,None,3055.405715700006,None,3055.405715700006,None,n,1.9487362999934703,3055.405715700006,None,sing15,001,2019_Oct_31_1615,ProdFawcett_Revision2019,3.2.3,59.97681294116825,
,,,,146,0,146,0,,,,,,,,,,,,,3061.122909000027,None,,,,,,,,,,,,,,,,,,,,,,committee,C_sing,146,62,3057.9080934000667,None,3057.9080934000667,None,3057.9080934000667,None,6,2.222134199924767,3057.9080934000667,None,3060.1839176000794,None,3060.1839176000794,None,3060.7055552999955,None,3060.7055552999955,None,3060.7055552999955,None,r,0.38503440003842115,3060.7055552999955,None,sing15,001,2019_Oct_31_1615,ProdFawcett_Revision2019,3.2.3,59.97681294116825,
,,,,147,0,147,0,,,,,,,,,,,,,3066.540682699997,None,,,,,,,,,,,,,,,,,,,,,,hearing,D_new,147,150,3061.6417929000454,None,3061.6417929000454,None,3061.6417929000454,None,1,3.2725628000916913,3061.6417929000454,None,3064.968099400052,None,3064.968099400052,None,3065.490266000037,None,3065.490266000037,None,3065.490266000037,None,n,1.007878200034611,3065.490266000037,None,sing15,001,2019_Oct_31_1615,ProdFawcett_Revision2019,3.2.3,59.97681294116825,
,,,,148,0,148,0,,,,,,,,,,,,,3070.557944500004,None,,,,,,,,,,,,,,,,,,,,,,comfort,A_silent,148,59,3067.057984700077,None,3067.057984700077,None,3067.057984700077,None,6,1.9122581999981776,3067.057984700077,None,3068.995903400006,None,3068.995903400006,None,3069.5108111000154,None,3069.5108111000154,None,3069.5108111000154,None,f,1.0117285000160336,3069.5108111000154,None,sing15,001,2019_Oct_31_1615,ProdFawcett_Revision2019,3.2.3,59.97681294116825,
,,,,149,0,149,0,,,,,,,,,,,,,3074.289093500003,None,,,,,,,,,,,,,,,,,,,,,,chief,D_new,149,48,3071.074268900091,None,3071.074268900091,None,3071.074268900091,None,1,1.8556882999837399,3071.074268900091,None,3072.9690940000582,None,3072.9690940000582,None,3073.4890529999975,None,3073.4890529999975,None,3073.4890529999975,None,n,0.7692825000267476,3073.4890529999975,None,sing15,001,2019_Oct_31_1615,ProdFawcett_Revision2019,3.2.3,59.97681294116825,
,,,,150,0,150,0,,,,,,,,,,,,,3079.073466800037,None,,,,,,,,,,,,,,,,,,,,,,running,C_sing,150,268,3074.8092242000857,None,3074.8092242000857,None,3074.8092242000857,None,1,3.3295653000241145,3074.8092242000857,None,3078.187674200046,None,3078.187674200046,None,3078.7060058000498,None,3078.7060058000498,None,3078.7060058000498,None,n,0.3283152999356389,3078.7060058000498,None,sing15,001,2019_Oct_31_1615,ProdFawcett_Revision2019,3.2.3,59.97681294116825,
,,,,151,0,151,0,,,,,,,,,,,,,3084.22426310007,None,,,,,,,,,,,,,,,,,,,,,,estate,B_aloud,151,119,3079.593197600101,None,3079.593197600101,None,3079.593197600101,None,5,3.64865759992972,3079.593197600101,None,3083.2689917000243,None,3083.2689917000243,None,3083.7965985001065,None,3083.7965985001065,None,3083.7965985001065,None,f,0.3898878999752924,3083.7965985001065,None,sing15,001,2019_Oct_31_1615,ProdFawcett_Revision2019,3.2.3,59.97681294116825,
,,,,152,0,152,0,,,,,,,,,,,,,3089.096724300063,None,,,,,,,,,,,,,,,,,,,,,,trash,D_new,152,337,3084.740058400086,None,3084.740058400086,None,3084.740058400086,None,1,3.286099100019783,3084.740058400086,None,3088.0669444000814,None,3088.0669444000814,None,3088.588211100083,None,3088.588211100083,None,3088.588211100083,None,n,0.47074520005844533,3088.588211100083,None,sing15,001,2019_Oct_31_1615,ProdFawcett_Revision2019,3.2.3,59.97681294116825,
