StudyTrials.thisRepN,StudyTrials.thisTrialN,StudyTrials.thisN,StudyTrials.thisIndex,TestTrials.thisRepN,TestTrials.thisTrialN,TestTrials.thisN,TestTrials.thisIndex,textWelcome.started,textWelcome.stopped,keyWelcome.keys,keyWelcome.rt,keyWelcome.started,keyWelcome.stopped,textReady.started,textReady.stopped,keyReady.keys,keyReady.rt,keyReady.started,keyReady.stopped,polyback_2.started,polyback_2.stopped,studyPic,studyWord,studyType,studyN,studyOrder,polyback_3.started,polyback_3.stopped,studyPicChoice.started,studyPicChoice.stopped,polyback_4.started,polyback_4.stopped,polyback.started,polyback.stopped,studyWords.started,studyWords.stopped,getResearcher.started,getResearcher.stopped,kPress2.keys,kPress2.rt,kPress2.started,kPress2.stopped,testWord,testType,testN,testOrder,polyback_5.started,polyback_5.stopped,testWords.started,testWords.stopped,textScale.started,textScale.stopped,keyConf.keys,keyConf.rt,keyConf.started,keyConf.stopped,polyback_6.started,polyback_6.stopped,studyWords_2.started,studyWords_2.stopped,polyback_7.started,polyback_7.stopped,testWords_2.started,testWords_2.stopped,textScale_2.started,textScale_2.stopped,keyRKN.keys,keyRKN.rt,keyRKN.started,keyRKN.stopped,participant,session,date,expName,psychopyVersion,frameRate,
,,,,,,,,10.752433911780827,None,space,2018.3725772843463,10.752433911780827,None,,,,,,,,,,,,,,,,,,,,,,,,,,,,,,,,,,,,,,,,,,,,,,,,,,,,,,,,,,sing22,001,2019_Nov_05_1555,ProdFawcett_Revision2019,3.2.4,60.0911627446085,
,,,,,,,,,,,,,,2029.1435942651005,None,space,6.27675032656407,2029.1435942651005,None,,,,,,,,,,,,,,,,,,,,,,,,,,,,,,,,,,,,,,,,,,,,,,,,,,,,sing22,001,2019_Nov_05_1555,ProdFawcett_Revision2019,3.2.4,60.0911627446085,
0,0,0,0,,,,,,,,,,,,,,,,,2040.230308826256,None,materials/readPic.jpg,company,A_silent,0,64,2036.5988418236957,None,2036.5988418236957,None,2037.4802805249928,None,2037.74610934878,None,2037.74610934878,None,,,,,,,,,,,,,,,,,,,,,,,,,,,,,,,,,,,sing22,001,2019_Nov_05_1555,ProdFawcett_Revision2019,3.2.4,60.0911627446085,
1,0,1,0,,,,,,,,,,,,,,,,,2044.4982866828213,None,materials/speakPic.jpg,carry,B_aloud,1,43,2040.8818585557165,None,2040.8818585557165,None,2041.7475881694118,None,2042.0143624432385,None,2042.0143624432385,None,,,,,,,,,,,,,,,,,,,,,,,,,,,,,,,,,,,sing22,001,2019_Nov_05_1555,ProdFawcett_Revision2019,3.2.4,60.0911627446085,
2,0,2,0,,,,,,,,,,,,,,,,,2048.7663018598105,None,materials/readPic.jpg,quarter,A_silent,2,246,2045.1163155439426,None,2045.1163155439426,None,2046.0154316725675,None,2046.2824746532133,None,2046.2824746532133,None,,,,,,,,,,,,,,,,,,,,,,,,,,,,,,,,,,,sing22,001,2019_Nov_05_1555,ProdFawcett_Revision2019,3.2.4,60.0911627446085,
3,0,3,0,,,,,,,,,,,,,,,,,2053.034273496305,None,materials/readPic.jpg,public,A_silent,3,244,2049.349513279856,None,2049.349513279856,None,2050.2834555575973,None,2050.550082415866,None,2050.550082415866,None,,,,,,,,,,,,,,,,,,,,,,,,,,,,,,,,,,,sing22,001,2019_Nov_05_1555,ProdFawcett_Revision2019,3.2.4,60.0911627446085,
4,0,4,0,,,,,,,,,,,,,,,,,2057.302244199789,None,materials/readPic.jpg,crisis,A_silent,4,79,2053.6041889034095,None,2053.6041889034095,None,2054.551391428744,None,2054.8181066118996,None,2054.8181066118996,None,,,,,,,,,,,,,,,,,,,,,,,,,,,,,,,,,,,sing22,001,2019_Nov_05_1555,ProdFawcett_Revision2019,3.2.4,60.0911627446085,
5,0,5,0,,,,,,,,,,,,,,,,,2061.5702351185028,None,materials/speakPic.jpg,executive,B_aloud,5,122,2057.936957143771,None,2057.936957143771,None,2058.8194044287084,None,2059.086055234191,None,2059.086055234191,None,,,,,,,,,,,,,,,,,,,,,,,,,,,,,,,,,,,sing22,001,2019_Nov_05_1555,ProdFawcett_Revision2019,3.2.4,60.0911627446085,
6,0,6,0,,,,,,,,,,,,,,,,,2065.838226970227,None,materials/readPic.jpg,brilliant,A_silent,6,30,2062.1744796914863,None,2062.1744796914863,None,2063.087476830231,None,2063.354034023767,None,2063.354034023767,None,,,,,,,,,,,,,,,,,,,,,,,,,,,,,,,,,,,sing22,001,2019_Nov_05_1555,ProdFawcett_Revision2019,3.2.4,60.0911627446085,
7,0,7,0,,,,,,,,,,,,,,,,,2070.1062237979495,None,materials/speakPic.jpg,health,B_aloud,7,149,2066.4307317907806,None,2066.4307317907806,None,2067.3553800460068,None,2067.6220109473215,None,2067.6220109473215,None,,,,,,,,,,,,,,,,,,,,,,,,,,,,,,,,,,,sing22,001,2019_Nov_05_1555,ProdFawcett_Revision2019,3.2.4,60.0911627446085,
8,0,8,0,,,,,,,,,,,,,,,,,2074.374202898529,None,materials/singPic.jpg,waste,C_sing,8,350,2070.7241217267,None,2070.7241217267,None,2071.6235230453312,None,2071.8900600236375,None,2071.8900600236375,None,,,,,,,,,,,,,,,,,,,,,,,,,,,,,,,,,,,sing22,001,2019_Nov_05_1555,ProdFawcett_Revision2019,3.2.4,60.0911627446085,
9,0,9,0,,,,,,,,,,,,,,,,,2078.6421919512213,None,materials/speakPic.jpg,theme,B_aloud,9,326,2074.9756372457487,None,2074.9756372457487,None,2075.891347888275,None,2076.1580829756567,None,2076.1580829756567,None,,,,,,,,,,,,,,,,,,,,,,,,,,,,,,,,,,,sing22,001,2019_Nov_05_1555,ProdFawcett_Revision2019,3.2.4,60.0911627446085,
10,0,10,0,,,,,,,,,,,,,,,,,2082.9101903340197,None,materials/speakPic.jpg,harmony,B_aloud,10,148,2079.2148858617875,None,2079.2148858617875,None,2080.1593761273543,None,2080.4260225788457,None,2080.4260225788457,None,,,,,,,,,,,,,,,,,,,,,,,,,,,,,,,,,,,sing22,001,2019_Nov_05_1555,ProdFawcett_Revision2019,3.2.4,60.0911627446085,
11,0,11,0,,,,,,,,,,,,,,,,,2087.178164769546,None,materials/readPic.jpg,group,A_silent,11,143,2083.511185544543,None,2083.511185544543,None,2084.4276329539134,None,2084.6940106985276,None,2084.6940106985276,None,,,,,,,,,,,,,,,,,,,,,,,,,,,,,,,,,,,sing22,001,2019_Nov_05_1555,ProdFawcett_Revision2019,3.2.4,60.0911627446085,
12,0,12,0,,,,,,,,,,,,,,,,,2091.4461538222386,None,materials/readPic.jpg,management,A_silent,12,177,2087.7661438701325,None,2087.7661438701325,None,2088.695341170591,None,2088.9619925981387,None,2088.9619925981387,None,,,,,,,,,,,,,,,,,,,,,,,,,,,,,,,,,,,sing22,001,2019_Nov_05_1555,ProdFawcett_Revision2019,3.2.4,60.0911627446085,
13,0,13,0,,,,,,,,,,,,,,,,,2095.714501772716,None,materials/singPic.jpg,career,C_sing,13,42,2092.064155937056,None,2092.064155937056,None,2092.963332400308,None,2093.2300118181156,None,2093.2300118181156,None,,,,,,,,,,,,,,,,,,,,,,,,,,,,,,,,,,,sing22,001,2019_Nov_05_1555,ProdFawcett_Revision2019,3.2.4,60.0911627446085,
14,0,14,0,,,,,,,,,,,,,,,,,2099.982138769643,None,materials/readPic.jpg,marriage,A_silent,14,179,2096.3155877962126,None,2096.3155877962126,None,2097.231285998656,None,2097.498032282165,None,2097.498032282165,None,,,,,,,,,,,,,,,,,,,,,,,,,,,,,,,,,,,sing22,001,2019_Nov_05_1555,ProdFawcett_Revision2019,3.2.4,60.0911627446085,
15,0,15,0,,,,,,,,,,,,,,,,,2104.2501309323707,None,materials/singPic.jpg,sound,C_sing,15,295,2100.590855881048,None,2100.590855881048,None,2101.49928033835,None,2101.7659753063344,None,2101.7659753063344,None,,,,,,,,,,,,,,,,,,,,,,,,,,,,,,,,,,,sing22,001,2019_Nov_05_1555,ProdFawcett_Revision2019,3.2.4,60.0911627446085,
16,0,16,0,,,,,,,,,,,,,,,,,2108.5181311811903,None,materials/readPic.jpg,problem,A_silent,16,238,2104.857965105446,None,2104.857965105446,None,2105.767580394342,None,2106.0339413447655,None,2106.0339413447655,None,,,,,,,,,,,,,,,,,,,,,,,,,,,,,,,,,,,sing22,001,2019_Nov_05_1555,ProdFawcett_Revision2019,3.2.4,60.0911627446085,
17,0,17,0,,,,,,,,,,,,,,,,,2112.78613143001,None,materials/singPic.jpg,collection,C_sing,17,54,2109.136437768233,None,2109.136437768233,None,2110.0352739939117,None,2110.3019232443767,None,2110.3019232443767,None,,,,,,,,,,,,,,,,,,,,,,,,,,,,,,,,,,,sing22,001,2019_Nov_05_1555,ProdFawcett_Revision2019,3.2.4,60.0911627446085,
18,0,18,0,,,,,,,,,,,,,,,,,2117.054101511487,None,materials/singPic.jpg,spoke,C_sing,18,300,2113.370350500685,None,2113.370350500685,None,2114.303282328765,None,2114.5699377993587,None,2114.5699377993587,None,,,,,,,,,,,,,,,,,,,,,,,,,,,,,,,,,,,sing22,001,2019_Nov_05_1555,ProdFawcett_Revision2019,3.2.4,60.0911627446085,
19,0,19,0,,,,,,,,,,,,,,,,,2121.322114511393,None,materials/readPic.jpg,comedy,A_silent,19,58,2117.6554543758393,None,2117.6554543758393,None,2118.5712598743266,None,2118.837959507364,None,2118.837959507364,None,,,,,,,,,,,,,,,,,,,,,,,,,,,,,,,,,,,sing22,001,2019_Nov_05_1555,ProdFawcett_Revision2019,3.2.4,60.0911627446085,
20,0,20,0,,,,,,,,,,,,,,,,,2125.5900292342994,None,materials/singPic.jpg,sunset,C_sing,20,315,2121.940812651592,None,2121.940812651592,None,2122.8393117496744,None,2123.1058981775423,None,2123.1058981775423,None,,,,,,,,,,,,,,,,,,,,,,,,,,,,,,,,,,,sing22,001,2019_Nov_05_1555,ProdFawcett_Revision2019,3.2.4,60.0911627446085,
21,0,21,0,,,,,,,,,,,,,,,,,2129.858041612257,None,materials/singPic.jpg,enemy,C_sing,21,113,2126.1754864091636,None,2126.1754864091636,None,2127.1072600609623,None,2127.373868259019,None,2127.373868259019,None,,,,,,,,,,,,,,,,,,,,,,,,,,,,,,,,,,,sing22,001,2019_Nov_05_1555,ProdFawcett_Revision2019,3.2.4,60.0911627446085,
22,0,22,0,,,,,,,,,,,,,,,,,2134.1260337749263,None,materials/readPic.jpg,display,A_silent,22,98,2130.459413136763,None,2130.459413136763,None,2131.37537164893,None,2131.6418706848053,None,2131.6418706848053,None,,,,,,,,,,,,,,,,,,,,,,,,,,,,,,,,,,,sing22,001,2019_Nov_05_1555,ProdFawcett_Revision2019,3.2.4,60.0911627446085,
23,0,23,0,,,,,,,,,,,,,,,,,2138.3940215836046,None,materials/singPic.jpg,course,C_sing,23,74,2134.748907445406,None,2134.748907445406,None,2135.643252783455,None,2135.90985289542,None,2135.90985289542,None,,,,,,,,,,,,,,,,,,,,,,,,,,,,,,,,,,,sing22,001,2019_Nov_05_1555,ProdFawcett_Revision2019,3.2.4,60.0911627446085,
24,0,24,0,,,,,,,,,,,,,,,,,2142.6620143683394,None,materials/singPic.jpg,congress,C_sing,24,67,2138.983385270869,None,2138.983385270869,None,2139.9112054487923,None,2140.1778459911584,None,2140.1778459911584,None,,,,,,,,,,,,,,,,,,,,,,,,,,,,,,,,,,,sing22,001,2019_Nov_05_1555,ProdFawcett_Revision2019,3.2.4,60.0911627446085,
25,0,25,0,,,,,,,,,,,,,,,,,2146.930009952106,None,materials/readPic.jpg,production,A_silent,25,240,2143.263440318464,None,2143.263440318464,None,2144.179173664248,None,2144.445824158727,None,2144.445824158727,None,,,,,,,,,,,,,,,,,,,,,,,,,,,,,,,,,,,sing22,001,2019_Nov_05_1555,ProdFawcett_Revision2019,3.2.4,60.0911627446085,
26,0,26,0,,,,,,,,,,,,,,,,,2151.197998693795,None,materials/singPic.jpg,council,C_sing,26,71,2147.538884431182,None,2147.538884431182,None,2148.44721620949,None,2148.7138384027057,None,2148.7138384027057,None,,,,,,,,,,,,,,,,,,,,,,,,,,,,,,,,,,,sing22,001,2019_Nov_05_1555,ProdFawcett_Revision2019,3.2.4,60.0911627446085,
27,0,27,0,,,,,,,,,,,,,,,,,2155.46599925356,None,materials/readPic.jpg,ground,A_silent,27,142,2151.8162548983237,None,2151.8162548983237,None,2152.715190023009,None,2152.981842072506,None,2152.981842072506,None,,,,,,,,,,,,,,,,,,,,,,,,,,,,,,,,,,,sing22,001,2019_Nov_05_1555,ProdFawcett_Revision2019,3.2.4,60.0911627446085,
28,0,28,0,,,,,,,,,,,,,,,,,2159.7339907942805,None,materials/speakPic.jpg,command,B_aloud,28,60,2156.0671823101,None,2156.0671823101,None,2156.9832369223004,None,2157.249800957914,None,2157.249800957914,None,,,,,,,,,,,,,,,,,,,,,,,,,,,,,,,,,,,sing22,001,2019_Nov_05_1555,ProdFawcett_Revision2019,3.2.4,60.0911627446085,
29,0,29,0,,,,,,,,,,,,,,,,,2164.0019773589447,None,materials/speakPic.jpg,emergency,B_aloud,29,110,2160.303872924065,None,2160.303872924065,None,2161.2511292529525,None,2161.517794053594,None,2161.517794053594,None,,,,,,,,,,,,,,,,,,,,,,,,,,,,,,,,,,,sing22,001,2019_Nov_05_1555,ProdFawcett_Revision2019,3.2.4,60.0911627446085,
30,0,30,0,,,,,,,,,,,,,,,,,2168.26996578963,None,materials/singPic.jpg,worker,C_sing,30,356,2164.621703365061,None,2164.621703365061,None,2165.519114884606,None,2165.786134540045,None,2165.786134540045,None,,,,,,,,,,,,,,,,,,,,,,,,,,,,,,,,,,,sing22,001,2019_Nov_05_1555,ProdFawcett_Revision2019,3.2.4,60.0911627446085,
31,0,31,0,,,,,,,,,,,,,,,,,2172.5380139329354,None,materials/singPic.jpg,curve,C_sing,31,82,2168.861225974979,None,2168.861225974979,None,2169.787399701425,None,2170.0537699819542,None,2170.0537699819542,None,,,,,,,,,,,,,,,,,,,,,,,,,,,,,,,,,,,sing22,001,2019_Nov_05_1555,ProdFawcett_Revision2019,3.2.4,60.0911627446085,
32,0,32,0,,,,,,,,,,,,,,,,,2176.8059547801386,None,materials/readPic.jpg,conference,A_silent,32,66,2173.1247913168045,None,2173.1247913168045,None,2174.055551719852,None,2174.3217413074453,None,2174.3217413074453,None,,,,,,,,,,,,,,,,,,,,,,,,,,,,,,,,,,,sing22,001,2019_Nov_05_1555,ProdFawcett_Revision2019,3.2.4,60.0911627446085,
33,0,33,0,,,,,,,,,,,,,,,,,2181.073951607861,None,materials/readPic.jpg,colonel,A_silent,33,55,2177.3891739752144,None,2177.3891739752144,None,2178.323126827134,None,2178.5897365802084,None,2178.5897365802084,None,,,,,,,,,,,,,,,,,,,,,,,,,,,,,,,,,,,sing22,001,2019_Nov_05_1555,ProdFawcett_Revision2019,3.2.4,60.0911627446085,
34,0,34,0,,,,,,,,,,,,,,,,,2185.3419400385465,None,materials/speakPic.jpg,member,B_aloud,34,188,2181.675162343716,None,2181.675162343716,None,2182.5910944205825,None,2182.857736829028,None,2182.857736829028,None,,,,,,,,,,,,,,,,,,,,,,,,,,,,,,,,,,,sing22,001,2019_Nov_05_1555,ProdFawcett_Revision2019,3.2.4,60.0911627446085,
35,0,35,0,,,,,,,,,,,,,,,,,2189.6099306462565,None,materials/readPic.jpg,suggestion,A_silent,35,314,2185.945422653458,None,2185.945422653458,None,2186.8590585929924,None,2187.125718106632,None,2187.125718106632,None,,,,,,,,,,,,,,,,,,,,,,,,,,,,,,,,,,,sing22,001,2019_Nov_05_1555,ProdFawcett_Revision2019,3.2.4,60.0911627446085,
36,0,36,0,,,,,,,,,,,,,,,,,2193.8779147228925,None,materials/speakPic.jpg,speech,B_aloud,36,298,2190.201327673043,None,2190.201327673043,None,2191.127121975471,None,2191.393708714284,None,2191.393708714284,None,,,,,,,,,,,,,,,,,,,,,,,,,,,,,,,,,,,sing22,001,2019_Nov_05_1555,ProdFawcett_Revision2019,3.2.4,60.0911627446085,
37,0,37,0,,,,,,,,,,,,,,,,,2198.1459146607085,None,materials/readPic.jpg,interior,A_silent,37,164,2194.4957398768165,None,2194.4957398768165,None,2195.3950749518117,None,2195.661693412927,None,2195.661693412927,None,,,,,,,,,,,,,,,,,,,,,,,,,,,,,,,,,,,sing22,001,2019_Nov_05_1555,ProdFawcett_Revision2019,3.2.4,60.0911627446085,
38,0,38,0,,,,,,,,,,,,,,,,,2202.413921440544,None,materials/singPic.jpg,orchestra,C_sing,38,206,2198.7670585308224,None,2198.7670585308224,None,2199.663020775013,None,2199.929697393789,None,2199.929697393789,None,,,,,,,,,,,,,,,,,,,,,,,,,,,,,,,,,,,sing22,001,2019_Nov_05_1555,ProdFawcett_Revision2019,3.2.4,60.0911627446085,
39,0,39,0,,,,,,,,,,,,,,,,,2206.6818781489274,None,materials/readPic.jpg,measure,A_silent,39,184,2203.018415438186,None,2203.018415438186,None,2203.931041550066,None,2204.1976764943684,None,2204.1976764943684,None,,,,,,,,,,,,,,,,,,,,,,,,,,,,,,,,,,,sing22,001,2019_Nov_05_1555,ProdFawcett_Revision2019,3.2.4,60.0911627446085,
40,0,40,0,,,,,,,,,,,,,,,,,2210.949851651443,None,materials/speakPic.jpg,institute,B_aloud,40,162,2207.273114387004,None,2207.273114387004,None,2208.1990051004686,None,2208.4656689680996,None,2208.4656689680996,None,,,,,,,,,,,,,,,,,,,,,,,,,,,,,,,,,,,sing22,001,2019_Nov_05_1555,ProdFawcett_Revision2019,3.2.4,60.0911627446085,
41,0,41,0,,,,,,,,,,,,,,,,,2215.2178447471233,None,materials/speakPic.jpg,patient,B_aloud,41,213,2211.533057784429,None,2211.533057784429,None,2212.4670495117316,None,2212.7336418486084,None,2212.7336418486084,None,,,,,,,,,,,,,,,,,,,,,,,,,,,,,,,,,,,sing22,001,2019_Nov_05_1555,ProdFawcett_Revision2019,3.2.4,60.0911627446085,
42,0,42,0,,,,,,,,,,,,,,,,,2219.485854948056,None,materials/singPic.jpg,working,C_sing,42,357,2215.8356412887806,None,2215.8356412887806,None,2216.7350957890158,None,2217.0016371213715,None,2217.0016371213715,None,,,,,,,,,,,,,,,,,,,,,,,,,,,,,,,,,,,sing22,001,2019_Nov_05_1555,ProdFawcett_Revision2019,3.2.4,60.0911627446085,
43,0,43,0,,,,,,,,,,,,,,,,,2223.7538663930027,None,materials/singPic.jpg,author,C_sing,43,15,2220.070116626215,None,2220.070116626215,None,2221.002981899597,None,2221.269628662034,None,2221.269628662034,None,,,,,,,,,,,,,,,,,,,,,,,,,,,,,,,,,,,sing22,001,2019_Nov_05_1555,ProdFawcett_Revision2019,3.2.4,60.0911627446085,
44,0,44,0,,,,,,,,,,,,,,,,,2228.021812216204,None,materials/readPic.jpg,agreement,A_silent,44,5,2224.3887765130494,None,2224.3887765130494,None,2225.2711954966653,None,2225.5376248678076,None,2225.5376248678076,None,,,,,,,,,,,,,,,,,,,,,,,,,,,,,,,,,,,sing22,001,2019_Nov_05_1555,ProdFawcett_Revision2019,3.2.4,60.0911627446085,
45,0,45,0,,,,,,,,,,,,,,,,,2232.289814953052,None,materials/speakPic.jpg,narrow,B_aloud,45,197,2228.623083286686,None,2228.623083286686,None,2229.5389469428337,None,2229.8056055234047,None,2229.8056055234047,None,,,,,,,,,,,,,,,,,,,,,,,,,,,,,,,,,,,sing22,001,2019_Nov_05_1555,ProdFawcett_Revision2019,3.2.4,60.0911627446085,
46,0,46,0,,,,,,,,,,,,,,,,,2236.5577900105854,None,materials/readPic.jpg,grade,A_silent,46,140,2232.8930767556303,None,2232.8930767556303,None,2233.808746656694,None,2234.0735631647403,None,2234.0735631647403,None,,,,,,,,,,,,,,,,,,,,,,,,,,,,,,,,,,,sing22,001,2019_Nov_05_1555,ProdFawcett_Revision2019,3.2.4,60.0911627446085,
47,0,47,0,,,,,,,,,,,,,,,,,2240.825798656442,None,materials/speakPic.jpg,individual,B_aloud,47,160,2237.1471484107897,None,2237.1471484107897,None,2238.0749421533546,None,2238.341569944634,None,2238.341569944634,None,,,,,,,,,,,,,,,,,,,,,,,,,,,,,,,,,,,sing22,001,2019_Nov_05_1555,ProdFawcett_Revision2019,3.2.4,60.0911627446085,
48,0,48,0,,,,,,,,,,,,,,,,,2245.0938122784137,None,materials/speakPic.jpg,bicycle,B_aloud,48,21,2241.3956963364035,None,2241.3956963364035,None,2242.3429436461884,None,2242.609585432627,None,2242.609585432627,None,,,,,,,,,,,,,,,,,,,,,,,,,,,,,,,,,,,sing22,001,2019_Nov_05_1555,ProdFawcett_Revision2019,3.2.4,60.0911627446085,
49,0,49,0,,,,,,,,,,,,,,,,,2249.3617605896434,None,materials/speakPic.jpg,division,B_aloud,49,101,2245.6675097966217,None,2245.6675097966217,None,2246.610909995623,None,2246.8775601791567,None,2246.8775601791567,None,,,,,,,,,,,,,,,,,,,,,,,,,,,,,,,,,,,sing22,001,2019_Nov_05_1555,ProdFawcett_Revision2019,3.2.4,60.0911627446085,
50,0,50,0,,,,,,,,,,,,,,,,,2253.6297850967385,None,materials/speakPic.jpg,government,B_aloud,50,139,2249.9285501026316,None,2249.9285501026316,None,2250.8789394787746,None,2251.1455576288863,None,2251.1455576288863,None,,,,,,,,,,,,,,,,,,,,,,,,,,,,,,,,,,,sing22,001,2019_Nov_05_1555,ProdFawcett_Revision2019,3.2.4,60.0911627446085,
51,0,51,0,,,,,,,,,,,,,,,,,2257.8977399390424,None,materials/readPic.jpg,corner,A_silent,51,69,2254.2640393108013,None,2254.2640393108013,None,2255.146959009755,None,2255.413522734365,None,2255.413522734365,None,,,,,,,,,,,,,,,,,,,,,,,,,,,,,,,,,,,sing22,001,2019_Nov_05_1555,ProdFawcett_Revision2019,3.2.4,60.0911627446085,
52,0,52,0,,,,,,,,,,,,,,,,,2262.1657205946394,None,materials/readPic.jpg,department,A_silent,52,90,2258.4858984884922,None,2258.4858984884922,None,2259.4149023449863,None,2259.6815124090062,None,2259.6815124090062,None,,,,,,,,,,,,,,,,,,,,,,,,,,,,,,,,,,,sing22,001,2019_Nov_05_1555,ProdFawcett_Revision2019,3.2.4,60.0911627446085,
53,0,53,0,,,,,,,,,,,,,,,,,2266.4337258195155,None,materials/singPic.jpg,dream,C_sing,53,104,2262.7837463457254,None,2262.7837463457254,None,2263.682876469509,None,2263.9495123468223,None,2263.9495123468223,None,,,,,,,,,,,,,,,,,,,,,,,,,,,,,,,,,,,sing22,001,2019_Nov_05_1555,ProdFawcett_Revision2019,3.2.4,60.0911627446085,
54,0,54,0,,,,,,,,,,,,,,,,,2270.7017064751126,None,materials/singPic.jpg,listen,C_sing,54,172,2267.019318591745,None,2267.019318591745,None,2267.950852771057,None,2268.2174976674723,None,2268.2174976674723,None,,,,,,,,,,,,,,,,,,,,,,,,,,,,,,,,,,,sing22,001,2019_Nov_05_1555,ProdFawcett_Revision2019,3.2.4,60.0911627446085,
55,0,55,0,,,,,,,,,,,,,,,,,2274.9699387323344,None,materials/readPic.jpg,equipment,A_silent,55,116,2271.3030696025235,None,2271.3030696025235,None,2272.21885581885,None,2272.485473347013,None,2272.485473347013,None,,,,,,,,,,,,,,,,,,,,,,,,,,,,,,,,,,,sing22,001,2019_Nov_05_1555,ProdFawcett_Revision2019,3.2.4,60.0911627446085,
56,0,56,0,,,,,,,,,,,,,,,,,2279.2376702742768,None,materials/speakPic.jpg,evidence,B_aloud,56,120,2275.5711466691573,None,2275.5711466691573,None,2276.4870613298262,None,2276.753672326915,None,2276.753672326915,None,,,,,,,,,,,,,,,,,,,,,,,,,,,,,,,,,,,sing22,001,2019_Nov_05_1555,ProdFawcett_Revision2019,3.2.4,60.0911627446085,
57,0,57,0,,,,,,,,,,,,,,,,,2283.5060468370793,None,materials/singPic.jpg,throw,C_sing,57,330,2279.859419978864,None,2279.859419978864,None,2280.7548634695704,None,2281.021453940426,None,2281.021453940426,None,,,,,,,,,,,,,,,,,,,,,,,,,,,,,,,,,,,sing22,001,2019_Nov_05_1555,ProdFawcett_Revision2019,3.2.4,60.0911627446085,
58,0,58,0,,,,,,,,,,,,,,,,,2287.7736788580078,None,materials/speakPic.jpg,atmosphere,B_aloud,58,12,2284.0944395720726,None,2284.0944395720726,None,2285.0228851775755,None,2285.2894314859877,None,2285.2894314859877,None,,,,,,,,,,,,,,,,,,,,,,,,,,,,,,,,,,,sing22,001,2019_Nov_05_1555,ProdFawcett_Revision2019,3.2.4,60.0911627446085,
59,0,59,0,,,,,,,,,,,,,,,,,2292.041633389308,None,materials/singPic.jpg,citizen,C_sing,59,50,2288.391434347199,None,2288.391434347199,None,2289.290831622784,None,2289.5580951048178,None,2289.5580951048178,None,,,,,,,,,,,,,,,,,,,,,,,,,,,,,,,,,,,sing22,001,2019_Nov_05_1555,ProdFawcett_Revision2019,3.2.4,60.0911627446085,
60,0,60,0,,,,,,,,,,,,,,,,,2296.309623375011,None,materials/singPic.jpg,close,C_sing,60,53,2292.6415606145165,None,2292.6415606145165,None,2293.5588716800557,None,2293.825609566469,None,2293.825609566469,None,,,,,,,,,,,,,,,,,,,,,,,,,,,,,,,,,,,sing22,001,2019_Nov_05_1555,ProdFawcett_Revision2019,3.2.4,60.0911627446085,
61,0,61,0,,,,,,,,,,,,,,,,,2300.577624245838,None,materials/speakPic.jpg,column,B_aloud,61,57,2296.8981094109477,None,2296.8981094109477,None,2297.826874105842,None,2298.0934042420704,None,2298.0934042420704,None,,,,,,,,,,,,,,,,,,,,,,,,,,,,,,,,,,,sing22,001,2019_Nov_05_1555,ProdFawcett_Revision2019,3.2.4,60.0911627446085,
62,0,62,0,,,,,,,,,,,,,,,,,2304.845608633419,None,materials/readPic.jpg,strength,A_silent,62,310,2301.1786754369386,None,2301.1786754369386,None,2302.0948158860556,None,2302.361397026805,None,2302.361397026805,None,,,,,,,,,,,,,,,,,,,,,,,,,,,,,,,,,,,sing22,001,2019_Nov_05_1555,ProdFawcett_Revision2019,3.2.4,60.0911627446085,
63,0,63,0,,,,,,,,,,,,,,,,,2309.113602040161,None,materials/singPic.jpg,appeal,C_sing,63,9,2305.4801903340267,None,2305.4801903340267,None,2306.362823287898,None,2306.6293854574906,None,2306.6293854574906,None,,,,,,,,,,,,,,,,,,,,,,,,,,,,,,,,,,,sing22,001,2019_Nov_05_1555,ProdFawcett_Revision2019,3.2.4,60.0911627446085,
64,0,64,0,,,,,,,,,,,,,,,,,2313.3815755426767,None,materials/readPic.jpg,blind,A_silent,64,24,2309.7214698015596,None,2309.7214698015596,None,2310.6307827953133,None,2310.897377931222,None,2310.897377931222,None,,,,,,,,,,,,,,,,,,,,,,,,,,,,,,,,,,,sing22,001,2019_Nov_05_1555,ProdFawcett_Revision2019,3.2.4,60.0911627446085,
65,0,65,0,,,,,,,,,,,,,,,,,2317.649568638415,None,materials/speakPic.jpg,oxygen,B_aloud,65,209,2313.9731803197064,None,2313.9731803197064,None,2314.898762206896,None,2315.1653623188613,None,2315.1653623188613,None,,,,,,,,,,,,,,,,,,,,,,,,,,,,,,,,,,,sing22,001,2019_Nov_05_1555,ProdFawcett_Revision2019,3.2.4,60.0911627446085,
66,0,66,0,,,,,,,,,,,,,,,,,2321.91755613609,None,materials/singPic.jpg,damage,C_sing,66,83,2318.2586312745116,None,2318.2586312745116,None,2319.1668349194224,None,2319.4333442184725,None,2319.4333442184725,None,,,,,,,,,,,,,,,,,,,,,,,,,,,,,,,,,,,sing22,001,2019_Nov_05_1555,ProdFawcett_Revision2019,3.2.4,60.0911627446085,
67,0,67,0,,,,,,,,,,,,,,,,,2326.1855371026904,None,materials/speakPic.jpg,candidate,B_aloud,67,39,2322.519252970058,None,2322.519252970058,None,2323.43481122097,None,2323.701352242322,None,2323.701352242322,None,,,,,,,,,,,,,,,,,,,,,,,,,,,,,,,,,,,sing22,001,2019_Nov_05_1555,ProdFawcett_Revision2019,3.2.4,60.0911627446085,
68,0,68,0,,,,,,,,,,,,,,,,,2330.453557255678,None,materials/speakPic.jpg,universal,B_aloud,68,345,2326.7593786154175,None,2326.7593786154175,None,2327.702893574664,None,2327.9693179697497,None,2327.9693179697497,None,,,,,,,,,,,,,,,,,,,,,,,,,,,,,,,,,,,sing22,001,2019_Nov_05_1555,ProdFawcett_Revision2019,3.2.4,60.0911627446085,
69,0,69,0,,,,,,,,,,,,,,,,,2334.7215064999764,None,materials/speakPic.jpg,charter,B_aloud,69,47,2331.0201016980573,None,2331.0201016980573,None,2331.970754805021,None,2332.2373095104704,None,2332.2373095104704,None,,,,,,,,,,,,,,,,,,,,,,,,,,,,,,,,,,,sing22,001,2019_Nov_05_1555,ProdFawcett_Revision2019,3.2.4,60.0911627446085,
70,0,70,0,,,,,,,,,,,,,,,,,2338.9895739255007,None,materials/singPic.jpg,primary,C_sing,70,234,2335.340210238239,None,2335.340210238239,None,2336.238768737938,None,2336.505297630152,None,2336.505297630152,None,,,,,,,,,,,,,,,,,,,,,,,,,,,,,,,,,,,sing22,001,2019_Nov_05_1555,ProdFawcett_Revision2019,3.2.4,60.0911627446085,
71,0,71,0,,,,,,,,,,,,,,,,,2343.257506686554,None,materials/singPic.jpg,bucket,C_sing,71,33,2339.580025191244,None,2339.580025191244,None,2340.5068224793067,None,2340.773293213919,None,2340.773293213919,None,,,,,,,,,,,,,,,,,,,,,,,,,,,,,,,,,,,sing22,001,2019_Nov_05_1555,ProdFawcett_Revision2019,3.2.4,60.0911627446085,
72,0,72,0,,,,,,,,,,,,,,,,,2347.525535236695,None,materials/singPic.jpg,match,C_sing,72,181,2343.840733656776,None,2343.840733656776,None,2344.774569882429,None,2345.0412835106254,None,2345.0412835106254,None,,,,,,,,,,,,,,,,,,,,,,,,,,,,,,,,,,,sing22,001,2019_Nov_05_1555,ProdFawcett_Revision2019,3.2.4,60.0911627446085,
73,0,73,0,,,,,,,,,,,,,,,,,2351.7934707967797,None,materials/readPic.jpg,turkey,A_silent,73,342,2348.160239783523,None,2348.160239783523,None,2349.042772905377,None,2349.309255769127,None,2349.309255769127,None,,,,,,,,,,,,,,,,,,,,,,,,,,,,,,,,,,,sing22,001,2019_Nov_05_1555,ProdFawcett_Revision2019,3.2.4,60.0911627446085,
74,0,74,0,,,,,,,,,,,,,,,,,2356.0614617154934,None,materials/singPic.jpg,religion,C_sing,74,258,2352.416672575753,None,2352.416672575753,None,2353.3106904273154,None,2353.577247620793,None,2353.577247620793,None,,,,,,,,,,,,,,,,,,,,,,,,,,,,,,,,,,,sing22,001,2019_Nov_05_1555,ProdFawcett_Revision2019,3.2.4,60.0911627446085,
75,0,75,0,,,,,,,,,,,,,,,,,2360.32944143808,None,materials/readPic.jpg,south,A_silent,75,296,2356.6685034521506,None,2356.6685034521506,None,2357.5787326615537,None,2357.8452379174996,None,2357.8452379174996,None,,,,,,,,,,,,,,,,,,,,,,,,,,,,,,,,,,,sing22,001,2019_Nov_05_1555,ProdFawcett_Revision2019,3.2.4,60.0911627446085,
76,0,76,0,,,,,,,,,,,,,,,,,2364.597443863924,None,materials/readPic.jpg,discussion,A_silent,76,96,2360.912689556484,None,2360.912689556484,None,2361.8467823598767,None,2362.113232879259,None,2362.113232879259,None,,,,,,,,,,,,,,,,,,,,,,,,,,,,,,,,,,,sing22,001,2019_Nov_05_1555,ProdFawcett_Revision2019,3.2.4,60.0911627446085,
77,0,77,0,,,,,,,,,,,,,,,,,2368.8654506437597,None,materials/speakPic.jpg,swift,B_aloud,77,320,2365.1832897928543,None,2365.1832897928543,None,2366.1147412452265,None,2366.3812545873225,None,2366.3812545873225,None,,,,,,,,,,,,,,,,,,,,,,,,,,,,,,,,,,,sing22,001,2019_Nov_05_1555,ProdFawcett_Revision2019,3.2.4,60.0911627446085,
78,0,78,0,,,,,,,,,,,,,,,,,2373.13342103624,None,materials/singPic.jpg,space,C_sing,78,297,2369.485395596188,None,2369.485395596188,None,2370.3827480251202,None,2370.6492053865804,None,2370.6492053865804,None,,,,,,,,,,,,,,,,,,,,,,,,,,,,,,,,,,,sing22,001,2019_Nov_05_1555,ProdFawcett_Revision2019,3.2.4,60.0911627446085,
79,0,79,0,,,,,,,,,,,,,,,,,2377.4014169310103,None,materials/readPic.jpg,block,A_silent,79,25,2373.7374077875284,None,2373.7374077875284,None,2374.6506615040125,None,2374.9173499409226,None,2374.9173499409226,None,,,,,,,,,,,,,,,,,,,,,,,,,,,,,,,,,,,sing22,001,2019_Nov_05_1555,ProdFawcett_Revision2019,3.2.4,60.0911627446085,
80,0,80,0,,,,,,,,,,,,,,,,,2381.669395098579,None,materials/readPic.jpg,death,A_silent,80,86,2377.984635815141,None,2377.984635815141,None,2378.9187419916852,None,2379.1851778939017,None,2379.1851778939017,None,,,,,,,,,,,,,,,,,,,,,,,,,,,,,,,,,,,sing22,001,2019_Nov_05_1555,ProdFawcett_Revision2019,3.2.4,60.0911627446085,
81,0,81,0,,,,,,,,,,,,,,,,,2385.9373769981903,None,materials/singPic.jpg,solution,C_sing,81,294,2382.290252845676,None,2382.290252845676,None,2383.1867263793247,None,2383.453140511294,None,2383.453140511294,None,,,,,,,,,,,,,,,,,,,,,,,,,,,,,,,,,,,sing22,001,2019_Nov_05_1555,ProdFawcett_Revision2019,3.2.4,60.0911627446085,
82,0,82,0,,,,,,,,,,,,,,,,,2390.2053728929604,None,materials/speakPic.jpg,review,B_aloud,82,263,2386.538832493592,None,2386.538832493592,None,2387.454709522892,None,2387.7211699943873,None,2387.7211699943873,None,,,,,,,,,,,,,,,,,,,,,,,,,,,,,,,,,,,sing22,001,2019_Nov_05_1555,ProdFawcett_Revision2019,3.2.4,60.0911627446085,
83,0,83,0,,,,,,,,,,,,,,,,,2394.473359768628,None,materials/speakPic.jpg,partner,B_aloud,83,211,2390.777585992415,None,2390.777585992415,None,2391.7226777384058,None,2391.9891606020974,None,2391.9891606020974,None,,,,,,,,,,,,,,,,,,,,,,,,,,,,,,,,,,,sing22,001,2019_Nov_05_1555,ProdFawcett_Revision2019,3.2.4,60.0911627446085,
84,0,84,0,,,,,,,,,,,,,,,,,2398.741333893151,None,materials/speakPic.jpg,series,B_aloud,84,279,2395.0403088262537,None,2395.0403088262537,None,2395.9906185855507,None,2396.2571197984507,None,2396.2571197984507,None,,,,,,,,,,,,,,,,,,,,,,,,,,,,,,,,,,,sing22,001,2019_Nov_05_1555,ProdFawcett_Revision2019,3.2.4,60.0911627446085,
85,0,85,0,,,,,,,,,,,,,,,,,2403.009333208902,None,materials/singPic.jpg,detective,C_sing,85,92,2399.359142563888,None,2399.359142563888,None,2400.258677302976,None,2400.525111650175,None,2400.525111650175,None,,,,,,,,,,,,,,,,,,,,,,,,,,,,,,,,,,,sing22,001,2019_Nov_05_1555,ProdFawcett_Revision2019,3.2.4,60.0911627446085,
86,0,86,0,,,,,,,,,,,,,,,,,2407.277319151559,None,materials/speakPic.jpg,resistance,B_aloud,86,262,2403.6109121726477,None,2403.6109121726477,None,2404.5266934129177,None,2404.7931311812135,None,2404.7931311812135,None,,,,,,,,,,,,,,,,,,,,,,,,,,,,,,,,,,,sing22,001,2019_Nov_05_1555,ProdFawcett_Revision2019,3.2.4,60.0911627446085,
87,0,87,0,,,,,,,,,,,,,,,,,2411.5452948310995,None,materials/singPic.jpg,tough,C_sing,87,333,2407.895134975435,None,2407.895134975435,None,2408.794640791195,None,2409.061096286634,None,2409.061096286634,None,,,,,,,,,,,,,,,,,,,,,,,,,,,,,,,,,,,sing22,001,2019_Nov_05_1555,ProdFawcett_Revision2019,3.2.4,60.0911627446085,
88,0,88,0,,,,,,,,,,,,,,,,,2415.8133305342635,None,materials/speakPic.jpg,beauty,B_aloud,88,18,2412.1364514523884,None,2412.1364514523884,None,2413.0627956086537,None,2413.329120171722,None,2413.329120171722,None,,,,,,,,,,,,,,,,,,,,,,,,,,,,,,,,,,,sing22,001,2019_Nov_05_1555,ProdFawcett_Revision2019,3.2.4,60.0911627446085,
89,0,89,0,,,,,,,,,,,,,,,,,2420.0812859985745,None,materials/speakPic.jpg,husband,B_aloud,89,156,2416.39662126021,None,2416.39662126021,None,2417.330644087866,None,2417.5970712819835,None,2417.5970712819835,None,,,,,,,,,,,,,,,,,,,,,,,,,,,,,,,,,,,sing22,001,2019_Nov_05_1555,ProdFawcett_Revision2019,3.2.4,60.0911627446085,
,,,,,,,,,,,,,,,,,,,,,,,,,,,,,,,,,,,,,2420.581895565032,None,k,81.41949835163541,2420.581895565032,None,,,,,,,,,,,,,,,,,,,,,,,,,,,,,sing22,001,2019_Nov_05_1555,ProdFawcett_Revision2019,3.2.4,60.0911627446085,
,,,,,,,,,,,,,,2502.0233292903285,None,space,12.201323008048348,2502.0233292903285,None,,,,,,,,,,,,,,,,,,,,,,,,,,,,,,,,,,,,,,,,,,,,,,,,,,,,sing22,001,2019_Nov_05_1555,ProdFawcett_Revision2019,3.2.4,60.0911627446085,
,,,,0,0,0,0,,,,,,,,,,,,,2521.312678671442,None,,,,,,,,,,,,,,,,,,,,,,group,A_silent,0,143,2514.765035765362,None,2514.765035765362,None,2514.765035765362,None,1,4.179721963126212,2514.765035765362,None,2518.9951816259418,None,2518.9951816259418,None,2519.51342165831,None,2519.51342165831,None,2519.51342165831,None,n,1.750775953172706,2519.51342165831,None,sing22,001,2019_Nov_05_1555,ProdFawcett_Revision2019,3.2.4,60.0911627446085,
,,,,1,0,1,0,,,,,,,,,,,,,2525.9472401567036,None,,,,,,,,,,,,,,,,,,,,,,present,D_new,1,231,2521.8303004291374,None,2521.8303004291374,None,2521.8303004291374,None,3,3.290388443041593,2521.8303004291374,None,2525.18028363504,None,2525.18028363504,None,2525.697158362833,None,2525.697158362833,None,2525.697158362833,None,f,0.20734900794923306,2525.697158362833,None,sing22,001,2019_Nov_05_1555,ProdFawcett_Revision2019,3.2.4,60.0911627446085,
,,,,2,0,2,0,,,,,,,,,,,,,2529.998541083536,None,,,,,,,,,,,,,,,,,,,,,,afternoon,D_new,2,3,2526.467458792031,None,2526.467458792031,None,2526.467458792031,None,1,2.356684082886204,2526.467458792031,None,2528.88148970576,None,2528.88148970576,None,2529.398328979267,None,2529.398328979267,None,2529.398328979267,None,n,0.5616526715457439,2529.398328979267,None,sing22,001,2019_Nov_05_1555,ProdFawcett_Revision2019,3.2.4,60.0911627446085,
,,,,3,0,3,0,,,,,,,,,,,,,2533.249433662975,None,,,,,,,,,,,,,,,,,,,,,,company,A_silent,3,64,2530.516309945844,None,2530.516309945844,None,2530.516309945844,None,1,1.3080105119151995,2530.516309945844,None,2531.8730636935215,None,2531.8730636935215,None,2532.399279094301,None,2532.399279094301,None,2532.399279094301,None,n,0.8088931392412633,2532.399279094301,None,sing22,001,2019_Nov_05_1555,ProdFawcett_Revision2019,3.2.4,60.0911627446085,
,,,,4,0,4,0,,,,,,,,,,,,,2548.954433973995,None,,,,,,,,,,,,,,,,,,,,,,management,A_silent,4,177,2533.7686141693266,None,2533.7686141693266,None,2533.7686141693266,None,2,9.174994090921246,2533.7686141693266,None,2543.002523480798,None,2543.002523480798,None,2543.5194868445396,None,2543.5194868445396,None,2543.5194868445396,None,n,5.39916122413706,2543.5194868445396,None,sing22,001,2019_Nov_05_1555,ProdFawcett_Revision2019,3.2.4,60.0911627446085,
,,,,5,0,5,0,,,,,,,,,,,,,2553.7893400510075,None,,,,,,,,,,,,,,,,,,,,,,order,D_new,5,207,2549.4714520743582,None,2549.4714520743582,None,2549.4714520743582,None,1,2.3833669216837734,2549.4714520743582,None,2551.9053660508944,None,2551.9053660508944,None,2552.422018100391,None,2552.422018100391,None,2552.422018100391,None,n,1.3201816258952022,2552.422018100391,None,sing22,001,2019_Nov_05_1555,ProdFawcett_Revision2019,3.2.4,60.0911627446085,
,,,,6,0,6,0,,,,,,,,,,,,,2558.4073654910317,None,,,,,,,,,,,,,,,,,,,,,,scale,D_new,6,272,2554.3062608073233,None,2554.3062608073233,None,2554.3062608073233,None,1,2.579759905464016,2554.3062608073233,None,2556.9270255644806,None,2556.9270255644806,None,2557.456951545668,None,2557.456951545668,None,2557.456951545668,None,n,0.9093049076618627,2557.456951545668,None,sing22,001,2019_Nov_05_1555,ProdFawcett_Revision2019,3.2.4,60.0911627446085,
,,,,7,0,7,0,,,,,,,,,,,,,2564.0923151085153,None,,,,,,,,,,,,,,,,,,,,,,beauty,B_aloud,7,18,2558.925250979606,None,2558.925250979606,None,2558.925250979606,None,6,2.4251001430675387,2558.925250979606,None,2561.3965889158426,None,2561.3965889158426,None,2561.924970454653,None,2561.924970454653,None,2561.924970454653,None,r,2.1206285376101732,2561.924970454653,None,sing22,001,2019_Nov_05_1555,ProdFawcett_Revision2019,3.2.4,60.0911627446085,
,,,,8,0,8,0,,,,,,,,,,,,,2569.043981775176,None,,,,,,,,,,,,,,,,,,,,,,strength,A_silent,8,310,2564.610225788434,None,2564.610225788434,None,2564.610225788434,None,3,3.33137432357762,2564.610225788434,None,2567.993565963814,None,2567.993565963814,None,2568.510467437911,None,2568.510467437911,None,2568.510467437911,None,f,0.4951303103007376,2568.510467437911,None,sing22,001,2019_Nov_05_1555,ProdFawcett_Revision2019,3.2.4,60.0911627446085,
,,,,9,0,9,0,,,,,,,,,,,,,2574.0288679479854,None,,,,,,,,,,,,,,,,,,,,,,detective,C_sing,9,92,2569.563133980264,None,2569.563133980264,None,2569.563133980264,None,6,2.1781796977156773,2569.563133980264,None,2571.79471854202,None,2571.79471854202,None,2572.3115214281715,None,2572.3115214281715,None,2572.3115214281715,None,f,1.6695645954459906,2572.3115214281715,None,sing22,001,2019_Nov_05_1555,ProdFawcett_Revision2019,3.2.4,60.0911627446085,
,,,,10,0,10,0,,,,,,,,,,,,,2578.563598619192,None,,,,,,,,,,,,,,,,,,,,,,foundation,D_new,10,132,2574.5481952478876,None,2574.5481952478876,None,2574.5481952478876,None,1,2.896756235626526,2574.5481952478876,None,2577.496449275408,None,2577.496449275408,None,2578.013297567959,None,2578.013297567959,None,2578.013297567959,None,n,0.5034633326577023,2578.013297567959,None,sing22,001,2019_Nov_05_1555,ProdFawcett_Revision2019,3.2.4,60.0911627446085,
,,,,11,0,11,0,,,,,,,,,,,,,2582.2312788455747,None,,,,,,,,,,,,,,,,,,,,,,grade,A_silent,11,140,2579.0811289419653,None,2579.0811289419653,None,2579.0811289419653,None,1,2.108314362121746,2579.0811289419653,None,2581.2475996766007,None,2581.2475996766007,None,2581.7645807676017,None,2581.7645807676017,None,2581.7645807676017,None,n,0.42480717797297984,2581.7645807676017,None,sing22,001,2019_Nov_05_1555,ProdFawcett_Revision2019,3.2.4,60.0911627446085,
,,,,12,0,12,0,,,,,,,,,,,,,2585.782470299164,None,,,,,,,,,,,,,,,,,,,,,,block,A_silent,12,25,2582.7482468744274,None,2582.7482468744274,None,2582.7482468744274,None,1,2.0167997759999707,2582.7482468744274,None,2584.8153735150117,None,2584.8153735150117,None,2585.3322158984374,None,2585.3322158984374,None,2585.3322158984374,None,n,0.41654661938082427,2585.3322158984374,None,sing22,001,2019_Nov_05_1555,ProdFawcett_Revision2019,3.2.4,60.0911627446085,
,,,,13,0,13,0,,,,,,,,,,,,,2591.3007585370215,None,,,,,,,,,,,,,,,,,,,,,,revolution,D_new,13,264,2586.3021465447964,None,2586.3021465447964,None,2586.3021465447964,None,2,3.3179507992463186,2586.3021465447964,None,2589.683592088055,None,2589.683592088055,None,2590.2004851651145,None,2590.2004851651145,None,2590.2004851651145,None,f,1.0598053119610995,2590.2004851651145,None,sing22,001,2019_Nov_05_1555,ProdFawcett_Revision2019,3.2.4,60.0911627446085,
,,,,14,0,14,0,,,,,,,,,,,,,2594.301715183188,None,,,,,,,,,,,,,,,,,,,,,,court,D_new,14,75,2591.8181346022757,None,2591.8181346022757,None,2591.8181346022757,None,1,1.026094731525518,2591.8181346022757,None,2592.89063320274,None,2592.89063320274,None,2593.418260247563,None,2593.418260247563,None,2593.418260247563,None,n,0.8501225353684276,2593.418260247563,None,sing22,001,2019_Nov_05_1555,ProdFawcett_Revision2019,3.2.4,60.0911627446085,
,,,,15,0,15,0,,,,,,,,,,,,,2599.2198678236455,None,,,,,,,,,,,,,,,,,,,,,,theme,B_aloud,15,326,2594.818591777119,None,2594.818591777119,None,2594.818591777119,None,1,3.473864526953548,2594.818591777119,None,2598.3529822105775,None,2598.3529822105775,None,2598.86987466563,None,2598.86987466563,None,2598.86987466563,None,n,0.3177386950701475,2598.86987466563,None,sing22,001,2019_Nov_05_1555,ProdFawcett_Revision2019,3.2.4,60.0911627446085,
,,,,16,0,16,0,,,,,,,,,,,,,2603.904778254684,None,,,,,,,,,,,,,,,,,,,,,,tough,C_sing,16,333,2599.7370949181495,None,2599.7370949181495,None,2599.7370949181495,None,6,1.698505940148607,2599.7370949181495,None,2601.475234185462,None,2601.475234185462,None,2602.0040498849703,None,2602.0040498849703,None,2602.0040498849703,None,r,1.8633184052305296,2602.0040498849703,None,sing22,001,2019_Nov_05_1555,ProdFawcett_Revision2019,3.2.4,60.0911627446085,
,,,,17,0,17,0,,,,,,,,,,,,,2608.9730587174417,None,,,,,,,,,,,,,,,,,,,,,,match,C_sing,17,181,2604.4220411146525,None,2604.4220411146525,None,2604.4220411146525,None,3,2.3419120482867584,2604.4220411146525,None,2606.8110617653,None,2606.8110617653,None,2607.33915935806,None,2607.33915935806,None,2607.33915935806,None,f,1.5926348200300708,2607.33915935806,None,sing22,001,2019_Nov_05_1555,ProdFawcett_Revision2019,3.2.4,60.0911627446085,
,,,,18,0,18,0,,,,,,,,,,,,,2611.690375381033,None,,,,,,,,,,,,,,,,,,,,,,split,D_new,18,299,2609.490088635939,None,2609.490088635939,None,2609.490088635939,None,1,1.1772370467660949,2609.490088635939,None,2610.7120656839106,None,2610.7120656839106,None,2611.2402481805766,None,2611.2402481805766,None,2611.2402481805766,None,n,0.4026861354941502,2611.2402481805766,None,sing22,001,2019_Nov_05_1555,ProdFawcett_Revision2019,3.2.4,60.0911627446085,
,,,,19,0,19,0,,,,,,,,,,,,,2616.6752391615883,None,,,,,,,,,,,,,,,,,,,,,,executive,B_aloud,19,122,2612.2072087454144,None,2612.2072087454144,None,2612.2072087454144,None,6,2.7476258008973673,2612.2072087454144,None,2614.9984916340327,None,2614.9984916340327,None,2615.5250208372017,None,2615.5250208372017,None,2615.5250208372017,None,r,1.117510107695125,2615.5250208372017,None,sing22,001,2019_Nov_05_1555,ProdFawcett_Revision2019,3.2.4,60.0911627446085,
,,,,20,0,20,0,,,,,,,,,,,,,2620.2598457423737,None,,,,,,,,,,,,,,,,,,,,,,volume,D_new,20,349,2617.1930630714633,None,2617.1930630714633,None,2617.1930630714633,None,1,1.4497934937244281,2617.1930630714633,None,2618.6925539590884,None,2618.6925539590884,None,2619.2094983516727,None,2619.2094983516727,None,2619.2094983516727,None,n,1.0171956832055002,2619.2094983516727,None,sing22,001,2019_Nov_05_1555,ProdFawcett_Revision2019,3.2.4,60.0911627446085,
,,,,21,0,21,0,,,,,,,,,,,,,2623.0939083783887,None,,,,,,,,,,,,,,,,,,,,,,pancakes,D_new,21,210,2620.7774535049684,None,2620.7774535049684,None,2620.7774535049684,None,1,1.289443615009077,2620.7774535049684,None,2622.115114449174,None,2622.115114449174,None,2622.643763761851,None,2622.643763761851,None,2622.643763761851,None,n,0.41459445166401565,2622.643763761851,None,sing22,001,2019_Nov_05_1555,ProdFawcett_Revision2019,3.2.4,60.0911627446085,
,,,,22,0,22,0,,,,,,,,,,,,,2626.8618840579875,None,,,,,,,,,,,,,,,,,,,,,,property,D_new,22,242,2623.6120784350205,None,2623.6120784350205,None,2623.6120784350205,None,1,2.2859118616906926,2623.6120784350205,None,2625.950673944084,None,2625.950673944084,None,2626.4783942899667,None,2626.4783942899667,None,2626.4783942899667,None,n,0.34034707967657596,2626.4783942899667,None,sing22,001,2019_Nov_05_1555,ProdFawcett_Revision2019,3.2.4,60.0911627446085,
,,,,23,0,23,0,,,,,,,,,,,,,2636.898196180933,None,,,,,,,,,,,,,,,,,,,,,,appeal,C_sing,23,9,2627.3788813211722,None,2627.3788813211722,None,2627.3788813211722,None,6,1.7758045655209571,2627.3788813211722,None,2629.2124712321674,None,2629.2124712321674,None,2629.729310194729,None,2629.729310194729,None,2629.729310194729,None,r,7.128605150268413,2629.729310194729,None,sing22,001,2019_Nov_05_1555,ProdFawcett_Revision2019,3.2.4,60.0911627446085,
,,,,24,0,24,0,,,,,,,,,,,,,2657.437873670482,None,,,,,,,,,,,,,,,,,,,,,,color,D_new,24,56,2637.4151794489007,None,2637.4151794489007,None,2637.4151794489007,None,1,17.033305032062344,2637.4151794489007,None,2654.5036309635034,None,2654.5036309635034,None,2655.020599614363,None,2655.020599614363,None,2655.020599614363,None,f,2.3796613173326477,2655.020599614363,None,sing22,001,2019_Nov_05_1555,ProdFawcett_Revision2019,3.2.4,60.0911627446085,
,,,,25,0,25,0,,,,,,,,,,,,,2660.672340610763,None,,,,,,,,,,,,,,,,,,,,,,motion,D_new,25,194,2657.9546429682523,None,2657.9546429682523,None,2657.9546429682523,None,1,1.6778665174497291,2657.9546429682523,None,2659.6887068483047,None,2659.6887068483047,None,2660.205383156077,None,2660.205383156077,None,2660.205383156077,None,n,0.41863251850008965,2660.205383156077,None,sing22,001,2019_Nov_05_1555,ProdFawcett_Revision2019,3.2.4,60.0911627446085,
,,,,26,0,26,0,,,,,,,,,,,,,2664.6902441375423,None,,,,,,,,,,,,,,,,,,,,,,husband,B_aloud,26,156,2661.1899082540767,None,2661.1899082540767,None,2661.1899082540767,None,6,1.7699555264553055,2661.1899082540767,None,2663.022954531363,None,2663.022954531363,None,2663.539922560216,None,2663.539922560216,None,2663.539922560216,None,r,1.1086505566490814,2663.539922560216,None,sing22,001,2019_Nov_05_1555,ProdFawcett_Revision2019,3.2.4,60.0911627446085,
,,,,27,0,27,0,,,,,,,,,,,,,2668.241225664038,None,,,,,,,,,,,,,,,,,,,,,,plane,D_new,27,223,2665.2070697268937,None,2665.2070697268937,None,2665.2070697268937,None,1,1.4487802450312302,2665.2070697268937,None,2666.7074155625887,None,2666.7074155625887,None,2667.22423057782,None,2667.22423057782,None,2667.22423057782,None,n,0.9838862972101197,2667.22423057782,None,sing22,001,2019_Nov_05_1555,ProdFawcett_Revision2019,3.2.4,60.0911627446085,
,,,,28,0,28,0,,,,,,,,,,,,,2674.643338309368,None,,,,,,,,,,,,,,,,,,,,,,evidence,B_aloud,28,120,2668.7586440256564,None,2668.7586440256564,None,2668.7586440256564,None,6,3.512774771428667,2668.7586440256564,None,2672.325938918977,None,2672.325938918977,None,2672.842841637088,None,2672.842841637088,None,2672.842841637088,None,r,1.7645076817134395,2672.842841637088,None,sing22,001,2019_Nov_05_1555,ProdFawcett_Revision2019,3.2.4,60.0911627446085,
,,,,29,0,29,0,,,,,,,,,,,,,2677.444303663564,None,,,,,,,,,,,,,,,,,,,,,,style,D_new,29,311,2675.160144305555,None,2675.160144305555,None,2675.160144305555,None,1,1.3273518069181591,2675.160144305555,None,2676.5311373390723,None,2676.5311373390723,None,2677.060618896503,None,2677.060618896503,None,2677.060618896503,None,n,0.33897773222997785,2677.060618896503,None,sing22,001,2019_Nov_05_1555,ProdFawcett_Revision2019,3.2.4,60.0911627446085,
,,,,30,0,30,0,,,,,,,,,,,,,2684.379546868149,None,,,,,,,,,,,,,,,,,,,,,,employment,D_new,30,111,2677.9629399141995,None,2677.9629399141995,None,2677.9629399141995,None,3,4.708798594307154,2677.9629399141995,None,2682.7290396217722,None,2682.7290396217722,None,2683.24596068915,None,2683.24596068915,None,2683.24596068915,None,f,1.096768986666575,2683.24596068915,None,sing22,001,2019_Nov_05_1555,ProdFawcett_Revision2019,3.2.4,60.0911627446085,
,,,,31,0,31,0,,,,,,,,,,,,,2687.3972833862063,None,,,,,,,,,,,,,,,,,,,,,,individual,B_aloud,31,160,2684.898851775797,None,2684.898851775797,None,2684.898851775797,None,3,1.5240225166780874,2684.898851775797,None,2686.480192822055,None,2686.480192822055,None,2686.9970320955617,None,2686.9970320955617,None,2686.9970320955617,None,f,0.3618392734788358,2686.9970320955617,None,sing22,001,2019_Nov_05_1555,ProdFawcett_Revision2019,3.2.4,60.0911627446085,
,,,,32,0,32,0,,,,,,,,,,,,,2693.299083162332,None,,,,,,,,,,,,,,,,,,,,,,display,A_silent,32,98,2687.9145456241677,None,2687.9145456241677,None,2687.9145456241677,None,1,3.684187970473431,2687.9145456241677,None,2691.6485249113757,None,2691.6485249113757,None,2692.165431983536,None,2692.165431983536,None,2692.165431983536,None,f,1.0891316786874086,2692.165431983536,None,sing22,001,2019_Nov_05_1555,ProdFawcett_Revision2019,3.2.4,60.0911627446085,
,,,,33,0,33,0,,,,,,,,,,,,,2698.984118616674,None,,,,,,,,,,,,,,,,,,,,,,bicycle,B_aloud,33,21,2693.8170121912844,None,2693.8170121912844,None,2693.8170121912844,None,4,4.1254944952670485,2693.8170121912844,None,2698.0004226535093,None,2698.0004226535093,None,2698.5173941033427,None,2698.5173941033427,None,2698.5173941033427,None,f,0.4328774025198072,2698.5173941033427,None,sing22,001,2019_Nov_05_1555,ProdFawcett_Revision2019,3.2.4,60.0911627446085,
,,,,34,0,34,0,,,,,,,,,,,,,2701.7350547366077,None,,,,,,,,,,,,,,,,,,,,,,agreement,A_silent,34,5,2699.502027741517,None,2699.502027741517,None,2699.502027741517,None,1,1.2957868383964524,2699.502027741517,None,2700.851448031375,None,2700.851448031375,None,2701.368269888684,None,2701.368269888684,None,2701.368269888684,None,n,0.33366797282360494,2701.368269888684,None,sing22,001,2019_Nov_05_1555,ProdFawcett_Revision2019,3.2.4,60.0911627446085,
,,,,35,0,35,0,,,,,,,,,,,,,2705.071586116799,None,,,,,,,,,,,,,,,,,,,,,,estate,D_new,35,119,2702.25182932138,None,2702.25182932138,None,2702.25182932138,None,1,0.9617636997718364,2702.25182932138,None,2703.2567646326497,None,2703.2567646326497,None,2703.785603035358,None,2703.785603035358,None,2703.785603035358,None,n,1.2676525471033528,2703.785603035358,None,sing22,001,2019_Nov_05_1555,ProdFawcett_Revision2019,3.2.4,60.0911627446085,
,,,,36,0,36,0,,,,,,,,,,,,,2707.4701638987754,None,,,,,,,,,,,,,,,,,,,,,,nation,D_new,36,198,2705.602932139067,None,2705.602932139067,None,2705.602932139067,None,1,0.9383905578870326,2705.602932139067,None,2706.6032418983523,None,2706.6032418983523,None,2707.1200765068643,None,2707.1200765068643,None,2707.1200765068643,None,n,0.3012679604580626,2707.1200765068643,None,sing22,001,2019_Nov_05_1555,ProdFawcett_Revision2019,3.2.4,60.0911627446085,
,,,,37,0,37,0,,,,,,,,,,,,,2710.7210770044476,None,,,,,,,,,,,,,,,,,,,,,,strain,D_new,37,308,2707.9868641537614,None,2707.9868641537614,None,2707.9868641537614,None,1,1.842929339967668,2707.9868641537614,None,2709.8874926913995,None,2709.8874926913995,None,2710.40441593586,None,2710.40441593586,None,2710.40441593586,None,n,0.2735295764869079,2710.40441593586,None,sing22,001,2019_Nov_05_1555,ProdFawcett_Revision2019,3.2.4,60.0911627446085,
,,,,38,0,38,0,,,,,,,,,,,,,2712.9552012191853,None,,,,,,,,,,,,,,,,,,,,,,budget,D_new,38,34,2711.237985320622,None,2711.237985320622,None,2711.237985320622,None,1,0.8077530012233183,2711.237985320622,None,2712.088143310277,None,2712.088143310277,None,2712.6049608135363,None,2712.6049608135363,None,2712.6049608135363,None,n,0.30401598557364196,2712.6049608135363,None,sing22,001,2019_Nov_05_1555,ProdFawcett_Revision2019,3.2.4,60.0911627446085,
,,,,39,0,39,0,,,,,,,,,,,,,2715.039034956717,None,,,,,,,,,,,,,,,,,,,,,,attack,D_new,39,13,2713.472955775331,None,2713.472955775331,None,2713.472955775331,None,1,0.6199483735254034,2713.472955775331,None,2714.1445222989423,None,2714.1445222989423,None,2714.6723735771375,None,2714.6723735771375,None,2714.6723735771375,None,n,0.32523356354795396,2714.6723735771375,None,sing22,001,2019_Nov_05_1555,ProdFawcett_Revision2019,3.2.4,60.0911627446085,
,,,,40,0,40,0,,,,,,,,,,,,,2718.1737376375822,None,,,,,,,,,,,,,,,,,,,,,,column,B_aloud,40,57,2715.556038129027,None,2715.556038129027,None,2715.556038129027,None,6,1.625497605302371,2715.556038129027,None,2717.239815886016,None,2717.239815886016,None,2717.756704609026,None,2717.756704609026,None,2717.756704609026,None,r,0.3680335261160508,2717.756704609026,None,sing22,001,2019_Nov_05_1555,ProdFawcett_Revision2019,3.2.4,60.0911627446085,
,,,,41,0,41,0,,,,,,,,,,,,,2720.7074622131186,None,,,,,,,,,,,,,,,,,,,,,,oxygen,B_aloud,41,209,2718.690681408276,None,2718.690681408276,None,2718.690681408276,None,1,1.194317658781074,2718.690681408276,None,2719.940863656113,None,2719.940863656113,None,2720.457538097864,None,2720.457538097864,None,2720.457538097864,None,n,0.21139920386485755,2720.457538097864,None,sing22,001,2019_Nov_05_1555,ProdFawcett_Revision2019,3.2.4,60.0911627446085,
,,,,42,0,42,0,,,,,,,,,,,,,2723.441684704856,None,,,,,,,,,,,,,,,,,,,,,,region,D_new,42,256,2721.224312993698,None,2721.224312993698,None,2721.224312993698,None,1,1.33223642478697,2721.224312993698,None,2722.608140511322,None,2722.608140511322,None,2723.1250388753833,None,2723.1250388753833,None,2723.1250388753833,None,n,0.27137774461880326,2723.1250388753833,None,sing22,001,2019_Nov_05_1555,ProdFawcett_Revision2019,3.2.4,60.0911627446085,
,,,,43,0,43,0,,,,,,,,,,,,,2727.8931641475065,None,,,,,,,,,,,,,,,,,,,,,,meeting,D_new,43,187,2723.9597938047955,None,2723.9597938047955,None,2723.9597938047955,None,3,2.189164334209636,2723.9597938047955,None,2726.2093014866114,None,2726.2093014866114,None,2726.7261715494096,None,2726.7261715494096,None,2726.7261715494096,None,f,1.1263892517890781,2726.7261715494096,None,sing22,001,2019_Nov_05_1555,ProdFawcett_Revision2019,3.2.4,60.0911627446085,
,,,,44,0,44,0,,,,,,,,,,,,,2730.6938772781286,None,,,,,,,,,,,,,,,,,,,,,,union,D_new,44,344,2728.410065932665,None,2728.410065932665,None,2728.410065932665,None,1,1.40199944016058,2728.410065932665,None,2729.865449710749,None,2729.865449710749,None,2730.39383746963,None,2730.39383746963,None,2730.39383746963,None,n,0.25885488593485206,2730.39383746963,None,sing22,001,2019_Nov_05_1555,ProdFawcett_Revision2019,3.2.4,60.0911627446085,
,,,,45,0,45,0,,,,,,,,,,,,,2735.8623477638466,None,,,,,,,,,,,,,,,,,,,,,,corner,A_silent,45,69,2731.2109090626473,None,2731.2109090626473,None,2731.2109090626473,None,4,2.3529019716661423,2731.2109090626473,None,2733.616378988605,None,2733.616378988605,None,2734.1449412204092,None,2734.1449412204092,None,2734.1449412204092,None,f,1.6832543384516612,2734.1449412204092,None,sing22,001,2019_Nov_05_1555,ProdFawcett_Revision2019,3.2.4,60.0911627446085,
,,,,46,0,46,0,,,,,,,,,,,,,2739.6633538595634,None,,,,,,,,,,,,,,,,,,,,,,emergency,B_aloud,46,110,2736.3795872986084,None,2736.3795872986084,None,2736.3795872986084,None,5,2.344336940906942,2736.3795872986084,None,2738.779811842949,None,2738.779811842949,None,2739.2966812838567,None,2739.2966812838567,None,2739.2966812838567,None,f,0.3309031535172835,2739.2966812838567,None,sing22,001,2019_Nov_05_1555,ProdFawcett_Revision2019,3.2.4,60.0911627446085,
,,,,47,0,47,0,,,,,,,,,,,,,2742.0475356099196,None,,,,,,,,,,,,,,,,,,,,,,territory,D_new,47,324,2740.180378179997,None,2740.180378179997,None,2740.180378179997,None,1,0.9995086148846895,2740.180378179997,None,2741.2306590159424,None,2741.2306590159424,None,2741.747408098541,None,2741.747408098541,None,2741.747408098541,None,n,0.25666573364287615,2741.747408098541,None,sing22,001,2019_Nov_05_1555,ProdFawcett_Revision2019,3.2.4,60.0911627446085,
,,,,48,0,48,0,,,,,,,,,,,,,2746.415578777087,None,,,,,,,,,,,,,,,,,,,,,,public,A_silent,48,244,2742.564570815419,None,2742.564570815419,None,2742.564570815419,None,5,3.0306521739112213,2742.564570815419,None,2745.6486020401353,None,2745.6486020401353,None,2746.165499160299,None,2746.165499160299,None,2746.165499160299,None,f,0.20620575977955014,2746.165499160299,None,sing22,001,2019_Nov_05_1555,ProdFawcett_Revision2019,3.2.4,60.0911627446085,
,,,,49,0,49,0,,,,,,,,,,,,,2748.5995468682377,None,,,,,,,,,,,,,,,,,,,,,,interior,A_silent,49,164,2746.9324858493637,None,2746.9324858493637,None,2746.9324858493637,None,1,0.9752702618716285,2746.9324858493637,None,2747.954696771805,None,2747.954696771805,None,2748.482728120871,None,2748.482728120871,None,2748.482728120871,None,n,0.08025626675225794,2748.482728120871,None,sing22,001,2019_Nov_05_1555,ProdFawcett_Revision2019,3.2.4,60.0911627446085,
,,,,50,0,50,0,,,,,,,,,,,,,2751.950649063918,None,,,,,,,,,,,,,,,,,,,,,,damage,C_sing,50,83,2749.1174634571653,None,2749.1174634571653,None,2749.1174634571653,None,6,1.6059868135489523,2749.1174634571653,None,2750.772829196998,None,2750.772829196998,None,2751.3003691609483,None,2751.3003691609483,None,2751.3003691609483,None,r,0.6071816881885752,2751.3003691609483,None,sing22,001,2019_Nov_05_1555,ProdFawcett_Revision2019,3.2.4,60.0911627446085,
,,,,51,0,51,0,,,,,,,,,,,,,2754.3180282390676,None,,,,,,,,,,,,,,,,,,,,,,waste,C_sing,51,350,2752.4688203644473,None,2752.4688203644473,None,2752.4688203644473,None,1,0.9580972817493603,2752.4688203644473,None,2753.472597188549,None,2753.472597188549,None,2754.001146980212,None,2754.001146980212,None,2754.001146980212,None,n,0.2742476830026135,2754.001146980212,None,sing22,001,2019_Nov_05_1555,ProdFawcett_Revision2019,3.2.4,60.0911627446085,
,,,,52,0,52,0,,,,,,,,,,,,,2756.5353623188566,None,,,,,,,,,,,,,,,,,,,,,,second,D_new,52,278,2754.8348774646875,None,2754.8348774646875,None,2754.8348774646875,None,1,0.8560431050136685,2754.8348774646875,None,2755.751823101309,None,2755.751823101309,None,2756.268632518477,None,2756.268632518477,None,2756.268632518477,None,n,0.22999035893008113,2756.268632518477,None,sing22,001,2019_Nov_05_1555,ProdFawcett_Revision2019,3.2.4,60.0911627446085,
,,,,53,0,53,0,,,,,,,,,,,,,2759.4694647633005,None,,,,,,,,,,,,,,,,,,,,,,throw,C_sing,53,330,2757.055634446675,None,2757.055634446675,None,2757.055634446675,None,4,1.5233871368691325,2757.055634446675,None,2758.635934564867,None,2758.635934564867,None,2759.152859986294,None,2759.152859986294,None,2759.152859986294,None,f,0.2816091311397031,2759.152859986294,None,sing22,001,2019_Nov_05_1555,ProdFawcett_Revision2019,3.2.4,60.0911627446085,
,,,,54,0,54,0,,,,,,,,,,,,,2761.653466753778,None,,,,,,,,,,,,,,,,,,,,,,suspect,D_new,54,318,2759.98795888538,None,2759.98795888538,None,2759.98795888538,None,1,0.9662776015466079,2759.98795888538,None,2761.0033180941828,None,2761.0033180941828,None,2761.5202500466257,None,2761.5202500466257,None,2761.5202500466257,None,n,0.09068078629206866,2761.5202500466257,None,sing22,001,2019_Nov_05_1555,ProdFawcett_Revision2019,3.2.4,60.0911627446085,
,,,,55,0,55,0,,,,,,,,,,,,,2763.9041606021347,None,,,,,,,,,,,,,,,,,,,,,,fashion,D_new,55,125,2762.170547365793,None,2762.170547365793,None,2762.170547365793,None,1,0.976132674026303,2762.170547365793,None,2763.19286869443,None,2763.19286869443,None,2763.7208459289977,None,2763.7208459289977,None,2763.7208459289977,None,n,0.13716831500642002,2763.7208459289977,None,sing22,001,2019_Nov_05_1555,ProdFawcett_Revision2019,3.2.4,60.0911627446085,
,,,,56,0,56,0,,,,,,,,,,,,,2766.304896435933,None,,,,,,,,,,,,,,,,,,,,,,sleep,D_new,56,290,2764.421123032924,None,2764.421123032924,None,2764.421123032924,None,1,0.9651439945446327,2764.421123032924,None,2765.43794551224,None,2765.43794551224,None,2765.954999377951,None,2765.954999377951,None,2765.954999377951,None,n,0.30286496225744486,2765.954999377951,None,sing22,001,2019_Nov_05_1555,ProdFawcett_Revision2019,3.2.4,60.0911627446085,
,,,,57,0,57,0,,,,,,,,,,,,,2770.472848790232,None,,,,,,,,,,,,,,,,,,,,,,working,C_sing,57,357,2766.8217273122864,None,2766.8217273122864,None,2766.8217273122864,None,6,2.1163649935042486,2766.8217273122864,None,2768.9792918454623,None,2768.9792918454623,None,2769.5060496361693,None,2769.5060496361693,None,2769.5060496361693,None,r,0.9280114449793473,2769.5060496361693,None,sing22,001,2019_Nov_05_1555,ProdFawcett_Revision2019,3.2.4,60.0911627446085,
,,,,58,0,58,0,,,,,,,,,,,,,2775.224490887602,None,,,,,,,,,,,,,,,,,,,,,,close,C_sing,58,53,2770.990059401607,None,2770.990059401607,None,2770.990059401607,None,6,1.419447036110796,2770.990059401607,None,2772.4616144180764,None,2772.4616144180764,None,2772.9903520557564,None,2772.9903520557564,None,2772.9903520557564,None,r,2.187021521385759,2772.9903520557564,None,sing22,001,2019_Nov_05_1555,ProdFawcett_Revision2019,3.2.4,60.0911627446085,
,,,,59,0,59,0,,,,,,,,,,,,,2780.799249549047,None,,,,,,,,,,,,,,,,,,,,,,community,D_new,59,63,2775.7417907569325,None,2775.7417907569325,None,2775.7417907569325,None,6,3.763381849741563,2775.7417907569325,None,2779.559167444124,None,2779.559167444124,None,2780.075832555769,None,2780.075832555769,None,2780.075832555769,None,r,0.6851946880342439,2780.075832555769,None,sing22,001,2019_Nov_05_1555,ProdFawcett_Revision2019,3.2.4,60.0911627446085,
,,,,60,0,60,0,,,,,,,,,,,,,2784.310519997496,None,,,,,,,,,,,,,,,,,,,,,,enemy,C_sing,60,113,2781.326896498096,None,2781.326896498096,None,2781.326896498096,None,6,1.7301371524808928,2781.326896498096,None,2783.1102624867344,None,2783.1102624867344,None,2783.627070659888,None,2783.627070659888,None,2783.627070659888,None,r,0.6458250917494297,2783.627070659888,None,sing22,001,2019_Nov_05_1555,ProdFawcett_Revision2019,3.2.4,60.0911627446085,
,,,,61,0,61,0,,,,,,,,,,,,,2789.9290218945825,None,,,,,,,,,,,,,,,,,,,,,,private,D_new,61,237,2784.828962804051,None,2784.828962804051,None,2784.828962804051,None,1,3.1564993469510227,2784.828962804051,None,2788.0338172544725,None,2788.0338172544725,None,2788.5618825029815,None,2788.5618825029815,None,2788.5618825029815,None,n,1.3270989612210542,2788.5618825029815,None,sing22,001,2019_Nov_05_1555,ProdFawcett_Revision2019,3.2.4,60.0911627446085,
,,,,62,0,62,0,,,,,,,,,,,,,2798.101456739474,None,,,,,,,,,,,,,,,,,,,,,,cover,D_new,62,77,2790.4468681968283,None,2790.4468681968283,None,2790.4468681968283,None,3,5.921265472308733,2790.4468681968283,None,2796.4310144927585,None,2796.4310144927585,None,2796.9478895316133,None,2796.9478895316133,None,2796.9478895316133,None,f,1.1088825651677325,2796.9478895316133,None,sing22,001,2019_Nov_05_1555,ProdFawcett_Revision2019,3.2.4,60.0911627446085,
,,,,63,0,63,0,,,,,,,,,,,,,2801.1159777943976,None,,,,,,,,,,,,,,,,,,,,,,agency,D_new,63,4,2798.6337821111083,None,2798.6337821111083,None,2798.6337821111083,None,1,1.0548074890393764,2798.6337821111083,None,2799.7362297070213,None,2799.7362297070213,None,2800.2654357156716,None,2800.2654357156716,None,2800.2654357156716,None,n,0.8146367481676862,2800.2654357156716,None,sing22,001,2019_Nov_05_1555,ProdFawcett_Revision2019,3.2.4,60.0911627446085,
,,,,64,0,64,0,,,,,,,,,,,,,2804.2500049760565,None,,,,,,,,,,,,,,,,,,,,,,entrance,D_new,64,115,2801.6338200535392,None,2801.6338200535392,None,2801.6338200535392,None,3,1.5499754307093099,2801.6338200535392,None,2803.2331271381117,None,2803.2331271381117,None,2803.749858493451,None,2803.749858493451,None,2803.749858493451,None,f,0.4663562853820622,2803.749858493451,None,sing22,001,2019_Nov_05_1555,ProdFawcett_Revision2019,3.2.4,60.0911627446085,
,,,,65,0,65,0,,,,,,,,,,,,,2806.9009370529093,None,,,,,,,,,,,,,,,,,,,,,,crime,D_new,65,78,2804.767182932119,None,2804.767182932119,None,2804.767182932119,None,1,0.9448513404931873,2804.767182932119,None,2805.7573231946444,None,2805.7573231946444,None,2806.284124214668,None,2806.284124214668,None,2806.284124214668,None,n,0.5715621694689617,2806.284124214668,None,sing22,001,2019_Nov_05_1555,ProdFawcett_Revision2019,3.2.4,60.0911627446085,
,,,,66,0,66,0,,,,,,,,,,,,,2810.518633762491,None,,,,,,,,,,,,,,,,,,,,,,author,C_sing,66,15,2807.4181277601747,None,2807.4181277601747,None,2807.4181277601747,None,5,2.2693611992290244,2807.4181277601747,None,2809.751786713954,None,2809.751786713954,None,2810.26866361883,None,2810.26866361883,None,2810.26866361883,None,f,0.21106705232523382,2810.26866361883,None,sing22,001,2019_Nov_05_1555,ProdFawcett_Revision2019,3.2.4,60.0911627446085,
,,,,67,0,67,0,,,,,,,,,,,,,2813.152879579575,None,,,,,,,,,,,,,,,,,,,,,,danger,D_new,67,85,2811.0359280338744,None,2811.0359280338744,None,2811.0359280338744,None,1,1.1634241462452337,2811.0359280338744,None,2812.24054985377,None,2812.24054985377,None,2812.7694246439496,None,2812.7694246439496,None,2812.7694246439496,None,n,0.3337423026096076,2812.7694246439496,None,sing22,001,2019_Nov_05_1555,ProdFawcett_Revision2019,3.2.4,60.0911627446085,
,,,,68,0,68,0,,,,,,,,,,,,,2815.5369453256717,None,,,,,,,,,,,,,,,,,,,,,,defeat,D_new,68,88,2813.670763202128,None,2813.670763202128,None,2813.670763202128,None,1,0.9283961560577154,2813.670763202128,None,2814.641648006509,None,2814.641648006509,None,2815.1700432294747,None,2815.1700432294747,None,2815.1700432294747,None,n,0.33350034209433943,2815.1700432294747,None,sing22,001,2019_Nov_05_1555,ProdFawcett_Revision2019,3.2.4,60.0911627446085,
,,,,69,0,69,0,,,,,,,,,,,,,2818.537742116023,None,,,,,,,,,,,,,,,,,,,,,,comedy,A_silent,69,58,2816.0547089008614,None,2816.0547089008614,None,2816.0547089008614,None,1,1.5521804441232234,2816.0547089008614,None,2817.670878584264,None,2817.670878584264,None,2818.187805871712,None,2818.187805871712,None,2818.187805871712,None,n,0.3078469241736457,2818.187805871712,None,sing22,001,2019_Nov_05_1555,ProdFawcett_Revision2019,3.2.4,60.0911627446085,
,,,,70,0,70,0,,,,,,,,,,,,,2821.0553467686987,None,,,,,,,,,,,,,,,,,,,,,,finance,D_new,70,129,2819.055719661643,None,2819.055719661643,None,2819.055719661643,None,1,1.0472774771042168,2819.055719661643,None,2820.1549191391096,None,2820.1549191391096,None,2820.671867574798,None,2820.671867574798,None,2820.671867574798,None,n,0.3348211731063202,2820.671867574798,None,sing22,001,2019_Nov_05_1555,ProdFawcett_Revision2019,3.2.4,60.0911627446085,
,,,,71,0,71,0,,,,,,,,,,,,,2823.939591963659,None,,,,,,,,,,,,,,,,,,,,,,religion,C_sing,71,258,2821.572811469785,None,2821.572811469785,None,2821.572811469785,None,6,1.4101918890373781,2821.572811469785,None,2823.039187037386,None,2823.039187037386,None,2823.5561242769472,None,2823.5561242769472,None,2823.5561242769472,None,r,0.3465033898828551,2823.5561242769472,None,sing22,001,2019_Nov_05_1555,ProdFawcett_Revision2019,3.2.4,60.0911627446085,
,,,,72,0,72,0,,,,,,,,,,,,,2828.3074587921146,None,,,,,,,,,,,,,,,,,,,,,,distance,D_new,72,100,2824.4578211108455,None,2824.4578211108455,None,2824.4578211108455,None,2,2.3414657585090026,2824.4578211108455,None,2826.8475331218215,None,2826.8475331218215,None,2827.373958760989,None,2827.373958760989,None,2827.373958760989,None,n,0.888362878584303,2827.373958760989,None,sing22,001,2019_Nov_05_1555,ProdFawcett_Revision2019,3.2.4,60.0911627446085,
,,,,73,0,73,0,,,,,,,,,,,,,2832.4921213535126,None,,,,,,,,,,,,,,,,,,,,,,course,C_sing,73,74,2828.824916029116,None,2828.824916029116,None,2828.824916029116,None,6,2.517211855505593,2828.824916029116,None,2831.3796218199423,None,2831.3796218199423,None,2831.908598619164,None,2831.908598619164,None,2831.908598619164,None,r,0.5374398208223283,2831.908598619164,None,sing22,001,2019_Nov_05_1555,ProdFawcett_Revision2019,3.2.4,60.0911627446085,
,,,,74,0,74,0,,,,,,,,,,,,,2836.076625614194,None,,,,,,,,,,,,,,,,,,,,,,sunset,C_sing,74,315,2833.0089842631714,None,2833.0089842631714,None,2833.0089842631714,None,1,1.077435155864805,2833.0089842631714,None,2834.1426646762993,None,2834.1426646762993,None,2834.6595328730764,None,2834.6595328730764,None,2834.6595328730764,None,n,1.3785681407898664,2834.6595328730764,None,sing22,001,2019_Nov_05_1555,ProdFawcett_Revision2019,3.2.4,60.0911627446085,
,,,,75,0,75,0,,,,,,,,,,,,,2838.6441139515955,None,,,,,,,,,,,,,,,,,,,,,,shock,D_new,75,284,2836.5936085712165,None,2836.5936085712165,None,2836.5936085712165,None,1,0.8201340424129739,2836.5936085712165,None,2837.4671589848585,None,2837.4671589848585,None,2837.9939609379508,None,2837.9939609379508,None,2837.9939609379508,None,n,0.6037077814107761,2837.9939609379508,None,sing22,001,2019_Nov_05_1555,ProdFawcett_Revision2019,3.2.4,60.0911627446085,
,,,,76,0,76,0,,,,,,,,,,,,,2840.961518629105,None,,,,,,,,,,,,,,,,,,,,,,rural,D_new,76,269,2839.1609833923867,None,2839.1609833923867,None,2839.1609833923867,None,1,0.8289761771447957,2839.1609833923867,None,2840.0444952416,None,2840.0444952416,None,2840.561389562674,None,2840.561389562674,None,2840.561389562674,None,n,0.36433351994492114,2840.561389562674,None,sing22,001,2019_Nov_05_1555,ProdFawcett_Revision2019,3.2.4,60.0911627446085,
,,,,77,0,77,0,,,,,,,,,,,,,2847.3300077751046,None,,,,,,,,,,,,,,,,,,,,,,personnel,D_new,77,219,2841.4807159295306,None,2841.4807159295306,None,2841.4807159295306,None,1,4.973329601227306,2841.4807159295306,None,2846.5018097282154,None,2846.5018097282154,None,2847.0298992348835,None,2847.0298992348835,None,2847.0298992348835,None,n,0.2633986440487206,2847.0298992348835,None,sing22,001,2019_Nov_05_1555,ProdFawcett_Revision2019,3.2.4,60.0911627446085,
,,,,78,0,78,0,,,,,,,,,,,,,2849.730740187806,None,,,,,,,,,,,,,,,,,,,,,,clean,D_new,78,51,2847.8469882440986,None,2847.8469882440986,None,2847.8469882440986,None,1,0.7984804379520938,2847.8469882440986,None,2848.686465758481,None,2848.686465758481,None,2849.2169086271897,None,2849.2169086271897,None,2849.2169086271897,None,n,0.4762505441904068,2849.2169086271897,None,sing22,001,2019_Nov_05_1555,ProdFawcett_Revision2019,3.2.4,60.0911627446085,
,,,,79,0,79,0,,,,,,,,,,,,,2852.3483886918984,None,,,,,,,,,,,,,,,,,,,,,,measure,A_silent,79,184,2850.2487301735673,None,2850.2487301735673,None,2850.2487301735673,None,1,1.2202030851040035,2850.2487301735673,None,2851.5316010449314,None,2851.5316010449314,None,2852.0481812526705,None,2852.0481812526705,None,2852.0481812526705,None,n,0.26113485102541745,2852.0481812526705,None,sing22,001,2019_Nov_05_1555,ProdFawcett_Revision2019,3.2.4,60.0911627446085,
,,,,80,0,80,0,,,,,,,,,,,,,2856.082846613135,None,,,,,,,,,,,,,,,,,,,,,,brilliant,A_silent,80,30,2852.8656891833525,None,2852.8656891833525,None,2852.8656891833525,None,6,2.2594464140711352,2852.8656891833525,None,2855.170538035687,None,2855.170538035687,None,2855.6992700753035,None,2855.6992700753035,None,2855.6992700753035,None,r,0.34548951918259263,2855.6992700753035,None,sing22,001,2019_Nov_05_1555,ProdFawcett_Revision2019,3.2.4,60.0911627446085,
,,,,81,0,81,0,,,,,,,,,,,,,2858.5835106051527,None,,,,,,,,,,,,,,,,,,,,,,smooth,D_new,81,292,2856.6009526030393,None,2856.6009526030393,None,2856.6009526030393,None,1,1.1159634882351384,2856.6009526030393,None,2857.7669170242734,None,2857.7669170242734,None,2858.2833970889915,None,2858.2833970889915,None,2858.2833970889915,None,n,0.2652855010237545,2858.2833970889915,None,sing22,001,2019_Nov_05_1555,ProdFawcett_Revision2019,3.2.4,60.0911627446085,
,,,,82,0,82,0,,,,,,,,,,,,,2865.368938856758,None,,,,,,,,,,,,,,,,,,,,,,institute,B_aloud,82,162,2859.1014492753893,None,2859.1014492753893,None,2859.1014492753893,None,2,5.495151769602671,2859.1014492753893,None,2864.652137214667,None,2864.652137214667,None,2865.168997014407,None,2865.168997014407,None,2865.168997014407,None,f,0.15512160235084593,2865.168997014407,None,sing22,001,2019_Nov_05_1555,ProdFawcett_Revision2019,3.2.4,60.0911627446085,
,,,,83,0,83,0,,,,,,,,,,,,,2867.486272314447,None,,,,,,,,,,,,,,,,,,,,,,cousin,D_new,83,76,2865.8859563351143,None,2865.8859563351143,None,2865.8859563351143,None,1,0.8622208745218813,2865.8859563351143,None,2866.8028379051248,None,2866.8028379051248,None,2867.319715432008,None,2867.319715432008,None,2867.319715432008,None,n,0.12497885175980628,2867.319715432008,None,sing22,001,2019_Nov_05_1555,ProdFawcett_Revision2019,3.2.4,60.0911627446085,
,,,,84,0,84,0,,,,,,,,,,,,,2870.020525906584,None,,,,,,,,,,,,,,,,,,,,,,threat,D_new,84,329,2868.0037656278582,None,2868.0037656278582,None,2868.0037656278582,None,1,1.0802910990314558,2868.0037656278582,None,2869.1368793928996,None,2869.1368793928996,None,2869.653623499442,None,2869.653623499442,None,2869.653623499442,None,n,0.3343086396344006,2869.653623499442,None,sing22,001,2019_Nov_05_1555,ProdFawcett_Revision2019,3.2.4,60.0911627446085,
,,,,85,0,85,0,,,,,,,,,,,,,2872.2211939416593,None,,,,,,,,,,,,,,,,,,,,,,short,D_new,85,285,2870.5376954656094,None,2870.5376954656094,None,2870.5376954656094,None,1,0.7300895688822493,2870.5376954656094,None,2871.3098065559752,None,2871.3098065559752,None,2871.837590968469,None,2871.837590968469,None,2871.837590968469,None,n,0.34286745043937117,2871.837590968469,None,sing22,001,2019_Nov_05_1555,ProdFawcett_Revision2019,3.2.4,60.0911627446085,
,,,,86,0,86,0,,,,,,,,,,,,,2874.371871928801,None,,,,,,,,,,,,,,,,,,,,,,error,D_new,86,117,2872.7381090999115,None,2872.7381090999115,None,2872.7381090999115,None,1,0.6977377620059997,2872.7381090999115,None,2873.488263668609,None,2873.488263668609,None,2874.0049648566637,None,2874.0049648566637,None,2874.0049648566637,None,n,0.3269823349546641,2874.0049648566637,None,sing22,001,2019_Nov_05_1555,ProdFawcett_Revision2019,3.2.4,60.0911627446085,
,,,,87,0,87,0,,,,,,,,,,,,,2879.9400721527636,None,,,,,,,,,,,,,,,,,,,,,,leader,D_new,87,168,2874.889639547211,None,2874.889639547211,None,2874.889639547211,None,1,3.8423574049957097,2874.889639547211,None,2878.7775863034185,None,2878.7775863034185,None,2879.306594824884,None,2879.306594824884,None,2879.306594824884,None,n,0.6009410960832611,2879.306594824884,None,sing22,001,2019_Nov_05_1555,ProdFawcett_Revision2019,3.2.4,60.0911627446085,
,,,,88,0,88,0,,,,,,,,,,,,,2883.491371213575,None,,,,,,,,,,,,,,,,,,,,,,harmony,B_aloud,88,148,2880.457491758396,None,2880.457491758396,None,2880.457491758396,None,6,2.297806182759814,2880.457491758396,None,2882.7966483174823,None,2882.7966483174823,None,2883.324478136492,None,2883.324478136492,None,2883.324478136492,None,r,0.127118865493685,2883.324478136492,None,sing22,001,2019_Nov_05_1555,ProdFawcett_Revision2019,3.2.4,60.0911627446085,
,,,,89,0,89,0,,,,,,,,,,,,,2886.375554829836,None,,,,,,,,,,,,,,,,,,,,,,career,C_sing,89,42,2884.0086909871316,None,2884.0086909871316,None,2884.0086909871316,None,6,1.0427598431706429,2884.0086909871316,None,2885.1084440505365,None,2885.1084440505365,None,2885.614215960726,None,2885.614215960726,None,2885.614215960726,None,r,0.7172952044056728,2885.614215960726,None,sing22,001,2019_Nov_05_1555,ProdFawcett_Revision2019,3.2.4,60.0911627446085,
,,,,90,0,90,0,,,,,,,,,,,,,2889.5764554954367,None,,,,,,,,,,,,,,,,,,,,,,sweet,D_new,90,319,2886.893680413021,None,2886.893680413021,None,2886.893680413021,None,1,1.7011096597416326,2886.893680413021,None,2888.6474329787306,None,2888.6474329787306,None,2889.176295017707,None,2889.176295017707,None,2889.176295017707,None,n,0.35442868690006435,2889.176295017707,None,sing22,001,2019_Nov_05_1555,ProdFawcett_Revision2019,3.2.4,60.0911627446085,
,,,,91,0,91,0,,,,,,,,,,,,,2892.7942116066115,None,,,,,,,,,,,,,,,,,,,,,,collection,C_sing,91,54,2890.0958067425527,None,2890.0958067425527,None,2890.0958067425527,None,6,1.8431688125710934,2890.0958067425527,None,2891.993945698836,None,2891.993945698836,None,2892.5106049013557,None,2892.5106049013557,None,2892.5106049013557,None,r,0.23595104808919132,2892.5106049013557,None,sing22,001,2019_Nov_05_1555,ProdFawcett_Revision2019,3.2.4,60.0911627446085,
,,,,92,0,92,0,,,,,,,,,,,,,2896.3785824469524,None,,,,,,,,,,,,,,,,,,,,,,carry,B_aloud,92,43,2893.3110368850175,None,2893.3110368850175,None,2893.3110368850175,None,1,1.9713429122930393,2893.3110368850175,None,2895.334585743607,None,2895.334585743607,None,2895.86179448897,None,2895.86179448897,None,2895.86179448897,None,n,0.4685855570714921,2895.86179448897,None,sing22,001,2019_Nov_05_1555,ProdFawcett_Revision2019,3.2.4,60.0911627446085,
,,,,93,0,93,0,,,,,,,,,,,,,2905.598132114159,None,,,,,,,,,,,,,,,,,,,,,,turkey,A_silent,93,342,2896.896741307457,None,2896.896741307457,None,2896.896741307457,None,6,1.2015761646907777,2896.896741307457,None,2898.151966473786,None,2898.151966473786,None,2898.6793577781646,None,2898.6793577781646,None,2898.6793577781646,None,r,6.875076817814261,2898.6793577781646,None,sing22,001,2019_Nov_05_1555,ProdFawcett_Revision2019,3.2.4,60.0911627446085,
,,,,94,0,94,0,,,,,,,,,,,,,2908.382374510169,None,,,,,,,,,,,,,,,,,,,,,,sight,D_new,94,286,2906.1150167941814,None,2906.1150167941814,None,2906.1150167941814,None,1,1.2307121976045892,2906.1150167941814,None,2907.398665484856,None,2907.398665484856,None,2907.9155843751505,None,2907.9155843751505,None,2907.9155843751505,None,n,0.43021148222032934,2907.9155843751505,None,sing22,001,2019_Nov_05_1555,ProdFawcett_Revision2019,3.2.4,60.0911627446085,
,,,,95,0,95,0,,,,,,,,,,,,,2916.3515752316453,None,,,,,,,,,,,,,,,,,,,,,,character,D_new,95,46,2908.9017114511225,None,2908.9017114511225,None,2908.9017114511225,None,3,6.316062076250091,2908.9017114511225,None,2915.2563721465413,None,2915.2563721465413,None,2915.7845506002195,None,2915.7845506002195,None,2915.7845506002195,None,f,0.5206272936193272,2915.7845506002195,None,sing22,001,2019_Nov_05_1555,ProdFawcett_Revision2019,3.2.4,60.0911627446085,
,,,,96,0,96,0,,,,,,,,,,,,,2920.369448280195,None,,,,,,,,,,,,,,,,,,,,,,quarter,A_silent,96,246,2916.8712126018945,None,2916.8712126018945,None,2916.8712126018945,None,6,1.5303915531840175,2916.8712126018945,None,2918.452044846723,None,2918.452044846723,None,2918.970195310074,None,2918.970195310074,None,2918.970195310074,None,r,1.3508359767729416,2918.970195310074,None,sing22,001,2019_Nov_05_1555,ProdFawcett_Revision2019,3.2.4,60.0911627446085,
,,,,97,0,97,0,,,,,,,,,,,,,2924.0037304845173,None,,,,,,,,,,,,,,,,,,,,,,department,A_silent,97,90,2920.888864215929,None,2920.888864215929,None,2920.888864215929,None,6,2.183932325686328,2920.888864215929,None,2923.1368184363237,None,2923.1368184363237,None,2923.653642159654,None,2923.653642159654,None,2923.653642159654,None,r,0.31526652979664505,2923.653642159654,None,sing22,001,2019_Nov_05_1555,ProdFawcett_Revision2019,3.2.4,60.0911627446085,
,,,,98,0,98,0,,,,,,,,,,,,,2930.089095913456,None,,,,,,,,,,,,,,,,,,,,,,curve,C_sing,98,82,2924.520588418236,None,2924.520588418236,None,2924.520588418236,None,2,2.360301051172428,2924.520588418236,None,2926.926793555962,None,2926.926793555962,None,2927.4548252160894,None,2927.4548252160894,None,2927.4548252160894,None,f,2.593867636984214,2927.4548252160894,None,sing22,001,2019_Nov_05_1555,ProdFawcett_Revision2019,3.2.4,60.0911627446085,
,,,,99,0,99,0,,,,,,,,,,,,,2932.579469739343,None,,,,,,,,,,,,,,,,,,,,,,surface,D_new,99,316,2930.6075328108855,None,2930.6075328108855,None,2930.6075328108855,None,1,1.3448818187462166,2930.6075328108855,None,2931.994466629345,None,2931.994466629345,None,2932.5230400572764,None,2932.5230400572764,None,2932.5230400572764,None,n,0.021994775161147118,2932.5230400572764,None,sing22,001,2019_Nov_05_1555,ProdFawcett_Revision2019,3.2.4,60.0911627446085,
,,,,100,0,100,0,,,,,,,,,,,,,2935.8075567580527,None,,,,,,,,,,,,,,,,,,,,,,society,D_new,100,293,2933.1069182683714,None,2933.1069182683714,None,2933.1069182683714,None,1,1.6371760900365189,2933.1069182683714,None,2934.8070905641653,None,2934.8070905641653,None,2935.3240620139986,None,2935.3240620139986,None,2935.3240620139986,None,n,0.44435560109559447,2935.3240620139986,None,sing22,001,2019_Nov_05_1555,ProdFawcett_Revision2019,3.2.4,60.0911627446085,
,,,,101,0,101,0,,,,,,,,,,,,,2939.2253610747866,None,,,,,,,,,,,,,,,,,,,,,,dream,C_sing,101,104,2936.3247172980336,None,2936.3247172980336,None,2936.3247172980336,None,6,2.2191590471193194,2936.3247172980336,None,2938.59546743799,None,2938.59546743799,None,2939.125094856019,None,2939.125094856019,None,2939.125094856019,None,r,0.06707532505970448,2939.125094856019,None,sing22,001,2019_Nov_05_1555,ProdFawcett_Revision2019,3.2.4,60.0911627446085,
,,,,102,0,102,0,,,,,,,,,,,,,2942.492839149083,None,,,,,,,,,,,,,,,,,,,,,,colonel,A_silent,102,55,2939.7424028114183,None,2939.7424028114183,None,2939.7424028114183,None,6,1.2498647135216743,2939.7424028114183,None,2941.042515705689,None,2941.042515705689,None,2941.5591770852916,None,2941.5591770852916,None,2941.5591770852916,None,r,0.8965767867630348,2941.5591770852916,None,sing22,001,2019_Nov_05_1555,ProdFawcett_Revision2019,3.2.4,60.0911627446085,
,,,,103,0,103,0,,,,,,,,,,,,,2947.127686135471,None,,,,,,,,,,,,,,,,,,,,,,universal,B_aloud,103,345,2943.0116666667163,None,2943.0116666667163,None,2943.0116666667163,None,6,2.8836054612183943,2943.0116666667163,None,2945.9314222180983,None,2945.9314222180983,None,2946.4613643714692,None,2946.4613643714692,None,2946.4613643714692,None,r,0.6264377682236955,2946.4613643714692,None,sing22,001,2019_Nov_05_1555,ProdFawcett_Revision2019,3.2.4,60.0911627446085,
,,,,104,0,104,0,,,,,,,,,,,,,2950.128625987447,None,,,,,,,,,,,,,,,,,,,,,,marriage,A_silent,104,179,2947.645636934787,None,2947.645636934787,None,2947.645636934787,None,6,1.4177408720133826,2947.645636934787,None,2949.128335821326,None,2949.128335821326,None,2949.645113827195,None,2949.645113827195,None,2949.645113827195,None,r,0.45041207934264094,2949.645113827195,None,sing22,001,2019_Nov_05_1555,ProdFawcett_Revision2019,3.2.4,60.0911627446085,
,,,,105,0,105,0,,,,,,,,,,,,,2954.229923493229,None,,,,,,,,,,,,,,,,,,,,,,produce,D_new,105,239,2950.646503700991,None,2950.646503700991,None,2950.646503700991,None,1,2.8966545375296846,2950.646503700991,None,2953.596360017429,None,2953.596360017429,None,2954.1133622566704,None,2954.1133622566704,None,2954.1133622566704,None,n,0.06960969092324376,2954.1133622566704,None,sing22,001,2019_Nov_05_1555,ProdFawcett_Revision2019,3.2.4,60.0911627446085,
,,,,106,0,106,0,,,,,,,,,,,,,2956.580643776804,None,,,,,,,,,,,,,,,,,,,,,,front,D_new,106,134,2954.746788890916,None,2954.746788890916,None,2954.746788890916,None,1,0.8681862286757678,2954.746788890916,None,2955.680374447955,None,2955.680374447955,None,2956.1970457796706,None,2956.1970457796706,None,2956.1970457796706,None,n,0.33780058461707085,2956.1970457796706,None,sing22,001,2019_Nov_05_1555,ProdFawcett_Revision2019,3.2.4,60.0911627446085,
,,,,107,0,107,0,,,,,,,,,,,,,2960.1484042421216,None,,,,,,,,,,,,,,,,,,,,,,command,B_aloud,107,60,2957.0975629781606,None,2957.0975629781606,None,2957.0975629781606,None,3,2.1739593830425292,2957.0975629781606,None,2959.3204444237053,None,2959.3204444237053,None,2959.8483348883456,None,2959.8483348883456,None,2959.8483348883456,None,f,0.2542993095703423,2959.8483348883456,None,sing22,001,2019_Nov_05_1555,ProdFawcett_Revision2019,3.2.4,60.0911627446085,
,,,,108,0,108,0,,,,,,,,,,,,,2962.5158067425946,None,,,,,,,,,,,,,,,,,,,,,,write,D_new,108,358,2960.6655489208642,None,2960.6655489208642,None,2960.6655489208642,None,1,0.9971378366462886,2960.6655489208642,None,2961.715433227597,None,2961.715433227597,None,2962.232404055423,None,2962.232404055423,None,2962.232404055423,None,n,0.24619549664203078,2962.232404055423,None,sing22,001,2019_Nov_05_1555,ProdFawcett_Revision2019,3.2.4,60.0911627446085,
,,,,109,0,109,0,,,,,,,,,,,,,2964.749768302543,None,,,,,,,,,,,,,,,,,,,,,,hunger,D_new,109,155,2963.033560676733,None,2963.033560676733,None,2963.033560676733,None,1,0.7575166386086494,2963.033560676733,None,2963.8495611744,None,2963.8495611744,None,2964.3664010697976,None,2964.3664010697976,None,2964.3664010697976,None,n,0.3359945884440094,2964.3664010697976,None,sing22,001,2019_Nov_05_1555,ProdFawcett_Revision2019,3.2.4,60.0911627446085,
,,,,110,0,110,0,,,,,,,,,,,,,2967.233806680306,None,,,,,,,,,,,,,,,,,,,,,,graduate,D_new,110,141,2965.2680070908973,None,2965.2680070908973,None,2965.2680070908973,None,1,1.0825685763265938,2965.2680070908973,None,2966.4002966971602,None,2966.4002966971602,None,2966.9171285065822,None,2966.9171285065822,None,2966.9171285065822,None,n,0.2739845742471516,2966.9171285065822,None,sing22,001,2019_Nov_05_1555,ProdFawcett_Revision2019,3.2.4,60.0911627446085,
,,,,111,0,111,0,,,,,,,,,,,,,2969.4179411581717,None,,,,,,,,,,,,,,,,,,,,,,ground,A_silent,111,142,2967.751439634245,None,2967.751439634245,None,2967.751439634245,None,1,0.8075163275934756,2967.751439634245,None,2968.6177324749297,None,2968.6177324749297,None,2969.1345851216465,None,2969.1345851216465,None,2969.1345851216465,None,n,0.24773558496963233,2969.1345851216465,None,sing22,001,2019_Nov_05_1555,ProdFawcett_Revision2019,3.2.4,60.0911627446085,
,,,,112,0,112,0,,,,,,,,,,,,,2972.652294582338,None,,,,,,,,,,,,,,,,,,,,,,conference,A_silent,112,66,2969.9360521241324,None,2969.9360521241324,None,2969.9360521241324,None,5,1.8540026125265285,2969.9360521241324,None,2971.851927909418,None,2971.851927909418,None,2972.3687276855344,None,2972.3687276855344,None,2972.3687276855344,None,f,0.2371851090574637,2972.3687276855344,None,sing22,001,2019_Nov_05_1555,ProdFawcett_Revision2019,3.2.4,60.0911627446085,
,,,,113,0,113,0,,,,,,,,,,,,,2976.3867699197726,None,,,,,,,,,,,,,,,,,,,,,,position,D_new,113,229,2973.1705436337506,None,2973.1705436337506,None,2973.1705436337506,None,5,2.324044597800821,2973.1705436337506,None,2975.553096970776,None,2975.553096970776,None,2976.070013684104,None,2976.070013684104,None,2976.070013684104,None,f,0.27980500098783523,2976.070013684104,None,sing22,001,2019_Nov_05_1555,ProdFawcett_Revision2019,3.2.4,60.0911627446085,
,,,,114,0,114,0,,,,,,,,,,,,,2979.054131056764,None,,,,,,,,,,,,,,,,,,,,,,government,B_aloud,114,139,2976.905696647358,None,2976.905696647358,None,2976.905696647358,None,6,1.2120093923294917,2976.905696647358,None,2978.1604798780754,None,2978.1604798780754,None,2978.6876438390464,None,2978.6876438390464,None,2978.6876438390464,None,r,0.31797132547944784,2978.6876438390464,None,sing22,001,2019_Nov_05_1555,ProdFawcett_Revision2019,3.2.4,60.0911627446085,
,,,,115,0,115,0,,,,,,,,,,,,,2982.471852024668,None,,,,,,,,,,,,,,,,,,,,,,literature,D_new,115,173,2979.573708092328,None,2979.573708092328,None,2979.573708092328,None,1,1.4642109846463427,2979.573708092328,None,2981.0882344342535,None,2981.0882344342535,None,2981.605693848338,None,2981.605693848338,None,2981.605693848338,None,n,0.8321844871388748,2981.605693848338,None,sing22,001,2019_Nov_05_1555,ProdFawcett_Revision2019,3.2.4,60.0911627446085,
,,,,116,0,116,0,,,,,,,,,,,,,2989.073892206303,None,,,,,,,,,,,,,,,,,,,,,,poetry,D_new,116,225,2982.9887052932754,None,2982.9887052932754,None,2982.9887052932754,None,2,4.993142999242991,2982.9887052932754,None,2988.0292414629366,None,2988.0292414629366,None,2988.557177645038,None,2988.557177645038,None,2988.557177645038,None,f,0.4799104309640825,2988.557177645038,None,sing22,001,2019_Nov_05_1555,ProdFawcett_Revision2019,3.2.4,60.0911627446085,
,,,,117,0,117,0,,,,,,,,,,,,,2994.992542451946,None,,,,,,,,,,,,,,,,,,,,,,swift,B_aloud,117,320,2989.5908509050496,None,2989.5908509050496,None,2989.5908509050496,None,1,3.8783196492586285,2989.5908509050496,None,2993.525395907229,None,2993.525395907229,None,2994.042260682909,None,2994.042260682909,None,2994.042260682909,None,f,0.9145176338497549,2994.042260682909,None,sing22,001,2019_Nov_05_1555,ProdFawcett_Revision2019,3.2.4,60.0911627446085,
,,,,118,0,118,0,,,,,,,,,,,,,2999.0771624059416,None,,,,,,,,,,,,,,,,,,,,,,partner,B_aloud,118,211,2995.510816694703,None,2995.510816694703,None,2995.510816694703,None,3,2.661675996845588,2995.510816694703,None,2998.2269925981527,None,2998.2269925981527,None,2998.7436838340946,None,2998.7436838340946,None,2998.7436838340946,None,f,0.29289046465419233,2998.7436838340946,None,sing22,001,2019_Nov_05_1555,ProdFawcett_Revision2019,3.2.4,60.0911627446085,
,,,,119,0,119,0,,,,,,,,,,,,,3003.6784312993987,None,,,,,,,,,,,,,,,,,,,,,,empty,D_new,119,112,2999.5939519188832,None,2999.5939519188832,None,2999.5939519188832,None,6,3.0023126205196604,2999.5939519188832,None,3002.6614290601574,None,3002.6614290601574,None,3003.17830316606,None,3003.17830316606,None,3003.17830316606,None,r,0.4587074703304097,3003.17830316606,None,sing22,001,2019_Nov_05_1555,ProdFawcett_Revision2019,3.2.4,60.0911627446085,
,,,,120,0,120,0,,,,,,,,,,,,,3007.580177271855,None,,,,,,,,,,,,,,,,,,,,,,drama,D_new,120,103,3004.195645953878,None,3004.195645953878,None,3004.195645953878,None,1,2.464483112562448,3004.195645953878,None,3006.7128005847335,None,3006.7128005847335,None,3007.229649810237,None,3007.229649810237,None,3007.229649810237,None,n,0.31809976988006383,3007.229649810237,None,sing22,001,2019_Nov_05_1555,ProdFawcett_Revision2019,3.2.4,60.0911627446085,
,,,,121,0,121,0,,,,,,,,,,,,,3009.8636754369363,None,,,,,,,,,,,,,,,,,,,,,,escape,D_new,121,118,3008.0964265720686,None,3008.0964265720686,None,3008.0964265720686,None,1,0.8353688499191776,3008.0964265720686,None,3008.997165204957,None,3008.997165204957,None,3009.513688188046,None,3009.513688188046,None,3009.513688188046,None,n,0.31423835293389857,3009.513688188046,None,sing22,001,2019_Nov_05_1555,ProdFawcett_Revision2019,3.2.4,60.0911627446085,
,,,,122,0,122,0,,,,,,,,,,,,,3012.881426883163,None,,,,,,,,,,,,,,,,,,,,,,problem,A_silent,122,238,3010.3811976737343,None,3010.3811976737343,None,3010.3811976737343,None,2,1.6544286869466305,3010.3811976737343,None,3012.0893686632626,None,3012.0893686632626,None,3012.614630217082,None,3012.614630217082,None,3012.614630217082,None,n,0.22095073712989688,3012.614630217082,None,sing22,001,2019_Nov_05_1555,ProdFawcett_Revision2019,3.2.4,60.0911627446085,
,,,,123,0,123,0,,,,,,,,,,,,,3016.815838464885,None,,,,,,,,,,,,,,,,,,,,,,solution,C_sing,123,294,3013.399426820921,None,3013.399426820921,None,3013.399426820921,None,3,1.988500342122279,3013.399426820921,None,3015.448862660909,None,3015.448862660909,None,3015.9656817192445,None,3015.9656817192445,None,3015.9656817192445,None,f,0.8137799340765923,3015.9656817192445,None,sing22,001,2019_Nov_05_1555,ProdFawcett_Revision2019,3.2.4,60.0911627446085,
,,,,124,0,124,0,,,,,,,,,,,,,3021.5174242707435,None,,,,,,,,,,,,,,,,,,,,,,member,B_aloud,124,188,3017.333079243661,None,3017.333079243661,None,3017.333079243661,None,2,3.118129004142247,3017.333079243661,None,3020.5170308515662,None,3020.5170308515662,None,3021.0339777321788,None,3021.0339777321788,None,3021.0339777321788,None,f,0.4496395472669974,3021.0339777321788,None,sing22,001,2019_Nov_05_1555,ProdFawcett_Revision2019,3.2.4,60.0911627446085,
,,,,125,0,125,0,,,,,,,,,,,,,3027.719360888237,None,,,,,,,,,,,,,,,,,,,,,,candidate,B_aloud,125,39,3022.0352534677368,None,3022.0352534677368,None,3022.0352534677368,None,6,1.9602910991525277,3022.0352534677368,None,3024.051388318767,None,3024.051388318767,None,3024.568348572473,None,3024.568348572473,None,3024.568348572473,None,r,3.1071269515668973,3024.568348572473,None,sing22,001,2019_Nov_05_1555,ProdFawcett_Revision2019,3.2.4,60.0911627446085,
,,,,126,0,126,0,,,,,,,,,,,,,3030.720170118846,None,,,,,,,,,,,,,,,,,,,,,,taste,D_new,126,322,3028.237448528991,None,3028.237448528991,None,3028.237448528991,None,1,1.1899900478310883,3028.237448528991,None,3029.4866078870837,None,3029.4866078870837,None,3030.003396156011,None,3030.003396156011,None,3030.003396156011,None,n,0.6711311188992113,3030.003396156011,None,sing22,001,2019_Nov_05_1555,ProdFawcett_Revision2019,3.2.4,60.0911627446085,
,,,,127,0,127,0,,,,,,,,,,,,,3033.421111525735,None,,,,,,,,,,,,,,,,,,,,,,hearing,D_new,127,150,3031.2385936430655,None,3031.2385936430655,None,3031.2385936430655,None,1,1.4920594638679177,3031.2385936430655,None,3032.7875175717054,None,3032.7875175717054,None,3033.3042753622867,None,3033.3042753622867,None,3033.3042753622867,None,n,0.07493126823101193,3033.3042753622867,None,sing22,001,2019_Nov_05_1555,ProdFawcett_Revision2019,3.2.4,60.0911627446085,
,,,,128,0,128,0,,,,,,,,,,,,,3036.5387506997213,None,,,,,,,,,,,,,,,,,,,,,,narrow,B_aloud,128,197,3033.938467064756,None,3033.938467064756,None,3033.938467064756,None,6,1.6406070784432814,3033.938467064756,None,3035.6384026870364,None,3035.6384026870364,None,3036.155303228181,None,3036.155303228181,None,3036.155303228181,None,r,0.33501866017468274,3036.155303228181,None,sing22,001,2019_Nov_05_1555,ProdFawcett_Revision2019,3.2.4,60.0911627446085,
,,,,129,0,129,0,,,,,,,,,,,,,3039.106089444598,None,,,,,,,,,,,,,,,,,,,,,,health,B_aloud,129,149,3037.0556052124593,None,3037.0556052124593,None,3037.0556052124593,None,1,1.3544706723187119,3037.0556052124593,None,3038.459145051893,None,3038.459145051893,None,3038.989484045538,None,3038.989484045538,None,3038.989484045538,None,n,0.07702743052504957,3038.989484045538,None,sing22,001,2019_Nov_05_1555,ProdFawcett_Revision2019,3.2.4,60.0911627446085,
,,,,130,0,130,0,,,,,,,,,,,,,3046.3750037320424,None,,,,,,,,,,,,,,,,,,,,,,production,A_silent,130,240,3039.6266330783255,None,3039.6266330783255,None,3039.6266330783255,None,6,4.151150401216,3039.6266330783255,None,3043.829028425738,None,3043.829028425738,None,3044.3576475710142,None,3044.3576475710142,None,3044.3576475710142,None,r,1.9720352055737749,3044.3576475710142,None,sing22,001,2019_Nov_05_1555,ProdFawcett_Revision2019,3.2.4,60.0911627446085,
,,,,131,0,131,0,,,,,,,,,,,,,3050.2094806245295,None,,,,,,,,,,,,,,,,,,,,,,orchestra,C_sing,131,206,3046.8932686446933,None,3046.8932686446933,None,3046.8932686446933,None,6,2.220329974545166,3046.8932686446933,None,3049.165145238512,None,3049.165145238512,None,3049.692734029959,None,3049.692734029959,None,3049.692734029959,None,r,0.4687031162902713,3049.692734029959,None,sing22,001,2019_Nov_05_1555,ProdFawcett_Revision2019,3.2.4,60.0911627446085,
,,,,132,0,132,0,,,,,,,,,,,,,3053.310594327282,None,,,,,,,,,,,,,,,,,,,,,,suggestion,A_silent,132,314,3050.7289665360004,None,3050.7289665360004,None,3050.7289665360004,None,1,1.3603999502956867,3050.7289665360004,None,3052.1337929961737,None,3052.1337929961737,None,3052.660457485821,None,3052.660457485821,None,3052.660457485821,None,n,0.604776699678041,3052.660457485821,None,sing22,001,2019_Nov_05_1555,ProdFawcett_Revision2019,3.2.4,60.0911627446085,
,,,,133,0,133,0,,,,,,,,,,,,,3055.8113768115873,None,,,,,,,,,,,,,,,,,,,,,,discussion,A_silent,133,96,3053.8294728493784,None,3053.8294728493784,None,3053.8294728493784,None,1,1.0920765689807013,3053.8294728493784,None,3054.9776394849177,None,3054.9776394849177,None,3055.494473160361,None,3055.494473160361,None,3055.494473160361,None,n,0.2831784536829218,3055.494473160361,None,sing22,001,2019_Nov_05_1555,ProdFawcett_Revision2019,3.2.4,60.0911627446085,
,,,,134,0,134,0,,,,,,,,,,,,,3058.4454867201857,None,,,,,,,,,,,,,,,,,,,,,,south,A_silent,134,296,3056.3284160601906,None,3056.3284160601906,None,3056.3284160601906,None,1,1.1525863034185022,3056.3284160601906,None,3057.5339970143978,None,3057.5339970143978,None,3058.0620404926594,None,3058.0620404926594,None,3058.0620404926594,None,n,0.3469773589167744,3058.0620404926594,None,sing22,001,2019_Nov_05_1555,ProdFawcett_Revision2019,3.2.4,60.0911627446085,
,,,,135,0,135,0,,,,,,,,,,,,,3063.0636023512343,None,,,,,,,,,,,,,,,,,,,,,,series,B_aloud,135,279,3058.96235553897,None,3058.96235553897,None,3058.96235553897,None,3,3.1184499595547095,3058.96235553897,None,3062.1298864837736,None,3062.1298864837736,None,3062.6468224793207,None,3062.6468224793207,None,3062.6468224793207,None,f,0.3698385893367231,3062.6468224793207,None,sing22,001,2019_Nov_05_1555,ProdFawcett_Revision2019,3.2.4,60.0911627446085,
,,,,136,0,136,0,,,,,,,,,,,,,3066.7979728805367,None,,,,,,,,,,,,,,,,,,,,,,charter,B_aloud,136,47,3063.581779560889,None,3063.581779560889,None,3063.581779560889,None,6,1.9469136033440009,3063.581779560889,None,3065.5809582012007,None,3065.5809582012007,None,3066.0979081918485,None,3066.0979081918485,None,3066.0979081918485,None,r,0.6626121166627854,3066.0979081918485,None,sing22,001,2019_Nov_05_1555,ProdFawcett_Revision2019,3.2.4,60.0911627446085,
,,,,137,0,137,0,,,,,,,,,,,,,3073.9668430055026,None,,,,,,,,,,,,,,,,,,,,,,committee,D_new,137,62,3067.31719039625,None,3067.31719039625,None,3067.31719039625,None,2,3.5399527275003493,3067.31719039625,None,3070.915943272994,None,3070.915943272994,None,3071.432857187232,None,3071.432857187232,None,3071.432857187232,None,f,2.4872336257249117,3071.432857187232,None,sing22,001,2019_Nov_05_1555,ProdFawcett_Revision2019,3.2.4,60.0911627446085,
,,,,138,0,138,0,,,,,,,,,,,,,3077.251387696713,None,,,,,,,,,,,,,,,,,,,,,,listen,C_sing,138,172,3074.483708403306,None,3074.483708403306,None,3074.483708403306,None,6,1.6042004105402157,3074.483708403306,None,3076.1510371960467,None,3076.1510371960467,None,3076.6676758723333,None,3076.6676758723333,None,3076.6676758723333,None,r,0.5484739068197086,3076.6676758723333,None,sing22,001,2019_Nov_05_1555,ProdFawcett_Revision2019,3.2.4,60.0911627446085,
,,,,139,0,139,0,,,,,,,,,,,,,3079.9855140884174,None,,,,,,,,,,,,,,,,,,,,,,season,D_new,139,277,3077.7695838776417,None,3077.7695838776417,None,3077.7695838776417,None,6,1.2623319027479738,3077.7695838776417,None,3079.0743269888917,None,3079.0743269888917,None,3079.602023076499,None,3079.602023076499,None,3079.602023076499,None,r,0.35019126697443426,3079.602023076499,None,sing22,001,2019_Nov_05_1555,ProdFawcett_Revision2019,3.2.4,60.0911627446085,
,,,,140,0,140,0,,,,,,,,,,,,,3082.702933383058,None,,,,,,,,,,,,,,,,,,,,,,citizen,C_sing,140,50,3080.507598121534,None,3080.507598121534,None,3080.507598121534,None,6,1.1639792871428654,3080.507598121534,None,3081.736041238997,None,3081.736041238997,None,3082.253422280308,None,3082.253422280308,None,3082.253422280308,None,r,0.41062822670210153,3082.253422280308,None,sing22,001,2019_Nov_05_1555,ProdFawcett_Revision2019,3.2.4,60.0911627446085,
,,,,141,0,141,0,,,,,,,,,,,,,3085.6597555513727,None,,,,,,,,,,,,,,,,,,,,,,pretty,D_new,141,233,3083.2204204763984,None,3083.2204204763984,None,3083.2204204763984,None,1,1.8113606394035742,3083.2204204763984,None,3085.0751698077656,None,3085.0751698077656,None,3085.6038296945626,None,3085.6038296945626,None,3085.6038296945626,None,n,0.01943148602731526,3085.6038296945626,None,sing22,001,2019_Nov_05_1555,ProdFawcett_Revision2019,3.2.4,60.0911627446085,
,,,,142,0,142,0,,,,,,,,,,,,,3089.471673819702,None,,,,,,,,,,,,,,,,,,,,,,worker,C_sing,142,356,3086.1874286247185,None,3086.1874286247185,None,3086.1874286247185,None,6,1.787794053554535,3086.1874286247185,None,3088.037867139443,None,3088.037867139443,None,3088.554838278331,None,3088.554838278331,None,3088.554838278331,None,r,0.8683470174437389,3088.554838278331,None,sing22,001,2019_Nov_05_1555,ProdFawcett_Revision2019,3.2.4,60.0911627446085,
,,,,143,0,143,0,,,,,,,,,,,,,3092.989390122588,None,,,,,,,,,,,,,,,,,,,,,,build,D_new,143,35,3089.988833115669,None,3089.988833115669,None,3089.988833115669,None,1,2.03437954839319,3089.988833115669,None,3092.062151520746,None,3092.062151520746,None,3092.589467251324,None,3092.589467251324,None,3092.589467251324,None,n,0.36153604532592,3092.589467251324,None,sing22,001,2019_Nov_05_1555,ProdFawcett_Revision2019,3.2.4,60.0911627446085,
,,,,144,0,144,0,,,,,,,,,,,,,3100.941923555336,None,,,,,,,,,,,,,,,,,,,,,,education,D_new,144,108,3093.507225850597,None,3093.507225850597,None,3093.507225850597,None,3,6.508150152396411,3093.507225850597,None,3100.074953971547,None,3100.074953971547,None,3100.591846115538,None,3100.591846115538,None,3100.591846115538,None,f,0.3110598992789164,3100.591846115538,None,sing22,001,2019_Nov_05_1555,ProdFawcett_Revision2019,3.2.4,60.0911627446085,
,,,,145,0,145,0,,,,,,,,,,,,,3103.7927523792023,None,,,,,,,,,,,,,,,,,,,,,,permit,D_new,145,218,3101.45901847363,None,3101.45901847363,None,3101.45901847363,None,1,1.2998752876883373,3101.45901847363,None,3102.809210673673,None,3102.809210673673,None,3103.3261059276992,None,3103.3261059276992,None,3103.3261059276992,None,n,0.4248466753633693,3103.3261059276992,None,sing22,001,2019_Nov_05_1555,ProdFawcett_Revision2019,3.2.4,60.0911627446085,
,,,,146,0,146,0,,,,,,,,,,,,,3109.3944809355307,None,,,,,,,,,,,,,,,,,,,,,,touch,D_new,146,332,3104.3096896187635,None,3104.3096896187635,None,3104.3096896187635,None,3,4.104336318909191,3104.3096896187635,None,3108.477609006688,None,3108.477609006688,None,3108.9945086147636,None,3108.9945086147636,None,3108.9945086147636,None,f,0.3556552838999778,3108.9945086147636,None,sing22,001,2019_Nov_05_1555,ProdFawcett_Revision2019,3.2.4,60.0911627446085,
,,,,147,0,147,0,,,,,,,,,,,,,3112.4955812651897,None,,,,,,,,,,,,,,,,,,,,,,bucket,C_sing,147,33,3109.911348821246,None,3109.911348821246,None,3109.911348821246,None,6,1.5913348261965439,3109.911348821246,None,3111.561869440833,None,3111.561869440833,None,3112.0787880201824,None,3112.0787880201824,None,3112.0787880201824,None,r,0.3754282515728846,3112.0787880201824,None,sing22,001,2019_Nov_05_1555,ProdFawcett_Revision2019,3.2.4,60.0911627446085,
,,,,148,0,148,0,,,,,,,,,,,,,3116.0633862038376,None,,,,,,,,,,,,,,,,,,,,,,direction,D_new,148,94,3113.0130490763113,None,3113.0130490763113,None,3113.0130490763113,None,3,1.8893845244310796,3113.0130490763113,None,3114.95204266964,None,3114.95204266964,None,3115.4797689245315,None,3115.4797689245315,None,3115.4797689245315,None,f,0.5503990171710029,3115.4797689245315,None,sing22,001,2019_Nov_05_1555,ProdFawcett_Revision2019,3.2.4,60.0911627446085,
,,,,149,0,149,0,,,,,,,,,,,,,3119.8977436710848,None,,,,,,,,,,,,,,,,,,,,,,smell,D_new,149,291,3116.5806285376893,None,3116.5806285376893,None,3116.5806285376893,None,1,1.6650366984540597,3116.5806285376893,None,3118.285529327579,None,3118.285529327579,None,3118.814072899171,None,3118.814072899171,None,3118.814072899171,None,n,1.0396942837396637,3118.814072899171,None,sing22,001,2019_Nov_05_1555,ProdFawcett_Revision2019,3.2.4,60.0911627446085,
,,,,150,0,150,0,,,,,,,,,,,,,3122.2819636748172,None,,,,,,,,,,,,,,,,,,,,,,object,D_new,150,204,3120.4314601605292,None,3120.4314601605292,None,3120.4314601605292,None,1,0.8538144554477185,3120.4314601605292,None,3121.348274864722,None,3121.348274864722,None,3121.869047707878,None,3121.869047707878,None,3121.869047707878,None,n,0.36848137085326016,3121.869047707878,None,sing22,001,2019_Nov_05_1555,ProdFawcett_Revision2019,3.2.4,60.0911627446085,
,,,,151,0,151,0,,,,,,,,,,,,,3125.9496510543395,None,,,,,,,,,,,,,,,,,,,,,,generation,D_new,151,136,3122.8000118180644,None,3122.8000118180644,None,3122.8000118180644,None,3,2.261155999265611,3122.8000118180644,None,3125.116064564325,None,3125.116064564325,None,3125.6330074018333,None,3125.6330074018333,None,3125.6330074018333,None,f,0.27634788828436285,3125.6330074018333,None,sing22,001,2019_Nov_05_1555,ProdFawcett_Revision2019,3.2.4,60.0911627446085,
,,,,152,0,152,0,,,,,,,,,,,,,3130.5344974186737,None,,,,,,,,,,,,,,,,,,,,,,month,D_new,152,193,3126.466577408719,None,3126.466577408719,None,3126.466577408719,None,1,2.0426621881779283,3126.466577408719,None,3128.5671079803724,None,3128.5671079803724,None,3129.0840579710202,None,3129.0840579710202,None,3129.0840579710202,None,n,1.4091167505830526,3129.0840579710202,None,sing22,001,2019_Nov_05_1555,ProdFawcett_Revision2019,3.2.4,60.0911627446085,
,,,,153,0,153,0,,,,,,,,,,,,,3133.085310692317,None,,,,,,,,,,,,,,,,,,,,,,equipment,A_silent,153,116,3131.056948124664,None,3131.056948124664,None,3131.056948124664,None,1,1.052307644393295,3131.056948124664,None,3132.1682757977396,None,3132.1682757977396,None,3132.6898678236175,None,3132.6898678236175,None,3132.6898678236175,None,n,0.3552242334699258,3132.6898678236175,None,sing22,001,2019_Nov_05_1555,ProdFawcett_Revision2019,3.2.4,60.0911627446085,
