StudyTrials.thisRepN,StudyTrials.thisTrialN,StudyTrials.thisN,StudyTrials.thisIndex,TestTrials.thisRepN,TestTrials.thisTrialN,TestTrials.thisN,TestTrials.thisIndex,textWelcome.started,textWelcome.stopped,keyWelcome.keys,keyWelcome.rt,keyWelcome.started,keyWelcome.stopped,textReady.started,textReady.stopped,keyReady.keys,keyReady.rt,keyReady.started,keyReady.stopped,polyback_2.started,polyback_2.stopped,studyPic,studyWord,studyType,studyN,studyOrder,polyback_3.started,polyback_3.stopped,studyPicChoice.started,studyPicChoice.stopped,polyback_4.started,polyback_4.stopped,polyback.started,polyback.stopped,studyWords.started,studyWords.stopped,getResearcher.started,getResearcher.stopped,kPress2.keys,kPress2.rt,kPress2.started,kPress2.stopped,testWord,testType,testN,testOrder,polyback_5.started,polyback_5.stopped,testWords.started,testWords.stopped,textScale.started,textScale.stopped,keyConf.keys,keyConf.rt,keyConf.started,keyConf.stopped,polyback_6.started,polyback_6.stopped,studyWords_2.started,studyWords_2.stopped,polyback_7.started,polyback_7.stopped,testWords_2.started,testWords_2.stopped,textScale_2.started,textScale_2.stopped,keyRKN.keys,keyRKN.rt,keyRKN.started,keyRKN.stopped,participant,session,date,expName,psychopyVersion,frameRate,
,,,,,,,,19.337706699967384,None,space,240.2229940999532,19.337706699967384,None,,,,,,,,,,,,,,,,,,,,,,,,,,,,,,,,,,,,,,,,,,,,,,,,,,,,,,,,,,sing39,001,2019_Nov_16_1348,ProdFawcett_Revision2019,3.2.3,59.9772086617207,
,,,,,,,,,,,,,,259.5899485999835,None,space,6.7628136000130326,259.5899485999835,None,,,,,,,,,,,,,,,,,,,,,,,,,,,,,,,,,,,,,,,,,,,,,,,,,,,,sing39,001,2019_Nov_16_1348,ProdFawcett_Revision2019,3.2.3,59.9772086617207,
0,0,0,0,,,,,,,,,,,,,,,,,271.153781699948,None,materials/readPic.jpg,agreement,A_silent,0,5,267.5023980999831,None,267.5023980999831,None,268.4076173999929,None,268.66705920000095,None,268.66705920000095,None,,,,,,,,,,,,,,,,,,,,,,,,,,,,,,,,,,,sing39,001,2019_Nov_16_1348,ProdFawcett_Revision2019,3.2.3,59.9772086617207,
1,0,1,0,,,,,,,,,,,,,,,,,275.4220951999887,None,materials/readPic.jpg,revolution,A_silent,1,264,271.75896839995403,None,271.75896839995403,None,272.67239519994473,None,272.93651769997086,None,272.93651769997086,None,,,,,,,,,,,,,,,,,,,,,,,,,,,,,,,,,,,sing39,001,2019_Nov_16_1348,ProdFawcett_Revision2019,3.2.3,59.9772086617207,
2,0,2,0,,,,,,,,,,,,,,,,,279.6889713999699,None,materials/singPic.jpg,scene,C_sing,2,273,276.03715289995307,None,276.03715289995307,None,276.94148419995327,None,277.1968459999771,None,277.1968459999771,None,,,,,,,,,,,,,,,,,,,,,,,,,,,,,,,,,,,sing39,001,2019_Nov_16_1348,ProdFawcett_Revision2019,3.2.3,59.9772086617207,
3,0,3,0,,,,,,,,,,,,,,,,,283.95574079995276,None,materials/speakPic.jpg,bicycle,B_aloud,3,21,280.273581299989,None,280.273581299989,None,281.20656799996505,None,281.4684267999837,None,281.4684267999837,None,,,,,,,,,,,,,,,,,,,,,,,,,,,,,,,,,,,sing39,001,2019_Nov_16_1348,ProdFawcett_Revision2019,3.2.3,59.9772086617207,
4,0,4,0,,,,,,,,,,,,,,,,,288.222721499973,None,materials/readPic.jpg,region,A_silent,4,256,284.49854379997123,None,284.49854379997123,None,285.4732483999687,None,285.73401679995004,None,285.73401679995004,None,,,,,,,,,,,,,,,,,,,,,,,,,,,,,,,,,,,sing39,001,2019_Nov_16_1348,ProdFawcett_Revision2019,3.2.3,59.9772086617207,
5,0,5,0,,,,,,,,,,,,,,,,,292.4896575999446,None,materials/speakPic.jpg,chief,B_aloud,5,48,288.8079611999565,None,288.8079611999565,None,289.7403657999821,None,289.9965961999842,None,289.9965961999842,None,,,,,,,,,,,,,,,,,,,,,,,,,,,,,,,,,,,sing39,001,2019_Nov_16_1348,ProdFawcett_Revision2019,3.2.3,59.9772086617207,
6,0,6,0,,,,,,,,,,,,,,,,,296.7567876999965,None,materials/speakPic.jpg,design,B_aloud,6,91,293.0635001999908,None,293.0635001999908,None,294.00837869994575,None,294.27053859998705,None,294.27053859998705,None,,,,,,,,,,,,,,,,,,,,,,,,,,,,,,,,,,,sing39,001,2019_Nov_16_1348,ProdFawcett_Revision2019,3.2.3,59.9772086617207,
7,0,7,0,,,,,,,,,,,,,,,,,301.0236014999682,None,materials/singPic.jpg,society,C_sing,7,293,297.34891429997515,None,297.34891429997515,None,298.27516389999073,None,298.5313989999704,None,298.5313989999704,None,,,,,,,,,,,,,,,,,,,,,,,,,,,,,,,,,,,sing39,001,2019_Nov_16_1348,ProdFawcett_Revision2019,3.2.3,59.9772086617207,
8,0,8,0,,,,,,,,,,,,,,,,,305.2905125999823,None,materials/singPic.jpg,edition,C_sing,8,107,301.62370619998546,None,301.62370619998546,None,302.5412670999649,None,302.79954389994964,None,302.79954389994964,None,,,,,,,,,,,,,,,,,,,,,,,,,,,,,,,,,,,sing39,001,2019_Nov_16_1348,ProdFawcett_Revision2019,3.2.3,59.9772086617207,
9,0,9,0,,,,,,,,,,,,,,,,,309.5561494999565,None,materials/speakPic.jpg,surface,B_aloud,9,316,305.8771688999841,None,305.8771688999841,None,306.8086053999723,None,307.06712459999835,None,307.06712459999835,None,,,,,,,,,,,,,,,,,,,,,,,,,,,,,,,,,,,sing39,001,2019_Nov_16_1348,ProdFawcett_Revision2019,3.2.3,59.9772086617207,
10,0,10,0,,,,,,,,,,,,,,,,,313.824667399982,None,materials/singPic.jpg,dozen,C_sing,10,102,310.1483574999729,None,310.1483574999729,None,311.07579709996935,None,311.34372219996294,None,311.34372219996294,None,,,,,,,,,,,,,,,,,,,,,,,,,,,,,,,,,,,sing39,001,2019_Nov_16_1348,ProdFawcett_Revision2019,3.2.3,59.9772086617207,
11,0,11,0,,,,,,,,,,,,,,,,,318.0913862999878,None,materials/speakPic.jpg,service,B_aloud,11,280,314.4222963999491,None,314.4222963999491,None,315.34211759996833,None,315.60396379994927,None,315.60396379994927,None,,,,,,,,,,,,,,,,,,,,,,,,,,,,,,,,,,,sing39,001,2019_Nov_16_1348,ProdFawcett_Revision2019,3.2.3,59.9772086617207,
12,0,12,0,,,,,,,,,,,,,,,,,322.3583568999893,None,materials/speakPic.jpg,break,B_aloud,12,26,318.6623801999958,None,318.6623801999958,None,319.6100070999819,None,319.86900929996045,None,319.86900929996045,None,,,,,,,,,,,,,,,,,,,,,,,,,,,,,,,,,,,sing39,001,2019_Nov_16_1348,ProdFawcett_Revision2019,3.2.3,59.9772086617207,
13,0,13,0,,,,,,,,,,,,,,,,,326.6244170999853,None,materials/readPic.jpg,nation,A_silent,13,198,322.93232949997764,None,322.93232949997764,None,323.876111999969,None,324.1323340999661,None,324.1323340999661,None,,,,,,,,,,,,,,,,,,,,,,,,,,,,,,,,,,,sing39,001,2019_Nov_16_1348,ProdFawcett_Revision2019,3.2.3,59.9772086617207,
14,0,14,0,,,,,,,,,,,,,,,,,330.8922505999799,None,materials/singPic.jpg,thing,C_sing,14,328,327.2234784999746,None,327.2234784999746,None,328.14390909997746,None,328.40290579997236,None,328.40290579997236,None,,,,,,,,,,,,,,,,,,,,,,,,,,,,,,,,,,,sing39,001,2019_Nov_16_1348,ProdFawcett_Revision2019,3.2.3,59.9772086617207,
15,0,15,0,,,,,,,,,,,,,,,,,335.1592726999661,None,materials/singPic.jpg,speech,C_sing,15,298,331.4521859999513,None,331.4521859999513,None,332.4100430999533,None,332.6671327999793,None,332.6671327999793,None,,,,,,,,,,,,,,,,,,,,,,,,,,,,,,,,,,,sing39,001,2019_Nov_16_1348,ProdFawcett_Revision2019,3.2.3,59.9772086617207,
16,0,16,0,,,,,,,,,,,,,,,,,339.4261579999584,None,materials/readPic.jpg,enemy,A_silent,16,113,335.74241509998683,None,335.74241509998683,None,336.67758029996185,None,336.9332545999787,None,336.9332545999787,None,,,,,,,,,,,,,,,,,,,,,,,,,,,,,,,,,,,sing39,001,2019_Nov_16_1348,ProdFawcett_Revision2019,3.2.3,59.9772086617207,
17,0,17,0,,,,,,,,,,,,,,,,,343.69311269995524,None,materials/readPic.jpg,people,A_silent,17,216,340.04301929997746,None,340.04301929997746,None,340.94387689995347,None,341.2000458999537,None,341.2000458999537,None,,,,,,,,,,,,,,,,,,,,,,,,,,,,,,,,,,,sing39,001,2019_Nov_16_1348,ProdFawcett_Revision2019,3.2.3,59.9772086617207,
18,0,18,0,,,,,,,,,,,,,,,,,347.9600644999882,None,materials/singPic.jpg,bright,C_sing,18,29,344.29264229995897,None,344.29264229995897,None,345.21115239994833,None,345.47695099998964,None,345.47695099998964,None,,,,,,,,,,,,,,,,,,,,,,,,,,,,,,,,,,,sing39,001,2019_Nov_16_1348,ProdFawcett_Revision2019,3.2.3,59.9772086617207,
19,0,19,0,,,,,,,,,,,,,,,,,352.2270382999559,None,materials/speakPic.jpg,machinery,B_aloud,19,175,348.53605830000015,None,348.53605830000015,None,349.477695199952,None,349.7360214999644,None,349.7360214999644,None,,,,,,,,,,,,,,,,,,,,,,,,,,,,,,,,,,,sing39,001,2019_Nov_16_1348,ProdFawcett_Revision2019,3.2.3,59.9772086617207,
20,0,20,0,,,,,,,,,,,,,,,,,356.4939755999949,None,materials/singPic.jpg,military,C_sing,20,190,352.81658829998923,None,352.81658829998923,None,353.7448698999942,None,354.0009704999975,None,354.0009704999975,None,,,,,,,,,,,,,,,,,,,,,,,,,,,,,,,,,,,sing39,001,2019_Nov_16_1348,ProdFawcett_Revision2019,3.2.3,59.9772086617207,
21,0,21,0,,,,,,,,,,,,,,,,,360.7610149999964,None,materials/readPic.jpg,welcome,A_silent,21,354,357.11654079996515,None,357.11654079996515,None,358.0116625999799,None,358.27260739996564,None,358.27260739996564,None,,,,,,,,,,,,,,,,,,,,,,,,,,,,,,,,,,,sing39,001,2019_Nov_16_1348,ProdFawcett_Revision2019,3.2.3,59.9772086617207,
22,0,22,0,,,,,,,,,,,,,,,,,365.02802019997034,None,materials/singPic.jpg,bureau,C_sing,22,37,361.3441959999618,None,361.3441959999618,None,362.27975229994627,None,362.53847089997726,None,362.53847089997726,None,,,,,,,,,,,,,,,,,,,,,,,,,,,,,,,,,,,sing39,001,2019_Nov_16_1348,ProdFawcett_Revision2019,3.2.3,59.9772086617207,
23,0,23,0,,,,,,,,,,,,,,,,,369.2948578999494,None,materials/speakPic.jpg,goose,B_aloud,23,138,365.6462900999468,None,365.6462900999468,None,366.54600789997494,None,366.7961344999494,None,366.7961344999494,None,,,,,,,,,,,,,,,,,,,,,,,,,,,,,,,,,,,sing39,001,2019_Nov_16_1348,ProdFawcett_Revision2019,3.2.3,59.9772086617207,
24,0,24,0,,,,,,,,,,,,,,,,,373.56179539998993,None,materials/readPic.jpg,dream,A_silent,24,104,369.8720953000011,None,369.8720953000011,None,370.8131190999993,None,371.06817119999323,None,371.06817119999323,None,,,,,,,,,,,,,,,,,,,,,,,,,,,,,,,,,,,sing39,001,2019_Nov_16_1348,ProdFawcett_Revision2019,3.2.3,59.9772086617207,
25,0,25,0,,,,,,,,,,,,,,,,,377.8286656999844,None,materials/readPic.jpg,watch,A_silent,25,351,374.13864999997895,None,374.13864999997895,None,375.07968009996694,None,375.3395458999439,None,375.3395458999439,None,,,,,,,,,,,,,,,,,,,,,,,,,,,,,,,,,,,sing39,001,2019_Nov_16_1348,ProdFawcett_Revision2019,3.2.3,59.9772086617207,
26,0,26,0,,,,,,,,,,,,,,,,,382.09573039994575,None,materials/speakPic.jpg,couch,B_aloud,26,70,378.40743979997933,None,378.40743979997933,None,379.3481588999857,None,379.6026646999526,None,379.6026646999526,None,,,,,,,,,,,,,,,,,,,,,,,,,,,,,,,,,,,sing39,001,2019_Nov_16_1348,ProdFawcett_Revision2019,3.2.3,59.9772086617207,
27,0,27,0,,,,,,,,,,,,,,,,,386.3626957999659,None,materials/readPic.jpg,committee,A_silent,27,62,382.6837214999832,None,382.6837214999832,None,383.6135502999532,None,383.8728683999507,None,383.8728683999507,None,,,,,,,,,,,,,,,,,,,,,,,,,,,,,,,,,,,sing39,001,2019_Nov_16_1348,ProdFawcett_Revision2019,3.2.3,59.9772086617207,
28,0,28,0,,,,,,,,,,,,,,,,,390.62973319995217,None,materials/singPic.jpg,problem,C_sing,28,238,386.9517616999801,None,386.9517616999801,None,387.8783248999971,None,388.1422525999951,None,388.1422525999951,None,,,,,,,,,,,,,,,,,,,,,,,,,,,,,,,,,,,sing39,001,2019_Nov_16_1348,ProdFawcett_Revision2019,3.2.3,59.9772086617207,
29,0,29,0,,,,,,,,,,,,,,,,,394.89656069997,None,materials/singPic.jpg,phrase,C_sing,29,220,391.2146478999639,None,391.2146478999639,None,392.1481481999508,None,392.40358990000095,None,392.40358990000095,None,,,,,,,,,,,,,,,,,,,,,,,,,,,,,,,,,,,sing39,001,2019_Nov_16_1348,ProdFawcett_Revision2019,3.2.3,59.9772086617207,
30,0,30,0,,,,,,,,,,,,,,,,,399.1635436999495,None,materials/readPic.jpg,employment,A_silent,30,111,395.48673569998937,None,395.48673569998937,None,396.4142482999596,None,396.6747271999484,None,396.6747271999484,None,,,,,,,,,,,,,,,,,,,,,,,,,,,,,,,,,,,sing39,001,2019_Nov_16_1348,ProdFawcett_Revision2019,3.2.3,59.9772086617207,
31,0,31,0,,,,,,,,,,,,,,,,,403.4308646999998,None,materials/speakPic.jpg,length,B_aloud,31,169,399.7457663999521,None,399.7457663999521,None,400.68124359997455,None,400.94413979997626,None,400.94413979997626,None,,,,,,,,,,,,,,,,,,,,,,,,,,,,,,,,,,,sing39,001,2019_Nov_16_1348,ProdFawcett_Revision2019,3.2.3,59.9772086617207,
32,0,32,0,,,,,,,,,,,,,,,,,407.69744249997893,None,materials/singPic.jpg,shear,C_sing,32,283,404.04896739998367,None,404.04896739998367,None,404.9482243999955,None,405.20421979995444,None,405.20421979995444,None,,,,,,,,,,,,,,,,,,,,,,,,,,,,,,,,,,,sing39,001,2019_Nov_16_1348,ProdFawcett_Revision2019,3.2.3,59.9772086617207,
33,0,33,0,,,,,,,,,,,,,,,,,411.9644341999665,None,materials/readPic.jpg,union,A_silent,33,344,408.2763258999912,None,408.2763258999912,None,409.21603189996677,None,409.47332859999733,None,409.47332859999733,None,,,,,,,,,,,,,,,,,,,,,,,,,,,,,,,,,,,sing39,001,2019_Nov_16_1348,ProdFawcett_Revision2019,3.2.3,59.9772086617207,
34,0,34,0,,,,,,,,,,,,,,,,,416.2314580999664,None,materials/singPic.jpg,alert,C_sing,34,6,412.5488423999632,None,412.5488423999632,None,413.4814282999723,None,413.73956079996424,None,413.73956079996424,None,,,,,,,,,,,,,,,,,,,,,,,,,,,,,,,,,,,sing39,001,2019_Nov_16_1348,ProdFawcett_Revision2019,3.2.3,59.9772086617207,
35,0,35,0,,,,,,,,,,,,,,,,,420.4981821999536,None,materials/speakPic.jpg,character,B_aloud,35,46,416.816840399988,None,416.816840399988,None,417.7484261999489,None,418.00623119995,None,418.00623119995,None,,,,,,,,,,,,,,,,,,,,,,,,,,,,,,,,,,,sing39,001,2019_Nov_16_1348,ProdFawcett_Revision2019,3.2.3,59.9772086617207,
36,0,36,0,,,,,,,,,,,,,,,,,424.76530689996434,None,materials/readPic.jpg,audience,A_silent,36,14,421.0809515999863,None,421.0809515999863,None,422.0153113999986,None,422.27304459997686,None,422.27304459997686,None,,,,,,,,,,,,,,,,,,,,,,,,,,,,,,,,,,,sing39,001,2019_Nov_16_1348,ProdFawcett_Revision2019,3.2.3,59.9772086617207,
37,0,37,0,,,,,,,,,,,,,,,,,429.03222009999445,None,materials/singPic.jpg,appearance,C_sing,37,10,425.3550866000005,None,425.3550866000005,None,426.2824529999634,None,426.5423083999776,None,426.5423083999776,None,,,,,,,,,,,,,,,,,,,,,,,,,,,,,,,,,,,sing39,001,2019_Nov_16_1348,ProdFawcett_Revision2019,3.2.3,59.9772086617207,
38,0,38,0,,,,,,,,,,,,,,,,,433.2992029999732,None,materials/speakPic.jpg,resistance,B_aloud,38,262,429.619132599968,None,429.619132599968,None,430.5499605999794,None,430.80918759998167,None,430.80918759998167,None,,,,,,,,,,,,,,,,,,,,,,,,,,,,,,,,,,,sing39,001,2019_Nov_16_1348,ProdFawcett_Revision2019,3.2.3,59.9772086617207,
39,0,39,0,,,,,,,,,,,,,,,,,437.5661516999826,None,materials/singPic.jpg,device,C_sing,39,93,433.88744979997864,None,433.88744979997864,None,434.8168558999896,None,435.0798203999875,None,435.0798203999875,None,,,,,,,,,,,,,,,,,,,,,,,,,,,,,,,,,,,sing39,001,2019_Nov_16_1348,ProdFawcett_Revision2019,3.2.3,59.9772086617207,
40,0,40,0,,,,,,,,,,,,,,,,,441.8331056999741,None,materials/speakPic.jpg,partner,B_aloud,40,211,438.16475939995144,None,438.16475939995144,None,439.0839406999876,None,439.3403274999582,None,439.3403274999582,None,,,,,,,,,,,,,,,,,,,,,,,,,,,,,,,,,,,sing39,001,2019_Nov_16_1348,ProdFawcett_Revision2019,3.2.3,59.9772086617207,
41,0,41,0,,,,,,,,,,,,,,,,,446.1000530999736,None,materials/singPic.jpg,pattern,C_sing,41,214,442.4175260999473,None,442.4175260999473,None,443.35074689995963,None,443.60804789996473,None,443.60804789996473,None,,,,,,,,,,,,,,,,,,,,,,,,,,,,,,,,,,,sing39,001,2019_Nov_16_1348,ProdFawcett_Revision2019,3.2.3,59.9772086617207,
42,0,42,0,,,,,,,,,,,,,,,,,450.3670146999648,None,materials/readPic.jpg,burden,A_silent,42,36,446.6797314999858,None,446.6797314999858,None,447.61780680000084,None,447.87772609997774,None,447.87772609997774,None,,,,,,,,,,,,,,,,,,,,,,,,,,,,,,,,,,,sing39,001,2019_Nov_16_1348,ProdFawcett_Revision2019,3.2.3,59.9772086617207,
43,0,43,0,,,,,,,,,,,,,,,,,454.63441469997633,None,materials/readPic.jpg,prime,A_silent,43,235,450.9601850999752,None,450.9601850999752,None,451.8898842999479,None,452.13292849995196,None,452.13292849995196,None,,,,,,,,,,,,,,,,,,,,,,,,,,,,,,,,,,,sing39,001,2019_Nov_16_1348,ProdFawcett_Revision2019,3.2.3,59.9772086617207,
44,0,44,0,,,,,,,,,,,,,,,,,458.9009462999529,None,materials/singPic.jpg,running,C_sing,44,268,455.2411069999798,None,455.2411069999798,None,456.1520503999782,None,456.41348749998724,None,456.41348749998724,None,,,,,,,,,,,,,,,,,,,,,,,,,,,,,,,,,,,sing39,001,2019_Nov_16_1348,ProdFawcett_Revision2019,3.2.3,59.9772086617207,
45,0,45,0,,,,,,,,,,,,,,,,,463.16788169997744,None,materials/singPic.jpg,throw,C_sing,45,330,459.49201509996783,None,459.49201509996783,None,460.41866789996857,None,460.67862789996434,None,460.67862789996434,None,,,,,,,,,,,,,,,,,,,,,,,,,,,,,,,,,,,sing39,001,2019_Nov_16_1348,ProdFawcett_Revision2019,3.2.3,59.9772086617207,
46,0,46,0,,,,,,,,,,,,,,,,,467.4348668999737,None,materials/singPic.jpg,empty,C_sing,46,112,463.75505349994637,None,463.75505349994637,None,464.68552959995577,None,464.9417844999698,None,464.9417844999698,None,,,,,,,,,,,,,,,,,,,,,,,,,,,,,,,,,,,sing39,001,2019_Nov_16_1348,ProdFawcett_Revision2019,3.2.3,59.9772086617207,
47,0,47,0,,,,,,,,,,,,,,,,,471.7018268999527,None,materials/readPic.jpg,travel,A_silent,47,338,468.012812699948,None,468.012812699948,None,468.952687699988,None,469.2141319999937,None,469.2141319999937,None,,,,,,,,,,,,,,,,,,,,,,,,,,,,,,,,,,,sing39,001,2019_Nov_16_1348,ProdFawcett_Revision2019,3.2.3,59.9772086617207,
48,0,48,0,,,,,,,,,,,,,,,,,475.9687364999554,None,materials/readPic.jpg,trial,A_silent,48,341,472.27671179996105,None,472.27671179996105,None,473.21972709998954,None,473.47982619999675,None,473.47982619999675,None,,,,,,,,,,,,,,,,,,,,,,,,,,,,,,,,,,,sing39,001,2019_Nov_16_1348,ProdFawcett_Revision2019,3.2.3,59.9772086617207,
49,0,49,0,,,,,,,,,,,,,,,,,480.2358428000007,None,materials/speakPic.jpg,cover,B_aloud,49,77,476.5458431999432,None,476.5458431999432,None,477.4863982999814,None,477.74845089996234,None,477.74845089996234,None,,,,,,,,,,,,,,,,,,,,,,,,,,,,,,,,,,,sing39,001,2019_Nov_16_1348,ProdFawcett_Revision2019,3.2.3,59.9772086617207,
50,0,50,0,,,,,,,,,,,,,,,,,484.50268729997333,None,materials/readPic.jpg,guard,A_silent,50,145,480.82069419999607,None,480.82069419999607,None,481.75279149995185,None,482.01335219998145,None,482.01335219998145,None,,,,,,,,,,,,,,,,,,,,,,,,,,,,,,,,,,,sing39,001,2019_Nov_16_1348,ProdFawcett_Revision2019,3.2.3,59.9772086617207,
51,0,51,0,,,,,,,,,,,,,,,,,488.76964699995006,None,materials/readPic.jpg,symbol,A_silent,51,321,485.095284799987,None,485.095284799987,None,486.02122889994644,None,486.28188609995414,None,486.28188609995414,None,,,,,,,,,,,,,,,,,,,,,,,,,,,,,,,,,,,sing39,001,2019_Nov_16_1348,ProdFawcett_Revision2019,3.2.3,59.9772086617207,
52,0,52,0,,,,,,,,,,,,,,,,,493.0366301999893,None,materials/readPic.jpg,store,A_silent,52,305,489.3197119999677,None,489.3197119999677,None,490.28730169998016,None,490.5437513999641,None,490.5437513999641,None,,,,,,,,,,,,,,,,,,,,,,,,,,,,,,,,,,,sing39,001,2019_Nov_16_1348,ProdFawcett_Revision2019,3.2.3,59.9772086617207,
53,0,53,0,,,,,,,,,,,,,,,,,497.3035239999881,None,materials/singPic.jpg,range,C_sing,53,251,493.65413889999036,None,493.65413889999036,None,494.55446929996833,None,494.8163260999718,None,494.8163260999718,None,,,,,,,,,,,,,,,,,,,,,,,,,,,,,,,,,,,sing39,001,2019_Nov_16_1348,ProdFawcett_Revision2019,3.2.3,59.9772086617207,
54,0,54,0,,,,,,,,,,,,,,,,,501.57049579999875,None,materials/singPic.jpg,block,C_sing,54,25,497.89983609999763,None,497.89983609999763,None,498.8220958999591,None,499.0815276999492,None,499.0815276999492,None,,,,,,,,,,,,,,,,,,,,,,,,,,,,,,,,,,,sing39,001,2019_Nov_16_1348,ProdFawcett_Revision2019,3.2.3,59.9772086617207,
55,0,55,0,,,,,,,,,,,,,,,,,505.8375084999716,None,materials/speakPic.jpg,minor,B_aloud,55,191,502.1581609999994,None,502.1581609999994,None,503.0881912999903,None,503.3454901999794,None,503.3454901999794,None,,,,,,,,,,,,,,,,,,,,,,,,,,,,,,,,,,,sing39,001,2019_Nov_16_1348,ProdFawcett_Revision2019,3.2.3,59.9772086617207,
56,0,56,0,,,,,,,,,,,,,,,,,510.10438709997106,None,materials/singPic.jpg,incident,C_sing,56,158,506.4607449999894,None,506.4607449999894,None,507.3551212999737,None,507.612502999953,None,507.612502999953,None,,,,,,,,,,,,,,,,,,,,,,,,,,,,,,,,,,,sing39,001,2019_Nov_16_1348,ProdFawcett_Revision2019,3.2.3,59.9772086617207,
57,0,57,0,,,,,,,,,,,,,,,,,514.3714056999888,None,materials/singPic.jpg,council,C_sing,57,71,510.67758939997293,None,510.67758939997293,None,511.62221519998275,None,511.87773049995303,None,511.87773049995303,None,,,,,,,,,,,,,,,,,,,,,,,,,,,,,,,,,,,sing39,001,2019_Nov_16_1348,ProdFawcett_Revision2019,3.2.3,59.9772086617207,
58,0,58,0,,,,,,,,,,,,,,,,,518.6382930999971,None,materials/singPic.jpg,institute,C_sing,58,162,514.9863811999676,None,514.9863811999676,None,515.8890126999468,None,516.1459863999626,None,516.1459863999626,None,,,,,,,,,,,,,,,,,,,,,,,,,,,,,,,,,,,sing39,001,2019_Nov_16_1348,ProdFawcett_Revision2019,3.2.3,59.9772086617207,
59,0,59,0,,,,,,,,,,,,,,,,,522.9052929999889,None,materials/speakPic.jpg,notice,B_aloud,59,201,519.2169474999537,None,519.2169474999537,None,520.1559856999665,None,520.4131730999798,None,520.4131730999798,None,,,,,,,,,,,,,,,,,,,,,,,,,,,,,,,,,,,sing39,001,2019_Nov_16_1348,ProdFawcett_Revision2019,3.2.3,59.9772086617207,
60,0,60,0,,,,,,,,,,,,,,,,,527.1722933999845,None,materials/speakPic.jpg,treatment,B_aloud,60,339,523.4724522999604,None,523.4724522999604,None,524.423443299951,None,524.6821714999969,None,524.6821714999969,None,,,,,,,,,,,,,,,,,,,,,,,,,,,,,,,,,,,sing39,001,2019_Nov_16_1348,ProdFawcett_Revision2019,3.2.3,59.9772086617207,
61,0,61,0,,,,,,,,,,,,,,,,,531.43917649996,None,materials/readPic.jpg,weight,A_silent,61,353,527.7417650999851,None,527.7417650999851,None,528.690005899989,None,528.9541578999488,None,528.9541578999488,None,,,,,,,,,,,,,,,,,,,,,,,,,,,,,,,,,,,sing39,001,2019_Nov_16_1348,ProdFawcett_Revision2019,3.2.3,59.9772086617207,
62,0,62,0,,,,,,,,,,,,,,,,,535.7061470999615,None,materials/speakPic.jpg,still,B_aloud,62,304,532.0558424999472,None,532.0558424999472,None,532.9568648999557,None,533.2122093999642,None,533.2122093999642,None,,,,,,,,,,,,,,,,,,,,,,,,,,,,,,,,,,,sing39,001,2019_Nov_16_1348,ProdFawcett_Revision2019,3.2.3,59.9772086617207,
63,0,63,0,,,,,,,,,,,,,,,,,539.9733194999862,None,materials/speakPic.jpg,finish,B_aloud,63,130,536.277040499961,None,536.277040499961,None,537.2242330999579,None,537.4815246999497,None,537.4815246999497,None,,,,,,,,,,,,,,,,,,,,,,,,,,,,,,,,,,,sing39,001,2019_Nov_16_1348,ProdFawcett_Revision2019,3.2.3,59.9772086617207,
64,0,64,0,,,,,,,,,,,,,,,,,544.2401092999498,None,materials/speakPic.jpg,article,B_aloud,64,11,540.5530304999556,None,540.5530304999556,None,541.4908278999501,None,541.7478158999584,None,541.7478158999584,None,,,,,,,,,,,,,,,,,,,,,,,,,,,,,,,,,,,sing39,001,2019_Nov_16_1348,ProdFawcett_Revision2019,3.2.3,59.9772086617207,
65,0,65,0,,,,,,,,,,,,,,,,,548.5070830999757,None,materials/speakPic.jpg,payment,B_aloud,65,215,544.8247369999881,None,544.8247369999881,None,545.757620599994,None,546.0149956999812,None,546.0149956999812,None,,,,,,,,,,,,,,,,,,,,,,,,,,,,,,,,,,,sing39,001,2019_Nov_16_1348,ProdFawcett_Revision2019,3.2.3,59.9772086617207,
66,0,66,0,,,,,,,,,,,,,,,,,552.7740483999951,None,materials/speakPic.jpg,poetry,B_aloud,66,225,549.1060932999826,None,549.1060932999826,None,550.0241807999555,None,550.2804536999902,None,550.2804536999902,None,,,,,,,,,,,,,,,,,,,,,,,,,,,,,,,,,,,sing39,001,2019_Nov_16_1348,ProdFawcett_Revision2019,3.2.3,59.9772086617207,
67,0,67,0,,,,,,,,,,,,,,,,,557.0409442999517,None,materials/speakPic.jpg,center,B_aloud,67,44,553.3580740999896,None,553.3580740999896,None,554.2916710999561,None,554.5498668999644,None,554.5498668999644,None,,,,,,,,,,,,,,,,,,,,,,,,,,,,,,,,,,,sing39,001,2019_Nov_16_1348,ProdFawcett_Revision2019,3.2.3,59.9772086617207,
68,0,68,0,,,,,,,,,,,,,,,,,561.3079089999665,None,materials/readPic.jpg,attack,A_silent,68,13,557.6220946999965,None,557.6220946999965,None,558.5590467999573,None,558.814859199978,None,558.814859199978,None,,,,,,,,,,,,,,,,,,,,,,,,,,,,,,,,,,,sing39,001,2019_Nov_16_1348,ProdFawcett_Revision2019,3.2.3,59.9772086617207,
69,0,69,0,,,,,,,,,,,,,,,,,565.5748389999499,None,materials/readPic.jpg,estate,A_silent,69,119,561.8809552999446,None,561.8809552999446,None,562.8250042999862,None,563.0843655999633,None,563.0843655999633,None,,,,,,,,,,,,,,,,,,,,,,,,,,,,,,,,,,,sing39,001,2019_Nov_16_1348,ProdFawcett_Revision2019,3.2.3,59.9772086617207,
70,0,70,0,,,,,,,,,,,,,,,,,569.8417801999603,None,materials/readPic.jpg,impact,A_silent,70,157,566.1608730999869,None,566.1608730999869,None,567.0931906999904,None,567.3487338999985,None,567.3487338999985,None,,,,,,,,,,,,,,,,,,,,,,,,,,,,,,,,,,,sing39,001,2019_Nov_16_1348,ProdFawcett_Revision2019,3.2.3,59.9772086617207,
71,0,71,0,,,,,,,,,,,,,,,,,574.108763999946,None,materials/readPic.jpg,volume,A_silent,71,349,570.4208037999924,None,570.4208037999924,None,571.3588302999851,None,571.6195734999492,None,571.6195734999492,None,,,,,,,,,,,,,,,,,,,,,,,,,,,,,,,,,,,sing39,001,2019_Nov_16_1348,ProdFawcett_Revision2019,3.2.3,59.9772086617207,
72,0,72,0,,,,,,,,,,,,,,,,,578.3757117999485,None,materials/singPic.jpg,quiet,C_sing,72,249,574.6938931999612,None,574.6938931999612,None,575.6266692999634,None,575.8946826999891,None,575.8946826999891,None,,,,,,,,,,,,,,,,,,,,,,,,,,,,,,,,,,,sing39,001,2019_Nov_16_1348,ProdFawcett_Revision2019,3.2.3,59.9772086617207,
73,0,73,0,,,,,,,,,,,,,,,,,582.6427941999864,None,materials/speakPic.jpg,murder,B_aloud,73,195,578.9466047999449,None,578.9466047999449,None,579.8933985999902,None,580.151773599966,None,580.151773599966,None,,,,,,,,,,,,,,,,,,,,,,,,,,,,,,,,,,,sing39,001,2019_Nov_16_1348,ProdFawcett_Revision2019,3.2.3,59.9772086617207,
74,0,74,0,,,,,,,,,,,,,,,,,586.9096866999753,None,materials/singPic.jpg,health,C_sing,74,149,583.2527925999602,None,583.2527925999602,None,584.1588364999625,None,584.4175198999583,None,584.4175198999583,None,,,,,,,,,,,,,,,,,,,,,,,,,,,,,,,,,,,sing39,001,2019_Nov_16_1348,ProdFawcett_Revision2019,3.2.3,59.9772086617207,
75,0,75,0,,,,,,,,,,,,,,,,,591.1766385999508,None,materials/readPic.jpg,exchange,A_silent,75,121,587.4936440999736,None,587.4936440999736,None,588.4282185999909,None,588.6911172999535,None,588.6911172999535,None,,,,,,,,,,,,,,,,,,,,,,,,,,,,,,,,,,,sing39,001,2019_Nov_16_1348,ProdFawcett_Revision2019,3.2.3,59.9772086617207,
76,0,76,0,,,,,,,,,,,,,,,,,595.4435509999748,None,materials/speakPic.jpg,master,B_aloud,76,180,591.7504324999754,None,591.7504324999754,None,592.6944194999523,None,592.9505160999834,None,592.9505160999834,None,,,,,,,,,,,,,,,,,,,,,,,,,,,,,,,,,,,sing39,001,2019_Nov_16_1348,ProdFawcett_Revision2019,3.2.3,59.9772086617207,
77,0,77,0,,,,,,,,,,,,,,,,,599.7105092999991,None,materials/readPic.jpg,government,A_silent,77,139,596.0305672999821,None,596.0305672999821,None,596.9605350999627,None,597.2247568999883,None,597.2247568999883,None,,,,,,,,,,,,,,,,,,,,,,,,,,,,,,,,,,,sing39,001,2019_Nov_16_1348,ProdFawcett_Revision2019,3.2.3,59.9772086617207,
78,0,78,0,,,,,,,,,,,,,,,,,603.9774168999866,None,materials/speakPic.jpg,concern,B_aloud,78,65,600.2766559000011,None,600.2766559000011,None,601.2283112999867,None,601.4894702999736,None,601.4894702999736,None,,,,,,,,,,,,,,,,,,,,,,,,,,,,,,,,,,,sing39,001,2019_Nov_16_1348,ProdFawcett_Revision2019,3.2.3,59.9772086617207,
79,0,79,0,,,,,,,,,,,,,,,,,608.2444211999536,None,materials/singPic.jpg,staff,C_sing,79,301,604.5696537999902,None,604.5696537999902,None,605.4960228999844,None,605.7521066999761,None,605.7521066999761,None,,,,,,,,,,,,,,,,,,,,,,,,,,,,,,,,,,,sing39,001,2019_Nov_16_1348,ProdFawcett_Revision2019,3.2.3,59.9772086617207,
80,0,80,0,,,,,,,,,,,,,,,,,612.5113696999615,None,materials/readPic.jpg,individual,A_silent,80,160,608.8455732999719,None,608.8455732999719,None,609.7620775999967,None,610.0249196999939,None,610.0249196999939,None,,,,,,,,,,,,,,,,,,,,,,,,,,,,,,,,,,,sing39,001,2019_Nov_16_1348,ProdFawcett_Revision2019,3.2.3,59.9772086617207,
81,0,81,0,,,,,,,,,,,,,,,,,616.7784346999833,None,materials/speakPic.jpg,reach,B_aloud,81,253,613.0829556999961,None,613.0829556999961,None,614.0289868999971,None,614.2846595999436,None,614.2846595999436,None,,,,,,,,,,,,,,,,,,,,,,,,,,,,,,,,,,,sing39,001,2019_Nov_16_1348,ProdFawcett_Revision2019,3.2.3,59.9772086617207,
82,0,82,0,,,,,,,,,,,,,,,,,621.045275499986,None,materials/singPic.jpg,angle,C_sing,82,7,617.361363999953,None,617.361363999953,None,618.2953011999489,None,618.5554655999877,None,618.5554655999877,None,,,,,,,,,,,,,,,,,,,,,,,,,,,,,,,,,,,sing39,001,2019_Nov_16_1348,ProdFawcett_Revision2019,3.2.3,59.9772086617207,
83,0,83,0,,,,,,,,,,,,,,,,,625.312237599981,None,materials/speakPic.jpg,right,B_aloud,83,265,621.6440350999474,None,621.6440350999474,None,622.5630340999924,None,622.8239824999473,None,622.8239824999473,None,,,,,,,,,,,,,,,,,,,,,,,,,,,,,,,,,,,sing39,001,2019_Nov_16_1348,ProdFawcett_Revision2019,3.2.3,59.9772086617207,
84,0,84,0,,,,,,,,,,,,,,,,,629.5791616999777,None,materials/speakPic.jpg,crisis,B_aloud,84,79,625.885086699971,None,625.885086699971,None,626.8305041999556,None,627.087812099955,None,627.087812099955,None,,,,,,,,,,,,,,,,,,,,,,,,,,,,,,,,,,,sing39,001,2019_Nov_16_1348,ProdFawcett_Revision2019,3.2.3,59.9772086617207,
85,0,85,0,,,,,,,,,,,,,,,,,633.8462282999535,None,materials/readPic.jpg,majority,A_silent,85,176,630.1565691999858,None,630.1565691999858,None,631.0962905999622,None,631.367189099954,None,631.367189099954,None,,,,,,,,,,,,,,,,,,,,,,,,,,,,,,,,,,,sing39,001,2019_Nov_16_1348,ProdFawcett_Revision2019,3.2.3,59.9772086617207,
86,0,86,0,,,,,,,,,,,,,,,,,638.1130582999904,None,materials/singPic.jpg,thick,C_sing,86,327,634.4713417999446,None,634.4713417999446,None,635.3648870999459,None,635.6195446999627,None,635.6195446999627,None,,,,,,,,,,,,,,,,,,,,,,,,,,,,,,,,,,,sing39,001,2019_Nov_16_1348,ProdFawcett_Revision2019,3.2.3,59.9772086617207,
87,0,87,0,,,,,,,,,,,,,,,,,642.3801007999573,None,materials/speakPic.jpg,shock,B_aloud,87,284,638.6981500999536,None,638.6981500999536,None,639.631637399958,None,639.8868113999488,None,639.8868113999488,None,,,,,,,,,,,,,,,,,,,,,,,,,,,,,,,,,,,sing39,001,2019_Nov_16_1348,ProdFawcett_Revision2019,3.2.3,59.9772086617207,
88,0,88,0,,,,,,,,,,,,,,,,,646.647064299963,None,materials/readPic.jpg,turkey,A_silent,88,342,642.9614297999651,None,642.9614297999651,None,643.8986237999634,None,644.1559794999775,None,644.1559794999775,None,,,,,,,,,,,,,,,,,,,,,,,,,,,,,,,,,,,sing39,001,2019_Nov_16_1348,ProdFawcett_Revision2019,3.2.3,59.9772086617207,
89,0,89,0,,,,,,,,,,,,,,,,,650.9139544999925,None,materials/singPic.jpg,listen,C_sing,89,172,647.2359277999494,None,647.2359277999494,None,648.1646989999572,None,648.4218117999844,None,648.4218117999844,None,,,,,,,,,,,,,,,,,,,,,,,,,,,,,,,,,,,sing39,001,2019_Nov_16_1348,ProdFawcett_Revision2019,3.2.3,59.9772086617207,
,,,,,,,,,,,,,,,,,,,,,,,,,,,,,,,,,,,,,651.4140808999655,None,k,99.50679219997255,651.4140808999655,None,,,,,,,,,,,,,,,,,,,,,,,,,,,,,sing39,001,2019_Nov_16_1348,ProdFawcett_Revision2019,3.2.3,59.9772086617207,
,,,,,,,,,,,,,,750.9373816999723,None,space,1.0316877999575809,750.9373816999723,None,,,,,,,,,,,,,,,,,,,,,,,,,,,,,,,,,,,,,,,,,,,,,,,,,,,,sing39,001,2019_Nov_16_1348,ProdFawcett_Revision2019,3.2.3,59.9772086617207,
,,,,0,0,0,0,,,,,,,,,,,,,759.8721387999831,None,,,,,,,,,,,,,,,,,,,,,,column,D_new,0,57,752.5064246999682,None,752.5064246999682,None,752.5064246999682,None,1,4.2223213000106625,752.5064246999682,None,756.785555099952,None,756.785555099952,None,757.3049412999535,None,757.3049412999535,None,757.3049412999535,None,n,2.5198460000101477,757.3049412999535,None,sing39,001,2019_Nov_16_1348,ProdFawcett_Revision2019,3.2.3,59.9772086617207,
,,,,1,0,1,0,,,,,,,,,,,,,764.90330299997,None,,,,,,,,,,,,,,,,,,,,,,graduate,D_new,1,141,760.3922760999994,None,760.3922760999994,None,760.3922760999994,None,1,2.7925485000014305,760.3922760999994,None,763.2286144999671,None,763.2286144999671,None,763.757206099981,None,763.757206099981,None,763.757206099981,None,n,1.115536900004372,763.757206099981,None,sing39,001,2019_Nov_16_1348,ProdFawcett_Revision2019,3.2.3,59.9772086617207,
,,,,2,0,2,0,,,,,,,,,,,,,771.7364899999811,None,,,,,,,,,,,,,,,,,,,,,,relation,D_new,2,257,765.4218830999453,None,765.4218830999453,None,765.4218830999453,None,3,3.9314414999680594,765.4218830999453,None,769.3969339999603,None,769.3969339999603,None,769.9212793999468,None,769.9212793999468,None,769.9212793999468,None,f,1.7754752000328153,769.9212793999468,None,sing39,001,2019_Nov_16_1348,ProdFawcett_Revision2019,3.2.3,59.9772086617207,
,,,,3,0,3,0,,,,,,,,,,,,,777.0543847999652,None,,,,,,,,,,,,,,,,,,,,,,majority,A_silent,3,176,772.2616841999697,None,772.2616841999697,None,772.2616841999697,None,6,2.5472833000239916,772.2616841999697,None,774.8631328999763,None,774.8631328999763,None,775.3936577999848,None,775.3936577999848,None,775.3936577999848,None,r,1.6234005999867804,775.3936577999848,None,sing39,001,2019_Nov_16_1348,ProdFawcett_Revision2019,3.2.3,59.9772086617207,
,,,,4,0,4,0,,,,,,,,,,,,,781.9544979999773,None,,,,,,,,,,,,,,,,,,,,,,individual,A_silent,4,160,777.5777125999448,None,777.5777125999448,None,777.5777125999448,None,6,2.599102500011213,777.5777125999448,None,780.2309047999443,None,780.2309047999443,None,780.7603436999489,None,780.7603436999489,None,780.7603436999489,None,r,1.1524996000225656,780.7603436999489,None,sing39,001,2019_Nov_16_1348,ProdFawcett_Revision2019,3.2.3,59.9772086617207,
,,,,5,0,5,0,,,,,,,,,,,,,786.2210981999524,None,,,,,,,,,,,,,,,,,,,,,,native,D_new,5,199,782.4780392999528,None,782.4780392999528,None,782.4780392999528,None,6,2.314746299991384,782.4780392999528,None,784.8491057999781,None,784.8491057999781,None,785.3753010999644,None,785.3753010999644,None,785.3753010999644,None,r,0.8014917999971658,785.3753010999644,None,sing39,001,2019_Nov_16_1348,ProdFawcett_Revision2019,3.2.3,59.9772086617207,
,,,,6,0,6,0,,,,,,,,,,,,,790.1216951999813,None,,,,,,,,,,,,,,,,,,,,,,institute,C_sing,6,162,786.7393181999796,None,786.7393181999796,None,786.7393181999796,None,6,2.285484899999574,786.7393181999796,None,789.0660439999774,None,789.0660439999774,None,789.5876096999855,None,789.5876096999855,None,789.5876096999855,None,r,0.5015298000071198,789.5876096999855,None,sing39,001,2019_Nov_16_1348,ProdFawcett_Revision2019,3.2.3,59.9772086617207,
,,,,7,0,7,0,,,,,,,,,,,,,795.1219849999761,None,,,,,,,,,,,,,,,,,,,,,,account,D_new,7,1,790.6405487000011,None,790.6405487000011,None,790.6405487000011,None,4,2.6883036000072025,790.6405487000011,None,793.3832653999561,None,793.3832653999561,None,793.9055908999871,None,793.9055908999871,None,793.9055908999871,None,f,1.1833267000038177,793.9055908999871,None,sing39,001,2019_Nov_16_1348,ProdFawcett_Revision2019,3.2.3,59.9772086617207,
,,,,8,0,8,0,,,,,,,,,,,,,801.1052109999582,None,,,,,,,,,,,,,,,,,,,,,,length,B_aloud,8,169,795.6447627999587,None,795.6447627999587,None,795.6447627999587,None,6,2.668084800010547,795.6447627999587,None,798.3714567999705,None,798.3714567999705,None,798.8881765999831,None,798.8881765999831,None,798.8881765999831,None,r,2.17662250000285,798.8881765999831,None,sing39,001,2019_Nov_16_1348,ProdFawcett_Revision2019,3.2.3,59.9772086617207,
,,,,9,0,9,0,,,,,,,,,,,,,806.1060302999686,None,,,,,,,,,,,,,,,,,,,,,,running,C_sing,9,268,801.6274058999843,None,801.6274058999843,None,801.6274058999843,None,1,2.1495682999957353,801.6274058999843,None,803.8347645999747,None,803.8347645999747,None,804.360060499981,None,804.360060499981,None,804.360060499981,None,n,1.7128859999938868,804.360060499981,None,sing39,001,2019_Nov_16_1348,ProdFawcett_Revision2019,3.2.3,59.9772086617207,
,,,,10,0,10,0,,,,,,,,,,,,,810.6438999999664,None,,,,,,,,,,,,,,,,,,,,,,partner,B_aloud,10,211,806.624507999979,None,806.624507999979,None,806.624507999979,None,6,2.0883638000232168,806.624507999979,None,808.7623782999581,None,808.7623782999581,None,809.2876877999515,None,809.2876877999515,None,809.2876877999515,None,r,1.3131337000522763,809.2876877999515,None,sing39,001,2019_Nov_16_1348,ProdFawcett_Revision2019,3.2.3,59.9772086617207,
,,,,11,0,11,0,,,,,,,,,,,,,814.8899527999456,None,,,,,,,,,,,,,,,,,,,,,,staff,C_sing,11,301,811.1744269999908,None,811.1744269999908,None,811.1744269999908,None,6,2.0664142000023276,811.1744269999908,None,813.2833100999705,None,813.2833100999705,None,813.7946382999653,None,813.7946382999653,None,813.7946382999653,None,r,1.0541637999704108,813.7946382999653,None,sing39,001,2019_Nov_16_1348,ProdFawcett_Revision2019,3.2.3,59.9772086617207,
,,,,12,0,12,0,,,,,,,,,,,,,818.2568010999821,None,,,,,,,,,,,,,,,,,,,,,,still,B_aloud,12,304,815.4089160999865,None,815.4089160999865,None,815.4089160999865,None,6,1.6079344000318088,815.4089160999865,None,817.0655546999769,None,817.0655546999769,None,817.5872605999466,None,817.5872605999466,None,817.5872605999466,None,r,0.6295199999585748,817.5872605999466,None,sing39,001,2019_Nov_16_1348,ProdFawcett_Revision2019,3.2.3,59.9772086617207,
,,,,13,0,13,0,,,,,,,,,,,,,822.2090306999744,None,,,,,,,,,,,,,,,,,,,,,,block,C_sing,13,25,818.7761267999886,None,818.7761267999886,None,818.7761267999886,None,6,2.297472000005655,818.7761267999886,None,821.1171814999543,None,821.1171814999543,None,821.6445655999705,None,821.6445655999705,None,821.6445655999705,None,r,0.5323506999993697,821.6445655999705,None,sing39,001,2019_Nov_16_1348,ProdFawcett_Revision2019,3.2.3,59.9772086617207,
,,,,14,0,14,0,,,,,,,,,,,,,825.6072449999629,None,,,,,,,,,,,,,,,,,,,,,,trail,D_new,14,336,822.7251092999941,None,822.7251092999941,None,822.7251092999941,None,1,1.5959351999918,822.7251092999941,None,824.3722166999942,None,824.3722166999942,None,824.8909057999845,None,824.8909057999845,None,824.8909057999845,None,n,0.6859722000081092,824.8909057999845,None,sing39,001,2019_Nov_16_1348,ProdFawcett_Revision2019,3.2.3,59.9772086617207,
,,,,15,0,15,0,,,,,,,,,,,,,829.7449939999497,None,,,,,,,,,,,,,,,,,,,,,,finish,B_aloud,15,130,826.1245922999806,None,826.1245922999806,None,826.1245922999806,None,6,1.7488234000047669,826.1245922999806,None,827.9187973999651,None,827.9187973999651,None,828.4420738999615,None,828.4420738999615,None,828.4420738999615,None,r,1.2630541000398807,828.4420738999615,None,sing39,001,2019_Nov_16_1348,ProdFawcett_Revision2019,3.2.3,59.9772086617207,
,,,,16,0,16,0,,,,,,,,,,,,,834.3241552999825,None,,,,,,,,,,,,,,,,,,,,,,impact,A_silent,16,157,830.2765565999434,None,830.2765565999434,None,830.2765565999434,None,5,2.4922395000467077,830.2765565999434,None,832.8178265999886,None,832.8178265999886,None,833.3404623999959,None,833.3404623999959,None,833.3404623999959,None,f,0.9403980000060983,833.3404623999959,None,sing39,001,2019_Nov_16_1348,ProdFawcett_Revision2019,3.2.3,59.9772086617207,
,,,,17,0,17,0,,,,,,,,,,,,,837.8110405999469,None,,,,,,,,,,,,,,,,,,,,,,people,A_silent,17,216,834.8426201999537,None,834.8426201999537,None,834.8426201999537,None,6,1.7984347000019625,834.8426201999537,None,836.6846635999973,None,836.6846635999973,None,837.2138689999701,None,837.2138689999701,None,837.2138689999701,None,r,0.5549834999837913,837.2138689999701,None,sing39,001,2019_Nov_16_1348,ProdFawcett_Revision2019,3.2.3,59.9772086617207,
,,,,18,0,18,0,,,,,,,,,,,,,841.1742750999983,None,,,,,,,,,,,,,,,,,,,,,,thing,C_sing,18,328,838.345874599996,None,838.345874599996,None,838.345874599996,None,6,1.8150165000115521,838.345874599996,None,840.199754799949,None,840.199754799949,None,840.7280012999545,None,840.7280012999545,None,840.7280012999545,None,r,0.40083759999834,840.7280012999545,None,sing39,001,2019_Nov_16_1348,ProdFawcett_Revision2019,3.2.3,59.9772086617207,
,,,,19,0,19,0,,,,,,,,,,,,,844.7587749999948,None,,,,,,,,,,,,,,,,,,,,,,passage,D_new,19,212,841.696210199967,None,841.696210199967,None,841.696210199967,None,1,1.264782100042794,841.696210199967,None,843.0078647999908,None,843.0078647999908,None,843.5309278999921,None,843.5309278999921,None,843.5309278999921,None,n,1.1978170999791473,843.5309278999921,None,sing39,001,2019_Nov_16_1348,ProdFawcett_Revision2019,3.2.3,59.9772086617207,
,,,,20,0,20,0,,,,,,,,,,,,,847.6917316999752,None,,,,,,,,,,,,,,,,,,,,,,death,D_new,20,86,845.2767198999645,None,845.2767198999645,None,845.2767198999645,None,1,1.2122328999685124,845.2767198999645,None,846.5315359999659,None,846.5315359999659,None,847.0598158999928,None,847.0598158999928,None,847.0598158999928,None,n,0.5890403999947011,847.0598158999928,None,sing39,001,2019_Nov_16_1348,ProdFawcett_Revision2019,3.2.3,59.9772086617207,
,,,,21,0,21,0,,,,,,,,,,,,,850.6435076999478,None,,,,,,,,,,,,,,,,,,,,,,school,D_new,21,274,848.2083247999544,None,848.2083247999544,None,848.2083247999544,None,1,1.0884914000052959,848.2083247999544,None,849.348948699946,None,849.348948699946,None,849.875711599947,None,849.875711599947,None,849.875711599947,None,n,0.7250989000312984,849.875711599947,None,sing39,001,2019_Nov_16_1348,ProdFawcett_Revision2019,3.2.3,59.9772086617207,
,,,,22,0,22,0,,,,,,,,,,,,,853.8092281999998,None,,,,,,,,,,,,,,,,,,,,,,expansion,D_new,22,123,851.1613696999848,None,851.1613696999848,None,851.1613696999848,None,1,1.5994949000305496,851.1613696999848,None,852.7995716999867,None,852.7995716999867,None,853.3279506999534,None,853.3279506999534,None,853.3279506999534,None,n,0.4407999000395648,853.3279506999534,None,sing39,001,2019_Nov_16_1348,ProdFawcett_Revision2019,3.2.3,59.9772086617207,
,,,,23,0,23,0,,,,,,,,,,,,,858.0756609999808,None,,,,,,,,,,,,,,,,,,,,,,discovery,D_new,23,95,854.329380799958,None,854.329380799958,None,854.329380799958,None,5,2.3756111999973655,854.329380799958,None,856.7571254999493,None,856.7571254999493,None,857.2829196999664,None,857.2829196999664,None,857.2829196999664,None,f,0.7499280000338331,857.2829196999664,None,sing39,001,2019_Nov_16_1348,ProdFawcett_Revision2019,3.2.3,59.9772086617207,
,,,,24,0,24,0,,,,,,,,,,,,,861.2597215999849,None,,,,,,,,,,,,,,,,,,,,,,power,D_new,24,230,858.5982564999722,None,858.5982564999722,None,858.5982564999722,None,6,1.4746947000385262,858.5982564999722,None,860.1192838999559,None,860.1192838999559,None,860.6458391999477,None,860.6458391999477,None,860.6458391999477,None,r,0.5789697000291198,860.6458391999477,None,sing39,001,2019_Nov_16_1348,ProdFawcett_Revision2019,3.2.3,59.9772086617207,
,,,,25,0,25,0,,,,,,,,,,,,,864.6748331999988,None,,,,,,,,,,,,,,,,,,,,,,enemy,A_silent,25,113,861.7781007999438,None,861.7781007999438,None,861.7781007999438,None,6,1.5989477999974042,861.7781007999438,None,863.4184499999974,None,863.4184499999974,None,863.9435548999463,None,863.9435548999463,None,863.9435548999463,None,r,0.6893445999594405,863.9435548999463,None,sing39,001,2019_Nov_16_1348,ProdFawcett_Revision2019,3.2.3,59.9772086617207,
,,,,26,0,26,0,,,,,,,,,,,,,869.8933847000008,None,,,,,,,,,,,,,,,,,,,,,,commercial,D_new,26,61,865.1956838999758,None,865.1956838999758,None,865.1956838999758,None,2,2.7732781000086106,865.1956838999758,None,868.0225542999688,None,868.0225542999688,None,868.5447143999627,None,868.5447143999627,None,868.5447143999627,None,f,1.3041391000151634,868.5447143999627,None,sing39,001,2019_Nov_16_1348,ProdFawcett_Revision2019,3.2.3,59.9772086617207,
,,,,27,0,27,0,,,,,,,,,,,,,872.7303513999796,None,,,,,,,,,,,,,,,,,,,,,,couch,B_aloud,27,70,870.4086930999765,None,870.4086930999765,None,870.4086930999765,None,6,1.4721645999816246,870.4086930999765,None,871.9208035999909,None,871.9208035999909,None,872.4438955999794,None,872.4438955999794,None,872.4438955999794,None,r,0.2528974000015296,872.4438955999794,None,sing39,001,2019_Nov_16_1348,ProdFawcett_Revision2019,3.2.3,59.9772086617207,
,,,,28,0,28,0,,,,,,,,,,,,,875.7273075999692,None,,,,,,,,,,,,,,,,,,,,,,audience,A_silent,28,14,873.2611479999614,None,873.2611479999614,None,873.2611479999614,None,6,1.5238269999972545,873.2611479999614,None,874.8350791999837,None,874.8350791999837,None,875.358657899953,None,875.358657899953,None,875.358657899953,None,r,0.33017749997088686,875.358657899953,None,sing39,001,2019_Nov_16_1348,ProdFawcett_Revision2019,3.2.3,59.9772086617207,
,,,,29,0,29,0,,,,,,,,,,,,,878.7776587999542,None,,,,,,,,,,,,,,,,,,,,,,budget,D_new,29,34,876.2501711999648,None,876.2501711999648,None,876.2501711999648,None,1,1.2626906000077724,876.2501711999648,None,877.553364899999,None,877.553364899999,None,878.0837676999508,None,878.0837676999508,None,878.0837676999508,None,n,0.6613851000438444,878.0837676999508,None,sing39,001,2019_Nov_16_1348,ProdFawcett_Revision2019,3.2.3,59.9772086617207,
,,,,30,0,30,0,,,,,,,,,,,,,883.8432998999488,None,,,,,,,,,,,,,,,,,,,,,,edition,C_sing,30,107,879.2954723999719,None,879.2954723999719,None,879.2954723999719,None,4,2.7693738999660127,879.2954723999719,None,882.1219455999671,None,882.1219455999671,None,882.6452569999965,None,882.6452569999965,None,882.6452569999965,None,f,1.155666700040456,882.6452569999965,None,sing39,001,2019_Nov_16_1348,ProdFawcett_Revision2019,3.2.3,59.9772086617207,
,,,,31,0,31,0,,,,,,,,,,,,,888.0282278999803,None,,,,,,,,,,,,,,,,,,,,,,private,D_new,31,237,884.3673562999466,None,884.3673562999466,None,884.3673562999466,None,1,1.8738830999936908,884.3673562999466,None,886.2865561999497,None,886.2865561999497,None,886.81731329998,None,886.81731329998,None,886.81731329998,None,n,1.1675691999844275,886.81731329998,None,sing39,001,2019_Nov_16_1348,ProdFawcett_Revision2019,3.2.3,59.9772086617207,
,,,,32,0,32,0,,,,,,,,,,,,,892.6448766999529,None,,,,,,,,,,,,,,,,,,,,,,suspect,D_new,32,318,888.5468356999918,None,888.5468356999918,None,888.5468356999918,None,3,2.3419940000167117,888.5468356999918,None,890.9345604999689,None,890.9345604999689,None,891.4599300999544,None,891.4599300999544,None,891.4599300999544,None,f,1.1409428999759257,891.4599300999544,None,sing39,001,2019_Nov_16_1348,ProdFawcett_Revision2019,3.2.3,59.9772086617207,
,,,,33,0,33,0,,,,,,,,,,,,,895.6783992999699,None,,,,,,,,,,,,,,,,,,,,,,error,D_new,33,117,893.1642390999477,None,893.1642390999477,None,893.1642390999477,None,1,1.212580599996727,893.1642390999477,None,894.423203399987,None,894.423203399987,None,894.9445877999533,None,894.9445877999533,None,894.9445877999533,None,n,0.6883317999891005,894.9445877999533,None,sing39,001,2019_Nov_16_1348,ProdFawcett_Revision2019,3.2.3,59.9772086617207,
,,,,34,0,34,0,,,,,,,,,,,,,899.9787229999783,None,,,,,,,,,,,,,,,,,,,,,,crisis,B_aloud,34,79,896.196659499954,None,896.196659499954,None,896.196659499954,None,6,1.740228999988176,896.196659499954,None,897.9837529999786,None,897.9837529999786,None,898.5133632999496,None,898.5133632999496,None,898.5133632999496,None,r,1.4235206000157632,898.5133632999496,None,sing39,001,2019_Nov_16_1348,ProdFawcett_Revision2019,3.2.3,59.9772086617207,
,,,,35,0,35,0,,,,,,,,,,,,,903.0793102999451,None,,,,,,,,,,,,,,,,,,,,,,mankind,D_new,35,178,900.4960707999999,None,900.4960707999999,None,900.4960707999999,None,1,1.2887855999870226,900.4960707999999,None,901.8450216999627,None,901.8450216999627,None,902.3636698999908,None,902.3636698999908,None,902.3636698999908,None,n,0.6851394000113942,902.3636698999908,None,sing39,001,2019_Nov_16_1348,ProdFawcett_Revision2019,3.2.3,59.9772086617207,
,,,,36,0,36,0,,,,,,,,,,,,,906.4624909999548,None,,,,,,,,,,,,,,,,,,,,,,literature,D_new,36,173,903.5979936999502,None,903.5979936999502,None,903.5979936999502,None,1,1.650755400012713,903.5979936999502,None,905.2917402999592,None,905.2917402999592,None,905.8120310999802,None,905.8120310999802,None,905.8120310999802,None,n,0.6049355000141077,905.8120310999802,None,sing39,001,2019_Nov_16_1348,ProdFawcett_Revision2019,3.2.3,59.9772086617207,
,,,,37,0,37,0,,,,,,,,,,,,,909.2964383999933,None,,,,,,,,,,,,,,,,,,,,,,break,B_aloud,37,26,906.9848238999839,None,906.9848238999839,None,906.9848238999839,None,6,1.3282469999976456,906.9848238999839,None,908.3592809999827,None,908.3592809999827,None,908.879661599989,None,908.879661599989,None,908.879661599989,None,r,0.3771670999703929,908.879661599989,None,sing39,001,2019_Nov_16_1348,ProdFawcett_Revision2019,3.2.3,59.9772086617207,
,,,,38,0,38,0,,,,,,,,,,,,,912.1468361999723,None,,,,,,,,,,,,,,,,,,,,,,engineer,D_new,38,114,909.819893399952,None,909.819893399952,None,909.819893399952,None,1,1.300930299970787,909.819893399952,None,911.176317699952,None,911.176317699952,None,911.7033956999658,None,911.7033956999658,None,911.7033956999658,None,n,0.4014310000347905,911.7033956999658,None,sing39,001,2019_Nov_16_1348,ProdFawcett_Revision2019,3.2.3,59.9772086617207,
,,,,39,0,39,0,,,,,,,,,,,,,915.3972200999851,None,,,,,,,,,,,,,,,,,,,,,,watch,A_silent,39,351,912.6675387999858,None,912.6675387999858,None,912.6675387999858,None,2,1.781397900020238,912.6675387999858,None,914.486867999949,None,914.486867999949,None,915.0154643999995,None,915.0154643999995,None,915.0154643999995,None,f,0.3455124999745749,915.0154643999995,None,sing39,001,2019_Nov_16_1348,ProdFawcett_Revision2019,3.2.3,59.9772086617207,
,,,,40,0,40,0,,,,,,,,,,,,,920.1466909999726,None,,,,,,,,,,,,,,,,,,,,,,emergency,D_new,40,110,915.9177392999991,None,915.9177392999991,None,915.9177392999991,None,1,2.747218400007114,915.9177392999991,None,918.7112102999818,None,918.7112102999818,None,919.2372508999542,None,919.2372508999542,None,919.2372508999542,None,n,0.8762043000315316,919.2372508999542,None,sing39,001,2019_Nov_16_1348,ProdFawcett_Revision2019,3.2.3,59.9772086617207,
,,,,41,0,41,0,,,,,,,,,,,,,922.9807977999444,None,,,,,,,,,,,,,,,,,,,,,,clear,D_new,41,52,920.6650275999564,None,920.6650275999564,None,920.6650275999564,None,1,1.2485383999883197,920.6650275999564,None,921.9524104999728,None,921.9524104999728,None,922.4817309999489,None,922.4817309999489,None,922.4817309999489,None,n,0.4632574000279419,922.4817309999489,None,sing39,001,2019_Nov_16_1348,ProdFawcett_Revision2019,3.2.3,59.9772086617207,
,,,,42,0,42,0,,,,,,,,,,,,,928.2665781999822,None,,,,,,,,,,,,,,,,,,,,,,subject,D_new,42,312,923.5048879999667,None,923.5048879999667,None,923.5048879999667,None,6,2.9999824999831617,923.5048879999667,None,926.5651078999508,None,926.5651078999508,None,927.0866123999585,None,927.0866123999585,None,927.0866123999585,None,r,1.1382383999880403,927.0866123999585,None,sing39,001,2019_Nov_16_1348,ProdFawcett_Revision2019,3.2.3,59.9772086617207,
,,,,43,0,43,0,,,,,,,,,,,,,931.7978637999622,None,,,,,,,,,,,,,,,,,,,,,,touch,D_new,43,332,928.7822456999565,None,928.7822456999565,None,928.7822456999565,None,5,1.610659800004214,928.7822456999565,None,930.4379218999529,None,930.4379218999529,None,930.9637290999526,None,930.9637290999526,None,930.9637290999526,None,f,0.7891472000046633,930.9637290999526,None,sing39,001,2019_Nov_16_1348,ProdFawcett_Revision2019,3.2.3,59.9772086617207,
,,,,44,0,44,0,,,,,,,,,,,,,935.2815802999539,None,,,,,,,,,,,,,,,,,,,,,,dozen,C_sing,44,102,932.3196446999791,None,932.3196446999791,None,932.3196446999791,None,6,1.7454264999832958,932.3196446999791,None,934.1071320999763,None,934.1071320999763,None,934.6350442999974,None,934.6350442999974,None,934.6350442999974,None,r,0.6058534000185318,934.6350442999974,None,sing39,001,2019_Nov_16_1348,ProdFawcett_Revision2019,3.2.3,59.9772086617207,
,,,,45,0,45,0,,,,,,,,,,,,,938.4316407999722,None,,,,,,,,,,,,,,,,,,,,,,solution,D_new,45,294,935.8002388999448,None,935.8002388999448,None,935.8002388999448,None,1,1.6567683999892324,935.8002388999448,None,937.5094390999875,None,937.5094390999875,None,938.0327010999899,None,938.0327010999899,None,938.0327010999899,None,n,0.3682379999663681,938.0327010999899,None,sing39,001,2019_Nov_16_1348,ProdFawcett_Revision2019,3.2.3,59.9772086617207,
,,,,46,0,46,0,,,,,,,,,,,,,942.5655693999724,None,,,,,,,,,,,,,,,,,,,,,,turkey,A_silent,46,342,938.9505855999887,None,938.9505855999887,None,938.9505855999887,None,1,2.218231200007722,938.9505855999887,None,941.2072474999586,None,941.2072474999586,None,941.7328914999962,None,941.7328914999962,None,941.7328914999962,None,n,0.7960872999974526,941.7328914999962,None,sing39,001,2019_Nov_16_1348,ProdFawcett_Revision2019,3.2.3,59.9772086617207,
,,,,47,0,47,0,,,,,,,,,,,,,946.981973899994,None,,,,,,,,,,,,,,,,,,,,,,listen,C_sing,47,172,943.0841818999615,None,943.0841818999615,None,943.0841818999615,None,6,1.6687799000064842,943.0841818999615,None,944.8094951999956,None,944.8094951999956,None,945.3312849999638,None,945.3312849999638,None,945.3312849999638,None,r,1.6055477000190876,945.3312849999638,None,sing39,001,2019_Nov_16_1348,ProdFawcett_Revision2019,3.2.3,59.9772086617207,
,,,,48,0,48,0,,,,,,,,,,,,,951.0321668999968,None,,,,,,,,,,,,,,,,,,,,,,article,B_aloud,48,11,947.5011852999451,None,947.5011852999451,None,947.5011852999451,None,6,2.659680799988564,947.5011852999451,None,950.2079196999548,None,950.2079196999548,None,950.7317728999769,None,950.7317728999769,None,950.7317728999769,None,r,0.2691268000053242,950.7317728999769,None,sing39,001,2019_Nov_16_1348,ProdFawcett_Revision2019,3.2.3,59.9772086617207,
,,,,49,0,49,0,,,,,,,,,,,,,953.948978499975,None,,,,,,,,,,,,,,,,,,,,,,scene,C_sing,49,273,951.5507410999853,None,951.5507410999853,None,951.5507410999853,None,6,1.442155199998524,951.5507410999853,None,953.0438682999811,None,953.0438682999811,None,953.563264299999,None,953.563264299999,None,953.563264299999,None,r,0.341614400036633,953.563264299999,None,sing39,001,2019_Nov_16_1348,ProdFawcett_Revision2019,3.2.3,59.9772086617207,
,,,,50,0,50,0,,,,,,,,,,,,,956.675332099956,None,,,,,,,,,,,,,,,,,,,,,,sweet,D_new,50,319,954.4683916999493,None,954.4683916999493,None,954.4683916999493,None,1,1.1647066000150517,954.4683916999493,None,955.6908251999994,None,955.6908251999994,None,956.2044902999769,None,956.2044902999769,None,956.2044902999769,None,n,0.42873250000411645,956.2044902999769,None,sing39,001,2019_Nov_16_1348,ProdFawcett_Revision2019,3.2.3,59.9772086617207,
,,,,51,0,51,0,,,,,,,,,,,,,959.7662792999763,None,,,,,,,,,,,,,,,,,,,,,,broke,D_new,51,32,957.2037070999504,None,957.2037070999504,None,957.2037070999504,None,6,1.52524370001629,957.2037070999504,None,958.7804717999534,None,958.7804717999534,None,959.3016461999505,None,959.3016461999505,None,959.3016461999505,None,r,0.41917569999350235,959.3016461999505,None,sing39,001,2019_Nov_16_1348,ProdFawcett_Revision2019,3.2.3,59.9772086617207,
,,,,52,0,52,0,,,,,,,,,,,,,962.8657734000008,None,,,,,,,,,,,,,,,,,,,,,,incident,C_sing,52,158,960.2844557999633,None,960.2844557999633,None,960.2844557999633,None,6,1.3651163000031374,960.2844557999633,None,961.697117499949,None,961.697117499949,None,962.2152104999986,None,962.2152104999986,None,962.2152104999986,None,r,0.6097263000556268,962.2152104999986,None,sing39,001,2019_Nov_16_1348,ProdFawcett_Revision2019,3.2.3,59.9772086617207,
,,,,53,0,53,0,,,,,,,,,,,,,966.0836469999631,None,,,,,,,,,,,,,,,,,,,,,,poetry,B_aloud,53,225,963.3857276999624,None,963.3857276999624,None,963.3857276999624,None,6,1.359351399994921,963.3857276999624,None,964.7923188999994,None,964.7923188999994,None,965.317055099993,None,965.317055099993,None,965.317055099993,None,r,0.7321602000156417,965.317055099993,None,sing39,001,2019_Nov_16_1348,ProdFawcett_Revision2019,3.2.3,59.9772086617207,
,,,,54,0,54,0,,,,,,,,,,,,,969.2326991999871,None,,,,,,,,,,,,,,,,,,,,,,trial,A_silent,54,341,966.6025345999515,None,966.6025345999515,None,966.6025345999515,None,1,1.3343322000000626,966.6025345999515,None,967.9719095999608,None,967.9719095999608,None,968.499568899977,None,968.499568899977,None,968.499568899977,None,n,0.7014098999788985,968.499568899977,None,sing39,001,2019_Nov_16_1348,ProdFawcett_Revision2019,3.2.3,59.9772086617207,
,,,,55,0,55,0,,,,,,,,,,,,,972.4502149999607,None,,,,,,,,,,,,,,,,,,,,,,narrow,D_new,55,197,969.7556922999793,None,969.7556922999793,None,969.7556922999793,None,1,1.2691541000385769,969.7556922999793,None,971.0810331999674,None,971.0810331999674,None,971.6010651999968,None,971.6010651999968,None,971.6010651999968,None,n,0.8078768999548629,971.6010651999968,None,sing39,001,2019_Nov_16_1348,ProdFawcett_Revision2019,3.2.3,59.9772086617207,
,,,,56,0,56,0,,,,,,,,,,,,,975.5675566999707,None,,,,,,,,,,,,,,,,,,,,,,spoke,D_new,56,300,972.9705987999914,None,972.9705987999914,None,972.9705987999914,None,1,1.5344260000274517,972.9705987999914,None,974.5635714999516,None,974.5635714999516,None,975.0851133999531,None,975.0851133999531,None,975.0851133999531,None,n,0.44376930000726134,975.0851133999531,None,sing39,001,2019_Nov_16_1348,ProdFawcett_Revision2019,3.2.3,59.9772086617207,
,,,,57,0,57,0,,,,,,,,,,,,,979.3341996999807,None,,,,,,,,,,,,,,,,,,,,,,range,C_sing,57,251,976.0895223999978,None,976.0895223999978,None,976.0895223999978,None,6,2.1755635000299662,976.0895223999978,None,978.3152811999898,None,978.3152811999898,None,978.8396535999491,None,978.8396535999491,None,978.8396535999491,None,r,0.4573538000113331,978.8396535999491,None,sing39,001,2019_Nov_16_1348,ProdFawcett_Revision2019,3.2.3,59.9772086617207,
,,,,58,0,58,0,,,,,,,,,,,,,983.1016284999787,None,,,,,,,,,,,,,,,,,,,,,,appearance,C_sing,58,10,979.8544926999602,None,979.8544926999602,None,979.8544926999602,None,6,2.1385070999967866,979.8544926999602,None,982.0468333999743,None,982.0468333999743,None,982.5672238999978,None,982.5672238999978,None,982.5672238999978,None,r,0.49780730000929907,982.5672238999978,None,sing39,001,2019_Nov_16_1348,ProdFawcett_Revision2019,3.2.3,59.9772086617207,
,,,,59,0,59,0,,,,,,,,,,,,,986.1164576999727,None,,,,,,,,,,,,,,,,,,,,,,style,D_new,59,311,983.6193278999999,None,983.6193278999999,None,983.6193278999999,None,1,1.3496577000478283,983.6193278999999,None,985.0083635999472,None,985.0083635999472,None,985.5351135999663,None,985.5351135999663,None,985.5351135999663,None,n,0.5377534999861382,985.5351135999663,None,sing39,001,2019_Nov_16_1348,ProdFawcett_Revision2019,3.2.3,59.9772086617207,
,,,,60,0,60,0,,,,,,,,,,,,,990.0688180999714,None,,,,,,,,,,,,,,,,,,,,,,military,C_sing,60,190,986.6371979999822,None,986.6371979999822,None,986.6371979999822,None,5,2.0837767000193708,986.6371979999822,None,988.7595925999922,None,988.7595925999922,None,989.2870895999949,None,989.2870895999949,None,989.2870895999949,None,f,0.745755799987819,989.2870895999949,None,sing39,001,2019_Nov_16_1348,ProdFawcett_Revision2019,3.2.3,59.9772086617207,
,,,,61,0,61,0,,,,,,,,,,,,,994.0349554999848,None,,,,,,,,,,,,,,,,,,,,,,welcome,A_silent,61,354,990.5892246000003,None,990.5892246000003,None,990.5892246000003,None,3,2.275843799987342,990.5892246000003,None,992.9163053999655,None,992.9163053999655,None,993.4404797999887,None,993.4404797999887,None,993.4404797999887,None,f,0.5524977999739349,993.4404797999887,None,sing39,001,2019_Nov_16_1348,ProdFawcett_Revision2019,3.2.3,59.9772086617207,
,,,,62,0,62,0,,,,,,,,,,,,,997.1853734999895,None,,,,,,,,,,,,,,,,,,,,,,right,B_aloud,62,265,994.5513810999691,None,994.5513810999691,None,994.5513810999691,None,1,1.5854785999981686,994.5513810999691,None,996.1829965999932,None,996.1829965999932,None,996.7073353999876,None,996.7073353999876,None,996.7073353999876,None,n,0.44588469999143854,996.7073353999876,None,sing39,001,2019_Nov_16_1348,ProdFawcett_Revision2019,3.2.3,59.9772086617207,
,,,,63,0,63,0,,,,,,,,,,,,,1000.1531344999676,None,,,,,,,,,,,,,,,,,,,,,,pancakes,D_new,63,210,997.7045525999856,None,997.7045525999856,None,997.7045525999856,None,1,1.3445186999742873,997.7045525999856,None,999.1020150999539,None,999.1020150999539,None,999.620230099943,None,999.620230099943,None,999.620230099943,None,n,0.5008254999993369,999.620230099943,None,sing39,001,2019_Nov_16_1348,ProdFawcett_Revision2019,3.2.3,59.9772086617207,
,,,,64,0,64,0,,,,,,,,,,,,,1004.8081738999463,None,,,,,,,,,,,,,,,,,,,,,,blind,D_new,64,24,1000.6737417999539,None,1000.6737417999539,None,1000.6737417999539,None,3,2.711585199984256,1000.6737417999539,None,1003.4296564999968,None,1003.4296564999968,None,1003.9536297999439,None,1003.9536297999439,None,1003.9536297999439,None,f,0.8072284999652766,1003.9536297999439,None,sing39,001,2019_Nov_16_1348,ProdFawcett_Revision2019,3.2.3,59.9772086617207,
,,,,65,0,65,0,,,,,,,,,,,,,1008.5361760999658,None,,,,,,,,,,,,,,,,,,,,,,phrase,C_sing,65,220,1005.338605099998,None,1005.338605099998,None,1005.338605099998,None,6,2.2145112000289373,1005.338605099998,None,1007.5971765999566,None,1007.5971765999566,None,1008.118938599946,None,1008.118938599946,None,1008.118938599946,None,r,0.3860063000465743,1008.118938599946,None,sing39,001,2019_Nov_16_1348,ProdFawcett_Revision2019,3.2.3,59.9772086617207,
,,,,66,0,66,0,,,,,,,,,,,,,1011.5371141999494,None,,,,,,,,,,,,,,,,,,,,,,income,D_new,66,159,1009.0544700999744,None,1009.0544700999744,None,1009.0544700999744,None,1,1.346429299970623,1009.0544700999744,None,1010.4469215999707,None,1010.4469215999707,None,1010.9701026999974,None,1010.9701026999974,None,1010.9701026999974,None,n,0.5348604999599047,1010.9701026999974,None,sing39,001,2019_Nov_16_1348,ProdFawcett_Revision2019,3.2.3,59.9772086617207,
,,,,67,0,67,0,,,,,,,,,,,,,1014.3202275999938,None,,,,,,,,,,,,,,,,,,,,,,thick,C_sing,67,327,1012.0546373999678,None,1012.0546373999678,None,1012.0546373999678,None,6,1.1863961000344716,1012.0546373999678,None,1013.296263999946,None,1013.296263999946,None,1013.8194310999825,None,1013.8194310999825,None,1013.8194310999825,None,r,0.46147379995090887,1013.8194310999825,None,sing39,001,2019_Nov_16_1348,ProdFawcett_Revision2019,3.2.3,59.9772086617207,
,,,,68,0,68,0,,,,,,,,,,,,,1017.6704199999804,None,,,,,,,,,,,,,,,,,,,,,,nation,A_silent,68,198,1014.8382252999581,None,1014.8382252999581,None,1014.8382252999581,None,6,1.682694300019648,1014.8382252999581,None,1016.5676196999848,None,1016.5676196999848,None,1017.088120099972,None,1017.088120099972,None,1017.088120099972,None,r,0.5449770999839529,1017.088120099972,None,sing39,001,2019_Nov_16_1348,ProdFawcett_Revision2019,3.2.3,59.9772086617207,
,,,,69,0,69,0,,,,,,,,,,,,,1020.4036139999516,None,,,,,,,,,,,,,,,,,,,,,,owner,D_new,69,208,1018.1896045999601,None,1018.1896045999601,None,1018.1896045999601,None,1,1.235313799988944,1018.1896045999601,None,1019.4852731999708,None,1019.4852731999708,None,1020.0089971999987,None,1020.0089971999987,None,1020.0089971999987,None,n,0.35992909997003153,1020.0089971999987,None,sing39,001,2019_Nov_16_1348,ProdFawcett_Revision2019,3.2.3,59.9772086617207,
,,,,70,0,70,0,,,,,,,,,,,,,1023.8707411999931,None,,,,,,,,,,,,,,,,,,,,,,contract,D_new,70,68,1020.9226938999491,None,1020.9226938999491,None,1020.9226938999491,None,4,1.9181865000282414,1020.9226938999491,None,1022.8769351999508,None,1022.8769351999508,None,1023.4049410999869,None,1023.4049410999869,None,1023.4049410999869,None,f,0.43605449999449775,1023.4049410999869,None,sing39,001,2019_Nov_16_1348,ProdFawcett_Revision2019,3.2.3,59.9772086617207,
,,,,71,0,71,0,,,,,,,,,,,,,1029.2372196999495,None,,,,,,,,,,,,,,,,,,,,,,degree,D_new,71,89,1024.3933031999622,None,1024.3933031999622,None,1024.3933031999622,None,1,3.1676728999591433,1024.3933031999622,None,1027.6141821999918,None,1027.6141821999918,None,1028.1433009999455,None,1028.1433009999455,None,1028.1433009999455,None,f,1.0496181000489742,1028.1433009999455,None,sing39,001,2019_Nov_16_1348,ProdFawcett_Revision2019,3.2.3,59.9772086617207,
,,,,72,0,72,0,,,,,,,,,,,,,1032.6716969999834,None,,,,,,,,,,,,,,,,,,,,,,region,A_silent,72,256,1029.7606633999967,None,1029.7606633999967,None,1029.7606633999967,None,1,1.6722706999862567,1029.7606633999967,None,1031.480000199983,None,1031.480000199983,None,1032.0107081999886,None,1032.0107081999886,None,1032.0107081999886,None,n,0.6302602000068873,1032.0107081999886,None,sing39,001,2019_Nov_16_1348,ProdFawcett_Revision2019,3.2.3,59.9772086617207,
,,,,73,0,73,0,,,,,,,,,,,,,1035.7216816999717,None,,,,,,,,,,,,,,,,,,,,,,goose,B_aloud,73,138,1033.1894991999725,None,1033.1894991999725,None,1033.1894991999725,None,6,1.291382999974303,1033.1894991999725,None,1034.5341289999778,None,1034.5341289999778,None,1035.0599240999436,None,1035.0599240999436,None,1035.0599240999436,None,r,0.6209927000454627,1035.0599240999436,None,sing39,001,2019_Nov_16_1348,ProdFawcett_Revision2019,3.2.3,59.9772086617207,
,,,,74,0,74,0,,,,,,,,,,,,,1039.0214386999724,None,,,,,,,,,,,,,,,,,,,,,,discussion,D_new,74,96,1036.241463299957,None,1036.241463299957,None,1036.241463299957,None,1,1.6954385999706574,1036.241463299957,None,1037.9840204999782,None,1037.9840204999782,None,1038.507181199966,None,1038.507181199966,None,1038.507181199966,None,n,0.4697334000375122,1038.507181199966,None,sing39,001,2019_Nov_16_1348,ProdFawcett_Revision2019,3.2.3,59.9772086617207,
,,,,75,0,75,0,,,,,,,,,,,,,1041.9054380999878,None,,,,,,,,,,,,,,,,,,,,,,primary,D_new,75,234,1039.5407456999528,None,1039.5407456999528,None,1039.5407456999528,None,1,1.4202241000020877,1039.5407456999528,None,1041.015699599986,None,1041.015699599986,None,1041.5369682999444,None,1041.5369682999444,None,1041.5369682999444,None,n,0.3279435999575071,1041.5369682999444,None,sing39,001,2019_Nov_16_1348,ProdFawcett_Revision2019,3.2.3,59.9772086617207,
,,,,76,0,76,0,,,,,,,,,,,,,1044.9890675999923,None,,,,,,,,,,,,,,,,,,,,,,taste,D_new,76,322,1042.423359999957,None,1042.423359999957,None,1042.423359999957,None,1,1.4657467000070028,1042.423359999957,None,1043.9290738999844,None,1043.9290738999844,None,1044.4556434999686,None,1044.4556434999686,None,1044.4556434999686,None,n,0.4892519999993965,1044.4556434999686,None,sing39,001,2019_Nov_16_1348,ProdFawcett_Revision2019,3.2.3,59.9772086617207,
,,,,77,0,77,0,,,,,,,,,,,,,1048.02247669996,None,,,,,,,,,,,,,,,,,,,,,,religion,D_new,77,258,1045.5126413999824,None,1045.5126413999824,None,1045.5126413999824,None,1,1.5202979000168853,1045.5126413999824,None,1047.0825674999505,None,1047.0825674999505,None,1047.6132681999588,None,1047.6132681999588,None,1047.6132681999588,None,n,0.3719376999652013,1047.6132681999588,None,sing39,001,2019_Nov_16_1348,ProdFawcett_Revision2019,3.2.3,59.9772086617207,
,,,,78,0,78,0,,,,,,,,,,,,,1050.5227752999635,None,,,,,,,,,,,,,,,,,,,,,,problem,C_sing,78,238,1048.5445145999547,None,1048.5445145999547,None,1048.5445145999547,None,6,1.224421099992469,1048.5445145999547,None,1049.8153621999663,None,1049.8153621999663,None,1050.3433257999714,None,1050.3433257999714,None,1050.3433257999714,None,r,0.13755179999861866,1050.3433257999714,None,sing39,001,2019_Nov_16_1348,ProdFawcett_Revision2019,3.2.3,59.9772086617207,
,,,,79,0,79,0,,,,,,,,,,,,,1053.9268969999976,None,,,,,,,,,,,,,,,,,,,,,,committee,A_silent,79,62,1051.0395144999493,None,1051.0395144999493,None,1051.0395144999493,None,4,1.873431000043638,1051.0395144999493,None,1052.9622755999444,None,1052.9622755999444,None,1053.4887135999743,None,1053.4887135999743,None,1053.4887135999743,None,f,0.40078740002354607,1053.4887135999743,None,sing39,001,2019_Nov_16_1348,ProdFawcett_Revision2019,3.2.3,59.9772086617207,
,,,,80,0,80,0,,,,,,,,,,,,,1056.9241751999944,None,,,,,,,,,,,,,,,,,,,,,,resistance,B_aloud,80,262,1054.4563020999776,None,1054.4563020999776,None,1054.4563020999776,None,6,1.232900500006508,1054.4563020999776,None,1055.7351957999635,None,1055.7351957999635,None,1056.2582118999562,None,1056.2582118999562,None,1056.2582118999562,None,r,0.6314563000341877,1056.2582118999562,None,sing39,001,2019_Nov_16_1348,ProdFawcett_Revision2019,3.2.3,59.9772086617207,
,,,,81,0,81,0,,,,,,,,,,,,,1059.356440799951,None,,,,,,,,,,,,,,,,,,,,,,position,D_new,81,229,1057.4418298999663,None,1057.4418298999663,None,1057.4418298999663,None,6,1.079087799997069,1057.4418298999663,None,1058.5738077999558,None,1058.5738077999558,None,1059.089280999964,None,1059.089280999964,None,1059.089280999964,None,r,0.22368660004576668,1059.089280999964,None,sing39,001,2019_Nov_16_1348,ProdFawcett_Revision2019,3.2.3,59.9772086617207,
,,,,82,0,82,0,,,,,,,,,,,,,1061.9886881999555,None,,,,,,,,,,,,,,,,,,,,,,center,B_aloud,82,44,1059.874352899962,None,1059.874352899962,None,1059.874352899962,None,6,1.1746232999721542,1059.874352899962,None,1061.101139299979,None,1061.101139299979,None,1061.6247010999941,None,1061.6247010999941,None,1061.6247010999941,None,r,0.32842910004546866,1061.6247010999941,None,sing39,001,2019_Nov_16_1348,ProdFawcett_Revision2019,3.2.3,59.9772086617207,
,,,,83,0,83,0,,,,,,,,,,,,,1065.2736730999895,None,,,,,,,,,,,,,,,,,,,,,,treatment,B_aloud,83,339,1062.5090427999967,None,1062.5090427999967,None,1062.5090427999967,None,3,1.6998464000062086,1062.5090427999967,None,1064.251307300001,None,1064.251307300001,None,1064.7747001999523,None,1064.7747001999523,None,1064.7747001999523,None,f,0.4662590000079945,1064.7747001999523,None,sing39,001,2019_Nov_16_1348,ProdFawcett_Revision2019,3.2.3,59.9772086617207,
,,,,84,0,84,0,,,,,,,,,,,,,1068.540629199997,None,,,,,,,,,,,,,,,,,,,,,,bicycle,B_aloud,84,21,1065.7964936999488,None,1065.7964936999488,None,1065.7964936999488,None,6,1.796560299990233,1065.7964936999488,None,1067.6319324999931,None,1067.6319324999931,None,1068.1587696999777,None,1068.1587696999777,None,1068.1587696999777,None,r,0.3462598000187427,1068.1587696999777,None,sing39,001,2019_Nov_16_1348,ProdFawcett_Revision2019,3.2.3,59.9772086617207,
,,,,85,0,85,0,,,,,,,,,,,,,1072.707397399994,None,,,,,,,,,,,,,,,,,,,,,,sound,D_new,85,295,1069.0584763999796,None,1069.0584763999796,None,1069.0584763999796,None,3,1.8384586999891326,1069.0584763999796,None,1070.9517784999916,None,1070.9517784999916,None,1071.4760653999983,None,1071.4760653999983,None,1071.4760653999983,None,f,1.1972921999986283,1071.4760653999983,None,sing39,001,2019_Nov_16_1348,ProdFawcett_Revision2019,3.2.3,59.9772086617207,
,,,,86,0,86,0,,,,,,,,,,,,,1075.5410438999534,None,,,,,,,,,,,,,,,,,,,,,,union,A_silent,86,344,1073.2253907999839,None,1073.2253907999839,None,1073.2253907999839,None,1,1.3995375000522472,1073.2253907999839,None,1074.668708399986,None,1074.668708399986,None,1075.197185899946,None,1075.197185899946,None,1075.197185899946,None,n,0.3078387000132352,1075.197185899946,None,sing39,001,2019_Nov_16_1348,ProdFawcett_Revision2019,3.2.3,59.9772086617207,
,,,,87,0,87,0,,,,,,,,,,,,,1079.5080467999796,None,,,,,,,,,,,,,,,,,,,,,,ground,D_new,87,142,1076.0593002999667,None,1076.0593002999667,None,1076.0593002999667,None,4,1.5576132000423968,1076.0593002999667,None,1077.6715948999627,None,1077.6715948999627,None,1078.191591699957,None,1078.191591699957,None,1078.191591699957,None,f,1.2814968000166118,1078.191591699957,None,sing39,001,2019_Nov_16_1348,ProdFawcett_Revision2019,3.2.3,59.9772086617207,
,,,,88,0,88,0,,,,,,,,,,,,,1083.5913225999684,None,,,,,,,,,,,,,,,,,,,,,,story,D_new,88,306,1080.02589239995,None,1080.02589239995,None,1080.02589239995,None,2,2.1111329999985173,1080.02589239995,None,1082.1807889999473,None,1082.1807889999473,None,1082.7093692999915,None,1082.7093692999915,None,1082.7093692999915,None,f,0.8515197000233456,1082.7093692999915,None,sing39,001,2019_Nov_16_1348,ProdFawcett_Revision2019,3.2.3,59.9772086617207,
,,,,89,0,89,0,,,,,,,,,,,,,1086.7631838999805,None,,,,,,,,,,,,,,,,,,,,,,victory,D_new,89,346,1084.1136837999802,None,1084.1136837999802,None,1084.1136837999802,None,1,1.3512520999647677,1084.1136837999802,None,1085.522109899961,None,1085.522109899961,None,1086.042413499963,None,1086.042413499963,None,1086.042413499963,None,n,0.6861682999879122,1086.042413499963,None,sing39,001,2019_Nov_16_1348,ProdFawcett_Revision2019,3.2.3,59.9772086617207,
,,,,90,0,90,0,,,,,,,,,,,,,1090.2593751999666,None,,,,,,,,,,,,,,,,,,,,,,minor,B_aloud,90,191,1087.2823435999453,None,1087.2823435999453,None,1087.2823435999453,None,6,1.822259499982465,1087.2823435999453,None,1089.1318000999745,None,1089.1318000999745,None,1089.6564773999853,None,1089.6564773999853,None,1089.6564773999853,None,r,0.5692687000264414,1089.6564773999853,None,sing39,001,2019_Nov_16_1348,ProdFawcett_Revision2019,3.2.3,59.9772086617207,
,,,,91,0,91,0,,,,,,,,,,,,,1093.7755059999763,None,,,,,,,,,,,,,,,,,,,,,,health,C_sing,91,149,1090.7766224999796,None,1090.7766224999796,None,1090.7766224999796,None,6,1.4402266999823041,1090.7766224999796,None,1092.2638772999635,None,1092.2638772999635,None,1092.7930897999904,None,1092.7930897999904,None,1092.7930897999904,None,r,0.9438943000277504,1092.7930897999904,None,sing39,001,2019_Nov_16_1348,ProdFawcett_Revision2019,3.2.3,59.9772086617207,
,,,,92,0,92,0,,,,,,,,,,,,,1097.8592499999795,None,,,,,,,,,,,,,,,,,,,,,,speech,C_sing,92,298,1094.2945428999956,None,1094.2945428999956,None,1094.2945428999956,None,3,1.9463503999868408,1094.2945428999956,None,1096.2869720999734,None,1096.2869720999734,None,1096.8112578999717,None,1096.8112578999717,None,1096.8112578999717,None,f,1.014242600009311,1096.8112578999717,None,sing39,001,2019_Nov_16_1348,ProdFawcett_Revision2019,3.2.3,59.9772086617207,
,,,,93,0,93,0,,,,,,,,,,,,,1101.7929898999864,None,,,,,,,,,,,,,,,,,,,,,,symbol,A_silent,93,321,1098.3788724999758,None,1098.3788724999758,None,1098.3788724999758,None,1,1.7103235000395216,1098.3788724999758,None,1100.1408377999905,None,1100.1408377999905,None,1100.6590384999872,None,1100.6590384999872,None,1100.6590384999872,None,n,1.101891500002239,1100.6590384999872,None,sing39,001,2019_Nov_16_1348,ProdFawcett_Revision2019,3.2.3,59.9772086617207,
,,,,94,0,94,0,,,,,,,,,,,,,1105.1099885999574,None,,,,,,,,,,,,,,,,,,,,,,beauty,D_new,94,18,1102.309814599983,None,1102.309814599983,None,1102.309814599983,None,1,1.4591448999708518,1102.309814599983,None,1103.8183223999804,None,1103.8183223999804,None,1104.346927799983,None,1104.346927799983,None,1104.346927799983,None,n,0.7261768000316806,1104.346927799983,None,sing39,001,2019_Nov_16_1348,ProdFawcett_Revision2019,3.2.3,59.9772086617207,
,,,,95,0,95,0,,,,,,,,,,,,,1109.1095860999776,None,,,,,,,,,,,,,,,,,,,,,,citizen,D_new,95,50,1105.6333327999455,None,1105.6333327999455,None,1105.6333327999455,None,3,1.6316362000070512,1105.6333327999455,None,1107.3253746999544,None,1107.3253746999544,None,1107.8485606999602,None,1107.8485606999602,None,1107.8485606999602,None,f,1.2163323000422679,1107.8485606999602,None,sing39,001,2019_Nov_16_1348,ProdFawcett_Revision2019,3.2.3,59.9772086617207,
,,,,96,0,96,0,,,,,,,,,,,,,1112.3261874999735,None,,,,,,,,,,,,,,,,,,,,,,empty,C_sing,96,112,1109.6276151999482,None,1109.6276151999482,None,1109.6276151999482,None,1,1.5173926000134088,1109.6276151999482,None,1111.1884463999886,None,1111.1884463999886,None,1111.710074499948,None,1111.710074499948,None,1111.710074499948,None,n,0.5868111000163481,1111.710074499948,None,sing39,001,2019_Nov_16_1348,ProdFawcett_Revision2019,3.2.3,59.9772086617207,
,,,,97,0,97,0,,,,,,,,,,,,,1115.4597902999958,None,,,,,,,,,,,,,,,,,,,,,,estate,A_silent,97,119,1112.8448298999574,None,1112.8448298999574,None,1112.8448298999574,None,6,1.4600963999982923,1112.8448298999574,None,1114.3536612999742,None,1114.3536612999742,None,1114.8766389999655,None,1114.8766389999655,None,1114.8766389999655,None,r,0.5402602999820374,1114.8766389999655,None,sing39,001,2019_Nov_16_1348,ProdFawcett_Revision2019,3.2.3,59.9772086617207,
,,,,98,0,98,0,,,,,,,,,,,,,1118.1938613999519,None,,,,,,,,,,,,,,,,,,,,,,defeat,D_new,98,88,1115.9788116999553,None,1115.9788116999553,None,1115.9788116999553,None,1,1.1341770000290126,1115.9788116999553,None,1117.1543476999504,None,1117.1543476999504,None,1117.6783592999564,None,1117.6783592999564,None,1117.6783592999564,None,n,0.47448209999129176,1117.6783592999564,None,sing39,001,2019_Nov_16_1348,ProdFawcett_Revision2019,3.2.3,59.9772086617207,
,,,,99,0,99,0,,,,,,,,,,,,,1120.6610413999879,None,,,,,,,,,,,,,,,,,,,,,,quiet,C_sing,99,249,1118.7146936999634,None,1118.7146936999634,None,1118.7146936999634,None,6,1.046388200018555,1118.7146936999634,None,1119.801623599953,None,1119.801623599953,None,1120.3303404999897,None,1120.3303404999897,None,1120.3303404999897,None,r,0.2946182999876328,1120.3303404999897,None,sing39,001,2019_Nov_16_1348,ProdFawcett_Revision2019,3.2.3,59.9772086617207,
,,,,100,0,100,0,,,,,,,,,,,,,1123.275731599948,None,,,,,,,,,,,,,,,,,,,,,,stranger,D_new,100,309,1121.181204899971,None,1121.181204899971,None,1121.181204899971,None,1,1.1156169999740086,1121.181204899971,None,1122.3435506999958,None,1122.3435506999958,None,1122.8673476999975,None,1122.8673476999975,None,1122.8673476999975,None,n,0.36558529996545985,1122.8673476999975,None,sing39,001,2019_Nov_16_1348,ProdFawcett_Revision2019,3.2.3,59.9772086617207,
,,,,101,0,101,0,,,,,,,,,,,,,1126.1777525999933,None,,,,,,,,,,,,,,,,,,,,,,curve,D_new,101,82,1123.7993151999544,None,1123.7993151999544,None,1123.7993151999544,None,1,1.3780714999884367,1123.7993151999544,None,1125.2248783999821,None,1125.2248783999821,None,1125.7462796999607,None,1125.7462796999607,None,1125.7462796999607,None,n,0.3989902000175789,1125.7462796999607,None,sing39,001,2019_Nov_16_1348,ProdFawcett_Revision2019,3.2.3,59.9772086617207,
,,,,102,0,102,0,,,,,,,,,,,,,1130.0589873999706,None,,,,,,,,,,,,,,,,,,,,,,distance,D_new,102,100,1126.6956557999947,None,1126.6956557999947,None,1126.6956557999947,None,5,1.7532778999884613,1126.6956557999947,None,1128.500102699967,None,1128.500102699967,None,1129.0299966999446,None,1129.0299966999446,None,1129.0299966999446,None,f,0.9950440000393428,1129.0299966999446,None,sing39,001,2019_Nov_16_1348,ProdFawcett_Revision2019,3.2.3,59.9772086617207,
,,,,103,0,103,0,,,,,,,,,,,,,1134.4112337999977,None,,,,,,,,,,,,,,,,,,,,,,society,C_sing,103,293,1130.5801349999965,None,1130.5801349999965,None,1130.5801349999965,None,5,2.3328597000217997,1130.5801349999965,None,1132.9573311999557,None,1132.9573311999557,None,1133.4776594999712,None,1133.4776594999712,None,1133.4776594999712,None,f,0.8912917000125162,1133.4776594999712,None,sing39,001,2019_Nov_16_1348,ProdFawcett_Revision2019,3.2.3,59.9772086617207,
,,,,104,0,104,0,,,,,,,,,,,,,1138.6782705999794,None,,,,,,,,,,,,,,,,,,,,,,match,D_new,104,181,1134.9296524999663,None,1134.9296524999663,None,1134.9296524999663,None,6,1.8872960000298917,1134.9296524999663,None,1136.8685020999983,None,1136.8685020999983,None,1137.3954686999787,None,1137.3954686999787,None,1137.3954686999787,None,r,1.23743670003023,1137.3954686999787,None,sing39,001,2019_Nov_16_1348,ProdFawcett_Revision2019,3.2.3,59.9772086617207,
,,,,105,0,105,0,,,,,,,,,,,,,1142.2788184999954,None,,,,,,,,,,,,,,,,,,,,,,threat,D_new,105,329,1139.196971599944,None,1139.196971599944,None,1139.196971599944,None,1,1.6281340999994427,1139.196971599944,None,1140.8730366999516,None,1140.8730366999516,None,1141.393623299955,None,1141.393623299955,None,1141.393623299955,None,n,0.8553494000225328,1141.393623299955,None,sing39,001,2019_Nov_16_1348,ProdFawcett_Revision2019,3.2.3,59.9772086617207,
,,,,106,0,106,0,,,,,,,,,,,,,1145.4120222999481,None,,,,,,,,,,,,,,,,,,,,,,leader,D_new,106,168,1142.7967792999698,None,1142.7967792999698,None,1142.7967792999698,None,1,1.2201641999999993,1142.7967792999698,None,1144.0761038999772,None,1144.0761038999772,None,1144.5959878999856,None,1144.5959878999856,None,1144.5959878999856,None,n,0.7729831999749877,1144.5959878999856,None,sing39,001,2019_Nov_16_1348,ProdFawcett_Revision2019,3.2.3,59.9772086617207,
,,,,107,0,107,0,,,,,,,,,,,,,1149.5628407999757,None,,,,,,,,,,,,,,,,,,,,,,revolution,A_silent,107,264,1145.9314090999542,None,1145.9314090999542,None,1145.9314090999542,None,5,2.15750550001394,1145.9314090999542,None,1148.144791699946,None,1148.144791699946,None,1148.6687401999952,None,1148.6687401999952,None,1148.6687401999952,None,f,0.8522620999719948,1148.6687401999952,None,sing39,001,2019_Nov_16_1348,ProdFawcett_Revision2019,3.2.3,59.9772086617207,
,,,,108,0,108,0,,,,,,,,,,,,,1152.6779845999554,None,,,,,,,,,,,,,,,,,,,,,,foundation,D_new,108,132,1150.0824663999956,None,1150.0824663999956,None,1150.0824663999956,None,1,1.3587656000163406,1150.0824663999956,None,1151.4920005999738,None,1151.4920005999738,None,1152.0140761999646,None,1152.0140761999646,None,1152.0140761999646,None,n,0.6348408000194468,1152.0140761999646,None,sing39,001,2019_Nov_16_1348,ProdFawcett_Revision2019,3.2.3,59.9772086617207,
,,,,109,0,109,0,,,,,,,,,,,,,1155.4626911999658,None,,,,,,,,,,,,,,,,,,,,,,order,D_new,109,207,1153.2026044999948,None,1153.2026044999948,None,1153.2026044999948,None,1,1.1428139000199735,1153.2026044999948,None,1154.3910661999835,None,1154.3910661999835,None,1154.9110474999761,None,1154.9110474999761,None,1154.9110474999761,None,n,0.5060156999970786,1154.9110474999761,None,sing39,001,2019_Nov_16_1348,ProdFawcett_Revision2019,3.2.3,59.9772086617207,
,,,,110,0,110,0,,,,,,,,,,,,,1159.646445899969,None,,,,,,,,,,,,,,,,,,,,,,route,D_new,110,267,1155.9810991999693,None,1155.9810991999693,None,1155.9810991999693,None,3,1.9319352000020444,1155.9810991999693,None,1157.9554304999765,None,1157.9554304999765,None,1158.480278199946,None,1158.480278199946,None,1158.480278199946,None,f,1.1287571000284515,1158.480278199946,None,sing39,001,2019_Nov_16_1348,ProdFawcett_Revision2019,3.2.3,59.9772086617207,
,,,,111,0,111,0,,,,,,,,,,,,,1162.6964034999837,None,,,,,,,,,,,,,,,,,,,,,,shear,C_sing,111,283,1160.1657714999747,None,1160.1657714999747,None,1160.1657714999747,None,1,1.315217500028666,1160.1657714999747,None,1161.5241947999457,None,1161.5241947999457,None,1162.0460280999541,None,1162.0460280999541,None,1162.0460280999541,None,n,0.6110275000100955,1162.0460280999541,None,sing39,001,2019_Nov_16_1348,ProdFawcett_Revision2019,3.2.3,59.9772086617207,
,,,,112,0,112,0,,,,,,,,,,,,,1166.8634849999798,None,,,,,,,,,,,,,,,,,,,,,,childhood,D_new,112,49,1163.2159931999631,None,1163.2159931999631,None,1163.2159931999631,None,4,1.96897629997693,1163.2159931999631,None,1165.2422847999842,None,1165.2422847999842,None,1165.7648612999474,None,1165.7648612999474,None,1165.7648612999474,None,f,1.060122399998363,1165.7648612999474,None,sing39,001,2019_Nov_16_1348,ProdFawcett_Revision2019,3.2.3,59.9772086617207,
,,,,113,0,113,0,,,,,,,,,,,,,1171.0475150999846,None,,,,,,,,,,,,,,,,,,,,,,attack,A_silent,113,13,1167.3848046999774,None,1167.3848046999774,None,1167.3848046999774,None,5,1.83209550002357,1167.3848046999774,None,1169.257581199985,None,1169.257581199985,None,1169.7800269,None,1169.7800269,None,1169.7800269,None,f,1.2289544999948703,1169.7800269,None,sing39,001,2019_Nov_16_1348,ProdFawcett_Revision2019,3.2.3,59.9772086617207,
,,,,114,0,114,0,,,,,,,,,,,,,1174.7812506999471,None,,,,,,,,,,,,,,,,,,,,,,travel,A_silent,114,338,1171.5698703999515,None,1171.5698703999515,None,1171.5698703999515,None,5,1.5590228999499232,1171.5698703999515,None,1173.172498799977,None,1173.172498799977,None,1173.7039108999888,None,1173.7039108999888,None,1173.7039108999888,None,f,1.041160199965816,1173.7039108999888,None,sing39,001,2019_Nov_16_1348,ProdFawcett_Revision2019,3.2.3,59.9772086617207,
,,,,115,0,115,0,,,,,,,,,,,,,1178.7810611999594,None,,,,,,,,,,,,,,,,,,,,,,design,B_aloud,115,91,1175.3038025999558,None,1175.3038025999558,None,1175.3038025999558,None,6,1.841275799961295,1175.3038025999558,None,1177.191543599998,None,1177.191543599998,None,1177.7194279999821,None,1177.7194279999821,None,1177.7194279999821,None,r,1.017568300012499,1177.7194279999821,None,sing39,001,2019_Nov_16_1348,ProdFawcett_Revision2019,3.2.3,59.9772086617207,
,,,,116,0,116,0,,,,,,,,,,,,,1181.6815729999798,None,,,,,,,,,,,,,,,,,,,,,,working,D_new,116,357,1179.3039682999952,None,1179.3039682999952,None,1179.3039682999952,None,1,1.1689424000214785,1179.3039682999952,None,1180.5229041999555,None,1180.5229041999555,None,1181.0532521999558,None,1181.0532521999558,None,1181.0532521999558,None,n,0.5876917000277899,1181.0532521999558,None,sing39,001,2019_Nov_16_1348,ProdFawcett_Revision2019,3.2.3,59.9772086617207,
,,,,117,0,117,0,,,,,,,,,,,,,1185.2034993999987,None,,,,,,,,,,,,,,,,,,,,,,material,D_new,117,182,1182.1984948999598,None,1182.1984948999598,None,1182.1984948999598,None,3,1.5544686000212096,1182.1984948999598,None,1183.8111543999985,None,1183.8111543999985,None,1184.333778399974,None,1184.333778399974,None,1184.333778399974,None,f,0.8348904000013135,1184.333778399974,None,sing39,001,2019_Nov_16_1348,ProdFawcett_Revision2019,3.2.3,59.9772086617207,
,,,,118,0,118,0,,,,,,,,,,,,,1187.9986916999915,None,,,,,,,,,,,,,,,,,,,,,,frank,D_new,118,133,1185.7333600999555,None,1185.7333600999555,None,1185.7333600999555,None,1,1.2756429000291973,1185.7333600999555,None,1187.0597495999536,None,1187.0597495999536,None,1187.5826238999725,None,1187.5826238999725,None,1187.5826238999725,None,n,0.386315600015223,1187.5826238999725,None,sing39,001,2019_Nov_16_1348,ProdFawcett_Revision2019,3.2.3,59.9772086617207,
,,,,119,0,119,0,,,,,,,,,,,,,1191.4479888999485,None,,,,,,,,,,,,,,,,,,,,,,prime,A_silent,119,235,1188.5167930999887,None,1188.5167930999887,None,1188.5167930999887,None,1,1.3484437000006437,1188.5167930999887,None,1189.90959689999,None,1189.90959689999,None,1190.4304999999586,None,1190.4304999999586,None,1190.4304999999586,None,n,0.9784466000273824,1190.4304999999586,None,sing39,001,2019_Nov_16_1348,ProdFawcett_Revision2019,3.2.3,59.9772086617207,
,,,,120,0,120,0,,,,,,,,,,,,,1195.1654752999893,None,,,,,,,,,,,,,,,,,,,,,,exchange,A_silent,120,121,1191.97256689996,None,1191.97256689996,None,1191.97256689996,None,5,1.5645087999873795,1191.97256689996,None,1193.597434299998,None,1193.597434299998,None,1194.1235257999506,None,1194.1235257999506,None,1194.1235257999506,None,f,0.9974806000245735,1194.1235257999506,None,sing39,001,2019_Nov_16_1348,ProdFawcett_Revision2019,3.2.3,59.9772086617207,
,,,,121,0,121,0,,,,,,,,,,,,,1199.0160081999493,None,,,,,,,,,,,,,,,,,,,,,,alert,C_sing,121,6,1195.6847583999624,None,1195.6847583999624,None,1195.6847583999624,None,6,1.8605023000272922,1195.6847583999624,None,1197.599830799969,None,1197.599830799969,None,1198.1151988999918,None,1198.1151988999918,None,1198.1151988999918,None,r,0.8699509999714792,1198.1151988999918,None,sing39,001,2019_Nov_16_1348,ProdFawcett_Revision2019,3.2.3,59.9772086617207,
,,,,122,0,122,0,,,,,,,,,,,,,1201.8329936999944,None,,,,,,,,,,,,,,,,,,,,,,permit,D_new,122,218,1199.5337797999964,None,1199.5337797999964,None,1199.5337797999964,None,1,1.1954423999995925,1199.5337797999964,None,1200.777382100001,None,1200.777382100001,None,1201.2974620999885,None,1201.2974620999885,None,1201.2974620999885,None,n,0.49549390003085136,1201.2974620999885,None,sing39,001,2019_Nov_16_1348,ProdFawcett_Revision2019,3.2.3,59.9772086617207,
,,,,123,0,123,0,,,,,,,,,,,,,1205.1661185999983,None,,,,,,,,,,,,,,,,,,,,,,surface,B_aloud,123,316,1202.3517937999568,None,1202.3517937999568,None,1202.3517937999568,None,6,1.297553299984429,1202.3517937999568,None,1203.6964626999688,None,1203.6964626999688,None,1204.2147487999755,None,1204.2147487999755,None,1204.2147487999755,None,r,0.9062049000058323,1204.2147487999755,None,sing39,001,2019_Nov_16_1348,ProdFawcett_Revision2019,3.2.3,59.9772086617207,
,,,,124,0,124,0,,,,,,,,,,,,,1208.2334604999633,None,,,,,,,,,,,,,,,,,,,,,,guard,A_silent,124,145,1205.6855650999933,None,1205.6855650999933,None,1205.6855650999933,None,1,1.2673970999894664,1205.6855650999933,None,1206.996355399955,None,1206.996355399955,None,1207.5177657999448,None,1207.5177657999448,None,1207.5177657999448,None,n,0.6832410999923013,1207.5177657999448,None,sing39,001,2019_Nov_16_1348,ProdFawcett_Revision2019,3.2.3,59.9772086617207,
,,,,125,0,125,0,,,,,,,,,,,,,1211.7332343999879,None,,,,,,,,,,,,,,,,,,,,,,force,D_new,125,131,1208.7513191999751,None,1208.7513191999751,None,1208.7513191999751,None,1,1.5295874000294134,1208.7513191999751,None,1210.328210699954,None,1210.328210699954,None,1210.8463770999806,None,1210.8463770999806,None,1210.8463770999806,None,n,0.8425129000097513,1210.8463770999806,None,sing39,001,2019_Nov_16_1348,ProdFawcett_Revision2019,3.2.3,59.9772086617207,
,,,,126,0,126,0,,,,,,,,,,,,,1215.8367896999698,None,,,,,,,,,,,,,,,,,,,,,,service,B_aloud,126,280,1212.2552390999626,None,1212.2552390999626,None,1212.2552390999626,None,4,1.8579672999912873,1212.2552390999626,None,1214.1692820999888,None,1214.1692820999888,None,1214.6888613999472,None,1214.6888613999472,None,1214.6888613999472,None,f,1.1122099999920465,1214.6888613999472,None,sing39,001,2019_Nov_16_1348,ProdFawcett_Revision2019,3.2.3,59.9772086617207,
,,,,127,0,127,0,,,,,,,,,,,,,1218.6674761999748,None,,,,,,,,,,,,,,,,,,,,,,gesture,D_new,127,137,1216.3733263999457,None,1216.3733263999457,None,1216.3733263999457,None,1,1.2836297000176273,1216.3733263999457,None,1217.7136442999472,None,1217.7136442999472,None,1218.2391374,None,1218.2391374,None,1218.2391374,None,n,0.39474560000235215,1218.2391374,None,sing39,001,2019_Nov_16_1348,ProdFawcett_Revision2019,3.2.3,59.9772086617207,
,,,,128,0,128,0,,,,,,,,,,,,,1221.550890799961,None,,,,,,,,,,,,,,,,,,,,,,company,D_new,128,64,1219.1875961999758,None,1219.1875961999758,None,1219.1875961999758,None,1,1.3413928000372835,1219.1875961999758,None,1220.5786785999662,None,1220.5786785999662,None,1221.102971699962,None,1221.102971699962,None,1221.102971699962,None,n,0.4180118999793194,1221.102971699962,None,sing39,001,2019_Nov_16_1348,ProdFawcett_Revision2019,3.2.3,59.9772086617207,
,,,,129,0,129,0,,,,,,,,,,,,,1224.7842733999714,None,,,,,,,,,,,,,,,,,,,,,,little,D_new,129,174,1222.0677026999765,None,1222.0677026999765,None,1222.0677026999765,None,1,1.5972815999994054,1222.0677026999765,None,1223.7125778999762,None,1223.7125778999762,None,1224.2355305999517,None,1224.2355305999517,None,1224.2355305999517,None,n,0.517474599997513,1224.2355305999517,None,sing39,001,2019_Nov_16_1348,ProdFawcett_Revision2019,3.2.3,59.9772086617207,
,,,,130,0,130,0,,,,,,,,,,,,,1227.6680461999495,None,,,,,,,,,,,,,,,,,,,,,,novel,D_new,130,202,1225.3049349999637,None,1225.3049349999637,None,1225.3049349999637,None,1,1.2959224000223912,1225.3049349999637,None,1226.6274024999584,None,1226.6274024999584,None,1227.1573974999483,None,1227.1573974999483,None,1227.1573974999483,None,n,0.4676363000180572,1227.1573974999483,None,sing39,001,2019_Nov_16_1348,ProdFawcett_Revision2019,3.2.3,59.9772086617207,
,,,,131,0,131,0,,,,,,,,,,,,,1231.7516352999955,None,,,,,,,,,,,,,,,,,,,,,,minute,D_new,131,192,1228.185076499998,None,1228.185076499998,None,1228.185076499998,None,3,1.9682443999918178,1228.185076499998,None,1230.1966380999656,None,1230.1966380999656,None,1230.7184586999938,None,1230.7184586999938,None,1230.7184586999938,None,f,1.0024670999846421,1230.7184586999938,None,sing39,001,2019_Nov_16_1348,ProdFawcett_Revision2019,3.2.3,59.9772086617207,
,,,,132,0,132,0,,,,,,,,,,,,,1235.302421499975,None,,,,,,,,,,,,,,,,,,,,,,volume,A_silent,132,349,1232.2699558999739,None,1232.2699558999739,None,1232.2699558999739,None,3,1.939102999982424,1232.2699558999739,None,1234.2743160999962,None,1234.2743160999962,None,1234.7870018999674,None,1234.7870018999674,None,1234.7870018999674,None,f,0.46999650000361726,1234.7870018999674,None,sing39,001,2019_Nov_16_1348,ProdFawcett_Revision2019,3.2.3,59.9772086617207,
,,,,133,0,133,0,,,,,,,,,,,,,1238.5018495999975,None,,,,,,,,,,,,,,,,,,,,,,afternoon,D_new,133,3,1235.8113096999587,None,1235.8113096999587,None,1235.8113096999587,None,1,1.6377810999983922,1235.8113096999587,None,1237.492465999967,None,1237.492465999967,None,1238.0196085999487,None,1238.0196085999487,None,1238.0196085999487,None,n,0.44563959998777136,1238.0196085999487,None,sing39,001,2019_Nov_16_1348,ProdFawcett_Revision2019,3.2.3,59.9772086617207,
,,,,134,0,134,0,,,,,,,,,,,,,1241.6019521999988,None,,,,,,,,,,,,,,,,,,,,,,dream,A_silent,134,104,1239.017870999989,None,1239.017870999989,None,1239.017870999989,None,6,1.7351236999966204,1239.017870999989,None,1240.790016999992,None,1240.790016999992,None,1241.3210461999988,None,1241.3210461999988,None,1241.3210461999988,None,r,0.24808629998005927,1241.3210461999988,None,sing39,001,2019_Nov_16_1348,ProdFawcett_Revision2019,3.2.3,59.9772086617207,
,,,,135,0,135,0,,,,,,,,,,,,,1246.4694353999803,None,,,,,,,,,,,,,,,,,,,,,,murder,B_aloud,135,195,1242.1200528999907,None,1242.1200528999907,None,1242.1200528999907,None,1,3.2088613000232726,1242.1200528999907,None,1245.3835679999902,None,1245.3835679999902,None,1245.9017475,None,1245.9017475,None,1245.9017475,None,n,0.5313186999992467,1245.9017475,None,sing39,001,2019_Nov_16_1348,ProdFawcett_Revision2019,3.2.3,59.9772086617207,
,,,,136,0,136,0,,,,,,,,,,,,,1249.2857466999558,None,,,,,,,,,,,,,,,,,,,,,,throw,C_sing,136,330,1246.9905296999495,None,1246.9905296999495,None,1246.9905296999495,None,6,1.3145982999703847,1246.9905296999495,None,1248.3473912999616,None,1248.3473912999616,None,1248.8712577999686,None,1248.8712577999686,None,1248.8712577999686,None,r,0.369745799980592,1248.8712577999686,None,sing39,001,2019_Nov_16_1348,ProdFawcett_Revision2019,3.2.3,59.9772086617207,
,,,,137,0,137,0,,,,,,,,,,,,,1251.918181999994,None,,,,,,,,,,,,,,,,,,,,,,principal,D_new,137,236,1249.8052250999608,None,1249.8052250999608,None,1249.8052250999608,None,1,1.1158782999846153,1249.8052250999608,None,1250.959989199997,None,1250.959989199997,None,1251.488493199984,None,1251.488493199984,None,1251.488493199984,None,n,0.392501300026197,1251.488493199984,None,sing39,001,2019_Nov_16_1348,ProdFawcett_Revision2019,3.2.3,59.9772086617207,
,,,,138,0,138,0,,,,,,,,,,,,,1256.1698279999546,None,,,,,,,,,,,,,,,,,,,,,,angle,C_sing,138,7,1252.4414854999632,None,1252.4414854999632,None,1252.4414854999632,None,6,1.8155936999828555,1252.4414854999632,None,1254.3158309999853,None,1254.3158309999853,None,1254.8392723999568,None,1254.8392723999568,None,1254.8392723999568,None,r,1.2897994000231847,1254.8392723999568,None,sing39,001,2019_Nov_16_1348,ProdFawcett_Revision2019,3.2.3,59.9772086617207,
,,,,139,0,139,0,,,,,,,,,,,,,1259.7535329999519,None,,,,,,,,,,,,,,,,,,,,,,master,B_aloud,139,180,1256.6865740999929,None,1256.6865740999929,None,1256.6865740999929,None,6,2.0185202000429854,1256.6865740999929,None,1258.7479616999626,None,1258.7479616999626,None,1259.269357699959,None,1259.269357699959,None,1259.269357699959,None,r,0.45166190003510565,1259.269357699959,None,sing39,001,2019_Nov_16_1348,ProdFawcett_Revision2019,3.2.3,59.9772086617207,
,,,,140,0,140,0,,,,,,,,,,,,,1263.18733049999,None,,,,,,,,,,,,,,,,,,,,,,universal,D_new,140,345,1260.2771365999943,None,1260.2771365999943,None,1260.2771365999943,None,6,1.9158746000030078,1260.2771365999943,None,1262.2449956999626,None,1262.2449956999626,None,1262.7764227999724,None,1262.7764227999724,None,1262.7764227999724,None,r,0.3685609999811277,1262.7764227999724,None,sing39,001,2019_Nov_16_1348,ProdFawcett_Revision2019,3.2.3,59.9772086617207,
,,,,141,0,141,0,,,,,,,,,,,,,1266.0364210999687,None,,,,,,,,,,,,,,,,,,,,,,bureau,C_sing,141,37,1263.7082738999743,None,1263.7082738999743,None,1263.7082738999743,None,6,1.4047122999909334,1263.7082738999743,None,1265.1677786999498,None,1265.1677786999498,None,1265.6889635999687,None,1265.6889635999687,None,1265.6889635999687,None,r,0.304039400012698,1265.6889635999687,None,sing39,001,2019_Nov_16_1348,ProdFawcett_Revision2019,3.2.3,59.9772086617207,
,,,,142,0,142,0,,,,,,,,,,,,,1270.8042752999463,None,,,,,,,,,,,,,,,,,,,,,,comfort,D_new,142,59,1266.5546363999601,None,1266.5546363999601,None,1266.5546363999601,None,5,2.230427500035148,1266.5546363999601,None,1268.8330734999618,None,1268.8330734999618,None,1269.3552060999791,None,1269.3552060999791,None,1269.3552060999791,None,f,1.405850899987854,1269.3552060999791,None,sing39,001,2019_Nov_16_1348,ProdFawcett_Revision2019,3.2.3,59.9772086617207,
,,,,143,0,143,0,,,,,,,,,,,,,1275.9549433999928,None,,,,,,,,,,,,,,,,,,,,,,device,C_sing,143,93,1271.325342899945,None,1271.325342899945,None,1271.325342899945,None,6,2.619689200015273,1271.325342899945,None,1273.9991737999953,None,1273.9991737999953,None,1274.5258912999998,None,1274.5258912999998,None,1274.5258912999998,None,r,1.395380900008604,1274.5258912999998,None,sing39,001,2019_Nov_16_1348,ProdFawcett_Revision2019,3.2.3,59.9772086617207,
,,,,144,0,144,0,,,,,,,,,,,,,1279.271470799984,None,,,,,,,,,,,,,,,,,,,,,,husband,D_new,144,156,1276.4782301999512,None,1276.4782301999512,None,1276.4782301999512,None,1,1.6907939999946393,1276.4782301999512,None,1278.2198040999938,None,1278.2198040999938,None,1278.742285699991,None,1278.742285699991,None,1278.742285699991,None,n,0.4907400000374764,1278.742285699991,None,sing39,001,2019_Nov_16_1348,ProdFawcett_Revision2019,3.2.3,59.9772086617207,
,,,,145,0,145,0,,,,,,,,,,,,,1283.855280299962,None,,,,,,,,,,,,,,,,,,,,,,beginning,D_new,145,19,1279.7916601999896,None,1279.7916601999896,None,1279.7916601999896,None,4,2.369412900006864,1279.7916601999896,None,1282.21914989996,None,1282.21914989996,None,1282.7461837999872,None,1282.7461837999872,None,1282.7461837999872,None,f,1.0708508999668993,1282.7461837999872,None,sing39,001,2019_Nov_16_1348,ProdFawcett_Revision2019,3.2.3,59.9772086617207,
,,,,146,0,146,0,,,,,,,,,,,,,1286.5384620999685,None,,,,,,,,,,,,,,,,,,,,,,chief,B_aloud,146,48,1284.3741346999886,None,1284.3741346999886,None,1284.3741346999886,None,6,1.162930199992843,1284.3741346999886,None,1285.58219809999,None,1285.58219809999,None,1286.1065055999788,None,1286.1065055999788,None,1286.1065055999788,None,r,0.3906814999645576,1286.1065055999788,None,sing39,001,2019_Nov_16_1348,ProdFawcett_Revision2019,3.2.3,59.9772086617207,
,,,,147,0,147,0,,,,,,,,,,,,,1290.6388649999863,None,,,,,,,,,,,,,,,,,,,,,,government,A_silent,147,139,1287.0631097999867,None,1287.0631097999867,None,1287.0631097999867,None,6,2.161739300005138,1287.0631097999867,None,1289.2696222999948,None,1289.2696222999948,None,1289.797989899991,None,1289.797989899991,None,1289.797989899991,None,r,0.811016500054393,1289.797989899991,None,sing39,001,2019_Nov_16_1348,ProdFawcett_Revision2019,3.2.3,59.9772086617207,
,,,,148,0,148,0,,,,,,,,,,,,,1293.9897611999768,None,,,,,,,,,,,,,,,,,,,,,,court,D_new,148,75,1291.1557879999746,None,1291.1557879999746,None,1291.1557879999746,None,6,1.6852486999705434,1291.1557879999746,None,1292.8824191999738,None,1292.8824191999738,None,1293.403018699959,None,1293.403018699959,None,1293.403018699959,None,r,0.5502647000248544,1293.403018699959,None,sing39,001,2019_Nov_16_1348,ProdFawcett_Revision2019,3.2.3,59.9772086617207,
,,,,149,0,149,0,,,,,,,,,,,,,1297.1899466999457,None,,,,,,,,,,,,,,,,,,,,,,council,C_sing,149,71,1294.5083519999753,None,1294.5083519999753,None,1294.5083519999753,None,6,1.4126355000189506,1294.5083519999753,None,1295.9740094999433,None,1295.9740094999433,None,1296.4877244999516,None,1296.4877244999516,None,1296.4877244999516,None,r,0.6653756000450812,1296.4877244999516,None,sing39,001,2019_Nov_16_1348,ProdFawcett_Revision2019,3.2.3,59.9772086617207,
,,,,150,0,150,0,,,,,,,,,,,,,1302.1563921999768,None,,,,,,,,,,,,,,,,,,,,,,count,D_new,150,72,1297.7073179999716,None,1297.7073179999716,None,1297.7073179999716,None,5,2.8217532000271603,1297.7073179999716,None,1300.5870948999655,None,1300.5870948999655,None,1301.1065508999745,None,1301.1065508999745,None,1301.1065508999745,None,f,1.0144326000008732,1301.1065508999745,None,sing39,001,2019_Nov_16_1348,ProdFawcett_Revision2019,3.2.3,59.9772086617207,
,,,,151,0,151,0,,,,,,,,,,,,,1305.9565284999553,None,,,,,,,,,,,,,,,,,,,,,,space,D_new,151,297,1302.6753706999589,None,1302.6753706999589,None,1302.6753706999589,None,1,2.0536226999829523,1302.6753706999589,None,1304.780280899955,None,1304.780280899955,None,1305.3033699999796,None,1305.3033699999796,None,1305.3033699999796,None,n,0.609666800010018,1305.3033699999796,None,sing39,001,2019_Nov_16_1348,ProdFawcett_Revision2019,3.2.3,59.9772086617207,
,,,,152,0,152,0,,,,,,,,,,,,,1309.257225499954,None,,,,,,,,,,,,,,,,,,,,,,burden,A_silent,152,36,1306.477299399965,None,1306.477299399965,None,1306.477299399965,None,1,1.7156342000234872,1306.477299399965,None,1308.2316992999986,None,1308.2316992999986,None,1308.7668598999735,None,1308.7668598999735,None,1308.7668598999735,None,n,0.4583248000126332,1308.7668598999735,None,sing39,001,2019_Nov_16_1348,ProdFawcett_Revision2019,3.2.3,59.9772086617207,
,,,,153,0,153,0,,,,,,,,,,,,,1311.9739245999954,None,,,,,,,,,,,,,,,,,,,,,,recall,D_new,153,255,1309.7769992999965,None,1309.7769992999965,None,1309.7769992999965,None,1,1.1763129000319168,1309.7769992999965,None,1310.9944850999746,None,1310.9944850999746,None,1311.5242219999782,None,1311.5242219999782,None,1311.5242219999782,None,n,0.41289190005045384,1311.5242219999782,None,sing39,001,2019_Nov_16_1348,ProdFawcett_Revision2019,3.2.3,59.9772086617207,
,,,,154,0,154,0,,,,,,,,,,,,,1314.8072163999896,None,,,,,,,,,,,,,,,,,,,,,,theme,D_new,154,326,1312.489879599947,None,1312.489879599947,None,1312.489879599947,None,1,1.319160200015176,1312.489879599947,None,1313.8514346999582,None,1313.8514346999582,None,1314.371031799994,None,1314.371031799994,None,1314.371031799994,None,n,0.40594919997965917,1314.371031799994,None,sing39,001,2019_Nov_16_1348,ProdFawcett_Revision2019,3.2.3,59.9772086617207,
