StudyTrials.thisRepN,StudyTrials.thisTrialN,StudyTrials.thisN,StudyTrials.thisIndex,TestTrials.thisRepN,TestTrials.thisTrialN,TestTrials.thisN,TestTrials.thisIndex,textWelcome.started,textWelcome.stopped,keyWelcome.keys,keyWelcome.rt,keyWelcome.started,keyWelcome.stopped,textReady.started,textReady.stopped,keyReady.keys,keyReady.rt,keyReady.started,keyReady.stopped,polyback_2.started,polyback_2.stopped,studyPic,studyWord,studyType,studyN,studyOrder,polyback_3.started,polyback_3.stopped,studyPicChoice.started,studyPicChoice.stopped,polyback_4.started,polyback_4.stopped,polyback.started,polyback.stopped,studyWords.started,studyWords.stopped,getResearcher.started,getResearcher.stopped,kPress2.keys,kPress2.rt,kPress2.started,kPress2.stopped,testWord,testType,testN,testOrder,polyback_5.started,polyback_5.stopped,testWords.started,testWords.stopped,textScale.started,textScale.stopped,keyConf.keys,keyConf.rt,keyConf.started,keyConf.stopped,polyback_6.started,polyback_6.stopped,studyWords_2.started,studyWords_2.stopped,polyback_7.started,polyback_7.stopped,testWords_2.started,testWords_2.stopped,textScale_2.started,textScale_2.stopped,keyRKN.keys,keyRKN.rt,keyRKN.started,keyRKN.stopped,participant,session,date,expName,psychopyVersion,frameRate,
,,,,,,,,24.003201768980944,None,space,233.78149411739105,24.003201768980944,None,,,,,,,,,,,,,,,,,,,,,,,,,,,,,,,,,,,,,,,,,,,,,,,,,,,,,,,,,,sing42,001,2019_Nov_18_1450,ProdFawcett_Revision2019,3.2.4,59.95051683236893,
,,,,,,,,,,,,,,257.80718290979985,None,space,4.457113089777067,257.80718290979985,None,,,,,,,,,,,,,,,,,,,,,,,,,,,,,,,,,,,,,,,,,,,,,,,,,,,,sing42,001,2019_Nov_18_1450,ProdFawcett_Revision2019,3.2.4,59.95051683236893,
0,0,0,0,,,,,,,,,,,,,,,,,267.0600809850066,None,materials/readPic.jpg,music,A_silent,0,196,263.4090249765968,None,263.4090249765968,None,264.31102876460545,None,264.55915326505783,None,264.55915326505783,None,,,,,,,,,,,,,,,,,,,,,,,,,,,,,,,,,,,sing42,001,2019_Nov_18_1450,ProdFawcett_Revision2019,3.2.4,59.95051683236893,
1,0,1,0,,,,,,,,,,,,,,,,,271.32834133127653,None,materials/singPic.jpg,stand,C_sing,1,302,267.71494863796534,None,267.71494863796534,None,268.57726572972024,None,268.8438283142741,None,268.8438283142741,None,,,,,,,,,,,,,,,,,,,,,,,,,,,,,,,,,,,sing42,001,2019_Nov_18_1450,ProdFawcett_Revision2019,3.2.4,59.95051683236893,
2,0,2,0,,,,,,,,,,,,,,,,,275.5959737638432,None,materials/singPic.jpg,recall,C_sing,2,255,271.91456952612543,None,271.91456952612543,None,272.84531646042024,None,273.11217138716347,None,273.11217138716347,None,,,,,,,,,,,,,,,,,,,,,,,,,,,,,,,,,,,sing42,001,2019_Nov_18_1450,ProdFawcett_Revision2019,3.2.4,59.95051683236893,
3,0,3,0,,,,,,,,,,,,,,,,,279.8639700691356,None,materials/readPic.jpg,length,A_silent,3,169,276.21390180412436,None,276.21390180412436,None,277.1131933408178,None,277.36310641566706,None,277.36310641566706,None,,,,,,,,,,,,,,,,,,,,,,,,,,,,,,,,,,,sing42,001,2019_Nov_18_1450,ProdFawcett_Revision2019,3.2.4,59.95051683236893,
4,0,4,0,,,,,,,,,,,,,,,,,284.1152499992222,None,materials/singPic.jpg,smooth,C_sing,4,292,280.4819631089035,None,280.4819631089035,None,281.3823167185519,None,281.64775254166625,None,281.64775254166625,None,,,,,,,,,,,,,,,,,,,,,,,,,,,,,,,,,,,sing42,001,2019_Nov_18_1450,ProdFawcett_Revision2019,3.2.4,59.95051683236893,
5,0,5,0,,,,,,,,,,,,,,,,,288.3832080512284,None,materials/speakPic.jpg,phrase,B_aloud,5,220,284.75044022379734,None,284.75044022379734,None,285.6322873288318,None,285.89899421846667,None,285.89899421846667,None,,,,,,,,,,,,,,,,,,,,,,,,,,,,,,,,,,,sing42,001,2019_Nov_18_1450,ProdFawcett_Revision2019,3.2.4,59.95051683236893,
6,0,6,0,,,,,,,,,,,,,,,,,292.6511710792711,None,materials/readPic.jpg,crisis,A_silent,6,79,288.9746610852112,None,288.9746610852112,None,289.90051501985727,None,290.1669740406355,None,290.1669740406355,None,,,,,,,,,,,,,,,,,,,,,,,,,,,,,,,,,,,sing42,001,2019_Nov_18_1450,ProdFawcett_Revision2019,3.2.4,59.95051683236893,
7,0,7,0,,,,,,,,,,,,,,,,,296.9191729826057,None,materials/singPic.jpg,volume,C_sing,7,349,293.2539047897467,None,293.2539047897467,None,294.1682976665493,None,294.4349277386086,None,294.4349277386086,None,,,,,,,,,,,,,,,,,,,,,,,,,,,,,,,,,,,sing42,001,2019_Nov_18_1450,ProdFawcett_Revision2019,3.2.4,59.95051683236893,
8,0,8,0,,,,,,,,,,,,,,,,,301.18715684780454,None,materials/speakPic.jpg,income,B_aloud,8,159,297.52063065052334,None,297.52063065052334,None,298.4368506660112,None,298.70292000087056,None,298.70292000087056,None,,,,,,,,,,,,,,,,,,,,,,,,,,,,,,,,,,,sing42,001,2019_Nov_18_1450,ProdFawcett_Revision2019,3.2.4,59.95051683236893,
9,0,9,0,,,,,,,,,,,,,,,,,305.45521504256067,None,materials/speakPic.jpg,review,B_aloud,9,263,301.770295856516,None,301.770295856516,None,302.704267573964,None,302.97120647133625,None,302.97120647133625,None,,,,,,,,,,,,,,,,,,,,,,,,,,,,,,,,,,,sing42,001,2019_Nov_18_1450,ProdFawcett_Revision2019,3.2.4,59.95051683236893,
10,0,10,0,,,,,,,,,,,,,,,,,309.7233335717683,None,materials/readPic.jpg,alert,A_silent,10,6,306.07301059584915,None,306.07301059584915,None,306.97229777851044,None,307.2387518232513,None,307.2387518232513,None,,,,,,,,,,,,,,,,,,,,,,,,,,,,,,,,,,,sing42,001,2019_Nov_18_1450,ProdFawcett_Revision2019,3.2.4,59.95051683236893,
11,0,11,0,,,,,,,,,,,,,,,,,313.9910748551506,None,materials/singPic.jpg,public,C_sing,11,244,310.32457727008386,None,310.32457727008386,None,311.2405739858991,None,311.5068815485429,None,311.5068815485429,None,,,,,,,,,,,,,,,,,,,,,,,,,,,,,,,,,,,sing42,001,2019_Nov_18_1450,ProdFawcett_Revision2019,3.2.4,59.95051683236893,
12,0,12,0,,,,,,,,,,,,,,,,,318.25907209344996,None,materials/singPic.jpg,welcome,C_sing,12,354,314.58316699892066,None,314.58316699892066,None,315.50813333291853,None,315.7748423995695,None,315.7748423995695,None,,,,,,,,,,,,,,,,,,,,,,,,,,,,,,,,,,,sing42,001,2019_Nov_18_1450,ProdFawcett_Revision2019,3.2.4,59.95051683236893,
13,0,13,0,,,,,,,,,,,,,,,,,322.5270301454557,None,materials/singPic.jpg,taste,C_sing,13,322,318.8255416883071,None,318.8255416883071,None,319.77625559415446,None,320.04285456598063,None,320.04285456598063,None,,,,,,,,,,,,,,,,,,,,,,,,,,,,,,,,,,,sing42,001,2019_Nov_18_1450,ProdFawcett_Revision2019,3.2.4,59.95051683236893,
14,0,14,0,,,,,,,,,,,,,,,,,326.7953159939166,None,materials/singPic.jpg,equipment,C_sing,14,116,323.11015111603183,None,323.11015111603183,None,324.0442484784212,None,324.31267116790696,None,324.31267116790696,None,,,,,,,,,,,,,,,,,,,,,,,,,,,,,,,,,,,sing42,001,2019_Nov_18_1450,ProdFawcett_Revision2019,3.2.4,59.95051683236893,
15,0,15,0,,,,,,,,,,,,,,,,,331.06296553161155,None,materials/speakPic.jpg,engineer,B_aloud,15,114,327.4194619037694,None,327.4194619037694,None,328.3121297128514,None,328.5639038256395,None,328.5639038256395,None,,,,,,,,,,,,,,,,,,,,,,,,,,,,,,,,,,,sing42,001,2019_Nov_18_1450,ProdFawcett_Revision2019,3.2.4,59.95051683236893,
16,0,16,0,,,,,,,,,,,,,,,,,335.3309453537804,None,materials/singPic.jpg,beauty,C_sing,16,18,331.65384072326697,None,331.65384072326697,None,332.5819491137986,None,332.8467551571962,None,332.8467551571962,None,,,,,,,,,,,,,,,,,,,,,,,,,,,,,,,,,,,sing42,001,2019_Nov_18_1450,ProdFawcett_Revision2019,3.2.4,59.95051683236893,
17,0,17,0,,,,,,,,,,,,,,,,,339.5989733813103,None,materials/speakPic.jpg,murder,B_aloud,17,195,335.9055367744704,None,335.9055367744704,None,336.84805421392593,None,337.1148369881289,None,337.1148369881289,None,,,,,,,,,,,,,,,,,,,,,,,,,,,,,,,,,,,sing42,001,2019_Nov_18_1450,ProdFawcett_Revision2019,3.2.4,59.95051683236893,
18,0,18,0,,,,,,,,,,,,,,,,,343.8668900700063,None,materials/singPic.jpg,employment,C_sing,18,111,340.1835019484297,None,340.1835019484297,None,341.1173533079764,None,341.3826843233055,None,341.3826843233055,None,,,,,,,,,,,,,,,,,,,,,,,,,,,,,,,,,,,sing42,001,2019_Nov_18_1450,ProdFawcett_Revision2019,3.2.4,59.95051683236893,
19,0,19,0,,,,,,,,,,,,,,,,,348.13479462961186,None,materials/readPic.jpg,discussion,A_silent,19,96,344.47396972703336,None,344.47396972703336,None,345.38401323625885,None,345.64044647494393,None,345.64044647494393,None,,,,,,,,,,,,,,,,,,,,,,,,,,,,,,,,,,,sing42,001,2019_Nov_18_1450,ProdFawcett_Revision2019,3.2.4,59.95051683236893,
20,0,20,0,,,,,,,,,,,,,,,,,352.40280213098777,None,materials/singPic.jpg,emergency,C_sing,20,110,348.74294506765864,None,348.74294506765864,None,349.65204903884705,None,349.9186865749625,None,349.9186865749625,None,,,,,,,,,,,,,,,,,,,,,,,,,,,,,,,,,,,sing42,001,2019_Nov_18_1450,ProdFawcett_Revision2019,3.2.4,59.95051683236893,
21,0,21,0,,,,,,,,,,,,,,,,,356.67080185730583,None,materials/speakPic.jpg,sweet,B_aloud,21,319,352.9907156474601,None,352.9907156474601,None,353.92077153457876,None,354.1866402729356,None,354.1866402729356,None,,,,,,,,,,,,,,,,,,,,,,,,,,,,,,,,,,,sing42,001,2019_Nov_18_1450,ProdFawcett_Revision2019,3.2.4,59.95051683236893,
22,0,22,0,,,,,,,,,,,,,,,,,360.93919562357496,None,materials/speakPic.jpg,attack,B_aloud,22,13,357.2386115612003,None,357.2386115612003,None,358.1879166264953,None,358.4547189938453,None,358.4547189938453,None,,,,,,,,,,,,,,,,,,,,,,,,,,,,,,,,,,,sing42,001,2019_Nov_18_1450,ProdFawcett_Revision2019,3.2.4,59.95051683236893,
23,0,23,0,,,,,,,,,,,,,,,,,365.20678420481363,None,materials/speakPic.jpg,report,B_aloud,23,259,361.5223871916801,None,361.5223871916801,None,362.45592599388556,None,362.7079398894698,None,362.7079398894698,None,,,,,,,,,,,,,,,,,,,,,,,,,,,,,,,,,,,sing42,001,2019_Nov_18_1450,ProdFawcett_Revision2019,3.2.4,59.95051683236893,
24,0,24,0,,,,,,,,,,,,,,,,,369.47495715942887,None,materials/readPic.jpg,route,A_silent,24,267,365.8080331901683,None,365.8080331901683,None,366.7239235431871,None,366.99062079174973,None,366.99062079174973,None,,,,,,,,,,,,,,,,,,,,,,,,,,,,,,,,,,,sing42,001,2019_Nov_18_1450,ProdFawcett_Revision2019,3.2.4,59.95051683236893,
25,0,25,0,,,,,,,,,,,,,,,,,373.7428390158643,None,materials/singPic.jpg,beginning,C_sing,25,19,370.0595059416996,None,370.0595059416996,None,370.9920535794813,None,371.258521619327,None,371.258521619327,None,,,,,,,,,,,,,,,,,,,,,,,,,,,,,,,,,,,sing42,001,2019_Nov_18_1450,ProdFawcett_Revision2019,3.2.4,59.95051683236893,
26,0,26,0,,,,,,,,,,,,,,,,,378.01066955691476,None,materials/speakPic.jpg,judge,B_aloud,26,166,374.34432405198686,None,374.34432405198686,None,375.25989438360875,None,375.5265801250848,None,375.5265801250848,None,,,,,,,,,,,,,,,,,,,,,,,,,,,,,,,,,,,sing42,001,2019_Nov_18_1450,ProdFawcett_Revision2019,3.2.4,59.95051683236893,
27,0,27,0,,,,,,,,,,,,,,,,,382.2789529173574,None,materials/singPic.jpg,expansion,C_sing,27,123,378.6202384765861,None,378.6202384765861,None,379.5276692552425,None,379.7945773633842,None,379.7945773633842,None,,,,,,,,,,,,,,,,,,,,,,,,,,,,,,,,,,,sing42,001,2019_Nov_18_1450,ProdFawcett_Revision2019,3.2.4,59.95051683236893,
28,0,28,0,,,,,,,,,,,,,,,,,386.54665252642735,None,materials/speakPic.jpg,degree,B_aloud,28,89,382.868816418435,None,382.868816418435,None,383.7959280465011,None,384.04563617081476,None,384.04563617081476,None,,,,,,,,,,,,,,,,,,,,,,,,,,,,,,,,,,,sing42,001,2019_Nov_18_1450,ProdFawcett_Revision2019,3.2.4,59.95051683236893,
29,0,29,0,,,,,,,,,,,,,,,,,390.8146003153561,None,materials/readPic.jpg,finish,A_silent,29,130,387.11903862959934,None,387.11903862959934,None,388.0642928895536,None,388.3304032767205,None,388.3304032767205,None,,,,,,,,,,,,,,,,,,,,,,,,,,,,,,,,,,,sing42,001,2019_Nov_18_1450,ProdFawcett_Revision2019,3.2.4,59.95051683236893,
30,0,30,0,,,,,,,,,,,,,,,,,395.0829505412994,None,materials/speakPic.jpg,under,B_aloud,30,343,391.41584339166684,None,391.41584339166684,None,392.3317838160606,None,392.588579994464,None,392.588579994464,None,,,,,,,,,,,,,,,,,,,,,,,,,,,,,,,,,,,sing42,001,2019_Nov_18_1450,ProdFawcett_Revision2019,3.2.4,59.95051683236893,
31,0,31,0,,,,,,,,,,,,,,,,,399.3505481416055,None,materials/singPic.jpg,health,C_sing,31,149,395.6921288420449,None,395.6921288420449,None,396.59973129398713,None,396.8666104789122,None,396.8666104789122,None,,,,,,,,,,,,,,,,,,,,,,,,,,,,,,,,,,,sing42,001,2019_Nov_18_1450,ProdFawcett_Revision2019,3.2.4,59.95051683236893,
32,0,32,0,,,,,,,,,,,,,,,,,403.61853107379784,None,materials/readPic.jpg,personnel,A_silent,32,219,399.9188669563132,None,399.9188669563132,None,400.86846591880976,None,401.134389704579,None,401.134389704579,None,,,,,,,,,,,,,,,,,,,,,,,,,,,,,,,,,,,sing42,001,2019_Nov_18_1450,ProdFawcett_Revision2019,3.2.4,59.95051683236893,
33,0,33,0,,,,,,,,,,,,,,,,,407.8865398191833,None,materials/readPic.jpg,waste,A_silent,33,350,404.19129535580214,None,404.19129535580214,None,405.13555751832564,None,405.4023381155125,None,405.4023381155125,None,,,,,,,,,,,,,,,,,,,,,,,,,,,,,,,,,,,sing42,001,2019_Nov_18_1450,ProdFawcett_Revision2019,3.2.4,59.95051683236893,
34,0,34,0,,,,,,,,,,,,,,,,,412.15449476116555,None,materials/singPic.jpg,suggestion,C_sing,34,314,408.5090010294175,None,408.5090010294175,None,409.4038548738731,None,409.65840157242746,None,409.65840157242746,None,,,,,,,,,,,,,,,,,,,,,,,,,,,,,,,,,,,sing42,001,2019_Nov_18_1450,ProdFawcett_Revision2019,3.2.4,59.95051683236893,
35,0,35,0,,,,,,,,,,,,,,,,,416.42263412752936,None,materials/readPic.jpg,household,A_silent,35,154,412.73935889979794,None,412.73935889979794,None,413.67248158088705,None,413.9382952718315,None,413.9382952718315,None,,,,,,,,,,,,,,,,,,,,,,,,,,,,,,,,,,,sing42,001,2019_Nov_18_1450,ProdFawcett_Revision2019,3.2.4,59.95051683236893,
36,0,36,0,,,,,,,,,,,,,,,,,420.69045440550326,None,materials/singPic.jpg,worker,C_sing,36,356,417.0294702697324,None,417.0294702697324,None,417.9396220077688,None,418.2064427242558,None,418.2064427242558,None,,,,,,,,,,,,,,,,,,,,,,,,,,,,,,,,,,,sing42,001,2019_Nov_18_1450,ProdFawcett_Revision2019,3.2.4,59.95051683236893,
37,0,37,0,,,,,,,,,,,,,,,,,424.95843142865124,None,materials/singPic.jpg,express,C_sing,37,124,421.2788493535818,None,421.2788493535818,None,422.2079943148774,None,422.4742483851205,None,422.4742483851205,None,,,,,,,,,,,,,,,,,,,,,,,,,,,,,,,,,,,sing42,001,2019_Nov_18_1450,ProdFawcett_Revision2019,3.2.4,59.95051683236893,
38,0,38,0,,,,,,,,,,,,,,,,,429.2262355345042,None,materials/speakPic.jpg,sleep,B_aloud,38,290,425.55975971960015,None,425.55975971960015,None,426.47554961886635,None,426.742250910459,None,426.742250910459,None,,,,,,,,,,,,,,,,,,,,,,,,,,,,,,,,,,,sing42,001,2019_Nov_18_1450,ProdFawcett_Revision2019,3.2.4,59.95051683236893,
39,0,39,0,,,,,,,,,,,,,,,,,433.49432700650914,None,materials/readPic.jpg,angle,A_silent,39,7,429.7942190887011,None,429.7942190887011,None,430.74351731194474,None,431.01017164218547,None,431.01017164218547,None,,,,,,,,,,,,,,,,,,,,,,,,,,,,,,,,,,,sing42,001,2019_Nov_18_1450,ProdFawcett_Revision2019,3.2.4,59.95051683236893,
40,0,40,0,,,,,,,,,,,,,,,,,437.762425631568,None,materials/singPic.jpg,finance,C_sing,40,129,434.09866580000653,None,434.09866580000653,None,435.011570530663,None,435.26191154471735,None,435.26191154471735,None,,,,,,,,,,,,,,,,,,,,,,,,,,,,,,,,,,,sing42,001,2019_Nov_18_1450,ProdFawcett_Revision2019,3.2.4,59.95051683236893,
41,0,41,0,,,,,,,,,,,,,,,,,442.0308557851099,None,materials/speakPic.jpg,quick,B_aloud,41,248,438.34707517859306,None,438.34707517859306,None,439.2796333904539,None,439.52934773481456,None,439.52934773481456,None,,,,,,,,,,,,,,,,,,,,,,,,,,,,,,,,,,,sing42,001,2019_Nov_18_1450,ProdFawcett_Revision2019,3.2.4,59.95051683236893,
42,0,42,0,,,,,,,,,,,,,,,,,446.2985700112895,None,materials/readPic.jpg,space,A_silent,42,297,442.63136831694874,None,442.63136831694874,None,443.5476079255832,None,443.8141347448691,None,443.8141347448691,None,,,,,,,,,,,,,,,,,,,,,,,,,,,,,,,,,,,sing42,001,2019_Nov_18_1450,ProdFawcett_Revision2019,3.2.4,59.95051683236893,
43,0,43,0,,,,,,,,,,,,,,,,,450.5662677543455,None,materials/readPic.jpg,dispute,A_silent,43,99,446.87381795789634,None,446.87381795789634,None,447.8154589927876,None,448.0820688496956,None,448.0820688496956,None,,,,,,,,,,,,,,,,,,,,,,,,,,,,,,,,,,,sing42,001,2019_Nov_18_1450,ProdFawcett_Revision2019,3.2.4,59.95051683236893,
44,0,44,0,,,,,,,,,,,,,,,,,454.83425566257483,None,materials/readPic.jpg,brilliant,A_silent,44,30,451.1162470726904,None,451.1162470726904,None,452.08398462404466,None,452.35008350412545,None,452.35008350412545,None,,,,,,,,,,,,,,,,,,,,,,,,,,,,,,,,,,,sing42,001,2019_Nov_18_1450,ProdFawcett_Revision2019,3.2.4,59.95051683236893,
45,0,45,0,,,,,,,,,,,,,,,,,459.10218385835697,None,materials/readPic.jpg,primary,A_silent,45,234,455.41811339766946,None,455.41811339766946,None,456.35166401796323,None,456.6014800600856,None,456.6014800600856,None,,,,,,,,,,,,,,,,,,,,,,,,,,,,,,,,,,,sing42,001,2019_Nov_18_1450,ProdFawcett_Revision2019,3.2.4,59.95051683236893,
46,0,46,0,,,,,,,,,,,,,,,,,463.37022805800825,None,materials/readPic.jpg,device,A_silent,46,93,459.6402704476254,None,459.6402704476254,None,460.61941867444557,None,460.886046880491,None,460.886046880491,None,,,,,,,,,,,,,,,,,,,,,,,,,,,,,,,,,,,sing42,001,2019_Nov_18_1450,ProdFawcett_Revision2019,3.2.4,59.95051683236893,
47,0,47,0,,,,,,,,,,,,,,,,,467.6382100571932,None,materials/readPic.jpg,capital,A_silent,47,40,463.9412261577836,None,463.9412261577836,None,464.8874616300877,None,465.1539987124502,None,465.1539987124502,None,,,,,,,,,,,,,,,,,,,,,,,,,,,,,,,,,,,sing42,001,2019_Nov_18_1450,ProdFawcett_Revision2019,3.2.4,59.95051683236893,
48,0,48,0,,,,,,,,,,,,,,,,,471.9061398079871,None,materials/readPic.jpg,charter,A_silent,48,47,468.22130832459925,None,468.22130832459925,None,469.15525329584716,None,469.4219838216586,None,469.4219838216586,None,,,,,,,,,,,,,,,,,,,,,,,,,,,,,,,,,,,sing42,001,2019_Nov_18_1450,ProdFawcett_Revision2019,3.2.4,59.95051683236893,
49,0,49,0,,,,,,,,,,,,,,,,,476.1741550844213,None,materials/readPic.jpg,split,A_silent,49,299,472.4893173809869,None,472.4893173809869,None,473.42323622803906,None,473.673156766944,None,473.673156766944,None,,,,,,,,,,,,,,,,,,,,,,,,,,,,,,,,,,,sing42,001,2019_Nov_18_1450,ProdFawcett_Revision2019,3.2.4,59.95051683236893,
50,0,50,0,,,,,,,,,,,,,,,,,480.4425221044903,None,materials/readPic.jpg,style,A_silent,50,311,476.74546729655003,None,476.74546729655003,None,477.6911578927725,None,477.95790583471444,None,477.95790583471444,None,,,,,,,,,,,,,,,,,,,,,,,,,,,,,,,,,,,sing42,001,2019_Nov_18_1450,ProdFawcett_Revision2019,3.2.4,59.95051683236893,
51,0,51,0,,,,,,,,,,,,,,,,,484.70990884521734,None,materials/speakPic.jpg,people,B_aloud,51,216,481.0446860586985,None,481.0446860586985,None,481.9592698909314,None,482.2259677614984,None,482.2259677614984,None,,,,,,,,,,,,,,,,,,,,,,,,,,,,,,,,,,,sing42,001,2019_Nov_18_1450,ProdFawcett_Revision2019,3.2.4,59.95051683236893,
52,0,52,0,,,,,,,,,,,,,,,,,488.9780391925133,None,materials/speakPic.jpg,payment,B_aloud,52,215,485.2600296696223,None,485.2600296696223,None,486.22822097337485,None,486.4938514839473,None,486.4938514839473,None,,,,,,,,,,,,,,,,,,,,,,,,,,,,,,,,,,,sing42,001,2019_Nov_18_1450,ProdFawcett_Revision2019,3.2.4,59.95051683236893,
53,0,53,0,,,,,,,,,,,,,,,,,493.2463552082004,None,materials/readPic.jpg,suspect,A_silent,53,318,489.57896255842934,None,489.57896255842934,None,490.4950958042673,None,490.7618782674681,None,490.7618782674681,None,,,,,,,,,,,,,,,,,,,,,,,,,,,,,,,,,,,sing42,001,2019_Nov_18_1450,ProdFawcett_Revision2019,3.2.4,59.95051683236893,
54,0,54,0,,,,,,,,,,,,,,,,,497.514286514006,None,materials/singPic.jpg,education,C_sing,54,108,493.85503186218875,None,493.85503186218875,None,494.7633891167843,None,495.03005682012554,None,495.03005682012554,None,,,,,,,,,,,,,,,,,,,,,,,,,,,,,,,,,,,sing42,001,2019_Nov_18_1450,ProdFawcett_Revision2019,3.2.4,59.95051683236893,
55,0,55,0,,,,,,,,,,,,,,,,,501.78207755776066,None,materials/speakPic.jpg,write,B_aloud,55,358,498.11573049782146,None,498.11573049782146,None,499.03167714226174,None,499.2979156623883,None,499.2979156623883,None,,,,,,,,,,,,,,,,,,,,,,,,,,,,,,,,,,,sing42,001,2019_Nov_18_1450,ProdFawcett_Revision2019,3.2.4,59.95051683236893,
56,0,56,0,,,,,,,,,,,,,,,,,506.04998305037316,None,materials/speakPic.jpg,population,B_aloud,56,227,502.36514130390833,None,502.36514130390833,None,503.29921440811586,None,503.5657875667489,None,503.5657875667489,None,,,,,,,,,,,,,,,,,,,,,,,,,,,,,,,,,,,sing42,001,2019_Nov_18_1450,ProdFawcett_Revision2019,3.2.4,59.95051683236893,
57,0,57,0,,,,,,,,,,,,,,,,,510.31794265739063,None,materials/singPic.jpg,trail,C_sing,57,336,506.7028602884234,None,506.7028602884234,None,507.56722812953876,None,507.82121315788663,None,507.82121315788663,None,,,,,,,,,,,,,,,,,,,,,,,,,,,,,,,,,,,sing42,001,2019_Nov_18_1450,ProdFawcett_Revision2019,3.2.4,59.95051683236893,
58,0,58,0,,,,,,,,,,,,,,,,,514.5858602790936,None,materials/readPic.jpg,growth,A_silent,58,144,510.91943888959713,None,510.91943888959713,None,511.83509039282717,None,512.10171828787,None,512.10171828787,None,,,,,,,,,,,,,,,,,,,,,,,,,,,,,,,,,,,sing42,001,2019_Nov_18_1450,ProdFawcett_Revision2019,3.2.4,59.95051683236893,
59,0,59,0,,,,,,,,,,,,,,,,,518.8538895506326,None,materials/singPic.jpg,science,C_sing,59,275,515.170446070641,None,515.170446070641,None,516.1030611959281,None,516.3695422978717,None,516.3695422978717,None,,,,,,,,,,,,,,,,,,,,,,,,,,,,,,,,,,,sing42,001,2019_Nov_18_1450,ProdFawcett_Revision2019,3.2.4,59.95051683236893,
60,0,60,0,,,,,,,,,,,,,,,,,523.1221865951775,None,materials/speakPic.jpg,grade,B_aloud,60,140,519.4389312715953,None,519.4389312715953,None,520.3711405388426,None,520.6376760661938,None,520.6376760661938,None,,,,,,,,,,,,,,,,,,,,,,,,,,,,,,,,,,,sing42,001,2019_Nov_18_1450,ProdFawcett_Revision2019,3.2.4,59.95051683236893,
61,0,61,0,,,,,,,,,,,,,,,,,527.3898420419168,None,materials/speakPic.jpg,budget,B_aloud,61,34,523.6939441626419,None,523.6939441626419,None,524.6392886132717,None,524.9058375137229,None,524.9058375137229,None,,,,,,,,,,,,,,,,,,,,,,,,,,,,,,,,,,,sing42,001,2019_Nov_18_1450,ProdFawcett_Revision2019,3.2.4,59.95051683236893,
62,0,62,0,,,,,,,,,,,,,,,,,531.6578131560204,None,materials/readPic.jpg,month,A_silent,62,193,527.9963839759157,None,527.9963839759157,None,528.9069928873764,None,529.1736111413475,None,529.1736111413475,None,,,,,,,,,,,,,,,,,,,,,,,,,,,,,,,,,,,sing42,001,2019_Nov_18_1450,ProdFawcett_Revision2019,3.2.4,59.95051683236893,
63,0,63,0,,,,,,,,,,,,,,,,,535.9258813028509,None,materials/speakPic.jpg,rough,B_aloud,63,266,532.2589819027744,None,532.2589819027744,None,533.175006919802,None,533.4416164657073,None,533.4416164657073,None,,,,,,,,,,,,,,,,,,,,,,,,,,,,,,,,,,,sing42,001,2019_Nov_18_1450,ProdFawcett_Revision2019,3.2.4,59.95051683236893,
64,0,64,0,,,,,,,,,,,,,,,,,540.1938017235748,None,materials/speakPic.jpg,goose,B_aloud,64,138,536.4641604025614,None,536.4641604025614,None,537.4429637277981,None,537.7095987758948,None,537.7095987758948,None,,,,,,,,,,,,,,,,,,,,,,,,,,,,,,,,,,,sing42,001,2019_Nov_18_1450,ProdFawcett_Revision2019,3.2.4,59.95051683236893,
65,0,65,0,,,,,,,,,,,,,,,,,544.4617647516179,None,materials/speakPic.jpg,danger,B_aloud,65,85,540.7602106729778,None,540.7602106729778,None,541.7107370444205,None,541.9775540288797,None,541.9775540288797,None,,,,,,,,,,,,,,,,,,,,,,,,,,,,,,,,,,,sing42,001,2019_Nov_18_1450,ProdFawcett_Revision2019,3.2.4,59.95051683236893,
66,0,66,0,,,,,,,,,,,,,,,,,548.7296584261417,None,materials/readPic.jpg,bright,A_silent,66,29,545.0712481456485,None,545.0712481456485,None,545.9789896156321,None,546.2455105258737,None,546.2455105258737,None,,,,,,,,,,,,,,,,,,,,,,,,,,,,,,,,,,,sing42,001,2019_Nov_18_1450,ProdFawcett_Revision2019,3.2.4,59.95051683236893,
67,0,67,0,,,,,,,,,,,,,,,,,552.9977054248134,None,materials/readPic.jpg,balance,A_silent,67,17,549.3129548020315,None,549.3129548020315,None,550.2470313272647,None,550.5005868613953,None,550.5005868613953,None,,,,,,,,,,,,,,,,,,,,,,,,,,,,,,,,,,,sing42,001,2019_Nov_18_1450,ProdFawcett_Revision2019,3.2.4,59.95051683236893,
68,0,68,0,,,,,,,,,,,,,,,,,557.2658077819001,None,materials/speakPic.jpg,shape,B_aloud,68,282,553.5872775167086,None,553.5872775167086,None,554.5156589672856,None,554.7814487110509,None,554.7814487110509,None,,,,,,,,,,,,,,,,,,,,,,,,,,,,,,,,,,,sing42,001,2019_Nov_18_1450,ProdFawcett_Revision2019,3.2.4,59.95051683236893,
69,0,69,0,,,,,,,,,,,,,,,,,561.5336209068205,None,materials/readPic.jpg,estate,A_silent,69,119,557.866790238259,None,557.866790238259,None,558.7828811877798,None,559.049674536062,None,559.049674536062,None,,,,,,,,,,,,,,,,,,,,,,,,,,,,,,,,,,,sing42,001,2019_Nov_18_1450,ProdFawcett_Revision2019,3.2.4,59.95051683236893,
70,0,70,0,,,,,,,,,,,,,,,,,565.8016215661455,None,materials/readPic.jpg,stranger,A_silent,70,309,562.0834574750966,None,562.0834574750966,None,563.0508818471048,None,563.3173956042929,None,563.3173956042929,None,,,,,,,,,,,,,,,,,,,,,,,,,,,,,,,,,,,sing42,001,2019_Nov_18_1450,ProdFawcett_Revision2019,3.2.4,59.95051683236893,
71,0,71,0,,,,,,,,,,,,,,,,,570.0695765081277,None,materials/singPic.jpg,guest,C_sing,71,146,566.454224189139,None,566.454224189139,None,567.3207889507094,None,567.5854024836644,None,567.5854024836644,None,,,,,,,,,,,,,,,,,,,,,,,,,,,,,,,,,,,sing42,001,2019_Nov_18_1450,ProdFawcett_Revision2019,3.2.4,59.95051683236893,
72,0,72,0,,,,,,,,,,,,,,,,,574.3375445122083,None,materials/singPic.jpg,little,C_sing,72,174,570.6551310719315,None,570.6551310719315,None,571.5868629506035,None,571.8533533826167,None,571.8533533826167,None,,,,,,,,,,,,,,,,,,,,,,,,,,,,,,,,,,,sing42,001,2019_Nov_18_1450,ProdFawcett_Revision2019,3.2.4,59.95051683236893,
73,0,73,0,,,,,,,,,,,,,,,,,578.605598663934,None,materials/singPic.jpg,victory,C_sing,73,346,574.9211294982597,None,574.9211294982597,None,575.8548922221426,None,576.1216040878144,None,576.1216040878144,None,,,,,,,,,,,,,,,,,,,,,,,,,,,,,,,,,,,sing42,001,2019_Nov_18_1450,ProdFawcett_Revision2019,3.2.4,59.95051683236893,
74,0,74,0,,,,,,,,,,,,,,,,,582.8736095863355,None,materials/singPic.jpg,colonel,C_sing,74,55,579.1919901350061,None,579.1919901350061,None,580.122777188601,None,580.3893223570244,None,580.3893223570244,None,,,,,,,,,,,,,,,,,,,,,,,,,,,,,,,,,,,sing42,001,2019_Nov_18_1450,ProdFawcett_Revision2019,3.2.4,59.95051683236893,
75,0,75,0,,,,,,,,,,,,,,,,,587.1415667053348,None,materials/singPic.jpg,industry,C_sing,75,161,583.4570023729475,None,583.4570023729475,None,584.3907629198143,None,584.6412286458026,None,584.6412286458026,None,,,,,,,,,,,,,,,,,,,,,,,,,,,,,,,,,,,sing42,001,2019_Nov_18_1450,ProdFawcett_Revision2019,3.2.4,59.95051683236893,
76,0,76,0,,,,,,,,,,,,,,,,,591.4094749969677,None,materials/singPic.jpg,strength,C_sing,76,310,587.7246335615055,None,587.7246335615055,None,588.6586223840814,None,588.9252564991712,None,588.9252564991712,None,,,,,,,,,,,,,,,,,,,,,,,,,,,,,,,,,,,sing42,001,2019_Nov_18_1450,ProdFawcett_Revision2019,3.2.4,59.95051683236893,
77,0,77,0,,,,,,,,,,,,,,,,,595.6774461110713,None,materials/speakPic.jpg,audience,B_aloud,77,14,592.0277224366409,None,592.0277224366409,None,592.927038853521,None,593.177022836901,None,593.177022836901,None,,,,,,,,,,,,,,,,,,,,,,,,,,,,,,,,,,,sing42,001,2019_Nov_18_1450,ProdFawcett_Revision2019,3.2.4,59.95051683236893,
78,0,78,0,,,,,,,,,,,,,,,,,599.9454601434963,None,materials/speakPic.jpg,owner,B_aloud,78,208,596.2438842946931,None,596.2438842946931,None,597.1956313502787,None,597.4612229855602,None,597.4612229855602,None,,,,,,,,,,,,,,,,,,,,,,,,,,,,,,,,,,,sing42,001,2019_Nov_18_1450,ProdFawcett_Revision2019,3.2.4,59.95051683236893,
79,0,79,0,,,,,,,,,,,,,,,,,604.2134094874368,None,materials/speakPic.jpg,novel,B_aloud,79,202,600.5118420356966,None,600.5118420356966,None,601.4623715171624,None,601.7291835255846,None,601.7291835255846,None,,,,,,,,,,,,,,,,,,,,,,,,,,,,,,,,,,,sing42,001,2019_Nov_18_1450,ProdFawcett_Revision2019,3.2.4,59.95051683236893,
80,0,80,0,,,,,,,,,,,,,,,,,608.4813861995826,None,materials/readPic.jpg,minute,A_silent,80,192,604.8479142628776,None,604.8479142628776,None,605.7307089920105,None,605.9976124351169,None,605.9976124351169,None,,,,,,,,,,,,,,,,,,,,,,,,,,,,,,,,,,,sing42,001,2019_Nov_18_1450,ProdFawcett_Revision2019,3.2.4,59.95051683236893,
81,0,81,0,,,,,,,,,,,,,,,,,612.7493461176023,None,materials/singPic.jpg,territory,C_sing,81,324,609.1047088862697,None,609.1047088862697,None,609.9989861324061,None,610.2555957094119,None,610.2555957094119,None,,,,,,,,,,,,,,,,,,,,,,,,,,,,,,,,,,,sing42,001,2019_Nov_18_1450,ProdFawcett_Revision2019,3.2.4,59.95051683236893,
82,0,82,0,,,,,,,,,,,,,,,,,617.0170883339915,None,materials/singPic.jpg,throw,C_sing,82,330,613.3389483767232,None,613.3389483767232,None,614.2668850939694,None,614.5331631113918,None,614.5331631113918,None,,,,,,,,,,,,,,,,,,,,,,,,,,,,,,,,,,,sing42,001,2019_Nov_18_1450,ProdFawcett_Revision2019,3.2.4,59.95051683236893,
83,0,83,0,,,,,,,,,,,,,,,,,621.2854432249696,None,materials/readPic.jpg,chief,A_silent,83,48,617.58970364588,None,617.58970364588,None,618.5346220233187,None,618.7846386619435,None,618.7846386619435,None,,,,,,,,,,,,,,,,,,,,,,,,,,,,,,,,,,,sing42,001,2019_Nov_18_1450,ProdFawcett_Revision2019,3.2.4,59.95051683236893,
84,0,84,0,,,,,,,,,,,,,,,,,625.5536087155292,None,materials/readPic.jpg,partner,A_silent,84,211,621.8585707576949,None,621.8585707576949,None,622.8025679462339,None,623.0690782823963,None,623.0690782823963,None,,,,,,,,,,,,,,,,,,,,,,,,,,,,,,,,,,,sing42,001,2019_Nov_18_1450,ProdFawcett_Revision2019,3.2.4,59.95051683236893,
85,0,85,0,,,,,,,,,,,,,,,,,629.8212815783991,None,materials/singPic.jpg,comedy,C_sing,85,58,626.1877147859836,None,626.1877147859836,None,627.0706164999174,None,627.3206779228776,None,627.3206779228776,None,,,,,,,,,,,,,,,,,,,,,,,,,,,,,,,,,,,sing42,001,2019_Nov_18_1450,ProdFawcett_Revision2019,3.2.4,59.95051683236893,
86,0,86,0,,,,,,,,,,,,,,,,,634.0893571892852,None,materials/speakPic.jpg,thing,B_aloud,86,328,630.422747021375,None,630.422747021375,None,631.3391648343445,None,631.6050096255221,None,631.6050096255221,None,,,,,,,,,,,,,,,,,,,,,,,,,,,,,,,,,,,sing42,001,2019_Nov_18_1450,ProdFawcett_Revision2019,3.2.4,59.95051683236893,
87,0,87,0,,,,,,,,,,,,,,,,,638.3569812247893,None,materials/speakPic.jpg,machinery,B_aloud,87,175,634.6583263098642,None,634.6583263098642,None,635.6064567193607,None,635.8641476514658,None,635.8641476514658,None,,,,,,,,,,,,,,,,,,,,,,,,,,,,,,,,,,,sing42,001,2019_Nov_18_1450,ProdFawcett_Revision2019,3.2.4,59.95051683236893,
88,0,88,0,,,,,,,,,,,,,,,,,642.6252123368404,None,materials/speakPic.jpg,guard,B_aloud,88,145,638.8992473743629,None,638.8992473743629,None,639.8744635987323,None,640.124167680016,None,640.124167680016,None,,,,,,,,,,,,,,,,,,,,,,,,,,,,,,,,,,,sing42,001,2019_Nov_18_1450,ProdFawcett_Revision2019,3.2.4,59.95051683236893,
89,0,89,0,,,,,,,,,,,,,,,,,646.8934530899637,None,materials/speakPic.jpg,tennis,B_aloud,89,323,643.192031809318,None,643.192031809318,None,644.1424496409477,None,644.4089612211196,None,644.4089612211196,None,,,,,,,,,,,,,,,,,,,,,,,,,,,,,,,,,,,sing42,001,2019_Nov_18_1450,ProdFawcett_Revision2019,3.2.4,59.95051683236893,
,,,,,,,,,,,,,,,,,,,,,,,,,,,,,,,,,,,,,647.3932963447896,None,k,103.38527279569325,647.3932963447896,None,,,,,,,,,,,,,,,,,,,,,,,,,,,,,sing42,001,2019_Nov_18_1450,ProdFawcett_Revision2019,3.2.4,59.95051683236893,
,,,,,,,,,,,,,,750.8083426374865,None,space,0.7940918887484258,750.8083426374865,None,,,,,,,,,,,,,,,,,,,,,,,,,,,,,,,,,,,,,,,,,,,,,,,,,,,,sing42,001,2019_Nov_18_1450,ProdFawcett_Revision2019,3.2.4,59.95051683236893,
,,,,0,0,0,0,,,,,,,,,,,,,758.2121499280029,None,,,,,,,,,,,,,,,,,,,,,,review,B_aloud,0,263,752.1441144364171,None,752.1441144364171,None,752.1441144364171,None,1,2.625966828491528,752.1441144364171,None,754.8153177977301,None,754.8153177977301,None,755.3352968983736,None,755.3352968983736,None,755.3352968983736,None,n,2.842679471669271,755.3352968983736,None,sing42,001,2019_Nov_18_1450,ProdFawcett_Revision2019,3.2.4,59.95051683236893,
,,,,1,0,1,0,,,,,,,,,,,,,764.0124755474417,None,,,,,,,,,,,,,,,,,,,,,,provision,D_new,1,243,758.7439570692381,None,758.7439570692381,None,758.7439570692381,None,1,3.6180169869471683,758.7439570692381,None,762.3846355519204,None,762.3846355519204,None,762.9119521305215,None,762.9119521305215,None,762.9119521305215,None,n,1.0660407226450843,762.9119521305215,None,sing42,001,2019_Nov_18_1450,ProdFawcett_Revision2019,3.2.4,59.95051683236893,
,,,,2,0,2,0,,,,,,,,,,,,,767.8132583403049,None,,,,,,,,,,,,,,,,,,,,,,bureau,D_new,2,37,764.5304959554146,None,764.5304959554146,None,764.5304959554146,None,1,1.5429671488241183,764.5304959554146,None,766.1295601494053,None,766.1295601494053,None,766.6464177196685,None,766.6464177196685,None,766.6464177196685,None,n,1.131122314106051,766.6464177196685,None,sing42,001,2019_Nov_18_1450,ProdFawcett_Revision2019,3.2.4,59.95051683236893,
,,,,3,0,3,0,,,,,,,,,,,,,771.0643215017681,None,,,,,,,,,,,,,,,,,,,,,,commercial,D_new,3,61,768.3301578958826,None,768.3301578958826,None,768.3301578958826,None,1,1.3758397840401813,768.3301578958826,None,769.7546816735658,None,769.7546816735658,None,770.2815454327751,None,770.2815454327751,None,770.2815454327751,None,n,0.7356293598641059,770.2815454327751,None,sing42,001,2019_Nov_18_1450,ProdFawcett_Revision2019,3.2.4,59.95051683236893,
,,,,4,0,4,0,,,,,,,,,,,,,775.5824939898798,None,,,,,,,,,,,,,,,,,,,,,,spoke,D_new,4,300,771.5817864595806,None,771.5817864595806,None,771.5817864595806,None,1,2.5078185985612436,771.5817864595806,None,774.1320724262223,None,774.1320724262223,None,774.6340174347906,None,774.6340174347906,None,774.6340174347906,None,n,0.9028829915937422,774.6340174347906,None,sing42,001,2019_Nov_18_1450,ProdFawcett_Revision2019,3.2.4,59.95051683236893,
,,,,5,0,5,0,,,,,,,,,,,,,781.1175986888143,None,,,,,,,,,,,,,,,,,,,,,,music,A_silent,5,196,776.0996274192094,None,776.0996274192094,None,776.0996274192094,None,5,2.4131214992803507,776.0996274192094,None,778.5665995938307,None,778.5665995938307,None,779.0834565420896,None,779.0834565420896,None,779.0834565420896,None,r,1.989679076696575,779.0834565420896,None,sing42,001,2019_Nov_18_1450,ProdFawcett_Revision2019,3.2.4,59.95051683236893,
,,,,6,0,6,0,,,,,,,,,,,,,786.1715196506821,None,,,,,,,,,,,,,,,,,,,,,,public,C_sing,6,244,781.6192463791554,None,781.6192463791554,None,781.6192463791554,None,6,2.5898314678374845,781.6192463791554,None,784.2564441237664,None,784.2564441237664,None,784.7686310610466,None,784.7686310610466,None,784.7686310610466,None,r,1.3758460040867249,784.7686310610466,None,sing42,001,2019_Nov_18_1450,ProdFawcett_Revision2019,3.2.4,59.95051683236893,
,,,,7,0,7,0,,,,,,,,,,,,,789.9202005343018,None,,,,,,,,,,,,,,,,,,,,,,style,A_silent,7,311,786.7029075607775,None,786.7029075607775,None,786.7029075607775,None,1,1.7214700458107473,786.7029075607775,None,788.459641538715,None,788.459641538715,None,788.9721158421476,None,788.9721158421476,None,788.9721158421476,None,n,0.9159491324589908,788.9721158421476,None,sing42,001,2019_Nov_18_1450,ProdFawcett_Revision2019,3.2.4,59.95051683236893,
,,,,8,0,8,0,,,,,,,,,,,,,795.0717585004709,None,,,,,,,,,,,,,,,,,,,,,,stranger,A_silent,8,309,790.4374792017193,None,790.4374792017193,None,790.4374792017193,None,6,2.730369377466559,790.4374792017193,None,793.211126730339,None,793.211126730339,None,793.721409089354,None,793.721409089354,None,793.721409089354,None,n,1.3022992402216005,793.721409089354,None,sing42,001,2019_Nov_18_1450,ProdFawcett_Revision2019,3.2.4,59.95051683236893,
,,,,9,0,9,0,,,,,,,,,,,,,800.0404057336386,None,,,,,,,,,,,,,,,,,,,,,,drink,D_new,9,105,795.5887373616429,None,795.5887373616429,None,795.5887373616429,None,1,2.267189254247569,795.5887373616429,None,797.894296839283,None,797.894296839283,None,798.4076830015456,None,798.4076830015456,None,798.4076830015456,None,n,1.61576346406855,798.4076830015456,None,sing42,001,2019_Nov_18_1450,ProdFawcett_Revision2019,3.2.4,59.95051683236893,
,,,,10,0,10,0,,,,,,,,,,,,,804.3746225209225,None,,,,,,,,,,,,,,,,,,,,,,principal,D_new,10,236,800.5426800936739,None,800.5426800936739,None,800.5426800936739,None,1,2.7051128782954947,800.5426800936739,None,803.277911370556,None,803.277911370556,None,803.8078512538059,None,803.8078512538059,None,803.8078512538059,None,n,0.5192734363581621,803.8078512538059,None,sing42,001,2019_Nov_18_1450,ProdFawcett_Revision2019,3.2.4,59.95051683236893,
,,,,11,0,11,0,,,,,,,,,,,,,806.8420587110195,None,,,,,,,,,,,,,,,,,,,,,,pancakes,D_new,11,210,804.8943789438981,None,804.8943789438981,None,804.8943789438981,None,1,0.9767388917739481,804.8943789438981,None,805.914144074939,None,805.914144074939,None,806.4418304353098,None,806.4418304353098,None,806.4418304353098,None,n,0.3651764471715069,806.4418304353098,None,sing42,001,2019_Nov_18_1450,ProdFawcett_Revision2019,3.2.4,59.95051683236893,
,,,,12,0,12,0,,,,,,,,,,,,,813.7942172226867,None,,,,,,,,,,,,,,,,,,,,,,finance,C_sing,12,129,807.3435792014079,None,807.3435792014079,None,807.3435792014079,None,6,2.2635113407000063,807.3435792014079,None,809.6467290330002,None,809.6467290330002,None,810.1483928954626,None,810.1483928954626,None,810.1483928954626,None,r,3.602786891874075,810.1483928954626,None,sing42,001,2019_Nov_18_1450,ProdFawcett_Revision2019,3.2.4,59.95051683236893,
,,,,13,0,13,0,,,,,,,,,,,,,819.4126724119164,None,,,,,,,,,,,,,,,,,,,,,,murder,B_aloud,13,195,814.3115033541599,None,814.3115033541599,None,814.3115033541599,None,6,2.1755863171415513,814.3115033541599,None,816.5340258318533,None,816.5340258318533,None,817.0471392450727,None,817.0471392450727,None,817.0471392450727,None,r,2.3272204788813724,817.0471392450727,None,sing42,001,2019_Nov_18_1450,ProdFawcett_Revision2019,3.2.4,59.95051683236893,
,,,,14,0,14,0,,,,,,,,,,,,,823.3318565906056,None,,,,,,,,,,,,,,,,,,,,,,religion,D_new,14,258,819.9309923151322,None,819.9309923151322,None,819.9309923151322,None,1,1.8190837249371725,819.9309923151322,None,821.8013245589209,None,821.8013245589209,None,822.3299653854406,None,822.3299653854406,None,822.3299653854406,None,n,0.979906761501752,822.3299653854406,None,sing42,001,2019_Nov_18_1450,ProdFawcett_Revision2019,3.2.4,59.95051683236893,
,,,,15,0,15,0,,,,,,,,,,,,,827.1660456986824,None,,,,,,,,,,,,,,,,,,,,,,symbol,D_new,15,321,823.864109087177,None,823.864109087177,None,823.864109087177,None,1,1.2225063055720966,823.864109087177,None,825.1309363347132,None,825.1309363347132,None,825.6315231961084,None,825.6315231961084,None,825.6315231961084,None,n,1.494564923290909,825.6315231961084,None,sing42,001,2019_Nov_18_1450,ProdFawcett_Revision2019,3.2.4,59.95051683236893,
,,,,16,0,16,0,,,,,,,,,,,,,830.4341552088226,None,,,,,,,,,,,,,,,,,,,,,,suspect,A_silent,16,318,827.6816785417723,None,827.6816785417723,None,827.6816785417723,None,1,1.7799739380047868,827.6816785417723,None,829.5156288000594,None,829.5156288000594,None,830.0325327096698,None,830.0325327096698,None,830.0325327096698,None,n,0.37371470512289306,830.0325327096698,None,sing42,001,2019_Nov_18_1450,ProdFawcett_Revision2019,3.2.4,59.95051683236893,
,,,,17,0,17,0,,,,,,,,,,,,,835.5889196090079,None,,,,,,,,,,,,,,,,,,,,,,health,C_sing,17,149,830.951553301134,None,830.951553301134,None,830.951553301134,None,5,2.9900681406102194,830.951553301134,None,833.9713999147853,None,833.9713999147853,None,834.5005091108133,None,834.5005091108133,None,834.5005091108133,None,f,1.0648091534208106,834.5005091108133,None,sing42,001,2019_Nov_18_1450,ProdFawcett_Revision2019,3.2.4,59.95051683236893,
,,,,18,0,18,0,,,,,,,,,,,,,840.2701282262601,None,,,,,,,,,,,,,,,,,,,,,,owner,B_aloud,18,208,836.1178350505843,None,836.1178350505843,None,836.1178350505843,None,6,2.4951673348032273,836.1178350505843,None,838.640063009072,None,838.640063009072,None,839.1519019347452,None,839.1519019347452,None,839.1519019347452,None,f,1.1009973844702472,839.1519019347452,None,sing42,001,2019_Nov_18_1450,ProdFawcett_Revision2019,3.2.4,59.95051683236893,
,,,,19,0,19,0,,,,,,,,,,,,,845.474316805633,None,,,,,,,,,,,,,,,,,,,,,,comfort,D_new,19,59,840.7718863224286,None,840.7718863224286,None,840.7718863224286,None,6,2.8168513502164387,840.7718863224286,None,843.6369971481085,None,843.6369971481085,None,844.1535007977209,None,844.1535007977209,None,844.1535007977209,None,f,1.2916865967322337,844.1535007977209,None,sing42,001,2019_Nov_18_1450,ProdFawcett_Revision2019,3.2.4,59.95051683236893,
,,,,20,0,20,0,,,,,,,,,,,,,849.2216370540614,None,,,,,,,,,,,,,,,,,,,,,,clear,D_new,20,52,845.9899247685366,None,845.9899247685366,None,845.9899247685366,None,1,1.8946485829178528,845.9899247685366,None,847.9279510233532,None,847.9279510233532,None,848.4548337537049,None,848.4548337537049,None,848.4548337537049,None,n,0.726176133059198,848.4548337537049,None,sing42,001,2019_Nov_18_1450,ProdFawcett_Revision2019,3.2.4,59.95051683236893,
,,,,21,0,21,0,,,,,,,,,,,,,853.4079429994931,None,,,,,,,,,,,,,,,,,,,,,,character,D_new,21,46,849.7393564117792,None,849.7393564117792,None,849.7393564117792,None,6,2.0575332539237934,849.7393564117792,None,851.8405917130317,None,851.8405917130317,None,852.3560192945843,None,852.3560192945843,None,852.3560192945843,None,r,1.03238622757317,852.3560192945843,None,sing42,001,2019_Nov_18_1450,ProdFawcett_Revision2019,3.2.4,59.95051683236893,
,,,,22,0,22,0,,,,,,,,,,,,,859.0747257736962,None,,,,,,,,,,,,,,,,,,,,,,drama,D_new,22,103,853.9401220995146,None,853.9401220995146,None,853.9401220995146,None,1,3.728075735287348,853.9401220995146,None,857.7113357239045,None,857.7113357239045,None,858.2411717323762,None,858.2411717323762,None,858.2411717323762,None,n,0.7949648722869824,858.2411717323762,None,sing42,001,2019_Nov_18_1450,ProdFawcett_Revision2019,3.2.4,59.95051683236893,
,,,,23,0,23,0,,,,,,,,,,,,,863.6093418879705,None,,,,,,,,,,,,,,,,,,,,,,industry,C_sing,23,161,859.5922221427436,None,859.5922221427436,None,859.5922221427436,None,6,2.451381316845982,859.5922221427436,None,862.075770119518,None,862.075770119518,None,862.5927660858179,None,862.5927660858179,None,862.5927660858179,None,n,0.9788285164258923,862.5927660858179,None,sing42,001,2019_Nov_18_1450,ProdFawcett_Revision2019,3.2.4,59.95051683236893,
,,,,24,0,24,0,,,,,,,,,,,,,871.2952792956416,None,,,,,,,,,,,,,,,,,,,,,,working,D_new,24,357,864.1263686435009,None,864.1263686435009,None,864.1263686435009,None,6,5.732871391207027,864.1263686435009,None,869.8946261907499,None,869.8946261907499,None,870.411522325302,None,870.411522325302,None,870.411522325302,None,n,0.8477516086595642,870.411522325302,None,sing42,001,2019_Nov_18_1450,ProdFawcett_Revision2019,3.2.4,59.95051683236893,
,,,,25,0,25,0,,,,,,,,,,,,,876.2798940104062,None,,,,,,,,,,,,,,,,,,,,,,crisis,A_silent,25,79,871.8119748336912,None,871.8119748336912,None,871.8119748336912,None,6,1.9595970653817858,871.8119748336912,None,873.8179613175303,None,873.8179613175303,None,874.3354679496547,None,874.3354679496547,None,874.3354679496547,None,f,1.9072895835988675,874.3354679496547,None,sing42,001,2019_Nov_18_1450,ProdFawcett_Revision2019,3.2.4,59.95051683236893,
,,,,26,0,26,0,,,,,,,,,,,,,882.415279855446,None,,,,,,,,,,,,,,,,,,,,,,figure,D_new,26,128,876.7804059202404,None,876.7804059202404,None,876.7804059202404,None,3,3.7504517308834693,876.7804059202404,None,880.5672094693987,None,880.5672094693987,None,881.0814788782768,None,881.0814788782768,None,881.0814788782768,None,f,1.2894974513360467,881.0814788782768,None,sing42,001,2019_Nov_18_1450,ProdFawcett_Revision2019,3.2.4,59.95051683236893,
,,,,27,0,27,0,,,,,,,,,,,,,888.7504299607203,None,,,,,,,,,,,,,,,,,,,,,,leader,D_new,27,168,882.931909772004,None,882.931909772004,None,882.931909772004,None,3,3.8785377292479097,882.931909772004,None,886.8499143188583,None,886.8499143188583,None,887.349916806877,None,887.349916806877,None,887.349916806877,None,f,1.3563629521586336,887.349916806877,None,sing42,001,2019_Nov_18_1450,ProdFawcett_Revision2019,3.2.4,59.95051683236893,
,,,,28,0,28,0,,,,,,,,,,,,,893.4352769942248,None,,,,,,,,,,,,,,,,,,,,,,committee,D_new,28,62,889.2671466469283,None,889.2671466469283,None,889.2671466469283,None,1,3.1108409191988358,889.2671466469283,None,892.4182968890436,None,892.4182968890436,None,892.935067689657,None,892.935067689657,None,892.935067689657,None,n,0.45886309988463836,892.935067689657,None,sing42,001,2019_Nov_18_1450,ProdFawcett_Revision2019,3.2.4,59.95051683236893,
,,,,29,0,29,0,,,,,,,,,,,,,896.2861476452458,None,,,,,,,,,,,,,,,,,,,,,,bright,A_silent,29,29,893.9520387757702,None,893.9520387757702,None,893.9520387757702,None,1,1.3375274070804153,893.9520387757702,None,895.3526632684479,None,895.3526632684479,None,895.8553357114642,None,895.8553357114642,None,895.8553357114642,None,n,0.38624654398654457,895.8553357114642,None,sing42,001,2019_Nov_18_1450,ProdFawcett_Revision2019,3.2.4,59.95051683236893,
,,,,30,0,30,0,,,,,,,,,,,,,900.8875577298072,None,,,,,,,,,,,,,,,,,,,,,,attack,B_aloud,30,13,896.8031492095874,None,896.8031492095874,None,896.8031492095874,None,6,2.1264196478832673,896.8031492095874,None,898.9607356449101,None,898.9607356449101,None,899.4872062971749,None,899.4872062971749,None,899.4872062971749,None,r,1.3540382097462498,899.4872062971749,None,sing42,001,2019_Nov_18_1450,ProdFawcett_Revision2019,3.2.4,59.95051683236893,
,,,,31,0,31,0,,,,,,,,,,,,,904.8720915839658,None,,,,,,,,,,,,,,,,,,,,,,judge,B_aloud,31,166,901.4080960126389,None,901.4080960126389,None,901.4080960126389,None,6,1.7611673161432009,901.4080960126389,None,903.2215039450643,None,903.2215039450643,None,903.7407643193246,None,903.7407643193246,None,903.7407643193246,None,r,1.0925723313666822,903.7407643193246,None,sing42,001,2019_Nov_18_1450,ProdFawcett_Revision2019,3.2.4,59.95051683236893,
,,,,32,0,32,0,,,,,,,,,,,,,908.0230816598814,None,,,,,,,,,,,,,,,,,,,,,,match,D_new,32,181,905.3889348481221,None,905.3889348481221,None,905.3889348481221,None,1,1.6441620197733755,905.3889348481221,None,907.0762661682334,None,907.0762661682334,None,907.58957675693,None,907.58957675693,None,907.58957675693,None,n,0.38739694160312865,907.58957675693,None,sing42,001,2019_Nov_18_1450,ProdFawcett_Revision2019,3.2.4,59.95051683236893,
,,,,33,0,33,0,,,,,,,,,,,,,910.6905694763655,None,,,,,,,,,,,,,,,,,,,,,,shock,D_new,33,284,908.5402356153645,None,908.5402356153645,None,908.5402356153645,None,1,1.4685007510706782,908.5402356153645,None,910.0737234131884,None,910.0737234131884,None,910.590394382054,None,910.590394382054,None,910.590394382054,None,n,0.05894707051356818,910.590394382054,None,sing42,001,2019_Nov_18_1450,ProdFawcett_Revision2019,3.2.4,59.95051683236893,
,,,,34,0,34,0,,,,,,,,,,,,,915.4090961961306,None,,,,,,,,,,,,,,,,,,,,,,report,B_aloud,34,259,911.207979075763,None,911.207979075763,None,911.207979075763,None,1,2.5286744147711033,911.207979075763,None,913.7791018874732,None,913.7791018874732,None,914.2975213114346,None,914.2975213114346,None,914.2975213114346,None,n,1.0628731639199032,914.2975213114346,None,sing42,001,2019_Nov_18_1450,ProdFawcett_Revision2019,3.2.4,59.95051683236893,
,,,,35,0,35,0,,,,,,,,,,,,,918.2595410849626,None,,,,,,,,,,,,,,,,,,,,,,recall,C_sing,35,255,915.9253591299398,None,915.9253591299398,None,915.9253591299398,None,1,1.4348761122219003,915.9253591299398,None,917.4142977100896,None,917.4142977100896,None,917.931275327252,None,917.931275327252,None,917.931275327252,None,n,0.2930550069822857,917.931275327252,None,sing42,001,2019_Nov_18_1450,ProdFawcett_Revision2019,3.2.4,59.95051683236893,
,,,,36,0,36,0,,,,,,,,,,,,,921.5938343788193,None,,,,,,,,,,,,,,,,,,,,,,property,D_new,36,242,918.7763594689322,None,918.7763594689322,None,918.7763594689322,None,1,1.9439455621522939,918.7763594689322,None,920.760437393676,None,920.760437393676,None,921.2643022196235,None,921.2643022196235,None,921.2643022196235,None,n,0.2883551397799238,921.2643022196235,None,sing42,001,2019_Nov_18_1450,ProdFawcett_Revision2019,3.2.4,59.95051683236893,
,,,,37,0,37,0,,,,,,,,,,,,,923.9279519563602,None,,,,,,,,,,,,,,,,,,,,,,debate,D_new,37,87,922.1108455842332,None,922.1108455842332,None,922.1108455842332,None,1,1.169036297081675,922.1108455842332,None,923.3443626162757,None,923.3443626162757,None,923.8612550188,None,923.8612550188,None,923.8612550188,None,n,0.026820218883585767,923.8612550188,None,sing42,001,2019_Nov_18_1450,ProdFawcett_Revision2019,3.2.4,59.95051683236893,
,,,,38,0,38,0,,,,,,,,,,,,,927.2289711109934,None,,,,,,,,,,,,,,,,,,,,,,place,D_new,38,222,924.4446198152023,None,924.4446198152023,None,924.4446198152023,None,1,1.5954282657580734,924.4446198152023,None,926.0953561132173,None,926.0953561132173,None,926.6119515085165,None,926.6119515085165,None,926.6119515085165,None,n,0.5718406050859812,926.6119515085165,None,sing42,001,2019_Nov_18_1450,ProdFawcett_Revision2019,3.2.4,59.95051683236893,
,,,,39,0,39,0,,,,,,,,,,,,,929.396146992141,None,,,,,,,,,,,,,,,,,,,,,,balance,A_silent,39,17,927.747027906239,None,927.747027906239,None,927.747027906239,None,1,0.9164843674680014,927.747027906239,None,928.7165649170711,None,928.7165649170711,None,929.2460762391111,None,929.2460762391111,None,929.2460762391111,None,n,0.10563660621801318,929.2460762391111,None,sing42,001,2019_Nov_18_1450,ProdFawcett_Revision2019,3.2.4,59.95051683236893,
,,,,40,0,40,0,,,,,,,,,,,,,932.1472720430675,None,,,,,,,,,,,,,,,,,,,,,,quarter,D_new,40,246,929.9143446714415,None,929.9143446714415,None,929.9143446714415,None,1,1.5736581026994827,929.9143446714415,None,931.536819876781,None,931.536819876781,None,932.0656177594769,None,932.0656177594769,None,932.0656177594769,None,n,0.045918871932371985,932.0656177594769,None,sing42,001,2019_Nov_18_1450,ProdFawcett_Revision2019,3.2.4,59.95051683236893,
,,,,41,0,41,0,,,,,,,,,,,,,936.5151616745607,None,,,,,,,,,,,,,,,,,,,,,,personnel,A_silent,41,219,932.6637959078312,None,932.6637959078312,None,932.6637959078312,None,6,2.208042831241073,932.6637959078312,None,934.9312942983943,None,934.9312942983943,None,935.4481493806388,None,935.4481493806388,None,935.4481493806388,None,r,1.0310598026376283,935.4481493806388,None,sing42,001,2019_Nov_18_1450,ProdFawcett_Revision2019,3.2.4,59.95051683236893,
,,,,42,0,42,0,,,,,,,,,,,,,940.6163699186104,None,,,,,,,,,,,,,,,,,,,,,,waste,A_silent,42,350,937.031882403799,None,937.031882403799,None,937.031882403799,None,1,2.7029420820363157,937.031882403799,None,939.7837134300134,None,939.7837134300134,None,940.2862179317722,None,940.2862179317722,None,940.2862179317722,None,n,0.29699167446733554,940.2862179317722,None,sing42,001,2019_Nov_18_1450,ProdFawcett_Revision2019,3.2.4,59.95051683236893,
,,,,43,0,43,0,,,,,,,,,,,,,943.0837740754678,None,,,,,,,,,,,,,,,,,,,,,,running,D_new,43,268,941.1333988511574,None,941.1333988511574,None,941.1333988511574,None,1,1.305711557779432,941.1333988511574,None,942.4742107538386,None,942.4742107538386,None,943.0006036555214,None,943.0006036555214,None,943.0006036555214,None,n,0.04608992321345795,943.0006036555214,None,sing42,001,2019_Nov_18_1450,ProdFawcett_Revision2019,3.2.4,59.95051683236893,
,,,,44,0,44,0,,,,,,,,,,,,,949.6692446686425,None,,,,,,,,,,,,,,,,,,,,,,cover,D_new,44,77,943.6026015344855,None,943.6026015344855,None,943.6026015344855,None,2,3.787955501786655,943.6026015344855,None,947.4518425333004,None,947.4518425333004,None,947.9685299852895,None,947.9685299852895,None,947.9685299852895,None,f,1.6617473354876893,947.9685299852895,None,sing42,001,2019_Nov_18_1450,ProdFawcett_Revision2019,3.2.4,59.95051683236893,
,,,,45,0,45,0,,,,,,,,,,,,,954.4538892396304,None,,,,,,,,,,,,,,,,,,,,,,expansion,C_sing,45,123,950.1703555689633,None,950.1703555689633,None,950.1703555689633,None,6,2.203710568792303,950.1703555689633,None,952.4201977352809,None,952.4201977352809,None,952.9368260968272,None,952.9368260968272,None,952.9368260968272,None,n,1.4692260085030284,952.9368260968272,None,sing42,001,2019_Nov_18_1450,ProdFawcett_Revision2019,3.2.4,59.95051683236893,
,,,,46,0,46,0,,,,,,,,,,,,,958.4050382377363,None,,,,,,,,,,,,,,,,,,,,,,close,D_new,46,53,954.9607328458887,None,954.9607328458887,None,954.9607328458887,None,1,2.2612077464459617,954.9607328458887,None,957.2452586139871,None,957.2452586139871,None,957.7597961068727,None,957.7597961068727,None,957.7597961068727,None,n,0.6057986384316791,957.7597961068727,None,sing42,001,2019_Nov_18_1450,ProdFawcett_Revision2019,3.2.4,59.95051683236893,
,,,,47,0,47,0,,,,,,,,,,,,,967.5080792185131,None,,,,,,,,,,,,,,,,,,,,,,finish,A_silent,47,130,958.9099324813942,None,958.9099324813942,None,958.9099324813942,None,6,2.8559701562166993,958.9099324813942,None,961.7968949527431,None,961.7968949527431,None,962.3231634534941,None,962.3231634534941,None,962.3231634534941,None,r,5.1463452561260965,962.3231634534941,None,sing42,001,2019_Nov_18_1450,ProdFawcett_Revision2019,3.2.4,59.95051683236893,
,,,,48,0,48,0,,,,,,,,,,,,,971.8092827975279,None,,,,,,,,,,,,,,,,,,,,,,partner,A_silent,48,211,968.0268311039649,None,968.0268311039649,None,968.0268311039649,None,1,3.03418973008138,968.0268311039649,None,971.1107124752361,None,971.1107124752361,None,971.6109883343024,None,971.6109883343024,None,971.6109883343024,None,n,0.15451279930084638,971.6109883343024,None,sing42,001,2019_Nov_18_1450,ProdFawcett_Revision2019,3.2.4,59.95051683236893,
,,,,49,0,49,0,,,,,,,,,,,,,980.1118180885173,None,,,,,,,,,,,,,,,,,,,,,,contract,D_new,49,68,972.3266805788376,None,972.3266805788376,None,972.3266805788376,None,1,6.821739373827768,972.3266805788376,None,979.1980347762806,None,979.1980347762806,None,979.7115758177029,None,979.7115758177029,None,979.7115758177029,None,n,0.35752330184959646,979.7115758177029,None,sing42,001,2019_Nov_18_1450,ProdFawcett_Revision2019,3.2.4,59.95051683236893,
,,,,50,0,50,0,,,,,,,,,,,,,982.8314190103283,None,,,,,,,,,,,,,,,,,,,,,,thing,B_aloud,50,328,980.6289549388725,None,980.6289549388725,None,980.6289549388725,None,1,1.4554271461493045,980.6289549388725,None,982.1456806441479,None,982.1456806441479,None,982.6625982378605,None,982.6625982378605,None,982.6625982378605,None,n,0.14198562547244364,982.6625982378605,None,sing42,001,2019_Nov_18_1450,ProdFawcett_Revision2019,3.2.4,59.95051683236893,
,,,,51,0,51,0,,,,,,,,,,,,,985.9801860415932,None,,,,,,,,,,,,,,,,,,,,,,comedy,C_sing,51,58,983.3480445728537,None,983.3480445728537,None,983.3480445728537,None,1,1.7520602349309229,983.3480445728537,None,985.1466655885251,None,985.1466655885251,None,985.6518910496638,None,985.6518910496638,None,985.6518910496638,None,n,0.2885230810379653,985.6518910496638,None,sing42,001,2019_Nov_18_1450,ProdFawcett_Revision2019,3.2.4,59.95051683236893,
,,,,52,0,52,0,,,,,,,,,,,,,991.0152568412736,None,,,,,,,,,,,,,,,,,,,,,,rough,B_aloud,52,266,986.4971589937209,None,986.4971589937209,None,986.4971589937209,None,3,2.9307609293991845,986.4971589937209,None,989.4813939746409,None,989.4813939746409,None,989.9992168961344,None,989.9992168961344,None,989.9992168961344,None,f,0.9807228316140026,989.9992168961344,None,sing42,001,2019_Nov_18_1450,ProdFawcett_Revision2019,3.2.4,59.95051683236893,
,,,,53,0,53,0,,,,,,,,,,,,,994.0493510936394,None,,,,,,,,,,,,,,,,,,,,,,universal,D_new,53,345,991.5319760155003,None,991.5319760155003,None,991.5319760155003,None,1,1.456216470061463,991.5319760155003,None,993.0491305929881,None,993.0491305929881,None,993.5658335950934,None,993.5658335950934,None,993.5658335950934,None,n,0.4377096544453707,993.5658335950934,None,sing42,001,2019_Nov_18_1450,ProdFawcett_Revision2019,3.2.4,59.95051683236893,
,,,,54,0,54,0,,,,,,,,,,,,,996.9670670303321,None,,,,,,,,,,,,,,,,,,,,,,resistance,D_new,54,262,994.5685327843103,None,994.5685327843103,None,994.5685327843103,None,1,1.4751254116895325,994.5685327843103,None,996.0908154792078,None,996.0908154792078,None,996.6040815945712,None,996.6040815945712,None,996.6040815945712,None,n,0.3199305842799731,996.6040815945712,None,sing42,001,2019_Nov_18_1450,ProdFawcett_Revision2019,3.2.4,59.95051683236893,
,,,,55,0,55,0,,,,,,,,,,,,,999.5181273927742,None,,,,,,,,,,,,,,,,,,,,,,platform,D_new,55,224,997.4837862045588,None,997.4837862045588,None,997.4837862045588,None,1,1.1760347825006647,997.4837862045588,None,998.7045241508858,None,998.7045241508858,None,999.2176478271822,None,999.2176478271822,None,999.2176478271822,None,n,0.28148820834667276,999.2176478271822,None,sing42,001,2019_Nov_18_1450,ProdFawcett_Revision2019,3.2.4,59.95051683236893,
,,,,56,0,56,0,,,,,,,,,,,,,1001.9852183702856,None,,,,,,,,,,,,,,,,,,,,,,series,D_new,56,279,1000.0198208004576,None,1000.0198208004576,None,1000.0198208004576,None,1,1.072086607928668,1000.0198208004576,None,1001.1348866863013,None,1001.1348866863013,None,1001.6520891581476,None,1001.6520891581476,None,1001.6520891581476,None,n,0.28696091633719334,1001.6520891581476,None,sing42,001,2019_Nov_18_1450,ProdFawcett_Revision2019,3.2.4,59.95051683236893,
,,,,57,0,57,0,,,,,,,,,,,,,1006.4697637315303,None,,,,,,,,,,,,,,,,,,,,,,strength,C_sing,57,310,1002.502736198494,None,1002.502736198494,None,1002.502736198494,None,6,1.7643507359871364,1002.502736198494,None,1004.3093409549638,None,1004.3093409549638,None,1004.8360495240108,None,1004.8360495240108,None,1004.8360495240108,None,r,1.5988069950644785,1004.8360495240108,None,sing42,001,2019_Nov_18_1450,ProdFawcett_Revision2019,3.2.4,59.95051683236893,
,,,,58,0,58,0,,,,,,,,,,,,,1010.2546337792069,None,,,,,,,,,,,,,,,,,,,,,,month,A_silent,58,193,1006.9870747431896,None,1006.9870747431896,None,1006.9870747431896,None,1,2.2400692291189443,1006.9870747431896,None,1009.2707213077024,None,1009.2707213077024,None,1009.771187189192,None,1009.771187189192,None,1009.771187189192,None,n,0.44010095135627125,1009.771187189192,None,sing42,001,2019_Nov_18_1450,ProdFawcett_Revision2019,3.2.4,59.95051683236893,
,,,,59,0,59,0,,,,,,,,,,,,,1013.1385944560725,None,,,,,,,,,,,,,,,,,,,,,,dance,D_new,59,84,1010.7715827841548,None,1010.7715827841548,None,1010.7715827841548,None,1,1.5430361913408888,1010.7715827841548,None,1012.3570107700107,None,1012.3570107700107,None,1012.8588677649195,None,1012.8588677649195,None,1012.8588677649195,None,n,0.23153470319493863,1012.8588677649195,None,sing42,001,2019_Nov_18_1450,ProdFawcett_Revision2019,3.2.4,59.95051683236893,
,,,,60,0,60,0,,,,,,,,,,,,,1017.0898320898423,None,,,,,,,,,,,,,,,,,,,,,,angle,A_silent,60,7,1013.6556678619522,None,1013.6556678619522,None,1013.6556678619522,None,6,1.875189167166809,1013.6556678619522,None,1015.5729521274116,None,1015.5729521274116,None,1016.0894029066276,None,1016.0894029066276,None,1016.0894029066276,None,r,0.9614229600579165,1016.0894029066276,None,sing42,001,2019_Nov_18_1450,ProdFawcett_Revision2019,3.2.4,59.95051683236893,
,,,,61,0,61,0,,,,,,,,,,,,,1021.5745223781723,None,,,,,,,,,,,,,,,,,,,,,,account,D_new,61,1,1017.6065686801994,None,1017.6065686801994,None,1017.6065686801994,None,1,2.347621298683407,1017.6065686801994,None,1019.9950914502347,None,1019.9950914502347,None,1020.5074130515236,None,1020.5074130515236,None,1020.5074130515236,None,n,1.0231339082729392,1020.5074130515236,None,sing42,001,2019_Nov_18_1450,ProdFawcett_Revision2019,3.2.4,59.95051683236893,
,,,,62,0,62,0,,,,,,,,,,,,,1024.6420126826747,None,,,,,,,,,,,,,,,,,,,,,,mankind,D_new,62,178,1022.0942290407756,None,1022.0942290407756,None,1022.0942290407756,None,1,1.2433991310595047,1022.0942290407756,None,1023.3765815245956,None,1023.3765815245956,None,1023.876057174668,None,1023.876057174668,None,1023.876057174668,None,n,0.7259705605197269,1023.876057174668,None,sing42,001,2019_Nov_18_1450,ProdFawcett_Revision2019,3.2.4,59.95051683236893,
,,,,63,0,63,0,,,,,,,,,,,,,1029.879361574418,None,,,,,,,,,,,,,,,,,,,,,,volume,C_sing,63,349,1025.1592154655236,None,1025.1592154655236,None,1025.1592154655236,None,3,3.1226076923317123,1025.1592154655236,None,1028.3433587007567,None,1028.3433587007567,None,1028.8601484725118,None,1028.8601484725118,None,1028.8601484725118,None,f,0.9897223060197575,1028.8601484725118,None,sing42,001,2019_Nov_18_1450,ProdFawcett_Revision2019,3.2.4,59.95051683236893,
,,,,64,0,64,0,,,,,,,,,,,,,1033.497489900199,None,,,,,,,,,,,,,,,,,,,,,,scale,D_new,64,272,1030.4110545777985,None,1030.4110545777985,None,1030.4110545777985,None,1,1.742549472695373,1030.4110545777985,None,1032.1982459468622,None,1032.1982459468622,None,1032.7113441209672,None,1032.7113441209672,None,1032.7113441209672,None,n,0.7543075377634523,1032.7113441209672,None,sing42,001,2019_Nov_18_1450,ProdFawcett_Revision2019,3.2.4,59.95051683236893,
,,,,65,0,65,0,,,,,,,,,,,,,1037.7294883078675,None,,,,,,,,,,,,,,,,,,,,,,point,D_new,65,226,1034.0282981019527,None,1034.0282981019527,None,1034.0282981019527,None,1,2.4609996858876,1034.0282981019527,None,1036.5350655126408,None,1036.5350655126408,None,1037.045984493424,None,1037.045984493424,None,1037.045984493424,None,n,0.6432756631347729,1037.045984493424,None,sing42,001,2019_Nov_18_1450,ProdFawcett_Revision2019,3.2.4,59.95051683236893,
,,,,66,0,66,0,,,,,,,,,,,,,1041.3819665299293,None,,,,,,,,,,,,,,,,,,,,,,candidate,D_new,66,39,1038.231363962916,None,1038.231363962916,None,1038.231363962916,None,1,2.1695102646317537,1038.231363962916,None,1040.4360451699781,None,1040.4360451699781,None,1040.9644916200423,None,1040.9644916200423,None,1040.9644916200423,None,n,0.38854391819404555,1040.9644916200423,None,sing42,001,2019_Nov_18_1450,ProdFawcett_Revision2019,3.2.4,59.95051683236893,
,,,,67,0,67,0,,,,,,,,,,,,,1046.8823789190178,None,,,,,,,,,,,,,,,,,,,,,,growth,A_silent,67,144,1041.9144289530727,None,1041.9144289530727,None,1041.9144289530727,None,1,3.5586783645007927,1041.9144289530727,None,1045.5317887920978,None,1045.5317887920978,None,1046.0488267437122,None,1046.0488267437122,None,1046.0488267437122,None,n,0.7998724890449012,1046.0488267437122,None,sing42,001,2019_Nov_18_1450,ProdFawcett_Revision2019,3.2.4,59.95051683236893,
,,,,68,0,68,0,,,,,,,,,,,,,1050.7000457173422,None,,,,,,,,,,,,,,,,,,,,,,little,C_sing,68,174,1047.399004170541,None,1047.399004170541,None,1047.399004170541,None,1,1.8972016010402513,1047.399004170541,None,1049.3381347946297,None,1049.3381347946297,None,1049.866414547445,None,1049.866414547445,None,1049.866414547445,None,n,0.7903076124039217,1049.866414547445,None,sing42,001,2019_Nov_18_1450,ProdFawcett_Revision2019,3.2.4,59.95051683236893,
,,,,69,0,69,0,,,,,,,,,,,,,1058.5031003822219,None,,,,,,,,,,,,,,,,,,,,,,afternoon,D_new,69,3,1051.2062135155393,None,1051.2062135155393,None,1051.2062135155393,None,6,5.7701279152579446,1051.2062135155393,None,1057.0192410921159,None,1057.0192410921159,None,1057.5203697195693,None,1057.5203697195693,None,1057.5203697195693,None,r,0.9591759682280099,1057.5203697195693,None,sing42,001,2019_Nov_18_1450,ProdFawcett_Revision2019,3.2.4,59.95051683236893,
,,,,70,0,70,0,,,,,,,,,,,,,1063.3705574094747,None,,,,,,,,,,,,,,,,,,,,,,charter,A_silent,70,47,1059.0055131382933,None,1059.0055131382933,None,1059.0055131382933,None,6,2.338545317704302,1059.0055131382933,None,1061.3868803667337,None,1061.3868803667337,None,1061.903442173782,None,1061.903442173782,None,1061.903442173782,None,r,1.432137114707075,1061.903442173782,None,sing42,001,2019_Nov_18_1450,ProdFawcett_Revision2019,3.2.4,59.95051683236893,
,,,,71,0,71,0,,,,,,,,,,,,,1066.92178104814,None,,,,,,,,,,,,,,,,,,,,,,chief,A_silent,71,48,1063.8875409356815,None,1063.8875409356815,None,1063.8875409356815,None,6,1.7516099035578918,1063.8875409356815,None,1065.7049041957325,None,1065.7049041957325,None,1066.2216942784898,None,1066.2216942784898,None,1066.2216942784898,None,r,0.6657853897327186,1066.2216942784898,None,sing42,001,2019_Nov_18_1450,ProdFawcett_Revision2019,3.2.4,59.95051683236893,
,,,,72,0,72,0,,,,,,,,,,,,,1070.3560323566821,None,,,,,,,,,,,,,,,,,,,,,,material,D_new,72,182,1067.440315231961,None,1067.440315231961,None,1067.440315231961,None,6,1.9429232974957813,1067.440315231961,None,1069.4391981115937,None,1069.4391981115937,None,1069.9560569258665,None,1069.9560569258665,None,1069.9560569258665,None,r,0.35493918349447995,1069.9560569258665,None,sing42,001,2019_Nov_18_1450,ProdFawcett_Revision2019,3.2.4,59.95051683236893,
,,,,73,0,73,0,,,,,,,,,,,,,1073.6404735321466,None,,,,,,,,,,,,,,,,,,,,,,husband,D_new,73,156,1070.8733296842393,None,1070.8733296842393,None,1070.8733296842393,None,1,1.574038458547875,1070.8733296842393,None,1072.493240053368,None,1072.493240053368,None,1073.007066905931,None,1073.007066905931,None,1073.007066905931,None,n,0.5837215160740925,1073.007066905931,None,sing42,001,2019_Nov_18_1450,ProdFawcett_Revision2019,3.2.4,59.95051683236893,
,,,,74,0,74,0,,,,,,,,,,,,,1080.692667187077,None,,,,,,,,,,,,,,,,,,,,,,throw,C_sing,74,330,1074.1419228030018,None,1074.1419228030018,None,1074.1419228030018,None,4,5.064638413141438,1074.1419228030018,None,1079.2472415648394,None,1079.2472415648394,None,1079.759026998112,None,1079.759026998112,None,1079.759026998112,None,f,0.8954528349418069,1079.759026998112,None,sing42,001,2019_Nov_18_1450,ProdFawcett_Revision2019,3.2.4,59.95051683236893,
,,,,75,0,75,0,,,,,,,,,,,,,1085.3456436348706,None,,,,,,,,,,,,,,,,,,,,,,dispute,A_silent,75,99,1081.2095505705338,None,1081.2095505705338,None,1081.2095505705338,None,6,1.7728812188802294,1081.2095505705338,None,1083.0315235071112,None,1083.0315235071112,None,1083.560201342908,None,1083.560201342908,None,1083.560201342908,None,r,1.7660180194748136,1083.560201342908,None,sing42,001,2019_Nov_18_1450,ProdFawcett_Revision2019,3.2.4,59.95051683236893,
,,,,76,0,76,0,,,,,,,,,,,,,1089.0951589377405,None,,,,,,,,,,,,,,,,,,,,,,engineer,B_aloud,76,114,1085.8782229948902,None,1085.8782229948902,None,1085.8782229948902,None,6,2.3514830146077657,1085.8782229948902,None,1088.261721522294,None,1088.261721522294,None,1088.7782718222556,None,1088.7782718222556,None,1088.7782718222556,None,r,0.28384094096873014,1088.7782718222556,None,sing42,001,2019_Nov_18_1450,ProdFawcett_Revision2019,3.2.4,59.95051683236893,
,,,,77,0,77,0,,,,,,,,,,,,,1092.8295738335078,None,,,,,,,,,,,,,,,,,,,,,,count,D_new,77,72,1089.6120146419894,None,1089.6120146419894,None,1089.6120146419894,None,1,1.6817217710963632,1089.6120146419894,None,1091.32910950703,None,1091.32910950703,None,1091.846133774542,None,1091.846133774542,None,1091.846133774542,None,n,0.9514058860299883,1091.846133774542,None,sing42,001,2019_Nov_18_1450,ProdFawcett_Revision2019,3.2.4,59.95051683236893,
,,,,78,0,78,0,,,,,,,,,,,,,1099.565226829549,None,,,,,,,,,,,,,,,,,,,,,,burden,D_new,78,36,1093.3482616524798,None,1093.3482616524798,None,1093.3482616524798,None,6,2.169066153305721,1093.3482616524798,None,1095.5805950096565,None,1095.5805950096565,None,1096.1004724125382,None,1096.1004724125382,None,1096.1004724125382,None,n,3.41665199772342,1096.1004724125382,None,sing42,001,2019_Nov_18_1450,ProdFawcett_Revision2019,3.2.4,59.95051683236893,
,,,,79,0,79,0,,,,,,,,,,,,,1102.76610416712,None,,,,,,,,,,,,,,,,,,,,,,quick,B_aloud,79,248,1100.0860285313538,None,1100.0860285313538,None,1100.0860285313538,None,1,1.5989317069984281,1100.0860285313538,None,1101.7490970047365,None,1101.7490970047365,None,1102.2659586180298,None,1102.2659586180298,None,1102.2659586180298,None,n,0.4509235214168257,1102.2659586180298,None,sing42,001,2019_Nov_18_1450,ProdFawcett_Revision2019,3.2.4,59.95051683236893,
,,,,80,0,80,0,,,,,,,,,,,,,1107.2006406647984,None,,,,,,,,,,,,,,,,,,,,,,smooth,C_sing,80,292,1103.2829446322553,None,1103.2829446322553,None,1103.2829446322553,None,1,2.94578420792368,1103.2829446322553,None,1106.2704333195456,None,1106.2704333195456,None,1106.784022566329,None,1106.784022566329,None,1106.784022566329,None,n,0.3733424353349619,1106.784022566329,None,sing42,001,2019_Nov_18_1450,ProdFawcett_Revision2019,3.2.4,59.95051683236893,
,,,,81,0,81,0,,,,,,,,,,,,,1111.4687756771295,None,,,,,,,,,,,,,,,,,,,,,,shape,B_aloud,81,282,1107.7176164159468,None,1107.7176164159468,None,1107.7176164159468,None,1,2.4469246534654303,1107.7176164159468,None,1110.2058900731167,None,1110.2058900731167,None,1110.7350648906358,None,1110.7350648906358,None,1110.7350648906358,None,n,0.693645911407657,1110.7350648906358,None,sing42,001,2019_Nov_18_1450,ProdFawcett_Revision2019,3.2.4,59.95051683236893,
,,,,82,0,82,0,,,,,,,,,,,,,1117.7539051007493,None,,,,,,,,,,,,,,,,,,,,,,under,B_aloud,82,343,1111.9856382234302,None,1111.9856382234302,None,1111.9856382234302,None,1,4.890944856177157,1111.9856382234302,None,1116.9086956251303,None,1116.9086956251303,None,1117.4374014511368,None,1117.4374014511368,None,1117.4374014511368,None,n,0.2705729595913908,1117.4374014511368,None,sing42,001,2019_Nov_18_1450,ProdFawcett_Revision2019,3.2.4,59.95051683236893,
,,,,83,0,83,0,,,,,,,,,,,,,1120.8215552604488,None,,,,,,,,,,,,,,,,,,,,,,position,D_new,83,229,1118.2714764213583,None,1118.2714764213583,None,1118.2714764213583,None,1,1.5003775568279707,1118.2714764213583,None,1119.8066122205255,None,1119.8066122205255,None,1120.3380131927188,None,1120.3380131927188,None,1120.3380131927188,None,n,0.44244621992220345,1120.3380131927188,None,sing42,001,2019_Nov_18_1450,ProdFawcett_Revision2019,3.2.4,59.95051683236893,
,,,,84,0,84,0,,,,,,,,,,,,,1126.3398670776041,None,,,,,,,,,,,,,,,,,,,,,,author,D_new,84,15,1121.3390127542052,None,1121.3390127542052,None,1121.3390127542052,None,1,3.8647133647032206,1121.3390127542052,None,1125.2414762036565,None,1125.2414762036565,None,1125.7461891329567,None,1125.7461891329567,None,1125.7461891329567,None,n,0.5536199116131684,1125.7461891329567,None,sing42,001,2019_Nov_18_1450,ProdFawcett_Revision2019,3.2.4,59.95051683236893,
,,,,85,0,85,0,,,,,,,,,,,,,1133.4255239611743,None,,,,,,,,,,,,,,,,,,,,,,tragedy,D_new,85,335,1126.8566898156068,None,1126.8566898156068,None,1126.8566898156068,None,1,5.1303886596110715,1126.8566898156068,None,1132.0123393284216,None,1132.0123393284216,None,1132.532416705801,None,1132.532416705801,None,1132.532416705801,None,n,0.854768443215562,1132.532416705801,None,sing42,001,2019_Nov_18_1450,ProdFawcett_Revision2019,3.2.4,59.95051683236893,
,,,,86,0,86,0,,,,,,,,,,,,,1136.743051119453,None,,,,,,,,,,,,,,,,,,,,,,colonel,C_sing,86,55,1133.9430035360965,None,1133.9430035360965,None,1133.9430035360965,None,6,1.8518789205731991,1133.9430035360965,None,1135.8501080733095,None,1135.8501080733095,None,1136.3764086073002,None,1136.3764086073002,None,1136.3764086073002,None,r,0.322732093263312,1136.3764086073002,None,sing42,001,2019_Nov_18_1450,ProdFawcett_Revision2019,3.2.4,59.95051683236893,
,,,,87,0,87,0,,,,,,,,,,,,,1140.1441215894706,None,,,,,,,,,,,,,,,,,,,,,,estate,A_silent,87,119,1137.260096535123,None,1137.260096535123,None,1137.260096535123,None,6,1.991193969042797,1137.260096535123,None,1139.2814278738947,None,1139.2814278738947,None,1139.8106502747705,None,1139.8106502747705,None,1139.8106502747705,None,r,0.2879819369850338,1139.8106502747705,None,sing42,001,2019_Nov_18_1450,ProdFawcett_Revision2019,3.2.4,59.95051683236893,
,,,,88,0,88,0,,,,,,,,,,,,,1142.945084763685,None,,,,,,,,,,,,,,,,,,,,,,defeat,D_new,88,88,1140.6611303068657,None,1140.6611303068657,None,1140.6611303068657,None,1,1.5579646141550256,1140.6611303068657,None,1142.249627885713,None,1142.249627885713,None,1142.7661794296837,None,1142.7661794296837,None,1142.7661794296837,None,n,0.1402981268329313,1142.7661794296837,None,sing42,001,2019_Nov_18_1450,ProdFawcett_Revision2019,3.2.4,59.95051683236893,
,,,,89,0,89,0,,,,,,,,,,,,,1146.1961479251477,None,,,,,,,,,,,,,,,,,,,,,,machinery,B_aloud,89,175,1143.4627839062514,None,1143.4627839062514,None,1143.4627839062514,None,6,1.8835283836274357,1143.4627839062514,None,1145.3959283575032,None,1145.3959283575032,None,1145.9126714789095,None,1145.9126714789095,None,1145.9126714789095,None,r,0.24998429438210223,1145.9126714789095,None,sing42,001,2019_Nov_18_1450,ProdFawcett_Revision2019,3.2.4,59.95051683236893,
,,,,90,0,90,0,,,,,,,,,,,,,1148.9469078593397,None,,,,,,,,,,,,,,,,,,,,,,minute,A_silent,90,192,1146.7131311403523,None,1146.7131311403523,None,1146.7131311403523,None,1,1.3528389847642757,1146.7131311403523,None,1148.10163556125,None,1148.10163556125,None,1148.630452104086,None,1148.630452104086,None,1148.630452104086,None,n,0.275989998165187,1148.630452104086,None,sing42,001,2019_Nov_18_1450,ProdFawcett_Revision2019,3.2.4,59.95051683236893,
,,,,91,0,91,0,,,,,,,,,,,,,1152.4812173253176,None,,,,,,,,,,,,,,,,,,,,,,alert,A_silent,91,6,1149.463899471607,None,1149.463899471607,None,1149.463899471607,None,6,2.185898843382347,1149.463899471607,None,1151.6980263792175,None,1151.6980263792175,None,1152.2145940953096,None,1152.2145940953096,None,1152.2145940953096,None,r,0.2275859066180601,1152.2145940953096,None,sing42,001,2019_Nov_18_1450,ProdFawcett_Revision2019,3.2.4,59.95051683236893,
,,,,92,0,92,0,,,,,,,,,,,,,1159.7501366855236,None,,,,,,,,,,,,,,,,,,,,,,council,D_new,92,71,1152.9841811775168,None,1152.9841811775168,None,1152.9841811775168,None,6,5.577366494474973,1152.9841811775168,None,1158.6165689601016,None,1158.6165689601016,None,1159.1334038271948,None,1159.1334038271948,None,1159.1334038271948,None,f,0.5720956269965427,1159.1334038271948,None,sing42,001,2019_Nov_18_1450,ProdFawcett_Revision2019,3.2.4,59.95051683236893,
,,,,93,0,93,0,,,,,,,,,,,,,1162.6343483412688,None,,,,,,,,,,,,,,,,,,,,,,frank,D_new,93,133,1160.2670390401222,None,1160.2670390401222,None,1160.2670390401222,None,1,1.4860919758289128,1160.2670390401222,None,1161.788118156005,None,1161.788118156005,None,1162.3024519423648,None,1162.3024519423648,None,1162.3024519423648,None,n,0.291233777340949,1162.3024519423648,None,sing42,001,2019_Nov_18_1450,ProdFawcett_Revision2019,3.2.4,59.95051683236893,
,,,,94,0,94,0,,,,,,,,,,,,,1166.718933821814,None,,,,,,,,,,,,,,,,,,,,,,audience,B_aloud,94,14,1163.1511717012759,None,1163.1511717012759,None,1163.1511717012759,None,6,2.4820402374812147,1163.1511717012759,None,1165.6747351037657,None,1165.6747351037657,None,1166.2021720402686,None,1166.2021720402686,None,1166.2021720402686,None,r,0.4788860518565343,1166.2021720402686,None,sing42,001,2019_Nov_18_1450,ProdFawcett_Revision2019,3.2.4,59.95051683236893,
,,,,95,0,95,0,,,,,,,,,,,,,1170.4201632140225,None,,,,,,,,,,,,,,,,,,,,,,swift,D_new,95,320,1167.2360545000483,None,1167.2360545000483,None,1167.2360545000483,None,1,1.2606771764721998,1167.2360545000483,None,1168.5365287786003,None,1168.5365287786003,None,1169.05337919581,None,1169.05337919581,None,1169.05337919581,None,n,1.331580731539816,1169.05337919581,None,sing42,001,2019_Nov_18_1450,ProdFawcett_Revision2019,3.2.4,59.95051683236893,
,,,,96,0,96,0,,,,,,,,,,,,,1175.2382252963075,None,,,,,,,,,,,,,,,,,,,,,,equipment,C_sing,96,116,1170.9423684693397,None,1170.9423684693397,None,1170.9423684693397,None,6,1.9946840371831058,1170.9423684693397,None,1172.9877147859838,None,1172.9877147859838,None,1173.5090601198604,None,1173.5090601198604,None,1173.5090601198604,None,r,1.69144401491576,1173.5090601198604,None,sing42,001,2019_Nov_18_1450,ProdFawcett_Revision2019,3.2.4,59.95051683236893,
,,,,97,0,97,0,,,,,,,,,,,,,1177.8943534417072,None,,,,,,,,,,,,,,,,,,,,,,region,D_new,97,256,1175.75508411058,None,1175.75508411058,None,1175.75508411058,None,1,1.2693656485489555,1175.75508411058,None,1177.0888791787052,None,1177.0888791787052,None,1177.6055818698082,None,1177.6055818698082,None,1177.6055818698082,None,n,0.26686923285069497,1177.6055818698082,None,sing42,001,2019_Nov_18_1450,ProdFawcett_Revision2019,3.2.4,59.95051683236893,
,,,,98,0,98,0,,,,,,,,,,,,,1183.1088131840106,None,,,,,,,,,,,,,,,,,,,,,,course,D_new,98,74,1178.422586544173,None,1178.422586544173,None,1178.422586544173,None,1,4.0178804569245585,1178.422586544173,None,1182.4801020709642,None,1182.4801020709642,None,1183.0072637704056,None,1183.0072637704056,None,1183.0072637704056,None,n,0.08088797385107682,1183.0072637704056,None,sing42,001,2019_Nov_18_1450,ProdFawcett_Revision2019,3.2.4,59.95051683236893,
,,,,99,0,99,0,,,,,,,,,,,,,1185.7415461791807,None,,,,,,,,,,,,,,,,,,,,,,motion,D_new,99,194,1183.641190392516,None,1183.641190392516,None,1183.641190392516,None,1,1.462703356648035,1183.641190392516,None,1185.1412594350331,None,1185.1412594350331,None,1185.6588506597914,None,1185.6588506597914,None,1185.6588506597914,None,n,0.03695765081283753,1185.6588506597914,None,sing42,001,2019_Nov_18_1450,ProdFawcett_Revision2019,3.2.4,59.95051683236893,
,,,,100,0,100,0,,,,,,,,,,,,,1189.0258237674198,None,,,,,,,,,,,,,,,,,,,,,,goose,B_aloud,100,138,1186.2589221903272,None,1186.2589221903272,None,1186.2589221903272,None,6,1.844911846390005,1186.2589221903272,None,1188.1483524651599,None,1188.1483524651599,None,1188.6758970084684,None,1188.6758970084684,None,1188.6758970084684,None,r,0.3161018346027049,1188.6758970084684,None,sing42,001,2019_Nov_18_1450,ProdFawcett_Revision2019,3.2.4,59.95051683236893,
,,,,101,0,101,0,,,,,,,,,,,,,1192.5603083277092,None,,,,,,,,,,,,,,,,,,,,,,route,A_silent,101,267,1189.5425249035115,None,1189.5425249035115,None,1189.5425249035115,None,6,2.0970355257959454,1189.5425249035115,None,1191.6806394829896,None,1191.6806394829896,None,1192.2100705664284,None,1192.2100705664284,None,1192.2100705664284,None,r,0.309553680557201,1192.2100705664284,None,sing42,001,2019_Nov_18_1450,ProdFawcett_Revision2019,3.2.4,59.95051683236893,
,,,,102,0,102,0,,,,,,,,,,,,,1195.294457316485,None,,,,,,,,,,,,,,,,,,,,,,master,D_new,102,180,1193.0769547273908,None,1193.0769547273908,None,1193.0769547273908,None,1,1.234365446397078,1193.0769547273908,None,1194.3482255762096,None,1194.3482255762096,None,1194.8779521118613,None,1194.8779521118613,None,1194.8779521118613,None,n,0.3692701708337154,1194.8779521118613,None,sing42,001,2019_Nov_18_1450,ProdFawcett_Revision2019,3.2.4,59.95051683236893,
,,,,103,0,103,0,,,,,,,,,,,,,1198.795565728787,None,,,,,,,,,,,,,,,,,,,,,,phrase,B_aloud,103,220,1195.8113114657226,None,1195.8113114657226,None,1195.8113114657226,None,6,2.051793083930079,1195.8113114657226,None,1197.9002565769215,None,1197.9002565769215,None,1198.4143714176416,None,1198.4143714176416,None,1198.4143714176416,None,r,0.3446782836404054,1198.4143714176416,None,sing42,001,2019_Nov_18_1450,ProdFawcett_Revision2019,3.2.4,59.95051683236893,
,,,,104,0,104,0,,,,,,,,,,,,,1202.3301121785403,None,,,,,,,,,,,,,,,,,,,,,,guest,C_sing,104,146,1199.3127731766708,None,1199.3127731766708,None,1199.3127731766708,None,1,2.1427186579626323,1199.3127731766708,None,1201.5130303755973,None,1201.5130303755973,None,1202.0297641669335,None,1202.0297641669335,None,1202.0297641669335,None,n,0.28113833072620764,1202.0297641669335,None,sing42,001,2019_Nov_18_1450,ProdFawcett_Revision2019,3.2.4,59.95051683236893,
,,,,105,0,105,0,,,,,,,,,,,,,1204.8306122702857,None,,,,,,,,,,,,,,,,,,,,,,taste,C_sing,105,322,1202.8469271414842,None,1202.8469271414842,None,1202.8469271414842,None,1,1.0798563791245215,1202.8469271414842,None,1203.9806429040154,None,1203.9806429040154,None,1204.4972805956318,None,1204.4972805956318,None,1204.4972805956318,None,n,0.2937112218974107,1204.4972805956318,None,sing42,001,2019_Nov_18_1450,ProdFawcett_Revision2019,3.2.4,59.95051683236893,
,,,,106,0,106,0,,,,,,,,,,,,,1207.6380837902475,None,,,,,,,,,,,,,,,,,,,,,,member,D_new,106,188,1205.3475737153271,None,1205.3475737153271,None,1205.3475737153271,None,1,1.3950447998854543,1205.3475737153271,None,1206.7857962126136,None,1206.7857962126136,None,1207.2982064495664,None,1207.2982064495664,None,1207.2982064495664,None,n,0.31668340895885194,1207.2982064495664,None,sing42,001,2019_Nov_18_1450,ProdFawcett_Revision2019,3.2.4,59.95051683236893,
,,,,107,0,107,0,,,,,,,,,,,,,1210.182267580184,None,,,,,,,,,,,,,,,,,,,,,,sunset,D_new,107,315,1208.165037118128,None,1208.165037118128,None,1208.165037118128,None,1,0.985390354574065,1208.165037118128,None,1209.2154347346059,None,1209.2154347346059,None,1209.7321001054297,None,1209.7321001054297,None,1209.7321001054297,None,n,0.40229924022150954,1209.7321001054297,None,sing42,001,2019_Nov_18_1450,ProdFawcett_Revision2019,3.2.4,59.95051683236893,
,,,,108,0,108,0,,,,,,,,,,,,,1212.5163232682612,None,,,,,,,,,,,,,,,,,,,,,,brilliant,A_silent,108,30,1210.7016013509942,None,1210.7016013509942,None,1210.7016013509942,None,1,0.7127439424521071,1210.7016013509942,None,1211.4661091431576,None,1211.4661091431576,None,1211.983343648244,None,1211.983343648244,None,1211.983343648244,None,n,0.48687228067319666,1211.983343648244,None,sing42,001,2019_Nov_18_1450,ProdFawcett_Revision2019,3.2.4,59.95051683236893,
,,,,109,0,109,0,,,,,,,,,,,,,1217.7513642117178,None,,,,,,,,,,,,,,,,,,,,,,hunger,D_new,109,155,1213.0330968678954,None,1213.0330968678954,None,1213.0330968678954,None,1,2.925785825136245,1213.0330968678954,None,1216.0065179868197,None,1216.0065179868197,None,1216.5343026239266,None,1216.5343026239266,None,1216.5343026239266,None,n,1.1760537536424636,1216.5343026239266,None,sing42,001,2019_Nov_18_1450,ProdFawcett_Revision2019,3.2.4,59.95051683236893,
,,,,110,0,110,0,,,,,,,,,,,,,1220.1521955209441,None,,,,,,,,,,,,,,,,,,,,,,sweet,B_aloud,110,319,1218.2681468304195,None,1218.2681468304195,None,1218.2681468304195,None,1,0.6500629779716292,1218.2681468304195,None,1218.9574032549503,None,1218.9574032549503,None,1219.4851023664164,None,1219.4851023664164,None,1219.4851023664164,None,n,0.633073542720922,1219.4851023664164,None,sing42,001,2019_Nov_18_1450,ProdFawcett_Revision2019,3.2.4,59.95051683236893,
,,,,111,0,111,0,,,,,,,,,,,,,1223.6868362044029,None,,,,,,,,,,,,,,,,,,,,,,beauty,C_sing,111,18,1220.6688279255209,None,1220.6688279255209,None,1220.6688279255209,None,6,1.7769519283697264,1220.6688279255209,None,1222.4893347971174,None,1222.4893347971174,None,1223.0194886499698,None,1223.0194886499698,None,1223.0194886499698,None,r,0.6342102562348373,1223.0194886499698,None,sing42,001,2019_Nov_18_1450,ProdFawcett_Revision2019,3.2.4,59.95051683236893,
,,,,112,0,112,0,,,,,,,,,,,,,1227.037442192442,None,,,,,,,,,,,,,,,,,,,,,,budget,B_aloud,112,34,1224.2046302026802,None,1224.2046302026802,None,1224.2046302026802,None,6,1.7527273349278403,1224.2046302026802,None,1226.020500962552,None,1226.020500962552,None,1226.537283581254,None,1226.537283581254,None,1226.537283581254,None,r,0.4603030406697144,1226.537283581254,None,sing42,001,2019_Nov_18_1450,ProdFawcett_Revision2019,3.2.4,59.95051683236893,
,,,,113,0,113,0,,,,,,,,,,,,,1229.8384591700592,None,,,,,,,,,,,,,,,,,,,,,,fight,D_new,113,127,1227.5542851455957,None,1227.5542851455957,None,1227.5542851455957,None,1,1.1869139549858119,1227.5542851455957,None,1228.7901063938966,None,1228.7901063938966,None,1229.321638609073,None,1229.321638609073,None,1229.321638609073,None,n,0.4675235817517205,1229.321638609073,None,sing42,001,2019_Nov_18_1450,ProdFawcett_Revision2019,3.2.4,59.95051683236893,
,,,,114,0,114,0,,,,,,,,,,,,,1233.055979486286,None,,,,,,,,,,,,,,,,,,,,,,novel,B_aloud,114,202,1230.3555067627453,None,1230.3555067627453,None,1230.3555067627453,None,6,1.7937612932719276,1230.3555067627453,None,1232.1890592490536,None,1232.1890592490536,None,1232.7057977054246,None,1232.7057977054246,None,1232.7057977054246,None,r,0.30773649394677705,1232.7057977054246,None,sing42,001,2019_Nov_18_1450,ProdFawcett_Revision2019,3.2.4,59.95051683236893,
,,,,115,0,115,0,,,,,,,,,,,,,1235.8735486298792,None,,,,,,,,,,,,,,,,,,,,,,territory,C_sing,115,324,1233.573499491511,None,1233.573499491511,None,1233.573499491511,None,6,1.4240479441191383,1233.573499491511,None,1235.056613620036,None,1235.056613620036,None,1235.573401214775,None,1235.573401214775,None,1235.573401214775,None,r,0.2560074764960518,1235.573401214775,None,sing42,001,2019_Nov_18_1450,ProdFawcett_Revision2019,3.2.4,59.95051683236893,
,,,,116,0,116,0,,,,,,,,,,,,,1238.407919363316,None,,,,,,,,,,,,,,,,,,,,,,safety,D_new,116,270,1236.39053806513,None,1236.39053806513,None,1236.39053806513,None,1,1.0944302592829445,1236.39053806513,None,1237.5406218802577,None,1237.5406218802577,None,1238.0575307659055,None,1238.0575307659055,None,1238.0575307659055,None,n,0.32356340248998094,1238.0575307659055,None,sing42,001,2019_Nov_18_1450,ProdFawcett_Revision2019,3.2.4,59.95051683236893,
,,,,117,0,117,0,,,,,,,,,,,,,1240.9751033305238,None,,,,,,,,,,,,,,,,,,,,,,victory,C_sing,117,346,1238.924469041273,None,1238.924469041273,None,1238.924469041273,None,6,1.2725627524946503,1238.924469041273,None,1240.2293978061894,None,1240.2293978061894,None,1240.7417819189463,None,1240.7417819189463,None,1240.7417819189463,None,r,0.19135942228194835,1240.7417819189463,None,sing42,001,2019_Nov_18_1450,ProdFawcett_Revision2019,3.2.4,59.95051683236893,
,,,,118,0,118,0,,,,,,,,,,,,,1244.1261055355303,None,,,,,,,,,,,,,,,,,,,,,,welcome,C_sing,118,354,1241.4919907570106,None,1241.4919907570106,None,1241.4919907570106,None,6,1.720351059429504,1241.4919907570106,None,1243.259206135454,None,1243.259206135454,None,1243.7758572001703,None,1243.7758572001703,None,1243.7758572001703,None,r,0.3091384924473459,1243.7758572001703,None,sing42,001,2019_Nov_18_1450,ProdFawcett_Revision2019,3.2.4,59.95051683236893,
,,,,119,0,119,0,,,,,,,,,,,,,1247.3270544036372,None,,,,,,,,,,,,,,,,,,,,,,worker,C_sing,119,356,1244.6428887762368,None,1244.6428887762368,None,1244.6428887762368,None,1,1.8012971907160136,1244.6428887762368,None,1246.5100344901584,None,1246.5100344901584,None,1247.0268746442912,None,1247.0268746442912,None,1247.0268746442912,None,n,0.26551948274072856,1247.0268746442912,None,sing42,001,2019_Nov_18_1450,ProdFawcett_Revision2019,3.2.4,59.95051683236893,
,,,,120,0,120,0,,,,,,,,,,,,,1249.9779309637029,None,,,,,,,,,,,,,,,,,,,,,,measure,D_new,120,184,1247.8443392911013,None,1247.8443392911013,None,1247.8443392911013,None,1,1.2243088750738025,1247.8443392911013,None,1249.1276515281097,None,1249.1276515281097,None,1249.6444512519397,None,1249.6444512519397,None,1249.6444512519397,None,n,0.2874535440269028,1249.6444512519397,None,sing42,001,2019_Nov_18_1450,ProdFawcett_Revision2019,3.2.4,59.95051683236893,
,,,,121,0,121,0,,,,,,,,,,,,,1253.2292348409687,None,,,,,,,,,,,,,,,,,,,,,,people,B_aloud,121,216,1250.4965385440737,None,1250.4965385440737,None,1250.4965385440737,None,6,1.9633875617728336,1250.4965385440737,None,1252.5005905934236,None,1252.5005905934236,None,1253.0121091866977,None,1253.0121091866977,None,1253.0121091866977,None,r,0.1998494748727353,1253.0121091866977,None,sing42,001,2019_Nov_18_1450,ProdFawcett_Revision2019,3.2.4,59.95051683236893,
,,,,122,0,122,0,,,,,,,,,,,,,1256.9967270114853,None,,,,,,,,,,,,,,,,,,,,,,surprise,D_new,122,317,1253.7458274372475,None,1253.7458274372475,None,1253.7458274372475,None,1,1.153740269514401,1253.7458274372475,None,1254.9502545554064,None,1254.9502545554064,None,1255.4629300773463,None,1255.4629300773463,None,1255.4629300773463,None,n,1.4931955800348078,1255.4629300773463,None,sing42,001,2019_Nov_18_1450,ProdFawcett_Revision2019,3.2.4,59.95051683236893,
,,,,123,0,123,0,,,,,,,,,,,,,1261.9482358392866,None,,,,,,,,,,,,,,,,,,,,,,weight,D_new,123,353,1257.513506520164,None,1257.513506520164,None,1257.513506520164,None,1,3.7377233385477666,1257.513506520164,None,1261.3038461658075,None,1261.3038461658075,None,1261.831473746738,None,1261.831473746738,None,1261.831473746738,None,n,0.08372960213455372,1261.831473746738,None,sing42,001,2019_Nov_18_1450,ProdFawcett_Revision2019,3.2.4,59.95051683236893,
,,,,124,0,124,0,,,,,,,,,,,,,1264.532966246917,None,,,,,,,,,,,,,,,,,,,,,,express,C_sing,124,124,1262.4655067316453,None,1262.4655067316453,None,1262.4655067316453,None,1,1.1221029355510836,1262.4655067316453,None,1263.6487166488878,None,1263.6487166488878,None,1264.1655978553276,None,1264.1655978553276,None,1264.1655978553276,None,n,0.3500735520510716,1264.1655978553276,None,sing42,001,2019_Nov_18_1450,ProdFawcett_Revision2019,3.2.4,59.95051683236893,
,,,,125,0,125,0,,,,,,,,,,,,,1267.583324055097,None,,,,,,,,,,,,,,,,,,,,,,discussion,A_silent,125,96,1265.0350540055542,None,1265.0350540055542,None,1265.0350540055542,None,6,1.8564341716919444,1265.0350540055542,None,1266.9333400717169,None,1266.9333400717169,None,1267.4499360890213,None,1267.4499360890213,None,1267.4499360890213,None,r,0.08961687623059333,1267.4499360890213,None,sing42,001,2019_Nov_18_1450,ProdFawcett_Revision2019,3.2.4,59.95051683236893,
,,,,126,0,126,0,,,,,,,,,,,,,1271.2515753822995,None,,,,,,,,,,,,,,,,,,,,,,beginning,C_sing,126,19,1268.1009830783632,None,1268.1009830783632,None,1268.1009830783632,None,6,2.4779884991339713,1268.1009830783632,None,1270.6343287481222,None,1270.6343287481222,None,1271.1510183771275,None,1271.1510183771275,None,1271.1510183771275,None,r,0.0675767631501003,1271.1510183771275,None,sing42,001,2019_Nov_18_1450,ProdFawcett_Revision2019,3.2.4,59.95051683236893,
,,,,127,0,127,0,,,,,,,,,,,,,1275.0359748834517,None,,,,,,,,,,,,,,,,,,,,,,listen,D_new,127,172,1271.7697068181042,None,1271.7697068181042,None,1271.7697068181042,None,1,1.8091042821911287,1271.7697068181042,None,1273.6351326891436,None,1273.6351326891436,None,1274.151949518102,None,1274.151949518102,None,1274.151949518102,None,n,0.8426838257018971,1274.151949518102,None,sing42,001,2019_Nov_18_1450,ProdFawcett_Revision2019,3.2.4,59.95051683236893,
,,,,128,0,128,0,,,,,,,,,,,,,1278.4366015531455,None,,,,,,,,,,,,,,,,,,,,,,sleep,B_aloud,128,290,1275.5525469535764,None,1275.5525469535764,None,1275.5525469535764,None,6,2.025787069144826,1275.5525469535764,None,1277.6198192454463,None,1277.6198192454463,None,1278.1207830416647,None,1278.1207830416647,None,1278.1207830416647,None,r,0.2741342472654651,1278.1207830416647,None,sing42,001,2019_Nov_18_1450,ProdFawcett_Revision2019,3.2.4,59.95051683236893,
,,,,129,0,129,0,,,,,,,,,,,,,1281.137414824237,None,,,,,,,,,,,,,,,,,,,,,,store,D_new,129,305,1278.9535331419634,None,1278.9535331419634,None,1278.9535331419634,None,1,1.2888533655118408,1278.9535331419634,None,1280.2929386921105,None,1280.2929386921105,None,1280.8233550309292,None,1280.8233550309292,None,1280.8233550309292,None,n,0.2749114420867045,1280.8233550309292,None,sing42,001,2019_Nov_18_1450,ProdFawcett_Revision2019,3.2.4,59.95051683236893,
,,,,130,0,130,0,,,,,,,,,,,,,1284.08833243661,None,,,,,,,,,,,,,,,,,,,,,,plane,D_new,130,223,1281.6416332598328,None,1281.6416332598328,None,1281.6416332598328,None,1,1.4642900905328133,1281.6416332598328,None,1283.162300297629,None,1283.162300297629,None,1283.6881968395942,None,1283.6881968395942,None,1283.6881968395942,None,n,0.3536482128251919,1283.6881968395942,None,sing42,001,2019_Nov_18_1450,ProdFawcett_Revision2019,3.2.4,59.95051683236893,
,,,,131,0,131,0,,,,,,,,,,,,,1287.7728149753839,None,,,,,,,,,,,,,,,,,,,,,,voice,D_new,131,348,1284.5889376471428,None,1284.5889376471428,None,1284.5889376471428,None,6,1.7491999465078152,1284.5889376471428,None,1286.3792533456076,None,1286.3792533456076,None,1286.889264199589,None,1286.889264199589,None,1286.889264199589,None,r,0.841013121188098,1286.889264199589,None,sing42,001,2019_Nov_18_1450,ProdFawcett_Revision2019,3.2.4,59.95051683236893,
,,,,132,0,132,0,,,,,,,,,,,,,1290.6236803393658,None,,,,,,,,,,,,,,,,,,,,,,grade,B_aloud,132,140,1288.2896597945519,None,1288.2896597945519,None,1288.2896597945519,None,1,1.4563797462842558,1288.2896597945519,None,1289.7977489651398,None,1289.7977489651398,None,1290.2905582802814,None,1290.2905582802814,None,1290.2905582802814,None,n,0.28689187381996817,1290.2905582802814,None,sing42,001,2019_Nov_18_1450,ProdFawcett_Revision2019,3.2.4,59.95051683236893,
,,,,133,0,133,0,,,,,,,,,,,,,1293.1418462964289,None,,,,,,,,,,,,,,,,,,,,,,degree,B_aloud,133,89,1291.140369035364,None,1291.140369035364,None,1291.140369035364,None,6,1.3733670045185136,1291.140369035364,None,1292.5462504004154,None,1292.5462504004154,None,1293.074671037286,None,1293.074671037286,None,1293.074671037286,None,r,0.046756090202961786,1293.074671037286,None,sing42,001,2019_Nov_18_1450,ProdFawcett_Revision2019,3.2.4,59.95051683236893,
,,,,134,0,134,0,,,,,,,,,,,,,1296.1919801829313,None,,,,,,,,,,,,,,,,,,,,,,education,C_sing,134,108,1293.6589567115857,None,1293.6589567115857,None,1293.6589567115857,None,1,1.6622399631773987,1293.6589567115857,None,1295.3646735564048,None,1295.3646735564048,None,1295.8752992619916,None,1295.8752992619916,None,1295.8752992619916,None,n,0.2697814586631466,1295.8752992619916,None,sing42,001,2019_Nov_18_1450,ProdFawcett_Revision2019,3.2.4,59.95051683236893,
,,,,135,0,135,0,,,,,,,,,,,,,1307.4954708730766,None,,,,,,,,,,,,,,,,,,,,,,device,A_silent,135,93,1296.7088934226117,None,1296.7088934226117,None,1296.7088934226117,None,6,8.852027268684196,1296.7088934226117,None,1305.5998591159446,None,1305.5998591159446,None,1306.111689333553,None,1306.111689333553,None,1306.111689333553,None,n,1.33672035603513,1306.111689333553,None,sing42,001,2019_Nov_18_1450,ProdFawcett_Revision2019,3.2.4,59.95051683236893,
,,,,136,0,136,0,,,,,,,,,,,,,1310.4676912120071,None,,,,,,,,,,,,,,,,,,,,,,impact,D_new,136,157,1308.0123309313585,None,1308.0123309313585,None,1308.0123309313585,None,1,1.10864337673911,1308.0123309313585,None,1309.179386765607,None,1309.179386765607,None,1309.696619404679,None,1309.696619404679,None,1309.696619404679,None,n,0.735480389748318,1309.696619404679,None,sing42,001,2019_Nov_18_1450,ProdFawcett_Revision2019,3.2.4,59.95051683236893,
,,,,137,0,137,0,,,,,,,,,,,,,1313.182086265826,None,,,,,,,,,,,,,,,,,,,,,,appeal,D_new,137,9,1310.9812437605156,None,1310.9812437605156,None,1310.9812437605156,None,1,1.2508899331655812,1310.9812437605156,None,1312.297116697404,None,1312.297116697404,None,1312.813865416852,None,1312.813865416852,None,1312.813865416852,None,n,0.3387661293581914,1312.813865416852,None,sing42,001,2019_Nov_18_1450,ProdFawcett_Revision2019,3.2.4,59.95051683236893,
,,,,138,0,138,0,,,,,,,,,,,,,1316.1481680407787,None,,,,,,,,,,,,,,,,,,,,,,exchange,D_new,138,121,1313.6825770275018,None,1313.6825770275018,None,1313.6825770275018,None,6,1.6059519625805478,1313.6825770275018,None,1315.3345554688203,None,1315.3345554688203,None,1315.8649848697364,None,1315.8649848697364,None,1315.8649848697364,None,r,0.24706118348831296,1315.8649848697364,None,sing42,001,2019_Nov_18_1450,ProdFawcett_Revision2019,3.2.4,59.95051683236893,
,,,,139,0,139,0,,,,,,,,,,,,,1318.8659999813399,None,,,,,,,,,,,,,,,,,,,,,,present,D_new,139,231,1316.665027788058,None,1316.665027788058,None,1316.665027788058,None,1,1.2388721811526011,1316.665027788058,None,1317.9652619728122,None,1317.9652619728122,None,1318.4821201650798,None,1318.4821201650798,None,1318.4821201650798,None,n,0.3507465610914551,1318.4821201650798,None,sing42,001,2019_Nov_18_1450,ProdFawcett_Revision2019,3.2.4,59.95051683236893,
,,,,140,0,140,0,,,,,,,,,,,,,1323.6672523877205,None,,,,,,,,,,,,,,,,,,,,,,column,D_new,140,57,1319.3824868368265,None,1319.3824868368265,None,1319.3824868368265,None,1,3.353021854133658,1319.3824868368265,None,1322.7834643171477,None,1322.7834643171477,None,1323.300250356875,None,1323.300250356875,None,1323.300250356875,None,n,0.3313219776018741,1323.300250356875,None,sing42,001,2019_Nov_18_1450,ProdFawcett_Revision2019,3.2.4,59.95051683236893,
,,,,141,0,141,0,,,,,,,,,,,,,1326.301179320833,None,,,,,,,,,,,,,,,,,,,,,,display,D_new,141,98,1324.1854136797483,None,1324.1854136797483,None,1324.1854136797483,None,1,1.1018361577530413,1324.1854136797483,None,1325.3389465107093,None,1325.3389465107093,None,1325.8509854108806,None,1325.8509854108806,None,1325.8509854108806,None,n,0.40428032505951705,1325.8509854108806,None,sing42,001,2019_Nov_18_1450,ProdFawcett_Revision2019,3.2.4,59.95051683236893,
,,,,142,0,142,0,,,,,,,,,,,,,1328.8205000295452,None,,,,,,,,,,,,,,,,,,,,,,stand,C_sing,142,302,1326.8180020588352,None,1326.8180020588352,None,1326.8180020588352,None,1,0.9896768996800347,1326.8180020588352,None,1327.8683010875752,None,1327.8683010875752,None,1328.3852420064627,None,1328.3852420064627,None,1328.3852420064627,None,n,0.4063089932542425,1328.3852420064627,None,sing42,001,2019_Nov_18_1450,ProdFawcett_Revision2019,3.2.4,59.95051683236893,
,,,,143,0,143,0,,,,,,,,,,,,,1331.3360834232649,None,,,,,,,,,,,,,,,,,,,,,,title,D_new,143,331,1329.3527643442048,None,1329.3527643442048,None,1329.3527643442048,None,1,0.9826479360331177,1329.3527643442048,None,1330.374629673976,None,1330.374629673976,None,1330.886020134291,None,1330.886020134291,None,1330.886020134291,None,n,0.4009106148205319,1330.886020134291,None,sing42,001,2019_Nov_18_1450,ProdFawcett_Revision2019,3.2.4,59.95051683236893,
,,,,144,0,144,0,,,,,,,,,,,,,1334.903932313453,None,,,,,,,,,,,,,,,,,,,,,,clean,D_new,144,51,1331.8530181221058,None,1331.8530181221058,None,1331.8530181221058,None,1,2.177643286548573,1331.8530181221058,None,1334.0574399532252,None,1334.0574399532252,None,1334.5872330433754,None,1334.5872330433754,None,1334.5872330433754,None,n,0.2757642104743354,1334.5872330433754,None,sing42,001,2019_Nov_18_1450,ProdFawcett_Revision2019,3.2.4,59.95051683236893,
,,,,145,0,145,0,,,,,,,,,,,,,1337.254854901863,None,,,,,,,,,,,,,,,,,,,,,,background,D_new,145,16,1335.4229370437984,None,1335.4229370437984,None,1335.4229370437984,None,1,1.048098376256803,1335.4229370437984,None,1336.511044625724,None,1336.511044625724,None,1337.0380141257256,None,1337.0380141257256,None,1337.0380141257256,None,n,0.1769382442676033,1337.0380141257256,None,sing42,001,2019_Nov_18_1450,ProdFawcett_Revision2019,3.2.4,59.95051683236893,
,,,,146,0,146,0,,,,,,,,,,,,,1340.222043534106,None,,,,,,,,,,,,,,,,,,,,,,emergency,C_sing,146,110,1337.7714801533862,None,1337.7714801533862,None,1337.7714801533862,None,6,1.611308666701916,1337.7714801533862,None,1339.4388345498705,None,1339.4388345498705,None,1339.9553960459161,None,1339.9553960459161,None,1339.9553960459161,None,r,0.22735700890370936,1339.9553960459161,None,sing42,001,2019_Nov_18_1450,ProdFawcett_Revision2019,3.2.4,59.95051683236893,
,,,,147,0,147,0,,,,,,,,,,,,,1342.6564948171463,None,,,,,,,,,,,,,,,,,,,,,,suggestion,C_sing,147,314,1340.7402312613322,None,1340.7402312613322,None,1340.7402312613322,None,1,1.0662512712219723,1340.7402312613322,None,1341.8559891273585,None,1341.8559891273585,None,1342.356058480878,None,1342.356058480878,None,1342.356058480878,None,n,0.2589234343363387,1342.356058480878,None,sing42,001,2019_Nov_18_1450,ProdFawcett_Revision2019,3.2.4,59.95051683236893,
,,,,148,0,148,0,,,,,,,,,,,,,1344.756877972016,None,,,,,,,,,,,,,,,,,,,,,,drove,D_new,148,106,1343.1731325087626,None,1343.1731325087626,None,1343.1731325087626,None,1,0.7130306865997227,1343.1731325087626,None,1343.9123763376988,None,1343.9123763376988,None,1344.4297610569101,None,1344.4297610569101,None,1344.4297610569101,None,n,0.2803738870006782,1344.4297610569101,None,sing42,001,2019_Nov_18_1450,ProdFawcett_Revision2019,3.2.4,59.95051683236893,
,,,,149,0,149,0,,,,,,,,,,,,,1347.8245443038368,None,,,,,,,,,,,,,,,,,,,,,,income,B_aloud,149,159,1345.2739380047956,None,1345.2739380047956,None,1345.2739380047956,None,6,1.9482386383069752,1345.2739380047956,None,1347.2576697839468,None,1347.2576697839468,None,1347.7746215879156,None,1347.7746215879156,None,1347.7746215879156,None,r,0.015856764766795095,1347.7746215879156,None,sing42,001,2019_Nov_18_1450,ProdFawcett_Revision2019,3.2.4,59.95051683236893,
,,,,150,0,150,0,,,,,,,,,,,,,1350.008484143546,None,,,,,,,,,,,,,,,,,,,,,,birth,D_new,150,22,1348.342024811766,None,1348.342024811766,None,1348.342024811766,None,1,0.7118404806851686,1348.342024811766,None,1349.0917571942614,None,1349.0917571942614,None,1349.5976167891495,None,1349.5976167891495,None,1349.5976167891495,None,n,0.36873151479903754,1349.5976167891495,None,sing42,001,2019_Nov_18_1450,ProdFawcett_Revision2019,3.2.4,59.95051683236893,
,,,,151,0,151,0,,,,,,,,,,,,,1352.460040865706,None,,,,,,,,,,,,,,,,,,,,,,nation,D_new,151,198,1350.5253286517113,None,1350.5253286517113,None,1350.5253286517113,None,1,0.857061463390437,1350.5253286517113,None,1351.4293922081474,None,1351.4293922081474,None,1351.9282088442842,None,1351.9282088442842,None,1351.9282088442842,None,n,0.5015391505280604,1351.9282088442842,None,sing42,001,2019_Nov_18_1450,ProdFawcett_Revision2019,3.2.4,59.95051683236893,
,,,,152,0,152,0,,,,,,,,,,,,,1354.7644944190629,None,,,,,,,,,,,,,,,,,,,,,,harmony,D_new,152,148,1352.9764226024054,None,1352.9764226024054,None,1352.9764226024054,None,1,0.7416948382942792,1352.9764226024054,None,1353.75986514939,None,1353.75986514939,None,1354.2604756469623,None,1354.2604756469623,None,1354.2604756469623,None,n,0.47368484889966567,1354.2604756469623,None,sing42,001,2019_Nov_18_1450,ProdFawcett_Revision2019,3.2.4,59.95051683236893,
,,,,153,0,153,0,,,,,,,,,,,,,1357.277385465617,None,,,,,,,,,,,,,,,,,,,,,,payment,B_aloud,153,215,1355.2940135161612,None,1355.2940135161612,None,1355.2940135161612,None,1,1.1034045424999022,1355.2940135161612,None,1356.460482800016,None,1356.460482800016,None,1356.977478766316,None,1356.977478766316,None,1356.977478766316,None,n,0.2602492372670895,1356.977478766316,None,sing42,001,2019_Nov_18_1450,ProdFawcett_Revision2019,3.2.4,59.95051683236893,
