StudyTrials.thisRepN,StudyTrials.thisTrialN,StudyTrials.thisN,StudyTrials.thisIndex,TestTrials.thisRepN,TestTrials.thisTrialN,TestTrials.thisN,TestTrials.thisIndex,textWelcome.started,textWelcome.stopped,keyWelcome.keys,keyWelcome.rt,keyWelcome.started,keyWelcome.stopped,textReady.started,textReady.stopped,keyReady.keys,keyReady.rt,keyReady.started,keyReady.stopped,polyback_2.started,polyback_2.stopped,studyPic,studyWord,studyType,studyN,studyOrder,polyback_3.started,polyback_3.stopped,studyPicChoice.started,studyPicChoice.stopped,polyback_4.started,polyback_4.stopped,polyback.started,polyback.stopped,studyWords.started,studyWords.stopped,getResearcher.started,getResearcher.stopped,kPress2.keys,kPress2.rt,kPress2.started,kPress2.stopped,testWord,testType,testN,testOrder,polyback_5.started,polyback_5.stopped,testWords.started,testWords.stopped,textScale.started,textScale.stopped,keyConf.keys,keyConf.rt,keyConf.started,keyConf.stopped,polyback_6.started,polyback_6.stopped,studyWords_2.started,studyWords_2.stopped,polyback_7.started,polyback_7.stopped,testWords_2.started,testWords_2.stopped,textScale_2.started,textScale_2.stopped,keyRKN.keys,keyRKN.rt,keyRKN.started,keyRKN.stopped,participant,session,date,expName,psychopyVersion,frameRate,
,,,,,,,,11.505885426377063,None,space,215.05391211046663,11.505885426377063,None,,,,,,,,,,,,,,,,,,,,,,,,,,,,,,,,,,,,,,,,,,,,,,,,,,,,,,,,,,sing5,001,2019_Oct_24_1259,ProdFawcett_Revision2019,3.2.4,59.977727996596286,
,,,,,,,,,,,,,,226.58871773340798,None,space,17.27383093860408,226.58871773340798,None,,,,,,,,,,,,,,,,,,,,,,,,,,,,,,,,,,,,,,,,,,,,,,,,,,,,sing5,001,2019_Oct_24_1259,ProdFawcett_Revision2019,3.2.4,59.977727996596286,
0,0,0,0,,,,,,,,,,,,,,,,,248.67887696709658,None,materials/speakPic.jpg,passage,B_aloud,0,212,245.03423493188166,None,245.03423493188166,None,245.929054238979,None,246.19467344653094,None,246.19467344653094,None,,,,,,,,,,,,,,,,,,,,,,,,,,,,,,,,,,,sing5,001,2019_Oct_24_1259,ProdFawcett_Revision2019,3.2.4,59.977727996596286,
1,0,1,0,,,,,,,,,,,,,,,,,252.94687286185217,None,materials/readPic.jpg,range,A_silent,1,251,249.3154195434472,None,249.3154195434472,None,250.19614573614672,None,250.46268737947685,None,250.46268737947685,None,,,,,,,,,,,,,,,,,,,,,,,,,,,,,,,,,,,sing5,001,2019_Oct_24_1259,ProdFawcett_Revision2019,3.2.4,59.977727996596286,
2,0,2,0,,,,,,,,,,,,,,,,,257.2149297132564,None,materials/speakPic.jpg,volume,B_aloud,2,349,253.5481028798822,None,253.5481028798822,None,254.4641120855813,None,254.73067456614808,None,254.73067456614808,None,,,,,,,,,,,,,,,,,,,,,,,,,,,,,,,,,,,sing5,001,2019_Oct_24_1259,ProdFawcett_Revision2019,3.2.4,59.977727996596286,
3,0,3,0,,,,,,,,,,,,,,,,,261.4828546992503,None,materials/readPic.jpg,burden,A_silent,3,36,257.8327601542551,None,257.8327601542551,None,258.7321197984711,None,258.99866268581536,None,258.99866268581536,None,,,,,,,,,,,,,,,,,,,,,,,,,,,,,,,,,,,sing5,001,2019_Oct_24_1259,ProdFawcett_Revision2019,3.2.4,59.977727996596286,
4,0,4,0,,,,,,,,,,,,,,,,,265.75085588106595,None,materials/readPic.jpg,vision,A_silent,4,347,262.06603937302134,None,262.06603937302134,None,263.0001160042302,None,263.26666542264866,None,263.26666542264866,None,,,,,,,,,,,,,,,,,,,,,,,,,,,,,,,,,,,sing5,001,2019_Oct_24_1259,ProdFawcett_Revision2019,3.2.4,59.977727996596286,
5,0,5,0,,,,,,,,,,,,,,,,,270.0192753623123,None,materials/singPic.jpg,block,C_sing,5,25,266.48561329850054,None,266.48561329850054,None,267.2681908938248,None,267.5346131119004,None,267.5346131119004,None,,,,,,,,,,,,,,,,,,,,,,,,,,,,,,,,,,,sing5,001,2019_Oct_24_1259,ProdFawcett_Revision2019,3.2.4,59.977727996596286,
6,0,6,0,,,,,,,,,,,,,,,,,274.28683678546804,None,materials/speakPic.jpg,machinery,B_aloud,6,175,270.6243148597423,None,270.6243148597423,None,271.5361522672174,None,271.80263139889576,None,271.80263139889576,None,,,,,,,,,,,,,,,,,,,,,,,,,,,,,,,,,,,sing5,001,2019_Oct_24_1259,ProdFawcett_Revision2019,3.2.4,59.977727996596286,
7,0,7,0,,,,,,,,,,,,,,,,,278.5549623685947,None,materials/readPic.jpg,pattern,A_silent,7,214,274.8932104870328,None,274.8932104870328,None,275.80416557815624,None,276.0706160975242,None,276.0706160975242,None,,,,,,,,,,,,,,,,,,,,,,,,,,,,,,,,,,,sing5,001,2019_Oct_24_1259,ProdFawcett_Revision2019,3.2.4,59.977727996596286,
8,0,8,0,,,,,,,,,,,,,,,,,282.82283292902866,None,materials/speakPic.jpg,track,B_aloud,8,334,279.1471928842366,None,279.1471928842366,None,280.0719447036099,None,280.3385945760965,None,280.3385945760965,None,,,,,,,,,,,,,,,,,,,,,,,,,,,,,,,,,,,sing5,001,2019_Oct_24_1259,ProdFawcett_Revision2019,3.2.4,59.977727996596286,
9,0,9,0,,,,,,,,,,,,,,,,,287.09077315419563,None,materials/readPic.jpg,heavy,A_silent,9,151,283.4238091683801,None,283.4238091683801,None,284.3400354543701,None,284.60663059027866,None,284.60663059027866,None,,,,,,,,,,,,,,,,,,,,,,,,,,,,,,,,,,,sing5,001,2019_Oct_24_1259,ProdFawcett_Revision2019,3.2.4,59.977727996596286,
10,0,10,0,,,,,,,,,,,,,,,,,291.3587622068735,None,materials/singPic.jpg,watch,C_sing,10,351,287.7148830627557,None,287.7148830627557,None,288.6080910617602,None,288.87455122223764,None,288.87455122223764,None,,,,,,,,,,,,,,,,,,,,,,,,,,,,,,,,,,,sing5,001,2019_Oct_24_1259,ProdFawcett_Revision2019,3.2.4,59.977727996596286,
11,0,11,0,,,,,,,,,,,,,,,,,295.62676743173506,None,materials/speakPic.jpg,blind,B_aloud,11,24,291.96010263108474,None,291.96010263108474,None,292.8761049947061,None,293.1425480500038,None,293.1425480500038,None,,,,,,,,,,,,,,,,,,,,,,,,,,,,,,,,,,,sing5,001,2019_Oct_24_1259,ProdFawcett_Revision2019,3.2.4,59.977727996596286,
12,0,12,0,,,,,,,,,,,,,,,,,299.89475368538115,None,materials/singPic.jpg,broad,C_sing,12,31,296.2443058406352,None,296.2443058406352,None,297.14402500465803,None,297.4104235864943,None,297.4104235864943,None,,,,,,,,,,,,,,,,,,,,,,,,,,,,,,,,,,,sing5,001,2019_Oct_24_1259,ProdFawcett_Revision2019,3.2.4,59.977727996596286,
13,0,13,0,,,,,,,,,,,,,,,,,304.16274149405945,None,materials/speakPic.jpg,chief,B_aloud,13,48,300.48346737575775,None,300.48346737575775,None,301.412059152819,None,301.67853486347303,None,301.67853486347303,None,,,,,,,,,,,,,,,,,,,,,,,,,,,,,,,,,,,sing5,001,2019_Oct_24_1259,ProdFawcett_Revision2019,3.2.4,59.977727996596286,
14,0,14,0,,,,,,,,,,,,,,,,,308.4307473409135,None,materials/readPic.jpg,executive,A_silent,14,122,304.766519873112,None,304.766519873112,None,305.68004665049375,None,305.9466632456315,None,305.9466632456315,None,,,,,,,,,,,,,,,,,,,,,,,,,,,,,,,,,,,sing5,001,2019_Oct_24_1259,ProdFawcett_Revision2019,3.2.4,59.977727996596286,
15,0,15,0,,,,,,,,,,,,,,,,,312.69870902530965,None,materials/readPic.jpg,council,A_silent,15,71,309.01405143993907,None,309.01405143993907,None,309.9480752005911,None,310.2145387821074,None,310.2145387821074,None,,,,,,,,,,,,,,,,,,,,,,,,,,,,,,,,,,,sing5,001,2019_Oct_24_1259,ProdFawcett_Revision2019,3.2.4,59.977727996596286,
16,0,16,0,,,,,,,,,,,,,,,,,316.9667139391677,None,materials/singPic.jpg,motion,C_sing,16,194,313.3168398955022,None,313.3168398955022,None,314.2161193008651,None,314.48249175840465,None,314.48249175840465,None,,,,,,,,,,,,,,,,,,,,,,,,,,,,,,,,,,,sing5,001,2019_Oct_24_1259,ProdFawcett_Revision2019,3.2.4,59.977727996596286,
17,0,17,0,,,,,,,,,,,,,,,,,321.23473533619836,None,materials/readPic.jpg,public,A_silent,17,244,317.5718402065104,None,317.5718402065104,None,318.484069167127,None,318.7504948062415,None,318.7504948062415,None,,,,,,,,,,,,,,,,,,,,,,,,,,,,,,,,,,,sing5,001,2019_Oct_24_1259,ProdFawcett_Revision2019,3.2.4,59.977727996596286,
18,0,18,0,,,,,,,,,,,,,,,,,325.50269453256624,None,materials/speakPic.jpg,pretty,B_aloud,18,233,321.83612800895935,None,321.83612800895935,None,322.75203085152316,None,323.0184449835215,None,323.0184449835215,None,,,,,,,,,,,,,,,,,,,,,,,,,,,,,,,,,,,sing5,001,2019_Oct_24_1259,ProdFawcett_Revision2019,3.2.4,59.977727996596286,
19,0,19,0,,,,,,,,,,,,,,,,,329.77066896809265,None,materials/singPic.jpg,century,C_sing,19,45,326.1059012875485,None,326.1059012875485,None,327.0200115071202,None,327.2864048018819,None,327.2864048018819,None,,,,,,,,,,,,,,,,,,,,,,,,,,,,,,,,,,,sing5,001,2019_Oct_24_1259,ProdFawcett_Revision2019,3.2.4,59.977727996596286,
20,0,20,0,,,,,,,,,,,,,,,,,334.03866703987296,None,materials/speakPic.jpg,order,B_aloud,20,207,330.35566119301075,None,330.35566119301075,None,331.28799900478043,None,331.55444517011347,None,331.55444517011347,None,,,,,,,,,,,,,,,,,,,,,,,,,,,,,,,,,,,sing5,001,2019_Oct_24_1259,ProdFawcett_Revision2019,3.2.4,59.977727996596286,
21,0,21,0,,,,,,,,,,,,,,,,,338.30664116439584,None,materials/readPic.jpg,service,A_silent,21,280,334.642267525036,None,334.642267525036,None,335.5560073396773,None,335.82243702182313,None,335.82243702182313,None,,,,,,,,,,,,,,,,,,,,,,,,,,,,,,,,,,,sing5,001,2019_Oct_24_1259,ProdFawcett_Revision2019,3.2.4,59.977727996596286,
22,0,22,0,,,,,,,,,,,,,,,,,342.5746852646553,None,materials/readPic.jpg,expansion,A_silent,22,123,338.8899471294426,None,338.8899471294426,None,339.82399172731675,None,340.09040026123694,None,340.09040026123694,None,,,,,,,,,,,,,,,,,,,,,,,,,,,,,,,,,,,sing5,001,2019_Oct_24_1259,ProdFawcett_Revision2019,3.2.4,59.977727996596286,
23,0,23,0,,,,,,,,,,,,,,,,,346.8426475710585,None,materials/readPic.jpg,damage,A_silent,23,83,343.1578357280523,None,343.1578357280523,None,344.0919646078255,None,344.3584272563312,None,344.3584272563312,None,,,,,,,,,,,,,,,,,,,,,,,,,,,,,,,,,,,sing5,001,2019_Oct_24_1259,ProdFawcett_Revision2019,3.2.4,59.977727996596286,
24,0,24,0,,,,,,,,,,,,,,,,,351.110608322444,None,materials/readPic.jpg,force,A_silent,24,131,347.4138424457342,None,347.4138424457342,None,348.3599912919017,None,348.6264013808541,None,348.6264013808541,None,,,,,,,,,,,,,,,,,,,,,,,,,,,,,,,,,,,sing5,001,2019_Oct_24_1259,ProdFawcett_Revision2019,3.2.4,59.977727996596286,
25,0,25,0,,,,,,,,,,,,,,,,,355.37862349940406,None,materials/speakPic.jpg,threat,B_aloud,25,329,351.7363376251742,None,351.7363376251742,None,352.62800677986525,None,352.8845571312995,None,352.8845571312995,None,,,,,,,,,,,,,,,,,,,,,,,,,,,,,,,,,,,sing5,001,2019_Oct_24_1259,ProdFawcett_Revision2019,3.2.4,59.977727996596286,
26,0,26,0,,,,,,,,,,,,,,,,,359.64657709770836,None,materials/singPic.jpg,under,C_sing,26,343,355.9799166511075,None,355.9799166511075,None,356.8959398519655,None,357.1623626920482,None,357.1623626920482,None,,,,,,,,,,,,,,,,,,,,,,,,,,,,,,,,,,,sing5,001,2019_Oct_24_1259,ProdFawcett_Revision2019,3.2.4,59.977727996596286,
27,0,27,0,,,,,,,,,,,,,,,,,363.9145577533054,None,materials/speakPic.jpg,smell,B_aloud,27,291,360.2317111401353,None,360.2317111401353,None,361.1639861292497,None,361.4303461466625,None,361.4303461466625,None,,,,,,,,,,,,,,,,,,,,,,,,,,,,,,,,,,,sing5,001,2019_Oct_24_1259,ProdFawcett_Revision2019,3.2.4,59.977727996596286,
28,0,28,0,,,,,,,,,,,,,,,,,368.1825891024491,None,materials/singPic.jpg,incident,C_sing,28,158,364.53256173415866,None,364.53256173415866,None,365.4319555887196,None,365.6983529265417,None,365.6983529265417,None,,,,,,,,,,,,,,,,,,,,,,,,,,,,,,,,,,,sing5,001,2019_Oct_24_1259,ProdFawcett_Revision2019,3.2.4,59.977727996596286,
29,0,29,0,,,,,,,,,,,,,,,,,372.4505800211482,None,materials/readPic.jpg,citizen,A_silent,29,50,368.78425203707593,None,368.78425203707593,None,369.7000357653742,None,369.96851931330457,None,369.96851931330457,None,,,,,,,,,,,,,,,,,,,,,,,,,,,,,,,,,,,sing5,001,2019_Oct_24_1259,ProdFawcett_Revision2019,3.2.4,59.977727996596286,
30,0,30,0,,,,,,,,,,,,,,,,,376.718538595509,None,materials/singPic.jpg,frank,C_sing,30,133,373.05492504819995,None,373.05492504819995,None,373.968128071152,None,374.23432294582017,None,374.23432294582017,None,,,,,,,,,,,,,,,,,,,,,,,,,,,,,,,,,,,sing5,001,2019_Oct_24_1259,ProdFawcett_Revision2019,3.2.4,59.977727996596286,
31,0,31,0,,,,,,,,,,,,,,,,,380.98654413135955,None,materials/singPic.jpg,carry,C_sing,31,43,377.3017789388541,None,377.3017789388541,None,378.2359426509938,None,378.5023172855581,None,378.5023172855581,None,,,,,,,,,,,,,,,,,,,,,,,,,,,,,,,,,,,sing5,001,2019_Oct_24_1259,ProdFawcett_Revision2019,3.2.4,59.977727996596286,
32,0,32,0,,,,,,,,,,,,,,,,,385.2545176338899,None,materials/speakPic.jpg,produce,B_aloud,32,239,381.58813553523214,None,381.58813553523214,None,382.50394383280945,None,382.77030664925405,None,382.77030664925405,None,,,,,,,,,,,,,,,,,,,,,,,,,,,,,,,,,,,sing5,001,2019_Oct_24_1259,ProdFawcett_Revision2019,3.2.4,59.977727996596286,
33,0,33,0,,,,,,,,,,,,,,,,,389.5225125956349,None,materials/readPic.jpg,spoke,A_silent,33,300,385.85587640728045,None,385.85587640728045,None,386.7719266654167,None,387.0383019220026,None,387.0383019220026,None,,,,,,,,,,,,,,,,,,,,,,,,,,,,,,,,,,,sing5,001,2019_Oct_24_1259,ProdFawcett_Revision2019,3.2.4,59.977727996596286,
34,0,34,0,,,,,,,,,,,,,,,,,393.79023200845404,None,materials/singPic.jpg,pressure,C_sing,34,232,390.1289730671124,None,390.1289730671124,None,391.04002612427576,None,391.306316165952,None,391.306316165952,None,,,,,,,,,,,,,,,,,,,,,,,,,,,,,,,,,,,sing5,001,2019_Oct_24_1259,ProdFawcett_Revision2019,3.2.4,59.977727996596286,
35,0,35,0,,,,,,,,,,,,,,,,,398.0584676867584,None,materials/speakPic.jpg,capital,B_aloud,35,40,394.3920734589774,None,394.3920734589774,None,395.30790072774107,None,395.5742629221786,None,395.5742629221786,None,,,,,,,,,,,,,,,,,,,,,,,,,,,,,,,,,,,sing5,001,2019_Oct_24_1259,ProdFawcett_Revision2019,3.2.4,59.977727996596286,
36,0,36,0,,,,,,,,,,,,,,,,,402.32646824656695,None,materials/singPic.jpg,leader,C_sing,36,168,398.67642688311753,None,398.67642688311753,None,399.57589475647546,None,399.8422933383117,None,399.8422933383117,None,,,,,,,,,,,,,,,,,,,,,,,,,,,,,,,,,,,sing5,001,2019_Oct_24_1259,ProdFawcett_Revision2019,3.2.4,59.977727996596286,
37,0,37,0,,,,,,,,,,,,,,,,,406.59449804067845,None,materials/readPic.jpg,harmony,A_silent,37,148,402.9279576413537,None,402.9279576413537,None,403.8438564408716,None,404.1102379175136,None,404.1102379175136,None,,,,,,,,,,,,,,,,,,,,,,,,,,,,,,,,,,,sing5,001,2019_Oct_24_1259,ProdFawcett_Revision2019,3.2.4,59.977727996596286,
38,0,38,0,,,,,,,,,,,,,,,,,410.862483983321,None,materials/singPic.jpg,silence,C_sing,38,288,407.1986825900385,None,407.1986825900385,None,408.1118573116837,None,408.37824407538574,None,408.37824407538574,None,,,,,,,,,,,,,,,,,,,,,,,,,,,,,,,,,,,sing5,001,2019_Oct_24_1259,ProdFawcett_Revision2019,3.2.4,59.977727996596286,
39,0,39,0,,,,,,,,,,,,,,,,,415.1304400696681,None,materials/readPic.jpg,error,A_silent,39,117,411.467573552276,None,411.467573552276,None,412.3798298811889,None,412.6461964296759,None,412.6461964296759,None,,,,,,,,,,,,,,,,,,,,,,,,,,,,,,,,,,,sing5,001,2019_Oct_24_1259,ProdFawcett_Revision2019,3.2.4,59.977727996596286,
40,0,40,0,,,,,,,,,,,,,,,,,419.3984213472577,None,materials/speakPic.jpg,literature,B_aloud,40,173,415.72217795607867,None,415.72217795607867,None,416.6478096037754,None,416.91421627168893,None,416.91421627168893,None,,,,,,,,,,,,,,,,,,,,,,,,,,,,,,,,,,,sing5,001,2019_Oct_24_1259,ProdFawcett_Revision2019,3.2.4,59.977727996596286,
41,0,41,0,,,,,,,,,,,,,,,,,423.6664100889466,None,materials/speakPic.jpg,brief,B_aloud,41,28,419.9678335510398,None,419.9678335510398,None,420.91583286682726,None,421.18220252534957,None,421.18220252534957,None,,,,,,,,,,,,,,,,,,,,,,,,,,,,,,,,,,,sing5,001,2019_Oct_24_1259,ProdFawcett_Revision2019,3.2.4,59.977727996596286,
42,0,42,0,,,,,,,,,,,,,,,,,427.9343786154059,None,materials/readPic.jpg,orchestra,A_silent,42,206,424.2590299807198,None,424.2590299807198,None,425.1839102444501,None,425.45016887478414,None,425.45016887478414,None,,,,,,,,,,,,,,,,,,,,,,,,,,,,,,,,,,,sing5,001,2019_Oct_24_1259,ProdFawcett_Revision2019,3.2.4,59.977727996596286,
43,0,43,0,,,,,,,,,,,,,,,,,432.202374821165,None,materials/speakPic.jpg,tough,B_aloud,43,333,428.5260574112035,None,428.5260574112035,None,429.4517879579507,None,429.7181902718148,None,429.7181902718148,None,,,,,,,,,,,,,,,,,,,,,,,,,,,,,,,,,,,sing5,001,2019_Oct_24_1259,ProdFawcett_Revision2019,3.2.4,59.977727996596286,
44,0,44,0,,,,,,,,,,,,,,,,,436.4704002612416,None,materials/speakPic.jpg,cousin,B_aloud,44,76,432.77455433226714,None,432.77455433226714,None,433.719800335879,None,433.986236549099,None,433.986236549099,None,,,,,,,,,,,,,,,,,,,,,,,,,,,,,,,,,,,sing5,001,2019_Oct_24_1259,ProdFawcett_Revision2019,3.2.4,59.977727996596286,
45,0,45,0,,,,,,,,,,,,,,,,,440.7383638116589,None,materials/singPic.jpg,goose,C_sing,45,138,437.07458170056634,None,437.07458170056634,None,437.9877968526416,None,438.25416184611095,None,438.25416184611095,None,,,,,,,,,,,,,,,,,,,,,,,,,,,,,,,,,,,sing5,001,2019_Oct_24_1259,ProdFawcett_Revision2019,3.2.4,59.977727996596286,
46,0,46,0,,,,,,,,,,,,,,,,,445.0063429122383,None,materials/readPic.jpg,community,A_silent,46,63,441.329749953351,None,441.329749953351,None,442.2558804503351,None,442.5221521428175,None,442.5221521428175,None,,,,,,,,,,,,,,,,,,,,,,,,,,,,,,,,,,,sing5,001,2019_Oct_24_1259,ProdFawcett_Revision2019,3.2.4,59.977727996596286,
47,0,47,0,,,,,,,,,,,,,,,,,449.27433320893033,None,materials/readPic.jpg,platform,A_silent,47,224,445.58977763264556,None,445.58977763264556,None,446.52372986252885,None,446.79014492753777,None,446.79014492753777,None,,,,,,,,,,,,,,,,,,,,,,,,,,,,,,,,,,,sing5,001,2019_Oct_24_1259,ProdFawcett_Revision2019,3.2.4,59.977727996596286,
48,0,48,0,,,,,,,,,,,,,,,,,453.5425371648889,None,materials/speakPic.jpg,sunset,B_aloud,48,315,449.86526373079687,None,449.86526373079687,None,450.79174317348225,None,451.05811718603945,None,451.05811718603945,None,,,,,,,,,,,,,,,,,,,,,,,,,,,,,,,,,,,sing5,001,2019_Oct_24_1259,ProdFawcett_Revision2019,3.2.4,59.977727996596286,
49,0,49,0,,,,,,,,,,,,,,,,,457.8103268644627,None,materials/singPic.jpg,answer,C_sing,49,8,454.1105168874783,None,454.1105168874783,None,455.0597567954246,None,455.3260891335376,None,455.3260891335376,None,,,,,,,,,,,,,,,,,,,,,,,,,,,,,,,,,,,sing5,001,2019_Oct_24_1259,ProdFawcett_Revision2019,3.2.4,59.977727996596286,
50,0,50,0,,,,,,,,,,,,,,,,,462.0616274802451,None,materials/readPic.jpg,ground,A_silent,50,142,458.3950510045397,None,458.3950510045397,None,459.3108285127819,None,459.5774280027399,None,459.5774280027399,None,,,,,,,,,,,,,,,,,,,,,,,,,,,,,,,,,,,sing5,001,2019_Oct_24_1259,ProdFawcett_Revision2019,3.2.4,59.977727996596286,
51,0,51,0,,,,,,,,,,,,,,,,,466.3295928966836,None,materials/speakPic.jpg,month,B_aloud,51,193,462.6463177209662,None,462.6463177209662,None,463.578809790386,None,463.8454182994319,None,463.8454182994319,None,,,,,,,,,,,,,,,,,,,,,,,,,,,,,,,,,,,sing5,001,2019_Oct_24_1259,ProdFawcett_Revision2019,3.2.4,59.977727996596286,
52,0,52,0,,,,,,,,,,,,,,,,,470.5976198917633,None,materials/speakPic.jpg,strain,B_aloud,52,308,466.91281178079953,None,466.91281178079953,None,467.8467988430639,None,468.11369907320477,None,468.11369907320477,None,,,,,,,,,,,,,,,,,,,,,,,,,,,,,,,,,,,sing5,001,2019_Oct_24_1259,ProdFawcett_Revision2019,3.2.4,59.977727996596286,
53,0,53,0,,,,,,,,,,,,,,,,,474.8655831311771,None,materials/readPic.jpg,agreement,A_silent,53,5,471.19871555638383,None,471.19871555638383,None,472.11483236921777,None,472.38141568700667,None,472.38141568700667,None,,,,,,,,,,,,,,,,,,,,,,,,,,,,,,,,,,,sing5,001,2019_Oct_24_1259,ProdFawcett_Revision2019,3.2.4,59.977727996596286,
54,0,54,0,,,,,,,,,,,,,,,,,479.1336384275637,None,materials/singPic.jpg,nation,C_sing,54,198,475.4696398581873,None,475.4696398581873,None,476.3828117808007,None,476.6494168688223,None,476.6494168688223,None,,,,,,,,,,,,,,,,,,,,,,,,,,,,,,,,,,,sing5,001,2019_Oct_24_1259,ProdFawcett_Revision2019,3.2.4,59.977727996596286,
55,0,55,0,,,,,,,,,,,,,,,,,483.4017142501689,None,materials/readPic.jpg,emergency,A_silent,55,110,479.72563817875925,None,479.72563817875925,None,480.65077470921096,None,480.91736331404536,None,480.91736331404536,None,,,,,,,,,,,,,,,,,,,,,,,,,,,,,,,,,,,sing5,001,2019_Oct_24_1259,ProdFawcett_Revision2019,3.2.4,59.977727996596286,
56,0,56,0,,,,,,,,,,,,,,,,,487.6695717484545,None,materials/speakPic.jpg,government,B_aloud,56,139,484.00307084654924,None,484.00307084654924,None,484.9187833550968,None,485.1853682279034,None,485.1853682279034,None,,,,,,,,,,,,,,,,,,,,,,,,,,,,,,,,,,,sing5,001,2019_Oct_24_1259,ProdFawcett_Revision2019,3.2.4,59.977727996596286,
57,0,57,0,,,,,,,,,,,,,,,,,491.93755644709745,None,materials/speakPic.jpg,express,B_aloud,57,124,488.24159264788614,None,488.24159264788614,None,489.1867692977539,None,489.4533526155283,None,489.4533526155283,None,,,,,,,,,,,,,,,,,,,,,,,,,,,,,,,,,,,sing5,001,2019_Oct_24_1259,ProdFawcett_Revision2019,3.2.4,59.977727996596286,
58,0,58,0,,,,,,,,,,,,,,,,,496.2055451887718,None,materials/singPic.jpg,throw,C_sing,58,330,492.54136561547057,None,492.54136561547057,None,493.4547745226009,None,493.72143434720056,None,493.72143434720056,None,,,,,,,,,,,,,,,,,,,,,,,,,,,,,,,,,,,sing5,001,2019_Oct_24_1259,ProdFawcett_Revision2019,3.2.4,59.977727996596286,
59,0,59,0,,,,,,,,,,,,,,,,,500.4735283323971,None,materials/speakPic.jpg,death,B_aloud,59,86,496.8070367605833,None,496.8070367605833,None,497.7227470921207,None,497.98932605586015,None,497.98932605586015,None,,,,,,,,,,,,,,,,,,,,,,,,,,,,,,,,,,,sing5,001,2019_Oct_24_1259,ProdFawcett_Revision2019,3.2.4,59.977727996596286,
60,0,60,0,,,,,,,,,,,,,,,,,504.74155128444545,None,materials/speakPic.jpg,management,B_aloud,60,177,501.0567151831783,None,501.0567151831783,None,501.9908036325214,None,502.2572911612806,None,502.2572911612806,None,,,,,,,,,,,,,,,,,,,,,,,,,,,,,,,,,,,sing5,001,2019_Oct_24_1259,ProdFawcett_Revision2019,3.2.4,59.977727996596286,
61,0,61,0,,,,,,,,,,,,,,,,,509.00953753809154,None,materials/readPic.jpg,industry,A_silent,61,161,505.3426892455027,None,505.3426892455027,None,506.25873857062834,None,506.5253072712512,None,506.5253072712512,None,,,,,,,,,,,,,,,,,,,,,,,,,,,,,,,,,,,sing5,001,2019_Oct_24_1259,ProdFawcett_Revision2019,3.2.4,59.977727996596286,
62,0,62,0,,,,,,,,,,,,,,,,,513.2775101076113,None,materials/readPic.jpg,sleep,A_silent,62,290,509.57961217888806,None,509.57961217888806,None,510.5267095851159,None,510.7932770417392,None,510.7932770417392,None,,,,,,,,,,,,,,,,,,,,,,,,,,,,,,,,,,,sing5,001,2019_Oct_24_1259,ProdFawcett_Revision2019,3.2.4,59.977727996596286,
63,0,63,0,,,,,,,,,,,,,,,,,517.5454913852009,None,materials/singPic.jpg,build,C_sing,63,35,513.8955414567317,None,513.8955414567317,None,514.794740312238,None,515.0612869316392,None,515.0612869316392,None,,,,,,,,,,,,,,,,,,,,,,,,,,,,,,,,,,,sing5,001,2019_Oct_24_1259,ProdFawcett_Revision2019,3.2.4,59.977727996596286,
64,0,64,0,,,,,,,,,,,,,,,,,521.8137339055829,None,materials/readPic.jpg,disease,A_silent,64,97,518.1471543198277,None,518.1471543198277,None,519.062764819304,None,519.3292663432221,None,519.3292663432221,None,,,,,,,,,,,,,,,,,,,,,,,,,,,,,,,,,,,sing5,001,2019_Oct_24_1259,ProdFawcett_Revision2019,3.2.4,59.977727996596286,
65,0,65,0,,,,,,,,,,,,,,,,,526.081522361128,None,materials/singPic.jpg,position,C_sing,65,229,522.4320162343647,None,522.4320162343647,None,523.3306969583791,None,523.597265348013,None,523.597265348013,None,,,,,,,,,,,,,,,,,,,,,,,,,,,,,,,,,,,sing5,001,2019_Oct_24_1259,ProdFawcett_Revision2019,3.2.4,59.977727996596286,
66,0,66,0,,,,,,,,,,,,,,,,,530.3496320831036,None,materials/singPic.jpg,degree,C_sing,66,89,526.6646575853665,None,526.6646575853665,None,527.5987158673815,None,527.849349070093,None,527.849349070093,None,,,,,,,,,,,,,,,,,,,,,,,,,,,,,,,,,,,sing5,001,2019_Oct_24_1259,ProdFawcett_Revision2019,3.2.4,59.977727996596286,
67,0,67,0,,,,,,,,,,,,,,,,,534.6174224046699,None,materials/readPic.jpg,shock,A_silent,67,284,530.9515195621061,None,530.9515195621061,None,531.8665509734419,None,532.1217546806001,None,532.1217546806001,None,,,,,,,,,,,,,,,,,,,,,,,,,,,,,,,,,,,sing5,001,2019_Oct_24_1259,ProdFawcett_Revision2019,3.2.4,59.977727996596286,
68,0,68,0,,,,,,,,,,,,,,,,,538.8858098525816,None,materials/readPic.jpg,income,A_silent,68,159,535.1928419481264,None,535.1928419481264,None,536.1347704795626,None,536.4015139640396,None,536.4015139640396,None,,,,,,,,,,,,,,,,,,,,,,,,,,,,,,,,,,,sing5,001,2019_Oct_24_1259,ProdFawcett_Revision2019,3.2.4,59.977727996596286,
69,0,69,0,,,,,,,,,,,,,,,,,543.1533591465995,None,materials/singPic.jpg,present,C_sing,69,231,539.5036374945485,None,539.5036374945485,None,540.4024252037052,None,540.6524140075926,None,540.6524140075926,None,,,,,,,,,,,,,,,,,,,,,,,,,,,,,,,,,,,sing5,001,2019_Oct_24_1259,ProdFawcett_Revision2019,3.2.4,59.977727996596286,
70,0,70,0,,,,,,,,,,,,,,,,,547.4216116190801,None,materials/speakPic.jpg,second,B_aloud,70,278,543.7264436772966,None,543.7264436772966,None,544.6707548050035,None,544.9212185109209,None,544.9212185109209,None,,,,,,,,,,,,,,,,,,,,,,,,,,,,,,,,,,,sing5,001,2019_Oct_24_1259,ProdFawcett_Revision2019,3.2.4,59.977727996596286,
71,0,71,0,,,,,,,,,,,,,,,,,551.6896348821319,None,materials/readPic.jpg,health,A_silent,71,149,548.0463718355459,None,548.0463718355459,None,548.9395851215959,None,549.1898444983526,None,549.1898444983526,None,,,,,,,,,,,,,,,,,,,,,,,,,,,,,,,,,,,sing5,001,2019_Oct_24_1259,ProdFawcett_Revision2019,3.2.4,59.977727996596286,
72,0,72,0,,,,,,,,,,,,,,,,,555.958066181498,None,materials/singPic.jpg,store,C_sing,72,305,552.3248102879879,None,552.3248102879879,None,553.2069562107354,None,553.4574000124412,None,553.4574000124412,None,,,,,,,,,,,,,,,,,,,,,,,,,,,,,,,,,,,sing5,001,2019_Oct_24_1259,ProdFawcett_Revision2019,3.2.4,59.977727996596286,
73,0,73,0,,,,,,,,,,,,,,,,,560.2253570317844,None,materials/speakPic.jpg,marriage,B_aloud,73,179,556.5453850220802,None,556.5453850220802,None,557.4743587112025,None,557.7269580767461,None,557.7269580767461,None,,,,,,,,,,,,,,,,,,,,,,,,,,,,,,,,,,,sing5,001,2019_Oct_24_1259,ProdFawcett_Revision2019,3.2.4,59.977727996596286,
74,0,74,0,,,,,,,,,,,,,,,,,564.4771474777663,None,materials/speakPic.jpg,guide,B_aloud,74,147,560.7475374758942,None,560.7475374758942,None,561.7257243266795,None,561.9761544442299,None,561.9761544442299,None,,,,,,,,,,,,,,,,,,,,,,,,,,,,,,,,,,,sing5,001,2019_Oct_24_1259,ProdFawcett_Revision2019,3.2.4,59.977727996596286,
75,0,75,0,,,,,,,,,,,,,,,,,568.728753809788,568.728753809788,materials/readPic.jpg,birth,A_silent,75,22,565.0784238352935,None,565.0784238352935,None,565.9942284008139,None,566.2458359768643,None,566.2458359768643,None,,,,,,,,,,,,,,,,,,,,,,,,,,,,,,,,,,,sing5,001,2019_Oct_24_1259,ProdFawcett_Revision2019,3.2.4,59.977727996596286,
76,0,76,0,,,,,,,,,,,,,,,,,572.9969633638102,None,materials/singPic.jpg,oxygen,C_sing,76,209,569.3303094482835,None,569.3303094482835,None,570.2451290663594,None,570.498184051743,None,570.498184051743,None,,,,,,,,,,,,,,,,,,,,,,,,,,,,,,,,,,,sing5,001,2019_Oct_24_1259,ProdFawcett_Revision2019,3.2.4,59.977727996596286,
77,0,77,0,,,,,,,,,,,,,,,,,577.2474469739391,None,materials/singPic.jpg,candidate,C_sing,77,39,573.5301614107157,None,573.5301614107157,None,574.4965854948096,None,574.7630985258438,None,574.7630985258438,None,,,,,,,,,,,,,,,,,,,,,,,,,,,,,,,,,,,sing5,001,2019_Oct_24_1259,ProdFawcett_Revision2019,3.2.4,59.977727996596286,
78,0,78,0,,,,,,,,,,,,,,,,,581.5153038502176,None,materials/singPic.jpg,shape,C_sing,78,282,577.8362371711119,None,577.8362371711119,None,578.7643767493864,None,579.0144044286862,None,579.0144044286862,None,,,,,,,,,,,,,,,,,,,,,,,,,,,,,,,,,,,sing5,001,2019_Oct_24_1259,ProdFawcett_Revision2019,3.2.4,59.977727996596286,
79,0,79,0,,,,,,,,,,,,,,,,,585.7832356782892,None,materials/singPic.jpg,interview,C_sing,79,165,582.0667767618288,None,582.0667767618288,None,583.0325735522783,None,583.284020339619,None,583.284020339619,None,,,,,,,,,,,,,,,,,,,,,,,,,,,,,,,,,,,sing5,001,2019_Oct_24_1259,ProdFawcett_Revision2019,3.2.4,59.977727996596286,
80,0,80,0,,,,,,,,,,,,,,,,,590.0516753747506,None,materials/speakPic.jpg,collection,B_aloud,80,54,586.37266405423,None,586.37266405423,None,587.300921191767,None,587.5529700814805,None,587.5529700814805,None,,,,,,,,,,,,,,,,,,,,,,,,,,,,,,,,,,,sing5,001,2019_Oct_24_1259,ProdFawcett_Revision2019,3.2.4,59.977727996596286,
81,0,81,0,,,,,,,,,,,,,,,,,594.3202463146154,None,materials/singPic.jpg,court,C_sing,81,75,590.6935134042433,None,590.6935134042433,None,591.5694582322612,None,591.8209644212184,None,591.8209644212184,None,,,,,,,,,,,,,,,,,,,,,,,,,,,,,,,,,,,sing5,001,2019_Oct_24_1259,ProdFawcett_Revision2019,3.2.4,59.977727996596286,
82,0,82,0,,,,,,,,,,,,,,,,,598.5874012564454,None,materials/singPic.jpg,husband,C_sing,82,156,594.9033103190886,None,594.9033103190886,None,595.8365578155062,None,596.1030580954102,None,596.1030580954102,None,,,,,,,,,,,,,,,,,,,,,,,,,,,,,,,,,,,sing5,001,2019_Oct_24_1259,ProdFawcett_Revision2019,3.2.4,59.977727996596286,
83,0,83,0,,,,,,,,,,,,,,,,,602.8552229893685,None,materials/singPic.jpg,private,C_sing,83,237,599.1627047956717,None,599.1627047956717,None,600.104600049759,None,600.370991478514,None,600.370991478514,None,,,,,,,,,,,,,,,,,,,,,,,,,,,,,,,,,,,sing5,001,2019_Oct_24_1259,ProdFawcett_Revision2019,3.2.4,59.977727996596286,
84,0,84,0,,,,,,,,,,,,,,,,,607.1232310132473,None,materials/speakPic.jpg,production,B_aloud,84,240,603.4802316974528,None,603.4802316974528,None,604.3725856814126,None,604.6390617030556,None,604.6390617030556,None,,,,,,,,,,,,,,,,,,,,,,,,,,,,,,,,,,,sing5,001,2019_Oct_24_1259,ProdFawcett_Revision2019,3.2.4,59.977727996596286,
85,0,85,0,,,,,,,,,,,,,,,,,611.3912387261225,None,materials/readPic.jpg,touch,A_silent,85,332,607.7157666231215,None,607.7157666231215,None,608.6406596379966,None,608.906965851842,None,608.906965851842,None,,,,,,,,,,,,,,,,,,,,,,,,,,,,,,,,,,,sing5,001,2019_Oct_24_1259,ProdFawcett_Revision2019,3.2.4,59.977727996596286,
86,0,86,0,,,,,,,,,,,,,,,,,615.6592140946741,None,materials/speakPic.jpg,audience,B_aloud,86,14,611.9768495366006,None,611.9768495366006,None,612.9085662747966,None,613.1750009330135,None,613.1750009330135,None,,,,,,,,,,,,,,,,,,,,,,,,,,,,,,,,,,,sing5,001,2019_Oct_24_1259,ProdFawcett_Revision2019,3.2.4,59.977727996596286,
87,0,87,0,,,,,,,,,,,,,,,,,619.9273163525504,None,materials/singPic.jpg,mankind,C_sing,87,178,616.2771533868217,None,616.2771533868217,None,617.1765699446405,None,617.4429523542931,None,617.4429523542931,None,,,,,,,,,,,,,,,,,,,,,,,,,,,,,,,,,,,sing5,001,2019_Oct_24_1259,ProdFawcett_Revision2019,3.2.4,59.977727996596286,
88,0,88,0,,,,,,,,,,,,,,,,,624.1951968650828,None,materials/singPic.jpg,master,C_sing,88,180,620.4830951048061,None,620.4830951048061,None,621.4445191888954,None,621.7109498040663,None,621.7109498040663,None,,,,,,,,,,,,,,,,,,,,,,,,,,,,,,,,,,,sing5,001,2019_Oct_24_1259,ProdFawcett_Revision2019,3.2.4,59.977727996596286,
89,0,89,0,,,,,,,,,,,,,,,,,628.4631532624189,None,materials/speakPic.jpg,message,B_aloud,89,189,624.7850752628001,None,624.7850752628001,None,625.7126460160507,None,625.9789799091814,None,625.9789799091814,None,,,,,,,,,,,,,,,,,,,,,,,,,,,,,,,,,,,sing5,001,2019_Oct_24_1259,ProdFawcett_Revision2019,3.2.4,59.977727996596286,
,,,,,,,,,,,,,,,,,,,,,,,,,,,,,,,,,,,,,628.963336754372,None,k,105.99086147913476,628.963336754372,None,,,,,,,,,,,,,,,,,,,,,,,,,,,,,sing5,001,2019_Oct_24_1259,ProdFawcett_Revision2019,3.2.4,59.977727996596286,
,,,,,,,,,,,,,,734.9794887105818,None,space,1.518435031408444,734.9794887105818,None,,,,,,,,,,,,,,,,,,,,,,,,,,,,,,,,,,,,,,,,,,,,,,,,,,,,sing5,001,2019_Oct_24_1259,ProdFawcett_Revision2019,3.2.4,59.977727996596286,
,,,,0,0,0,0,,,,,,,,,,,,,748.868565652796,None,,,,,,,,,,,,,,,,,,,,,,candidate,C_sing,0,39,737.0525424519437,None,737.0525424519437,None,737.0525424519437,None,6,6.685573179071071,737.0525424519437,None,743.7986549107445,None,743.7986549107445,None,744.3203822230425,None,744.3203822230425,None,744.3203822230425,None,f,4.513226348193712,744.3203822230425,None,sing5,001,2019_Oct_24_1259,ProdFawcett_Revision2019,3.2.4,59.977727996596286,
,,,,1,0,1,0,,,,,,,,,,,,,756.9527390060248,None,,,,,,,,,,,,,,,,,,,,,,health,A_silent,1,149,749.400636934748,None,749.400636934748,None,749.400636934748,None,1,3.080435404612217,749.400636934748,None,752.534801890899,None,752.534801890899,None,753.0515015239071,None,753.0515015239071,None,753.0515015239071,None,n,3.8615982459305087,753.0515015239071,None,sing5,001,2019_Oct_24_1259,ProdFawcett_Revision2019,3.2.4,59.977727996596286,
,,,,2,0,2,0,,,,,,,,,,,,,760.1537858431257,None,,,,,,,,,,,,,,,,,,,,,,recall,D_new,2,255,757.4698637805559,None,757.4698637805559,None,757.4698637805559,None,1,1.65073925483739,757.4698637805559,None,759.1699741867196,None,759.1699741867196,None,759.6881041238958,None,759.6881041238958,None,759.6881041238958,None,n,0.42485476146976,759.6881041238958,None,sing5,001,2019_Oct_24_1259,ProdFawcett_Revision2019,3.2.4,59.977727996596286,
,,,,3,0,3,0,,,,,,,,,,,,,765.972249797851,None,,,,,,,,,,,,,,,,,,,,,,guide,B_aloud,3,147,760.6708972445049,None,760.6708972445049,None,760.6708972445049,None,6,1.5137220874603372,760.6708972445049,None,762.2378117807966,None,762.2378117807966,None,762.7546750015463,None,762.7546750015463,None,762.7546750015463,None,r,3.173995148346876,762.7546750015463,None,sing5,001,2019_Oct_24_1259,ProdFawcett_Revision2019,3.2.4,59.977727996596286,
,,,,4,0,4,0,,,,,,,,,,,,,771.0237724699837,None,,,,,,,,,,,,,,,,,,,,,,collection,B_aloud,4,54,766.4908969335083,None,766.4908969335083,None,766.4908969335083,None,6,2.765578155129333,766.4908969335083,None,769.3065565714933,None,769.3065565714933,None,769.8233423524216,None,769.8233423524216,None,769.8233423524216,None,n,1.160979660373414,769.8233423524216,None,sing5,001,2019_Oct_24_1259,ProdFawcett_Revision2019,3.2.4,59.977727996596286,
,,,,5,0,5,0,,,,,,,,,,,,,774.2415260931739,None,,,,,,,,,,,,,,,,,,,,,,expansion,A_silent,5,123,771.5431249611283,None,771.5431249611283,None,771.5431249611283,None,1,0.9288645269698463,771.5431249611283,None,772.5243126827118,None,772.5243126827118,None,773.041067985323,None,773.041067985323,None,773.041067985323,None,f,1.167145922750933,773.041067985323,None,sing5,001,2019_Oct_24_1259,ProdFawcett_Revision2019,3.2.4,59.977727996596286,
,,,,6,0,6,0,,,,,,,,,,,,,778.1259339428943,None,,,,,,,,,,,,,,,,,,,,,,fight,D_new,6,127,774.7583513715217,None,774.7583513715217,None,774.7583513715217,None,1,1.537254462891724,774.7583513715217,None,776.3587454126973,None,776.3587454126973,None,776.8756814082153,None,776.8756814082153,None,776.8756814082153,None,f,1.2038300055864966,776.8756814082153,None,sing5,001,2019_Oct_24_1259,ProdFawcett_Revision2019,3.2.4,59.977727996596286,
,,,,7,0,7,0,,,,,,,,,,,,,781.0935522796499,None,,,,,,,,,,,,,,,,,,,,,,opening,D_new,7,205,778.6427760154183,None,778.6427760154183,None,778.6427760154183,None,1,1.4287497667537536,778.6427760154183,None,780.1158409529162,None,780.1158409529162,None,780.6433753187739,None,780.6433753187739,None,780.6433753187739,None,f,0.4039767991635017,780.6433753187739,None,sing5,001,2019_Oct_24_1259,ProdFawcett_Revision2019,3.2.4,59.977727996596286,
,,,,8,0,8,0,,,,,,,,,,,,,783.6776491260825,None,,,,,,,,,,,,,,,,,,,,,,device,D_new,8,93,781.6104658829427,None,781.6104658829427,None,781.6104658829427,None,1,0.5574304907640908,781.6104658829427,None,782.2158851153799,None,782.2158851153799,None,782.7441876593803,None,782.7441876593803,None,782.7441876593803,None,f,0.8951996641262667,782.7441876593803,None,sing5,001,2019_Oct_24_1259,ProdFawcett_Revision2019,3.2.4,59.977727996596286,
,,,,9,0,9,0,,,,,,,,,,,,,786.8121008272719,None,,,,,,,,,,,,,,,,,,,,,,graduate,D_new,9,141,784.1959479380457,None,784.1959479380457,None,784.1959479380457,None,6,1.6671285065531265,784.1959479380457,None,785.9283268022555,None,785.9283268022555,None,786.4453265534539,None,786.4453265534539,None,786.4453265534539,None,r,0.32975150835409295,786.4453265534539,None,sing5,001,2019_Oct_24_1259,ProdFawcett_Revision2019,3.2.4,59.977727996596286,
,,,,10,0,10,0,,,,,,,,,,,,,790.5131187410589,None,,,,,,,,,,,,,,,,,,,,,,guard,D_new,10,145,787.3291637121292,None,787.3291637121292,None,787.3291637121292,None,6,2.253665173848276,787.3291637121292,None,789.6462884866487,None,789.6462884866487,None,790.1629318280757,None,790.1629318280757,None,790.1629318280757,None,r,0.31629035268269945,790.1629318280757,None,sing5,001,2019_Oct_24_1259,ProdFawcett_Revision2019,3.2.4,59.977727996596286,
,,,,11,0,11,0,,,,,,,,,,,,,793.0806922933407,None,,,,,,,,,,,,,,,,,,,,,,second,B_aloud,11,278,791.0299116750684,None,791.0299116750684,None,791.0299116750684,None,6,1.4094880885677412,791.0299116750684,None,792.4971468557487,None,792.4971468557487,None,793.0140585930203,None,793.0140585930203,None,793.0140585930203,None,r,0.03302419606188778,793.0140585930203,None,sing5,001,2019_Oct_24_1259,ProdFawcett_Revision2019,3.2.4,59.977727996596286,
,,,,12,0,12,0,,,,,,,,,,,,,795.3479262300098,None,,,,,,,,,,,,,,,,,,,,,,carry,C_sing,12,43,793.597730608948,None,793.597730608948,None,793.597730608948,None,6,0.7931896498048445,793.597730608948,None,794.4477402500488,None,794.4477402500488,None,794.9646068918373,None,794.9646068918373,None,794.9646068918373,None,r,0.34597655035031494,794.9646068918373,None,sing5,001,2019_Oct_24_1259,ProdFawcett_Revision2019,3.2.4,59.977727996596286,
,,,,13,0,13,0,,,,,,,,,,,,,799.1992486160307,None,,,,,,,,,,,,,,,,,,,,,,executive,A_silent,13,122,795.8656770541711,None,795.8656770541711,None,795.8656770541711,None,6,0.7492047645791899,795.8656770541711,None,796.6650401194202,None,796.6650401194202,None,797.1818563786801,None,797.1818563786801,None,797.1818563786801,None,f,1.9846019157848787,797.1818563786801,None,sing5,001,2019_Oct_24_1259,ProdFawcett_Revision2019,3.2.4,59.977727996596286,
,,,,14,0,14,0,,,,,,,,,,,,,802.7502970081405,None,,,,,,,,,,,,,,,,,,,,,,income,A_silent,14,159,799.7169590097619,None,799.7169590097619,None,799.7169590097619,None,6,2.033306898054434,799.7169590097619,None,801.7999253592134,None,801.7999253592134,None,802.316877215897,None,802.316877215897,None,802.316877215897,None,f,0.393472973810276,802.316877215897,None,sing5,001,2019_Oct_24_1259,ProdFawcett_Revision2019,3.2.4,59.977727996596286,
,,,,15,0,15,0,,,,,,,,,,,,,806.9015547054732,None,,,,,,,,,,,,,,,,,,,,,,material,D_new,15,182,803.2674360888195,None,803.2674360888195,None,803.2674360888195,None,1,2.6828422591352137,803.2674360888195,None,806.0012206879328,None,806.0012206879328,None,806.5181507743982,None,806.5181507743982,None,806.5181507743982,None,f,0.3357081545109395,806.5181507743982,None,sing5,001,2019_Oct_24_1259,ProdFawcett_Revision2019,3.2.4,59.977727996596286,
,,,,16,0,16,0,,,,,,,,,,,,,812.2365960689203,None,,,,,,,,,,,,,,,,,,,,,,raise,D_new,16,250,807.4191431859217,None,807.4191431859217,None,807.4191431859217,None,1,1.6666831498296233,807.4191431859217,None,809.1238673259941,None,809.1238673259941,None,809.6523797972186,None,809.6523797972186,None,809.6523797972186,None,n,2.5371698700037086,809.6523797972186,None,sing5,001,2019_Oct_24_1259,ProdFawcett_Revision2019,3.2.4,59.977727996596286,
,,,,17,0,17,0,,,,,,,,,,,,,817.7383407974121,None,,,,,,,,,,,,,,,,,,,,,,poetry,D_new,17,225,812.753429744349,None,812.753429744349,None,812.753429744349,None,1,1.3004602848814102,812.753429744349,None,814.1038785221172,None,814.1038785221172,None,814.6206904273131,None,814.6206904273131,None,814.6206904273131,None,n,3.0805616719590034,814.6206904273131,None,sing5,001,2019_Oct_24_1259,ProdFawcett_Revision2019,3.2.4,59.977727996596286,
,,,,18,0,18,0,,,,,,,,,,,,,822.0229722585063,None,,,,,,,,,,,,,,,,,,,,,,profession,D_new,18,241,818.2569891770836,None,818.2569891770836,None,818.2569891770836,None,3,1.8200693537364714,818.2569891770836,None,820.1281737886457,None,820.1281737886457,None,820.6392308888462,None,820.6392308888462,None,820.6392308888462,None,f,1.3501856689690612,820.6392308888462,None,sing5,001,2019_Oct_24_1259,ProdFawcett_Revision2019,3.2.4,59.977727996596286,
,,,,19,0,19,0,,,,,,,,,,,,,826.174259190142,None,,,,,,,,,,,,,,,,,,,,,,husband,C_sing,19,156,822.5413827206503,None,822.5413827206503,None,822.5413827206503,None,6,1.7437802450731397,822.5413827206503,None,824.3307470299187,None,824.3307470299187,None,824.8572261615918,None,824.8572261615918,None,824.8572261615918,None,f,1.276210424839519,824.8572261615918,None,sing5,001,2019_Oct_24_1259,ProdFawcett_Revision2019,3.2.4,59.977727996596286,
,,,,20,0,20,0,,,,,,,,,,,,,828.9086337625195,None,,,,,,,,,,,,,,,,,,,,,,beauty,D_new,20,18,826.6918063071498,None,826.6918063071498,None,826.6918063071498,None,1,1.2009112396481214,826.6918063071498,None,827.9580422342406,None,827.9580422342406,None,828.475002177016,None,828.475002177016,None,828.475002177016,None,f,0.3856963363941759,828.475002177016,None,sing5,001,2019_Oct_24_1259,ProdFawcett_Revision2019,3.2.4,59.977727996596286,
,,,,21,0,21,0,,,,,,,,,,,,,832.0593960315891,None,,,,,,,,,,,,,,,,,,,,,,drove,D_new,21,106,829.4257212166413,None,829.4257212166413,None,829.4257212166413,None,2,1.8990946694102604,829.4257212166413,None,831.3617668097286,None,831.3617668097286,None,831.8760110717121,None,831.8760110717121,None,831.8760110717121,None,f,0.13636250545096118,831.8760110717121,None,sing5,001,2019_Oct_24_1259,ProdFawcett_Revision2019,3.2.4,59.977727996596286,
,,,,22,0,22,0,,,,,,,,,,,,,834.4435233563418,None,,,,,,,,,,,,,,,,,,,,,,harmony,A_silent,22,148,832.5769425265898,None,832.5769425265898,None,832.5769425265898,None,3,0.9713696585240541,832.5769425265898,None,833.5995698824408,None,833.5995698824408,None,834.1267630776856,None,834.1267630776856,None,834.1267630776856,None,f,0.26948871058993973,834.1267630776856,None,sing5,001,2019_Oct_24_1259,ProdFawcett_Revision2019,3.2.4,59.977727996596286,
,,,,23,0,23,0,,,,,,,,,,,,,840.6954372706386,None,,,,,,,,,,,,,,,,,,,,,,machinery,B_aloud,23,175,834.9618426945235,None,834.9618426945235,None,834.9618426945235,None,2,4.2907600920589175,834.9618426945235,None,839.301737886417,None,839.301737886417,None,839.828468308755,None,839.828468308755,None,839.828468308755,None,f,0.8316153511113953,839.828468308755,None,sing5,001,2019_Oct_24_1259,ProdFawcett_Revision2019,3.2.4,59.977727996596286,
,,,,24,0,24,0,,,,,,,,,,,,,844.079829570197,None,,,,,,,,,,,,,,,,,,,,,,interview,C_sing,24,165,841.2138620389305,None,841.2138620389305,None,841.2138620389305,None,6,1.310273371898802,841.2138620389305,None,842.5793254338496,None,842.5793254338496,None,843.0961930086487,None,843.0961930086487,None,843.0961930086487,None,f,0.9402071281947428,843.0961930086487,None,sing5,001,2019_Oct_24_1259,ProdFawcett_Revision2019,3.2.4,59.977727996596286,
,,,,25,0,25,0,,,,,,,,,,,,,846.5805075573735,None,,,,,,,,,,,,,,,,,,,,,,capital,B_aloud,25,40,844.5979156559042,None,844.5979156559042,None,844.5979156559042,None,6,0.9658736082637915,844.5979156559042,None,845.601600733964,None,845.601600733964,None,846.1303150463355,None,846.1303150463355,None,846.1303150463355,None,f,0.40963239410484675,846.1303150463355,None,sing5,001,2019_Oct_24_1259,ProdFawcett_Revision2019,3.2.4,59.977727996596286,
,,,,26,0,26,0,,,,,,,,,,,,,848.9146681594866,None,,,,,,,,,,,,,,,,,,,,,,throw,C_sing,26,330,847.0972339366708,None,847.0972339366708,None,847.0972339366708,None,6,0.7862570753204636,847.0972339366708,None,847.9373872613069,None,847.9373872613069,None,848.464519499903,None,848.464519499903,None,848.464519499903,None,f,0.4112331280775834,848.464519499903,None,sing5,001,2019_Oct_24_1259,ProdFawcett_Revision2019,3.2.4,59.977727996596286,
,,,,27,0,27,0,,,,,,,,,,,,,852.4490856503107,None,,,,,,,,,,,,,,,,,,,,,,oxygen,C_sing,27,209,849.4315459973877,None,849.4315459973877,None,849.4315459973877,None,1,1.3243969646136975,849.4315459973877,None,850.8027648193092,None,850.8027648193092,None,851.3154036822816,None,851.3154036822816,None,851.3154036822816,None,n,1.0958219817111967,851.3154036822816,None,sing5,001,2019_Oct_24_1259,ProdFawcett_Revision2019,3.2.4,59.977727996596286,
,,,,28,0,28,0,,,,,,,,,,,,,857.0837444796925,None,,,,,,,,,,,,,,,,,,,,,,relation,D_new,28,257,852.9708885364089,None,852.9708885364089,None,852.9708885364089,None,1,2.1922152764891507,852.9708885364089,None,855.2049645456282,None,855.2049645456282,None,855.7332733096991,None,855.7332733096991,None,855.7332733096991,None,n,1.3016980779939331,855.7332733096991,None,sing5,001,2019_Oct_24_1259,ProdFawcett_Revision2019,3.2.4,59.977727996596286,
,,,,29,0,29,0,,,,,,,,,,,,,861.6352382285258,None,,,,,,,,,,,,,,,,,,,,,,management,B_aloud,29,177,857.6026376189548,None,857.6026376189548,None,857.6026376189548,None,6,1.2803816010418814,857.6026376189548,None,858.9227430490719,None,858.9227430490719,None,859.4510648752912,None,859.4510648752912,None,859.4510648752912,None,r,2.1438287615892477,859.4510648752912,None,sing5,001,2019_Oct_24_1259,ProdFawcett_Revision2019,3.2.4,59.977727996596286,
,,,,30,0,30,0,,,,,,,,,,,,,864.6861855445604,None,,,,,,,,,,,,,,,,,,,,,,portion,D_new,30,228,862.1530839086918,None,862.1530839086918,None,862.1530839086918,None,2,1.3215851838031085,862.1530839086918,None,863.5357317907474,None,863.5357317907474,None,864.0526718293258,None,864.0526718293258,None,864.0526718293258,None,f,0.5979840766231064,864.0526718293258,None,sing5,001,2019_Oct_24_1259,ProdFawcett_Revision2019,3.2.4,59.977727996596286,
,,,,31,0,31,0,,,,,,,,,,,,,867.7704873421608,None,,,,,,,,,,,,,,,,,,,,,,signal,D_new,31,287,865.20298376563,None,865.20298376563,None,865.20298376563,None,3,0.9437880201439839,865.20298376563,None,866.2033411084121,None,866.2033411084121,None,866.720156123658,None,866.720156123658,None,866.720156123658,None,f,1.010524351557251,866.720156123658,None,sing5,001,2019_Oct_24_1259,ProdFawcett_Revision2019,3.2.4,59.977727996596286,
,,,,32,0,32,0,,,,,,,,,,,,,871.254845120362,None,,,,,,,,,,,,,,,,,,,,,,spoke,A_silent,32,300,868.2872706350608,None,868.2872706350608,None,868.2872706350608,None,6,0.8916993220191216,868.2872706350608,None,869.237552715058,None,869.237552715058,None,869.7544523231918,None,869.7544523231918,None,869.7544523231918,None,f,1.4561373390606605,869.7544523231918,None,sing5,001,2019_Oct_24_1259,ProdFawcett_Revision2019,3.2.4,59.977727996596286,
,,,,33,0,33,0,,,,,,,,,,,,,873.8723468308744,None,,,,,,,,,,,,,,,,,,,,,,private,C_sing,33,237,871.7726329539,None,871.7726329539,None,871.7726329539,None,6,0.7740868943219539,871.7726329539,None,872.6052503576502,None,872.6052503576502,None,873.1221216644917,None,873.1221216644917,None,873.1221216644917,None,f,0.7118548236612696,873.1221216644917,None,sing5,001,2019_Oct_24_1259,ProdFawcett_Revision2019,3.2.4,59.977727996596286,
,,,,34,0,34,0,,,,,,,,,,,,,879.6407240156695,None,,,,,,,,,,,,,,,,,,,,,,estate,D_new,34,119,874.3890949804045,None,874.3890949804045,None,874.3890949804045,None,1,2.117121353483526,874.3890949804045,None,876.5435923990735,None,876.5435923990735,None,877.0566638676391,None,877.0566638676391,None,877.0566638676391,None,n,2.545315046343603,877.0566638676391,None,sing5,001,2019_Oct_24_1259,ProdFawcett_Revision2019,3.2.4,59.977727996596286,
,,,,35,0,35,0,,,,,,,,,,,,,882.3749682776543,None,,,,,,,,,,,,,,,,,,,,,,listen,D_new,35,172,880.1575421409507,None,880.1575421409507,None,880.1575421409507,None,6,1.3163886297261342,880.1575421409507,None,881.5247732785938,None,881.5247732785938,None,882.0415344902576,None,882.0415344902576,None,882.0415344902576,None,f,0.29598899047414307,882.0415344902576,None,sing5,001,2019_Oct_24_1259,ProdFawcett_Revision2019,3.2.4,59.977727996596286,
,,,,36,0,36,0,,,,,,,,,,,,,885.6259777943633,None,,,,,,,,,,,,,,,,,,,,,,goose,C_sing,36,138,882.8918660197814,None,882.8918660197814,None,882.8918660197814,None,6,0.6939201965578832,882.8918660197814,None,883.6420075262722,None,883.6420075262722,None,884.1589009143499,None,884.1589009143499,None,884.1589009143499,None,f,1.4344106487551471,884.1589009143499,None,sing5,001,2019_Oct_24_1259,ProdFawcett_Revision2019,3.2.4,59.977727996596286,
,,,,37,0,37,0,,,,,,,,,,,,,887.8433824718522,None,,,,,,,,,,,,,,,,,,,,,,production,B_aloud,37,240,886.1458145176293,None,886.1458145176293,None,886.1458145176293,None,6,0.7916352553293109,886.1458145176293,None,886.9929871866625,None,886.9929871866625,None,887.5101032530947,None,887.5101032530947,None,887.5101032530947,None,f,0.2917664987326134,887.5101032530947,None,sing5,001,2019_Oct_24_1259,ProdFawcett_Revision2019,3.2.4,59.977727996596286,
,,,,38,0,38,0,,,,,,,,,,,,,891.2944405050657,None,,,,,,,,,,,,,,,,,,,,,,weight,D_new,38,353,888.3602503576549,None,888.3602503576549,None,888.3602503576549,None,1,1.3367313553462736,888.3602503576549,None,889.7605918392655,None,889.7605918392655,None,890.2774553710187,None,890.2774553710187,None,890.2774553710187,None,n,0.9795406481280224,890.2774553710187,None,sing5,001,2019_Oct_24_1259,ProdFawcett_Revision2019,3.2.4,59.977727996596286,
,,,,39,0,39,0,,,,,,,,,,,,,894.5787258194905,None,,,,,,,,,,,,,,,,,,,,,,dozen,D_new,39,102,891.8164844187268,None,891.8164844187268,None,891.8164844187268,None,2,0.9925791503483197,891.8164844187268,None,892.85133327113,None,892.85133327113,None,893.3817565466161,None,893.3817565466161,None,893.3817565466161,None,f,1.1557510729617206,893.3817565466161,None,sing5,001,2019_Oct_24_1259,ProdFawcett_Revision2019,3.2.4,59.977727996596286,
,,,,40,0,40,0,,,,,,,,,,,,,897.6130304161197,None,,,,,,,,,,,,,,,,,,,,,,attack,D_new,40,13,895.0956443988252,None,895.0956443988252,None,895.0956443988252,None,1,1.2812126018543495,895.0956443988252,None,896.4185566336964,None,896.4185566336964,None,896.946133607009,None,896.946133607009,None,896.946133607009,None,n,0.6231495303945849,896.946133607009,None,sing5,001,2019_Oct_24_1259,ProdFawcett_Revision2019,3.2.4,59.977727996596286,
,,,,41,0,41,0,,,,,,,,,,,,,900.4472802761738,None,,,,,,,,,,,,,,,,,,,,,,force,A_silent,41,131,898.1300217702228,None,898.1300217702228,None,898.1300217702228,None,1,1.0864629595162114,898.1300217702228,None,899.2684309883625,None,899.2684309883625,None,899.7969496796577,None,899.7969496796577,None,899.7969496796577,None,n,0.6118227903352818,899.7969496796577,None,sing5,001,2019_Oct_24_1259,ProdFawcett_Revision2019,3.2.4,59.977727996596286,
,,,,42,0,42,0,,,,,,,,,,,,,905.348700006216,None,,,,,,,,,,,,,,,,,,,,,,symbol,D_new,42,321,900.9640834732854,None,900.9640834732854,None,900.9640834732854,None,2,1.0362704484723508,900.9640834732854,None,902.0643512471142,None,902.0643512471142,None,902.5815251601598,None,902.5815251601598,None,902.5815251601598,None,n,2.7231815637205727,902.5815251601598,None,sing5,001,2019_Oct_24_1259,ProdFawcett_Revision2019,3.2.4,59.977727996596286,
,,,,43,0,43,0,,,,,,,,,,,,,908.0663192759821,None,,,,,,,,,,,,,,,,,,,,,,motion,C_sing,43,194,905.8655084903876,None,905.8655084903876,None,905.8655084903876,None,2,1.1185821359686088,905.8655084903876,None,907.0372693910467,None,907.0372693910467,None,907.5660365739895,None,907.5660365739895,None,907.5660365739895,None,n,0.4664648255275097,907.5660365739895,None,sing5,001,2019_Oct_24_1259,ProdFawcett_Revision2019,3.2.4,59.977727996596286,
,,,,44,0,44,0,,,,,,,,,,,,,910.8504910742049,None,,,,,,,,,,,,,,,,,,,,,,crowd,D_new,44,81,908.5832132860523,None,908.5832132860523,None,908.5832132860523,None,2,0.9127306089503691,908.5832132860523,None,909.5499788517773,None,909.5499788517773,None,910.0514290601423,None,910.0514290601423,None,910.0514290601423,None,n,0.764831436201348,910.0514290601423,None,sing5,001,2019_Oct_24_1259,ProdFawcett_Revision2019,3.2.4,59.977727996596286,
,,,,45,0,45,0,,,,,,,,,,,,,913.3845652173914,None,,,,,,,,,,,,,,,,,,,,,,direction,D_new,45,94,911.3694448591123,None,911.3694448591123,None,911.3694448591123,None,6,0.8943758163804887,911.3694448591123,None,912.3177107047377,None,912.3177107047377,None,912.834566150399,None,912.834566150399,None,912.834566150399,None,r,0.5093559121742146,912.834566150399,None,sing5,001,2019_Oct_24_1259,ProdFawcett_Revision2019,3.2.4,59.977727996596286,
,,,,46,0,46,0,,,,,,,,,,,,,915.9520809230598,None,,,,,,,,,,,,,,,,,,,,,,nation,C_sing,46,198,913.9026830254443,None,913.9026830254443,None,913.9026830254443,None,6,0.9448973688995466,913.9026830254443,None,914.9017123841477,None,914.9017123841477,None,915.4185790259362,None,915.4185790259362,None,915.4185790259362,None,f,0.49330752006790135,915.4185790259362,None,sing5,001,2019_Oct_24_1259,ProdFawcett_Revision2019,3.2.4,59.977727996596286,
,,,,47,0,47,0,,,,,,,,,,,,,917.9860371959949,None,,,,,,,,,,,,,,,,,,,,,,hearing,D_new,47,150,916.46944983516,None,916.46944983516,None,916.46944983516,None,6,0.769980406796094,916.46944983516,None,917.3024513279815,None,917.3024513279815,None,917.81931796977,None,917.81931796977,None,917.81931796977,None,f,0.13254431796667632,917.81931796977,None,sing5,001,2019_Oct_24_1259,ProdFawcett_Revision2019,3.2.4,59.977727996596286,
,,,,48,0,48,0,,,,,,,,,,,,,920.9535177582875,None,,,,,,,,,,,,,,,,,,,,,,drink,D_new,48,105,918.5028369720676,None,918.5028369720676,None,918.5028369720676,None,1,1.184486533558811,918.5028369720676,None,919.725601169368,None,919.725601169368,None,920.2533809168381,None,920.2533809168381,None,920.2533809168381,None,n,0.6662800895719556,920.2533809168381,None,sing5,001,2019_Oct_24_1259,ProdFawcett_Revision2019,3.2.4,59.977727996596286,
,,,,49,0,49,0,,,,,,,,,,,,,924.1878270199668,None,,,,,,,,,,,,,,,,,,,,,,audience,B_aloud,49,14,921.4724460409197,None,921.4724460409197,None,921.4724460409197,None,6,1.6233355103613576,921.4724460409197,None,923.1441705542093,None,923.1441705542093,None,923.6712465012097,None,923.6712465012097,None,923.6712465012097,None,r,0.47987279965309426,923.6712465012097,None,sing5,001,2019_Oct_24_1259,ProdFawcett_Revision2019,3.2.4,59.977727996596286,
,,,,50,0,50,0,,,,,,,,,,,,,928.0056929153361,None,,,,,,,,,,,,,,,,,,,,,,style,D_new,50,311,924.7046908627235,None,924.7046908627235,None,924.7046908627235,None,1,2.3428982397163054,924.7046908627235,None,927.1054251415044,None,927.1054251415044,None,927.6223608260188,None,927.6223608260188,None,927.6223608260188,None,f,0.3447200970404083,927.6223608260188,None,sing5,001,2019_Oct_24_1259,ProdFawcett_Revision2019,3.2.4,59.977727996596286,
,,,,51,0,51,0,,,,,,,,,,,,,932.207110468371,None,,,,,,,,,,,,,,,,,,,,,,present,C_sing,51,231,928.5236259874364,None,928.5236259874364,None,928.5236259874364,None,3,1.2752910990820965,928.5236259874364,None,929.8563898737339,None,929.8563898737339,None,930.3730521863472,None,930.3730521863472,None,930.3730521863472,None,f,1.7937855321360985,930.3730521863472,None,sing5,001,2019_Oct_24_1259,ProdFawcett_Revision2019,3.2.4,59.977727996596286,
,,,,52,0,52,0,,,,,,,,,,,,,936.6252497356472,None,,,,,,,,,,,,,,,,,,,,,,display,D_new,52,98,932.7247776326403,None,932.7247776326403,None,932.7247776326403,None,6,2.5536129253014224,932.7247776326403,None,935.3296407911839,None,935.3296407911839,None,935.858133047208,None,935.858133047208,None,935.858133047208,None,f,0.7407712881831685,935.858133047208,None,sing5,001,2019_Oct_24_1259,ProdFawcett_Revision2019,3.2.4,59.977727996596286,
,,,,53,0,53,0,,,,,,,,,,,,,938.9757457859087,None,,,,,,,,,,,,,,,,,,,,,,century,C_sing,53,45,937.1468265223521,None,937.1468265223521,None,937.1468265223521,None,6,0.8118793929170351,937.1468265223521,None,937.9974149405898,None,937.9974149405898,None,938.525632269695,None,938.525632269695,None,938.525632269695,None,f,0.4169708278932376,938.525632269695,None,sing5,001,2019_Oct_24_1259,ProdFawcett_Revision2019,3.2.4,59.977727996596286,
,,,,54,0,54,0,,,,,,,,,,,,,940.9431445543305,None,,,,,,,,,,,,,,,,,,,,,,research,D_new,54,261,939.4926475710672,None,939.4926475710672,None,939.4926475710672,None,6,0.5534851029515266,939.4926475710672,None,940.0973085774749,None,940.0973085774749,None,940.6262455682008,None,940.6262455682008,None,940.6262455682008,None,f,0.28382502954627853,940.6262455682008,None,sing5,001,2019_Oct_24_1259,ProdFawcett_Revision2019,3.2.4,59.977727996596286,
,,,,55,0,55,0,,,,,,,,,,,,,944.2606689680833,None,,,,,,,,,,,,,,,,,,,,,,education,D_new,55,108,941.4599847608333,None,941.4599847608333,None,941.4599847608333,None,1,1.706431237180368,941.4599847608333,None,943.2163245630363,None,943.2163245630363,None,943.7438412017073,None,943.7438412017073,None,943.7438412017073,None,n,0.4783383093745215,943.7438412017073,None,sing5,001,2019_Oct_24_1259,ProdFawcett_Revision2019,3.2.4,59.977727996596286,
,,,,56,0,56,0,,,,,,,,,,,,,946.6782677116425,None,,,,,,,,,,,,,,,,,,,,,,silence,C_sing,56,288,944.7787998382701,None,944.7787998382701,None,944.7787998382701,None,1,1.0110235118481796,944.7787998382701,None,945.8446740685467,None,945.8446740685467,None,946.3613705915195,None,946.3613705915195,None,946.3613705915195,None,n,0.27663556633342523,946.3613705915195,None,sing5,001,2019_Oct_24_1259,ProdFawcett_Revision2019,3.2.4,59.977727996596286,
,,,,57,0,57,0,,,,,,,,,,,,,949.0288542638591,None,,,,,,,,,,,,,,,,,,,,,,junior,D_new,57,167,947.2020212104253,None,947.2020212104253,None,947.2020212104253,None,1,0.9157852833159268,947.2020212104253,None,948.1679915407149,None,948.1679915407149,None,948.6968722398451,None,948.6968722398451,None,948.6968722398451,None,n,0.28475088636332657,948.6968722398451,None,sing5,001,2019_Oct_24_1259,ProdFawcett_Revision2019,3.2.4,59.977727996596286,
,,,,58,0,58,0,,,,,,,,,,,,,951.1463180319697,None,,,,,,,,,,,,,,,,,,,,,,group,D_new,58,143,949.5458011444862,None,949.5458011444862,None,949.5458011444862,None,1,0.8357759532227647,949.5458011444862,None,950.446044349068,None,950.446044349068,None,950.9629053927929,None,950.9629053927929,None,950.9629053927929,None,n,0.14665111650538165,950.9629053927929,None,sing5,001,2019_Oct_24_1259,ProdFawcett_Revision2019,3.2.4,59.977727996596286,
,,,,59,0,59,0,,,,,,,,,,,,,953.480377557993,None,,,,,,,,,,,,,,,,,,,,,,count,D_new,59,72,951.6629560863366,None,951.6629560863366,None,951.6629560863366,None,1,0.8225287678069435,951.6629560863366,None,952.5467008770211,None,952.5467008770211,None,953.0636194563704,None,953.0636194563704,None,953.0636194563704,None,n,0.37442153386655264,953.0636194563704,None,sing5,001,2019_Oct_24_1259,ProdFawcett_Revision2019,3.2.4,59.977727996596286,
,,,,60,0,60,0,,,,,,,,,,,,,956.6313226970233,None,,,,,,,,,,,,,,,,,,,,,,prime,D_new,60,235,953.9973004913772,None,953.9973004913772,None,953.9973004913772,None,2,1.863990483310772,953.9973004913772,None,955.9034337873891,None,955.9034337873891,None,956.4312471232115,None,956.4312471232115,None,956.4312471232115,None,n,0.16635099831910338,956.4312471232115,None,sing5,001,2019_Oct_24_1259,ProdFawcett_Revision2019,3.2.4,59.977727996596286,
,,,,61,0,61,0,,,,,,,,,,,,,959.048689743111,None,,,,,,,,,,,,,,,,,,,,,,court,C_sing,61,75,957.1481815637235,None,957.1481815637235,None,957.1481815637235,None,6,1.1528929526684806,957.1481815637235,None,958.365348945692,None,958.365348945692,None,958.8820597748272,None,958.8820597748272,None,958.8820597748272,None,f,0.13111432481673546,958.8820597748272,None,sing5,001,2019_Oct_24_1259,ProdFawcett_Revision2019,3.2.4,59.977727996596286,
,,,,62,0,62,0,,,,,,,,,,,,,961.7494526341907,None,,,,,,,,,,,,,,,,,,,,,,budget,D_new,62,34,959.5661942526494,None,959.5661942526494,None,959.5661942526494,None,1,0.8553333955351263,959.5661942526494,None,960.4825502270251,None,960.4825502270251,None,960.9992940225202,None,960.9992940225202,None,960.9992940225202,None,n,0.7099636126076803,960.9992940225202,None,sing5,001,2019_Oct_24_1259,ProdFawcett_Revision2019,3.2.4,59.977727996596286,
,,,,63,0,63,0,,,,,,,,,,,,,964.033550413631,None,,,,,,,,,,,,,,,,,,,,,,resistance,D_new,63,262,962.2684073521086,None,962.2684073521086,None,962.2684073521086,None,1,1.0729977607843466,962.2684073521086,None,963.4000768178084,None,963.4000768178084,None,963.9169288424455,None,963.9169288424455,None,963.9169288424455,None,n,0.0721266405453207,963.9169288424455,None,sing5,001,2019_Oct_24_1259,ProdFawcett_Revision2019,3.2.4,59.977727996596286,
,,,,64,0,64,0,,,,,,,,,,,,,967.0345960067207,None,,,,,,,,,,,,,,,,,,,,,,agency,D_new,64,4,964.5514424332941,None,964.5514424332941,None,964.5514424332941,None,6,1.3171698700025445,964.5514424332941,None,965.9233314673183,None,965.9233314673183,None,966.4510169807763,None,966.4510169807763,None,966.4510169807763,None,r,0.545600858371472,966.4510169807763,None,sing5,001,2019_Oct_24_1259,ProdFawcett_Revision2019,3.2.4,59.977727996596286,
,,,,65,0,65,0,,,,,,,,,,,,,969.1185501026339,None,,,,,,,,,,,,,,,,,,,,,,block,C_sing,65,25,967.5515413323301,None,967.5515413323301,None,967.5515413323301,None,6,0.7971997263230151,967.5515413323301,None,968.4016787957953,None,968.4016787957953,None,968.9183516825287,None,968.9183516825287,None,968.9183516825287,None,f,0.15883964669774286,968.9183516825287,None,sing5,001,2019_Oct_24_1259,ProdFawcett_Revision2019,3.2.4,59.977727996596286,
,,,,66,0,66,0,,,,,,,,,,,,,971.169017540582,None,,,,,,,,,,,,,,,,,,,,,,express,B_aloud,66,124,969.6365285812062,None,969.6365285812062,None,969.6365285812062,None,6,0.5198740436608205,969.6365285812062,None,970.2189183305309,None,970.2189183305309,None,970.7357389438257,None,970.7357389438257,None,970.7357389438257,None,f,0.3886657958646538,970.7357389438257,None,sing5,001,2019_Oct_24_1259,ProdFawcett_Revision2019,3.2.4,59.977727996596286,
,,,,67,0,67,0,,,,,,,,,,,,,973.3031762766623,None,,,,,,,,,,,,,,,,,,,,,,permit,D_new,67,218,971.6860241338582,None,971.6860241338582,None,971.6860241338582,None,6,0.5749685886548832,971.6860241338582,None,972.319471294395,None,972.319471294395,None,972.836451141382,None,972.836451141382,None,972.836451141382,None,f,0.4318458045599982,972.836451141382,None,sing5,001,2019_Oct_24_1259,ProdFawcett_Revision2019,3.2.4,59.977727996596286,
,,,,68,0,68,0,,,,,,,,,,,,,975.7205616719584,None,,,,,,,,,,,,,,,,,,,,,,council,A_silent,68,71,973.8201903340087,None,973.8201903340087,None,973.8201903340087,None,6,0.792421160673257,973.8201903340087,None,974.670274926917,None,974.670274926917,None,975.1871540088323,None,975.1871540088323,None,975.1871540088323,None,n,0.4894635193195427,975.1871540088323,None,sing5,001,2019_Oct_24_1259,ProdFawcett_Revision2019,3.2.4,59.977727996596286,
,,,,69,0,69,0,,,,,,,,,,,,,978.487963239415,None,,,,,,,,,,,,,,,,,,,,,,dance,D_new,69,84,976.2375707532483,None,976.2375707532483,None,976.2375707532483,None,1,0.9984838589298306,976.2375707532483,None,977.2876245568186,None,977.2876245568186,None,977.8045782795234,None,977.8045782795234,None,977.8045782795234,None,f,0.647501399522298,977.8045782795234,None,sing5,001,2019_Oct_24_1259,ProdFawcett_Revision2019,3.2.4,59.977727996596286,
,,,,70,0,70,0,,,,,,,,,,,,,981.6390352677699,None,,,,,,,,,,,,,,,,,,,,,,religion,D_new,70,258,979.0065901598573,None,979.0065901598573,None,979.0065901598573,None,6,0.9898923928558361,979.0065901598573,None,980.0551340424136,None,980.0551340424136,None,980.572089009147,None,980.572089009147,None,980.572089009147,None,r,1.0318168812518707,980.572089009147,None,sing5,001,2019_Oct_24_1259,ProdFawcett_Revision2019,3.2.4,59.977727996596286,
,,,,71,0,71,0,,,,,,,,,,,,,984.3233862038905,None,,,,,,,,,,,,,,,,,,,,,,republic,D_new,71,260,982.1563202089892,None,982.1563202089892,None,982.1563202089892,None,6,0.8872995583806187,982.1563202089892,None,983.1060913105612,None,983.1060913105612,None,983.622911612867,None,983.622911612867,None,983.622911612867,None,f,0.652669030285324,983.622911612867,None,sing5,001,2019_Oct_24_1259,ProdFawcett_Revision2019,3.2.4,59.977727996596286,
,,,,72,0,72,0,,,,,,,,,,,,,986.8572684580431,None,,,,,,,,,,,,,,,,,,,,,,store,C_sing,72,305,984.8400357653736,None,984.8400357653736,None,984.8400357653736,None,6,0.8117347763909493,984.8400357653736,None,985.695816694657,None,985.695816694657,None,986.2237108913396,None,986.2237108913396,None,986.2237108913396,None,n,0.5876935995474923,986.2237108913396,None,sing5,001,2019_Oct_24_1259,ProdFawcett_Revision2019,3.2.4,59.977727996596286,
,,,,73,0,73,0,,,,,,,,,,,,,991.4753629408515,None,,,,,,,,,,,,,,,,,,,,,,brief,B_aloud,73,28,987.3742106736318,None,987.3742106736318,None,987.3742106736318,None,1,2.8130313491274137,987.3742106736318,None,990.2417736517964,None,990.2417736517964,None,990.7584555576323,None,990.7584555576323,None,990.7584555576323,None,f,0.6687985942699015,990.7584555576323,None,sing5,001,2019_Oct_24_1259,ProdFawcett_Revision2019,3.2.4,59.977727996596286,
,,,,74,0,74,0,,,,,,,,,,,,,993.9428403931088,None,,,,,,,,,,,,,,,,,,,,,,agreement,A_silent,74,5,991.9932213721477,None,991.9932213721477,None,991.9932213721477,None,1,0.9697850967204431,991.9932213721477,None,993.0139593829663,None,993.0139593829663,None,993.5426233128092,None,993.5426233128092,None,993.5426233128092,None,f,0.3570364495826652,993.5426233128092,None,sing5,001,2019_Oct_24_1259,ProdFawcett_Revision2019,3.2.4,59.977727996596286,
,,,,75,0,75,0,,,,,,,,,,,,,996.8444370840298,None,,,,,,,,,,,,,,,,,,,,,,weather,D_new,75,352,994.4597303601331,None,994.4597303601331,None,994.4597303601331,None,1,1.295336194569245,994.4597303601331,None,995.7974451079208,None,995.7974451079208,None,996.3101402624889,None,996.3101402624889,None,996.3101402624889,None,n,0.5169142252852907,996.3101402624889,None,sing5,001,2019_Oct_24_1259,ProdFawcett_Revision2019,3.2.4,59.977727996596286,
,,,,76,0,76,0,,,,,,,,,,,,,999.2611824345367,None,,,,,,,,,,,,,,,,,,,,,,month,B_aloud,76,193,997.3605147104536,None,997.3605147104536,None,997.3605147104536,None,1,0.866675063749426,997.3605147104536,None,998.265585308196,None,998.265585308196,None,998.7942893574655,None,998.7942893574655,None,998.7942893574655,None,n,0.4328351060539717,998.7942893574655,None,sing5,001,2019_Oct_24_1259,ProdFawcett_Revision2019,3.2.4,59.977727996596286,
,,,,77,0,77,0,,,,,,,,,,,,,1001.3450911239634,None,,,,,,,,,,,,,,,,,,,,,,shock,A_silent,77,284,999.7780232630466,None,999.7780232630466,None,999.7780232630466,None,1,0.7286471356492257,999.7780232630466,None,1000.5618252783461,None,1000.5618252783461,None,1001.0782991229644,None,1001.0782991229644,None,1001.0782991229644,None,n,0.22027959197293967,1001.0782991229644,None,sing5,001,2019_Oct_24_1259,ProdFawcett_Revision2019,3.2.4,59.977727996596286,
,,,,78,0,78,0,,,,,,,,,,,,,1003.4124752752396,None,,,,,,,,,,,,,,,,,,,,,,appearance,D_new,78,10,1001.8619335074909,None,1001.8619335074909,None,1001.8619335074909,None,1,0.7414278161304537,1001.8619335074909,None,1002.6622040803632,None,1002.6622040803632,None,1003.1789298376534,None,1003.1789298376534,None,1003.1789298376534,None,n,0.19222025254566688,1003.1789298376534,None,sing5,001,2019_Oct_24_1259,ProdFawcett_Revision2019,3.2.4,59.977727996596286,
,,,,79,0,79,0,,,,,,,,,,,,,1005.3629775455629,None,,,,,,,,,,,,,,,,,,,,,,level,D_new,79,170,1003.9294022516551,None,1003.9294022516551,None,1003.9294022516551,None,2,0.8334356534178369,1003.9294022516551,None,1004.8011435591179,None,1004.8011435591179,None,1005.3297300491395,None,1005.3297300491395,None,1005.3297300491395,None,n,0.0005570069042732939,1005.3297300491395,None,sing5,001,2019_Oct_24_1259,ProdFawcett_Revision2019,3.2.4,59.977727996596286,
,,,,80,0,80,0,,,,,,,,,,,,,1007.8638555078651,None,,,,,,,,,,,,,,,,,,,,,,mayor,D_new,80,183,1005.8798958138941,None,1005.8798958138941,None,1005.8798958138941,None,2,1.0591036885016365,1005.8798958138941,None,1006.9968756608723,None,1006.9968756608723,None,1007.5139186415327,None,1007.5139186415327,None,1007.5139186415327,None,n,0.31237762021191884,1007.5139186415327,None,sing5,001,2019_Oct_24_1259,ProdFawcett_Revision2019,3.2.4,59.977727996596286,
,,,,81,0,81,0,,,,,,,,,,,,,1010.9648821297451,None,,,,,,,,,,,,,,,,,,,,,,position,C_sing,81,229,1008.3810574111994,None,1008.3810574111994,None,1008.3810574111994,None,3,1.1736906761216233,1008.3810574111994,None,1009.6020831000787,None,1009.6020831000787,None,1010.1311289419682,None,1010.1311289419682,None,1010.1311289419682,None,f,0.7916193941637175,1010.1311289419682,None,sing5,001,2019_Oct_24_1259,ProdFawcett_Revision2019,3.2.4,59.977727996596286,
,,,,82,0,82,0,,,,,,,,,,,,,1014.0990194065962,None,,,,,,,,,,,,,,,,,,,,,,broke,D_new,82,32,1011.4817581016396,None,1011.4817581016396,None,1011.4817581016396,None,4,1.2881887167895911,1011.4817581016396,None,1012.8320784350362,None,1012.8320784350362,None,1013.3487768240302,None,1013.3487768240302,None,1013.3487768240302,None,f,0.7097169869957725,1013.3487768240302,None,sing5,001,2019_Oct_24_1259,ProdFawcett_Revision2019,3.2.4,59.977727996596286,
,,,,83,0,83,0,,,,,,,,,,,,,1016.4498616035271,None,,,,,,,,,,,,,,,,,,,,,,error,A_silent,83,117,1014.6159861914493,None,1014.6159861914493,None,1014.6159861914493,None,1,0.9219279094395461,1014.6159861914493,None,1015.5995614853455,None,1015.5995614853455,None,1016.1164352802152,None,1016.1164352802152,None,1016.1164352802152,None,f,0.29360172917949967,1016.1164352802152,None,sing5,001,2019_Oct_24_1259,ProdFawcett_Revision2019,3.2.4,59.977727996596286,
,,,,84,0,84,0,,,,,,,,,,,,,1019.0172354916867,None,,,,,,,,,,,,,,,,,,,,,,course,D_new,84,74,1016.9666962119809,None,1016.9666962119809,None,1016.9666962119809,None,4,1.0112567643227521,1016.9666962119809,None,1018.0337133793655,None,1018.0337133793655,None,1018.5505240405473,None,1018.5505240405473,None,1018.5505240405473,None,f,0.4273580269946251,1018.5505240405473,None,sing5,001,2019_Oct_24_1259,ProdFawcett_Revision2019,3.2.4,59.977727996596286,
,,,,85,0,85,0,,,,,,,,,,,,,1021.2346737575426,None,,,,,,,,,,,,,,,,,,,,,,pretty,B_aloud,85,233,1019.5356680350815,None,1019.5356680350815,None,1019.5356680350815,None,6,0.7857883933465928,1019.5356680350815,None,1020.3719176463201,None,1020.3719176463201,None,1020.9011283199507,None,1020.9011283199507,None,1020.9011283199507,None,f,0.3003368165809661,1020.9011283199507,None,sing5,001,2019_Oct_24_1259,ProdFawcett_Revision2019,3.2.4,59.977727996596286,
,,,,86,0,86,0,,,,,,,,,,,,,1024.335640666788,None,,,,,,,,,,,,,,,,,,,,,,tough,B_aloud,86,333,1021.7515254711616,None,1021.7515254711616,None,1021.7515254711616,None,1,1.337780991467298,1021.7515254711616,None,1023.1519338185026,None,1023.1519338185026,None,1023.6685759159009,None,1023.6685759159009,None,1023.6685759159009,None,n,0.6206801642110804,1023.6685759159009,None,sing5,001,2019_Oct_24_1259,ProdFawcett_Revision2019,3.2.4,59.977727996596286,
,,,,87,0,87,0,,,,,,,,,,,,,1026.602902282757,None,,,,,,,,,,,,,,,,,,,,,,frank,C_sing,87,133,1024.8524998444918,None,1024.8524998444918,None,1024.8524998444918,None,1,0.8206484418769833,1024.8524998444918,None,1025.7359342538984,None,1025.7359342538984,None,1026.2529013497551,None,1026.2529013497551,None,1026.2529013497551,None,n,0.3089497418695828,1026.2529013497551,None,sing5,001,2019_Oct_24_1259,ProdFawcett_Revision2019,3.2.4,59.977727996596286,
,,,,88,0,88,0,,,,,,,,,,,,,1028.5702811469819,None,,,,,,,,,,,,,,,,,,,,,,split,D_new,88,299,1027.1198444983456,None,1027.1198444983456,None,1027.1198444983456,None,1,0.6653228214272531,1027.1198444983456,None,1027.836604466007,None,1027.836604466007,None,1028.3535609877435,None,1028.3535609877435,None,1028.3535609877435,None,n,0.18354574858676642,1028.3535609877435,None,sing5,001,2019_Oct_24_1259,ProdFawcett_Revision2019,3.2.4,59.977727996596286,
,,,,89,0,89,0,,,,,,,,,,,,,1030.2039718230953,None,,,,,,,,,,,,,,,,,,,,,,route,D_new,89,267,1029.0870827890758,None,1029.0870827890758,None,1029.0870827890758,None,1,0.4019540337030776,1029.0870827890758,None,1029.5539006033505,None,1029.5539006033505,None,1030.0706807862152,None,1030.0706807862152,None,1030.0706807862152,None,n,0.09830378802143969,1030.0706807862152,None,sing5,001,2019_Oct_24_1259,ProdFawcett_Revision2019,3.2.4,59.977727996596286,
,,,,90,0,90,0,,,,,,,,,,,,,1032.3880888847343,None,,,,,,,,,,,,,,,,,,,,,,stranger,D_new,90,309,1030.7211258319294,None,1030.7211258319294,None,1030.7211258319294,None,3,0.8561615973158041,1030.7211258319294,None,1031.6379091248382,None,1031.6379091248382,None,1032.1545835665893,None,1032.1545835665893,None,1032.1545835665893,None,n,0.19086085712478962,1032.1545835665893,None,sing5,001,2019_Oct_24_1259,ProdFawcett_Revision2019,3.2.4,59.977727996596286,
,,,,91,0,91,0,,,,,,,,,,,,,1035.572335634759,None,,,,,,,,,,,,,,,,,,,,,,message,B_aloud,91,189,1032.905209305216,None,1032.905209305216,None,1032.905209305216,None,6,1.5194756484415848,1032.905209305216,None,1034.47517167381,None,1034.47517167381,None,1035.005488897179,None,1035.005488897179,None,1035.005488897179,None,r,0.5312642284116009,1035.005488897179,None,sing5,001,2019_Oct_24_1259,ProdFawcett_Revision2019,3.2.4,59.977727996596286,
,,,,92,0,92,0,,,,,,,,,,,,,1038.9401592336799,None,,,,,,,,,,,,,,,,,,,,,,vision,A_silent,92,347,1036.08921875972,None,1036.08921875972,None,1036.08921875972,None,6,1.295573490075185,1036.08921875972,None,1037.4396547863435,None,1037.4396547863435,None,1037.9565441313607,None,1037.9565441313607,None,1037.9565441313607,None,r,0.948006468868698,1037.9565441313607,None,sing5,001,2019_Oct_24_1259,ProdFawcett_Revision2019,3.2.4,59.977727996596286,
,,,,93,0,93,0,,,,,,,,,,,,,1041.3243863904936,None,,,,,,,,,,,,,,,,,,,,,,birth,A_silent,93,22,1039.4571714250196,None,1039.4571714250196,None,1039.4571714250196,None,1,1.1434546246164246,1039.4571714250196,None,1040.6469164023147,None,1040.6469164023147,None,1041.1742172046943,None,1041.1742172046943,None,1041.1742172046943,None,n,0.10672420226910617,1041.1742172046943,None,sing5,001,2019_Oct_24_1259,ProdFawcett_Revision2019,3.2.4,59.977727996596286,
,,,,94,0,94,0,,,,,,,,,,,,,1043.2748015799007,None,,,,,,,,,,,,,,,,,,,,,,threat,B_aloud,94,329,1041.8412645393983,None,1041.8412645393983,None,1041.8412645393983,None,1,0.6949704546859721,1041.8412645393983,None,1042.59127262549,None,1042.59127262549,None,1043.1080008708086,None,1043.1080008708086,None,1043.1080008708086,None,n,0.13251352864608634,1043.1080008708086,None,sing5,001,2019_Oct_24_1259,ProdFawcett_Revision2019,3.2.4,59.977727996596286,
,,,,95,0,95,0,,,,,,,,,,,,,1045.8756403557782,None,,,,,,,,,,,,,,,,,,,,,,guest,D_new,95,146,1043.7914918828174,None,1043.7914918828174,None,1043.7914918828174,None,1,0.8486549107328756,1043.7914918828174,None,1044.6919185793377,None,1044.6919185793377,None,1045.2086325185082,None,1045.2086325185082,None,1045.2086325185082,None,n,0.6315665236033965,1045.2086325185082,None,sing5,001,2019_Oct_24_1259,ProdFawcett_Revision2019,3.2.4,59.977727996596286,
,,,,96,0,96,0,,,,,,,,,,,,,1049.9767901349696,None,,,,,,,,,,,,,,,,,,,,,,corner,D_new,96,69,1046.3931750326592,None,1046.3931750326592,None,1046.3931750326592,None,6,0.030870187227264978,1046.3931750326592,None,1046.4757576040283,None,1046.4757576040283,None,1046.9926665422681,None,1046.9926665422681,None,1046.9926665422681,None,n,2.9437351495871553,1046.9926665422681,None,sing5,001,2019_Oct_24_1259,ProdFawcett_Revision2019,3.2.4,59.977727996596286,
,,,,97,0,97,0,,,,,,,,,,,,,1051.9942007215286,None,,,,,,,,,,,,,,,,,,,,,,brilliant,D_new,97,30,1050.4955881072383,None,1050.4955881072383,None,1050.4955881072383,None,1,0.8243565341836074,1050.4955881072383,None,1051.3773452758614,None,1051.3773452758614,None,1051.8940722771658,None,1051.8940722771658,None,1051.8940722771658,None,n,0.05824345338623971,1051.8940722771658,None,sing5,001,2019_Oct_24_1259,ProdFawcett_Revision2019,3.2.4,59.977727996596286,
,,,,98,0,98,0,,,,,,,,,,,,,1053.9946594513895,None,,,,,,,,,,,,,,,,,,,,,,pattern,A_silent,98,214,1052.511025688873,None,1052.511025688873,None,1052.511025688873,None,1,0.7845537102693925,1052.511025688873,None,1053.3613621944387,None,1053.3613621944387,None,1053.8780077128758,None,1053.8780077128758,None,1053.8780077128758,None,n,0.07420134353742469,1053.8780077128758,None,sing5,001,2019_Oct_24_1259,ProdFawcett_Revision2019,3.2.4,59.977727996596286,
,,,,99,0,99,0,,,,,,,,,,,,,1055.9954242084932,None,,,,,,,,,,,,,,,,,,,,,,volume,B_aloud,99,349,1054.5115991789498,None,1054.5115991789498,None,1054.5115991789498,None,2,0.8163320271123666,1054.5115991789498,None,1055.3785603657307,None,1055.3785603657307,None,1055.895430428558,None,1055.895430428558,None,1055.895430428558,None,n,0.06415376003133133,1055.895430428558,None,sing5,001,2019_Oct_24_1259,ProdFawcett_Revision2019,3.2.4,59.977727996596286,
,,,,100,0,100,0,,,,,,,,,,,,,1059.1796056478197,None,,,,,,,,,,,,,,,,,,,,,,election,D_new,100,109,1056.5137970392534,None,1056.5137970392534,None,1056.5137970392534,None,1,1.0696896187000675,1056.5137970392534,None,1057.6328889096185,None,1057.6328889096185,None,1058.1461967406794,None,1058.1461967406794,None,1058.1461967406794,None,n,0.9970423586491961,1058.1461967406794,None,sing5,001,2019_Oct_24_1259,ProdFawcett_Revision2019,3.2.4,59.977727996596286,
,,,,101,0,101,0,,,,,,,,,,,,,1061.38044504571,None,,,,,,,,,,,,,,,,,,,,,,degree,C_sing,101,89,1059.6964971698617,None,1059.6964971698617,None,1059.6964971698617,None,3,1.0148961249069544,1059.6964971698617,None,1060.7516766187764,None,1060.7516766187764,None,1061.2806826522283,None,1061.2806826522283,None,1061.2806826522283,None,n,0.05490203395311255,1061.2806826522283,None,sing5,001,2019_Oct_24_1259,ProdFawcett_Revision2019,3.2.4,59.977727996596286,
,,,,102,0,102,0,,,,,,,,,,,,,1063.514431174961,None,,,,,,,,,,,,,,,,,,,,,,point,D_new,102,226,1061.8985731168796,None,1061.8985731168796,None,1061.8985731168796,None,2,0.9488533308467595,1061.8985731168796,None,1062.8850052870548,None,1062.8850052870548,None,1063.4142797163659,None,1063.4142797163659,None,1063.4142797163659,None,n,0.06493282328301575,1063.4142797163659,None,sing5,001,2019_Oct_24_1259,ProdFawcett_Revision2019,3.2.4,59.977727996596286,
,,,,103,0,103,0,,,,,,,,,,,,,1066.4151894009992,None,,,,,,,,,,,,,,,,,,,,,,sweet,D_new,103,319,1064.0316144181124,None,1064.0316144181124,None,1064.0316144181124,None,1,0.8079990047845058,1064.0316144181124,None,1064.887496112453,None,1064.887496112453,None,1065.4149813397962,None,1065.4149813397962,None,1065.4149813397962,None,n,0.9601670087722596,1065.4149813397962,None,sing5,001,2019_Oct_24_1259,ProdFawcett_Revision2019,3.2.4,59.977727996596286,
,,,,104,0,104,0,,,,,,,,,,,,,1068.9660213348252,None,,,,,,,,,,,,,,,,,,,,,,blind,B_aloud,104,24,1066.9364020028588,None,1066.9364020028588,None,1066.9364020028588,None,1,0.8303290414769435,1066.9364020028588,None,1067.8231958698743,None,1067.8231958698743,None,1068.3492479940323,None,1068.3492479940323,None,1068.3492479940323,None,n,0.5776643652352504,1068.3492479940323,None,sing5,001,2019_Oct_24_1259,ProdFawcett_Revision2019,3.2.4,59.977727996596286,
,,,,105,0,105,0,,,,,,,,,,,,,1071.7003187783703,None,,,,,,,,,,,,,,,,,,,,,,incident,C_sing,105,158,1069.4836011071748,None,1069.4836011071748,None,1069.4836011071748,None,6,1.3311597312858794,1069.4836011071748,None,1070.8561671953648,None,1070.8561671953648,None,1071.3835550786753,None,1071.3835550786753,None,1071.3835550786753,None,f,0.2789855072478531,1071.3835550786753,None,sing5,001,2019_Oct_24_1259,ProdFawcett_Revision2019,3.2.4,59.977727996596286,
,,,,106,0,106,0,,,,,,,,,,,,,1074.1176917335251,None,,,,,,,,,,,,,,,,,,,,,,broad,C_sing,106,31,1072.2175508490327,None,1072.2175508490327,None,1072.2175508490327,None,1,0.7810533681622474,1072.2175508490327,None,1073.0508073645615,None,1073.0508073645615,None,1073.5675592461193,None,1073.5675592461193,None,1073.5675592461193,None,f,0.5112766685342649,1073.5675592461193,None,sing5,001,2019_Oct_24_1259,ProdFawcett_Revision2019,3.2.4,59.977727996596286,
,,,,107,0,107,0,,,,,,,,,,,,,1076.101502767924,None,,,,,,,,,,,,,,,,,,,,,,service,A_silent,107,280,1074.6345362940774,None,1074.6345362940774,None,1074.6345362940774,None,6,0.419780742682633,1074.6345362940774,None,1075.1179784785636,None,1075.1179784785636,None,1075.6348556944722,None,1075.6348556944722,None,1075.6348556944722,None,f,0.4277924985944992,1075.6348556944722,None,sing5,001,2019_Oct_24_1259,ProdFawcett_Revision2019,3.2.4,59.977727996596286,
,,,,108,0,108,0,,,,,,,,,,,,,1078.4523981464154,None,,,,,,,,,,,,,,,,,,,,,,novel,D_new,108,202,1076.618570317849,None,1076.618570317849,None,1076.618570317849,None,2,0.7716856378683588,1076.618570317849,None,1077.4519475026464,None,1077.4519475026464,None,1077.9689416557812,None,1077.9689416557812,None,1077.9689416557812,None,f,0.4371390806772979,1077.9689416557812,None,sing5,001,2019_Oct_24_1259,ProdFawcett_Revision2019,3.2.4,59.977727996596286,
,,,,109,0,109,0,,,,,,,,,,,,,1081.1364698015823,None,,,,,,,,,,,,,,,,,,,,,,platform,A_silent,109,224,1078.9704316725692,None,1078.9704316725692,None,1078.9704316725692,None,3,0.8276261118444381,1078.9704316725692,None,1079.8526755613566,None,1079.8526755613566,None,1080.3697431112814,None,1080.3697431112814,None,1080.3697431112814,None,f,0.7326357529382221,1080.3697431112814,None,sing5,001,2019_Oct_24_1259,ProdFawcett_Revision2019,3.2.4,59.977727996596286,
,,,,110,0,110,0,,,,,,,,,,,,,1087.705216147282,None,,,,,,,,,,,,,,,,,,,,,,worker,D_new,110,356,1081.653220750144,None,1081.653220750144,None,1081.653220750144,None,6,3.168556944699958,1081.653220750144,None,1084.8709588231577,None,1084.8709588231577,None,1085.3878534552496,None,1085.3878534552496,None,1085.3878534552496,None,f,2.281881258939393,1085.3878534552496,None,sing5,001,2019_Oct_24_1259,ProdFawcett_Revision2019,3.2.4,59.977727996596286,
,,,,111,0,111,0,,,,,,,,,,,,,1090.2059473160334,None,,,,,,,,,,,,,,,,,,,,,,touch,A_silent,111,332,1088.2229256080027,None,1088.2229256080027,None,1088.2229256080027,None,2,1.20723362568242,1088.2229256080027,None,1089.489077875216,None,1089.489077875216,None,1090.0059948995477,None,1090.0059948995477,None,1090.0059948995477,None,f,0.1596470112563111,1090.0059948995477,None,sing5,001,2019_Oct_24_1259,ProdFawcett_Revision2019,3.2.4,59.977727996596286,
,,,,112,0,112,0,,,,,,,,,,,,,1092.2233311563032,None,,,,,,,,,,,,,,,,,,,,,,youth,D_new,112,359,1090.7228223549173,None,1090.7228223549173,None,1090.7228223549173,None,1,0.8185827579727629,1090.7228223549173,None,1091.6064847297384,None,1091.6064847297384,None,1092.1231579274754,None,1092.1231579274754,None,1092.1231579274754,None,n,0.06657803071720991,1092.1231579274754,None,sing5,001,2019_Oct_24_1259,ProdFawcett_Revision2019,3.2.4,59.977727996596286,
,,,,113,0,113,0,,,,,,,,,,,,,1094.5240178515814,None,,,,,,,,,,,,,,,,,,,,,,citizen,A_silent,113,50,1092.7465945138974,None,1092.7465945138974,None,1092.7465945138974,None,3,0.970951670082286,1092.7465945138974,None,1093.7640082104917,None,1093.7640082104917,None,1094.2777194128284,None,1094.2777194128284,None,1094.2777194128284,None,f,0.20779716364631895,1094.2777194128284,None,sing5,001,2019_Oct_24_1259,ProdFawcett_Revision2019,3.2.4,59.977727996596286,
,,,,114,0,114,0,,,,,,,,,,,,,1103.6602049511712,None,,,,,,,,,,,,,,,,,,,,,,working,D_new,114,357,1095.0409112396592,None,1095.0409112396592,None,1095.0409112396592,None,1,7.147844436156447,1095.0409112396592,None,1102.2430002487963,None,1102.2430002487963,None,1102.7599934689351,None,1102.7599934689351,None,1102.7599934689351,None,n,0.8526509920920944,1102.7599934689351,None,sing5,001,2019_Oct_24_1259,ProdFawcett_Revision2019,3.2.4,59.977727996596286,
,,,,115,0,115,0,,,,,,,,,,,,,1106.0609280338394,None,,,,,,,,,,,,,,,,,,,,,,sleep,A_silent,115,290,1104.178276419727,None,1104.178276419727,None,1104.178276419727,None,2,1.1862816445936915,1104.178276419727,None,1105.4149825838103,None,1105.4149825838103,None,1105.9442060085858,None,1105.9442060085858,None,1105.9442060085858,None,n,0.0765500404231716,1105.9442060085858,None,sing5,001,2019_Oct_24_1259,ProdFawcett_Revision2019,3.2.4,59.977727996596286,
,,,,116,0,116,0,,,,,,,,,,,,,1110.012170492002,None,,,,,,,,,,,,,,,,,,,,,,track,B_aloud,116,334,1106.5776142937102,None,1106.5776142937102,None,1106.5776142937102,None,2,1.2270395596278831,1106.5776142937102,None,1107.8486350065214,None,1107.8486350065214,None,1108.378198046892,None,1108.378198046892,None,1108.378198046892,None,n,1.5944411270756973,1108.378198046892,None,sing5,001,2019_Oct_24_1259,ProdFawcett_Revision2019,3.2.4,59.977727996596286,
,,,,117,0,117,0,,,,,,,,,,,,,1113.146448964355,None,,,,,,,,,,,,,,,,,,,,,,range,A_silent,117,251,1110.5289410337718,None,1110.5289410337718,None,1110.5289410337718,None,1,1.6512309510435443,1110.5289410337718,None,1112.2461768364738,None,1112.2461768364738,None,1112.7629324500886,None,1112.7629324500886,None,1112.7629324500886,None,f,0.3371729800273897,1112.7629324500886,None,sing5,001,2019_Oct_24_1259,ProdFawcett_Revision2019,3.2.4,59.977727996596286,
,,,,118,0,118,0,,,,,,,,,,,,,1115.413845555755,None,,,,,,,,,,,,,,,,,,,,,,leader,C_sing,118,168,1113.6515444423712,None,1113.6515444423712,None,1113.6515444423712,None,2,1.0483467064768774,1113.6515444423712,None,1114.7338639049558,None,1114.7338639049558,None,1115.2637634508865,None,1115.2637634508865,None,1115.2637634508865,None,n,0.10892299558327068,1115.2637634508865,None,sing5,001,2019_Oct_24_1259,ProdFawcett_Revision2019,3.2.4,59.977727996596286,
,,,,119,0,119,0,,,,,,,,,,,,,1117.9312794675643,None,,,,,,,,,,,,,,,,,,,,,,death,B_aloud,119,86,1115.9307734651957,None,1115.9307734651957,None,1115.9307734651957,None,3,1.1290952914132504,1115.9307734651957,None,1117.1141434969177,None,1117.1141434969177,None,1117.6311587982782,None,1117.6311587982782,None,1117.6311587982782,None,n,0.2526519251114223,1117.6311587982782,None,sing5,001,2019_Oct_24_1259,ProdFawcett_Revision2019,3.2.4,59.977727996596286,
,,,,120,0,120,0,,,,,,,,,,,,,1120.1154347826086,None,,,,,,,,,,,,,,,,,,,,,,patient,D_new,120,213,1118.4494796914805,None,1118.4494796914805,None,1118.4494796914805,None,1,0.9862365491135279,1118.4494796914805,None,1119.4860459040792,None,1119.4860459040792,None,1120.0151408844977,None,1120.0151408844977,None,1120.0151408844977,None,n,0.060789637369452976,1120.0151408844977,None,sing5,001,2019_Oct_24_1259,ProdFawcett_Revision2019,3.2.4,59.977727996596286,
,,,,121,0,121,0,,,,,,,,,,,,,1122.3493123717053,None,,,,,,,,,,,,,,,,,,,,,,captain,D_new,121,41,1120.6334365864313,None,1120.6334365864313,None,1120.6334365864313,None,4,1.0748684456048068,1120.6334365864313,None,1121.7545362940873,None,1121.7545362940873,None,1122.2660340859584,None,1122.2660340859584,None,1122.2660340859584,None,n,0.049908565037185326,1122.2660340859584,None,sing5,001,2019_Oct_24_1259,ProdFawcett_Revision2019,3.2.4,59.977727996596286,
,,,,122,0,122,0,,,,,,,,,,,,,1126.1506580829737,None,,,,,,,,,,,,,,,,,,,,,,accident,D_new,122,0,1122.865991789513,None,1122.865991789513,None,1122.865991789513,None,4,1.6816632456320804,1122.865991789513,None,1124.5889472538402,None,1124.5889472538402,None,1125.1167052310775,None,1125.1167052310775,None,1125.1167052310775,None,n,0.9913264290662482,1125.1167052310775,None,sing5,001,2019_Oct_24_1259,ProdFawcett_Revision2019,3.2.4,59.977727996596286,
,,,,123,0,123,0,,,,,,,,,,,,,1128.201096908626,None,,,,,,,,,,,,,,,,,,,,,,watch,C_sing,123,351,1126.6675312558218,None,1126.6675312558218,None,1126.6675312558218,None,2,0.8797536853962811,1126.6675312558218,None,1127.6009622441925,None,1127.6009622441925,None,1128.117616159725,None,1128.117616159725,None,1128.117616159725,None,n,0.03761460472014733,1128.117616159725,None,sing5,001,2019_Oct_24_1259,ProdFawcett_Revision2019,3.2.4,59.977727996596286,
,,,,124,0,124,0,,,,,,,,,,,,,1131.7022062573815,None,,,,,,,,,,,,,,,,,,,,,,community,A_silent,124,63,1128.718216396097,None,1128.718216396097,None,1128.718216396097,None,2,1.733333333322662,1128.718216396097,None,1130.5018402065034,None,1130.5018402065034,None,1131.018822230515,None,1131.018822230515,None,1131.018822230515,None,n,0.6482627355871955,1131.018822230515,None,sing5,001,2019_Oct_24_1259,ProdFawcett_Revision2019,3.2.4,59.977727996596286,
,,,,125,0,125,0,,,,,,,,,,,,,1135.6034658207354,None,,,,,,,,,,,,,,,,,,,,,,dream,D_new,125,104,1132.2195278969884,None,1132.2195278969884,None,1132.2195278969884,None,5,2.2713385581882903,1132.2195278969884,None,1134.5432530944818,None,1134.5432530944818,None,1135.0699903588975,None,1135.0699903588975,None,1135.0699903588975,None,f,0.49320457797148265,1135.0699903588975,None,sing5,001,2019_Oct_24_1259,ProdFawcett_Revision2019,3.2.4,59.977727996596286,
,,,,126,0,126,0,,,,,,,,,,,,,1138.1208577470825,None,,,,,,,,,,,,,,,,,,,,,,trail,D_new,126,336,1136.1204410026694,None,1136.1204410026694,None,1136.1204410026694,None,1,1.1784306773624849,1136.1204410026694,None,1137.3539848852379,None,1137.3539848852379,None,1137.8706761211652,None,1137.8706761211652,None,1137.8706761211652,None,n,0.21214219070679974,1137.8706761211652,None,sing5,001,2019_Oct_24_1259,ProdFawcett_Revision2019,3.2.4,59.977727996596286,
,,,,127,0,127,0,,,,,,,,,,,,,1141.0384754618426,None,,,,,,,,,,,,,,,,,,,,,,answer,C_sing,127,8,1138.6377029296418,None,1138.6377029296418,None,1138.6377029296418,None,2,1.0848762206878746,1138.6377029296418,None,1139.7879514212837,None,1139.7879514212837,None,1140.3048833737557,None,1140.3048833737557,None,1140.3048833737557,None,n,0.6903402376192389,1140.3048833737557,None,sing5,001,2019_Oct_24_1259,ProdFawcett_Revision2019,3.2.4,59.977727996596286,
,,,,128,0,128,0,,,,,,,,,,,,,1143.5558922684577,None,,,,,,,,,,,,,,,,,,,,,,master,C_sing,128,180,1141.5552938981127,None,1141.5552938981127,None,1141.5552938981127,None,3,0.8791164396388922,1141.5552938981127,None,1142.488760340857,None,1142.488760340857,None,1143.0056832742412,None,1143.0056832742412,None,1143.0056832742412,None,n,0.5094075387169141,1143.0056832742412,None,sing5,001,2019_Oct_24_1259,ProdFawcett_Revision2019,3.2.4,59.977727996596286,
,,,,129,0,129,0,,,,,,,,,,,,,1145.7898068669456,None,,,,,,,,,,,,,,,,,,,,,,running,D_new,129,268,1144.0737258194858,None,1144.0737258194858,None,1144.0737258194858,None,4,1.0967783168598544,1144.0737258194858,None,1145.22300180381,None,1145.22300180381,None,1145.739909809039,None,1145.739909809039,None,1145.739909809039,None,n,0.006399203834007494,1145.739909809039,None,sing5,001,2019_Oct_24_1259,ProdFawcett_Revision2019,3.2.4,59.977727996596286,
,,,,130,0,130,0,,,,,,,,,,,,,1148.3573797972203,None,,,,,,,,,,,,,,,,,,,,,,emergency,A_silent,130,110,1146.3074867823598,None,1146.3074867823598,None,1146.3074867823598,None,1,0.9749583255616017,1146.3074867823598,None,1147.3404266965226,None,1147.3404266965226,None,1147.8570653728966,None,1147.8570653728966,None,1147.8570653728966,None,n,0.46511382720200345,1147.8570653728966,None,sing5,001,2019_Oct_24_1259,ProdFawcett_Revision2019,3.2.4,59.977727996596286,
,,,,131,0,131,0,,,,,,,,,,,,,1151.0914576724463,None,,,,,,,,,,,,,,,,,,,,,,heavy,A_silent,131,151,1148.8740579710138,None,1148.8740579710138,None,1148.8740579710138,None,1,1.2564607824897394,1148.8740579710138,None,1150.19129843876,None,1150.19129843876,None,1150.7079483112466,None,1150.7079483112466,None,1150.7079483112466,None,n,0.34242022766557056,1150.7079483112466,None,sing5,001,2019_Oct_24_1259,ProdFawcett_Revision2019,3.2.4,59.977727996596286,
,,,,132,0,132,0,,,,,,,,,,,,,1154.9760941095883,None,,,,,,,,,,,,,,,,,,,,,,chief,B_aloud,132,48,1151.6085162032687,None,1151.6085162032687,None,1151.6085162032687,None,1,2.505220190330874,1151.6085162032687,None,1154.1643294768874,None,1154.1643294768874,None,1154.6925617341476,None,1154.6925617341476,None,1154.6925617341476,None,n,0.23711637743690517,1154.6925617341476,None,sing5,001,2019_Oct_24_1259,ProdFawcett_Revision2019,3.2.4,59.977727996596286,
,,,,133,0,133,0,,,,,,,,,,,,,1157.8768625987432,None,,,,,,,,,,,,,,,,,,,,,,burden,A_silent,133,36,1155.4929296510527,None,1155.4929296510527,None,1155.4929296510527,None,4,1.5088349816505797,1155.4929296510527,None,1157.0500037320307,None,1157.0500037320307,None,1157.5767562356195,None,1157.5767562356195,None,1157.5767562356195,None,n,0.2574870933603961,1157.5767562356195,None,sing5,001,2019_Oct_24_1259,ProdFawcett_Revision2019,3.2.4,59.977727996596286,
,,,,134,0,134,0,,,,,,,,,,,,,1159.8275841263821,None,,,,,,,,,,,,,,,,,,,,,,literature,B_aloud,134,173,1158.3955402127176,None,1158.3955402127176,None,1158.3955402127176,None,1,0.685883560377988,1158.3955402127176,None,1159.1439960813586,None,1159.1439960813586,None,1159.6608897804254,None,1159.6608897804254,None,1159.6608897804254,None,n,0.13290943585161585,1159.6608897804254,None,sing5,001,2019_Oct_24_1259,ProdFawcett_Revision2019,3.2.4,59.977727996596286,
,,,,135,0,135,0,,,,,,,,,,,,,1162.5784412514768,None,,,,,,,,,,,,,,,,,,,,,,disease,A_silent,135,97,1160.3455000933027,None,1160.3455000933027,None,1160.3455000933027,None,4,1.0322211855382193,1160.3455000933027,None,1161.427989363685,None,1161.427989363685,None,1161.9449381103477,None,1161.9449381103477,None,1161.9449381103477,None,n,0.58428438140254,1161.9449381103477,None,sing5,001,2019_Oct_24_1259,ProdFawcett_Revision2019,3.2.4,59.977727996596286,
,,,,136,0,136,0,,,,,,,,,,,,,1164.77900105741,None,,,,,,,,,,,,,,,,,,,,,,reach,D_new,136,253,1163.0965002799057,None,1163.0965002799057,None,1163.0965002799057,None,1,0.8008086085610557,1163.0965002799057,None,1163.9622152764787,None,1163.9622152764787,None,1164.4788800771203,None,1164.4788800771203,None,1164.4788800771203,None,f,0.25907196615298744,1164.4788800771203,None,sing5,001,2019_Oct_24_1259,ProdFawcett_Revision2019,3.2.4,59.977727996596286,
,,,,137,0,137,0,,,,,,,,,,,,,1167.5133081420645,None,,,,,,,,,,,,,,,,,,,,,,exchange,D_new,137,121,1165.2974954904494,None,1165.2974954904494,None,1165.2974954904494,None,1,1.159794115810655,1165.2974954904494,None,1166.5130235740507,None,1166.5130235740507,None,1167.0296746905515,None,1167.0296746905515,None,1167.0296746905515,None,n,0.43532002239953727,1167.0296746905515,None,sing5,001,2019_Oct_24_1259,ProdFawcett_Revision2019,3.2.4,59.977727996596286,
,,,,138,0,138,0,,,,,,,,,,,,,1170.1974379548337,None,,,,,,,,,,,,,,,,,,,,,,passage,B_aloud,138,212,1168.0314663805475,None,1168.0314663805475,None,1168.0314663805475,None,5,1.2494750264449976,1168.0314663805475,None,1169.3306574609596,None,1169.3306574609596,None,1169.8472765441256,None,1169.8472765441256,None,1169.8472765441256,None,f,0.31376469491806347,1169.8472765441256,None,sing5,001,2019_Oct_24_1259,ProdFawcett_Revision2019,3.2.4,59.977727996596286,
,,,,139,0,139,0,,,,,,,,,,,,,1172.8482039559603,None,,,,,,,,,,,,,,,,,,,,,,general,D_new,139,135,1170.7153495677048,None,1170.7153495677048,None,1170.7153495677048,None,5,1.1097938048187643,1170.7153495677048,None,1171.8813640604494,None,1171.8813640604494,None,1172.3980114449223,None,1172.3980114449223,None,1172.3980114449223,None,f,0.40263792996120173,1172.3980114449223,None,sing5,001,2019_Oct_24_1259,ProdFawcett_Revision2019,3.2.4,59.977727996596286,
,,,,140,0,140,0,,,,,,,,,,,,,1175.1489892392856,None,,,,,,,,,,,,,,,,,,,,,,suspect,D_new,140,318,1173.3663329601259,None,1173.3663329601259,None,1173.3663329601259,None,5,1.1386359395401087,1173.3663329601259,None,1174.5654111463518,None,1174.5654111463518,None,1175.082342787835,None,1175.082342787835,None,1175.082342787835,None,f,0.03016576475056354,1175.082342787835,None,sing5,001,2019_Oct_24_1259,ProdFawcett_Revision2019,3.2.4,59.977727996596286,
,,,,141,0,141,0,,,,,,,,,,,,,1177.4032546495,None,,,,,,,,,,,,,,,,,,,,,,report,D_new,141,259,1175.6664498973696,None,1175.6664498973696,None,1175.6664498973696,None,4,1.0859084406256443,1175.6664498973696,None,1176.816179635498,None,1176.816179635498,None,1177.3367605896638,None,1177.3367605896638,None,1177.3367605896638,None,f,0.03974528828985058,1177.3367605896638,None,sing5,001,2019_Oct_24_1259,ProdFawcett_Revision2019,3.2.4,59.977727996596286,
,,,,142,0,142,0,,,,,,,,,,,,,1180.2672861852334,None,,,,,,,,,,,,,,,,,,,,,,strain,B_aloud,142,308,1177.9331887167937,None,1177.9331887167937,None,1177.9331887167937,None,3,1.2030702245392604,1177.9331887167937,None,1179.200281768979,None,1179.200281768979,None,1179.7169736269134,None,1179.7169736269134,None,1179.7169736269134,None,f,0.5080238850641763,1179.7169736269134,None,sing5,001,2019_Oct_24_1259,ProdFawcett_Revision2019,3.2.4,59.977727996596286,
,,,,143,0,143,0,,,,,,,,,,,,,1182.4678973067057,None,,,,,,,,,,,,,,,,,,,,,,generation,D_new,143,136,1180.7863503763074,None,1180.7863503763074,None,1180.7863503763074,None,2,0.7658229147200473,1180.7863503763074,None,1181.6176491260849,None,1181.6176491260849,None,1182.134686197678,None,1182.134686197678,None,1182.134686197678,None,f,0.2901051191147417,1182.134686197678,None,sing5,001,2019_Oct_24_1259,ProdFawcett_Revision2019,3.2.4,59.977727996596286,
,,,,144,0,144,0,,,,,,,,,,,,,1188.6198323692224,None,,,,,,,,,,,,,,,,,,,,,,bitter,D_new,144,23,1182.984582944584,None,1182.984582944584,None,1182.984582944584,None,6,3.647307955456199,1182.984582944584,None,1186.6858319338207,None,1186.6858319338207,None,1187.2027380730142,None,1187.2027380730142,None,1187.2027380730142,None,f,1.3735336194513366,1187.2027380730142,None,sing5,001,2019_Oct_24_1259,ProdFawcett_Revision2019,3.2.4,59.977727996596286,
,,,,145,0,145,0,,,,,,,,,,,,,1192.054246128013,None,,,,,,,,,,,,,,,,,,,,,,clear,D_new,145,52,1189.1365469304,None,1189.1365469304,None,1189.1365469304,None,2,1.1191518940031528,1189.1365469304,None,1190.309853828454,None,1190.309853828454,None,1190.8372155874822,None,1190.8372155874822,None,1190.8372155874822,None,f,1.1784692417713813,1190.8372155874822,None,sing5,001,2019_Oct_24_1259,ProdFawcett_Revision2019,3.2.4,59.977727996596286,
,,,,146,0,146,0,,,,,,,,,,,,,1195.4885121602274,None,,,,,,,,,,,,,,,,,,,,,,universal,D_new,146,345,1192.5721222864959,None,1192.5721222864959,None,1192.5721222864959,None,1,0.8994243328925222,1192.5721222864959,None,1193.5213370031706,None,1193.5213370031706,None,1194.0387628288881,None,1194.0387628288881,None,1194.0387628288881,None,n,1.4087659389188047,1194.0387628288881,None,sing5,001,2019_Oct_24_1259,ProdFawcett_Revision2019,3.2.4,59.977727996596286,
,,,,147,0,147,0,,,,,,,,,,,,,1197.5058023885067,None,,,,,,,,,,,,,,,,,,,,,,taste,D_new,147,322,1196.0054123903683,None,1196.0054123903683,None,1196.0054123903683,None,2,0.8261037507036235,1196.0054123903683,None,1196.8781601044902,None,1196.8781601044902,None,1197.4060387510108,None,1197.4060387510108,None,1197.4060387510108,None,n,0.06552901660325006,1197.4060387510108,None,sing5,001,2019_Oct_24_1259,ProdFawcett_Revision2019,3.2.4,59.977727996596286,
,,,,148,0,148,0,,,,,,,,,,,,,1199.873253405487,None,,,,,,,,,,,,,,,,,,,,,,equipment,D_new,148,116,1198.039529452013,None,1198.039529452013,None,1198.039529452013,None,3,0.8316759967565304,1198.039529452013,None,1198.9229918517085,None,1198.9229918517085,None,1199.4443161037489,None,1199.4443161037489,None,1199.4443161037489,None,n,0.3951598556886893,1199.4443161037489,None,sing5,001,2019_Oct_24_1259,ProdFawcett_Revision2019,3.2.4,59.977727996596286,
,,,,149,0,149,0,,,,,,,,,,,,,1202.1407215276413,None,,,,,,,,,,,,,,,,,,,,,,union,D_new,149,344,1200.390464949931,None,1200.390464949931,None,1200.390464949931,None,4,0.7608154506451683,1200.390464949931,None,1201.1969652298285,None,1201.1969652298285,None,1201.7239058903942,None,1201.7239058903942,None,1201.7239058903942,None,f,0.3790660570957698,1201.7239058903942,None,sing5,001,2019_Oct_24_1259,ProdFawcett_Revision2019,3.2.4,59.977727996596286,
,,,,150,0,150,0,,,,,,,,,,,,,1204.4749359333218,None,,,,,,,,,,,,,,,,,,,,,,comfort,D_new,150,59,1202.6583355103503,None,1202.6583355103503,None,1202.6583355103503,None,2,0.8207504509628052,1202.6583355103503,None,1203.5283644336596,None,1203.5283644336596,None,1204.0411640853417,None,1204.0411640853417,None,1204.0411640853417,None,f,0.39782142190961167,1204.0411640853417,None,sing5,001,2019_Oct_24_1259,ProdFawcett_Revision2019,3.2.4,59.977727996596286,
,,,,151,0,151,0,,,,,,,,,,,,,1206.8586782359926,None,,,,,,,,,,,,,,,,,,,,,,thing,D_new,151,328,1204.9915973129246,None,1204.9915973129246,None,1204.9915973129246,None,4,1.2078049387346255,1204.9915973129246,None,1206.2586359395355,None,1206.2586359395355,None,1206.7753078932583,None,1206.7753078932583,None,1206.7753078932583,None,f,0.04755271507019643,1206.7753078932583,None,sing5,001,2019_Oct_24_1259,ProdFawcett_Revision2019,3.2.4,59.977727996596286,
,,,,152,0,152,0,,,,,,,,,,,,,1209.5429716365034,None,,,,,,,,,,,,,,,,,,,,,,hunger,D_new,152,155,1207.3754888971744,None,1207.3754888971744,None,1207.3754888971744,None,1,1.415256266715005,1207.3754888971744,None,1208.842641662006,None,1208.842641662006,None,1209.3594520121842,None,1209.3594520121842,None,1209.3594520121842,None,f,0.14341326117573772,1209.3594520121842,None,sing5,001,2019_Oct_24_1259,ProdFawcett_Revision2019,3.2.4,59.977727996596286,
,,,,153,0,153,0,,,,,,,,,,,,,1212.0269210673578,None,,,,,,,,,,,,,,,,,,,,,,minute,D_new,153,192,1210.0610241338582,None,1210.0610241338582,None,1210.0610241338582,None,2,1.0334188592387363,1210.0610241338582,None,1211.1602065061888,None,1211.1602065061888,None,1211.682413696588,None,1211.682413696588,None,1211.682413696588,None,f,0.3002540896850405,1211.682413696588,None,sing5,001,2019_Oct_24_1259,ProdFawcett_Revision2019,3.2.4,59.977727996596286,
