StudyTrials.thisRepN,StudyTrials.thisTrialN,StudyTrials.thisN,StudyTrials.thisIndex,TestTrials.thisRepN,TestTrials.thisTrialN,TestTrials.thisN,TestTrials.thisIndex,textWelcome.started,textWelcome.stopped,keyWelcome.keys,keyWelcome.rt,keyWelcome.started,keyWelcome.stopped,textReady.started,textReady.stopped,keyReady.keys,keyReady.rt,keyReady.started,keyReady.stopped,polyback_2.started,polyback_2.stopped,studyPic,studyWord,studyType,studyN,studyOrder,polyback_3.started,polyback_3.stopped,studyPicChoice.started,studyPicChoice.stopped,polyback_4.started,polyback_4.stopped,polyback.started,polyback.stopped,studyWords.started,studyWords.stopped,getResearcher.started,getResearcher.stopped,kPress2.keys,kPress2.rt,kPress2.started,kPress2.stopped,testWord,testType,testN,testOrder,polyback_5.started,polyback_5.stopped,testWords.started,testWords.stopped,textScale.started,textScale.stopped,keyConf.keys,keyConf.rt,keyConf.started,keyConf.stopped,polyback_6.started,polyback_6.stopped,studyWords_2.started,studyWords_2.stopped,polyback_7.started,polyback_7.stopped,testWords_2.started,testWords_2.stopped,textScale_2.started,textScale_2.stopped,keyRKN.keys,keyRKN.rt,keyRKN.started,keyRKN.stopped,participant,session,date,expName,psychopyVersion,frameRate,
,,,,,,,,132.769454929512,None,space,296.04437306616455,132.769454929512,None,,,,,,,,,,,,,,,,,,,,,,,,,,,,,,,,,,,,,,,,,,,,,,,,,,,,,,,,,,sing1,001,2019_Oct_22_1215,ProdFawcett_Revision2019,3.2.4,59.98893660103507,
,,,,,,,,,,,,,,428.8419188914704,None,space,18.674884983862285,428.8419188914704,None,,,,,,,,,,,,,,,,,,,,,,,,,,,,,,,,,,,,,,,,,,,,,,,,,,,,sing1,001,2019_Oct_22_1215,ProdFawcett_Revision2019,3.2.4,59.98893660103507,
0,0,0,0,,,,,,,,,,,,,,,,,452.33223601651844,None,materials/readPic.jpg,opening,A_silent,0,205,448.7974195587449,None,448.7974195587449,None,449.58242051815614,None,449.8482539911638,None,449.8482539911638,None,,,,,,,,,,,,,,,,,,,,,,,,,,,,,,,,,,,sing1,001,2019_Oct_22_1215,ProdFawcett_Revision2019,3.2.4,59.98893660103507,
1,0,1,0,,,,,,,,,,,,,,,,,456.60023499274394,None,materials/speakPic.jpg,trend,B_aloud,1,340,452.9696024064324,None,452.9696024064324,None,453.84928309504176,None,454.1159360568854,None,454.1159360568854,None,,,,,,,,,,,,,,,,,,,,,,,,,,,,,,,,,,,sing1,001,2019_Oct_22_1215,ProdFawcett_Revision2019,3.2.4,59.98893660103507,
2,0,2,0,,,,,,,,,,,,,,,,,460.8680896642618,None,materials/singPic.jpg,household,C_sing,2,154,457.29135891777696,None,457.29135891777696,None,458.11717695271363,None,458.3746587925707,None,458.3746587925707,None,,,,,,,,,,,,,,,,,,,,,,,,,,,,,,,,,,,sing1,001,2019_Oct_22_1215,ProdFawcett_Revision2019,3.2.4,59.98893660103507,
3,0,3,0,,,,,,,,,,,,,,,,,465.1360112010734,None,materials/speakPic.jpg,community,B_aloud,3,63,461.4251215782715,None,461.4251215782715,None,462.3851774838986,None,462.6518593688961,None,462.6518593688961,None,,,,,,,,,,,,,,,,,,,,,,,,,,,,,,,,,,,sing1,001,2019_Oct_22_1215,ProdFawcett_Revision2019,3.2.4,59.98893660103507,
4,0,4,0,,,,,,,,,,,,,,,,,469.4040030242177,None,materials/speakPic.jpg,bicycle,B_aloud,4,21,465.7037745314301,None,465.7037745314301,None,466.65350456663873,None,466.91979956580326,None,466.91979956580326,None,,,,,,,,,,,,,,,,,,,,,,,,,,,,,,,,,,,sing1,001,2019_Oct_22_1215,ProdFawcett_Revision2019,3.2.4,59.98893660103507,
5,0,5,0,,,,,,,,,,,,,,,,,473.6719845843036,None,materials/speakPic.jpg,trial,B_aloud,5,341,469.9707257436821,None,469.9707257436821,None,470.922891853319,None,471.1881285145646,None,471.1881285145646,None,,,,,,,,,,,,,,,,,,,,,,,,,,,,,,,,,,,sing1,001,2019_Oct_22_1215,ProdFawcett_Revision2019,3.2.4,59.98893660103507,
6,0,6,0,,,,,,,,,,,,,,,,,477.94008370296797,None,materials/speakPic.jpg,discovery,B_aloud,6,95,474.25516176898964,None,474.25516176898964,None,475.1896144794882,None,475.4557378058671,None,475.4557378058671,None,,,,,,,,,,,,,,,,,,,,,,,,,,,,,,,,,,,sing1,001,2019_Oct_22_1215,ProdFawcett_Revision2019,3.2.4,59.98893660103507,
7,0,7,0,,,,,,,,,,,,,,,,,482.2078895472223,None,materials/singPic.jpg,crowd,C_sing,7,81,478.5487384381704,None,478.5487384381704,None,479.456968438637,None,479.72373242804315,None,479.72373242804315,None,,,,,,,,,,,,,,,,,,,,,,,,,,,,,,,,,,,sing1,001,2019_Oct_22_1215,ProdFawcett_Revision2019,3.2.4,59.98893660103507,
8,0,8,0,,,,,,,,,,,,,,,,,486.4759012744762,None,materials/singPic.jpg,youth,C_sing,8,359,482.7912632848602,None,482.7912632848602,None,483.7249736348749,None,483.99166733794846,None,483.99166733794846,None,,,,,,,,,,,,,,,,,,,,,,,,,,,,,,,,,,,sing1,001,2019_Oct_22_1215,ProdFawcett_Revision2019,3.2.4,59.98893660103507,
9,0,9,0,,,,,,,,,,,,,,,,,490.74363745440496,None,materials/readPic.jpg,executive,A_silent,9,122,487.0774633103865,None,487.0774633103865,None,487.99298971612006,None,488.25963521399535,None,488.25963521399535,None,,,,,,,,,,,,,,,,,,,,,,,,,,,,,,,,,,,sing1,001,2019_Oct_22_1215,ProdFawcett_Revision2019,3.2.4,59.98893660103507,
10,0,10,0,,,,,,,,,,,,,,,,,495.0117975293542,None,materials/singPic.jpg,object,C_sing,10,204,491.3619525169488,None,491.3619525169488,None,492.2626304690493,None,492.527883924311,None,492.527883924311,None,,,,,,,,,,,,,,,,,,,,,,,,,,,,,,,,,,,sing1,001,2019_Oct_22_1215,ProdFawcett_Revision2019,3.2.4,59.98893660103507,
11,0,11,0,,,,,,,,,,,,,,,,,499.2799196621054,None,materials/readPic.jpg,sound,A_silent,11,295,495.6135953044286,None,495.6135953044286,None,496.52894692734117,None,496.79555852600606,None,496.79555852600606,None,,,,,,,,,,,,,,,,,,,,,,,,,,,,,,,,,,,sing1,001,2019_Oct_22_1215,ProdFawcett_Revision2019,3.2.4,59.98893660103507,
12,0,12,0,,,,,,,,,,,,,,,,,503.531240563083,None,materials/readPic.jpg,match,A_silent,12,181,499.8198262808146,None,499.8198262808146,None,500.7970152568305,None,501.0635120959487,None,501.0635120959487,None,,,,,,,,,,,,,,,,,,,,,,,,,,,,,,,,,,,sing1,001,2019_Oct_22_1215,ProdFawcett_Revision2019,3.2.4,59.98893660103507,
13,0,13,0,,,,,,,,,,,,,,,,,507.79885514144553,None,materials/speakPic.jpg,signal,B_aloud,13,287,504.1395161874825,None,504.1395161874825,None,505.0480736725149,None,505.31478727969807,None,505.31478727969807,None,,,,,,,,,,,,,,,,,,,,,,,,,,,,,,,,,,,sing1,001,2019_Oct_22_1215,ProdFawcett_Revision2019,3.2.4,59.98893660103507,
14,0,14,0,,,,,,,,,,,,,,,,,512.0669464850798,None,materials/speakPic.jpg,search,B_aloud,14,276,508.36633110645926,None,508.36633110645926,None,509.3160682946909,None,509.56938644702313,None,509.56938644702313,None,,,,,,,,,,,,,,,,,,,,,,,,,,,,,,,,,,,sing1,001,2019_Oct_22_1215,ProdFawcett_Revision2019,3.2.4,59.98893660103507,
15,0,15,0,,,,,,,,,,,,,,,,,516.3348994330154,None,materials/singPic.jpg,brilliant,C_sing,15,30,512.6849197570118,None,512.6849197570118,None,513.5840616728528,None,513.850713079737,None,513.850713079737,None,,,,,,,,,,,,,,,,,,,,,,,,,,,,,,,,,,,sing1,001,2019_Oct_22_1215,ProdFawcett_Revision2019,3.2.4,59.98893660103507,
16,0,16,0,,,,,,,,,,,,,,,,,520.6029615424923,None,materials/singPic.jpg,range,C_sing,16,251,516.9250147492858,None,516.9250147492858,None,517.8519462005352,None,518.1031028926955,None,518.1031028926955,None,,,,,,,,,,,,,,,,,,,,,,,,,,,,,,,,,,,sing1,001,2019_Oct_22_1215,ProdFawcett_Revision2019,3.2.4,59.98893660103507,
17,0,17,0,,,,,,,,,,,,,,,,,524.8707020764705,None,materials/speakPic.jpg,straight,B_aloud,17,307,521.1736852957984,None,521.1736852957984,None,522.119977520837,None,522.3698547530221,None,522.3698547530221,None,,,,,,,,,,,,,,,,,,,,,,,,,,,,,,,,,,,sing1,001,2019_Oct_22_1215,ProdFawcett_Revision2019,3.2.4,59.98893660103507,
18,0,18,0,,,,,,,,,,,,,,,,,529.1387847120641,None,materials/singPic.jpg,scale,C_sing,18,272,525.4724541343166,None,525.4724541343166,None,526.3878580054734,None,526.654865820019,None,526.654865820019,None,,,,,,,,,,,,,,,,,,,,,,,,,,,,,,,,,,,sing1,001,2019_Oct_22_1215,ProdFawcett_Revision2019,3.2.4,59.98893660103507,
19,0,19,0,,,,,,,,,,,,,,,,,533.4067603631411,None,materials/readPic.jpg,design,A_silent,19,91,529.7071103330818,None,529.7071103330818,None,530.6559120289166,None,530.9225572157302,None,530.9225572157302,None,,,,,,,,,,,,,,,,,,,,,,,,,,,,,,,,,,,sing1,001,2019_Oct_22_1215,ProdFawcett_Revision2019,3.2.4,59.98893660103507,
20,0,20,0,,,,,,,,,,,,,,,,,537.6747860854375,None,materials/singPic.jpg,report,C_sing,20,259,534.0155687330407,None,534.0155687330407,None,534.9237785184523,None,535.1905431298655,None,535.1905431298655,None,,,,,,,,,,,,,,,,,,,,,,,,,,,,,,,,,,,sing1,001,2019_Oct_22_1215,ProdFawcett_Revision2019,3.2.4,59.98893660103507,
21,0,21,0,,,,,,,,,,,,,,,,,541.9427881716401,None,materials/speakPic.jpg,business,B_aloud,21,38,538.2284084904823,None,538.2284084904823,None,539.1917532365187,None,539.4584907907993,None,539.4584907907993,None,,,,,,,,,,,,,,,,,,,,,,,,,,,,,,,,,,,sing1,001,2019_Oct_22_1215,ProdFawcett_Revision2019,3.2.4,59.98893660103507,
22,0,22,0,,,,,,,,,,,,,,,,,546.2106447091792,None,materials/speakPic.jpg,split,B_aloud,22,299,542.5092375208624,None,542.5092375208624,None,543.4596971654682,None,543.7264701739186,None,543.7264701739186,None,,,,,,,,,,,,,,,,,,,,,,,,,,,,,,,,,,,sing1,001,2019_Oct_22_1215,ProdFawcett_Revision2019,3.2.4,59.98893660103507,
23,0,23,0,,,,,,,,,,,,,,,,,550.4787071296596,None,materials/speakPic.jpg,volume,B_aloud,23,349,546.7938445969485,None,546.7938445969485,None,547.7276986296638,None,547.9838708423777,None,547.9838708423777,None,,,,,,,,,,,,,,,,,,,,,,,,,,,,,,,,,,,sing1,001,2019_Oct_22_1215,ProdFawcett_Revision2019,3.2.4,59.98893660103507,
24,0,24,0,,,,,,,,,,,,,,,,,554.7465801502112,None,materials/singPic.jpg,break,C_sing,24,26,551.0848082318553,None,551.0848082318553,None,551.995694495854,None,552.2624681262532,None,552.2624681262532,None,,,,,,,,,,,,,,,,,,,,,,,,,,,,,,,,,,,sing1,001,2019_Oct_22_1215,ProdFawcett_Revision2019,3.2.4,59.98893660103507,
25,0,25,0,,,,,,,,,,,,,,,,,559.014521280129,None,materials/readPic.jpg,answer,A_silent,25,8,555.3400200720644,None,555.3400200720644,None,556.2636667258921,None,556.5303619839833,None,556.5303619839833,None,,,,,,,,,,,,,,,,,,,,,,,,,,,,,,,,,,,sing1,001,2019_Oct_22_1215,ProdFawcett_Revision2019,3.2.4,59.98893660103507,
26,0,26,0,,,,,,,,,,,,,,,,,563.2825942746713,None,materials/readPic.jpg,sunset,A_silent,26,315,559.5644020266482,None,559.5644020266482,None,560.5323138291133,None,560.798367180163,None,560.798367180163,None,,,,,,,,,,,,,,,,,,,,,,,,,,,,,,,,,,,sing1,001,2019_Oct_22_1215,ProdFawcett_Revision2019,3.2.4,59.98893660103507,
27,0,27,0,,,,,,,,,,,,,,,,,567.5504579652334,None,materials/speakPic.jpg,emergency,B_aloud,27,110,563.8839501166367,None,563.8839501166367,None,564.7996136739966,None,565.0663036450278,None,565.0663036450278,None,,,,,,,,,,,,,,,,,,,,,,,,,,,,,,,,,,,sing1,001,2019_Oct_22_1215,ProdFawcett_Revision2019,3.2.4,59.98893660103507,
28,0,28,0,,,,,,,,,,,,,,,,,571.8184196212096,None,materials/singPic.jpg,thick,C_sing,28,327,568.156256774033,None,568.156256774033,None,569.067500689649,None,569.3344643419841,None,569.3344643419841,None,,,,,,,,,,,,,,,,,,,,,,,,,,,,,,,,,,,sing1,001,2019_Oct_22_1215,ProdFawcett_Revision2019,3.2.4,59.98893660103507,
29,0,29,0,,,,,,,,,,,,,,,,,576.0863828322617,None,materials/singPic.jpg,audience,C_sing,29,14,572.4016571401735,None,572.4016571401735,None,573.3356744486955,None,573.6022145170136,None,573.6022145170136,None,,,,,,,,,,,,,,,,,,,,,,,,,,,,,,,,,,,sing1,001,2019_Oct_22_1215,ProdFawcett_Revision2019,3.2.4,59.98893660103507,
30,0,30,0,,,,,,,,,,,,,,,,,580.354331426206,None,materials/singPic.jpg,expansion,C_sing,30,123,576.6763684608741,None,576.6763684608741,None,577.603433020704,None,577.8547100704745,None,577.8547100704745,None,,,,,,,,,,,,,,,,,,,,,,,,,,,,,,,,,,,sing1,001,2019_Oct_22_1215,ProdFawcett_Revision2019,3.2.4,59.98893660103507,
31,0,31,0,,,,,,,,,,,,,,,,,584.6225969306543,None,materials/readPic.jpg,season,A_silent,31,277,580.956302118022,None,580.956302118022,None,581.8713570455438,None,582.1381798142102,None,582.1381798142102,None,,,,,,,,,,,,,,,,,,,,,,,,,,,,,,,,,,,sing1,001,2019_Oct_22_1215,ProdFawcett_Revision2019,3.2.4,59.98893660103507,
32,0,32,0,,,,,,,,,,,,,,,,,588.8901816528523,None,materials/speakPic.jpg,patient,B_aloud,32,213,585.2107995878905,None,585.2107995878905,None,586.1393812128808,None,586.4061408482376,None,586.4061408482376,None,,,,,,,,,,,,,,,,,,,,,,,,,,,,,,,,,,,sing1,001,2019_Oct_22_1215,ProdFawcett_Revision2019,3.2.4,59.98893660103507,
33,0,33,0,,,,,,,,,,,,,,,,,593.1583171586972,None,materials/speakPic.jpg,discussion,B_aloud,33,96,589.4573988646735,None,589.4573988646735,None,590.407322031795,None,590.6573917738278,None,590.6573917738278,None,,,,,,,,,,,,,,,,,,,,,,,,,,,,,,,,,,,sing1,001,2019_Oct_22_1215,ProdFawcett_Revision2019,3.2.4,59.98893660103507,
34,0,34,0,,,,,,,,,,,,,,,,,597.42619204527,None,materials/singPic.jpg,listen,C_sing,34,172,593.7761741160648,None,593.7761741160648,None,594.6752986158244,None,594.9420921503915,None,594.9420921503915,None,,,,,,,,,,,,,,,,,,,,,,,,,,,,,,,,,,,sing1,001,2019_Oct_22_1215,ProdFawcett_Revision2019,3.2.4,59.98893660103507,
35,0,35,0,,,,,,,,,,,,,,,,,601.6941661413875,None,materials/readPic.jpg,weight,A_silent,35,353,598.0281820192467,None,598.0281820192467,None,598.9432422337704,None,599.2101079206332,None,599.2101079206332,None,,,,,,,,,,,,,,,,,,,,,,,,,,,,,,,,,,,sing1,001,2019_Oct_22_1215,ProdFawcett_Revision2019,3.2.4,59.98893660103507,
36,0,36,0,,,,,,,,,,,,,,,,,605.9623865505564,None,materials/readPic.jpg,congress,A_silent,36,67,602.2484805246349,None,602.2484805246349,None,603.2112026457908,None,603.4779750322341,None,603.4779750322341,None,,,,,,,,,,,,,,,,,,,,,,,,,,,,,,,,,,,sing1,001,2019_Oct_22_1215,ProdFawcett_Revision2019,3.2.4,59.98893660103507,
37,0,37,0,,,,,,,,,,,,,,,,,610.2300611522514,None,materials/speakPic.jpg,command,B_aloud,37,60,606.5636369630229,None,606.5636369630229,None,607.479275018326,None,607.7459609463112,None,607.7459609463112,None,,,,,,,,,,,,,,,,,,,,,,,,,,,,,,,,,,,sing1,001,2019_Oct_22_1215,ProdFawcett_Revision2019,3.2.4,59.98893660103507,
38,0,38,0,,,,,,,,,,,,,,,,,614.4980644824682,None,materials/readPic.jpg,division,A_silent,38,101,610.8315756049706,None,610.8315756049706,None,611.747902528441,None,612.0142774549895,None,612.0142774549895,None,,,,,,,,,,,,,,,,,,,,,,,,,,,,,,,,,,,sing1,001,2019_Oct_22_1215,ProdFawcett_Revision2019,3.2.4,59.98893660103507,
39,0,39,0,,,,,,,,,,,,,,,,,618.7660074783489,None,materials/speakPic.jpg,religion,B_aloud,39,258,615.086297617876,None,615.086297617876,None,616.0154511745204,None,616.2691394185531,None,616.2691394185531,None,,,,,,,,,,,,,,,,,,,,,,,,,,,,,,,,,,,sing1,001,2019_Oct_22_1215,ProdFawcett_Revision2019,3.2.4,59.98893660103507,
40,0,40,0,,,,,,,,,,,,,,,,,623.033963536378,None,materials/readPic.jpg,interview,A_silent,40,165,619.3582932737772,None,619.3582932737772,None,620.2830685519148,None,620.5500745004392,None,620.5500745004392,None,,,,,,,,,,,,,,,,,,,,,,,,,,,,,,,,,,,sing1,001,2019_Oct_22_1215,ProdFawcett_Revision2019,3.2.4,59.98893660103507,
41,0,41,0,,,,,,,,,,,,,,,,,627.3022389928228,None,materials/speakPic.jpg,mayor,B_aloud,41,183,623.6354070806992,None,623.6354070806992,None,624.552399547305,None,624.8178725696635,None,624.8178725696635,None,,,,,,,,,,,,,,,,,,,,,,,,,,,,,,,,,,,sing1,001,2019_Oct_22_1215,ProdFawcett_Revision2019,3.2.4,59.98893660103507,
42,0,42,0,,,,,,,,,,,,,,,,,631.5699645987479,None,materials/readPic.jpg,relation,A_silent,42,257,627.9033062254312,None,627.9033062254312,None,628.81906743726,None,629.0695564093185,None,629.0695564093185,None,,,,,,,,,,,,,,,,,,,,,,,,,,,,,,,,,,,sing1,001,2019_Oct_22_1215,ProdFawcett_Revision2019,3.2.4,59.98893660103507,
43,0,43,0,,,,,,,,,,,,,,,,,635.8378771165153,None,materials/speakPic.jpg,beginning,B_aloud,43,19,632.1380967768491,None,632.1380967768491,None,633.0869843090768,None,633.3537989917095,None,633.3537989917095,None,,,,,,,,,,,,,,,,,,,,,,,,,,,,,,,,,,,sing1,001,2019_Oct_22_1215,ProdFawcett_Revision2019,3.2.4,59.98893660103507,
44,0,44,0,,,,,,,,,,,,,,,,,640.105898795824,None,materials/speakPic.jpg,period,B_aloud,44,217,636.4046408882132,None,636.4046408882132,None,637.3549213959486,None,637.6216794763459,None,637.6216794763459,None,,,,,,,,,,,,,,,,,,,,,,,,,,,,,,,,,,,sing1,001,2019_Oct_22_1215,ProdFawcett_Revision2019,3.2.4,59.98893660103507,
45,0,45,0,,,,,,,,,,,,,,,,,644.3738477007719,None,materials/speakPic.jpg,trail,B_aloud,45,336,640.6891431568074,None,640.6891431568074,None,641.6229051330592,None,641.8898700294085,None,641.8898700294085,None,,,,,,,,,,,,,,,,,,,,,,,,,,,,,,,,,,,sing1,001,2019_Oct_22_1215,ProdFawcett_Revision2019,3.2.4,59.98893660103507,
46,0,46,0,,,,,,,,,,,,,,,,,648.642213969666,None,materials/speakPic.jpg,general,B_aloud,46,135,644.9426031257608,None,644.9426031257608,None,645.8907741106232,None,646.1576491275337,None,646.1576491275337,None,,,,,,,,,,,,,,,,,,,,,,,,,,,,,,,,,,,sing1,001,2019_Oct_22_1215,ProdFawcett_Revision2019,3.2.4,59.98893660103507,
47,0,47,0,,,,,,,,,,,,,,,,,652.909770079772,None,materials/speakPic.jpg,frank,B_aloud,47,133,649.209494003735,None,649.209494003735,None,650.1588411961566,None,650.4108357262448,None,650.4108357262448,None,,,,,,,,,,,,,,,,,,,,,,,,,,,,,,,,,,,sing1,001,2019_Oct_22_1215,ProdFawcett_Revision2019,3.2.4,59.98893660103507,
48,0,48,0,,,,,,,,,,,,,,,,,657.1777087216615,None,materials/speakPic.jpg,device,B_aloud,48,93,653.4929096332635,None,653.4929096332635,None,654.4271760539268,None,654.6935699515743,None,654.6935699515743,None,,,,,,,,,,,,,,,,,,,,,,,,,,,,,,,,,,,sing1,001,2019_Oct_22_1215,ProdFawcett_Revision2019,3.2.4,59.98893660103507,
49,0,49,0,,,,,,,,,,,,,,,,,661.4456762867048,None,materials/readPic.jpg,front,A_silent,49,134,657.7789572681068,None,657.7789572681068,None,658.6947890772717,None,658.9619903347339,None,658.9619903347339,None,,,,,,,,,,,,,,,,,,,,,,,,,,,,,,,,,,,sing1,001,2019_Oct_22_1215,ProdFawcett_Revision2019,3.2.4,59.98893660103507,
50,0,50,0,,,,,,,,,,,,,,,,,665.7136376316776,None,materials/speakPic.jpg,angle,B_aloud,50,7,662.0137901157141,None,662.0137901157141,None,662.9627103030798,None,663.2294450583286,None,663.2294450583286,None,,,,,,,,,,,,,,,,,,,,,,,,,,,,,,,,,,,sing1,001,2019_Oct_22_1215,ProdFawcett_Revision2019,3.2.4,59.98893660103507,
51,0,51,0,,,,,,,,,,,,,,,,,669.9818950500921,None,materials/readPic.jpg,death,A_silent,51,86,666.3150056027225,None,666.3150056027225,None,667.2307668145513,None,667.4974328384851,None,667.4974328384851,None,,,,,,,,,,,,,,,,,,,,,,,,,,,,,,,,,,,sing1,001,2019_Oct_22_1215,ProdFawcett_Revision2019,3.2.4,59.98893660103507,
52,0,52,0,,,,,,,,,,,,,,,,,674.249586134858,None,materials/speakPic.jpg,appearance,B_aloud,52,10,670.5830073779216,None,670.5830073779216,None,671.4986721792957,None,671.7653139451286,None,671.7653139451286,None,,,,,,,,,,,,,,,,,,,,,,,,,,,,,,,,,,,sing1,001,2019_Oct_22_1215,ProdFawcett_Revision2019,3.2.4,59.98893660103507,
53,0,53,0,,,,,,,,,,,,,,,,,678.5175232217298,None,materials/readPic.jpg,safety,A_silent,53,270,674.850820375199,None,674.850820375199,None,675.7667809390114,None,676.0335803825292,None,676.0335803825292,None,,,,,,,,,,,,,,,,,,,,,,,,,,,,,,,,,,,sing1,001,2019_Oct_22_1215,ProdFawcett_Revision2019,3.2.4,59.98893660103507,
54,0,54,0,,,,,,,,,,,,,,,,,682.7856326034525,None,materials/speakPic.jpg,comedy,B_aloud,54,58,679.1048843090539,None,679.1048843090539,None,680.03460357734,None,680.3012860843446,None,680.3012860843446,None,,,,,,,,,,,,,,,,,,,,,,,,,,,,,,,,,,,sing1,001,2019_Oct_22_1215,ProdFawcett_Revision2019,3.2.4,59.98893660103507,
55,0,55,0,,,,,,,,,,,,,,,,,687.0534493327723,None,materials/singPic.jpg,native,C_sing,55,199,683.3899233661359,None,683.3899233661359,None,684.3025702093728,None,684.5552557847113,None,684.5552557847113,None,,,,,,,,,,,,,,,,,,,,,,,,,,,,,,,,,,,sing1,001,2019_Oct_22_1215,ProdFawcett_Revision2019,3.2.4,59.98893660103507,
56,0,56,0,,,,,,,,,,,,,,,,,691.3216893350473,None,materials/readPic.jpg,growth,A_silent,56,144,687.6552878489601,None,687.6552878489601,None,688.5705128943082,None,688.837222769449,None,688.837222769449,None,,,,,,,,,,,,,,,,,,,,,,,,,,,,,,,,,,,sing1,001,2019_Oct_22_1215,ProdFawcett_Revision2019,3.2.4,59.98893660103507,
57,0,57,0,,,,,,,,,,,,,,,,,695.5894009459298,None,materials/readPic.jpg,department,A_silent,57,90,691.8973390404717,None,691.8973390404717,None,692.838491344417,None,693.1052037075278,None,693.1052037075278,None,,,,,,,,,,,,,,,,,,,,,,,,,,,,,,,,,,,sing1,001,2019_Oct_22_1215,ProdFawcett_Revision2019,3.2.4,59.98893660103507,
58,0,58,0,,,,,,,,,,,,,,,,,699.857341142837,None,materials/speakPic.jpg,notice,B_aloud,58,201,696.1442291035783,None,696.1442291035783,None,697.1064480243949,None,697.3733871075674,None,697.3733871075674,None,,,,,,,,,,,,,,,,,,,,,,,,,,,,,,,,,,,sing1,001,2019_Oct_22_1215,ProdFawcett_Revision2019,3.2.4,59.98893660103507,
59,0,59,0,,,,,,,,,,,,,,,,,704.125556265004,None,materials/speakPic.jpg,oxygen,B_aloud,59,209,700.4405074424576,None,700.4405074424576,None,701.3744323835126,None,701.6411133354995,None,701.6411133354995,None,,,,,,,,,,,,,,,,,,,,,,,,,,,,,,,,,,,sing1,001,2019_Oct_22_1215,ProdFawcett_Revision2019,3.2.4,59.98893660103507,
60,0,60,0,,,,,,,,,,,,,,,,,708.3932653878583,None,materials/readPic.jpg,turkey,A_silent,60,342,704.7458306367043,None,704.7458306367043,None,705.6425996114849,None,705.9090924075572,None,705.9090924075572,None,,,,,,,,,,,,,,,,,,,,,,,,,,,,,,,,,,,sing1,001,2019_Oct_22_1215,ProdFawcett_Revision2019,3.2.4,59.98893660103507,
61,0,61,0,,,,,,,,,,,,,,,,,712.6617902675061,None,materials/readPic.jpg,benefit,A_silent,61,20,708.9670043002698,None,708.9670043002698,None,709.9104197617853,None,710.1770556186093,None,710.1770556186093,None,,,,,,,,,,,,,,,,,,,,,,,,,,,,,,,,,,,sing1,001,2019_Oct_22_1215,ProdFawcett_Revision2019,3.2.4,59.98893660103507,
62,0,62,0,,,,,,,,,,,,,,,,,716.9292263310053,None,materials/readPic.jpg,quarter,A_silent,62,246,713.2321871581953,None,713.2321871581953,None,714.1783388106269,None,714.4468273030943,None,714.4468273030943,None,,,,,,,,,,,,,,,,,,,,,,,,,,,,,,,,,,,sing1,001,2019_Oct_22_1215,ProdFawcett_Revision2019,3.2.4,59.98893660103507,
63,0,63,0,,,,,,,,,,,,,,,,,721.197189853061,None,materials/readPic.jpg,private,A_silent,63,237,717.4692554842914,None,717.4692554842914,None,718.4462749644881,None,718.713234884839,None,718.713234884839,None,,,,,,,,,,,,,,,,,,,,,,,,,,,,,,,,,,,sing1,001,2019_Oct_22_1215,ProdFawcett_Revision2019,3.2.4,59.98893660103507,
64,0,64,0,,,,,,,,,,,,,,,,,725.4651583510567,None,materials/singPic.jpg,grade,C_sing,64,140,721.8052518194891,None,721.8052518194891,None,722.7142863807385,None,722.980930945545,None,722.980930945545,None,,,,,,,,,,,,,,,,,,,,,,,,,,,,,,,,,,,sing1,001,2019_Oct_22_1215,ProdFawcett_Revision2019,3.2.4,59.98893660103507,
65,0,65,0,,,,,,,,,,,,,,,,,729.7330842419178,None,materials/singPic.jpg,tennis,C_sing,65,323,726.048548882769,None,726.048548882769,None,726.982204807573,None,727.2490521453437,None,727.2490521453437,None,,,,,,,,,,,,,,,,,,,,,,,,,,,,,,,,,,,sing1,001,2019_Oct_22_1215,ProdFawcett_Revision2019,3.2.4,59.98893660103507,
66,0,66,0,,,,,,,,,,,,,,,,,734.0011108972249,None,materials/readPic.jpg,vision,A_silent,66,347,730.3242087578983,None,730.3242087578983,None,731.2501571335015,None,731.5168778937077,None,731.5168778937077,None,,,,,,,,,,,,,,,,,,,,,,,,,,,,,,,,,,,sing1,001,2019_Oct_22_1215,ProdFawcett_Revision2019,3.2.4,59.98893660103507,
67,0,67,0,,,,,,,,,,,,,,,,,738.2693673826288,None,materials/readPic.jpg,platform,A_silent,67,224,734.590873537818,None,734.590873537818,None,735.5181511336705,None,735.7848134255619,None,735.7848134255619,None,,,,,,,,,,,,,,,,,,,,,,,,,,,,,,,,,,,sing1,001,2019_Oct_22_1215,ProdFawcett_Revision2019,3.2.4,59.98893660103507,
68,0,68,0,,,,,,,,,,,,,,,,,742.5373137995484,None,materials/speakPic.jpg,mankind,B_aloud,68,178,738.8711735546822,None,738.8711735546822,None,739.7860474793706,None,740.0530988341197,None,740.0530988341197,None,,,,,,,,,,,,,,,,,,,,,,,,,,,,,,,,,,,sing1,001,2019_Oct_22_1215,ProdFawcett_Revision2019,3.2.4,59.98893660103507,
69,0,69,0,,,,,,,,,,,,,,,,,746.8050017742789,None,materials/singPic.jpg,concern,C_sing,69,65,743.1215120020206,None,743.1215120020206,None,744.0545123357442,None,744.3207532207016,None,744.3207532207016,None,,,,,,,,,,,,,,,,,,,,,,,,,,,,,,,,,,,sing1,001,2019_Oct_22_1215,ProdFawcett_Revision2019,3.2.4,59.98893660103507,
70,0,70,0,,,,,,,,,,,,,,,,,751.0730803668266,None,materials/singPic.jpg,hearing,C_sing,70,150,747.4048184700077,None,747.4048184700077,None,748.3220270826714,None,748.5887080346583,None,748.5887080346583,None,,,,,,,,,,,,,,,,,,,,,,,,,,,,,,,,,,,sing1,001,2019_Oct_22_1215,ProdFawcett_Revision2019,3.2.4,59.98893660103507,
71,0,71,0,,,,,,,,,,,,,,,,,755.3409365933621,None,materials/readPic.jpg,incident,A_silent,71,158,751.6753564621322,None,751.6753564621322,None,752.5900133077521,None,752.8406562255695,None,752.8406562255695,None,,,,,,,,,,,,,,,,,,,,,,,,,,,,,,,,,,,sing1,001,2019_Oct_22_1215,ProdFawcett_Revision2019,3.2.4,59.98893660103507,
72,0,72,0,,,,,,,,,,,,,,,,,759.6088292070199,None,materials/readPic.jpg,thing,A_silent,72,328,755.9136970951804,None,755.9136970951804,None,756.8579550596769,None,757.1246363226674,None,757.1246363226674,None,,,,,,,,,,,,,,,,,,,,,,,,,,,,,,,,,,,sing1,001,2019_Oct_22_1215,ProdFawcett_Revision2019,3.2.4,59.98893660103507,
73,0,73,0,,,,,,,,,,,,,,,,,763.8769189956365,None,materials/singPic.jpg,burden,C_sing,73,36,760.2121045499807,None,760.2121045499807,None,761.126157119812,None,761.3926999871619,None,761.3926999871619,None,,,,,,,,,,,,,,,,,,,,,,,,,,,,,,,,,,,sing1,001,2019_Oct_22_1215,ProdFawcett_Revision2019,3.2.4,59.98893660103507,
74,0,74,0,,,,,,,,,,,,,,,,,768.1451975621749,None,materials/singPic.jpg,profession,C_sing,74,241,764.477142481308,None,764.477142481308,None,765.3939782031812,None,765.6606750162318,None,765.6606750162318,None,,,,,,,,,,,,,,,,,,,,,,,,,,,,,,,,,,,sing1,001,2019_Oct_22_1215,ProdFawcett_Revision2019,3.2.4,59.98893660103507,
75,0,75,0,,,,,,,,,,,,,,,,,772.4127157300827,None,materials/singPic.jpg,court,C_sing,75,75,768.727937478805,None,768.727937478805,None,769.6622094974737,None,769.928528132732,None,769.928528132732,None,,,,,,,,,,,,,,,,,,,,,,,,,,,,,,,,,,,sing1,001,2019_Oct_22_1215,ProdFawcett_Revision2019,3.2.4,59.98893660103507,
76,0,76,0,,,,,,,,,,,,,,,,,776.6808583889506,None,materials/singPic.jpg,voice,C_sing,76,348,772.9960316214128,None,772.9960316214128,None,773.9298414919176,None,774.1964953867719,None,774.1964953867719,None,,,,,,,,,,,,,,,,,,,,,,,,,,,,,,,,,,,sing1,001,2019_Oct_22_1215,ProdFawcett_Revision2019,3.2.4,59.98893660103507,
77,0,77,0,,,,,,,,,,,,,,,,,780.948665477219,None,materials/singPic.jpg,second,C_sing,77,278,777.280514918908,None,777.280514918908,None,778.1977956838673,None,778.4477152122417,None,778.4477152122417,None,,,,,,,,,,,,,,,,,,,,,,,,,,,,,,,,,,,sing1,001,2019_Oct_22_1215,ProdFawcett_Revision2019,3.2.4,59.98893660103507,
78,0,78,0,,,,,,,,,,,,,,,,,785.2197542528738,None,materials/singPic.jpg,collection,C_sing,78,54,781.5328879377921,None,781.5328879377921,None,782.4663236735505,None,782.7325026692124,None,782.7325026692124,None,,,,,,,,,,,,,,,,,,,,,,,,,,,,,,,,,,,sing1,001,2019_Oct_22_1215,ProdFawcett_Revision2019,3.2.4,59.98893660103507,
79,0,79,0,,,,,,,,,,,,,,,,,789.4845971862669,None,materials/singPic.jpg,exchange,C_sing,79,121,785.7997461606283,None,785.7997461606283,None,786.7336826087558,None,787.0003955938737,None,787.0003955938737,None,,,,,,,,,,,,,,,,,,,,,,,,,,,,,,,,,,,sing1,001,2019_Oct_22_1215,ProdFawcett_Revision2019,3.2.4,59.98893660103507,
80,0,80,0,,,,,,,,,,,,,,,,,793.7525177900679,None,materials/readPic.jpg,still,A_silent,80,304,790.1197035285295,None,790.1197035285295,None,791.0017080200487,None,791.2683466758463,None,791.2683466758463,None,,,,,,,,,,,,,,,,,,,,,,,,,,,,,,,,,,,sing1,001,2019_Oct_22_1215,ProdFawcett_Revision2019,3.2.4,59.98893660103507,
81,0,81,0,,,,,,,,,,,,,,,,,798.0205568854581,None,materials/singPic.jpg,narrow,C_sing,81,197,794.3706627347856,None,794.3706627347856,None,795.2696332889027,None,795.5363369439729,None,795.5363369439729,None,,,,,,,,,,,,,,,,,,,,,,,,,,,,,,,,,,,sing1,001,2019_Oct_22_1215,ProdFawcett_Revision2019,3.2.4,59.98893660103507,
82,0,82,0,,,,,,,,,,,,,,,,,802.2884672262007,None,materials/readPic.jpg,crisis,A_silent,82,79,798.6221360264462,None,798.6221360264462,None,799.5376686522504,None,799.8042786958977,None,799.8042786958977,None,,,,,,,,,,,,,,,,,,,,,,,,,,,,,,,,,,,sing1,001,2019_Oct_22_1215,ProdFawcett_Revision2019,3.2.4,59.98893660103507,
83,0,83,0,,,,,,,,,,,,,,,,,806.5564096001326,None,materials/speakPic.jpg,bucket,B_aloud,83,33,802.8401275230572,None,802.8401275230572,None,803.8055674859206,None,804.0723734605126,None,804.0723734605126,None,,,,,,,,,,,,,,,,,,,,,,,,,,,,,,,,,,,sing1,001,2019_Oct_22_1215,ProdFawcett_Revision2019,3.2.4,59.98893660103507,
84,0,84,0,,,,,,,,,,,,,,,,,810.8244779296801,None,materials/singPic.jpg,production,C_sing,84,240,807.1576646776521,None,807.1576646776521,None,808.0736075143213,None,808.3401839698199,None,808.3401839698199,None,,,,,,,,,,,,,,,,,,,,,,,,,,,,,,,,,,,sing1,001,2019_Oct_22_1215,ProdFawcett_Revision2019,3.2.4,59.98893660103507,
85,0,85,0,,,,,,,,,,,,,,,,,815.0921189431683,None,materials/singPic.jpg,watch,C_sing,85,351,811.4148081478779,None,811.4148081478779,None,812.3416316816001,None,812.6081770369783,None,812.6081770369783,None,,,,,,,,,,,,,,,,,,,,,,,,,,,,,,,,,,,sing1,001,2019_Oct_22_1215,ProdFawcett_Revision2019,3.2.4,59.98893660103507,
86,0,86,0,,,,,,,,,,,,,,,,,819.3602889701142,None,materials/readPic.jpg,phrase,A_silent,86,220,815.6940970990108,None,815.6940970990108,None,816.6094866641215,None,816.8761147458572,None,816.8761147458572,None,,,,,,,,,,,,,,,,,,,,,,,,,,,,,,,,,,,sing1,001,2019_Oct_22_1215,ProdFawcett_Revision2019,3.2.4,59.98893660103507,
87,0,87,0,,,,,,,,,,,,,,,,,823.6282867023256,None,materials/readPic.jpg,shape,A_silent,87,282,819.9324411530979,None,819.9324411530979,None,820.8774741332745,None,821.144337954116,None,821.144337954116,None,,,,,,,,,,,,,,,,,,,,,,,,,,,,,,,,,,,sing1,001,2019_Oct_22_1215,ProdFawcett_Revision2019,3.2.4,59.98893660103507,
88,0,88,0,,,,,,,,,,,,,,,,,827.8962362292805,None,materials/singPic.jpg,income,C_sing,88,159,824.2298219921067,None,824.2298219921067,None,825.1459414776182,None,825.4121102102217,None,825.4121102102217,None,,,,,,,,,,,,,,,,,,,,,,,,,,,,,,,,,,,sing1,001,2019_Oct_22_1215,ProdFawcett_Revision2019,3.2.4,59.98893660103507,
89,0,89,0,,,,,,,,,,,,,,,,,832.1643353479449,None,materials/singPic.jpg,series,C_sing,89,279,828.4828468700871,None,828.4828468700871,None,829.4133850052021,None,829.679971101752,None,829.679971101752,None,,,,,,,,,,,,,,,,,,,,,,,,,,,,,,,,,,,sing1,001,2019_Oct_22_1215,ProdFawcett_Revision2019,3.2.4,59.98893660103507,
,,,,,,,,,,,,,,,,,,,,,,,,,,,,,,,,,,,,,832.6645550704561,None,k,104.56526661064709,832.6645550704561,None,,,,,,,,,,,,,,,,,,,,,,,,,,,,,sing1,001,2019_Oct_22_1215,ProdFawcett_Revision2019,3.2.4,59.98893660103507,
,,,,,,,,,,,,,,937.2461035404704,None,space,2.8152498943381943,937.2461035404704,None,,,,,,,,,,,,,,,,,,,,,,,,,,,,,,,,,,,,,,,,,,,,,,,,,,,,sing1,001,2019_Oct_22_1215,ProdFawcett_Revision2019,3.2.4,59.98893660103507,
,,,,0,0,0,0,,,,,,,,,,,,,949.6347197674913,None,,,,,,,,,,,,,,,,,,,,,,industry,D_new,0,161,940.5820155942347,None,940.5820155942347,None,940.5820155942347,None,6,3.8711262824363075,940.5820155942347,None,944.514741935709,None,944.514741935709,None,945.0324250121485,None,945.0324250121485,None,945.0324250121485,None,n,4.564261764928233,945.0324250121485,None,sing1,001,2019_Oct_22_1215,ProdFawcett_Revision2019,3.2.4,59.98893660103507,
,,,,1,0,1,0,,,,,,,,,,,,,956.9185185508104,None,,,,,,,,,,,,,,,,,,,,,,command,B_aloud,1,60,950.1671564421849,None,950.1671564421849,None,950.1671564421849,None,1,3.542106021021027,950.1671564421849,None,953.7676159779076,None,953.7676159779076,None,954.2734645158635,None,954.2734645158635,None,954.2734645158635,None,r,2.603443283762317,954.2734645158635,None,sing1,001,2019_Oct_22_1215,ProdFawcett_Revision2019,3.2.4,59.98893660103507,
,,,,2,0,2,0,,,,,,,,,,,,,963.0536816508393,None,,,,,,,,,,,,,,,,,,,,,,silence,D_new,2,288,957.4353777843644,None,957.4353777843644,None,957.4353777843644,None,1,1.9527560793794692,957.4353777843644,None,959.4396397483652,None,959.4396397483652,None,959.9695653972449,None,959.9695653972449,None,959.9695653972449,None,f,3.050753883086145,959.9695653972449,None,sing1,001,2019_Oct_22_1215,ProdFawcett_Revision2019,3.2.4,59.98893660103507,
,,,,3,0,3,0,,,,,,,,,,,,,968.3221228711191,None,,,,,,,,,,,,,,,,,,,,,,sunset,A_silent,3,315,963.5706509789452,None,963.5706509789452,None,963.5706509789452,None,6,1.800989855430089,963.5706509789452,None,965.4080939373816,None,965.4080939373816,None,965.9378995397128,None,965.9378995397128,None,965.9378995397128,None,n,2.345722905767616,965.9378995397128,None,sing1,001,2019_Oct_22_1215,ProdFawcett_Revision2019,3.2.4,59.98893660103507,
,,,,4,0,4,0,,,,,,,,,,,,,972.5567417496932,None,,,,,,,,,,,,,,,,,,,,,,collection,C_sing,4,54,968.8409345718683,None,968.8409345718683,None,968.8409345718683,None,1,1.5626115911873057,968.8409345718683,None,970.4455916943261,None,970.4455916943261,None,970.9620276549249,None,970.9620276549249,None,970.9620276549249,None,r,1.5615485882153735,970.9620276549249,None,sing1,001,2019_Oct_22_1215,ProdFawcett_Revision2019,3.2.4,59.98893660103507,
,,,,5,0,5,0,,,,,,,,,,,,,977.0581134216627,None,,,,,,,,,,,,,,,,,,,,,,leader,D_new,5,168,973.0737524409778,None,973.0737524409778,None,973.0737524409778,None,6,2.0262140019913204,973.0737524409778,None,975.1574488425977,None,975.1574488425977,None,975.6743167842505,None,975.6743167842505,None,975.6743167842505,None,n,1.3449948513298295,975.6743167842505,None,sing1,001,2019_Oct_22_1215,ProdFawcett_Revision2019,3.2.4,59.98893660103507,
,,,,6,0,6,0,,,,,,,,,,,,,980.9424634861061,None,,,,,,,,,,,,,,,,,,,,,,narrow,C_sing,6,197,977.5747729922878,None,977.5747729922878,None,977.5747729922878,None,1,1.196134003053885,977.5747729922878,None,978.8137378052925,None,978.8137378052925,None,979.3428253052407,None,979.3428253052407,None,979.3428253052407,None,f,1.5640493509708904,979.3428253052407,None,sing1,001,2019_Oct_22_1215,ProdFawcett_Revision2019,3.2.4,59.98893660103507,
,,,,7,0,7,0,,,,,,,,,,,,,985.2270789592294,None,,,,,,,,,,,,,,,,,,,,,,master,D_new,7,180,981.4599157994962,None,981.4599157994962,None,981.4599157994962,None,6,1.9025442718411796,981.4599157994962,None,983.4132478535757,None,983.4132478535757,None,983.9268477918813,None,983.9268477918813,None,983.9268477918813,None,n,1.2600183677859604,983.9268477918813,None,sing1,001,2019_Oct_22_1215,ProdFawcett_Revision2019,3.2.4,59.98893660103507,
,,,,8,0,8,0,,,,,,,,,,,,,988.8811657205806,None,,,,,,,,,,,,,,,,,,,,,,opening,A_silent,8,205,985.7445185215911,None,985.7445185215911,None,985.7445185215911,None,1,1.3537489204318263,985.7445185215911,None,987.1506907808944,None,987.1506907808944,None,987.678106337029,None,987.678106337029,None,987.678106337029,None,r,1.1726739190635271,987.678106337029,None,sing1,001,2019_Oct_22_1215,ProdFawcett_Revision2019,3.2.4,59.98893660103507,
,,,,9,0,9,0,,,,,,,,,,,,,992.2960578388302,None,,,,,,,,,,,,,,,,,,,,,,profession,C_sing,9,241,989.4137759340229,None,989.4137759340229,None,989.4137759340229,None,1,1.1002898844890296,989.4137759340229,None,990.5790436643292,None,990.5790436643292,None,991.0956901729223,None,991.0956901729223,None,991.0956901729223,None,r,1.1542439725599252,991.0956901729223,None,sing1,001,2019_Oct_22_1215,ProdFawcett_Revision2019,3.2.4,59.98893660103507,
,,,,10,0,10,0,,,,,,,,,,,,,995.246823819878,None,,,,,,,,,,,,,,,,,,,,,,thick,C_sing,10,327,992.8126853763242,None,992.8126853763242,None,992.8126853763242,None,1,1.4616110684000887,992.8126853763242,None,994.3299719259376,None,994.3299719259376,None,994.8349369087373,None,994.8349369087373,None,994.8349369087373,None,r,0.3671362892491743,994.8349369087373,None,sing1,001,2019_Oct_22_1215,ProdFawcett_Revision2019,3.2.4,59.98893660103507,
,,,,11,0,11,0,,,,,,,,,,,,,998.9033071584417,None,,,,,,,,,,,,,,,,,,,,,,personnel,D_new,11,219,995.7654685128364,None,995.7654685128364,None,995.7654685128364,None,1,2.2042427441338077,995.7654685128364,None,998.0179622002761,None,998.0179622002761,None,998.5479799056193,None,998.5479799056193,None,998.5479799056193,None,r,0.3337975548347458,998.5479799056193,None,sing1,001,2019_Oct_22_1215,ProdFawcett_Revision2019,3.2.4,59.98893660103507,
,,,,12,0,12,0,,,,,,,,,,,,,1004.4330664215377,None,,,,,,,,,,,,,,,,,,,,,,crisis,A_silent,12,79,999.4319567683269,None,999.4319567683269,None,999.4319567683269,None,6,3.097377977799624,999.4319567683269,None,1002.5704936122056,None,1002.5704936122056,None,1003.0992959238356,None,1003.0992959238356,None,1003.0992959238356,None,n,1.2859036411391571,1003.0992959238356,None,sing1,001,2019_Oct_22_1215,ProdFawcett_Revision2019,3.2.4,59.98893660103507,
,,,,13,0,13,0,,,,,,,,,,,,,1009.6013088807813,None,,,,,,,,,,,,,,,,,,,,,,alert,D_new,13,6,1004.9498681198456,None,1004.9498681198456,None,1004.9498681198456,None,6,2.915254590450786,1004.9498681198456,None,1007.917439375713,None,1007.917439375713,None,1008.4343757376773,None,1008.4343757376773,None,1008.4343757376773,None,n,1.1267744576907717,1008.4343757376773,None,sing1,001,2019_Oct_22_1215,ProdFawcett_Revision2019,3.2.4,59.98893660103507,
,,,,14,0,14,0,,,,,,,,,,,,,1014.2692790582078,None,,,,,,,,,,,,,,,,,,,,,,bicycle,B_aloud,14,21,1010.1184844028321,None,1010.1184844028321,None,1010.1184844028321,None,6,2.907062190002762,1010.1184844028321,None,1013.073772656091,None,1013.073772656091,None,1013.5898752231151,None,1013.5898752231151,None,1013.5898752231151,None,n,0.6349595495848916,1013.5898752231151,None,sing1,001,2019_Oct_22_1215,ProdFawcett_Revision2019,3.2.4,59.98893660103507,
,,,,15,0,15,0,,,,,,,,,,,,,1019.2375475793378,None,,,,,,,,,,,,,,,,,,,,,,discovery,B_aloud,15,95,1014.7865680957912,None,1014.7865680957912,None,1014.7865680957912,None,1,2.366250868071802,1014.7865680957912,None,1017.1870860376512,None,1017.1870860376512,None,1017.7037900814903,None,1017.7037900814903,None,1017.7037900814903,None,r,1.4963972035911866,1017.7037900814903,None,sing1,001,2019_Oct_22_1215,ProdFawcett_Revision2019,3.2.4,59.98893660103507,
,,,,16,0,16,0,,,,,,,,,,,,,1023.5555419060984,None,,,,,,,,,,,,,,,,,,,,,,turkey,A_silent,16,342,1019.7544192530331,None,1019.7544192530331,None,1019.7544192530331,None,6,2.2940873335464858,1019.7544192530331,None,1022.1050385657582,None,1022.1050385657582,None,1022.6219285884872,None,1022.6219285884872,None,1022.6219285884872,None,n,0.8907467424869537,1022.6219285884872,None,sing1,001,2019_Oct_22_1215,ProdFawcett_Revision2019,3.2.4,59.98893660103507,
,,,,17,0,17,0,,,,,,,,,,,,,1026.7064976601978,None,,,,,,,,,,,,,,,,,,,,,,cousin,D_new,17,76,1024.0724334837869,None,1024.0724334837869,None,1024.0724334837869,None,6,1.6314514531404711,1024.0724334837869,None,1025.7267734003253,None,1025.7267734003253,None,1026.2563588136109,None,1026.2563588136109,None,1026.2563588136109,None,n,0.40830137534067035,1026.2563588136109,None,sing1,001,2019_Oct_22_1215,ProdFawcett_Revision2019,3.2.4,59.98893660103507,
,,,,18,0,18,0,,,,,,,,,,,,,1029.6740595860174,None,,,,,,,,,,,,,,,,,,,,,,close,D_new,18,53,1027.2236100489972,None,1027.2236100489972,None,1027.2236100489972,None,6,1.4087535715079866,1027.2236100489972,None,1028.6767366866115,None,1028.6767366866115,None,1029.207130392664,None,1029.207130392664,None,1029.207130392664,None,n,0.43299955618567765,1029.207130392664,None,sing1,001,2019_Oct_22_1215,ProdFawcett_Revision2019,3.2.4,59.98893660103507,
,,,,19,0,19,0,,,,,,,,,,,,,1033.4425793341943,None,,,,,,,,,,,,,,,,,,,,,,build,D_new,19,35,1030.1907138696406,None,1030.1907138696406,None,1030.1907138696406,None,1,1.4090449798386544,1030.1907138696406,None,1031.627874003374,None,1031.627874003374,None,1032.1584042391041,None,1032.1584042391041,None,1032.1584042391041,None,f,1.2574977009207942,1032.1584042391041,None,sing1,001,2019_Oct_22_1215,ProdFawcett_Revision2019,3.2.4,59.98893660103507,
,,,,20,0,20,0,,,,,,,,,,,,,1037.1430261499481,None,,,,,,,,,,,,,,,,,,,,,,reach,D_new,20,253,1033.9484813643503,None,1033.9484813643503,None,1033.9484813643503,None,6,1.6110083942767233,1033.9484813643503,None,1035.5981631010072,None,1035.5981631010072,None,1036.1265147714876,None,1036.1265147714876,None,1036.1265147714876,None,n,0.9686977031524293,1036.1265147714876,None,sing1,001,2019_Oct_22_1215,ProdFawcett_Revision2019,3.2.4,59.98893660103507,
,,,,21,0,21,0,,,,,,,,,,,,,1040.327357336646,None,,,,,,,,,,,,,,,,,,,,,,design,A_silent,21,91,1037.6596266303095,None,1037.6596266303095,None,1037.6596266303095,None,1,1.2998871997697279,1037.6596266303095,None,1039.010638426931,None,1039.010638426931,None,1039.5269667810062,None,1039.5269667810062,None,1039.5269667810062,None,r,0.7679496824857779,1039.5269667810062,None,sing1,001,2019_Oct_22_1215,ProdFawcett_Revision2019,3.2.4,59.98893660103507,
,,,,22,0,22,0,,,,,,,,,,,,,1044.8454723941395,None,,,,,,,,,,,,,,,,,,,,,,answer,A_silent,22,8,1040.8441338438424,None,1040.8441338438424,None,1040.8441338438424,None,6,2.4507502754568122,1040.8441338438424,None,1043.3167577849235,None,1043.3167577849235,None,1043.8449094814714,None,1043.8449094814714,None,1043.8449094814714,None,n,0.9536744666984305,1043.8449094814714,None,sing1,001,2019_Oct_22_1215,ProdFawcett_Revision2019,3.2.4,59.98893660103507,
,,,,23,0,23,0,,,,,,,,,,,,,1047.6964930542745,None,,,,,,,,,,,,,,,,,,,,,,length,D_new,23,169,1045.3625502617215,None,1045.3625502617215,None,1045.3625502617215,None,6,1.3800366297946312,1045.3625502617215,None,1046.7960890944814,None,1046.7960890944814,None,1047.3127365360851,None,1047.3127365360851,None,1047.3127365360851,None,n,0.3501776907360181,1047.3127365360851,None,sing1,001,2019_Oct_22_1215,ProdFawcett_Revision2019,3.2.4,59.98893660103507,
,,,,24,0,24,0,,,,,,,,,,,,,1052.447648346948,None,,,,,,,,,,,,,,,,,,,,,,search,B_aloud,24,276,1048.2144905531895,None,1048.2144905531895,None,1048.2144905531895,None,6,2.687849701673258,1048.2144905531895,None,1050.963794143172,None,1050.963794143172,None,1051.4806689268444,None,1051.4806689268444,None,1051.4806689268444,None,n,0.9258563191979192,1051.4806689268444,None,sing1,001,2019_Oct_22_1215,ProdFawcett_Revision2019,3.2.4,59.98893660103507,
,,,,25,0,25,0,,,,,,,,,,,,,1055.2484065063181,None,,,,,,,,,,,,,,,,,,,,,,estate,D_new,25,119,1052.9643044965924,None,1052.9643044965924,None,1052.9643044965924,None,1,1.2017628184403293,1052.9643044965924,None,1054.2314659458352,None,1054.2314659458352,None,1054.7483637435944,None,1054.7483637435944,None,1054.7483637435944,None,r,0.46620020596310496,1054.7483637435944,None,sing1,001,2019_Oct_22_1215,ProdFawcett_Revision2019,3.2.4,59.98893660103507,
,,,,26,0,26,0,,,,,,,,,,,,,1058.799525660579,None,,,,,,,,,,,,,,,,,,,,,,interior,D_new,26,164,1055.7664186222828,None,1055.7664186222828,None,1055.7664186222828,None,6,1.5994976082001813,1055.7664186222828,None,1057.4026436368003,None,1057.4026436368003,None,1057.9015297851292,None,1057.9015297851292,None,1057.9015297851292,None,n,0.8645681946654804,1057.9015297851292,None,sing1,001,2019_Oct_22_1215,ProdFawcett_Revision2019,3.2.4,59.98893660103507,
,,,,27,0,27,0,,,,,,,,,,,,,1062.300640445319,None,,,,,,,,,,,,,,,,,,,,,,degree,D_new,27,89,1059.3175421305932,None,1059.3175421305932,None,1059.3175421305932,None,1,1.8325621015392244,1059.3175421305932,None,1061.1899509830982,None,1061.1899509830982,None,1061.7169908494106,None,1061.7169908494106,None,1061.7169908494106,None,f,0.5445420954492874,1061.7169908494106,None,sing1,001,2019_Oct_22_1215,ProdFawcett_Revision2019,3.2.4,59.98893660103507,
,,,,28,0,28,0,,,,,,,,,,,,,1065.3514080125024,None,,,,,,,,,,,,,,,,,,,,,,escape,D_new,28,118,1062.817472310795,None,1062.817472310795,None,1062.817472310795,None,1,1.5721372548723593,1062.817472310795,None,1064.4512547198683,None,1064.4512547198683,None,1064.968010700948,None,1064.968010700948,None,1064.968010700948,None,f,0.3495849219034426,1064.968010700948,None,sing1,001,2019_Oct_22_1215,ProdFawcett_Revision2019,3.2.4,59.98893660103507,
,,,,29,0,29,0,,,,,,,,,,,,,1068.2691515476326,None,,,,,,,,,,,,,,,,,,,,,,working,D_new,29,357,1065.8525482993573,None,1065.8525482993573,None,1065.8525482993573,None,6,1.296791180211585,1065.8525482993573,None,1067.189216708648,None,1067.189216708648,None,1067.7187221945496,None,1067.7187221945496,None,1067.7187221945496,None,n,0.5025208223378286,1067.7187221945496,None,sing1,001,2019_Oct_22_1215,ProdFawcett_Revision2019,3.2.4,59.98893660103507,
,,,,30,0,30,0,,,,,,,,,,,,,1071.253453126992,None,,,,,,,,,,,,,,,,,,,,,,religion,B_aloud,30,258,1068.7862589603756,None,1068.7862589603756,None,1068.7862589603756,None,1,1.1309126431006007,1068.7862589603756,None,1069.9695206130273,None,1069.9695206130273,None,1070.4863994397456,None,1070.4863994397456,None,1070.4863994397456,None,f,0.7186195640242659,1070.4863994397456,None,sing1,001,2019_Oct_22_1215,ProdFawcett_Revision2019,3.2.4,59.98893660103507,
,,,,31,0,31,0,,,,,,,,,,,,,1074.4876866747509,None,,,,,,,,,,,,,,,,,,,,,,quiet,D_new,31,249,1071.7733831889927,None,1071.7733831889927,None,1071.7733831889927,None,1,1.5994039968354627,1071.7733831889927,None,1073.4275859538466,None,1073.4275859538466,None,1073.9560666899197,None,1073.9560666899197,None,1073.9560666899197,None,f,0.489493282220792,1073.9560666899197,None,sing1,001,2019_Oct_22_1215,ProdFawcett_Revision2019,3.2.4,59.98893660103507,
,,,,32,0,32,0,,,,,,,,,,,,,1077.2384205604321,None,,,,,,,,,,,,,,,,,,,,,,route,D_new,32,267,1075.00458447251,None,1075.00458447251,None,1075.00458447251,None,6,1.1604643127066083,1075.00458447251,None,1076.2214622729225,None,1076.2214622729225,None,1076.7384185389383,None,1076.7384185389383,None,1076.7384185389383,None,n,0.45882262935629115,1076.7384185389383,None,sing1,001,2019_Oct_22_1215,ProdFawcett_Revision2019,3.2.4,59.98893660103507,
,,,,33,0,33,0,,,,,,,,,,,,,1080.3560350922053,None,,,,,,,,,,,,,,,,,,,,,,title,D_new,33,331,1077.742549571325,None,1077.742549571325,None,1077.742549571325,None,6,1.5419287501717918,1077.742549571325,None,1079.3391411819612,None,1079.3391411819612,None,1079.8559885974973,None,1079.8559885974973,None,1079.8559885974973,None,n,0.46074492938350886,1079.8559885974973,None,sing1,001,2019_Oct_22_1215,ProdFawcett_Revision2019,3.2.4,59.98893660103507,
,,,,34,0,34,0,,,,,,,,,,,,,1086.8249798860052,None,,,,,,,,,,,,,,,,,,,,,,tennis,C_sing,34,323,1080.873928716639,None,1080.873928716639,None,1080.873928716639,None,1,4.82632434531115,1080.873928716639,None,1085.7411027925555,None,1085.7411027925555,None,1086.2458307922352,None,1086.2458307922352,None,1086.2458307922352,None,f,0.5422161155729555,1086.2458307922352,None,sing1,001,2019_Oct_22_1215,ProdFawcett_Revision2019,3.2.4,59.98893660103507,
,,,,35,0,35,0,,,,,,,,,,,,,1090.6759321258287,None,,,,,,,,,,,,,,,,,,,,,,portion,D_new,35,228,1087.3416590497363,None,1087.3416590497363,None,1087.3416590497363,None,6,2.3019472734304145,1087.3416590497363,None,1089.6922083871905,None,1089.6922083871905,None,1090.199736021983,None,1090.199736021983,None,1090.199736021983,None,n,0.44400527578545734,1090.199736021983,None,sing1,001,2019_Oct_22_1215,ProdFawcett_Revision2019,3.2.4,59.98893660103507,
,,,,36,0,36,0,,,,,,,,,,,,,1094.144130516157,None,,,,,,,,,,,,,,,,,,,,,,season,A_silent,36,277,1091.1931032938883,None,1091.1931032938883,None,1091.1931032938883,None,1,2.0344421675545163,1091.1931032938883,None,1093.2767857004073,None,1093.2767857004073,None,1093.7934900553082,None,1093.7934900553082,None,1093.7934900553082,None,f,0.3298102050903253,1093.7934900553082,None,sing1,001,2019_Oct_22_1215,ProdFawcett_Revision2019,3.2.4,59.98893660103507,
,,,,37,0,37,0,,,,,,,,,,,,,1097.2279270602157,None,,,,,,,,,,,,,,,,,,,,,,phrase,A_silent,37,220,1094.6604719323223,None,1094.6604719323223,None,1094.6604719323223,None,1,1.6629073847434483,1094.6604719323223,None,1096.3776409855345,None,1096.3776409855345,None,1096.8944740950246,None,1096.8944740950246,None,1096.8944740950246,None,f,0.2932075104326941,1096.8944740950246,None,sing1,001,2019_Oct_22_1215,ProdFawcett_Revision2019,3.2.4,59.98893660103507,
,,,,38,0,38,0,,,,,,,,,,,,,1099.8785834754817,None,,,,,,,,,,,,,,,,,,,,,,general,B_aloud,38,135,1097.745023276948,None,1097.745023276948,None,1097.745023276948,None,1,1.2106484411051497,1097.745023276948,None,1099.0116684637615,None,1099.0116684637615,None,1099.5285936296568,None,1099.5285936296568,None,1099.5285936296568,None,f,0.31465448200469837,1099.5285936296568,None,sing1,001,2019_Oct_22_1215,ProdFawcett_Revision2019,3.2.4,59.98893660103507,
,,,,39,0,39,0,,,,,,,,,,,,,1102.7961733758566,None,,,,,,,,,,,,,,,,,,,,,,light,D_new,39,171,1100.395558401593,None,1100.395558401593,None,1100.395558401593,None,6,1.3756110789836384,1100.395558401593,None,1101.8125662627863,None,1101.8125662627863,None,1102.3295156867825,None,1102.3295156867825,None,1102.3295156867825,None,n,0.4174407751997933,1102.3295156867825,None,sing1,001,2019_Oct_22_1215,ProdFawcett_Revision2019,3.2.4,59.98893660103507,
,,,,40,0,40,0,,,,,,,,,,,,,1105.3636173077393,None,,,,,,,,,,,,,,,,,,,,,,period,B_aloud,40,217,1103.3139214516268,None,1103.3139214516268,None,1103.3139214516268,None,1,1.3610736268456094,1103.3139214516268,None,1104.7137340421323,None,1104.7137340421323,None,1105.2153877923847,None,1105.2153877923847,None,1105.2153877923847,None,f,0.10774334543384612,1105.2153877923847,None,sing1,001,2019_Oct_22_1215,ProdFawcett_Revision2019,3.2.4,59.98893660103507,
,,,,41,0,41,0,,,,,,,,,,,,,1109.3150339038693,None,,,,,,,,,,,,,,,,,,,,,,split,B_aloud,41,299,1105.8812403609045,None,1105.8812403609045,None,1105.8812403609045,None,1,2.577742745168507,1105.8812403609045,None,1108.5147033715039,None,1108.5147033715039,None,1109.0313952863216,None,1109.0313952863216,None,1109.0313952863216,None,f,0.25116166821680963,1109.0313952863216,None,sing1,001,2019_Oct_22_1215,ProdFawcett_Revision2019,3.2.4,59.98893660103507,
,,,,42,0,42,0,,,,,,,,,,,,,1111.532246030809,None,,,,,,,,,,,,,,,,,,,,,,course,D_new,42,74,1109.8318956254516,None,1109.8318956254516,None,1109.8318956254516,None,1,1.0753491224604659,1109.8318956254516,None,1110.9538209483726,None,1110.9538209483726,None,1111.4825806528097,None,1111.4825806528097,None,1111.4825806528097,None,f,0.008209505525883287,1111.4825806528097,None,sing1,001,2019_Oct_22_1215,ProdFawcett_Revision2019,3.2.4,59.98893660103507,
,,,,43,0,43,0,,,,,,,,,,,,,1115.8336782858241,None,,,,,,,,,,,,,,,,,,,,,,growth,A_silent,43,144,1112.050094871025,None,1112.050094871025,None,1112.050094871025,None,6,2.7520295177819207,1112.050094871025,None,1114.8499651211896,None,1114.8499651211896,None,1115.3667444274179,None,1115.3667444274179,None,1115.3667444274179,None,n,0.42776073660934344,1115.3667444274179,None,sing1,001,2019_Oct_22_1215,ProdFawcett_Revision2019,3.2.4,59.98893660103507,
,,,,44,0,44,0,,,,,,,,,,,,,1118.1027079208288,None,,,,,,,,,,,,,,,,,,,,,,rough,D_new,44,266,1116.3503664685995,None,1116.3503664685995,None,1116.3503664685995,None,1,0.9403682692791335,1116.3503664685995,None,1117.3505860356381,None,1117.3505860356381,None,1117.867530483636,None,1117.867530483636,None,1117.867530483636,None,f,0.20693259575637057,1117.867530483636,None,sing1,001,2019_Oct_22_1215,ProdFawcett_Revision2019,3.2.4,59.98893660103507,
,,,,45,0,45,0,,,,,,,,,,,,,1120.701584459166,None,,,,,,,,,,,,,,,,,,,,,,style,D_new,45,311,1118.6342893414549,None,1118.6342893414549,None,1118.6342893414549,None,6,1.3356436595204286,1118.6342893414549,None,1120.0348722825875,None,1120.0348722825875,None,1120.5515517573804,None,1120.5515517573804,None,1120.5515517573804,None,n,0.10711139044724405,1120.5515517573804,None,sing1,001,2019_Oct_22_1215,ProdFawcett_Revision2019,3.2.4,59.98893660103507,
,,,,46,0,46,0,,,,,,,,,,,,,1124.7528172844904,None,,,,,,,,,,,,,,,,,,,,,,health,D_new,46,149,1121.2186517527443,None,1121.2186517527443,None,1121.2186517527443,None,6,1.9593275401857682,1121.2186517527443,None,1123.2240236809012,None,1123.2240236809012,None,1123.7525050390395,None,1123.7525050390395,None,1123.7525050390395,None,n,0.9529995935154147,1123.7525050390395,None,sing1,001,2019_Oct_22_1215,ProdFawcett_Revision2019,3.2.4,59.98893660103507,
,,,,47,0,47,0,,,,,,,,,,,,,1127.3370941703324,None,,,,,,,,,,,,,,,,,,,,,,bucket,B_aloud,47,33,1125.2708897347911,None,1125.2708897347911,None,1125.2708897347911,None,6,1.2269119514385238,1125.2708897347911,None,1126.5534205651493,None,1126.5534205651493,None,1127.0703267599456,None,1127.0703267599456,None,1127.0703267599456,None,n,0.22765959898242727,1127.0703267599456,None,sing1,001,2019_Oct_22_1215,ProdFawcett_Revision2019,3.2.4,59.98893660103507,
,,,,48,0,48,0,,,,,,,,,,,,,1129.5907071520342,None,,,,,,,,,,,,,,,,,,,,,,thing,A_silent,48,328,1127.8543135435903,None,1127.8543135435903,None,1127.8543135435903,None,6,1.0833312859176658,1127.8543135435903,None,1128.9874514021794,None,1128.9874514021794,None,1129.5047317317221,None,1129.5047317317221,None,1129.5047317317221,None,n,0.05702895950525999,1129.5047317317221,None,sing1,001,2019_Oct_22_1215,ProdFawcett_Revision2019,3.2.4,59.98893660103507,
,,,,49,0,49,0,,,,,,,,,,,,,1133.3054395088693,None,,,,,,,,,,,,,,,,,,,,,,patient,B_aloud,49,213,1130.1216743448167,None,1130.1216743448167,None,1130.1216743448167,None,1,2.26334981538821,1130.1216743448167,None,1132.4218246518285,None,1132.4218246518285,None,1132.938728047593,None,1132.938728047593,None,1132.938728047593,None,f,0.3182437499053776,1132.938728047593,None,sing1,001,2019_Oct_22_1215,ProdFawcett_Revision2019,3.2.4,59.98893660103507,
,,,,50,0,50,0,,,,,,,,,,,,,1135.756164282211,None,,,,,,,,,,,,,,,,,,,,,,position,D_new,50,229,1133.8238226496032,None,1133.8238226496032,None,1133.8238226496032,None,1,1.0655264523811638,1133.8238226496032,None,1134.9278044323437,None,1134.9278044323437,None,1135.4560603143764,None,1135.4560603143764,None,1135.4560603143764,None,f,0.2649962570867501,1135.4560603143764,None,sing1,001,2019_Oct_22_1215,ProdFawcett_Revision2019,3.2.4,59.98893660103507,
,,,,51,0,51,0,,,,,,,,,,,,,1138.0767915472388,None,,,,,,,,,,,,,,,,,,,,,,trash,D_new,51,337,1136.273977979261,None,1136.273977979261,None,1136.273977979261,None,6,0.9590146727277897,1136.273977979261,None,1137.2901472561061,None,1137.2901472561061,None,1137.806927495345,None,1137.806927495345,None,1137.806927495345,None,n,0.2500464170007035,1137.806927495345,None,sing1,001,2019_Oct_22_1215,ProdFawcett_Revision2019,3.2.4,59.98893660103507,
,,,,52,0,52,0,,,,,,,,,,,,,1140.5910178424674,None,,,,,,,,,,,,,,,,,,,,,,stranger,D_new,52,309,1138.5968117996817,None,1138.5968117996817,None,1138.5968117996817,None,6,1.2200254461495206,1138.5968117996817,None,1139.8741318006068,None,1139.8741318006068,None,1140.3915763389086,None,1140.3915763389086,None,1140.3915763389086,None,n,0.15299032564507797,1140.3915763389086,None,sing1,001,2019_Oct_22_1215,ProdFawcett_Revision2019,3.2.4,59.98893660103507,
,,,,53,0,53,0,,,,,,,,,,,,,1143.1252011013567,None,,,,,,,,,,,,,,,,,,,,,,speech,D_new,53,298,1141.1078776980867,None,1141.1078776980867,None,1141.1078776980867,None,6,1.2365004374296404,1141.1078776980867,None,1142.3951609416981,None,1142.3951609416981,None,1142.925005419238,None,1142.925005419238,None,1142.925005419238,None,n,0.16343779768794775,1142.925005419238,None,sing1,001,2019_Oct_22_1215,ProdFawcett_Revision2019,3.2.4,59.98893660103507,
,,,,54,0,54,0,,,,,,,,,,,,,1146.0759574413532,None,,,,,,,,,,,,,,,,,,,,,,defeat,D_new,54,88,1143.6418124667834,None,1143.6418124667834,None,1143.6418124667834,None,6,1.134399902424775,1143.6418124667834,None,1144.8257362415316,None,1144.8257362415316,None,1145.3425189687987,None,1145.3425189687987,None,1145.3425189687987,None,n,0.6905115631525405,1145.3425189687987,None,sing1,001,2019_Oct_22_1215,ProdFawcett_Revision2019,3.2.4,59.98893660103507,
,,,,55,0,55,0,,,,,,,,,,,,,1148.8602536714752,None,,,,,,,,,,,,,,,,,,,,,,hearing,C_sing,55,150,1146.5937257321784,None,1146.5937257321784,None,1146.5937257321784,None,1,1.3501487675239332,1146.5937257321784,None,1147.9637400289066,None,1147.9637400289066,None,1148.4792137510376,None,1148.4792137510376,None,1148.4792137510376,None,f,0.34474947123089805,1148.4792137510376,None,sing1,001,2019_Oct_22_1215,ProdFawcett_Revision2019,3.2.4,59.98893660103507,
,,,,56,0,56,0,,,,,,,,,,,,,1151.5443458535592,None,,,,,,,,,,,,,,,,,,,,,,income,C_sing,56,159,1149.3768687689444,None,1149.3768687689444,None,1149.3768687689444,None,1,1.2394642813596874,1149.3768687689444,None,1150.6776491648634,None,1150.6776491648634,None,1151.194252133253,None,1151.194252133253,None,1151.194252133253,None,f,0.3175116524216719,1151.194252133253,None,sing1,001,2019_Oct_22_1215,ProdFawcett_Revision2019,3.2.4,59.98893660103507,
,,,,57,0,57,0,,,,,,,,,,,,,1154.8820586057846,None,,,,,,,,,,,,,,,,,,,,,,direction,D_new,57,94,1152.0616065899958,None,1152.0616065899958,None,1152.0616065899958,None,6,2.1143729634932242,1152.0616065899958,None,1154.2284588727052,None,1154.2284588727052,None,1154.7458598708618,None,1154.7458598708618,None,1154.7458598708618,None,n,0.10161972668720409,1154.7458598708618,None,sing1,001,2019_Oct_22_1215,ProdFawcett_Revision2019,3.2.4,59.98893660103507,
,,,,58,0,58,0,,,,,,,,,,,,,1158.9801266958239,None,,,,,,,,,,,,,,,,,,,,,,community,B_aloud,58,63,1155.4130432145903,None,1155.4130432145903,None,1155.4130432145903,None,1,1.3392665155115537,1155.4130432145903,None,1156.812720208487,None,1156.812720208487,None,1157.3295303038321,None,1157.3295303038321,None,1157.3295303038321,None,r,1.6139414490316994,1157.3295303038321,None,sing1,001,2019_Oct_22_1215,ProdFawcett_Revision2019,3.2.4,59.98893660103507,
,,,,59,0,59,0,,,,,,,,,,,,,1161.647367885802,None,,,,,,,,,,,,,,,,,,,,,,division,A_silent,59,101,1159.4967924864613,None,1159.4967924864613,None,1159.4967924864613,None,1,1.2947566086659208,1159.4967924864613,None,1160.847162687045,None,1160.847162687045,None,1161.3640800779103,None,1161.3640800779103,None,1161.3640800779103,None,r,0.2351755712297745,1161.3640800779103,None,sing1,001,2019_Oct_22_1215,ProdFawcett_Revision2019,3.2.4,59.98893660103507,
,,,,60,0,60,0,,,,,,,,,,,,,1166.9490716450964,None,,,,,,,,,,,,,,,,,,,,,,state,D_new,60,303,1162.1657317444915,None,1162.1657317444915,None,1162.1657317444915,None,1,2.761372623615898,1162.1657317444915,None,1164.981762252457,None,1164.981762252457,None,1165.4986678253044,None,1165.4986678253044,None,1165.4986678253044,None,f,1.4041093866690062,1165.4986678253044,None,sing1,001,2019_Oct_22_1215,ProdFawcett_Revision2019,3.2.4,59.98893660103507,
,,,,61,0,61,0,,,,,,,,,,,,,1169.9170671069878,None,,,,,,,,,,,,,,,,,,,,,,corner,D_new,61,69,1167.4657856410486,None,1167.4657856410486,None,1167.4657856410486,None,6,1.5173652329831384,1167.4657856410486,None,1169.0330407950096,None,1169.0330407950096,None,1169.549891320581,None,1169.549891320581,None,1169.549891320581,None,n,0.3286965089500882,1169.549891320581,None,sing1,001,2019_Oct_22_1215,ProdFawcett_Revision2019,3.2.4,59.98893660103507,
,,,,62,0,62,0,,,,,,,,,,,,,1174.1345914793783,None,,,,,,,,,,,,,,,,,,,,,,listen,C_sing,62,172,1170.4352076665964,None,1170.4352076665964,None,1170.4352076665964,None,1,2.747414878103882,1170.4352076665964,None,1173.2342581169214,None,1173.2342581169214,None,1173.7511860818486,None,1173.7511860818486,None,1173.7511860818486,None,f,0.33517622435465455,1173.7511860818486,None,sing1,001,2019_Oct_22_1215,ProdFawcett_Revision2019,3.2.4,59.98893660103507,
,,,,63,0,63,0,,,,,,,,,,,,,1177.3856141299475,None,,,,,,,,,,,,,,,,,,,,,,native,C_sing,63,199,1174.6523703443236,None,1174.6523703443236,None,1174.6523703443236,None,1,1.873946754669305,1174.6523703443236,None,1176.568626670458,None,1176.568626670458,None,1177.070799171168,None,1177.070799171168,None,1177.070799171168,None,f,0.27959186653606594,1177.070799171168,None,sing1,001,2019_Oct_22_1215,ProdFawcett_Revision2019,3.2.4,59.98893660103507,
,,,,64,0,64,0,,,,,,,,,,,,,1179.7195640755235,None,,,,,,,,,,,,,,,,,,,,,,trail,B_aloud,64,336,1177.902452837443,None,1177.902452837443,None,1177.902452837443,None,1,1.0403539942926727,1177.902452837443,None,1178.9915199232637,None,1178.9915199232637,None,1179.5057179173455,None,1179.5057179173455,None,1179.5057179173455,None,f,0.17268387106014416,1179.5057179173455,None,sing1,001,2019_Oct_22_1215,ProdFawcett_Revision2019,3.2.4,59.98893660103507,
,,,,65,0,65,0,,,,,,,,,,,,,1182.5039333909517,None,,,,,,,,,,,,,,,,,,,,,,voice,C_sing,65,348,1180.2250017804909,None,1180.2250017804909,None,1180.2250017804909,None,1,1.093122233869508,1180.2250017804909,None,1181.359034390247,None,1181.359034390247,None,1181.8869826918817,None,1181.8869826918817,None,1181.8869826918817,None,f,0.5833130923565477,1181.8869826918817,None,sing1,001,2019_Oct_22_1215,ProdFawcett_Revision2019,3.2.4,59.98893660103507,
,,,,66,0,66,0,,,,,,,,,,,,,1186.5073628040846,None,,,,,,,,,,,,,,,,,,,,,,edition,D_new,66,107,1183.0215835012496,None,1183.0215835012496,None,1183.0215835012496,None,1,1.776512174634263,1183.0215835012496,None,1184.84230795427,None,1184.84230795427,None,1185.3712349775014,None,1185.3712349775014,None,1185.3712349775014,None,r,1.1143888245569542,1185.3712349775014,None,sing1,001,2019_Oct_22_1215,ProdFawcett_Revision2019,3.2.4,59.98893660103507,
,,,,67,0,67,0,,,,,,,,,,,,,1189.0725541524007,None,,,,,,,,,,,,,,,,,,,,,,signal,B_aloud,67,287,1187.027082940098,None,1187.027082940098,None,1187.027082940098,None,1,1.13856545597082,1187.027082940098,None,1188.2054251716472,None,1188.2054251716472,None,1188.7225854546996,None,1188.7225854546996,None,1188.7225854546996,None,f,0.3149496224359609,1188.7225854546996,None,sing1,001,2019_Oct_22_1215,ProdFawcett_Revision2019,3.2.4,59.98893660103507,
,,,,68,0,68,0,,,,,,,,,,,,,1192.073429621465,None,,,,,,,,,,,,,,,,,,,,,,household,C_sing,68,154,1189.5914125033305,None,1189.5914125033305,None,1189.5914125033305,None,6,1.4858194219996221,1189.5914125033305,None,1191.139866686135,None,1191.139866686135,None,1191.6568413012428,None,1191.6568413012428,None,1191.6568413012428,None,n,0.37325990793760866,1191.6568413012428,None,sing1,001,2019_Oct_22_1215,ProdFawcett_Revision2019,3.2.4,59.98893660103507,
,,,,69,0,69,0,,,,,,,,,,,,,1195.6079957231414,None,,,,,,,,,,,,,,,,,,,,,,court,C_sing,69,75,1192.590436269762,None,1192.590436269762,None,1192.590436269762,None,1,1.1755130513338372,1192.590436269762,None,1193.8112398415687,None,1193.8112398415687,None,1194.3406066208263,None,1194.3406066208263,None,1194.3406066208263,None,r,1.2252325435401872,1194.3406066208263,None,sing1,001,2019_Oct_22_1215,ProdFawcett_Revision2019,3.2.4,59.98893660103507,
,,,,70,0,70,0,,,,,,,,,,,,,1198.1752455901005,None,,,,,,,,,,,,,,,,,,,,,,trial,B_aloud,70,341,1196.1246437867521,None,1196.1246437867521,None,1196.1246437867521,None,1,1.1201902457978576,1196.1246437867521,None,1197.2944179281476,None,1197.2944179281476,None,1197.825159333821,None,1197.825159333821,None,1197.825159333821,None,r,0.30851997825084254,1197.825159333821,None,sing1,001,2019_Oct_22_1215,ProdFawcett_Revision2019,3.2.4,59.98893660103507,
,,,,71,0,71,0,,,,,,,,,,,,,1200.4760334501043,None,,,,,,,,,,,,,,,,,,,,,,beginning,B_aloud,71,19,1198.694310446037,None,1198.694310446037,None,1198.694310446037,None,1,0.8552785810898058,1198.694310446037,None,1199.5990052929847,None,1199.5990052929847,None,1200.1257326028426,None,1200.1257326028426,None,1200.1257326028426,None,r,0.31133858452085406,1200.1257326028426,None,sing1,001,2019_Oct_22_1215,ProdFawcett_Revision2019,3.2.4,59.98893660103507,
,,,,72,0,72,0,,,,,,,,,,,,,1202.8599681721535,None,,,,,,,,,,,,,,,,,,,,,,expansion,C_sing,72,123,1200.9931106957374,None,1200.9931106957374,None,1200.9931106957374,None,1,0.892038953548763,1200.9931106957374,None,1201.9432465878199,None,1201.9432465878199,None,1202.4598069489584,None,1202.4598069489584,None,1202.4598069489584,None,r,0.3610658517573029,1202.4598069489584,None,sing1,001,2019_Oct_22_1215,ProdFawcett_Revision2019,3.2.4,59.98893660103507,
,,,,73,0,73,0,,,,,,,,,,,,,1205.394120330864,None,,,,,,,,,,,,,,,,,,,,,,engineer,D_new,73,114,1203.376683101058,None,1203.376683101058,None,1203.376683101058,None,1,1.132004258222878,1203.376683101058,None,1204.549347379012,None,1204.549347379012,None,1205.0772061122116,None,1205.0772061122116,None,1205.0772061122116,None,r,0.27952780027408153,1205.0772061122116,None,sing1,001,2019_Oct_22_1215,ProdFawcett_Revision2019,3.2.4,59.98893660103507,
,,,,74,0,74,0,,,,,,,,,,,,,1212.1463059713715,None,,,,,,,,,,,,,,,,,,,,,,vision,A_silent,74,347,1205.9108676039032,None,1205.9108676039032,None,1205.9108676039032,None,1,5.301391513785347,1205.9108676039032,None,1211.234201514686,None,1211.234201514686,None,1211.7536293092999,None,1211.7536293092999,None,1211.7536293092999,None,f,0.3544349896837957,1211.7536293092999,None,sing1,001,2019_Oct_22_1215,ProdFawcett_Revision2019,3.2.4,59.98893660103507,
,,,,75,0,75,0,,,,,,,,,,,,,1215.9306532057235,None,,,,,,,,,,,,,,,,,,,,,,still,A_silent,75,304,1212.6632208742085,None,1212.6632208742085,None,1212.6632208742085,None,6,1.3007464967668056,1212.6632208742085,None,1214.0016144086258,None,1214.0016144086258,None,1214.530264018511,None,1214.530264018511,None,1214.530264018511,None,n,1.353402153821662,1214.530264018511,None,sing1,001,2019_Oct_22_1215,ProdFawcett_Revision2019,3.2.4,59.98893660103507,
,,,,76,0,76,0,,,,,,,,,,,,,1218.3814373803325,None,,,,,,,,,,,,,,,,,,,,,,education,D_new,76,108,1216.4481997525436,None,1216.4481997525436,None,1216.4481997525436,None,1,1.0115064319688827,1216.4481997525436,None,1217.5143678009044,None,1217.5143678009044,None,1218.0212280265987,None,1218.0212280265987,None,1218.0212280265987,None,r,0.32682210311759263,1218.0212280265987,None,sing1,001,2019_Oct_22_1215,ProdFawcett_Revision2019,3.2.4,59.98893660103507,
,,,,77,0,77,0,,,,,,,,,,,,,1221.7322597770835,None,,,,,,,,,,,,,,,,,,,,,,bureau,D_new,77,37,1218.8992999046459,None,1218.8992999046459,None,1218.8992999046459,None,6,1.8324327249429189,1218.8992999046459,None,1220.7822041233303,None,1220.7822041233303,None,1221.2989470423781,None,1221.2989470423781,None,1221.2989470423781,None,n,0.3843321818858385,1221.2989470423781,None,sing1,001,2019_Oct_22_1215,ProdFawcett_Revision2019,3.2.4,59.98893660103507,
,,,,78,0,78,0,,,,,,,,,,,,,1224.1833904072992,None,,,,,,,,,,,,,,,,,,,,,,interview,A_silent,78,165,1222.2514107804163,None,1222.2514107804163,None,1222.2514107804163,None,1,1.1045907236402854,1222.2514107804163,None,1223.4162714097765,None,1223.4162714097765,None,1223.917553202249,None,1223.917553202249,None,1223.917553202249,None,f,0.22252714191563427,1223.917553202249,None,sing1,001,2019_Oct_22_1215,ProdFawcett_Revision2019,3.2.4,59.98893660103507,
,,,,79,0,79,0,,,,,,,,,,,,,1226.6004421196994,None,,,,,,,,,,,,,,,,,,,,,,literature,D_new,79,173,1224.704698827758,None,1224.704698827758,None,1224.704698827758,None,6,1.2032497164327651,1224.704698827758,None,1225.9670294913813,None,1225.9670294913813,None,1226.4838171945885,None,1226.4838171945885,None,1226.4838171945885,None,n,0.07133564865216613,1226.4838171945885,None,sing1,001,2019_Oct_22_1215,ProdFawcett_Revision2019,3.2.4,59.98893660103507,
,,,,80,0,80,0,,,,,,,,,,,,,1229.201199594827,None,,,,,,,,,,,,,,,,,,,,,,brilliant,C_sing,80,30,1227.1182657688041,None,1227.1182657688041,None,1227.1182657688041,None,6,1.100593421899248,1227.1182657688041,None,1228.2744979736744,None,1228.2744979736744,None,1228.7846022556187,None,1228.7846022556187,None,1228.7846022556187,None,n,0.378312126675155,1228.7846022556187,None,sing1,001,2019_Oct_22_1215,ProdFawcett_Revision2019,3.2.4,59.98893660103507,
,,,,81,0,81,0,,,,,,,,,,,,,1232.802287975559,None,,,,,,,,,,,,,,,,,,,,,,error,D_new,81,117,1229.7182314342353,None,1229.7182314342353,None,1229.7182314342353,None,1,2.3326770165585913,1229.7182314342353,None,1232.0888714659377,None,1232.0888714659377,None,1232.6189218263607,None,1232.6189218263607,None,1232.6189218263607,None,f,0.1441174540668726,1232.6189218263607,None,sing1,001,2019_Oct_22_1215,ProdFawcett_Revision2019,3.2.4,59.98893660103507,
,,,,82,0,82,0,,,,,,,,,,,,,1235.3236691703787,None,,,,,,,,,,,,,,,,,,,,,,second,C_sing,82,278,1233.3192364665447,None,1233.3192364665447,None,1233.3192364665447,None,1,1.3080867532407865,1233.3192364665447,None,1234.672475966625,None,1234.672475966625,None,1235.2030615605763,None,1235.2030615605763,None,1235.2030615605763,None,f,0.09527654096018523,1235.2030615605763,None,sing1,001,2019_Oct_22_1215,ProdFawcett_Revision2019,3.2.4,59.98893660103507,
,,,,83,0,83,0,,,,,,,,,,,,,1237.7377797419322,None,,,,,,,,,,,,,,,,,,,,,,south,D_new,83,296,1235.8536109913257,None,1235.8536109913257,None,1235.8536109913257,None,6,1.068724169395864,1235.8536109913257,None,1236.9761552071432,None,1236.9761552071432,None,1237.5038690136862,None,1237.5038690136862,None,1237.5038690136862,None,n,0.210242273285985,1237.5038690136862,None,sing1,001,2019_Oct_22_1215,ProdFawcett_Revision2019,3.2.4,59.98893660103507,
,,,,84,0,84,0,,,,,,,,,,,,,1240.1714414202725,None,,,,,,,,,,,,,,,,,,,,,,quarter,A_silent,84,246,1238.2409107491258,None,1238.2409107491258,None,1238.2409107491258,None,6,1.0973823317908682,1238.2409107491258,None,1239.3790694152121,None,1239.3790694152121,None,1239.9064961674158,None,1239.9064961674158,None,1239.9064961674158,None,n,0.22388932824833319,1239.9064961674158,None,sing1,001,2019_Oct_22_1215,ProdFawcett_Revision2019,3.2.4,59.98893660103507,
,,,,85,0,85,0,,,,,,,,,,,,,1242.738806979789,None,,,,,,,,,,,,,,,,,,,,,,balance,D_new,85,17,1240.6726572804619,None,1240.6726572804619,None,1240.6726572804619,None,6,1.2333503036643378,1240.6726572804619,None,1241.9551647857297,None,1241.9551647857297,None,1242.4720165552571,None,1242.4720165552571,None,1242.4720165552571,None,n,0.2261944710626267,1242.4720165552571,None,sing1,001,2019_Oct_22_1215,ProdFawcett_Revision2019,3.2.4,59.98893660103507,
,,,,86,0,86,0,,,,,,,,,,,,,1244.922673841298,None,,,,,,,,,,,,,,,,,,,,,,front,A_silent,86,134,1243.2555446117767,None,1243.2555446117767,None,1243.2555446117767,None,6,0.9947061331477016,1243.2555446117767,None,1244.2948219190584,None,1244.2948219190584,None,1244.8227531155571,None,1244.8227531155571,None,1244.8227531155571,None,n,0.0594357997761108,1244.8227531155571,None,sing1,001,2019_Oct_22_1215,ProdFawcett_Revision2019,3.2.4,59.98893660103507,
,,,,87,0,87,0,,,,,,,,,,,,,1247.4235538199428,None,,,,,,,,,,,,,,,,,,,,,,murder,D_new,87,195,1245.4396260643261,None,1245.4396260643261,None,1245.4396260643261,None,1,1.2822611921001226,1245.4396260643261,None,1246.7602104111575,None,1246.7602104111575,None,1247.2901929733343,None,1247.2901929733343,None,1247.2901929733343,None,f,0.08746449527097866,1247.2901929733343,None,sing1,001,2019_Oct_22_1215,ProdFawcett_Revision2019,3.2.4,59.98893660103507,
,,,,88,0,88,0,,,,,,,,,,,,,1249.657416031987,None,,,,,,,,,,,,,,,,,,,,,,solution,D_new,88,294,1247.9417450727778,None,1247.9417450727778,None,1247.9417450727778,None,6,1.0200518190395087,1247.9417450727778,None,1249.0108209847822,None,1249.0108209847822,None,1249.5242197051411,None,1249.5242197051411,None,1249.5242197051411,None,n,0.08539695758372545,1249.5242197051411,None,sing1,001,2019_Oct_22_1215,ProdFawcett_Revision2019,3.2.4,59.98893660103507,
,,,,89,0,89,0,,,,,,,,,,,,,1253.5252960812068,None,,,,,,,,,,,,,,,,,,,,,,payment,D_new,89,215,1250.1742500744294,None,1250.1742500744294,None,1250.1742500744294,None,1,2.3955220144125633,1250.1742500744294,None,1252.6121196025051,None,1252.6121196025051,None,1253.1417998712277,None,1253.1417998712277,None,1253.1417998712277,None,f,0.34028286824468523,1253.1417998712277,None,sing1,001,2019_Oct_22_1215,ProdFawcett_Revision2019,3.2.4,59.98893660103507,
,,,,90,0,90,0,,,,,,,,,,,,,1256.742980308365,None,,,,,,,,,,,,,,,,,,,,,,audience,C_sing,90,14,1254.0421288796351,None,1254.0421288796351,None,1254.0421288796351,None,1,1.0952995550469495,1254.0421288796351,None,1255.1761888575274,None,1255.1761888575274,None,1255.6925899859634,None,1255.6925899859634,None,1255.6925899859634,None,r,1.0044547849101946,1255.6925899859634,None,sing1,001,2019_Oct_22_1215,ProdFawcett_Revision2019,3.2.4,59.98893660103507,
,,,,91,0,91,0,,,,,,,,,,,,,1259.3444907180383,None,,,,,,,,,,,,,,,,,,,,,,crowd,C_sing,91,81,1257.2601231752778,None,1257.2601231752778,None,1257.2601231752778,None,1,1.1576289124204777,1257.2601231752778,None,1258.4768358338624,None,1258.4768358338624,None,1258.9936157620978,None,1258.9936157620978,None,1258.9936157620978,None,f,0.327494177268818,1258.9936157620978,None,sing1,001,2019_Oct_22_1215,ProdFawcett_Revision2019,3.2.4,59.98893660103507,
,,,,92,0,92,0,,,,,,,,,,,,,1262.7117579389014,None,,,,,,,,,,,,,,,,,,,,,,straight,B_aloud,92,307,1259.8516750072595,None,1259.8516750072595,None,1259.8516750072595,None,1,1.6612544119125232,1259.8516750072595,None,1261.5613293322385,None,1261.5613293322385,None,1262.063508674968,None,1262.063508674968,None,1262.063508674968,None,f,0.6011894561816007,1262.063508674968,None,sing1,001,2019_Oct_22_1215,ProdFawcett_Revision2019,3.2.4,59.98893660103507,
,,,,93,0,93,0,,,,,,,,,,,,,1265.6624359065318,None,,,,,,,,,,,,,,,,,,,,,,shape,A_silent,93,282,1263.2290068573202,None,1263.2290068573202,None,1263.2290068573202,None,1,1.6834791981964372,1263.2290068573202,None,1264.9355906648561,None,1264.9355906648561,None,1265.4623972801492,None,1265.4623972801492,None,1265.4623972801492,None,f,0.1621934808208607,1265.4623972801492,None,sing1,001,2019_Oct_22_1215,ProdFawcett_Revision2019,3.2.4,59.98893660103507,
,,,,94,0,94,0,,,,,,,,,,,,,1267.8632741176407,None,,,,,,,,,,,,,,,,,,,,,,appearance,B_aloud,94,10,1266.1813284676173,None,1266.1813284676173,None,1266.1813284676173,None,1,0.9715903277392499,1266.1813284676173,None,1267.1964751717169,None,1267.1964751717169,None,1267.7037975455169,None,1267.7037975455169,None,1267.7037975455169,None,f,0.12062937987502664,1267.7037975455169,None,sing1,001,2019_Oct_22_1215,ProdFawcett_Revision2019,3.2.4,59.98893660103507,
,,,,95,0,95,0,,,,,,,,,,,,,1272.5978188223671,None,,,,,,,,,,,,,,,,,,,,,,account,D_new,95,1,1268.3808679367066,None,1268.3808679367066,None,1268.3808679367066,None,1,1.2759705655626021,1268.3808679367066,None,1269.7035506104003,None,1269.7035506104003,None,1270.2304670091253,None,1270.2304670091253,None,1270.2304670091253,None,f,2.329665278433822,1270.2304670091253,None,sing1,001,2019_Oct_22_1215,ProdFawcett_Revision2019,3.2.4,59.98893660103507,
,,,,96,0,96,0,,,,,,,,,,,,,1275.8323341375217,None,,,,,,,,,,,,,,,,,,,,,,principal,D_new,96,236,1273.1145455693477,None,1273.1145455693477,None,1273.1145455693477,None,1,1.2938612354919314,1273.1145455693477,None,1274.4529885529773,None,1274.4529885529773,None,1274.9818135676906,None,1274.9818135676906,None,1274.9818135676906,None,f,0.8180762756383047,1274.9818135676906,None,sing1,001,2019_Oct_22_1215,ProdFawcett_Revision2019,3.2.4,59.98893660103507,
,,,,97,0,97,0,,,,,,,,,,,,,1279.4999354672036,None,,,,,,,,,,,,,,,,,,,,,,incident,A_silent,97,158,1276.3496007830254,None,1276.3496007830254,None,1276.3496007830254,None,6,2.090966993768234,1276.3496007830254,None,1278.4996362838428,None,1278.4996362838428,None,1279.0164190110518,None,1279.0164190110518,None,1279.0164190110518,None,n,0.44002570112934336,1279.0164190110518,None,sing1,001,2019_Oct_22_1215,ProdFawcett_Revision2019,3.2.4,59.98893660103507,
,,,,98,0,98,0,,,,,,,,,,,,,1282.450746232469,None,,,,,,,,,,,,,,,,,,,,,,frank,B_aloud,98,133,1280.0167250364902,None,1280.0167250364902,None,1280.0167250364902,None,6,1.6788275493308902,1280.0167250364902,None,1281.750648360292,None,1281.750648360292,None,1282.2673241030425,None,1282.2673241030425,None,1282.2673241030425,None,n,0.1485221676994115,1282.2673241030425,None,sing1,001,2019_Oct_22_1215,ProdFawcett_Revision2019,3.2.4,59.98893660103507,
,,,,99,0,99,0,,,,,,,,,,,,,1285.124342115305,None,,,,,,,,,,,,,,,,,,,,,,series,C_sing,99,279,1282.9688211707398,None,1282.9688211707398,None,1282.9688211707398,None,1,1.5345213174587116,1282.9688211707398,None,1284.5564490973484,None,1284.5564490973484,None,1285.0849049533135,None,1285.0849049533135,None,1285.0849049533135,None,f,0.010680723120458424,1285.0849049533135,None,sing1,001,2019_Oct_22_1215,ProdFawcett_Revision2019,3.2.4,59.98893660103507,
,,,,100,0,100,0,,,,,,,,,,,,,1289.3528675423004,None,,,,,,,,,,,,,,,,,,,,,,sound,A_silent,100,295,1285.65193400922,None,1285.65193400922,None,1285.65193400922,None,6,2.659645601408556,1285.65193400922,None,1288.3695425075712,None,1288.3695425075712,None,1288.8861507629626,None,1288.8861507629626,None,1288.8861507629626,None,n,0.4333472558064386,1288.8861507629626,None,sing1,001,2019_Oct_22_1215,ProdFawcett_Revision2019,3.2.4,59.98893660103507,
,,,,101,0,101,0,,,,,,,,,,,,,1292.153868904803,None,,,,,,,,,,,,,,,,,,,,,,notice,B_aloud,101,201,1289.8706498282263,None,1289.8706498282263,None,1289.8706498282263,None,1,1.2164451972930692,1289.8706498282263,None,1291.124499171041,None,1291.124499171041,None,1291.6535661449307,None,1291.6535661449307,None,1291.6535661449307,None,r,0.4581154119805433,1291.6535661449307,None,sing1,001,2019_Oct_22_1215,ProdFawcett_Revision2019,3.2.4,59.98893660103507,
,,,,102,0,102,0,,,,,,,,,,,,,1295.1712517093401,None,,,,,,,,,,,,,,,,,,,,,,sweet,D_new,102,319,1292.6707178753568,None,1292.6707178753568,None,1292.6707178753568,None,6,1.5604843412293121,1292.6707178753568,None,1294.2710635846015,None,1294.2710635846015,None,1294.7881184380967,None,1294.7881184380967,None,1294.7881184380967,None,n,0.3466142359538935,1294.7881184380967,None,sing1,001,2019_Oct_22_1215,ProdFawcett_Revision2019,3.2.4,59.98893660103507,
,,,,103,0,103,0,,,,,,,,,,,,,1297.7230463588494,None,,,,,,,,,,,,,,,,,,,,,,welcome,D_new,103,354,1295.6886122773285,None,1295.6886122773285,None,1295.6886122773285,None,6,1.1102892033522949,1295.6886122773285,None,1296.855172529642,None,1296.855172529642,None,1297.3720606863499,None,1297.3720606863499,None,1297.3720606863499,None,n,0.33059859386412427,1297.3720606863499,None,sing1,001,2019_Oct_22_1215,ProdFawcett_Revision2019,3.2.4,59.98893660103507,
,,,,104,0,104,0,,,,,,,,,,,,,1300.2396098300233,None,,,,,,,,,,,,,,,,,,,,,,emergency,B_aloud,104,110,1298.2422524094582,None,1298.2422524094582,None,1298.2422524094582,None,1,1.0049738463712856,1298.2422524094582,None,1299.3059884264367,None,1299.3059884264367,None,1299.8227279244456,None,1299.8227279244456,None,1299.8227279244456,None,r,0.38380347937345505,1299.8227279244456,None,sing1,001,2019_Oct_22_1215,ProdFawcett_Revision2019,3.2.4,59.98893660103507,
,,,,105,0,105,0,,,,,,,,,,,,,1303.2238616491668,None,,,,,,,,,,,,,,,,,,,,,,match,A_silent,105,181,1300.7402450505178,None,1300.7402450505178,None,1300.7402450505178,None,1,1.290821818227414,1300.7402450505178,None,1302.0767302799504,None,1302.0767302799504,None,1302.6068475057255,None,1302.6068475057255,None,1302.6068475057255,None,r,0.5672495560138486,1302.6068475057255,None,sing1,001,2019_Oct_22_1215,ProdFawcett_Revision2019,3.2.4,59.98893660103507,
,,,,106,0,106,0,,,,,,,,,,,,,1305.9747357965098,None,,,,,,,,,,,,,,,,,,,,,,scale,C_sing,106,272,1303.7406487304252,None,1303.7406487304252,None,1303.7406487304252,None,6,1.321800673555117,1303.7406487304252,None,1305.1080409738352,None,1305.1080409738352,None,1305.6246986784972,None,1305.6246986784972,None,1305.6246986784972,None,n,0.30128795036580414,1305.6246986784972,None,sing1,001,2019_Oct_22_1215,ProdFawcett_Revision2019,3.2.4,59.98893660103507,
,,,,107,0,107,0,,,,,,,,,,,,,1308.6255166123156,None,,,,,,,,,,,,,,,,,,,,,,department,A_silent,107,90,1306.49357704242,None,1306.49357704242,None,1306.49357704242,None,1,1.2485175337642431,1306.49357704242,None,1307.7919350480079,None,1307.7919350480079,None,1308.3085302413674,None,1308.3085302413674,None,1308.3085302413674,None,r,0.28137794794747606,1308.3085302413674,None,sing1,001,2019_Oct_22_1215,ProdFawcett_Revision2019,3.2.4,59.98893660103507,
,,,,108,0,108,0,,,,,,,,,,,,,1311.1598140086862,None,,,,,,,,,,,,,,,,,,,,,,watch,C_sing,108,351,1309.1423711808748,None,1309.1423711808748,None,1309.1423711808748,None,1,1.0154937816550955,1309.1423711808748,None,1310.1990328477114,None,1310.1990328477114,None,1310.726114388206,None,1310.726114388206,None,1310.726114388206,None,f,0.3999823973281309,1310.726114388206,None,sing1,001,2019_Oct_22_1215,ProdFawcett_Revision2019,3.2.4,59.98893660103507,
,,,,109,0,109,0,,,,,,,,,,,,,1313.97695323691,None,,,,,,,,,,,,,,,,,,,,,,touch,D_new,109,332,1311.6775135682547,None,1311.6775135682547,None,1311.6775135682547,None,6,1.3518188453745097,1311.6775135682547,None,1313.0811629837845,None,1313.0811629837845,None,1313.6101910824073,None,1313.6101910824073,None,1313.6101910824073,None,n,0.3241207444225438,1313.6101910824073,None,sing1,001,2019_Oct_22_1215,ProdFawcett_Revision2019,3.2.4,59.98893660103507,
,,,,110,0,110,0,,,,,,,,,,,,,1316.8950394956628,None,,,,,,,,,,,,,,,,,,,,,,substance,D_new,110,313,1314.495580513787,None,1314.495580513787,None,1314.495580513787,None,6,1.5178099650656804,1314.495580513787,None,1316.0775818019756,None,1316.0775818019756,None,1316.5948506244458,None,1316.5948506244458,None,1316.5948506244458,None,n,0.282528342329897,1316.5948506244458,None,sing1,001,2019_Oct_22_1215,ProdFawcett_Revision2019,3.2.4,59.98893660103507,
,,,,111,0,111,0,,,,,,,,,,,,,1321.046128980408,None,,,,,,,,,,,,,,,,,,,,,,present,D_new,111,231,1317.4125042490778,None,1317.4125042490778,None,1317.4125042490778,None,1,2.736477267812006,1317.4125042490778,None,1320.2123340690741,None,1320.2123340690741,None,1320.729052730021,None,1320.729052730021,None,1320.729052730021,None,f,0.2922004876891151,1320.729052730021,None,sing1,001,2019_Oct_22_1215,ProdFawcett_Revision2019,3.2.4,59.98893660103507,
,,,,112,0,112,0,,,,,,,,,,,,,1323.4965813165181,None,,,,,,,,,,,,,,,,,,,,,,report,C_sing,112,259,1321.5638272959623,None,1321.5638272959623,None,1321.5638272959623,None,1,0.9451471177162603,1321.5638272959623,None,1322.562949649815,None,1322.562949649815,None,1323.0798667296767,None,1323.0798667296767,None,1323.0798667296767,None,f,0.38105578150134534,1323.0798667296767,None,sing1,001,2019_Oct_22_1215,ProdFawcett_Revision2019,3.2.4,59.98893660103507,
,,,,113,0,113,0,,,,,,,,,,,,,1325.9978320088703,None,,,,,,,,,,,,,,,,,,,,,,trend,B_aloud,113,340,1324.0134881333215,None,1324.0134881333215,None,1324.0134881333215,None,6,1.0711708178860135,1324.0134881333215,None,1325.1470358917722,None,1325.1470358917722,None,1325.6639822057914,None,1325.6639822057914,None,1325.6639822057914,None,n,0.29304392368067056,1325.6639822057914,None,sing1,001,2019_Oct_22_1215,ProdFawcett_Revision2019,3.2.4,59.98893660103507,
,,,,114,0,114,0,,,,,,,,,,,,,1328.4874217015458,None,,,,,,,,,,,,,,,,,,,,,,evidence,D_new,114,120,1326.5165644042427,None,1326.5165644042427,None,1326.5165644042427,None,1,0.9679730697534978,1326.5165644042427,None,1327.5479534704937,None,1327.5479534704937,None,1328.0647044755751,None,1328.0647044755751,None,1328.0647044755751,None,r,0.3956638310919516,1328.0647044755751,None,sing1,001,2019_Oct_22_1215,ProdFawcett_Revision2019,3.2.4,59.98893660103507,
,,,,115,0,115,0,,,,,,,,,,,,,1330.9033942388487,None,,,,,,,,,,,,,,,,,,,,,,weight,A_silent,115,353,1329.0150866808253,None,1329.0150866808253,None,1329.0150866808253,None,6,1.0292963373940438,1329.0150866808253,None,1330.0885607754462,None,1330.0885607754462,None,1330.6154865042772,None,1330.6154865042772,None,1330.6154865042772,None,n,0.2611588101135567,1330.6154865042772,None,sing1,001,2019_Oct_22_1215,ProdFawcett_Revision2019,3.2.4,59.98893660103507,
,,,,116,0,116,0,,,,,,,,,,,,,1333.5830804632278,None,,,,,,,,,,,,,,,,,,,,,,character,D_new,116,46,1331.4340317700407,None,1331.4340317700407,None,1331.4340317700407,None,1,1.2502821560483426,1331.4340317700407,None,1332.7494811718352,None,1332.7494811718352,None,1333.2662194258883,None,1333.2662194258883,None,1333.2662194258883,None,f,0.28218375268625095,1333.2662194258883,None,sing1,001,2019_Oct_22_1215,ProdFawcett_Revision2019,3.2.4,59.98893660103507,
,,,,117,0,117,0,,,,,,,,,,,,,1336.0538903328124,None,,,,,,,,,,,,,,,,,,,,,,military,D_new,117,190,1334.1012981511885,None,1334.1012981511885,None,1334.1012981511885,None,6,1.015290386741981,1334.1012981511885,None,1335.1668096755166,None,1335.1668096755166,None,1335.6836897461908,None,1335.6836897461908,None,1335.6836897461908,None,n,0.33616707497276366,1335.6836897461908,None,sing1,001,2019_Oct_22_1215,ProdFawcett_Revision2019,3.2.4,59.98893660103507,
,,,,118,0,118,0,,,,,,,,,,,,,1338.4729116174276,None,,,,,,,,,,,,,,,,,,,,,,safety,A_silent,118,270,1336.5842498287675,None,1336.5842498287675,None,1336.5842498287675,None,6,0.9085481549846008,1336.5842498287675,None,1337.537526835571,None,1337.537526835571,None,1338.0676098511904,None,1338.0676098511904,None,1338.0676098511904,None,n,0.36820924427593127,1338.0676098511904,None,sing1,001,2019_Oct_22_1215,ProdFawcett_Revision2019,3.2.4,59.98893660103507,
,,,,119,0,119,0,,,,,,,,,,,,,1341.2020389877725,None,,,,,,,,,,,,,,,,,,,,,,relation,A_silent,119,257,1338.984657365072,None,1338.984657365072,None,1338.984657365072,None,6,1.3078967313631438,1338.984657365072,None,1340.351766908192,None,1340.351766908192,None,1340.8686407587957,None,1340.8686407587957,None,1340.8686407587957,None,n,0.2870024093426764,1340.8686407587957,None,sing1,001,2019_Oct_22_1215,ProdFawcett_Revision2019,3.2.4,59.98893660103507,
,,,,120,0,120,0,,,,,,,,,,,,,1343.5366128023015,None,,,,,,,,,,,,,,,,,,,,,,worker,D_new,120,356,1341.7192362799542,None,1341.7192362799542,None,1341.7192362799542,None,6,1.0363215493853204,1341.7192362799542,None,1342.8086700364947,None,1342.8086700364947,None,1343.336013751279,None,1343.336013751279,None,1343.336013751279,None,n,0.16358085838146508,1343.336013751279,None,sing1,001,2019_Oct_22_1215,ProdFawcett_Revision2019,3.2.4,59.98893660103507,
,,,,121,0,121,0,,,,,,,,,,,,,1346.1704561676597,None,,,,,,,,,,,,,,,,,,,,,,smooth,D_new,121,292,1344.0534347156645,None,1344.0534347156645,None,1344.0534347156645,None,6,1.1261829329305328,1344.0534347156645,None,1345.2369933747686,None,1345.2369933747686,None,1345.7534442634205,None,1345.7534442634205,None,1345.7534442634205,None,n,0.3698765230947174,1345.7534442634205,None,sing1,001,2019_Oct_22_1215,ProdFawcett_Revision2019,3.2.4,59.98893660103507,
,,,,122,0,122,0,,,,,,,,,,,,,1348.5209395727725,None,,,,,,,,,,,,,,,,,,,,,,pressure,D_new,122,232,1346.6892289932002,None,1346.6892289932002,None,1346.6892289932002,None,6,1.0742198761436157,1346.6892289932002,None,1347.8039089151425,None,1347.8039089151425,None,1348.3208004928892,None,1348.3208004928892,None,1348.3208004928892,None,n,0.16248768824152648,1348.3208004928892,None,sing1,001,2019_Oct_22_1215,ProdFawcett_Revision2019,3.2.4,59.98893660103507,
,,,,123,0,123,0,,,,,,,,,,,,,1350.9550074189901,None,,,,,,,,,,,,,,,,,,,,,,point,D_new,123,226,1349.037517660996,None,1349.037517660996,None,1349.037517660996,None,6,0.8855841183103621,1349.037517660996,None,1349.9713213114883,None,1349.9713213114883,None,1350.4880943977041,None,1350.4880943977041,None,1350.4880943977041,None,n,0.41909623600076884,1350.4880943977041,None,sing1,001,2019_Oct_22_1215,ProdFawcett_Revision2019,3.2.4,59.98893660103507,
,,,,124,0,124,0,,,,,,,,,,,,,1353.7557158180862,None,,,,,,,,,,,,,,,,,,,,,,territory,D_new,124,324,1351.4731252754573,None,1351.4731252754573,None,1351.4731252754573,None,1,1.3539464063360356,1351.4731252754573,None,1352.8890919037513,None,1352.8890919037513,None,1353.4062360146781,None,1353.4062360146781,None,1353.4062360146781,None,f,0.3006783875171095,1353.4062360146781,None,sing1,001,2019_Oct_22_1215,ProdFawcett_Revision2019,3.2.4,59.98893660103507,
,,,,125,0,125,0,,,,,,,,,,,,,1356.35665118607,None,,,,,,,,,,,,,,,,,,,,,,range,C_sing,125,251,1354.2725741186878,None,1354.2725741186878,None,1354.2725741186878,None,6,1.2910280122305267,1354.2725741186878,None,1355.6231343411491,None,1355.6231343411491,None,1356.1399226664216,None,1356.1399226664216,None,1356.1399226664216,None,n,0.17534853157121688,1356.1399226664216,None,sing1,001,2019_Oct_22_1215,ProdFawcett_Revision2019,3.2.4,59.98893660103507,
,,,,126,0,126,0,,,,,,,,,,,,,1358.990781294764,None,,,,,,,,,,,,,,,,,,,,,,death,A_silent,126,86,1356.8740322801168,None,1356.8740322801168,None,1356.8740322801168,None,6,1.2251579032163136,1356.8740322801168,None,1358.1448890487081,None,1358.1448890487081,None,1358.6738683201256,None,1358.6738683201256,None,1358.6738683201256,None,n,0.2808725705835968,1358.6738683201256,None,sing1,001,2019_Oct_22_1215,ProdFawcett_Revision2019,3.2.4,59.98893660103507,
,,,,127,0,127,0,,,,,,,,,,,,,1362.1917423515115,None,,,,,,,,,,,,,,,,,,,,,,device,B_aloud,127,93,1359.507387995196,None,1359.507387995196,None,1359.507387995196,None,6,1.8151332687702961,1359.507387995196,None,1361.3746914477088,None,1361.3746914477088,None,1361.891652689781,None,1361.891652689781,None,1361.891652689781,None,n,0.25464923854451627,1361.891652689781,None,sing1,001,2019_Oct_22_1215,ProdFawcett_Revision2019,3.2.4,59.98893660103507,
,,,,128,0,128,0,,,,,,,,,,,,,1364.9592616079026,None,,,,,,,,,,,,,,,,,,,,,,generation,D_new,128,136,1362.7102641988895,None,1362.7102641988895,None,1362.7102641988895,None,1,1.1800816627801396,1362.7102641988895,None,1363.929972734535,None,1363.929972734535,None,1364.458944541926,None,1364.458944541926,None,1364.458944541926,None,f,0.4555894581717439,1364.458944541926,None,sing1,001,2019_Oct_22_1215,ProdFawcett_Revision2019,3.2.4,59.98893660103507,
,,,,129,0,129,0,,,,,,,,,,,,,1367.4931714964914,None,,,,,,,,,,,,,,,,,,,,,,number,D_new,129,203,1365.4771250652266,None,1365.4771250652266,None,1365.4771250652266,None,6,1.1009849727270193,1365.4771250652266,None,1366.6296019274741,None,1366.6296019274741,None,1367.1597909945995,None,1367.1597909945995,None,1367.1597909945995,None,n,0.29845939204096794,1367.1597909945995,None,sing1,001,2019_Oct_22_1215,ProdFawcett_Revision2019,3.2.4,59.98893660103507,
,,,,130,0,130,0,,,,,,,,,,,,,1370.0274608068285,None,,,,,,,,,,,,,,,,,,,,,,oxygen,B_aloud,130,209,1368.0150879247813,None,1368.0150879247813,None,1368.0150879247813,None,1,1.130895849026274,1368.0150879247813,None,1369.210587173875,None,1369.210587173875,None,1369.7273487530183,None,1369.7273487530183,None,1369.7273487530183,None,f,0.2587833809084259,1369.7273487530183,None,sing1,001,2019_Oct_22_1215,ProdFawcett_Revision2019,3.2.4,59.98893660103507,
,,,,131,0,131,0,,,,,,,,,,,,,1374.7854180124123,None,,,,,,,,,,,,,,,,,,,,,,cover,D_new,131,77,1370.5442534860922,None,1370.5442534860922,None,1370.5442534860922,None,6,2.3939436819637194,1370.5442534860922,None,1372.9845687296474,None,1372.9845687296474,None,1373.5118642391753,None,1373.5118642391753,None,1373.5118642391753,None,n,1.2502750030253083,1373.5118642391753,None,sing1,001,2019_Oct_22_1215,ProdFawcett_Revision2019,3.2.4,59.98893660103507,
,,,,132,0,132,0,,,,,,,,,,,,,1377.4463564468897,None,,,,,,,,,,,,,,,,,,,,,,union,D_new,132,344,1375.3122495078132,None,1375.3122495078132,None,1375.3122495078132,None,6,1.2256695005926304,1375.3122495078132,None,1376.567210058798,None,1376.567210058798,None,1377.096367845079,None,1377.096367845079,None,1377.096367845079,None,n,0.3131053837714717,1377.096367845079,None,sing1,001,2019_Oct_22_1215,ProdFawcett_Revision2019,3.2.4,59.98893660103507,
,,,,133,0,133,0,,,,,,,,,,,,,1379.7636186761665,None,,,,,,,,,,,,,,,,,,,,,,right,D_new,133,265,1377.9630318786367,None,1377.9630318786367,None,1377.9630318786367,None,6,0.9591182362637483,1377.9630318786367,None,1378.9801039926824,None,1378.9801039926824,None,1379.4802559168893,None,1379.4802559168893,None,1379.4802559168893,None,n,0.24948910233797505,1379.4802559168893,None,sing1,001,2019_Oct_22_1215,ProdFawcett_Revision2019,3.2.4,59.98893660103507,
,,,,134,0,134,0,,,,,,,,,,,,,1382.265422951139,None,,,,,,,,,,,,,,,,,,,,,,concern,C_sing,134,65,1380.2810100332717,None,1380.2810100332717,None,1380.2810100332717,None,6,1.120058381173294,1380.2810100332717,None,1381.4507950597326,None,1381.4507950597326,None,1381.9809629787342,None,1381.9809629787342,None,1381.9809629787342,None,n,0.2601007831399329,1381.9809629787342,None,sing1,001,2019_Oct_22_1215,ProdFawcett_Revision2019,3.2.4,59.98893660103507,
,,,,135,0,135,0,,,,,,,,,,,,,1385.3155019610422,None,,,,,,,,,,,,,,,,,,,,,,suspect,D_new,135,318,1382.7818595337449,None,1382.7818595337449,None,1382.7818595337449,None,1,1.5393387300428003,1382.7818595337449,None,1384.381681205472,None,1384.381681205472,None,1384.8985252000275,None,1384.8985252000275,None,1384.8985252000275,None,f,0.3745984582346864,1384.8985252000275,None,sing1,001,2019_Oct_22_1215,ProdFawcett_Revision2019,3.2.4,59.98893660103507,
,,,,136,0,136,0,,,,,,,,,,,,,1387.69947804627,None,,,,,,,,,,,,,,,,,,,,,,height,D_new,136,152,1385.8162917492446,None,1385.8162917492446,None,1385.8162917492446,None,6,1.040819563495461,1385.8162917492446,None,1386.886382148019,None,1386.886382148019,None,1387.4001092859544,None,1387.4001092859544,None,1387.4001092859544,None,n,0.26511972467415035,1387.4001092859544,None,sing1,001,2019_Oct_22_1215,ProdFawcett_Revision2019,3.2.4,59.98893660103507,
,,,,137,0,137,0,,,,,,,,,,,,,1390.2337574046105,None,,,,,,,,,,,,,,,,,,,,,,broke,D_new,137,32,1388.2169001924922,None,1388.2169001924922,None,1388.2169001924922,None,6,1.1356995775713585,1388.2169001924922,None,1389.416693127714,None,1389.416693127714,None,1389.9333670044434,None,1389.9333670044434,None,1389.9333670044434,None,n,0.28343988762935624,1389.9333670044434,None,sing1,001,2019_Oct_22_1215,ProdFawcett_Revision2019,3.2.4,59.98893660103507,
,,,,138,0,138,0,,,,,,,,,,,,,1392.5843092300347,None,,,,,,,,,,,,,,,,,,,,,,burden,C_sing,138,36,1390.750359750993,None,1390.750359750993,None,1390.750359750993,None,6,1.0343043939210474,1390.750359750993,None,1391.8245979762287,None,1391.8245979762287,None,1392.3509334242553,None,1392.3509334242553,None,1392.3509334242553,None,n,0.19408699142513797,1392.3509334242553,None,sing1,001,2019_Oct_22_1215,ProdFawcett_Revision2019,3.2.4,59.98893660103507,
,,,,139,0,139,0,,,,,,,,,,,,,1395.0183823632542,None,,,,,,,,,,,,,,,,,,,,,,mayor,B_aloud,139,183,1393.1017481703311,None,1393.1017481703311,None,1393.1017481703311,None,1,0.9943889116402715,1393.1017481703311,None,1394.1227022046223,None,1394.1227022046223,None,1394.6521420692443,None,1394.6521420692443,None,1394.6521420692443,None,f,0.3249868834973313,1394.6521420692443,None,sing1,001,2019_Oct_22_1215,ProdFawcett_Revision2019,3.2.4,59.98893660103507,
,,,,140,0,140,0,,,,,,,,,,,,,1398.069681742927,None,,,,,,,,,,,,,,,,,,,,,,citizen,D_new,140,50,1395.5518565388047,None,1395.5518565388047,None,1395.5518565388047,None,6,1.5927376805339009,1395.5518565388047,None,1397.2023223101278,None,1397.2023223101278,None,1397.7223531365744,None,1397.7223531365744,None,1397.7223531365744,None,n,0.30166270706104115,1397.7223531365744,None,sing1,001,2019_Oct_22_1215,ProdFawcett_Revision2019,3.2.4,59.98893660103507,
,,,,141,0,141,0,,,,,,,,,,,,,1400.5700911763124,None,,,,,,,,,,,,,,,,,,,,,,fight,D_new,141,127,1398.586984153546,None,1398.586984153546,None,1398.586984153546,None,6,1.2055215821019374,1398.586984153546,None,1399.8234525578446,None,1399.8234525578446,None,1400.3533396425191,None,1400.3533396425191,None,1400.3533396425191,None,n,0.1753081014030613,1400.3533396425191,None,sing1,001,2019_Oct_22_1215,ProdFawcett_Revision2019,3.2.4,59.98893660103507,
,,,,142,0,142,0,,,,,,,,,,,,,1403.0040607460542,None,,,,,,,,,,,,,,,,,,,,,,harmony,D_new,142,148,1401.0737001927337,None,1401.0737001927337,None,1401.0737001927337,None,1,0.8783225452061743,1401.0737001927337,None,1402.004020315886,None,1402.004020315886,None,1402.520701656642,None,1402.520701656642,None,1402.520701656642,None,r,0.43995696981437504,1402.520701656642,None,sing1,001,2019_Oct_22_1215,ProdFawcett_Revision2019,3.2.4,59.98893660103507,
,,,,143,0,143,0,,,,,,,,,,,,,1405.5722140722792,None,,,,,,,,,,,,,,,,,,,,,,business,B_aloud,143,38,1403.5227695053327,None,1403.5227695053327,None,1403.5227695053327,None,1,1.100628876069095,1403.5227695053327,None,1404.6601867439458,None,1404.6601867439458,None,1405.172800496628,None,1405.172800496628,None,1405.172800496628,None,f,0.3629340375191532,1405.172800496628,None,sing1,001,2019_Oct_22_1215,ProdFawcett_Revision2019,3.2.4,59.98893660103507,
,,,,144,0,144,0,,,,,,,,,,,,,1408.0889980435022,None,,,,,,,,,,,,,,,,,,,,,,volume,B_aloud,144,349,1406.0886596739292,None,1406.0886596739292,None,1406.0886596739292,None,1,1.046908972086385,1406.0886596739292,None,1407.1886771211284,None,1407.1886771211284,None,1407.7055786508718,None,1407.7055786508718,None,1407.7055786508718,None,f,0.34213457099394873,1407.7055786508718,None,sing1,001,2019_Oct_22_1215,ProdFawcett_Revision2019,3.2.4,59.98893660103507,
,,,,145,0,145,0,,,,,,,,,,,,,1410.8063630276592,None,,,,,,,,,,,,,,,,,,,,,,member,D_new,145,188,1408.6070624077693,None,1408.6070624077693,None,1408.6070624077693,None,6,1.2890301388106309,1408.6070624077693,None,1409.942248895124,None,1409.942248895124,None,1410.456430406135,None,1410.456430406135,None,1410.456430406135,None,n,0.3111697107087821,1410.456430406135,None,sing1,001,2019_Oct_22_1215,ProdFawcett_Revision2019,3.2.4,59.98893660103507,
,,,,146,0,146,0,,,,,,,,,,,,,1413.741110878589,None,,,,,,,,,,,,,,,,,,,,,,strength,D_new,146,310,1411.3237267056247,None,1411.3237267056247,None,1411.3237267056247,None,6,1.4193761372589506,1411.3237267056247,None,1412.807115962205,None,1412.807115962205,None,1413.3240520131658,None,1413.3240520131658,None,1413.3240520131658,None,n,0.38727114564972,1413.3240520131658,None,sing1,001,2019_Oct_22_1215,ProdFawcett_Revision2019,3.2.4,59.98893660103507,
,,,,147,0,147,0,,,,,,,,,,,,,1416.3249116211664,None,,,,,,,,,,,,,,,,,,,,,,budget,D_new,147,34,1414.2586546263774,None,1414.2586546263774,None,1414.2586546263774,None,1,1.1571935103856958,1414.2586546263774,None,1415.4634857852361,None,1415.4634857852361,None,1415.9920029084897,None,1415.9920029084897,None,1415.9920029084897,None,f,0.29490744444774464,1415.9920029084897,None,sing1,001,2019_Oct_22_1215,ProdFawcett_Revision2019,3.2.4,59.98893660103507,
,,,,148,0,148,0,,,,,,,,,,,,,1419.1090352454921,None,,,,,,,,,,,,,,,,,,,,,,youth,C_sing,148,359,1416.8415254746214,None,1416.8415254746214,None,1416.8415254746214,None,6,1.2852337440126576,1416.8415254746214,None,1418.1794693008997,None,1418.1794693008997,None,1418.6923293667496,None,1418.6923293667496,None,1418.6923293667496,None,n,0.3703601303277537,1418.6923293667496,None,sing1,001,2019_Oct_22_1215,ProdFawcett_Revision2019,3.2.4,59.98893660103507,
,,,,149,0,149,0,,,,,,,,,,,,,1421.4929992016987,None,,,,,,,,,,,,,,,,,,,,,,equipment,D_new,149,116,1419.6327169180731,None,1419.6327169180731,None,1419.6327169180731,None,1,0.9347217268077657,1419.6327169180731,None,1420.6264066984877,None,1420.6264066984877,None,1421.1471960575436,None,1421.1471960575436,None,1421.1471960575436,None,f,0.299323043145705,1421.1471960575436,None,sing1,001,2019_Oct_22_1215,ProdFawcett_Revision2019,3.2.4,59.98893660103507,
,,,,150,0,150,0,,,,,,,,,,,,,1424.9940169539768,None,,,,,,,,,,,,,,,,,,,,,,drove,D_new,150,106,1422.0098708753358,None,1422.0098708753358,None,1422.0098708753358,None,6,1.133069438219536,1422.0098708753358,None,1423.1936307523283,None,1423.1936307523283,None,1423.710289390001,None,1423.710289390001,None,1423.710289390001,None,n,1.2482090203557163,1423.710289390001,None,sing1,001,2019_Oct_22_1215,ProdFawcett_Revision2019,3.2.4,59.98893660103507,
,,,,151,0,151,0,,,,,,,,,,,,,1427.87839469756,None,,,,,,,,,,,,,,,,,,,,,,republic,D_new,151,260,1425.5126943020732,None,1425.5126943020732,None,1425.5126943020732,None,6,1.5097192621324211,1425.5126943020732,None,1427.0780604332103,None,1427.0780604332103,None,1427.5949277528562,None,1427.5949277528562,None,1427.5949277528562,None,n,0.23530805786140263,1427.5949277528562,None,sing1,001,2019_Oct_22_1215,ProdFawcett_Revision2019,3.2.4,59.98893660103507,
,,,,152,0,152,0,,,,,,,,,,,,,1431.3794830471743,None,,,,,,,,,,,,,,,,,,,,,,production,C_sing,152,240,1428.3976268722909,None,1428.3976268722909,None,1428.3976268722909,None,6,2.1363013653899543,1428.3976268722909,None,1430.5852173542953,None,1430.5852173542953,None,1431.11278063606,None,1431.11278063606,None,1431.11278063606,None,n,0.22112919035134837,1431.11278063606,None,sing1,001,2019_Oct_22_1215,ProdFawcett_Revision2019,3.2.4,59.98893660103507,
,,,,153,0,153,0,,,,,,,,,,,,,1434.1968822726049,None,,,,,,,,,,,,,,,,,,,,,,angle,B_aloud,153,7,1431.8969586856547,None,1431.8969586856547,None,1431.8969586856547,None,6,1.3332728954264894,1431.8969586856547,None,1433.279969733383,None,1433.279969733383,None,1433.796745307569,None,1433.796745307569,None,1433.796745307569,None,n,0.352883092360571,1433.796745307569,None,sing1,001,2019_Oct_22_1215,ProdFawcett_Revision2019,3.2.4,59.98893660103507,
