StudyTrials.thisRepN,StudyTrials.thisTrialN,StudyTrials.thisN,StudyTrials.thisIndex,TestTrials.thisRepN,TestTrials.thisTrialN,TestTrials.thisN,TestTrials.thisIndex,textWelcome.started,textWelcome.stopped,keyWelcome.keys,keyWelcome.rt,keyWelcome.started,keyWelcome.stopped,textReady.started,textReady.stopped,keyReady.keys,keyReady.rt,keyReady.started,keyReady.stopped,polyback_2.started,polyback_2.stopped,studyPic,studyWord,studyType,studyN,studyOrder,polyback_3.started,polyback_3.stopped,studyPicChoice.started,studyPicChoice.stopped,polyback_4.started,polyback_4.stopped,polyback.started,polyback.stopped,studyWords.started,studyWords.stopped,getResearcher.started,getResearcher.stopped,kPress2.keys,kPress2.rt,kPress2.started,kPress2.stopped,testWord,testType,testN,testOrder,polyback_5.started,polyback_5.stopped,testWords.started,testWords.stopped,textScale.started,textScale.stopped,keyConf.keys,keyConf.rt,keyConf.started,keyConf.stopped,polyback_6.started,polyback_6.stopped,studyWords_2.started,studyWords_2.stopped,polyback_7.started,polyback_7.stopped,testWords_2.started,testWords_2.stopped,textScale_2.started,textScale_2.stopped,keyRKN.keys,keyRKN.rt,keyRKN.started,keyRKN.stopped,participant,session,date,expName,psychopyVersion,frameRate,
,,,,,,,,11.885921600041911,None,space,878.0082300999202,11.885921600041911,None,,,,,,,,,,,,,,,,,,,,,,,,,,,,,,,,,,,,,,,,,,,,,,,,,,,,,,,,,,sing27,001,2019_Nov_07_1619,ProdFawcett_Revision2019,3.2.3,60.02681996376307,
,,,,,,,,,,,,,,889.9232759000733,None,space,13.443148100050166,889.9232759000733,None,,,,,,,,,,,,,,,,,,,,,,,,,,,,,,,,,,,,,,,,,,,,,,,,,,,,sing27,001,2019_Nov_07_1619,ProdFawcett_Revision2019,3.2.3,60.02681996376307,
0,0,0,0,,,,,,,,,,,,,,,,,908.1759274001233,None,materials/speakPic.jpg,bitter,B_aloud,0,23,904.5333024000283,None,904.5333024000283,None,905.4267941999715,None,905.6881500999443,None,905.6881500999443,None,,,,,,,,,,,,,,,,,,,,,,,,,,,,,,,,,,,sing27,001,2019_Nov_07_1619,ProdFawcett_Revision2019,3.2.3,60.02681996376307,
1,0,1,0,,,,,,,,,,,,,,,,,912.442254499998,None,materials/readPic.jpg,couch,A_silent,1,70,908.7574978999328,None,908.7574978999328,None,909.6937698998954,None,909.9491240000352,None,909.9491240000352,None,,,,,,,,,,,,,,,,,,,,,,,,,,,,,,,,,,,sing27,001,2019_Nov_07_1619,ProdFawcett_Revision2019,3.2.3,60.02681996376307,
2,0,2,0,,,,,,,,,,,,,,,,,916.709865400102,None,materials/speakPic.jpg,estate,B_aloud,2,119,913.0135586999822,None,913.0135586999822,None,913.9601664000656,None,914.2161354999989,None,914.2161354999989,None,,,,,,,,,,,,,,,,,,,,,,,,,,,,,,,,,,,sing27,001,2019_Nov_07_1619,ProdFawcett_Revision2019,3.2.3,60.02681996376307,
3,0,3,0,,,,,,,,,,,,,,,,,920.9767477000132,None,materials/speakPic.jpg,weather,B_aloud,3,352,917.2758526001126,None,917.2758526001126,None,918.2270221000072,None,918.4920346001163,None,918.4920346001163,None,,,,,,,,,,,,,,,,,,,,,,,,,,,,,,,,,,,sing27,001,2019_Nov_07_1619,ProdFawcett_Revision2019,3.2.3,60.02681996376307,
4,0,4,0,,,,,,,,,,,,,,,,,925.2439896001015,None,materials/readPic.jpg,opening,A_silent,4,205,921.5709941000678,None,921.5709941000678,None,922.4924409000669,None,922.748452299973,None,922.748452299973,None,,,,,,,,,,,,,,,,,,,,,,,,,,,,,,,,,,,sing27,001,2019_Nov_07_1619,ProdFawcett_Revision2019,3.2.3,60.02681996376307,
5,0,5,0,,,,,,,,,,,,,,,,,929.5104433000088,None,materials/speakPic.jpg,close,B_aloud,5,53,925.8402811000124,None,925.8402811000124,None,926.7610287999269,None,927.0171564999036,None,927.0171564999036,None,,,,,,,,,,,,,,,,,,,,,,,,,,,,,,,,,,,sing27,001,2019_Nov_07_1619,ProdFawcett_Revision2019,3.2.3,60.02681996376307,
6,0,6,0,,,,,,,,,,,,,,,,,933.7775993999094,None,materials/readPic.jpg,reach,A_silent,6,253,930.0882121000905,None,930.0882121000905,None,931.0277660000138,None,931.2840589000843,None,931.2840589000843,None,,,,,,,,,,,,,,,,,,,,,,,,,,,,,,,,,,,sing27,001,2019_Nov_07_1619,ProdFawcett_Revision2019,3.2.3,60.02681996376307,
7,0,7,0,,,,,,,,,,,,,,,,,938.0439230999909,None,materials/readPic.jpg,graduate,A_silent,7,141,934.393835300114,None,934.393835300114,None,935.2935456000268,None,935.5552819999866,None,935.5552819999866,None,,,,,,,,,,,,,,,,,,,,,,,,,,,,,,,,,,,sing27,001,2019_Nov_07_1619,ProdFawcett_Revision2019,3.2.3,60.02681996376307,
8,0,8,0,,,,,,,,,,,,,,,,,942.311866800068,None,materials/speakPic.jpg,motion,B_aloud,8,194,938.6036936000455,None,938.6036936000455,None,939.5623854000587,None,939.818430100102,None,939.818430100102,None,,,,,,,,,,,,,,,,,,,,,,,,,,,,,,,,,,,sing27,001,2019_Nov_07_1619,ProdFawcett_Revision2019,3.2.3,60.02681996376307,
9,0,9,0,,,,,,,,,,,,,,,,,946.5783714998979,None,materials/readPic.jpg,taste,A_silent,9,322,942.8967887999024,None,942.8967887999024,None,943.8287625999656,None,944.0867077000439,None,944.0867077000439,None,,,,,,,,,,,,,,,,,,,,,,,,,,,,,,,,,,,sing27,001,2019_Nov_07_1619,ProdFawcett_Revision2019,3.2.3,60.02681996376307,
10,0,10,0,,,,,,,,,,,,,,,,,950.8454315999988,None,materials/speakPic.jpg,character,B_aloud,10,46,947.1497788000852,None,947.1497788000852,None,948.0963276999537,None,948.3587110999506,None,948.3587110999506,None,,,,,,,,,,,,,,,,,,,,,,,,,,,,,,,,,,,sing27,001,2019_Nov_07_1619,ProdFawcett_Revision2019,3.2.3,60.02681996376307,
11,0,11,0,,,,,,,,,,,,,,,,,955.1123528999742,None,materials/readPic.jpg,history,A_silent,11,153,951.4244635000359,None,951.4244635000359,None,952.3648377999198,None,952.618953499943,None,952.618953499943,None,,,,,,,,,,,,,,,,,,,,,,,,,,,,,,,,,,,sing27,001,2019_Nov_07_1619,ProdFawcett_Revision2019,3.2.3,60.02681996376307,
12,0,12,0,,,,,,,,,,,,,,,,,959.379557600012,None,materials/singPic.jpg,career,C_sing,12,42,955.6931833000854,None,955.6931833000854,None,956.6294994999189,None,956.8859562000725,None,956.8859562000725,None,,,,,,,,,,,,,,,,,,,,,,,,,,,,,,,,,,,sing27,001,2019_Nov_07_1619,ProdFawcett_Revision2019,3.2.3,60.02681996376307,
13,0,13,0,,,,,,,,,,,,,,,,,963.646648599999,None,materials/readPic.jpg,comfort,A_silent,13,59,959.9479197999462,None,959.9479197999462,None,960.9000812000595,None,961.1528731998987,None,961.1528731998987,None,,,,,,,,,,,,,,,,,,,,,,,,,,,,,,,,,,,sing27,001,2019_Nov_07_1619,ProdFawcett_Revision2019,3.2.3,60.02681996376307,
14,0,14,0,,,,,,,,,,,,,,,,,967.9140552999452,None,materials/readPic.jpg,resistance,A_silent,14,262,964.224812899949,None,964.224812899949,None,965.1634547000285,None,965.424014700111,None,965.424014700111,None,,,,,,,,,,,,,,,,,,,,,,,,,,,,,,,,,,,sing27,001,2019_Nov_07_1619,ProdFawcett_Revision2019,3.2.3,60.02681996376307,
15,0,15,0,,,,,,,,,,,,,,,,,972.1801781000104,None,materials/speakPic.jpg,degree,B_aloud,15,89,968.4845257000998,None,968.4845257000998,None,969.4307113001123,None,969.692307600053,None,969.692307600053,None,,,,,,,,,,,,,,,,,,,,,,,,,,,,,,,,,,,sing27,001,2019_Nov_07_1619,ProdFawcett_Revision2019,3.2.3,60.02681996376307,
16,0,16,0,,,,,,,,,,,,,,,,,976.4470995001029,None,materials/singPic.jpg,material,C_sing,16,182,972.7597014000639,None,972.7597014000639,None,973.6974832001142,None,973.95765700005,None,973.95765700005,None,,,,,,,,,,,,,,,,,,,,,,,,,,,,,,,,,,,sing27,001,2019_Nov_07_1619,ProdFawcett_Revision2019,3.2.3,60.02681996376307,
17,0,17,0,,,,,,,,,,,,,,,,,980.7140903999098,None,materials/singPic.jpg,light,C_sing,17,171,977.0333181999158,None,977.0333181999158,None,977.964442800032,None,978.2257888000458,None,978.2257888000458,None,,,,,,,,,,,,,,,,,,,,,,,,,,,,,,,,,,,sing27,001,2019_Nov_07_1619,ProdFawcett_Revision2019,3.2.3,60.02681996376307,
18,0,18,0,,,,,,,,,,,,,,,,,984.9809763999656,None,materials/readPic.jpg,whole,A_silent,18,355,981.3212594001088,None,981.3212594001088,None,982.231803700095,None,982.49214210012,None,982.49214210012,None,,,,,,,,,,,,,,,,,,,,,,,,,,,,,,,,,,,sing27,001,2019_Nov_07_1619,ProdFawcett_Revision2019,3.2.3,60.02681996376307,
19,0,19,0,,,,,,,,,,,,,,,,,989.2480764000211,None,materials/readPic.jpg,dance,A_silent,19,84,985.5207476001233,None,985.5207476001233,None,986.4984474000521,None,986.7584035000764,None,986.7584035000764,None,,,,,,,,,,,,,,,,,,,,,,,,,,,,,,,,,,,sing27,001,2019_Nov_07_1619,ProdFawcett_Revision2019,3.2.3,60.02681996376307,
20,0,20,0,,,,,,,,,,,,,,,,,993.5149574000388,None,materials/readPic.jpg,conference,A_silent,20,66,989.8192489000503,None,989.8192489000503,None,990.7651593000628,None,991.0228240999859,None,991.0228240999859,None,,,,,,,,,,,,,,,,,,,,,,,,,,,,,,,,,,,sing27,001,2019_Nov_07_1619,ProdFawcett_Revision2019,3.2.3,60.02681996376307,
21,0,21,0,,,,,,,,,,,,,,,,,997.7818680000491,None,materials/speakPic.jpg,foundation,B_aloud,21,132,994.0812838000711,None,994.0812838000711,None,995.032050000038,None,995.2835333000403,None,995.2835333000403,None,,,,,,,,,,,,,,,,,,,,,,,,,,,,,,,,,,,sing27,001,2019_Nov_07_1619,ProdFawcett_Revision2019,3.2.3,60.02681996376307,
22,0,22,0,,,,,,,,,,,,,,,,,1002.0489423999097,None,materials/readPic.jpg,question,A_silent,22,247,998.3580346000381,None,998.3580346000381,None,999.3001230999362,None,999.568359100027,None,999.568359100027,None,,,,,,,,,,,,,,,,,,,,,,,,,,,,,,,,,,,sing27,001,2019_Nov_07_1619,ProdFawcett_Revision2019,3.2.3,60.02681996376307,
23,0,23,0,,,,,,,,,,,,,,,,,1006.3158418000676,None,materials/singPic.jpg,group,C_sing,23,143,1002.6179933999665,None,1002.6179933999665,None,1003.566353000002,None,1003.8257158999331,None,1003.8257158999331,None,,,,,,,,,,,,,,,,,,,,,,,,,,,,,,,,,,,sing27,001,2019_Nov_07_1619,ProdFawcett_Revision2019,3.2.3,60.02681996376307,
24,0,24,0,,,,,,,,,,,,,,,,,1010.5828116999473,None,materials/readPic.jpg,symbol,A_silent,24,321,1006.8893464999273,None,1006.8893464999273,None,1007.8329157000408,None,1008.094705699943,None,1008.094705699943,None,,,,,,,,,,,,,,,,,,,,,,,,,,,,,,,,,,,sing27,001,2019_Nov_07_1619,ProdFawcett_Revision2019,3.2.3,60.02681996376307,
25,0,25,0,,,,,,,,,,,,,,,,,1014.8497361999471,None,materials/speakPic.jpg,empty,B_aloud,25,112,1011.1474768999033,None,1011.1474768999033,None,1012.1003570999019,None,1012.35679599992,None,1012.35679599992,None,,,,,,,,,,,,,,,,,,,,,,,,,,,,,,,,,,,sing27,001,2019_Nov_07_1619,ProdFawcett_Revision2019,3.2.3,60.02681996376307,
26,0,26,0,,,,,,,,,,,,,,,,,1019.1168364000041,None,materials/readPic.jpg,subject,A_silent,26,312,1015.4820387999061,None,1015.4820387999061,None,1016.3668060000055,None,1016.638131499989,None,1016.638131499989,None,,,,,,,,,,,,,,,,,,,,,,,,,,,,,,,,,,,sing27,001,2019_Nov_07_1619,ProdFawcett_Revision2019,3.2.3,60.02681996376307,
27,0,27,0,,,,,,,,,,,,,,,,,1023.3837361999322,None,materials/speakPic.jpg,threat,B_aloud,27,329,1019.6906934999861,None,1019.6906934999861,None,1020.6340193001088,None,1020.891415100079,None,1020.891415100079,None,,,,,,,,,,,,,,,,,,,,,,,,,,,,,,,,,,,sing27,001,2019_Nov_07_1619,ProdFawcett_Revision2019,3.2.3,60.02681996376307,
28,0,28,0,,,,,,,,,,,,,,,,,1027.6507916001137,None,materials/readPic.jpg,order,A_silent,28,207,1023.9609471000731,None,1023.9609471000731,None,1024.9009922000114,None,1025.157864900073,None,1025.157864900073,None,,,,,,,,,,,,,,,,,,,,,,,,,,,,,,,,,,,sing27,001,2019_Nov_07_1619,ProdFawcett_Revision2019,3.2.3,60.02681996376307,
29,0,29,0,,,,,,,,,,,,,,,,,1031.917607899988,None,materials/singPic.jpg,cross,C_sing,29,80,1028.2293817000464,None,1028.2293817000464,None,1029.166761300061,None,1029.4264156999998,None,1029.4264156999998,None,,,,,,,,,,,,,,,,,,,,,,,,,,,,,,,,,,,sing27,001,2019_Nov_07_1619,ProdFawcett_Revision2019,3.2.3,60.02681996376307,
30,0,30,0,,,,,,,,,,,,,,,,,1036.1845652000047,None,materials/readPic.jpg,distance,A_silent,30,100,1032.4997181999497,None,1032.4997181999497,None,1033.434634800069,None,1033.6916066000704,None,1033.6916066000704,None,,,,,,,,,,,,,,,,,,,,,,,,,,,,,,,,,,,sing27,001,2019_Nov_07_1619,ProdFawcett_Revision2019,3.2.3,60.02681996376307,
31,0,31,0,,,,,,,,,,,,,,,,,1040.4511776000727,None,materials/readPic.jpg,income,A_silent,31,159,1036.7900487000588,None,1036.7900487000588,None,1037.7004339001141,None,1037.958122299984,None,1037.958122299984,None,,,,,,,,,,,,,,,,,,,,,,,,,,,,,,,,,,,sing27,001,2019_Nov_07_1619,ProdFawcett_Revision2019,3.2.3,60.02681996376307,
32,0,32,0,,,,,,,,,,,,,,,,,1044.7183763999492,None,materials/singPic.jpg,little,C_sing,32,174,1041.037350000115,None,1041.037350000115,None,1041.9693257000763,None,1042.2345728999935,None,1042.2345728999935,None,,,,,,,,,,,,,,,,,,,,,,,,,,,,,,,,,,,sing27,001,2019_Nov_07_1619,ProdFawcett_Revision2019,3.2.3,60.02681996376307,
33,0,33,0,,,,,,,,,,,,,,,,,1048.9854222000577,None,materials/speakPic.jpg,breath,B_aloud,33,27,1045.2857927998994,None,1045.2857927998994,None,1046.2363875000738,None,1046.4961560000665,None,1046.4961560000665,None,,,,,,,,,,,,,,,,,,,,,,,,,,,,,,,,,,,sing27,001,2019_Nov_07_1619,ProdFawcett_Revision2019,3.2.3,60.02681996376307,
34,0,34,0,,,,,,,,,,,,,,,,,1053.2524818999227,None,materials/speakPic.jpg,dream,B_aloud,34,104,1049.551348600071,None,1049.551348600071,None,1050.50286030001,None,1050.7597318000626,None,1050.7597318000626,None,,,,,,,,,,,,,,,,,,,,,,,,,,,,,,,,,,,sing27,001,2019_Nov_07_1619,ProdFawcett_Revision2019,3.2.3,60.02681996376307,
35,0,35,0,,,,,,,,,,,,,,,,,1057.5204098001122,None,materials/speakPic.jpg,discussion,B_aloud,35,96,1053.80578480009,None,1053.80578480009,None,1054.769684100058,None,1055.0276933000423,None,1055.0276933000423,None,,,,,,,,,,,,,,,,,,,,,,,,,,,,,,,,,,,sing27,001,2019_Nov_07_1619,ProdFawcett_Revision2019,3.2.3,60.02681996376307,
36,0,36,0,,,,,,,,,,,,,,,,,1061.786551099969,None,materials/singPic.jpg,prime,C_sing,36,235,1058.108862400055,None,1058.108862400055,None,1059.0366581000853,None,1059.2930137000512,None,1059.2930137000512,None,,,,,,,,,,,,,,,,,,,,,,,,,,,,,,,,,,,sing27,001,2019_Nov_07_1619,ProdFawcett_Revision2019,3.2.3,60.02681996376307,
37,0,37,0,,,,,,,,,,,,,,,,,1066.053319199942,None,materials/singPic.jpg,thick,C_sing,37,327,1062.363585199928,None,1062.363585199928,None,1063.3035081999842,None,1063.5658768001013,None,1063.5658768001013,None,,,,,,,,,,,,,,,,,,,,,,,,,,,,,,,,,,,sing27,001,2019_Nov_07_1619,ProdFawcett_Revision2019,3.2.3,60.02681996376307,
38,0,38,0,,,,,,,,,,,,,,,,,1070.319790400099,None,materials/readPic.jpg,addition,A_silent,38,2,1066.626775499899,None,1066.626775499899,None,1067.5703443998937,None,1067.8271270999685,None,1067.8271270999685,None,,,,,,,,,,,,,,,,,,,,,,,,,,,,,,,,,,,sing27,001,2019_Nov_07_1619,ProdFawcett_Revision2019,3.2.3,60.02681996376307,
39,0,39,0,,,,,,,,,,,,,,,,,1074.5870491000824,None,materials/speakPic.jpg,block,B_aloud,39,25,1070.9152746000327,None,1070.9152746000327,None,1071.837468399899,None,1072.098437699955,None,1072.098437699955,None,,,,,,,,,,,,,,,,,,,,,,,,,,,,,,,,,,,sing27,001,2019_Nov_07_1619,ProdFawcett_Revision2019,3.2.3,60.02681996376307,
40,0,40,0,,,,,,,,,,,,,,,,,1078.8540543999989,None,materials/readPic.jpg,cover,A_silent,40,77,1075.1643300999422,None,1075.1643300999422,None,1076.1043561000843,None,1076.3661736000795,None,1076.3661736000795,None,,,,,,,,,,,,,,,,,,,,,,,,,,,,,,,,,,,sing27,001,2019_Nov_07_1619,ProdFawcett_Revision2019,3.2.3,60.02681996376307,
41,0,41,0,,,,,,,,,,,,,,,,,1083.1229395999108,None,materials/speakPic.jpg,match,B_aloud,41,181,1079.4264245000668,None,1079.4264245000668,None,1080.3711971000303,None,1080.62749730004,None,1080.62749730004,None,,,,,,,,,,,,,,,,,,,,,,,,,,,,,,,,,,,sing27,001,2019_Nov_07_1619,ProdFawcett_Revision2019,3.2.3,60.02681996376307,
42,0,42,0,,,,,,,,,,,,,,,,,1087.3879426999483,None,materials/speakPic.jpg,pancakes,B_aloud,42,210,1083.6844248999842,None,1083.6844248999842,None,1084.6387610000093,None,1084.8969463999383,None,1084.8969463999383,None,,,,,,,,,,,,,,,,,,,,,,,,,,,,,,,,,,,sing27,001,2019_Nov_07_1619,ProdFawcett_Revision2019,3.2.3,60.02681996376307,
43,0,43,0,,,,,,,,,,,,,,,,,1091.654925199924,None,materials/readPic.jpg,tough,A_silent,43,333,1087.960063799983,None,1087.960063799983,None,1088.9049335001037,None,1089.1665443999227,None,1089.1665443999227,None,,,,,,,,,,,,,,,,,,,,,,,,,,,,,,,,,,,sing27,001,2019_Nov_07_1619,ProdFawcett_Revision2019,3.2.3,60.02681996376307,
44,0,44,0,,,,,,,,,,,,,,,,,1095.9210735999513,None,materials/speakPic.jpg,tennis,B_aloud,44,323,1092.2530974999536,None,1092.2530974999536,None,1093.171049800003,None,1093.428742500022,None,1093.428742500022,None,,,,,,,,,,,,,,,,,,,,,,,,,,,,,,,,,,,sing27,001,2019_Nov_07_1619,ProdFawcett_Revision2019,3.2.3,60.02681996376307,
45,0,45,0,,,,,,,,,,,,,,,,,1100.188505700091,None,materials/singPic.jpg,place,C_sing,45,222,1096.510523899924,None,1096.510523899924,None,1097.4396331000607,None,1097.696207900066,None,1097.696207900066,None,,,,,,,,,,,,,,,,,,,,,,,,,,,,,,,,,,,sing27,001,2019_Nov_07_1619,ProdFawcett_Revision2019,3.2.3,60.02681996376307,
46,0,46,0,,,,,,,,,,,,,,,,,1104.455823800061,None,materials/singPic.jpg,appeal,C_sing,46,9,1100.7663157000206,None,1100.7663157000206,None,1101.7059220999945,None,1101.955879200017,None,1101.955879200017,None,,,,,,,,,,,,,,,,,,,,,,,,,,,,,,,,,,,sing27,001,2019_Nov_07_1619,ProdFawcett_Revision2019,3.2.3,60.02681996376307,
47,0,47,0,,,,,,,,,,,,,,,,,1108.7226980000269,None,materials/singPic.jpg,report,C_sing,47,259,1105.0226948999334,None,1105.0226948999334,None,1105.9730470001232,None,1106.2297720999923,None,1106.2297720999923,None,,,,,,,,,,,,,,,,,,,,,,,,,,,,,,,,,,,sing27,001,2019_Nov_07_1619,ProdFawcett_Revision2019,3.2.3,60.02681996376307,
48,0,48,0,,,,,,,,,,,,,,,,,1112.989805399906,None,materials/speakPic.jpg,majority,B_aloud,48,176,1109.3283740000334,None,1109.3283740000334,None,1110.243667300092,None,1110.5024749999866,None,1110.5024749999866,None,,,,,,,,,,,,,,,,,,,,,,,,,,,,,,,,,,,sing27,001,2019_Nov_07_1619,ProdFawcett_Revision2019,3.2.3,60.02681996376307,
49,0,49,0,,,,,,,,,,,,,,,,,1117.2561081999447,None,materials/readPic.jpg,region,A_silent,49,256,1113.5860804000404,None,1113.5860804000404,None,1114.5097366000991,None,1114.7694598000962,None,1114.7694598000962,None,,,,,,,,,,,,,,,,,,,,,,,,,,,,,,,,,,,sing27,001,2019_Nov_07_1619,ProdFawcett_Revision2019,3.2.3,60.02681996376307,
50,0,50,0,,,,,,,,,,,,,,,,,1121.5237384999637,None,materials/singPic.jpg,store,C_sing,50,305,1117.838278699899,None,1117.838278699899,None,1118.7742590000853,None,1119.0302693999838,None,1119.0302693999838,None,,,,,,,,,,,,,,,,,,,,,,,,,,,,,,,,,,,sing27,001,2019_Nov_07_1619,ProdFawcett_Revision2019,3.2.3,60.02681996376307,
51,0,51,0,,,,,,,,,,,,,,,,,1125.790717100026,None,materials/singPic.jpg,hunger,C_sing,51,155,1122.1198537999298,None,1122.1198537999298,None,1123.0409530999605,None,1123.3024106000084,None,1123.3024106000084,None,,,,,,,,,,,,,,,,,,,,,,,,,,,,,,,,,,,sing27,001,2019_Nov_07_1619,ProdFawcett_Revision2019,3.2.3,60.02681996376307,
52,0,52,0,,,,,,,,,,,,,,,,,1130.0567914000712,None,materials/singPic.jpg,column,C_sing,52,57,1126.4257980999537,None,1126.4257980999537,None,1127.3079502999317,None,1127.5691778999753,None,1127.5691778999753,None,,,,,,,,,,,,,,,,,,,,,,,,,,,,,,,,,,,sing27,001,2019_Nov_07_1619,ProdFawcett_Revision2019,3.2.3,60.02681996376307,
53,0,53,0,,,,,,,,,,,,,,,,,1134.3244620000478,None,materials/speakPic.jpg,bureau,B_aloud,53,37,1130.638424300123,None,1130.638424300123,None,1131.5752997000236,None,1131.8350682000164,None,1131.8350682000164,None,,,,,,,,,,,,,,,,,,,,,,,,,,,,,,,,,,,sing27,001,2019_Nov_07_1619,ProdFawcett_Revision2019,3.2.3,60.02681996376307,
54,0,54,0,,,,,,,,,,,,,,,,,1138.5914521000814,None,materials/readPic.jpg,country,A_silent,54,73,1134.9035434999969,None,1134.9035434999969,None,1135.842254600022,None,1136.1006936000194,None,1136.1006936000194,None,,,,,,,,,,,,,,,,,,,,,,,,,,,,,,,,,,,sing27,001,2019_Nov_07_1619,ProdFawcett_Revision2019,3.2.3,60.02681996376307,
55,0,55,0,,,,,,,,,,,,,,,,,1142.8589230000507,None,materials/readPic.jpg,guest,A_silent,55,146,1139.159272900084,None,1139.159272900084,None,1140.1096757000778,None,1140.3676006000023,None,1140.3676006000023,None,,,,,,,,,,,,,,,,,,,,,,,,,,,,,,,,,,,sing27,001,2019_Nov_07_1619,ProdFawcett_Revision2019,3.2.3,60.02681996376307,
56,0,56,0,,,,,,,,,,,,,,,,,1147.1253319000825,None,materials/speakPic.jpg,dispute,B_aloud,56,99,1143.424539099913,None,1143.424539099913,None,1144.375342299929,None,1144.6325069000013,None,1144.6325069000013,None,,,,,,,,,,,,,,,,,,,,,,,,,,,,,,,,,,,sing27,001,2019_Nov_07_1619,ProdFawcett_Revision2019,3.2.3,60.02681996376307,
57,0,57,0,,,,,,,,,,,,,,,,,1151.3922480999026,None,materials/speakPic.jpg,property,B_aloud,57,242,1147.6992927000392,None,1147.6992927000392,None,1148.6429403999355,None,1148.9007727000862,None,1148.9007727000862,None,,,,,,,,,,,,,,,,,,,,,,,,,,,,,,,,,,,sing27,001,2019_Nov_07_1619,ProdFawcett_Revision2019,3.2.3,60.02681996376307,
58,0,58,0,,,,,,,,,,,,,,,,,1155.6593573999126,None,materials/speakPic.jpg,scale,B_aloud,58,272,1151.9630533000454,None,1151.9630533000454,None,1152.9084296000656,None,1153.1660815000068,None,1153.1660815000068,None,,,,,,,,,,,,,,,,,,,,,,,,,,,,,,,,,,,sing27,001,2019_Nov_07_1619,ProdFawcett_Revision2019,3.2.3,60.02681996376307,
59,0,59,0,,,,,,,,,,,,,,,,,1159.9249259000644,None,materials/singPic.jpg,enemy,C_sing,59,113,1156.2693773999345,None,1156.2693773999345,None,1157.1766079999506,None,1157.4332226999104,None,1157.4332226999104,None,,,,,,,,,,,,,,,,,,,,,,,,,,,,,,,,,,,sing27,001,2019_Nov_07_1619,ProdFawcett_Revision2019,3.2.3,60.02681996376307,
60,0,60,0,,,,,,,,,,,,,,,,,1164.1931437000167,None,materials/singPic.jpg,carry,C_sing,60,43,1160.501977399923,None,1160.501977399923,None,1161.4421057999134,None,1161.7030126000755,None,1161.7030126000755,None,,,,,,,,,,,,,,,,,,,,,,,,,,,,,,,,,,,sing27,001,2019_Nov_07_1619,ProdFawcett_Revision2019,3.2.3,60.02681996376307,
61,0,61,0,,,,,,,,,,,,,,,,,1168.4601827000733,None,materials/singPic.jpg,straight,C_sing,61,307,1164.7841002000496,None,1164.7841002000496,None,1165.7101342999376,None,1165.9727892000228,None,1165.9727892000228,None,,,,,,,,,,,,,,,,,,,,,,,,,,,,,,,,,,,sing27,001,2019_Nov_07_1619,ProdFawcett_Revision2019,3.2.3,60.02681996376307,
62,0,62,0,,,,,,,,,,,,,,,,,1172.7271108999848,None,materials/singPic.jpg,permit,C_sing,62,218,1169.042689200025,None,1169.042689200025,None,1169.9778847999405,None,1170.2335872999392,None,1170.2335872999392,None,,,,,,,,,,,,,,,,,,,,,,,,,,,,,,,,,,,sing27,001,2019_Nov_07_1619,ProdFawcett_Revision2019,3.2.3,60.02681996376307,
63,0,63,0,,,,,,,,,,,,,,,,,1176.9940482999664,None,materials/speakPic.jpg,surface,B_aloud,63,316,1173.3014992999379,None,1173.3014992999379,None,1174.2445114001166,None,1174.5091355999466,None,1174.5091355999466,None,,,,,,,,,,,,,,,,,,,,,,,,,,,,,,,,,,,sing27,001,2019_Nov_07_1619,ProdFawcett_Revision2019,3.2.3,60.02681996376307,
64,0,64,0,,,,,,,,,,,,,,,,,1181.2609381000511,None,materials/readPic.jpg,beauty,A_silent,64,18,1177.5859767000657,None,1177.5859767000657,None,1178.5116073999088,None,1178.7717999999877,None,1178.7717999999877,None,,,,,,,,,,,,,,,,,,,,,,,,,,,,,,,,,,,sing27,001,2019_Nov_07_1619,ProdFawcett_Revision2019,3.2.3,60.02681996376307,
65,0,65,0,,,,,,,,,,,,,,,,,1185.5279184998944,None,materials/singPic.jpg,trail,C_sing,65,336,1181.8512273000088,None,1181.8512273000088,None,1182.7767952000722,None,1183.0346160999034,None,1183.0346160999034,None,,,,,,,,,,,,,,,,,,,,,,,,,,,,,,,,,,,sing27,001,2019_Nov_07_1619,ProdFawcett_Revision2019,3.2.3,60.02681996376307,
66,0,66,0,,,,,,,,,,,,,,,,,1189.7933954999316,None,materials/speakPic.jpg,session,B_aloud,66,281,1186.0807147999294,None,1186.0807147999294,None,1187.045619700104,None,1187.301988299936,None,1187.301988299936,None,,,,,,,,,,,,,,,,,,,,,,,,,,,,,,,,,,,sing27,001,2019_Nov_07_1619,ProdFawcett_Revision2019,3.2.3,60.02681996376307,
67,0,67,0,,,,,,,,,,,,,,,,,1194.0618505000602,None,materials/speakPic.jpg,series,B_aloud,67,279,1190.3783050000202,None,1190.3783050000202,None,1191.3122203999665,None,1191.5683186999522,None,1191.5683186999522,None,,,,,,,,,,,,,,,,,,,,,,,,,,,,,,,,,,,sing27,001,2019_Nov_07_1619,ProdFawcett_Revision2019,3.2.3,60.02681996376307,
68,0,68,0,,,,,,,,,,,,,,,,,1198.3288102999795,None,materials/readPic.jpg,route,A_silent,68,267,1194.6333433000837,None,1194.6333433000837,None,1195.5800280999392,None,1195.8379490000661,None,1195.8379490000661,None,,,,,,,,,,,,,,,,,,,,,,,,,,,,,,,,,,,sing27,001,2019_Nov_07_1619,ProdFawcett_Revision2019,3.2.3,60.02681996376307,
69,0,69,0,,,,,,,,,,,,,,,,,1202.59582399996,None,materials/speakPic.jpg,title,B_aloud,69,331,1198.9400561999064,None,1198.9400561999064,None,1199.845886599971,None,1200.1023248001002,None,1200.1023248001002,None,,,,,,,,,,,,,,,,,,,,,,,,,,,,,,,,,,,sing27,001,2019_Nov_07_1619,ProdFawcett_Revision2019,3.2.3,60.02681996376307,
70,0,70,0,,,,,,,,,,,,,,,,,1206.8619633000344,None,materials/readPic.jpg,orchestra,A_silent,70,206,1203.1740202999208,None,1203.1740202999208,None,1204.111906300066,None,1204.370722200023,None,1204.370722200023,None,,,,,,,,,,,,,,,,,,,,,,,,,,,,,,,,,,,sing27,001,2019_Nov_07_1619,ProdFawcett_Revision2019,3.2.3,60.02681996376307,
71,0,71,0,,,,,,,,,,,,,,,,,1211.129994200077,None,materials/singPic.jpg,minute,C_sing,71,192,1207.447079299949,None,1207.447079299949,None,1208.3804309999105,None,1208.6366530000232,None,1208.6366530000232,None,,,,,,,,,,,,,,,,,,,,,,,,,,,,,,,,,,,sing27,001,2019_Nov_07_1619,ProdFawcett_Revision2019,3.2.3,60.02681996376307,
72,0,72,0,,,,,,,,,,,,,,,,,1215.396667700028,None,materials/readPic.jpg,oxygen,A_silent,72,209,1211.7010083000641,None,1211.7010083000641,None,1212.646812299965,None,1212.9005275999662,None,1212.9005275999662,None,,,,,,,,,,,,,,,,,,,,,,,,,,,,,,,,,,,sing27,001,2019_Nov_07_1619,ProdFawcett_Revision2019,3.2.3,60.02681996376307,
73,0,73,0,,,,,,,,,,,,,,,,,1219.662737699924,None,materials/readPic.jpg,comedy,A_silent,73,58,1215.9718875999097,None,1215.9718875999097,None,1216.9136628000997,None,1217.170500899898,None,1217.170500899898,None,,,,,,,,,,,,,,,,,,,,,,,,,,,,,,,,,,,sing27,001,2019_Nov_07_1619,ProdFawcett_Revision2019,3.2.3,60.02681996376307,
74,0,74,0,,,,,,,,,,,,,,,,,1223.9307176999282,None,materials/singPic.jpg,direction,C_sing,74,94,1220.276982899988,None,1220.276982899988,None,1221.1807526000775,None,1221.4380087000318,None,1221.4380087000318,None,,,,,,,,,,,,,,,,,,,,,,,,,,,,,,,,,,,sing27,001,2019_Nov_07_1619,ProdFawcett_Revision2019,3.2.3,60.02681996376307,
75,0,75,0,,,,,,,,,,,,,,,,,1228.196484300075,None,materials/singPic.jpg,population,C_sing,75,227,1224.5525633001234,None,1224.5525633001234,None,1225.4475726000965,None,1225.7162371999584,None,1225.7162371999584,None,,,,,,,,,,,,,,,,,,,,,,,,,,,,,,,,,,,sing27,001,2019_Nov_07_1619,ProdFawcett_Revision2019,3.2.3,60.02681996376307,
76,0,76,0,,,,,,,,,,,,,,,,,1232.4645070999395,None,materials/singPic.jpg,personnel,C_sing,76,219,1228.7835540000815,None,1228.7835540000815,None,1229.7148853000253,None,1229.9728963999078,None,1229.9728963999078,None,,,,,,,,,,,,,,,,,,,,,,,,,,,,,,,,,,,sing27,001,2019_Nov_07_1619,ProdFawcett_Revision2019,3.2.3,60.02681996376307,
77,0,77,0,,,,,,,,,,,,,,,,,1236.73133650003,None,materials/singPic.jpg,military,C_sing,77,190,1233.0396571001038,None,1233.0396571001038,None,1233.9816910000518,None,1234.2334257001057,None,1234.2334257001057,None,,,,,,,,,,,,,,,,,,,,,,,,,,,,,,,,,,,sing27,001,2019_Nov_07_1619,ProdFawcett_Revision2019,3.2.3,60.02681996376307,
78,0,78,0,,,,,,,,,,,,,,,,,1240.998748099897,None,materials/singPic.jpg,range,C_sing,78,251,1237.3604192000348,None,1237.3604192000348,None,1238.2493553000968,None,1238.5095520000905,None,1238.5095520000905,None,,,,,,,,,,,,,,,,,,,,,,,,,,,,,,,,,,,sing27,001,2019_Nov_07_1619,ProdFawcett_Revision2019,3.2.3,60.02681996376307,
79,0,79,0,,,,,,,,,,,,,,,,,1245.2652350999415,None,materials/speakPic.jpg,crime,B_aloud,79,78,1241.571942599956,None,1241.571942599956,None,1242.5160713000223,None,1242.7721434000414,None,1242.7721434000414,None,,,,,,,,,,,,,,,,,,,,,,,,,,,,,,,,,,,sing27,001,2019_Nov_07_1619,ProdFawcett_Revision2019,3.2.3,60.02681996376307,
80,0,80,0,,,,,,,,,,,,,,,,,1249.5315525000915,None,materials/readPic.jpg,curve,A_silent,80,82,1245.84794040001,None,1245.84794040001,None,1246.783304200042,None,1247.0471747999545,None,1247.0471747999545,None,,,,,,,,,,,,,,,,,,,,,,,,,,,,,,,,,,,sing27,001,2019_Nov_07_1619,ProdFawcett_Revision2019,3.2.3,60.02681996376307,
81,0,81,0,,,,,,,,,,,,,,,,,1253.7991897000466,None,materials/speakPic.jpg,under,B_aloud,81,343,1250.0703891001176,None,1250.0703891001176,None,1251.051185999997,None,1251.3056296999566,None,1251.3056296999566,None,,,,,,,,,,,,,,,,,,,,,,,,,,,,,,,,,,,sing27,001,2019_Nov_07_1619,ProdFawcett_Revision2019,3.2.3,60.02681996376307,
82,0,82,0,,,,,,,,,,,,,,,,,1258.0661146999337,None,materials/singPic.jpg,center,C_sing,82,44,1254.3969056999777,None,1254.3969056999777,None,1255.31643659994,None,1255.5782276000828,None,1255.5782276000828,None,,,,,,,,,,,,,,,,,,,,,,,,,,,,,,,,,,,sing27,001,2019_Nov_07_1619,ProdFawcett_Revision2019,3.2.3,60.02681996376307,
83,0,83,0,,,,,,,,,,,,,,,,,1262.3331053999718,None,materials/speakPic.jpg,edition,B_aloud,83,107,1258.6389490000438,None,1258.6389490000438,None,1259.5833451000508,None,1259.8402619999833,None,1259.8402619999833,None,,,,,,,,,,,,,,,,,,,,,,,,,,,,,,,,,,,sing27,001,2019_Nov_07_1619,ProdFawcett_Revision2019,3.2.3,60.02681996376307,
84,0,84,0,,,,,,,,,,,,,,,,,1266.5993514000438,None,materials/singPic.jpg,budget,C_sing,84,34,1262.9162262999453,None,1262.9162262999453,None,1263.8495936000254,None,1264.1129463999532,None,1264.1129463999532,None,,,,,,,,,,,,,,,,,,,,,,,,,,,,,,,,,,,sing27,001,2019_Nov_07_1619,ProdFawcett_Revision2019,3.2.3,60.02681996376307,
85,0,85,0,,,,,,,,,,,,,,,,,1270.8671162000392,None,materials/singPic.jpg,afternoon,C_sing,85,3,1267.1748432000168,None,1267.1748432000168,None,1268.1181061000098,None,1268.3748449000996,None,1268.3748449000996,None,,,,,,,,,,,,,,,,,,,,,,,,,,,,,,,,,,,sing27,001,2019_Nov_07_1619,ProdFawcett_Revision2019,3.2.3,60.02681996376307,
86,0,86,0,,,,,,,,,,,,,,,,,1275.1338955000974,None,materials/speakPic.jpg,running,B_aloud,86,268,1271.4293009999674,None,1271.4293009999674,None,1272.384859800106,None,1272.6458203999791,None,1272.6458203999791,None,,,,,,,,,,,,,,,,,,,,,,,,,,,,,,,,,,,sing27,001,2019_Nov_07_1619,ProdFawcett_Revision2019,3.2.3,60.02681996376307,
87,0,87,0,,,,,,,,,,,,,,,,,1279.4009905001149,None,materials/readPic.jpg,brief,A_silent,87,28,1275.7152829999104,None,1275.7152829999104,None,1276.6513348999433,None,1276.9127706999425,None,1276.9127706999425,None,,,,,,,,,,,,,,,,,,,,,,,,,,,,,,,,,,,sing27,001,2019_Nov_07_1619,ProdFawcett_Revision2019,3.2.3,60.02681996376307,
88,0,88,0,,,,,,,,,,,,,,,,,1283.6678869999014,None,materials/singPic.jpg,impact,C_sing,88,157,1279.9557916000485,None,1279.9557916000485,None,1280.9184942999855,None,1281.1748542001005,None,1281.1748542001005,None,,,,,,,,,,,,,,,,,,,,,,,,,,,,,,,,,,,sing27,001,2019_Nov_07_1619,ProdFawcett_Revision2019,3.2.3,60.02681996376307,
89,0,89,0,,,,,,,,,,,,,,,,,1287.9352881000377,None,materials/singPic.jpg,weight,C_sing,89,353,1284.2903720999602,None,1284.2903720999602,None,1285.1850072001107,None,1285.4378816001117,None,1285.4378816001117,None,,,,,,,,,,,,,,,,,,,,,,,,,,,,,,,,,,,sing27,001,2019_Nov_07_1619,ProdFawcett_Revision2019,3.2.3,60.02681996376307,
,,,,,,,,,,,,,,,,,,,,,,,,,,,,,,,,,,,,,1288.434865700081,None,k,44.467802099883556,1288.434865700081,None,,,,,,,,,,,,,,,,,,,,,,,,,,,,,sing27,001,2019_Nov_07_1619,ProdFawcett_Revision2019,3.2.3,60.02681996376307,
,,,,,,,,,,,,,,1332.9212605999783,None,space,0.9252126000355929,1332.9212605999783,None,,,,,,,,,,,,,,,,,,,,,,,,,,,,,,,,,,,,,,,,,,,,,,,,,,,,sing27,001,2019_Nov_07_1619,ProdFawcett_Revision2019,3.2.3,60.02681996376307,
,,,,0,0,0,0,,,,,,,,,,,,,1342.3733520999085,None,,,,,,,,,,,,,,,,,,,,,,opening,A_silent,0,205,1334.3969266999047,None,1334.3969266999047,None,1334.3969266999047,None,1,3.4092061000410467,1334.3969266999047,None,1337.8436426999979,None,1337.8436426999979,None,1338.3707665998954,None,1338.3707665998954,None,1338.3707665998954,None,f,3.9556226001586765,1338.3707665998954,None,sing27,001,2019_Nov_07_1619,ProdFawcett_Revision2019,3.2.3,60.02681996376307,
,,,,1,0,1,0,,,,,,,,,,,,,1349.6781021999195,None,,,,,,,,,,,,,,,,,,,,,,territory,D_new,1,324,1342.9031505000312,None,1342.9031505000312,None,1342.9031505000312,None,1,2.711208400083706,1342.9031505000312,None,1345.6627907999791,None,1345.6627907999791,None,1346.186019900022,None,1346.186019900022,None,1346.186019900022,None,n,3.4681727001443505,1346.186019900022,None,sing27,001,2019_Nov_07_1619,ProdFawcett_Revision2019,3.2.3,60.02681996376307,
,,,,2,0,2,0,,,,,,,,,,,,,1357.5697930001188,None,,,,,,,,,,,,,,,,,,,,,,position,D_new,2,229,1350.1980787001085,None,1350.1980787001085,None,1350.1980787001085,None,3,4.608472800115123,1350.1980787001085,None,1354.8438254001085,None,1354.8438254001085,None,1355.3727102000266,None,1355.3727102000266,None,1355.3727102000266,None,f,2.1618878999724984,1355.3727102000266,None,sing27,001,2019_Nov_07_1619,ProdFawcett_Revision2019,3.2.3,60.02681996376307,
,,,,3,0,3,0,,,,,,,,,,,,,1364.5477706000675,None,,,,,,,,,,,,,,,,,,,,,,still,D_new,3,304,1358.0890834999736,None,1358.0890834999736,None,1358.0890834999736,None,1,3.565548999933526,1358.0890834999736,None,1361.6931811000686,None,1361.6931811000686,None,1362.2224548000377,None,1362.2224548000377,None,1362.2224548000377,None,n,2.295757200103253,1362.2224548000377,None,sing27,001,2019_Nov_07_1619,ProdFawcett_Revision2019,3.2.3,60.02681996376307,
,,,,4,0,4,0,,,,,,,,,,,,,1371.4291592000518,None,,,,,,,,,,,,,,,,,,,,,,cross,C_sing,4,80,1365.0696080999915,None,1365.0696080999915,None,1365.0696080999915,None,6,3.344733600039035,1365.0696080999915,None,1368.4704895000905,None,1368.4704895000905,None,1368.986804800108,None,1368.986804800108,None,1368.986804800108,None,r,2.4114771001040936,1368.986804800108,None,sing27,001,2019_Nov_07_1619,ProdFawcett_Revision2019,3.2.3,60.02681996376307,
,,,,5,0,5,0,,,,,,,,,,,,,1375.6402585001197,None,,,,,,,,,,,,,,,,,,,,,,atmosphere,D_new,5,12,1371.9584423999768,None,1371.9584423999768,None,1371.9584423999768,None,1,2.192019399954006,1371.9584423999768,None,1374.2119255999569,None,1374.2119255999569,None,1374.7496009999886,None,1374.7496009999886,None,1374.7496009999886,None,n,0.8487331001088023,1374.7496009999886,None,sing27,001,2019_Nov_07_1619,ProdFawcett_Revision2019,3.2.3,60.02681996376307,
,,,,6,0,6,0,,,,,,,,,,,,,1378.9239936000668,None,,,,,,,,,,,,,,,,,,,,,,month,D_new,6,193,1376.1588566000573,None,1376.1588566000573,None,1376.1588566000573,None,1,1.487443899968639,1376.1588566000573,None,1377.695156800095,None,1377.695156800095,None,1378.2218947999645,None,1378.2218947999645,None,1378.2218947999645,None,n,0.6564748000819236,1378.2218947999645,None,sing27,001,2019_Nov_07_1619,ProdFawcett_Revision2019,3.2.3,60.02681996376307,
,,,,7,0,7,0,,,,,,,,,,,,,1384.0681006000377,None,,,,,,,,,,,,,,,,,,,,,,breath,B_aloud,7,27,1379.4446350999642,None,1379.4446350999642,None,1379.4446350999642,None,3,2.801804600050673,1379.4446350999642,None,1382.299597500125,None,1382.299597500125,None,1382.8250520001166,None,1382.8250520001166,None,1382.8250520001166,None,f,1.2054644001182169,1382.8250520001166,None,sing27,001,2019_Nov_07_1619,ProdFawcett_Revision2019,3.2.3,60.02681996376307,
,,,,8,0,8,0,,,,,,,,,,,,,1388.7711354999337,None,,,,,,,,,,,,,,,,,,,,,,society,D_new,8,293,1384.5929225001018,None,1384.5929225001018,None,1384.5929225001018,None,3,3.1734497998841107,1384.5929225001018,None,1387.8180537999142,None,1387.8180537999142,None,1388.3449317999184,None,1388.3449317999184,None,1388.3449317999184,None,f,0.397502199979499,1388.3449317999184,None,sing27,001,2019_Nov_07_1619,ProdFawcett_Revision2019,3.2.3,60.02681996376307,
,,,,9,0,9,0,,,,,,,,,,,,,1396.2069512000307,None,,,,,,,,,,,,,,,,,,,,,,reach,A_silent,9,253,1389.2913671999704,None,1389.2913671999704,None,1389.2913671999704,None,6,3.426922000013292,1389.2913671999704,None,1392.7539470000193,None,1392.7539470000193,None,1393.262881200062,None,1393.262881200062,None,1393.262881200062,None,r,2.9034147998318076,1393.262881200062,None,sing27,001,2019_Nov_07_1619,ProdFawcett_Revision2019,3.2.3,60.02681996376307,
,,,,10,0,10,0,,,,,,,,,,,,,1399.544467000058,None,,,,,,,,,,,,,,,,,,,,,,appeal,C_sing,10,9,1396.7251832999755,None,1396.7251832999755,None,1396.7251832999755,None,6,1.6493313999380916,1396.7251832999755,None,1398.4201134999748,None,1398.4201134999748,None,1398.9376847001258,None,1398.9376847001258,None,1398.9376847001258,None,r,0.5566259999759495,1398.9376847001258,None,sing27,001,2019_Nov_07_1619,ProdFawcett_Revision2019,3.2.3,60.02681996376307,
,,,,11,0,11,0,,,,,,,,,,,,,1405.326755899936,None,,,,,,,,,,,,,,,,,,,,,,brilliant,D_new,11,30,1400.0628867999185,None,1400.0628867999185,None,1400.0628867999185,None,1,2.095473299967125,1400.0628867999185,None,1402.20960130007,None,1402.20960130007,None,1402.7225560001098,None,1402.7225560001098,None,1402.7225560001098,None,n,2.563690699869767,1402.7225560001098,None,sing27,001,2019_Nov_07_1619,ProdFawcett_Revision2019,3.2.3,60.02681996376307,
,,,,12,0,12,0,,,,,,,,,,,,,1411.2079501000699,None,,,,,,,,,,,,,,,,,,,,,,commercial,D_new,12,61,1405.8433785000816,None,1405.8433785000816,None,1405.8433785000816,None,1,2.418997700093314,1405.8433785000816,None,1408.3208512000274,None,1408.3208512000274,None,1408.838904300006,None,1408.838904300006,None,1408.838904300006,None,n,2.335858500096947,1408.838904300006,None,sing27,001,2019_Nov_07_1619,ProdFawcett_Revision2019,3.2.3,60.02681996376307,
,,,,13,0,13,0,,,,,,,,,,,,,1416.1195106999949,None,,,,,,,,,,,,,,,,,,,,,,impact,C_sing,13,157,1411.727233499987,None,1411.727233499987,None,1411.727233499987,None,6,2.8793405999895185,1411.727233499987,None,1414.6537067000754,None,1414.6537067000754,None,1415.1644470999017,None,1415.1644470999017,None,1415.1644470999017,None,r,0.9221067999023944,1415.1644470999017,None,sing27,001,2019_Nov_07_1619,ProdFawcett_Revision2019,3.2.3,60.02681996376307,
,,,,14,0,14,0,,,,,,,,,,,,,1422.7853151001036,None,,,,,,,,,,,,,,,,,,,,,,service,D_new,14,280,1416.65146990004,None,1416.65146990004,None,1416.65146990004,None,6,2.210925200022757,1416.65146990004,None,1418.8988342999946,None,1418.8988342999946,None,1419.4273787001148,None,1419.4273787001148,None,1419.4273787001148,None,r,3.3309867999050766,1419.4273787001148,None,sing27,001,2019_Nov_07_1619,ProdFawcett_Revision2019,3.2.3,60.02681996376307,
,,,,15,0,15,0,,,,,,,,,,,,,1427.0270151000004,None,,,,,,,,,,,,,,,,,,,,,,majority,B_aloud,15,176,1423.307630999945,None,1423.307630999945,None,1423.307630999945,None,6,2.394914299948141,1423.307630999945,None,1425.7474100999534,None,1425.7474100999534,None,1426.2795281000435,None,1426.2795281000435,None,1426.2795281000435,None,r,0.7027930000331253,1426.2795281000435,None,sing27,001,2019_Nov_07_1619,ProdFawcett_Revision2019,3.2.3,60.02681996376307,
,,,,16,0,16,0,,,,,,,,,,,,,1430.4314395999536,None,,,,,,,,,,,,,,,,,,,,,,literature,D_new,16,173,1427.5461275000125,None,1427.5461275000125,None,1427.5461275000125,None,6,2.1318576999474317,1427.5461275000125,None,1429.731654400006,None,1429.731654400006,None,1430.2574811000377,None,1430.2574811000377,None,1430.2574811000377,None,r,0.14072759984992445,1430.2574811000377,None,sing27,001,2019_Nov_07_1619,ProdFawcett_Revision2019,3.2.3,60.02681996376307,
,,,,17,0,17,0,,,,,,,,,,,,,1434.1591942000668,None,,,,,,,,,,,,,,,,,,,,,,oxygen,A_silent,17,209,1430.9502679000143,None,1430.9502679000143,None,1430.9502679000143,None,6,1.3681578000541776,1430.9502679000143,None,1432.363243300002,None,1432.363243300002,None,1432.8953265999444,None,1432.8953265999444,None,1432.8953265999444,None,r,1.2231078001204878,1432.8953265999444,None,sing27,001,2019_Nov_07_1619,ProdFawcett_Revision2019,3.2.3,60.02681996376307,
,,,,18,0,18,0,,,,,,,,,,,,,1436.844709099969,None,,,,,,,,,,,,,,,,,,,,,,weather,B_aloud,18,352,1434.6815464999527,None,1434.6815464999527,None,1434.6815464999527,None,6,1.420788299990818,1434.6815464999527,None,1436.1608470000792,None,1436.1608470000792,None,1436.6796325000469,None,1436.6796325000469,None,1436.6796325000469,None,r,0.12687739985994995,1436.6796325000469,None,sing27,001,2019_Nov_07_1619,ProdFawcett_Revision2019,3.2.3,60.02681996376307,
,,,,19,0,19,0,,,,,,,,,,,,,1442.4436751001049,None,,,,,,,,,,,,,,,,,,,,,,problem,D_new,19,238,1437.3652081999462,None,1437.3652081999462,None,1437.3652081999462,None,1,1.6416096999309957,1437.3652081999462,None,1439.0541127999313,None,1439.0541127999313,None,1439.5796026999597,None,1439.5796026999597,None,1439.5796026999597,None,f,2.8188028999138623,1439.5796026999597,None,sing27,001,2019_Nov_07_1619,ProdFawcett_Revision2019,3.2.3,60.02681996376307,
,,,,20,0,20,0,,,,,,,,,,,,,1447.093717199983,None,,,,,,,,,,,,,,,,,,,,,,staff,D_new,20,301,1442.9629772999324,None,1442.9629772999324,None,1442.9629772999324,None,1,2.4754385000560433,1442.9629772999324,None,1445.4892597999424,None,1445.4892597999424,None,1446.0075119000394,None,1446.0075119000394,None,1446.0075119000394,None,n,1.0548886000178754,1446.0075119000394,None,sing27,001,2019_Nov_07_1619,ProdFawcett_Revision2019,3.2.3,60.02681996376307,
,,,,21,0,21,0,,,,,,,,,,,,,1453.6691173000727,None,,,,,,,,,,,,,,,,,,,,,,block,B_aloud,21,25,1447.6152077000588,None,1447.6152077000588,None,1447.6152077000588,None,3,5.32742640003562,1447.6152077000588,None,1452.9769743001089,None,1452.9769743001089,None,1453.4952475999016,None,1453.4952475999016,None,1453.4952475999016,None,f,0.15090519981458783,1453.4952475999016,None,sing27,001,2019_Nov_07_1619,ProdFawcett_Revision2019,3.2.3,60.02681996376307,
,,,,22,0,22,0,,,,,,,,,,,,,1457.2407062998973,None,,,,,,,,,,,,,,,,,,,,,,cover,A_silent,22,77,1454.1968626000453,None,1454.1968626000453,None,1454.1968626000453,None,3,1.9374287000391632,1454.1968626000453,None,1456.178354700096,None,1456.178354700096,None,1456.6939298000652,None,1456.6939298000652,None,1456.6939298000652,None,f,0.5042842999100685,1456.6939298000652,None,sing27,001,2019_Nov_07_1619,ProdFawcett_Revision2019,3.2.3,60.02681996376307,
,,,,23,0,23,0,,,,,,,,,,,,,1461.2018822000828,None,,,,,,,,,,,,,,,,,,,,,,graduate,A_silent,23,141,1457.7667288999073,None,1457.7667288999073,None,1457.7667288999073,None,6,2.0397825001273304,1457.7667288999073,None,1459.8402283999603,None,1459.8402283999603,None,1460.3586007000413,None,1460.3586007000413,None,1460.3586007000413,None,r,0.8155753999017179,1460.3586007000413,None,sing27,001,2019_Nov_07_1619,ProdFawcett_Revision2019,3.2.3,60.02681996376307,
,,,,24,0,24,0,,,,,,,,,,,,,1464.766532199923,None,,,,,,,,,,,,,,,,,,,,,,guest,A_silent,24,146,1461.7294175000861,None,1461.7294175000861,None,1461.7294175000861,None,6,2.068876799894497,1461.7294175000861,None,1463.8368565998971,None,1463.8368565998971,None,1464.3623975999653,None,1464.3623975999653,None,1464.3623975999653,None,r,0.3559439000673592,1464.3623975999653,None,sing27,001,2019_Nov_07_1619,ProdFawcett_Revision2019,3.2.3,60.02681996376307,
,,,,25,0,25,0,,,,,,,,,,,,,1469.5714777999092,None,,,,,,,,,,,,,,,,,,,,,,route,A_silent,25,267,1465.2966318998951,None,1465.2966318998951,None,1465.2966318998951,None,6,3.3580385998357087,1465.2966318998951,None,1468.694116299972,None,1468.694116299972,None,1469.2103003999218,None,1469.2103003999218,None,1469.2103003999218,None,r,0.3318914999254048,1469.2103003999218,None,sing27,001,2019_Nov_07_1619,ProdFawcett_Revision2019,3.2.3,60.02681996376307,
,,,,26,0,26,0,,,,,,,,,,,,,1472.8731146999635,None,,,,,,,,,,,,,,,,,,,,,,quick,D_new,26,248,1470.1005738000385,None,1470.1005738000385,None,1470.1005738000385,None,1,1.5059110999573022,1470.1005738000385,None,1471.65813970007,None,1471.65813970007,None,1472.179737099912,None,1472.179737099912,None,1472.179737099912,None,n,0.6586253000423312,1472.179737099912,None,sing27,001,2019_Nov_07_1619,ProdFawcett_Revision2019,3.2.3,60.02681996376307,
,,,,27,0,27,0,,,,,,,,,,,,,1476.6099914999213,None,,,,,,,,,,,,,,,,,,,,,,bitter,B_aloud,27,23,1473.3974450000096,None,1473.3974450000096,None,1473.3974450000096,None,6,1.720984899904579,1473.3974450000096,None,1475.1723064999096,None,1475.1723064999096,None,1475.6909177999478,None,1475.6909177999478,None,1475.6909177999478,None,r,0.8838142999447882,1475.6909177999478,None,sing27,001,2019_Nov_07_1619,ProdFawcett_Revision2019,3.2.3,60.02681996376307,
,,,,28,0,28,0,,,,,,,,,,,,,1479.2051234999672,None,,,,,,,,,,,,,,,,,,,,,,general,D_new,28,135,1477.1344838999212,None,1477.1344838999212,None,1477.1344838999212,None,6,1.3757636998780072,1477.1344838999212,None,1478.5554547999054,None,1478.5554547999054,None,1479.0814002999105,None,1479.0814002999105,None,1479.0814002999105,None,r,0.09287500008940697,1479.0814002999105,None,sing27,001,2019_Nov_07_1619,ProdFawcett_Revision2019,3.2.3,60.02681996376307,
,,,,29,0,29,0,,,,,,,,,,,,,1482.6804166000802,None,,,,,,,,,,,,,,,,,,,,,,universal,D_new,29,345,1479.731577700004,None,1479.731577700004,None,1479.731577700004,None,6,1.2274422000627965,1479.731577700004,None,1481.014265799895,None,1481.014265799895,None,1481.5350107999984,None,1481.5350107999984,None,1481.5350107999984,None,r,1.111682599876076,1481.5350107999984,None,sing27,001,2019_Nov_07_1619,ProdFawcett_Revision2019,3.2.3,60.02681996376307,
,,,,30,0,30,0,,,,,,,,,,,,,1485.4988545000087,None,,,,,,,,,,,,,,,,,,,,,,account,D_new,30,1,1483.1985297999345,None,1483.1985297999345,None,1483.1985297999345,None,1,1.367708400124684,1483.1985297999345,None,1484.61626229994,None,1484.61626229994,None,1485.1429453000892,None,1485.1429453000892,None,1485.1429453000892,None,n,0.3113681999966502,1485.1429453000892,None,sing27,001,2019_Nov_07_1619,ProdFawcett_Revision2019,3.2.3,60.02681996376307,
,,,,31,0,31,0,,,,,,,,,,,,,1492.639781099977,None,,,,,,,,,,,,,,,,,,,,,,afternoon,C_sing,31,3,1486.019777199952,None,1486.019777199952,None,1486.019777199952,None,1,3.994379400042817,1486.019777199952,None,1490.0388917000964,None,1490.0388917000964,None,1490.5634971000254,None,1490.5634971000254,None,1490.5634971000254,None,n,2.0428288001567125,1490.5634971000254,None,sing27,001,2019_Nov_07_1619,ProdFawcett_Revision2019,3.2.3,60.02681996376307,
,,,,32,0,32,0,,,,,,,,,,,,,1496.2243707999587,None,,,,,,,,,,,,,,,,,,,,,,pattern,D_new,32,214,1493.1649017001037,None,1493.1649017001037,None,1493.1649017001037,None,6,1.513414799934253,1493.1649017001037,None,1494.718797300011,None,1494.718797300011,None,1495.245547000086,None,1495.245547000086,None,1495.245547000086,None,r,0.928917899960652,1495.245547000086,None,sing27,001,2019_Nov_07_1619,ProdFawcett_Revision2019,3.2.3,60.02681996376307,
,,,,33,0,33,0,,,,,,,,,,,,,1499.6984240000602,None,,,,,,,,,,,,,,,,,,,,,,country,A_silent,33,73,1496.7535860999487,None,1496.7535860999487,None,1496.7535860999487,None,6,1.8051113998517394,1496.7535860999487,None,1498.5979778999463,None,1498.5979778999463,None,1499.1120194001123,None,1499.1120194001123,None,1499.1120194001123,None,r,0.5504862000234425,1499.1120194001123,None,sing27,001,2019_Nov_07_1619,ProdFawcett_Revision2019,3.2.3,60.02681996376307,
,,,,34,0,34,0,,,,,,,,,,,,,1502.6530838001054,None,,,,,,,,,,,,,,,,,,,,,,platform,D_new,34,224,1500.216425599996,None,1500.216425599996,None,1500.216425599996,None,1,1.3257187998387963,1500.216425599996,None,1501.5779005000368,None,1501.5779005000368,None,1502.096678999951,None,1502.096678999951,None,1502.096678999951,None,n,0.5256838998757303,1502.096678999951,None,sing27,001,2019_Nov_07_1619,ProdFawcett_Revision2019,3.2.3,60.02681996376307,
,,,,35,0,35,0,,,,,,,,,,,,,1505.5715938999783,None,,,,,,,,,,,,,,,,,,,,,,subject,A_silent,35,312,1503.1700305000413,None,1503.1700305000413,None,1503.1700305000413,None,6,1.3320983001030982,1503.1700305000413,None,1504.542607099982,None,1504.542607099982,None,1505.071368200006,None,1505.071368200006,None,1505.071368200006,None,r,0.4788325000554323,1505.071368200006,None,sing27,001,2019_Nov_07_1619,ProdFawcett_Revision2019,3.2.3,60.02681996376307,
,,,,36,0,36,0,,,,,,,,,,,,,1508.1823398999404,None,,,,,,,,,,,,,,,,,,,,,,rough,D_new,36,266,1506.0892578000203,None,1506.0892578000203,None,1506.0892578000203,None,6,1.2614395001437515,1506.0892578000203,None,1507.3916851000395,None,1507.3916851000395,None,1507.918199900072,None,1507.918199900072,None,1507.918199900072,None,r,0.2322336002252996,1507.918199900072,None,sing27,001,2019_Nov_07_1619,ProdFawcett_Revision2019,3.2.3,60.02681996376307,
,,,,37,0,37,0,,,,,,,,,,,,,1510.7165721000638,None,,,,,,,,,,,,,,,,,,,,,,personnel,C_sing,37,219,1508.7020316000562,None,1508.7020316000562,None,1508.7020316000562,None,6,1.1202911001164466,1508.7020316000562,None,1509.8869817999657,None,1509.8869817999657,None,1510.4190090999473,None,1510.4190090999473,None,1510.4190090999473,None,r,0.2596074000466615,1510.4190090999473,None,sing27,001,2019_Nov_07_1619,ProdFawcett_Revision2019,3.2.3,60.02681996376307,
,,,,38,0,38,0,,,,,,,,,,,,,1513.2658826000988,None,,,,,,,,,,,,,,,,,,,,,,hunger,C_sing,38,155,1511.2330002998933,None,1511.2330002998933,None,1511.2330002998933,None,6,1.125395700102672,1511.2330002998933,None,1512.4058238998987,None,1512.4058238998987,None,1512.9350664999802,None,1512.9350664999802,None,1512.9350664999802,None,r,0.29594270000234246,1512.9350664999802,None,sing27,001,2019_Nov_07_1619,ProdFawcett_Revision2019,3.2.3,60.02681996376307,
,,,,39,0,39,0,,,,,,,,,,,,,1515.6135515000205,None,,,,,,,,,,,,,,,,,,,,,,income,A_silent,39,159,1513.78128929995,None,1513.78128929995,None,1513.78128929995,None,6,1.041024599922821,1513.78128929995,None,1514.8721163000446,None,1514.8721163000446,None,1515.39925389993,None,1515.39925389993,None,1515.39925389993,None,r,0.17505949991755188,1515.39925389993,None,sing27,001,2019_Nov_07_1619,ProdFawcett_Revision2019,3.2.3,60.02681996376307,
,,,,40,0,40,0,,,,,,,,,,,,,1518.1490029001143,None,,,,,,,,,,,,,,,,,,,,,,brief,A_silent,40,28,1516.136626600055,None,1516.136626600055,None,1516.136626600055,None,6,1.1657207000534981,1516.136626600055,None,1517.3511043000035,None,1517.3511043000035,None,1517.8631917000748,None,1517.8631917000748,None,1517.8631917000748,None,r,0.23940779990516603,1517.8631917000748,None,sing27,001,2019_Nov_07_1619,ProdFawcett_Revision2019,3.2.3,60.02681996376307,
,,,,41,0,41,0,,,,,,,,,,,,,1521.1487404000945,None,,,,,,,,,,,,,,,,,,,,,,height,D_new,41,152,1518.6686430999544,None,1518.6686430999544,None,1518.6686430999544,None,6,1.713940099813044,1518.6686430999544,None,1520.4322109001223,None,1520.4322109001223,None,1520.9512046000455,None,1520.9512046000455,None,1520.9512046000455,None,r,0.15945210005156696,1520.9512046000455,None,sing27,001,2019_Nov_07_1619,ProdFawcett_Revision2019,3.2.3,60.02681996376307,
,,,,42,0,42,0,,,,,,,,,,,,,1526.6166008000728,None,,,,,,,,,,,,,,,,,,,,,,little,C_sing,42,174,1521.6660599999595,None,1521.6660599999595,None,1521.6660599999595,None,3,3.6687842002138495,1521.6660599999595,None,1525.3758982000872,None,1525.3758982000872,None,1525.8949438000564,None,1525.8949438000564,None,1525.8949438000564,None,f,0.688138899859041,1525.8949438000564,None,sing27,001,2019_Nov_07_1619,ProdFawcett_Revision2019,3.2.3,60.02681996376307,
,,,,43,0,43,0,,,,,,,,,,,,,1529.7989076999947,None,,,,,,,,,,,,,,,,,,,,,,scale,B_aloud,43,272,1527.1308981999755,None,1527.1308981999755,None,1527.1308981999755,None,3,1.7713082998525351,1527.1308981999755,None,1528.9489392999094,None,1528.9489392999094,None,1529.465463800123,None,1529.465463800123,None,1529.465463800123,None,f,0.29286569985561073,1529.465463800123,None,sing27,001,2019_Nov_07_1619,ProdFawcett_Revision2019,3.2.3,60.02681996376307,
,,,,44,0,44,0,,,,,,,,,,,,,1532.7091550000478,None,,,,,,,,,,,,,,,,,,,,,,taste,A_silent,44,322,1530.318606799934,None,1530.318606799934,None,1530.318606799934,None,6,1.3995003998279572,1530.318606799934,None,1531.7394451000728,None,1531.7394451000728,None,1532.2546822000295,None,1532.2546822000295,None,1532.2546822000295,None,r,0.4236601998563856,1532.2546822000295,None,sing27,001,2019_Nov_07_1619,ProdFawcett_Revision2019,3.2.3,60.02681996376307,
,,,,45,0,45,0,,,,,,,,,,,,,1536.591879799962,None,,,,,,,,,,,,,,,,,,,,,,revolution,D_new,45,264,1533.238919599913,None,1533.238919599913,None,1533.238919599913,None,3,1.8076037999708205,1533.238919599913,None,1535.1006108999718,None,1535.1006108999718,None,1535.6186790000647,None,1535.6186790000647,None,1535.6186790000647,None,f,0.9396154000423849,1535.6186790000647,None,sing27,001,2019_Nov_07_1619,ProdFawcett_Revision2019,3.2.3,60.02681996376307,
,,,,46,0,46,0,,,,,,,,,,,,,1540.0027844000142,None,,,,,,,,,,,,,,,,,,,,,,volume,D_new,46,349,1537.1202134001069,None,1537.1202134001069,None,1537.1202134001069,None,1,1.430024400120601,1537.1202134001069,None,1538.5866475000512,None,1538.5866475000512,None,1539.0954648999032,None,1539.0954648999032,None,1539.0954648999032,None,n,0.871203500078991,1539.0954648999032,None,sing27,001,2019_Nov_07_1619,ProdFawcett_Revision2019,3.2.3,60.02681996376307,
,,,,47,0,47,0,,,,,,,,,,,,,1544.0669899000786,None,,,,,,,,,,,,,,,,,,,,,,material,C_sing,47,182,1540.519102799939,None,1540.519102799939,None,1540.519102799939,None,6,2.431483100168407,1540.519102799939,None,1542.9990066001192,None,1542.9990066001192,None,1543.5161490000319,None,1543.5161490000319,None,1543.5161490000319,None,r,0.5061966998036951,1543.5161490000319,None,sing27,001,2019_Nov_07_1619,ProdFawcett_Revision2019,3.2.3,60.02681996376307,
,,,,48,0,48,0,,,,,,,,,,,,,1547.4132970001083,None,,,,,,,,,,,,,,,,,,,,,,scene,D_new,48,273,1544.585007699905,None,1544.585007699905,None,1544.585007699905,None,1,1.4533377999905497,1544.585007699905,None,1546.0909931000788,None,1546.0909931000788,None,1546.6150527000427,None,1546.6150527000427,None,1546.6150527000427,None,n,0.7591927999164909,1546.6150527000427,None,sing27,001,2019_Nov_07_1619,ProdFawcett_Revision2019,3.2.3,60.02681996376307,
,,,,49,0,49,0,,,,,,,,,,,,,1550.7905460000038,None,,,,,,,,,,,,,,,,,,,,,,range,C_sing,49,251,1547.940222100122,None,1547.940222100122,None,1547.940222100122,None,6,1.9538718000985682,1547.940222100122,None,1549.9286420000717,None,1549.9286420000717,None,1550.4509785999544,None,1550.4509785999544,None,1550.4509785999544,None,r,0.3153013000264764,1550.4509785999544,None,sing27,001,2019_Nov_07_1619,ProdFawcett_Revision2019,3.2.3,60.02681996376307,
,,,,50,0,50,0,,,,,,,,,,,,,1553.2888130000792,None,,,,,,,,,,,,,,,,,,,,,,comfort,A_silent,50,59,1551.3082153000869,None,1551.3082153000869,None,1551.3082153000869,None,6,0.9777809001971036,1551.3082153000869,None,1552.3167602000758,None,1552.3167602000758,None,1552.8335221000016,None,1552.8335221000016,None,1552.8335221000016,None,r,0.4208557999227196,1552.8335221000016,None,sing27,001,2019_Nov_07_1619,ProdFawcett_Revision2019,3.2.3,60.02681996376307,
,,,,51,0,51,0,,,,,,,,,,,,,1556.058251200011,None,,,,,,,,,,,,,,,,,,,,,,angle,D_new,51,7,1553.822650700109,None,1553.822650700109,None,1553.822650700109,None,1,1.2876877000089735,1553.822650700109,None,1555.1488586000632,None,1555.1488586000632,None,1555.666322400095,None,1555.666322400095,None,1555.666322400095,None,n,0.36398359993472695,1555.666322400095,None,sing27,001,2019_Nov_07_1619,ProdFawcett_Revision2019,3.2.3,60.02681996376307,
,,,,52,0,52,0,,,,,,,,,,,,,1558.517742899945,None,,,,,,,,,,,,,,,,,,,,,,industry,D_new,52,161,1556.5858048000373,None,1556.5858048000373,None,1556.5858048000373,None,1,1.052541800076142,1556.5858048000373,None,1557.6959379001055,None,1557.6959379001055,None,1558.2173856999725,None,1558.2173856999725,None,1558.2173856999725,None,n,0.2689873999916017,1558.2173856999725,None,sing27,001,2019_Nov_07_1619,ProdFawcett_Revision2019,3.2.3,60.02681996376307,
,,,,53,0,53,0,,,,,,,,,,,,,1563.2910565000493,None,,,,,,,,,,,,,,,,,,,,,,dream,B_aloud,53,104,1559.0480839000084,None,1559.0480839000084,None,1559.0480839000084,None,6,1.774247599998489,1559.0480839000084,None,1560.875912999967,None,1560.875912999967,None,1561.4001082999166,None,1561.4001082999166,None,1561.4001082999166,None,r,1.862327199894935,1561.4001082999166,None,sing27,001,2019_Nov_07_1619,ProdFawcett_Revision2019,3.2.3,60.02681996376307,
,,,,54,0,54,0,,,,,,,,,,,,,1565.7716977000237,None,,,,,,,,,,,,,,,,,,,,,,surface,B_aloud,54,316,1563.8081636999268,None,1563.8081636999268,None,1563.8081636999268,None,6,1.014125999994576,1563.8081636999268,None,1564.878895000089,None,1564.878895000089,None,1565.4060891000554,None,1565.4060891000554,None,1565.4060891000554,None,r,0.3202702000271529,1565.4060891000554,None,sing27,001,2019_Nov_07_1619,ProdFawcett_Revision2019,3.2.3,60.02681996376307,
,,,,55,0,55,0,,,,,,,,,,,,,1568.0501133999787,None,,,,,,,,,,,,,,,,,,,,,,permit,C_sing,55,218,1566.3047895999625,None,1566.3047895999625,None,1566.3047895999625,None,6,0.9895736000034958,1566.3047895999625,None,1567.3437342999969,None,1567.3437342999969,None,1567.866778299911,None,1567.866778299911,None,1567.866778299911,None,r,0.14796350011602044,1567.866778299911,None,sing27,001,2019_Nov_07_1619,ProdFawcett_Revision2019,3.2.3,60.02681996376307,
,,,,56,0,56,0,,,,,,,,,,,,,1571.8896661000326,None,,,,,,,,,,,,,,,,,,,,,,department,D_new,56,90,1568.5728160000872,None,1568.5728160000872,None,1568.5728160000872,None,3,2.385619700187817,1568.5728160000872,None,1571.0185102999676,None,1571.0185102999676,None,1571.5342769999988,None,1571.5342769999988,None,1571.5342769999988,None,f,0.31212400016374886,1571.5342769999988,None,sing27,001,2019_Nov_07_1619,ProdFawcett_Revision2019,3.2.3,60.02681996376307,
,,,,57,0,57,0,,,,,,,,,,,,,1574.8215505999979,None,,,,,,,,,,,,,,,,,,,,,,history,A_silent,57,153,1572.4202642000746,None,1572.4202642000746,None,1572.4202642000746,None,3,1.7458114998880774,1572.4202642000746,None,1574.2055659999605,None,1574.2055659999605,None,1574.724961000029,None,1574.724961000029,None,1574.724961000029,None,f,0.0654072999022901,1574.724961000029,None,sing27,001,2019_Nov_07_1619,ProdFawcett_Revision2019,3.2.3,60.02681996376307,
,,,,58,0,58,0,,,,,,,,,,,,,1577.5361707000993,None,,,,,,,,,,,,,,,,,,,,,,travel,D_new,58,338,1575.338538999902,None,1575.338538999902,None,1575.338538999902,None,1,1.419727599946782,1575.338538999902,None,1576.8048787999433,None,1576.8048787999433,None,1577.3222878999077,None,1577.3222878999077,None,1577.3222878999077,None,n,0.18072669999673963,1577.3222878999077,None,sing27,001,2019_Nov_07_1619,ProdFawcett_Revision2019,3.2.3,60.02681996376307,
,,,,59,0,59,0,,,,,,,,,,,,,1580.709621899994,None,,,,,,,,,,,,,,,,,,,,,,under,B_aloud,59,343,1578.0539293000475,None,1578.0539293000475,None,1578.0539293000475,None,3,1.9602214000187814,1578.0539293000475,None,1580.047086100094,None,1580.047086100094,None,1580.5678475000896,None,1580.5678475000896,None,1580.5678475000896,None,f,0.11820039991289377,1580.5678475000896,None,sing27,001,2019_Nov_07_1619,ProdFawcett_Revision2019,3.2.3,60.02681996376307,
,,,,60,0,60,0,,,,,,,,,,,,,1584.7373490999453,None,,,,,,,,,,,,,,,,,,,,,,state,D_new,60,303,1581.22719460004,None,1581.22719460004,None,1581.22719460004,None,1,2.7790374998003244,1581.22719460004,None,1584.0386407000478,None,1584.0386407000478,None,1584.55341459997,None,1584.55341459997,None,1584.55341459997,None,n,0.14115640008822083,1584.55341459997,None,sing27,001,2019_Nov_07_1619,ProdFawcett_Revision2019,3.2.3,60.02681996376307,
,,,,61,0,61,0,,,,,,,,,,,,,1587.0098415999673,None,,,,,,,,,,,,,,,,,,,,,,silence,D_new,61,288,1585.255860199919,None,1585.255860199919,None,1585.255860199919,None,1,1.1182788000442088,1585.255860199919,None,1586.4189122000244,None,1586.4189122000244,None,1586.9351057000458,None,1586.9351057000458,None,1586.9351057000458,None,n,0.0469949000980705,1586.9351057000458,None,sing27,001,2019_Nov_07_1619,ProdFawcett_Revision2019,3.2.3,60.02681996376307,
,,,,62,0,62,0,,,,,,,,,,,,,1591.0146691999398,None,,,,,,,,,,,,,,,,,,,,,,running,B_aloud,62,268,1587.5416013000067,None,1587.5416013000067,None,1587.5416013000067,None,1,1.3450421998277307,1587.5416013000067,None,1588.9318357999437,None,1588.9318357999437,None,1589.4404400000349,None,1589.4404400000349,None,1589.4404400000349,None,n,1.5422741000074893,1589.4404400000349,None,sing27,001,2019_Nov_07_1619,ProdFawcett_Revision2019,3.2.3,60.02681996376307,
,,,,63,0,63,0,,,,,,,,,,,,,1594.1049790999386,None,,,,,,,,,,,,,,,,,,,,,,stranger,D_new,63,309,1591.5508834000211,None,1591.5508834000211,None,1591.5508834000211,None,3,1.8557923000771552,1591.5508834000211,None,1593.4545233000536,None,1593.4545233000536,None,1593.9706397999544,None,1593.9706397999544,None,1593.9706397999544,None,f,0.10002409992739558,1593.9706397999544,None,sing27,001,2019_Nov_07_1619,ProdFawcett_Revision2019,3.2.3,60.02681996376307,
,,,,64,0,64,0,,,,,,,,,,,,,1597.8554744001012,None,,,,,,,,,,,,,,,,,,,,,,thick,C_sing,64,327,1594.624328300124,None,1594.624328300124,None,1594.624328300124,None,6,1.6220144000835717,1594.624328300124,None,1596.2985396001022,None,1596.2985396001022,None,1596.817868300015,None,1596.817868300015,None,1596.817868300015,None,r,0.9964740998111665,1596.817868300015,None,sing27,001,2019_Nov_07_1619,ProdFawcett_Revision2019,3.2.3,60.02681996376307,
,,,,65,0,65,0,,,,,,,,,,,,,1602.5936173999216,None,,,,,,,,,,,,,,,,,,,,,,death,D_new,65,86,1598.3733334999997,None,1598.3733334999997,None,1598.3733334999997,None,3,3.328937100013718,1598.3733334999997,None,1601.7331968999933,None,1601.7331968999933,None,1602.250578300096,None,1602.250578300096,None,1602.250578300096,None,f,0.3156534000299871,1602.250578300096,None,sing27,001,2019_Nov_07_1619,ProdFawcett_Revision2019,3.2.3,60.02681996376307,
,,,,66,0,66,0,,,,,,,,,,,,,1605.4045943999663,None,,,,,,,,,,,,,,,,,,,,,,career,C_sing,66,42,1603.1203453999478,None,1603.1203453999478,None,1603.1203453999478,None,6,1.4302701000124216,1603.1203453999478,None,1604.6083827000111,None,1604.6083827000111,None,1605.120012700092,None,1605.120012700092,None,1605.120012700092,None,r,0.24657300021499395,1605.120012700092,None,sing27,001,2019_Nov_07_1619,ProdFawcett_Revision2019,3.2.3,60.02681996376307,
,,,,67,0,67,0,,,,,,,,,,,,,1608.8575641000643,None,,,,,,,,,,,,,,,,,,,,,,evidence,D_new,67,120,1605.928196300054,None,1605.928196300054,None,1605.928196300054,None,1,1.5099583000410348,1605.928196300054,None,1607.4691641998943,None,1607.4691641998943,None,1607.9786775000393,None,1607.9786775000393,None,1607.9786775000393,None,f,0.8356850000564009,1607.9786775000393,None,sing27,001,2019_Nov_07_1619,ProdFawcett_Revision2019,3.2.3,60.02681996376307,
,,,,68,0,68,0,,,,,,,,,,,,,1613.1057754000649,None,,,,,,,,,,,,,,,,,,,,,,tough,A_silent,68,333,1609.3779853000306,None,1609.3779853000306,None,1609.3779853000306,None,1,2.79648320004344,1609.3779853000306,None,1612.2134316000156,None,1612.2134316000156,None,1612.7402186000254,None,1612.7402186000254,None,1612.7402186000254,None,n,0.32216709991917014,1612.7402186000254,None,sing27,001,2019_Nov_07_1619,ProdFawcett_Revision2019,3.2.3,60.02681996376307,
,,,,69,0,69,0,,,,,,,,,,,,,1617.1733583000023,None,,,,,,,,,,,,,,,,,,,,,,motion,B_aloud,69,194,1613.612945199944,None,1613.612945199944,None,1613.612945199944,None,1,2.465201600221917,1613.612945199944,None,1616.1212039999664,None,1616.1212039999664,None,1616.629988099914,None,1616.629988099914,None,1616.629988099914,None,n,0.4965822999365628,1616.629988099914,None,sing27,001,2019_Nov_07_1619,ProdFawcett_Revision2019,3.2.3,60.02681996376307,
,,,,70,0,70,0,,,,,,,,,,,,,1619.895137900021,None,,,,,,,,,,,,,,,,,,,,,,escape,D_new,70,118,1617.6907337999437,None,1617.6907337999437,None,1617.6907337999437,None,3,1.4837696000467986,1617.6907337999437,None,1619.2174619999714,None,1619.2174619999714,None,1619.7367585999891,None,1619.7367585999891,None,1619.7367585999891,None,f,0.12560990010388196,1619.7367585999891,None,sing27,001,2019_Nov_07_1619,ProdFawcett_Revision2019,3.2.3,60.02681996376307,
,,,,71,0,71,0,,,,,,,,,,,,,1622.5117057999596,None,,,,,,,,,,,,,,,,,,,,,,estate,B_aloud,71,119,1620.4268457000144,None,1620.4268457000144,None,1620.4268457000144,None,6,1.459646899951622,1620.4268457000144,None,1621.9300498000812,None,1621.9300498000812,None,1622.455336800078,None,1622.455336800078,None,1622.455336800078,None,r,0.022774399956688285,1622.455336800078,None,sing27,001,2019_Nov_07_1619,ProdFawcett_Revision2019,3.2.3,60.02681996376307,
,,,,72,0,72,0,,,,,,,,,,,,,1625.8808951000683,None,,,,,,,,,,,,,,,,,,,,,,accident,D_new,72,0,1623.039828500012,None,1623.039828500012,None,1623.039828500012,None,1,1.5186067000031471,1623.039828500012,None,1624.5991593000945,None,1624.5991593000945,None,1625.1222030001227,None,1625.1222030001227,None,1625.1222030001227,None,n,0.7321589000057429,1625.1222030001227,None,sing27,001,2019_Nov_07_1619,ProdFawcett_Revision2019,3.2.3,60.02681996376307,
,,,,73,0,73,0,,,,,,,,,,,,,1632.0240895000752,None,,,,,,,,,,,,,,,,,,,,,,pancakes,B_aloud,73,210,1626.4067979000974,None,1626.4067979000974,None,1626.4067979000974,None,6,1.9033365999348462,1626.4067979000974,None,1628.3590307999402,None,1628.3590307999402,None,1628.8636070999783,None,1628.8636070999783,None,1628.8636070999783,None,r,3.1189621000085026,1628.8636070999783,None,sing27,001,2019_Nov_07_1619,ProdFawcett_Revision2019,3.2.3,60.02681996376307,
,,,,74,0,74,0,,,,,,,,,,,,,1635.3844357000198,None,,,,,,,,,,,,,,,,,,,,,,enemy,C_sing,74,113,1632.5425325001124,None,1632.5425325001124,None,1632.5425325001124,None,6,1.6317526001948863,1632.5425325001124,None,1634.2059218001086,None,1634.2059218001086,None,1634.7220839001238,None,1634.7220839001238,None,1634.7220839001238,None,r,0.612456499831751,1634.7220839001238,None,sing27,001,2019_Nov_07_1619,ProdFawcett_Revision2019,3.2.3,60.02681996376307,
,,,,75,0,75,0,,,,,,,,,,,,,1638.9307564999908,None,,,,,,,,,,,,,,,,,,,,,,close,B_aloud,75,53,1635.9059039000422,None,1635.9059039000422,None,1635.9059039000422,None,6,1.30083670001477,1635.9059039000422,None,1637.252450000029,None,1637.252450000029,None,1637.7713516999502,None,1637.7713516999502,None,1637.7713516999502,None,r,1.1228410999756306,1637.7713516999502,None,sing27,001,2019_Nov_07_1619,ProdFawcett_Revision2019,3.2.3,60.02681996376307,
,,,,76,0,76,0,,,,,,,,,,,,,1643.160840800032,None,,,,,,,,,,,,,,,,,,,,,,whole,A_silent,76,355,1639.4594789000694,None,1639.4594789000694,None,1639.4594789000694,None,3,2.962868500035256,1639.4594789000694,None,1642.4515976000112,None,1642.4515976000112,None,1642.9694310999475,None,1642.9694310999475,None,1642.9694310999475,None,f,0.14898970001377165,1642.9694310999475,None,sing27,001,2019_Nov_07_1619,ProdFawcett_Revision2019,3.2.3,60.02681996376307,
,,,,77,0,77,0,,,,,,,,,,,,,1646.224784299964,None,,,,,,,,,,,,,,,,,,,,,,carry,C_sing,77,43,1643.6907778999303,None,1643.6907778999303,None,1643.6907778999303,None,6,1.4353459998965263,1643.6907778999303,None,1645.153795399936,None,1645.153795399936,None,1645.679452399956,None,1645.679452399956,None,1645.679452399956,None,f,0.5028797998093069,1645.679452399956,None,sing27,001,2019_Nov_07_1619,ProdFawcett_Revision2019,3.2.3,60.02681996376307,
,,,,78,0,78,0,,,,,,,,,,,,,1649.0556181001011,None,,,,,,,,,,,,,,,,,,,,,,empty,B_aloud,78,112,1646.7424306999892,None,1646.7424306999892,None,1646.7424306999892,None,6,1.3122983002103865,1646.7424306999892,None,1648.0972657999955,None,1648.0972657999955,None,1648.622180199949,None,1648.622180199949,None,1648.622180199949,None,r,0.4002048000693321,1648.622180199949,None,sing27,001,2019_Nov_07_1619,ProdFawcett_Revision2019,3.2.3,60.02681996376307,
,,,,79,0,79,0,,,,,,,,,,,,,1654.348959099967,None,,,,,,,,,,,,,,,,,,,,,,region,A_silent,79,256,1649.5775107000954,None,1649.5775107000954,None,1649.5775107000954,None,4,3.7966157998889685,1649.5775107000954,None,1653.4058413999155,None,1653.4058413999155,None,1653.913691499969,None,1653.913691499969,None,1653.913691499969,None,f,0.40485440008342266,1653.913691499969,None,sing27,001,2019_Nov_07_1619,ProdFawcett_Revision2019,3.2.3,60.02681996376307,
,,,,80,0,80,0,,,,,,,,,,,,,1656.9923157000449,None,,,,,,,,,,,,,,,,,,,,,,group,C_sing,80,143,1654.879258400062,None,1654.879258400062,None,1654.879258400062,None,6,1.37502760021016,1654.879258400062,None,1656.2935675999615,None,1656.2935675999615,None,1656.8092090999708,None,1656.8092090999708,None,1656.8092090999708,None,r,0.14977740007452667,1656.8092090999708,None,sing27,001,2019_Nov_07_1619,ProdFawcett_Revision2019,3.2.3,60.02681996376307,
,,,,81,0,81,0,,,,,,,,,,,,,1659.6927626999095,None,,,,,,,,,,,,,,,,,,,,,,skill,D_new,81,289,1657.508288800018,None,1657.508288800018,None,1657.508288800018,None,1,1.3380317001137882,1657.508288800018,None,1658.9050944999326,None,1658.9050944999326,None,1659.4243264000397,None,1659.4243264000397,None,1659.4243264000397,None,n,0.2302836999297142,1659.4243264000397,None,sing27,001,2019_Nov_07_1619,ProdFawcett_Revision2019,3.2.3,60.02681996376307,
,,,,82,0,82,0,,,,,,,,,,,,,1663.4748529000208,None,,,,,,,,,,,,,,,,,,,,,,clear,D_new,82,52,1660.2105863001198,None,1660.2105863001198,None,1660.2105863001198,None,1,1.1958496998995543,1660.2105863001198,None,1661.4466039999388,None,1661.4466039999388,None,1661.9706218999345,None,1661.9706218999345,None,1661.9706218999345,None,n,1.4596266997978091,1661.9706218999345,None,sing27,001,2019_Nov_07_1619,ProdFawcett_Revision2019,3.2.3,60.02681996376307,
,,,,83,0,83,0,,,,,,,,,,,,,1667.5441503000911,None,,,,,,,,,,,,,,,,,,,,,,trial,D_new,83,341,1663.9943119999953,None,1663.9943119999953,None,1663.9943119999953,None,3,2.4998643998987973,1663.9943119999953,None,1666.5258706000168,None,1666.5258706000168,None,1667.0407380000688,None,1667.0407380000688,None,1667.0407380000688,None,f,0.46966399997472763,1667.0407380000688,None,sing27,001,2019_Nov_07_1619,ProdFawcett_Revision2019,3.2.3,60.02681996376307,
,,,,84,0,84,0,,,,,,,,,,,,,1670.353144499939,None,,,,,,,,,,,,,,,,,,,,,,worker,D_new,84,356,1668.0688956000376,None,1668.0688956000376,None,1668.0688956000376,None,1,1.465443099848926,1668.0688956000376,None,1669.5897204000503,None,1669.5897204000503,None,1670.09776220005,None,1670.09776220005,None,1670.09776220005,None,n,0.22853390011005104,1670.09776220005,None,sing27,001,2019_Nov_07_1619,ProdFawcett_Revision2019,3.2.3,60.02681996376307,
,,,,85,0,85,0,,,,,,,,,,,,,1672.7483417000622,None,,,,,,,,,,,,,,,,,,,,,,profession,D_new,85,241,1670.8774884000886,None,1670.8774884000886,None,1670.8774884000886,None,1,1.128870999906212,1670.8774884000886,None,1672.0499229000416,None,1672.0499229000416,None,1672.573030800093,None,1672.573030800093,None,1672.573030800093,None,n,0.15318929986096919,1672.573030800093,None,sing27,001,2019_Nov_07_1619,ProdFawcett_Revision2019,3.2.3,60.02681996376307,
,,,,86,0,86,0,,,,,,,,,,,,,1675.0028238000814,None,,,,,,,,,,,,,,,,,,,,,,write,D_new,86,358,1673.2791246999986,None,1673.2791246999986,None,1673.2791246999986,None,1,0.9915132999885827,1673.2791246999986,None,1674.3046049000695,None,1674.3046049000695,None,1674.8270340000745,None,1674.8270340000745,None,1674.8270340000745,None,n,0.1392489999998361,1674.8270340000745,None,sing27,001,2019_Nov_07_1619,ProdFawcett_Revision2019,3.2.3,60.02681996376307,
,,,,87,0,87,0,,,,,,,,,,,,,1678.6106281999964,None,,,,,,,,,,,,,,,,,,,,,,property,B_aloud,87,242,1675.5271616000682,None,1675.5271616000682,None,1675.5271616000682,None,3,2.2391862999647856,1675.5271616000682,None,1677.8107300999109,None,1677.8107300999109,None,1678.326962399995,None,1678.326962399995,None,1678.326962399995,None,f,0.24748430005274713,1678.326962399995,None,sing27,001,2019_Nov_07_1619,ProdFawcett_Revision2019,3.2.3,60.02681996376307,
,,,,88,0,88,0,,,,,,,,,,,,,1681.427209699992,None,,,,,,,,,,,,,,,,,,,,,,master,D_new,88,180,1679.1273431999143,None,1679.1273431999143,None,1679.1273431999143,None,1,1.390988500090316,1679.1273431999143,None,1680.5556294000708,None,1680.5556294000708,None,1681.0793826999143,None,1681.0793826999143,None,1681.0793826999143,None,n,0.30304610007442534,1681.0793826999143,None,sing27,001,2019_Nov_07_1619,ProdFawcett_Revision2019,3.2.3,60.02681996376307,
,,,,89,0,89,0,,,,,,,,,,,,,1684.0446222999599,None,,,,,,,,,,,,,,,,,,,,,,center,C_sing,89,44,1681.9448263999075,None,1681.9448263999075,None,1681.9448263999075,None,1,1.3578891998622566,1681.9448263999075,None,1683.3481598999351,None,1683.3481598999351,None,1683.8751958999783,None,1683.8751958999783,None,1683.8751958999783,None,n,0.131485799793154,1683.8751958999783,None,sing27,001,2019_Nov_07_1619,ProdFawcett_Revision2019,3.2.3,60.02681996376307,
,,,,90,0,90,0,,,,,,,,,,,,,1687.672544500092,None,,,,,,,,,,,,,,,,,,,,,,waste,D_new,90,350,1684.5649331000168,None,1684.5649331000168,None,1684.5649331000168,None,6,2.3534099000971764,1684.5649331000168,None,1686.9709097000305,None,1686.9709097000305,None,1687.489675699966,None,1687.489675699966,None,1687.489675699966,None,r,0.14890410006046295,1687.489675699966,None,sing27,001,2019_Nov_07_1619,ProdFawcett_Revision2019,3.2.3,60.02681996376307,
,,,,91,0,91,0,,,,,,,,,,,,,1691.8007034000475,None,,,,,,,,,,,,,,,,,,,,,,prime,C_sing,91,235,1688.1954600000754,None,1688.1954600000754,None,1688.1954600000754,None,1,2.563075200188905,1688.1954600000754,None,1690.8084531999193,None,1690.8084531999193,None,1691.3225740999915,None,1691.3225740999915,None,1691.3225740999915,None,n,0.45165219996124506,1691.3225740999915,None,sing27,001,2019_Nov_07_1619,ProdFawcett_Revision2019,3.2.3,60.02681996376307,
,,,,92,0,92,0,,,,,,,,,,,,,1697.1779730999842,None,,,,,,,,,,,,,,,,,,,,,,capital,D_new,92,40,1692.3304717000574,None,1692.3304717000574,None,1692.3304717000574,None,3,3.8761932000052184,1692.3304717000574,None,1696.2492124000564,None,1696.2492124000564,None,1696.7761446000077,None,1696.7761446000077,None,1696.7761446000077,None,f,0.3583193998783827,1696.7761446000077,None,sing27,001,2019_Nov_07_1619,ProdFawcett_Revision2019,3.2.3,60.02681996376307,
,,,,93,0,93,0,,,,,,,,,,,,,1700.3435488000978,None,,,,,,,,,,,,,,,,,,,,,,tennis,B_aloud,93,323,1697.6962691999506,None,1697.6962691999506,None,1697.6962691999506,None,6,1.8617072999477386,1697.6962691999506,None,1699.6077968999743,None,1699.6077968999743,None,1700.096938899951,None,1700.096938899951,None,1700.096938899951,None,r,0.20561420009471476,1700.096938899951,None,sing27,001,2019_Nov_07_1619,ProdFawcett_Revision2019,3.2.3,60.02681996376307,
,,,,94,0,94,0,,,,,,,,,,,,,1703.6936278999783,None,,,,,,,,,,,,,,,,,,,,,,management,D_new,94,177,1700.8511836000253,None,1700.8511836000253,None,1700.8511836000253,None,1,1.3073094000574201,1700.8511836000253,None,1702.210398199968,None,1702.210398199968,None,1702.733391799964,None,1702.733391799964,None,1702.733391799964,None,n,0.9210556000471115,1702.733391799964,None,sing27,001,2019_Nov_07_1619,ProdFawcett_Revision2019,3.2.3,60.02681996376307,
,,,,95,0,95,0,,,,,,,,,,,,,1706.6446777998935,None,,,,,,,,,,,,,,,,,,,,,,mechanical,D_new,95,185,1704.2149507000577,None,1704.2149507000577,None,1704.2149507000577,None,1,1.2475251001305878,1704.2149507000577,None,1705.5085271000862,None,1705.5085271000862,None,1706.0286056001205,None,1706.0286056001205,None,1706.0286056001205,None,n,0.5780112000647932,1706.0286056001205,None,sing27,001,2019_Nov_07_1619,ProdFawcett_Revision2019,3.2.3,60.02681996376307,
,,,,96,0,96,0,,,,,,,,,,,,,1710.1283867000602,None,,,,,,,,,,,,,,,,,,,,,,build,D_new,96,35,1707.1620601001196,None,1707.1620601001196,None,1707.1620601001196,None,3,1.6604874001350254,1707.1620601001196,None,1708.8697561000008,None,1708.8697561000008,None,1709.395940599963,None,1709.395940599963,None,1709.395940599963,None,n,0.6986469998955727,1709.395940599963,None,sing27,001,2019_Nov_07_1619,ProdFawcett_Revision2019,3.2.3,60.02681996376307,
,,,,97,0,97,0,,,,,,,,,,,,,1715.8631184000988,None,,,,,,,,,,,,,,,,,,,,,,addition,A_silent,97,2,1710.6341025000438,None,1710.6341025000438,None,1710.6341025000438,None,1,3.3082072001416236,1710.6341025000438,None,1713.9927970001008,None,1713.9927970001008,None,1714.5022442999762,None,1714.5022442999762,None,1714.5022442999762,None,n,1.3202430000528693,1714.5022442999762,None,sing27,001,2019_Nov_07_1619,ProdFawcett_Revision2019,3.2.3,60.02681996376307,
,,,,98,0,98,0,,,,,,,,,,,,,1719.214149999898,None,,,,,,,,,,,,,,,,,,,,,,bureau,B_aloud,98,37,1716.3842468000948,None,1716.3842468000948,None,1716.3842468000948,None,6,1.2948841000907123,1716.3842468000948,None,1717.7242167000659,None,1717.7242167000659,None,1718.252740399912,None,1718.252740399912,None,1718.252740399912,None,r,0.9296406998764724,1718.252740399912,None,sing27,001,2019_Nov_07_1619,ProdFawcett_Revision2019,3.2.3,60.02681996376307,
,,,,99,0,99,0,,,,,,,,,,,,,1721.829094799934,None,,,,,,,,,,,,,,,,,,,,,,comedy,A_silent,99,58,1719.7301324000582,None,1719.7301324000582,None,1719.7301324000582,None,6,1.108144300058484,1719.7301324000582,None,1720.8958328000735,None,1720.8958328000735,None,1721.409611399984,None,1721.409611399984,None,1721.409611399984,None,r,0.3889111001044512,1721.409611399984,None,sing27,001,2019_Nov_07_1619,ProdFawcett_Revision2019,3.2.3,60.02681996376307,
,,,,100,0,100,0,,,,,,,,,,,,,1723.9349223000463,None,,,,,,,,,,,,,,,,,,,,,,column,C_sing,100,57,1722.3505466000643,None,1722.3505466000643,None,1722.3505466000643,None,6,0.9759814001154155,1722.3505466000643,None,1723.367588300025,None,1723.367588300025,None,1723.894660900114,None,1723.894660900114,None,1723.894660900114,None,r,0.0074534001760184765,1723.894660900114,None,sing27,001,2019_Nov_07_1619,ProdFawcett_Revision2019,3.2.3,60.02681996376307,
,,,,101,0,101,0,,,,,,,,,,,,,1727.0075970999897,None,,,,,,,,,,,,,,,,,,,,,,dance,A_silent,101,84,1724.4633172000758,None,1724.4633172000758,None,1724.4633172000758,None,6,0.8708426000084728,1724.4633172000758,None,1725.3786508000921,None,1725.3786508000921,None,1725.895278400043,None,1725.895278400043,None,1725.895278400043,None,r,1.0793038001284003,1725.895278400043,None,sing27,001,2019_Nov_07_1619,ProdFawcett_Revision2019,3.2.3,60.02681996376307,
,,,,102,0,102,0,,,,,,,,,,,,,1731.10576820001,None,,,,,,,,,,,,,,,,,,,,,,surprise,D_new,102,317,1727.533044199925,None,1727.533044199925,None,1727.533044199925,None,3,1.9372288000304252,1727.533044199925,None,1729.5155635001138,None,1729.5155635001138,None,1730.0368025000207,None,1730.0368025000207,None,1730.0368025000207,None,f,1.0333213000558317,1730.0368025000207,None,sing27,001,2019_Nov_07_1619,ProdFawcett_Revision2019,3.2.3,60.02681996376307,
,,,,103,0,103,0,,,,,,,,,,,,,1735.6292038999964,None,,,,,,,,,,,,,,,,,,,,,,sound,D_new,103,295,1731.6300834000576,None,1731.6300834000576,None,1731.6300834000576,None,3,1.4403248999733478,1731.6300834000576,None,1733.1118085000198,None,1733.1118085000198,None,1733.6176871999633,None,1733.6176871999633,None,1733.6176871999633,None,f,1.9727718001231551,1733.6176871999633,None,sing27,001,2019_Nov_07_1619,ProdFawcett_Revision2019,3.2.3,60.02681996376307,
,,,,104,0,104,0,,,,,,,,,,,,,1738.7685930998996,None,,,,,,,,,,,,,,,,,,,,,,power,D_new,104,230,1736.1515323000494,None,1736.1515323000494,None,1736.1515323000494,None,3,1.4069640000816435,1736.1515323000494,None,1737.6101259998977,None,1737.6101259998977,None,1738.1349524001125,None,1738.1349524001125,None,1738.1349524001125,None,f,0.5917656000237912,1738.1349524001125,None,sing27,001,2019_Nov_07_1619,ProdFawcett_Revision2019,3.2.3,60.02681996376307,
,,,,105,0,105,0,,,,,,,,,,,,,1741.3818800000008,None,,,,,,,,,,,,,,,,,,,,,,command,D_new,105,60,1739.3004419999197,None,1739.3004419999197,None,1739.3004419999197,None,1,1.2262607000302523,1739.3004419999197,None,1740.5754859000444,None,1740.5754859000444,None,1741.096302299993,None,1741.096302299993,None,1741.096302299993,None,n,0.25399510003626347,1741.096302299993,None,sing27,001,2019_Nov_07_1619,ProdFawcett_Revision2019,3.2.3,60.02681996376307,
,,,,106,0,106,0,,,,,,,,,,,,,1743.5473488001153,None,,,,,,,,,,,,,,,,,,,,,,drama,D_new,106,103,1741.8991165999323,None,1741.8991165999323,None,1741.8991165999323,None,1,1.0270591999869794,1741.8991165999323,None,1742.9601769000292,None,1742.9601769000292,None,1743.4790332999546,None,1743.4790332999546,None,1743.4790332999546,None,n,0.023200599942356348,1743.4790332999546,None,sing27,001,2019_Nov_07_1619,ProdFawcett_Revision2019,3.2.3,60.02681996376307,
,,,,107,0,107,0,,,,,,,,,,,,,1745.9542404001113,None,,,,,,,,,,,,,,,,,,,,,,beauty,A_silent,107,18,1744.0572826000862,None,1744.0572826000862,None,1744.0572826000862,None,6,1.2289617999922484,1744.0572826000862,None,1745.333277600119,None,1745.333277600119,None,1745.8528748000972,None,1745.8528748000972,None,1745.8528748000972,None,r,0.07366160000674427,1745.8528748000972,None,sing27,001,2019_Nov_07_1619,ProdFawcett_Revision2019,3.2.3,60.02681996376307,
,,,,108,0,108,0,,,,,,,,,,,,,1748.5058303000405,None,,,,,,,,,,,,,,,,,,,,,,season,D_new,108,277,1746.481673100032,None,1746.481673100032,None,1746.481673100032,None,6,1.1489921000320464,1746.481673100032,None,1747.6706892000511,None,1747.6706892000511,None,1748.1950841001235,None,1748.1950841001235,None,1748.1950841001235,None,r,0.2832059001084417,1748.1950841001235,None,sing27,001,2019_Nov_07_1619,ProdFawcett_Revision2019,3.2.3,60.02681996376307,
,,,,109,0,109,0,,,,,,,,,,,,,1750.9600935000926,None,,,,,,,,,,,,,,,,,,,,,,machinery,D_new,109,175,1749.031144700013,None,1749.031144700013,None,1749.031144700013,None,1,1.015366500010714,1749.031144700013,None,1750.0830894000828,None,1750.0830894000828,None,1750.6033461999614,None,1750.6033461999614,None,1750.6033461999614,None,n,0.3150291000492871,1750.6033461999614,None,sing27,001,2019_Nov_07_1619,ProdFawcett_Revision2019,3.2.3,60.02681996376307,
,,,,110,0,110,0,,,,,,,,,,,,,1753.3652671999298,None,,,,,,,,,,,,,,,,,,,,,,health,D_new,110,149,1751.4829015000723,None,1751.4829015000723,None,1751.4829015000723,None,1,1.1155269998125732,1751.4829015000723,None,1752.6421415000223,None,1752.6421415000223,None,1753.1635308999103,None,1753.1635308999103,None,1753.1635308999103,None,n,0.17080079996958375,1753.1635308999103,None,sing27,001,2019_Nov_07_1619,ProdFawcett_Revision2019,3.2.3,60.02681996376307,
,,,,111,0,111,0,,,,,,,,,,,,,1756.037359100068,None,,,,,,,,,,,,,,,,,,,,,,straight,C_sing,111,307,1753.8847527001053,None,1753.8847527001053,None,1753.8847527001053,None,1,1.513839399907738,1753.8847527001053,None,1755.452744399896,None,1755.452744399896,None,1755.9663734000642,None,1755.9663734000642,None,1755.9663734000642,None,n,0.048069499898701906,1755.9663734000642,None,sing27,001,2019_Nov_07_1619,ProdFawcett_Revision2019,3.2.3,60.02681996376307,
,,,,112,0,112,0,,,,,,,,,,,,,1760.1377584999427,None,,,,,,,,,,,,,,,,,,,,,,agency,D_new,112,4,1756.569069399964,None,1756.569069399964,None,1756.569069399964,None,3,2.4850099999457598,1756.569069399964,None,1759.0966942000668,None,1759.0966942000668,None,1759.6080531999469,None,1759.6080531999469,None,1759.6080531999469,None,f,0.4939401000738144,1759.6080531999469,None,sing27,001,2019_Nov_07_1619,ProdFawcett_Revision2019,3.2.3,60.02681996376307,
,,,,113,0,113,0,,,,,,,,,,,,,1763.9996311001014,None,,,,,,,,,,,,,,,,,,,,,,orchestra,A_silent,113,206,1760.6683585001156,None,1760.6683585001156,None,1760.6683585001156,None,6,2.4743290999904275,1760.6683585001156,None,1763.1902479999699,None,1763.1902479999699,None,1763.7112124999985,None,1763.7112124999985,None,1763.7112124999985,None,r,0.25519609986804426,1763.7112124999985,None,sing27,001,2019_Nov_07_1619,ProdFawcett_Revision2019,3.2.3,60.02681996376307,
,,,,114,0,114,0,,,,,,,,,,,,,1766.5127791000996,None,,,,,,,,,,,,,,,,,,,,,,bright,D_new,114,29,1764.5205151999835,None,1764.5205151999835,None,1764.5205151999835,None,1,1.2137665001209825,1764.5205151999835,None,1765.778428300051,None,1765.778428300051,None,1766.3008818998933,None,1766.3008818998933,None,1766.3008818998933,None,n,0.17747640004381537,1766.3008818998933,None,sing27,001,2019_Nov_07_1619,ProdFawcett_Revision2019,3.2.3,60.02681996376307,
,,,,115,0,115,0,,,,,,,,,,,,,1769.2019555000588,None,,,,,,,,,,,,,,,,,,,,,,substance,D_new,115,313,1767.0368606999982,None,1767.0368606999982,None,1767.0368606999982,None,1,1.4894245001487434,1767.0368606999982,None,1768.5607288000174,None,1768.5607288000174,None,1769.071271300083,None,1769.071271300083,None,1769.071271300083,None,n,0.08710360014811158,1769.071271300083,None,sing27,001,2019_Nov_07_1619,ProdFawcett_Revision2019,3.2.3,60.02681996376307,
,,,,116,0,116,0,,,,,,,,,,,,,1775.4244369000662,None,,,,,,,,,,,,,,,,,,,,,,light,C_sing,116,171,1769.7351408998948,None,1769.7351408998948,None,1769.7351408998948,None,3,3.5592807000502944,1769.7351408998948,None,1773.3425487000495,None,1773.3425487000495,None,1773.8678808999248,None,1773.8678808999248,None,1773.8678808999248,None,f,1.522356699919328,1773.8678808999248,None,sing27,001,2019_Nov_07_1619,ProdFawcett_Revision2019,3.2.3,60.02681996376307,
,,,,117,0,117,0,,,,,,,,,,,,,1778.717544999905,None,,,,,,,,,,,,,,,,,,,,,,population,C_sing,117,227,1775.9501448001247,None,1775.9501448001247,None,1775.9501448001247,None,1,1.2400565000716597,1775.9501448001247,None,1777.236945600016,None,1777.236945600016,None,1777.7549880000297,None,1777.7549880000297,None,1777.7549880000297,None,f,0.9239072999916971,1777.7549880000297,None,sing27,001,2019_Nov_07_1619,ProdFawcett_Revision2019,3.2.3,60.02681996376307,
,,,,118,0,118,0,,,,,,,,,,,,,1781.2156601001043,None,,,,,,,,,,,,,,,,,,,,,,generation,D_new,118,136,1779.2394981000107,None,1779.2394981000107,None,1779.2394981000107,None,1,1.1107121999375522,1779.2394981000107,None,1780.3945895999204,None,1780.3945895999204,None,1780.921169300098,None,1780.921169300098,None,1780.921169300098,None,n,0.2615257001016289,1780.921169300098,None,sing27,001,2019_Nov_07_1619,ProdFawcett_Revision2019,3.2.3,60.02681996376307,
,,,,119,0,119,0,,,,,,,,,,,,,1783.8152222000062,None,,,,,,,,,,,,,,,,,,,,,,junior,D_new,119,167,1781.7393157000188,None,1781.7393157000188,None,1781.7393157000188,None,1,0.9794844000134617,1781.7393157000188,None,1782.7604557999875,None,1782.7604557999875,None,1783.2969718000386,None,1783.2969718000386,None,1783.2969718000386,None,n,0.4773812999483198,1783.2969718000386,None,sing27,001,2019_Nov_07_1619,ProdFawcett_Revision2019,3.2.3,60.02681996376307,
,,,,120,0,120,0,,,,,,,,,,,,,1786.8993494999595,None,,,,,,,,,,,,,,,,,,,,,,growth,D_new,120,144,1784.3416915000416,None,1784.3416915000416,None,1784.3416915000416,None,1,0.9287657998502254,1784.3416915000416,None,1785.3359868999105,None,1785.3359868999105,None,1785.851494600065,None,1785.851494600065,None,1785.851494600065,None,f,1.0108436001464725,1785.851494600065,None,sing27,001,2019_Nov_07_1619,ProdFawcett_Revision2019,3.2.3,60.02681996376307,
,,,,121,0,121,0,,,,,,,,,,,,,1789.9430043001194,None,,,,,,,,,,,,,,,,,,,,,,recall,D_new,121,255,1787.421546400059,None,1787.421546400059,None,1787.421546400059,None,1,1.8090295000001788,1787.421546400059,None,1789.279683199944,None,1789.279683199944,None,1789.7951835000422,None,1789.7951835000422,None,1789.7951835000422,None,n,0.11529839993454516,1789.7951835000422,None,sing27,001,2019_Nov_07_1619,ProdFawcett_Revision2019,3.2.3,60.02681996376307,
,,,,122,0,122,0,,,,,,,,,,,,,1792.899187900126,None,,,,,,,,,,,,,,,,,,,,,,edition,B_aloud,122,107,1790.4651895998977,None,1790.4651895998977,None,1790.4651895998977,None,6,1.269471500068903,1790.4651895998977,None,1791.7805345999077,None,1791.7805345999077,None,1792.2983671999536,None,1792.2983671999536,None,1792.2983671999536,None,r,0.5641115999314934,1792.2983671999536,None,sing27,001,2019_Nov_07_1619,ProdFawcett_Revision2019,3.2.3,60.02681996376307,
,,,,123,0,123,0,,,,,,,,,,,,,1795.8994785000104,None,,,,,,,,,,,,,,,,,,,,,,religion,D_new,123,258,1793.4127535000443,None,1793.4127535000443,None,1793.4127535000443,None,3,1.745450000045821,1793.4127535000443,None,1795.2084647999145,None,1795.2084647999145,None,1795.7381972000003,None,1795.7381972000003,None,1795.7381972000003,None,f,0.12430570018477738,1795.7381972000003,None,sing27,001,2019_Nov_07_1619,ProdFawcett_Revision2019,3.2.3,60.02681996376307,
,,,,124,0,124,0,,,,,,,,,,,,,1798.669528099941,None,,,,,,,,,,,,,,,,,,,,,,military,C_sing,124,190,1796.4198221000843,None,1796.4198221000843,None,1796.4198221000843,None,6,1.3545648998115212,1796.4198221000843,None,1797.8260262999684,None,1797.8260262999684,None,1798.3548556999303,None,1798.3548556999303,None,1798.3548556999303,None,r,0.2759440999943763,1798.3548556999303,None,sing27,001,2019_Nov_07_1619,ProdFawcett_Revision2019,3.2.3,60.02681996376307,
,,,,125,0,125,0,,,,,,,,,,,,,1800.9442656999454,None,,,,,,,,,,,,,,,,,,,,,,resistance,A_silent,125,262,1799.1884975000285,None,1799.1884975000285,None,1799.1884975000285,None,1,0.9779773999471217,1799.1884975000285,None,1800.215479400009,None,1800.215479400009,None,1800.7315944000147,None,1800.7315944000147,None,1800.7315944000147,None,n,0.17872549989260733,1800.7315944000147,None,sing27,001,2019_Nov_07_1619,ProdFawcett_Revision2019,3.2.3,60.02681996376307,
,,,,126,0,126,0,,,,,,,,,,,,,1803.1830933000892,None,,,,,,,,,,,,,,,,,,,,,,murder,D_new,126,195,1801.4778332998976,None,1801.4778332998976,None,1801.4778332998976,None,1,0.9604573999531567,1801.4778332998976,None,1802.4926662000362,None,1802.4926662000362,None,1803.0134209000971,None,1803.0134209000971,None,1803.0134209000971,None,n,0.13710679998621345,1803.0134209000971,None,sing27,001,2019_Nov_07_1619,ProdFawcett_Revision2019,3.2.3,60.02681996376307,
,,,,127,0,127,0,,,,,,,,,,,,,1805.403027900029,None,,,,,,,,,,,,,,,,,,,,,,discussion,B_aloud,127,96,1803.7017781999893,None,1803.7017781999893,None,1803.7017781999893,None,1,0.9207011999096721,1803.7017781999893,None,1804.6816312000155,None,1804.6816312000155,None,1805.20470319991,None,1805.20470319991,None,1805.20470319991,None,n,0.1535761000122875,1805.20470319991,None,sing27,001,2019_Nov_07_1619,ProdFawcett_Revision2019,3.2.3,60.02681996376307,
,,,,128,0,128,0,,,,,,,,,,,,,1807.6693921000697,None,,,,,,,,,,,,,,,,,,,,,,hearing,D_new,128,150,1805.9195393000264,None,1805.9195393000264,None,1805.9195393000264,None,1,1.047056500101462,1805.9195393000264,None,1807.005502199987,None,1807.005502199987,None,1807.546763899969,None,1807.546763899969,None,1807.546763899969,None,n,0.08383530005812645,1807.546763899969,None,sing27,001,2019_Nov_07_1619,ProdFawcett_Revision2019,3.2.3,60.02681996376307,
,,,,129,0,129,0,,,,,,,,,,,,,1810.210338999983,None,,,,,,,,,,,,,,,,,,,,,,question,A_silent,129,247,1808.1909366999753,None,1808.1909366999753,None,1808.1909366999753,None,1,1.3834921000525355,1808.1909366999753,None,1809.6345538001042,None,1809.6345538001042,None,1810.1504490000661,None,1810.1504490000661,None,1810.1504490000661,None,n,0.03174149990081787,1810.1504490000661,None,sing27,001,2019_Nov_07_1619,ProdFawcett_Revision2019,3.2.3,60.02681996376307,
,,,,130,0,130,0,,,,,,,,,,,,,1813.418071199907,None,,,,,,,,,,,,,,,,,,,,,,store,C_sing,130,305,1810.735199799994,None,1810.735199799994,None,1810.735199799994,None,6,1.8229398000985384,1810.735199799994,None,1812.6004302001093,None,1812.6004302001093,None,1813.1159006999806,None,1813.1159006999806,None,1813.1159006999806,None,r,0.2585823000408709,1813.1159006999806,None,sing27,001,2019_Nov_07_1619,ProdFawcett_Revision2019,3.2.3,60.02681996376307,
,,,,131,0,131,0,,,,,,,,,,,,,1819.9887514999136,None,,,,,,,,,,,,,,,,,,,,,,place,C_sing,131,222,1813.9364656000398,None,1813.9364656000398,None,1813.9364656000398,None,1,5.133670800132677,1813.9364656000398,None,1819.0995553999674,None,1819.0995553999674,None,1819.6081223001238,None,1819.6081223001238,None,1819.6081223001238,None,n,0.35820600017905235,1819.6081223001238,None,sing27,001,2019_Nov_07_1619,ProdFawcett_Revision2019,3.2.3,60.02681996376307,
,,,,132,0,132,0,,,,,,,,,,,,,1824.9691812000237,None,,,,,,,,,,,,,,,,,,,,,,fight,D_new,132,127,1820.5219825000968,None,1820.5219825000968,None,1820.5219825000968,None,3,3.6523617999628186,1820.5219825000968,None,1824.2301080999896,None,1824.2301080999896,None,1824.7546051000245,None,1824.7546051000245,None,1824.7546051000245,None,f,0.1798588999081403,1824.7546051000245,None,sing27,001,2019_Nov_07_1619,ProdFawcett_Revision2019,3.2.3,60.02681996376307,
,,,,133,0,133,0,,,,,,,,,,,,,1828.7289923999924,None,,,,,,,,,,,,,,,,,,,,,,minute,C_sing,133,192,1825.4839133999776,None,1825.4839133999776,None,1825.4839133999776,None,3,2.6344039000105113,1825.4839133999776,None,1828.1526544999797,None,1828.1526544999797,None,1828.6687938999385,None,1828.6687938999385,None,1828.6687938999385,None,f,0.03357709990814328,1828.6687938999385,None,sing27,001,2019_Nov_07_1619,ProdFawcett_Revision2019,3.2.3,60.02681996376307,
,,,,134,0,134,0,,,,,,,,,,,,,1831.8764530001208,None,,,,,,,,,,,,,,,,,,,,,,weight,C_sing,134,353,1829.2570680000354,None,1829.2570680000354,None,1829.2570680000354,None,6,1.221113300183788,1829.2570680000354,None,1830.521078400081,None,1830.521078400081,None,1831.0269408000167,None,1831.0269408000167,None,1831.0269408000167,None,r,0.8194405999965966,1831.0269408000167,None,sing27,001,2019_Nov_07_1619,ProdFawcett_Revision2019,3.2.3,60.02681996376307,
,,,,135,0,135,0,,,,,,,,,,,,,1834.4305658999365,None,,,,,,,,,,,,,,,,,,,,,,institute,D_new,135,162,1832.4048136000056,None,1832.4048136000056,None,1832.4048136000056,None,1,1.2655484999995679,1832.4048136000056,None,1833.7103144000284,None,1833.7103144000284,None,1834.2361866999418,None,1834.2361866999418,None,1834.2361866999418,None,n,0.1540111000649631,1834.2361866999418,None,sing27,001,2019_Nov_07_1619,ProdFawcett_Revision2019,3.2.3,60.02681996376307,
,,,,136,0,136,0,,,,,,,,,,,,,1838.0518769000191,None,,,,,,,,,,,,,,,,,,,,,,dozen,D_new,136,102,1834.9771088999696,None,1834.9771088999696,None,1834.9771088999696,None,1,1.1099100999999791,1834.9771088999696,None,1836.131557600107,None,1836.131557600107,None,1836.6559778999072,None,1836.6559778999072,None,1836.6559778999072,None,f,1.3584702000953257,1836.6559778999072,None,sing27,001,2019_Nov_07_1619,ProdFawcett_Revision2019,3.2.3,60.02681996376307,
,,,,137,0,137,0,,,,,,,,,,,,,1841.1873089000583,None,,,,,,,,,,,,,,,,,,,,,,music,D_new,137,196,1838.5742556999903,None,1838.5742556999903,None,1838.5742556999903,None,3,1.7925418000668287,1838.5742556999903,None,1840.4172183000483,None,1840.4172183000483,None,1840.9226412000135,None,1840.9226412000135,None,1840.9226412000135,None,f,0.22798190009780228,1840.9226412000135,None,sing27,001,2019_Nov_07_1619,ProdFawcett_Revision2019,3.2.3,60.02681996376307,
,,,,138,0,138,0,,,,,,,,,,,,,1844.510667399969,None,,,,,,,,,,,,,,,,,,,,,,captain,D_new,138,41,1841.7061030999757,None,1841.7061030999757,None,1841.7061030999757,None,6,2.124242400052026,1841.7061030999757,None,1843.8941977999639,None,1843.8941977999639,None,1844.4066836999264,None,1844.4066836999264,None,1844.4066836999264,None,r,0.05564159993082285,1844.4066836999264,None,sing27,001,2019_Nov_07_1619,ProdFawcett_Revision2019,3.2.3,60.02681996376307,
,,,,139,0,139,0,,,,,,,,,,,,,1850.3279635999352,None,,,,,,,,,,,,,,,,,,,,,,conference,A_silent,139,66,1845.0381916000042,None,1845.0381916000042,None,1845.0381916000042,None,3,3.4327268002089113,1845.0381916000042,None,1848.5170565000735,None,1848.5170565000735,None,1849.0377281999681,None,1849.0377281999681,None,1849.0377281999681,None,f,1.2564214000012726,1849.0377281999681,None,sing27,001,2019_Nov_07_1619,ProdFawcett_Revision2019,3.2.3,60.02681996376307,
,,,,140,0,140,0,,,,,,,,,,,,,1853.4428950999863,None,,,,,,,,,,,,,,,,,,,,,,budget,C_sing,140,34,1850.8600298999809,None,1850.8600298999809,None,1850.8600298999809,None,1,1.3945377999916673,1850.8600298999809,None,1852.3028208999895,None,1852.3028208999895,None,1852.8247062000446,None,1852.8247062000446,None,1852.8247062000446,None,n,0.5816652998328209,1852.8247062000446,None,sing27,001,2019_Nov_07_1619,ProdFawcett_Revision2019,3.2.3,60.02681996376307,
,,,,141,0,141,0,,,,,,,,,,,,,1859.76945849997,None,,,,,,,,,,,,,,,,,,,,,,notice,D_new,141,201,1853.9732268000953,None,1853.9732268000953,None,1853.9732268000953,None,1,4.593791599851102,1853.9732268000953,None,1858.6091873000842,None,1858.6091873000842,None,1859.1358960000798,None,1859.1358960000798,None,1859.1358960000798,None,n,0.5906493000220507,1859.1358960000798,None,sing27,001,2019_Nov_07_1619,ProdFawcett_Revision2019,3.2.3,60.02681996376307,
,,,,142,0,142,0,,,,,,,,,,,,,1864.0069218000863,None,,,,,,,,,,,,,,,,,,,,,,rapid,D_new,142,252,1860.2909164999146,None,1860.2909164999146,None,1860.2909164999146,None,3,3.0113289000000805,1860.2909164999146,None,1863.3400248999242,None,1863.3400248999242,None,1863.8515753999818,None,1863.8515753999818,None,1863.8515753999818,None,f,0.12280740006826818,1863.8515753999818,None,sing27,001,2019_Nov_07_1619,ProdFawcett_Revision2019,3.2.3,60.02681996376307,
,,,,143,0,143,0,,,,,,,,,,,,,1867.0899638999254,None,,,,,,,,,,,,,,,,,,,,,,message,D_new,143,189,1864.5288468999788,None,1864.5288468999788,None,1864.5288468999788,None,3,1.6854426998179406,1864.5288468999788,None,1866.256091499934,None,1866.256091499934,None,1866.7751321000978,None,1866.7751321000978,None,1866.7751321000978,None,f,0.2796535000670701,1866.7751321000978,None,sing27,001,2019_Nov_07_1619,ProdFawcett_Revision2019,3.2.3,60.02681996376307,
,,,,144,0,144,0,,,,,,,,,,,,,1869.5391921000555,None,,,,,,,,,,,,,,,,,,,,,,portion,D_new,144,228,1867.609207100002,None,1867.609207100002,None,1867.609207100002,None,1,1.1493037000764161,1867.609207100002,None,1868.8008832000196,None,1868.8008832000196,None,1869.3242069000844,None,1869.3242069000844,None,1869.3242069000844,None,n,0.17020910000428557,1869.3242069000844,None,sing27,001,2019_Nov_07_1619,ProdFawcett_Revision2019,3.2.3,60.02681996376307,
,,,,145,0,145,0,,,,,,,,,,,,,1872.890407799976,None,,,,,,,,,,,,,,,,,,,,,,character,B_aloud,145,46,1870.0588285999838,None,1870.0588285999838,None,1870.0588285999838,None,3,2.1076267000753433,1870.0588285999838,None,1872.2176310999785,None,1872.2176310999785,None,1872.7396964000072,None,1872.7396964000072,None,1872.7396964000072,None,f,0.11460050009191036,1872.7396964000072,None,sing27,001,2019_Nov_07_1619,ProdFawcett_Revision2019,3.2.3,60.02681996376307,
,,,,146,0,146,0,,,,,,,,,,,,,1876.3232815000229,None,,,,,,,,,,,,,,,,,,,,,,trail,C_sing,146,336,1873.4083070999477,None,1873.4083070999477,None,1873.4083070999477,None,6,1.8621149000246078,1873.4083070999477,None,1875.3127514000516,None,1875.3127514000516,None,1875.8378342001233,None,1875.8378342001233,None,1875.8378342001233,None,r,0.4486395001877099,1875.8378342001233,None,sing27,001,2019_Nov_07_1619,ProdFawcett_Revision2019,3.2.3,60.02681996376307,
,,,,147,0,147,0,,,,,,,,,,,,,1878.6888123000972,None,,,,,,,,,,,,,,,,,,,,,,series,B_aloud,147,279,1876.8397979999427,None,1876.8397979999427,None,1876.8397979999427,None,3,1.2145891000982374,1876.8397979999427,None,1878.0844706001226,None,1878.0844706001226,None,1878.6062191999517,None,1878.6062191999517,None,1878.6062191999517,None,f,0.03986850008368492,1878.6062191999517,None,sing27,001,2019_Nov_07_1619,ProdFawcett_Revision2019,3.2.3,60.02681996376307,
,,,,148,0,148,0,,,,,,,,,,,,,1882.7410873000044,None,,,,,,,,,,,,,,,,,,,,,,dispute,B_aloud,148,99,1879.2057344000787,None,1879.2057344000787,None,1879.2057344000787,None,5,2.656494199996814,1879.2057344000787,None,1881.9076696000993,None,1881.9076696000993,None,1882.4115667000879,None,1882.4115667000879,None,1882.4115667000879,None,f,0.2987691001035273,1882.4115667000879,None,sing27,001,2019_Nov_07_1619,ProdFawcett_Revision2019,3.2.3,60.02681996376307,
,,,,149,0,149,0,,,,,,,,,,,,,1886.0581735000014,None,,,,,,,,,,,,,,,,,,,,,,thing,D_new,149,328,1883.261478499975,None,1883.261478499975,None,1883.261478499975,None,2,1.8565657001454383,1883.261478499975,None,1885.1473956999835,None,1885.1473956999835,None,1885.6739225001074,None,1885.6739225001074,None,1885.6739225001074,None,n,0.34034640016034245,1885.6739225001074,None,sing27,001,2019_Nov_07_1619,ProdFawcett_Revision2019,3.2.3,60.02681996376307,
,,,,150,0,150,0,,,,,,,,,,,,,1888.8341824000236,None,,,,,,,,,,,,,,,,,,,,,,danger,D_new,150,85,1886.5809863000177,None,1886.5809863000177,None,1886.5809863000177,None,3,1.4576659000013024,1886.5809863000177,None,1888.0887384999078,None,1888.0887384999078,None,1888.6055340999737,None,1888.6055340999737,None,1888.6055340999737,None,f,0.2008074999321252,1888.6055340999737,None,sing27,001,2019_Nov_07_1619,ProdFawcett_Revision2019,3.2.3,60.02681996376307,
,,,,151,0,151,0,,,,,,,,,,,,,1891.274491300108,None,,,,,,,,,,,,,,,,,,,,,,couch,A_silent,151,70,1889.347010599915,None,1889.347010599915,None,1889.347010599915,None,4,1.0593008999712765,1889.347010599915,None,1890.4411919000559,None,1890.4411919000559,None,1890.9563172000926,None,1890.9563172000926,None,1890.9563172000926,None,f,0.28210249985568225,1890.9563172000926,None,sing27,001,2019_Nov_07_1619,ProdFawcett_Revision2019,3.2.3,60.02681996376307,
