StudyTrials.thisRepN,StudyTrials.thisTrialN,StudyTrials.thisN,StudyTrials.thisIndex,TestTrials.thisRepN,TestTrials.thisTrialN,TestTrials.thisN,TestTrials.thisIndex,textWelcome.started,textWelcome.stopped,keyWelcome.keys,keyWelcome.rt,keyWelcome.started,keyWelcome.stopped,textReady.started,textReady.stopped,keyReady.keys,keyReady.rt,keyReady.started,keyReady.stopped,polyback_2.started,polyback_2.stopped,studyPic,studyWord,studyType,studyN,studyOrder,polyback_3.started,polyback_3.stopped,studyPicChoice.started,studyPicChoice.stopped,polyback_4.started,polyback_4.stopped,polyback.started,polyback.stopped,studyWords.started,studyWords.stopped,getResearcher.started,getResearcher.stopped,kPress2.keys,kPress2.rt,kPress2.started,kPress2.stopped,testWord,testType,testN,testOrder,polyback_5.started,polyback_5.stopped,testWords.started,testWords.stopped,textScale.started,textScale.stopped,keyConf.keys,keyConf.rt,keyConf.started,keyConf.stopped,polyback_6.started,polyback_6.stopped,studyWords_2.started,studyWords_2.stopped,polyback_7.started,polyback_7.stopped,testWords_2.started,testWords_2.stopped,textScale_2.started,textScale_2.stopped,keyRKN.keys,keyRKN.rt,keyRKN.started,keyRKN.stopped,participant,session,date,expName,psychopyVersion,frameRate,
,,,,,,,,35.376385830692016,None,space,551.8566380543634,35.376385830692016,None,,,,,,,,,,,,,,,,,,,,,,,,,,,,,,,,,,,,,,,,,,,,,,,,,,,,,,,,,,sing12,001,2019_Oct_31_1257,ProdFawcett_Revision2019,3.2.4,60.176858654332804,
,,,,,,,,,,,,,,587.2604854761448,None,space,18.075187845999608,587.2604854761448,None,,,,,,,,,,,,,,,,,,,,,,,,,,,,,,,,,,,,,,,,,,,,,,,,,,,,sing12,001,2019_Oct_31_1257,ProdFawcett_Revision2019,3.2.4,60.176858654332804,
0,0,0,0,,,,,,,,,,,,,,,,,610.2340676121094,None,materials/singPic.jpg,society,C_sing,0,293,606.6829153448925,None,606.6829153448925,None,607.5498056229408,None,607.7498625365406,None,607.7498625365406,None,,,,,,,,,,,,,,,,,,,,,,,,,,,,,,,,,,,sing12,001,2019_Oct_31_1257,ProdFawcett_Revision2019,3.2.4,60.176858654332804,
1,0,1,0,,,,,,,,,,,,,,,,,614.5023514959175,None,materials/speakPic.jpg,revolution,B_aloud,1,264,610.8908512160269,None,610.8908512160269,None,611.7513338931312,None,612.0178640293598,None,612.0178640293598,None,,,,,,,,,,,,,,,,,,,,,,,,,,,,,,,,,,,sing12,001,2019_Oct_31_1257,ProdFawcett_Revision2019,3.2.4,60.176858654332804,
2,0,2,0,,,,,,,,,,,,,,,,,618.7700612676417,None,materials/speakPic.jpg,treatment,B_aloud,2,339,615.0852351184876,None,615.0852351184876,None,616.0194930646248,None,616.285866455175,None,616.285866455175,None,,,,,,,,,,,,,,,,,,,,,,,,,,,,,,,,,,,sing12,001,2019_Oct_31_1257,ProdFawcett_Revision2019,3.2.4,60.176858654332804,
3,0,3,0,,,,,,,,,,,,,,,,,623.0380503203342,None,materials/singPic.jpg,health,C_sing,3,149,619.3788278285792,None,619.3788278285792,None,620.2881744106417,None,620.553930148657,None,620.553930148657,None,,,,,,,,,,,,,,,,,,,,,,,,,,,,,,,,,,,sing12,001,2019_Oct_31_1257,ProdFawcett_Revision2019,3.2.4,60.176858654332804,
4,0,4,0,,,,,,,,,,,,,,,,,627.3060253778676,None,materials/readPic.jpg,raise,A_silent,4,250,623.6967021210439,None,623.6967021210439,None,624.5561783914891,None,624.8218277663691,None,624.8218277663691,None,,,,,,,,,,,,,,,,,,,,,,,,,,,,,,,,,,,sing12,001,2019_Oct_31_1257,ProdFawcett_Revision2019,3.2.4,60.176858654332804,
5,0,5,0,,,,,,,,,,,,,,,,,631.5740302917111,None,materials/singPic.jpg,motion,C_sing,5,194,627.9240337127558,None,627.9240337127558,None,628.823351371524,None,629.0898224171106,None,629.0898224171106,None,,,,,,,,,,,,,,,,,,,,,,,,,,,,,,,,,,,sing12,001,2019_Oct_31_1257,ProdFawcett_Revision2019,3.2.4,60.176858654332804,
6,0,6,0,,,,,,,,,,,,,,,,,635.8420420476468,None,materials/readPic.jpg,music,A_silent,6,196,632.1755793991324,None,632.1755793991324,None,633.091841450514,None,633.3578167568485,None,633.3578167568485,None,,,,,,,,,,,,,,,,,,,,,,,,,,,,,,,,,,,sing12,001,2019_Oct_31_1257,ProdFawcett_Revision2019,3.2.4,60.176858654332804,
7,0,7,0,,,,,,,,,,,,,,,,,640.1100115071167,None,materials/singPic.jpg,committee,C_sing,7,62,636.4482646015967,None,636.4482646015967,None,637.3593602662149,None,637.6257871493435,None,637.6257871493435,None,,,,,,,,,,,,,,,,,,,,,,,,,,,,,,,,,,,sing12,001,2019_Oct_31_1257,ProdFawcett_Revision2019,3.2.4,60.176858654332804,
8,0,8,0,,,,,,,,,,,,,,,,,644.3779647944175,None,materials/speakPic.jpg,fellow,B_aloud,8,126,640.6949720097036,None,640.6949720097036,None,641.6273026684066,None,641.8938990483293,None,641.8938990483293,None,,,,,,,,,,,,,,,,,,,,,,,,,,,,,,,,,,,sing12,001,2019_Oct_31_1257,ProdFawcett_Revision2019,3.2.4,60.176858654332804,
9,0,9,0,,,,,,,,,,,,,,,,,648.6459606891731,None,materials/speakPic.jpg,phrase,B_aloud,9,220,644.961323008014,None,644.961323008014,None,645.8950867699168,None,646.1525318778295,None,646.1525318778295,None,,,,,,,,,,,,,,,,,,,,,,,,,,,,,,,,,,,sing12,001,2019_Oct_31_1257,ProdFawcett_Revision2019,3.2.4,60.176858654332804,
10,0,10,0,,,,,,,,,,,,,,,,,652.9139621819922,None,materials/singPic.jpg,court,C_sing,10,75,649.2980142439483,None,649.2980142439483,None,650.1634039310738,None,650.4297633264941,None,650.4297633264941,None,,,,,,,,,,,,,,,,,,,,,,,,,,,,,,,,,,,sing12,001,2019_Oct_31_1257,ProdFawcett_Revision2019,3.2.4,60.176858654332804,
11,0,11,0,,,,,,,,,,,,,,,,,657.181963985815,None,materials/readPic.jpg,generation,A_silent,11,136,653.5052649748104,None,653.5052649748104,None,654.4311796355032,None,654.6980310381332,None,654.6980310381332,None,,,,,,,,,,,,,,,,,,,,,,,,,,,,,,,,,,,sing12,001,2019_Oct_31_1257,ProdFawcett_Revision2019,3.2.4,60.176858654332804,
12,0,12,0,,,,,,,,,,,,,,,,,661.449944641412,None,materials/speakPic.jpg,present,B_aloud,12,231,657.7834938110318,None,657.7834938110318,None,658.6999545935105,None,658.9657367668115,None,658.9657367668115,None,,,,,,,,,,,,,,,,,,,,,,,,,,,,,,,,,,,sing12,001,2019_Oct_31_1257,ProdFawcett_Revision2019,3.2.4,60.176858654332804,
13,0,13,0,,,,,,,,,,,,,,,,,665.7179159669031,None,materials/speakPic.jpg,throw,B_aloud,13,330,662.0331283821579,None,662.0331283821579,None,662.9672753001214,None,663.2338542638463,None,663.2338542638463,None,,,,,,,,,,,,,,,,,,,,,,,,,,,,,,,,,,,sing12,001,2019_Oct_31_1257,ProdFawcett_Revision2019,3.2.4,60.176858654332804,
14,0,14,0,,,,,,,,,,,,,,,,,669.9858928904578,None,materials/singPic.jpg,birth,C_sing,14,22,666.3264172420168,None,666.3264172420168,None,667.2353850220825,None,667.5016921689385,None,667.5016921689385,None,,,,,,,,,,,,,,,,,,,,,,,,,,,,,,,,,,,sing12,001,2019_Oct_31_1257,ProdFawcett_Revision2019,3.2.4,60.176858654332804,
15,0,15,0,,,,,,,,,,,,,,,,,674.2538797661255,None,materials/singPic.jpg,edition,C_sing,15,107,670.569085028299,None,670.569085028299,None,671.5032453193999,None,671.7571770230716,None,671.7571770230716,None,,,,,,,,,,,,,,,,,,,,,,,,,,,,,,,,,,,sing12,001,2019_Oct_31_1257,ProdFawcett_Revision2019,3.2.4,60.176858654332804,
16,0,16,0,,,,,,,,,,,,,,,,,678.5218681967963,None,materials/speakPic.jpg,patient,B_aloud,16,213,674.8556580829754,None,674.8556580829754,None,675.7711982956971,None,676.0376724513189,None,676.0376724513189,None,,,,,,,,,,,,,,,,,,,,,,,,,,,,,,,,,,,sing12,001,2019_Oct_31_1257,ProdFawcett_Revision2019,3.2.4,60.176858654332804,
17,0,17,0,,,,,,,,,,,,,,,,,682.7898805747245,None,materials/speakPic.jpg,machinery,B_aloud,17,175,679.092093363186,None,679.092093363186,None,680.039197300488,None,680.3056661690644,None,680.3056661690644,None,,,,,,,,,,,,,,,,,,,,,,,,,,,,,,,,,,,sing12,001,2019_Oct_31_1257,ProdFawcett_Revision2019,3.2.4,60.176858654332804,
18,0,18,0,,,,,,,,,,,,,,,,,687.0578242209303,None,materials/singPic.jpg,sleep,C_sing,18,290,683.4076612552017,None,683.4076612552017,None,684.30774118306,None,684.5736987622076,None,684.5736987622076,None,,,,,,,,,,,,,,,,,,,,,,,,,,,,,,,,,,,sing12,001,2019_Oct_31_1257,ProdFawcett_Revision2019,3.2.4,60.176858654332804,
19,0,19,0,,,,,,,,,,,,,,,,,691.3258390868868,None,materials/readPic.jpg,enemy,A_silent,19,113,687.649290290472,None,687.649290290472,None,688.5751642097312,None,688.8416284132545,None,688.8416284132545,None,,,,,,,,,,,,,,,,,,,,,,,,,,,,,,,,,,,sing12,001,2019_Oct_31_1257,ProdFawcett_Revision2019,3.2.4,60.176858654332804,
20,0,20,0,,,,,,,,,,,,,,,,,695.5938480437908,None,materials/singPic.jpg,crime,C_sing,20,78,691.9438138334226,None,691.9438138334226,None,692.843167879575,None,693.1096550973452,None,693.1096550973452,None,,,,,,,,,,,,,,,,,,,,,,,,,,,,,,,,,,,sing12,001,2019_Oct_31_1257,ProdFawcett_Revision2019,3.2.4,60.176858654332804,
21,0,21,0,,,,,,,,,,,,,,,,,699.861880014927,None,materials/singPic.jpg,message,C_sing,21,189,696.1798133980192,None,696.1798133980192,None,697.1111165018374,None,697.3776161597343,None,697.3776161597343,None,,,,,,,,,,,,,,,,,,,,,,,,,,,,,,,,,,,sing12,001,2019_Oct_31_1257,ProdFawcett_Revision2019,3.2.4,60.176858654332804,
22,0,22,0,,,,,,,,,,,,,,,,,704.1298009578895,None,materials/readPic.jpg,poetry,A_silent,22,225,700.4635074951802,None,700.4635074951802,None,701.3791581140686,None,701.64564719786,None,701.64564719786,None,,,,,,,,,,,,,,,,,,,,,,,,,,,,,,,,,,,sing12,001,2019_Oct_31_1257,ProdFawcett_Revision2019,3.2.4,60.176858654332804,
23,0,23,0,,,,,,,,,,,,,,,,,708.397811158793,None,materials/readPic.jpg,commercial,A_silent,23,61,704.7182465634105,None,704.7182465634105,None,705.6490023014194,None,705.9136468246579,None,705.9136468246579,None,,,,,,,,,,,,,,,,,,,,,,,,,,,,,,,,,,,sing12,001,2019_Oct_31_1257,ProdFawcett_Revision2019,3.2.4,60.176858654332804,
24,0,24,0,,,,,,,,,,,,,,,,,712.6657946134219,None,materials/readPic.jpg,character,A_silent,24,46,708.9810421720467,None,708.9810421720467,None,709.915028612304,None,710.1815854948072,None,710.1815854948072,None,,,,,,,,,,,,,,,,,,,,,,,,,,,,,,,,,,,sing12,001,2019_Oct_31_1257,ProdFawcett_Revision2019,3.2.4,60.176858654332804,
25,0,25,0,,,,,,,,,,,,,,,,,716.9337929962057,None,materials/speakPic.jpg,piece,B_aloud,25,221,713.2853162903484,None,713.2853162903484,None,714.1831672575645,None,714.4495810785593,None,714.4495810785593,None,,,,,,,,,,,,,,,,,,,,,,,,,,,,,,,,,,,sing12,001,2019_Oct_31_1257,ProdFawcett_Revision2019,3.2.4,60.176858654332804,
26,0,26,0,,,,,,,,,,,,,,,,,721.2017792498518,None,materials/speakPic.jpg,produce,B_aloud,26,239,717.500430428554,None,717.500430428554,None,718.4510969086259,None,718.7175527150539,None,718.7175527150539,None,,,,,,,,,,,,,,,,,,,,,,,,,,,,,,,,,,,sing12,001,2019_Oct_31_1257,ProdFawcett_Revision2019,3.2.4,60.176858654332804,
27,0,27,0,,,,,,,,,,,,,,,,,725.4697505753575,None,materials/singPic.jpg,burden,C_sing,27,36,721.8195751694875,None,721.8195751694875,None,722.7191067985259,None,722.985558872926,None,722.985558872926,None,,,,,,,,,,,,,,,,,,,,,,,,,,,,,,,,,,,sing12,001,2019_Oct_31_1257,ProdFawcett_Revision2019,3.2.4,60.176858654332804,
28,0,28,0,,,,,,,,,,,,,,,,,729.7377374510106,None,materials/singPic.jpg,reading,C_sing,28,254,726.0566081980505,None,726.0566081980505,None,726.9869910431007,None,727.253618212344,None,727.253618212344,None,,,,,,,,,,,,,,,,,,,,,,,,,,,,,,,,,,,sing12,001,2019_Oct_31_1257,ProdFawcett_Revision2019,3.2.4,60.176858654332804,
29,0,29,0,,,,,,,,,,,,,,,,,734.0057349007839,None,materials/speakPic.jpg,nation,B_aloud,29,198,730.3248519624321,None,730.3248519624321,None,731.2550575355999,None,731.5215229831374,None,731.5215229831374,None,,,,,,,,,,,,,,,,,,,,,,,,,,,,,,,,,,,sing12,001,2019_Oct_31_1257,ProdFawcett_Revision2019,3.2.4,60.176858654332804,
30,0,30,0,,,,,,,,,,,,,,,,,738.2737140013633,None,materials/singPic.jpg,couch,C_sing,30,70,734.6087634508876,None,734.6087634508876,None,735.5230316601373,None,735.7894899545936,None,735.7894899545936,None,,,,,,,,,,,,,,,,,,,,,,,,,,,,,,,,,,,sing12,001,2019_Oct_31_1257,ProdFawcett_Revision2019,3.2.4,60.176858654332804,
31,0,31,0,,,,,,,,,,,,,,,,,742.5417565466196,None,materials/singPic.jpg,working,C_sing,31,357,738.8655821981665,None,738.8655821981665,None,739.7911805685144,None,740.0574986004794,None,740.0574986004794,None,,,,,,,,,,,,,,,,,,,,,,,,,,,,,,,,,,,sing12,001,2019_Oct_31_1257,ProdFawcett_Revision2019,3.2.4,60.176858654332804,
32,0,32,0,,,,,,,,,,,,,,,,,746.8096837096382,None,materials/readPic.jpg,quiet,A_silent,32,249,743.1431722336274,None,743.1431722336274,None,744.058895005277,None,744.3275617341569,None,744.3275617341569,None,,,,,,,,,,,,,,,,,,,,,,,,,,,,,,,,,,,sing12,001,2019_Oct_31_1257,ProdFawcett_Revision2019,3.2.4,60.176858654332804,
33,0,33,0,,,,,,,,,,,,,,,,,751.0776957765775,None,materials/speakPic.jpg,minute,B_aloud,33,192,747.3952979411551,None,747.3952979411551,None,748.3269419045828,None,748.5935616097559,None,748.5935616097559,None,,,,,,,,,,,,,,,,,,,,,,,,,,,,,,,,,,,sing12,001,2019_Oct_31_1257,ProdFawcett_Revision2019,3.2.4,60.176858654332804,
34,0,34,0,,,,,,,,,,,,,,,,,755.3456789201882,None,materials/speakPic.jpg,stand,B_aloud,34,302,751.6610586552124,None,751.6610586552124,None,752.5949038999825,None,752.8614508303726,None,752.8614508303726,None,,,,,,,,,,,,,,,,,,,,,,,,,,,,,,,,,,,sing12,001,2019_Oct_31_1257,ProdFawcett_Revision2019,3.2.4,60.176858654332804,
35,0,35,0,,,,,,,,,,,,,,,,,759.6136402935808,None,materials/singPic.jpg,order,C_sing,35,207,755.9633809168299,None,755.9633809168299,None,756.8629019717628,None,757.1294678733539,None,757.1294678733539,None,,,,,,,,,,,,,,,,,,,,,,,,,,,,,,,,,,,sing12,001,2019_Oct_31_1257,ProdFawcett_Revision2019,3.2.4,60.176858654332804,
36,0,36,0,,,,,,,,,,,,,,,,,763.8816632456292,None,materials/readPic.jpg,audience,A_silent,36,14,760.2153772469901,None,760.2153772469901,None,761.1308863593877,None,761.3974553710286,None,761.3974553710286,None,,,,,,,,,,,,,,,,,,,,,,,,,,,,,,,,,,,sing12,001,2019_Oct_31_1257,ProdFawcett_Revision2019,3.2.4,60.176858654332804,
37,0,37,0,,,,,,,,,,,,,,,,,768.149637370152,None,materials/readPic.jpg,institute,A_silent,37,162,764.4649611245841,None,764.4649611245841,None,765.3988555078686,None,765.6654329165904,None,765.6654329165904,None,,,,,,,,,,,,,,,,,,,,,,,,,,,,,,,,,,,sing12,001,2019_Oct_31_1257,ProdFawcett_Revision2019,3.2.4,60.176858654332804,
38,0,38,0,,,,,,,,,,,,,,,,,772.4176248678268,None,materials/readPic.jpg,hearing,A_silent,38,150,768.7339684020553,None,768.7339684020553,None,769.6671117123769,None,769.9334543136065,None,769.9334543136065,None,,,,,,,,,,,,,,,,,,,,,,,,,,,,,,,,,,,sing12,001,2019_Oct_31_1257,ProdFawcett_Revision2019,3.2.4,60.176858654332804,
39,0,39,0,,,,,,,,,,,,,,,,,776.6856565279595,None,materials/singPic.jpg,level,C_sing,39,170,773.0700363873766,None,773.0700363873766,None,773.93486004851,None,774.201409466943,None,774.201409466943,None,,,,,,,,,,,,,,,,,,,,,,,,,,,,,,,,,,,sing12,001,2019_Oct_31_1257,ProdFawcett_Revision2019,3.2.4,60.176858654332804,
40,0,40,0,,,,,,,,,,,,,,,,,780.9536922311381,None,materials/singPic.jpg,debate,C_sing,40,87,777.2687681159441,None,777.2687681159441,None,778.2029333830869,None,778.4693823474518,None,778.4693823474518,None,,,,,,,,,,,,,,,,,,,,,,,,,,,,,,,,,,,sing12,001,2019_Oct_31_1257,ProdFawcett_Revision2019,3.2.4,60.176858654332804,
41,0,41,0,,,,,,,,,,,,,,,,,785.2216305902839,None,materials/singPic.jpg,balance,C_sing,41,17,781.5370324065443,None,781.5370324065443,None,782.4708257137536,None,782.7374021894648,None,782.7374021894648,None,,,,,,,,,,,,,,,,,,,,,,,,,,,,,,,,,,,sing12,001,2019_Oct_31_1257,ProdFawcett_Revision2019,3.2.4,60.176858654332804,
42,0,42,0,,,,,,,,,,,,,,,,,789.4895729924756,None,materials/readPic.jpg,victory,A_silent,42,346,785.8606627480185,None,785.8606627480185,None,786.7388073023612,None,787.0053862660861,None,787.0053862660861,None,,,,,,,,,,,,,,,,,,,,,,,,,,,,,,,,,,,sing12,001,2019_Oct_31_1257,ProdFawcett_Revision2019,3.2.4,60.176858654332804,
43,0,43,0,,,,,,,,,,,,,,,,,793.7575996765518,None,materials/speakPic.jpg,tough,B_aloud,43,333,790.079379237417,None,790.079379237417,None,791.0067944890179,None,791.273464265716,None,791.273464265716,None,,,,,,,,,,,,,,,,,,,,,,,,,,,,,,,,,,,sing12,001,2019_Oct_31_1257,ProdFawcett_Revision2019,3.2.4,60.176858654332804,
44,0,44,0,,,,,,,,,,,,,,,,,798.0256705231004,None,materials/singPic.jpg,position,C_sing,44,229,794.3752836350031,None,794.3752836350031,None,795.2748563164787,None,795.5413578403968,None,795.5413578403968,None,,,,,,,,,,,,,,,,,,,,,,,,,,,,,,,,,,,sing12,001,2019_Oct_31_1257,ProdFawcett_Revision2019,3.2.4,60.176858654332804,
45,0,45,0,,,,,,,,,,,,,,,,,802.2935429495556,None,materials/speakPic.jpg,bureau,B_aloud,45,37,798.6272292716312,None,798.6272292716312,None,799.5427862785291,None,799.8096106238663,None,799.8096106238663,None,,,,,,,,,,,,,,,,,,,,,,,,,,,,,,,,,,,sing12,001,2019_Oct_31_1257,ProdFawcett_Revision2019,3.2.4,60.176858654332804,
46,0,46,0,,,,,,,,,,,,,,,,,806.5614959258528,None,materials/readPic.jpg,power,A_silent,46,230,802.8949026559712,None,802.8949026559712,None,803.8107600920484,None,804.0773259936541,None,804.0773259936541,None,,,,,,,,,,,,,,,,,,,,,,,,,,,,,,,,,,,sing12,001,2019_Oct_31_1257,ProdFawcett_Revision2019,3.2.4,60.176858654332804,
47,0,47,0,,,,,,,,,,,,,,,,,810.82951701188,None,materials/singPic.jpg,narrow,C_sing,47,197,807.165944517008,None,807.165944517008,None,808.0787227094552,None,808.3453200223885,None,808.3453200223885,None,,,,,,,,,,,,,,,,,,,,,,,,,,,,,,,,,,,sing12,001,2019_Oct_31_1257,ProdFawcett_Revision2019,3.2.4,60.176858654332804,
48,0,48,0,,,,,,,,,,,,,,,,,815.0975225477305,None,materials/readPic.jpg,error,A_silent,48,117,811.4311833675456,None,811.4311833675456,None,812.3468566896772,None,812.6133389313909,None,812.6133389313909,None,,,,,,,,,,,,,,,,,,,,,,,,,,,,,,,,,,,sing12,001,2019_Oct_31_1257,ProdFawcett_Revision2019,3.2.4,60.176858654332804,
49,0,49,0,,,,,,,,,,,,,,,,,819.3657529389748,None,materials/readPic.jpg,rough,A_silent,49,266,815.6835196243046,None,815.6835196243046,None,816.6147291161324,None,816.881285687632,None,816.881285687632,None,,,,,,,,,,,,,,,,,,,,,,,,,,,,,,,,,,,sing12,001,2019_Oct_31_1257,ProdFawcett_Revision2019,3.2.4,60.176858654332804,
50,0,50,0,,,,,,,,,,,,,,,,,823.6334701747837,None,materials/singPic.jpg,group,C_sing,50,143,819.9837152453838,None,819.9837152453838,None,820.8829144118936,None,821.1492818933912,None,821.1492818933912,None,,,,,,,,,,,,,,,,,,,,,,,,,,,,,,,,,,,sing12,001,2019_Oct_31_1257,ProdFawcett_Revision2019,3.2.4,60.176858654332804,
51,0,51,0,,,,,,,,,,,,,,,,,827.901438079236,None,materials/singPic.jpg,platform,C_sing,51,224,824.2169269764272,None,824.2169269764272,None,825.1507078434952,None,825.4172510418575,None,825.4172510418575,None,,,,,,,,,,,,,,,,,,,,,,,,,,,,,,,,,,,sing12,001,2019_Oct_31_1257,ProdFawcett_Revision2019,3.2.4,60.176858654332804,
52,0,52,0,,,,,,,,,,,,,,,,,832.1694644523232,None,materials/readPic.jpg,scale,A_silent,52,272,828.5035227343324,None,828.5035227343324,None,829.418691298124,None,829.6852562667191,None,829.6852562667191,None,,,,,,,,,,,,,,,,,,,,,,,,,,,,,,,,,,,sing12,001,2019_Oct_31_1257,ProdFawcett_Revision2019,3.2.4,60.176858654332804,
53,0,53,0,,,,,,,,,,,,,,,,,836.4374615910929,None,materials/speakPic.jpg,threat,B_aloud,53,329,832.8044498351665,None,832.8044498351665,None,833.6870986502472,None,833.9533068980527,None,833.9533068980527,None,,,,,,,,,,,,,,,,,,,,,,,,,,,,,,,,,,,sing12,001,2019_Oct_31_1257,ProdFawcett_Revision2019,3.2.4,60.176858654332804,
54,0,54,0,,,,,,,,,,,,,,,,,840.7055647819798,None,materials/singPic.jpg,judge,C_sing,54,166,837.0889422777836,None,837.0889422777836,None,837.9546379921667,None,838.2211451141338,None,838.2211451141338,None,,,,,,,,,,,,,,,,,,,,,,,,,,,,,,,,,,,sing12,001,2019_Oct_31_1257,ProdFawcett_Revision2019,3.2.4,60.176858654332804,
55,0,55,0,,,,,,,,,,,,,,,,,844.9734297443501,None,materials/singPic.jpg,background,C_sing,55,16,841.2888754120795,None,841.2888754120795,None,842.2226572121581,None,842.4892280898202,None,842.4892280898202,None,,,,,,,,,,,,,,,,,,,,,,,,,,,,,,,,,,,sing12,001,2019_Oct_31_1257,ProdFawcett_Revision2019,3.2.4,60.176858654332804,
56,0,56,0,,,,,,,,,,,,,,,,,849.2413923617569,None,materials/readPic.jpg,question,A_silent,56,247,845.5763730795588,None,845.5763730795588,None,846.4906400447799,None,846.7572180755087,None,846.7572180755087,None,,,,,,,,,,,,,,,,,,,,,,,,,,,,,,,,,,,sing12,001,2019_Oct_31_1257,ProdFawcett_Revision2019,3.2.4,60.176858654332804,
57,0,57,0,,,,,,,,,,,,,,,,,853.5093941655796,None,materials/readPic.jpg,citizen,A_silent,57,50,849.8248370342626,None,849.8248370342626,None,850.7586175903416,None,851.0275129066285,None,851.0275129066285,None,,,,,,,,,,,,,,,,,,,,,,,,,,,,,,,,,,,sing12,001,2019_Oct_31_1257,ProdFawcett_Revision2019,3.2.4,60.176858654332804,
58,0,58,0,,,,,,,,,,,,,,,,,857.7773819742433,None,materials/readPic.jpg,management,A_silent,58,177,854.0928419481206,None,854.0928419481206,None,855.0266172171396,None,855.2932241711678,None,855.2932241711678,None,,,,,,,,,,,,,,,,,,,,,,,,,,,,,,,,,,,sing12,001,2019_Oct_31_1257,ProdFawcett_Revision2019,3.2.4,60.176858654332804,
59,0,59,0,,,,,,,,,,,,,,,,,862.0454043042846,None,materials/speakPic.jpg,member,B_aloud,59,188,858.3823452758515,None,858.3823452758515,None,859.2945792125392,None,859.5611643963348,None,859.5611643963348,None,,,,,,,,,,,,,,,,,,,,,,,,,,,,,,,,,,,sing12,001,2019_Oct_31_1257,ProdFawcett_Revision2019,3.2.4,60.176858654332804,
60,0,60,0,,,,,,,,,,,,,,,,,866.3133812278393,None,materials/readPic.jpg,grade,A_silent,60,140,862.6468641537504,None,862.6468641537504,None,863.5626043415978,None,863.8291609130974,None,863.8291609130974,None,,,,,,,,,,,,,,,,,,,,,,,,,,,,,,,,,,,sing12,001,2019_Oct_31_1257,ProdFawcett_Revision2019,3.2.4,60.176858654332804,
61,0,61,0,,,,,,,,,,,,,,,,,870.5814349692082,None,materials/speakPic.jpg,spoke,B_aloud,61,300,866.9150681097235,None,866.9150681097235,None,867.8305650929833,None,868.0971499657899,None,868.0971499657899,None,,,,,,,,,,,,,,,,,,,,,,,,,,,,,,,,,,,sing12,001,2019_Oct_31_1257,ProdFawcett_Revision2019,3.2.4,60.176858654332804,
62,0,62,0,,,,,,,,,,,,,,,,,874.8493475150754,None,materials/speakPic.jpg,entrance,B_aloud,62,115,871.1480077128799,None,871.1480077128799,None,872.0985650307848,None,872.3651486595772,None,872.3651486595772,None,,,,,,,,,,,,,,,,,,,,,,,,,,,,,,,,,,,sing12,001,2019_Oct_31_1257,ProdFawcett_Revision2019,3.2.4,60.176858654332804,
63,0,63,0,,,,,,,,,,,,,,,,,879.1173334577325,None,materials/singPic.jpg,agreement,C_sing,63,5,875.4674270697287,None,875.4674270697287,None,876.366551595449,None,876.6331035018957,None,876.6331035018957,None,,,,,,,,,,,,,,,,,,,,,,,,,,,,,,,,,,,sing12,001,2019_Oct_31_1257,ProdFawcett_Revision2019,3.2.4,60.176858654332804,
64,0,64,0,,,,,,,,,,,,,,,,,883.3853249984386,None,materials/speakPic.jpg,dance,B_aloud,64,84,879.7193982086173,None,879.7193982086173,None,880.6347266280936,None,880.9011252099299,None,880.9011252099299,None,,,,,,,,,,,,,,,,,,,,,,,,,,,,,,,,,,,sing12,001,2019_Oct_31_1257,ProdFawcett_Revision2019,3.2.4,60.176858654332804,
65,0,65,0,,,,,,,,,,,,,,,,,887.653304721025,None,materials/readPic.jpg,pretty,A_silent,65,233,883.9867892019683,None,883.9867892019683,None,884.9025324998365,None,885.1691099085583,None,885.1691099085583,None,,,,,,,,,,,,,,,,,,,,,,,,,,,,,,,,,,,sing12,001,2019_Oct_31_1257,ProdFawcett_Revision2019,3.2.4,60.176858654332804,
66,0,66,0,,,,,,,,,,,,,,,,,891.9213031038089,None,materials/readPic.jpg,employment,A_silent,66,111,888.2255451887759,None,888.2255451887759,None,889.1705448777793,None,889.4371039372927,None,889.4371039372927,None,,,,,,,,,,,,,,,,,,,,,,,,,,,,,,,,,,,sing12,001,2019_Oct_31_1257,ProdFawcett_Revision2019,3.2.4,60.176858654332804,
67,0,67,0,,,,,,,,,,,,,,,,,896.1892958885292,None,materials/speakPic.jpg,degree,B_aloud,67,89,892.5232104870229,None,892.5232104870229,None,893.4385186912987,None,893.7050855259004,None,893.7050855259004,None,,,,,,,,,,,,,,,,,,,,,,,,,,,,,,,,,,,sing12,001,2019_Oct_31_1257,ProdFawcett_Revision2019,3.2.4,60.176858654332804,
68,0,68,0,,,,,,,,,,,,,,,,,900.4572833862039,None,materials/speakPic.jpg,shock,B_aloud,68,284,896.7637326615659,None,896.7637326615659,None,897.7065214281174,None,897.973077066621,None,897.973077066621,None,,,,,,,,,,,,,,,,,,,,,,,,,,,,,,,,,,,sing12,001,2019_Oct_31_1257,ProdFawcett_Revision2019,3.2.4,60.176858654332804,
69,0,69,0,,,,,,,,,,,,,,,,,904.7252929651004,None,materials/readPic.jpg,right,A_silent,69,265,901.0587746470119,None,901.0587746470119,None,901.9745055047533,None,902.2410294209112,None,902.2410294209112,None,,,,,,,,,,,,,,,,,,,,,,,,,,,,,,,,,,,sing12,001,2019_Oct_31_1257,ProdFawcett_Revision2019,3.2.4,60.176858654332804,
70,0,70,0,,,,,,,,,,,,,,,,,908.9933261802507,None,materials/readPic.jpg,skill,A_silent,70,289,905.298140200277,None,905.298140200277,None,906.2424883373751,None,906.5090564159909,None,906.5090564159909,None,,,,,,,,,,,,,,,,,,,,,,,,,,,,,,,,,,,sing12,001,2019_Oct_31_1257,ProdFawcett_Revision2019,3.2.4,60.176858654332804,
71,0,71,0,,,,,,,,,,,,,,,,,913.2612601853616,None,materials/speakPic.jpg,opening,B_aloud,71,205,909.585615164513,None,909.585615164513,None,910.5104652609298,None,910.7770467126975,None,910.7770467126975,None,,,,,,,,,,,,,,,,,,,,,,,,,,,,,,,,,,,sing12,001,2019_Oct_31_1257,ProdFawcett_Revision2019,3.2.4,60.176858654332804,
72,0,72,0,,,,,,,,,,,,,,,,,917.5292318218562,None,materials/singPic.jpg,volume,C_sing,72,349,913.8691612241091,None,913.8691612241091,None,914.7784596006677,None,915.0450167941744,None,915.0450167941744,None,,,,,,,,,,,,,,,,,,,,,,,,,,,,,,,,,,,sing12,001,2019_Oct_31_1257,ProdFawcett_Revision2019,3.2.4,60.176858654332804,
73,0,73,0,,,,,,,,,,,,,,,,,921.7972090564144,None,materials/readPic.jpg,article,A_silent,73,11,918.1313429122383,None,918.1313429122383,None,919.0466778627888,None,919.3130192200042,None,919.3130192200042,None,,,,,,,,,,,,,,,,,,,,,,,,,,,,,,,,,,,sing12,001,2019_Oct_31_1257,ProdFawcett_Revision2019,3.2.4,60.176858654332804,
74,0,74,0,,,,,,,,,,,,,,,,,926.0652509796637,None,materials/singPic.jpg,charter,C_sing,74,47,922.4155392797111,None,922.4155392797111,None,923.3144796914858,None,923.5810014306189,None,923.5810014306189,None,,,,,,,,,,,,,,,,,,,,,,,,,,,,,,,,,,,sing12,001,2019_Oct_31_1257,ProdFawcett_Revision2019,3.2.4,60.176858654332804,
75,0,75,0,,,,,,,,,,,,,,,,,930.3331837407459,None,materials/singPic.jpg,command,C_sing,75,60,926.6544265099219,None,926.6544265099219,None,927.582412452568,None,927.8489948373463,None,927.8489948373463,None,,,,,,,,,,,,,,,,,,,,,,,,,,,,,,,,,,,sing12,001,2019_Oct_31_1257,ProdFawcett_Revision2019,3.2.4,60.176858654332804,
76,0,76,0,,,,,,,,,,,,,,,,,934.6011696833884,None,materials/speakPic.jpg,still,B_aloud,76,304,930.9201741618454,None,930.9201741618454,None,931.8504061702988,None,932.117070970955,None,932.117070970955,None,,,,,,,,,,,,,,,,,,,,,,,,,,,,,,,,,,,sing12,001,2019_Oct_31_1257,ProdFawcett_Revision2019,3.2.4,60.176858654332804,
77,0,77,0,,,,,,,,,,,,,,,,,938.8691621571197,None,materials/singPic.jpg,under,C_sing,77,343,935.2036325185036,None,935.2036325185036,None,936.1184026870615,None,936.3849598805682,None,936.3849598805682,None,,,,,,,,,,,,,,,,,,,,,,,,,,,,,,,,,,,sing12,001,2019_Oct_31_1257,ProdFawcett_Revision2019,3.2.4,60.176858654332804,
78,0,78,0,,,,,,,,,,,,,,,,,943.1371337936143,None,materials/singPic.jpg,touch,C_sing,78,332,939.469166822164,None,939.469166822164,None,940.3864150649897,None,940.6529336940876,None,940.6529336940876,None,,,,,,,,,,,,,,,,,,,,,,,,,,,,,,,,,,,sing12,001,2019_Oct_31_1257,ProdFawcett_Revision2019,3.2.4,60.176858654332804,
79,0,79,0,,,,,,,,,,,,,,,,,947.4059084406326,None,materials/readPic.jpg,south,A_silent,79,296,943.73911208559,None,943.73911208559,None,944.6543755053717,None,944.9209131056705,None,944.9209131056705,None,,,,,,,,,,,,,,,,,,,,,,,,,,,,,,,,,,,sing12,001,2019_Oct_31_1257,ProdFawcett_Revision2019,3.2.4,60.176858654332804,
80,0,80,0,,,,,,,,,,,,,,,,,951.6732092430175,None,materials/speakPic.jpg,private,B_aloud,80,237,947.9900575356005,None,947.9900575356005,None,948.9224149405927,None,949.188922995585,None,949.188922995585,None,,,,,,,,,,,,,,,,,,,,,,,,,,,,,,,,,,,sing12,001,2019_Oct_31_1257,ProdFawcett_Revision2019,3.2.4,60.176858654332804,
81,0,81,0,,,,,,,,,,,,,,,,,955.9413992038317,None,materials/speakPic.jpg,conference,B_aloud,81,66,952.2409656652308,None,952.2409656652308,None,953.1902771039313,None,953.4417916899838,None,953.4417916899838,None,,,,,,,,,,,,,,,,,,,,,,,,,,,,,,,,,,,sing12,001,2019_Oct_31_1257,ProdFawcett_Revision2019,3.2.4,60.176858654332804,
82,0,82,0,,,,,,,,,,,,,,,,,960.2091030664888,None,materials/speakPic.jpg,breath,B_aloud,82,27,956.5150712197501,None,956.5150712197501,None,957.4583454624517,None,957.724893325867,None,957.724893325867,None,,,,,,,,,,,,,,,,,,,,,,,,,,,,,,,,,,,sing12,001,2019_Oct_31_1257,ProdFawcett_Revision2019,3.2.4,60.176858654332804,
83,0,83,0,,,,,,,,,,,,,,,,,964.4770824780717,None,materials/speakPic.jpg,problem,B_aloud,83,238,960.7764670025499,None,960.7764670025499,None,961.7263314051088,None,961.9928923306579,None,961.9928923306579,None,,,,,,,,,,,,,,,,,,,,,,,,,,,,,,,,,,,sing12,001,2019_Oct_31_1257,ProdFawcett_Revision2019,3.2.4,60.176858654332804,
84,0,84,0,,,,,,,,,,,,,,,,,968.7451579896733,None,materials/readPic.jpg,guest,A_silent,84,146,965.066708963117,None,965.066708963117,None,965.9943055296317,None,966.2608649001631,None,966.2608649001631,None,,,,,,,,,,,,,,,,,,,,,,,,,,,,,,,,,,,sing12,001,2019_Oct_31_1257,ProdFawcett_Revision2019,3.2.4,60.176858654332804,
85,0,85,0,,,,,,,,,,,,,,,,,973.0130524973501,None,materials/readPic.jpg,public,A_silent,85,244,969.3450404304313,None,969.3450404304313,None,970.2623101324862,None,970.5288635939505,None,970.5288635939505,None,,,,,,,,,,,,,,,,,,,,,,,,,,,,,,,,,,,sing12,001,2019_Oct_31_1257,ProdFawcett_Revision2019,3.2.4,60.176858654332804,
86,0,86,0,,,,,,,,,,,,,,,,,977.2810626982682,None,materials/speakPic.jpg,nature,B_aloud,86,200,973.6147110779275,None,973.6147110779275,None,974.5303075822594,None,974.7968716178293,None,974.7968716178293,None,,,,,,,,,,,,,,,,,,,,,,,,,,,,,,,,,,,sing12,001,2019_Oct_31_1257,ProdFawcett_Revision2019,3.2.4,60.176858654332804,
87,0,87,0,,,,,,,,,,,,,,,,,981.5490340237593,None,materials/readPic.jpg,beauty,A_silent,87,18,977.9160455930833,None,977.9160455930833,None,978.798279218754,None,979.064833613229,None,979.064833613229,None,,,,,,,,,,,,,,,,,,,,,,,,,,,,,,,,,,,sing12,001,2019_Oct_31_1257,ProdFawcett_Revision2019,3.2.4,60.176858654332804,
88,0,88,0,,,,,,,,,,,,,,,,,985.8170320955396,None,materials/readPic.jpg,turkey,A_silent,88,342,982.1239547179139,None,982.1239547179139,None,983.0662720034743,None,983.3328369720693,None,983.3328369720693,None,,,,,,,,,,,,,,,,,,,,,,,,,,,,,,,,,,,sing12,001,2019_Oct_31_1257,ProdFawcett_Revision2019,3.2.4,60.176858654332804,
89,0,89,0,,,,,,,,,,,,,,,,,990.085110406173,None,materials/speakPic.jpg,general,B_aloud,89,135,986.4186601977999,None,986.4186601977999,None,987.3342700752546,None,987.6007893263595,None,987.6007893263595,None,,,,,,,,,,,,,,,,,,,,,,,,,,,,,,,,,,,sing12,001,2019_Oct_31_1257,ProdFawcett_Revision2019,3.2.4,60.176858654332804,
,,,,,,,,,,,,,,,,,,,,,,,,,,,,,,,,,,,,,990.5851415064972,None,k,102.69034770167491,990.5851415064972,None,,,,,,,,,,,,,,,,,,,,,,,,,,,,,sing12,001,2019_Oct_31_1257,ProdFawcett_Revision2019,3.2.4,60.176858654332804,
,,,,,,,,,,,,,,1093.3003321515134,None,space,18.702010325316223,1093.3003321515134,None,,,,,,,,,,,,,,,,,,,,,,,,,,,,,,,,,,,,,,,,,,,,,,,,,,,,sing12,001,2019_Oct_31_1257,ProdFawcett_Revision2019,3.2.4,60.176858654332804,
,,,,0,0,0,0,,,,,,,,,,,,,1122.0759504260786,None,,,,,,,,,,,,,,,,,,,,,,mechanical,D_new,0,185,1112.5448525844404,None,1112.5448525844404,None,1112.5448525844404,None,6,5.185847483982798,1112.5448525844404,None,1117.791087578531,None,1117.791087578531,None,1118.3115904708538,None,1118.3115904708538,None,1118.3115904708538,None,r,3.730601480376208,1118.3115904708538,None,sing12,001,2019_Oct_31_1257,ProdFawcett_Revision2019,3.2.4,60.176858654332804,
,,,,1,0,1,0,,,,,,,,,,,,,1128.2111721714173,None,,,,,,,,,,,,,,,,,,,,,,express,D_new,1,124,1122.5932729986962,None,1122.5932729986962,None,1122.5932729986962,None,6,3.1604596628749277,1122.5932729986962,None,1125.7951794489054,None,1125.7951794489054,None,1126.31047334701,None,1126.31047334701,None,1126.31047334701,None,r,1.8673107545037055,1126.31047334701,None,sing12,001,2019_Oct_31_1257,ProdFawcett_Revision2019,3.2.4,60.176858654332804,
,,,,2,0,2,0,,,,,,,,,,,,,1136.1468175032642,None,,,,,,,,,,,,,,,,,,,,,,primary,D_new,2,234,1128.7285127822397,None,1128.7285127822397,None,1128.7285127822397,None,1,2.8007849723217078,1128.7285127822397,None,1131.5787080923037,None,1131.5787080923037,None,1132.0955287055986,None,1132.0955287055986,None,1132.0955287055986,None,n,4.010209305226454,1132.0955287055986,None,sing12,001,2019_Oct_31_1257,ProdFawcett_Revision2019,3.2.4,60.176858654332804,
,,,,3,0,3,0,,,,,,,,,,,,,1142.182059152823,None,,,,,,,,,,,,,,,,,,,,,,working,C_sing,3,357,1136.6642137836607,None,1136.6642137836607,None,1136.6642137836607,None,3,3.048611992286169,1136.6642137836607,None,1139.7644824905146,None,1139.7644824905146,None,1140.281446476336,None,1140.281446476336,None,1140.281446476336,None,f,1.8631016358704073,1140.281446476336,None,sing12,001,2019_Oct_31_1257,ProdFawcett_Revision2019,3.2.4,60.176858654332804,
,,,,4,0,4,0,,,,,,,,,,,,,1147.7504453567235,None,,,,,,,,,,,,,,,,,,,,,,build,D_new,4,35,1142.6992162716924,None,1142.6992162716924,None,1142.6992162716924,None,1,1.9579296510491986,1142.6992162716924,None,1144.7160446600756,None,1144.7160446600756,None,1145.2330313491257,None,1145.2330313491257,None,1145.2330313491257,None,n,2.479205697585712,1145.2330313491257,None,sing12,001,2019_Oct_31_1257,ProdFawcett_Revision2019,3.2.4,60.176858654332804,
,,,,5,0,5,0,,,,,,,,,,,,,1152.7518604217184,None,,,,,,,,,,,,,,,,,,,,,,crime,C_sing,5,78,1148.2674821173132,None,1148.2674821173132,None,1148.2674821173132,None,6,2.348718355424353,1148.2674821173132,None,1150.657337500772,None,1150.657337500772,None,1151.185038253403,None,1151.185038253403,None,1151.185038253403,None,r,1.5273231946339365,1151.185038253403,None,sing12,001,2019_Oct_31_1257,ProdFawcett_Revision2019,3.2.4,60.176858654332804,
,,,,6,0,6,0,,,,,,,,,,,,,1157.18670523107,None,,,,,,,,,,,,,,,,,,,,,,shear,D_new,6,283,1153.2690756982047,None,1153.2690756982047,None,1153.2690756982047,None,1,1.7393876345013268,1153.2690756982047,None,1155.0693515581224,None,1155.0693515581224,None,1155.5861867885833,None,1155.5861867885833,None,1155.5861867885833,None,n,1.5655591839167755,1155.5861867885833,None,sing12,001,2019_Oct_31_1257,ProdFawcett_Revision2019,3.2.4,60.176858654332804,
,,,,7,0,7,0,,,,,,,,,,,,,1163.6556375567598,None,,,,,,,,,,,,,,,,,,,,,,entrance,B_aloud,7,115,1157.7033333333238,None,1157.7033333333238,None,1157.7033333333238,None,4,3.9767397524410626,1157.7033333333238,None,1161.727011258321,None,1161.727011258321,None,1162.254953971511,None,1162.254953971511,None,1162.254953971511,None,f,1.3607470299175475,1162.254953971511,None,sing12,001,2019_Oct_31_1257,ProdFawcett_Revision2019,3.2.4,60.176858654332804,
,,,,8,0,8,0,,,,,,,,,,,,,1171.2243356969557,None,,,,,,,,,,,,,,,,,,,,,,number,D_new,8,203,1164.1722426447668,None,1164.1722426447668,None,1164.1722426447668,None,2,4.10779436462326,1164.1722426447668,None,1168.3280795546452,None,1168.3280795546452,None,1168.8568383404781,None,1168.8568383404781,None,1168.8568383404781,None,n,2.326399825848057,1168.8568383404781,None,sing12,001,2019_Oct_31_1257,ProdFawcett_Revision2019,3.2.4,60.176858654332804,
,,,,9,0,9,0,,,,,,,,,,,,,1175.1255112894141,None,,,,,,,,,,,,,,,,,,,,,,atmosphere,D_new,9,12,1171.7411258319335,None,1171.7411258319335,None,1171.7411258319335,None,1,1.458412017163937,1171.7411258319335,None,1173.2477775704465,None,1173.2477775704465,None,1173.77520526218,None,1173.77520526218,None,1173.77520526218,None,n,1.3115363562828861,1173.77520526218,None,sing12,001,2019_Oct_31_1257,ProdFawcett_Revision2019,3.2.4,60.176858654332804,
,,,,10,0,10,0,,,,,,,,,,,,,1179.1601402624801,None,,,,,,,,,,,,,,,,,,,,,,research,D_new,10,261,1175.6430055358505,None,1175.6430055358505,None,1175.6430055358505,None,1,1.8194383280497277,1175.6430055358505,None,1177.5119164023054,None,1177.5119164023054,None,1178.0429949617392,None,1178.0429949617392,None,1178.0429949617392,None,n,1.083853641859605,1178.0429949617392,None,sing12,001,2019_Oct_31_1257,ProdFawcett_Revision2019,3.2.4,60.176858654332804,
,,,,11,0,11,0,,,,,,,,,,,,,1183.5114561174269,None,,,,,,,,,,,,,,,,,,,,,,skill,A_silent,11,289,1179.6779038377717,None,1179.6779038377717,None,1179.6779038377717,None,1,3.073382782851695,1179.6779038377717,None,1182.811295017731,None,1182.811295017731,None,1183.3281482863677,None,1183.3281482863677,None,1183.3281482863677,None,n,0.1502298314444488,1183.3281482863677,None,sing12,001,2019_Oct_31_1257,ProdFawcett_Revision2019,3.2.4,60.176858654332804,
,,,,12,0,12,0,,,,,,,,,,,,,1189.4132188841177,None,,,,,,,,,,,,,,,,,,,,,,raise,A_silent,12,250,1184.028274242708,None,1184.028274242708,None,1184.028274242708,None,2,4.361906761201681,1184.028274242708,None,1188.4195568202995,None,1188.4195568202995,None,1188.9464878397703,None,1188.9464878397703,None,1188.9464878397703,None,f,0.41925141506362706,1188.9464878397703,None,sing12,001,2019_Oct_31_1257,ProdFawcett_Revision2019,3.2.4,60.176858654332804,
,,,,13,0,13,0,,,,,,,,,,,,,1193.581175903455,None,,,,,,,,,,,,,,,,,,,,,,edition,C_sing,13,107,1189.9310424830473,None,1189.9310424830473,None,1189.9310424830473,None,2,2.139266343219788,1189.9310424830473,None,1192.1189590719587,None,1192.1189590719587,None,1192.6475244137546,None,1192.6475244137546,None,1192.6475244137546,None,f,0.8859874354675412,1192.6475244137546,None,sing12,001,2019_Oct_31_1257,ProdFawcett_Revision2019,3.2.4,60.176858654332804,
,,,,14,0,14,0,,,,,,,,,,,,,1198.3661332960037,None,,,,,,,,,,,,,,,,,,,,,,court,C_sing,14,75,1194.0981523294176,None,1194.0981523294176,None,1194.0981523294176,None,2,3.355104186106473,1194.0981523294176,None,1197.5157597810467,None,1197.5157597810467,None,1198.0326397959725,None,1198.0326397959725,None,1198.0326397959725,None,n,0.29290912483702414,1198.0326397959725,None,sing12,001,2019_Oct_31_1257,ProdFawcett_Revision2019,3.2.4,60.176858654332804,
,,,,15,0,15,0,,,,,,,,,,,,,1203.8511416930996,None,,,,,,,,,,,,,,,,,,,,,,conference,B_aloud,15,66,1198.885070908742,None,1198.885070908742,None,1198.885070908742,None,6,3.1200724637747044,1198.885070908742,None,1202.0671397026745,None,1202.0671397026745,None,1202.583946320825,None,1202.583946320825,None,1202.583946320825,None,r,1.2209644212271087,1202.583946320825,None,sing12,001,2019_Oct_31_1257,ProdFawcett_Revision2019,3.2.4,60.176858654332804,
,,,,16,0,16,0,,,,,,,,,,,,,1208.3357324127574,None,,,,,,,,,,,,,,,,,,,,,,grade,A_silent,16,140,1204.3682272812002,None,1204.3682272812002,None,1204.3682272812002,None,3,2.9646426572144264,1204.3682272812002,None,1207.3855227965396,None,1207.3855227965396,None,1207.9023832182575,None,1207.9023832182575,None,1207.9023832182575,None,f,0.3911690613895189,1207.9023832182575,None,sing12,001,2019_Oct_31_1257,ProdFawcett_Revision2019,3.2.4,60.176858654332804,
,,,,17,0,17,0,,,,,,,,,,,,,1211.953655843754,None,,,,,,,,,,,,,,,,,,,,,,recall,D_new,17,255,1208.852540896929,None,1208.852540896929,None,1208.852540896929,None,1,1.344520432918216,1208.852540896929,None,1210.253127760152,None,1210.253127760152,None,1210.7698003358819,None,1210.7698003358819,None,1210.7698003358819,None,n,1.138819120489643,1210.7698003358819,None,sing12,001,2019_Oct_31_1257,ProdFawcett_Revision2019,3.2.4,60.176858654332804,
,,,,18,0,18,0,,,,,,,,,,,,,1214.6710045406508,None,,,,,,,,,,,,,,,,,,,,,,death,D_new,18,86,1212.4703921751498,None,1212.4703921751498,None,1212.4703921751498,None,1,1.085948560052202,1212.4703921751498,None,1213.6206773651793,None,1213.6206773651793,None,1214.137631087884,None,1214.137631087884,None,1214.137631087884,None,n,0.49149903589568567,1214.137631087884,None,sing12,001,2019_Oct_31_1257,ProdFawcett_Revision2019,3.2.4,60.176858654332804,
,,,,19,0,19,0,,,,,,,,,,,,,1218.6556571499677,None,,,,,,,,,,,,,,,,,,,,,,style,D_new,19,311,1215.1883068980533,None,1215.1883068980533,None,1215.1883068980533,None,2,2.344261367165018,1215.1883068980533,None,1217.5886402935866,None,1217.5886402935866,None,1218.1055274615937,None,1218.1055274615937,None,1218.1055274615937,None,n,0.5074339118000353,1218.1055274615937,None,sing12,001,2019_Oct_31_1257,ProdFawcett_Revision2019,3.2.4,60.176858654332804,
,,,,20,0,20,0,,,,,,,,,,,,,1222.4401088511513,None,,,,,,,,,,,,,,,,,,,,,,birth,C_sing,20,22,1219.1724115195539,None,1219.1724115195539,None,1219.1724115195539,None,1,2.208463021714124,1219.1724115195539,None,1221.4272103004332,None,1221.4272103004332,None,1221.9566038439953,None,1221.9566038439953,None,1221.9566038439953,None,n,0.4400699757388793,1221.9566038439953,None,sing12,001,2019_Oct_31_1257,ProdFawcett_Revision2019,3.2.4,60.176858654332804,
,,,,21,0,21,0,,,,,,,,,,,,,1227.6084692417644,None,,,,,,,,,,,,,,,,,,,,,,figure,D_new,21,128,1222.9571518318116,None,1222.9571518318116,None,1222.9571518318116,None,2,3.9985880450258264,1222.9571518318116,None,1227.0082251041895,None,1227.0082251041895,None,1227.525127511355,None,1227.525127511355,None,1227.525127511355,None,n,0.03942557690606918,1227.525127511355,None,sing12,001,2019_Oct_31_1257,ProdFawcett_Revision2019,3.2.4,60.176858654332804,
,,,,22,0,22,0,,,,,,,,,,,,,1231.6097238290677,None,,,,,,,,,,,,,,,,,,,,,,vision,D_new,22,347,1228.1252155252878,None,1228.1252155252878,None,1228.1252155252878,None,1,1.8068196802923921,1228.1252155252878,None,1229.9925499160308,None,1229.9925499160308,None,1230.5091895254009,None,1230.5091895254009,None,1230.5091895254009,None,n,1.054112085592351,1230.5091895254009,None,sing12,001,2019_Oct_31_1257,ProdFawcett_Revision2019,3.2.4,60.176858654332804,
,,,,23,0,23,0,,,,,,,,,,,,,1237.3780608944362,None,,,,,,,,,,,,,,,,,,,,,,opening,B_aloud,23,205,1232.1270715929568,None,1232.1270715929568,None,1232.1270715929568,None,6,2.77232319462928,1232.1270715929568,None,1234.9606829632394,None,1234.9606829632394,None,1235.4775688872323,None,1235.4775688872323,None,1235.4775688872323,None,r,1.8533855818823213,1235.4775688872323,None,sing12,001,2019_Oct_31_1257,ProdFawcett_Revision2019,3.2.4,60.176858654332804,
,,,,24,0,24,0,,,,,,,,,,,,,1241.612696709577,None,,,,,,,,,,,,,,,,,,,,,,heavy,D_new,24,151,1237.8950724637689,None,1237.8950724637689,None,1237.8950724637689,None,4,2.7001828699285397,1237.8950724637689,None,1240.6458636561583,None,1240.6458636561583,None,1241.16257417429,None,1241.16257417429,None,1241.16257417429,None,r,0.40918330535350833,1241.16257417429,None,sing12,001,2019_Oct_31_1257,ProdFawcett_Revision2019,3.2.4,60.176858654332804,
,,,,25,0,25,0,,,,,,,,,,,,,1245.9808110965969,None,,,,,,,,,,,,,,,,,,,,,,addition,D_new,25,2,1242.1298871057952,None,1242.1298871057952,None,1242.1298871057952,None,3,2.273404553096043,1242.1298871057952,None,1244.4636303414736,None,1244.4636303414736,None,1244.9805231075443,None,1244.9805231075443,None,1244.9805231075443,None,f,0.9664259501150809,1244.9805231075443,None,sing12,001,2019_Oct_31_1257,ProdFawcett_Revision2019,3.2.4,60.176858654332804,
,,,,26,0,26,0,,,,,,,,,,,,,1249.9987258194888,None,,,,,,,,,,,,,,,,,,,,,,alert,D_new,26,6,1246.497426136717,None,1246.497426136717,None,1246.497426136717,None,2,1.68951763388759,1246.497426136717,None,1248.2482328792685,None,1248.2482328792685,None,1248.7514172420197,None,1248.7514172420197,None,1248.7514172420197,None,f,1.2032614915660815,1248.7514172420197,None,sing12,001,2019_Oct_31_1257,ProdFawcett_Revision2019,3.2.4,60.176858654332804,
,,,,27,0,27,0,,,,,,,,,,,,,1253.533174099648,None,,,,,,,,,,,,,,,,,,,,,,order,C_sing,27,207,1250.5153424146265,None,1250.5153424146265,None,1250.5153424146265,None,6,1.662857498289668,1250.5153424146265,None,1252.2327943646233,None,1252.2327943646233,None,1252.7496112458757,None,1252.7496112458757,None,1252.7496112458757,None,n,0.7414415002858732,1252.7496112458757,None,sing12,001,2019_Oct_31_1257,ProdFawcett_Revision2019,3.2.4,60.176858654332804,
,,,,28,0,28,0,,,,,,,,,,,,,1258.7848000248778,None,,,,,,,,,,,,,,,,,,,,,,block,D_new,28,25,1254.0499228711851,None,1254.0499228711851,None,1254.0499228711851,None,3,3.832022454444086,1254.0499228711851,None,1257.9344868445623,None,1257.9344868445623,None,1258.451413820978,None,1258.451413820978,None,1258.451413820978,None,f,0.2947854077356169,1258.451413820978,None,sing12,001,2019_Oct_31_1257,ProdFawcett_Revision2019,3.2.4,60.176858654332804,
,,,,29,0,29,0,,,,,,,,,,,,,1262.7360334639525,None,,,,,,,,,,,,,,,,,,,,,,burden,C_sing,29,36,1259.3014676245512,None,1259.3014676245512,None,1259.3014676245512,None,6,1.7802441375970375,1259.3014676245512,None,1261.1355162654654,None,1261.1355162654654,None,1261.6522892952635,None,1261.6522892952635,None,1261.6522892952635,None,r,1.0453514337277738,1261.6522892952635,None,sing12,001,2019_Oct_31_1257,ProdFawcett_Revision2019,3.2.4,60.176858654332804,
,,,,30,0,30,0,,,,,,,,,,,,,1266.853961248984,None,,,,,,,,,,,,,,,,,,,,,,income,D_new,30,159,1263.2531591714796,None,1263.2531591714796,None,1263.2531591714796,None,3,2.300544566780445,1263.2531591714796,None,1265.6035771599127,None,1265.6035771599127,None,1266.1202659078117,None,1266.1202659078117,None,1266.1202659078117,None,f,0.6972019033419201,1266.1202659078117,None,sing12,001,2019_Oct_31_1257,ProdFawcett_Revision2019,3.2.4,60.176858654332804,
,,,,31,0,31,0,,,,,,,,,,,,,1271.3053788020188,None,,,,,,,,,,,,,,,,,,,,,,second,D_new,31,278,1267.3706294706644,None,1267.3706294706644,None,1267.3706294706644,None,3,2.382630465886905,1267.3706294706644,None,1269.80476208248,None,1269.80476208248,None,1270.321588604842,None,1270.321588604842,None,1270.321588604842,None,n,0.9355193755036453,1270.321588604842,None,sing12,001,2019_Oct_31_1257,ProdFawcett_Revision2019,3.2.4,60.176858654332804,
,,,,32,0,32,0,,,,,,,,,,,,,1275.0230643154791,None,,,,,,,,,,,,,,,,,,,,,,beauty,A_silent,32,18,1271.8227663743164,None,1271.8227663743164,None,1271.8227663743164,None,4,2.0424227156763664,1271.8227663743164,None,1273.9100566026027,None,1273.9100566026027,None,1274.422859053302,None,1274.422859053302,None,1274.422859053302,None,r,0.5620112583128503,1274.422859053302,None,sing12,001,2019_Oct_31_1257,ProdFawcett_Revision2019,3.2.4,60.176858654332804,
,,,,33,0,33,0,,,,,,,,,,,,,1278.390768800149,None,,,,,,,,,,,,,,,,,,,,,,emergency,D_new,33,110,1275.5398469863721,None,1275.5398469863721,None,1275.5398469863721,None,1,2.020781551284017,1275.5398469863721,None,1277.6125045095396,None,1277.6125045095396,None,1278.1406394227815,None,1278.1406394227815,None,1278.1406394227815,None,n,0.2120174783776747,1278.1406394227815,None,sing12,001,2019_Oct_31_1257,ProdFawcett_Revision2019,3.2.4,60.176858654332804,
,,,,34,0,34,0,,,,,,,,,,,,,1282.6922482428345,None,,,,,,,,,,,,,,,,,,,,,,track,D_new,34,334,1278.907885799592,None,1278.907885799592,None,1278.907885799592,None,2,2.988497543075937,1278.907885799592,None,1281.9587261304987,None,1281.9587261304987,None,1282.4755053803528,None,1282.4755053803528,None,1282.4755053803528,None,n,0.1809896124905208,1282.4755053803528,None,sing12,001,2019_Oct_31_1257,ProdFawcett_Revision2019,3.2.4,60.176858654332804,
,,,,35,0,35,0,,,,,,,,,,,,,1287.1268893450178,None,,,,,,,,,,,,,,,,,,,,,,revolution,B_aloud,35,264,1283.2113068358449,None,1283.2113068358449,None,1283.2113068358449,None,6,2.4932353672920726,1283.2113068358449,None,1285.7598071779503,None,1285.7598071779503,None,1286.276740374451,None,1286.276740374451,None,1286.276740374451,None,r,0.8033118741150247,1286.276740374451,None,sing12,001,2019_Oct_31_1257,ProdFawcett_Revision2019,3.2.4,60.176858654332804,
,,,,36,0,36,0,,,,,,,,,,,,,1290.3112433911738,None,,,,,,,,,,,,,,,,,,,,,,stand,B_aloud,36,302,1287.6439503638685,None,1287.6439503638685,None,1287.6439503638685,None,6,1.9481625925254775,1287.6439503638685,None,1289.6442915344815,None,1289.6442915344815,None,1290.1612091808202,None,1290.1612091808202,None,1290.1612091808202,None,r,0.11115910927765071,1290.1612091808202,None,sing12,001,2019_Oct_31_1257,ProdFawcett_Revision2019,3.2.4,60.176858654332804,
,,,,37,0,37,0,,,,,,,,,,,,,1293.145352055726,None,,,,,,,,,,,,,,,,,,,,,,present,B_aloud,37,231,1290.8283771847928,None,1290.8283771847928,None,1290.8283771847928,None,6,1.5082798407675,1290.8283771847928,None,1292.3952086832142,None,1292.3952086832142,None,1292.912050133731,None,1292.912050133731,None,1292.912050133731,None,r,0.20010885114606936,1292.912050133731,None,sing12,001,2019_Oct_31_1257,ProdFawcett_Revision2019,3.2.4,60.176858654332804,
,,,,38,0,38,0,,,,,,,,,,,,,1298.1301691857952,None,,,,,,,,,,,,,,,,,,,,,,degree,B_aloud,38,89,1293.6623997014394,None,1293.6623997014394,None,1293.6623997014394,None,6,1.225608011445729,1293.6623997014394,None,1294.9458655221679,None,1294.9458655221679,None,1295.4628407041018,None,1295.4628407041018,None,1295.4628407041018,None,r,2.6255635379784508,1295.4628407041018,None,sing12,001,2019_Oct_31_1257,ProdFawcett_Revision2019,3.2.4,60.176858654332804,
,,,,39,0,39,0,,,,,,,,,,,,,1301.714773278596,None,,,,,,,,,,,,,,,,,,,,,,payment,D_new,39,215,1298.647697020584,None,1298.647697020584,None,1298.647697020584,None,6,1.6084891459759092,1298.647697020584,None,1300.3141985444963,None,1300.3141985444963,None,1300.8311740374484,None,1300.8311740374484,None,1300.8311740374484,None,r,0.8482941469119396,1300.8311740374484,None,sing12,001,2019_Oct_31_1257,ProdFawcett_Revision2019,3.2.4,60.176858654332804,
,,,,40,0,40,0,,,,,,,,,,,,,1306.499515145857,None,,,,,,,,,,,,,,,,,,,,,,private,B_aloud,40,237,1302.2314219070686,None,1302.2314219070686,None,1302.2314219070686,None,2,1.6797651925153332,1302.2314219070686,None,1303.952974435524,None,1303.952974435524,None,1304.4821166884358,None,1304.4821166884358,None,1304.4821166884358,None,f,1.9730515643459512,1304.4821166884358,None,sing12,001,2019_Oct_31_1257,ProdFawcett_Revision2019,3.2.4,60.176858654332804,
,,,,41,0,41,0,,,,,,,,,,,,,1311.4511059277138,None,,,,,,,,,,,,,,,,,,,,,,poetry,A_silent,41,225,1307.0163948497793,None,1307.0163948497793,None,1307.0163948497793,None,1,3.543213908065809,1307.0163948497793,None,1310.604965478633,None,1310.604965478633,None,1311.1175427629496,None,1311.1175427629496,None,1311.1175427629496,None,n,0.29708589911751915,1311.1175427629496,None,sing12,001,2019_Oct_31_1257,ProdFawcett_Revision2019,3.2.4,60.176858654332804,
,,,,42,0,42,0,,,,,,,,,,,,,1314.6354338496021,None,,,,,,,,,,,,,,,,,,,,,,narrow,C_sing,42,197,1311.967944890217,None,1311.967944890217,None,1311.967944890217,None,1,1.3831246501213172,1311.967944890217,None,1313.401586427819,None,1313.401586427819,None,1313.9186430926202,None,1313.9186430926202,None,1313.9186430926202,None,n,0.6799552155280253,1313.9186430926202,None,sing12,001,2019_Oct_31_1257,ProdFawcett_Revision2019,3.2.4,60.176858654332804,
,,,,43,0,43,0,,,,,,,,,,,,,1318.2530652484857,None,,,,,,,,,,,,,,,,,,,,,,motion,C_sing,43,194,1315.1525153946568,None,1315.1525153946568,None,1315.1525153946568,None,6,2.3979507992771687,1315.1525153946568,None,1317.6029946507333,None,1317.6029946507333,None,1318.1198588044936,None,1318.1198588044936,None,1318.1198588044936,None,r,0.09470143682847265,1318.1198588044936,None,sing12,001,2019_Oct_31_1257,ProdFawcett_Revision2019,3.2.4,60.176858654332804,
,,,,44,0,44,0,,,,,,,,,,,,,1322.4713528643333,None,,,,,,,,,,,,,,,,,,,,,,period,D_new,44,217,1318.7699701436795,None,1318.7699701436795,None,1318.7699701436795,None,6,1.4446258630341617,1318.7699701436795,None,1320.2704864091502,None,1320.2704864091502,None,1320.7873682900972,None,1320.7873682900972,None,1320.7873682900972,None,r,1.6430036698438926,1320.7873682900972,None,sing12,001,2019_Oct_31_1257,ProdFawcett_Revision2019,3.2.4,60.176858654332804,
,,,,45,0,45,0,,,,,,,,,,,,,1326.2723455868545,None,,,,,,,,,,,,,,,,,,,,,,goose,D_new,45,138,1322.9889335696935,None,1322.9889335696935,None,1322.9889335696935,None,1,1.385089879957377,1322.9889335696935,None,1324.4385068731644,None,1324.4385068731644,None,1324.9552833240014,None,1324.9552833240014,None,1324.9552833240014,None,n,1.2829993157938588,1324.9552833240014,None,sing12,001,2019_Oct_31_1257,ProdFawcett_Revision2019,3.2.4,60.176858654332804,
,,,,46,0,46,0,,,,,,,,,,,,,1329.0398494744004,None,,,,,,,,,,,,,,,,,,,,,,engineer,D_new,46,114,1326.7898239721253,None,1326.7898239721253,None,1326.7898239721253,None,1,1.3279312060767552,1326.7898239721253,None,1328.1606363127357,None,1328.1606363127357,None,1328.6896392361668,None,1328.6896392361668,None,1328.6896392361668,None,n,0.3086213223868981,1328.6896392361668,None,sing12,001,2019_Oct_31_1257,ProdFawcett_Revision2019,3.2.4,60.176858654332804,
,,,,47,0,47,0,,,,,,,,,,,,,1332.224159980091,None,,,,,,,,,,,,,,,,,,,,,,course,D_new,47,74,1329.5566448964382,None,1329.5566448964382,None,1329.5566448964382,None,6,1.5368896560248686,1329.5566448964382,None,1331.1571530758229,None,1331.1571530758229,None,1331.6740548609814,None,1331.6740548609814,None,1331.6740548609814,None,r,0.5158813833404565,1331.6740548609814,None,sing12,001,2019_Oct_31_1257,ProdFawcett_Revision2019,3.2.4,60.176858654332804,
,,,,48,0,48,0,,,,,,,,,,,,,1334.7249741867272,None,,,,,,,,,,,,,,,,,,,,,,commercial,A_silent,48,61,1332.7427166137932,None,1332.7427166137932,None,1332.7427166137932,None,6,1.2310981526388787,1332.7427166137932,None,1334.012868694408,None,1334.012868694408,None,1334.5413749455765,None,1334.5413749455765,None,1334.5413749455765,None,r,0.13591963674116414,1334.5413749455765,None,sing12,001,2019_Oct_31_1257,ProdFawcett_Revision2019,3.2.4,60.176858654332804,
,,,,49,0,49,0,,,,,,,,,,,,,1338.1092483050306,None,,,,,,,,,,,,,,,,,,,,,,pancakes,D_new,49,210,1335.2417789388564,None,1335.2417789388564,None,1335.2417789388564,None,1,1.3957121975399787,1335.2417789388564,None,1336.6808574360912,None,1336.6808574360912,None,1337.208992660322,None,1337.208992660322,None,1337.208992660322,None,n,0.8521446787344757,1337.208992660322,None,sing12,001,2019_Oct_31_1257,ProdFawcett_Revision2019,3.2.4,60.176858654332804,
,,,,50,0,50,0,,,,,,,,,,,,,1341.1936188343534,None,,,,,,,,,,,,,,,,,,,,,,crowd,D_new,50,81,1338.6261034396884,None,1338.6261034396884,None,1338.6261034396884,None,1,1.8917717857839307,1338.6261034396884,None,1340.576722336249,None,1340.576722336249,None,1341.0936303414783,None,1341.0936303414783,None,1341.0936303414783,None,n,0.06342818934354,1341.0936303414783,None,sing12,001,2019_Oct_31_1257,ProdFawcett_Revision2019,3.2.4,60.176858654332804,
,,,,51,0,51,0,,,,,,,,,,,,,1347.4955840641924,None,,,,,,,,,,,,,,,,,,,,,,brilliant,D_new,51,30,1341.7104979162687,None,1341.7104979162687,None,1341.7104979162687,None,6,3.086389873744338,1341.7104979162687,None,1344.8613068358536,None,1344.8613068358536,None,1345.3782468744175,None,1345.3782468744175,None,1345.3782468744175,None,n,2.075146482544369,1345.3782468744175,None,sing12,001,2019_Oct_31_1257,ProdFawcett_Revision2019,3.2.4,60.176858654332804,
,,,,52,0,52,0,,,,,,,,,,,,,1352.93051377745,None,,,,,,,,,,,,,,,,,,,,,,article,A_silent,52,11,1348.0122771661408,None,1348.0122771661408,None,1348.0122771661408,None,2,3.9124808732885867,1348.0122771661408,None,1351.9802612427593,None,1351.9802612427593,None,1352.497163649925,None,1352.497163649925,None,1352.497163649925,None,r,0.3870840330782812,1352.497163649925,None,sing12,001,2019_Oct_31_1257,ProdFawcett_Revision2019,3.2.4,60.176858654332804,
,,,,53,0,53,0,,,,,,,,,,,,,1358.1322084343992,None,,,,,,,,,,,,,,,,,,,,,,length,D_new,53,169,1353.4474136965873,None,1353.4474136965873,None,1353.4474136965873,None,1,3.10948249050125,1353.4474136965873,None,1356.6150351433753,None,1356.6150351433753,None,1357.1317711637676,None,1357.1317711637676,None,1357.1317711637676,None,n,0.9604920072160894,1357.1317711637676,None,sing12,001,2019_Oct_31_1257,ProdFawcett_Revision2019,3.2.4,60.176858654332804,
,,,,54,0,54,0,,,,,,,,,,,,,1362.4169145362976,None,,,,,,,,,,,,,,,,,,,,,,spoke,B_aloud,54,300,1358.6490943583922,None,1358.6490943583922,None,1358.6490943583922,None,6,1.8672715680877445,1358.6490943583922,None,1360.5554413136706,None,1360.5554413136706,None,1361.0831635255308,None,1361.0831635255308,None,1361.0831635255308,None,r,1.2886959631723585,1361.0831635255308,None,sing12,001,2019_Oct_31_1257,ProdFawcett_Revision2019,3.2.4,60.176858654332804,
,,,,55,0,55,0,,,,,,,,,,,,,1365.6011833675439,None,,,,,,,,,,,,,,,,,,,,,,still,B_aloud,55,304,1362.9337774460437,None,1362.9337774460437,None,1362.9337774460437,None,6,1.7979766125645256,1362.9337774460437,None,1364.7841323008033,None,1364.7841323008033,None,1365.3011224108923,None,1365.3011224108923,None,1365.3011224108923,None,r,0.2625374758936232,1365.3011224108923,None,sing12,001,2019_Oct_31_1257,ProdFawcett_Revision2019,3.2.4,60.176858654332804,
,,,,56,0,56,0,,,,,,,,,,,,,1371.6196364371426,None,,,,,,,,,,,,,,,,,,,,,,meeting,D_new,56,187,1366.1185441935668,None,1366.1185441935668,None,1366.1185441935668,None,3,4.380870809225598,1366.1185441935668,None,1370.5526954655652,None,1370.5526954655652,None,1371.0695571312972,None,1371.0695571312972,None,1371.0695571312972,None,f,0.5016968339914456,1371.0695571312972,None,sing12,001,2019_Oct_31_1257,ProdFawcett_Revision2019,3.2.4,60.176858654332804,
,,,,57,0,57,0,,,,,,,,,,,,,1374.8540054114565,None,,,,,,,,,,,,,,,,,,,,,,society,C_sing,57,293,1372.1365783417277,None,1372.1365783417277,None,1372.1365783417277,None,6,1.4268619767244672,1372.1365783417277,None,1373.6088660819805,None,1373.6088660819805,None,1374.1370184113912,None,1374.1370184113912,None,1374.1370184113912,None,r,0.6748292591946665,1374.1370184113912,None,sing12,001,2019_Oct_31_1257,ProdFawcett_Revision2019,3.2.4,60.176858654332804,
,,,,58,0,58,0,,,,,,,,,,,,,1378.3716884368914,None,,,,,,,,,,,,,,,,,,,,,,signal,D_new,58,287,1375.3713886297191,None,1375.3713886297191,None,1375.3713886297191,None,3,1.8403654288704274,1375.3713886297191,None,1377.271503078926,None,1377.271503078926,None,1377.7883131181152,None,1377.7883131181152,None,1377.7883131181152,None,f,0.5504761460470036,1377.7883131181152,None,sing12,001,2019_Oct_31_1257,ProdFawcett_Revision2019,3.2.4,60.176858654332804,
,,,,59,0,59,0,,,,,,,,,,,,,1381.8563158549514,None,,,,,,,,,,,,,,,,,,,,,,pretty,A_silent,59,233,1378.888654910741,None,1378.888654910741,None,1378.888654910741,None,1,2.1068352304428117,1378.888654910741,None,1381.0445991167508,None,1381.0445991167508,None,1381.5728195558913,None,1381.5728195558913,None,1381.5728195558913,None,n,0.2378214219061192,1381.5728195558913,None,sing12,001,2019_Oct_31_1257,ProdFawcett_Revision2019,3.2.4,60.176858654332804,
,,,,60,0,60,0,,,,,,,,,,,,,1385.9573931703635,None,,,,,,,,,,,,,,,,,,,,,,history,D_new,60,153,1382.3736011071742,None,1382.3736011071742,None,1382.3736011071742,None,3,2.6129249860096024,1382.3736011071742,None,1385.0406487528671,None,1385.0406487528671,None,1385.557384151267,None,1385.557384151267,None,1385.557384151267,None,f,0.36509858805220574,1385.557384151267,None,sing12,001,2019_Oct_31_1257,ProdFawcett_Revision2019,3.2.4,60.176858654332804,
,,,,61,0,61,0,,,,,,,,,,,,,1389.9587012502307,None,,,,,,,,,,,,,,,,,,,,,,patient,B_aloud,61,213,1386.474795359827,None,1386.474795359827,None,1386.474795359827,None,6,2.647501399507746,1386.474795359827,None,1389.1752363624983,None,1389.1752363624983,None,1389.6923499409022,None,1389.6923499409022,None,1389.6923499409022,None,r,0.22992131616047118,1389.6923499409022,None,sing12,001,2019_Oct_31_1257,ProdFawcett_Revision2019,3.2.4,60.176858654332804,
,,,,62,0,62,0,,,,,,,,,,,,,1393.6097555513988,None,,,,,,,,,,,,,,,,,,,,,,error,A_silent,62,117,1390.4755759780965,None,1390.4755759780965,None,1390.4755759780965,None,1,2.422600609555957,1390.4755759780965,None,1392.959624308016,None,1392.959624308016,None,1393.4764903277974,None,1393.4764903277974,None,1393.4764903277974,None,n,0.09387572309060488,1393.4764903277974,None,sing12,001,2019_Oct_31_1257,ProdFawcett_Revision2019,3.2.4,60.176858654332804,
,,,,63,0,63,0,,,,,,,,,,,,,1396.3773138645192,None,,,,,,,,,,,,,,,,,,,,,,weight,D_new,63,353,1394.127939914164,None,1394.127939914164,None,1394.127939914164,None,6,1.5942215587419923,1394.127939914164,None,1395.777155252843,None,1395.777155252843,None,1396.294067612107,None,1396.294067612107,None,1396.294067612107,None,r,0.03582540273782797,1396.294067612107,None,sing12,001,2019_Oct_31_1257,ProdFawcett_Revision2019,3.2.4,60.176858654332804,
,,,,64,0,64,0,,,,,,,,,,,,,1400.5952683958458,None,,,,,,,,,,,,,,,,,,,,,,debate,C_sing,64,87,1396.8942081856076,None,1396.8942081856076,None,1396.8942081856076,None,6,1.4675091745884856,1396.8942081856076,None,1398.4112119798374,None,1398.4112119798374,None,1398.9281952478632,None,1398.9281952478632,None,1398.9281952478632,None,r,1.6261581762810238,1398.9281952478632,None,sing12,001,2019_Oct_31_1257,ProdFawcett_Revision2019,3.2.4,60.176858654332804,
,,,,65,0,65,0,,,,,,,,,,,,,1403.4128985507268,None,,,,,,,,,,,,,,,,,,,,,,evidence,D_new,65,120,1401.1120352055732,None,1401.1120352055732,None,1401.1120352055732,None,6,1.161758412636118,1401.1120352055732,None,1402.313874479063,None,1402.313874479063,None,1402.8294118927588,None,1402.8294118927588,None,1402.8294118927588,None,r,0.5408036325243302,1402.8294118927588,None,sing12,001,2019_Oct_31_1257,ProdFawcett_Revision2019,3.2.4,60.176858654332804,
,,,,66,0,66,0,,,,,,,,,,,,,1406.9305588729185,None,,,,,,,,,,,,,,,,,,,,,,owner,D_new,66,208,1403.9296454562427,None,1403.9296454562427,None,1403.9296454562427,None,2,2.1677150587784126,1403.9296454562427,None,1406.14695465572,None,1406.14695465572,None,1406.6638281395717,None,1406.6638281395717,None,1406.6638281395717,None,f,0.23368134602787904,1406.6638281395717,None,sing12,001,2019_Oct_31_1257,ProdFawcett_Revision2019,3.2.4,60.176858654332804,
,,,,67,0,67,0,,,,,,,,,,,,,1411.4987510107603,None,,,,,,,,,,,,,,,,,,,,,,expansion,D_new,67,123,1407.4475959445117,None,1407.4475959445117,None,1407.4475959445117,None,1,1.3616965229739435,1407.4475959445117,None,1408.8536073272408,None,1408.8536073272408,None,1409.381393294767,None,1409.381393294767,None,1409.381393294767,None,n,2.08386421596515,1409.381393294767,None,sing12,001,2019_Oct_31_1257,ProdFawcett_Revision2019,3.2.4,60.176858654332804,
,,,,68,0,68,0,,,,,,,,,,,,,1417.4838555078604,None,,,,,,,,,,,,,,,,,,,,,,interview,D_new,68,165,1412.0163988928252,None,1412.0163988928252,None,1412.0163988928252,None,1,4.441057411211659,1412.0163988928252,None,1416.5043975866138,None,1416.5043975866138,None,1417.0336580207659,None,1417.0336580207659,None,1417.0336580207659,None,n,0.4077629532839637,1417.0336580207659,None,sing12,001,2019_Oct_31_1257,ProdFawcett_Revision2019,3.2.4,60.176858654332804,
,,,,69,0,69,0,,,,,,,,,,,,,1421.2349822728138,None,,,,,,,,,,,,,,,,,,,,,,reach,D_new,69,253,1418.0006624370144,None,1418.0006624370144,None,1418.0006624370144,None,3,2.4716837718588067,1418.0006624370144,None,1420.5224656341306,None,1420.5224656341306,None,1421.0516847048566,None,1421.0516847048566,None,1421.0516847048566,None,f,0.14901474154612515,1421.0516847048566,None,sing12,001,2019_Oct_31_1257,ProdFawcett_Revision2019,3.2.4,60.176858654332804,
,,,,70,0,70,0,,,,,,,,,,,,,1424.7361902096163,None,,,,,,,,,,,,,,,,,,,,,,mayor,D_new,70,183,1421.7518865460006,None,1421.7518865460006,None,1421.7518865460006,None,1,1.6091354108357336,1421.7518865460006,None,1423.4190999564598,None,1423.4190999564598,None,1423.9358443739475,None,1423.9358443739475,None,1423.9358443739475,None,n,0.7606876282952726,1423.9358443739475,None,sing12,001,2019_Oct_31_1257,ProdFawcett_Revision2019,3.2.4,60.176858654332804,
,,,,71,0,71,0,,,,,,,,,,,,,1429.40534365864,None,,,,,,,,,,,,,,,,,,,,,,right,A_silent,71,265,1425.252919076942,None,1425.252919076942,None,1425.252919076942,None,6,2.6758947564812843,1425.252919076942,None,1427.987097406236,None,1427.987097406236,None,1428.5040377558034,None,1428.5040377558034,None,1428.5040377558034,None,r,0.8639963923487812,1428.5040377558034,None,sing12,001,2019_Oct_31_1257,ProdFawcett_Revision2019,3.2.4,60.176858654332804,
,,,,72,0,72,0,,,,,,,,,,,,,1433.989043353853,None,,,,,,,,,,,,,,,,,,,,,,medicine,D_new,72,186,1429.9210431050597,None,1429.9210431050597,None,1429.9210431050597,None,4,3.1186462026525987,1429.9210431050597,None,1433.0931734776386,None,1433.0931734776386,None,1433.6221477887593,None,1433.6221477887593,None,1433.6221477887593,None,f,0.32154319835535716,1433.6221477887593,None,sing12,001,2019_Oct_31_1257,ProdFawcett_Revision2019,3.2.4,60.176858654332804,
,,,,73,0,73,0,,,,,,,,,,,,,1438.1235591217264,None,,,,,,,,,,,,,,,,,,,,,,force,D_new,73,131,1434.5058337998344,None,1434.5058337998344,None,1434.5058337998344,None,6,2.8375219257286517,1434.5058337998344,None,1437.406797288044,None,1437.406797288044,None,1437.9236182123568,None,1437.9236182123568,None,1437.9236182123568,None,r,0.15643807924061548,1437.9236182123568,None,sing12,001,2019_Oct_31_1257,ProdFawcett_Revision2019,3.2.4,60.176858654332804,
,,,,74,0,74,0,,,,,,,,,,,,,1444.9423359457578,None,,,,,,,,,,,,,,,,,,,,,,sleep,C_sing,74,290,1438.6406220065837,None,1438.6406220065837,None,1438.6406220065837,None,6,3.4544747154286597,1438.6406220065837,None,1442.147563911174,None,1442.147563911174,None,1442.675045406475,None,1442.675045406475,None,1442.675045406475,None,r,2.2198827517568134,1442.675045406475,None,sing12,001,2019_Oct_31_1257,ProdFawcett_Revision2019,3.2.4,60.176858654332804,
,,,,75,0,75,0,,,,,,,,,,,,,1450.2274255147058,None,,,,,,,,,,,,,,,,,,,,,,under,C_sing,75,343,1445.4592654102162,None,1445.4592654102162,None,1445.4592654102162,None,2,3.627889220631914,1445.4592654102162,None,1449.143702183239,None,1449.143702183239,None,1449.660574423091,None,1449.660574423091,None,1449.660574423091,None,f,0.5302061951806536,1449.660574423091,None,sing12,001,2019_Oct_31_1257,ProdFawcett_Revision2019,3.2.4,60.176858654332804,
,,,,76,0,76,0,,,,,,,,,,,,,1454.5952820799866,None,,,,,,,,,,,,,,,,,,,,,,public,A_silent,76,244,1450.7443761273898,None,1450.7443761273898,None,1450.7443761273898,None,6,2.742989052683697,1450.7443761273898,None,1453.5449788517726,None,1453.5449788517726,None,1454.0619705168792,None,1454.0619705168792,None,1454.0619705168792,None,r,0.48838371587044094,1454.0619705168792,None,sing12,001,2019_Oct_31_1257,ProdFawcett_Revision2019,3.2.4,60.176858654332804,
,,,,77,0,77,0,,,,,,,,,,,,,1461.0640968464286,None,,,,,,,,,,,,,,,,,,,,,,graduate,D_new,77,141,1455.1135152702627,None,1455.1135152702627,None,1455.1135152702627,None,2,3.4686095042561647,1455.1135152702627,None,1458.6465618585498,None,1458.6465618585498,None,1459.1635385955014,None,1459.1635385955014,None,1459.1635385955014,None,f,1.866961186795379,1459.1635385955014,None,sing12,001,2019_Oct_31_1257,ProdFawcett_Revision2019,3.2.4,60.176858654332804,
,,,,78,0,78,0,,,,,,,,,,,,,1464.798510916211,None,,,,,,,,,,,,,,,,,,,,,,threat,B_aloud,78,329,1461.580740187841,None,1461.580740187841,None,1461.580740187841,None,6,1.9371188654622529,1461.580740187841,None,1463.5694628972997,None,1463.5694628972997,None,1464.0983212042047,None,1464.0983212042047,None,1464.0983212042047,None,r,0.667446040926734,1464.0983212042047,None,sing12,001,2019_Oct_31_1257,ProdFawcett_Revision2019,3.2.4,60.176858654332804,
,,,,79,0,79,0,,,,,,,,,,,,,1468.3328590533056,None,,,,,,,,,,,,,,,,,,,,,,institute,A_silent,79,162,1465.3211448031361,None,1465.3211448031361,None,1465.3211448031361,None,6,1.8853405486152042,1465.3211448031361,None,1467.265871120224,None,1467.265871120224,None,1467.7828531442356,None,1467.7828531442356,None,1467.7828531442356,None,r,0.5027113267424284,1467.7828531442356,None,sing12,001,2019_Oct_31_1257,ProdFawcett_Revision2019,3.2.4,60.176858654332804,
,,,,80,0,80,0,,,,,,,,,,,,,1471.6840262486803,None,,,,,,,,,,,,,,,,,,,,,,partner,D_new,80,211,1468.8503704049217,None,1468.8503704049217,None,1468.8503704049217,None,1,1.7152198793337448,1468.8503704049217,None,1470.6169011631428,None,1470.6169011631428,None,1471.1339183305245,None,1471.1339183305245,None,1471.1339183305245,None,n,0.5116072650271235,1471.1339183305245,None,sing12,001,2019_Oct_31_1257,ProdFawcett_Revision2019,3.2.4,60.176858654332804,
,,,,81,0,81,0,,,,,,,,,,,,,1476.4354313615622,None,,,,,,,,,,,,,,,,,,,,,,fellow,B_aloud,81,126,1472.2675766623142,None,1472.2675766623142,None,1472.2675766623142,None,2,3.2817469055153197,1472.2675766623142,None,1475.6018874790025,None,1475.6018874790025,None,1476.118773713999,None,1476.118773713999,None,1476.118773713999,None,f,0.27031318031367846,1476.118773713999,None,sing12,001,2019_Oct_31_1257,ProdFawcett_Revision2019,3.2.4,60.176858654332804,
,,,,82,0,82,0,,,,,,,,,,,,,1480.4533320893242,None,,,,,,,,,,,,,,,,,,,,,,prime,D_new,82,235,1476.9523287926859,None,1476.9523287926859,None,1476.9523287926859,None,6,1.8450740187836345,1476.9523287926859,None,1478.8396709585068,None,1478.8396709585068,None,1479.3696669154597,None,1479.3696669154597,None,1479.3696669154597,None,r,1.0435469926014775,1479.3696669154597,None,sing12,001,2019_Oct_31_1257,ProdFawcett_Revision2019,3.2.4,60.176858654332804,
,,,,83,0,83,0,,,,,,,,,,,,,1484.1046159109246,None,,,,,,,,,,,,,,,,,,,,,,victory,A_silent,83,346,1480.970291099089,None,1480.970291099089,None,1480.970291099089,None,1,1.2751542576443171,1480.970291099089,None,1482.290775642221,None,1482.290775642221,None,1482.8207205946383,None,1482.8207205946383,None,1482.8207205946383,None,n,1.2407675561407814,1482.8207205946383,None,sing12,001,2019_Oct_31_1257,ProdFawcett_Revision2019,3.2.4,60.176858654332804,
,,,,84,0,84,0,,,,,,,,,,,,,1487.3055744230805,None,,,,,,,,,,,,,,,,,,,,,,defeat,D_new,84,88,1484.6212608073547,None,1484.6212608073547,None,1484.6212608073547,None,1,1.9194168688263744,1484.6212608073547,None,1486.6052012191358,None,1486.6052012191358,None,1487.122214032468,None,1487.122214032468,None,1487.122214032468,None,n,0.13837283075554296,1487.122214032468,None,sing12,001,2019_Oct_31_1257,ProdFawcett_Revision2019,3.2.4,60.176858654332804,
,,,,85,0,85,0,,,,,,,,,,,,,1490.1896905517206,None,,,,,,,,,,,,,,,,,,,,,,column,D_new,85,57,1487.822355227967,None,1487.822355227967,None,1487.822355227967,None,1,1.5664959258574527,1487.822355227967,None,1489.4286166573293,None,1489.4286166573293,None,1489.9406618150097,None,1489.9406618150097,None,1489.9406618150097,None,n,0.20808608570951037,1489.9406618150097,None,sing12,001,2019_Oct_31_1257,ProdFawcett_Revision2019,3.2.4,60.176858654332804,
,,,,86,0,86,0,,,,,,,,,,,,,1493.3407943024213,None,,,,,,,,,,,,,,,,,,,,,,general,B_aloud,86,135,1490.7065453753748,None,1490.7065453753748,None,1490.7065453753748,None,6,1.8501231573027326,1490.7065453753748,None,1492.6072358027013,None,1492.6072358027013,None,1493.1240013684146,None,1493.1240013684146,None,1493.1240013684146,None,r,0.18417895129823592,1493.1240013684146,None,sing12,001,2019_Oct_31_1257,ProdFawcett_Revision2019,3.2.4,60.176858654332804,
,,,,87,0,87,0,,,,,,,,,,,,,1496.3248681346013,None,,,,,,,,,,,,,,,,,,,,,,hearing,A_silent,87,150,1493.8585081171768,None,1493.8585081171768,None,1493.8585081171768,None,6,1.8097614604776027,1493.8585081171768,None,1495.7247005038225,None,1495.7247005038225,None,1496.241651738499,None,1496.241651738499,None,1496.241651738499,None,r,0.04276015424693469,1496.241651738499,None,sing12,001,2019_Oct_31_1257,ProdFawcett_Revision2019,3.2.4,60.176858654332804,
,,,,88,0,88,0,,,,,,,,,,,,,1498.7256459538476,None,,,,,,,,,,,,,,,,,,,,,,charter,C_sing,88,47,1496.842537786899,None,1496.842537786899,None,1496.842537786899,None,6,1.2658288237871602,1496.842537786899,None,1498.1588828761596,None,1498.1588828761596,None,1498.675803632519,None,1498.675803632519,None,1498.675803632519,None,r,0.016505566949490458,1498.675803632519,None,sing12,001,2019_Oct_31_1257,ProdFawcett_Revision2019,3.2.4,60.176858654332804,
,,,,89,0,89,0,,,,,,,,,,,,,1501.4264974808757,None,,,,,,,,,,,,,,,,,,,,,,produce,B_aloud,89,239,1499.243555700683,None,1499.243555700683,None,1499.243555700683,None,6,1.5121826211398002,1499.243555700683,None,1500.7984978540771,None,1500.7984978540771,None,1501.326513653039,None,1501.326513653039,None,1501.326513653039,None,r,0.06157678671297617,1501.326513653039,None,sing12,001,2019_Oct_31_1257,ProdFawcett_Revision2019,3.2.4,60.176858654332804,
,,,,90,0,90,0,,,,,,,,,,,,,1505.494501150708,None,,,,,,,,,,,,,,,,,,,,,,thing,D_new,90,328,1501.9436645518435,None,1501.9436645518435,None,1501.9436645518435,None,2,1.4762017167377053,1501.9436645518435,None,1503.4674877153739,None,1503.4674877153739,None,1503.9940414878365,None,1503.9940414878365,None,1503.9940414878365,None,n,1.4582456304051448,1503.9940414878365,None,sing12,001,2019_Oct_31_1257,ProdFawcett_Revision2019,3.2.4,60.176858654332804,
,,,,91,0,91,0,,,,,,,,,,,,,1508.2286549107375,None,,,,,,,,,,,,,,,,,,,,,,plane,D_new,91,223,1506.0114215960639,None,1506.0114215960639,None,1506.0114215960639,None,1,1.4407028674468165,1506.0114215960639,None,1507.5117036760494,None,1507.5117036760494,None,1508.028536418482,None,1508.028536418482,None,1508.028536418482,None,n,0.1670445356721757,1508.028536418482,None,sing12,001,2019_Oct_31_1257,ProdFawcett_Revision2019,3.2.4,60.176858654332804,
,,,,92,0,92,0,,,,,,,,,,,,,1512.7134387634433,None,,,,,,,,,,,,,,,,,,,,,,reading,C_sing,92,254,1508.745550786829,None,1508.745550786829,None,1508.745550786829,None,4,2.850015550167882,1508.745550786829,None,1511.6464514523832,None,1511.6464514523832,None,1512.1631196740636,None,1512.1631196740636,None,1512.1631196740636,None,f,0.50388598619611,1512.1631196740636,None,sing12,001,2019_Oct_31_1257,ProdFawcett_Revision2019,3.2.4,60.176858654332804,
,,,,93,0,93,0,,,,,,,,,,,,,1517.5314788206742,None,,,,,,,,,,,,,,,,,,,,,,benefit,D_new,93,20,1513.2305856192106,None,1513.2305856192106,None,1513.2305856192106,None,6,2.7006941593572265,1513.2305856192106,None,1515.9810937985894,None,1515.9810937985894,None,1516.4979287180468,None,1516.4979287180468,None,1516.4979287180468,None,r,1.000844995956868,1516.4979287180468,None,sing12,001,2019_Oct_31_1257,ProdFawcett_Revision2019,3.2.4,60.176858654332804,
,,,,94,0,94,0,,,,,,,,,,,,,1521.0992414629582,None,,,,,,,,,,,,,,,,,,,,,,couch,C_sing,94,70,1518.048590533057,None,1518.048590533057,None,1518.048590533057,None,6,1.746081980469171,1518.048590533057,None,1519.848893139264,None,1519.848893139264,None,1520.3658306897996,None,1520.3658306897996,None,1520.3658306897996,None,r,0.6929971387726255,1520.3658306897996,None,sing12,001,2019_Oct_31_1257,ProdFawcett_Revision2019,3.2.4,60.176858654332804,
,,,,95,0,95,0,,,,,,,,,,,,,1525.76746470113,None,,,,,,,,,,,,,,,,,,,,,,short,D_new,95,285,1521.6160738943872,None,1521.6160738943872,None,1521.6160738943872,None,3,3.122261926982901,1521.6160738943872,None,1524.800455930832,None,1524.800455930832,None,1525.3173443428532,None,1525.3173443428532,None,1525.3173443428532,None,f,0.41301331094291527,1525.3173443428532,None,sing12,001,2019_Oct_31_1257,ProdFawcett_Revision2019,3.2.4,60.176858654332804,
,,,,96,0,96,0,,,,,,,,,,,,,1529.7020296075061,None,,,,,,,,,,,,,,,,,,,,,,shock,B_aloud,96,284,1526.2841708652122,None,1526.2841708652122,None,1526.2841708652122,None,3,2.534418112845742,1526.2841708652122,None,1528.8684639547137,None,1528.8684639547137,None,1529.3851396404789,None,1529.3851396404789,None,1529.3851396404789,None,f,0.2810490141127957,1529.3851396404789,None,sing12,001,2019_Oct_31_1257,ProdFawcett_Revision2019,3.2.4,60.176858654332804,
,,,,97,0,97,0,,,,,,,,,,,,,1532.5528478571796,None,,,,,,,,,,,,,,,,,,,,,,message,C_sing,97,189,1530.2187301735394,None,1530.2187301735394,None,1530.2187301735394,None,6,1.6712017167301383,1530.2187301735394,None,1531.9527480251272,None,1531.9527480251272,None,1532.4694206008571,None,1532.4694206008571,None,1532.4694206008571,None,r,0.03633482614532113,1532.4694206008571,None,sing12,001,2019_Oct_31_1257,ProdFawcett_Revision2019,3.2.4,60.176858654332804,
,,,,98,0,98,0,,,,,,,,,,,,,1535.5705078683823,None,,,,,,,,,,,,,,,,,,,,,,strength,D_new,98,310,1533.0702363625023,None,1533.0702363625023,None,1533.0702363625023,None,6,1.7403234434314072,1533.0702363625023,None,1534.8702012191352,None,1534.8702012191352,None,1535.3871770230762,None,1535.3871770230762,None,1535.3871770230762,None,r,0.14292032095545437,1535.3871770230762,None,sing12,001,2019_Oct_31_1257,ProdFawcett_Revision2019,3.2.4,60.176858654332804,
,,,,99,0,99,0,,,,,,,,,,,,,1542.4894314859703,None,,,,,,,,,,,,,,,,,,,,,,judge,C_sing,99,166,1536.0903871991031,None,1536.0903871991031,None,1536.0903871991031,None,3,4.647428313750424,1536.0903871991031,None,1540.7887208434404,None,1540.7887208434404,None,1541.3060123157338,None,1541.3060123157338,None,1541.3060123157338,None,f,1.13537351496052,1541.3060123157338,None,sing12,001,2019_Oct_31_1257,ProdFawcett_Revision2019,3.2.4,60.176858654332804,
,,,,100,0,100,0,,,,,,,,,,,,,1546.6904882751696,None,,,,,,,,,,,,,,,,,,,,,,phrase,B_aloud,100,220,1543.0061043727037,None,1543.0061043727037,None,1543.0061043727037,None,4,2.7390797412372194,1543.0061043727037,None,1545.7948444983485,None,1545.7948444983485,None,1546.3237855321204,None,1546.3237855321204,None,1546.3237855321204,None,f,0.326024755864637,1546.3237855321204,None,sing12,001,2019_Oct_31_1257,ProdFawcett_Revision2019,3.2.4,60.176858654332804,
,,,,101,0,101,0,,,,,,,,,,,,,1551.2587276855047,None,,,,,,,,,,,,,,,,,,,,,,guest,A_silent,101,146,1547.2075735522812,None,1547.2075735522812,None,1547.2075735522812,None,4,3.3776662312593544,1547.2075735522812,None,1550.62736051502,None,1550.62736051502,None,1551.158584934994,None,1551.158584934994,None,1551.158584934994,None,f,0.06670927412051242,1551.158584934994,None,sing12,001,2019_Oct_31_1257,ProdFawcett_Revision2019,3.2.4,60.176858654332804,
,,,,102,0,102,0,,,,,,,,,,,,,1555.3777551781968,None,,,,,,,,,,,,,,,,,,,,,,solution,D_new,102,294,1551.7763161659532,None,1551.7763161659532,None,1551.7763161659532,None,6,2.8731286931579234,1551.7763161659532,None,1554.6824503949756,None,1554.6824503949756,None,1555.1955909062672,None,1555.1955909062672,None,1555.1955909062672,None,r,0.15743111276242416,1555.1955909062672,None,sing12,001,2019_Oct_31_1257,ProdFawcett_Revision2019,3.2.4,60.176858654332804,
,,,,103,0,103,0,,,,,,,,,,,,,1559.3945981837314,None,,,,,,,,,,,,,,,,,,,,,,sweet,D_new,103,319,1555.893464576715,None,1555.893464576715,None,1555.893464576715,None,2,2.139043664865312,1555.893464576715,None,1558.094121726681,None,1558.094121726681,None,1558.6109753063356,None,1558.6109753063356,None,1558.6109753063356,None,n,0.749786340733408,1558.6109753063356,None,sing12,001,2019_Oct_31_1257,ProdFawcett_Revision2019,3.2.4,60.176858654332804,
,,,,104,0,104,0,,,,,,,,,,,,,1564.0459896124812,None,,,,,,,,,,,,,,,,,,,,,,machinery,B_aloud,104,175,1559.91215369782,None,1559.91215369782,None,1559.91215369782,None,6,3.10393481371284,1559.91215369782,None,1563.0789777321625,None,1563.0789777321625,None,1563.5994597872777,None,1563.5994597872777,None,1563.5994597872777,None,r,0.40059992535680067,1563.5994597872777,None,sing12,001,2019_Oct_31_1257,ProdFawcett_Revision2019,3.2.4,60.176858654332804,
,,,,105,0,105,0,,,,,,,,,,,,,1568.9807075324934,None,,,,,,,,,,,,,,,,,,,,,,community,D_new,105,63,1564.5634123281634,None,1564.5634123281634,None,1564.5634123281634,None,6,3.3169347515067784,1564.5634123281634,None,1567.9303844000679,None,1567.9303844000679,None,1568.4473319027165,None,1568.4473319027165,None,1568.4473319027165,None,r,0.4965326242381707,1568.4473319027165,None,sing12,001,2019_Oct_31_1257,ProdFawcett_Revision2019,3.2.4,60.176858654332804,
,,,,106,0,106,0,,,,,,,,,,,,,1571.5149424643896,None,,,,,,,,,,,,,,,,,,,,,,government,D_new,106,139,1569.499570504442,None,1569.499570504442,None,1569.499570504442,None,1,1.3243562231800752,1569.499570504442,None,1570.8813808546402,None,1570.8813808546402,None,1571.3982493624353,None,1571.3982493624353,None,1571.3982493624353,None,n,0.07424923803773709,1571.3982493624353,None,sing12,001,2019_Oct_31_1257,ProdFawcett_Revision2019,3.2.4,60.176858654332804,
,,,,107,0,107,0,,,,,,,,,,,,,1575.19944890216,None,,,,,,,,,,,,,,,,,,,,,,nation,B_aloud,107,198,1572.0317204702296,None,1572.0317204702296,None,1572.0317204702296,None,1,1.4638962493045256,1572.0317204702296,None,1573.5488530198345,None,1573.5488530198345,None,1574.065807364561,None,1574.065807364561,None,1574.065807364561,None,n,1.0857059774716618,1574.065807364561,None,sing12,001,2019_Oct_31_1257,ProdFawcett_Revision2019,3.2.4,60.176858654332804,
,,,,108,0,108,0,,,,,,,,,,,,,1578.5503604528203,None,,,,,,,,,,,,,,,,,,,,,,power,A_silent,108,230,1575.7163733905618,None,1575.7163733905618,None,1575.7163733905618,None,3,1.8989721341058612,1575.7163733905618,None,1577.6543546681496,None,1577.6543546681496,None,1578.183717111402,None,1578.183717111402,None,1578.183717111402,None,f,0.3278861105936812,1578.183717111402,None,sing12,001,2019_Oct_31_1257,ProdFawcett_Revision2019,3.2.4,60.176858654332804,
,,,,109,0,109,0,,,,,,,,,,,,,1581.8681880947843,None,,,,,,,,,,,,,,,,,,,,,,member,B_aloud,109,188,1579.0684101511433,None,1579.0684101511433,None,1579.0684101511433,None,6,1.6666106860648142,1579.0684101511433,None,1580.7733084530628,None,1580.7733084530628,None,1581.3012679604435,None,1581.3012679604435,None,1581.3012679604435,None,r,0.5298783977050334,1581.3012679604435,None,sing12,001,2019_Oct_31_1257,ProdFawcett_Revision2019,3.2.4,60.176858654332804,
,,,,110,0,110,0,,,,,,,,,,,,,1584.968998569384,None,,,,,,,,,,,,,,,,,,,,,,frank,D_new,110,133,1582.3848109099927,None,1582.3848109099927,None,1582.3848109099927,None,1,1.654055482984404,1582.3848109099927,None,1584.1023272376624,None,1584.1023272376624,None,1584.6190343347553,None,1584.6190343347553,None,1584.6190343347553,None,n,0.3162931517144898,1584.6190343347553,None,sing12,001,2019_Oct_31_1257,ProdFawcett_Revision2019,3.2.4,60.176858654332804,
,,,,111,0,111,0,,,,,,,,,,,,,1587.7700124401308,None,,,,,,,,,,,,,,,,,,,,,,tough,B_aloud,111,333,1585.4858891584154,None,1585.4858891584154,None,1585.4858891584154,None,6,1.4649533495103242,1585.4858891584154,None,1587.0031181190425,None,1587.0031181190425,None,1587.5198012688925,None,1587.5198012688925,None,1587.5198012688925,None,r,0.21511009515961632,1587.5198012688925,None,sing12,001,2019_Oct_31_1257,ProdFawcett_Revision2019,3.2.4,60.176858654332804,
,,,,112,0,112,0,,,,,,,,,,,,,1591.3543360079639,None,,,,,,,,,,,,,,,,,,,,,,generation,A_silent,112,136,1588.2870563537872,None,1588.2870563537872,None,1588.2870563537872,None,6,1.7674982894823188,1588.2870563537872,None,1590.1040078994847,None,1590.1040078994847,None,1590.620868010199,None,1590.620868010199,None,1590.620868010199,None,r,0.6904786340746796,1590.620868010199,None,sing12,001,2019_Oct_31_1257,ProdFawcett_Revision2019,3.2.4,60.176858654332804,
,,,,113,0,113,0,,,,,,,,,,,,,1595.1556176525482,None,,,,,,,,,,,,,,,,,,,,,,command,C_sing,113,60,1591.871119300864,None,1591.871119300864,None,1591.871119300864,None,4,2.4153505007125204,1591.871119300864,None,1594.3386754369567,None,1594.3386754369567,None,1594.8554867201601,None,1594.8554867201601,None,1594.8554867201601,None,f,0.25470672389201354,1594.8554867201601,None,sing12,001,2019_Oct_31_1257,ProdFawcett_Revision2019,3.2.4,60.176858654332804,
,,,,114,0,114,0,,,,,,,,,,,,,1598.5066915469215,None,,,,,,,,,,,,,,,,,,,,,,detective,D_new,114,92,1595.6724012564518,None,1595.6724012564518,None,1595.6724012564518,None,1,1.3820044162421254,1595.6724012564518,None,1597.0943229458207,None,1597.0943229458207,None,1597.622915966902,None,1597.622915966902,None,1597.622915966902,None,n,0.8398544504598249,1597.622915966902,None,sing12,001,2019_Oct_31_1257,ProdFawcett_Revision2019,3.2.4,60.176858654332804,
,,,,115,0,115,0,,,,,,,,,,,,,1601.2075713752565,None,,,,,,,,,,,,,,,,,,,,,,concern,D_new,115,65,1599.0253638738504,None,1599.0253638738504,None,1599.0253638738504,None,3,1.4287329725630116,1599.0253638738504,None,1600.507131305596,None,1600.507131305596,None,1601.0240921813675,None,1601.0240921813675,None,1601.0240921813675,None,f,0.1501377744716592,1601.0240921813675,None,sing12,001,2019_Oct_31_1257,ProdFawcett_Revision2019,3.2.4,60.176858654332804,
,,,,116,0,116,0,,,,,,,,,,,,,1606.709169621201,None,,,,,,,,,,,,,,,,,,,,,,symbol,D_new,116,321,1601.725318778379,None,1601.725318778379,None,1601.725318778379,None,2,3.576620327163255,1601.725318778379,None,1605.34568700628,None,1605.34568700628,None,1605.875554518876,None,1605.875554518876,None,1605.875554518876,None,r,0.7944134477729676,1605.875554518876,None,sing12,001,2019_Oct_31_1257,ProdFawcett_Revision2019,3.2.4,60.176858654332804,
,,,,117,0,117,0,,,,,,,,,,,,,1613.5446818436176,None,,,,,,,,,,,,,,,,,,,,,,straight,D_new,117,307,1607.2262555203051,None,1607.2262555203051,None,1607.2262555203051,None,4,4.459897990920581,1607.2262555203051,None,1611.7331265161338,None,1611.7331265161338,None,1612.2607660011126,None,1612.2607660011126,None,1612.2607660011126,None,f,1.2486906761332648,1612.2607660011126,None,sing12,001,2019_Oct_31_1257,ProdFawcett_Revision2019,3.2.4,60.176858654332804,
,,,,118,0,118,0,,,,,,,,,,,,,1616.2454963612545,None,,,,,,,,,,,,,,,,,,,,,,agreement,C_sing,118,5,1614.0632471854187,None,1614.0632471854187,None,1614.0632471854187,None,6,1.549863158550579,1614.0632471854187,None,1615.6619092492328,None,1615.6619092492328,None,1616.1787690489436,None,1616.1787690489436,None,1616.1787690489436,None,r,0.034289668474229984,1616.1787690489436,None,sing12,001,2019_Oct_31_1257,ProdFawcett_Revision2019,3.2.4,60.176858654332804,
,,,,119,0,119,0,,,,,,,,,,,,,1620.1633588356053,None,,,,,,,,,,,,,,,,,,,,,,dance,B_aloud,119,84,1616.7624273807305,None,1616.7624273807305,None,1616.7624273807305,None,6,2.4912779125443194,1616.7624273807305,None,1619.3131212290755,None,1619.3131212290755,None,1619.8298183740699,None,1619.8298183740699,None,1619.8298183740699,None,r,0.29512129128852393,1619.8298183740699,None,sing12,001,2019_Oct_31_1257,ProdFawcett_Revision2019,3.2.4,60.176858654332804,
,,,,120,0,120,0,,,,,,,,,,,,,1623.064116128633,None,,,,,,,,,,,,,,,,,,,,,,service,D_new,120,280,1620.6814977918693,None,1620.6814977918693,None,1620.6814977918693,None,6,1.091479442678974,1620.6814977918693,None,1621.8305641599727,None,1621.8305641599727,None,1622.3472771661327,None,1622.3472771661327,None,1622.3472771661327,None,r,0.6815864278178196,1622.3472771661327,None,sing12,001,2019_Oct_31_1257,ProdFawcett_Revision2019,3.2.4,60.176858654332804,
,,,,121,0,121,0,,,,,,,,,,,,,1626.3651757168554,None,,,,,,,,,,,,,,,,,,,,,,trial,D_new,121,341,1623.5810449710698,None,1623.5810449710698,None,1623.5810449710698,None,3,1.9839391677523963,1623.5810449710698,None,1625.6149461964233,None,1625.6149461964233,None,1626.1320980282326,None,1626.1320980282326,None,1626.1320980282326,None,f,0.19257852833834477,1626.1320980282326,None,sing12,001,2019_Oct_31_1257,ProdFawcett_Revision2019,3.2.4,60.176858654332804,
,,,,122,0,122,0,,,,,,,,,,,,,1628.8327268769062,None,,,,,,,,,,,,,,,,,,,,,,background,C_sing,122,16,1626.8824569260469,None,1626.8824569260469,None,1626.8824569260469,None,1,1.2018417615327053,1626.8824569260469,None,1628.137169247988,None,1628.137169247988,None,1628.6491885923897,None,1628.6491885923897,None,1628.6491885923897,None,n,0.1470498227281496,1628.6491885923897,None,sing12,001,2019_Oct_31_1257,ProdFawcett_Revision2019,3.2.4,60.176858654332804,
,,,,123,0,123,0,,,,,,,,,,,,,1631.8003022952034,None,,,,,,,,,,,,,,,,,,,,,,testimony,D_new,123,325,1629.3495160788734,None,1629.3495160788734,None,1629.3495160788734,None,1,1.3111286309576826,1629.3495160788734,None,1630.7164912607986,None,1630.7164912607986,None,1631.2335068731627,None,1631.2335068731627,None,1631.2335068731627,None,n,0.5307796852575848,1631.2335068731627,None,sing12,001,2019_Oct_31_1257,ProdFawcett_Revision2019,3.2.4,60.176858654332804,
,,,,124,0,124,0,,,,,,,,,,,,,1635.6681383342657,None,,,,,,,,,,,,,,,,,,,,,,south,A_silent,124,296,1632.317273745095,None,1632.317273745095,None,1632.317273745095,None,1,2.7346930397470715,1632.317273745095,None,1635.101239970143,None,1635.101239970143,None,1635.6181685015763,None,1635.6181685015763,None,1635.6181685015763,None,n,0.010269639868056402,1635.6181685015763,None,sing12,001,2019_Oct_31_1257,ProdFawcett_Revision2019,3.2.4,60.176858654332804,
,,,,125,0,125,0,,,,,,,,,,,,,1638.9357059774775,None,,,,,,,,,,,,,,,,,,,,,,employment,A_silent,125,111,1636.1856104994658,None,1636.1856104994658,None,1636.1856104994658,None,4,1.6749978229781846,1636.1856104994658,None,1637.9188698140206,None,1637.9188698140206,None,1638.4357370778162,None,1638.4357370778162,None,1638.4357370778162,None,f,0.46412265970138833,1638.4357370778162,None,sing12,001,2019_Oct_31_1257,ProdFawcett_Revision2019,3.2.4,60.176858654332804,
,,,,126,0,126,0,,,,,,,,,,,,,1643.8205853082036,None,,,,,,,,,,,,,,,,,,,,,,suspect,D_new,126,318,1639.4526783603942,None,1639.4526783603942,None,1639.4526783603942,None,1,2.8793129937257618,1639.4526783603942,None,1642.386872550851,None,1642.386872550851,None,1642.903724886477,None,1642.903724886477,None,1642.903724886477,None,n,0.8677312309591798,1642.903724886477,None,sing12,001,2019_Oct_31_1257,ProdFawcett_Revision2019,3.2.4,60.176858654332804,
,,,,127,0,127,0,,,,,,,,,,,,,1646.87181221621,None,,,,,,,,,,,,,,,,,,,,,,century,D_new,127,45,1644.3373689121072,None,1644.3373689121072,None,1644.3373689121072,None,3,1.6020436026592506,1644.3373689121072,None,1645.9920059712604,None,1645.9920059712604,None,1646.52136592647,None,1646.52136592647,None,1646.52136592647,None,f,0.31386701499286573,1646.52136592647,None,sing12,001,2019_Oct_31_1257,ProdFawcett_Revision2019,3.2.4,60.176858654332804,
,,,,128,0,128,0,,,,,,,,,,,,,1652.5232723766821,None,,,,,,,,,,,,,,,,,,,,,,master,D_new,128,180,1647.3883883809176,None,1647.3883883809176,None,1647.3883883809176,None,4,4.438561920745997,1647.3883883809176,None,1651.8898538284411,None,1651.8898538284411,None,1652.4065198731114,None,1652.4065198731114,None,1652.4065198731114,None,f,0.06845928967231885,1652.4065198731114,None,sing12,001,2019_Oct_31_1257,ProdFawcett_Revision2019,3.2.4,60.176858654332804,
,,,,129,0,129,0,,,,,,,,,,,,,1656.1078152018454,None,,,,,,,,,,,,,,,,,,,,,,question,A_silent,129,247,1653.0440825402766,None,1653.0440825402766,None,1653.0440825402766,None,6,1.774940598377725,1653.0440825402766,None,1654.874336318957,None,1654.874336318957,None,1655.3930120669247,None,1655.3930120669247,None,1655.3930120669247,None,r,0.6818420725176111,1655.3930120669247,None,sing12,001,2019_Oct_31_1257,ProdFawcett_Revision2019,3.2.4,60.176858654332804,
,,,,130,0,130,0,,,,,,,,,,,,,1659.4088635939552,None,,,,,,,,,,,,,,,,,,,,,,rough,A_silent,130,266,1656.6283230702247,None,1656.6283230702247,None,1656.6283230702247,None,1,1.4550786838226486,1656.6283230702247,None,1658.1417148721812,None,1658.1417148721812,None,1658.6586527337204,None,1658.6586527337204,None,1658.6586527337204,None,n,0.7038237855304033,1658.6586527337204,None,sing12,001,2019_Oct_31_1257,ProdFawcett_Revision2019,3.2.4,60.176858654332804,
,,,,131,0,131,0,,,,,,,,,,,,,1663.4099860048445,None,,,,,,,,,,,,,,,,,,,,,,position,C_sing,131,229,1659.925966598239,None,1659.925966598239,None,1659.925966598239,None,6,1.6768912110564997,1659.925966598239,None,1661.6480916837754,None,1661.6480916837754,None,1662.176362194441,None,1662.176362194441,None,1662.176362194441,None,r,1.1860499471222283,1662.176362194441,None,sing12,001,2019_Oct_31_1257,ProdFawcett_Revision2019,3.2.4,60.176858654332804,
,,,,132,0,132,0,,,,,,,,,,,,,1667.3111765254725,None,,,,,,,,,,,,,,,,,,,,,,minute,B_aloud,132,192,1663.9267997760762,None,1663.9267997760762,None,1663.9267997760762,None,6,2.7474270697275642,1663.9267997760762,None,1666.7172634819872,None,1666.7172634819872,None,1667.2446068918362,None,1667.2446068918362,None,1667.2446068918362,None,r,0.029540337127400562,1667.2446068918362,None,sing12,001,2019_Oct_31_1257,ProdFawcett_Revision2019,3.2.4,60.176858654332804,
,,,,133,0,133,0,,,,,,,,,,,,,1670.3622728120827,None,,,,,,,,,,,,,,,,,,,,,,minor,D_new,133,191,1667.8281389562762,None,1667.8281389562762,None,1667.8281389562762,None,2,1.374672513527912,1667.8281389562762,None,1669.2618753498828,None,1669.2618753498828,None,1669.778705293269,None,1669.778705293269,None,1669.778705293269,None,f,0.5352677738410421,1669.778705293269,None,sing12,001,2019_Oct_31_1257,ProdFawcett_Revision2019,3.2.4,60.176858654332804,
,,,,134,0,134,0,,,,,,,,,,,,,1673.0463040368195,None,,,,,,,,,,,,,,,,,,,,,,broke,D_new,134,32,1670.863072712571,None,1670.863072712571,None,1670.863072712571,None,1,1.3235955091076903,1670.863072712571,None,1672.2322208745318,None,1672.2322208745318,None,1672.746194874664,None,1672.746194874664,None,1672.746194874664,None,n,0.2637195994320791,1672.746194874664,None,sing12,001,2019_Oct_31_1257,ProdFawcett_Revision2019,3.2.4,60.176858654332804,
,,,,135,0,135,0,,,,,,,,,,,,,1677.1809410959686,None,,,,,,,,,,,,,,,,,,,,,,piece,B_aloud,135,221,1673.5635939540953,None,1673.5635939540953,None,1673.5635939540953,None,6,2.4379172109183855,1673.5635939540953,None,1676.0512545872916,None,1676.0512545872916,None,1676.5807243266754,None,1676.5807243266754,None,1676.5807243266754,None,r,0.5649965789634734,1676.5807243266754,None,sing12,001,2019_Oct_31_1257,ProdFawcett_Revision2019,3.2.4,60.176858654332804,
,,,,136,0,136,0,,,,,,,,,,,,,1680.4819325744756,None,,,,,,,,,,,,,,,,,,,,,,enemy,A_silent,136,113,1677.6979548423114,None,1677.6979548423114,None,1677.6979548423114,None,4,2.05557100205624,1677.6979548423114,None,1679.8151897120115,None,1679.8151897120115,None,1680.3318946320796,None,1680.3318946320796,None,1680.3318946320796,None,f,0.1097390682407422,1680.3318946320796,None,sing12,001,2019_Oct_31_1257,ProdFawcett_Revision2019,3.2.4,60.176858654332804,
,,,,137,0,137,0,,,,,,,,,,,,,1684.2999098090368,None,,,,,,,,,,,,,,,,,,,,,,group,C_sing,137,143,1680.9991083535424,None,1680.9991083535424,None,1680.9991083535424,None,6,2.050476768054068,1680.9991083535424,None,1683.0994734714186,None,1683.0994734714186,None,1683.6163625054323,None,1683.6163625054323,None,1683.6163625054323,None,r,0.6416265472362284,1683.6163625054323,None,sing12,001,2019_Oct_31_1257,ProdFawcett_Revision2019,3.2.4,60.176858654332804,
,,,,138,0,138,0,,,,,,,,,,,,,1688.9846065808233,None,,,,,,,,,,,,,,,,,,,,,,quiet,A_silent,138,249,1684.818377184798,None,1684.818377184798,None,1684.818377184798,None,5,2.8785081171808997,1684.818377184798,None,1687.7509078186267,None,1687.7509078186267,None,1688.2677589102386,None,1688.2677589102386,None,1688.2677589102386,None,r,0.6690306027157931,1688.2677589102386,None,sing12,001,2019_Oct_31_1257,ProdFawcett_Revision2019,3.2.4,60.176858654332804,
,,,,139,0,139,0,,,,,,,,,,,,,1692.5356537289335,None,,,,,,,,,,,,,,,,,,,,,,citizen,A_silent,139,50,1689.506271692473,None,1689.506271692473,None,1689.506271692473,None,6,1.9823620700335596,1689.506271692473,None,1691.55194594762,None,1691.55194594762,None,1692.07118772158,None,1692.07118772158,None,1692.07118772158,None,r,0.41736611307715066,1692.07118772158,None,sing12,001,2019_Oct_31_1257,ProdFawcett_Revision2019,3.2.4,60.176858654332804,
,,,,140,0,140,0,,,,,,,,,,,,,1697.4206238726038,None,,,,,,,,,,,,,,,,,,,,,,music,A_silent,140,196,1693.0523919263505,None,1693.0523919263505,None,1693.0523919263505,None,6,3.1480403682217,1693.0523919263505,None,1696.2538819431502,None,1696.2538819431502,None,1696.7702976301516,None,1696.7702976301516,None,1696.7702976301516,None,r,0.6068905890424503,1696.7702976301516,None,sing12,001,2019_Oct_31_1257,ProdFawcett_Revision2019,3.2.4,60.176858654332804,
,,,,141,0,141,0,,,,,,,,,,,,,1700.6381974248943,None,,,,,,,,,,,,,,,,,,,,,,character,A_silent,141,46,1697.9378089817765,None,1697.9378089817765,None,1697.9378089817765,None,4,1.6145708154508611,1697.9378089817765,None,1699.6045583753148,None,1699.6045583753148,None,1700.121490016798,None,1700.121490016798,None,1700.121490016798,None,f,0.47869751819234807,1700.121490016798,None,sing12,001,2019_Oct_31_1257,ProdFawcett_Revision2019,3.2.4,60.176858654332804,
,,,,142,0,142,0,,,,,,,,,,,,,1705.0228385270893,None,,,,,,,,,,,,,,,,,,,,,,treatment,B_aloud,142,339,1701.154922249174,None,1701.154922249174,None,1701.154922249174,None,3,1.8370547987724422,1701.154922249174,None,1703.0447723455873,None,1703.0447723455873,None,1703.572580083346,None,1703.572580083346,None,1703.572580083346,None,f,1.4117413074563956,1703.572580083346,None,sing12,001,2019_Oct_31_1257,ProdFawcett_Revision2019,3.2.4,60.176858654332804,
,,,,143,0,143,0,,,,,,,,,,,,,1711.2749057659967,None,,,,,,,,,,,,,,,,,,,,,,problem,B_aloud,143,238,1705.5400174161769,None,1705.5400174161769,None,1705.5400174161769,None,5,3.1317836039088434,1705.5400174161769,None,1708.7138542638568,None,1708.7138542638568,None,1709.2409921005165,None,1709.2409921005165,None,1709.2409921005165,None,f,1.9987096473196289,1709.2409921005165,None,sing12,001,2019_Oct_31_1257,ProdFawcett_Revision2019,3.2.4,60.176858654332804,
,,,,144,0,144,0,,,,,,,,,,,,,1715.6762906636723,None,,,,,,,,,,,,,,,,,,,,,,management,A_silent,144,177,1711.7929458232247,None,1711.7929458232247,None,1711.7929458232247,None,4,2.9666946569632273,1711.7929458232247,None,1714.809295888539,None,1714.809295888539,None,1715.3260919325694,None,1715.3260919325694,None,1715.3260919325694,None,r,0.3055333706579404,1715.3260919325694,None,sing12,001,2019_Oct_31_1257,ProdFawcett_Revision2019,3.2.4,60.176858654332804,
,,,,145,0,145,0,,,,,,,,,,,,,1718.5271434347233,None,,,,,,,,,,,,,,,,,,,,,,bureau,B_aloud,145,37,1716.1941976114904,None,1716.1941976114904,None,1716.1941976114904,None,6,1.5093702183221467,1716.1941976114904,None,1717.7472326926654,None,1717.7472326926654,None,1718.2769767369464,None,1718.2769767369464,None,1718.2769767369464,None,r,0.21049573925847653,1718.2769767369464,None,sing12,001,2019_Oct_31_1257,ProdFawcett_Revision2019,3.2.4,60.176858654332804,
,,,,146,0,146,0,,,,,,,,,,,,,1722.4950774398167,None,,,,,,,,,,,,,,,,,,,,,,turkey,A_silent,146,342,1719.0439873732685,None,1719.0439873732685,None,1719.0439873732685,None,6,2.731047459092224,1719.0439873732685,None,1721.8281190520647,None,1721.8281190520647,None,1722.3450749517942,None,1722.3450749517942,None,1722.3450749517942,None,r,0.1102488026372157,1722.3450749517942,None,sing12,001,2019_Oct_31_1257,ProdFawcett_Revision2019,3.2.4,60.176858654332804,
,,,,147,0,147,0,,,,,,,,,,,,,1727.046481308702,None,,,,,,,,,,,,,,,,,,,,,,escape,D_new,147,118,1723.0122858742252,None,1723.0122858742252,None,1723.0122858742252,None,6,2.570373825961724,1723.0122858742252,None,1725.6347602164606,None,1725.6347602164606,None,1726.1628198668914,None,1726.1628198668914,None,1726.1628198668914,None,r,0.8357731541909743,1726.1628198668914,None,sing12,001,2019_Oct_31_1257,ProdFawcett_Revision2019,3.2.4,60.176858654332804,
,,,,148,0,148,0,,,,,,,,,,,,,1730.6310207128117,None,,,,,,,,,,,,,,,,,,,,,,break,D_new,148,26,1727.5634403184667,None,1727.5634403184667,None,1727.5634403184667,None,5,1.954966411634814,1727.5634403184667,None,1729.5673779312056,None,1729.5673779312056,None,1730.0973082664714,None,1730.0973082664714,None,1730.0973082664714,None,r,0.4932167071092408,1730.0973082664714,None,sing12,001,2019_Oct_31_1257,ProdFawcett_Revision2019,3.2.4,60.176858654332804,
,,,,149,0,149,0,,,,,,,,,,,,,1735.0989802201802,None,,,,,,,,,,,,,,,,,,,,,,weather,D_new,149,352,1731.1348217951017,None,1731.1348217951017,None,1731.1348217951017,None,4,2.4314582944498397,1731.1348217951017,None,1733.6318495365995,None,1733.6318495365995,None,1734.1486434036196,None,1734.1486434036196,None,1734.1486434036196,None,r,0.9136661068623653,1734.1486434036196,None,sing12,001,2019_Oct_31_1257,ProdFawcett_Revision2019,3.2.4,60.176858654332804,
,,,,150,0,150,0,,,,,,,,,,,,,1739.1000761957985,None,,,,,,,,,,,,,,,,,,,,,,space,D_new,150,297,1735.615661504009,None,1735.615661504009,None,1735.615661504009,None,1,2.1346205759764416,1735.615661504009,None,1737.7875045095425,None,1737.7875045095425,None,1738.3165148970584,None,1738.3165148970584,None,1738.3165148970584,None,n,0.7454167444084305,1738.3165148970584,None,sing12,001,2019_Oct_31_1257,ProdFawcett_Revision2019,3.2.4,60.176858654332804,
,,,,151,0,151,0,,,,,,,,,,,,,1743.5515562604996,None,,,,,,,,,,,,,,,,,,,,,,scale,A_silent,151,272,1739.6178973067144,None,1739.6178973067144,None,1739.6178973067144,None,5,2.876239348144736,1739.6178973067144,None,1742.5511168128287,None,1742.5511168128287,None,1743.0681156310166,None,1743.0681156310166,None,1743.0681156310166,None,f,0.4421636499464512,1743.0681156310166,None,sing12,001,2019_Oct_31_1257,ProdFawcett_Revision2019,3.2.4,60.176858654332804,
,,,,152,0,152,0,,,,,,,,,,,,,1747.0192486160377,None,,,,,,,,,,,,,,,,,,,,,,danger,D_new,152,85,1744.0683423524315,None,1744.0683423524315,None,1744.0683423524315,None,4,2.0013152329484,1744.0683423524315,None,1746.1189015363489,None,1746.1189015363489,None,1746.6358820053429,None,1746.6358820053429,None,1746.6358820053429,None,f,0.33752876780636143,1746.6358820053429,None,sing12,001,2019_Oct_31_1257,ProdFawcett_Revision2019,3.2.4,60.176858654332804,
