StudyTrials.thisRepN,StudyTrials.thisTrialN,StudyTrials.thisN,StudyTrials.thisIndex,TestTrials.thisRepN,TestTrials.thisTrialN,TestTrials.thisN,TestTrials.thisIndex,textWelcome.started,textWelcome.stopped,keyWelcome.keys,keyWelcome.rt,keyWelcome.started,keyWelcome.stopped,textReady.started,textReady.stopped,keyReady.keys,keyReady.rt,keyReady.started,keyReady.stopped,polyback_2.started,polyback_2.stopped,studyPic,studyWord,studyType,studyN,studyOrder,polyback_3.started,polyback_3.stopped,studyPicChoice.started,studyPicChoice.stopped,polyback_4.started,polyback_4.stopped,polyback.started,polyback.stopped,studyWords.started,studyWords.stopped,getResearcher.started,getResearcher.stopped,kPress2.keys,kPress2.rt,kPress2.started,kPress2.stopped,testWord,testType,testN,testOrder,polyback_5.started,polyback_5.stopped,testWords.started,testWords.stopped,textScale.started,textScale.stopped,keyConf.keys,keyConf.rt,keyConf.started,keyConf.stopped,polyback_6.started,polyback_6.stopped,studyWords_2.started,studyWords_2.stopped,polyback_7.started,polyback_7.stopped,testWords_2.started,testWords_2.stopped,textScale_2.started,textScale_2.stopped,keyRKN.keys,keyRKN.rt,keyRKN.started,keyRKN.stopped,participant,session,date,expName,psychopyVersion,frameRate,
,,,,,,,,14.671932725647821,None,space,1016.2119161365827,14.671932725647821,None,,,,,,,,,,,,,,,,,,,,,,,,,,,,,,,,,,,,,,,,,,,,,,,,,,,,,,,,,,sing30,001,2019_Nov_11_1534,ProdFawcett_Revision2019,3.2.4,59.86741316969344,
,,,,,,,,,,,,,,1030.9101786387946,None,space,6.981177599723196,1030.9101786387946,None,,,,,,,,,,,,,,,,,,,,,,,,,,,,,,,,,,,,,,,,,,,,,,,,,,,,sing30,001,2019_Nov_11_1534,ProdFawcett_Revision2019,3.2.4,59.86741316969344,
0,0,0,0,,,,,,,,,,,,,,,,,1042.697313933602,None,materials/readPic.jpg,reach,A_silent,0,253,1039.0215819574164,None,1039.0215819574164,None,1039.9464298210064,None,1040.1964498031484,None,1040.1964498031484,None,,,,,,,,,,,,,,,,,,,,,,,,,,,,,,,,,,,sing30,001,2019_Nov_11_1534,ProdFawcett_Revision2019,3.2.4,59.86741316969344,
1,0,1,0,,,,,,,,,,,,,,,,,1046.9652590634173,None,materials/singPic.jpg,audience,C_sing,1,14,1043.2998761262697,None,1043.2998761262697,None,1044.2147870339068,None,1044.481035625438,None,1044.481035625438,None,,,,,,,,,,,,,,,,,,,,,,,,,,,,,,,,,,,sing30,001,2019_Nov_11_1534,ProdFawcett_Revision2019,3.2.4,59.86741316969344,
2,0,2,0,,,,,,,,,,,,,,,,,1051.2333273516492,None,materials/speakPic.jpg,suggestion,B_aloud,2,314,1047.566865845341,None,1047.566865845341,None,1048.4829190783894,None,1048.7491200859868,None,1048.7491200859868,None,,,,,,,,,,,,,,,,,,,,,,,,,,,,,,,,,,,sing30,001,2019_Nov_11_1534,ProdFawcett_Revision2019,3.2.4,59.86741316969344,
3,0,3,0,,,,,,,,,,,,,,,,,1055.5013511660081,None,materials/singPic.jpg,election,C_sing,3,109,1051.8382544347137,None,1051.8382544347137,None,1052.7509348065896,None,1053.0170748569913,None,1053.0170748569913,None,,,,,,,,,,,,,,,,,,,,,,,,,,,,,,,,,,,sing30,001,2019_Nov_11_1534,ProdFawcett_Revision2019,3.2.4,59.86741316969344,
4,0,4,0,,,,,,,,,,,,,,,,,1059.7693656501847,None,materials/speakPic.jpg,range,B_aloud,4,251,1056.0890345157682,None,1056.0890345157682,None,1057.018970439181,None,1057.285112044613,None,1057.285112044613,None,,,,,,,,,,,,,,,,,,,,,,,,,,,,,,,,,,,sing30,001,2019_Nov_11_1534,ProdFawcett_Revision2019,3.2.4,59.86741316969344,
5,0,5,0,,,,,,,,,,,,,,,,,1064.0374159000621,None,materials/speakPic.jpg,couch,B_aloud,5,70,1060.3526215170814,None,1060.3526215170814,None,1061.2870132249122,None,1061.553123107722,None,1061.553123107722,None,,,,,,,,,,,,,,,,,,,,,,,,,,,,,,,,,,,sing30,001,2019_Nov_11_1534,ProdFawcett_Revision2019,3.2.4,59.86741316969344,
6,0,6,0,,,,,,,,,,,,,,,,,1068.3053908864636,None,materials/speakPic.jpg,skill,B_aloud,6,289,1064.6109434961004,None,1064.6109434961004,None,1065.5549994075332,None,1065.821148788118,None,1065.821148788118,None,,,,,,,,,,,,,,,,,,,,,,,,,,,,,,,,,,,sing30,001,2019_Nov_11_1534,ProdFawcett_Revision2019,3.2.4,59.86741316969344,
7,0,7,0,,,,,,,,,,,,,,,,,1072.5734908973177,None,materials/readPic.jpg,property,A_silent,7,242,1068.9065725230462,None,1068.9065725230462,None,1069.822984968142,None,1070.089337435711,None,1070.089337435711,None,,,,,,,,,,,,,,,,,,,,,,,,,,,,,,,,,,,sing30,001,2019_Nov_11_1534,ProdFawcett_Revision2019,3.2.4,59.86741316969344,
8,0,8,0,,,,,,,,,,,,,,,,,1076.8414422472551,None,materials/readPic.jpg,hunger,A_silent,8,155,1073.148368881849,None,1073.148368881849,None,1074.0911042613743,None,1074.3572191202816,None,1074.3572191202816,None,,,,,,,,,,,,,,,,,,,,,,,,,,,,,,,,,,,sing30,001,2019_Nov_11_1534,ProdFawcett_Revision2019,3.2.4,59.86741316969344,
9,0,9,0,,,,,,,,,,,,,,,,,1081.1094663726208,None,materials/speakPic.jpg,individual,B_aloud,9,160,1077.4333698972837,None,1077.4333698972837,None,1078.3591031952456,None,1078.6252295613785,None,1078.6252295613785,None,,,,,,,,,,,,,,,,,,,,,,,,,,,,,,,,,,,sing30,001,2019_Nov_11_1534,ProdFawcett_Revision2019,3.2.4,59.86741316969344,
10,0,10,0,,,,,,,,,,,,,,,,,1085.3775231536265,None,materials/speakPic.jpg,society,B_aloud,10,293,1081.68006118112,None,1081.68006118112,None,1082.6275533989701,None,1082.8932639499453,None,1082.8932639499453,None,,,,,,,,,,,,,,,,,,,,,,,,,,,,,,,,,,,sing30,001,2019_Nov_11_1534,ProdFawcett_Revision2019,3.2.4,59.86741316969344,
11,0,11,0,,,,,,,,,,,,,,,,,1089.645541369876,None,materials/readPic.jpg,broad,A_silent,11,31,1085.9679097684216,None,1085.9679097684216,None,1086.8952080490867,None,1087.1612967834812,None,1087.1612967834812,None,,,,,,,,,,,,,,,,,,,,,,,,,,,,,,,,,,,sing30,001,2019_Nov_11_1534,ProdFawcett_Revision2019,3.2.4,59.86741316969344,
12,0,12,0,,,,,,,,,,,,,,,,,1093.913543413808,None,materials/readPic.jpg,distance,A_silent,12,100,1090.2323125387393,None,1090.2323125387393,None,1091.1632806914035,None,1091.4293544975058,None,1091.4293544975058,None,,,,,,,,,,,,,,,,,,,,,,,,,,,,,,,,,,,sing30,001,2019_Nov_11_1534,ProdFawcett_Revision2019,3.2.4,59.86741316969344,
13,0,13,0,,,,,,,,,,,,,,,,,1098.181579357405,None,materials/singPic.jpg,whole,C_sing,13,355,1094.531686701161,None,1094.531686701161,None,1095.4312152470116,None,1095.697669413576,None,1095.697669413576,None,,,,,,,,,,,,,,,,,,,,,,,,,,,,,,,,,,,sing30,001,2019_Nov_11_1534,ProdFawcett_Revision2019,3.2.4,59.86741316969344,
14,0,14,0,,,,,,,,,,,,,,,,,1102.4496041047828,None,materials/singPic.jpg,season,C_sing,14,277,1098.764709577837,None,1098.764709577837,None,1099.699337028293,None,1099.96539528409,None,1099.96539528409,None,,,,,,,,,,,,,,,,,,,,,,,,,,,,,,,,,,,sing30,001,2019_Nov_11_1534,ProdFawcett_Revision2019,3.2.4,59.86741316969344,
15,0,15,0,,,,,,,,,,,,,,,,,1106.7176783021305,None,materials/singPic.jpg,corner,C_sing,15,69,1103.032702602592,None,1103.032702602592,None,1103.9672414163092,None,1104.2334019931136,None,1104.2334019931136,None,,,,,,,,,,,,,,,,,,,,,,,,,,,,,,,,,,,sing30,001,2019_Nov_11_1534,ProdFawcett_Revision2019,3.2.4,59.86741316969344,
16,0,16,0,,,,,,,,,,,,,,,,,1110.985656709599,None,materials/readPic.jpg,author,A_silent,16,15,1107.3255322636173,None,1107.3255322636173,None,1108.235364752621,None,1108.501427051497,None,1108.501427051497,None,,,,,,,,,,,,,,,,,,,,,,,,,,,,,,,,,,,sing30,001,2019_Nov_11_1534,ProdFawcett_Revision2019,3.2.4,59.86741316969344,
17,0,17,0,,,,,,,,,,,,,,,,,1115.2536699497505,None,materials/speakPic.jpg,youth,B_aloud,17,359,1111.6102085886819,None,1111.6102085886819,None,1112.5033944760962,None,1112.7696029478402,None,1112.7696029478402,None,,,,,,,,,,,,,,,,,,,,,,,,,,,,,,,,,,,sing30,001,2019_Nov_11_1534,ProdFawcett_Revision2019,3.2.4,59.86741316969344,
18,0,18,0,,,,,,,,,,,,,,,,,1119.5217211326467,None,materials/readPic.jpg,session,A_silent,18,281,1115.8460914774687,None,1115.8460914774687,None,1116.7714126923456,None,1117.0374805893316,None,1117.0374805893316,None,,,,,,,,,,,,,,,,,,,,,,,,,,,,,,,,,,,sing30,001,2019_Nov_11_1534,ProdFawcett_Revision2019,3.2.4,59.86741316969344,
19,0,19,0,,,,,,,,,,,,,,,,,1123.7897430809694,None,materials/singPic.jpg,conference,C_sing,19,66,1120.1282455430492,None,1120.1282455430492,None,1121.0393005970382,None,1121.3055277291483,None,1121.3055277291483,None,,,,,,,,,,,,,,,,,,,,,,,,,,,,,,,,,,,sing30,001,2019_Nov_11_1534,ProdFawcett_Revision2019,3.2.4,59.86741316969344,
20,0,20,0,,,,,,,,,,,,,,,,,1128.057753522066,None,materials/singPic.jpg,stranger,C_sing,20,309,1124.380863359158,None,1124.380863359158,None,1125.307366086215,None,1125.5736361371673,None,1125.5736361371673,None,,,,,,,,,,,,,,,,,,,,,,,,,,,,,,,,,,,sing30,001,2019_Nov_11_1534,ProdFawcett_Revision2019,3.2.4,59.86741316969344,
21,0,21,0,,,,,,,,,,,,,,,,,1132.3258140351454,None,materials/readPic.jpg,error,A_silent,21,117,1128.6594840844182,None,1128.6594840844182,None,1129.5755836573758,None,1129.841573180824,None,1129.841573180824,None,,,,,,,,,,,,,,,,,,,,,,,,,,,,,,,,,,,sing30,001,2019_Nov_11_1534,ProdFawcett_Revision2019,3.2.4,59.86741316969344,
22,0,22,0,,,,,,,,,,,,,,,,,1136.5938683281024,None,materials/speakPic.jpg,taste,B_aloud,22,322,1132.9151124395908,None,1132.9151124395908,None,1133.843472806093,None,1134.1095714926828,None,1134.1095714926828,None,,,,,,,,,,,,,,,,,,,,,,,,,,,,,,,,,,,sing30,001,2019_Nov_11_1534,ProdFawcett_Revision2019,3.2.4,59.86741316969344,
23,0,23,0,,,,,,,,,,,,,,,,,1140.861852955693,None,materials/speakPic.jpg,produce,B_aloud,23,239,1137.176958117741,None,1137.176958117741,None,1138.1116406162769,None,1138.3776236085973,None,1138.3776236085973,None,,,,,,,,,,,,,,,,,,,,,,,,,,,,,,,,,,,sing30,001,2019_Nov_11_1534,ProdFawcett_Revision2019,3.2.4,59.86741316969344,
24,0,24,0,,,,,,,,,,,,,,,,,1145.1299147127966,None,materials/readPic.jpg,sight,A_silent,24,286,1141.4630846642576,None,1141.4630846642576,None,1142.3796501243555,None,1142.645648977987,None,1142.645648977987,None,,,,,,,,,,,,,,,,,,,,,,,,,,,,,,,,,,,sing30,001,2019_Nov_11_1534,ProdFawcett_Revision2019,3.2.4,59.86741316969344,
25,0,25,0,,,,,,,,,,,,,,,,,1149.39789591932,None,materials/readPic.jpg,comfort,A_silent,25,59,1145.7055950930699,None,1145.7055950930699,None,1146.6477165465508,None,1146.9136774574376,None,1146.9136774574376,None,,,,,,,,,,,,,,,,,,,,,,,,,,,,,,,,,,,sing30,001,2019_Nov_11_1534,ProdFawcett_Revision2019,3.2.4,59.86741316969344,
26,0,26,0,,,,,,,,,,,,,,,,,1153.6659166236182,None,materials/singPic.jpg,store,C_sing,26,305,1150.002252306188,None,1150.002252306188,None,1150.915559666365,None,1151.1816773243272,None,1151.1816773243272,None,,,,,,,,,,,,,,,,,,,,,,,,,,,,,,,,,,,sing30,001,2019_Nov_11_1534,ProdFawcett_Revision2019,3.2.4,59.86741316969344,
27,0,27,0,,,,,,,,,,,,,,,,,1157.9339435480383,None,materials/singPic.jpg,piece,C_sing,27,221,1154.2551273243425,None,1154.2551273243425,None,1155.1838988409113,None,1155.4497138899364,None,1155.4497138899364,None,,,,,,,,,,,,,,,,,,,,,,,,,,,,,,,,,,,sing30,001,2019_Nov_11_1534,ProdFawcett_Revision2019,3.2.4,59.86741316969344,
28,0,28,0,,,,,,,,,,,,,,,,,1162.2019732715135,None,materials/speakPic.jpg,appearance,B_aloud,28,10,1158.5238624096564,None,1158.5238624096564,None,1159.4517575110303,None,1159.7177641398143,None,1159.7177641398143,None,,,,,,,,,,,,,,,,,,,,,,,,,,,,,,,,,,,sing30,001,2019_Nov_11_1534,ProdFawcett_Revision2019,3.2.4,59.86741316969344,
29,0,29,0,,,,,,,,,,,,,,,,,1166.4700054830373,None,materials/readPic.jpg,estate,A_silent,29,119,1162.793297569705,None,1162.793297569705,None,1163.7196127600823,None,1163.9857814230454,None,1163.9857814230454,None,,,,,,,,,,,,,,,,,,,,,,,,,,,,,,,,,,,sing30,001,2019_Nov_11_1534,ProdFawcett_Revision2019,3.2.4,59.86741316969344,
30,0,30,0,,,,,,,,,,,,,,,,,1170.737868196236,None,materials/speakPic.jpg,literature,B_aloud,30,173,1167.0614153079068,None,1167.0614153079068,None,1167.9878340633163,None,1168.2538151896001,None,1168.2538151896001,None,,,,,,,,,,,,,,,,,,,,,,,,,,,,,,,,,,,sing30,001,2019_Nov_11_1534,ProdFawcett_Revision2019,3.2.4,59.86741316969344,
31,0,31,0,,,,,,,,,,,,,,,,,1175.0060546667864,None,materials/speakPic.jpg,close,B_aloud,31,53,1171.3211417904804,None,1171.3211417904804,None,1172.25582957612,None,1172.5218641954534,None,1172.5218641954534,None,,,,,,,,,,,,,,,,,,,,,,,,,,,,,,,,,,,sing30,001,2019_Nov_11_1534,ProdFawcett_Revision2019,3.2.4,59.86741316969344,
32,0,32,0,,,,,,,,,,,,,,,,,1179.2741207779754,None,materials/readPic.jpg,generation,A_silent,32,136,1175.607288552394,None,1175.607288552394,None,1176.5237666197772,None,1176.7898345167632,None,1176.7898345167632,None,,,,,,,,,,,,,,,,,,,,,,,,,,,,,,,,,,,sing30,001,2019_Nov_11_1534,ProdFawcett_Revision2019,3.2.4,59.86741316969344,
33,0,33,0,,,,,,,,,,,,,,,,,1183.5421262429745,None,materials/speakPic.jpg,primary,B_aloud,33,234,1179.8635501159897,None,1179.8635501159897,None,1180.7919058174002,None,1181.057875125452,None,1181.057875125452,None,,,,,,,,,,,,,,,,,,,,,,,,,,,,,,,,,,,sing30,001,2019_Nov_11_1534,ProdFawcett_Revision2019,3.2.4,59.86741316969344,
34,0,34,0,,,,,,,,,,,,,,,,,1187.810206349438,None,materials/readPic.jpg,space,A_silent,34,297,1184.1467948799686,None,1184.1467948799686,None,1185.0598590333743,None,1185.3259729592633,None,1185.3259729592633,None,,,,,,,,,,,,,,,,,,,,,,,,,,,,,,,,,,,sing30,001,2019_Nov_11_1534,ProdFawcett_Revision2019,3.2.4,59.86741316969344,
35,0,35,0,,,,,,,,,,,,,,,,,1192.0781576993759,None,materials/singPic.jpg,finish,C_sing,35,130,1188.419612231372,None,1188.419612231372,None,1189.327902752124,None,1189.5939840223723,None,1189.5939840223723,None,,,,,,,,,,,,,,,,,,,,,,,,,,,,,,,,,,,sing30,001,2019_Nov_11_1534,ProdFawcett_Revision2019,3.2.4,59.86741316969344,
36,0,36,0,,,,,,,,,,,,,,,,,1196.3461815137348,None,materials/singPic.jpg,motion,C_sing,36,194,1192.6613012930698,None,1192.6613012930698,None,1193.595769819408,None,1193.8619692719749,None,1193.8619692719749,None,,,,,,,,,,,,,,,,,,,,,,,,,,,,,,,,,,,sing30,001,2019_Nov_11_1534,ProdFawcett_Revision2019,3.2.4,59.86741316969344,
37,0,37,0,,,,,,,,,,,,,,,,,1200.614238916753,None,materials/readPic.jpg,principal,A_silent,37,236,1196.9393824227436,None,1196.9393824227436,None,1197.8640477257522,None,1198.130022631914,None,1198.130022631914,None,,,,,,,,,,,,,,,,,,,,,,,,,,,,,,,,,,,sing30,001,2019_Nov_11_1534,ProdFawcett_Revision2019,3.2.4,59.86741316969344,
38,0,38,0,,,,,,,,,,,,,,,,,1204.8822443817521,None,materials/singPic.jpg,debate,C_sing,38,87,1201.2323899792586,None,1201.2323899792586,None,1202.131999386696,None,1202.3980091255407,None,1202.3980091255407,None,,,,,,,,,,,,,,,,,,,,,,,,,,,,,,,,,,,sing30,001,2019_Nov_11_1534,ProdFawcett_Revision2019,3.2.4,59.86741316969344,
39,0,39,0,,,,,,,,,,,,,,,,,1209.150499895657,None,materials/singPic.jpg,message,C_sing,39,189,1205.4684731559746,None,1205.4684731559746,None,1206.4000163589208,None,1206.666063729504,None,1206.666063729504,None,,,,,,,,,,,,,,,,,,,,,,,,,,,,,,,,,,,sing30,001,2019_Nov_11_1534,ProdFawcett_Revision2019,3.2.4,59.86741316969344,
40,0,40,0,,,,,,,,,,,,,,,,,1213.4183159579406,None,materials/readPic.jpg,device,A_silent,40,93,1209.7434202771624,None,1209.7434202771624,None,1210.6687116354533,None,1210.934070749534,None,1210.934070749534,None,,,,,,,,,,,,,,,,,,,,,,,,,,,,,,,,,,,sing30,001,2019_Nov_11_1534,ProdFawcett_Revision2019,3.2.4,59.86741316969344,
41,0,41,0,,,,,,,,,,,,,,,,,1217.6863263990376,None,materials/speakPic.jpg,watch,B_aloud,41,351,1214.0066636167335,None,1214.0066636167335,None,1214.9361367630668,None,1215.2020780805697,None,1215.2020780805697,None,,,,,,,,,,,,,,,,,,,,,,,,,,,,,,,,,,,sing30,001,2019_Nov_11_1534,ProdFawcett_Revision2019,3.2.4,59.86741316969344,
42,0,42,0,,,,,,,,,,,,,,,,,1221.9543853570863,None,materials/speakPic.jpg,leader,B_aloud,42,168,1218.2694749688294,None,1218.2694749688294,None,1219.2042034962683,None,1219.4701351725816,None,1219.4701351725816,None,,,,,,,,,,,,,,,,,,,,,,,,,,,,,,,,,,,sing30,001,2019_Nov_11_1534,ProdFawcett_Revision2019,3.2.4,59.86741316969344,
43,0,43,0,,,,,,,,,,,,,,,,,1226.2224032623294,None,materials/readPic.jpg,guest,A_silent,43,146,1222.5466240132164,None,1222.5466240132164,None,1223.4722531241337,None,1223.738152766819,None,1223.738152766819,None,,,,,,,,,,,,,,,,,,,,,,,,,,,,,,,,,,,sing30,001,2019_Nov_11_1534,ProdFawcett_Revision2019,3.2.4,59.86741316969344,
44,0,44,0,,,,,,,,,,,,,,,,,1230.4904245886396,None,materials/speakPic.jpg,under,B_aloud,44,343,1226.810775490604,None,1226.810775490604,None,1227.740169952394,None,1228.0061768921842,None,1228.0061768921842,None,,,,,,,,,,,,,,,,,,,,,,,,,,,,,,,,,,,sing30,001,2019_Nov_11_1534,ProdFawcett_Revision2019,3.2.4,59.86741316969344,
45,0,45,0,,,,,,,,,,,,,,,,,1234.7584182354071,None,materials/readPic.jpg,republic,A_silent,45,260,1231.0949622920648,None,1231.0949622920648,None,1232.0082195802597,None,1232.274224343007,None,1232.274224343007,None,,,,,,,,,,,,,,,,,,,,,,,,,,,,,,,,,,,sing30,001,2019_Nov_11_1534,ProdFawcett_Revision2019,3.2.4,59.86741316969344,
46,0,46,0,,,,,,,,,,,,,,,,,1239.0264806145228,None,materials/readPic.jpg,column,A_silent,46,57,1235.3415724033089,None,1235.3415724033089,None,1236.2762701411439,None,1236.5422310520307,None,1236.5422310520307,None,,,,,,,,,,,,,,,,,,,,,,,,,,,,,,,,,,,sing30,001,2019_Nov_11_1534,ProdFawcett_Revision2019,3.2.4,59.86741316969344,
47,0,47,0,,,,,,,,,,,,,,,,,1243.2944895005894,None,materials/readPic.jpg,salary,A_silent,47,271,1239.6012435267967,None,1239.6012435267967,None,1240.5442538357156,None,1240.81025486639,None,1240.81025486639,None,,,,,,,,,,,,,,,,,,,,,,,,,,,,,,,,,,,sing30,001,2019_Nov_11_1534,ProdFawcett_Revision2019,3.2.4,59.86741316969344,
48,0,48,0,,,,,,,,,,,,,,,,,1247.5625182910462,None,materials/readPic.jpg,company,A_silent,48,64,1243.8655147415334,None,1243.8655147415334,None,1244.8122347312328,None,1245.0782749486762,None,1245.0782749486762,None,,,,,,,,,,,,,,,,,,,,,,,,,,,,,,,,,,,sing30,001,2019_Nov_11_1534,ProdFawcett_Revision2019,3.2.4,59.86741316969344,
49,0,49,0,,,,,,,,,,,,,,,,,1251.830534019247,None,materials/singPic.jpg,safety,C_sing,49,270,1248.2178600851967,None,1248.2178600851967,None,1249.0803543354714,None,1249.3463233325174,None,1249.3463233325174,None,,,,,,,,,,,,,,,,,,,,,,,,,,,,,,,,,,,sing30,001,2019_Nov_11_1534,ProdFawcett_Revision2019,3.2.4,59.86741316969344,
50,0,50,0,,,,,,,,,,,,,,,,,1256.0985705848561,None,materials/singPic.jpg,thing,C_sing,50,328,1252.4139096234926,None,1252.4139096234926,None,1253.3483545133672,None,1253.6143347066322,None,1253.6143347066322,None,,,,,,,,,,,,,,,,,,,,,,,,,,,,,,,,,,,sing30,001,2019_Nov_11_1534,ProdFawcett_Revision2019,3.2.4,59.86741316969344,
51,0,51,0,,,,,,,,,,,,,,,,,1260.3666227007707,None,materials/speakPic.jpg,measure,B_aloud,51,184,1256.684510123404,None,1256.684510123404,None,1257.6164710075445,None,1257.882363497089,None,1257.882363497089,None,,,,,,,,,,,,,,,,,,,,,,,,,,,,,,,,,,,sing30,001,2019_Nov_11_1534,ProdFawcett_Revision2019,3.2.4,59.86741316969344,
52,0,52,0,,,,,,,,,,,,,,,,,1264.634638117965,None,materials/speakPic.jpg,block,B_aloud,52,25,1260.9497367488852,None,1260.9497367488852,None,1261.88451348227,None,1262.1504103258999,None,1262.1504103258999,None,,,,,,,,,,,,,,,,,,,,,,,,,,,,,,,,,,,sing30,001,2019_Nov_11_1534,ProdFawcett_Revision2019,3.2.4,59.86741316969344,
53,0,53,0,,,,,,,,,,,,,,,,,1268.9026286546714,None,materials/speakPic.jpg,testimony,B_aloud,53,325,1265.2083028676939,None,1265.2083028676939,None,1266.1526026079105,None,1266.4184297861739,None,1266.4184297861739,None,,,,,,,,,,,,,,,,,,,,,,,,,,,,,,,,,,,sing30,001,2019_Nov_11_1534,ProdFawcett_Revision2019,3.2.4,59.86741316969344,
54,0,54,0,,,,,,,,,,,,,,,,,1273.1706916557996,None,materials/speakPic.jpg,surface,B_aloud,54,316,1269.4384408517708,None,1269.4384408517708,None,1270.4205688861407,None,1270.6864417823012,None,1270.6864417823012,None,,,,,,,,,,,,,,,,,,,,,,,,,,,,,,,,,,,sing30,001,2019_Nov_11_1534,ProdFawcett_Revision2019,3.2.4,59.86741316969344,
55,0,55,0,,,,,,,,,,,,,,,,,1277.4386933887254,None,materials/speakPic.jpg,chief,B_aloud,55,48,1273.7371475950986,None,1273.7371475950986,None,1274.6889049506262,None,1274.9544901661425,None,1274.9544901661425,None,,,,,,,,,,,,,,,,,,,,,,,,,,,,,,,,,,,sing30,001,2019_Nov_11_1534,ProdFawcett_Revision2019,3.2.4,59.86741316969344,
56,0,56,0,,,,,,,,,,,,,,,,,1281.7067290213163,None,materials/readPic.jpg,signal,A_silent,56,287,1278.077284083236,None,1278.077284083236,None,1278.956597543487,None,1279.222463597513,None,1279.222463597513,None,,,,,,,,,,,,,,,,,,,,,,,,,,,,,,,,,,,sing30,001,2019_Nov_11_1534,ProdFawcett_Revision2019,3.2.4,59.86741316969344,
57,0,57,0,,,,,,,,,,,,,,,,,1285.9747550127186,None,materials/singPic.jpg,owner,C_sing,57,208,1282.313850252428,None,1282.313850252428,None,1283.224593367297,None,1283.4904961200432,None,1283.4904961200432,None,,,,,,,,,,,,,,,,,,,,,,,,,,,,,,,,,,,sing30,001,2019_Nov_11_1534,ProdFawcett_Revision2019,3.2.4,59.86741316969344,
58,0,58,0,,,,,,,,,,,,,,,,,1290.2427688748821,None,materials/singPic.jpg,research,C_sing,58,261,1286.5579141567177,None,1286.5579141567177,None,1287.4926818709255,None,1287.7585320636404,None,1287.7585320636404,None,,,,,,,,,,,,,,,,,,,,,,,,,,,,,,,,,,,sing30,001,2019_Nov_11_1534,ProdFawcett_Revision2019,3.2.4,59.86741316969344,
59,0,59,0,,,,,,,,,,,,,,,,,1294.510821923815,None,materials/singPic.jpg,number,C_sing,59,203,1290.8259594304977,None,1290.8259594304977,None,1291.7606164265335,None,1292.0265692512621,None,1292.0265692512621,None,,,,,,,,,,,,,,,,,,,,,,,,,,,,,,,,,,,sing30,001,2019_Nov_11_1534,ProdFawcett_Revision2019,3.2.4,59.86741316969344,
60,0,60,0,,,,,,,,,,,,,,,,,1298.778988178969,None,materials/singPic.jpg,month,C_sing,60,193,1295.097480197464,None,1295.097480197464,None,1296.0288448829074,None,1296.294598041719,None,1296.294598041719,None,,,,,,,,,,,,,,,,,,,,,,,,,,,,,,,,,,,sing30,001,2019_Nov_11_1534,ProdFawcett_Revision2019,3.2.4,59.86741316969344,
61,0,61,0,,,,,,,,,,,,,,,,,1303.0468854138448,None,materials/readPic.jpg,period,A_silent,61,217,1299.4138816329437,None,1299.4138816329437,None,1300.2967542470215,None,1300.5626290092182,None,1300.5626290092182,None,,,,,,,,,,,,,,,,,,,,,,,,,,,,,,,,,,,sing30,001,2019_Nov_11_1534,ProdFawcett_Revision2019,3.2.4,59.86741316969344,
62,0,62,0,,,,,,,,,,,,,,,,,1307.3149002090272,None,materials/singPic.jpg,defeat,C_sing,62,88,1303.650184379967,None,1303.650184379967,None,1304.5647379415936,None,1304.8306447374189,None,1304.8306447374189,None,,,,,,,,,,,,,,,,,,,,,,,,,,,,,,,,,,,sing30,001,2019_Nov_11_1534,ProdFawcett_Revision2019,3.2.4,59.86741316969344,
63,0,63,0,,,,,,,,,,,,,,,,,1311.5829187362824,None,materials/singPic.jpg,crime,C_sing,63,78,1307.8980534439102,None,1307.8980534439102,None,1308.832749937721,None,1309.098686901138,None,1309.098686901138,None,,,,,,,,,,,,,,,,,,,,,,,,,,,,,,,,,,,sing30,001,2019_Nov_11_1534,ProdFawcett_Revision2019,3.2.4,59.86741316969344,
64,0,64,0,,,,,,,,,,,,,,,,,1315.8508741292994,None,materials/readPic.jpg,graduate,A_silent,64,141,1312.1931801960022,None,1312.1931801960022,None,1313.10077375208,None,1313.3667184906499,None,1313.3667184906499,None,,,,,,,,,,,,,,,,,,,,,,,,,,,,,,,,,,,sing30,001,2019_Nov_11_1534,ProdFawcett_Revision2019,3.2.4,59.86741316969344,
65,0,65,0,,,,,,,,,,,,,,,,,1320.1189713410986,None,materials/readPic.jpg,cover,A_silent,65,77,1316.4219015472863,None,1316.4219015472863,None,1317.368995055314,None,1317.6347404389726,None,1317.6347404389726,None,,,,,,,,,,,,,,,,,,,,,,,,,,,,,,,,,,,sing30,001,2019_Nov_11_1534,ProdFawcett_Revision2019,3.2.4,59.86741316969344,
66,0,66,0,,,,,,,,,,,,,,,,,1324.386989557348,None,materials/readPic.jpg,trial,A_silent,66,341,1320.6922255627733,None,1320.6922255627733,None,1321.636914993635,None,1321.902777315588,None,1321.902777315588,None,,,,,,,,,,,,,,,,,,,,,,,,,,,,,,,,,,,sing30,001,2019_Nov_11_1534,ProdFawcett_Revision2019,3.2.4,59.86741316969344,
67,0,67,0,,,,,,,,,,,,,,,,,1328.6550295440243,None,materials/readPic.jpg,interior,A_silent,67,164,1324.9701515004022,None,1324.9701515004022,None,1325.904937252964,None,1326.1707955318375,None,1326.1707955318375,None,,,,,,,,,,,,,,,,,,,,,,,,,,,,,,,,,,,sing30,001,2019_Nov_11_1534,ProdFawcett_Revision2019,3.2.4,59.86741316969344,
68,0,68,0,,,,,,,,,,,,,,,,,1332.923057090457,None,materials/readPic.jpg,congress,A_silent,68,67,1329.2047922308184,None,1329.2047922308184,None,1330.1728363538764,None,1330.4388516908311,None,1330.4388516908311,None,,,,,,,,,,,,,,,,,,,,,,,,,,,,,,,,,,,sing30,001,2019_Nov_11_1534,ProdFawcett_Revision2019,3.2.4,59.86741316969344,
69,0,69,0,,,,,,,,,,,,,,,,,1337.1910846368892,None,materials/singPic.jpg,instrument,C_sing,69,163,1333.5745377438557,None,1333.5745377438557,None,1334.4409743074748,None,1334.7068518687265,None,1334.7068518687265,None,,,,,,,,,,,,,,,,,,,,,,,,,,,,,,,,,,,sing30,001,2019_Nov_11_1534,ProdFawcett_Revision2019,3.2.4,59.86741316969344,
70,0,70,0,,,,,,,,,,,,,,,,,1341.4591087622548,None,materials/speakPic.jpg,guard,B_aloud,70,145,1337.7770562090654,None,1337.7770562090654,None,1338.7090186482365,None,1338.9748865682996,None,1338.9748865682996,None,,,,,,,,,,,,,,,,,,,,,,,,,,,,,,,,,,,sing30,001,2019_Nov_11_1534,ProdFawcett_Revision2019,3.2.4,59.86741316969344,
71,0,71,0,,,,,,,,,,,,,,,,,1345.7271462608824,None,materials/singPic.jpg,tragedy,C_sing,71,335,1342.0770240821353,None,1342.0770240821353,None,1342.977026912291,None,1343.2429293540308,None,1343.2429293540308,None,,,,,,,,,,,,,,,,,,,,,,,,,,,,,,,,,,,sing30,001,2019_Nov_11_1534,ProdFawcett_Revision2019,3.2.4,59.86741316969344,
72,0,72,0,,,,,,,,,,,,,,,,,1349.9951703862475,None,materials/speakPic.jpg,personnel,B_aloud,72,219,1346.317994408732,None,1346.317994408732,None,1347.2450762291505,None,1347.5109071394868,None,1347.5109071394868,None,,,,,,,,,,,,,,,,,,,,,,,,,,,,,,,,,,,sing30,001,2019_Nov_11_1534,ProdFawcett_Revision2019,3.2.4,59.86741316969344,
73,0,73,0,,,,,,,,,,,,,,,,,1354.2631805163383,None,materials/speakPic.jpg,machinery,B_aloud,73,175,1350.5629617857471,None,1350.5629617857471,None,1351.5130611677469,None,1351.7789595664076,None,1351.7789595664076,None,,,,,,,,,,,,,,,,,,,,,,,,,,,,,,,,,,,sing30,001,2019_Nov_11_1534,ProdFawcett_Revision2019,3.2.4,59.86741316969344,
74,0,74,0,,,,,,,,,,,,,,,,,1358.5312208140208,None,materials/readPic.jpg,dispute,A_silent,74,99,1354.8658543601964,None,1354.8658543601964,None,1355.7811714418021,None,1356.0469678304617,None,1356.0469678304617,None,,,,,,,,,,,,,,,,,,,,,,,,,,,,,,,,,,,sing30,001,2019_Nov_11_1534,ProdFawcett_Revision2019,3.2.4,59.86741316969344,
75,0,75,0,,,,,,,,,,,,,,,,,1362.7992153938067,None,materials/speakPic.jpg,enemy,B_aloud,75,113,1359.1237465287832,None,1359.1237465287832,None,1360.0492220026863,None,1360.3059255059525,None,1360.3059255059525,None,,,,,,,,,,,,,,,,,,,,,,,,,,,,,,,,,,,sing30,001,2019_Nov_11_1534,ProdFawcett_Revision2019,3.2.4,59.86741316969344,
76,0,76,0,,,,,,,,,,,,,,,,,1367.0672594235625,None,materials/speakPic.jpg,detective,B_aloud,76,92,1363.3691256778766,None,1363.3691256778766,None,1364.3171767736908,None,1364.5830882346077,None,1364.5830882346077,None,,,,,,,,,,,,,,,,,,,,,,,,,,,,,,,,,,,sing30,001,2019_Nov_11_1534,ProdFawcett_Revision2019,3.2.4,59.86741316969344,
77,0,77,0,,,,,,,,,,,,,,,,,1371.3353096734404,None,materials/singPic.jpg,income,C_sing,77,159,1367.6685209887132,None,1367.6685209887132,None,1368.5852388418007,None,1368.8510681971065,None,1368.8510681971065,None,,,,,,,,,,,,,,,,,,,,,,,,,,,,,,,,,,,sing30,001,2019_Nov_11_1534,ProdFawcett_Revision2019,3.2.4,59.86741316969344,
78,0,78,0,,,,,,,,,,,,,,,,,1375.6033331767935,None,materials/speakPic.jpg,worker,B_aloud,78,356,1371.9368523881067,None,1371.9368523881067,None,1372.852378154807,None,1373.119116269942,None,1373.119116269942,None,,,,,,,,,,,,,,,,,,,,,,,,,,,,,,,,,,,sing30,001,2019_Nov_11_1534,ProdFawcett_Revision2019,3.2.4,59.86741316969344,
79,0,79,0,,,,,,,,,,,,,,,,,1379.8713977329521,None,materials/speakPic.jpg,theme,B_aloud,79,326,1376.1762204112679,None,1376.1762204112679,None,1377.1213166381108,None,1377.3871323091485,None,1377.3871323091485,None,,,,,,,,,,,,,,,,,,,,,,,,,,,,,,,,,,,sing30,001,2019_Nov_11_1534,ProdFawcett_Revision2019,3.2.4,59.86741316969344,
80,0,80,0,,,,,,,,,,,,,,,,,1384.1393767624327,None,materials/speakPic.jpg,private,B_aloud,80,237,1380.438119582468,None,1380.438119582468,None,1381.3894605008254,None,1381.655141195215,None,1381.655141195215,None,,,,,,,,,,,,,,,,,,,,,,,,,,,,,,,,,,,sing30,001,2019_Nov_11_1534,ProdFawcett_Revision2019,3.2.4,59.86741316969344,
81,0,81,0,,,,,,,,,,,,,,,,,1388.4074114620053,None,materials/singPic.jpg,benefit,C_sing,81,20,1384.7603284348834,None,1384.7603284348834,None,1385.6564701242874,None,1385.923188646038,None,1385.923188646038,None,,,,,,,,,,,,,,,,,,,,,,,,,,,,,,,,,,,sing30,001,2019_Nov_11_1534,ProdFawcett_Revision2019,3.2.4,59.86741316969344,
82,0,82,0,,,,,,,,,,,,,,,,,1392.6754427405108,None,materials/singPic.jpg,captain,C_sing,82,41,1388.996073858973,None,1388.996073858973,None,1389.9242532199237,None,1390.1912230346047,None,1390.1912230346047,None,,,,,,,,,,,,,,,,,,,,,,,,,,,,,,,,,,,sing30,001,2019_Nov_11_1534,ProdFawcett_Revision2019,3.2.4,59.86741316969344,
83,0,83,0,,,,,,,,,,,,,,,,,1396.9434653108456,None,materials/readPic.jpg,victory,A_silent,83,346,1393.2769692828601,None,1393.2769692828601,None,1394.1925127769077,None,1394.4592247675305,None,1394.4592247675305,None,,,,,,,,,,,,,,,,,,,,,,,,,,,,,,,,,,,sing30,001,2019_Nov_11_1534,ProdFawcett_Revision2019,3.2.4,59.86741316969344,
84,0,84,0,,,,,,,,,,,,,,,,,1401.2114679767901,None,materials/singPic.jpg,waste,C_sing,84,350,1397.5448581205715,None,1397.5448581205715,None,1398.4614173605469,None,1398.7272563570423,None,1398.7272563570423,None,,,,,,,,,,,,,,,,,,,,,,,,,,,,,,,,,,,sing30,001,2019_Nov_11_1534,ProdFawcett_Revision2019,3.2.4,59.86741316969344,
85,0,85,0,,,,,,,,,,,,,,,,,1405.4795213367288,None,materials/singPic.jpg,history,C_sing,85,153,1401.8112640811896,None,1401.8112640811896,None,1402.7295052421632,None,1402.9952758173163,None,1402.9952758173163,None,,,,,,,,,,,,,,,,,,,,,,,,,,,,,,,,,,,sing30,001,2019_Nov_11_1534,ProdFawcett_Revision2019,3.2.4,59.86741316969344,
86,0,86,0,,,,,,,,,,,,,,,,,1409.747523691667,None,materials/readPic.jpg,material,A_silent,86,182,1406.0827932453203,None,1406.0827932453203,None,1406.996603502364,None,1407.2633080288401,None,1407.2633080288401,None,,,,,,,,,,,,,,,,,,,,,,,,,,,,,,,,,,,sing30,001,2019_Nov_11_1534,ProdFawcett_Revision2019,3.2.4,59.86741316969344,
87,0,87,0,,,,,,,,,,,,,,,,,1414.0155680324292,None,materials/singPic.jpg,stand,C_sing,87,302,1410.349022243467,None,1410.349022243467,None,1411.2656284453642,None,1411.5313287331383,None,1411.5313287331383,None,,,,,,,,,,,,,,,,,,,,,,,,,,,,,,,,,,,sing30,001,2019_Nov_11_1534,ProdFawcett_Revision2019,3.2.4,59.86741316969344,
88,0,88,0,,,,,,,,,,,,,,,,,1418.2835797175503,None,materials/singPic.jpg,answer,C_sing,88,8,1414.5987915546912,None,1414.5987915546912,None,1415.533538120484,None,1415.799348504418,None,1415.799348504418,None,,,,,,,,,,,,,,,,,,,,,,,,,,,,,,,,,,,sing30,001,2019_Nov_11_1534,ProdFawcett_Revision2019,3.2.4,59.86741316969344,
89,0,89,0,,,,,,,,,,,,,,,,,1422.5516200152329,None,materials/speakPic.jpg,place,B_aloud,89,222,1418.8851756142603,None,1418.8851756142603,None,1419.80073652465,None,1420.067386936064,None,1420.067386936064,None,,,,,,,,,,,,,,,,,,,,,,,,,,,,,,,,,,,sing30,001,2019_Nov_11_1534,ProdFawcett_Revision2019,3.2.4,59.86741316969344,
,,,,,,,,,,,,,,,,,,,,,,,,,,,,,,,,,,,,,1423.0517539033594,None,k,97.0644563255687,1423.0517539033594,None,,,,,,,,,,,,,,,,,,,,,,,,,,,,,sing30,001,2019_Nov_11_1534,ProdFawcett_Revision2019,3.2.4,59.86741316969344,
,,,,,,,,,,,,,,1520.1327283849978,None,space,6.02292892484229,1520.1327283849978,None,,,,,,,,,,,,,,,,,,,,,,,,,,,,,,,,,,,,,,,,,,,,,,,,,,,,sing30,001,2019_Nov_11_1534,ProdFawcett_Revision2019,3.2.4,59.86741316969344,
,,,,0,0,0,0,,,,,,,,,,,,,1536.106530164015,None,,,,,,,,,,,,,,,,,,,,,,expansion,D_new,0,123,1526.707691274195,None,1526.707691274195,None,1526.707691274195,None,1,4.231413420100125,1526.707691274195,None,1530.9924714752979,None,1530.9924714752979,None,1531.5243124354856,None,1531.5243124354856,None,1531.5243124354856,None,n,4.534557287479402,1531.5243124354856,None,sing30,001,2019_Nov_11_1534,ProdFawcett_Revision2019,3.2.4,59.86741316969344,
,,,,1,0,1,0,,,,,,,,,,,,,1547.074637110305,None,,,,,,,,,,,,,,,,,,,,,,discussion,D_new,1,96,1536.639937661937,None,1536.639937661937,None,1536.639937661937,None,2,4.77880157530808,1536.639937661937,None,1541.4609408991992,None,1541.4609408991992,None,1541.9900537138637,None,1541.9900537138637,None,1541.9900537138637,None,n,5.044987343606863,1541.9900537138637,None,sing30,001,2019_Nov_11_1534,ProdFawcett_Revision2019,3.2.4,59.86741316969344,
,,,,2,0,2,0,,,,,,,,,,,,,1553.1097873309172,None,,,,,,,,,,,,,,,,,,,,,,subject,D_new,2,312,1547.607995780269,None,1547.607995780269,None,1547.607995780269,None,5,2.8590759822118343,1547.607995780269,None,1550.525548062727,None,1550.525548062727,None,1551.046956945248,None,1551.046956945248,None,1551.046956945248,None,f,2.019927715961785,1551.046956945248,None,sing30,001,2019_Nov_11_1534,ProdFawcett_Revision2019,3.2.4,59.86741316969344,
,,,,3,0,3,0,,,,,,,,,,,,,1559.6283875173344,None,,,,,,,,,,,,,,,,,,,,,,theme,B_aloud,3,326,1553.6273882547298,None,1553.6273882547298,None,1553.6273882547298,None,1,4.230590497955291,1553.6273882547298,None,1557.8991537834977,None,1557.8991537834977,None,1558.4279960228537,None,1558.4279960228537,None,1558.4279960228537,None,n,1.1662280962291334,1558.4279960228537,None,sing30,001,2019_Nov_11_1534,ProdFawcett_Revision2019,3.2.4,59.86741316969344,
,,,,4,0,4,0,,,,,,,,,,,,,1564.9470322398251,None,,,,,,,,,,,,,,,,,,,,,,store,C_sing,4,305,1560.1302726808194,None,1560.1302726808194,None,1560.1302726808194,None,4,3.2080478426910304,1560.1302726808194,None,1563.3870697969223,None,1563.3870697969223,None,1563.9132109482853,None,1563.9132109482853,None,1563.9132109482853,None,f,1.0005598109833045,1563.9132109482853,None,sing30,001,2019_Nov_11_1534,ProdFawcett_Revision2019,3.2.4,59.86741316969344,
,,,,5,0,5,0,,,,,,,,,,,,,1569.6317258568292,None,,,,,,,,,,,,,,,,,,,,,,reach,A_silent,5,253,1565.4640621564354,None,1565.4640621564354,None,1565.4640621564354,None,2,2.0741690461227336,1565.4640621564354,None,1567.5871661466126,None,1567.5871661466126,None,1568.1145674946993,None,1568.1145674946993,None,1568.1145674946993,None,n,1.4790725549246417,1568.1145674946993,None,sing30,001,2019_Nov_11_1534,ProdFawcett_Revision2019,3.2.4,59.86741316969344,
,,,,6,0,6,0,,,,,,,,,,,,,1573.7996949652152,None,,,,,,,,,,,,,,,,,,,,,,revolution,D_new,6,264,1570.1512394681668,None,1570.1512394681668,None,1570.1512394681668,None,1,2.314411618441227,1570.1512394681668,None,1572.5059428600925,None,1572.5059428600925,None,1573.033491936078,None,1573.033491936078,None,1573.033491936078,None,n,0.727902938727766,1573.033491936078,None,sing30,001,2019_Nov_11_1534,ProdFawcett_Revision2019,3.2.4,59.86741316969344,
,,,,7,0,7,0,,,,,,,,,,,,,1578.067760454392,None,,,,,,,,,,,,,,,,,,,,,,weather,D_new,7,352,1574.3182674720892,None,1574.3182674720892,None,1574.3182674720892,None,1,2.778616837683785,1574.3182674720892,None,1577.150697695538,None,1577.150697695538,None,1577.6674803622968,None,1577.6674803622968,None,1577.6674803622968,None,n,0.36562592621521617,1577.6674803622968,None,sing30,001,2019_Nov_11_1534,ProdFawcett_Revision2019,3.2.4,59.86741316969344,
,,,,8,0,8,0,,,,,,,,,,,,,1586.5369719388523,None,,,,,,,,,,,,,,,,,,,,,,figure,D_new,8,128,1578.5861273862329,None,1578.5861273862329,None,1578.5861273862329,None,3,3.799012617828339,1578.5861273862329,None,1582.4363098379627,None,1582.4363098379627,None,1582.9526166653864,None,1582.9526166653864,None,1582.9526166653864,None,f,3.5445213009634244,1582.9526166653864,None,sing30,001,2019_Nov_11_1534,ProdFawcett_Revision2019,3.2.4,59.86741316969344,
,,,,9,0,9,0,,,,,,,,,,,,,1592.1554252992887,None,,,,,,,,,,,,,,,,,,,,,,season,C_sing,9,277,1587.054176018879,None,1587.054176018879,None,1587.054176018879,None,5,1.8824751482798092,1587.054176018879,None,1588.976568178291,None,1588.976568178291,None,1589.5045623040078,None,1589.5045623040078,None,1589.5045623040078,None,r,2.608404442286883,1589.5045623040078,None,sing30,001,2019_Nov_11_1534,ProdFawcett_Revision2019,3.2.4,59.86741316969344,
,,,,10,0,10,0,,,,,,,,,,,,,1596.2900657497999,None,,,,,,,,,,,,,,,,,,,,,,owner,C_sing,10,208,1592.6727749301713,None,1592.6727749301713,None,1592.6727749301713,None,1,2.4554954933660156,1592.6727749301713,None,1595.189745755622,None,1595.189745755622,None,1595.706703518816,None,1595.706703518816,None,1595.706703518816,None,n,0.5421128697125823,1595.706703518816,None,sing30,001,2019_Nov_11_1534,ProdFawcett_Revision2019,3.2.4,59.86741316969344,
,,,,11,0,11,0,,,,,,,,,,,,,1600.2414377687674,None,,,,,,,,,,,,,,,,,,,,,,place,B_aloud,11,222,1596.8072632986987,None,1596.8072632986987,None,1596.8072632986987,None,2,2.1685839674487397,1596.8072632986987,None,1599.0294665841047,None,1599.0294665841047,None,1599.5577732709535,None,1599.5577732709535,None,1599.5577732709535,None,n,0.6428965739878549,1599.5577732709535,None,sing30,001,2019_Nov_11_1534,ProdFawcett_Revision2019,3.2.4,59.86741316969344,
,,,,12,0,12,0,,,,,,,,,,,,,1606.3933051582535,None,,,,,,,,,,,,,,,,,,,,,,research,C_sing,12,261,1600.7595207520376,None,1600.7595207520376,None,1600.7595207520376,None,5,2.6484377697006494,1600.7595207520376,None,1603.4590478050586,None,1603.4590478050586,None,1603.9758802327942,None,1603.9758802327942,None,1603.9758802327942,None,f,2.3842237800863586,1603.9758802327942,None,sing30,001,2019_Nov_11_1534,ProdFawcett_Revision2019,3.2.4,59.86741316969344,
,,,,13,0,13,0,,,,,,,,,,,,,1609.5110657525988,None,,,,,,,,,,,,,,,,,,,,,,charter,D_new,13,47,1606.9111104130748,None,1606.9111104130748,None,1606.9111104130748,None,1,1.5930460279701038,1606.9111104130748,None,1608.5612842188348,None,1608.5612842188348,None,1609.077680927022,None,1609.077680927022,None,1609.077680927022,None,n,0.39416540113097653,1609.077680927022,None,sing30,001,2019_Nov_11_1534,ProdFawcett_Revision2019,3.2.4,59.86741316969344,
,,,,14,0,14,0,,,,,,,,,,,,,1614.045744332458,None,,,,,,,,,,,,,,,,,,,,,,right,D_new,14,265,1610.0283342108887,None,1610.0283342108887,None,1610.0283342108887,None,2,1.962963216375556,1610.0283342108887,None,1612.0451540428771,None,1612.0451540428771,None,1612.5620611120767,None,1612.5620611120767,None,1612.5620611120767,None,f,1.4454064554292927,1612.5620611120767,None,sing30,001,2019_Nov_11_1534,ProdFawcett_Revision2019,3.2.4,59.86741316969344,
,,,,15,0,15,0,,,,,,,,,,,,,1617.8804063356915,None,,,,,,,,,,,,,,,,,,,,,,throw,D_new,15,330,1614.5625465926014,None,1614.5625465926014,None,1614.5625465926014,None,1,1.741259406768222,1614.5625465926014,None,1616.363211896854,None,1616.363211896854,None,1616.8801052817853,None,1616.8801052817853,None,1616.8801052817853,None,n,0.9591891573318208,1616.8801052817853,None,sing30,001,2019_Nov_11_1534,ProdFawcett_Revision2019,3.2.4,59.86741316969344,
,,,,16,0,16,0,,,,,,,,,,,,,1623.2154734243727,None,,,,,,,,,,,,,,,,,,,,,,stranger,C_sing,16,309,1618.3983076913983,None,1618.3983076913983,None,1618.3983076913983,None,5,3.8004351597373898,1618.3983076913983,None,1622.2484263868769,None,1622.2484263868769,None,1622.7653079535767,None,1622.7653079535767,None,1622.7653079535767,None,f,0.4172908818295582,1622.7653079535767,None,sing30,001,2019_Nov_11_1534,ProdFawcett_Revision2019,3.2.4,59.86741316969344,
,,,,17,0,17,0,,,,,,,,,,,,,1626.7832411874087,None,,,,,,,,,,,,,,,,,,,,,,opening,D_new,17,205,1623.7337408342614,None,1623.7337408342614,None,1623.7337408342614,None,4,2.0576120142900436,1623.7337408342614,None,1625.8495296499218,None,1625.8495296499218,None,1626.366418991774,None,1626.366418991774,None,1626.366418991774,None,f,0.3679920606359701,1626.366418991774,None,sing30,001,2019_Nov_11_1534,ProdFawcett_Revision2019,3.2.4,59.86741316969344,
,,,,18,0,18,0,,,,,,,,,,,,,1630.7842768377272,None,,,,,,,,,,,,,,,,,,,,,,tragedy,C_sing,18,335,1627.3014924249796,None,1627.3014924249796,None,1627.3014924249796,None,6,1.905251369126745,1627.3014924249796,None,1629.2673007251728,None,1629.2673007251728,None,1629.7842317418422,None,1629.7842317418422,None,1629.7842317418422,None,r,0.9583093210703737,1629.7842317418422,None,sing30,001,2019_Nov_11_1534,ProdFawcett_Revision2019,3.2.4,59.86741316969344,
,,,,19,0,19,0,,,,,,,,,,,,,1635.435883448597,None,,,,,,,,,,,,,,,,,,,,,,piece,C_sing,19,221,1631.3011602704632,None,1631.3011602704632,None,1631.3011602704632,None,6,2.1049446549091044,1631.3011602704632,None,1633.4686330131108,None,1633.4686330131108,None,1633.9855708719147,None,1633.9855708719147,None,1633.9855708719147,None,r,1.4127955996368655,1633.9855708719147,None,sing30,001,2019_Nov_11_1534,ProdFawcett_Revision2019,3.2.4,59.86741316969344,
,,,,20,0,20,0,,,,,,,,,,,,,1638.8705094995257,None,,,,,,,,,,,,,,,,,,,,,,equipment,D_new,20,116,1635.9590037976955,None,1635.9590037976955,None,1635.9590037976955,None,1,1.8789564252460877,1635.9590037976955,None,1637.8866575583343,None,1637.8866575583343,None,1638.4084324950368,None,1638.4084324950368,None,1638.4084324950368,None,n,0.4222302807356755,1638.4084324950368,None,sing30,001,2019_Nov_11_1534,ProdFawcett_Revision2019,3.2.4,59.86741316969344,
,,,,21,0,21,0,,,,,,,,,,,,,1641.804559722657,None,,,,,,,,,,,,,,,,,,,,,,series,D_new,21,279,1639.3887905936826,None,1639.3887905936826,None,1639.3887905936826,None,1,1.3369903504135436,1639.3887905936826,None,1640.7876176652708,None,1640.7876176652708,None,1641.3045601891663,None,1641.3045601891663,None,1641.3045601891663,None,n,0.42925124347993915,1641.3045601891663,None,sing30,001,2019_Nov_11_1534,ProdFawcett_Revision2019,3.2.4,59.86741316969344,
,,,,22,0,22,0,,,,,,,,,,,,,1645.6559423469325,None,,,,,,,,,,,,,,,,,,,,,,title,D_new,22,331,1642.3215516965224,None,1642.3215516965224,None,1642.3215516965224,None,1,1.8360307410871428,1642.3215516965224,None,1644.222144816259,None,1644.222144816259,None,1644.7388211189314,None,1644.7388211189314,None,1644.7388211189314,None,n,0.8755726788604079,1644.7388211189314,None,sing30,001,2019_Nov_11_1534,ProdFawcett_Revision2019,3.2.4,59.86741316969344,
,,,,23,0,23,0,,,,,,,,,,,,,1651.37444263819,None,,,,,,,,,,,,,,,,,,,,,,appeal,D_new,23,9,1646.1740156890137,None,1646.1740156890137,None,1646.1740156890137,None,3,4.008195010777854,1646.1740156890137,None,1650.231662224981,None,1650.231662224981,None,1650.757714117593,None,1650.757714117593,None,1650.757714117593,None,f,0.5675693411430984,1650.757714117593,None,sing30,001,2019_Nov_11_1534,ProdFawcett_Revision2019,3.2.4,59.86741316969344,
,,,,24,0,24,0,,,,,,,,,,,,,1656.359371904517,None,,,,,,,,,,,,,,,,,,,,,,audience,C_sing,24,14,1651.89279526375,None,1651.89279526375,None,1651.89279526375,None,5,2.8571486773998913,1651.89279526375,None,1654.7980690253162,None,1654.7980690253162,None,1655.325553101026,None,1655.325553101026,None,1655.325553101026,None,f,1.0000385647567782,1655.325553101026,None,sing30,001,2019_Nov_11_1534,ProdFawcett_Revision2019,3.2.4,59.86741316969344,
,,,,25,0,25,0,,,,,,,,,,,,,1661.07750956266,None,,,,,,,,,,,,,,,,,,,,,,under,B_aloud,25,343,1656.8780569955998,None,1656.8780569955998,None,1656.8780569955998,None,4,3.1111252791670267,1656.8780569955998,None,1660.0437638456028,None,1660.0437638456028,None,1660.5606976613271,None,1660.5606976613271,None,1660.5606976613271,None,f,0.47683548803570375,1660.5606976613271,None,sing30,001,2019_Nov_11_1534,ProdFawcett_Revision2019,3.2.4,59.86741316969344,
,,,,26,0,26,0,,,,,,,,,,,,,1664.261735270984,None,,,,,,,,,,,,,,,,,,,,,,murder,D_new,26,195,1661.5959837916057,None,1661.5959837916057,None,1661.5959837916057,None,1,1.6092447807732242,1661.5959837916057,None,1663.251666137438,None,1663.251666137438,None,1663.7783580806072,None,1663.7783580806072,None,1663.7783580806072,None,n,0.4502537965290685,1663.7783580806072,None,sing30,001,2019_Nov_11_1534,ProdFawcett_Revision2019,3.2.4,59.86741316969344,
,,,,27,0,27,0,,,,,,,,,,,,,1668.263001376824,None,,,,,,,,,,,,,,,,,,,,,,produce,B_aloud,27,239,1664.7811023984477,None,1664.7811023984477,None,1664.7811023984477,None,5,2.5275235734852686,1664.7811023984477,None,1667.3627494307807,None,1667.3627494307807,None,1667.8796919546762,None,1667.8796919546762,None,1667.8796919546762,None,r,0.34161781019975024,1667.8796919546762,None,sing30,001,2019_Nov_11_1534,ProdFawcett_Revision2019,3.2.4,59.86741316969344,
,,,,28,0,28,0,,,,,,,,,,,,,1672.7310335261463,None,,,,,,,,,,,,,,,,,,,,,,damage,D_new,28,83,1668.7800826094403,None,1668.7800826094403,None,1668.7800826094403,None,2,2.2642908081215865,1668.7800826094403,None,1671.085008230776,None,1671.085008230776,None,1671.614060710257,None,1671.614060710257,None,1671.614060710257,None,n,1.0785766245949162,1671.614060710257,None,sing30,001,2019_Nov_11_1534,ProdFawcett_Revision2019,3.2.4,59.86741316969344,
,,,,29,0,29,0,,,,,,,,,,,,,1675.915574905664,None,,,,,,,,,,,,,,,,,,,,,,resistance,D_new,29,262,1673.2499042878721,None,1673.2499042878721,None,1673.2499042878721,None,1,1.6181470194264875,1673.2499042878721,None,1674.9216264623892,None,1674.9216264623892,None,1675.4489080731273,None,1675.4489080731273,None,1675.4489080731273,None,n,0.42762841364174164,1675.4489080731273,None,sing30,001,2019_Nov_11_1534,ProdFawcett_Revision2019,3.2.4,59.86741316969344,
,,,,30,0,30,0,,,,,,,,,,,,,1679.2331721596042,None,,,,,,,,,,,,,,,,,,,,,,author,A_silent,30,15,1676.4327211385557,None,1676.4327211385557,None,1676.4327211385557,None,5,1.7633007201966393,1676.4327211385557,None,1678.2496041669838,None,1678.2496041669838,None,1678.7666860216127,None,1678.7666860216127,None,1678.7666860216127,None,f,0.42924595637623497,1678.7666860216127,None,sing30,001,2019_Nov_11_1534,ProdFawcett_Revision2019,3.2.4,59.86741316969344,
,,,,31,0,31,0,,,,,,,,,,,,,1683.0011706269665,None,,,,,,,,,,,,,,,,,,,,,,break,D_new,31,26,1679.7500145395352,None,1679.7500145395352,None,1679.7500145395352,None,1,2.2782997669633005,1679.7500145395352,None,1682.0840599731723,None,1682.0840599731723,None,1682.6009496260303,None,1682.6009496260303,None,1682.6009496260303,None,n,0.3628529958132276,1682.6009496260303,None,sing30,001,2019_Nov_11_1534,ProdFawcett_Revision2019,3.2.4,59.86741316969344,
,,,,32,0,32,0,,,,,,,,,,,,,1686.9189294174762,None,,,,,,,,,,,,,,,,,,,,,,session,A_silent,32,281,1683.518974326757,None,1683.518974326757,None,1683.518974326757,None,1,2.0048445420447933,1683.518974326757,None,1685.5740503972947,None,1685.5740503972947,None,1686.1020196425234,None,1686.1020196425234,None,1686.1020196425234,None,n,0.7817368508949585,1686.1020196425234,None,sing30,001,2019_Nov_11_1534,ProdFawcett_Revision2019,3.2.4,59.86741316969344,
,,,,33,0,33,0,,,,,,,,,,,,,1691.9872341325463,None,,,,,,,,,,,,,,,,,,,,,,crisis,D_new,33,79,1687.435959334086,None,1687.435959334086,None,1687.435959334086,None,1,3.5994838542737853,1687.435959334086,None,1691.0869545069604,None,1691.0869545069604,None,1691.6039122701545,None,1691.6039122701545,None,1691.6039122701545,None,n,0.3354418510339201,1691.6039122701545,None,sing30,001,2019_Nov_11_1534,ProdFawcett_Revision2019,3.2.4,59.86741316969344,
,,,,34,0,34,0,,,,,,,,,,,,,1695.238428162722,None,,,,,,,,,,,,,,,,,,,,,,skill,B_aloud,34,289,1692.50414089074,None,1692.50414089074,None,1692.50414089074,None,1,1.8029919408986643,1692.50414089074,None,1694.3607897813345,None,1694.3607897813345,None,1694.8882751010692,None,1694.8882751010692,None,1694.8882751010692,None,n,0.3077066378964446,1694.8882751010692,None,sing30,001,2019_Nov_11_1534,ProdFawcett_Revision2019,3.2.4,59.86741316969344,
,,,,35,0,35,0,,,,,,,,,,,,,1698.822640373381,None,,,,,,,,,,,,,,,,,,,,,,waste,C_sing,35,350,1695.7553134614946,None,1695.7553134614946,None,1695.7553134614946,None,2,1.7120388284897672,1695.7553134614946,None,1697.5113067823277,None,1697.5113067823277,None,1698.0391746395671,None,1698.0391746395671,None,1698.0391746395671,None,n,0.7478832147207868,1698.0391746395671,None,sing30,001,2019_Nov_11_1534,ProdFawcett_Revision2019,3.2.4,59.86741316969344,
,,,,36,0,36,0,,,,,,,,,,,,,1704.1078961028134,None,,,,,,,,,,,,,,,,,,,,,,cover,A_silent,36,77,1699.3398581376764,None,1699.3398581376764,None,1699.3398581376764,None,4,2.8867844488240735,1699.3398581376764,None,1702.261579456927,None,1702.261579456927,None,1702.7907342574154,None,1702.7907342574154,None,1702.7907342574154,None,f,1.2765127259031033,1702.7907342574154,None,sing30,001,2019_Nov_11_1534,ProdFawcett_Revision2019,3.2.4,59.86741316969344,
,,,,37,0,37,0,,,,,,,,,,,,,1709.3594676943967,None,,,,,,,,,,,,,,,,,,,,,,enemy,B_aloud,37,113,1704.6250423357055,None,1704.6250423357055,None,1704.6250423357055,None,3,2.86556014842472,1704.6250423357055,None,1707.5310273682258,None,1707.5310273682258,None,1708.0590830731508,None,1708.0590830731508,None,1708.0590830731508,None,f,1.255308640900239,1708.0590830731508,None,sing30,001,2019_Nov_11_1534,ProdFawcett_Revision2019,3.2.4,59.86741316969344,
,,,,38,0,38,0,,,,,,,,,,,,,1712.927246964658,None,,,,,,,,,,,,,,,,,,,,,,congress,A_silent,38,67,1709.8783375231037,None,1709.8783375231037,None,1709.8783375231037,None,6,1.7568405014540076,1709.8783375231037,None,1711.6935121950155,None,1711.6935121950155,None,1712.210381632477,None,1712.210381632477,None,1712.210381632477,None,r,0.6718531080859975,1712.210381632477,None,sing30,001,2019_Nov_11_1534,ProdFawcett_Revision2019,3.2.4,59.86741316969344,
,,,,39,0,39,0,,,,,,,,,,,,,1716.111612003716,None,,,,,,,,,,,,,,,,,,,,,,personnel,B_aloud,39,219,1713.444947410423,None,1713.444947410423,None,1713.444947410423,None,6,1.6936891574878246,1713.444947410423,None,1715.1832967330984,None,1715.1832967330984,None,1715.7115191372936,None,1715.7115191372936,None,1715.7115191372936,None,r,0.3628439766362135,1715.7115191372936,None,sing30,001,2019_Nov_11_1534,ProdFawcett_Revision2019,3.2.4,59.86741316969344,
,,,,40,0,40,0,,,,,,,,,,,,,1719.4960003060296,None,,,,,,,,,,,,,,,,,,,,,,interior,A_silent,40,164,1716.62888170603,None,1716.62888170603,None,1716.62888170603,None,6,1.6530552772915144,1716.62888170603,None,1718.3341309603152,None,1718.3341309603152,None,1718.8624345371031,None,1718.8624345371031,None,1718.8624345371031,None,r,0.5956447949552057,1718.8624345371031,None,sing30,001,2019_Nov_11_1534,ProdFawcett_Revision2019,3.2.4,59.86741316969344,
,,,,41,0,41,0,,,,,,,,,,,,,1726.4482114194598,None,,,,,,,,,,,,,,,,,,,,,,commercial,D_new,41,61,1720.0148838190053,None,1720.0148838190053,None,1720.0148838190053,None,2,5.3075856565228605,1720.0148838190053,None,1725.3812549158401,None,1725.3812549158401,None,1725.898227607327,None,1725.898227607327,None,1725.898227607327,None,f,0.5116591522405542,1725.898227607327,None,sing30,001,2019_Nov_11_1534,ProdFawcett_Revision2019,3.2.4,59.86741316969344,
,,,,42,0,42,0,,,,,,,,,,,,,1729.3826211656447,None,,,,,,,,,,,,,,,,,,,,,,pretty,D_new,42,233,1726.9653797337846,None,1726.9653797337846,None,1726.9653797337846,None,1,1.4767935022114216,1726.9653797337846,None,1728.499000270886,None,1728.499000270886,None,1729.0158787275245,None,1729.0158787275245,None,1729.0158787275245,None,n,0.3296443862932392,1729.0158787275245,None,sing30,001,2019_Nov_11_1534,ProdFawcett_Revision2019,3.2.4,59.86741316969344,
,,,,43,0,43,0,,,,,,,,,,,,,1733.650508759331,None,,,,,,,,,,,,,,,,,,,,,,appearance,B_aloud,43,10,1729.9010254182176,None,1729.9010254182176,None,1729.9010254182176,None,5,2.573168694996639,1729.9010254182176,None,1732.5234587237364,None,1732.5234587237364,None,1733.0504252852934,None,1733.0504252852934,None,1733.0504252852934,None,f,0.5595282783851871,1733.0504252852934,None,sing30,001,2019_Nov_11_1534,ProdFawcett_Revision2019,3.2.4,59.86741316969344,
,,,,44,0,44,0,,,,,,,,,,,,,1736.7681782288882,None,,,,,,,,,,,,,,,,,,,,,,orchestra,D_new,44,206,1734.1673088424318,None,1734.1673088424318,None,1734.1673088424318,None,1,1.6820363808719776,1734.1673088424318,None,1735.9011659929756,None,1735.9011659929756,None,1736.418109449889,None,1736.418109449889,None,1736.418109449889,None,n,0.3113656246823666,1736.418109449889,None,sing30,001,2019_Nov_11_1534,ProdFawcett_Revision2019,3.2.4,59.86741316969344,
,,,,45,0,45,0,,,,,,,,,,,,,1739.6857986216828,None,,,,,,,,,,,,,,,,,,,,,,comedy,D_new,45,58,1737.2855779317533,None,1737.2855779317533,None,1737.2855779317533,None,1,1.3793904342605856,1737.2855779317533,None,1738.7189378768421,None,1738.7189378768421,None,1739.2356026722887,None,1739.2356026722887,None,1739.2356026722887,None,n,0.41349225330441186,1739.2356026722887,None,sing30,001,2019_Nov_11_1534,ProdFawcett_Revision2019,3.2.4,59.86741316969344,
,,,,46,0,46,0,,,,,,,,,,,,,1742.5701618880057,None,,,,,,,,,,,,,,,,,,,,,,hunger,A_silent,46,155,1740.202730571371,None,1740.202730571371,None,1740.202730571371,None,1,1.3821624316447014,1740.202730571371,None,1741.636465278812,None,1741.636465278812,None,1742.153372348012,None,1742.153372348012,None,1742.153372348012,None,n,0.37585242884915715,1742.153372348012,None,sing30,001,2019_Nov_11_1534,ProdFawcett_Revision2019,3.2.4,59.86741316969344,
,,,,47,0,47,0,,,,,,,,,,,,,1745.5710028485046,None,,,,,,,,,,,,,,,,,,,,,,corner,C_sing,47,69,1743.0880803490481,None,1743.0880803490481,None,1743.0880803490481,None,3,1.528790612343073,1743.0880803490481,None,1744.6706834141378,None,1744.6706834141378,None,1745.1876455314173,None,1745.1876455314173,None,1745.1876455314173,None,f,0.34948408752825344,1745.1876455314173,None,sing30,001,2019_Nov_11_1534,ProdFawcett_Revision2019,3.2.4,59.86741316969344,
,,,,48,0,48,0,,,,,,,,,,,,,1748.688660188824,None,,,,,,,,,,,,,,,,,,,,,,youth,B_aloud,48,359,1746.088172406854,None,1746.088172406854,None,1746.088172406854,None,6,1.5607897191334814,1746.088172406854,None,1747.7050362151053,None,1747.7050362151053,None,1748.221989624214,None,1748.221989624214,None,1748.221989624214,None,r,0.42729905817986946,1748.221989624214,None,sing30,001,2019_Nov_11_1534,ProdFawcett_Revision2019,3.2.4,59.86741316969344,
,,,,49,0,49,0,,,,,,,,,,,,,1751.6562623722111,None,,,,,,,,,,,,,,,,,,,,,,block,B_aloud,49,25,1749.2054898175047,None,1749.2054898175047,None,1749.2054898175047,None,3,1.483451209829127,1749.2054898175047,None,1750.7282711699518,None,1750.7282711699518,None,1751.2560799360322,None,1751.2560799360322,None,1751.2560799360322,None,f,0.3522501757961436,1751.2560799360322,None,sing30,001,2019_Nov_11_1534,ProdFawcett_Revision2019,3.2.4,59.86741316969344,
,,,,50,0,50,0,,,,,,,,,,,,,1757.5082614105804,None,,,,,,,,,,,,,,,,,,,,,,range,B_aloud,50,251,1752.1738188221511,None,1752.1738188221511,None,1752.1738188221511,None,1,4.426667404787622,1752.1738188221511,None,1756.6579794368986,None,1756.6579794368986,None,1757.1746448543572,None,1757.1746448543572,None,1757.1746448543572,None,n,0.29759458550825,1757.1746448543572,None,sing30,001,2019_Nov_11_1534,ProdFawcett_Revision2019,3.2.4,59.86741316969344,
,,,,51,0,51,0,,,,,,,,,,,,,1761.176115913218,None,,,,,,,,,,,,,,,,,,,,,,fight,D_new,51,127,1758.0252474753302,None,1758.0252474753302,None,1758.0252474753302,None,2,2.175536819856461,1758.0252474753302,None,1760.2591203316815,None,1760.2591203316815,None,1760.7758065865492,None,1760.7758065865492,None,1760.7758065865492,None,n,0.3607453074623663,1760.7758065865492,None,sing30,001,2019_Nov_11_1534,ProdFawcett_Revision2019,3.2.4,59.86741316969344,
,,,,52,0,52,0,,,,,,,,,,,,,1764.5605595746183,None,,,,,,,,,,,,,,,,,,,,,,safety,C_sing,52,270,1761.6930282695216,None,1761.6930282695216,None,1761.6930282695216,None,2,1.8756305259953479,1761.6930282695216,None,1763.6267849028927,None,1763.6267849028927,None,1764.1437047233426,None,1764.1437047233426,None,1764.1437047233426,None,n,0.3680390225576957,1764.1437047233426,None,sing30,001,2019_Nov_11_1534,ProdFawcett_Revision2019,3.2.4,59.86741316969344,
,,,,53,0,53,0,,,,,,,,,,,,,1767.6948122005206,None,,,,,,,,,,,,,,,,,,,,,,dispute,A_silent,53,99,1765.0784593752942,None,1765.0784593752942,None,1765.0784593752942,None,1,1.577513450236438,1765.0784593752942,None,1766.7110265036285,None,1766.7110265036285,None,1767.2280340277994,None,1767.2280340277994,None,1767.2280340277994,None,n,0.4194943600600709,1767.2280340277994,None,sing30,001,2019_Nov_11_1534,ProdFawcett_Revision2019,3.2.4,59.86741316969344,
,,,,54,0,54,0,,,,,,,,,,,,,1770.979092614818,None,,,,,,,,,,,,,,,,,,,,,,detective,B_aloud,54,92,1768.2123767366188,None,1768.2123767366188,None,1768.2123767366188,None,5,1.7312717568206608,1768.2123767366188,None,1769.9955062728372,None,1769.9955062728372,None,1770.5124621699952,None,1770.5124621699952,None,1770.5124621699952,None,f,0.4237271531028455,1770.5124621699952,None,sing30,001,2019_Nov_11_1534,ProdFawcett_Revision2019,3.2.4,59.86741316969344,
,,,,55,0,55,0,,,,,,,,,,,,,1774.5804378406096,None,,,,,,,,,,,,,,,,,,,,,,benefit,C_sing,55,20,1771.4975761739465,None,1771.4975761739465,None,1771.4975761739465,None,4,1.9580399897863572,1771.4975761739465,None,1773.5018888955578,None,1773.5018888955578,None,1774.0302161088098,None,1774.0302161088098,None,1774.0302161088098,None,f,0.5051877372784475,1774.0302161088098,None,sing30,001,2019_Nov_11_1534,ProdFawcett_Revision2019,3.2.4,59.86741316969344,
,,,,56,0,56,0,,,,,,,,,,,,,1779.6984923357209,None,,,,,,,,,,,,,,,,,,,,,,shock,D_new,56,284,1775.0975990017946,None,1775.0975990017946,None,1775.0975990017946,None,2,3.3902467242505736,1775.0975990017946,None,1778.536718157873,None,1778.536718157873,None,1779.0651078833512,None,1779.0651078833512,None,1779.0651078833512,None,n,0.5904394858321211,1779.0651078833512,None,sing30,001,2019_Nov_11_1534,ProdFawcett_Revision2019,3.2.4,59.86741316969344,
,,,,57,0,57,0,,,,,,,,,,,,,1784.7502860478617,None,,,,,,,,,,,,,,,,,,,,,,portion,D_new,57,228,1780.2154911517205,None,1780.2154911517205,None,1780.2154911517205,None,3,2.976171023499319,1780.2154911517205,None,1783.2496968468022,None,1783.2496968468022,None,1783.7668110460659,None,1783.7668110460659,None,1783.7668110460659,None,f,0.9358860921493033,1783.7668110460659,None,sing30,001,2019_Nov_11_1534,ProdFawcett_Revision2019,3.2.4,59.86741316969344,
,,,,58,0,58,0,,,,,,,,,,,,,1790.5187491583397,None,,,,,,,,,,,,,,,,,,,,,,voice,D_new,58,348,1785.267650607037,None,1785.267650607037,None,1785.267650607037,None,1,4.243319666688876,1785.267650607037,None,1789.568473124874,None,1789.568473124874,None,1790.0851960784616,None,1790.0851960784616,None,1790.0851960784616,None,n,0.39384008874867504,1790.0851960784616,None,sing30,001,2019_Nov_11_1534,ProdFawcett_Revision2019,3.2.4,59.86741316969344,
,,,,59,0,59,0,,,,,,,,,,,,,1794.4200000559808,None,,,,,,,,,,,,,,,,,,,,,,month,C_sing,59,193,1791.0370591760638,None,1791.0370591760638,None,1791.0370591760638,None,2,2.3776083692982866,1791.0370591760638,None,1793.469615481386,None,1793.469615481386,None,1793.9864491531457,None,1793.9864491531457,None,1793.9864491531457,None,n,0.3960740455768246,1793.9864491531457,None,sing30,001,2019_Nov_11_1534,ProdFawcett_Revision2019,3.2.4,59.86741316969344,
,,,,60,0,60,0,,,,,,,,,,,,,1798.9214187103134,None,,,,,,,,,,,,,,,,,,,,,,permit,D_new,60,218,1794.9366707605436,None,1794.9366707605436,None,1794.9366707605436,None,6,1.7500055203581724,1794.9366707605436,None,1796.737418481413,None,1796.737418481413,None,1797.2540926070428,None,1797.2540926070428,None,1797.2540926070428,None,f,1.6247596311591224,1797.2540926070428,None,sing30,001,2019_Nov_11_1534,ProdFawcett_Revision2019,3.2.4,59.86741316969344,
,,,,61,0,61,0,,,,,,,,,,,,,1804.589903622319,None,,,,,,,,,,,,,,,,,,,,,,point,D_new,61,226,1799.4385661872298,None,1799.4385661872298,None,1799.4385661872298,None,3,3.167592791003244,1799.4385661872298,None,1802.6558956960175,None,1802.6558956960175,None,1803.1727968561013,None,1803.1727968561013,None,1803.1727968561013,None,n,1.377469349571129,1803.1727968561013,None,sing30,001,2019_Nov_11_1534,ProdFawcett_Revision2019,3.2.4,59.86741316969344,
,,,,62,0,62,0,,,,,,,,,,,,,1807.740944357587,None,,,,,,,,,,,,,,,,,,,,,,private,B_aloud,62,237,1805.1080889265963,None,1805.1080889265963,None,1805.1080889265963,None,6,1.4015589491850733,1805.1080889265963,None,1806.5611243616986,None,1806.5611243616986,None,1807.0907270109728,None,1807.0907270109728,None,1807.0907270109728,None,r,0.6028365000493068,1807.0907270109728,None,sing30,001,2019_Nov_11_1534,ProdFawcett_Revision2019,3.2.4,59.86741316969344,
,,,,63,0,63,0,,,,,,,,,,,,,1810.5416594228159,None,,,,,,,,,,,,,,,,,,,,,,strength,D_new,63,310,1808.25895612046,None,1808.25895612046,None,1808.25895612046,None,4,1.4025124938925728,1808.25895612046,None,1809.7120239001965,None,1809.7120239001965,None,1810.2417528179485,None,1810.2417528179485,None,1810.2417528179485,None,f,0.2603618680391264,1810.2417528179485,None,sing30,001,2019_Nov_11_1534,ProdFawcett_Revision2019,3.2.4,59.86741316969344,
,,,,64,0,64,0,,,,,,,,,,,,,1814.9431340893475,None,,,,,,,,,,,,,,,,,,,,,,conference,C_sing,64,66,1811.0613325802838,None,1811.0613325802838,None,1811.0613325802838,None,6,1.424713975463419,1811.0613325802838,None,1812.5311713640508,None,1812.5311713640508,None,1813.0592684327871,None,1813.0592684327871,None,1813.0592684327871,None,r,1.8505960898446574,1813.0592684327871,None,sing30,001,2019_Nov_11_1534,ProdFawcett_Revision2019,3.2.4,59.86741316969344,
,,,,65,0,65,0,,,,,,,,,,,,,1818.7276124590285,None,,,,,,,,,,,,,,,,,,,,,,answer,C_sing,65,8,1815.4610376220967,None,1815.4610376220967,None,1815.4610376220967,None,3,2.2883287807221677,1815.4610376220967,None,1817.794592599112,None,1817.794592599112,None,1818.3108005265954,None,1818.3108005265954,None,1818.3108005265954,None,f,0.3828136784218259,1818.3108005265954,None,sing30,001,2019_Nov_11_1534,ProdFawcett_Revision2019,3.2.4,59.86741316969344,
,,,,66,0,66,0,,,,,,,,,,,,,1822.7788899010407,None,,,,,,,,,,,,,,,,,,,,,,graduate,A_silent,66,141,1819.246473890571,None,1819.246473890571,None,1819.246473890571,None,1,2.502396146509909,1819.246473890571,None,1821.800110158361,None,1821.800110158361,None,1822.3287689041167,None,1822.3287689041167,None,1822.3287689041167,None,n,0.4040799646445521,1822.3287689041167,None,sing30,001,2019_Nov_11_1534,ProdFawcett_Revision2019,3.2.4,59.86741316969344,
,,,,67,0,67,0,,,,,,,,,,,,,1825.6965367293537,None,,,,,,,,,,,,,,,,,,,,,,thick,D_new,67,327,1823.296391613907,None,1823.296391613907,None,1823.296391613907,None,1,1.484321715907754,1823.296391613907,None,1824.8464130577777,None,1824.8464130577777,None,1825.3630554607848,None,1825.3630554607848,None,1825.3630554607848,None,n,0.2904594835245007,1825.3630554607848,None,sing30,001,2019_Nov_11_1534,ProdFawcett_Revision2019,3.2.4,59.86741316969344,
,,,,68,0,68,0,,,,,,,,,,,,,1828.4308398626472,None,,,,,,,,,,,,,,,,,,,,,,write,D_new,68,358,1826.215360840164,None,1826.215360840164,None,1826.215360840164,None,2,1.3901098815654223,1826.215360840164,None,1827.6506141903997,None,1827.6506141903997,None,1828.1807614113577,None,1828.1807614113577,None,1828.1807614113577,None,n,0.20871837184586184,1828.1807614113577,None,sing30,001,2019_Nov_11_1534,ProdFawcett_Revision2019,3.2.4,59.86741316969344,
,,,,69,0,69,0,,,,,,,,,,,,,1831.2649314806904,None,,,,,,,,,,,,,,,,,,,,,,route,D_new,69,267,1828.9484414084718,None,1828.9484414084718,None,1828.9484414084718,None,1,1.392458910651385,1828.9484414084718,None,1830.3894514816484,None,1830.3894514816484,None,1830.9148667447703,None,1830.9148667447703,None,1830.9148667447703,None,n,0.3063854839765554,1830.9148667447703,None,sing30,001,2019_Nov_11_1534,ProdFawcett_Revision2019,3.2.4,59.86741316969344,
,,,,70,0,70,0,,,,,,,,,,,,,1834.2827160536062,None,,,,,,,,,,,,,,,,,,,,,,thing,C_sing,70,328,1831.7823028819998,None,1831.7823028819998,None,1831.7823028819998,None,4,1.6301415917478153,1831.7823028819998,None,1833.4657191969445,None,1833.4657191969445,None,1833.9826076057784,None,1833.9826076057784,None,1833.9826076057784,None,f,0.26202077458583517,1833.9826076057784,None,sing30,001,2019_Nov_11_1534,ProdFawcett_Revision2019,3.2.4,59.86741316969344,
,,,,71,0,71,0,,,,,,,,,,,,,1837.8505223813986,None,,,,,,,,,,,,,,,,,,,,,,space,A_silent,71,297,1834.8003965949806,None,1834.8003965949806,None,1834.8003965949806,None,5,1.8038322793854604,1834.8003965949806,None,1836.6667028470429,None,1836.6667028470429,None,1837.1835327867298,None,1837.1835327867298,None,1837.1835327867298,None,f,0.6289771849033059,1837.1835327867298,None,sing30,001,2019_Nov_11_1534,ProdFawcett_Revision2019,3.2.4,59.86741316969344,
,,,,72,0,72,0,,,,,,,,,,,,,1840.8514774811365,None,,,,,,,,,,,,,,,,,,,,,,column,A_silent,72,57,1838.3683263921953,None,1838.3683263921953,None,1838.3683263921953,None,6,1.556411375234802,1838.3683263921953,None,1839.9743314224079,None,1839.9743314224079,None,1840.5012292516167,None,1840.5012292516167,None,1840.5012292516167,None,r,0.30274391353304964,1840.5012292516167,None,sing30,001,2019_Nov_11_1534,ProdFawcett_Revision2019,3.2.4,59.86741316969344,
,,,,73,0,73,0,,,,,,,,,,,,,1843.7690801465833,None,,,,,,,,,,,,,,,,,,,,,,recall,D_new,73,255,1841.368273832164,None,1841.368273832164,None,1841.368273832164,None,6,1.4280520039519615,1841.368273832164,None,1842.8520534644367,None,1842.8520534644367,None,1843.3689642657096,None,1843.3689642657096,None,1843.3689642657096,None,r,0.3551248051935545,1843.3689642657096,None,sing30,001,2019_Nov_11_1534,ProdFawcett_Revision2019,3.2.4,59.86741316969344,
,,,,74,0,74,0,,,,,,,,,,,,,1847.2033914593367,None,,,,,,,,,,,,,,,,,,,,,,sight,A_silent,74,286,1844.2875434903153,None,1844.2875434903153,None,1844.2875434903153,None,2,1.4361244783262919,1844.2875434903153,None,1845.770114241871,None,1845.770114241871,None,1846.2865153041434,None,1846.2865153041434,None,1846.2865153041434,None,f,0.8777910853832509,1846.2865153041434,None,sing30,001,2019_Nov_11_1534,ProdFawcett_Revision2019,3.2.4,59.86741316969344,
,,,,75,0,75,0,,,,,,,,,,,,,1851.204787876733,None,,,,,,,,,,,,,,,,,,,,,,interview,D_new,75,165,1847.7212284367806,None,1847.7212284367806,None,1847.7212284367806,None,3,2.0987273319315136,1847.7212284367806,None,1849.8710223485873,None,1849.8710223485873,None,1850.3877882210168,None,1850.3877882210168,None,1850.3877882210168,None,f,0.7761297218889922,1850.3877882210168,None,sing30,001,2019_Nov_11_1534,ProdFawcett_Revision2019,3.2.4,59.86741316969344,
,,,,76,0,76,0,,,,,,,,,,,,,1854.4224793966232,None,,,,,,,,,,,,,,,,,,,,,,worker,B_aloud,76,356,1851.7235690687012,None,1851.7235690687012,None,1851.7235690687012,None,1,1.4884543649859552,1851.7235690687012,None,1853.2622506080943,None,1853.2622506080943,None,1853.7889394412027,None,1853.7889394412027,None,1853.7889394412027,None,n,0.5985066731022926,1853.7889394412027,None,sing30,001,2019_Nov_11_1534,ProdFawcett_Revision2019,3.2.4,59.86741316969344,
,,,,77,0,77,0,,,,,,,,,,,,,1859.390769525507,None,,,,,,,,,,,,,,,,,,,,,,history,C_sing,77,153,1854.939521753477,None,1854.939521753477,None,1854.939521753477,None,5,2.8401363326347564,1854.939521753477,None,1857.840247983825,None,1857.840247983825,None,1858.356828185612,None,1858.356828185612,None,1858.356828185612,None,f,0.991124818877779,1858.356828185612,None,sing30,001,2019_Nov_11_1534,ProdFawcett_Revision2019,3.2.4,59.86741316969344,
,,,,78,0,78,0,,,,,,,,,,,,,1862.575077961454,None,,,,,,,,,,,,,,,,,,,,,,suggestion,B_aloud,78,314,1859.9145131308328,None,1859.9145131308328,None,1859.9145131308328,None,2,1.5852864257344663,1859.9145131308328,None,1861.546879971238,None,1861.546879971238,None,1862.0755132144936,None,1862.0755132144936,None,1862.0755132144936,None,n,0.45622635770496345,1862.0755132144936,None,sing30,001,2019_Nov_11_1534,ProdFawcett_Revision2019,3.2.4,59.86741316969344,
,,,,79,0,79,0,,,,,,,,,,,,,1865.6759285320418,None,,,,,,,,,,,,,,,,,,,,,,company,A_silent,79,64,1863.0934010414348,None,1863.0934010414348,None,1863.0934010414348,None,6,1.606230509636589,1863.0934010414348,None,1864.7590343384945,None,1864.7590343384945,None,1865.2758844935775,None,1865.2758844935775,None,1865.2758844935775,None,r,0.35923226277782305,1865.2758844935775,None,sing30,001,2019_Nov_11_1534,ProdFawcett_Revision2019,3.2.4,59.86741316969344,
,,,,80,0,80,0,,,,,,,,,,,,,1870.8109095342343,None,,,,,,,,,,,,,,,,,,,,,,government,D_new,80,139,1866.1953836742323,None,1866.1953836742323,None,1866.1953836742323,None,1,3.511275992723313,1866.1953836742323,None,1869.7606251347042,None,1869.7606251347042,None,1870.2776077783865,None,1870.2776077783865,None,1870.2776077783865,None,n,0.5009369058816446,1870.2776077783865,None,sing30,001,2019_Nov_11_1534,ProdFawcett_Revision2019,3.2.4,59.86741316969344,
,,,,81,0,81,0,,,,,,,,,,,,,1874.2454304651,None,,,,,,,,,,,,,,,,,,,,,,fashion,D_new,81,125,1871.3296764199213,None,1871.3296764199213,None,1871.3296764199213,None,5,1.896893702158195,1871.3296764199213,None,1873.2783958678483,None,1873.2783958678483,None,1873.7953175543353,None,1873.7953175543353,None,1873.7953175543353,None,f,0.41511259509388765,1873.7953175543353,None,sing30,001,2019_Nov_11_1534,ProdFawcett_Revision2019,3.2.4,59.86741316969344,
,,,,82,0,82,0,,,,,,,,,,,,,1877.8965979353543,None,,,,,,,,,,,,,,,,,,,,,,drove,D_new,82,106,1874.7626071765899,None,1874.7626071765899,None,1874.7626071765899,None,1,2.0477580969663904,1874.7626071765899,None,1876.8629753767136,None,1876.8629753767136,None,1877.3796435932272,None,1877.3796435932272,None,1877.3796435932272,None,n,0.4705009157578388,1877.3796435932272,None,sing30,001,2019_Nov_11_1534,ProdFawcett_Revision2019,3.2.4,59.86741316969344,
,,,,83,0,83,0,,,,,,,,,,,,,1881.4309782603623,None,,,,,,,,,,,,,,,,,,,,,,motion,C_sing,83,194,1878.414776397498,None,1878.414776397498,None,1878.414776397498,None,5,1.9080992519984648,1878.414776397498,None,1880.380875799402,None,1880.380875799402,None,1880.897483680732,None,1880.897483680732,None,1880.897483680732,None,f,0.48867144724499667,1880.897483680732,None,sing30,001,2019_Nov_11_1534,ProdFawcett_Revision2019,3.2.4,59.86741316969344,
,,,,84,0,84,0,,,,,,,,,,,,,1885.8824552438891,None,,,,,,,,,,,,,,,,,,,,,,bicycle,D_new,84,21,1881.9498692374846,None,1881.9498692374846,None,1881.9498692374846,None,4,2.972772348820399,1881.9498692374846,None,1884.9716175831654,None,1884.9716175831654,None,1885.4990235963442,None,1885.4990235963442,None,1885.4990235963442,None,f,0.3434505691566301,1885.4990235963442,None,sing30,001,2019_Nov_11_1534,ProdFawcett_Revision2019,3.2.4,59.86741316969344,
,,,,85,0,85,0,,,,,,,,,,,,,1888.7999708276275,None,,,,,,,,,,,,,,,,,,,,,,course,D_new,85,74,1886.4005152127074,None,1886.4005152127074,None,1886.4005152127074,None,6,1.297384034377501,1886.4005152127074,None,1887.7497352560558,None,1887.7497352560558,None,1888.266351223544,None,1888.266351223544,None,1888.266351223544,None,r,0.4956687735257219,1888.266351223544,None,sing30,001,2019_Nov_11_1534,ProdFawcett_Revision2019,3.2.4,59.86741316969344,
,,,,86,0,86,0,,,,,,,,,,,,,1892.43442887306,None,,,,,,,,,,,,,,,,,,,,,,distance,A_silent,86,100,1889.3177558670523,None,1889.3177558670523,None,1889.3177558670523,None,5,2.1722818299977007,1889.3177558670523,None,1891.5404785326482,None,1891.5404785326482,None,1892.067845359058,None,1892.067845359058,None,1892.067845359058,None,f,0.3176457708923408,1892.067845359058,None,sing30,001,2019_Nov_11_1534,ProdFawcett_Revision2019,3.2.4,59.86741316969344,
,,,,87,0,87,0,,,,,,,,,,,,,1895.952270515595,None,,,,,,,,,,,,,,,,,,,,,,problem,D_new,87,238,1892.9525631723363,None,1892.9525631723363,None,1892.9525631723363,None,2,1.9128508032199534,1892.9525631723363,None,1894.9187347276566,None,1894.9187347276566,None,1895.4353867718528,None,1895.4353867718528,None,1895.4353867718528,None,n,0.4698773485242782,1895.4353867718528,None,sing30,001,2019_Nov_11_1534,ProdFawcett_Revision2019,3.2.4,59.86741316969344,
,,,,88,0,88,0,,,,,,,,,,,,,1899.420209985099,None,,,,,,,,,,,,,,,,,,,,,,ground,D_new,88,142,1896.4694490931215,None,1896.4694490931215,None,1896.4694490931215,None,5,1.8677082675685597,1896.4694490931215,None,1898.4030890992044,None,1898.4030890992044,None,1898.9198400433415,None,1898.9198400433415,None,1898.9198400433415,None,f,0.4581505524556633,1898.9198400433415,None,sing30,001,2019_Nov_11_1534,ProdFawcett_Revision2019,3.2.4,59.86741316969344,
,,,,89,0,89,0,,,,,,,,,,,,,1902.5044509638228,None,,,,,,,,,,,,,,,,,,,,,,material,A_silent,89,182,1899.937875909187,None,1899.937875909187,None,1899.937875909187,None,4,1.543771465251666,1899.937875909187,None,1901.537418543614,None,1901.537418543614,None,1902.0542926461676,None,1902.0542926461676,None,1902.0542926461676,None,f,0.41108351104776375,1902.0542926461676,None,sing30,001,2019_Nov_11_1534,ProdFawcett_Revision2019,3.2.4,59.86741316969344,
,,,,90,0,90,0,,,,,,,,,,,,,1905.505396733378,None,,,,,,,,,,,,,,,,,,,,,,election,C_sing,90,109,1903.022878541854,None,1903.022878541854,None,1903.022878541854,None,1,1.4500429343925134,1903.022878541854,None,1904.5216558213651,None,1904.5216558213651,None,1905.0384499953507,None,1905.0384499953507,None,1905.0384499953507,None,n,0.4271320479037968,1905.0384499953507,None,sing30,001,2019_Nov_11_1534,ProdFawcett_Revision2019,3.2.4,59.86741316969344,
,,,,91,0,91,0,,,,,,,,,,,,,1908.7065097620152,None,,,,,,,,,,,,,,,,,,,,,,couch,B_aloud,91,70,1906.022372534927,None,1906.022372534927,None,1906.022372534927,None,4,1.4669066182405004,1906.022372534927,None,1907.5286282671577,None,1907.5286282671577,None,1908.056381363146,None,1908.056381363146,None,1908.056381363146,None,f,0.6091231773880281,1908.056381363146,None,sing30,001,2019_Nov_11_1534,ProdFawcett_Revision2019,3.2.4,59.86741316969344,
,,,,92,0,92,0,,,,,,,,,,,,,1911.8406115499574,None,,,,,,,,,,,,,,,,,,,,,,leader,B_aloud,92,168,1909.2248011193733,None,1909.2248011193733,None,1909.2248011193733,None,1,1.4638584474387244,1909.2248011193733,None,1910.7403444268175,None,1910.7403444268175,None,1911.2572434098583,None,1911.2572434098583,None,1911.2572434098583,None,n,0.5352219075184621,1911.2572434098583,None,sing30,001,2019_Nov_11_1534,ProdFawcett_Revision2019,3.2.4,59.86741316969344,
,,,,93,0,93,0,,,,,,,,,,,,,1915.4252445518723,None,,,,,,,,,,,,,,,,,,,,,,watch,B_aloud,93,351,1912.3573948387293,None,1912.3573948387293,None,1912.3573948387293,None,5,1.9869567151044976,1912.3573948387293,None,1914.3983552753316,None,1914.3983552753316,None,1914.9250892043246,None,1914.9250892043246,None,1914.9250892043246,None,f,0.45972424333012896,1914.9250892043246,None,sing30,001,2019_Nov_11_1534,ProdFawcett_Revision2019,3.2.4,59.86741316969344,
,,,,94,0,94,0,,,,,,,,,,,,,1919.0597340089216,None,,,,,,,,,,,,,,,,,,,,,,travel,D_new,94,338,1915.9435735409688,None,1915.9435735409688,None,1915.9435735409688,None,3,1.9054208674515394,1915.9435735409688,None,1917.9093675348813,None,1917.9093675348813,None,1918.4262229770684,None,1918.4262229770684,None,1918.4262229770684,None,f,0.5982040641647473,1918.4262229770684,None,sing30,001,2019_Nov_11_1534,ProdFawcett_Revision2019,3.2.4,59.86741316969344,
,,,,95,0,95,0,,,,,,,,,,,,,1923.5945233069524,None,,,,,,,,,,,,,,,,,,,,,,death,D_new,95,86,1919.576823638703,None,1919.576823638703,None,1919.576823638703,None,1,3.0871019238529698,1919.576823638703,None,1922.7275953536928,None,1922.7275953536928,None,1923.244282230573,None,1923.244282230573,None,1923.244282230573,None,n,0.30857496693170106,1923.244282230573,None,sing30,001,2019_Nov_11_1534,ProdFawcett_Revision2019,3.2.4,59.86741316969344,
,,,,96,0,96,0,,,,,,,,,,,,,1927.028922634433,None,,,,,,,,,,,,,,,,,,,,,,evidence,D_new,96,120,1924.1129711003796,None,1924.1129711003796,None,1924.1129711003796,None,3,1.543232180672021,1924.1129711003796,None,1925.7117654541262,None,1925.7117654541262,None,1926.2286886956435,None,1926.2286886956435,None,1926.2286886956435,None,f,0.7550273358810955,1926.2286886956435,None,sing30,001,2019_Nov_11_1534,ProdFawcett_Revision2019,3.2.4,59.86741316969344,
,,,,97,0,97,0,,,,,,,,,,,,,1930.0299044806961,None,,,,,,,,,,,,,,,,,,,,,,principal,A_silent,97,236,1927.5480366029296,None,1927.5480366029296,None,1927.5480366029296,None,6,1.3640836469567148,1927.5480366029296,None,1928.9519057054376,None,1928.9519057054376,None,1929.4803850006729,None,1929.4803850006729,None,1929.4803850006729,None,f,0.5113444140661159,1929.4803850006729,None,sing30,001,2019_Nov_11_1534,ProdFawcett_Revision2019,3.2.4,59.86741316969344,
,,,,98,0,98,0,,,,,,,,,,,,,1933.2641325060158,None,,,,,,,,,,,,,,,,,,,,,,marriage,D_new,98,179,1930.547877367806,None,1930.547877367806,None,1930.547877367806,None,6,1.7405282314230135,1930.547877367806,None,1932.337450639444,None,1932.337450639444,None,1932.8641708841687,None,1932.8641708841687,None,1932.8641708841687,None,r,0.35123691791704914,1932.8641708841687,None,sing30,001,2019_Nov_11_1534,ProdFawcett_Revision2019,3.2.4,59.86741316969344,
,,,,99,0,99,0,,,,,,,,,,,,,1936.415158935003,None,,,,,,,,,,,,,,,,,,,,,,bureau,D_new,99,37,1933.7822524990115,None,1933.7822524990115,None,1933.7822524990115,None,1,1.2656834934450671,1933.7822524990115,None,1935.0980437405196,None,1935.0980437405196,None,1935.6149875084393,None,1935.6149875084393,None,1935.6149875084393,None,n,0.7524095975240925,1935.6149875084393,None,sing30,001,2019_Nov_11_1534,ProdFawcett_Revision2019,3.2.4,59.86741316969344,
,,,,100,0,100,0,,,,,,,,,,,,,1939.2829906719935,None,,,,,,,,,,,,,,,,,,,,,,universal,D_new,100,345,1936.9336891450475,None,1936.9336891450475,None,1936.9336891450475,None,1,1.34557442982441,1936.9336891450475,None,1938.3324070534936,None,1938.3324070534936,None,1938.8492631176932,None,1938.8492631176932,None,1938.8492631176932,None,n,0.39813632703589974,1938.8492631176932,None,sing30,001,2019_Nov_11_1534,ProdFawcett_Revision2019,3.2.4,59.86741316969344,
,,,,101,0,101,0,,,,,,,,,,,,,1944.5011782466154,None,,,,,,,,,,,,,,,,,,,,,,measure,B_aloud,101,184,1939.801000257824,None,1939.801000257824,None,1939.801000257824,None,3,3.3748174005422698,1939.801000257824,None,1943.234031469463,None,1943.234031469463,None,1943.7509124141507,None,1943.7509124141507,None,1943.7509124141507,None,f,0.7039483157614086,1943.7509124141507,None,sing30,001,2019_Nov_11_1534,ProdFawcett_Revision2019,3.2.4,59.86741316969344,
,,,,102,0,102,0,,,,,,,,,,,,,1947.8187954049472,None,,,,,,,,,,,,,,,,,,,,,,character,D_new,102,46,1945.0202570714237,None,1945.0202570714237,None,1945.0202570714237,None,5,1.7234067235167458,1945.0202570714237,None,1946.8022032294248,None,1946.8022032294248,None,1947.3187510865773,None,1947.3187510865773,None,1947.3187510865773,None,f,0.45637159755460743,1947.3187510865773,None,sing30,001,2019_Nov_11_1534,ProdFawcett_Revision2019,3.2.4,59.86741316969344,
,,,,103,0,103,0,,,,,,,,,,,,,1950.7863969663222,None,,,,,,,,,,,,,,,,,,,,,,count,D_new,103,72,1948.3363484338197,None,1948.3363484338197,None,1948.3363484338197,None,1,1.4230727962649325,1948.3363484338197,None,1949.8195579919084,None,1949.8195579919084,None,1950.337437266182,None,1950.337437266182,None,1950.337437266182,None,n,0.4133090707109659,1950.337437266182,None,sing30,001,2019_Nov_11_1534,ProdFawcett_Revision2019,3.2.4,59.86741316969344,
,,,,104,0,104,0,,,,,,,,,,,,,1953.554069810295,None,,,,,,,,,,,,,,,,,,,,,,relation,D_new,104,257,1951.3053000726823,None,1951.3053000726823,None,1951.3053000726823,None,1,1.2935686115233693,1951.3053000726823,None,1952.65378054352,None,1952.65378054352,None,1953.1705028750957,None,1953.1705028750957,None,1953.1705028750957,None,n,0.3481620005904915,1953.1705028750957,None,sing30,001,2019_Nov_11_1534,ProdFawcett_Revision2019,3.2.4,59.86741316969344,
,,,,105,0,105,0,,,,,,,,,,,,,1957.7887335551632,None,,,,,,,,,,,,,,,,,,,,,,mechanical,D_new,105,185,1954.0733364827884,None,1954.0733364827884,None,1954.0733364827884,None,4,2.613197046312962,1954.0733364827884,None,1956.728110690803,None,1956.728110690803,None,1957.2553574688582,None,1957.2553574688582,None,1957.2553574688582,None,f,0.4952486042820965,1957.2553574688582,None,sing30,001,2019_Nov_11_1534,ProdFawcett_Revision2019,3.2.4,59.86741316969344,
,,,,106,0,106,0,,,,,,,,,,,,,1962.0428115449195,None,,,,,,,,,,,,,,,,,,,,,,salary,A_silent,106,271,1958.3071216354192,None,1958.3071216354192,None,1958.3071216354192,None,2,2.682950427804826,1958.3071216354192,None,1961.0396716273171,None,1961.0396716273171,None,1961.5565858496575,None,1961.5565858496575,None,1961.5565858496575,None,n,0.4656644598717321,1961.5565858496575,None,sing30,001,2019_Nov_11_1534,ProdFawcett_Revision2019,3.2.4,59.86741316969344,
,,,,107,0,107,0,,,,,,,,,,,,,1965.5743934370248,None,,,,,,,,,,,,,,,,,,,,,,defeat,C_sing,107,88,1962.5739490093056,None,1962.5739490093056,None,1962.5739490093056,None,6,1.6724368665381917,1962.5739490093056,None,1964.307502617894,None,1964.307502617894,None,1964.824246719896,None,1964.824246719896,None,1964.824246719896,None,r,0.7101734138923348,1964.824246719896,None,sing30,001,2019_Nov_11_1534,ProdFawcett_Revision2019,3.2.4,59.86741316969344,
,,,,108,0,108,0,,,,,,,,,,,,,1970.4926625885473,None,,,,,,,,,,,,,,,,,,,,,,edition,D_new,108,107,1966.0932813040854,None,1966.0932813040854,None,1966.0932813040854,None,2,3.1767923514889844,1966.0932813040854,None,1969.3256862116377,None,1969.3256862116377,None,1969.842609453155,None,1969.842609453155,None,1969.842609453155,None,f,0.6029848499592845,1969.842609453155,None,sing30,001,2019_Nov_11_1534,ProdFawcett_Revision2019,3.2.4,59.86741316969344,
,,,,109,0,109,0,,,,,,,,,,,,,1973.97724399455,None,,,,,,,,,,,,,,,,,,,,,,weight,D_new,109,353,1971.0114546657287,None,1971.0114546657287,None,1971.0114546657287,None,2,1.498565795362083,1971.0114546657287,None,1972.5599895004334,None,1972.5599895004334,None,1973.0768611149379,None,1973.0768611149379,None,1973.0768611149379,None,f,0.8647897863111211,1973.0768611149379,None,sing30,001,2019_Nov_11_1534,ProdFawcett_Revision2019,3.2.4,59.86741316969344,
,,,,110,0,110,0,,,,,,,,,,,,,1976.861485968493,None,,,,,,,,,,,,,,,,,,,,,,dream,D_new,110,104,1974.494523338053,None,1974.494523338053,None,1974.494523338053,None,1,1.4309748392952315,1974.494523338053,None,1975.9778846671188,None,1975.9778846671188,None,1976.4945538166512,None,1976.4945538166512,None,1976.4945538166512,None,n,0.31887144593838457,1976.4945538166512,None,sing30,001,2019_Nov_11_1534,ProdFawcett_Revision2019,3.2.4,59.86741316969344,
,,,,111,0,111,0,,,,,,,,,,,,,1982.496536169543,None,,,,,,,,,,,,,,,,,,,,,,surface,B_aloud,111,316,1977.3796053394772,None,1977.3796053394772,None,1977.3796053394772,None,2,4.145520065958408,1977.3796053394772,None,1981.5682003725233,None,1981.5682003725233,None,1982.0963341399793,None,1982.0963341399793,None,1982.0963341399793,None,n,0.3648664493148317,1982.0963341399793,None,sing30,001,2019_Nov_11_1534,ProdFawcett_Revision2019,3.2.4,59.86741316969344,
,,,,112,0,112,0,,,,,,,,,,,,,1986.6644408996654,None,,,,,,,,,,,,,,,,,,,,,,debate,C_sing,112,87,1983.0146381241848,None,1983.0146381241848,None,1983.0146381241848,None,5,1.830451291623831,1983.0146381241848,None,1984.8972905459432,None,1984.8972905459432,None,1985.4141145765134,None,1985.4141145765134,None,1985.4141145765134,None,f,1.2149459580241455,1985.4141145765134,None,sing30,001,2019_Nov_11_1534,ProdFawcett_Revision2019,3.2.4,59.86741316969344,
,,,,113,0,113,0,,,,,,,,,,,,,1990.3657637019178,None,,,,,,,,,,,,,,,,,,,,,,taste,B_aloud,113,322,1987.1826022564737,None,1987.1826022564737,None,1987.1826022564737,None,4,2.222904915171057,1987.1826022564737,None,1989.456356358255,None,1989.456356358255,None,1989.9822561688834,None,1989.9822561688834,None,1989.9822561688834,None,f,0.3504485174489673,1989.9822561688834,None,sing30,001,2019_Nov_11_1534,ProdFawcett_Revision2019,3.2.4,59.86741316969344,
,,,,114,0,114,0,,,,,,,,,,,,,1993.3166066995063,None,,,,,,,,,,,,,,,,,,,,,,nature,D_new,114,200,1990.8845312096173,None,1990.8845312096173,None,1990.8845312096173,None,6,1.43200084842465,1990.8845312096173,None,1992.3663735848831,None,1992.3663735848831,None,1992.8833064675891,None,1992.8833064675891,None,1992.8833064675891,None,r,0.38529830616698746,1992.8833064675891,None,sing30,001,2019_Nov_11_1534,ProdFawcett_Revision2019,3.2.4,59.86741316969344,
,,,,115,0,115,0,,,,,,,,,,,,,1998.8350541819282,None,,,,,,,,,,,,,,,,,,,,,,disease,D_new,115,97,1993.835503896751,None,1993.835503896751,None,1993.835503896751,None,2,4.336837024405213,1993.835503896751,None,1998.222636205899,None,1998.222636205899,None,1998.7517822982163,None,1998.7517822982163,None,1998.7517822982163,None,n,0.04441104930083384,1998.7517822982163,None,sing30,001,2019_Nov_11_1534,ProdFawcett_Revision2019,3.2.4,59.86741316969344,
,,,,116,0,116,0,,,,,,,,,,,,,2004.7870790027027,None,,,,,,,,,,,,,,,,,,,,,,smell,D_new,116,291,1999.352104935947,None,1999.352104935947,None,1999.352104935947,None,3,4.212523531499755,1999.352104935947,None,2003.6199421466445,None,2003.6199421466445,None,2004.136848593832,None,2004.136848593832,None,2004.136848593832,None,f,0.6030694436194608,2004.136848593832,None,sing30,001,2019_Nov_11_1534,ProdFawcett_Revision2019,3.2.4,59.86741316969344,
,,,,117,0,117,0,,,,,,,,,,,,,2008.2214574927748,None,,,,,,,,,,,,,,,,,,,,,,period,A_silent,117,217,2005.3057522755535,None,2005.3057522755535,None,2005.3057522755535,None,3,1.8104955851131308,2005.3057522755535,None,2007.159554216294,None,2007.159554216294,None,2007.6878428647888,None,2007.6878428647888,None,2007.6878428647888,None,f,0.49283737397672667,2007.6878428647888,None,sing30,001,2019_Nov_11_1534,ProdFawcett_Revision2019,3.2.4,59.86741316969344,
,,,,118,0,118,0,,,,,,,,,,,,,2011.9558943586908,None,,,,,,,,,,,,,,,,,,,,,,estate,A_silent,118,119,2008.739750094157,None,2008.739750094157,None,2008.739750094157,None,2,1.9518882890961322,2008.739750094157,None,2010.7555404959485,None,2010.7555404959485,None,2011.2724519192343,None,2011.2724519192343,None,2011.2724519192343,None,n,0.6439101428732101,2011.2724519192343,None,sing30,001,2019_Nov_11_1534,ProdFawcett_Revision2019,3.2.4,59.86741316969344,
,,,,119,0,119,0,,,,,,,,,,,,,2014.7400819376671,None,,,,,,,,,,,,,,,,,,,,,,running,D_new,119,268,2012.474808972277,None,2012.474808972277,None,2012.474808972277,None,1,1.3932740576437936,2012.474808972277,None,2013.910879646548,None,2013.910879646548,None,2014.4401084664878,None,2014.4401084664878,None,2014.4401084664878,None,n,0.26739029493001,2014.4401084664878,None,sing30,001,2019_Nov_11_1534,ProdFawcett_Revision2019,3.2.4,59.86741316969344,
,,,,120,0,120,0,,,,,,,,,,,,,2017.7245132832259,None,,,,,,,,,,,,,,,,,,,,,,device,A_silent,120,93,2015.2589875320764,None,2015.2589875320764,None,2015.2589875320764,None,1,1.5364214580522457,2015.2589875320764,None,2016.8463903543325,None,2016.8463903543325,None,2017.3742103166323,None,2017.3742103166323,None,2017.3742103166323,None,n,0.30989549883906875,2017.3742103166323,None,sing30,001,2019_Nov_11_1534,ProdFawcett_Revision2019,3.2.4,59.86741316969344,
,,,,121,0,121,0,,,,,,,,,,,,,2020.3586883131056,None,,,,,,,,,,,,,,,,,,,,,,guide,D_new,121,147,2018.2417581050522,None,2018.2417581050522,None,2018.2417581050522,None,2,1.369429530837806,2018.2417581050522,None,2019.6653263340368,None,2019.6653263340368,None,2020.1919455017787,None,2020.1919455017787,None,2020.1919455017787,None,f,0.1314958678176481,2020.1919455017787,None,sing30,001,2019_Nov_11_1534,ProdFawcett_Revision2019,3.2.4,59.86741316969344,
,,,,122,0,122,0,,,,,,,,,,,,,2023.6097112899251,None,,,,,,,,,,,,,,,,,,,,,,crime,C_sing,122,78,2020.875851029321,None,2020.875851029321,None,2020.875851029321,None,4,1.8154194337139415,2020.875851029321,None,2022.7427690303857,None,2022.7427690303857,None,2023.2594496871434,None,2023.2594496871434,None,2023.2594496871434,None,f,0.31199354600175866,2023.2594496871434,None,sing30,001,2019_Nov_11_1534,ProdFawcett_Revision2019,3.2.4,59.86741316969344,
,,,,123,0,123,0,,,,,,,,,,,,,2027.327562200443,None,,,,,,,,,,,,,,,,,,,,,,working,D_new,123,357,2024.1284843957355,None,2024.1284843957355,None,2024.1284843957355,None,4,1.578587976317067,2024.1284843957355,None,2025.7603760188167,None,2025.7603760188167,None,2026.2772155996927,None,2026.2772155996927,None,2026.2772155996927,None,f,1.006369715967594,2026.2772155996927,None,sing30,001,2019_Nov_11_1534,ProdFawcett_Revision2019,3.2.4,59.86741316969344,
,,,,124,0,124,0,,,,,,,,,,,,,2030.8953968297901,None,,,,,,,,,,,,,,,,,,,,,,split,D_new,124,299,2027.8446844858645,None,2027.8446844858645,None,2027.8446844858645,None,2,1.870032727171747,2027.8446844858645,None,2029.7783260469787,None,2029.7783260469787,None,2030.2951933073973,None,2030.2951933073973,None,2030.2951933073973,None,n,0.5635716687129388,2030.2951933073973,None,sing30,001,2019_Nov_11_1534,ProdFawcett_Revision2019,3.2.4,59.86741316969344,
,,,,125,0,125,0,,,,,,,,,,,,,2035.4801865787804,None,,,,,,,,,,,,,,,,,,,,,,medicine,D_new,125,186,2031.4138054364485,None,2031.4138054364485,None,2031.4138054364485,None,2,2.189541424613708,2031.4138054364485,None,2033.6629132376947,None,2033.6629132376947,None,2034.1798663357977,None,2034.1798663357977,None,2034.1798663357977,None,n,1.2626119971846492,2034.1798663357977,None,sing30,001,2019_Nov_11_1534,ProdFawcett_Revision2019,3.2.4,59.86741316969344,
,,,,126,0,126,0,,,,,,,,,,,,,2042.2991751185164,None,,,,,,,,,,,,,,,,,,,,,,individual,B_aloud,126,160,2035.9999975119508,None,2035.9999975119508,None,2035.9999975119508,None,2,4.6987031978587765,2035.9999975119508,None,2040.7483774034163,None,2040.7483774034163,None,2041.2652857166404,None,2041.2652857166404,None,2041.2652857166404,None,f,0.9848726632162652,2041.2652857166404,None,sing30,001,2019_Nov_11_1534,ProdFawcett_Revision2019,3.2.4,59.86741316969344,
,,,,127,0,127,0,,,,,,,,,,,,,2046.4336578889342,None,,,,,,,,,,,,,,,,,,,,,,guest,A_silent,127,146,2042.8161045801553,None,2042.8161045801553,None,2042.8161045801553,None,6,2.258802172439573,2042.8161045801553,None,2045.1331849419548,None,2045.1331849419548,None,2045.6506036161918,None,2045.6506036161918,None,2045.6506036161918,None,r,0.7437406134467892,2045.6506036161918,None,sing30,001,2019_Nov_11_1534,ProdFawcett_Revision2019,3.2.4,59.86741316969344,
,,,,128,0,128,0,,,,,,,,,,,,,2049.6180123537843,None,,,,,,,,,,,,,,,,,,,,,,narrow,D_new,128,197,2046.9520036723598,None,2046.9520036723598,None,2046.9520036723598,None,1,1.6824080331634832,2046.9520036723598,None,2048.6740002942115,None,2048.6740002942115,None,2049.201194512235,None,2049.201194512235,None,2049.201194512235,None,n,0.3686915133584989,2049.201194512235,None,sing30,001,2019_Nov_11_1534,ProdFawcett_Revision2019,3.2.4,59.86741316969344,
,,,,129,0,129,0,,,,,,,,,,,,,2053.052320556477,None,,,,,,,,,,,,,,,,,,,,,,primary,B_aloud,129,234,2050.135993016047,None,2050.135993016047,None,2050.135993016047,None,1,1.753805703913713,2050.135993016047,None,2051.952008648457,None,2051.952008648457,None,2052.468767989759,None,2052.468767989759,None,2052.468767989759,None,n,0.5492190481281796,2052.468767989759,None,sing30,001,2019_Nov_11_1534,ProdFawcett_Revision2019,3.2.4,59.86741316969344,
,,,,130,0,130,0,,,,,,,,,,,,,2056.3702117111834,None,,,,,,,,,,,,,,,,,,,,,,number,C_sing,130,203,2053.5711219638415,None,2053.5711219638415,None,2053.5711219638415,None,2,1.6391620127196802,2053.5711219638415,None,2055.269705424351,None,2055.269705424351,None,2055.7866523023313,None,2055.7866523023313,None,2055.7866523023313,None,f,0.5430748115850292,2055.7866523023313,None,sing30,001,2019_Nov_11_1534,ProdFawcett_Revision2019,3.2.4,59.86741316969344,
,,,,131,0,131,0,,,,,,,,,,,,,2060.5564284805705,None,,,,,,,,,,,,,,,,,,,,,,present,D_new,131,231,2056.888212588842,None,2056.888212588842,None,2056.888212588842,None,4,2.600902664109526,2056.888212588842,None,2059.5269625184774,None,2059.5269625184774,None,2060.0403916064424,None,2060.0403916064424,None,2060.0403916064424,None,f,0.4890956595681928,2060.0403916064424,None,sing30,001,2019_Nov_11_1534,ProdFawcett_Revision2019,3.2.4,59.86741316969344,
,,,,132,0,132,0,,,,,,,,,,,,,2063.255716991912,None,,,,,,,,,,,,,,,,,,,,,,trial,A_silent,132,341,2061.0881720958478,None,2061.0881720958478,None,2061.0881720958478,None,1,1.304983157465358,2061.0881720958478,None,2062.444103028857,None,2062.444103028857,None,2062.972144427501,None,2062.972144427501,None,2062.972144427501,None,n,0.23692040514197288,2062.972144427501,None,sing30,001,2019_Nov_11_1534,ProdFawcett_Revision2019,3.2.4,59.86741316969344,
,,,,133,0,133,0,,,,,,,,,,,,,2066.690083041739,None,,,,,,,,,,,,,,,,,,,,,,short,D_new,133,285,2063.7731568145637,None,2063.7731568145637,None,2063.7731568145637,None,5,1.8357713619980132,2063.7731568145637,None,2065.6731120607856,None,2065.6731120607856,None,2066.1898042247685,None,2066.1898042247685,None,2066.1898042247685,None,f,0.46714111684195814,2066.1898042247685,None,sing30,001,2019_Nov_11_1534,ProdFawcett_Revision2019,3.2.4,59.86741316969344,
,,,,134,0,134,0,,,,,,,,,,,,,2069.5741287708324,None,,,,,,,,,,,,,,,,,,,,,,turkey,D_new,134,342,2067.2078298274128,None,2067.2078298274128,None,2067.2078298274128,None,1,1.4010280617694661,2067.2078298274128,None,2068.67397168165,None,2068.67397168165,None,2069.190745018226,None,2069.190745018226,None,2069.190745018226,None,n,0.3460944320268027,2069.190745018226,None,sing30,001,2019_Nov_11_1534,ProdFawcett_Revision2019,3.2.4,59.86741316969344,
,,,,135,0,135,0,,,,,,,,,,,,,2072.9254468613417,None,,,,,,,,,,,,,,,,,,,,,,plane,D_new,135,223,2070.0910000743306,None,2070.0910000743306,None,2070.0910000743306,None,2,1.806057217036141,2070.0910000743306,None,2071.9583870725955,None,2071.9583870725955,None,2072.475310314113,None,2072.475310314113,None,2072.475310314113,None,f,0.41340672662681754,2072.475310314113,None,sing30,001,2019_Nov_11_1534,ProdFawcett_Revision2019,3.2.4,59.86741316969344,
,,,,136,0,136,0,,,,,,,,,,,,,2076.3765437954125,None,,,,,,,,,,,,,,,,,,,,,,threat,D_new,136,329,2073.444194153645,None,2073.444194153645,None,2073.444194153645,None,2,1.9732363699249618,2073.444194153645,None,2075.4650704382166,None,2075.4650704382166,None,2075.99293953948,None,2075.99293953948,None,2075.99293953948,None,f,0.3355858468585211,2075.99293953948,None,sing30,001,2019_Nov_11_1534,ProdFawcett_Revision2019,3.2.4,59.86741316969344,
,,,,137,0,137,0,,,,,,,,,,,,,2079.544066610043,None,,,,,,,,,,,,,,,,,,,,,,broad,A_silent,137,31,2076.8941624465724,None,2076.8941624465724,None,2076.8941624465724,None,6,1.7463331603103143,2076.8941624465724,None,2078.6939180579784,None,2078.6939180579784,None,2079.210656250865,None,2079.210656250865,None,2079.210656250865,None,r,0.2943343085453307,2079.210656250865,None,sing30,001,2019_Nov_11_1534,ProdFawcett_Revision2019,3.2.4,59.86741316969344,
,,,,138,0,138,0,,,,,,,,,,,,,2082.4618173143936,None,,,,,,,,,,,,,,,,,,,,,,oxygen,D_new,138,209,2080.061334757326,None,2080.061334757326,None,2080.061334757326,None,1,1.4435873807415192,2080.061334757326,None,2081.5521686299962,None,2081.5521686299962,None,2082.0783237766336,None,2082.0783237766336,None,2082.0783237766336,None,n,0.3459196465973946,2082.0783237766336,None,sing30,001,2019_Nov_11_1534,ProdFawcett_Revision2019,3.2.4,59.86741316969344,
,,,,139,0,139,0,,,,,,,,,,,,,2085.3794075395963,None,,,,,,,,,,,,,,,,,,,,,,property,A_silent,139,242,2082.9802669738574,None,2082.9802669738574,None,2082.9802669738574,None,4,1.5158129497349364,2082.9802669738574,None,2084.545671401527,None,2084.545671401527,None,2085.0625395949637,None,2085.0625395949637,None,2085.0625395949637,None,f,0.2742989844718977,2085.0625395949637,None,sing30,001,2019_Nov_11_1534,ProdFawcett_Revision2019,3.2.4,59.86741316969344,
,,,,140,0,140,0,,,,,,,,,,,,,2090.1475901225704,None,,,,,,,,,,,,,,,,,,,,,,force,D_new,140,131,2085.897201598198,None,2085.897201598198,None,2085.897201598198,None,2,3.0546033412629185,2085.897201598198,None,2089.0139116139317,None,2089.0139116139317,None,2089.5306230602937,None,2089.5306230602937,None,2089.5306230602937,None,n,0.5812912413530285,2089.5306230602937,None,sing30,001,2019_Nov_11_1534,ProdFawcett_Revision2019,3.2.4,59.86741316969344,
,,,,141,0,141,0,,,,,,,,,,,,,2094.5490060089487,None,,,,,,,,,,,,,,,,,,,,,,republic,A_silent,141,260,2090.6672365335135,None,2090.6672365335135,None,2090.6672365335135,None,5,2.8126094935851143,2090.6672365335135,None,2093.5221058471943,None,2093.5221058471943,None,2094.048778818991,None,2094.048778818991,None,2094.048778818991,None,f,0.45495931884670426,2094.048778818991,None,sing30,001,2019_Nov_11_1534,ProdFawcett_Revision2019,3.2.4,59.86741316969344,
,,,,142,0,142,0,,,,,,,,,,,,,2098.366878347786,None,,,,,,,,,,,,,,,,,,,,,,report,D_new,142,259,2095.067408706491,None,2095.067408706491,None,2095.067408706491,None,5,1.8764406968894036,2095.067408706491,None,2096.999718850484,None,2096.999718850484,None,2097.5166579533125,None,2097.5166579533125,None,2097.5166579533125,None,f,0.8111446548464301,2097.5166579533125,None,sing30,001,2019_Nov_11_1534,ProdFawcett_Revision2019,3.2.4,59.86741316969344,
,,,,143,0,143,0,,,,,,,,,,,,,2102.434857439468,None,,,,,,,,,,,,,,,,,,,,,,error,A_silent,143,117,2098.884315993395,None,2098.884315993395,None,2098.884315993395,None,2,2.402892543348571,2098.884315993395,None,2101.351087323982,None,2101.351087323982,None,2101.8680071444323,None,2101.8680071444323,None,2101.8680071444323,None,n,0.5240244438355148,2101.8680071444323,None,sing30,001,2019_Nov_11_1534,ProdFawcett_Revision2019,3.2.4,59.86741316969344,
,,,,144,0,144,0,,,,,,,,,,,,,2107.886422126716,None,,,,,,,,,,,,,,,,,,,,,,trail,D_new,144,336,2102.952597694014,None,2102.952597694014,None,2102.952597694014,None,4,3.678773615859427,2102.952597694014,None,2106.686036230344,None,2106.686036230344,None,2107.2030515296674,None,2107.2030515296674,None,2107.2030515296674,None,f,0.6358320703893696,2107.2030515296674,None,sing30,001,2019_Nov_11_1534,ProdFawcett_Revision2019,3.2.4,59.86741316969344,
,,,,145,0,145,0,,,,,,,,,,,,,2112.5072683680983,None,,,,,,,,,,,,,,,,,,,,,,income,C_sing,145,159,2108.404516617211,None,2108.404516617211,None,2108.404516617211,None,6,2.730409025894005,2108.404516617211,None,2111.1875640478193,None,2111.1875640478193,None,2111.7044400164086,None,2111.7044400164086,None,2111.7044400164086,None,r,0.7749622049832396,2111.7044400164086,None,sing30,001,2019_Nov_11_1534,ProdFawcett_Revision2019,3.2.4,59.86741316969344,
,,,,146,0,146,0,,,,,,,,,,,,,2115.855774652443,None,,,,,,,,,,,,,,,,,,,,,,colonel,D_new,146,55,2113.0380379122653,None,2113.0380379122653,None,2113.0380379122653,None,1,1.6886645429094642,2113.0380379122653,None,2114.7887506604993,None,2114.7887506604993,None,2115.3056129448205,None,2115.3056129448205,None,2115.3056129448205,None,n,0.5009331738083347,2115.3056129448205,None,sing30,001,2019_Nov_11_1534,ProdFawcett_Revision2019,3.2.4,59.86741316969344,
,,,,147,0,147,0,,,,,,,,,,,,,2122.841337438199,None,,,,,,,,,,,,,,,,,,,,,,budget,D_new,147,34,2116.3744802699284,None,2116.3744802699284,None,2116.3744802699284,None,2,5.167817337408451,2116.3744802699284,None,2121.597822148672,None,2121.597822148672,None,2122.124425766109,None,2122.124425766109,None,2122.124425766109,None,n,0.6745535740665218,2122.124425766109,None,sing30,001,2019_Nov_11_1534,ProdFawcett_Revision2019,3.2.4,59.86741316969344,
,,,,148,0,148,0,,,,,,,,,,,,,2126.9425553069923,None,,,,,,,,,,,,,,,,,,,,,,captain,C_sing,148,41,2123.3596169773255,None,2123.3596169773255,None,2123.3596169773255,None,3,2.7269739635021324,2123.3596169773255,None,2126.1314563700425,None,2126.1314563700425,None,2126.6589964268505,None,2126.6589964268505,None,2126.6589964268505,None,f,0.2509486463613939,2126.6589964268505,None,sing30,001,2019_Nov_11_1534,ProdFawcett_Revision2019,3.2.4,59.86741316969344,
,,,,149,0,149,0,,,,,,,,,,,,,2130.476997211208,None,,,,,,,,,,,,,,,,,,,,,,victory,A_silent,149,346,2127.461675184605,None,2127.461675184605,None,2127.461675184605,None,1,1.9681274726926858,2127.461675184605,None,2129.4933912758434,None,2129.4933912758434,None,2130.0101835837913,None,2130.0101835837913,None,2130.0101835837913,None,n,0.4195833078056239,2130.0101835837913,None,sing30,001,2019_Nov_11_1534,ProdFawcett_Revision2019,3.2.4,59.86741316969344,
,,,,150,0,150,0,,,,,,,,,,,,,2134.395002629556,None,,,,,,,,,,,,,,,,,,,,,,health,D_new,150,149,2130.995645914577,None,2130.995645914577,None,2130.995645914577,None,4,2.201978558618066,2130.995645914577,None,2133.261291154271,None,2133.261291154271,None,2133.778040854383,None,2133.778040854383,None,2133.778040854383,None,f,0.5796898709359084,2133.778040854383,None,sing30,001,2019_Nov_11_1534,ProdFawcett_Revision2019,3.2.4,59.86741316969344,
,,,,151,0,151,0,,,,,,,,,,,,,2137.262540465781,None,,,,,,,,,,,,,,,,,,,,,,society,B_aloud,151,293,2134.9145187289423,None,2134.9145187289423,None,2134.9145187289423,None,3,1.459367208324693,2134.9145187289423,None,2136.4184531116316,None,2136.4184531116316,None,2136.9458208710594,None,2136.9458208710594,None,2136.9458208710594,None,f,0.28372433538788755,2136.9458208710594,None,sing30,001,2019_Nov_11_1534,ProdFawcett_Revision2019,3.2.4,59.86741316969344,
