StudyTrials.thisRepN,StudyTrials.thisTrialN,StudyTrials.thisN,StudyTrials.thisIndex,TestTrials.thisRepN,TestTrials.thisTrialN,TestTrials.thisN,TestTrials.thisIndex,keyWelcome.keys,keyWelcome.rt,keyReady.keys,keyReady.rt,studyPic,studyWord,studyType,studyN,studyOrder,kPress2.keys,kPress2.rt,testWord,testType,testN,testOrder,keyConf.keys,keyConf.rt,keyRKN.keys,keyRKN.rt,date,frameRate,expName,session,participant,
,,,,,,,,space,1437.8999457,,,,,,,,,,,,,,,,,,2019_Nov_04_0959,59.868695976,ProdFawcett_Revision2019,001,sing19,
,,,,,,,,,,space,2.8348051,,,,,,,,,,,,,,,,2019_Nov_04_0959,59.868695976,ProdFawcett_Revision2019,001,sing19,
0,0,0,0,,,,,,,,,materials/speakPic.jpg,raise,B_aloud,0,250,,,,,,,,,,,2019_Nov_04_0959,59.868695976,ProdFawcett_Revision2019,001,sing19,
1,0,1,0,,,,,,,,,materials/readPic.jpg,smell,A_silent,1,291,,,,,,,,,,,2019_Nov_04_0959,59.868695976,ProdFawcett_Revision2019,001,sing19,
2,0,2,0,,,,,,,,,materials/readPic.jpg,comedy,A_silent,2,58,,,,,,,,,,,2019_Nov_04_0959,59.868695976,ProdFawcett_Revision2019,001,sing19,
3,0,3,0,,,,,,,,,materials/singPic.jpg,direction,C_sing,3,94,,,,,,,,,,,2019_Nov_04_0959,59.868695976,ProdFawcett_Revision2019,001,sing19,
4,0,4,0,,,,,,,,,materials/singPic.jpg,heavy,C_sing,4,151,,,,,,,,,,,2019_Nov_04_0959,59.868695976,ProdFawcett_Revision2019,001,sing19,
5,0,5,0,,,,,,,,,materials/speakPic.jpg,fight,B_aloud,5,127,,,,,,,,,,,2019_Nov_04_0959,59.868695976,ProdFawcett_Revision2019,001,sing19,
6,0,6,0,,,,,,,,,materials/singPic.jpg,voice,C_sing,6,348,,,,,,,,,,,2019_Nov_04_0959,59.868695976,ProdFawcett_Revision2019,001,sing19,
7,0,7,0,,,,,,,,,materials/singPic.jpg,appeal,C_sing,7,9,,,,,,,,,,,2019_Nov_04_0959,59.868695976,ProdFawcett_Revision2019,001,sing19,
8,0,8,0,,,,,,,,,materials/speakPic.jpg,center,B_aloud,8,44,,,,,,,,,,,2019_Nov_04_0959,59.868695976,ProdFawcett_Revision2019,001,sing19,
9,0,9,0,,,,,,,,,materials/singPic.jpg,personnel,C_sing,9,219,,,,,,,,,,,2019_Nov_04_0959,59.868695976,ProdFawcett_Revision2019,001,sing19,
10,0,10,0,,,,,,,,,materials/readPic.jpg,service,A_silent,10,280,,,,,,,,,,,2019_Nov_04_0959,59.868695976,ProdFawcett_Revision2019,001,sing19,
11,0,11,0,,,,,,,,,materials/readPic.jpg,resistance,A_silent,11,262,,,,,,,,,,,2019_Nov_04_0959,59.868695976,ProdFawcett_Revision2019,001,sing19,
12,0,12,0,,,,,,,,,materials/readPic.jpg,brilliant,A_silent,12,30,,,,,,,,,,,2019_Nov_04_0959,59.868695976,ProdFawcett_Revision2019,001,sing19,
13,0,13,0,,,,,,,,,materials/singPic.jpg,chief,C_sing,13,48,,,,,,,,,,,2019_Nov_04_0959,59.868695976,ProdFawcett_Revision2019,001,sing19,
14,0,14,0,,,,,,,,,materials/speakPic.jpg,household,B_aloud,14,154,,,,,,,,,,,2019_Nov_04_0959,59.868695976,ProdFawcett_Revision2019,001,sing19,
15,0,15,0,,,,,,,,,materials/singPic.jpg,citizen,C_sing,15,50,,,,,,,,,,,2019_Nov_04_0959,59.868695976,ProdFawcett_Revision2019,001,sing19,
16,0,16,0,,,,,,,,,materials/readPic.jpg,prime,A_silent,16,235,,,,,,,,,,,2019_Nov_04_0959,59.868695976,ProdFawcett_Revision2019,001,sing19,
17,0,17,0,,,,,,,,,materials/readPic.jpg,weather,A_silent,17,352,,,,,,,,,,,2019_Nov_04_0959,59.868695976,ProdFawcett_Revision2019,001,sing19,
18,0,18,0,,,,,,,,,materials/speakPic.jpg,government,B_aloud,18,139,,,,,,,,,,,2019_Nov_04_0959,59.868695976,ProdFawcett_Revision2019,001,sing19,
19,0,19,0,,,,,,,,,materials/speakPic.jpg,short,B_aloud,19,285,,,,,,,,,,,2019_Nov_04_0959,59.868695976,ProdFawcett_Revision2019,001,sing19,
20,0,20,0,,,,,,,,,materials/singPic.jpg,addition,C_sing,20,2,,,,,,,,,,,2019_Nov_04_0959,59.868695976,ProdFawcett_Revision2019,001,sing19,
21,0,21,0,,,,,,,,,materials/speakPic.jpg,finish,B_aloud,21,130,,,,,,,,,,,2019_Nov_04_0959,59.868695976,ProdFawcett_Revision2019,001,sing19,
22,0,22,0,,,,,,,,,materials/singPic.jpg,shape,C_sing,22,282,,,,,,,,,,,2019_Nov_04_0959,59.868695976,ProdFawcett_Revision2019,001,sing19,
23,0,23,0,,,,,,,,,materials/speakPic.jpg,throw,B_aloud,23,330,,,,,,,,,,,2019_Nov_04_0959,59.868695976,ProdFawcett_Revision2019,001,sing19,
24,0,24,0,,,,,,,,,materials/readPic.jpg,volume,A_silent,24,349,,,,,,,,,,,2019_Nov_04_0959,59.868695976,ProdFawcett_Revision2019,001,sing19,
25,0,25,0,,,,,,,,,materials/speakPic.jpg,order,B_aloud,25,207,,,,,,,,,,,2019_Nov_04_0959,59.868695976,ProdFawcett_Revision2019,001,sing19,
26,0,26,0,,,,,,,,,materials/readPic.jpg,symbol,A_silent,26,321,,,,,,,,,,,2019_Nov_04_0959,59.868695976,ProdFawcett_Revision2019,001,sing19,
27,0,27,0,,,,,,,,,materials/readPic.jpg,executive,A_silent,27,122,,,,,,,,,,,2019_Nov_04_0959,59.868695976,ProdFawcett_Revision2019,001,sing19,
28,0,28,0,,,,,,,,,materials/singPic.jpg,finance,C_sing,28,129,,,,,,,,,,,2019_Nov_04_0959,59.868695976,ProdFawcett_Revision2019,001,sing19,
29,0,29,0,,,,,,,,,materials/speakPic.jpg,season,B_aloud,29,277,,,,,,,,,,,2019_Nov_04_0959,59.868695976,ProdFawcett_Revision2019,001,sing19,
30,0,30,0,,,,,,,,,materials/speakPic.jpg,republic,B_aloud,30,260,,,,,,,,,,,2019_Nov_04_0959,59.868695976,ProdFawcett_Revision2019,001,sing19,
31,0,31,0,,,,,,,,,materials/speakPic.jpg,murder,B_aloud,31,195,,,,,,,,,,,2019_Nov_04_0959,59.868695976,ProdFawcett_Revision2019,001,sing19,
32,0,32,0,,,,,,,,,materials/singPic.jpg,stand,C_sing,32,302,,,,,,,,,,,2019_Nov_04_0959,59.868695976,ProdFawcett_Revision2019,001,sing19,
33,0,33,0,,,,,,,,,materials/singPic.jpg,silence,C_sing,33,288,,,,,,,,,,,2019_Nov_04_0959,59.868695976,ProdFawcett_Revision2019,001,sing19,
34,0,34,0,,,,,,,,,materials/speakPic.jpg,question,B_aloud,34,247,,,,,,,,,,,2019_Nov_04_0959,59.868695976,ProdFawcett_Revision2019,001,sing19,
35,0,35,0,,,,,,,,,materials/singPic.jpg,strength,C_sing,35,310,,,,,,,,,,,2019_Nov_04_0959,59.868695976,ProdFawcett_Revision2019,001,sing19,
36,0,36,0,,,,,,,,,materials/readPic.jpg,signal,A_silent,36,287,,,,,,,,,,,2019_Nov_04_0959,59.868695976,ProdFawcett_Revision2019,001,sing19,
37,0,37,0,,,,,,,,,materials/singPic.jpg,route,C_sing,37,267,,,,,,,,,,,2019_Nov_04_0959,59.868695976,ProdFawcett_Revision2019,001,sing19,
38,0,38,0,,,,,,,,,materials/singPic.jpg,breath,C_sing,38,27,,,,,,,,,,,2019_Nov_04_0959,59.868695976,ProdFawcett_Revision2019,001,sing19,
39,0,39,0,,,,,,,,,materials/singPic.jpg,answer,C_sing,39,8,,,,,,,,,,,2019_Nov_04_0959,59.868695976,ProdFawcett_Revision2019,001,sing19,
40,0,40,0,,,,,,,,,materials/speakPic.jpg,height,B_aloud,40,152,,,,,,,,,,,2019_Nov_04_0959,59.868695976,ProdFawcett_Revision2019,001,sing19,
41,0,41,0,,,,,,,,,materials/speakPic.jpg,individual,B_aloud,41,160,,,,,,,,,,,2019_Nov_04_0959,59.868695976,ProdFawcett_Revision2019,001,sing19,
42,0,42,0,,,,,,,,,materials/speakPic.jpg,industry,B_aloud,42,161,,,,,,,,,,,2019_Nov_04_0959,59.868695976,ProdFawcett_Revision2019,001,sing19,
43,0,43,0,,,,,,,,,materials/readPic.jpg,background,A_silent,43,16,,,,,,,,,,,2019_Nov_04_0959,59.868695976,ProdFawcett_Revision2019,001,sing19,
44,0,44,0,,,,,,,,,materials/readPic.jpg,length,A_silent,44,169,,,,,,,,,,,2019_Nov_04_0959,59.868695976,ProdFawcett_Revision2019,001,sing19,
45,0,45,0,,,,,,,,,materials/readPic.jpg,safety,A_silent,45,270,,,,,,,,,,,2019_Nov_04_0959,59.868695976,ProdFawcett_Revision2019,001,sing19,
46,0,46,0,,,,,,,,,materials/singPic.jpg,business,C_sing,46,38,,,,,,,,,,,2019_Nov_04_0959,59.868695976,ProdFawcett_Revision2019,001,sing19,
47,0,47,0,,,,,,,,,materials/readPic.jpg,mechanical,A_silent,47,185,,,,,,,,,,,2019_Nov_04_0959,59.868695976,ProdFawcett_Revision2019,001,sing19,
48,0,48,0,,,,,,,,,materials/speakPic.jpg,opening,B_aloud,48,205,,,,,,,,,,,2019_Nov_04_0959,59.868695976,ProdFawcett_Revision2019,001,sing19,
49,0,49,0,,,,,,,,,materials/speakPic.jpg,listen,B_aloud,49,172,,,,,,,,,,,2019_Nov_04_0959,59.868695976,ProdFawcett_Revision2019,001,sing19,
50,0,50,0,,,,,,,,,materials/readPic.jpg,review,A_silent,50,263,,,,,,,,,,,2019_Nov_04_0959,59.868695976,ProdFawcett_Revision2019,001,sing19,
51,0,51,0,,,,,,,,,materials/speakPic.jpg,trial,B_aloud,51,341,,,,,,,,,,,2019_Nov_04_0959,59.868695976,ProdFawcett_Revision2019,001,sing19,
52,0,52,0,,,,,,,,,materials/readPic.jpg,rural,A_silent,52,269,,,,,,,,,,,2019_Nov_04_0959,59.868695976,ProdFawcett_Revision2019,001,sing19,
53,0,53,0,,,,,,,,,materials/speakPic.jpg,running,B_aloud,53,268,,,,,,,,,,,2019_Nov_04_0959,59.868695976,ProdFawcett_Revision2019,001,sing19,
54,0,54,0,,,,,,,,,materials/singPic.jpg,majority,C_sing,54,176,,,,,,,,,,,2019_Nov_04_0959,59.868695976,ProdFawcett_Revision2019,001,sing19,
55,0,55,0,,,,,,,,,materials/readPic.jpg,quick,A_silent,55,248,,,,,,,,,,,2019_Nov_04_0959,59.868695976,ProdFawcett_Revision2019,001,sing19,
56,0,56,0,,,,,,,,,materials/speakPic.jpg,permit,B_aloud,56,218,,,,,,,,,,,2019_Nov_04_0959,59.868695976,ProdFawcett_Revision2019,001,sing19,
57,0,57,0,,,,,,,,,materials/speakPic.jpg,threat,B_aloud,57,329,,,,,,,,,,,2019_Nov_04_0959,59.868695976,ProdFawcett_Revision2019,001,sing19,
58,0,58,0,,,,,,,,,materials/speakPic.jpg,collection,B_aloud,58,54,,,,,,,,,,,2019_Nov_04_0959,59.868695976,ProdFawcett_Revision2019,001,sing19,
59,0,59,0,,,,,,,,,materials/readPic.jpg,shock,A_silent,59,284,,,,,,,,,,,2019_Nov_04_0959,59.868695976,ProdFawcett_Revision2019,001,sing19,
60,0,60,0,,,,,,,,,materials/readPic.jpg,group,A_silent,60,143,,,,,,,,,,,2019_Nov_04_0959,59.868695976,ProdFawcett_Revision2019,001,sing19,
61,0,61,0,,,,,,,,,materials/singPic.jpg,search,C_sing,61,276,,,,,,,,,,,2019_Nov_04_0959,59.868695976,ProdFawcett_Revision2019,001,sing19,
62,0,62,0,,,,,,,,,materials/singPic.jpg,machinery,C_sing,62,175,,,,,,,,,,,2019_Nov_04_0959,59.868695976,ProdFawcett_Revision2019,001,sing19,
63,0,63,0,,,,,,,,,materials/singPic.jpg,under,C_sing,63,343,,,,,,,,,,,2019_Nov_04_0959,59.868695976,ProdFawcett_Revision2019,001,sing19,
64,0,64,0,,,,,,,,,materials/speakPic.jpg,sound,B_aloud,64,295,,,,,,,,,,,2019_Nov_04_0959,59.868695976,ProdFawcett_Revision2019,001,sing19,
65,0,65,0,,,,,,,,,materials/singPic.jpg,position,C_sing,65,229,,,,,,,,,,,2019_Nov_04_0959,59.868695976,ProdFawcett_Revision2019,001,sing19,
66,0,66,0,,,,,,,,,materials/readPic.jpg,crisis,A_silent,66,79,,,,,,,,,,,2019_Nov_04_0959,59.868695976,ProdFawcett_Revision2019,001,sing19,
67,0,67,0,,,,,,,,,materials/speakPic.jpg,power,B_aloud,67,230,,,,,,,,,,,2019_Nov_04_0959,59.868695976,ProdFawcett_Revision2019,001,sing19,
68,0,68,0,,,,,,,,,materials/singPic.jpg,count,C_sing,68,72,,,,,,,,,,,2019_Nov_04_0959,59.868695976,ProdFawcett_Revision2019,001,sing19,
69,0,69,0,,,,,,,,,materials/readPic.jpg,discovery,A_silent,69,95,,,,,,,,,,,2019_Nov_04_0959,59.868695976,ProdFawcett_Revision2019,001,sing19,
70,0,70,0,,,,,,,,,materials/readPic.jpg,minute,A_silent,70,192,,,,,,,,,,,2019_Nov_04_0959,59.868695976,ProdFawcett_Revision2019,001,sing19,
71,0,71,0,,,,,,,,,materials/readPic.jpg,public,A_silent,71,244,,,,,,,,,,,2019_Nov_04_0959,59.868695976,ProdFawcett_Revision2019,001,sing19,
72,0,72,0,,,,,,,,,materials/readPic.jpg,blind,A_silent,72,24,,,,,,,,,,,2019_Nov_04_0959,59.868695976,ProdFawcett_Revision2019,001,sing19,
73,0,73,0,,,,,,,,,materials/speakPic.jpg,vision,B_aloud,73,347,,,,,,,,,,,2019_Nov_04_0959,59.868695976,ProdFawcett_Revision2019,001,sing19,
74,0,74,0,,,,,,,,,materials/singPic.jpg,ground,C_sing,74,142,,,,,,,,,,,2019_Nov_04_0959,59.868695976,ProdFawcett_Revision2019,001,sing19,
75,0,75,0,,,,,,,,,materials/singPic.jpg,meeting,C_sing,75,187,,,,,,,,,,,2019_Nov_04_0959,59.868695976,ProdFawcett_Revision2019,001,sing19,
76,0,76,0,,,,,,,,,materials/speakPic.jpg,accident,B_aloud,76,0,,,,,,,,,,,2019_Nov_04_0959,59.868695976,ProdFawcett_Revision2019,001,sing19,
77,0,77,0,,,,,,,,,materials/readPic.jpg,watch,A_silent,77,351,,,,,,,,,,,2019_Nov_04_0959,59.868695976,ProdFawcett_Revision2019,001,sing19,
78,0,78,0,,,,,,,,,materials/readPic.jpg,quantity,A_silent,78,245,,,,,,,,,,,2019_Nov_04_0959,59.868695976,ProdFawcett_Revision2019,001,sing19,
79,0,79,0,,,,,,,,,materials/speakPic.jpg,balance,B_aloud,79,17,,,,,,,,,,,2019_Nov_04_0959,59.868695976,ProdFawcett_Revision2019,001,sing19,
80,0,80,0,,,,,,,,,materials/singPic.jpg,curve,C_sing,80,82,,,,,,,,,,,2019_Nov_04_0959,59.868695976,ProdFawcett_Revision2019,001,sing19,
81,0,81,0,,,,,,,,,materials/readPic.jpg,couch,A_silent,81,70,,,,,,,,,,,2019_Nov_04_0959,59.868695976,ProdFawcett_Revision2019,001,sing19,
82,0,82,0,,,,,,,,,materials/singPic.jpg,gesture,C_sing,82,137,,,,,,,,,,,2019_Nov_04_0959,59.868695976,ProdFawcett_Revision2019,001,sing19,
83,0,83,0,,,,,,,,,materials/singPic.jpg,broke,C_sing,83,32,,,,,,,,,,,2019_Nov_04_0959,59.868695976,ProdFawcett_Revision2019,001,sing19,
84,0,84,0,,,,,,,,,materials/singPic.jpg,sleep,C_sing,84,290,,,,,,,,,,,2019_Nov_04_0959,59.868695976,ProdFawcett_Revision2019,001,sing19,
85,0,85,0,,,,,,,,,materials/speakPic.jpg,detective,B_aloud,85,92,,,,,,,,,,,2019_Nov_04_0959,59.868695976,ProdFawcett_Revision2019,001,sing19,
86,0,86,0,,,,,,,,,materials/singPic.jpg,engineer,C_sing,86,114,,,,,,,,,,,2019_Nov_04_0959,59.868695976,ProdFawcett_Revision2019,001,sing19,
87,0,87,0,,,,,,,,,materials/readPic.jpg,pressure,A_silent,87,232,,,,,,,,,,,2019_Nov_04_0959,59.868695976,ProdFawcett_Revision2019,001,sing19,
88,0,88,0,,,,,,,,,materials/readPic.jpg,brief,A_silent,88,28,,,,,,,,,,,2019_Nov_04_0959,59.868695976,ProdFawcett_Revision2019,001,sing19,
89,0,89,0,,,,,,,,,materials/speakPic.jpg,people,B_aloud,89,216,,,,,,,,,,,2019_Nov_04_0959,59.868695976,ProdFawcett_Revision2019,001,sing19,
,,,,,,,,,,,,,,,,,k,74.9556995,,,,,,,,,2019_Nov_04_0959,59.868695976,ProdFawcett_Revision2019,001,sing19,
,,,,,,,,,,space,0.7343712,,,,,,,,,,,,,,,,2019_Nov_04_0959,59.868695976,ProdFawcett_Revision2019,001,sing19,
,,,,0,0,0,0,,,,,,,,,,,,generation,D_new,0,136,1,6.4801401,f,4.8448868,2019_Nov_04_0959,59.868695976,ProdFawcett_Revision2019,001,sing19,
,,,,1,0,1,0,,,,,,,,,,,,pressure,A_silent,1,232,6,4.0391725,f,3.575318,2019_Nov_04_0959,59.868695976,ProdFawcett_Revision2019,001,sing19,
,,,,2,0,2,0,,,,,,,,,,,,machinery,C_sing,2,175,6,2.2190536,f,3.4351339,2019_Nov_04_0959,59.868695976,ProdFawcett_Revision2019,001,sing19,
,,,,3,0,3,0,,,,,,,,,,,,meeting,C_sing,3,187,6,2.9220678,f,1.4577167,2019_Nov_04_0959,59.868695976,ProdFawcett_Revision2019,001,sing19,
,,,,4,0,4,0,,,,,,,,,,,,course,D_new,4,74,1,1.9765178,n,1.0359705,2019_Nov_04_0959,59.868695976,ProdFawcett_Revision2019,001,sing19,
,,,,5,0,5,0,,,,,,,,,,,,religion,D_new,5,258,1,1.6216694,n,1.652285,2019_Nov_04_0959,59.868695976,ProdFawcett_Revision2019,001,sing19,
,,,,6,0,6,0,,,,,,,,,,,,watch,A_silent,6,351,6,2.3410706,f,2.8188869,2019_Nov_04_0959,59.868695976,ProdFawcett_Revision2019,001,sing19,
,,,,7,0,7,0,,,,,,,,,,,,private,D_new,7,237,6,2.1349687,f,1.9901288,2019_Nov_04_0959,59.868695976,ProdFawcett_Revision2019,001,sing19,
,,,,8,0,8,0,,,,,,,,,,,,answer,C_sing,8,8,6,5.4151355,f,1.6928846,2019_Nov_04_0959,59.868695976,ProdFawcett_Revision2019,001,sing19,
,,,,9,0,9,0,,,,,,,,,,,,sound,B_aloud,9,295,6,1.774805,f,1.2971081,2019_Nov_04_0959,59.868695976,ProdFawcett_Revision2019,001,sing19,
,,,,10,0,10,0,,,,,,,,,,,,business,C_sing,10,38,6,2.4397584,f,0.7072527,2019_Nov_04_0959,59.868695976,ProdFawcett_Revision2019,001,sing19,
,,,,11,0,11,0,,,,,,,,,,,,space,D_new,11,297,6,1.7875219,f,0.6771069,2019_Nov_04_0959,59.868695976,ProdFawcett_Revision2019,001,sing19,
,,,,12,0,12,0,,,,,,,,,,,,appeal,C_sing,12,9,6,1.8750216,f,0.761875900001,2019_Nov_04_0959,59.868695976,ProdFawcett_Revision2019,001,sing19,
,,,,13,0,13,0,,,,,,,,,,,,rough,D_new,13,266,2,3.7510109,r,3.3397458,2019_Nov_04_0959,59.868695976,ProdFawcett_Revision2019,001,sing19,
,,,,14,0,14,0,,,,,,,,,,,,resistance,A_silent,14,262,6,2.0893646,f,1.4090948,2019_Nov_04_0959,59.868695976,ProdFawcett_Revision2019,001,sing19,
,,,,15,0,15,0,,,,,,,,,,,,equipment,D_new,15,116,6,2.0511979,f,1.746234,2019_Nov_04_0959,59.868695976,ProdFawcett_Revision2019,001,sing19,
,,,,16,0,16,0,,,,,,,,,,,,defeat,D_new,16,88,2,2.0884444,r,3.9364945,2019_Nov_04_0959,59.868695976,ProdFawcett_Revision2019,001,sing19,
,,,,17,0,17,0,,,,,,,,,,,,tennis,D_new,17,323,1,1.6038939,n,1.395056,2019_Nov_04_0959,59.868695976,ProdFawcett_Revision2019,001,sing19,
,,,,18,0,18,0,,,,,,,,,,,,count,C_sing,18,72,6,1.6882638,f,1.8631614,2019_Nov_04_0959,59.868695976,ProdFawcett_Revision2019,001,sing19,
,,,,19,0,19,0,,,,,,,,,,,,payment,D_new,19,215,6,5.0621106,f,0.4620072,2019_Nov_04_0959,59.868695976,ProdFawcett_Revision2019,001,sing19,
,,,,20,0,20,0,,,,,,,,,,,,rural,A_silent,20,269,1,2.4853724,n,2.0784522,2019_Nov_04_0959,59.868695976,ProdFawcett_Revision2019,001,sing19,
,,,,21,0,21,0,,,,,,,,,,,,discovery,A_silent,21,95,6,1.828937,f,1.3195449,2019_Nov_04_0959,59.868695976,ProdFawcett_Revision2019,001,sing19,
,,,,22,0,22,0,,,,,,,,,,,,guard,D_new,22,145,1,1.490356,n,1.0451985,2019_Nov_04_0959,59.868695976,ProdFawcett_Revision2019,001,sing19,
,,,,23,0,23,0,,,,,,,,,,,,center,B_aloud,23,44,6,1.7590884,f,0.343884,2019_Nov_04_0959,59.868695976,ProdFawcett_Revision2019,001,sing19,
,,,,24,0,24,0,,,,,,,,,,,,shape,C_sing,24,282,6,1.7059867,f,0.0878775000001,2019_Nov_04_0959,59.868695976,ProdFawcett_Revision2019,001,sing19,
,,,,25,0,25,0,,,,,,,,,,,,distance,D_new,25,100,6,1.9804486,f,0.3815583,2019_Nov_04_0959,59.868695976,ProdFawcett_Revision2019,001,sing19,
,,,,26,0,26,0,,,,,,,,,,,,sight,D_new,26,286,6,1.6256157,f,0.419982699999,2019_Nov_04_0959,59.868695976,ProdFawcett_Revision2019,001,sing19,
,,,,27,0,27,0,,,,,,,,,,,,entrance,D_new,27,115,3,1.9928826,r,4.0202297,2019_Nov_04_0959,59.868695976,ProdFawcett_Revision2019,001,sing19,
,,,,28,0,28,0,,,,,,,,,,,,edition,D_new,28,107,6,1.8369706,f,0.4623094,2019_Nov_04_0959,59.868695976,ProdFawcett_Revision2019,001,sing19,
,,,,29,0,29,0,,,,,,,,,,,,problem,D_new,29,238,3,1.8732603,f,0.426479100001,2019_Nov_04_0959,59.868695976,ProdFawcett_Revision2019,001,sing19,
,,,,30,0,30,0,,,,,,,,,,,,question,B_aloud,30,247,6,2.3891747,f,0.0469144999997,2019_Nov_04_0959,59.868695976,ProdFawcett_Revision2019,001,sing19,
,,,,31,0,31,0,,,,,,,,,,,,place,D_new,31,222,6,1.5131697,f,0.1801559,2019_Nov_04_0959,59.868695976,ProdFawcett_Revision2019,001,sing19,
,,,,32,0,32,0,,,,,,,,,,,,surprise,D_new,32,317,4,2.6140546,r,1.5431531,2019_Nov_04_0959,59.868695976,ProdFawcett_Revision2019,001,sing19,
,,,,33,0,33,0,,,,,,,,,,,,route,C_sing,33,267,6,3.9221968,r,1.0601886,2019_Nov_04_0959,59.868695976,ProdFawcett_Revision2019,001,sing19,
,,,,34,0,34,0,,,,,,,,,,,,broke,C_sing,34,32,6,1.524409,r,0.5015344,2019_Nov_04_0959,59.868695976,ProdFawcett_Revision2019,001,sing19,
,,,,35,0,35,0,,,,,,,,,,,,member,D_new,35,188,6,2.0884248,r,0.4254317,2019_Nov_04_0959,59.868695976,ProdFawcett_Revision2019,001,sing19,
,,,,36,0,36,0,,,,,,,,,,,,pancakes,D_new,36,210,1,2.0768097,n,1.1818861,2019_Nov_04_0959,59.868695976,ProdFawcett_Revision2019,001,sing19,
,,,,37,0,37,0,,,,,,,,,,,,household,B_aloud,37,154,1,2.1634958,n,0.3927966,2019_Nov_04_0959,59.868695976,ProdFawcett_Revision2019,001,sing19,
,,,,38,0,38,0,,,,,,,,,,,,individual,B_aloud,38,160,6,1.6685819,r,0.3168982,2019_Nov_04_0959,59.868695976,ProdFawcett_Revision2019,001,sing19,
,,,,39,0,39,0,,,,,,,,,,,,tough,D_new,39,333,6,1.6554193,r,0.5128975,2019_Nov_04_0959,59.868695976,ProdFawcett_Revision2019,001,sing19,
,,,,40,0,40,0,,,,,,,,,,,,running,B_aloud,40,268,6,1.5641343,r,1.2452825,2019_Nov_04_0959,59.868695976,ProdFawcett_Revision2019,001,sing19,
,,,,41,0,41,0,,,,,,,,,,,,collection,B_aloud,41,54,6,1.4346099,r,0.1085723,2019_Nov_04_0959,59.868695976,ProdFawcett_Revision2019,001,sing19,
,,,,42,0,42,0,,,,,,,,,,,,school,D_new,42,274,3,1.5662106,n,0.3126401,2019_Nov_04_0959,59.868695976,ProdFawcett_Revision2019,001,sing19,
,,,,43,0,43,0,,,,,,,,,,,,fashion,D_new,43,125,2,2.3713464,n,0.4280509,2019_Nov_04_0959,59.868695976,ProdFawcett_Revision2019,001,sing19,
,,,,44,0,44,0,,,,,,,,,,,,chief,C_sing,44,48,6,1.8791286,r,0.7289699,2019_Nov_04_0959,59.868695976,ProdFawcett_Revision2019,001,sing19,
,,,,45,0,45,0,,,,,,,,,,,,region,D_new,45,256,1,2.9959531,f,1.226469,2019_Nov_04_0959,59.868695976,ProdFawcett_Revision2019,001,sing19,
,,,,46,0,46,0,,,,,,,,,,,,suggestion,D_new,46,314,6,1.657432,r,0.5604378,2019_Nov_04_0959,59.868695976,ProdFawcett_Revision2019,001,sing19,
,,,,47,0,47,0,,,,,,,,,,,,quantity,A_silent,47,245,4,2.4491747,f,0.8737443,2019_Nov_04_0959,59.868695976,ProdFawcett_Revision2019,001,sing19,
,,,,48,0,48,0,,,,,,,,,,,,threat,B_aloud,48,329,6,1.6054381,r,1.9771025,2019_Nov_04_0959,59.868695976,ProdFawcett_Revision2019,001,sing19,
,,,,49,0,49,0,,,,,,,,,,,,comedy,A_silent,49,58,3,1.8183645,n,0.379676,2019_Nov_04_0959,59.868695976,ProdFawcett_Revision2019,001,sing19,
,,,,50,0,50,0,,,,,,,,,,,,quick,A_silent,50,248,6,1.7355278,r,0.3759815,2019_Nov_04_0959,59.868695976,ProdFawcett_Revision2019,001,sing19,
,,,,51,0,51,0,,,,,,,,,,,,express,D_new,51,124,6,2.2335721,r,0.00094799999988,2019_Nov_04_0959,59.868695976,ProdFawcett_Revision2019,001,sing19,
,,,,52,0,52,0,,,,,,,,,,,,science,D_new,52,275,1,1.5676592,f,1.906704,2019_Nov_04_0959,59.868695976,ProdFawcett_Revision2019,001,sing19,
,,,,53,0,53,0,,,,,,,,,,,,motion,D_new,53,194,2,1.5960946,f,0.2683563,2019_Nov_04_0959,59.868695976,ProdFawcett_Revision2019,001,sing19,
,,,,54,0,54,0,,,,,,,,,,,,season,B_aloud,54,277,6,4.6931104,f,2.5292451,2019_Nov_04_0959,59.868695976,ProdFawcett_Revision2019,001,sing19,
,,,,55,0,55,0,,,,,,,,,,,,smell,A_silent,55,291,6,4.2073339,r,0.689869,2019_Nov_04_0959,59.868695976,ProdFawcett_Revision2019,001,sing19,
,,,,56,0,56,0,,,,,,,,,,,,under,C_sing,56,343,6,1.8109089,f,0.4220734,2019_Nov_04_0959,59.868695976,ProdFawcett_Revision2019,001,sing19,
,,,,57,0,57,0,,,,,,,,,,,,figure,D_new,57,128,6,1.0293485,f,0.1976109,2019_Nov_04_0959,59.868695976,ProdFawcett_Revision2019,001,sing19,
,,,,58,0,58,0,,,,,,,,,,,,heavy,C_sing,58,151,1,1.7362099,f,0.194343200001,2019_Nov_04_0959,59.868695976,ProdFawcett_Revision2019,001,sing19,
,,,,59,0,59,0,,,,,,,,,,,,portion,D_new,59,228,1,1.7548664,f,1.2000135,2019_Nov_04_0959,59.868695976,ProdFawcett_Revision2019,001,sing19,
,,,,60,0,60,0,,,,,,,,,,,,service,A_silent,60,280,6,1.4498436,r,0.380359,2019_Nov_04_0959,59.868695976,ProdFawcett_Revision2019,001,sing19,
,,,,61,0,61,0,,,,,,,,,,,,safety,A_silent,61,270,6,1.3956409,f,1.0600451,2019_Nov_04_0959,59.868695976,ProdFawcett_Revision2019,001,sing19,
,,,,62,0,62,0,,,,,,,,,,,,symbol,A_silent,62,321,6,1.3321024,r,0.2482303,2019_Nov_04_0959,59.868695976,ProdFawcett_Revision2019,001,sing19,
,,,,63,0,63,0,,,,,,,,,,,,instrument,D_new,63,163,6,1.9672202,r,0.2970114,2019_Nov_04_0959,59.868695976,ProdFawcett_Revision2019,001,sing19,
,,,,64,0,64,0,,,,,,,,,,,,salary,D_new,64,271,1,2.0667776,n,0.9754835,2019_Nov_04_0959,59.868695976,ProdFawcett_Revision2019,001,sing19,
,,,,65,0,65,0,,,,,,,,,,,,balance,B_aloud,65,17,6,1.6550508,r,0.2065911,2019_Nov_04_0959,59.868695976,ProdFawcett_Revision2019,001,sing19,
,,,,66,0,66,0,,,,,,,,,,,,short,B_aloud,66,285,1,1.564433,n,0.2608318,2019_Nov_04_0959,59.868695976,ProdFawcett_Revision2019,001,sing19,
,,,,67,0,67,0,,,,,,,,,,,,order,B_aloud,67,207,1,1.3145547,n,0.2470589,2019_Nov_04_0959,59.868695976,ProdFawcett_Revision2019,001,sing19,
,,,,68,0,68,0,,,,,,,,,,,,afternoon,D_new,68,3,1,1.7435946,n,0.2936501,2019_Nov_04_0959,59.868695976,ProdFawcett_Revision2019,001,sing19,
,,,,69,0,69,0,,,,,,,,,,,,position,C_sing,69,229,6,1.6015441,r,0.4218205,2019_Nov_04_0959,59.868695976,ProdFawcett_Revision2019,001,sing19,
,,,,70,0,70,0,,,,,,,,,,,,height,B_aloud,70,152,6,1.8171744,r,0.705080299999,2019_Nov_04_0959,59.868695976,ProdFawcett_Revision2019,001,sing19,
,,,,71,0,71,0,,,,,,,,,,,,native,D_new,71,199,1,2.0734737,n,0.2897648,2019_Nov_04_0959,59.868695976,ProdFawcett_Revision2019,001,sing19,
,,,,72,0,72,0,,,,,,,,,,,,music,D_new,72,196,1,1.3743229,n,0.715292700001,2019_Nov_04_0959,59.868695976,ProdFawcett_Revision2019,001,sing19,
,,,,73,0,73,0,,,,,,,,,,,,minute,A_silent,73,192,1,1.2321465,n,0.1266958,2019_Nov_04_0959,59.868695976,ProdFawcett_Revision2019,001,sing19,
,,,,74,0,74,0,,,,,,,,,,,,captain,D_new,74,41,1,1.2588792,n,0.1266611,2019_Nov_04_0959,59.868695976,ProdFawcett_Revision2019,001,sing19,
,,,,75,0,75,0,,,,,,,,,,,,council,D_new,75,71,1,1.3361702,n,0.0955503999994,2019_Nov_04_0959,59.868695976,ProdFawcett_Revision2019,001,sing19,
,,,,76,0,76,0,,,,,,,,,,,,republic,B_aloud,76,260,6,1.6097044,r,0.1629339,2019_Nov_04_0959,59.868695976,ProdFawcett_Revision2019,001,sing19,
,,,,77,0,77,0,,,,,,,,,,,,executive,A_silent,77,122,6,1.7678568,r,0.0577860000003,2019_Nov_04_0959,59.868695976,ProdFawcett_Revision2019,001,sing19,
,,,,78,0,78,0,,,,,,,,,,,,master,D_new,78,180,1,1.6392842,n,0.1379705,2019_Nov_04_0959,59.868695976,ProdFawcett_Revision2019,001,sing19,
,,,,79,0,79,0,,,,,,,,,,,,voice,C_sing,79,348,1,1.7732119,n,0.135856299999,2019_Nov_04_0959,59.868695976,ProdFawcett_Revision2019,001,sing19,
,,,,80,0,80,0,,,,,,,,,,,,universal,D_new,80,345,2,1.7611542,f,0.6569643,2019_Nov_04_0959,59.868695976,ProdFawcett_Revision2019,001,sing19,
,,,,81,0,81,0,,,,,,,,,,,,weather,A_silent,81,352,3,1.2897687,f,0.9748889,2019_Nov_04_0959,59.868695976,ProdFawcett_Revision2019,001,sing19,
,,,,82,0,82,0,,,,,,,,,,,,general,D_new,82,135,4,1.6752739,f,0.8467852,2019_Nov_04_0959,59.868695976,ProdFawcett_Revision2019,001,sing19,
,,,,83,0,83,0,,,,,,,,,,,,gesture,C_sing,83,137,6,1.3571273,r,0.4595143,2019_Nov_04_0959,59.868695976,ProdFawcett_Revision2019,001,sing19,
,,,,84,0,84,0,,,,,,,,,,,,close,D_new,84,53,6,1.5915462,f,0.589910199999,2019_Nov_04_0959,59.868695976,ProdFawcett_Revision2019,001,sing19,
,,,,85,0,85,0,,,,,,,,,,,,dozen,D_new,85,102,1,1.799627,n,0.4436655,2019_Nov_04_0959,59.868695976,ProdFawcett_Revision2019,001,sing19,
,,,,86,0,86,0,,,,,,,,,,,,level,D_new,86,170,1,1.1252117,n,0.3255675,2019_Nov_04_0959,59.868695976,ProdFawcett_Revision2019,001,sing19,
,,,,87,0,87,0,,,,,,,,,,,,agency,D_new,87,4,6,1.655096,f,0.3606093,2019_Nov_04_0959,59.868695976,ProdFawcett_Revision2019,001,sing19,
,,,,88,0,88,0,,,,,,,,,,,,people,B_aloud,88,216,6,1.9400788,f,0.8835831,2019_Nov_04_0959,59.868695976,ProdFawcett_Revision2019,001,sing19,
,,,,89,0,89,0,,,,,,,,,,,,ground,C_sing,89,142,6,1.8569872,f,0.9887999,2019_Nov_04_0959,59.868695976,ProdFawcett_Revision2019,001,sing19,
,,,,90,0,90,0,,,,,,,,,,,,silence,C_sing,90,288,1,1.5371875,n,1.4483405,2019_Nov_04_0959,59.868695976,ProdFawcett_Revision2019,001,sing19,
,,,,91,0,91,0,,,,,,,,,,,,career,D_new,91,42,6,1.5736684,f,1.4466132,2019_Nov_04_0959,59.868695976,ProdFawcett_Revision2019,001,sing19,
,,,,92,0,92,0,,,,,,,,,,,,permit,B_aloud,92,218,6,1.5820476,r,0.4116121,2019_Nov_04_0959,59.868695976,ProdFawcett_Revision2019,001,sing19,
,,,,93,0,93,0,,,,,,,,,,,,direction,C_sing,93,94,6,1.5074292,r,0.3410843,2019_Nov_04_0959,59.868695976,ProdFawcett_Revision2019,001,sing19,
,,,,94,0,94,0,,,,,,,,,,,,goose,D_new,94,138,1,1.3493868,n,0.5296767,2019_Nov_04_0959,59.868695976,ProdFawcett_Revision2019,001,sing19,
,,,,95,0,95,0,,,,,,,,,,,,hearing,D_new,95,150,6,1.843811,f,0.421577,2019_Nov_04_0959,59.868695976,ProdFawcett_Revision2019,001,sing19,
,,,,96,0,96,0,,,,,,,,,,,,personnel,C_sing,96,219,6,2.2225329,f,0.754717700001,2019_Nov_04_0959,59.868695976,ProdFawcett_Revision2019,001,sing19,
,,,,97,0,97,0,,,,,,,,,,,,curve,C_sing,97,82,6,1.2586361,r,0.307944900001,2019_Nov_04_0959,59.868695976,ProdFawcett_Revision2019,001,sing19,
,,,,98,0,98,0,,,,,,,,,,,,public,A_silent,98,244,6,1.1217372,r,0.0985602000001,2019_Nov_04_0959,59.868695976,ProdFawcett_Revision2019,001,sing19,
,,,,99,0,99,0,,,,,,,,,,,,foundation,D_new,99,132,1,1.4875085,n,0.2388313,2019_Nov_04_0959,59.868695976,ProdFawcett_Revision2019,001,sing19,
,,,,100,0,100,0,,,,,,,,,,,,conference,D_new,100,66,6,1.8837848,f,0.2487271,2019_Nov_04_0959,59.868695976,ProdFawcett_Revision2019,001,sing19,
,,,,101,0,101,0,,,,,,,,,,,,military,D_new,101,190,1,1.6389735,n,0.7557717,2019_Nov_04_0959,59.868695976,ProdFawcett_Revision2019,001,sing19,
,,,,102,0,102,0,,,,,,,,,,,,report,D_new,102,259,1,1.4692628,n,0.0931791000003,2019_Nov_04_0959,59.868695976,ProdFawcett_Revision2019,001,sing19,
,,,,103,0,103,0,,,,,,,,,,,,search,C_sing,103,276,6,1.4337101,f,0.453807,2019_Nov_04_0959,59.868695976,ProdFawcett_Revision2019,001,sing19,
,,,,104,0,104,0,,,,,,,,,,,,citizen,C_sing,104,50,6,1.4744821,r,0.103993,2019_Nov_04_0959,59.868695976,ProdFawcett_Revision2019,001,sing19,
,,,,105,0,105,0,,,,,,,,,,,,series,D_new,105,279,6,1.3039509,r,0.128261000001,2019_Nov_04_0959,59.868695976,ProdFawcett_Revision2019,001,sing19,
,,,,106,0,106,0,,,,,,,,,,,,degree,D_new,106,89,1,1.8598652,f,0.841667,2019_Nov_04_0959,59.868695976,ProdFawcett_Revision2019,001,sing19,
,,,,107,0,107,0,,,,,,,,,,,,minor,D_new,107,191,4,2.3827518,f,4.1649537,2019_Nov_04_0959,59.868695976,ProdFawcett_Revision2019,001,sing19,
,,,,108,0,108,0,,,,,,,,,,,,brilliant,A_silent,108,30,1,1.7528449,n,1.4838501,2019_Nov_04_0959,59.868695976,ProdFawcett_Revision2019,001,sing19,
,,,,109,0,109,0,,,,,,,,,,,,volume,A_silent,109,349,1,1.7594748,n,0.4669509,2019_Nov_04_0959,59.868695976,ProdFawcett_Revision2019,001,sing19,
,,,,110,0,110,0,,,,,,,,,,,,review,A_silent,110,263,6,1.5650014,r,0.0740114,2019_Nov_04_0959,59.868695976,ProdFawcett_Revision2019,001,sing19,
,,,,111,0,111,0,,,,,,,,,,,,background,A_silent,111,16,1,1.4495688,n,0.263602499999,2019_Nov_04_0959,59.868695976,ProdFawcett_Revision2019,001,sing19,
,,,,112,0,112,0,,,,,,,,,,,,poetry,D_new,112,225,1,1.4407069,n,0.3785468,2019_Nov_04_0959,59.868695976,ProdFawcett_Revision2019,001,sing19,
,,,,113,0,113,0,,,,,,,,,,,,department,D_new,113,90,1,1.5700324,n,0.5016812,2019_Nov_04_0959,59.868695976,ProdFawcett_Revision2019,001,sing19,
,,,,114,0,114,0,,,,,,,,,,,,relation,D_new,114,257,1,1.3239695,n,0.742627000001,2019_Nov_04_0959,59.868695976,ProdFawcett_Revision2019,001,sing19,
,,,,115,0,115,0,,,,,,,,,,,,marriage,D_new,115,179,2,2.1721269,f,0.456966600001,2019_Nov_04_0959,59.868695976,ProdFawcett_Revision2019,001,sing19,
,,,,116,0,116,0,,,,,,,,,,,,finance,C_sing,116,129,6,1.5726673,r,0.2930056,2019_Nov_04_0959,59.868695976,ProdFawcett_Revision2019,001,sing19,
,,,,117,0,117,0,,,,,,,,,,,,husband,D_new,117,156,4,2.0439193,f,0.222939,2019_Nov_04_0959,59.868695976,ProdFawcett_Revision2019,001,sing19,
,,,,118,0,118,0,,,,,,,,,,,,strength,C_sing,118,310,4,1.2036768,f,0.390996900001,2019_Nov_04_0959,59.868695976,ProdFawcett_Revision2019,001,sing19,
,,,,119,0,119,0,,,,,,,,,,,,murder,B_aloud,119,195,4,1.2335613,f,0.2532243,2019_Nov_04_0959,59.868695976,ProdFawcett_Revision2019,001,sing19,
,,,,120,0,120,0,,,,,,,,,,,,blind,A_silent,120,24,6,1.5037057,r,0.1789887,2019_Nov_04_0959,59.868695976,ProdFawcett_Revision2019,001,sing19,
,,,,121,0,121,0,,,,,,,,,,,,fight,B_aloud,121,127,1,1.5286288,n,0.4135044,2019_Nov_04_0959,59.868695976,ProdFawcett_Revision2019,001,sing19,
,,,,122,0,122,0,,,,,,,,,,,,sleep,C_sing,122,290,1,1.2250051,n,0.3119124,2019_Nov_04_0959,59.868695976,ProdFawcett_Revision2019,001,sing19,
,,,,123,0,123,0,,,,,,,,,,,,beauty,D_new,123,18,6,3.5791221,f,0.1970978,2019_Nov_04_0959,59.868695976,ProdFawcett_Revision2019,001,sing19,
,,,,124,0,124,0,,,,,,,,,,,,power,B_aloud,124,230,6,1.5603536,r,0.1031131,2019_Nov_04_0959,59.868695976,ProdFawcett_Revision2019,001,sing19,
,,,,125,0,125,0,,,,,,,,,,,,throw,B_aloud,125,330,6,1.1543785,r,0.525534599999,2019_Nov_04_0959,59.868695976,ProdFawcett_Revision2019,001,sing19,
,,,,126,0,126,0,,,,,,,,,,,,quarter,D_new,126,246,3,1.5677966,f,0.1872767,2019_Nov_04_0959,59.868695976,ProdFawcett_Revision2019,001,sing19,
,,,,127,0,127,0,,,,,,,,,,,,government,B_aloud,127,139,6,1.2810609,r,0.704488400001,2019_Nov_04_0959,59.868695976,ProdFawcett_Revision2019,001,sing19,
,,,,128,0,128,0,,,,,,,,,,,,prime,A_silent,128,235,4,1.6553001,f,0.9283473,2019_Nov_04_0959,59.868695976,ProdFawcett_Revision2019,001,sing19,
,,,,129,0,129,0,,,,,,,,,,,,nation,D_new,129,198,6,1.4348549,r,0.733772899999,2019_Nov_04_0959,59.868695976,ProdFawcett_Revision2019,001,sing19,
,,,,130,0,130,0,,,,,,,,,,,,dance,D_new,130,84,6,1.2422841,r,0.0391652999997,2019_Nov_04_0959,59.868695976,ProdFawcett_Revision2019,001,sing19,
,,,,131,0,131,0,,,,,,,,,,,,author,D_new,131,15,1,1.1991007,n,0.2595289,2019_Nov_04_0959,59.868695976,ProdFawcett_Revision2019,001,sing19,
,,,,132,0,132,0,,,,,,,,,,,,travel,D_new,132,338,6,1.0860944,f,0.393424100001,2019_Nov_04_0959,59.868695976,ProdFawcett_Revision2019,001,sing19,
,,,,133,0,133,0,,,,,,,,,,,,raise,B_aloud,133,250,5,1.0252789,f,0.3288617,2019_Nov_04_0959,59.868695976,ProdFawcett_Revision2019,001,sing19,
,,,,134,0,134,0,,,,,,,,,,,,smooth,D_new,134,292,4,1.7635039,f,1.2457443,2019_Nov_04_0959,59.868695976,ProdFawcett_Revision2019,001,sing19,
,,,,135,0,135,0,,,,,,,,,,,,engineer,C_sing,135,114,6,1.3898874,r,1.2268411,2019_Nov_04_0959,59.868695976,ProdFawcett_Revision2019,001,sing19,
,,,,136,0,136,0,,,,,,,,,,,,broad,D_new,136,31,3,1.557431,f,0.3457565,2019_Nov_04_0959,59.868695976,ProdFawcett_Revision2019,001,sing19,
,,,,137,0,137,0,,,,,,,,,,,,frank,D_new,137,133,1,1.2137633,n,0.3398174,2019_Nov_04_0959,59.868695976,ProdFawcett_Revision2019,001,sing19,
,,,,138,0,138,0,,,,,,,,,,,,accident,B_aloud,138,0,6,1.2238001,f,0.6698992,2019_Nov_04_0959,59.868695976,ProdFawcett_Revision2019,001,sing19,
,,,,139,0,139,0,,,,,,,,,,,,state,D_new,139,303,1,1.1844308,n,0.5286326,2019_Nov_04_0959,59.868695976,ProdFawcett_Revision2019,001,sing19,
,,,,140,0,140,0,,,,,,,,,,,,signal,A_silent,140,287,3,1.7704543,f,1.1207178,2019_Nov_04_0959,59.868695976,ProdFawcett_Revision2019,001,sing19,
,,,,141,0,141,0,,,,,,,,,,,,breath,C_sing,141,27,6,1.4379331,r,1.6075535,2019_Nov_04_0959,59.868695976,ProdFawcett_Revision2019,001,sing19,
,,,,142,0,142,0,,,,,,,,,,,,month,D_new,142,193,1,1.6583709,n,1.4263288,2019_Nov_04_0959,59.868695976,ProdFawcett_Revision2019,001,sing19,
,,,,143,0,143,0,,,,,,,,,,,,stand,C_sing,143,302,3,1.4230507,f,0.0947200999999,2019_Nov_04_0959,59.868695976,ProdFawcett_Revision2019,001,sing19,
,,,,144,0,144,0,,,,,,,,,,,,length,A_silent,144,169,3,1.6495306,f,1.0617101,2019_Nov_04_0959,59.868695976,ProdFawcett_Revision2019,001,sing19,
,,,,145,0,145,0,,,,,,,,,,,,waste,D_new,145,350,2,1.2976207,f,0.959229,2019_Nov_04_0959,59.868695976,ProdFawcett_Revision2019,001,sing19,
,,,,146,0,146,0,,,,,,,,,,,,device,D_new,146,93,6,1.505109,r,0.3554742,2019_Nov_04_0959,59.868695976,ProdFawcett_Revision2019,001,sing19,
,,,,147,0,147,0,,,,,,,,,,,,charter,D_new,147,47,6,1.4282856,r,0.9096667,2019_Nov_04_0959,59.868695976,ProdFawcett_Revision2019,001,sing19,
,,,,148,0,148,0,,,,,,,,,,,,brief,A_silent,148,28,6,6.159057,n,1.4722411,2019_Nov_04_0959,59.868695976,ProdFawcett_Revision2019,001,sing19,
,,,,149,0,149,0,,,,,,,,,,,,empty,D_new,149,112,5,5.1215699,f,0.894757399999,2019_Nov_04_0959,59.868695976,ProdFawcett_Revision2019,001,sing19,
,,,,150,0,150,0,,,,,,,,,,,,angle,D_new,150,7,6,1.4767756,r,0.0455567000008,2019_Nov_04_0959,59.868695976,ProdFawcett_Revision2019,001,sing19,
,,,,151,0,151,0,,,,,,,,,,,,country,D_new,151,73,1,1.7181624,n,0.1773606,2019_Nov_04_0959,59.868695976,ProdFawcett_Revision2019,001,sing19,
,,,,152,0,152,0,,,,,,,,,,,,shock,A_silent,152,284,6,1.3278161,r,1.0599922,2019_Nov_04_0959,59.868695976,ProdFawcett_Revision2019,001,sing19,
,,,,153,0,153,0,,,,,,,,,,,,rapid,D_new,153,252,1,1.6124791,n,0.228265,2019_Nov_04_0959,59.868695976,ProdFawcett_Revision2019,001,sing19,
,,,,154,0,154,0,,,,,,,,,,,,court,D_new,154,75,1,1.7421291,n,0.2749291,2019_Nov_04_0959,59.868695976,ProdFawcett_Revision2019,001,sing19,
,,,,155,0,155,0,,,,,,,,,,,,community,D_new,155,63,5,1.6778585,n,1.2044701,2019_Nov_04_0959,59.868695976,ProdFawcett_Revision2019,001,sing19,
,,,,156,0,156,0,,,,,,,,,,,,present,D_new,156,231,6,1.9910361,r,0.2933991,2019_Nov_04_0959,59.868695976,ProdFawcett_Revision2019,001,sing19,
,,,,157,0,157,0,,,,,,,,,,,,detective,B_aloud,157,92,6,1.2652967,r,0.9611965,2019_Nov_04_0959,59.868695976,ProdFawcett_Revision2019,001,sing19,
,,,,158,0,158,0,,,,,,,,,,,,opening,B_aloud,158,205,3,1.6970302,f,0.2388325,2019_Nov_04_0959,59.868695976,ProdFawcett_Revision2019,001,sing19,
,,,,159,0,159,0,,,,,,,,,,,,couch,A_silent,159,70,3,1.0420583,f,0.9138979,2019_Nov_04_0959,59.868695976,ProdFawcett_Revision2019,001,sing19,
,,,,160,0,160,0,,,,,,,,,,,,speech,D_new,160,298,3,1.2409977,f,0.0752666999997,2019_Nov_04_0959,59.868695976,ProdFawcett_Revision2019,001,sing19,
,,,,161,0,161,0,,,,,,,,,,,,light,D_new,161,171,1,7.0056713,n,0.3904908,2019_Nov_04_0959,59.868695976,ProdFawcett_Revision2019,001,sing19,
,,,,162,0,162,0,,,,,,,,,,,,trail,D_new,162,336,6,1.3401258,f,0.171487099999,2019_Nov_04_0959,59.868695976,ProdFawcett_Revision2019,001,sing19,
,,,,163,0,163,0,,,,,,,,,,,,vision,B_aloud,163,347,6,1.4600289,r,0.8070984,2019_Nov_04_0959,59.868695976,ProdFawcett_Revision2019,001,sing19,
,,,,164,0,164,0,,,,,,,,,,,,stranger,D_new,164,309,1,1.3513038,n,0.486867500001,2019_Nov_04_0959,59.868695976,ProdFawcett_Revision2019,001,sing19,
,,,,165,0,165,0,,,,,,,,,,,,industry,B_aloud,165,161,5,2.1215773,n,1.7203247,2019_Nov_04_0959,59.868695976,ProdFawcett_Revision2019,001,sing19,
,,,,166,0,166,0,,,,,,,,,,,,object,D_new,166,204,1,3.5789301,n,1.1586648,2019_Nov_04_0959,59.868695976,ProdFawcett_Revision2019,001,sing19,
,,,,167,0,167,0,,,,,,,,,,,,front,D_new,167,134,1,2.1604669,n,0.5782349,2019_Nov_04_0959,59.868695976,ProdFawcett_Revision2019,001,sing19,
,,,,168,0,168,0,,,,,,,,,,,,education,D_new,168,108,3,2.3444558,f,0.389916,2019_Nov_04_0959,59.868695976,ProdFawcett_Revision2019,001,sing19,
,,,,169,0,169,0,,,,,,,,,,,,production,D_new,169,240,3,1.4487294,f,0.3236863,2019_Nov_04_0959,59.868695976,ProdFawcett_Revision2019,001,sing19,
,,,,170,0,170,0,,,,,,,,,,,,finish,B_aloud,170,130,4,1.4526138,f,0.1783209,2019_Nov_04_0959,59.868695976,ProdFawcett_Revision2019,001,sing19,
,,,,171,0,171,0,,,,,,,,,,,,majority,C_sing,171,176,6,2.121539,r,0.2200108,2019_Nov_04_0959,59.868695976,ProdFawcett_Revision2019,001,sing19,
,,,,172,0,172,0,,,,,,,,,,,,mechanical,A_silent,172,185,6,1.2832362,r,0.305576100001,2019_Nov_04_0959,59.868695976,ProdFawcett_Revision2019,001,sing19,
,,,,173,0,173,0,,,,,,,,,,,,crisis,A_silent,173,79,6,1.3777255,r,0.0236586999999,2019_Nov_04_0959,59.868695976,ProdFawcett_Revision2019,001,sing19,
,,,,174,0,174,0,,,,,,,,,,,,partner,D_new,174,211,4,1.4690765,f,0.0898384000002,2019_Nov_04_0959,59.868695976,ProdFawcett_Revision2019,001,sing19,
,,,,175,0,175,0,,,,,,,,,,,,trial,B_aloud,175,341,6,1.3752841,f,0.1412654,2019_Nov_04_0959,59.868695976,ProdFawcett_Revision2019,001,sing19,
,,,,176,0,176,0,,,,,,,,,,,,listen,B_aloud,176,172,6,1.1680333,r,1.1311452,2019_Nov_04_0959,59.868695976,ProdFawcett_Revision2019,001,sing19,
,,,,177,0,177,0,,,,,,,,,,,,group,A_silent,177,143,3,1.4189594,f,0.3267921,2019_Nov_04_0959,59.868695976,ProdFawcett_Revision2019,001,sing19,
,,,,178,0,178,0,,,,,,,,,,,,skill,D_new,178,289,3,1.0435866,f,0.0433677000001,2019_Nov_04_0959,59.868695976,ProdFawcett_Revision2019,001,sing19,
,,,,179,0,179,0,,,,,,,,,,,,addition,C_sing,179,2,6,2.3984957,r,1.0932923,2019_Nov_04_0959,59.868695976,ProdFawcett_Revision2019,001,sing19,
