StudyTrials.thisRepN,StudyTrials.thisTrialN,StudyTrials.thisN,StudyTrials.thisIndex,TestTrials.thisRepN,TestTrials.thisTrialN,TestTrials.thisN,TestTrials.thisIndex,textWelcome.started,textWelcome.stopped,keyWelcome.keys,keyWelcome.rt,keyWelcome.started,keyWelcome.stopped,textReady.started,textReady.stopped,keyReady.keys,keyReady.rt,keyReady.started,keyReady.stopped,polyback_2.started,polyback_2.stopped,studyPic,studyWord,studyType,studyN,studyOrder,polyback_3.started,polyback_3.stopped,studyPicChoice.started,studyPicChoice.stopped,polyback_4.started,polyback_4.stopped,polyback.started,polyback.stopped,studyWords.started,studyWords.stopped,getResearcher.started,getResearcher.stopped,kPress2.keys,kPress2.rt,kPress2.started,kPress2.stopped,testWord,testType,testN,testOrder,polyback_5.started,polyback_5.stopped,testWords.started,testWords.stopped,textScale.started,textScale.stopped,keyConf.keys,keyConf.rt,keyConf.started,keyConf.stopped,polyback_6.started,polyback_6.stopped,studyWords_2.started,studyWords_2.stopped,polyback_7.started,polyback_7.stopped,testWords_2.started,testWords_2.stopped,textScale_2.started,textScale_2.stopped,keyRKN.keys,keyRKN.rt,keyRKN.started,keyRKN.stopped,participant,session,date,expName,psychopyVersion,frameRate,
,,,,,,,,9.362228027603123,None,space,205.02355632273247,9.362228027603123,None,,,,,,,,,,,,,,,,,,,,,,,,,,,,,,,,,,,,,,,,,,,,,,,,,,,,,,,,,,sing20,001,2019_Nov_04_1054,ProdFawcett_Revision2019,3.2.4,59.970568664300515,
,,,,,,,,,,,,,,214.4075828823843,None,space,5.041991976147983,214.4075828823843,None,,,,,,,,,,,,,,,,,,,,,,,,,,,,,,,,,,,,,,,,,,,,,,,,,,,,sing20,001,2019_Nov_04_1054,ProdFawcett_Revision2019,3.2.4,59.970568664300515,
0,0,0,0,,,,,,,,,,,,,,,,,224.2608095415635,None,materials/singPic.jpg,hunger,C_sing,0,155,220.5822725010803,None,220.5822725010803,None,221.5098522733897,None,221.76000342098996,None,221.76000342098996,None,,,,,,,,,,,,,,,,,,,,,,,,,,,,,,,,,,,sing20,001,2019_Nov_04_1054,ProdFawcett_Revision2019,3.2.4,59.970568664300515,
1,0,1,0,,,,,,,,,,,,,,,,,228.5288281395333,None,materials/singPic.jpg,breath,C_sing,1,27,224.8151511476026,None,224.8151511476026,None,225.77934285002993,None,226.02871648938162,None,226.02871648938162,None,,,,,,,,,,,,,,,,,,,,,,,,,,,,,,,,,,,sing20,001,2019_Nov_04_1054,ProdFawcett_Revision2019,3.2.4,59.970568664300515,
2,0,2,0,,,,,,,,,,,,,,,,,232.79680319712497,None,materials/singPic.jpg,express,C_sing,2,124,229.11202183243586,None,229.11202183243586,None,230.04604745906545,None,230.31256671017036,None,230.31256671017036,None,,,,,,,,,,,,,,,,,,,,,,,,,,,,,,,,,,,sing20,001,2019_Nov_04_1054,ProdFawcett_Revision2019,3.2.4,59.970568664300515,
3,0,3,0,,,,,,,,,,,,,,,,,237.06476736953482,None,materials/singPic.jpg,patient,C_sing,3,213,233.379935933277,None,233.379935933277,None,234.3140222055954,None,234.58075573801761,None,234.58075573801761,None,,,,,,,,,,,,,,,,,,,,,,,,,,,,,,,,,,,sing20,001,2019_Nov_04_1054,ProdFawcett_Revision2019,3.2.4,59.970568664300515,
4,0,4,0,,,,,,,,,,,,,,,,,241.33276202023262,None,materials/readPic.jpg,election,A_silent,4,109,237.70499782293336,None,237.70499782293336,None,238.58228836226044,None,238.83831685013138,None,238.83831685013138,None,,,,,,,,,,,,,,,,,,,,,,,,,,,,,,,,,,,sing20,001,2019_Nov_04_1054,ProdFawcett_Revision2019,3.2.4,59.970568664300515,
5,0,5,0,,,,,,,,,,,,,,,,,245.60075076192152,None,materials/speakPic.jpg,stranger,B_aloud,5,309,241.9573014243506,None,241.9573014243506,None,242.85014679352753,None,243.1165459973854,None,243.1165459973854,None,,,,,,,,,,,,,,,,,,,,,,,,,,,,,,,,,,,sing20,001,2019_Nov_04_1054,ProdFawcett_Revision2019,3.2.4,59.970568664300515,
6,0,6,0,,,,,,,,,,,,,,,,,249.8689621819649,None,materials/readPic.jpg,conference,A_silent,6,66,246.18994712940184,None,246.18994712940184,None,247.11820364493178,None,247.38455277722096,None,247.38455277722096,None,,,,,,,,,,,,,,,,,,,,,,,,,,,,,,,,,,,sing20,001,2019_Nov_04_1054,ProdFawcett_Revision2019,3.2.4,59.970568664300515,
7,0,7,0,,,,,,,,,,,,,,,,,254.1367301113205,None,materials/readPic.jpg,store,A_silent,7,305,250.45793524908368,None,250.45793524908368,None,251.38610032963334,None,251.652502332523,None,251.652502332523,None,,,,,,,,,,,,,,,,,,,,,,,,,,,,,,,,,,,sing20,001,2019_Nov_04_1054,ProdFawcett_Revision2019,3.2.4,59.970568664300515,
8,0,8,0,,,,,,,,,,,,,,,,,258.40471636498114,None,materials/singPic.jpg,level,C_sing,8,170,254.7460571001866,None,254.7460571001866,None,255.65398706222186,None,255.92050724633737,None,255.92050724633737,None,,,,,,,,,,,,,,,,,,,,,,,,,,,,,,,,,,,sing20,001,2019_Nov_04_1054,ProdFawcett_Revision2019,3.2.4,59.970568664300515,
9,0,9,0,,,,,,,,,,,,,,,,,262.6726842694334,None,materials/speakPic.jpg,produce,B_aloud,9,239,259.00638862972846,None,259.00638862972846,None,259.92198824405205,None,260.188493499998,None,260.188493499998,None,,,,,,,,,,,,,,,,,,,,,,,,,,,,,,,,,,,sing20,001,2019_Nov_04_1054,ProdFawcett_Revision2019,3.2.4,59.970568664300515,
10,0,10,0,,,,,,,,,,,,,,,,,266.940689805313,None,materials/readPic.jpg,ground,A_silent,10,142,263.26422000373714,None,263.26422000373714,None,264.190056602587,None,264.45648099767277,None,264.45648099767277,None,,,,,,,,,,,,,,,,,,,,,,,,,,,,,,,,,,,sing20,001,2019_Nov_04_1054,ProdFawcett_Revision2019,3.2.4,59.970568664300515,
11,0,11,0,,,,,,,,,,,,,,,,,271.20857093983795,None,materials/singPic.jpg,congress,C_sing,11,67,267.55880232626805,None,267.55880232626805,None,268.4578910866403,None,268.7244747154182,None,268.7244747154182,None,,,,,,,,,,,,,,,,,,,,,,,,,,,,,,,,,,,sing20,001,2019_Nov_04_1054,ProdFawcett_Revision2019,3.2.4,59.970568664300515,
12,0,12,0,,,,,,,,,,,,,,,,,275.47665702557424,None,materials/speakPic.jpg,discovery,B_aloud,12,95,271.7935793368961,None,271.7935793368961,None,272.72594389499864,None,272.99245848105056,None,272.99245848105056,None,,,,,,,,,,,,,,,,,,,,,,,,,,,,,,,,,,,sing20,001,2019_Nov_04_1054,ProdFawcett_Revision2019,3.2.4,59.970568664300515,
13,0,13,0,,,,,,,,,,,,,,,,,279.7449309572694,None,materials/readPic.jpg,community,A_silent,13,63,276.0675626671291,None,276.0675626671291,None,276.9939391677617,None,277.2604406916653,None,277.2604406916653,None,,,,,,,,,,,,,,,,,,,,,,,,,,,,,,,,,,,sing20,001,2019_Nov_04_1054,ProdFawcett_Revision2019,3.2.4,59.970568664300515,
14,0,14,0,,,,,,,,,,,,,,,,,284.0126379299327,None,materials/singPic.jpg,curve,C_sing,14,82,280.34696274180897,None,280.34696274180897,None,281.26192355540115,None,281.52842290228,None,281.52842290228,None,,,,,,,,,,,,,,,,,,,,,,,,,,,,,,,,,,,sing20,001,2019_Nov_04_1054,ProdFawcett_Revision2019,3.2.4,59.970568664300515,
15,0,15,0,,,,,,,,,,,,,,,,,288.280640355777,None,materials/singPic.jpg,scene,C_sing,15,273,284.60213379358174,None,284.60213379358174,None,285.53002052620286,None,285.79644212225685,None,285.79644212225685,None,,,,,,,,,,,,,,,,,,,,,,,,,,,,,,,,,,,sing20,001,2019_Nov_04_1054,ProdFawcett_Revision2019,3.2.4,59.970568664300515,
16,0,16,0,,,,,,,,,,,,,,,,,292.5488051252905,None,materials/readPic.jpg,season,A_silent,16,277,288.882275611104,None,288.882275611104,None,289.79785096721025,None,290.0644190458115,None,290.0644190458115,None,,,,,,,,,,,,,,,,,,,,,,,,,,,,,,,,,,,sing20,001,2019_Nov_04_1054,ProdFawcett_Revision2019,3.2.4,59.970568664300515,
17,0,17,0,,,,,,,,,,,,,,,,,296.81663681031205,None,materials/speakPic.jpg,debate,B_aloud,17,87,293.139630839054,None,293.139630839054,None,294.06590812961804,None,294.33240809850395,None,294.33240809850395,None,,,,,,,,,,,,,,,,,,,,,,,,,,,,,,,,,,,sing20,001,2019_Nov_04_1054,ProdFawcett_Revision2019,3.2.4,59.970568664300515,
18,0,18,0,,,,,,,,,,,,,,,,,301.0842682092334,None,materials/readPic.jpg,tennis,A_silent,18,323,297.41916402312927,None,297.41916402312927,None,298.33387199102435,None,298.60039404116105,None,298.60039404116105,None,,,,,,,,,,,,,,,,,,,,,,,,,,,,,,,,,,,sing20,001,2019_Nov_04_1054,ProdFawcett_Revision2019,3.2.4,59.970568664300515,
19,0,19,0,,,,,,,,,,,,,,,,,305.352591590432,None,materials/readPic.jpg,majority,A_silent,19,176,301.6677582882112,None,301.6677582882112,None,302.6020252534654,None,302.8726155377226,None,302.8726155377226,None,,,,,,,,,,,,,,,,,,,,,,,,,,,,,,,,,,,sing20,001,2019_Nov_04_1054,ProdFawcett_Revision2019,3.2.4,59.970568664300515,
20,0,20,0,,,,,,,,,,,,,,,,,309.62055576290004,None,materials/readPic.jpg,power,A_silent,20,230,305.93577750824625,None,305.93577750824625,None,306.86989581387024,None,307.13636685948586,None,307.13636685948586,None,,,,,,,,,,,,,,,,,,,,,,,,,,,,,,,,,,,sing20,001,2019_Nov_04_1054,ProdFawcett_Revision2019,3.2.4,59.970568664300515,
21,0,21,0,,,,,,,,,,,,,,,,,313.88858804502524,None,materials/speakPic.jpg,session,B_aloud,21,281,310.20527648192365,None,310.20527648192365,None,311.137813646812,None,311.4043636872666,None,311.4043636872666,None,,,,,,,,,,,,,,,,,,,,,,,,,,,,,,,,,,,sing20,001,2019_Nov_04_1054,ProdFawcett_Revision2019,3.2.4,59.970568664300515,
22,0,22,0,,,,,,,,,,,,,,,,,318.15655283944216,None,materials/speakPic.jpg,impact,B_aloud,22,157,314.4717220252496,None,314.4717220252496,None,315.4058767182869,None,315.67234838585136,None,315.67234838585136,None,,,,,,,,,,,,,,,,,,,,,,,,,,,,,,,,,,,sing20,001,2019_Nov_04_1054,ProdFawcett_Revision2019,3.2.4,59.970568664300515,
23,0,23,0,,,,,,,,,,,,,,,,,322.4245350500569,None,materials/speakPic.jpg,fellow,B_aloud,23,126,318.72458729858045,None,318.72458729858045,None,319.67387199104996,None,319.9403955962043,None,319.9403955962043,None,,,,,,,,,,,,,,,,,,,,,,,,,,,,,,,,,,,sing20,001,2019_Nov_04_1054,ProdFawcett_Revision2019,3.2.4,59.970568664300515,
24,0,24,0,,,,,,,,,,,,,,,,,326.6925250357599,None,materials/singPic.jpg,accident,C_sing,24,0,323.02588667039527,None,323.02588667039527,None,323.9418709957972,None,324.2083899358986,None,324.2083899358986,None,,,,,,,,,,,,,,,,,,,,,,,,,,,,,,,,,,,sing20,001,2019_Nov_04_1054,ProdFawcett_Revision2019,3.2.4,59.970568664300515,
25,0,25,0,,,,,,,,,,,,,,,,,330.9605000932934,None,materials/readPic.jpg,trash,A_silent,25,337,327.2942069415585,None,327.2942069415585,None,328.2099804067984,None,328.47632985009113,None,328.47632985009113,None,,,,,,,,,,,,,,,,,,,,,,,,,,,,,,,,,,,sing20,001,2019_Nov_04_1054,ProdFawcett_Revision2019,3.2.4,59.970568664300515,
26,0,26,0,,,,,,,,,,,,,,,,,335.22851869126316,None,materials/singPic.jpg,thing,C_sing,26,328,331.5795425141114,None,331.5795425141114,None,332.47777446039254,None,332.7443192137871,None,332.7443192137871,None,,,,,,,,,,,,,,,,,,,,,,,,,,,,,,,,,,,sing20,001,2019_Nov_04_1054,ProdFawcett_Revision2019,3.2.4,59.970568664300515,
27,0,27,0,,,,,,,,,,,,,,,,,339.496497480839,None,materials/readPic.jpg,research,A_silent,27,261,335.83021459227894,None,335.83021459227894,None,336.74583877588157,None,337.0122774771298,None,337.0122774771298,None,,,,,,,,,,,,,,,,,,,,,,,,,,,,,,,,,,,sing20,001,2019_Nov_04_1054,ProdFawcett_Revision2019,3.2.4,59.970568664300515,
28,0,28,0,,,,,,,,,,,,,,,,,343.7644955526339,None,materials/speakPic.jpg,color,B_aloud,28,56,340.08407849719515,None,340.08407849719515,None,341.01380699133733,None,341.280259376741,None,341.280259376741,None,,,,,,,,,,,,,,,,,,,,,,,,,,,,,,,,,,,sing20,001,2019_Nov_04_1054,ProdFawcett_Revision2019,3.2.4,59.970568664300515,
29,0,29,0,,,,,,,,,,,,,,,,,348.03248895937577,None,materials/singPic.jpg,appearance,C_sing,29,10,344.38243546680314,None,344.38243546680314,None,345.28181035019225,None,345.54829383589095,None,345.54829383589095,None,,,,,,,,,,,,,,,,,,,,,,,,,,,,,,,,,,,sing20,001,2019_Nov_04_1054,ProdFawcett_Revision2019,3.2.4,59.970568664300515,
30,0,30,0,,,,,,,,,,,,,,,,,352.30043913662666,None,materials/singPic.jpg,point,C_sing,30,226,348.6322874292382,None,348.6322874292382,None,349.5498690676177,None,349.8162477451842,None,349.8162477451842,None,,,,,,,,,,,,,,,,,,,,,,,,,,,,,,,,,,,sing20,001,2019_Nov_04_1054,ProdFawcett_Revision2019,3.2.4,59.970568664300515,
31,0,31,0,,,,,,,,,,,,,,,,,356.5684291223297,None,materials/readPic.jpg,sweet,A_silent,31,319,352.9020837220596,None,352.9020837220596,None,353.8178002736531,None,354.084220625693,None,354.084220625693,None,,,,,,,,,,,,,,,,,,,,,,,,,,,,,,,,,,,sing20,001,2019_Nov_04_1054,ProdFawcett_Revision2019,3.2.4,59.970568664300515,
32,0,32,0,,,,,,,,,,,,,,,,,360.83643185917754,None,materials/readPic.jpg,shear,A_silent,32,283,357.1516125520575,None,357.1516125520575,None,358.0857569819782,None,358.3522124774172,None,358.3522124774172,None,,,,,,,,,,,,,,,,,,,,,,,,,,,,,,,,,,,sing20,001,2019_Nov_04_1054,ProdFawcett_Revision2019,3.2.4,59.970568664300515,
33,0,33,0,,,,,,,,,,,,,,,,,365.1044243329088,None,materials/speakPic.jpg,background,B_aloud,33,16,361.39273651799886,None,361.39273651799886,None,362.3537653168896,None,362.620224544371,None,362.620224544371,None,,,,,,,,,,,,,,,,,,,,,,,,,,,,,,,,,,,sing20,001,2019_Nov_04_1054,ProdFawcett_Revision2019,3.2.4,59.970568664300515,
34,0,34,0,,,,,,,,,,,,,,,,,369.37241431855364,None,materials/readPic.jpg,payment,A_silent,34,215,365.705651240889,None,365.705651240889,None,366.62176027864916,None,366.88819742487976,None,366.88819742487976,None,,,,,,,,,,,,,,,,,,,,,,,,,,,,,,,,,,,sing20,001,2019_Nov_04_1054,ProdFawcett_Revision2019,3.2.4,59.970568664300515,
35,0,35,0,,,,,,,,,,,,,,,,,373.640371648944,None,materials/readPic.jpg,route,A_silent,35,267,369.9464427442872,None,369.9464427442872,None,370.8897882067249,None,371.15618336753687,None,371.15618336753687,None,,,,,,,,,,,,,,,,,,,,,,,,,,,,,,,,,,,sing20,001,2019_Nov_04_1054,ProdFawcett_Revision2019,3.2.4,59.970568664300515,
36,0,36,0,,,,,,,,,,,,,,,,,377.90838806988904,None,materials/singPic.jpg,murder,C_sing,36,195,374.25982957019005,None,374.25982957019005,None,375.1577265658998,None,375.42415344901383,None,375.42415344901383,None,,,,,,,,,,,,,,,,,,,,,,,,,,,,,,,,,,,sing20,001,2019_Nov_04_1054,ProdFawcett_Revision2019,3.2.4,59.970568664300515,
37,0,37,0,,,,,,,,,,,,,,,,,382.1764094669488,None,materials/singPic.jpg,growth,C_sing,37,144,378.4979744355078,None,378.4979744355078,None,379.42572059464874,None,379.69218510913197,None,379.69218510913197,None,,,,,,,,,,,,,,,,,,,,,,,,,,,,,,,,,,,sing20,001,2019_Nov_04_1054,ProdFawcett_Revision2019,3.2.4,59.970568664300515,
38,0,38,0,,,,,,,,,,,,,,,,,386.444357467175,None,materials/singPic.jpg,series,C_sing,38,279,382.75954500213265,None,382.75954500213265,None,383.6936975182034,None,383.9601589226513,None,383.9601589226513,None,,,,,,,,,,,,,,,,,,,,,,,,,,,,,,,,,,,sing20,001,2019_Nov_04_1054,ProdFawcett_Revision2019,3.2.4,59.970568664300515,
39,0,39,0,,,,,,,,,,,,,,,,,390.71242986875586,None,materials/speakPic.jpg,passage,B_aloud,39,212,387.0293254338321,None,387.0293254338321,None,387.96169652295066,None,388.22813646821305,None,388.22813646821305,None,,,,,,,,,,,,,,,,,,,,,,,,,,,,,,,,,,,sing20,001,2019_Nov_04_1054,ProdFawcett_Revision2019,3.2.4,59.970568664300515,
40,0,40,0,,,,,,,,,,,,,,,,,394.9803246874362,None,materials/readPic.jpg,drink,A_silent,40,105,391.3200037320494,None,391.3200037320494,None,392.22974870930193,None,392.4961220998666,None,392.4961220998666,None,,,,,,,,,,,,,,,,,,,,,,,,,,,,,,,,,,,sing20,001,2019_Nov_04_1054,ProdFawcett_Revision2019,3.2.4,59.970568664300515,
41,0,41,0,,,,,,,,,,,,,,,,,399.24857156182406,None,materials/singPic.jpg,division,C_sing,41,101,395.5868293214007,None,395.5868293214007,None,396.49768924550153,None,396.7641229706933,None,396.7641229706933,None,,,,,,,,,,,,,,,,,,,,,,,,,,,,,,,,,,,sing20,001,2019_Nov_04_1054,ProdFawcett_Revision2019,3.2.4,59.970568664300515,
42,0,42,0,,,,,,,,,,,,,,,,,403.51629595074337,None,materials/speakPic.jpg,scale,B_aloud,42,272,399.83948435651837,None,399.83948435651837,None,400.76567518815864,None,401.032085899089,None,401.032085899089,None,,,,,,,,,,,,,,,,,,,,,,,,,,,,,,,,,,,sing20,001,2019_Nov_04_1054,ProdFawcett_Revision2019,3.2.4,59.970568664300515,
43,0,43,0,,,,,,,,,,,,,,,,,407.7842996205436,None,materials/speakPic.jpg,employment,B_aloud,43,111,404.0846945947269,None,404.0846945947269,None,405.0337003172026,None,405.30009050195804,None,405.30009050195804,None,,,,,,,,,,,,,,,,,,,,,,,,,,,,,,,,,,,sing20,001,2019_Nov_04_1054,ProdFawcett_Revision2019,3.2.4,59.970568664300515,
44,0,44,0,,,,,,,,,,,,,,,,,412.0523664240609,None,materials/singPic.jpg,minute,C_sing,44,192,408.39291876589414,None,408.39291876589414,None,409.3016707096831,None,409.5680954157724,None,409.5680954157724,None,,,,,,,,,,,,,,,,,,,,,,,,,,,,,,,,,,,sing20,001,2019_Nov_04_1054,ProdFawcett_Revision2019,3.2.4,59.970568664300515,
45,0,45,0,,,,,,,,,,,,,,,,,416.320282701985,None,materials/singPic.jpg,universal,C_sing,45,345,412.6077281209291,None,412.6077281209291,None,413.5697260060697,None,413.8360754493624,None,413.8360754493624,None,,,,,,,,,,,,,,,,,,,,,,,,,,,,,,,,,,,sing20,001,2019_Nov_04_1054,ProdFawcett_Revision2019,3.2.4,59.970568664300515,
46,0,46,0,,,,,,,,,,,,,,,,,420.58828450582223,None,materials/readPic.jpg,music,A_silent,46,196,416.9426833364414,None,416.9426833364414,None,417.8376230017748,None,418.1040682340972,None,418.1040682340972,None,,,,,,,,,,,,,,,,,,,,,,,,,,,,,,,,,,,sing20,001,2019_Nov_04_1054,ProdFawcett_Revision2019,3.2.4,59.970568664300515,
47,0,47,0,,,,,,,,,,,,,,,,,424.8562412141473,None,materials/readPic.jpg,device,A_silent,47,93,421.17854232754325,None,421.17854232754325,None,422.1054304285208,None,422.372051066719,None,422.372051066719,None,,,,,,,,,,,,,,,,,,,,,,,,,,,,,,,,,,,sing20,001,2019_Nov_04_1054,ProdFawcett_Revision2019,3.2.4,59.970568664300515,
48,0,48,0,,,,,,,,,,,,,,,,,429.12422373576555,None,materials/speakPic.jpg,gesture,B_aloud,48,137,425.4801004540641,None,425.4801004540641,None,426.3736732599209,None,426.6400320333196,None,426.6400320333196,None,,,,,,,,,,,,,,,,,,,,,,,,,,,,,,,,,,,sing20,001,2019_Nov_04_1054,ProdFawcett_Revision2019,3.2.4,59.970568664300515,
49,0,49,0,,,,,,,,,,,,,,,,,433.3922208745498,None,materials/readPic.jpg,edition,A_silent,49,107,429.7254487777245,None,429.7254487777245,None,430.64160633203574,None,430.9080307271215,None,430.9080307271215,None,,,,,,,,,,,,,,,,,,,,,,,,,,,,,,,,,,,sing20,001,2019_Nov_04_1054,ProdFawcett_Revision2019,3.2.4,59.970568664300515,
50,0,50,0,,,,,,,,,,,,,,,,,437.66020401811693,None,materials/speakPic.jpg,command,B_aloud,50,60,433.9810412389925,None,433.9810412389925,None,434.9095969396876,None,435.1760126267327,None,435.1760126267327,None,,,,,,,,,,,,,,,,,,,,,,,,,,,,,,,,,,,sing20,001,2019_Nov_04_1054,ProdFawcett_Revision2019,3.2.4,59.970568664300515,
51,0,51,0,,,,,,,,,,,,,,,,,441.92819929088,None,materials/speakPic.jpg,pretty,B_aloud,51,233,438.24337718478637,None,438.24337718478637,None,439.17760993965203,None,439.4440026124357,None,439.4440026124357,None,,,,,,,,,,,,,,,,,,,,,,,,,,,,,,,,,,,sing20,001,2019_Nov_04_1054,ProdFawcett_Revision2019,3.2.4,59.970568664300515,
52,0,52,0,,,,,,,,,,,,,,,,,446.19619145360775,None,materials/singPic.jpg,character,C_sing,52,46,442.5345204328769,None,442.5345204328769,None,443.44557753310073,None,443.71199166506995,None,443.71199166506995,None,,,,,,,,,,,,,,,,,,,,,,,,,,,,,,,,,,,sing20,001,2019_Nov_04_1054,ProdFawcett_Revision2019,3.2.4,59.970568664300515,
53,0,53,0,,,,,,,,,,,,,,,,,450.4641836163355,None,materials/readPic.jpg,incident,A_silent,53,158,446.79795826331247,None,446.79795826331247,None,447.71352024632506,None,447.97996983263874,None,447.97996983263874,None,,,,,,,,,,,,,,,,,,,,,,,,,,,,,,,,,,,sing20,001,2019_Nov_04_1054,ProdFawcett_Revision2019,3.2.4,59.970568664300515,
54,0,54,0,,,,,,,,,,,,,,,,,454.73217298003146,None,materials/readPic.jpg,second,A_silent,54,278,451.0473368787789,None,451.0473368787789,None,451.98152733716415,None,452.24796261737356,None,452.24796261737356,None,,,,,,,,,,,,,,,,,,,,,,,,,,,,,,,,,,,sing20,001,2019_Nov_04_1054,ProdFawcett_Revision2019,3.2.4,59.970568664300515,
55,0,55,0,,,,,,,,,,,,,,,,,459.00015985569917,None,materials/speakPic.jpg,birth,B_aloud,55,22,455.3335992411594,None,455.3335992411594,None,456.2497499533347,None,456.51594918203773,None,456.51594918203773,None,,,,,,,,,,,,,,,,,,,,,,,,,,,,,,,,,,,sing20,001,2019_Nov_04_1054,ProdFawcett_Revision2019,3.2.4,59.970568664300515,
56,0,56,0,,,,,,,,,,,,,,,,,463.26815637241816,None,materials/singPic.jpg,childhood,C_sing,56,49,459.606322386011,None,459.606322386011,None,460.51747029914986,None,460.7839528518962,None,460.7839528518962,None,,,,,,,,,,,,,,,,,,,,,,,,,,,,,,,,,,,sing20,001,2019_Nov_04_1054,ProdFawcett_Revision2019,3.2.4,59.970568664300515,
57,0,57,0,,,,,,,,,,,,,,,,,467.5361444921,None,materials/speakPic.jpg,dream,B_aloud,57,104,463.85473844618537,None,463.85473844618537,None,464.7855175094446,None,465.05190458416473,None,465.05190458416473,None,,,,,,,,,,,,,,,,,,,,,,,,,,,,,,,,,,,sing20,001,2019_Nov_04_1054,ProdFawcett_Revision2019,3.2.4,59.970568664300515,
58,0,58,0,,,,,,,,,,,,,,,,,471.8041123965522,None,materials/singPic.jpg,substance,C_sing,58,313,468.15396467002574,None,468.15396467002574,None,469.0534782608738,None,469.3199278472457,None,469.3199278472457,None,,,,,,,,,,,,,,,,,,,,,,,,,,,,,,,,,,,sing20,001,2019_Nov_04_1054,ProdFawcett_Revision2019,3.2.4,59.970568664300515,
59,0,59,0,,,,,,,,,,,,,,,,,476.07209833920933,None,materials/speakPic.jpg,present,B_aloud,59,231,472.4058235366829,None,472.4058235366829,None,473.32144305529073,None,473.58791596686933,None,473.58791596686933,None,,,,,,,,,,,,,,,,,,,,,,,,,,,,,,,,,,,sing20,001,2019_Nov_04_1054,ProdFawcett_Revision2019,3.2.4,59.970568664300515,
60,0,60,0,,,,,,,,,,,,,,,,,480.3401175592444,None,materials/speakPic.jpg,enemy,B_aloud,60,113,476.644504571741,None,476.644504571741,None,477.5893189027556,None,477.85587578528794,None,477.85587578528794,None,,,,,,,,,,,,,,,,,,,,,,,,,,,,,,,,,,,sing20,001,2019_Nov_04_1054,ProdFawcett_Revision2019,3.2.4,59.970568664300515,
61,0,61,0,,,,,,,,,,,,,,,,,484.6080969708273,None,materials/speakPic.jpg,strain,B_aloud,61,308,480.90711140137864,None,480.90711140137864,None,481.8575359208626,None,482.1237590968376,None,482.1237590968376,None,,,,,,,,,,,,,,,,,,,,,,,,,,,,,,,,,,,sing20,001,2019_Nov_04_1054,ProdFawcett_Revision2019,3.2.4,59.970568664300515,
62,0,62,0,,,,,,,,,,,,,,,,,488.876088511548,None,materials/singPic.jpg,theme,C_sing,62,326,485.2259591341717,None,485.2259591341717,None,486.12542514147935,None,486.39186788577354,None,486.39186788577354,None,,,,,,,,,,,,,,,,,,,,,,,,,,,,,,,,,,,sing20,001,2019_Nov_04_1054,ProdFawcett_Revision2019,3.2.4,59.970568664300515,
63,0,63,0,,,,,,,,,,,,,,,,,493.1440809852211,None,materials/speakPic.jpg,range,B_aloud,63,251,489.47787895752117,None,489.47787895752117,None,490.39341481617885,None,490.6598650245578,None,490.6598650245578,None,,,,,,,,,,,,,,,,,,,,,,,,,,,,,,,,,,,sing20,001,2019_Nov_04_1054,ProdFawcett_Revision2019,3.2.4,59.970568664300515,
64,0,64,0,,,,,,,,,,,,,,,,,497.4120389376185,None,materials/singPic.jpg,distance,C_sing,64,100,493.7452951421146,None,493.7452951421146,None,494.6614312371821,None,494.9278270199429,None,494.9278270199429,None,,,,,,,,,,,,,,,,,,,,,,,,,,,,,,,,,,,sing20,001,2019_Nov_04_1054,ProdFawcett_Revision2019,3.2.4,59.970568664300515,
65,0,65,0,,,,,,,,,,,,,,,,,501.68005442555295,None,materials/speakPic.jpg,chief,B_aloud,65,48,498.0003240653896,None,498.0003240653896,None,498.92915966908913,None,499.1958384648897,None,499.1958384648897,None,,,,,,,,,,,,,,,,,,,,,,,,,,,,,,,,,,,sing20,001,2019_Nov_04_1054,ProdFawcett_Revision2019,3.2.4,59.970568664300515,
66,0,66,0,,,,,,,,,,,,,,,,,505.94802108599106,None,materials/speakPic.jpg,atmosphere,B_aloud,66,12,502.2631862287526,None,502.2631862287526,None,503.19717360200593,None,503.4638197424938,None,503.4638197424938,None,,,,,,,,,,,,,,,,,,,,,,,,,,,,,,,,,,,sing20,001,2019_Nov_04_1054,ProdFawcett_Revision2019,3.2.4,59.970568664300515,
67,0,67,0,,,,,,,,,,,,,,,,,510.2160294209025,None,materials/singPic.jpg,brief,C_sing,67,28,506.5524687441648,None,506.5524687441648,None,507.4651638987125,None,507.7318190582446,None,507.7318190582446,None,,,,,,,,,,,,,,,,,,,,,,,,,,,,,,,,,,,sing20,001,2019_Nov_04_1054,ProdFawcett_Revision2019,3.2.4,59.970568664300515,
68,0,68,0,,,,,,,,,,,,,,,,,514.4839777321322,None,materials/speakPic.jpg,expansion,B_aloud,68,123,510.8074192946078,None,510.8074192946078,None,511.7334073521197,None,511.99994650739245,None,511.99994650739245,None,,,,,,,,,,,,,,,,,,,,,,,,,,,,,,,,,,,sing20,001,2019_Nov_04_1054,ProdFawcett_Revision2019,3.2.4,59.970568664300515,
69,0,69,0,,,,,,,,,,,,,,,,,518.7520062822732,None,materials/speakPic.jpg,corner,B_aloud,69,69,515.0671931952238,None,515.0671931952238,None,516.0010729613714,None,516.2677831684705,None,516.2677831684705,None,,,,,,,,,,,,,,,,,,,,,,,,,,,,,,,,,,,sing20,001,2019_Nov_04_1054,ProdFawcett_Revision2019,3.2.4,59.970568664300515,
70,0,70,0,,,,,,,,,,,,,,,,,523.0199919138686,None,materials/readPic.jpg,question,A_silent,70,247,519.336606642988,None,519.336606642988,None,520.2690707221045,None,520.5359006655053,None,520.5359006655053,None,,,,,,,,,,,,,,,,,,,,,,,,,,,,,,,,,,,sing20,001,2019_Nov_04_1054,ProdFawcett_Revision2019,3.2.4,59.970568664300515,
71,0,71,0,,,,,,,,,,,,,,,,,527.2879741244833,None,materials/readPic.jpg,vision,A_silent,71,347,523.6033243142301,None,523.6033243142301,None,524.5370554207475,None,524.8037578528165,None,524.8037578528165,None,,,,,,,,,,,,,,,,,,,,,,,,,,,,,,,,,,,sing20,001,2019_Nov_04_1054,ProdFawcett_Revision2019,3.2.4,59.970568664300515,
72,0,72,0,,,,,,,,,,,,,,,,,531.5559513590415,None,materials/readPic.jpg,agency,A_silent,72,4,527.8586185233435,None,527.8586185233435,None,528.8053816010361,None,529.0717636996997,None,529.0717636996997,None,,,,,,,,,,,,,,,,,,,,,,,,,,,,,,,,,,,sing20,001,2019_Nov_04_1054,ProdFawcett_Revision2019,3.2.4,59.970568664300515,
73,0,73,0,,,,,,,,,,,,,,,,,535.8239329476492,None,materials/singPic.jpg,business,C_sing,73,38,532.1740312247421,None,532.1740312247421,None,533.0733687877073,None,533.3397344031837,None,533.3397344031837,None,,,,,,,,,,,,,,,,,,,,,,,,,,,,,,,,,,,sing20,001,2019_Nov_04_1054,ProdFawcett_Revision2019,3.2.4,59.970568664300515,
74,0,74,0,,,,,,,,,,,,,,,,,540.0919207563275,None,materials/speakPic.jpg,weight,B_aloud,74,353,536.4483737637638,None,536.4483737637638,None,537.3410595881869,None,537.6077430490404,None,537.6077430490404,None,,,,,,,,,,,,,,,,,,,,,,,,,,,,,,,,,,,sing20,001,2019_Nov_04_1054,ProdFawcett_Revision2019,3.2.4,59.970568664300515,
75,0,75,0,,,,,,,,,,,,,,,,,544.3599163400941,None,materials/singPic.jpg,executive,C_sing,75,122,540.6932095540105,None,540.6932095540105,None,541.6090113205137,None,541.8757227716269,None,541.8757227716269,None,,,,,,,,,,,,,,,,,,,,,,,,,,,,,,,,,,,sing20,001,2019_Nov_04_1054,ProdFawcett_Revision2019,3.2.4,59.970568664300515,
76,0,76,0,,,,,,,,,,,,,,,,,548.6278985507088,None,materials/readPic.jpg,portion,A_silent,76,228,544.9515599925071,None,544.9515599925071,None,545.8769975741743,None,546.1437202214147,None,546.1437202214147,None,,,,,,,,,,,,,,,,,,,,,,,,,,,,,,,,,,,sing20,001,2019_Nov_04_1054,ProdFawcett_Revision2019,3.2.4,59.970568664300515,
77,0,77,0,,,,,,,,,,,,,,,,,552.8958916464471,None,materials/singPic.jpg,exchange,C_sing,77,121,549.2460004976019,None,549.2460004976019,None,550.1449779187678,None,550.4117108291248,None,550.4117108291248,None,,,,,,,,,,,,,,,,,,,,,,,,,,,,,,,,,,,sing20,001,2019_Nov_04_1054,ProdFawcett_Revision2019,3.2.4,59.970568664300515,
78,0,78,0,,,,,,,,,,,,,,,,,557.164043042867,None,materials/singPic.jpg,permit,C_sing,78,218,553.4799234931706,None,553.4799234931706,None,554.4133510605316,None,554.67967811157,None,554.67967811157,None,,,,,,,,,,,,,,,,,,,,,,,,,,,,,,,,,,,sing20,001,2019_Nov_04_1054,ProdFawcett_Revision2019,3.2.4,59.970568664300515,
79,0,79,0,,,,,,,,,,,,,,,,,561.4318616657401,None,materials/speakPic.jpg,equipment,B_aloud,79,116,557.7491083535133,None,557.7491083535133,None,558.6809880574583,None,558.9476597001776,None,558.9476597001776,None,,,,,,,,,,,,,,,,,,,,,,,,,,,,,,,,,,,sing20,001,2019_Nov_04_1054,ProdFawcett_Revision2019,3.2.4,59.970568664300515,
80,0,80,0,,,,,,,,,,,,,,,,,565.69976083847,None,materials/speakPic.jpg,judge,B_aloud,80,166,562.0150858368725,None,562.0150858368725,None,562.9492604341358,None,563.2008104745764,None,563.2008104745764,None,,,,,,,,,,,,,,,,,,,,,,,,,,,,,,,,,,,sing20,001,2019_Nov_04_1054,ProdFawcett_Revision2019,3.2.4,59.970568664300515,
81,0,81,0,,,,,,,,,,,,,,,,,569.9515814517508,569.9515814517508,materials/readPic.jpg,staff,A_silent,81,301,566.2586573987501,None,566.2586573987501,None,567.2168128382182,None,567.4670078372583,None,567.4670078372583,None,,,,,,,,,,,,,,,,,,,,,,,,,,,,,,,,,,,sing20,001,2019_Nov_04_1054,ProdFawcett_Revision2019,3.2.4,59.970568664300515,
82,0,82,0,,,,,,,,,,,,,,,,,574.2194125147653,None,materials/singPic.jpg,trend,C_sing,82,340,570.5581647695508,None,570.5581647695508,None,571.4682627355796,None,571.718935435696,None,571.718935435696,None,,,,,,,,,,,,,,,,,,,,,,,,,,,,,,,,,,,sing20,001,2019_Nov_04_1054,ProdFawcett_Revision2019,3.2.4,59.970568664300515,
83,0,83,0,,,,,,,,,,,,,,,,,578.4872152764583,None,materials/singPic.jpg,century,C_sing,83,45,574.7856624370324,None,574.7856624370324,None,575.7369496796746,None,575.9872684580041,None,575.9872684580041,None,,,,,,,,,,,,,,,,,,,,,,,,,,,,,,,,,,,sing20,001,2019_Nov_04_1054,ProdFawcett_Revision2019,3.2.4,59.970568664300515,
84,0,84,0,,,,,,,,,,,,,,,,,582.7550684207235,None,materials/speakPic.jpg,fashion,B_aloud,84,125,579.0724684331217,None,579.0724684331217,None,580.0045568202622,None,580.2579436461674,None,580.2579436461674,None,,,,,,,,,,,,,,,,,,,,,,,,,,,,,,,,,,,sing20,001,2019_Nov_04_1054,ProdFawcett_Revision2019,3.2.4,59.970568664300515,
85,0,85,0,,,,,,,,,,,,,,,,,587.0232020899421,None,materials/readPic.jpg,nature,A_silent,85,200,583.3579150338774,None,583.3579150338774,None,584.2726951545337,None,584.524433351995,None,584.524433351995,None,,,,,,,,,,,,,,,,,,,,,,,,,,,,,,,,,,,sing20,001,2019_Nov_04_1054,ProdFawcett_Revision2019,3.2.4,59.970568664300515,
86,0,86,0,,,,,,,,,,,,,,,,,591.2913780555828,None,materials/readPic.jpg,empty,A_silent,86,112,587.5654811220593,None,587.5654811220593,None,588.5410630092374,None,588.7924435528694,None,588.7924435528694,None,,,,,,,,,,,,,,,,,,,,,,,,,,,,,,,,,,,sing20,001,2019_Nov_04_1054,ProdFawcett_Revision2019,3.2.4,59.970568664300515,
87,0,87,0,,,,,,,,,,,,,,,,,595.5595216769143,None,materials/readPic.jpg,author,A_silent,87,15,591.8419412825606,None,591.8419412825606,None,592.8081871617469,None,593.0584194812109,None,593.0584194812109,None,,,,,,,,,,,,,,,,,,,,,,,,,,,,,,,,,,,sing20,001,2019_Nov_04_1054,ProdFawcett_Revision2019,3.2.4,59.970568664300515,
88,0,88,0,,,,,,,,,,,,,,,,,599.8278854885721,None,materials/readPic.jpg,under,A_silent,88,343,596.101100951666,None,596.101100951666,None,597.076884679962,None,597.3318492255639,None,597.3318492255639,None,,,,,,,,,,,,,,,,,,,,,,,,,,,,,,,,,,,sing20,001,2019_Nov_04_1054,ProdFawcett_Revision2019,3.2.4,59.970568664300515,
89,0,89,0,,,,,,,,,,,,,,,,,604.0959466940258,None,materials/speakPic.jpg,prime,B_aloud,89,235,600.403166635544,None,600.403166635544,None,601.3439173974912,None,601.5955056913663,None,601.5955056913663,None,,,,,,,,,,,,,,,,,,,,,,,,,,,,,,,,,,,sing20,001,2019_Nov_04_1054,ProdFawcett_Revision2019,3.2.4,59.970568664300515,
,,,,,,,,,,,,,,,,,,,,,,,,,,,,,,,,,,,,,604.5796865086304,None,k,83.38682030228665,604.5796865086304,None,,,,,,,,,,,,,,,,,,,,,,,,,,,,,sing20,001,2019_Nov_04_1054,ProdFawcett_Revision2019,3.2.4,59.970568664300515,
,,,,,,,,,,,,,,687.9880260620848,None,space,3.5223132424871437,687.9880260620848,None,,,,,,,,,,,,,,,,,,,,,,,,,,,,,,,,,,,,,,,,,,,,,,,,,,,,sing20,001,2019_Nov_04_1054,ProdFawcett_Revision2019,3.2.4,59.970568664300515,
,,,,0,0,0,0,,,,,,,,,,,,,699.3090150525677,None,,,,,,,,,,,,,,,,,,,,,,piece,D_new,0,221,692.0592280898127,None,692.0592280898127,None,692.0592280898127,None,6,4.5393024195800535,692.0592280898127,None,696.6428640293307,None,696.6428640293307,None,697.1745403371169,None,697.1745403371169,None,697.1745403371169,None,f,2.087104870355688,697.1745403371169,None,sing20,001,2019_Nov_04_1054,ProdFawcett_Revision2019,3.2.4,59.970568664300515,
,,,,1,0,1,0,,,,,,,,,,,,,703.3090536169475,None,,,,,,,,,,,,,,,,,,,,,,impact,B_aloud,1,157,699.825391864113,None,699.825391864113,None,699.825391864113,None,1,1.7242144056363031,699.825391864113,None,701.5815226721461,None,701.5815226721461,None,702.1086549106985,None,702.1086549106985,None,702.1086549106985,None,n,1.1527660632855259,702.1086549106985,None,sing20,001,2019_Nov_04_1054,ProdFawcett_Revision2019,3.2.4,59.970568664300515,
,,,,2,0,2,0,,,,,,,,,,,,,706.7767780058202,None,,,,,,,,,,,,,,,,,,,,,,build,D_new,2,35,703.8293344529229,None,703.8293344529229,None,703.8293344529229,None,1,1.888756297819782,703.8293344529229,None,705.7765456863563,None,705.7765456863563,None,706.2931237170706,None,706.2931237170706,None,706.2931237170706,None,n,0.4409498040913604,706.2931237170706,None,sing20,001,2019_Nov_04_1054,ProdFawcett_Revision2019,3.2.4,59.970568664300515,
,,,,3,0,3,0,,,,,,,,,,,,,710.5946106238407,None,,,,,,,,,,,,,,,,,,,,,,level,C_sing,3,170,707.2937982832664,None,707.2937982832664,None,707.2937982832664,None,1,2.5758742302423343,707.2937982832664,None,709.9279041487607,None,709.9279041487607,None,710.4445938296849,None,710.4445938296849,None,710.4445938296849,None,n,0.1043891895096749,710.4445938296849,None,sing20,001,2019_Nov_04_1054,ProdFawcett_Revision2019,3.2.4,59.970568664300515,
,,,,4,0,4,0,,,,,,,,,,,,,714.396233439038,None,,,,,,,,,,,,,,,,,,,,,,cousin,D_new,4,76,711.1122047023382,None,711.1122047023382,None,711.1122047023382,None,1,1.57380636932794,711.1122047023382,None,712.7453265534714,None,712.7453265534714,None,713.2620616408531,None,713.2620616408531,None,713.2620616408531,None,n,1.0951474155881442,713.2620616408531,None,sing20,001,2019_Nov_04_1054,ProdFawcett_Revision2019,3.2.4,59.970568664300515,
,,,,5,0,5,0,,,,,,,,,,,,,721.749595073692,None,,,,,,,,,,,,,,,,,,,,,,skill,D_new,5,289,714.9056300926604,None,714.9056300926604,None,714.9056300926604,None,3,3.163747589685954,714.9056300926604,None,718.1023079554434,None,718.1023079554434,None,718.6164760216489,None,718.6164760216489,None,718.6164760216489,None,f,3.1084931890363805,718.6164760216489,None,sing20,001,2019_Nov_04_1054,ProdFawcett_Revision2019,3.2.4,59.970568664300515,
,,,,6,0,6,0,,,,,,,,,,,,,725.8526948435465,None,,,,,,,,,,,,,,,,,,,,,,education,D_new,6,108,722.2678257759544,None,722.2678257759544,None,722.2678257759544,None,1,2.1686197674134746,722.2678257759544,None,724.4719795359415,None,724.4719795359415,None,724.9848329912056,None,724.9848329912056,None,724.9848329912056,None,n,0.8357305467361584,724.9848329912056,None,sing20,001,2019_Nov_04_1054,ProdFawcett_Revision2019,3.2.4,59.970568664300515,
,,,,7,0,7,0,,,,,,,,,,,,,731.0675135286292,None,,,,,,,,,,,,,,,,,,,,,,fellow,B_aloud,7,126,726.383279840753,None,726.383279840753,None,726.383279840753,None,6,2.884700814844109,726.383279840753,None,729.3192660321947,None,729.3192660321947,None,729.8212284630281,None,729.8212284630281,None,729.8212284630281,None,r,1.206872550828848,729.8212284630281,None,sing20,001,2019_Nov_04_1054,ProdFawcett_Revision2019,3.2.4,59.970568664300515,
,,,,8,0,8,0,,,,,,,,,,,,,735.4598208621028,None,,,,,,,,,,,,,,,,,,,,,,trash,A_silent,8,337,731.584432418982,None,731.584432418982,None,731.584432418982,None,1,2.259751819365192,731.584432418982,None,733.9019764259574,None,733.9019764259574,None,734.4188586178934,None,734.4188586178934,None,734.4188586178934,None,n,1.0170268084621057,734.4188586178934,None,sing20,001,2019_Nov_04_1054,ProdFawcett_Revision2019,3.2.4,59.970568664300515,
,,,,9,0,9,0,,,,,,,,,,,,,742.8269160913187,None,,,,,,,,,,,,,,,,,,,,,,literature,D_new,9,173,735.9870121913264,None,735.9870121913264,None,735.9870121913264,None,5,4.592885488586035,735.9870121913264,None,740.6223698451067,None,740.6223698451067,None,741.1218504696153,None,741.1218504696153,None,741.1218504696153,None,f,1.6815683896420524,741.1218504696153,None,sing20,001,2019_Nov_04_1054,ProdFawcett_Revision2019,3.2.4,59.970568664300515,
,,,,10,0,10,0,,,,,,,,,,,,,751.5927707283408,None,,,,,,,,,,,,,,,,,,,,,,notice,D_new,10,201,743.3449832057813,None,743.3449832057813,None,743.3449832057813,None,6,5.218464576697443,743.3449832057813,None,748.6098973688786,None,748.6098973688786,None,749.1231905827881,None,749.1231905827881,None,749.1231905827881,None,r,2.4400370093644597,749.1231905827881,None,sing20,001,2019_Nov_04_1054,ProdFawcett_Revision2019,3.2.4,59.970568664300515,
,,,,11,0,11,0,,,,,,,,,,,,,756.0924370218418,None,,,,,,,,,,,,,,,,,,,,,,vision,A_silent,11,347,752.1083100080723,None,752.1083100080723,None,752.1083100080723,None,6,2.8070308514870703,752.1083100080723,None,754.9475828823633,None,754.9475828823633,None,755.4752562667127,None,755.4752562667127,None,755.4752562667127,None,r,0.5835861790110357,755.4752562667127,None,sing20,001,2019_Nov_04_1054,ProdFawcett_Revision2019,3.2.4,59.970568664300515,
,,,,12,0,12,0,,,,,,,,,,,,,760.5600345213315,None,,,,,,,,,,,,,,,,,,,,,,trial,D_new,12,341,756.6089879952488,None,756.6089879952488,None,756.6089879952488,None,1,2.4096687815035693,756.6089879952488,None,759.0498805746902,None,759.0498805746902,None,759.57642937114,None,759.57642937114,None,759.57642937114,None,n,0.9376668533077464,759.57642937114,None,sing20,001,2019_Nov_04_1054,ProdFawcett_Revision2019,3.2.4,59.970568664300515,
,,,,13,0,13,0,,,,,,,,,,,,,766.0951511475723,None,,,,,,,,,,,,,,,,,,,,,,sweet,A_silent,13,319,761.0779666604358,None,761.0779666604358,None,761.0779666604358,None,6,3.051763077673968,761.0779666604358,None,764.1780167319812,None,764.1780167319812,None,764.6946945947711,None,764.6946945947711,None,764.6946945947711,None,r,1.3552363624912687,764.6946945947711,None,sing20,001,2019_Nov_04_1054,ProdFawcett_Revision2019,3.2.4,59.970568664300515,
,,,,14,0,14,0,,,,,,,,,,,,,774.5362530322745,None,,,,,,,,,,,,,,,,,,,,,,express,C_sing,14,124,766.6130602724152,None,766.6130602724152,None,766.6130602724152,None,5,4.396469179540873,766.6130602724152,None,771.0361395160435,None,771.0361395160435,None,771.5633498164825,None,771.5633498164825,None,771.5633498164825,None,f,2.9503548547509126,771.5633498164825,None,sing20,001,2019_Nov_04_1054,ProdFawcett_Revision2019,3.2.4,59.970568664300515,
,,,,15,0,15,0,,,,,,,,,,,,,778.7655905952561,None,,,,,,,,,,,,,,,,,,,,,,payment,A_silent,15,215,775.0664651365369,None,775.0664651365369,None,775.0664651365369,None,1,2.215118181251455,775.0664651365369,None,777.3196619394002,None,777.3196619394002,None,777.8319736269186,None,777.8319736269186,None,777.8319736269186,None,n,0.8895176338846795,777.8319736269186,None,sing20,001,2019_Nov_04_1054,ProdFawcett_Revision2019,3.2.4,59.970568664300515,
,,,,16,0,16,0,,,,,,,,,,,,,783.8023825962446,None,,,,,,,,,,,,,,,,,,,,,,industry,D_new,16,161,779.2826522361138,None,779.2826522361138,None,779.2826522361138,None,1,2.550805498554837,779.2826522361138,None,781.8736903651152,None,781.8736903651152,None,782.4000581576256,None,782.4000581576256,None,782.4000581576256,None,n,1.3685703178634867,782.4000581576256,None,sing20,001,2019_Nov_04_1054,ProdFawcett_Revision2019,3.2.4,59.970568664300515,
,,,,17,0,17,0,,,,,,,,,,,,,790.5576198917697,None,,,,,,,,,,,,,,,,,,,,,,scale,B_aloud,17,272,784.3342153386911,None,784.3342153386911,None,784.3342153386911,None,6,3.8427853455068544,784.3342153386911,None,788.2185687628225,None,788.2185687628225,None,788.7193179697497,None,788.7193179697497,None,788.7193179697497,None,r,1.8094140697503462,788.7193179697497,None,sing20,001,2019_Nov_04_1054,ProdFawcett_Revision2019,3.2.4,59.970568664300515,
,,,,18,0,18,0,,,,,,,,,,,,,797.1213578403695,None,,,,,,,,,,,,,,,,,,,,,,reach,D_new,18,253,791.077043913654,None,791.077043913654,None,791.077043913654,None,1,4.019478136498947,791.077043913654,None,795.1249427753501,None,795.1249427753501,None,795.6397580394405,None,795.6397580394405,None,795.6397580394405,None,n,1.4485606767702848,795.6397580394405,None,sing20,001,2019_Nov_04_1054,ProdFawcett_Revision2019,3.2.4,59.970568664300515,
,,,,19,0,19,0,,,,,,,,,,,,,801.3393748833332,None,,,,,,,,,,,,,,,,,,,,,,trail,D_new,19,336,797.6380643154844,None,797.6380643154844,None,797.6380643154844,None,6,1.8658474839758128,797.6380643154844,None,799.5259398519411,None,799.5259398519411,None,800.0400068420568,None,800.0400068420568,None,800.0400068420568,None,r,1.2639680910506286,800.0400068420568,None,sing20,001,2019_Nov_04_1054,ProdFawcett_Revision2019,3.2.4,59.970568664300515,
,,,,20,0,20,0,,,,,,,,,,,,,804.3589248615899,None,,,,,,,,,,,,,,,,,,,,,,debate,B_aloud,20,87,801.8562197549036,None,801.8562197549036,None,801.8562197549036,None,6,1.5032621136051603,801.8562197549036,None,803.4066368103377,None,803.4066368103377,None,803.9234039310832,None,803.9234039310832,None,803.9234039310832,None,r,0.41200441628461704,803.9234039310832,None,sing20,001,2019_Nov_04_1054,ProdFawcett_Revision2019,3.2.4,59.970568664300515,
,,,,21,0,21,0,,,,,,,,,,,,,807.1413046587841,None,,,,,,,,,,,,,,,,,,,,,,quantity,D_new,21,245,804.8803903091466,None,804.8803903091466,None,804.8803903091466,None,1,1.2874923804192804,804.8803903091466,None,806.2241550040198,None,806.2241550040198,None,806.7409865024383,None,806.7409865024383,None,806.7409865024383,None,n,0.3706126764882356,806.7409865024383,None,sing20,001,2019_Nov_04_1054,ProdFawcett_Revision2019,3.2.4,59.970568664300515,
,,,,22,0,22,0,,,,,,,,,,,,,816.1272790321382,None,,,,,,,,,,,,,,,,,,,,,,guard,D_new,22,145,807.6435588106979,None,807.6435588106979,None,807.6435588106979,None,2,6.340311003266834,807.6435588106979,None,814.0602668407955,None,814.0602668407955,None,814.5769272873877,None,814.5769272873877,None,814.5769272873877,None,f,1.5019406605279073,814.5769272873877,None,sing20,001,2019_Nov_04_1054,ProdFawcett_Revision2019,3.2.4,59.970568664300515,
,,,,23,0,23,0,,,,,,,,,,,,,819.6949850718374,None,,,,,,,,,,,,,,,,,,,,,,frank,D_new,23,133,816.6440987124224,None,816.6440987124224,None,816.6440987124224,None,1,1.4749405984184705,816.6440987124224,None,818.1611373390188,None,818.1611373390188,None,818.6782328792615,None,818.6782328792615,None,818.6782328792615,None,n,0.9769288424868137,818.6782328792615,None,sing20,001,2019_Nov_04_1054,ProdFawcett_Revision2019,3.2.4,59.970568664300515,
,,,,24,0,24,0,,,,,,,,,,,,,826.16528207995,None,,,,,,,,,,,,,,,,,,,,,,position,D_new,24,229,820.1960620762547,None,820.1960620762547,None,820.1960620762547,None,1,4.1624948684475385,820.1960620762547,None,824.4007526279893,None,824.4007526279893,None,824.9299405983766,None,824.9299405983766,None,824.9299405983766,None,n,1.2122398457722738,824.9299405983766,None,sing20,001,2019_Nov_04_1054,ProdFawcett_Revision2019,3.2.4,59.970568664300515,
,,,,25,0,25,0,,,,,,,,,,,,,829.6481249611243,None,,,,,,,,,,,,,,,,,,,,,,household,D_new,25,154,826.6836281644646,None,826.6836281644646,None,826.6836281644646,None,1,1.858709647320211,826.6836281644646,None,828.583507184172,None,828.583507184172,None,829.0980599613977,None,829.0980599613977,None,829.0980599613977,None,n,0.5166050880216062,829.0980599613977,None,sing20,001,2019_Nov_04_1054,ProdFawcett_Revision2019,3.2.4,59.970568664300515,
,,,,26,0,26,0,,,,,,,,,,,,,832.837703862635,None,,,,,,,,,,,,,,,,,,,,,,quarter,D_new,26,246,830.1649682776188,None,830.1649682776188,None,830.1649682776188,None,1,1.5130972818587907,830.1649682776188,None,831.7321764010703,None,831.7321764010703,None,832.2488489768002,None,832.2488489768002,None,832.2488489768002,None,n,0.5576979535981081,832.2488489768002,None,sing20,001,2019_Nov_04_1054,ProdFawcett_Revision2019,3.2.4,59.970568664300515,
,,,,27,0,27,0,,,,,,,,,,,,,838.2674818062806,None,,,,,,,,,,,,,,,,,,,,,,department,D_new,27,90,833.3661942526232,None,833.3661942526232,None,833.3661942526232,None,6,2.0637028052587993,833.3661942526232,None,835.4716231261846,None,835.4716231261846,None,835.9999393543112,None,835.9999393543112,None,835.9999393543112,None,r,2.2297462213318795,835.9999393543112,None,sing20,001,2019_Nov_04_1054,ProdFawcett_Revision2019,3.2.4,59.970568664300515,
,,,,28,0,28,0,,,,,,,,,,,,,843.308653044689,None,,,,,,,,,,,,,,,,,,,,,,judge,B_aloud,28,166,838.786550040415,None,838.786550040415,None,838.786550040415,None,6,2.3395250979810953,838.786550040415,None,841.1588113454054,None,841.1588113454054,None,841.6852590657072,None,841.6852590657072,None,841.6852590657072,None,r,1.6004151894012466,841.6852590657072,None,sing20,001,2019_Nov_04_1054,ProdFawcett_Revision2019,3.2.4,59.970568664300515,
,,,,29,0,29,0,,,,,,,,,,,,,847.5869213783299,None,,,,,,,,,,,,,,,,,,,,,,command,B_aloud,29,60,843.8245857435977,None,843.8245857435977,None,843.8245857435977,None,1,1.9728444361826405,843.8245857435977,None,845.8531675685663,None,845.8531675685663,None,846.3700152391684,None,846.3700152391684,None,846.3700152391684,None,n,1.1711130808107555,846.3700152391684,None,sing20,001,2019_Nov_04_1054,ProdFawcett_Revision2019,3.2.4,59.970568664300515,
,,,,30,0,30,0,,,,,,,,,,,,,851.05493562232,None,,,,,,,,,,,,,,,,,,,,,,childhood,C_sing,30,49,848.1045633513713,None,848.1045633513713,None,848.1045633513713,None,1,1.396256142295897,848.1045633513713,None,849.5258885364165,None,849.5258885364165,None,850.0396448342362,None,850.0396448342362,None,850.0396448342362,None,n,0.98175747966161,850.0396448342362,None,sing20,001,2019_Nov_04_1054,ProdFawcett_Revision2019,3.2.4,59.970568664300515,
,,,,31,0,31,0,,,,,,,,,,,,,855.7728102257825,None,,,,,,,,,,,,,,,,,,,,,,business,C_sing,31,38,851.5744467251352,None,851.5744467251352,None,851.5744467251352,None,6,2.3025782173499465,851.5744467251352,None,853.9390358897508,None,853.9390358897508,None,854.4557392548304,None,854.4557392548304,None,854.4557392548304,None,r,1.2689488088944927,854.4557392548304,None,sing20,001,2019_Nov_04_1054,ProdFawcett_Revision2019,3.2.4,59.970568664300515,
,,,,32,0,32,0,,,,,,,,,,,,,859.3587258195039,None,,,,,,,,,,,,,,,,,,,,,,answer,D_new,32,8,856.2907171736006,None,856.2907171736006,None,856.2907171736006,None,1,1.3457324127666652,856.2907171736006,None,857.6735043851077,None,857.6735043851077,None,858.1909124836675,None,858.1909124836675,None,858.1909124836675,None,n,1.149946196412202,858.1909124836675,None,sing20,001,2019_Nov_04_1054,ProdFawcett_Revision2019,3.2.4,59.970568664300515,
,,,,33,0,33,0,,,,,,,,,,,,,870.3941394538851,None,,,,,,,,,,,,,,,,,,,,,,benefit,D_new,33,20,859.8636458916008,None,859.8636458916008,None,859.8636458916008,None,1,8.95651272003306,859.8636458916008,None,868.8662676493987,None,868.8662676493987,None,869.3938651489443,None,869.3938651489443,None,869.3938651489443,None,n,0.9622522858553566,869.3938651489443,None,sing20,001,2019_Nov_04_1054,ProdFawcett_Revision2019,3.2.4,59.970568664300515,
,,,,34,0,34,0,,,,,,,,,,,,,875.2125617341371,None,,,,,,,,,,,,,,,,,,,,,,threat,D_new,34,329,870.9108953784453,None,870.9108953784453,None,870.9108953784453,None,1,1.6847729675937444,870.9108953784453,None,872.6501144492067,None,872.6501144492067,None,873.1783212042064,None,873.1783212042064,None,873.1783212042064,None,n,2.0010941096115857,873.1783212042064,None,sing20,001,2019_Nov_04_1054,ProdFawcett_Revision2019,3.2.4,59.970568664300515,
,,,,35,0,35,0,,,,,,,,,,,,,882.0651962430566,None,,,,,,,,,,,,,,,,,,,,,,rapid,D_new,35,252,875.72905703797,None,875.72905703797,None,875.72905703797,None,3,4.794512657797895,875.72905703797,None,880.5693972755689,None,880.5693972755689,None,881.0974516389542,None,881.0974516389542,None,881.0974516389542,None,f,0.9454242084757425,881.0974516389542,None,sing20,001,2019_Nov_04_1054,ProdFawcett_Revision2019,3.2.4,59.970568664300515,
,,,,36,0,36,0,,,,,,,,,,,,,884.9224093425437,None,,,,,,,,,,,,,,,,,,,,,,running,D_new,36,268,882.5727187907905,None,882.5727187907905,None,882.5727187907905,None,1,1.1187183553702198,882.5727187907905,None,883.7382701996248,None,883.7382701996248,None,884.2649147851043,None,884.2649147851043,None,884.2649147851043,None,n,0.6340172296040691,884.2649147851043,None,sing20,001,2019_Nov_04_1054,ProdFawcett_Revision2019,3.2.4,59.970568664300515,
,,,,37,0,37,0,,,,,,,,,,,,,887.7998594265082,None,,,,,,,,,,,,,,,,,,,,,,second,A_silent,37,278,885.4487370155985,None,885.4487370155985,None,885.4487370155985,None,1,1.2908664551796392,885.4487370155985,None,886.799159980088,None,886.799159980088,None,887.3159544690861,None,887.3159544690861,None,887.3159544690861,None,n,0.4390421098214574,887.3159544690861,None,sing20,001,2019_Nov_04_1054,ProdFawcett_Revision2019,3.2.4,59.970568664300515,
,,,,38,0,38,0,,,,,,,,,,,,,892.1674886483815,None,,,,,,,,,,,,,,,,,,,,,,device,A_silent,38,93,888.3178957516793,None,888.3178957516793,None,888.3178957516793,None,1,2.7967954220366664,888.3178957516793,None,891.1554500217317,None,891.1554500217317,None,891.6673570939456,None,891.6673570939456,None,891.6673570939456,None,n,0.46318996080663055,891.6673570939456,None,sing20,001,2019_Nov_04_1054,ProdFawcett_Revision2019,3.2.4,59.970568664300515,
,,,,39,0,39,0,,,,,,,,,,,,,895.6185432605562,None,,,,,,,,,,,,,,,,,,,,,,weather,D_new,39,352,892.6847067238996,None,892.6847067238996,None,892.6847067238996,None,1,1.9584599116933532,892.6847067238996,None,894.6874466629233,None,894.6874466629233,None,895.210090812936,None,895.210090812936,None,895.210090812936,None,n,0.3686518006725237,895.210090812936,None,sing20,001,2019_Nov_04_1054,ProdFawcett_Revision2019,3.2.4,59.970568664300515,
,,,,40,0,40,0,,,,,,,,,,,,,898.5028344840393,None,,,,,,,,,,,,,,,,,,,,,,tragedy,D_new,40,335,896.1367192261969,None,896.1367192261969,None,896.1367192261969,None,1,1.2974115195684135,896.1367192261969,None,897.4691406978527,None,897.4691406978527,None,897.9860253778752,None,897.9860253778752,None,897.9860253778752,None,n,0.47280524973757565,897.9860253778752,None,sing20,001,2019_Nov_04_1054,ProdFawcett_Revision2019,3.2.4,59.970568664300515,
,,,,41,0,41,0,,,,,,,,,,,,,906.9388156994246,None,,,,,,,,,,,,,,,,,,,,,,crowd,D_new,41,81,899.0198180630687,None,899.0198180630687,None,899.0198180630687,None,3,6.446440878266003,899.0198180630687,None,905.5048578714486,None,905.5048578714486,None,906.0219282204052,None,906.0219282204052,None,906.0219282204052,None,f,0.8840389997931197,906.0219282204052,None,sing20,001,2019_Nov_04_1054,ProdFawcett_Revision2019,3.2.4,59.970568664300515,
,,,,42,0,42,0,,,,,,,,,,,,,909.8063059028354,None,,,,,,,,,,,,,,,,,,,,,,disease,D_new,42,97,907.4557249486679,None,907.4557249486679,None,907.4557249486679,None,1,1.1859255458111875,907.4557249486679,None,908.6944933756022,None,908.6944933756022,None,909.2227772594197,None,909.2227772594197,None,909.2227772594197,None,n,0.5468134601833299,909.2227772594197,None,sing20,001,2019_Nov_04_1054,ProdFawcett_Revision2019,3.2.4,59.970568664300515,
,,,,43,0,43,0,,,,,,,,,,,,,912.9072594389436,None,,,,,,,,,,,,,,,,,,,,,,addition,D_new,43,2,910.3231569944182,None,910.3231569944182,None,910.3231569944182,None,1,1.807015301368665,910.3231569944182,None,912.1786595757585,None,912.1786595757585,None,912.7070635068812,None,912.7070635068812,None,912.7070635068812,None,n,0.15891211049165577,912.7070635068812,None,sing20,001,2019_Nov_04_1054,ProdFawcett_Revision2019,3.2.4,59.970568664300515,
,,,,44,0,44,0,,,,,,,,,,,,,921.1931747216149,None,,,,,,,,,,,,,,,,,,,,,,color,B_aloud,44,56,913.4254158113617,None,913.4254158113617,None,913.4254158113617,None,5,6.192385084286798,913.4254158113617,None,919.6759712632629,None,919.6759712632629,None,920.1928823785274,None,920.1928823785274,None,920.1928823785274,None,f,0.9602755489759147,920.1928823785274,None,sing20,001,2019_Nov_04_1054,ProdFawcett_Revision2019,3.2.4,59.970568664300515,
,,,,45,0,45,0,,,,,,,,,,,,,925.6444321079762,None,,,,,,,,,,,,,,,,,,,,,,election,A_silent,45,109,921.7103458356578,None,921.7103458356578,None,921.7103458356578,None,1,2.514579212584067,921.7103458356578,None,924.2653156683082,None,924.2653156683082,None,924.794146917935,None,924.794146917935,None,924.794146917935,None,n,0.8072967593325302,924.794146917935,None,sing20,001,2019_Nov_04_1054,ProdFawcett_Revision2019,3.2.4,59.970568664300515,
,,,,46,0,46,0,,,,,,,,,,,,,931.6797689245432,None,,,,,,,,,,,,,,,,,,,,,,curve,C_sing,46,82,926.1614191080444,None,926.1614191080444,None,926.1614191080444,None,1,4.534696771821473,926.1614191080444,None,930.7194703613641,None,930.7194703613641,None,931.2461749704089,None,931.2461749704089,None,931.2461749704089,None,n,0.3860176028101705,931.2461749704089,None,sing20,001,2019_Nov_04_1054,ProdFawcett_Revision2019,3.2.4,59.970568664300515,
,,,,47,0,47,0,,,,,,,,,,,,,936.0977906325716,None,,,,,,,,,,,,,,,,,,,,,,patient,C_sing,47,213,932.1977181687835,None,932.1977181687835,None,932.1977181687835,None,6,1.7702988741802983,932.1977181687835,None,934.0198886608123,None,934.0198886608123,None,934.5472364246962,None,934.5472364246962,None,934.5472364246962,None,r,1.5170591528294608,934.5472364246962,None,sing20,001,2019_Nov_04_1054,ProdFawcett_Revision2019,3.2.4,59.970568664300515,
,,,,48,0,48,0,,,,,,,,,,,,,942.0828279529815,None,,,,,,,,,,,,,,,,,,,,,,empty,A_silent,48,112,936.6147129439632,None,936.6147129439632,None,936.6147129439632,None,5,3.937287429231219,936.6147129439632,None,940.5990816072444,None,940.5990816072444,None,941.1158882253803,None,941.1158882253803,None,941.1158882253803,None,f,0.9245820115320385,941.1158882253803,None,sing20,001,2019_Nov_04_1054,ProdFawcett_Revision2019,3.2.4,59.970568664300515,
,,,,49,0,49,0,,,,,,,,,,,,,946.8020812340546,None,,,,,,,,,,,,,,,,,,,,,,accident,C_sing,49,0,942.5997070348822,None,942.5997070348822,None,942.5997070348822,None,6,3.2557855943450704,942.5997070348822,None,945.9064296821598,None,945.9064296821598,None,946.4343954095966,None,946.4343954095966,None,946.4343954095966,None,r,0.34120016172528267,946.4343954095966,None,sing20,001,2019_Nov_04_1054,ProdFawcett_Revision2019,3.2.4,59.970568664300515,
,,,,50,0,50,0,,,,,,,,,,,,,950.6854916961747,None,,,,,,,,,,,,,,,,,,,,,,block,D_new,50,25,947.3181246501044,None,947.3181246501044,None,947.3181246501044,None,1,2.3130636935238726,947.3181246501044,None,949.6685379734845,None,949.6685379734845,None,950.1853788020089,None,950.1853788020089,None,950.1853788020089,None,n,0.45369596319505945,950.1853788020089,None,sing20,001,2019_Nov_04_1054,ProdFawcett_Revision2019,3.2.4,59.970568664300515,
,,,,51,0,51,0,,,,,,,,,,,,,956.2372115444159,None,,,,,,,,,,,,,,,,,,,,,,dream,B_aloud,51,104,951.2023822852061,None,951.2023822852061,None,951.2023822852061,None,6,3.3569695838959888,951.2023822852061,None,954.6051197362249,None,954.6051197362249,None,955.1202898550546,None,955.1202898550546,None,955.1202898550546,None,r,1.0704696149332449,955.1202898550546,None,sing20,001,2019_Nov_04_1054,ProdFawcett_Revision2019,3.2.4,59.970568664300515,
,,,,52,0,52,0,,,,,,,,,,,,,959.3549993779743,None,,,,,,,,,,,,,,,,,,,,,,fashion,B_aloud,52,125,956.7557983454317,None,956.7557983454317,None,956.7557983454317,None,1,1.5868193692876957,956.7557983454317,None,958.4046494992799,None,958.4046494992799,None,958.9216641786043,None,958.9216641786043,None,958.9216641786043,None,n,0.3969101822003722,958.9216641786043,None,sing20,001,2019_Nov_04_1054,ProdFawcett_Revision2019,3.2.4,59.970568664300515,
,,,,53,0,53,0,,,,,,,,,,,,,963.2395530882641,None,,,,,,,,,,,,,,,,,,,,,,scene,C_sing,53,273,959.8716934129479,None,959.8716934129479,None,959.8716934129479,None,6,1.9112154009053484,959.8716934129479,None,961.829074143141,None,961.829074143141,None,962.3558008334949,None,962.3558008334949,None,962.3558008334949,None,r,0.850837220903486,962.3558008334949,None,sing20,001,2019_Nov_04_1054,ProdFawcett_Revision2019,3.2.4,59.970568664300515,
,,,,54,0,54,0,,,,,,,,,,,,,969.8084474715288,None,,,,,,,,,,,,,,,,,,,,,,growth,C_sing,54,144,963.7564872177318,None,963.7564872177318,None,963.7564872177318,None,5,4.513435653410852,963.7564872177318,None,968.3075688871904,None,968.3075688871904,None,968.810538035701,None,968.810538035701,None,968.810538035701,None,f,0.956336381204892,968.810538035701,None,sing20,001,2019_Nov_04_1054,ProdFawcett_Revision2019,3.2.4,59.970568664300515,
,,,,55,0,55,0,,,,,,,,,,,,,973.026121788891,None,,,,,,,,,,,,,,,,,,,,,,edition,A_silent,55,107,970.3249178951373,None,970.3249178951373,None,970.3249178951373,None,1,1.833412017149385,970.3249178951373,None,972.2089155314607,None,972.2089155314607,None,972.7258291347534,None,972.7258291347534,None,972.7258291347534,None,n,0.2648084219545126,972.7258291347534,None,sing20,001,2019_Nov_04_1054,ProdFawcett_Revision2019,3.2.4,59.970568664300515,
,,,,56,0,56,0,,,,,,,,,,,,,975.9828058716957,None,,,,,,,,,,,,,,,,,,,,,,minor,D_new,56,191,973.5432807737379,None,973.5432807737379,None,973.5432807737379,None,1,1.502378553210292,973.5432807737379,None,975.0970516887028,None,975.0970516887028,None,975.6100027990178,None,975.6100027990178,None,975.6100027990178,None,n,0.34773465199396014,975.6100027990178,None,sing20,001,2019_Nov_04_1054,ProdFawcett_Revision2019,3.2.4,59.970568664300515,
,,,,57,0,57,0,,,,,,,,,,,,,978.6442063195864,None,,,,,,,,,,,,,,,,,,,,,,couch,D_new,57,70,976.4974681221647,None,976.4974681221647,None,976.4974681221647,None,1,1.4049409093568102,976.4974681221647,None,977.9483834048733,None,977.9483834048733,None,978.4608064315398,None,978.4608064315398,None,978.4608064315398,None,n,0.1366579586174339,978.4608064315398,None,sing20,001,2019_Nov_04_1054,ProdFawcett_Revision2019,3.2.4,59.970568664300515,
,,,,58,0,58,0,,,,,,,,,,,,,981.845329974487,None,,,,,,,,,,,,,,,,,,,,,,dispute,D_new,58,99,979.1610850904835,None,979.1610850904835,None,979.1610850904835,None,1,1.9568588667316362,979.1610850904835,None,981.1488234745339,None,981.1488234745339,None,981.6784334763652,None,981.6784334763652,None,981.6784334763652,None,n,0.1273126205196604,981.6784334763652,None,sing20,001,2019_Nov_04_1054,ProdFawcett_Revision2019,3.2.4,59.970568664300515,
,,,,59,0,59,0,,,,,,,,,,,,,985.5797396902344,None,,,,,,,,,,,,,,,,,,,,,,speech,D_new,59,298,982.3640159855713,None,982.3640159855713,None,982.3640159855713,None,6,1.5930207750061527,982.3640159855713,None,983.9834001990384,None,983.9834001990384,None,984.4977704173652,None,984.4977704173652,None,984.4977704173652,None,r,1.0352979411836714,984.4977704173652,None,sing20,001,2019_Nov_04_1054,ProdFawcett_Revision2019,3.2.4,59.970568664300515,
,,,,60,0,60,0,,,,,,,,,,,,,991.9649633016088,None,,,,,,,,,,,,,,,,,,,,,,research,A_silent,60,261,986.0974475959083,None,986.0974475959083,None,986.0974475959083,None,1,5.10837096470641,986.0974475959083,None,991.2533591465908,None,991.2533591465908,None,991.7709703302826,None,991.7709703302826,None,991.7709703302826,None,n,0.14572432672139257,991.7709703302826,None,sing20,001,2019_Nov_04_1054,ProdFawcett_Revision2019,3.2.4,59.970568664300515,
,,,,61,0,61,0,,,,,,,,,,,,,995.466173104418,None,,,,,,,,,,,,,,,,,,,,,,group,D_new,61,143,992.4825592461275,None,992.4825592461275,None,992.4825592461275,None,1,1.9782817068044096,992.4825592461275,None,994.4995123468107,None,994.4995123468107,None,995.0163485102821,None,995.0163485102821,None,995.0163485102821,None,n,0.4121875971904956,995.0163485102821,None,sing20,001,2019_Nov_04_1054,ProdFawcett_Revision2019,3.2.4,59.970568664300515,
,,,,62,0,62,0,,,,,,,,,,,,,1001.3845229209401,None,,,,,,,,,,,,,,,,,,,,,,background,B_aloud,62,16,995.9844899546006,None,995.9844899546006,None,995.9844899546006,None,6,3.524655408342369,995.9844899546006,None,999.5675530260196,None,999.5675530260196,None,1000.084318902751,None,1000.084318902751,None,1000.084318902751,None,r,1.256606332026422,1000.084318902751,None,sing20,001,2019_Nov_04_1054,ProdFawcett_Revision2019,3.2.4,59.970568664300515,
,,,,63,0,63,0,,,,,,,,,,,,,1006.0861021956662,None,,,,,,,,,,,,,,,,,,,,,,finish,D_new,63,130,1001.9014458542806,None,1001.9014458542806,None,1001.9014458542806,None,1,3.406987000082154,1001.9014458542806,None,1005.3592224917375,None,1005.3592224917375,None,1005.8748849287513,None,1005.8748849287513,None,1005.8748849287513,None,n,0.16972662811167538,1005.8748849287513,None,sing20,001,2019_Nov_04_1054,ProdFawcett_Revision2019,3.2.4,59.970568664300515,
,,,,64,0,64,0,,,,,,,,,,,,,1008.9536937861121,None,,,,,,,,,,,,,,,,,,,,,,atmosphere,B_aloud,64,12,1006.6028058717493,None,1006.6028058717493,None,1006.6028058717493,None,1,1.5131143869948573,1006.6028058717493,None,1008.1551094731549,None,1008.1551094731549,None,1008.6702652858221,None,1008.6702652858221,None,1008.6702652858221,None,n,0.23744261992396787,1008.6702652858221,None,sing20,001,2019_Nov_04_1054,ProdFawcett_Revision2019,3.2.4,59.970568664300515,
,,,,65,0,65,0,,,,,,,,,,,,,1013.2745568202808,None,,,,,,,,,,,,,,,,,,,,,,weight,B_aloud,65,353,1009.470488586172,None,1009.470488586172,None,1009.470488586172,None,1,1.7739615599857643,1009.470488586172,None,1011.2928117807605,None,1011.2928117807605,None,1011.8210695403395,None,1011.8210695403395,None,1011.8210695403395,None,n,1.430221745336894,1011.8210695403395,None,sing20,001,2019_Nov_04_1054,ProdFawcett_Revision2019,3.2.4,59.970568664300515,
,,,,66,0,66,0,,,,,,,,,,,,,1016.9061432480812,None,,,,,,,,,,,,,,,,,,,,,,trend,C_sing,66,340,1013.7903106922749,None,1013.7903106922749,None,1013.7903106922749,None,6,1.485033899312839,1013.7903106922749,None,1015.3223483858746,None,1015.3223483858746,None,1015.8390458418871,None,1015.8390458418871,None,1015.8390458418871,None,r,1.0284480935661122,1015.8390458418871,None,sing20,001,2019_Nov_04_1054,ProdFawcett_Revision2019,3.2.4,59.970568664300515,
,,,,67,0,67,0,,,,,,,,,,,,,1023.4914371462073,None,,,,,,,,,,,,,,,,,,,,,,count,D_new,67,72,1017.4229775455315,None,1017.4229775455315,None,1017.4229775455315,None,4,4.268199601909146,1017.4229775455315,None,1021.7281852957676,None,1021.7281852957676,None,1022.2577943645883,None,1022.2577943645883,None,1022.2577943645883,None,f,1.1851480375626124,1022.2577943645883,None,sing20,001,2019_Nov_04_1054,ProdFawcett_Revision2019,3.2.4,59.970568664300515,
,,,,68,0,68,0,,,,,,,,,,,,,1026.7293229458155,None,,,,,,,,,,,,,,,,,,,,,,distance,C_sing,68,100,1024.008142377308,None,1024.008142377308,None,1024.008142377308,None,6,1.4432876158389263,1024.008142377308,None,1025.4965469304007,None,1025.4965469304007,None,1026.008819431474,None,1026.008819431474,None,1026.008819431474,None,r,0.6979940287419595,1026.008819431474,None,sing20,001,2019_Nov_04_1054,ProdFawcett_Revision2019,3.2.4,59.970568664300515,
,,,,69,0,69,0,,,,,,,,,,,,,1030.7604624619125,None,,,,,,,,,,,,,,,,,,,,,,murder,C_sing,69,195,1027.259953660483,None,1027.259953660483,None,1027.259953660483,None,6,1.3828864216338843,1027.259953660483,None,1028.6930294830818,None,1028.6930294830818,None,1029.2015677675954,None,1029.2015677675954,None,1029.2015677675954,None,r,1.5209466940141283,1029.2015677675954,None,sing20,001,2019_Nov_04_1054,ProdFawcett_Revision2019,3.2.4,59.970568664300515,
,,,,70,0,70,0,,,,,,,,,,,,,1038.7796243079938,None,,,,,,,,,,,,,,,,,,,,,,congress,C_sing,70,67,1031.2784661317128,None,1031.2784661317128,None,1031.2784661317128,None,1,6.076000808621757,1031.2784661317128,None,1037.4011886545923,None,1037.4011886545923,None,1037.91268831247,None,1037.91268831247,None,1037.91268831247,None,n,0.8337115133181214,1037.91268831247,None,sing20,001,2019_Nov_04_1054,ProdFawcett_Revision2019,3.2.4,59.970568664300515,
,,,,71,0,71,0,,,,,,,,,,,,,1041.8971347266342,None,,,,,,,,,,,,,,,,,,,,,,citizen,D_new,71,50,1039.2865064999787,None,1039.2865064999787,None,1039.2865064999787,None,1,1.8521994153270498,1039.2865064999787,None,1041.1969387945137,None,1041.1969387945137,None,1041.7138032593066,None,1041.7138032593066,None,1041.7138032593066,None,n,0.14433974004350603,1041.7138032593066,None,sing20,001,2019_Nov_04_1054,ProdFawcett_Revision2019,3.2.4,59.970568664300515,
,,,,72,0,72,0,,,,,,,,,,,,,1044.5832757977187,None,,,,,,,,,,,,,,,,,,,,,,staff,A_silent,72,301,1042.414901100914,None,1042.414901100914,None,1042.414901100914,None,1,1.5068868569796905,1042.414901100914,None,1043.9527371400036,None,1043.9527371400036,None,1044.4716330782976,None,1044.4716330782976,None,1044.4716330782976,None,n,0.090032966400031,1044.4716330782976,None,sing20,001,2019_Nov_04_1054,ProdFawcett_Revision2019,3.2.4,59.970568664300515,
,,,,73,0,73,0,,,,,,,,,,,,,1050.2665117870201,None,,,,,,,,,,,,,,,,,,,,,,passage,B_aloud,73,212,1045.1150233252556,None,1045.1150233252556,None,1045.1150233252556,None,1,4.2384816819103435,1045.1150233252556,None,1049.3996952167363,None,1049.3996952167363,None,1049.9164418112487,None,1049.9164418112487,None,1049.9164418112487,None,n,0.31718231010017917,1049.9164418112487,None,sing20,001,2019_Nov_04_1054,ProdFawcett_Revision2019,3.2.4,59.970568664300515,
,,,,74,0,74,0,,,,,,,,,,,,,1054.45106829633,None,,,,,,,,,,,,,,,,,,,,,,incident,A_silent,74,158,1050.7834686197457,None,1050.7834686197457,None,1050.7834686197457,None,6,2.297835417033639,1050.7834686197457,None,1053.1212776015163,None,1053.1212776015163,None,1053.6340887603,None,1053.6340887603,None,1053.6340887603,None,f,0.7758313118247315,1053.6340887603,None,sing20,001,2019_Nov_04_1054,ProdFawcett_Revision2019,3.2.4,59.970568664300515,
,,,,75,0,75,0,,,,,,,,,,,,,1060.5695334950578,None,,,,,,,,,,,,,,,,,,,,,,alert,D_new,75,6,1054.9680105118896,None,1054.9680105118896,None,1054.9680105118896,None,6,3.0014156870311126,1054.9680105118896,None,1058.018764383858,None,1058.018764383858,None,1058.5357047334546,None,1058.5357047334546,None,1058.5357047334546,None,f,2.001089755562134,1058.5357047334546,None,sing20,001,2019_Nov_04_1054,ProdFawcett_Revision2019,3.2.4,59.970568664300515,
,,,,76,0,76,0,,,,,,,,,,,,,1063.3371745350305,None,,,,,,,,,,,,,,,,,,,,,,strain,B_aloud,76,308,1061.0863960937713,None,1061.0863960937713,None,1061.0863960937713,None,1,1.5065960689098574,1061.0863960937713,None,1062.6535886670463,None,1062.6535886670463,None,1063.1704780120635,None,1063.1704780120635,None,1063.1704780120635,None,n,0.11794053617632017,1063.1704780120635,None,sing20,001,2019_Nov_04_1054,ProdFawcett_Revision2019,3.2.4,59.970568664300515,
,,,,77,0,77,0,,,,,,,,,,,,,1066.3214365242166,None,,,,,,,,,,,,,,,,,,,,,,present,B_aloud,77,231,1063.8557467188803,None,1063.8557467188803,None,1063.8557467188803,None,6,1.5056394227431156,1063.8557467188803,None,1065.4210614542244,None,1065.4210614542244,None,1065.9378630963038,None,1065.9378630963038,None,1065.9378630963038,None,r,0.34280680475058034,1065.9378630963038,None,sing20,001,2019_Nov_04_1054,ProdFawcett_Revision2019,3.2.4,59.970568664300515,
,,,,78,0,78,0,,,,,,,,,,,,,1069.272217142512,None,,,,,,,,,,,,,,,,,,,,,,music,A_silent,78,196,1066.8387662498862,None,1066.8387662498862,None,1066.8387662498862,None,6,1.6576593891950324,1066.8387662498862,None,1068.538608882227,None,1068.538608882227,None,1069.0555371026858,None,1069.0555371026858,None,1069.0555371026858,None,r,0.17711420042905957,1069.0555371026858,None,sing20,001,2019_Nov_04_1054,ProdFawcett_Revision2019,3.2.4,59.970568664300515,
,,,,79,0,79,0,,,,,,,,,,,,,1076.4745621073525,None,,,,,,,,,,,,,,,,,,,,,,substance,C_sing,79,313,1069.7890722771408,None,1069.7890722771408,None,1069.7890722771408,None,3,4.88314175530104,1069.7890722771408,None,1074.7096877526492,None,1074.7096877526492,None,1075.241323319031,None,1075.241323319031,None,1075.241323319031,None,f,1.198909622442443,1075.241323319031,None,sing20,001,2019_Nov_04_1054,ProdFawcett_Revision2019,3.2.4,59.970568664300515,
,,,,80,0,80,0,,,,,,,,,,,,,1079.2754574858118,None,,,,,,,,,,,,,,,,,,,,,,session,B_aloud,80,281,1076.9924220936373,None,1076.9924220936373,None,1076.9924220936373,None,6,1.4953156683477573,1076.9924220936373,None,1078.530313180294,None,1078.530313180294,None,1079.0586978291976,None,1079.0586978291976,None,1079.0586978291976,None,r,0.18118896562373266,1079.0586978291976,None,sing20,001,2019_Nov_04_1054,ProdFawcett_Revision2019,3.2.4,59.970568664300515,
,,,,81,0,81,0,,,,,,,,,,,,,1086.5443005535635,None,,,,,,,,,,,,,,,,,,,,,,measure,D_new,81,184,1079.7924656341202,None,1079.7924656341202,None,1079.7924656341202,None,5,5.286746594472788,1079.7924656341202,None,1085.1201881569577,None,1085.1201881569577,None,1085.6441207936732,None,1085.6441207936732,None,1085.6441207936732,None,f,0.8511559992912225,1085.6441207936732,None,sing20,001,2019_Nov_04_1054,ProdFawcett_Revision2019,3.2.4,59.970568664300515,
,,,,82,0,82,0,,,,,,,,,,,,,1092.879613422905,None,,,,,,,,,,,,,,,,,,,,,,broad,D_new,82,31,1087.0610347079346,None,1087.0610347079346,None,1087.0610347079346,None,1,4.921739441459067,1087.0610347079346,None,1092.0295549542643,None,1092.0295549542643,None,1092.5461787024979,None,1092.5461787024979,None,1092.5461787024979,None,n,0.2847406232613139,1092.5461787024979,None,sing20,001,2019_Nov_04_1054,ProdFawcett_Revision2019,3.2.4,59.970568664300515,
,,,,83,0,83,0,,,,,,,,,,,,,1095.7805887292488,None,,,,,,,,,,,,,,,,,,,,,,science,D_new,83,275,1093.3964296821505,None,1093.3964296821505,None,1093.3964296821505,None,1,1.5304400696768425,1093.3964296821505,None,1094.9694115817547,None,1094.9694115817547,None,1095.4971530758194,None,1095.4971530758194,None,1095.4971530758194,None,n,0.2374917584238574,1095.4971530758194,None,sing20,001,2019_Nov_04_1054,ProdFawcett_Revision2019,3.2.4,59.970568664300515,
,,,,84,0,84,0,,,,,,,,,,,,,1099.7483501274837,None,,,,,,,,,,,,,,,,,,,,,,question,A_silent,84,247,1096.301098774653,None,1096.301098774653,None,1096.301098774653,None,6,1.577799340710044,1096.301098774653,None,1097.9201234682696,None,1097.9201234682696,None,1098.4328040056862,None,1098.4328040056862,None,1098.4328040056862,None,f,1.2777097717043944,1098.4328040056862,None,sing20,001,2019_Nov_04_1054,ProdFawcett_Revision2019,3.2.4,59.970568664300515,
,,,,85,0,85,0,,,,,,,,,,,,,1102.4824989114422,None,,,,,,,,,,,,,,,,,,,,,,still,D_new,85,304,1100.2653315294883,None,1100.2653315294883,None,1100.2653315294883,None,1,1.4774491509306245,1100.2653315294883,None,1101.7990075884736,None,1101.7990075884736,None,1102.3159339429112,None,1102.3159339429112,None,1102.3159339429112,None,n,0.12282670894637704,1102.3159339429112,None,sing20,001,2019_Nov_04_1054,ProdFawcett_Revision2019,3.2.4,59.970568664300515,
,,,,86,0,86,0,,,,,,,,,,,,,1106.167004416231,None,,,,,,,,,,,,,,,,,,,,,,portion,A_silent,86,228,1103.0012486781925,None,1103.0012486781925,None,1103.0012486781925,None,1,2.4449695216608234,1103.0012486781925,None,1105.489965167595,None,1105.489965167595,None,1106.0041357218288,None,1106.0041357218288,None,1106.0041357218288,None,n,0.1301387075218372,1106.0041357218288,None,sing20,001,2019_Nov_04_1054,ProdFawcett_Revision2019,3.2.4,59.970568664300515,
,,,,87,0,87,0,,,,,,,,,,,,,1110.735058468592,None,,,,,,,,,,,,,,,,,,,,,,brief,C_sing,87,28,1106.683870746987,None,1106.683870746987,None,1106.683870746987,None,6,3.2178139578318223,1106.683870746987,None,1109.9227035516524,None,1109.9227035516524,None,1110.4517596566584,None,1110.4517596566584,None,1110.4517596566584,None,f,0.24257697333814576,1110.4517596566584,None,sing20,001,2019_Nov_04_1054,ProdFawcett_Revision2019,3.2.4,59.970568664300515,
,,,,88,0,88,0,,,,,,,,,,,,,1114.453010200872,None,,,,,,,,,,,,,,,,,,,,,,sight,D_new,88,286,1111.252016856335,None,1111.252016856335,None,1111.252016856335,None,6,2.1938785220845602,1111.252016856335,None,1113.4859047085629,None,1113.4859047085629,None,1113.9918069291161,None,1113.9918069291161,None,1113.9918069291161,None,f,0.41379330720519647,1113.9918069291161,None,sing20,001,2019_Nov_04_1054,ProdFawcett_Revision2019,3.2.4,59.970568664300515,
,,,,89,0,89,0,,,,,,,,,,,,,1118.0041400758782,None,,,,,,,,,,,,,,,,,,,,,,month,D_new,89,193,1114.9699965789332,None,1114.9699965789332,None,1114.9699965789332,None,1,1.595462461875286,1114.9699965789332,None,1116.6036247434095,None,1116.6036247434095,None,1117.1203822230455,None,1117.1203822230455,None,1117.1203822230455,None,n,0.8369991292129271,1117.1203822230455,None,sing20,001,2019_Nov_04_1054,ProdFawcett_Revision2019,3.2.4,59.970568664300515,
,,,,90,0,90,0,,,,,,,,,,,,,1121.0552086831885,None,,,,,,,,,,,,,,,,,,,,,,military,D_new,90,190,1118.5214349692105,None,1118.5214349692105,None,1118.5214349692105,None,1,1.8359323879121803,1118.5214349692105,None,1120.421513653011,None,1120.421513653011,None,1120.9385152702453,None,1120.9385152702453,None,1120.9385152702453,None,n,0.07557100208941847,1120.9385152702453,None,sing20,001,2019_Nov_04_1054,ProdFawcett_Revision2019,3.2.4,59.970568664300515,
,,,,91,0,91,0,,,,,,,,,,,,,1132.2084390744567,None,,,,,,,,,,,,,,,,,,,,,,force,D_new,91,131,1121.5718355414574,None,1121.5718355414574,None,1121.5718355414574,None,3,9.064882440725341,1121.5718355414574,None,1130.6810882005375,None,1130.6810882005375,None,1131.2082478074008,None,1131.2082478074008,None,1131.2082478074008,None,f,0.9570827891002409,1131.2082478074008,None,sing20,001,2019_Nov_04_1054,ProdFawcett_Revision2019,3.2.4,59.970568664300515,
,,,,92,0,92,0,,,,,,,,,,,,,1139.4939637369826,None,,,,,,,,,,,,,,,,,,,,,,minute,C_sing,92,192,1132.7254002612317,None,1132.7254002612317,None,1132.7254002612317,None,4,5.327479007304646,1132.7254002612317,None,1138.0937998382724,None,1138.0937998382724,None,1138.6106786091696,None,1138.6106786091696,None,1138.6106786091696,None,f,0.8423197736265138,1138.6106786091696,None,sing20,001,2019_Nov_04_1054,ProdFawcett_Revision2019,3.2.4,59.970568664300515,
,,,,93,0,93,0,,,,,,,,,,,,,1143.0451595446793,None,,,,,,,,,,,,,,,,,,,,,,pattern,D_new,93,214,1140.0108182496624,None,1140.0108182496624,None,1140.0108182496624,None,1,2.0813332711695693,1140.0108182496624,None,1142.1448121540016,None,1142.1448121540016,None,1142.6617518815328,None,1142.6617518815328,None,1142.6617518815328,None,n,0.35037289292085916,1142.6617518815328,None,sing20,001,2019_Nov_04_1054,ProdFawcett_Revision2019,3.2.4,59.970568664300515,
,,,,94,0,94,0,,,,,,,,,,,,,1149.096983889991,None,,,,,,,,,,,,,,,,,,,,,,community,A_silent,94,63,1143.5620492007001,None,1143.5620492007001,None,1143.5620492007001,None,1,2.5857666231459007,1143.5620492007001,None,1146.1960462150746,None,1146.1960462150746,None,1146.713233501243,None,1146.713233501243,None,1146.713233501243,None,r,2.3463286060723476,1146.713233501243,None,sing20,001,2019_Nov_04_1054,ProdFawcett_Revision2019,3.2.4,59.970568664300515,
,,,,95,0,95,0,,,,,,,,,,,,,1155.5033476394601,None,,,,,,,,,,,,,,,,,,,,,,equipment,B_aloud,95,116,1149.6154972942313,None,1149.6154972942313,None,1149.6154972942313,None,1,4.724653231329285,1149.6154972942313,None,1154.3987339055748,None,1154.3987339055748,None,1154.9067214032402,None,1154.9067214032402,None,1154.9067214032402,None,n,0.568896560347639,1154.9067214032402,None,sing20,001,2019_Nov_04_1054,ProdFawcett_Revision2019,3.2.4,59.970568664300515,
,,,,96,0,96,0,,,,,,,,,,,,,1160.083728929516,None,,,,,,,,,,,,,,,,,,,,,,contract,D_new,96,68,1156.0208428188926,None,1156.0208428188926,None,1156.0208428188926,None,6,1.7191705541918054,1156.0208428188926,None,1157.7896964607644,None,1157.7896964607644,None,1158.2997987808776,None,1158.2997987808776,None,1158.2997987808776,None,r,1.743513404217083,1158.2997987808776,None,sing20,001,2019_Nov_04_1054,ProdFawcett_Revision2019,3.2.4,59.970568664300515,
,,,,97,0,97,0,,,,,,,,,,,,,1164.701921689324,None,,,,,,,,,,,,,,,,,,,,,,signal,D_new,97,287,1160.6006120544625,None,1160.6006120544625,None,1160.6006120544625,None,1,3.4266284132609144,1160.6006120544625,None,1164.0733386203647,None,1164.0733386203647,None,1164.6017419294221,None,1164.6017419294221,None,1164.6017419294221,None,n,0.05774491507327184,1164.6017419294221,None,sing20,001,2019_Nov_04_1054,ProdFawcett_Revision2019,3.2.4,59.970568664300515,
,,,,98,0,98,0,,,,,,,,,,,,,1169.403284816828,None,,,,,,,,,,,,,,,,,,,,,,cover,D_new,98,77,1165.218762828852,None,1165.218762828852,None,1165.218762828852,None,1,3.3678870435687713,1165.218762828852,None,1168.619981650787,None,1168.619981650787,None,1169.1364906387753,None,1169.1364906387753,None,1169.1364906387753,None,n,0.21789544069906697,1169.1364906387753,None,sing20,001,2019_Nov_04_1054,ProdFawcett_Revision2019,3.2.4,59.970568664300515,
,,,,99,0,99,0,,,,,,,,,,,,,1172.554352180101,None,,,,,,,,,,,,,,,,,,,,,,break,D_new,99,26,1169.920447844721,None,1169.920447844721,None,1169.920447844721,None,6,1.4979747465695255,1169.920447844721,None,1171.4708375318442,None,1171.4708375318442,None,1171.987370778108,None,1171.987370778108,None,1171.987370778108,None,r,0.5272398457163945,1171.987370778108,None,sing20,001,2019_Nov_04_1054,ProdFawcett_Revision2019,3.2.4,59.970568664300515,
,,,,100,0,100,0,,,,,,,,,,,,,1182.8575415189262,None,,,,,,,,,,,,,,,,,,,,,,expansion,B_aloud,100,123,1173.0561796354596,None,1173.0561796354596,None,1173.0561796354596,None,3,8.321532002242748,1173.0561796354596,None,1181.4404357156018,None,1181.4404357156018,None,1181.9573704671348,None,1181.9573704671348,None,1181.9573704671348,None,f,0.8606770541518927,1181.9573704671348,None,sing20,001,2019_Nov_04_1054,ProdFawcett_Revision2019,3.2.4,59.970568664300515,
,,,,101,0,101,0,,,,,,,,,,,,,1186.258622877358,None,,,,,,,,,,,,,,,,,,,,,,bright,D_new,101,29,1183.374382036447,None,1183.374382036447,None,1183.374382036447,None,6,1.9791624681092799,1183.374382036447,None,1185.3976814703783,None,1185.3976814703783,None,1185.9251576786628,None,1185.9251576786628,None,1185.9251576786628,None,r,0.29253778693964705,1185.9251576786628,None,sing20,001,2019_Nov_04_1054,ProdFawcett_Revision2019,3.2.4,59.970568664300515,
,,,,102,0,102,0,,,,,,,,,,,,,1189.092874914466,None,,,,,,,,,,,,,,,,,,,,,,people,D_new,102,216,1186.7754307395662,None,1186.7754307395662,None,1186.7754307395662,None,1,1.585873919306323,1186.7754307395662,None,1188.4093142377096,None,1188.4093142377096,None,1188.9260577221867,None,1188.9260577221867,None,1188.9260577221867,None,n,0.13135162030812353,1188.9260577221867,None,sing20,001,2019_Nov_04_1054,ProdFawcett_Revision2019,3.2.4,59.970568664300515,
,,,,103,0,103,0,,,,,,,,,,,,,1192.0769431485678,None,,,,,,,,,,,,,,,,,,,,,,series,C_sing,103,279,1189.6096012937487,None,1189.6096012937487,None,1189.6096012937487,None,6,1.5516193941584788,1189.6096012937487,None,1191.2167030540295,None,1191.2167030540295,None,1191.7436346955365,None,1191.7436346955365,None,1191.7436346955365,None,r,0.2900836598710157,1191.7436346955365,None,sing20,001,2019_Nov_04_1054,ProdFawcett_Revision2019,3.2.4,59.970568664300515,
,,,,104,0,104,0,,,,,,,,,,,,,1195.1780133109423,None,,,,,,,,,,,,,,,,,,,,,,tennis,A_silent,104,323,1192.5949122970342,None,1192.5949122970342,None,1192.5949122970342,None,1,1.8142949555185623,1192.5949122970342,None,1194.4611021956662,None,1194.4611021956662,None,1194.9778263979242,None,1194.9778263979242,None,1194.9778263979242,None,n,0.15115413320017979,1194.9778263979242,None,sing20,001,2019_Nov_04_1054,ProdFawcett_Revision2019,3.2.4,59.970568664300515,
,,,,105,0,105,0,,,,,,,,,,,,,1198.2621773340506,None,,,,,,,,,,,,,,,,,,,,,,century,C_sing,105,45,1195.694763637497,None,1195.694763637497,None,1195.694763637497,None,1,1.8748050009598956,1195.694763637497,None,1197.6189715120709,None,1197.6189715120709,None,1198.1454046152649,None,1198.1454046152649,None,1198.1454046152649,None,n,0.0713258070172742,1198.1454046152649,None,sing20,001,2019_Nov_04_1054,ProdFawcett_Revision2019,3.2.4,59.970568664300515,
,,,,106,0,106,0,,,,,,,,,,,,,1202.9637497667572,None,,,,,,,,,,,,,,,,,,,,,,corner,B_aloud,106,69,1198.7792613671627,None,1198.7792613671627,None,1198.7792613671627,None,3,2.86168501584325,1198.7792613671627,None,1201.6873648690525,None,1201.6873648690525,None,1202.2135093612014,None,1202.2135093612014,None,1202.2135093612014,None,f,0.7075673321960494,1202.2135093612014,None,sing20,001,2019_Nov_04_1054,ProdFawcett_Revision2019,3.2.4,59.970568664300515,
,,,,107,0,107,0,,,,,,,,,,,,,1206.0353417926235,None,,,,,,,,,,,,,,,,,,,,,,mechanical,D_new,107,185,1203.481786402932,None,1203.481786402932,None,1203.481786402932,None,1,1.8705178205273114,1203.481786402932,None,1205.4145418921253,None,1205.4145418921253,None,1205.9179414691753,None,1205.9179414691753,None,1205.9179414691753,None,n,0.08217951114056632,1205.9179414691753,None,sing20,001,2019_Nov_04_1054,ProdFawcett_Revision2019,3.2.4,59.970568664300515,
,,,,108,0,108,0,,,,,,,,,,,,,1210.7494784474256,None,,,,,,,,,,,,,,,,,,,,,,management,D_new,108,177,1206.5661587982904,None,1206.5661587982904,None,1206.5661587982904,None,1,1.7546479442971759,1206.5661587982904,None,1208.3821689369506,None,1208.3821689369506,None,1208.8988965603057,None,1208.8988965603057,None,1208.8988965603057,None,n,1.813214530062396,1208.8988965603057,None,sing20,001,2019_Nov_04_1054,ProdFawcett_Revision2019,3.2.4,59.970568664300515,
,,,,109,0,109,0,,,,,,,,,,,,,1215.5509762393194,None,,,,,,,,,,,,,,,,,,,,,,division,C_sing,109,101,1211.2681933818385,None,1211.2681933818385,None,1211.2681933818385,None,1,2.9882226161425933,1211.2681933818385,None,1214.2902590657468,None,1214.2902590657468,None,1214.8172830751864,None,1214.8172830751864,None,1214.8172830751864,None,n,0.6948827517335303,1214.8172830751864,None,sing20,001,2019_Nov_04_1054,ProdFawcett_Revision2019,3.2.4,59.970568664300515,
,,,,110,0,110,0,,,,,,,,,,,,,1218.868885053147,None,,,,,,,,,,,,,,,,,,,,,,crisis,D_new,110,79,1216.0677082166658,None,1216.0677082166658,None,1216.0677082166658,None,6,1.7724155625910498,1216.0677082166658,None,1217.884996267967,None,1217.884996267967,None,1218.4017963550286,None,1218.4017963550286,None,1218.4017963550286,None,r,0.4217419294291176,1218.4017963550286,None,sing20,001,2019_Nov_04_1054,ProdFawcett_Revision2019,3.2.4,59.970568664300515,
,,,,111,0,111,0,,,,,,,,,,,,,1223.2199178950978,None,,,,,,,,,,,,,,,,,,,,,,degree,D_new,111,89,1219.3857090874808,None,1219.3857090874808,None,1219.3857090874808,None,6,1.8536026621586643,1219.3857090874808,None,1221.286056167155,None,1221.286056167155,None,1221.8029249859974,None,1221.8029249859974,None,1221.8029249859974,None,r,1.372733096999582,1221.8029249859974,None,sing20,001,2019_Nov_04_1054,ProdFawcett_Revision2019,3.2.4,59.970568664300515,
,,,,112,0,112,0,,,,,,,,,,,,,1230.2389189525275,None,,,,,,,,,,,,,,,,,,,,,,safety,D_new,112,270,1223.7367944890284,None,1223.7367944890284,None,1223.7367944890284,None,4,4.99091963673709,1223.7367944890284,None,1228.7716822167858,None,1228.7716822167858,None,1229.2753004291444,None,1229.2753004291444,None,1229.2753004291444,None,f,0.9240694781183265,1229.2753004291444,None,sing20,001,2019_Nov_04_1054,ProdFawcett_Revision2019,3.2.4,59.970568664300515,
,,,,113,0,113,0,,,,,,,,,,,,,1234.54022765439,None,,,,,,,,,,,,,,,,,,,,,,produce,B_aloud,113,239,1230.755532126641,None,1230.755532126641,None,1230.755532126641,None,6,1.9711886545992456,1230.755532126641,None,1232.7785292653716,None,1232.7785292653716,None,1233.3066843938432,None,1233.3066843938432,None,1233.3066843938432,None,r,1.187965416465886,1233.3066843938432,None,sing20,001,2019_Nov_04_1054,ProdFawcett_Revision2019,3.2.4,59.970568664300515,
,,,,114,0,114,0,,,,,,,,,,,,,1238.0411563102389,None,,,,,,,,,,,,,,,,,,,,,,agency,A_silent,114,4,1235.0581601044978,None,1235.0581601044978,None,1235.0581601044978,None,1,2.3249154071090743,1235.0581601044978,None,1237.4299166511046,None,1237.4299166511046,None,1237.941297816753,None,1237.941297816753,None,1237.941297816753,None,n,0.06540057226084173,1237.941297816753,None,sing20,001,2019_Nov_04_1054,ProdFawcett_Revision2019,3.2.4,59.970568664300515,
,,,,115,0,115,0,,,,,,,,,,,,,1241.0255175094935,None,,,,,,,,,,,,,,,,,,,,,,route,A_silent,115,267,1238.5583302232553,None,1238.5583302232553,None,1238.5583302232553,None,6,1.344296821509488,1238.5583302232553,None,1239.9585532126366,None,1239.9585532126366,None,1240.475268706854,None,1240.475268706854,None,1240.475268706854,None,r,0.5078649623901583,1240.475268706854,None,sing20,001,2019_Nov_04_1054,ProdFawcett_Revision2019,3.2.4,59.970568664300515,
,,,,116,0,116,0,,,,,,,,,,,,,1245.0101399514824,None,,,,,,,,,,,,,,,,,,,,,,ground,A_silent,116,142,1241.5425816383213,None,1241.5425816383213,None,1241.5425816383213,None,6,2.7440480188815854,1241.5425816383213,None,1244.3309535360895,None,1244.3309535360895,None,1244.8433240032173,None,1244.8433240032173,None,1244.8433240032173,None,r,0.13088884740136564,1244.8433240032173,None,sing20,001,2019_Nov_04_1054,ProdFawcett_Revision2019,3.2.4,59.970568664300515,
,,,,117,0,117,0,,,,,,,,,,,,,1247.6108039434766,None,,,,,,,,,,,,,,,,,,,,,,owner,D_new,117,208,1245.5272392237093,None,1245.5272392237093,None,1245.5272392237093,None,1,1.4307339678052813,1245.5272392237093,None,1246.98250575352,None,1246.98250575352,None,1247.5109112396603,None,1247.5109112396603,None,1247.5109112396603,None,n,0.06313335819868371,1247.5109112396603,None,sing20,001,2019_Nov_04_1054,ProdFawcett_Revision2019,3.2.4,59.970568664300515,
,,,,118,0,118,0,,,,,,,,,,,,,1251.4625670211972,None,,,,,,,,,,,,,,,,,,,,,,tough,D_new,118,333,1248.1284117061296,None,1248.1284117061296,None,1248.1284117061296,None,1,2.5012608073302545,1248.1284117061296,None,1250.663069913513,None,1250.663069913513,None,1251.1786468246137,None,1251.1786468246137,None,1251.1786468246137,None,n,0.25111308082705364,1251.1786468246137,None,sing20,001,2019_Nov_04_1054,ProdFawcett_Revision2019,3.2.4,59.970568664300515,
,,,,119,0,119,0,,,,,,,,,,,,,1254.7151660757372,None,,,,,,,,,,,,,,,,,,,,,,thick,D_new,119,327,1251.979047085857,None,1251.979047085857,None,1251.979047085857,None,1,1.8268585556652397,1251.979047085857,None,1253.8465606145328,None,1253.8465606145328,None,1254.3491114635835,None,1254.3491114635835,None,1254.3491114635835,None,n,0.3372196305426769,1254.3491114635835,None,sing20,001,2019_Nov_04_1054,ProdFawcett_Revision2019,3.2.4,59.970568664300515,
,,,,120,0,120,0,,,,,,,,,,,,,1257.9859964545467,None,,,,,,,,,,,,,,,,,,,,,,watch,D_new,120,351,1255.2465152080404,None,1255.2465152080404,None,1255.2465152080404,None,1,1.5833056539995596,1255.2465152080404,None,1256.8637357715634,None,1256.8637357715634,None,1257.3705993033363,None,1257.3705993033363,None,1257.3705993033363,None,n,0.578679479949642,1257.3705993033363,None,sing20,001,2019_Nov_04_1054,ProdFawcett_Revision2019,3.2.4,59.970568664300515,
,,,,121,0,121,0,,,,,,,,,,,,,1262.1820784350275,None,,,,,,,,,,,,,,,,,,,,,,universal,C_sing,121,345,1258.5145384710631,None,1258.5145384710631,None,1258.5145384710631,None,6,2.71482988120988,1258.5145384710631,None,1261.281843627512,None,1261.281843627512,None,1261.7984309883323,None,1261.7984309883323,None,1261.7984309883323,None,f,0.35054674377897754,1261.7984309883323,None,sing20,001,2019_Nov_04_1054,ProdFawcett_Revision2019,3.2.4,59.970568664300515,
,,,,122,0,122,0,,,,,,,,,,,,,1266.7668461155263,None,,,,,,,,,,,,,,,,,,,,,,theme,C_sing,122,326,1262.7002164582955,None,1262.7002164582955,None,1262.7002164582955,None,1,2.8252848790143616,1262.7002164582955,None,1265.5663908067509,None,1265.5663908067509,None,1266.0692909124773,None,1266.0692909124773,None,1266.0692909124773,None,n,0.6563049698597752,1266.0692909124773,None,sing20,001,2019_Nov_04_1054,ProdFawcett_Revision2019,3.2.4,59.970568664300515,
,,,,123,0,123,0,,,,,,,,,,,,,1272.0399651676416,None,,,,,,,,,,,,,,,,,,,,,,nature,A_silent,123,200,1267.284155315021,None,1267.284155315021,None,1267.284155315021,None,1,3.920297941134777,1267.284155315021,None,1271.2528316850075,None,1271.2528316850075,None,1271.7683806057903,None,1271.7683806057903,None,1271.7683806057903,None,n,0.24398364120861515,1271.7683806057903,None,sing20,001,2019_Nov_04_1054,ProdFawcett_Revision2019,3.2.4,59.970568664300515,
,,,,124,0,124,0,,,,,,,,,,,,,1275.7862203769037,None,,,,,,,,,,,,,,,,,,,,,,plane,D_new,124,223,1272.5546314610983,None,1272.5546314610983,None,1272.5546314610983,None,1,1.5937802451080643,1272.5546314610983,None,1274.189828948176,None,1274.189828948176,None,1274.702513839642,None,1274.702513839642,None,1274.702513839642,None,n,1.0377187908161432,1274.702513839642,None,sing20,001,2019_Nov_04_1054,ProdFawcett_Revision2019,3.2.4,59.970568664300515,
,,,,125,0,125,0,,,,,,,,,,,,,1279.0383491945104,None,,,,,,,,,,,,,,,,,,,,,,enemy,B_aloud,125,113,1276.3033009889768,None,1276.3033009889768,None,1276.3033009889768,None,6,1.5253508117166348,1276.3033009889768,None,1277.8749020339455,None,1277.8749020339455,None,1278.3872420227272,None,1278.3872420227272,None,1278.3872420227272,None,r,0.6253150463453494,1278.3872420227272,None,sing20,001,2019_Nov_04_1054,ProdFawcett_Revision2019,3.2.4,59.970568664300515,
,,,,126,0,126,0,,,,,,,,,,,,,1281.68802357401,None,,,,,,,,,,,,,,,,,,,,,,prime,B_aloud,126,235,1279.5543220128166,None,1279.5543220128166,None,1279.5543220128166,None,6,1.3220069042872638,1279.5543220128166,None,1280.9260008085985,None,1280.9260008085985,None,1281.4382499844069,None,1281.4382499844069,None,1281.4382499844069,None,r,0.2065083659836091,1281.4382499844069,None,sing20,001,2019_Nov_04_1054,ProdFawcett_Revision2019,3.2.4,59.970568664300515,
,,,,127,0,127,0,,,,,,,,,,,,,1284.5388772781007,None,,,,,,,,,,,,,,,,,,,,,,mayor,D_new,127,183,1282.2048416992766,None,1282.2048416992766,None,1282.2048416992766,None,6,1.3593021085835062,1282.2048416992766,None,1283.6116184611456,None,1283.6116184611456,None,1284.1388352926588,None,1284.1388352926588,None,1284.1388352926588,None,r,0.35288082354236394,1284.1388352926588,None,sing20,001,2019_Nov_04_1054,ProdFawcett_Revision2019,3.2.4,59.970568664300515,
,,,,128,0,128,0,,,,,,,,,,,,,1287.0730686695315,None,,,,,,,,,,,,,,,,,,,,,,majority,A_silent,128,176,1285.041474777623,None,1285.041474777623,None,1285.041474777623,None,6,1.3390393108711578,1285.041474777623,None,1286.43957268144,None,1286.43957268144,None,1286.9563454002491,None,1286.9563454002491,None,1286.9563454002491,None,r,0.07121757790446281,1286.9563454002491,None,sing20,001,2019_Nov_04_1054,ProdFawcett_Revision2019,3.2.4,59.970568664300515,
,,,,129,0,129,0,,,,,,,,,,,,,1289.7406378677697,None,,,,,,,,,,,,,,,,,,,,,,symbol,D_new,129,321,1287.5900180381723,None,1287.5900180381723,None,1287.5900180381723,None,1,1.4533977109822445,1287.5900180381723,None,1289.0946072028019,None,1289.0946072028019,None,1289.6071098463726,None,1289.6071098463726,None,1289.6071098463726,None,n,0.11666728870477527,1289.6071098463726,None,sing20,001,2019_Nov_04_1054,ProdFawcett_Revision2019,3.2.4,59.970568664300515,
,,,,130,0,130,0,,,,,,,,,,,,,1293.1082720656414,None,,,,,,,,,,,,,,,,,,,,,,executive,C_sing,130,122,1290.248080487654,None,1290.248080487654,None,1290.248080487654,None,6,1.9471931952866726,1290.248080487654,None,1292.2580207749852,None,1292.2580207749852,None,1292.7748889718205,None,1292.7748889718205,None,1292.7748889718205,None,r,0.28438981156796217,1292.7748889718205,None,sing20,001,2019_Nov_04_1054,ProdFawcett_Revision2019,3.2.4,59.970568664300515,
,,,,131,0,131,0,,,,,,,,,,,,,1297.8103871991043,None,,,,,,,,,,,,,,,,,,,,,,engineer,D_new,131,114,1293.626703054062,None,1293.626703054062,None,1293.626703054062,None,3,2.7927284319303,1293.626703054062,None,1296.4647284941166,None,1296.4647284941166,None,1296.9928173788358,None,1296.9928173788358,None,1296.9928173788358,None,f,0.7864362131804228,1296.9928173788358,None,sing20,001,2019_Nov_04_1054,ProdFawcett_Revision2019,3.2.4,59.970568664300515,
,,,,132,0,132,0,,,,,,,,,,,,,1303.1113954717875,None,,,,,,,,,,,,,,,,,,,,,,concern,D_new,132,65,1298.3139065123978,None,1298.3139065123978,None,1298.3139065123978,None,5,3.2413018598454073,1298.3139065123978,None,1301.6109824593877,None,1301.6109824593877,None,1302.127696087584,None,1302.127696087584,None,1302.127696087584,None,f,0.9398227281635627,1302.127696087584,None,sing20,001,2019_Nov_04_1054,ProdFawcett_Revision2019,3.2.4,59.970568664300515,
,,,,133,0,133,0,,,,,,,,,,,,,1307.9132210611133,None,,,,,,,,,,,,,,,,,,,,,,opening,D_new,133,205,1303.6292588791111,None,1303.6292588791111,None,1303.6292588791111,None,1,3.5579685264383443,1303.6292588791111,None,1307.2460919325822,None,1307.2460919325822,None,1307.7628982397146,None,1307.7628982397146,None,1307.7628982397146,None,n,0.1193307209177874,1307.7628982397146,None,sing20,001,2019_Nov_04_1054,ProdFawcett_Revision2019,3.2.4,59.970568664300515,
,,,,134,0,134,0,,,,,,,,,,,,,1313.5312819555984,None,,,,,,,,,,,,,,,,,,,,,,hunger,C_sing,134,155,1308.4311631523306,None,1308.4311631523306,None,1308.4311631523306,None,6,1.4350646886741742,1308.4311631523306,None,1309.9194333519554,None,1309.9194333519554,None,1310.4338219194906,None,1310.4338219194906,None,1310.4338219194906,None,r,3.048233501263894,1310.4338219194906,None,sing20,001,2019_Nov_04_1054,ProdFawcett_Revision2019,3.2.4,59.970568664300515,
,,,,135,0,135,0,,,,,,,,,,,,,1318.3711780804442,None,,,,,,,,,,,,,,,,,,,,,,discovery,B_aloud,135,95,1314.0493198357872,None,1314.0493198357872,None,1314.0493198357872,None,6,2.5205495428526774,1314.0493198357872,None,1316.615760403045,None,1316.615760403045,None,1317.1325321888435,None,1317.1325321888435,None,1317.1325321888435,None,f,1.2131066119181924,1317.1325321888435,None,sing20,001,2019_Nov_04_1054,ProdFawcett_Revision2019,3.2.4,59.970568664300515,
,,,,136,0,136,0,,,,,,,,,,,,,1321.2364856627537,None,,,,,,,,,,,,,,,,,,,,,,chief,B_aloud,136,48,1318.8893316538888,None,1318.8893316538888,None,1318.8893316538888,None,6,1.2084247682942078,1318.8893316538888,None,1320.1211671953788,None,1320.1211671953788,None,1320.6348656465416,None,1320.6348656465416,None,1320.6348656465416,None,r,0.5826046526199207,1320.6348656465416,None,sing20,001,2019_Nov_04_1054,ProdFawcett_Revision2019,3.2.4,59.970568664300515,
,,,,137,0,137,0,,,,,,,,,,,,,1324.3185728058452,None,,,,,,,,,,,,,,,,,,,,,,story,D_new,137,306,1321.7670426696423,None,1321.7670426696423,None,1321.7670426696423,None,6,1.8509252348449081,1321.7670426696423,None,1323.667742427031,None,1323.667742427031,None,1324.1846177769476,None,1324.1846177769476,None,1324.1846177769476,None,r,0.11264290602412075,1324.1846177769476,None,sing20,001,2019_Nov_04_1054,ProdFawcett_Revision2019,3.2.4,59.970568664300515,
,,,,138,0,138,0,,,,,,,,,,,,,1327.3188216084964,None,,,,,,,,,,,,,,,,,,,,,,public,D_new,138,244,1324.8347539964016,None,1324.8347539964016,None,1324.8347539964016,None,6,1.630798345489893,1324.8347539964016,None,1326.4935662747594,None,1326.4935662747594,None,1327.0073633140419,None,1327.0073633140419,None,1327.0073633140419,None,r,0.2739712010952644,1327.0073633140419,None,sing20,001,2019_Nov_04_1054,ProdFawcett_Revision2019,3.2.4,59.970568664300515,
,,,,139,0,139,0,,,,,,,,,,,,,1330.490033588314,None,,,,,,,,,,,,,,,,,,,,,,turkey,D_new,139,342,1327.83717888908,None,1327.83717888908,None,1327.83717888908,None,1,1.16413230082253,1327.83717888908,None,1329.052873359411,None,1329.052873359411,None,1329.5694852895103,None,1329.5694852895103,None,1329.5694852895103,None,n,0.895439758663997,1329.5694852895103,None,sing20,001,2019_Nov_04_1054,ProdFawcett_Revision2019,3.2.4,59.970568664300515,
,,,,140,0,140,0,,,,,,,,,,,,,1336.6552065061987,None,,,,,,,,,,,,,,,,,,,,,,account,D_new,140,1,1331.0209855694557,None,1331.0209855694557,None,1331.0209855694557,None,5,4.195637867727783,1331.0209855694557,None,1335.2546451452072,None,1335.2546451452072,None,1335.7716427193955,None,1335.7716427193955,None,1335.7716427193955,None,f,0.8370575977605768,1335.7716427193955,None,sing20,001,2019_Nov_04_1054,ProdFawcett_Revision2019,3.2.4,59.970568664300515,
,,,,141,0,141,0,,,,,,,,,,,,,1341.689992224914,None,,,,,,,,,,,,,,,,,,,,,,author,A_silent,141,15,1337.171982956992,None,1337.171982956992,None,1337.171982956992,None,5,3.173030105070211,1337.171982956992,None,1340.3788446227554,None,1340.3788446227554,None,1340.8951523915748,None,1340.8951523915748,None,1340.8951523915748,None,f,0.7616753747570328,1340.8951523915748,None,sing20,001,2019_Nov_04_1054,ProdFawcett_Revision2019,3.2.4,59.970568664300515,
,,,,142,0,142,0,,,,,,,,,,,,,1347.4920389375766,None,,,,,,,,,,,,,,,,,,,,,,character,C_sing,142,46,1342.2068747278536,None,1342.2068747278536,None,1342.2068747278536,None,1,4.553169434599113,1342.2068747278536,None,1346.824931890238,None,1346.824931890238,None,1347.3417811158579,None,1347.3417811158579,None,1347.3417811158579,None,n,0.11447378247976303,1347.3417811158579,None,sing20,001,2019_Nov_04_1054,ProdFawcett_Revision2019,3.2.4,59.970568664300515,
,,,,143,0,143,0,,,,,,,,,,,,,1355.1441842383356,None,,,,,,,,,,,,,,,,,,,,,,clear,D_new,143,52,1348.0084651987418,None,1348.0084651987418,None,1348.0084651987418,None,4,5.103387758892495,1348.0084651987418,None,1353.1769300864544,None,1353.1769300864544,None,1353.6813298501074,None,1353.6813298501074,None,1353.6813298501074,None,f,1.4303685388877057,1353.6813298501074,None,sing20,001,2019_Nov_04_1054,ProdFawcett_Revision2019,3.2.4,59.970568664300515,
,,,,144,0,144,0,,,,,,,,,,,,,1358.9286284754635,None,,,,,,,,,,,,,,,,,,,,,,thing,C_sing,144,328,1355.6610381290084,None,1355.6610381290084,None,1355.6610381290084,None,6,2.0746973938075826,1355.6610381290084,None,1357.7653794240323,None,1357.7653794240323,None,1358.2791024444741,None,1358.2791024444741,None,1358.2791024444741,None,r,0.6165612365002744,1358.2791024444741,None,sing20,001,2019_Nov_04_1054,ProdFawcett_Revision2019,3.2.4,59.970568664300515,
,,,,145,0,145,0,,,,,,,,,,,,,1361.7017456614994,None,,,,,,,,,,,,,,,,,,,,,,emergency,D_new,145,110,1359.4453884431277,None,1359.4453884431277,None,1359.4453884431277,None,1,1.5938819431466982,1359.4453884431277,None,1361.0794809354702,None,1361.0794809354702,None,1361.581680039817,None,1361.581680039817,None,1361.581680039817,None,n,0.0898793307133019,1361.581680039817,None,sing20,001,2019_Nov_04_1054,ProdFawcett_Revision2019,3.2.4,59.970568664300515,
,,,,146,0,146,0,,,,,,,,,,,,,1365.380647508835,None,,,,,,,,,,,,,,,,,,,,,,power,A_silent,146,230,1362.229945885425,None,1362.229945885425,None,1362.229945885425,None,1,2.3849928469280712,1362.229945885425,None,1364.651869129797,None,1364.651869129797,None,1365.1807003794238,None,1365.1807003794238,None,1365.1807003794238,None,n,0.16231790755409747,1365.1807003794238,None,sing20,001,2019_Nov_04_1054,ProdFawcett_Revision2019,3.2.4,59.970568664300515,
,,,,147,0,147,0,,,,,,,,,,,,,1368.8483631896088,None,,,,,,,,,,,,,,,,,,,,,,sleep,D_new,147,290,1365.8976102506276,None,1365.8976102506276,None,1365.8976102506276,None,1,2.181475088640582,1365.8976102506276,None,1368.1195745474542,None,1368.1195745474542,None,1368.6486950301332,None,1368.6486950301332,None,1368.6486950301332,None,n,0.15904148784466088,1368.6486950301332,None,sing20,001,2019_Nov_04_1054,ProdFawcett_Revision2019,3.2.4,59.970568664300515,
,,,,148,0,148,0,,,,,,,,,,,,,1371.9994380170247,None,,,,,,,,,,,,,,,,,,,,,,center,D_new,148,44,1369.3652351184865,None,1369.3652351184865,None,1369.3652351184865,None,1,1.977970081497915,1369.3652351184865,None,1371.3877256328706,None,1371.3877256328706,None,1371.9160291099106,None,1371.9160291099106,None,1371.9160291099106,None,n,0.034897990932222456,1371.9160291099106,None,sing20,001,2019_Nov_04_1054,ProdFawcett_Revision2019,3.2.4,59.970568664300515,
,,,,149,0,149,0,,,,,,,,,,,,,1375.0169453255949,None,,,,,,,,,,,,,,,,,,,,,,goose,D_new,149,138,1372.516239037097,None,1372.516239037097,None,1372.516239037097,None,1,1.8824258256936446,1372.516239037097,None,1374.450131865393,None,1374.450131865393,None,1374.9670464016963,None,1374.9670464016963,None,1374.9670464016963,None,n,0.008633451536297798,1374.9670464016963,None,sing20,001,2019_Nov_04_1054,ProdFawcett_Revision2019,3.2.4,59.970568664300515,
,,,,150,0,150,0,,,,,,,,,,,,,1377.8010222678422,None,,,,,,,,,,,,,,,,,,,,,,blind,D_new,150,24,1375.5348746656673,None,1375.5348746656673,None,1375.5348746656673,None,1,1.5116131741087884,1375.5348746656673,None,1377.0887681159074,None,1377.0887681159074,None,1377.6177340299473,None,1377.6177340299473,None,1377.6177340299473,None,n,0.14145891647785902,1377.6177340299473,None,sing20,001,2019_Nov_04_1054,ProdFawcett_Revision2019,3.2.4,59.970568664300515,
,,,,151,0,151,0,,,,,,,,,,,,,1380.2686315854662,None,,,,,,,,,,,,,,,,,,,,,,council,D_new,151,71,1378.3194069166784,None,1378.3194069166784,None,1378.3194069166784,None,1,1.1592458169907331,1378.3194069166784,None,1379.5351240903256,None,1379.5351240903256,None,1380.051797599066,None,1380.051797599066,None,1380.051797599066,None,n,0.17857840395299718,1380.051797599066,None,sing20,001,2019_Nov_04_1054,ProdFawcett_Revision2019,3.2.4,59.970568664300515,
,,,,152,0,152,0,,,,,,,,,,,,,1384.7866271692328,None,,,,,,,,,,,,,,,,,,,,,,south,D_new,152,296,1380.7855809541652,None,1380.7855809541652,None,1380.7855809541652,None,1,1.4204596628551371,1380.7855809541652,None,1382.269291534496,None,1382.269291534496,None,1382.7860092056799,None,1382.7860092056799,None,1382.7860092056799,None,n,1.9640066554420628,1382.7860092056799,None,sing20,001,2019_Nov_04_1054,ProdFawcett_Revision2019,3.2.4,59.970568664300515,
