StudyTrials.thisRepN,StudyTrials.thisTrialN,StudyTrials.thisN,StudyTrials.thisIndex,TestTrials.thisRepN,TestTrials.thisTrialN,TestTrials.thisN,TestTrials.thisIndex,textWelcome.started,textWelcome.stopped,keyWelcome.keys,keyWelcome.rt,keyWelcome.started,keyWelcome.stopped,textReady.started,textReady.stopped,keyReady.keys,keyReady.rt,keyReady.started,keyReady.stopped,polyback_2.started,polyback_2.stopped,studyPic,studyWord,studyType,studyN,studyOrder,polyback_3.started,polyback_3.stopped,studyPicChoice.started,studyPicChoice.stopped,polyback_4.started,polyback_4.stopped,polyback.started,polyback.stopped,studyWords.started,studyWords.stopped,getResearcher.started,getResearcher.stopped,kPress2.keys,kPress2.rt,kPress2.started,kPress2.stopped,testWord,testType,testN,testOrder,polyback_5.started,polyback_5.stopped,testWords.started,testWords.stopped,textScale.started,textScale.stopped,keyConf.keys,keyConf.rt,keyConf.started,keyConf.stopped,polyback_6.started,polyback_6.stopped,studyWords_2.started,studyWords_2.stopped,polyback_7.started,polyback_7.stopped,testWords_2.started,testWords_2.stopped,textScale_2.started,textScale_2.stopped,keyRKN.keys,keyRKN.rt,keyRKN.started,keyRKN.stopped,participant,session,date,expName,psychopyVersion,frameRate,
,,,,,,,,16.084216299990658,None,space,2651.1687507000024,16.084216299990658,None,,,,,,,,,,,,,,,,,,,,,,,,,,,,,,,,,,,,,,,,,,,,,,,,,,,,,,,,,,sing7,001,2019_Oct_24_1645,ProdFawcett_Revision2019,3.2.3,60.05082702076868,
,,,,,,,,,,,,,,2667.281091599987,None,space,3.475758299988229,2667.281091599987,None,,,,,,,,,,,,,,,,,,,,,,,,,,,,,,,,,,,,,,,,,,,,,,,,,,,,sing7,001,2019_Oct_24_1645,ProdFawcett_Revision2019,3.2.3,60.05082702076868,
0,0,0,0,,,,,,,,,,,,,,,,,2675.5568970999884,None,materials/speakPic.jpg,style,B_aloud,0,311,2671.889370299992,None,2671.889370299992,None,2672.8042687999987,None,2673.0616462999897,None,2673.0616462999897,None,,,,,,,,,,,,,,,,,,,,,,,,,,,,,,,,,,,sing7,001,2019_Oct_24_1645,ProdFawcett_Revision2019,3.2.3,60.05082702076868,
1,0,1,0,,,,,,,,,,,,,,,,,2679.8277507999883,None,materials/singPic.jpg,running,C_sing,1,268,2676.1604635999975,None,2676.1604635999975,None,2677.075352099986,None,2677.330941799999,None,2677.330941799999,None,,,,,,,,,,,,,,,,,,,,,,,,,,,,,,,,,,,sing7,001,2019_Oct_24_1645,ProdFawcett_Revision2019,3.2.3,60.05082702076868,
2,0,2,0,,,,,,,,,,,,,,,,,2684.098835599987,None,materials/speakPic.jpg,scale,B_aloud,2,272,2680.4089676000003,None,2680.4089676000003,None,2681.3459113999997,None,2681.6017086999927,None,2681.6017086999927,None,,,,,,,,,,,,,,,,,,,,,,,,,,,,,,,,,,,sing7,001,2019_Oct_24_1645,ProdFawcett_Revision2019,3.2.3,60.05082702076868,
3,0,3,0,,,,,,,,,,,,,,,,,2688.3697855999926,None,materials/speakPic.jpg,signal,B_aloud,3,287,2684.6686053999874,None,2684.6686053999874,None,2685.6170301999955,None,2685.878941799994,None,2685.878941799994,None,,,,,,,,,,,,,,,,,,,,,,,,,,,,,,,,,,,sing7,001,2019_Oct_24_1645,ProdFawcett_Revision2019,3.2.3,60.05082702076868,
4,0,4,0,,,,,,,,,,,,,,,,,2692.639818699987,None,materials/readPic.jpg,mayor,A_silent,4,183,2688.9590473999997,None,2688.9590473999997,None,2689.8879076999874,None,2690.144650099988,None,2690.144650099988,None,,,,,,,,,,,,,,,,,,,,,,,,,,,,,,,,,,,sing7,001,2019_Oct_24_1645,ProdFawcett_Revision2019,3.2.3,60.05082702076868,
5,0,5,0,,,,,,,,,,,,,,,,,2696.9105229999986,None,materials/singPic.jpg,congress,C_sing,5,67,2693.2279052999947,None,2693.2279052999947,None,2694.159152799999,None,2694.421687899987,None,2694.421687899987,None,,,,,,,,,,,,,,,,,,,,,,,,,,,,,,,,,,,sing7,001,2019_Oct_24_1645,ProdFawcett_Revision2019,3.2.3,60.05082702076868,
6,0,6,0,,,,,,,,,,,,,,,,,2701.1825868999877,None,materials/speakPic.jpg,childhood,B_aloud,6,49,2697.505260399994,None,2697.505260399994,None,2698.4295724999974,None,2698.6871698999894,None,2698.6871698999894,None,,,,,,,,,,,,,,,,,,,,,,,,,,,,,,,,,,,sing7,001,2019_Oct_24_1645,ProdFawcett_Revision2019,3.2.3,60.05082702076868,
7,0,7,0,,,,,,,,,,,,,,,,,2705.4533289999963,None,materials/singPic.jpg,pancakes,C_sing,7,210,2701.7701324999944,None,2701.7701324999944,None,2702.700591099987,None,2702.9587426999933,None,2702.9587426999933,None,,,,,,,,,,,,,,,,,,,,,,,,,,,,,,,,,,,sing7,001,2019_Oct_24_1645,ProdFawcett_Revision2019,3.2.3,60.05082702076868,
8,0,8,0,,,,,,,,,,,,,,,,,2709.7244666999904,None,materials/speakPic.jpg,store,B_aloud,8,305,2706.024375299996,None,2706.024375299996,None,2706.971495299993,None,2707.2285454999947,None,2707.2285454999947,None,,,,,,,,,,,,,,,,,,,,,,,,,,,,,,,,,,,sing7,001,2019_Oct_24_1645,ProdFawcett_Revision2019,3.2.3,60.05082702076868,
9,0,9,0,,,,,,,,,,,,,,,,,2713.9944694999867,None,materials/speakPic.jpg,oxygen,B_aloud,9,209,2710.295169499994,None,2710.295169499994,None,2711.241889599987,None,2711.5055660999933,None,2711.5055660999933,None,,,,,,,,,,,,,,,,,,,,,,,,,,,,,,,,,,,sing7,001,2019_Oct_24_1645,ProdFawcett_Revision2019,3.2.3,60.05082702076868,
10,0,10,0,,,,,,,,,,,,,,,,,2718.2498129999876,None,materials/speakPic.jpg,problem,B_aloud,10,238,2714.546430699993,None,2714.546430699993,None,2715.513592599993,None,2715.775503099998,None,2715.775503099998,None,,,,,,,,,,,,,,,,,,,,,,,,,,,,,,,,,,,sing7,001,2019_Oct_24_1645,ProdFawcett_Revision2019,3.2.3,60.05082702076868,
11,0,11,0,,,,,,,,,,,,,,,,,2722.5205537,None,materials/singPic.jpg,bicycle,C_sing,11,21,2718.849554799992,None,2718.849554799992,None,2719.767587299997,None,2720.0279062999907,None,2720.0279062999907,None,,,,,,,,,,,,,,,,,,,,,,,,,,,,,,,,,,,sing7,001,2019_Oct_24_1645,ProdFawcett_Revision2019,3.2.3,60.05082702076868,
12,0,12,0,,,,,,,,,,,,,,,,,2726.7974206999934,None,materials/speakPic.jpg,universal,B_aloud,12,345,2723.0918730999983,None,2723.0918730999983,None,2724.0385537999973,None,2724.3025400999904,None,2724.3025400999904,None,,,,,,,,,,,,,,,,,,,,,,,,,,,,,,,,,,,sing7,001,2019_Oct_24_1645,ProdFawcett_Revision2019,3.2.3,60.05082702076868,
13,0,13,0,,,,,,,,,,,,,,,,,2731.0455549999897,None,materials/singPic.jpg,write,C_sing,13,358,2727.344711599988,None,2727.344711599988,None,2728.309466999999,None,2728.568941999998,None,2728.568941999998,None,,,,,,,,,,,,,,,,,,,,,,,,,,,,,,,,,,,sing7,001,2019_Oct_24_1645,ProdFawcett_Revision2019,3.2.3,60.05082702076868,
14,0,14,0,,,,,,,,,,,,,,,,,2735.3165791999927,None,materials/speakPic.jpg,portion,B_aloud,14,228,2731.618173699986,None,2731.618173699986,None,2732.563743199993,None,2732.8211797999975,None,2732.8211797999975,None,,,,,,,,,,,,,,,,,,,,,,,,,,,,,,,,,,,sing7,001,2019_Oct_24_1645,ProdFawcett_Revision2019,3.2.3,60.05082702076868,
15,0,15,0,,,,,,,,,,,,,,,,,2739.5865644999867,None,materials/speakPic.jpg,country,B_aloud,15,73,2735.8776711999963,None,2735.8776711999963,None,2736.8370953999984,None,2737.0928294999903,None,2737.0928294999903,None,,,,,,,,,,,,,,,,,,,,,,,,,,,,,,,,,,,sing7,001,2019_Oct_24_1645,ProdFawcett_Revision2019,3.2.3,60.05082702076868,
16,0,16,0,,,,,,,,,,,,,,,,,2743.8585647,None,materials/readPic.jpg,discussion,A_silent,16,96,2740.1690795999893,None,2740.1690795999893,None,2741.105835299997,None,2741.3632366999955,None,2741.3632366999955,None,,,,,,,,,,,,,,,,,,,,,,,,,,,,,,,,,,,sing7,001,2019_Oct_24_1645,ProdFawcett_Revision2019,3.2.3,60.05082702076868,
17,0,17,0,,,,,,,,,,,,,,,,,2748.1295180999878,None,materials/singPic.jpg,community,C_sing,17,63,2744.448022899989,None,2744.448022899989,None,2745.3770927999867,None,2745.6339029999945,None,2745.6339029999945,None,,,,,,,,,,,,,,,,,,,,,,,,,,,,,,,,,,,sing7,001,2019_Oct_24_1645,ProdFawcett_Revision2019,3.2.3,60.05082702076868,
18,0,18,0,,,,,,,,,,,,,,,,,2752.3995854999957,None,materials/speakPic.jpg,medicine,B_aloud,18,186,2748.6997356999927,None,2748.6997356999927,None,2749.6474425999913,None,2749.906044699994,None,2749.906044699994,None,,,,,,,,,,,,,,,,,,,,,,,,,,,,,,,,,,,sing7,001,2019_Oct_24_1645,ProdFawcett_Revision2019,3.2.3,60.05082702076868,
19,0,19,0,,,,,,,,,,,,,,,,,2756.6711167999892,None,materials/speakPic.jpg,search,B_aloud,19,276,2752.974588799989,None,2752.974588799989,None,2753.9184629999945,None,2754.1779727999965,None,2754.1779727999965,None,,,,,,,,,,,,,,,,,,,,,,,,,,,,,,,,,,,sing7,001,2019_Oct_24_1645,ProdFawcett_Revision2019,3.2.3,60.05082702076868,
20,0,20,0,,,,,,,,,,,,,,,,,2760.9246335999924,None,materials/speakPic.jpg,orchestra,B_aloud,20,206,2757.213238799988,None,2757.213238799988,None,2758.188838999995,None,2758.4303027999995,None,2758.4303027999995,None,,,,,,,,,,,,,,,,,,,,,,,,,,,,,,,,,,,sing7,001,2019_Oct_24_1645,ProdFawcett_Revision2019,3.2.3,60.05082702076868,
21,0,21,0,,,,,,,,,,,,,,,,,2765.1963846,None,materials/readPic.jpg,broke,A_silent,21,32,2761.5273514,None,2761.5273514,None,2762.4435314,None,2762.702130199992,None,2762.702130199992,None,,,,,,,,,,,,,,,,,,,,,,,,,,,,,,,,,,,sing7,001,2019_Oct_24_1645,ProdFawcett_Revision2019,3.2.3,60.05082702076868,
22,0,22,0,,,,,,,,,,,,,,,,,2769.467219399987,None,materials/readPic.jpg,government,A_silent,22,139,2765.7860967999877,None,2765.7860967999877,None,2766.714460999996,None,2766.975900599995,None,2766.975900599995,None,,,,,,,,,,,,,,,,,,,,,,,,,,,,,,,,,,,sing7,001,2019_Oct_24_1645,ProdFawcett_Revision2019,3.2.3,60.05082702076868,
23,0,23,0,,,,,,,,,,,,,,,,,2773.7384048999957,None,materials/readPic.jpg,partner,A_silent,23,211,2770.0566884,None,2770.0566884,None,2770.9854725999903,None,2771.2423789999884,None,2771.2423789999884,None,,,,,,,,,,,,,,,,,,,,,,,,,,,,,,,,,,,sing7,001,2019_Oct_24_1645,ProdFawcett_Revision2019,3.2.3,60.05082702076868,
24,0,24,0,,,,,,,,,,,,,,,,,2778.009350999986,None,materials/readPic.jpg,staff,A_silent,24,301,2774.359111599988,None,2774.359111599988,None,2775.2568684,None,2775.5138746999874,None,2775.5138746999874,None,,,,,,,,,,,,,,,,,,,,,,,,,,,,,,,,,,,sing7,001,2019_Oct_24_1645,ProdFawcett_Revision2019,3.2.3,60.05082702076868,
25,0,25,0,,,,,,,,,,,,,,,,,2782.2801708999905,None,materials/speakPic.jpg,meeting,B_aloud,25,187,2778.6091963999934,None,2778.6091963999934,None,2779.5272976999986,None,2779.7885328999982,None,2779.7885328999982,None,,,,,,,,,,,,,,,,,,,,,,,,,,,,,,,,,,,sing7,001,2019_Oct_24_1645,ProdFawcett_Revision2019,3.2.3,60.05082702076868,
26,0,26,0,,,,,,,,,,,,,,,,,2786.551115899987,None,materials/singPic.jpg,article,C_sing,26,11,2782.88531089999,None,2782.88531089999,None,2783.801459999988,None,2784.0550555999944,None,2784.0550555999944,None,,,,,,,,,,,,,,,,,,,,,,,,,,,,,,,,,,,sing7,001,2019_Oct_24_1645,ProdFawcett_Revision2019,3.2.3,60.05082702076868,
27,0,27,0,,,,,,,,,,,,,,,,,2790.8052363999886,None,materials/speakPic.jpg,dozen,B_aloud,27,102,2787.0937152999977,None,2787.0937152999977,None,2788.0711543999932,None,2788.3332845999976,None,2788.3332845999976,None,,,,,,,,,,,,,,,,,,,,,,,,,,,,,,,,,,,sing7,001,2019_Oct_24_1645,ProdFawcett_Revision2019,3.2.3,60.05082702076868,
28,0,28,0,,,,,,,,,,,,,,,,,2795.076236599998,None,materials/singPic.jpg,hearing,C_sing,28,150,2791.3962677999953,None,2791.3962677999953,None,2792.3232537000004,None,2792.5850106,None,2792.5850106,None,,,,,,,,,,,,,,,,,,,,,,,,,,,,,,,,,,,sing7,001,2019_Oct_24_1645,ProdFawcett_Revision2019,3.2.3,60.05082702076868,
29,0,29,0,,,,,,,,,,,,,,,,,2799.347095799996,None,materials/speakPic.jpg,agency,B_aloud,29,4,2795.662757299986,None,2795.662757299986,None,2796.5945700999873,None,2796.861238399986,None,2796.861238399986,None,,,,,,,,,,,,,,,,,,,,,,,,,,,,,,,,,,,sing7,001,2019_Oct_24_1645,ProdFawcett_Revision2019,3.2.3,60.05082702076868,
30,0,30,0,,,,,,,,,,,,,,,,,2803.6181358999893,None,materials/readPic.jpg,direction,A_silent,30,94,2799.9308380999864,None,2799.9308380999864,None,2800.8655052999966,None,2801.123404699989,None,2801.123404699989,None,,,,,,,,,,,,,,,,,,,,,,,,,,,,,,,,,,,sing7,001,2019_Oct_24_1645,ProdFawcett_Revision2019,3.2.3,60.05082702076868,
31,0,31,0,,,,,,,,,,,,,,,,,2807.8889947999996,None,materials/speakPic.jpg,group,B_aloud,31,143,2804.233791999999,None,2804.233791999999,None,2805.136220299988,None,2805.3959929999983,None,2805.3959929999983,None,,,,,,,,,,,,,,,,,,,,,,,,,,,,,,,,,,,sing7,001,2019_Oct_24_1645,ProdFawcett_Revision2019,3.2.3,60.05082702076868,
32,0,32,0,,,,,,,,,,,,,,,,,2812.1430802999967,None,materials/singPic.jpg,health,C_sing,32,149,2808.4670097999915,None,2808.4670097999915,None,2809.4074712,None,2809.664331299995,None,2809.664331299995,None,,,,,,,,,,,,,,,,,,,,,,,,,,,,,,,,,,,sing7,001,2019_Oct_24_1645,ProdFawcett_Revision2019,3.2.3,60.05082702076868,
33,0,33,0,,,,,,,,,,,,,,,,,2816.414172399993,None,materials/singPic.jpg,touch,C_sing,33,332,2812.7198158999963,None,2812.7198158999963,None,2813.6613217999984,None,2813.916892999987,None,2813.916892999987,None,,,,,,,,,,,,,,,,,,,,,,,,,,,,,,,,,,,sing7,001,2019_Oct_24_1645,ProdFawcett_Revision2019,3.2.3,60.05082702076868,
34,0,34,0,,,,,,,,,,,,,,,,,2820.668237699996,None,materials/readPic.jpg,edition,A_silent,34,107,2816.9726004999975,None,2816.9726004999975,None,2817.932419699995,None,2818.184430699999,None,2818.184430699999,None,,,,,,,,,,,,,,,,,,,,,,,,,,,,,,,,,,,sing7,001,2019_Oct_24_1645,ProdFawcett_Revision2019,3.2.3,60.05082702076868,
35,0,35,0,,,,,,,,,,,,,,,,,2824.939929999993,None,materials/singPic.jpg,device,C_sing,35,93,2821.265185199998,None,2821.265185199998,None,2822.186565199998,None,2822.4493317999877,None,2822.4493317999877,None,,,,,,,,,,,,,,,,,,,,,,,,,,,,,,,,,,,sing7,001,2019_Oct_24_1645,ProdFawcett_Revision2019,3.2.3,60.05082702076868,
36,0,36,0,,,,,,,,,,,,,,,,,2829.2101440999977,None,materials/readPic.jpg,ground,A_silent,36,142,2825.521130699999,None,2825.521130699999,None,2826.457669999989,None,2826.7174210999947,None,2826.7174210999947,None,,,,,,,,,,,,,,,,,,,,,,,,,,,,,,,,,,,sing7,001,2019_Oct_24_1645,ProdFawcett_Revision2019,3.2.3,60.05082702076868,
37,0,37,0,,,,,,,,,,,,,,,,,2833.4810440999863,None,materials/readPic.jpg,finance,A_silent,37,129,2829.7856392999965,None,2829.7856392999965,None,2830.727775899999,None,2830.985812999992,None,2830.985812999992,None,,,,,,,,,,,,,,,,,,,,,,,,,,,,,,,,,,,sing7,001,2019_Oct_24_1645,ProdFawcett_Revision2019,3.2.3,60.05082702076868,
38,0,38,0,,,,,,,,,,,,,,,,,2837.7521416999953,None,materials/readPic.jpg,surface,A_silent,38,316,2834.0490747000003,None,2834.0490747000003,None,2834.999810899986,None,2835.256889299999,None,2835.256889299999,None,,,,,,,,,,,,,,,,,,,,,,,,,,,,,,,,,,,sing7,001,2019_Oct_24_1645,ProdFawcett_Revision2019,3.2.3,60.05082702076868,
39,0,39,0,,,,,,,,,,,,,,,,,2842.02319919999,None,materials/singPic.jpg,majority,C_sing,39,176,2838.3453268999874,None,2838.3453268999874,None,2839.2706341999874,None,2839.5396772999957,None,2839.5396772999957,None,,,,,,,,,,,,,,,,,,,,,,,,,,,,,,,,,,,sing7,001,2019_Oct_24_1645,ProdFawcett_Revision2019,3.2.3,60.05082702076868,
40,0,40,0,,,,,,,,,,,,,,,,,2846.2941128999955,None,materials/readPic.jpg,patient,A_silent,40,213,2842.6006747999927,None,2842.6006747999927,None,2843.5412450000003,None,2843.799830399992,None,2843.799830399992,None,,,,,,,,,,,,,,,,,,,,,,,,,,,,,,,,,,,sing7,001,2019_Oct_24_1645,ProdFawcett_Revision2019,3.2.3,60.05082702076868,
41,0,41,0,,,,,,,,,,,,,,,,,2850.5649429999903,None,materials/speakPic.jpg,enemy,B_aloud,41,113,2846.8797783999908,None,2846.8797783999908,None,2847.812286399989,None,2848.069294199988,None,2848.069294199988,None,,,,,,,,,,,,,,,,,,,,,,,,,,,,,,,,,,,sing7,001,2019_Oct_24_1645,ProdFawcett_Revision2019,3.2.3,60.05082702076868,
42,0,42,0,,,,,,,,,,,,,,,,,2854.835899499987,None,materials/speakPic.jpg,machinery,B_aloud,42,175,2851.1360601999913,None,2851.1360601999913,None,2852.0829823999957,None,2852.3400205999933,None,2852.3400205999933,None,,,,,,,,,,,,,,,,,,,,,,,,,,,,,,,,,,,sing7,001,2019_Oct_24_1645,ProdFawcett_Revision2019,3.2.3,60.05082702076868,
43,0,43,0,,,,,,,,,,,,,,,,,2859.090117099986,None,materials/speakPic.jpg,primary,B_aloud,43,234,2855.377949899994,None,2855.377949899994,None,2856.3570414999995,None,2856.6107448999974,None,2856.6107448999974,None,,,,,,,,,,,,,,,,,,,,,,,,,,,,,,,,,,,sing7,001,2019_Oct_24_1645,ProdFawcett_Revision2019,3.2.3,60.05082702076868,
44,0,44,0,,,,,,,,,,,,,,,,,2863.361053399989,None,materials/readPic.jpg,dream,A_silent,44,104,2859.697554299986,None,2859.697554299986,None,2860.608569399992,None,2860.866136599987,None,2860.866136599987,None,,,,,,,,,,,,,,,,,,,,,,,,,,,,,,,,,,,sing7,001,2019_Oct_24_1645,ProdFawcett_Revision2019,3.2.3,60.05082702076868,
45,0,45,0,,,,,,,,,,,,,,,,,2867.6318777999986,None,materials/singPic.jpg,interior,C_sing,45,164,2864.0006725999992,None,2864.0006725999992,None,2864.879045599999,None,2865.136597299992,None,2865.136597299992,None,,,,,,,,,,,,,,,,,,,,,,,,,,,,,,,,,,,sing7,001,2019_Oct_24_1645,ProdFawcett_Revision2019,3.2.3,60.05082702076868,
46,0,46,0,,,,,,,,,,,,,,,,,2871.902739799989,None,materials/singPic.jpg,harmony,C_sing,46,148,2868.213871099986,None,2868.213871099986,None,2869.1501556000003,None,2869.408694499987,None,2869.408694499987,None,,,,,,,,,,,,,,,,,,,,,,,,,,,,,,,,,,,sing7,001,2019_Oct_24_1645,ProdFawcett_Revision2019,3.2.3,60.05082702076868,
47,0,47,0,,,,,,,,,,,,,,,,,2876.17368729999,None,materials/readPic.jpg,junior,A_silent,47,167,2872.4771867999953,None,2872.4771867999953,None,2873.420926999999,None,2873.681349899998,None,2873.681349899998,None,,,,,,,,,,,,,,,,,,,,,,,,,,,,,,,,,,,sing7,001,2019_Oct_24_1645,ProdFawcett_Revision2019,3.2.3,60.05082702076868,
48,0,48,0,,,,,,,,,,,,,,,,,2880.4281697999977,None,materials/readPic.jpg,opening,A_silent,48,205,2876.7772354999906,None,2876.7772354999906,None,2877.6924011999945,None,2877.9512023999996,None,2877.9512023999996,None,,,,,,,,,,,,,,,,,,,,,,,,,,,,,,,,,,,sing7,001,2019_Oct_24_1645,ProdFawcett_Revision2019,3.2.3,60.05082702076868,
49,0,49,0,,,,,,,,,,,,,,,,,2884.699055099991,None,materials/singPic.jpg,payment,C_sing,49,215,2881.028123199998,None,2881.028123199998,None,2881.946115499988,None,2882.202945699988,None,2882.202945699988,None,,,,,,,,,,,,,,,,,,,,,,,,,,,,,,,,,,,sing7,001,2019_Oct_24_1645,ProdFawcett_Revision2019,3.2.3,60.05082702076868,
50,0,50,0,,,,,,,,,,,,,,,,,2888.969810099996,None,materials/readPic.jpg,relation,A_silent,50,257,2885.279819999996,None,2885.279819999996,None,2886.2170426999946,None,2886.470549999998,None,2886.470549999998,None,,,,,,,,,,,,,,,,,,,,,,,,,,,,,,,,,,,sing7,001,2019_Oct_24_1645,ProdFawcett_Revision2019,3.2.3,60.05082702076868,
51,0,51,0,,,,,,,,,,,,,,,,,2893.240733499988,None,materials/readPic.jpg,accident,A_silent,51,0,2889.5505481,None,2889.5505481,None,2890.488487399998,None,2890.7455757999996,None,2890.7455757999996,None,,,,,,,,,,,,,,,,,,,,,,,,,,,,,,,,,,,sing7,001,2019_Oct_24_1645,ProdFawcett_Revision2019,3.2.3,60.05082702076868,
52,0,52,0,,,,,,,,,,,,,,,,,2897.511810199998,None,materials/speakPic.jpg,education,B_aloud,52,108,2893.840332199994,None,2893.840332199994,None,2894.759166299991,None,2895.0165392999916,None,2895.0165392999916,None,,,,,,,,,,,,,,,,,,,,,,,,,,,,,,,,,,,sing7,001,2019_Oct_24_1645,ProdFawcett_Revision2019,3.2.3,60.05082702076868,
53,0,53,0,,,,,,,,,,,,,,,,,2901.7828769999905,None,materials/readPic.jpg,contract,A_silent,53,68,2898.0950891999964,None,2898.0950891999964,None,2899.032580199986,None,2899.287604399986,None,2899.287604399986,None,,,,,,,,,,,,,,,,,,,,,,,,,,,,,,,,,,,sing7,001,2019_Oct_24_1645,ProdFawcett_Revision2019,3.2.3,60.05082702076868,
54,0,54,0,,,,,,,,,,,,,,,,,2906.0536855999962,None,materials/speakPic.jpg,graduate,B_aloud,54,141,2902.351590099992,None,2902.351590099992,None,2903.3012373999954,None,2903.561039399996,None,2903.561039399996,None,,,,,,,,,,,,,,,,,,,,,,,,,,,,,,,,,,,sing7,001,2019_Oct_24_1645,ProdFawcett_Revision2019,3.2.3,60.05082702076868,
55,0,55,0,,,,,,,,,,,,,,,,,2910.3246210999932,None,materials/singPic.jpg,track,C_sing,55,334,2906.665454599992,None,2906.665454599992,None,2907.5720180999924,None,2907.8289439999935,None,2907.8289439999935,None,,,,,,,,,,,,,,,,,,,,,,,,,,,,,,,,,,,sing7,001,2019_Oct_24_1645,ProdFawcett_Revision2019,3.2.3,60.05082702076868,
56,0,56,0,,,,,,,,,,,,,,,,,2914.595624099995,None,materials/singPic.jpg,fashion,C_sing,56,125,2910.9082372999983,None,2910.9082372999983,None,2911.842782599997,None,2912.1055762999895,None,2912.1055762999895,None,,,,,,,,,,,,,,,,,,,,,,,,,,,,,,,,,,,sing7,001,2019_Oct_24_1645,ProdFawcett_Revision2019,3.2.3,60.05082702076868,
57,0,57,0,,,,,,,,,,,,,,,,,2918.866581299997,None,materials/speakPic.jpg,marriage,B_aloud,57,179,2915.182111099988,None,2915.182111099988,None,2916.113892399997,None,2916.375130399989,None,2916.375130399989,None,,,,,,,,,,,,,,,,,,,,,,,,,,,,,,,,,,,sing7,001,2019_Oct_24_1645,ProdFawcett_Revision2019,3.2.3,60.05082702076868,
58,0,58,0,,,,,,,,,,,,,,,,,2923.1374208999914,None,materials/speakPic.jpg,commercial,B_aloud,58,61,2919.451756299997,None,2919.451756299997,None,2920.383951099997,None,2920.6424173999985,None,2920.6424173999985,None,,,,,,,,,,,,,,,,,,,,,,,,,,,,,,,,,,,sing7,001,2019_Oct_24_1645,ProdFawcett_Revision2019,3.2.3,60.05082702076868,
59,0,59,0,,,,,,,,,,,,,,,,,2927.3917949999886,None,materials/singPic.jpg,title,C_sing,59,331,2923.6993033999897,None,2923.6993033999897,None,2924.6554520999925,None,2924.911965399995,None,2924.911965399995,None,,,,,,,,,,,,,,,,,,,,,,,,,,,,,,,,,,,sing7,001,2019_Oct_24_1645,ProdFawcett_Revision2019,3.2.3,60.05082702076868,
60,0,60,0,,,,,,,,,,,,,,,,,2931.6626072999934,None,materials/singPic.jpg,skill,C_sing,60,289,2927.9760192999966,None,2927.9760192999966,None,2928.9097216999944,None,2929.1673310999904,None,2929.1673310999904,None,,,,,,,,,,,,,,,,,,,,,,,,,,,,,,,,,,,sing7,001,2019_Oct_24_1645,ProdFawcett_Revision2019,3.2.3,60.05082702076868,
61,0,61,0,,,,,,,,,,,,,,,,,2935.933383399999,None,materials/readPic.jpg,threat,A_silent,61,329,2932.2363259999984,None,2932.2363259999984,None,2933.1807812999905,None,2933.4312404999946,None,2933.4312404999946,None,,,,,,,,,,,,,,,,,,,,,,,,,,,,,,,,,,,sing7,001,2019_Oct_24_1645,ProdFawcett_Revision2019,3.2.3,60.05082702076868,
62,0,62,0,,,,,,,,,,,,,,,,,2940.2043069999927,None,materials/readPic.jpg,research,A_silent,62,261,2936.5138664999977,None,2936.5138664999977,None,2937.4507720999973,None,2937.7081521999935,None,2937.7081521999935,None,,,,,,,,,,,,,,,,,,,,,,,,,,,,,,,,,,,sing7,001,2019_Oct_24_1645,ProdFawcett_Revision2019,3.2.3,60.05082702076868,
63,0,63,0,,,,,,,,,,,,,,,,,2944.47541069999,None,materials/speakPic.jpg,material,B_aloud,63,182,2940.789987199998,None,2940.789987199998,None,2941.7226643999893,None,2941.9795850999944,None,2941.9795850999944,None,,,,,,,,,,,,,,,,,,,,,,,,,,,,,,,,,,,sing7,001,2019_Oct_24_1645,ProdFawcett_Revision2019,3.2.3,60.05082702076868,
64,0,64,0,,,,,,,,,,,,,,,,,2948.746145799989,None,materials/readPic.jpg,department,A_silent,64,90,2945.0688777999894,None,2945.0688777999894,None,2945.9936249999882,None,2946.2510942999943,None,2946.2510942999943,None,,,,,,,,,,,,,,,,,,,,,,,,,,,,,,,,,,,sing7,001,2019_Oct_24_1645,ProdFawcett_Revision2019,3.2.3,60.05082702076868,
65,0,65,0,,,,,,,,,,,,,,,,,2953.017200699993,None,materials/singPic.jpg,treatment,C_sing,65,339,2949.343533499996,None,2949.343533499996,None,2950.2647679999936,None,2950.5245364,None,2950.5245364,None,,,,,,,,,,,,,,,,,,,,,,,,,,,,,,,,,,,sing7,001,2019_Oct_24_1645,ProdFawcett_Revision2019,3.2.3,60.05082702076868,
66,0,66,0,,,,,,,,,,,,,,,,,2957.288203899996,None,materials/speakPic.jpg,shock,B_aloud,66,284,2953.5903409999883,None,2953.5903409999883,None,2954.5354408999992,None,2954.79101429999,None,2954.79101429999,None,,,,,,,,,,,,,,,,,,,,,,,,,,,,,,,,,,,sing7,001,2019_Oct_24_1645,ProdFawcett_Revision2019,3.2.3,60.05082702076868,
67,0,67,0,,,,,,,,,,,,,,,,,2961.5593826999975,None,materials/readPic.jpg,platform,A_silent,67,224,2957.8951631999953,None,2957.8951631999953,None,2958.8063631999976,None,2959.0637047999917,None,2959.0637047999917,None,,,,,,,,,,,,,,,,,,,,,,,,,,,,,,,,,,,sing7,001,2019_Oct_24_1645,ProdFawcett_Revision2019,3.2.3,60.05082702076868,
68,0,68,0,,,,,,,,,,,,,,,,,2965.8300660999957,None,materials/readPic.jpg,month,A_silent,68,193,2962.1356989999913,None,2962.1356989999913,None,2963.0773270999925,None,2963.3329835999903,None,2963.3329835999903,None,,,,,,,,,,,,,,,,,,,,,,,,,,,,,,,,,,,sing7,001,2019_Oct_24_1645,ProdFawcett_Revision2019,3.2.3,60.05082702076868,
69,0,69,0,,,,,,,,,,,,,,,,,2970.1009960999945,None,materials/singPic.jpg,death,C_sing,69,86,2966.4263184999872,None,2966.4263184999872,None,2967.347903899994,None,2967.6054004999896,None,2967.6054004999896,None,,,,,,,,,,,,,,,,,,,,,,,,,,,,,,,,,,,sing7,001,2019_Oct_24_1645,ProdFawcett_Revision2019,3.2.3,60.05082702076868,
70,0,70,0,,,,,,,,,,,,,,,,,2974.371972699999,None,materials/singPic.jpg,pretty,C_sing,70,233,2970.735685599997,None,2970.735685599997,None,2971.619009499991,None,2971.8767278999876,None,2971.8767278999876,None,,,,,,,,,,,,,,,,,,,,,,,,,,,,,,,,,,,sing7,001,2019_Oct_24_1645,ProdFawcett_Revision2019,3.2.3,60.05082702076868,
71,0,71,0,,,,,,,,,,,,,,,,,2978.6262225999963,None,materials/singPic.jpg,chief,C_sing,71,48,2974.9555863999994,None,2974.9555863999994,None,2975.8891233999893,None,2976.147027999992,None,2976.147027999992,None,,,,,,,,,,,,,,,,,,,,,,,,,,,,,,,,,,,sing7,001,2019_Oct_24_1645,ProdFawcett_Revision2019,3.2.3,60.05082702076868,
72,0,72,0,,,,,,,,,,,,,,,,,2982.897133499995,None,materials/readPic.jpg,build,A_silent,72,35,2979.2097169999906,None,2979.2097169999906,None,2980.1443773999927,None,2980.4028774999897,None,2980.4028774999897,None,,,,,,,,,,,,,,,,,,,,,,,,,,,,,,,,,,,sing7,001,2019_Oct_24_1645,ProdFawcett_Revision2019,3.2.3,60.05082702076868,
73,0,73,0,,,,,,,,,,,,,,,,,2987.1682533999992,None,materials/singPic.jpg,question,C_sing,73,247,2983.4799248999916,None,2983.4799248999916,None,2984.415125399988,None,2984.6808927999955,None,2984.6808927999955,None,,,,,,,,,,,,,,,,,,,,,,,,,,,,,,,,,,,sing7,001,2019_Oct_24_1645,ProdFawcett_Revision2019,3.2.3,60.05082702076868,
74,0,74,0,,,,,,,,,,,,,,,,,2991.439004199987,None,materials/speakPic.jpg,trash,B_aloud,74,337,2987.7631706999964,None,2987.7631706999964,None,2988.686024699986,None,2988.941761299997,None,2988.941761299997,None,,,,,,,,,,,,,,,,,,,,,,,,,,,,,,,,,,,sing7,001,2019_Oct_24_1645,ProdFawcett_Revision2019,3.2.3,60.05082702076868,
75,0,75,0,,,,,,,,,,,,,,,,,2995.7098949999927,None,materials/singPic.jpg,center,C_sing,75,44,2992.0212362999882,None,2992.0212362999882,None,2992.9570662999904,None,2993.2141204999934,None,2993.2141204999934,None,,,,,,,,,,,,,,,,,,,,,,,,,,,,,,,,,,,sing7,001,2019_Oct_24_1645,ProdFawcett_Revision2019,3.2.3,60.05082702076868,
76,0,76,0,,,,,,,,,,,,,,,,,2999.9808463999943,None,materials/speakPic.jpg,nation,B_aloud,76,198,2996.2801757999987,None,2996.2801757999987,None,2997.227239099986,None,2997.4852519999986,None,2997.4852519999986,None,,,,,,,,,,,,,,,,,,,,,,,,,,,,,,,,,,,sing7,001,2019_Oct_24_1645,ProdFawcett_Revision2019,3.2.3,60.05082702076868,
77,0,77,0,,,,,,,,,,,,,,,,,3004.252125999992,None,materials/readPic.jpg,subject,A_silent,77,312,3000.590040799987,None,3000.590040799987,None,3001.499275299997,None,3001.7632460999885,None,3001.7632460999885,None,,,,,,,,,,,,,,,,,,,,,,,,,,,,,,,,,,,sing7,001,2019_Oct_24_1645,ProdFawcett_Revision2019,3.2.3,60.05082702076868,
78,0,78,0,,,,,,,,,,,,,,,,,3008.522732799989,None,materials/speakPic.jpg,quantity,B_aloud,78,245,3004.8255498999933,None,3004.8255498999933,None,3005.770203399996,None,3006.030927,None,3006.030927,None,,,,,,,,,,,,,,,,,,,,,,,,,,,,,,,,,,,sing7,001,2019_Oct_24_1645,ProdFawcett_Revision2019,3.2.3,60.05082702076868,
79,0,79,0,,,,,,,,,,,,,,,,,3012.7936469999986,None,materials/singPic.jpg,atmosphere,C_sing,79,12,3009.104408199986,None,3009.104408199986,None,3010.0409186999896,None,3010.3004545000003,None,3010.3004545000003,None,,,,,,,,,,,,,,,,,,,,,,,,,,,,,,,,,,,sing7,001,2019_Oct_24_1645,ProdFawcett_Revision2019,3.2.3,60.05082702076868,
80,0,80,0,,,,,,,,,,,,,,,,,3017.0646150999964,None,materials/speakPic.jpg,impact,B_aloud,80,157,3013.3701516,None,3013.3701516,None,3014.311594599989,None,3014.5707920999994,None,3014.5707920999994,None,,,,,,,,,,,,,,,,,,,,,,,,,,,,,,,,,,,sing7,001,2019_Oct_24_1645,ProdFawcett_Revision2019,3.2.3,60.05082702076868,
81,0,81,0,,,,,,,,,,,,,,,,,3021.3356473999884,None,materials/singPic.jpg,industry,C_sing,81,161,3017.6498785999866,None,3017.6498785999866,None,3018.5827509999945,None,3018.840199099999,None,3018.840199099999,None,,,,,,,,,,,,,,,,,,,,,,,,,,,,,,,,,,,sing7,001,2019_Oct_24_1645,ProdFawcett_Revision2019,3.2.3,60.05082702076868,
82,0,82,0,,,,,,,,,,,,,,,,,3025.606422099998,None,materials/readPic.jpg,dance,A_silent,82,84,3021.929759199993,None,3021.929759199993,None,3022.853951699988,None,3023.110161199991,None,3023.110161199991,None,,,,,,,,,,,,,,,,,,,,,,,,,,,,,,,,,,,sing7,001,2019_Oct_24_1645,ProdFawcett_Revision2019,3.2.3,60.05082702076868,
83,0,83,0,,,,,,,,,,,,,,,,,3029.876617099988,None,materials/singPic.jpg,weight,C_sing,83,353,3026.1902906999894,None,3026.1902906999894,None,3027.123474299995,None,3027.385850199993,None,3027.385850199993,None,,,,,,,,,,,,,,,,,,,,,,,,,,,,,,,,,,,sing7,001,2019_Oct_24_1645,ProdFawcett_Revision2019,3.2.3,60.05082702076868,
84,0,84,0,,,,,,,,,,,,,,,,,3034.1482942000002,None,materials/readPic.jpg,sight,A_silent,84,286,3030.441733799991,None,3030.441733799991,None,3031.3954489999887,None,3031.6558049999876,None,3031.6558049999876,None,,,,,,,,,,,,,,,,,,,,,,,,,,,,,,,,,,,sing7,001,2019_Oct_24_1645,ProdFawcett_Revision2019,3.2.3,60.05082702076868,
85,0,85,0,,,,,,,,,,,,,,,,,3038.41925169999,None,materials/readPic.jpg,crime,A_silent,85,78,3034.7522880999895,None,3034.7522880999895,None,3035.6664796999976,None,3035.92353,None,3035.92353,None,,,,,,,,,,,,,,,,,,,,,,,,,,,,,,,,,,,sing7,001,2019_Oct_24_1645,ProdFawcett_Revision2019,3.2.3,60.05082702076868,
86,0,86,0,,,,,,,,,,,,,,,,,3042.6901511999895,None,materials/singPic.jpg,reach,C_sing,86,253,3039.0089708999876,None,3039.0089708999876,None,3039.9375318999955,None,3040.2010171,None,3040.2010171,None,,,,,,,,,,,,,,,,,,,,,,,,,,,,,,,,,,,sing7,001,2019_Oct_24_1645,ProdFawcett_Revision2019,3.2.3,60.05082702076868,
87,0,87,0,,,,,,,,,,,,,,,,,3046.960947399988,None,materials/readPic.jpg,sleep,A_silent,87,290,3043.2655147999903,None,3043.2655147999903,None,3044.2083130999963,None,3044.4648364999885,None,3044.4648364999885,None,,,,,,,,,,,,,,,,,,,,,,,,,,,,,,,,,,,sing7,001,2019_Oct_24_1645,ProdFawcett_Revision2019,3.2.3,60.05082702076868,
88,0,88,0,,,,,,,,,,,,,,,,,3051.2315003999975,None,materials/singPic.jpg,theme,C_sing,88,326,3047.598330599998,None,3047.598330599998,None,3048.479113999987,None,3048.7350917000003,None,3048.7350917000003,None,,,,,,,,,,,,,,,,,,,,,,,,,,,,,,,,,,,sing7,001,2019_Oct_24_1645,ProdFawcett_Revision2019,3.2.3,60.05082702076868,
89,0,89,0,,,,,,,,,,,,,,,,,3055.5028072999994,None,materials/readPic.jpg,victory,A_silent,89,346,3051.8111777999875,None,3051.8111777999875,None,3052.753364999997,None,3053.0132581999933,None,3053.0132581999933,None,,,,,,,,,,,,,,,,,,,,,,,,,,,,,,,,,,,sing7,001,2019_Oct_24_1645,ProdFawcett_Revision2019,3.2.3,60.05082702076868,
,,,,,,,,,,,,,,,,,,,,,,,,,,,,,,,,,,,,,3056.003309599997,None,k,69.36173740000231,3056.003309599997,None,,,,,,,,,,,,,,,,,,,,,,,,,,,,,sing7,001,2019_Oct_24_1645,ProdFawcett_Revision2019,3.2.3,60.05082702076868,
,,,,,,,,,,,,,,3125.3894825999887,None,space,0.9915514999884181,3125.3894825999887,None,,,,,,,,,,,,,,,,,,,,,,,,,,,,,,,,,,,,,,,,,,,,,,,,,,,,sing7,001,2019_Oct_24_1645,ProdFawcett_Revision2019,3.2.3,60.05082702076868,
,,,,0,0,0,0,,,,,,,,,,,,,3140.892260099994,None,,,,,,,,,,,,,,,,,,,,,,series,D_new,0,279,3126.9288443999976,None,3126.9288443999976,None,3126.9288443999976,None,1,8.852680199997849,3126.9288443999976,None,3135.8242025999934,None,3135.8242025999934,None,3136.347930799995,None,3136.347930799995,None,3136.347930799995,None,n,4.512918599997647,3136.347930799995,None,sing7,001,2019_Oct_24_1645,ProdFawcett_Revision2019,3.2.3,60.05082702076868,
,,,,1,0,1,0,,,,,,,,,,,,,3145.7607857999974,None,,,,,,,,,,,,,,,,,,,,,,guest,D_new,1,146,3141.416150499994,None,3141.416150499994,None,3141.416150499994,None,1,2.6449486000055913,3141.416150499994,None,3144.1215140999993,None,3144.1215140999993,None,3144.6408126999886,None,3144.6408126999886,None,3144.6408126999886,None,n,1.0762337999913143,3144.6408126999886,None,sing7,001,2019_Oct_24_1645,ProdFawcett_Revision2019,3.2.3,60.05082702076868,
,,,,2,0,2,0,,,,,,,,,,,,,3149.2438559999864,None,,,,,,,,,,,,,,,,,,,,,,breath,D_new,2,27,3146.2802964,None,3146.2802964,None,3146.2802964,None,1,1.5971283999970183,3146.2802964,None,3147.9225554999866,None,3147.9225554999866,None,3148.446249799992,None,3148.446249799992,None,3148.446249799992,None,n,0.7588458999962313,3148.446249799992,None,sing7,001,2019_Oct_24_1645,ProdFawcett_Revision2019,3.2.3,60.05082702076868,
,,,,3,0,3,0,,,,,,,,,,,,,3155.9671608999925,None,,,,,,,,,,,,,,,,,,,,,,weight,C_sing,3,353,3149.768975599989,None,3149.768975599989,None,3149.768975599989,None,6,2.547962800003006,3149.768975599989,None,3152.363917399998,None,3152.363917399998,None,3152.891453599994,None,3152.891453599994,None,3152.891453599994,None,r,3.0416303999954835,3152.891453599994,None,sing7,001,2019_Oct_24_1645,ProdFawcett_Revision2019,3.2.3,60.05082702076868,
,,,,4,0,4,0,,,,,,,,,,,,,3163.074404599989,None,,,,,,,,,,,,,,,,,,,,,,skill,C_sing,4,289,3156.4853460999875,None,3156.4853460999875,None,3156.4853460999875,None,3,4.295731699996395,3156.4853460999875,None,3160.8321234999894,None,3160.8321234999894,None,3161.352685299993,None,3161.352685299993,None,3161.352685299993,None,f,1.676420000003418,3161.352685299993,None,sing7,001,2019_Oct_24_1645,ProdFawcett_Revision2019,3.2.3,60.05082702076868,
,,,,5,0,5,0,,,,,,,,,,,,,3166.178158399998,None,,,,,,,,,,,,,,,,,,,,,,edition,A_silent,5,107,3163.593931899988,None,3163.593931899988,None,3163.593931899988,None,1,1.5792712999973446,3163.593931899988,None,3165.2219743999885,None,3165.2219743999885,None,3165.743887699995,None,3165.743887699995,None,3165.743887699995,None,n,0.39735499999369495,3165.743887699995,None,sing7,001,2019_Oct_24_1645,ProdFawcett_Revision2019,3.2.3,60.05082702076868,
,,,,6,0,6,0,,,,,,,,,,,,,3173.6025767999963,None,,,,,,,,,,,,,,,,,,,,,,finance,A_silent,6,129,3166.6933075999987,None,3166.6933075999987,None,3166.6933075999987,None,4,5.2397474000026705,3166.6933075999987,None,3171.975536599988,None,3171.975536599988,None,3172.4992798999883,None,3172.4992798999883,None,3172.4992798999883,None,f,1.0659463000047253,3172.4992798999883,None,sing7,001,2019_Oct_24_1645,ProdFawcett_Revision2019,3.2.3,60.05082702076868,
,,,,7,0,7,0,,,,,,,,,,,,,3176.983252299993,None,,,,,,,,,,,,,,,,,,,,,,estate,D_new,7,119,3174.12153009999,None,3174.12153009999,None,3174.12153009999,None,1,1.5960154000058537,3174.12153009999,None,3175.7668406999874,None,3175.7668406999874,None,3176.2890237999964,None,3176.2890237999964,None,3176.2890237999964,None,n,0.6436867999873357,3176.2890237999964,None,sing7,001,2019_Oct_24_1645,ProdFawcett_Revision2019,3.2.3,60.05082702076868,
,,,,8,0,8,0,,,,,,,,,,,,,3184.095100499995,None,,,,,,,,,,,,,,,,,,,,,,touch,C_sing,8,332,3177.49868769999,None,3177.49868769999,None,3177.49868769999,None,5,4.80249499999627,3177.49868769999,None,3182.354812199992,None,3182.354812199992,None,3182.875073999996,None,3182.875073999996,None,3182.875073999996,None,f,1.1780138000031002,3182.875073999996,None,sing7,001,2019_Oct_24_1645,ProdFawcett_Revision2019,3.2.3,60.05082702076868,
,,,,9,0,9,0,,,,,,,,,,,,,3188.5188837999885,None,,,,,,,,,,,,,,,,,,,,,,payment,C_sing,9,215,3184.615520799998,None,3184.615520799998,None,3184.615520799998,None,6,2.077533500007121,3184.615520799998,None,3186.738524399989,None,3186.738524399989,None,3187.2630506999994,None,3187.2630506999994,None,3187.2630506999994,None,r,1.2223299999895971,3187.2630506999994,None,sing7,001,2019_Oct_24_1645,ProdFawcett_Revision2019,3.2.3,60.05082702076868,
,,,,10,0,10,0,,,,,,,,,,,,,3191.774361299991,None,,,,,,,,,,,,,,,,,,,,,,review,D_new,10,263,3189.0412851,None,3189.0412851,None,3189.0412851,None,1,1.508045199996559,3189.0412851,None,3190.6002219999937,None,3190.6002219999937,None,3191.123217699991,None,3191.123217699991,None,3191.123217699991,None,n,0.6100748000026215,3191.123217699991,None,sing7,001,2019_Oct_24_1645,ProdFawcett_Revision2019,3.2.3,60.05082702076868,
,,,,11,0,11,0,,,,,,,,,,,,,3196.3249998999963,None,,,,,,,,,,,,,,,,,,,,,,prime,D_new,11,235,3192.3065743999905,None,3192.3065743999905,None,3192.3065743999905,None,2,2.4986074000044027,3192.3065743999905,None,3194.8518033999862,None,3194.8518033999862,None,3195.3744880999875,None,3195.3744880999875,None,3195.3744880999875,None,f,0.9105834000074537,3195.3744880999875,None,sing7,001,2019_Oct_24_1645,ProdFawcett_Revision2019,3.2.3,60.05082702076868,
,,,,12,0,12,0,,,,,,,,,,,,,3199.910948299992,None,,,,,,,,,,,,,,,,,,,,,,phrase,D_new,12,220,3196.8428102999897,None,3196.8428102999897,None,3196.8428102999897,None,1,1.7622979000007035,3196.8428102999897,None,3198.648732799993,None,3198.648732799993,None,3199.1766017999907,None,3199.1766017999907,None,3199.1766017999907,None,n,0.692423400003463,3199.1766017999907,None,sing7,001,2019_Oct_24_1645,ProdFawcett_Revision2019,3.2.3,60.05082702076868,
,,,,13,0,13,0,,,,,,,,,,,,,3203.964585499998,None,,,,,,,,,,,,,,,,,,,,,,chief,C_sing,13,48,3200.4298775999923,None,3200.4298775999923,None,3200.4298775999923,None,6,1.8068943999969633,3200.4298775999923,None,3202.2777583999996,None,3202.2777583999996,None,3202.7963369999925,None,3202.7963369999925,None,3202.7963369999925,None,r,1.1370636999927228,3202.7963369999925,None,sing7,001,2019_Oct_24_1645,ProdFawcett_Revision2019,3.2.3,60.05082702076868,
,,,,14,0,14,0,,,,,,,,,,,,,3208.954215599995,None,,,,,,,,,,,,,,,,,,,,,,medicine,B_aloud,14,186,3204.4841554999875,None,3204.4841554999875,None,3204.4841554999875,None,5,3.1129120999976294,3204.4841554999875,None,3207.6486996999884,None,3207.6486996999884,None,3208.1658692999918,None,3208.1658692999918,None,3208.1658692999918,None,f,0.7432197000016458,3208.1658692999918,None,sing7,001,2019_Oct_24_1645,ProdFawcett_Revision2019,3.2.3,60.05082702076868,
,,,,15,0,15,0,,,,,,,,,,,,,3212.357645099997,None,,,,,,,,,,,,,,,,,,,,,,block,D_new,15,25,3209.4743069999968,None,3209.4743069999968,None,3209.4743069999968,None,1,1.738889600004768,3209.4743069999968,None,3211.2690353999933,None,3211.2690353999933,None,3211.7904913999955,None,3211.7904913999955,None,3211.7904913999955,None,n,0.526749500000733,3211.7904913999955,None,sing7,001,2019_Oct_24_1645,ProdFawcett_Revision2019,3.2.3,60.05082702076868,
,,,,16,0,16,0,,,,,,,,,,,,,3215.3271913999924,None,,,,,,,,,,,,,,,,,,,,,,military,D_new,16,190,3212.8759337999945,None,3212.8759337999945,None,3212.8759337999945,None,1,1.4330920999927912,3212.8759337999945,None,3214.3537889,None,3214.3537889,None,3214.876301199998,None,3214.876301199998,None,3214.876301199998,None,n,0.41677310000522994,3214.876301199998,None,sing7,001,2019_Oct_24_1645,ProdFawcett_Revision2019,3.2.3,60.05082702076868,
,,,,17,0,17,0,,,,,,,,,,,,,3218.5319028999947,None,,,,,,,,,,,,,,,,,,,,,,crisis,D_new,17,79,3215.8462134,None,3215.8462134,None,3215.8462134,None,1,1.7108437999995658,3215.8462134,None,3217.6041206999944,None,3217.6041206999944,None,3218.1281219999946,None,3218.1281219999946,None,3218.1281219999946,None,n,0.35697999999683816,3218.1281219999946,None,sing7,001,2019_Oct_24_1645,ProdFawcett_Revision2019,3.2.3,60.05082702076868,
,,,,18,0,18,0,,,,,,,,,,,,,3221.9005457999883,None,,,,,,,,,,,,,,,,,,,,,,quarter,D_new,18,246,3219.0598643999983,None,3219.0598643999983,None,3219.0598643999983,None,1,2.001169299997855,3219.0598643999983,None,3221.113531099996,None,3221.113531099996,None,3221.634466699994,None,3221.634466699994,None,3221.634466699994,None,n,0.22659180000482593,3221.634466699994,None,sing7,001,2019_Oct_24_1645,ProdFawcett_Revision2019,3.2.3,60.05082702076868,
,,,,19,0,19,0,,,,,,,,,,,,,3224.7555734999914,None,,,,,,,,,,,,,,,,,,,,,,disease,D_new,19,97,3222.4143938999914,None,3222.4143938999914,None,3222.4143938999914,None,1,1.4551639999990584,3222.4143938999914,None,3223.9084304999997,None,3223.9084304999997,None,3224.4345059999905,None,3224.4345059999905,None,3224.4345059999905,None,n,0.2826428999978816,3224.4345059999905,None,sing7,001,2019_Oct_24_1645,ProdFawcett_Revision2019,3.2.3,60.05082702076868,
,,,,20,0,20,0,,,,,,,,,,,,,3227.850909399989,None,,,,,,,,,,,,,,,,,,,,,,south,D_new,20,296,3225.2703361999884,None,3225.2703361999884,None,3225.2703361999884,None,1,1.4866757999989204,3225.2703361999884,None,3226.7873884,None,3226.7873884,None,3227.297493399994,None,3227.297493399994,None,3227.297493399994,None,n,0.5155076999944868,3227.297493399994,None,sing7,001,2019_Oct_24_1645,ProdFawcett_Revision2019,3.2.3,60.05082702076868,
,,,,21,0,21,0,,,,,,,,,,,,,3230.891331199993,None,,,,,,,,,,,,,,,,,,,,,,clear,D_new,21,52,3228.3716363999993,None,3228.3716363999993,None,3228.3716363999993,None,1,1.6572607999987667,3228.3716363999993,None,3230.082362699992,None,3230.082362699992,None,3230.599769399996,None,3230.599769399996,None,3230.599769399996,None,n,0.25331650000589434,3230.599769399996,None,sing7,001,2019_Oct_24_1645,ProdFawcett_Revision2019,3.2.3,60.05082702076868,
,,,,22,0,22,0,,,,,,,,,,,,,3233.728689399999,None,,,,,,,,,,,,,,,,,,,,,,surprise,D_new,22,317,3231.412022199991,None,3231.412022199991,None,3231.412022199991,None,1,1.4970335999969393,3231.412022199991,None,3232.9559838999994,None,3232.9559838999994,None,3233.477545499991,None,3233.477545499991,None,3233.477545499991,None,n,0.21574420000251848,3233.477545499991,None,sing7,001,2019_Oct_24_1645,ProdFawcett_Revision2019,3.2.3,60.05082702076868,
,,,,23,0,23,0,,,,,,,,,,,,,3236.6806142999994,None,,,,,,,,,,,,,,,,,,,,,,conference,D_new,23,66,3234.248093199989,None,3234.248093199989,None,3234.248093199989,None,1,1.669151599999168,3234.248093199989,None,3235.9601855999936,None,3235.9601855999936,None,3236.488835199998,None,3236.488835199998,None,3236.488835199998,None,n,0.15636069999891333,3236.488835199998,None,sing7,001,2019_Oct_24_1645,ProdFawcett_Revision2019,3.2.3,60.05082702076868,
,,,,24,0,24,0,,,,,,,,,,,,,3239.6344353999884,None,,,,,,,,,,,,,,,,,,,,,,rapid,D_new,24,252,3237.187968699989,None,3237.187968699989,None,3237.187968699989,None,1,1.321137799997814,3237.187968699989,None,3238.5664936999965,None,3238.5664936999965,None,3239.0816873999865,None,3239.0816873999865,None,3239.0816873999865,None,n,0.507304099999601,3239.0816873999865,None,sing7,001,2019_Oct_24_1645,ProdFawcett_Revision2019,3.2.3,60.05082702076868,
,,,,25,0,25,0,,,,,,,,,,,,,3242.7032634999923,None,,,,,,,,,,,,,,,,,,,,,,second,D_new,25,278,3240.1562092999957,None,3240.1562092999957,None,3240.1562092999957,None,1,1.6167715000046883,3240.1562092999957,None,3241.811708299996,None,3241.811708299996,None,3242.3359768999944,None,3242.3359768999944,None,3242.3359768999944,None,n,0.33321679999062326,3242.3359768999944,None,sing7,001,2019_Oct_24_1645,ProdFawcett_Revision2019,3.2.3,60.05082702076868,
,,,,26,0,26,0,,,,,,,,,,,,,3246.472697499994,None,,,,,,,,,,,,,,,,,,,,,,contract,A_silent,26,68,3243.2227181999915,None,3243.2227181999915,None,3243.2227181999915,None,3,1.814582999999402,3243.2227181999915,None,3245.0825116999913,None,3245.0825116999913,None,3245.604876799989,None,3245.604876799989,None,3245.604876799989,None,f,0.82414460000291,3245.604876799989,None,sing7,001,2019_Oct_24_1645,ProdFawcett_Revision2019,3.2.3,60.05082702076868,
,,,,27,0,27,0,,,,,,,,,,,,,3250.2849610999983,None,,,,,,,,,,,,,,,,,,,,,,partner,A_silent,27,211,3246.982538499986,None,3246.982538499986,None,3246.982538499986,None,6,1.6144143999990774,3246.982538499986,None,3248.623606399997,None,3248.623606399997,None,3249.1435058999923,None,3249.1435058999923,None,3249.1435058999923,None,f,1.109319700000924,3249.1435058999923,None,sing7,001,2019_Oct_24_1645,ProdFawcett_Revision2019,3.2.3,60.05082702076868,
,,,,28,0,28,0,,,,,,,,,,,,,3253.3813079999964,None,,,,,,,,,,,,,,,,,,,,,,drama,D_new,28,103,3250.8013909999863,None,3250.8013909999863,None,3250.8013909999863,None,1,1.7800583999924129,3250.8013909999863,None,3252.6261782999936,None,3252.6261782999936,None,3253.145141099987,None,3253.145141099987,None,3253.145141099987,None,n,0.19589930000074673,3253.145141099987,None,sing7,001,2019_Oct_24_1645,ProdFawcett_Revision2019,3.2.3,60.05082702076868,
,,,,29,0,29,0,,,,,,,,,,,,,3256.215942499999,None,,,,,,,,,,,,,,,,,,,,,,force,D_new,29,131,3253.8997516999952,None,3253.8997516999952,None,3253.8997516999952,None,1,1.5933424000104424,3253.8997516999952,None,3255.5477646999934,None,3255.5477646999934,None,3256.0659629999864,None,3256.0659629999864,None,3256.0659629999864,None,n,0.12305570000899024,3256.0659629999864,None,sing7,001,2019_Oct_24_1645,ProdFawcett_Revision2019,3.2.3,60.05082702076868,
,,,,30,0,30,0,,,,,,,,,,,,,3259.404876799992,None,,,,,,,,,,,,,,,,,,,,,,business,D_new,30,38,3256.7461410999967,None,3256.7461410999967,None,3256.7461410999967,None,2,1.5469209000002593,3256.7461410999967,None,3258.344905799997,None,3258.344905799997,None,3258.8711662999995,None,3258.8711662999995,None,3258.8711662999995,None,n,0.49385120000806637,3258.8711662999995,None,sing7,001,2019_Oct_24_1645,ProdFawcett_Revision2019,3.2.3,60.05082702076868,
,,,,31,0,31,0,,,,,,,,,,,,,3262.873948399996,None,,,,,,,,,,,,,,,,,,,,,,sight,A_silent,31,286,3259.928648199988,None,3259.928648199988,None,3259.928648199988,None,1,2.156411499992828,3259.928648199988,None,3262.1389614999935,None,3262.1389614999935,None,3262.646487699996,None,3262.646487699996,None,3262.646487699996,None,n,0.19862060000014026,3262.646487699996,None,sing7,001,2019_Oct_24_1645,ProdFawcett_Revision2019,3.2.3,60.05082702076868,
,,,,32,0,32,0,,,,,,,,,,,,,3268.279888399993,None,,,,,,,,,,,,,,,,,,,,,,discovery,D_new,32,95,3263.400535599998,None,3263.400535599998,None,3263.400535599998,None,2,3.9321443000080762,3263.400535599998,None,3267.3747162999935,None,3267.3747162999935,None,3267.899688599995,None,3267.899688599995,None,3267.899688599995,None,f,0.3373569999967003,3267.899688599995,None,sing7,001,2019_Oct_24_1645,ProdFawcett_Revision2019,3.2.3,60.05082702076868,
,,,,33,0,33,0,,,,,,,,,,,,,3271.081340799996,None,,,,,,,,,,,,,,,,,,,,,,right,D_new,33,265,3268.8032011999894,None,3268.8032011999894,None,3268.8032011999894,None,1,1.273884199996246,3268.8032011999894,None,3270.1303415,None,3270.1303415,None,3270.652391599986,None,3270.652391599986,None,3270.652391599986,None,n,0.3848582999926293,3270.652391599986,None,sing7,001,2019_Oct_24_1645,ProdFawcett_Revision2019,3.2.3,60.05082702076868,
,,,,34,0,34,0,,,,,,,,,,,,,3275.736725499999,None,,,,,,,,,,,,,,,,,,,,,,article,C_sing,34,11,3271.600614699986,None,3271.600614699986,None,3271.600614699986,None,6,2.2286040000035428,3271.600614699986,None,3273.879937999998,None,3273.879937999998,None,3274.4010207999963,None,3274.4010207999963,None,3274.4010207999963,None,f,1.3001515999931144,3274.4010207999963,None,sing7,001,2019_Oct_24_1645,ProdFawcett_Revision2019,3.2.3,60.05082702076868,
,,,,35,0,35,0,,,,,,,,,,,,,3279.4418154999876,None,,,,,,,,,,,,,,,,,,,,,,personnel,D_new,35,219,3276.2554265999934,None,3276.2554265999934,None,3276.2554265999934,None,1,2.221430000005057,3276.2554265999934,None,3278.517823199989,None,3278.517823199989,None,3279.03899049999,None,3279.03899049999,None,3279.03899049999,None,n,0.3661028000060469,3279.03899049999,None,sing7,001,2019_Oct_24_1645,ProdFawcett_Revision2019,3.2.3,60.05082702076868,
,,,,36,0,36,0,,,,,,,,,,,,,3284.8621716999914,None,,,,,,,,,,,,,,,,,,,,,,running,C_sing,36,268,3279.9637879999937,None,3279.9637879999937,None,3279.9637879999937,None,2,3.7453225000062957,3279.9637879999937,None,3283.7547408999962,None,3283.7547408999962,None,3284.2798473000003,None,3284.2798473000003,None,3284.2798473000003,None,f,0.5491341000015382,3284.2798473000003,None,sing7,001,2019_Oct_24_1645,ProdFawcett_Revision2019,3.2.3,60.05082702076868,
,,,,37,0,37,0,,,,,,,,,,,,,3287.7646981,None,,,,,,,,,,,,,,,,,,,,,,defeat,D_new,37,88,3285.381861499991,None,3285.381861499991,None,3285.381861499991,None,1,1.3431336999929044,3285.381861499991,None,3286.77554029999,None,3286.77554029999,None,3287.2965283999947,None,3287.2965283999947,None,3287.2965283999947,None,n,0.4364264000032563,3287.2965283999947,None,sing7,001,2019_Oct_24_1645,ProdFawcett_Revision2019,3.2.3,60.05082702076868,
,,,,38,0,38,0,,,,,,,,,,,,,3290.768784,None,,,,,,,,,,,,,,,,,,,,,,surface,A_silent,38,316,3288.285604699995,None,3288.285604699995,None,3288.285604699995,None,1,1.3355318999965675,3288.285604699995,None,3289.666436799991,None,3289.666436799991,None,3290.1861187999893,None,3290.1861187999893,None,3290.1861187999893,None,n,0.5468417000083718,3290.1861187999893,None,sing7,001,2019_Oct_24_1645,ProdFawcett_Revision2019,3.2.3,60.05082702076868,
,,,,39,0,39,0,,,,,,,,,,,,,3296.6413101999933,None,,,,,,,,,,,,,,,,,,,,,,problem,B_aloud,39,238,3291.2938582999923,None,3291.2938582999923,None,3291.2938582999923,None,5,4.263210699995398,3291.2938582999923,None,3295.6039834999974,None,3295.6039834999974,None,3296.126001299999,None,3296.126001299999,None,3296.126001299999,None,f,0.471181599990814,3296.126001299999,None,sing7,001,2019_Oct_24_1645,ProdFawcett_Revision2019,3.2.3,60.05082702076868,
,,,,40,0,40,0,,,,,,,,,,,,,3299.4609214999946,None,,,,,,,,,,,,,,,,,,,,,,accident,A_silent,40,0,3297.1434150999994,None,3297.1434150999994,None,3297.1434150999994,None,1,1.533648099997663,3297.1434150999994,None,3298.7240705999866,None,3298.7240705999866,None,3299.230415299986,None,3299.230415299986,None,3299.230415299986,None,n,0.19067659998836461,3299.230415299986,None,sing7,001,2019_Oct_24_1645,ProdFawcett_Revision2019,3.2.3,60.05082702076868,
,,,,41,0,41,0,,,,,,,,,,,,,3302.629765599995,None,,,,,,,,,,,,,,,,,,,,,,nation,B_aloud,41,198,3299.9803933999938,None,3299.9803933999938,None,3299.9803933999938,None,6,1.6807566000061342,3299.9803933999938,None,3301.7068108999956,None,3301.7068108999956,None,3302.2282135999994,None,3302.2282135999994,None,3302.2282135999994,None,r,0.36884339999232907,3302.2282135999994,None,sing7,001,2019_Oct_24_1645,ProdFawcett_Revision2019,3.2.3,60.05082702076868,
,,,,42,0,42,0,,,,,,,,,,,,,3305.633731599999,None,,,,,,,,,,,,,,,,,,,,,,history,D_new,42,153,3303.150306999989,None,3303.150306999989,None,3303.150306999989,None,1,1.5585775999934413,3303.150306999989,None,3304.760751799986,None,3304.760751799986,None,3305.2831343,None,3305.2831343,None,3305.2831343,None,n,0.30594260001089424,3305.2831343,None,sing7,001,2019_Oct_24_1645,ProdFawcett_Revision2019,3.2.3,60.05082702076868,
,,,,43,0,43,0,,,,,,,,,,,,,3308.5142848999967,None,,,,,,,,,,,,,,,,,,,,,,tough,D_new,43,333,3306.156421099993,None,3306.156421099993,None,3306.156421099993,None,1,1.4007356999936746,3306.156421099993,None,3307.609713699989,None,3307.609713699989,None,3308.137307799989,None,3308.137307799989,None,3308.137307799989,None,n,0.34774990000005346,3308.137307799989,None,sing7,001,2019_Oct_24_1645,ProdFawcett_Revision2019,3.2.3,60.05082702076868,
,,,,44,0,44,0,,,,,,,,,,,,,3311.95776189999,None,,,,,,,,,,,,,,,,,,,,,,interior,C_sing,44,164,3309.0402430999966,None,3309.0402430999966,None,3309.0402430999966,None,6,1.788807299992186,3309.0402430999966,None,3310.879185499987,None,3310.879185499987,None,3311.4049753,None,3311.4049753,None,3311.4049753,None,r,0.5205476999981329,3311.4049753,None,sing7,001,2019_Oct_24_1645,ProdFawcett_Revision2019,3.2.3,60.05082702076868,
,,,,45,0,45,0,,,,,,,,,,,,,3316.8456480999885,None,,,,,,,,,,,,,,,,,,,,,,material,B_aloud,45,182,3312.475848099988,None,3312.475848099988,None,3312.475848099988,None,4,3.185982299997704,3312.475848099988,None,3315.709467199995,None,3315.709467199995,None,3316.218731199988,None,3316.218731199988,None,3316.218731199988,None,f,0.594327600003453,3316.218731199988,None,sing7,001,2019_Oct_24_1645,ProdFawcett_Revision2019,3.2.3,60.05082702076868,
,,,,46,0,46,0,,,,,,,,,,,,,3319.5645369999984,None,,,,,,,,,,,,,,,,,,,,,,cover,D_new,46,77,3317.366753999988,None,3317.366753999988,None,3317.366753999988,None,1,1.342526899999939,3317.366753999988,None,3318.7605533999886,None,3318.7605533999886,None,3319.2827263999934,None,3319.2827263999934,None,3319.2827263999934,None,n,0.2423965999914799,3319.2827263999934,None,sing7,001,2019_Oct_24_1645,ProdFawcett_Revision2019,3.2.3,60.05082702076868,
,,,,47,0,47,0,,,,,,,,,,,,,3323.1847947999922,None,,,,,,,,,,,,,,,,,,,,,,audience,D_new,47,14,3320.0834135999903,None,3320.0834135999903,None,3320.0834135999903,None,2,2.185901600008947,3320.0834135999903,None,3322.3061780999997,None,3322.3061780999997,None,3322.820880399988,None,3322.820880399988,None,3322.820880399988,None,f,0.32034449999628123,3322.820880399988,None,sing7,001,2019_Oct_24_1645,ProdFawcett_Revision2019,3.2.3,60.05082702076868,
,,,,48,0,48,0,,,,,,,,,,,,,3326.3706395999907,None,,,,,,,,,,,,,,,,,,,,,,fashion,C_sing,48,125,3323.70375049999,None,3323.70375049999,None,3323.70375049999,None,5,1.957288100005826,3323.70375049999,None,3325.721932699991,None,3325.721932699991,None,3326.2366312999948,None,3326.2366312999948,None,3326.2366312999948,None,f,0.10433520001242869,3326.2366312999948,None,sing7,001,2019_Oct_24_1645,ProdFawcett_Revision2019,3.2.3,60.05082702076868,
,,,,49,0,49,0,,,,,,,,,,,,,3328.6748873999895,None,,,,,,,,,,,,,,,,,,,,,,command,D_new,49,60,3326.8974107999966,None,3326.8974107999966,None,3326.8974107999966,None,1,1.076101099999505,3326.8974107999966,None,3328.019172199987,None,3328.019172199987,None,3328.5322752999928,None,3328.5322752999928,None,3328.5322752999928,None,n,0.10501440000371076,3328.5322752999928,None,sing7,001,2019_Oct_24_1645,ProdFawcett_Revision2019,3.2.3,60.05082702076868,
,,,,50,0,50,0,,,,,,,,,,,,,3331.226693999997,None,,,,,,,,,,,,,,,,,,,,,,fight,D_new,50,127,3329.195949599991,None,3329.195949599991,None,3329.195949599991,None,1,1.36119329999201,3329.195949599991,None,3330.6071827999986,None,3330.6071827999986,None,3331.129958599995,None,3331.129958599995,None,3331.129958599995,None,n,0.059355899997171946,3331.129958599995,None,sing7,001,2019_Oct_24_1645,ProdFawcett_Revision2019,3.2.3,60.05082702076868,
,,,,51,0,51,0,,,,,,,,,,,,,3333.904164599997,None,,,,,,,,,,,,,,,,,,,,,,store,B_aloud,51,305,3331.745103299996,None,3331.745103299996,None,3331.745103299996,None,4,1.4199328999966383,3331.745103299996,None,3333.2049448999896,None,3333.2049448999896,None,3333.726495799987,None,3333.726495799987,None,3333.726495799987,None,f,0.14228430000366643,3333.726495799987,None,sing7,001,2019_Oct_24_1645,ProdFawcett_Revision2019,3.2.3,60.05082702076868,
,,,,52,0,52,0,,,,,,,,,,,,,3337.848429199992,None,,,,,,,,,,,,,,,,,,,,,,signal,B_aloud,52,287,3334.433797199992,None,3334.433797199992,None,3334.433797199992,None,4,1.5792286000068998,3334.433797199992,None,3336.0627830999874,None,3336.0627830999874,None,3336.5833027999906,None,3336.5833027999906,None,3336.5833027999906,None,f,1.2217713999998523,3336.5833027999906,None,sing7,001,2019_Oct_24_1645,ProdFawcett_Revision2019,3.2.3,60.05082702076868,
,,,,53,0,53,0,,,,,,,,,,,,,3341.2656556,None,,,,,,,,,,,,,,,,,,,,,,title,C_sing,53,331,3338.368955299986,None,3338.368955299986,None,3338.368955299986,None,5,2.0522924000106286,3338.368955299986,None,3340.462289999996,None,3340.462289999996,None,3340.9835804999893,None,3340.9835804999893,None,3340.9835804999893,None,f,0.24542820001079235,3340.9835804999893,None,sing7,001,2019_Oct_24_1645,ProdFawcett_Revision2019,3.2.3,60.05082702076868,
,,,,54,0,54,0,,,,,,,,,,,,,3343.7892269999866,None,,,,,,,,,,,,,,,,,,,,,,voice,D_new,54,348,3341.7920306999877,None,3341.7920306999877,None,3341.7920306999877,None,1,1.261208900003112,3341.7920306999877,None,3343.096934699992,None,3343.096934699992,None,3343.622404199996,None,3343.622404199996,None,3343.622404199996,None,n,0.13471660000504926,3343.622404199996,None,sing7,001,2019_Oct_24_1645,ProdFawcett_Revision2019,3.2.3,60.05082702076868,
,,,,55,0,55,0,,,,,,,,,,,,,3347.158958199987,None,,,,,,,,,,,,,,,,,,,,,,research,A_silent,55,261,3344.308358899987,None,3344.308358899987,None,3344.308358899987,None,6,2.096898899995722,3344.308358899987,None,3346.451269799989,None,3346.451269799989,None,3346.9747967000003,None,3346.9747967000003,None,3346.9747967000003,None,r,0.15019250000477768,3346.9747967000003,None,sing7,001,2019_Oct_24_1645,ProdFawcett_Revision2019,3.2.3,60.05082702076868,
,,,,56,0,56,0,,,,,,,,,,,,,3350.110939899998,None,,,,,,,,,,,,,,,,,,,,,,country,B_aloud,56,73,3347.679141399989,None,3347.679141399989,None,3347.679141399989,None,3,1.4861031000036746,3347.679141399989,None,3349.222014599989,None,3349.222014599989,None,3349.7435810999887,None,3349.7435810999887,None,3349.7435810999887,None,f,0.3254470000101719,3349.7435810999887,None,sing7,001,2019_Oct_24_1645,ProdFawcett_Revision2019,3.2.3,60.05082702076868,
,,,,57,0,57,0,,,,,,,,,,,,,3353.04695779999,None,,,,,,,,,,,,,,,,,,,,,,hearing,C_sing,57,150,3350.633127299996,None,3350.633127299996,None,3350.633127299996,None,5,1.3239205999998376,3350.633127299996,None,3352.0056309999927,None,3352.0056309999927,None,3352.5327430999896,None,3352.5327430999896,None,3352.5327430999896,None,r,0.4804061000031652,3352.5327430999896,None,sing7,001,2019_Oct_24_1645,ProdFawcett_Revision2019,3.2.3,60.05082702076868,
,,,,58,0,58,0,,,,,,,,,,,,,3356.8259179999877,None,,,,,,,,,,,,,,,,,,,,,,enemy,B_aloud,58,113,3353.5687064999947,None,3353.5687064999947,None,3353.5687064999947,None,4,2.3243516000075033,3353.5687064999947,None,3355.946179499995,None,3355.946179499995,None,3356.46616299999,None,3356.46616299999,None,3356.46616299999,None,f,0.3069506000028923,3356.46616299999,None,sing7,001,2019_Oct_24_1645,ProdFawcett_Revision2019,3.2.3,60.05082702076868,
,,,,59,0,59,0,,,,,,,,,,,,,3359.7881953999895,None,,,,,,,,,,,,,,,,,,,,,,character,D_new,59,46,3357.341064399996,None,3357.341064399996,None,3357.341064399996,None,1,1.568069300003117,3357.341064399996,None,3358.9617090999964,None,3358.9617090999964,None,3359.4856624999957,None,3359.4856624999957,None,3359.4856624999957,None,n,0.26338489999761805,3359.4856624999957,None,sing7,001,2019_Oct_24_1645,ProdFawcett_Revision2019,3.2.3,60.05082702076868,
,,,,60,0,60,0,,,,,,,,,,,,,3363.190548499988,None,,,,,,,,,,,,,,,,,,,,,,mayor,A_silent,60,183,3360.30951929999,None,3360.30951929999,None,3360.30951929999,None,6,2.0874940000067,3360.30951929999,None,3362.4507729999896,None,3362.4507729999896,None,3362.9723415999906,None,3362.9723415999906,None,3362.9723415999906,None,r,0.1766496000054758,3362.9723415999906,None,sing7,001,2019_Oct_24_1645,ProdFawcett_Revision2019,3.2.3,60.05082702076868,
,,,,61,0,61,0,,,,,,,,,,,,,3367.013908299996,None,,,,,,,,,,,,,,,,,,,,,,agency,B_aloud,61,4,3363.7139689999894,None,3363.7139689999894,None,3363.7139689999894,None,3,1.7231360000005225,3363.7139689999894,None,3365.4921060999914,None,3365.4921060999914,None,3366.0112353999866,None,3366.0112353999866,None,3366.0112353999866,None,f,0.9700156000035349,3366.0112353999866,None,sing7,001,2019_Oct_24_1645,ProdFawcett_Revision2019,3.2.3,60.05082702076868,
,,,,62,0,62,0,,,,,,,,,,,,,3371.4168546,None,,,,,,,,,,,,,,,,,,,,,,bicycle,C_sing,62,21,3367.5325790999923,None,3367.5325790999923,None,3367.5325790999923,None,3,2.744440399997984,3367.5325790999923,None,3370.3290689999994,None,3370.3290689999994,None,3370.848289299989,None,3370.848289299989,None,3370.848289299989,None,f,0.524764600006165,3370.848289299989,None,sing7,001,2019_Oct_24_1645,ProdFawcett_Revision2019,3.2.3,60.05082702076868,
,,,,63,0,63,0,,,,,,,,,,,,,3375.0700762999913,None,,,,,,,,,,,,,,,,,,,,,,opening,A_silent,63,205,3371.9379237999965,None,3371.9379237999965,None,3371.9379237999965,None,2,2.2031350000033854,3371.9379237999965,None,3374.200087999998,None,3374.200087999998,None,3374.721244399989,None,3374.721244399989,None,3374.721244399989,None,f,0.3167925000016112,3374.721244399989,None,sing7,001,2019_Oct_24_1645,ProdFawcett_Revision2019,3.2.3,60.05082702076868,
,,,,64,0,64,0,,,,,,,,,,,,,3378.3759427999903,None,,,,,,,,,,,,,,,,,,,,,,rough,D_new,64,266,3375.591196299996,None,3375.591196299996,None,3375.591196299996,None,1,1.8780142999894451,3375.591196299996,None,3377.523342799992,None,3377.523342799992,None,3378.043201999986,None,3378.043201999986,None,3378.043201999986,None,n,0.2982272999943234,3378.043201999986,None,sing7,001,2019_Oct_24_1645,ProdFawcett_Revision2019,3.2.3,60.05082702076868,
,,,,65,0,65,0,,,,,,,,,,,,,3381.6774972999992,None,,,,,,,,,,,,,,,,,,,,,,pretty,C_sing,65,233,3378.897161899993,None,3378.897161899993,None,3378.897161899993,None,5,2.027751600006013,3378.897161899993,None,3380.972235999987,None,3380.972235999987,None,3381.493835199988,None,3381.493835199988,None,3381.493835199988,None,f,0.15134019999823067,3381.493835199988,None,sing7,001,2019_Oct_24_1645,ProdFawcett_Revision2019,3.2.3,60.05082702076868,
,,,,66,0,66,0,,,,,,,,,,,,,3386.3483825000003,None,,,,,,,,,,,,,,,,,,,,,,safety,D_new,66,270,3382.1996299999882,None,3382.1996299999882,None,3382.1996299999882,None,2,2.301330500005861,3382.1996299999882,None,3384.5535833999893,None,3384.5535833999893,None,3385.078607299991,None,3385.078607299991,None,3385.078607299991,None,n,1.2303922999999486,3385.078607299991,None,sing7,001,2019_Oct_24_1645,ProdFawcett_Revision2019,3.2.3,60.05082702076868,
,,,,67,0,67,0,,,,,,,,,,,,,3389.7512174000003,None,,,,,,,,,,,,,,,,,,,,,,government,A_silent,67,139,3386.862429399989,None,3386.862429399989,None,3386.862429399989,None,1,1.934748400002718,3386.862429399989,None,3388.84633629999,None,3388.84633629999,None,3389.3725328,None,3389.3725328,None,3389.3725328,None,n,0.34447199999704026,3389.3725328,None,sing7,001,2019_Oct_24_1645,ProdFawcett_Revision2019,3.2.3,60.05082702076868,
,,,,68,0,68,0,,,,,,,,,,,,,3392.270323699995,None,,,,,,,,,,,,,,,,,,,,,,graduate,B_aloud,68,141,3390.274157199994,None,3390.274157199994,None,3390.274157199994,None,6,1.2909026999986963,3390.274157199994,None,3391.6112107999943,None,3391.6112107999943,None,3392.1385792999936,None,3392.1385792999936,None,3392.1385792999936,None,r,0.09845389999100007,3392.1385792999936,None,sing7,001,2019_Oct_24_1645,ProdFawcett_Revision2019,3.2.3,60.05082702076868,
,,,,69,0,69,0,,,,,,,,,,,,,3396.7077160999906,None,,,,,,,,,,,,,,,,,,,,,,quantity,B_aloud,69,245,3392.7934067999886,None,3392.7934067999886,None,3392.7934067999886,None,2,2.5076291000004858,3392.7934067999886,None,3395.3585393999965,None,3395.3585393999965,None,3395.863524799992,None,3395.863524799992,None,3395.863524799992,None,f,0.8136417000059737,3395.863524799992,None,sing7,001,2019_Oct_24_1645,ProdFawcett_Revision2019,3.2.3,60.05082702076868,
,,,,70,0,70,0,,,,,,,,,,,,,3399.8281182999926,None,,,,,,,,,,,,,,,,,,,,,,century,D_new,70,45,3397.2271372999967,None,3397.2271372999967,None,3397.2271372999967,None,3,1.7058428000018466,3397.2271372999967,None,3398.984957099994,None,3398.984957099994,None,3399.5107830999914,None,3399.5107830999914,None,3399.5107830999914,None,f,0.28652719999081455,3399.5107830999914,None,sing7,001,2019_Oct_24_1645,ProdFawcett_Revision2019,3.2.3,60.05082702076868,
,,,,71,0,71,0,,,,,,,,,,,,,3404.097675199999,None,,,,,,,,,,,,,,,,,,,,,,build,A_silent,71,35,3400.3496379999997,None,3400.3496379999997,None,3400.3496379999997,None,6,2.816170099991723,3400.3496379999997,None,3403.21004559999,None,3403.21004559999,None,3403.7321311999985,None,3403.7321311999985,None,3403.7321311999985,None,r,0.3208693000051426,3403.7321311999985,None,sing7,001,2019_Oct_24_1645,ProdFawcett_Revision2019,3.2.3,60.05082702076868,
,,,,72,0,72,0,,,,,,,,,,,,,3407.0858456999995,None,,,,,,,,,,,,,,,,,,,,,,universal,B_aloud,72,345,3404.6248371999973,None,3404.6248371999973,None,3404.6248371999973,None,6,1.5800865000055637,3404.6248371999973,None,3406.2550544999976,None,3406.2550544999976,None,3406.7584291999956,None,3406.7584291999956,None,3406.7584291999956,None,r,0.2866050000011455,3406.7584291999956,None,sing7,001,2019_Oct_24_1645,ProdFawcett_Revision2019,3.2.3,60.05082702076868,
,,,,73,0,73,0,,,,,,,,,,,,,3410.1539457999897,None,,,,,,,,,,,,,,,,,,,,,,community,C_sing,73,63,3407.6055167999875,None,3407.6055167999875,None,3407.6055167999875,None,2,1.455602700007148,3407.6055167999875,None,3409.114840399998,None,3409.114840399998,None,3409.636150099992,None,3409.636150099992,None,3409.636150099992,None,n,0.4730049999925541,3409.636150099992,None,sing7,001,2019_Oct_24_1645,ProdFawcett_Revision2019,3.2.3,60.05082702076868,
,,,,74,0,74,0,,,,,,,,,,,,,3412.655971999993,None,,,,,,,,,,,,,,,,,,,,,,drink,D_new,74,105,3410.672544199988,None,3410.672544199988,None,3410.672544199988,None,1,1.1485687999957008,3410.672544199988,None,3411.868189999994,None,3411.868189999994,None,3412.3873221999966,None,3412.3873221999966,None,3412.3873221999966,None,n,0.22572459999355488,3412.3873221999966,None,sing7,001,2019_Oct_24_1645,ProdFawcett_Revision2019,3.2.3,60.05082702076868,
,,,,75,0,75,0,,,,,,,,,,,,,3415.4273694999865,None,,,,,,,,,,,,,,,,,,,,,,pancakes,C_sing,75,210,3413.177524999992,None,3413.177524999992,None,3413.177524999992,None,1,1.4596163999958662,3413.177524999992,None,3414.6876533999894,None,3414.6876533999894,None,3415.2081323999882,None,3415.2081323999882,None,3415.2081323999882,None,n,0.18885469999804627,3415.2081323999882,None,sing7,001,2019_Oct_24_1645,ProdFawcett_Revision2019,3.2.3,60.05082702076868,
,,,,76,0,76,0,,,,,,,,,,,,,3418.0792845999968,None,,,,,,,,,,,,,,,,,,,,,,staff,A_silent,76,301,3415.946529699999,None,3415.946529699999,None,3415.946529699999,None,1,1.3941727000055835,3415.946529699999,None,3417.371145099998,None,3417.371145099998,None,3417.888434499997,None,3417.888434499997,None,3417.888434499997,None,n,0.1485530999925686,3417.888434499997,None,sing7,001,2019_Oct_24_1645,ProdFawcett_Revision2019,3.2.3,60.05082702076868,
,,,,77,0,77,0,,,,,,,,,,,,,3422.382439699999,None,,,,,,,,,,,,,,,,,,,,,,group,B_aloud,77,143,3418.601109299998,None,3418.601109299998,None,3418.601109299998,None,2,2.0040406999905827,3418.601109299998,None,3420.665230399987,None,3420.665230399987,None,3421.181177199993,None,3421.181177199993,None,3421.181177199993,None,f,1.1679414999962319,3421.181177199993,None,sing7,001,2019_Oct_24_1645,ProdFawcett_Revision2019,3.2.3,60.05082702076868,
,,,,78,0,78,0,,,,,,,,,,,,,3425.1031806999963,None,,,,,,,,,,,,,,,,,,,,,,harmony,C_sing,78,148,3422.9034377999924,None,3422.9034377999924,None,3422.9034377999924,None,6,1.3337442000047304,3422.9034377999924,None,3424.276370499996,None,3424.276370499996,None,3424.798071199999,None,3424.798071199999,None,3424.798071199999,None,r,0.2629683999984991,3424.798071199999,None,sing7,001,2019_Oct_24_1645,ProdFawcett_Revision2019,3.2.3,60.05082702076868,
,,,,79,0,79,0,,,,,,,,,,,,,3427.689742399991,None,,,,,,,,,,,,,,,,,,,,,,committee,D_new,79,62,3425.623218099994,None,3425.623218099994,None,3425.623218099994,None,1,1.4378151999990223,3425.623218099994,None,3427.1162665999873,None,3427.1162665999873,None,3427.6388865999907,None,3427.6388865999907,None,3427.6388865999907,None,n,0.014103699999395758,3427.6388865999907,None,sing7,001,2019_Oct_24_1645,ProdFawcett_Revision2019,3.2.3,60.05082702076868,
,,,,80,0,80,0,,,,,,,,,,,,,3430.6589072999923,None,,,,,,,,,,,,,,,,,,,,,,native,D_new,80,199,3428.212025899993,None,3428.212025899993,None,3428.212025899993,None,1,1.5289965999982087,3428.212025899993,None,3429.788762199998,None,3429.788762199998,None,3430.3093253999978,None,3430.3093253999978,None,3430.3093253999978,None,n,0.3117411999992328,3430.3093253999978,None,sing7,001,2019_Oct_24_1645,ProdFawcett_Revision2019,3.2.3,60.05082702076868,
,,,,81,0,81,0,,,,,,,,,,,,,3435.7390641999955,None,,,,,,,,,,,,,,,,,,,,,,clean,D_new,81,51,3431.1780497,None,3431.1780497,None,3431.1780497,None,1,3.163186899997527,3431.1780497,None,3434.3851177999895,None,3434.3851177999895,None,3434.91242529999,None,3434.91242529999,None,3434.91242529999,None,n,0.7885466000007,3434.91242529999,None,sing7,001,2019_Oct_24_1645,ProdFawcett_Revision2019,3.2.3,60.05082702076868,
,,,,82,0,82,0,,,,,,,,,,,,,3438.8663708999957,None,,,,,,,,,,,,,,,,,,,,,,device,C_sing,82,93,3436.2708312999894,None,3436.2708312999894,None,3436.2708312999894,None,3,1.3664537000004202,3436.2708312999894,None,3437.6898382999934,None,3437.6898382999934,None,3438.217240699989,None,3438.217240699989,None,3438.217240699989,None,f,0.6121760999958497,3438.217240699989,None,sing7,001,2019_Oct_24_1645,ProdFawcett_Revision2019,3.2.3,60.05082702076868,
,,,,83,0,83,0,,,,,,,,,,,,,3442.054054299995,None,,,,,,,,,,,,,,,,,,,,,,primary,B_aloud,83,234,3439.3882670999883,None,3439.3882670999883,None,3439.3882670999883,None,4,1.712948399988818,3439.3882670999883,None,3441.148236199995,None,3441.148236199995,None,3441.6684198999865,None,3441.6684198999865,None,3441.6684198999865,None,f,0.34464939999452326,3441.6684198999865,None,sing7,001,2019_Oct_24_1645,ProdFawcett_Revision2019,3.2.3,60.05082702076868,
,,,,84,0,84,0,,,,,,,,,,,,,3445.5066775999876,None,,,,,,,,,,,,,,,,,,,,,,month,A_silent,84,193,3442.572201499992,None,3442.572201499992,None,3442.572201499992,None,6,1.9768332999956328,3442.572201499992,None,3444.6017962999904,None,3444.6017962999904,None,3445.1205098999926,None,3445.1205098999926,None,3445.1205098999926,None,r,0.34055670000088867,3445.1205098999926,None,sing7,001,2019_Oct_24_1645,ProdFawcett_Revision2019,3.2.3,60.05082702076868,
,,,,85,0,85,0,,,,,,,,,,,,,3448.2993131999974,None,,,,,,,,,,,,,,,,,,,,,,volume,D_new,85,349,3446.030244099995,None,3446.030244099995,None,3446.030244099995,None,1,1.3667406999884406,3446.030244099995,None,3447.453683399988,None,3447.453683399988,None,3447.9752080999897,None,3447.9752080999897,None,3447.9752080999897,None,n,0.293656199995894,3447.9752080999897,None,sing7,001,2019_Oct_24_1645,ProdFawcett_Revision2019,3.2.3,60.05082702076868,
,,,,86,0,86,0,,,,,,,,,,,,,3451.1466594999947,None,,,,,,,,,,,,,,,,,,,,,,broad,D_new,86,31,3448.8238786,None,3448.8238786,None,3448.8238786,None,1,1.461137799997232,3448.8238786,None,3450.341543799994,None,3450.341543799994,None,3450.8628081999923,None,3450.8628081999923,None,3450.8628081999923,None,n,0.24655759999586735,3450.8628081999923,None,sing7,001,2019_Oct_24_1645,ProdFawcett_Revision2019,3.2.3,60.05082702076868,
,,,,87,0,87,0,,,,,,,,,,,,,3455.133732999995,None,,,,,,,,,,,,,,,,,,,,,,department,A_silent,87,90,3451.6658338999987,None,3451.6658338999987,None,3451.6658338999987,None,5,2.5232570999942254,3451.6658338999987,None,3454.249901499992,None,3454.249901499992,None,3454.767384699997,None,3454.767384699997,None,3454.767384699997,None,f,0.3257086999947205,3454.767384699997,None,sing7,001,2019_Oct_24_1645,ProdFawcett_Revision2019,3.2.3,60.05082702076868,
,,,,88,0,88,0,,,,,,,,,,,,,3458.202651399988,None,,,,,,,,,,,,,,,,,,,,,,scale,B_aloud,88,272,3455.652043899987,None,3455.652043899987,None,3455.652043899987,None,4,1.8407479000015883,3455.652043899987,None,3457.533998999992,None,3457.533998999992,None,3458.0502615999867,None,3458.0502615999867,None,3458.0502615999867,None,f,0.10673889999452513,3458.0502615999867,None,sing7,001,2019_Oct_24_1645,ProdFawcett_Revision2019,3.2.3,60.05082702076868,
,,,,89,0,89,0,,,,,,,,,,,,,3460.605989299991,None,,,,,,,,,,,,,,,,,,,,,,career,D_new,89,42,3458.7229278999876,None,3458.7229278999876,None,3458.7229278999876,None,1,1.2180495999928098,3458.7229278999876,None,3459.98118979999,None,3459.98118979999,None,3460.5035703999893,None,3460.5035703999893,None,3460.5035703999893,None,n,0.06986899999901652,3460.5035703999893,None,sing7,001,2019_Oct_24_1645,ProdFawcett_Revision2019,3.2.3,60.05082702076868,
,,,,90,0,90,0,,,,,,,,,,,,,3463.663744499994,None,,,,,,,,,,,,,,,,,,,,,,sleep,A_silent,90,290,3461.1272786999907,None,3461.1272786999907,None,3461.1272786999907,None,2,1.6144504999974743,3461.1272786999907,None,3462.784962699996,None,3462.784962699996,None,3463.305886499991,None,3463.305886499991,None,3463.305886499991,None,n,0.3231565000023693,3463.305886499991,None,sing7,001,2019_Oct_24_1645,ProdFawcett_Revision2019,3.2.3,60.05082702076868,
,,,,91,0,91,0,,,,,,,,,,,,,3467.1791866999993,None,,,,,,,,,,,,,,,,,,,,,,couch,D_new,91,70,3464.1920642999903,None,3464.1920642999903,None,3464.1920642999903,None,1,2.2769731000007596,3464.1920642999903,None,3466.5236921999895,None,3466.5236921999895,None,3467.0427738,None,3467.0427738,None,3467.0427738,None,n,0.10627910000039265,3467.0427738,None,sing7,001,2019_Oct_24_1645,ProdFawcett_Revision2019,3.2.3,60.05082702076868,
,,,,92,0,92,0,,,,,,,,,,,,,3469.798393799996,None,,,,,,,,,,,,,,,,,,,,,,theme,C_sing,92,326,3467.6974502999947,None,3467.6974502999947,None,3467.6974502999947,None,6,1.235883700006525,3467.6974502999947,None,3468.976753499999,None,3468.976753499999,None,3469.4969753999903,None,3469.4969753999903,None,3469.4969753999903,None,r,0.26875980000477284,3469.4969753999903,None,sing7,001,2019_Oct_24_1645,ProdFawcett_Revision2019,3.2.3,60.05082702076868,
,,,,93,0,93,0,,,,,,,,,,,,,3472.53444399999,None,,,,,,,,,,,,,,,,,,,,,,dispute,D_new,93,99,3470.3160916999914,None,3470.3160916999914,None,3470.3160916999914,None,1,1.5289512000017567,3470.3160916999914,None,3471.89950639999,None,3471.89950639999,None,3472.416019899989,None,3472.416019899989,None,3472.416019899989,None,n,0.08586019999347627,3472.416019899989,None,sing7,001,2019_Oct_24_1645,ProdFawcett_Revision2019,3.2.3,60.05082702076868,
,,,,94,0,94,0,,,,,,,,,,,,,3475.2533032999927,None,,,,,,,,,,,,,,,,,,,,,,broke,A_silent,94,32,3473.053093499999,None,3473.053093499999,None,3473.053093499999,None,1,1.3917749000102049,3473.053093499999,None,3474.479037799989,None,3474.479037799989,None,3474.9916136999964,None,3474.9916136999964,None,3474.9916136999964,None,n,0.2213690999924438,3474.9916136999964,None,sing7,001,2019_Oct_24_1645,ProdFawcett_Revision2019,3.2.3,60.05082702076868,
,,,,95,0,95,0,,,,,,,,,,,,,3478.5391194999975,None,,,,,,,,,,,,,,,,,,,,,,death,C_sing,95,86,3475.7757109999948,None,3475.7757109999948,None,3475.7757109999948,None,5,1.8930837999942014,3475.7757109999948,None,3477.699881499997,None,3477.699881499997,None,3478.2192439999926,None,3478.2192439999926,None,3478.2192439999926,None,f,0.28988050000043586,3478.2192439999926,None,sing7,001,2019_Oct_24_1645,ProdFawcett_Revision2019,3.2.3,60.05082702076868,
,,,,96,0,96,0,,,,,,,,,,,,,3482.2595933999983,None,,,,,,,,,,,,,,,,,,,,,,commercial,B_aloud,96,61,3479.0615618999873,None,3479.0615618999873,None,3479.0615618999873,None,5,1.839464799995767,3479.0615618999873,None,3480.9472121,None,3480.9472121,None,3481.478983899986,None,3481.478983899986,None,3481.478983899986,None,f,0.7421575999906054,3481.478983899986,None,sing7,001,2019_Oct_24_1645,ProdFawcett_Revision2019,3.2.3,60.05082702076868,
,,,,97,0,97,0,,,,,,,,,,,,,3485.1618230999884,None,,,,,,,,,,,,,,,,,,,,,,novel,D_new,97,202,3482.782843599998,None,3482.782843599998,None,3482.782843599998,None,1,1.5341595000063535,3482.782843599998,None,3484.368762299986,None,3484.368762299986,None,3484.897997699998,None,3484.897997699998,None,3484.897997699998,None,n,0.21906770000350662,3484.897997699998,None,sing7,001,2019_Oct_24_1645,ProdFawcett_Revision2019,3.2.3,60.05082702076868,
,,,,98,0,98,0,,,,,,,,,,,,,3487.782693999994,None,,,,,,,,,,,,,,,,,,,,,,industry,C_sing,98,161,3485.6820802999864,None,3485.6820802999864,None,3485.6820802999864,None,6,1.2352318999910494,3485.6820802999864,None,3486.951474699992,None,3486.951474699992,None,3487.469920699994,None,3487.469920699994,None,3487.469920699994,None,r,0.2711794000060763,3487.469920699994,None,sing7,001,2019_Oct_24_1645,ProdFawcett_Revision2019,3.2.3,60.05082702076868,
,,,,99,0,99,0,,,,,,,,,,,,,3490.807558699991,None,,,,,,,,,,,,,,,,,,,,,,direction,A_silent,99,94,3488.3025586999865,None,3488.3025586999865,None,3488.3025586999865,None,1,1.8064694000058807,3488.3025586999865,None,3490.157568099996,None,3490.157568099996,None,3490.6842397,None,3490.6842397,None,3490.6842397,None,n,0.08842729999742005,3490.6842397,None,sing7,001,2019_Oct_24_1645,ProdFawcett_Revision2019,3.2.3,60.05082702076868,
,,,,100,0,100,0,,,,,,,,,,,,,3493.4440707999893,None,,,,,,,,,,,,,,,,,,,,,,order,D_new,100,207,3491.3301187999896,None,3491.3301187999896,None,3491.3301187999896,None,1,1.4589900999999372,3491.3301187999896,None,3492.827012499998,None,3492.827012499998,None,3493.352129299994,None,3493.352129299994,None,3493.352129299994,None,n,0.05301580000377726,3493.352129299994,None,sing7,001,2019_Oct_24_1645,ProdFawcett_Revision2019,3.2.3,60.05082702076868,
,,,,101,0,101,0,,,,,,,,,,,,,3496.324516599998,None,,,,,,,,,,,,,,,,,,,,,,dance,A_silent,101,84,3493.971749499993,None,3493.971749499993,None,3493.971749499993,None,3,1.5612471000058576,3493.971749499993,None,3495.588043999989,None,3495.588043999989,None,3496.1053088999906,None,3496.1053088999906,None,3496.1053088999906,None,f,0.1797418999922229,3496.1053088999906,None,sing7,001,2019_Oct_24_1645,ProdFawcett_Revision2019,3.2.3,60.05082702076868,
,,,,102,0,102,0,,,,,,,,,,,,,3499.8942805999977,None,,,,,,,,,,,,,,,,,,,,,,victory,A_silent,102,346,3496.8443700999924,None,3496.8443700999924,None,3496.8443700999924,None,1,1.328995699994266,3496.8443700999924,None,3498.227914099989,None,3498.227914099989,None,3498.7457062999893,None,3498.7457062999893,None,3498.7457062999893,None,n,1.1153432999999495,3498.7457062999893,None,sing7,001,2019_Oct_24_1645,ProdFawcett_Revision2019,3.2.3,60.05082702076868,
,,,,103,0,103,0,,,,,,,,,,,,,3503.0798290999955,None,,,,,,,,,,,,,,,,,,,,,,search,B_aloud,103,276,3500.412380199996,None,3500.412380199996,None,3500.412380199996,None,3,1.9447063999978127,3500.412380199996,None,3502.408647199991,None,3502.408647199991,None,3502.9281833999994,None,3502.9281833999994,None,3502.9281833999994,None,f,0.11703829999896698,3502.9281833999994,None,sing7,001,2019_Oct_24_1645,ProdFawcett_Revision2019,3.2.3,60.05082702076868,
,,,,104,0,104,0,,,,,,,,,,,,,3505.583546599999,None,,,,,,,,,,,,,,,,,,,,,,trash,B_aloud,104,337,3503.587397199997,None,3503.587397199997,None,3503.587397199997,None,1,1.2738279000041075,3503.587397199997,None,3504.912799499987,None,3504.912799499987,None,3505.434423599989,None,3505.434423599989,None,3505.434423599989,None,n,0.11455969999951776,3505.434423599989,None,sing7,001,2019_Oct_24_1645,ProdFawcett_Revision2019,3.2.3,60.05082702076868,
,,,,105,0,105,0,,,,,,,,,,,,,3508.118715699995,None,,,,,,,,,,,,,,,,,,,,,,count,D_new,105,72,3506.102356699994,None,3506.102356699994,None,3506.102356699994,None,1,1.3183169000112684,3506.102356699994,None,3507.4447763999924,None,3507.4447763999924,None,3507.968766699996,None,3507.968766699996,None,3507.968766699996,None,n,0.11627640000369865,3507.968766699996,None,sing7,001,2019_Oct_24_1645,ProdFawcett_Revision2019,3.2.3,60.05082702076868,
,,,,106,0,106,0,,,,,,,,,,,,,3511.807036299986,None,,,,,,,,,,,,,,,,,,,,,,education,B_aloud,106,108,3508.6366880999994,None,3508.6366880999994,None,3508.6366880999994,None,2,2.4163296000042465,3508.6366880999994,None,3511.0957660999993,None,3511.0957660999993,None,3511.6220254999935,None,3511.6220254999935,None,3511.6220254999935,None,f,0.1509834000025876,3511.6220254999935,None,sing7,001,2019_Oct_24_1645,ProdFawcett_Revision2019,3.2.3,60.05082702076868,
,,,,107,0,107,0,,,,,,,,,,,,,3519.150167899992,None,,,,,,,,,,,,,,,,,,,,,,suspect,D_new,107,318,3512.324676899996,None,3512.324676899996,None,3512.324676899996,None,1,4.936285900010262,3512.324676899996,None,3517.30318789999,None,3517.30318789999,None,3517.8265500999987,None,3517.8265500999987,None,3517.8265500999987,None,n,1.2826009999989765,3517.8265500999987,None,sing7,001,2019_Oct_24_1645,ProdFawcett_Revision2019,3.2.3,60.05082702076868,
,,,,108,0,108,0,,,,,,,,,,,,,3521.6820668,None,,,,,,,,,,,,,,,,,,,,,,close,D_new,108,53,3519.665328499992,None,3519.665328499992,None,3519.665328499992,None,1,1.1637688000046182,3519.665328499992,None,3520.8737865999865,None,3520.8737865999865,None,3521.398088899994,None,3521.398088899994,None,3521.398088899994,None,n,0.2550177000084659,3521.398088899994,None,sing7,001,2019_Oct_24_1645,ProdFawcett_Revision2019,3.2.3,60.05082702076868,
,,,,109,0,109,0,,,,,,,,,,,,,3525.18467599999,None,,,,,,,,,,,,,,,,,,,,,,revolution,D_new,109,264,3522.2076207999926,None,3522.2076207999926,None,3522.2076207999926,None,1,2.1173697999911383,3522.2076207999926,None,3524.383317499989,None,3524.383317499989,None,3524.9057584999973,None,3524.9057584999973,None,3524.9057584999973,None,n,0.23529070000222418,3524.9057584999973,None,sing7,001,2019_Oct_24_1645,ProdFawcett_Revision2019,3.2.3,60.05082702076868,
,,,,110,0,110,0,,,,,,,,,,,,,3528.2561384999863,None,,,,,,,,,,,,,,,,,,,,,,meeting,B_aloud,110,187,3525.709415499994,None,3525.709415499994,None,3525.709415499994,None,2,1.5917010999983177,3525.709415499994,None,3527.3535930999933,None,3527.3535930999933,None,3527.8723829999944,None,3527.8723829999944,None,3527.8723829999944,None,f,0.3486698000051547,3527.8723829999944,None,sing7,001,2019_Oct_24_1645,ProdFawcett_Revision2019,3.2.3,60.05082702076868,
,,,,111,0,111,0,,,,,,,,,,,,,3530.6598308999965,None,,,,,,,,,,,,,,,,,,,,,,marriage,B_aloud,111,179,3528.7803302999964,None,3528.7803302999964,None,3528.7803302999964,None,1,1.216686200001277,3528.7803302999964,None,3530.0543473,None,3530.0543473,None,3530.578238099988,None,3530.578238099988,None,3530.578238099988,None,n,0.05082070000935346,3530.578238099988,None,sing7,001,2019_Oct_24_1645,ProdFawcett_Revision2019,3.2.3,60.05082702076868,
,,,,112,0,112,0,,,,,,,,,,,,,3533.995217399992,None,,,,,,,,,,,,,,,,,,,,,,nature,D_new,112,200,3531.1786958999874,None,3531.1786958999874,None,3531.1786958999874,None,2,2.0982791999995243,3531.1786958999874,None,3533.3205285999866,None,3533.3205285999866,None,3533.844061099997,None,3533.844061099997,None,3533.844061099997,None,f,0.11304959999688435,3533.844061099997,None,sing7,001,2019_Oct_24_1645,ProdFawcett_Revision2019,3.2.3,60.05082702076868,
,,,,113,0,113,0,,,,,,,,,,,,,3536.4536947999877,None,,,,,,,,,,,,,,,,,,,,,,mankind,D_new,113,178,3534.5172393999965,None,3534.5172393999965,None,3534.5172393999965,None,1,1.3198540000012144,3534.5172393999965,None,3535.8953612999903,None,3535.8953612999903,None,3536.4113752999983,None,3536.4113752999983,None,3536.4113752999983,None,n,0.017395599992596544,3536.4113752999983,None,sing7,001,2019_Oct_24_1645,ProdFawcett_Revision2019,3.2.3,60.05082702076868,
,,,,114,0,114,0,,,,,,,,,,,,,3540.9358169999905,None,,,,,,,,,,,,,,,,,,,,,,produce,D_new,114,239,3536.9669608999975,None,3536.9669608999975,None,3536.9669608999975,None,1,2.102322799997637,3536.9669608999975,None,3539.1121814999933,None,3539.1121814999933,None,3539.63193779999,None,3539.63193779999,None,3539.63193779999,None,n,1.2610050999937812,3539.63193779999,None,sing7,001,2019_Oct_24_1645,ProdFawcett_Revision2019,3.2.3,60.05082702076868,
,,,,115,0,115,0,,,,,,,,,,,,,3544.389230399989,None,,,,,,,,,,,,,,,,,,,,,,raise,D_new,115,250,3541.453818799986,None,3541.453818799986,None,3541.453818799986,None,1,2.0392098000011174,3541.453818799986,None,3543.5471806999994,None,3543.5471806999994,None,3544.0707164999912,None,3544.0707164999912,None,3544.0707164999912,None,n,0.27826039999490604,3544.0707164999912,None,sing7,001,2019_Oct_24_1645,ProdFawcett_Revision2019,3.2.3,60.05082702076868,
,,,,116,0,116,0,,,,,,,,,,,,,3548.058432799997,None,,,,,,,,,,,,,,,,,,,,,,production,D_new,116,240,3544.9083751,None,3544.9083751,None,3544.9083751,None,3,2.512774399991031,3544.9083751,None,3547.4756707999913,None,3547.4756707999913,None,3547.9902988999966,None,3547.9902988999966,None,3547.9902988999966,None,f,0.022761500003980473,3547.9902988999966,None,sing7,001,2019_Oct_24_1645,ProdFawcett_Revision2019,3.2.3,60.05082702076868,
,,,,117,0,117,0,,,,,,,,,,,,,3550.6958419000002,None,,,,,,,,,,,,,,,,,,,,,,author,D_new,117,15,3548.5781540999888,None,3548.5781540999888,None,3548.5781540999888,None,1,1.2677712000004249,3548.5781540999888,None,3549.884615799994,None,3549.884615799994,None,3550.4093580999906,None,3550.4093580999906,None,3550.4093580999906,None,n,0.2435982999886619,3550.4093580999906,None,sing7,001,2019_Oct_24_1645,ProdFawcett_Revision2019,3.2.3,60.05082702076868,
,,,,118,0,118,0,,,,,,,,,,,,,3553.581226899987,None,,,,,,,,,,,,,,,,,,,,,,subject,A_silent,118,312,3551.221440299996,None,3551.221440299996,None,3551.221440299996,None,6,1.4876193999953102,3551.221440299996,None,3552.754482199991,None,3552.754482199991,None,3553.2700228999893,None,3553.2700228999893,None,3553.2700228999893,None,r,0.27943309998954646,3553.2700228999893,None,sing7,001,2019_Oct_24_1645,ProdFawcett_Revision2019,3.2.3,60.05082702076868,
,,,,119,0,119,0,,,,,,,,,,,,,3556.387228599997,None,,,,,,,,,,,,,,,,,,,,,,match,D_new,119,181,3554.1004847999866,None,3554.1004847999866,None,3554.1004847999866,None,2,1.5848466000024928,3554.1004847999866,None,3555.7290495999914,None,3555.7290495999914,None,3556.248560699998,None,3556.248560699998,None,3556.248560699998,None,f,0.10059509999700822,3556.248560699998,None,sing7,001,2019_Oct_24_1645,ProdFawcett_Revision2019,3.2.3,60.05082702076868,
,,,,120,0,120,0,,,,,,,,,,,,,3559.153469099998,None,,,,,,,,,,,,,,,,,,,,,,machinery,B_aloud,120,175,3556.903059499993,None,3556.903059499993,None,3556.903059499993,None,6,1.4139686999988044,3556.903059499993,None,3558.367500099994,None,3558.367500099994,None,3558.883656799997,None,3558.883656799997,None,3558.883656799997,None,r,0.23350430000573397,3558.883656799997,None,sing7,001,2019_Oct_24_1645,ProdFawcett_Revision2019,3.2.3,60.05082702076868,
,,,,121,0,121,0,,,,,,,,,,,,,3561.6903209999873,None,,,,,,,,,,,,,,,,,,,,,,union,D_new,121,344,3559.6718757999915,None,3559.6718757999915,None,3559.6718757999915,None,1,1.3571102000132669,3559.6718757999915,None,3561.0823047999875,None,3561.0823047999875,None,3561.6032857999962,None,3561.6032857999962,None,3561.6032857999962,None,n,0.049913199996808544,3561.6032857999962,None,sing7,001,2019_Oct_24_1645,ProdFawcett_Revision2019,3.2.3,60.05082702076868,
,,,,122,0,122,0,,,,,,,,,,,,,3564.574696999989,None,,,,,,,,,,,,,,,,,,,,,,color,D_new,122,56,3562.2088885999983,None,3562.2088885999983,None,3562.2088885999983,None,4,1.643866700003855,3562.2088885999983,None,3563.8852022999927,None,3563.8852022999927,None,3564.406497799995,None,3564.406497799995,None,3564.406497799995,None,f,0.1265296999918064,3564.406497799995,None,sing7,001,2019_Oct_24_1645,ProdFawcett_Revision2019,3.2.3,60.05082702076868,
,,,,123,0,123,0,,,,,,,,,,,,,3567.745728499998,None,,,,,,,,,,,,,,,,,,,,,,platform,A_silent,123,224,3565.093230399987,None,3565.093230399987,None,3565.093230399987,None,1,1.6319439000071725,3565.093230399987,None,3566.7711845999875,None,3566.7711845999875,None,3567.282228099997,None,3567.282228099997,None,3567.282228099997,None,n,0.42701660000602715,3567.282228099997,None,sing7,001,2019_Oct_24_1645,ProdFawcett_Revision2019,3.2.3,60.05082702076868,
,,,,124,0,124,0,,,,,,,,,,,,,3570.2714258999913,None,,,,,,,,,,,,,,,,,,,,,,incident,D_new,124,158,3568.266180099992,None,3568.266180099992,None,3568.266180099992,None,1,1.2748996999871451,3568.266180099992,None,3569.592437799991,None,3569.592437799991,None,3570.113855699994,None,3570.113855699994,None,3570.113855699994,None,n,0.12304770000628196,3570.113855699994,None,sing7,001,2019_Oct_24_1645,ProdFawcett_Revision2019,3.2.3,60.05082702076868,
,,,,125,0,125,0,,,,,,,,,,,,,3573.3348086999904,None,,,,,,,,,,,,,,,,,,,,,,blind,D_new,125,24,3570.8022525999986,None,3570.8022525999986,None,3570.8022525999986,None,1,1.5227738999965368,3570.8022525999986,None,3572.3825026999984,None,3572.3825026999984,None,3572.9015661999874,None,3572.9015661999874,None,3572.9015661999874,None,n,0.399455200007651,3572.9015661999874,None,sing7,001,2019_Oct_24_1645,ProdFawcett_Revision2019,3.2.3,60.05082702076868,
,,,,126,0,126,0,,,,,,,,,,,,,3576.1713223999977,None,,,,,,,,,,,,,,,,,,,,,,strain,D_new,126,308,3573.845271699989,None,3573.845271699989,None,3573.845271699989,None,1,1.4478993999946397,3573.845271699989,None,3575.346969799997,None,3575.346969799997,None,3575.8681495999917,None,3575.8681495999917,None,3575.8681495999917,None,n,0.26481300000159536,3575.8681495999917,None,sing7,001,2019_Oct_24_1645,ProdFawcett_Revision2019,3.2.3,60.05082702076868,
,,,,127,0,127,0,,,,,,,,,,,,,3579.0075448999996,None,,,,,,,,,,,,,,,,,,,,,,power,D_new,127,230,3576.6940347999916,None,3576.6940347999916,None,3576.6940347999916,None,1,1.4069523000071058,3576.6940347999916,None,3578.1542353999976,None,3578.1542353999976,None,3578.675736399993,None,3578.675736399993,None,3578.675736399993,None,n,0.2892914000112796,3578.675736399993,None,sing7,001,2019_Oct_24_1645,ProdFawcett_Revision2019,3.2.3,60.05082702076868,
,,,,128,0,128,0,,,,,,,,,,,,,3581.5252630999894,None,,,,,,,,,,,,,,,,,,,,,,citizen,D_new,128,50,3579.529558299997,None,3579.529558299997,None,3579.529558299997,None,2,1.3154489000007743,3579.529558299997,None,3580.8907824999915,None,3580.8907824999915,None,3581.4105477999983,None,3581.4105477999983,None,3581.4105477999983,None,f,0.07443710000370629,3581.4105477999983,None,sing7,001,2019_Oct_24_1645,ProdFawcett_Revision2019,3.2.3,60.05082702076868,
,,,,129,0,129,0,,,,,,,,,,,,,3584.01201939999,None,,,,,,,,,,,,,,,,,,,,,,orchestra,B_aloud,129,206,3582.0454918999894,None,3582.0454918999894,None,3582.0454918999894,None,6,1.3512056000035955,3582.0454918999894,None,3583.4307783999975,None,3583.4307783999975,None,3583.933510099989,None,3583.933510099989,None,3583.933510099989,None,r,0.04774879998876713,3583.933510099989,None,sing7,001,2019_Oct_24_1645,ProdFawcett_Revision2019,3.2.3,60.05082702076868,
,,,,130,0,130,0,,,,,,,,,,,,,3586.8477377999952,None,,,,,,,,,,,,,,,,,,,,,,afternoon,D_new,130,3,3584.5319968999975,None,3584.5319968999975,None,3584.5319968999975,None,1,1.5208484000031604,3584.5319968999975,None,3586.093918399987,None,3586.093918399987,None,3586.6115045999904,None,3586.6115045999904,None,3586.6115045999904,None,n,0.19361970000318252,3586.6115045999904,None,sing7,001,2019_Oct_24_1645,ProdFawcett_Revision2019,3.2.3,60.05082702076868,
,,,,131,0,131,0,,,,,,,,,,,,,3589.617086299986,None,,,,,,,,,,,,,,,,,,,,,,portion,B_aloud,131,228,3587.368003999989,None,3587.368003999989,None,3587.368003999989,None,1,1.4129926999885356,3587.368003999989,None,3588.812350699998,None,3588.812350699998,None,3589.330730799993,None,3589.330730799993,None,3589.330730799993,None,n,0.24230749999696855,3589.330730799993,None,sing7,001,2019_Oct_24_1645,ProdFawcett_Revision2019,3.2.3,60.05082702076868,
,,,,132,0,132,0,,,,,,,,,,,,,3592.4028465999872,None,,,,,,,,,,,,,,,,,,,,,,impact,B_aloud,132,157,3590.136844099994,None,3590.136844099994,None,3590.136844099994,None,1,1.4523775999987265,3590.136844099994,None,3591.6301414999907,None,3591.6301414999907,None,3592.1514781999867,None,3592.1514781999867,None,3592.1514781999867,None,n,0.22189549999893643,3592.1514781999867,None,sing7,001,2019_Oct_24_1645,ProdFawcett_Revision2019,3.2.3,60.05082702076868,
,,,,133,0,133,0,,,,,,,,,,,,,3595.1217150999873,None,,,,,,,,,,,,,,,,,,,,,,health,C_sing,133,149,3592.9238650999905,None,3592.9238650999905,None,3592.9238650999905,None,6,1.4495606999989832,3592.9238650999905,None,3594.416910899992,None,3594.416910899992,None,3594.9382800999883,None,3594.9382800999883,None,3594.9382800999883,None,r,0.1469879999931436,3594.9382800999883,None,sing7,001,2019_Oct_24_1645,ProdFawcett_Revision2019,3.2.3,60.05082702076868,
,,,,134,0,134,0,,,,,,,,,,,,,3598.1591186999867,None,,,,,,,,,,,,,,,,,,,,,,straight,D_new,134,307,3595.64930189999,None,3595.64930189999,None,3595.64930189999,None,1,1.3633161999896402,3595.64930189999,None,3597.0614529999875,None,3597.0614529999875,None,3597.578067899987,None,3597.578067899987,None,3597.578067899987,None,n,0.5389058000000659,3597.578067899987,None,sing7,001,2019_Oct_24_1645,ProdFawcett_Revision2019,3.2.3,60.05082702076868,
,,,,135,0,135,0,,,,,,,,,,,,,3602.2131724999927,None,,,,,,,,,,,,,,,,,,,,,,junior,A_silent,135,167,3598.682748899999,None,3598.682748899999,None,3598.682748899999,None,2,1.810399599999073,3598.682748899999,None,3600.5426149999985,None,3600.5426149999985,None,3601.0610660999955,None,3601.0610660999955,None,3601.0610660999955,None,f,1.120355399994878,3601.0610660999955,None,sing7,001,2019_Oct_24_1645,ProdFawcett_Revision2019,3.2.3,60.05082702076868,
,,,,136,0,136,0,,,,,,,,,,,,,3605.6486248999863,None,,,,,,,,,,,,,,,,,,,,,,dozen,B_aloud,136,102,3602.7347918999876,None,3602.7347918999876,None,3602.7347918999876,None,1,1.7342738000006648,3602.7347918999876,None,3604.512808799991,None,3604.512808799991,None,3605.035637199995,None,3605.035637199995,None,3605.035637199995,None,n,0.5693822999892291,3605.035637199995,None,sing7,001,2019_Oct_24_1645,ProdFawcett_Revision2019,3.2.3,60.05082702076868,
,,,,137,0,137,0,,,,,,,,,,,,,3609.011267099995,None,,,,,,,,,,,,,,,,,,,,,,oxygen,B_aloud,137,209,3606.1724651999975,None,3606.1724651999975,None,3606.1724651999975,None,3,1.8250059999991208,3606.1724651999975,None,3608.0505126999924,None,3608.0505126999924,None,3608.573248399989,None,3608.573248399989,None,3608.573248399989,None,f,0.4076384999934817,3608.573248399989,None,sing7,001,2019_Oct_24_1645,ProdFawcett_Revision2019,3.2.3,60.05082702076868,
,,,,138,0,138,0,,,,,,,,,,,,,3611.9894126,None,,,,,,,,,,,,,,,,,,,,,,relation,A_silent,138,257,3609.5288508999947,None,3609.5288508999947,None,3609.5288508999947,None,1,1.5803702999983216,3609.5288508999947,None,3611.1459255999944,None,3611.1459255999944,None,3611.6813893999933,None,3611.6813893999933,None,3611.6813893999933,None,n,0.27637820001109503,3611.6813893999933,None,sing7,001,2019_Oct_24_1645,ProdFawcett_Revision2019,3.2.3,60.05082702076868,
,,,,139,0,139,0,,,,,,,,,,,,,3614.8756920999876,None,,,,,,,,,,,,,,,,,,,,,,carry,D_new,139,43,3612.5083190999867,None,3612.5083190999867,None,3612.5083190999867,None,1,1.3447935000003781,3612.5083190999867,None,3613.8876822999882,None,3613.8876822999882,None,3614.4147688999947,None,3614.4147688999947,None,3614.4147688999947,None,n,0.43053290000534616,3614.4147688999947,None,sing7,001,2019_Oct_24_1645,ProdFawcett_Revision2019,3.2.3,60.05082702076868,
,,,,140,0,140,0,,,,,,,,,,,,,3618.078615499995,None,,,,,,,,,,,,,,,,,,,,,,hunger,D_new,140,155,3615.3994879999955,None,3615.3994879999955,None,3615.3994879999955,None,2,1.9416779000021052,3615.3994879999955,None,3617.3942806999985,None,3617.3942806999985,None,3617.915741799996,None,3617.915741799996,None,3617.915741799996,None,f,0.12129260000074282,3617.915741799996,None,sing7,001,2019_Oct_24_1645,ProdFawcett_Revision2019,3.2.3,60.05082702076868,
,,,,141,0,141,0,,,,,,,,,,,,,3620.698064199998,None,,,,,,,,,,,,,,,,,,,,,,crime,A_silent,141,78,3618.5984278999968,None,3618.5984278999968,None,3618.5984278999968,None,1,1.3025025999959325,3618.5984278999968,None,3619.9360427999927,None,3619.9360427999927,None,3620.4548923999973,None,3620.4548923999973,None,3620.4548923999973,None,n,0.20648480000090785,3620.4548923999973,None,sing7,001,2019_Oct_24_1645,ProdFawcett_Revision2019,3.2.3,60.05082702076868,
,,,,142,0,142,0,,,,,,,,,,,,,3624.4213378999993,None,,,,,,,,,,,,,,,,,,,,,,majority,C_sing,142,176,3621.22113369999,None,3621.22113369999,None,3621.22113369999,None,4,2.2560557999968296,3621.22113369999,None,3623.532261799992,None,3623.532261799992,None,3624.0612818999944,None,3624.0612818999944,None,3624.0612818999944,None,f,0.31997060000139754,3624.0612818999944,None,sing7,001,2019_Oct_24_1645,ProdFawcett_Revision2019,3.2.3,60.05082702076868,
,,,,143,0,143,0,,,,,,,,,,,,,3628.9075306999875,None,,,,,,,,,,,,,,,,,,,,,,alert,D_new,143,6,3624.939198299995,None,3624.939198299995,None,3624.939198299995,None,2,1.9057736000104342,3624.939198299995,None,3626.8935931999877,None,3626.8935931999877,None,3627.4198594999907,None,3627.4198594999907,None,3627.4198594999907,None,n,1.449176100009936,3627.4198594999907,None,sing7,001,2019_Oct_24_1645,ProdFawcett_Revision2019,3.2.3,60.05082702076868,
,,,,144,0,144,0,,,,,,,,,,,,,3631.3686485999933,None,,,,,,,,,,,,,,,,,,,,,,minute,D_new,144,192,3629.4269197999965,None,3629.4269197999965,None,3629.4269197999965,None,1,1.034266899994691,3629.4269197999965,None,3630.49832649999,None,3630.49832649999,None,3631.024993999992,None,3631.024993999992,None,3631.024993999992,None,n,0.30781880000722595,3631.024993999992,None,sing7,001,2019_Oct_24_1645,ProdFawcett_Revision2019,3.2.3,60.05082702076868,
,,,,145,0,145,0,,,,,,,,,,,,,3634.0292438999895,None,,,,,,,,,,,,,,,,,,,,,,express,D_new,145,124,3631.884674999994,None,3631.884674999994,None,3631.884674999994,None,1,0.9125419000047259,3631.884674999994,None,3632.8349011999962,None,3632.8349011999962,None,3633.359601899996,None,3633.359601899996,None,3633.359601899996,None,n,0.6294981999963056,3633.359601899996,None,sing7,001,2019_Oct_24_1645,ProdFawcett_Revision2019,3.2.3,60.05082702076868,
,,,,146,0,146,0,,,,,,,,,,,,,3637.03133469999,None,,,,,,,,,,,,,,,,,,,,,,distance,D_new,146,100,3634.548050399986,None,3634.548050399986,None,3634.548050399986,None,1,1.7049493999948027,3634.548050399986,None,3636.3092878999887,None,3636.3092878999887,None,3636.821135899998,None,3636.821135899998,None,3636.821135899998,None,n,0.17593039998610038,3636.821135899998,None,sing7,001,2019_Oct_24_1645,ProdFawcett_Revision2019,3.2.3,60.05082702076868,
,,,,147,0,147,0,,,,,,,,,,,,,3641.683534999989,None,,,,,,,,,,,,,,,,,,,,,,style,B_aloud,147,311,3637.550292899992,None,3637.550292899992,None,3637.550292899992,None,1,3.270761499996297,3637.550292899992,None,3640.863402099989,None,3640.863402099989,None,3641.38241369999,None,3641.38241369999,None,3641.38241369999,None,n,0.262573899992276,3641.38241369999,None,sing7,001,2019_Oct_24_1645,ProdFawcett_Revision2019,3.2.3,60.05082702076868,
,,,,148,0,148,0,,,,,,,,,,,,,3646.2398205999925,None,,,,,,,,,,,,,,,,,,,,,,object,D_new,148,204,3642.215366699995,None,3642.215366699995,None,3642.215366699995,None,1,2.6774813999945763,3642.215366699995,None,3644.922542799992,None,3644.922542799992,None,3645.445301999993,None,3645.445301999993,None,3645.445301999993,None,n,0.7599798000010196,3645.445301999993,None,sing7,001,2019_Oct_24_1645,ProdFawcett_Revision2019,3.2.3,60.05082702076868,
,,,,149,0,149,0,,,,,,,,,,,,,3653.065348499993,None,,,,,,,,,,,,,,,,,,,,,,threat,A_silent,149,329,3646.759966999991,None,3646.759966999991,None,3646.759966999991,None,1,4.893053000007058,3646.759966999991,None,3651.7115895999887,None,3651.7115895999887,None,3652.2278967999882,None,3652.2278967999882,None,3652.2278967999882,None,n,0.8014535999973305,3652.2278967999882,None,sing7,001,2019_Oct_24_1645,ProdFawcett_Revision2019,3.2.3,60.05082702076868,
,,,,150,0,150,0,,,,,,,,,,,,,3656.0491138999932,None,,,,,,,,,,,,,,,,,,,,,,trend,D_new,150,340,3653.5825295999966,None,3653.5825295999966,None,3653.5825295999966,None,1,1.7425505999999586,3653.5825295999966,None,3655.368368999989,None,3655.368368999989,None,3655.8864657999948,None,3655.8864657999948,None,3655.8864657999948,None,n,0.1344390000012936,3655.8864657999948,None,sing7,001,2019_Oct_24_1645,ProdFawcett_Revision2019,3.2.3,60.05082702076868,
,,,,151,0,151,0,,,,,,,,,,,,,3658.9197168999963,None,,,,,,,,,,,,,,,,,,,,,,ground,A_silent,151,142,3656.573571899993,None,3656.573571899993,None,3656.573571899993,None,1,1.5111040999909164,3656.573571899993,None,3658.114761399993,None,3658.114761399993,None,3658.6350022999977,None,3658.6350022999977,None,3658.6350022999977,None,n,0.25014969999028835,3658.6350022999977,None,sing7,001,2019_Oct_24_1645,ProdFawcett_Revision2019,3.2.3,60.05082702076868,
,,,,152,0,152,0,,,,,,,,,,,,,3662.0221104999946,None,,,,,,,,,,,,,,,,,,,,,,addition,D_new,152,2,3659.438730199996,None,3659.438730199996,None,3659.438730199996,None,4,1.8304724999907194,3659.438730199996,None,3661.3177447999915,None,3661.3177447999915,None,3661.8385875999957,None,3661.8385875999957,None,3661.8385875999957,None,f,0.15036200000031386,3661.8385875999957,None,sing7,001,2019_Oct_24_1645,ProdFawcett_Revision2019,3.2.3,60.05082702076868,
,,,,153,0,153,0,,,,,,,,,,,,,3664.793681199997,None,,,,,,,,,,,,,,,,,,,,,,question,C_sing,153,247,3662.536734999987,None,3662.536734999987,None,3662.536734999987,None,1,1.436265900003491,3662.536734999987,None,3664.0227618999925,None,3664.0227618999925,None,3664.5438381999993,None,3664.5438381999993,None,3664.5438381999993,None,n,0.21327009999367874,3664.5438381999993,None,sing7,001,2019_Oct_24_1645,ProdFawcett_Revision2019,3.2.3,60.05082702076868,
,,,,154,0,154,0,,,,,,,,,,,,,3667.143420099994,None,,,,,,,,,,,,,,,,,,,,,,place,D_new,154,222,3665.3116369999916,None,3665.3116369999916,None,3665.3116369999916,None,1,1.165344399996684,3665.3116369999916,None,3666.5210178999987,None,3666.5210178999987,None,3667.042295499996,None,3667.042295499996,None,3667.042295499996,None,n,0.058700499997939914,3667.042295499996,None,sing7,001,2019_Oct_24_1645,ProdFawcett_Revision2019,3.2.3,60.05082702076868,
