StudyTrials.thisRepN,StudyTrials.thisTrialN,StudyTrials.thisN,StudyTrials.thisIndex,TestTrials.thisRepN,TestTrials.thisTrialN,TestTrials.thisN,TestTrials.thisIndex,textWelcome.started,textWelcome.stopped,keyWelcome.keys,keyWelcome.rt,keyWelcome.started,keyWelcome.stopped,textReady.started,textReady.stopped,keyReady.keys,keyReady.rt,keyReady.started,keyReady.stopped,polyback_2.started,polyback_2.stopped,studyPic,studyWord,studyType,studyN,studyOrder,polyback_3.started,polyback_3.stopped,studyPicChoice.started,studyPicChoice.stopped,polyback_4.started,polyback_4.stopped,polyback.started,polyback.stopped,studyWords.started,studyWords.stopped,getResearcher.started,getResearcher.stopped,kPress2.keys,kPress2.rt,kPress2.started,kPress2.stopped,testWord,testType,testN,testOrder,polyback_5.started,polyback_5.stopped,testWords.started,testWords.stopped,textScale.started,textScale.stopped,keyConf.keys,keyConf.rt,keyConf.started,keyConf.stopped,polyback_6.started,polyback_6.stopped,studyWords_2.started,studyWords_2.stopped,polyback_7.started,polyback_7.stopped,testWords_2.started,testWords_2.stopped,textScale_2.started,textScale_2.stopped,keyRKN.keys,keyRKN.rt,keyRKN.started,keyRKN.stopped,participant,session,date,expName,psychopyVersion,frameRate,
,,,,,,,,12.150836799992248,None,space,1475.4477185000433,12.150836799992248,None,,,,,,,,,,,,,,,,,,,,,,,,,,,,,,,,,,,,,,,,,,,,,,,,,,,,,,,,,,sing14,001,2019_Oct_31_1526,ProdFawcett_Revision2019,3.2.3,59.65836044304997,
,,,,,,,,,,,,,,1487.6325897000497,None,space,11.94951609999407,1487.6325897000497,None,,,,,,,,,,,,,,,,,,,,,,,,,,,,,,,,,,,,,,,,,,,,,,,,,,,,sing14,001,2019_Oct_31_1526,ProdFawcett_Revision2019,3.2.3,59.65836044304997,
0,0,0,0,,,,,,,,,,,,,,,,,1504.3670982000185,None,materials/speakPic.jpg,narrow,B_aloud,0,197,1500.682734400034,None,1500.682734400034,None,1501.6188280000351,None,1501.8793062000768,None,1501.8793062000768,None,,,,,,,,,,,,,,,,,,,,,,,,,,,,,,,,,,,sing14,001,2019_Oct_31_1526,ProdFawcett_Revision2019,3.2.3,59.65836044304997,
1,0,1,0,,,,,,,,,,,,,,,,,1508.6340549000306,None,materials/singPic.jpg,profession,C_sing,1,241,1504.9486271000933,None,1504.9486271000933,None,1505.884771300014,None,1506.1437552000862,None,1506.1437552000862,None,,,,,,,,,,,,,,,,,,,,,,,,,,,,,,,,,,,sing14,001,2019_Oct_31_1526,ProdFawcett_Revision2019,3.2.3,59.65836044304997,
2,0,2,0,,,,,,,,,,,,,,,,,1512.9000601000153,None,materials/readPic.jpg,brief,A_silent,2,28,1509.208375700051,None,1509.208375700051,None,1510.1500429000007,None,1510.4123424000572,None,1510.4123424000572,None,,,,,,,,,,,,,,,,,,,,,,,,,,,,,,,,,,,sing14,001,2019_Oct_31_1526,ProdFawcett_Revision2019,3.2.3,59.65836044304997,
3,0,3,0,,,,,,,,,,,,,,,,,1517.1679347000318,None,materials/speakPic.jpg,production,B_aloud,3,240,1513.482562100049,None,1513.482562100049,None,1514.4183294000104,None,1514.6766802000348,None,1514.6766802000348,None,,,,,,,,,,,,,,,,,,,,,,,,,,,,,,,,,,,sing14,001,2019_Oct_31_1526,ProdFawcett_Revision2019,3.2.3,59.65836044304997,
4,0,4,0,,,,,,,,,,,,,,,,,1521.4349685000489,None,materials/singPic.jpg,trend,C_sing,4,340,1517.7536900000414,None,1517.7536900000414,None,1518.68554830004,None,1518.937248100061,None,1518.937248100061,None,,,,,,,,,,,,,,,,,,,,,,,,,,,,,,,,,,,sing14,001,2019_Oct_31_1526,ProdFawcett_Revision2019,3.2.3,59.65836044304997,
5,0,5,0,,,,,,,,,,,,,,,,,1525.7019513000268,None,materials/speakPic.jpg,people,B_aloud,5,216,1522.0582715000492,None,1522.0582715000492,None,1522.9524826999987,None,1523.2025093000848,None,1523.2025093000848,None,,,,,,,,,,,,,,,,,,,,,,,,,,,,,,,,,,,sing14,001,2019_Oct_31_1526,ProdFawcett_Revision2019,3.2.3,59.65836044304997,
6,0,6,0,,,,,,,,,,,,,,,,,1529.968789900071,None,materials/speakPic.jpg,travel,B_aloud,6,338,1526.2673429000424,None,1526.2673429000424,None,1527.2181712000165,None,1527.4792818001006,None,1527.4792818001006,None,,,,,,,,,,,,,,,,,,,,,,,,,,,,,,,,,,,sing14,001,2019_Oct_31_1526,ProdFawcett_Revision2019,3.2.3,59.65836044304997,
7,0,7,0,,,,,,,,,,,,,,,,,1534.235753200017,None,materials/singPic.jpg,period,C_sing,7,217,1530.563125399989,None,1530.563125399989,None,1531.4857766000787,None,1531.7427662000991,None,1531.7427662000991,None,,,,,,,,,,,,,,,,,,,,,,,,,,,,,,,,,,,sing14,001,2019_Oct_31_1526,ProdFawcett_Revision2019,3.2.3,59.65836044304997,
8,0,8,0,,,,,,,,,,,,,,,,,1538.5016527000116,None,materials/readPic.jpg,smooth,A_silent,8,292,1534.813134200056,None,1534.813134200056,None,1535.7529115000507,None,1536.0106142000295,None,1536.0106142000295,None,,,,,,,,,,,,,,,,,,,,,,,,,,,,,,,,,,,sing14,001,2019_Oct_31_1526,ProdFawcett_Revision2019,3.2.3,59.65836044304997,
9,0,9,0,,,,,,,,,,,,,,,,,1542.7696113000857,None,materials/singPic.jpg,theme,C_sing,9,326,1539.0870506000938,None,1539.0870506000938,None,1540.019769000006,None,1540.2788494999986,None,1540.2788494999986,None,,,,,,,,,,,,,,,,,,,,,,,,,,,,,,,,,,,sing14,001,2019_Oct_31_1526,ProdFawcett_Revision2019,3.2.3,59.65836044304997,
10,0,10,0,,,,,,,,,,,,,,,,,1547.036556200008,None,materials/readPic.jpg,income,A_silent,10,159,1543.3495630000252,None,1543.3495630000252,None,1544.2867268000264,None,1544.539622600074,None,1544.539622600074,None,,,,,,,,,,,,,,,,,,,,,,,,,,,,,,,,,,,sing14,001,2019_Oct_31_1526,ProdFawcett_Revision2019,3.2.3,59.65836044304997,
11,0,11,0,,,,,,,,,,,,,,,,,1551.3035243999911,None,materials/readPic.jpg,course,A_silent,11,74,1547.644665000029,None,1547.644665000029,None,1548.5535795000615,None,1548.810026400024,None,1548.810026400024,None,,,,,,,,,,,,,,,,,,,,,,,,,,,,,,,,,,,sing14,001,2019_Oct_31_1526,ProdFawcett_Revision2019,3.2.3,59.65836044304997,
12,0,12,0,,,,,,,,,,,,,,,,,1555.570417799987,None,materials/speakPic.jpg,division,B_aloud,12,101,1551.8775445000501,None,1551.8775445000501,None,1552.8214902000036,None,1553.0827728000004,None,1553.0827728000004,None,,,,,,,,,,,,,,,,,,,,,,,,,,,,,,,,,,,sing14,001,2019_Oct_31_1526,ProdFawcett_Revision2019,3.2.3,59.65836044304997,
13,0,13,0,,,,,,,,,,,,,,,,,1559.8364031000528,None,materials/speakPic.jpg,court,B_aloud,13,75,1556.142743900069,None,1556.142743900069,None,1557.0868220000993,None,1557.3443031000206,None,1557.3443031000206,None,,,,,,,,,,,,,,,,,,,,,,,,,,,,,,,,,,,sing14,001,2019_Oct_31_1526,ProdFawcett_Revision2019,3.2.3,59.65836044304997,
14,0,14,0,,,,,,,,,,,,,,,,,1564.1063715000637,None,materials/singPic.jpg,instrument,C_sing,14,163,1560.445810000063,None,1560.445810000063,None,1561.3555200000992,None,1561.614503400051,None,1561.614503400051,None,,,,,,,,,,,,,,,,,,,,,,,,,,,,,,,,,,,sing14,001,2019_Oct_31_1526,ProdFawcett_Revision2019,3.2.3,59.65836044304997,
15,0,15,0,,,,,,,,,,,,,,,,,1568.3713064000476,None,materials/speakPic.jpg,clear,B_aloud,15,52,1564.6689169000601,None,1564.6689169000601,None,1565.6228363000555,None,1565.8787090000696,None,1565.8787090000696,None,,,,,,,,,,,,,,,,,,,,,,,,,,,,,,,,,,,sing14,001,2019_Oct_31_1526,ProdFawcett_Revision2019,3.2.3,59.65836044304997,
16,0,16,0,,,,,,,,,,,,,,,,,1572.6383748000953,None,materials/readPic.jpg,general,A_silent,16,135,1568.9560508000432,None,1568.9560508000432,None,1569.8885736000957,None,1570.1465879000025,None,1570.1465879000025,None,,,,,,,,,,,,,,,,,,,,,,,,,,,,,,,,,,,sing14,001,2019_Oct_31_1526,ProdFawcett_Revision2019,3.2.3,59.65836044304997,
17,0,17,0,,,,,,,,,,,,,,,,,1576.9052896000212,None,materials/singPic.jpg,guest,C_sing,17,146,1573.2266789000714,None,1573.2266789000714,None,1574.1554364000913,None,1574.4137617000379,None,1574.4137617000379,None,,,,,,,,,,,,,,,,,,,,,,,,,,,,,,,,,,,sing14,001,2019_Oct_31_1526,ProdFawcett_Revision2019,3.2.3,59.65836044304997,
18,0,18,0,,,,,,,,,,,,,,,,,1581.1722628000425,None,materials/readPic.jpg,rural,A_silent,18,269,1577.4851015000604,None,1577.4851015000604,None,1578.4220686000772,None,1578.6788156999974,None,1578.6788156999974,None,,,,,,,,,,,,,,,,,,,,,,,,,,,,,,,,,,,sing14,001,2019_Oct_31_1526,ProdFawcett_Revision2019,3.2.3,59.65836044304997,
19,0,19,0,,,,,,,,,,,,,,,,,1585.438537600101,None,materials/speakPic.jpg,testimony,B_aloud,19,325,1581.731212100014,None,1581.731212100014,None,1582.689587000059,None,1582.9492763000308,None,1582.9492763000308,None,,,,,,,,,,,,,,,,,,,,,,,,,,,,,,,,,,,sing14,001,2019_Oct_31_1526,ProdFawcett_Revision2019,3.2.3,59.65836044304997,
20,0,20,0,,,,,,,,,,,,,,,,,1589.7061502001015,None,materials/speakPic.jpg,author,B_aloud,20,15,1586.002381700091,None,1586.002381700091,None,1586.9564100001007,None,1587.213196500088,None,1587.213196500088,None,,,,,,,,,,,,,,,,,,,,,,,,,,,,,,,,,,,sing14,001,2019_Oct_31_1526,ProdFawcett_Revision2019,3.2.3,59.65836044304997,
21,0,21,0,,,,,,,,,,,,,,,,,1593.972244100063,None,materials/singPic.jpg,tennis,C_sing,21,323,1590.2951810000231,None,1590.2951810000231,None,1591.2236075000837,None,1591.4804974000435,None,1591.4804974000435,None,,,,,,,,,,,,,,,,,,,,,,,,,,,,,,,,,,,sing14,001,2019_Oct_31_1526,ProdFawcett_Revision2019,3.2.3,59.65836044304997,
22,0,22,0,,,,,,,,,,,,,,,,,1598.2400806000223,None,materials/readPic.jpg,symbol,A_silent,22,321,1594.5544879999943,None,1594.5544879999943,None,1595.490669800085,None,1595.7541633000365,None,1595.7541633000365,None,,,,,,,,,,,,,,,,,,,,,,,,,,,,,,,,,,,sing14,001,2019_Oct_31_1526,ProdFawcett_Revision2019,3.2.3,59.65836044304997,
23,0,23,0,,,,,,,,,,,,,,,,,1602.5069747000234,None,materials/singPic.jpg,question,C_sing,23,247,1598.822325700079,None,1598.822325700079,None,1599.7571752000367,None,1600.0158320000628,None,1600.0158320000628,None,,,,,,,,,,,,,,,,,,,,,,,,,,,,,,,,,,,sing14,001,2019_Oct_31_1526,ProdFawcett_Revision2019,3.2.3,59.65836044304997,
24,0,24,0,,,,,,,,,,,,,,,,,1606.7737042000517,None,materials/speakPic.jpg,light,B_aloud,24,171,1603.0734644000186,None,1603.0734644000186,None,1604.022725100047,None,1604.28664210008,None,1604.28664210008,None,,,,,,,,,,,,,,,,,,,,,,,,,,,,,,,,,,,sing14,001,2019_Oct_31_1526,ProdFawcett_Revision2019,3.2.3,59.65836044304997,
25,0,25,0,,,,,,,,,,,,,,,,,1611.0409239000874,None,materials/singPic.jpg,search,C_sing,25,276,1607.3272978999885,None,1607.3272978999885,None,1608.2911957000615,None,1608.5472911000252,None,1608.5472911000252,None,,,,,,,,,,,,,,,,,,,,,,,,,,,,,,,,,,,sing14,001,2019_Oct_31_1526,ProdFawcett_Revision2019,3.2.3,59.65836044304997,
26,0,26,0,,,,,,,,,,,,,,,,,1615.3079061000608,None,materials/speakPic.jpg,ground,B_aloud,26,142,1611.616461400059,None,1611.616461400059,None,1612.558151800069,None,1612.8186180000193,None,1612.8186180000193,None,,,,,,,,,,,,,,,,,,,,,,,,,,,,,,,,,,,sing14,001,2019_Oct_31_1526,ProdFawcett_Revision2019,3.2.3,59.65836044304997,
27,0,27,0,,,,,,,,,,,,,,,,,1619.5737429000437,None,materials/readPic.jpg,watch,A_silent,27,351,1615.9424089000095,None,1615.9424089000095,None,1616.8255152000347,None,1617.077771799988,None,1617.077771799988,None,,,,,,,,,,,,,,,,,,,,,,,,,,,,,,,,,,,sing14,001,2019_Oct_31_1526,ProdFawcett_Revision2019,3.2.3,59.65836044304997,
28,0,28,0,,,,,,,,,,,,,,,,,1623.8416687001009,None,materials/readPic.jpg,trial,A_silent,28,341,1620.1441715999972,None,1620.1441715999972,None,1621.0919535000576,None,1621.3480431000935,None,1621.3480431000935,None,,,,,,,,,,,,,,,,,,,,,,,,,,,,,,,,,,,sing14,001,2019_Oct_31_1526,ProdFawcett_Revision2019,3.2.3,59.65836044304997,
29,0,29,0,,,,,,,,,,,,,,,,,1628.107873900095,None,materials/readPic.jpg,republic,A_silent,29,260,1624.4678879000712,None,1624.4678879000712,None,1625.3590658000903,None,1625.6241481000325,None,1625.6241481000325,None,,,,,,,,,,,,,,,,,,,,,,,,,,,,,,,,,,,sing14,001,2019_Oct_31_1526,ProdFawcett_Revision2019,3.2.3,59.65836044304997,
30,0,30,0,,,,,,,,,,,,,,,,,1632.3758324000519,None,materials/readPic.jpg,cover,A_silent,30,77,1628.669501400087,None,1628.669501400087,None,1629.6264280000469,None,1629.8861607,None,1629.8861607,None,,,,,,,,,,,,,,,,,,,,,,,,,,,,,,,,,,,sing14,001,2019_Oct_31_1526,ProdFawcett_Revision2019,3.2.3,59.65836044304997,
31,0,31,0,,,,,,,,,,,,,,,,,1636.6425099000335,None,materials/speakPic.jpg,gesture,B_aloud,31,137,1632.950585899991,None,1632.950585899991,None,1633.8927928000921,None,1634.1546453000046,None,1634.1546453000046,None,,,,,,,,,,,,,,,,,,,,,,,,,,,,,,,,,,,sing14,001,2019_Oct_31_1526,ProdFawcett_Revision2019,3.2.3,59.65836044304997,
32,0,32,0,,,,,,,,,,,,,,,,,1640.9096131999977,None,materials/readPic.jpg,graduate,A_silent,32,141,1637.2126813000068,None,1637.2126813000068,None,1638.1594368000515,None,1638.411709900014,None,1638.411709900014,None,,,,,,,,,,,,,,,,,,,,,,,,,,,,,,,,,,,sing14,001,2019_Oct_31_1526,ProdFawcett_Revision2019,3.2.3,59.65836044304997,
33,0,33,0,,,,,,,,,,,,,,,,,1645.1765073999995,None,materials/readPic.jpg,place,A_silent,33,222,1641.4982885000063,None,1641.4982885000063,None,1642.4279500000412,None,1642.6826724000275,None,1642.6826724000275,None,,,,,,,,,,,,,,,,,,,,,,,,,,,,,,,,,,,sing14,001,2019_Oct_31_1526,ProdFawcett_Revision2019,3.2.3,59.65836044304997,
34,0,34,0,,,,,,,,,,,,,,,,,1649.4435191000812,None,materials/singPic.jpg,colonel,C_sing,34,55,1645.779600400012,None,1645.779600400012,None,1646.6936098000733,None,1646.9523399000755,None,1646.9523399000755,None,,,,,,,,,,,,,,,,,,,,,,,,,,,,,,,,,,,sing14,001,2019_Oct_31_1526,ProdFawcett_Revision2019,3.2.3,59.65836044304997,
35,0,35,0,,,,,,,,,,,,,,,,,1653.709631600068,None,materials/singPic.jpg,opening,C_sing,35,205,1650.0236176000908,None,1650.0236176000908,None,1650.9598282000516,None,1651.2208928000182,None,1651.2208928000182,None,,,,,,,,,,,,,,,,,,,,,,,,,,,,,,,,,,,sing14,001,2019_Oct_31_1526,ProdFawcett_Revision2019,3.2.3,59.65836044304997,
36,0,36,0,,,,,,,,,,,,,,,,,1657.9768128000433,None,materials/readPic.jpg,straight,A_silent,36,307,1654.2858956001,None,1654.2858956001,None,1655.2286505000666,None,1655.4927260000259,None,1655.4927260000259,None,,,,,,,,,,,,,,,,,,,,,,,,,,,,,,,,,,,sing14,001,2019_Oct_31_1526,ProdFawcett_Revision2019,3.2.3,59.65836044304997,
37,0,37,0,,,,,,,,,,,,,,,,,1662.2442878000438,None,materials/singPic.jpg,balance,C_sing,37,17,1658.5537726000184,None,1658.5537726000184,None,1659.4955460000783,None,1659.7570394000504,None,1659.7570394000504,None,,,,,,,,,,,,,,,,,,,,,,,,,,,,,,,,,,,sing14,001,2019_Oct_31_1526,ProdFawcett_Revision2019,3.2.3,59.65836044304997,
38,0,38,0,,,,,,,,,,,,,,,,,1666.5112933000783,None,materials/speakPic.jpg,swift,B_aloud,38,320,1662.8463334999979,None,1662.8463334999979,None,1663.7601517000003,None,1664.0137130999938,None,1664.0137130999938,None,,,,,,,,,,,,,,,,,,,,,,,,,,,,,,,,,,,sing14,001,2019_Oct_31_1526,ProdFawcett_Revision2019,3.2.3,59.65836044304997,
39,0,39,0,,,,,,,,,,,,,,,,,1670.7781660000328,None,materials/singPic.jpg,order,C_sing,39,207,1667.0919386000605,None,1667.0919386000605,None,1668.0295257000253,None,1668.284382599988,None,1668.284382599988,None,,,,,,,,,,,,,,,,,,,,,,,,,,,,,,,,,,,sing14,001,2019_Oct_31_1526,ProdFawcett_Revision2019,3.2.3,59.65836044304997,
40,0,40,0,,,,,,,,,,,,,,,,,1675.0451219000388,None,materials/readPic.jpg,murder,A_silent,40,195,1671.3512569000013,None,1671.3512569000013,None,1672.2952365000965,None,1672.5516253000824,None,1672.5516253000824,None,,,,,,,,,,,,,,,,,,,,,,,,,,,,,,,,,,,sing14,001,2019_Oct_31_1526,ProdFawcett_Revision2019,3.2.3,59.65836044304997,
41,0,41,0,,,,,,,,,,,,,,,,,1679.3122977000894,None,materials/singPic.jpg,budget,C_sing,41,34,1675.6236798000755,None,1675.6236798000755,None,1676.561218000017,None,1676.8247233000584,None,1676.8247233000584,None,,,,,,,,,,,,,,,,,,,,,,,,,,,,,,,,,,,sing14,001,2019_Oct_31_1526,ProdFawcett_Revision2019,3.2.3,59.65836044304997,
42,0,42,0,,,,,,,,,,,,,,,,,1683.5795648000203,None,materials/singPic.jpg,broke,C_sing,42,32,1679.8567773000104,None,1679.8567773000104,None,1680.8301142000128,None,1681.0904177000048,None,1681.0904177000048,None,,,,,,,,,,,,,,,,,,,,,,,,,,,,,,,,,,,sing14,001,2019_Oct_31_1526,ProdFawcett_Revision2019,3.2.3,59.65836044304997,
43,0,43,0,,,,,,,,,,,,,,,,,1687.8452191000106,None,materials/speakPic.jpg,taste,B_aloud,43,322,1684.1567380999913,None,1684.1567380999913,None,1685.0958293000003,None,1685.3524837000296,None,1685.3524837000296,None,,,,,,,,,,,,,,,,,,,,,,,,,,,,,,,,,,,sing14,001,2019_Oct_31_1526,ProdFawcett_Revision2019,3.2.3,59.65836044304997,
44,0,44,0,,,,,,,,,,,,,,,,,1692.1130018000258,None,materials/speakPic.jpg,cross,B_aloud,44,80,1688.4145330000902,None,1688.4145330000902,None,1689.3654448000016,None,1689.6135472999886,None,1689.6135472999886,None,,,,,,,,,,,,,,,,,,,,,,,,,,,,,,,,,,,sing14,001,2019_Oct_31_1526,ProdFawcett_Revision2019,3.2.3,59.65836044304997,
45,0,45,0,,,,,,,,,,,,,,,,,1696.3798108000774,None,materials/readPic.jpg,majority,A_silent,45,176,1692.6849410000723,None,1692.6849410000723,None,1693.6309905000962,None,1693.8952603000216,None,1693.8952603000216,None,,,,,,,,,,,,,,,,,,,,,,,,,,,,,,,,,,,sing14,001,2019_Oct_31_1526,ProdFawcett_Revision2019,3.2.3,59.65836044304997,
46,0,46,0,,,,,,,,,,,,,,,,,1700.6470290001016,None,materials/singPic.jpg,cousin,C_sing,46,76,1696.9586221000645,None,1696.9586221000645,None,1697.8975591000635,None,1698.1532806000905,None,1698.1532806000905,None,,,,,,,,,,,,,,,,,,,,,,,,,,,,,,,,,,,sing14,001,2019_Oct_31_1526,ProdFawcett_Revision2019,3.2.3,59.65836044304997,
47,0,47,0,,,,,,,,,,,,,,,,,1704.913897600025,None,materials/speakPic.jpg,material,B_aloud,47,182,1701.2172373000067,None,1701.2172373000067,None,1702.164289800101,None,1702.420875000069,None,1702.420875000069,None,,,,,,,,,,,,,,,,,,,,,,,,,,,,,,,,,,,sing14,001,2019_Oct_31_1526,ProdFawcett_Revision2019,3.2.3,59.65836044304997,
48,0,48,0,,,,,,,,,,,,,,,,,1709.180819000001,None,materials/singPic.jpg,pretty,C_sing,48,233,1705.4999379999936,None,1705.4999379999936,None,1706.431434200029,None,1706.6906263000565,None,1706.6906263000565,None,,,,,,,,,,,,,,,,,,,,,,,,,,,,,,,,,,,sing14,001,2019_Oct_31_1526,ProdFawcett_Revision2019,3.2.3,59.65836044304997,
49,0,49,0,,,,,,,,,,,,,,,,,1713.447832700098,None,materials/singPic.jpg,column,C_sing,49,57,1709.7775531000225,None,1709.7775531000225,None,1710.6979871999938,None,1710.9545551000629,None,1710.9545551000629,None,,,,,,,,,,,,,,,,,,,,,,,,,,,,,,,,,,,sing14,001,2019_Oct_31_1526,ProdFawcett_Revision2019,3.2.3,59.65836044304997,
50,0,50,0,,,,,,,,,,,,,,,,,1717.71346670005,None,materials/readPic.jpg,present,A_silent,50,231,1714.0205833000364,None,1714.0205833000364,None,1714.9651327000465,None,1715.2254818000365,None,1715.2254818000365,None,,,,,,,,,,,,,,,,,,,,,,,,,,,,,,,,,,,sing14,001,2019_Oct_31_1526,ProdFawcett_Revision2019,3.2.3,59.65836044304997,
51,0,51,0,,,,,,,,,,,,,,,,,1721.982016300084,None,materials/singPic.jpg,south,C_sing,51,296,1718.3329431000166,None,1718.3329431000166,None,1719.231926000095,None,1719.4886665000813,None,1719.4886665000813,None,,,,,,,,,,,,,,,,,,,,,,,,,,,,,,,,,,,sing14,001,2019_Oct_31_1526,ProdFawcett_Revision2019,3.2.3,59.65836044304997,
52,0,52,0,,,,,,,,,,,,,,,,,1726.2486196000827,None,materials/readPic.jpg,trash,A_silent,52,337,1722.5625883000903,None,1722.5625883000903,None,1723.4981465000892,None,1723.7550789000234,None,1723.7550789000234,None,,,,,,,,,,,,,,,,,,,,,,,,,,,,,,,,,,,sing14,001,2019_Oct_31_1526,ProdFawcett_Revision2019,3.2.3,59.65836044304997,
53,0,53,0,,,,,,,,,,,,,,,,,1730.5157804000191,None,materials/readPic.jpg,community,A_silent,53,63,1726.7991620000685,None,1726.7991620000685,None,1727.7665641000494,None,1728.0254199000774,None,1728.0254199000774,None,,,,,,,,,,,,,,,,,,,,,,,,,,,,,,,,,,,sing14,001,2019_Oct_31_1526,ProdFawcett_Revision2019,3.2.3,59.65836044304997,
54,0,54,0,,,,,,,,,,,,,,,,,1734.782967200037,None,materials/readPic.jpg,capital,A_silent,54,40,1731.0865712000523,None,1731.0865712000523,None,1732.0327473999932,None,1732.2893437000457,None,1732.2893437000457,None,,,,,,,,,,,,,,,,,,,,,,,,,,,,,,,,,,,sing14,001,2019_Oct_31_1526,ProdFawcett_Revision2019,3.2.3,59.65836044304997,
55,0,55,0,,,,,,,,,,,,,,,,,1739.0494811000535,None,materials/speakPic.jpg,marriage,B_aloud,55,179,1735.4028784000548,None,1735.4028784000548,None,1736.2997409000527,None,1736.54992270004,None,1736.54992270004,None,,,,,,,,,,,,,,,,,,,,,,,,,,,,,,,,,,,sing14,001,2019_Oct_31_1526,ProdFawcett_Revision2019,3.2.3,59.65836044304997,
56,0,56,0,,,,,,,,,,,,,,,,,1743.316569000017,None,materials/speakPic.jpg,staff,B_aloud,56,301,1739.6026678000344,None,1739.6026678000344,None,1740.5670331000583,None,1740.8227490000427,None,1740.8227490000427,None,,,,,,,,,,,,,,,,,,,,,,,,,,,,,,,,,,,sing14,001,2019_Oct_31_1526,ProdFawcett_Revision2019,3.2.3,59.65836044304997,
57,0,57,0,,,,,,,,,,,,,,,,,1747.5845710000722,None,materials/speakPic.jpg,season,B_aloud,57,277,1743.9009753999999,None,1743.9009753999999,None,1744.8336653000442,None,1745.0900983000174,None,1745.0900983000174,None,,,,,,,,,,,,,,,,,,,,,,,,,,,,,,,,,,,sing14,001,2019_Oct_31_1526,ProdFawcett_Revision2019,3.2.3,59.65836044304997,
58,0,58,0,,,,,,,,,,,,,,,,,1751.849606200005,None,materials/singPic.jpg,minor,C_sing,58,191,1748.1658877000446,None,1748.1658877000446,None,1749.0995356000494,None,1749.3572303000838,None,1749.3572303000838,None,,,,,,,,,,,,,,,,,,,,,,,,,,,,,,,,,,,sing14,001,2019_Oct_31_1526,ProdFawcett_Revision2019,3.2.3,59.65836044304997,
59,0,59,0,,,,,,,,,,,,,,,,,1756.1174244000576,None,materials/speakPic.jpg,threat,B_aloud,59,329,1752.432173600071,None,1752.432173600071,None,1753.367814600002,None,1753.6250588000985,None,1753.6250588000985,None,,,,,,,,,,,,,,,,,,,,,,,,,,,,,,,,,,,sing14,001,2019_Oct_31_1526,ProdFawcett_Revision2019,3.2.3,59.65836044304997,
60,0,60,0,,,,,,,,,,,,,,,,,1760.3843813000713,None,materials/speakPic.jpg,dream,B_aloud,60,104,1756.6911877000239,None,1756.6911877000239,None,1757.6344162999885,None,1757.8905445000855,None,1757.8905445000855,None,,,,,,,,,,,,,,,,,,,,,,,,,,,,,,,,,,,sing14,001,2019_Oct_31_1526,ProdFawcett_Revision2019,3.2.3,59.65836044304997,
61,0,61,0,,,,,,,,,,,,,,,,,1764.6511944000376,None,materials/speakPic.jpg,device,B_aloud,61,93,1760.955121200066,None,1760.955121200066,None,1761.9013652000576,None,1762.1677173000062,None,1762.1677173000062,None,,,,,,,,,,,,,,,,,,,,,,,,,,,,,,,,,,,sing14,001,2019_Oct_31_1526,ProdFawcett_Revision2019,3.2.3,59.65836044304997,
62,0,62,0,,,,,,,,,,,,,,,,,1768.9183714000974,None,materials/singPic.jpg,character,C_sing,62,46,1765.232722899993,None,1765.232722899993,None,1766.1690523000434,None,1766.4265783000737,None,1766.4265783000737,None,,,,,,,,,,,,,,,,,,,,,,,,,,,,,,,,,,,sing14,001,2019_Oct_31_1526,ProdFawcett_Revision2019,3.2.3,59.65836044304997,
63,0,63,0,,,,,,,,,,,,,,,,,1773.1851232000627,None,materials/readPic.jpg,chief,A_silent,63,48,1769.5072346000234,None,1769.5072346000234,None,1770.4341678000055,None,1770.6840765000088,None,1770.6840765000088,None,,,,,,,,,,,,,,,,,,,,,,,,,,,,,,,,,,,sing14,001,2019_Oct_31_1526,ProdFawcett_Revision2019,3.2.3,59.65836044304997,
64,0,64,0,,,,,,,,,,,,,,,,,1777.4516493000556,None,materials/speakPic.jpg,appearance,B_aloud,64,10,1773.7336474000476,None,1773.7336474000476,None,1774.7036728000967,None,1774.9632888000924,None,1774.9632888000924,None,,,,,,,,,,,,,,,,,,,,,,,,,,,,,,,,,,,sing14,001,2019_Oct_31_1526,ProdFawcett_Revision2019,3.2.3,59.65836044304997,
65,0,65,0,,,,,,,,,,,,,,,,,1781.7190577000147,None,materials/readPic.jpg,weight,A_silent,65,353,1778.0002042000415,None,1778.0002042000415,None,1778.9734957000474,None,1779.2320757000707,None,1779.2320757000707,None,,,,,,,,,,,,,,,,,,,,,,,,,,,,,,,,,,,sing14,001,2019_Oct_31_1526,ProdFawcett_Revision2019,3.2.3,59.65836044304997,
66,0,66,0,,,,,,,,,,,,,,,,,1785.9858616000274,None,materials/singPic.jpg,payment,C_sing,66,215,1782.3122661000816,None,1782.3122661000816,None,1783.2363119000802,None,1783.4880012000212,None,1783.4880012000212,None,,,,,,,,,,,,,,,,,,,,,,,,,,,,,,,,,,,sing14,001,2019_Oct_31_1526,ProdFawcett_Revision2019,3.2.3,59.65836044304997,
67,0,67,0,,,,,,,,,,,,,,,,,1790.2530203000642,None,materials/readPic.jpg,number,A_silent,67,203,1786.5572593000252,None,1786.5572593000252,None,1787.5019385000924,None,1787.7660349000944,None,1787.7660349000944,None,,,,,,,,,,,,,,,,,,,,,,,,,,,,,,,,,,,sing14,001,2019_Oct_31_1526,ProdFawcett_Revision2019,3.2.3,59.65836044304997,
68,0,68,0,,,,,,,,,,,,,,,,,1794.5199749000603,None,materials/speakPic.jpg,smell,B_aloud,68,291,1790.8578986000502,None,1790.8578986000502,None,1791.7707038000226,None,1792.0261908000102,None,1792.0261908000102,None,,,,,,,,,,,,,,,,,,,,,,,,,,,,,,,,,,,sing14,001,2019_Oct_31_1526,ProdFawcett_Revision2019,3.2.3,59.65836044304997,
69,0,69,0,,,,,,,,,,,,,,,,,1798.7859699000837,None,materials/readPic.jpg,incident,A_silent,69,158,1795.1257030999986,None,1795.1257030999986,None,1796.0363856999902,None,1796.2953066000482,None,1796.2953066000482,None,,,,,,,,,,,,,,,,,,,,,,,,,,,,,,,,,,,sing14,001,2019_Oct_31_1526,ProdFawcett_Revision2019,3.2.3,59.65836044304997,
70,0,70,0,,,,,,,,,,,,,,,,,1803.0537981000962,None,materials/speakPic.jpg,member,B_aloud,70,188,1799.356163599994,None,1799.356163599994,None,1800.3023861000547,None,1800.5658475999953,None,1800.5658475999953,None,,,,,,,,,,,,,,,,,,,,,,,,,,,,,,,,,,,sing14,001,2019_Oct_31_1526,ProdFawcett_Revision2019,3.2.3,59.65836044304997,
71,0,71,0,,,,,,,,,,,,,,,,,1807.3207085999893,None,materials/readPic.jpg,break,A_silent,71,26,1803.6233714000555,None,1803.6233714000555,None,1804.5731284000212,None,1804.8313109000446,None,1804.8313109000446,None,,,,,,,,,,,,,,,,,,,,,,,,,,,,,,,,,,,sing14,001,2019_Oct_31_1526,ProdFawcett_Revision2019,3.2.3,59.65836044304997,
72,0,72,0,,,,,,,,,,,,,,,,,1811.587602399988,None,materials/speakPic.jpg,service,B_aloud,72,280,1807.8621610000264,None,1807.8621610000264,None,1808.838011700078,None,1809.0926958000055,None,1809.0926958000055,None,,,,,,,,,,,,,,,,,,,,,,,,,,,,,,,,,,,sing14,001,2019_Oct_31_1526,ProdFawcett_Revision2019,3.2.3,59.65836044304997,
73,0,73,0,,,,,,,,,,,,,,,,,1815.8548272000626,None,materials/singPic.jpg,victory,C_sing,73,346,1812.1955895000137,None,1812.1955895000137,None,1813.1049074000912,None,1813.3671943000518,None,1813.3671943000518,None,,,,,,,,,,,,,,,,,,,,,,,,,,,,,,,,,,,sing14,001,2019_Oct_31_1526,ProdFawcett_Revision2019,3.2.3,59.65836044304997,
74,0,74,0,,,,,,,,,,,,,,,,,1820.1216259000357,None,materials/singPic.jpg,principal,C_sing,74,236,1816.4429618000286,None,1816.4429618000286,None,1817.37249790004,None,1817.6311644000234,None,1817.6311644000234,None,,,,,,,,,,,,,,,,,,,,,,,,,,,,,,,,,,,sing14,001,2019_Oct_31_1526,ProdFawcett_Revision2019,3.2.3,59.65836044304997,
75,0,75,0,,,,,,,,,,,,,,,,,1824.3879966000095,None,materials/readPic.jpg,write,A_silent,75,358,1820.695265699993,None,1820.695265699993,None,1821.6375849000178,None,1821.8978580000112,None,1821.8978580000112,None,,,,,,,,,,,,,,,,,,,,,,,,,,,,,,,,,,,sing14,001,2019_Oct_31_1526,ProdFawcett_Revision2019,3.2.3,59.65836044304997,
76,0,76,0,,,,,,,,,,,,,,,,,1828.6556860000128,None,materials/singPic.jpg,appeal,C_sing,76,9,1824.9834941000445,None,1824.9834941000445,None,1825.9071894000517,None,1826.162353200023,None,1826.162353200023,None,,,,,,,,,,,,,,,,,,,,,,,,,,,,,,,,,,,sing14,001,2019_Oct_31_1526,ProdFawcett_Revision2019,3.2.3,59.65836044304997,
77,0,77,0,,,,,,,,,,,,,,,,,1832.9224453000352,None,materials/speakPic.jpg,household,B_aloud,77,154,1829.232208200032,None,1829.232208200032,None,1830.1725026000058,None,1830.430289400043,None,1830.430289400043,None,,,,,,,,,,,,,,,,,,,,,,,,,,,,,,,,,,,sing14,001,2019_Oct_31_1526,ProdFawcett_Revision2019,3.2.3,59.65836044304997,
78,0,78,0,,,,,,,,,,,,,,,,,1837.189509900054,None,materials/readPic.jpg,track,A_silent,78,334,1833.506690600072,None,1833.506690600072,None,1834.4429094000952,None,1834.6993887000717,None,1834.6993887000717,None,,,,,,,,,,,,,,,,,,,,,,,,,,,,,,,,,,,sing14,001,2019_Oct_31_1526,ProdFawcett_Revision2019,3.2.3,59.65836044304997,
79,0,79,0,,,,,,,,,,,,,,,,,1841.456121299998,None,materials/readPic.jpg,science,A_silent,79,275,1837.7338983000955,None,1837.7338983000955,None,1838.7067484,None,1838.9631552000064,None,1838.9631552000064,None,,,,,,,,,,,,,,,,,,,,,,,,,,,,,,,,,,,sing14,001,2019_Oct_31_1526,ProdFawcett_Revision2019,3.2.3,59.65836044304997,
80,0,80,0,,,,,,,,,,,,,,,,,1845.7234346000478,None,materials/speakPic.jpg,department,B_aloud,80,90,1842.039447600022,None,1842.039447600022,None,1842.9733955000993,None,1843.2334907000186,None,1843.2334907000186,None,,,,,,,,,,,,,,,,,,,,,,,,,,,,,,,,,,,sing14,001,2019_Oct_31_1526,ProdFawcett_Revision2019,3.2.3,59.65836044304997,
81,0,81,0,,,,,,,,,,,,,,,,,1849.9895412999904,None,materials/readPic.jpg,native,A_silent,81,199,1846.3234963000286,None,1846.3234963000286,None,1847.2430581999943,None,1847.5033424000721,None,1847.5033424000721,None,,,,,,,,,,,,,,,,,,,,,,,,,,,,,,,,,,,sing14,001,2019_Oct_31_1526,ProdFawcett_Revision2019,3.2.3,59.65836044304997,
82,0,82,0,,,,,,,,,,,,,,,,,1854.2572760999901,None,materials/speakPic.jpg,defeat,B_aloud,82,88,1850.569157800055,None,1850.569157800055,None,1851.5073058000999,None,1851.763655000017,None,1851.763655000017,None,,,,,,,,,,,,,,,,,,,,,,,,,,,,,,,,,,,sing14,001,2019_Oct_31_1526,ProdFawcett_Revision2019,3.2.3,59.65836044304997,
83,0,83,0,,,,,,,,,,,,,,,,,1858.5234408000251,None,materials/singPic.jpg,command,C_sing,83,60,1854.8204305000836,None,1854.8204305000836,None,1855.7744262000779,None,1856.0312374000205,None,1856.0312374000205,None,,,,,,,,,,,,,,,,,,,,,,,,,,,,,,,,,,,sing14,001,2019_Oct_31_1526,ProdFawcett_Revision2019,3.2.3,59.65836044304997,
84,0,84,0,,,,,,,,,,,,,,,,,1862.791209600051,None,materials/singPic.jpg,crime,C_sing,84,78,1859.1037166999886,None,1859.1037166999886,None,1860.041607100051,None,1860.2976016000612,None,1860.2976016000612,None,,,,,,,,,,,,,,,,,,,,,,,,,,,,,,,,,,,sing14,001,2019_Oct_31_1526,ProdFawcett_Revision2019,3.2.3,59.65836044304997,
85,0,85,0,,,,,,,,,,,,,,,,,1867.0580659999978,None,materials/singPic.jpg,corner,C_sing,85,69,1863.4227394000627,None,1863.4227394000627,None,1864.309487999999,None,1864.56542670005,None,1864.56542670005,None,,,,,,,,,,,,,,,,,,,,,,,,,,,,,,,,,,,sing14,001,2019_Oct_31_1526,ProdFawcett_Revision2019,3.2.3,59.65836044304997,
86,0,86,0,,,,,,,,,,,,,,,,,1871.3252790000988,None,materials/readPic.jpg,bright,A_silent,86,29,1867.6280194000574,None,1867.6280194000574,None,1868.5740521000698,None,1868.8395719000837,None,1868.8395719000837,None,,,,,,,,,,,,,,,,,,,,,,,,,,,,,,,,,,,sing14,001,2019_Oct_31_1526,ProdFawcett_Revision2019,3.2.3,59.65836044304997,
87,0,87,0,,,,,,,,,,,,,,,,,1875.592065700097,None,materials/singPic.jpg,addition,C_sing,87,2,1871.8860760000534,None,1871.8860760000534,None,1872.842338400078,None,1873.098486400093,None,1873.098486400093,None,,,,,,,,,,,,,,,,,,,,,,,,,,,,,,,,,,,sing14,001,2019_Oct_31_1526,ProdFawcett_Revision2019,3.2.3,59.65836044304997,
88,0,88,0,,,,,,,,,,,,,,,,,1879.8590666000964,None,materials/speakPic.jpg,beginning,B_aloud,88,19,1876.1580395000055,None,1876.1580395000055,None,1877.1090772000607,None,1877.3721847000998,None,1877.3721847000998,None,,,,,,,,,,,,,,,,,,,,,,,,,,,,,,,,,,,sing14,001,2019_Oct_31_1526,ProdFawcett_Revision2019,3.2.3,59.65836044304997,
89,0,89,0,,,,,,,,,,,,,,,,,1884.1260907000396,None,materials/singPic.jpg,touch,C_sing,89,332,1880.455105500063,None,1880.455105500063,None,1881.3763855000725,None,1881.6324021000182,None,1881.6324021000182,None,,,,,,,,,,,,,,,,,,,,,,,,,,,,,,,,,,,sing14,001,2019_Oct_31_1526,ProdFawcett_Revision2019,3.2.3,59.65836044304997,
,,,,,,,,,,,,,,,,,,,,,,,,,,,,,,,,,,,,,1884.6260389999952,None,k,88.37234770006035,1884.6260389999952,None,,,,,,,,,,,,,,,,,,,,,,,,,,,,,sing14,001,2019_Oct_31_1526,ProdFawcett_Revision2019,3.2.3,59.65836044304997,
,,,,,,,,,,,,,,1973.015289700008,None,space,1.0308452000608668,1973.015289700008,None,,,,,,,,,,,,,,,,,,,,,,,,,,,,,,,,,,,,,,,,,,,,,,,,,,,,sing14,001,2019_Oct_31_1526,ProdFawcett_Revision2019,3.2.3,59.65836044304997,
,,,,0,0,0,0,,,,,,,,,,,,,1987.1536048999988,None,,,,,,,,,,,,,,,,,,,,,,narrow,B_aloud,0,197,1974.5797238000669,None,1974.5797238000669,None,1974.5797238000669,None,6,7.594480600091629,1974.5797238000669,None,1982.2326837000437,None,1982.2326837000437,None,1982.7517751000123,None,1982.7517751000123,None,1982.7517751000123,None,f,4.366344499983825,1982.7517751000123,None,sing14,001,2019_Oct_31_1526,ProdFawcett_Revision2019,3.2.3,59.65836044304997,
,,,,1,0,1,0,,,,,,,,,,,,,1994.036808700068,None,,,,,,,,,,,,,,,,,,,,,,track,A_silent,1,334,1987.6887808000902,None,1987.6887808000902,None,1987.6887808000902,None,2,3.5098263999680057,1987.6887808000902,None,1991.2443904000102,None,1991.2443904000102,None,1991.7608836001018,None,1991.7608836001018,None,1991.7608836001018,None,n,2.2375351999653503,1991.7608836001018,None,sing14,001,2019_Oct_31_1526,ProdFawcett_Revision2019,3.2.3,59.65836044304997,
,,,,2,0,2,0,,,,,,,,,,,,,2000.048838000046,None,,,,,,,,,,,,,,,,,,,,,,shear,D_new,2,283,1994.5698281000368,None,1994.5698281000368,None,1994.5698281000368,None,1,2.596222799969837,1994.5698281000368,None,1997.1950753000565,None,1997.1950753000565,None,1997.7142726000166,None,1997.7142726000166,None,1997.7142726000166,None,n,2.2918176000239328,1997.7142726000166,None,sing14,001,2019_Oct_31_1526,ProdFawcett_Revision2019,3.2.3,59.65836044304997,
,,,,3,0,3,0,,,,,,,,,,,,,2007.233857300016,None,,,,,,,,,,,,,,,,,,,,,,universal,D_new,3,345,2000.573366500088,None,2000.573366500088,None,2000.573366500088,None,3,3.8488584000151604,2000.573366500088,None,2004.4806724000955,None,2004.4806724000955,None,2005.002889299998,None,2005.002889299998,None,2005.002889299998,None,f,2.195551799959503,2005.002889299998,None,sing14,001,2019_Oct_31_1526,ProdFawcett_Revision2019,3.2.3,59.65836044304997,
,,,,4,0,4,0,,,,,,,,,,,,,2013.0517106000334,None,,,,,,,,,,,,,,,,,,,,,,community,A_silent,4,63,2007.7541768000228,None,2007.7541768000228,None,2007.7541768000228,None,5,3.0678762999596074,2007.7541768000228,None,2010.855998300016,None,2010.855998300016,None,2011.372267400031,None,2011.372267400031,None,2011.372267400031,None,f,1.6340470999712124,2011.372267400031,None,sing14,001,2019_Oct_31_1526,ProdFawcett_Revision2019,3.2.3,59.65836044304997,
,,,,5,0,5,0,,,,,,,,,,,,,2021.150009800098,None,,,,,,,,,,,,,,,,,,,,,,plane,D_new,5,223,2013.5826537000248,None,2013.5826537000248,None,2013.5826537000248,None,2,2.6959411000134423,2013.5826537000248,None,2016.3306270000758,None,2016.3306270000758,None,2016.8498107000487,None,2016.8498107000487,None,2016.8498107000487,None,f,4.268193299998529,2016.8498107000487,None,sing14,001,2019_Oct_31_1526,ProdFawcett_Revision2019,3.2.3,59.65836044304997,
,,,,6,0,6,0,,,,,,,,,,,,,2027.3788217999972,None,,,,,,,,,,,,,,,,,,,,,,incident,A_silent,6,158,2021.6572091000853,None,2021.6572091000853,None,2021.6572091000853,None,6,3.308877500006929,2021.6572091000853,None,2024.9936522000935,None,2024.9936522000935,None,2025.5178077000892,None,2025.5178077000892,None,2025.5178077000892,None,f,1.8244943000609055,2025.5178077000892,None,sing14,001,2019_Oct_31_1526,ProdFawcett_Revision2019,3.2.3,59.65836044304997,
,,,,7,0,7,0,,,,,,,,,,,,,2031.9636050000554,None,,,,,,,,,,,,,,,,,,,,,,profession,C_sing,7,241,2027.9068266000831,None,2027.9068266000831,None,2027.9068266000831,None,6,2.3236070999410003,2027.9068266000831,None,2030.2794862000737,None,2030.2794862000737,None,2030.8036756000947,None,2030.8036756000947,None,2030.8036756000947,None,f,1.130811300012283,2030.8036756000947,None,sing14,001,2019_Oct_31_1526,ProdFawcett_Revision2019,3.2.3,59.65836044304997,
,,,,8,0,8,0,,,,,,,,,,,,,2036.6345454000402,None,,,,,,,,,,,,,,,,,,,,,,afternoon,D_new,8,3,2032.4944554000394,None,2032.4944554000394,None,2032.4944554000394,None,2,1.8957866999553517,2032.4944554000394,None,2034.4474018000765,None,2034.4474018000765,None,2034.972244600067,None,2034.972244600067,None,2034.972244600067,None,f,1.6177675001090392,2034.972244600067,None,sing14,001,2019_Oct_31_1526,ProdFawcett_Revision2019,3.2.3,59.65836044304997,
,,,,9,0,9,0,,,,,,,,,,,,,2049.3532894999953,None,,,,,,,,,,,,,,,,,,,,,,crowd,D_new,9,81,2037.1534603000619,None,2037.1534603000619,None,2037.1534603000619,None,3,8.661135800066404,2037.1534603000619,None,2045.8601260000141,None,2045.8601260000141,None,2046.3875172000844,None,2046.3875172000844,None,2046.3875172000844,None,n,2.9227305999957025,2046.3875172000844,None,sing14,001,2019_Oct_31_1526,ProdFawcett_Revision2019,3.2.3,59.65836044304997,
,,,,10,0,10,0,,,,,,,,,,,,,2053.6046395000303,None,,,,,,,,,,,,,,,,,,,,,,scene,D_new,10,273,2049.8692602000665,None,2049.8692602000665,None,2049.8692602000665,None,6,2.585116000031121,2049.8692602000665,None,2052.498253500089,None,2052.498253500089,None,2053.0196524000494,None,2053.0196524000494,None,2053.0196524000494,None,f,0.5465114000253379,2053.0196524000494,None,sing14,001,2019_Oct_31_1526,ProdFawcett_Revision2019,3.2.3,59.65836044304997,
,,,,11,0,11,0,,,,,,,,,,,,,2062.031074700062,None,,,,,,,,,,,,,,,,,,,,,,clear,B_aloud,11,52,2054.12003250001,None,2054.12003250001,None,2054.12003250001,None,4,4.669954099925235,2054.12003250001,None,2058.842133500031,None,2058.842133500031,None,2059.360529400059,None,2059.360529400059,None,2059.360529400059,None,n,2.637734099989757,2059.360529400059,None,sing14,001,2019_Oct_31_1526,ProdFawcett_Revision2019,3.2.3,59.65836044304997,
,,,,12,0,12,0,,,,,,,,,,,,,2067.6252438999945,None,,,,,,,,,,,,,,,,,,,,,,threat,B_aloud,12,329,2062.5598154000472,None,2062.5598154000472,None,2062.5598154000472,None,3,3.2545461000408977,2062.5598154000472,None,2065.864590400015,None,2065.864590400015,None,2066.386092800065,None,2066.386092800065,None,2066.386092800065,None,n,1.1961323000723496,2066.386092800065,None,sing14,001,2019_Oct_31_1526,ProdFawcett_Revision2019,3.2.3,59.65836044304997,
,,,,13,0,13,0,,,,,,,,,,,,,2073.58627910004,None,,,,,,,,,,,,,,,,,,,,,,place,A_silent,13,222,2068.1564227000345,None,2068.1564227000345,None,2068.1564227000345,None,2,3.817668700008653,2068.1564227000345,None,2072.026989200036,None,2072.026989200036,None,2072.5407480000285,None,2072.5407480000285,None,2072.5407480000285,None,n,1.0013724999735132,2072.5407480000285,None,sing14,001,2019_Oct_31_1526,ProdFawcett_Revision2019,3.2.3,59.65836044304997,
,,,,14,0,14,0,,,,,,,,,,,,,2081.145964800031,None,,,,,,,,,,,,,,,,,,,,,,appeal,C_sing,14,9,2074.09410950006,None,2074.09410950006,None,2074.09410950006,None,2,5.504092299961485,2074.09410950006,None,2079.649802900036,None,2079.649802900036,None,2080.168994900072,None,2080.168994900072,None,2080.168994900072,None,n,0.9411191999679431,2080.168994900072,None,sing14,001,2019_Oct_31_1526,ProdFawcett_Revision2019,3.2.3,59.65836044304997,
,,,,15,0,15,0,,,,,,,,,,,,,2087.5399622000987,None,,,,,,,,,,,,,,,,,,,,,,appearance,B_aloud,15,10,2081.673059600056,None,2081.673059600056,None,2081.673059600056,None,5,4.037092400016263,2081.673059600056,None,2085.7614512,None,2085.7614512,None,2086.2875345000066,None,2086.2875345000066,None,2086.2875345000066,None,f,1.2146810999838635,2086.2875345000066,None,sing14,001,2019_Oct_31_1526,ProdFawcett_Revision2019,3.2.3,59.65836044304997,
,,,,16,0,16,0,,,,,,,,,,,,,2090.9069475000724,None,,,,,,,,,,,,,,,,,,,,,,empty,D_new,16,112,2088.0572846001014,None,2088.0572846001014,None,2088.0572846001014,None,2,1.7969117000466213,2088.0572846001014,None,2089.8879211000167,None,2089.8879211000167,None,2090.4055108000757,None,2090.4055108000757,None,2090.4055108000757,None,n,0.46480610000435263,2090.4055108000757,None,sing14,001,2019_Oct_31_1526,ProdFawcett_Revision2019,3.2.3,59.65836044304997,
,,,,17,0,17,0,,,,,,,,,,,,,2095.124279000098,None,,,,,,,,,,,,,,,,,,,,,,gesture,B_aloud,17,137,2091.4234212000156,None,2091.4234212000156,None,2091.4234212000156,None,5,1.8707624999806285,2091.4234212000156,None,2093.346423699986,None,2093.346423699986,None,2093.8775644000852,None,2093.8775644000852,None,2093.8775644000852,None,f,1.208622199948877,2093.8775644000852,None,sing14,001,2019_Oct_31_1526,ProdFawcett_Revision2019,3.2.3,59.65836044304997,
,,,,18,0,18,0,,,,,,,,,,,,,2099.2730456000427,None,,,,,,,,,,,,,,,,,,,,,,capital,A_silent,18,40,2095.639797500102,None,2095.639797500102,None,2095.639797500102,None,3,2.030437499983236,2095.639797500102,None,2097.717318900046,None,2097.717318900046,None,2098.241254599998,None,2098.241254599998,None,2098.241254599998,None,n,0.9973881000187248,2098.241254599998,None,sing14,001,2019_Oct_31_1526,ProdFawcett_Revision2019,3.2.3,59.65836044304997,
,,,,19,0,19,0,,,,,,,,,,,,,2102.806348000071,None,,,,,,,,,,,,,,,,,,,,,,birth,D_new,19,22,2099.7911403999897,None,2099.7911403999897,None,2099.7911403999897,None,2,1.4550710000330582,2099.7911403999897,None,2101.3004887000425,None,2101.3004887000425,None,2101.822464600089,None,2101.822464600089,None,2101.822464600089,None,n,0.9437483000801876,2101.822464600089,None,sing14,001,2019_Oct_31_1526,ProdFawcett_Revision2019,3.2.3,59.65836044304997,
,,,,20,0,20,0,,,,,,,,,,,,,2106.7596155999927,None,,,,,,,,,,,,,,,,,,,,,,principal,C_sing,20,236,2103.324352100026,None,2103.324352100026,None,2103.324352100026,None,5,1.5298309999052435,2103.324352100026,None,2104.896058000042,None,2104.896058000042,None,2105.4214360000333,None,2105.4214360000333,None,2105.4214360000333,None,f,1.2889405000023544,2105.4214360000333,None,sing14,001,2019_Oct_31_1526,ProdFawcett_Revision2019,3.2.3,59.65836044304997,
,,,,21,0,21,0,,,,,,,,,,,,,2111.1033972000005,None,,,,,,,,,,,,,,,,,,,,,,bicycle,D_new,21,21,2107.291692400002,None,2107.291692400002,None,2107.291692400002,None,3,2.922413200023584,2107.291692400002,None,2110.267450800049,None,2110.267450800049,None,2110.7933889999986,None,2110.7933889999986,None,2110.7933889999986,None,n,0.2769157999427989,2110.7933889999986,None,sing14,001,2019_Oct_31_1526,ProdFawcett_Revision2019,3.2.3,59.65836044304997,
,,,,22,0,22,0,,,,,,,,,,,,,2114.057395700016,None,,,,,,,,,,,,,,,,,,,,,,material,B_aloud,22,182,2111.6259493000107,None,2111.6259493000107,None,2111.6259493000107,None,3,1.4681505999760702,2111.6259493000107,None,2113.15130040003,None,2113.15130040003,None,2113.6726990999887,None,2113.6726990999887,None,2113.6726990999887,None,n,0.35015309997834265,2113.6726990999887,None,sing14,001,2019_Oct_31_1526,ProdFawcett_Revision2019,3.2.3,59.65836044304997,
,,,,23,0,23,0,,,,,,,,,,,,,2119.407767000026,None,,,,,,,,,,,,,,,,,,,,,,broad,D_new,23,31,2114.5785162000684,None,2114.5785162000684,None,2114.5785162000684,None,2,3.915635999990627,2114.5785162000684,None,2118.5603347000433,None,2118.5603347000433,None,2119.0770915000467,None,2119.0770915000467,None,2119.0770915000467,None,n,0.29765830002725124,2119.0770915000467,None,sing14,001,2019_Oct_31_1526,ProdFawcett_Revision2019,3.2.3,59.65836044304997,
,,,,24,0,24,0,,,,,,,,,,,,,2124.21837170003,None,,,,,,,,,,,,,,,,,,,,,,direction,D_new,24,94,2119.9262865000637,None,2119.9262865000637,None,2119.9262865000637,None,4,3.1917701000347733,2119.9262865000637,None,2123.1549550000345,None,2123.1549550000345,None,2123.6735336000565,None,2123.6735336000565,None,2123.6735336000565,None,f,0.5085603999905288,2123.6735336000565,None,sing14,001,2019_Oct_31_1526,ProdFawcett_Revision2019,3.2.3,59.65836044304997,
,,,,25,0,25,0,,,,,,,,,,,,,2138.969769300078,None,,,,,,,,,,,,,,,,,,,,,,health,D_new,25,149,2124.745013100095,None,2124.745013100095,None,2124.745013100095,None,3,12.453261299990118,2124.745013100095,None,2137.2538822999923,None,2137.2538822999923,None,2137.761081600096,None,2137.761081600096,None,2137.761081600096,None,n,1.1651652000145987,2137.761081600096,None,sing14,001,2019_Oct_31_1526,ProdFawcett_Revision2019,3.2.3,59.65836044304997,
,,,,26,0,26,0,,,,,,,,,,,,,2146.492022500024,None,,,,,,,,,,,,,,,,,,,,,,crime,C_sing,26,78,2139.494429500075,None,2139.494429500075,None,2139.494429500075,None,3,3.631812799954787,2139.494429500075,None,2143.1691746000433,None,2143.1691746000433,None,2143.689592100098,None,2143.689592100098,None,2143.689592100098,None,f,2.7565913000144064,2143.689592100098,None,sing14,001,2019_Oct_31_1526,ProdFawcett_Revision2019,3.2.3,59.65836044304997,
,,,,27,0,27,0,,,,,,,,,,,,,2153.477134100045,None,,,,,,,,,,,,,,,,,,,,,,theme,C_sing,27,326,2147.009426100063,None,2147.009426100063,None,2147.009426100063,None,5,3.836739999940619,2147.009426100063,None,2150.89017290005,None,2150.89017290005,None,2151.411507699988,None,2151.411507699988,None,2151.411507699988,None,r,2.034613399999216,2151.411507699988,None,sing14,001,2019_Oct_31_1526,ProdFawcett_Revision2019,3.2.3,59.65836044304997,
,,,,28,0,28,0,,,,,,,,,,,,,2163.693427600083,None,,,,,,,,,,,,,,,,,,,,,,corner,C_sing,28,69,2153.9953121000435,None,2153.9953121000435,None,2153.9953121000435,None,5,5.002864000038244,2153.9953121000435,None,2159.0680793999927,None,2159.0680793999927,None,2159.5741511000087,None,2159.5741511000087,None,2159.5741511000087,None,f,4.088367199990898,2159.5741511000087,None,sing14,001,2019_Oct_31_1526,ProdFawcett_Revision2019,3.2.3,59.65836044304997,
,,,,29,0,29,0,,,,,,,,,,,,,2166.810232000076,None,,,,,,,,,,,,,,,,,,,,,,shape,D_new,29,282,2164.212522100075,None,2164.212522100075,None,2164.212522100075,None,6,1.6335913999937475,2164.212522100075,None,2165.8862642000895,None,2165.8862642000895,None,2166.407766100019,None,2166.407766100019,None,2166.407766100019,None,f,0.3583630999783054,2166.407766100019,None,sing14,001,2019_Oct_31_1526,ProdFawcett_Revision2019,3.2.3,59.65836044304997,
,,,,30,0,30,0,,,,,,,,,,,,,2172.047885600012,None,,,,,,,,,,,,,,,,,,,,,,cousin,C_sing,30,76,2167.3302003000863,None,2167.3302003000863,None,2167.3302003000863,None,3,3.13213879999239,2167.3302003000863,None,2170.5022795000114,None,2170.5022795000114,None,2171.0269488000777,None,2171.0269488000777,None,2171.0269488000777,None,f,0.9795633000321686,2171.0269488000777,None,sing14,001,2019_Oct_31_1526,ProdFawcett_Revision2019,3.2.3,59.65836044304997,
,,,,31,0,31,0,,,,,,,,,,,,,2174.97868629999,None,,,,,,,,,,,,,,,,,,,,,,victory,C_sing,31,346,2172.5795771999983,None,2172.5795771999983,None,2172.5795771999983,None,2,1.4107404999667779,2172.5795771999983,None,2174.0401114000706,None,2174.0401114000706,None,2174.563039300032,None,2174.563039300032,None,2174.563039300032,None,n,0.3791404999792576,2174.563039300032,None,sing14,001,2019_Oct_31_1526,ProdFawcett_Revision2019,3.2.3,59.65836044304997,
,,,,32,0,32,0,,,,,,,,,,,,,2177.695182100055,None,,,,,,,,,,,,,,,,,,,,,,second,D_new,32,278,2175.4958775000414,None,2175.4958775000414,None,2175.4958775000414,None,1,1.4863173000048846,2175.4958775000414,None,2177.0384577000514,None,2177.0384577000514,None,2177.559816400055,None,2177.559816400055,None,2177.559816400055,None,n,0.1024117999477312,2177.559816400055,None,sing14,001,2019_Oct_31_1526,ProdFawcett_Revision2019,3.2.3,59.65836044304997,
,,,,33,0,33,0,,,,,,,,,,,,,2181.811403800035,None,,,,,,,,,,,,,,,,,,,,,,running,D_new,33,268,2178.213236600044,None,2178.213236600044,None,2178.213236600044,None,1,2.688895699917339,2178.213236600044,None,2180.9632450999925,None,2180.9632450999925,None,2181.4814568000147,None,2181.4814568000147,None,2181.4814568000147,None,n,0.29290570004377514,2181.4814568000147,None,sing14,001,2019_Oct_31_1526,ProdFawcett_Revision2019,3.2.3,59.65836044304997,
,,,,34,0,34,0,,,,,,,,,,,,,2185.0693839000305,None,,,,,,,,,,,,,,,,,,,,,,story,D_new,34,306,2182.3295486000134,None,2182.3295486000134,None,2182.3295486000134,None,3,1.6525576000567526,2182.3295486000134,None,2184.0446989000775,None,2184.0446989000775,None,2184.562307000044,None,2184.562307000044,None,2184.562307000044,None,f,0.46800370002165437,2184.562307000044,None,sing14,001,2019_Oct_31_1526,ProdFawcett_Revision2019,3.2.3,59.65836044304997,
,,,,35,0,35,0,,,,,,,,,,,,,2189.987974900054,None,,,,,,,,,,,,,,,,,,,,,,poetry,D_new,35,225,2185.598120699986,None,2185.598120699986,None,2185.598120699986,None,3,3.7680390999885276,2185.598120699986,None,2189.4217530000024,None,2189.4217530000024,None,2189.9421187000116,None,2189.9421187000116,None,2189.9421187000116,None,f,0.015905099920928478,2189.9421187000116,None,sing14,001,2019_Oct_31_1526,ProdFawcett_Revision2019,3.2.3,59.65836044304997,
,,,,36,0,36,0,,,,,,,,,,,,,2194.6127914000535,None,,,,,,,,,,,,,,,,,,,,,,broke,C_sing,36,32,2190.514009900042,None,2190.514009900042,None,2190.514009900042,None,1,1.524253400042653,2190.514009900042,None,2192.094782600063,None,2192.094782600063,None,2192.613758300082,None,2192.613758300082,None,2192.613758300082,None,r,1.9605760000413284,2192.613758300082,None,sing14,001,2019_Oct_31_1526,ProdFawcett_Revision2019,3.2.3,59.65836044304997,
,,,,37,0,37,0,,,,,,,,,,,,,2199.762632000027,None,,,,,,,,,,,,,,,,,,,,,,department,B_aloud,37,90,2195.130246400018,None,2195.130246400018,None,2195.130246400018,None,2,3.7799011999741197,2195.130246400018,None,2198.9578237000387,None,2198.9578237000387,None,2199.477416400099,None,2199.477416400099,None,2199.477416400099,None,f,0.2408898000139743,2199.477416400099,None,sing14,001,2019_Oct_31_1526,ProdFawcett_Revision2019,3.2.3,59.65836044304997,
,,,,38,0,38,0,,,,,,,,,,,,,2203.7795869000256,None,,,,,,,,,,,,,,,,,,,,,,order,C_sing,38,207,2200.275044900016,None,2200.275044900016,None,2200.275044900016,None,1,1.4271371000213549,2200.275044900016,None,2201.7574134999886,None,2201.7574134999886,None,2202.278538100072,None,2202.278538100072,None,2202.278538100072,None,f,1.4556424000766128,2202.278538100072,None,sing14,001,2019_Oct_31_1526,ProdFawcett_Revision2019,3.2.3,59.65836044304997,
,,,,39,0,39,0,,,,,,,,,,,,,2208.1151623000624,None,,,,,,,,,,,,,,,,,,,,,,quiet,D_new,39,249,2204.3000119000208,None,2204.3000119000208,None,2204.3000119000208,None,3,2.0101650999858975,2204.3000119000208,None,2206.3477027000627,None,2206.3477027000627,None,2206.8652372000506,None,2206.8652372000506,None,2206.8652372000506,None,n,1.2048963999841362,2206.8652372000506,None,sing14,001,2019_Oct_31_1526,ProdFawcett_Revision2019,3.2.3,59.65836044304997,
,,,,40,0,40,0,,,,,,,,,,,,,2215.0139567999868,None,,,,,,,,,,,,,,,,,,,,,,growth,D_new,40,144,2208.6380871,None,2208.6380871,None,2208.6380871,None,5,3.7679158999817446,2208.6380871,None,2212.446363800089,None,2212.446363800089,None,2212.9670320000732,None,2212.9670320000732,None,2212.9670320000732,None,f,2.0153248000424355,2212.9670320000732,None,sing14,001,2019_Oct_31_1526,ProdFawcett_Revision2019,3.2.3,59.65836044304997,
,,,,41,0,41,0,,,,,,,,,,,,,2220.1802810000954,None,,,,,,,,,,,,,,,,,,,,,,production,B_aloud,41,240,2215.5307729000924,None,2215.5307729000924,None,2215.5307729000924,None,5,2.5636882000835612,2215.5307729000924,None,2218.1330248999875,None,2218.1330248999875,None,2218.657494000043,None,2218.657494000043,None,2218.657494000043,None,f,1.4925766999367625,2218.657494000043,None,sing14,001,2019_Oct_31_1526,ProdFawcett_Revision2019,3.2.3,59.65836044304997,
,,,,42,0,42,0,,,,,,,,,,,,,2223.5866175000556,None,,,,,,,,,,,,,,,,,,,,,,career,D_new,42,42,2220.6976042999886,None,2220.6976042999886,None,2220.6976042999886,None,6,1.5721865999512374,2220.6976042999886,None,2222.3101003000047,None,2222.3101003000047,None,2222.8344167000614,None,2222.8344167000614,None,2222.8344167000614,None,f,0.7315484000137076,2222.8344167000614,None,sing14,001,2019_Oct_31_1526,ProdFawcett_Revision2019,3.2.3,59.65836044304997,
,,,,43,0,43,0,,,,,,,,,,,,,2230.5306877000257,None,,,,,,,,,,,,,,,,,,,,,,sleep,D_new,43,290,2224.115424800082,None,2224.115424800082,None,2224.115424800082,None,4,5.6668645000318065,2224.115424800082,None,2229.825395000051,None,2229.825395000051,None,2230.3479230999947,None,2230.3479230999947,None,2230.3479230999947,None,f,0.13824780005961657,2230.3479230999947,None,sing14,001,2019_Oct_31_1526,ProdFawcett_Revision2019,3.2.3,59.65836044304997,
,,,,44,0,44,0,,,,,,,,,,,,,2233.015489500016,None,,,,,,,,,,,,,,,,,,,,,,member,B_aloud,44,188,2231.0543399000308,None,2231.0543399000308,None,2231.0543399000308,None,4,1.19993339991197,2231.0543399000308,None,2232.311606100062,None,2232.311606100062,None,2232.8400887000607,None,2232.8400887000607,None,2232.8400887000607,None,f,0.14218790002632886,2232.8400887000607,None,sing14,001,2019_Oct_31_1526,ProdFawcett_Revision2019,3.2.3,59.65836044304997,
,,,,45,0,45,0,,,,,,,,,,,,,2236.316201400012,None,,,,,,,,,,,,,,,,,,,,,,rural,A_silent,45,269,2233.5313734000083,None,2233.5313734000083,None,2233.5313734000083,None,1,1.5307530999416485,2233.5313734000083,None,2235.110296400031,None,2235.110296400031,None,2235.633410600014,None,2235.633410600014,None,2235.633410600014,None,n,0.6367510999552906,2235.633410600014,None,sing14,001,2019_Oct_31_1526,ProdFawcett_Revision2019,3.2.3,59.65836044304997,
,,,,46,0,46,0,,,,,,,,,,,,,2239.583276899997,None,,,,,,,,,,,,,,,,,,,,,,payment,C_sing,46,215,2236.832380100037,None,2236.832380100037,None,2236.832380100037,None,3,1.8698732999619097,2236.832380100037,None,2238.7551202999894,None,2238.7551202999894,None,2239.274967300007,None,2239.274967300007,None,2239.274967300007,None,n,0.2754364999709651,2239.274967300007,None,sing14,001,2019_Oct_31_1526,ProdFawcett_Revision2019,3.2.3,59.65836044304997,
,,,,47,0,47,0,,,,,,,,,,,,,2245.5158620000584,None,,,,,,,,,,,,,,,,,,,,,,write,A_silent,47,358,2240.1006556000793,None,2240.1006556000793,None,2240.1006556000793,None,4,3.689310400048271,2240.1006556000793,None,2243.8323369000573,None,2243.8323369000573,None,2244.341685399995,None,2244.341685399995,None,2244.341685399995,None,f,1.1367110999999568,2244.341685399995,None,sing14,001,2019_Oct_31_1526,ProdFawcett_Revision2019,3.2.3,59.65836044304997,
,,,,48,0,48,0,,,,,,,,,,,,,2249.899003300001,None,,,,,,,,,,,,,,,,,,,,,,pretty,C_sing,48,233,2246.033063100069,None,2246.033063100069,None,2246.033063100069,None,6,1.7972241999814287,2246.033063100069,None,2247.8731282000663,None,2247.8731282000663,None,2248.3977759000845,None,2248.3977759000845,None,2248.3977759000845,None,r,1.4564099999843165,2248.3977759000845,None,sing14,001,2019_Oct_31_1526,ProdFawcett_Revision2019,3.2.3,59.65836044304997,
,,,,49,0,49,0,,,,,,,,,,,,,2253.4667794000125,None,,,,,,,,,,,,,,,,,,,,,,light,B_aloud,49,171,2250.4181368000573,None,2250.4181368000573,None,2250.4181368000573,None,5,2.3321963999187574,2250.4181368000573,None,2252.79564710008,None,2252.79564710008,None,2253.320374600007,None,2253.320374600007,None,2253.320374600007,None,f,0.1097534999717027,2253.320374600007,None,sing14,001,2019_Oct_31_1526,ProdFawcett_Revision2019,3.2.3,59.65836044304997,
,,,,50,0,50,0,,,,,,,,,,,,,2259.0536951000104,None,,,,,,,,,,,,,,,,,,,,,,power,D_new,50,230,2253.990850500064,None,2253.990850500064,None,2253.990850500064,None,4,4.110942600062117,2253.990850500064,None,2258.126896600006,None,2258.126896600006,None,2258.6520430000965,None,2258.6520430000965,None,2258.6520430000965,None,f,0.35423870000522584,2258.6520430000965,None,sing14,001,2019_Oct_31_1526,ProdFawcett_Revision2019,3.2.3,59.65836044304997,
,,,,51,0,51,0,,,,,,,,,,,,,2264.5629703000886,None,,,,,,,,,,,,,,,,,,,,,,build,D_new,51,35,2259.589457200025,None,2259.589457200025,None,2259.589457200025,None,4,2.3935046999249607,2259.589457200025,None,2262.0303009999916,None,2262.0303009999916,None,2262.5504435000475,None,2262.5504435000475,None,2262.5504435000475,None,f,1.9836396999889985,2262.5504435000475,None,sing14,001,2019_Oct_31_1526,ProdFawcett_Revision2019,3.2.3,59.65836044304997,
,,,,52,0,52,0,,,,,,,,,,,,,2271.3180447000777,None,,,,,,,,,,,,,,,,,,,,,,search,C_sing,52,276,2265.072371800081,None,2265.072371800081,None,2265.072371800081,None,3,4.525751199922524,2265.072371800081,None,2269.64794480009,None,2269.64794480009,None,2270.164946700097,None,2270.164946700097,None,2270.164946700097,None,f,1.113307600026019,2270.164946700097,None,sing14,001,2019_Oct_31_1526,ProdFawcett_Revision2019,3.2.3,59.65836044304997,
,,,,53,0,53,0,,,,,,,,,,,,,2274.4125784999924,None,,,,,,,,,,,,,,,,,,,,,,harmony,D_new,53,148,2271.836505000014,None,2271.836505000014,None,2271.836505000014,None,1,1.985478900023736,2271.836505000014,None,2273.8637610999867,None,2273.8637610999867,None,2274.3733308000956,None,2274.3733308000956,None,2274.3733308000956,None,n,0.008686500019393861,2274.3733308000956,None,sing14,001,2019_Oct_31_1526,ProdFawcett_Revision2019,3.2.3,59.65836044304997,
,,,,54,0,54,0,,,,,,,,,,,,,2277.9757826999994,None,,,,,,,,,,,,,,,,,,,,,,chief,A_silent,54,48,2274.9233339000493,None,2274.9233339000493,None,2274.9233339000493,None,3,2.2829027000116184,2274.9233339000493,None,2277.2635111000855,None,2277.2635111000855,None,2277.7808698000154,None,2277.7808698000154,None,2277.7808698000154,None,f,0.15365039999596775,2277.7808698000154,None,sing14,001,2019_Oct_31_1526,ProdFawcett_Revision2019,3.2.3,59.65836044304997,
,,,,55,0,55,0,,,,,,,,,,,,,2280.8997252000263,None,,,,,,,,,,,,,,,,,,,,,,device,B_aloud,55,93,2278.508019500063,None,2278.508019500063,None,2278.508019500063,None,1,1.146063599968329,2278.508019500063,None,2279.698672400089,None,2279.698672400089,None,2280.2238144000294,None,2280.2238144000294,None,2280.2238144000294,None,n,0.6384074999950826,2280.2238144000294,None,sing14,001,2019_Oct_31_1526,ProdFawcett_Revision2019,3.2.3,59.65836044304997,
,,,,56,0,56,0,,,,,,,,,,,,,2284.6508698000107,None,,,,,,,,,,,,,,,,,,,,,,people,B_aloud,56,216,2281.419680400053,None,2281.419680400053,None,2281.419680400053,None,3,2.1312402000185102,2281.419680400053,None,2283.598123200005,None,2283.598123200005,None,2284.1171642000554,None,2284.1171642000554,None,2284.1171642000554,None,f,0.49754999997094274,2284.1171642000554,None,sing14,001,2019_Oct_31_1526,ProdFawcett_Revision2019,3.2.3,59.65836044304997,
,,,,57,0,57,0,,,,,,,,,,,,,2289.4855049999896,None,,,,,,,,,,,,,,,,,,,,,,space,D_new,57,297,2285.159498300054,None,2285.159498300054,None,2285.159498300054,None,2,2.446407200070098,2285.159498300054,None,2287.640333099989,None,2287.640333099989,None,2288.152471300098,None,2288.152471300098,None,2288.152471300098,None,n,1.2936989000299945,2288.152471300098,None,sing14,001,2019_Oct_31_1526,ProdFawcett_Revision2019,3.2.3,59.65836044304997,
,,,,58,0,58,0,,,,,,,,,,,,,2293.135489700013,None,,,,,,,,,,,,,,,,,,,,,,phrase,D_new,58,220,2290.0044968000147,None,2290.0044968000147,None,2290.0044968000147,None,4,1.9616479999385774,2290.0044968000147,None,2292.009128900012,None,2292.009128900012,None,2292.5345492000924,None,2292.5345492000924,None,2292.5345492000924,None,f,0.5678947999840602,2292.5345492000924,None,sing14,001,2019_Oct_31_1526,ProdFawcett_Revision2019,3.2.3,59.65836044304997,
,,,,59,0,59,0,,,,,,,,,,,,,2297.9950999000575,None,,,,,,,,,,,,,,,,,,,,,,husband,D_new,59,156,2293.6542269000784,None,2293.6542269000784,None,2293.6542269000784,None,2,1.5839069000212476,2293.6542269000784,None,2295.2793871000176,None,2295.2793871000176,None,2295.8085324000567,None,2295.8085324000567,None,2295.8085324000567,None,f,2.141603500000201,2295.8085324000567,None,sing14,001,2019_Oct_31_1526,ProdFawcett_Revision2019,3.2.3,59.65836044304997,
,,,,60,0,60,0,,,,,,,,,,,,,2301.406775200041,None,,,,,,,,,,,,,,,,,,,,,,colonel,C_sing,60,55,2298.519231399987,None,2298.519231399987,None,2298.519231399987,None,1,1.9668130999198183,2298.519231399987,None,2300.5153824000154,None,2300.5153824000154,None,2301.0348114999942,None,2301.0348114999942,None,2301.0348114999942,None,n,0.3314702999778092,2301.0348114999942,None,sing14,001,2019_Oct_31_1526,ProdFawcett_Revision2019,3.2.3,59.65836044304997,
,,,,61,0,61,0,,,,,,,,,,,,,2304.0361116999993,None,,,,,,,,,,,,,,,,,,,,,,goose,D_new,61,138,2301.937765700044,None,2301.937765700044,None,2301.937765700044,None,1,1.1563202999532223,2301.937765700044,None,2303.156698900042,None,2303.156698900042,None,2303.6714541000547,None,2303.6714541000547,None,2303.6714541000547,None,n,0.3188343000365421,2303.6714541000547,None,sing14,001,2019_Oct_31_1526,ProdFawcett_Revision2019,3.2.3,59.65836044304997,
,,,,62,0,62,0,,,,,,,,,,,,,2307.040552300052,None,,,,,,,,,,,,,,,,,,,,,,contract,D_new,62,68,2304.5545542000327,None,2304.5545542000327,None,2304.5545542000327,None,5,1.811561799957417,2304.5545542000327,None,2306.4157586999936,None,2306.4157586999936,None,2306.9350855000084,None,2306.9350855000084,None,2306.9350855000084,None,f,0.07118810003157705,2306.9350855000084,None,sing14,001,2019_Oct_31_1526,ProdFawcett_Revision2019,3.2.3,59.65836044304997,
,,,,63,0,63,0,,,,,,,,,,,,,2312.9209688000847,None,,,,,,,,,,,,,,,,,,,,,,novel,D_new,63,202,2307.577109600068,None,2307.577109600068,None,2307.577109600068,None,2,4.100970600033179,2307.577109600068,None,2311.736121600028,None,2311.736121600028,None,2312.252197700087,None,2312.252197700087,None,2312.252197700087,None,n,0.6344417000655085,2312.252197700087,None,sing14,001,2019_Oct_31_1526,ProdFawcett_Revision2019,3.2.3,59.65836044304997,
,,,,64,0,64,0,,,,,,,,,,,,,2316.554177900078,None,,,,,,,,,,,,,,,,,,,,,,beginning,B_aloud,64,19,2313.4464210000588,None,2313.4464210000588,None,2313.4464210000588,None,2,2.175925499992445,2313.4464210000588,None,2315.6707580999937,None,2315.6707580999937,None,2316.1946800000733,None,2316.1946800000733,None,2316.1946800000733,None,n,0.31544410006608814,2316.1946800000733,None,sing14,001,2019_Oct_31_1526,ProdFawcett_Revision2019,3.2.3,59.65836044304997,
,,,,65,0,65,0,,,,,,,,,,,,,2320.0378914000466,None,,,,,,,,,,,,,,,,,,,,,,benefit,D_new,65,20,2317.081554500037,None,2317.081554500037,None,2317.081554500037,None,2,2.0045532999793068,2317.081554500037,None,2319.116017100052,None,2319.116017100052,None,2319.6267132000066,None,2319.6267132000066,None,2319.6267132000066,None,n,0.37951930006965995,2319.6267132000066,None,sing14,001,2019_Oct_31_1526,ProdFawcett_Revision2019,3.2.3,59.65836044304997,
,,,,66,0,66,0,,,,,,,,,,,,,2323.838358900044,None,,,,,,,,,,,,,,,,,,,,,,committee,D_new,66,62,2320.5556605000747,None,2320.5556605000747,None,2320.5556605000747,None,2,2.570513500017114,2320.5556605000747,None,2323.1788418000797,None,2323.1788418000797,None,2323.707666100003,None,2323.707666100003,None,2323.707666100003,None,n,0.09860870009288192,2323.707666100003,None,sing14,001,2019_Oct_31_1526,ProdFawcett_Revision2019,3.2.3,59.65836044304997,
,,,,67,0,67,0,,,,,,,,,,,,,2331.6818032000447,None,,,,,,,,,,,,,,,,,,,,,,style,D_new,67,311,2324.3547446000157,None,2324.3547446000157,None,2324.3547446000157,None,3,6.371421599993482,2324.3547446000157,None,2330.782599200029,None,2330.782599200029,None,2331.3014635000145,None,2331.3014635000145,None,2331.3014635000145,None,n,0.3369922999991104,2331.3014635000145,None,sing14,001,2019_Oct_31_1526,ProdFawcett_Revision2019,3.2.3,59.65836044304997,
,,,,68,0,68,0,,,,,,,,,,,,,2336.4543920001015,None,,,,,,,,,,,,,,,,,,,,,,bright,A_silent,68,29,2332.206427900004,None,2332.206427900004,None,2332.206427900004,None,4,3.535856800037436,2332.206427900004,None,2335.801325600012,None,2335.801325600012,None,2336.3292704999913,None,2336.3292704999913,None,2336.3292704999913,None,f,0.0931243000086397,2336.3292704999913,None,sing14,001,2019_Oct_31_1526,ProdFawcett_Revision2019,3.2.3,59.65836044304997,
,,,,69,0,69,0,,,,,,,,,,,,,2339.3466206000885,None,,,,,,,,,,,,,,,,,,,,,,graduate,A_silent,69,141,2336.973515000078,None,2336.973515000078,None,2336.973515000078,None,5,1.4327647000318393,2336.973515000078,None,2338.447641100036,None,2338.447641100036,None,2338.9730865000747,None,2338.9730865000747,None,2338.9730865000747,None,f,0.34491590003017336,2338.9730865000747,None,sing14,001,2019_Oct_31_1526,ProdFawcett_Revision2019,3.2.3,59.65836044304997,
,,,,70,0,70,0,,,,,,,,,,,,,2342.2278489000164,None,,,,,,,,,,,,,,,,,,,,,,tennis,C_sing,70,323,2339.862046500086,None,2339.862046500086,None,2339.862046500086,None,6,1.3928154000313953,2339.862046500086,None,2341.2956158000743,None,2341.2956158000743,None,2341.82087470009,None,2341.82087470009,None,2341.82087470009,None,f,0.361274000024423,2341.82087470009,None,sing14,001,2019_Oct_31_1526,ProdFawcett_Revision2019,3.2.3,59.65836044304997,
,,,,71,0,71,0,,,,,,,,,,,,,2345.073943500058,None,,,,,,,,,,,,,,,,,,,,,,brief,A_silent,71,28,2342.746373500093,None,2342.746373500093,None,2342.746373500093,None,3,1.3241142000770196,2342.746373500093,None,2344.113553000032,None,2344.113553000032,None,2344.6396700000623,None,2344.6396700000623,None,2344.6396700000623,None,f,0.39851119997911155,2344.6396700000623,None,sing14,001,2019_Oct_31_1526,ProdFawcett_Revision2019,3.2.3,59.65836044304997,
,,,,72,0,72,0,,,,,,,,,,,,,2348.5771750001004,None,,,,,,,,,,,,,,,,,,,,,,division,B_aloud,72,101,2345.596185900038,None,2345.596185900038,None,2345.596185900038,None,6,1.8821075999876484,2345.596185900038,None,2347.544335899991,None,2347.544335899991,None,2348.0628567000385,None,2348.0628567000385,None,2348.0628567000385,None,f,0.4714056000811979,2348.0628567000385,None,sing14,001,2019_Oct_31_1526,ProdFawcett_Revision2019,3.2.3,59.65836044304997,
,,,,73,0,73,0,,,,,,,,,,,,,2351.4924489000114,None,,,,,,,,,,,,,,,,,,,,,,welcome,D_new,73,354,2349.110032700002,None,2349.110032700002,None,2349.110032700002,None,2,1.7521315000485629,2349.110032700002,None,2350.918996500084,None,2350.918996500084,None,2351.444770100061,None,2351.444770100061,None,2351.444770100061,None,n,0.017531300080008805,2351.444770100061,None,sing14,001,2019_Oct_31_1526,ProdFawcett_Revision2019,3.2.3,59.65836044304997,
,,,,74,0,74,0,,,,,,,,,,,,,2353.8573883000063,None,,,,,,,,,,,,,,,,,,,,,,drama,D_new,74,103,2352.025549800019,None,2352.025549800019,None,2352.025549800019,None,1,1.1968344999477267,2352.025549800019,None,2353.2721505000954,None,2353.2721505000954,None,2353.787254300085,None,2353.787254300085,None,2353.787254300085,None,n,0.03496880002785474,2353.787254300085,None,sing14,001,2019_Oct_31_1526,ProdFawcett_Revision2019,3.2.3,59.65836044304997,
,,,,75,0,75,0,,,,,,,,,,,,,2356.539784900029,None,,,,,,,,,,,,,,,,,,,,,,household,B_aloud,75,154,2354.3727162000723,None,2354.3727162000723,None,2354.3727162000723,None,1,0.9614583000075072,2354.3727162000723,None,2355.3856086999876,None,2355.3856086999876,None,2355.9040879000677,None,2355.9040879000677,None,2355.9040879000677,None,n,0.5900759000796825,2355.9040879000677,None,sing14,001,2019_Oct_31_1526,ProdFawcett_Revision2019,3.2.3,59.65836044304997,
,,,,76,0,76,0,,,,,,,,,,,,,2359.5645514000207,None,,,,,,,,,,,,,,,,,,,,,,straight,A_silent,76,307,2357.062442400027,None,2357.062442400027,None,2357.062442400027,None,4,1.6238906000507995,2357.062442400027,None,2358.7352284000954,None,2358.7352284000954,None,2359.2593634000514,None,2359.2593634000514,None,2359.2593634000514,None,f,0.2826086999848485,2359.2593634000514,None,sing14,001,2019_Oct_31_1526,ProdFawcett_Revision2019,3.2.3,59.65836044304997,
,,,,77,0,77,0,,,,,,,,,,,,,2365.905242000008,None,,,,,,,,,,,,,,,,,,,,,,court,B_aloud,77,75,2360.0797277000966,None,2360.0797277000966,None,2360.0797277000966,None,3,2.04638509999495,2360.0797277000966,None,2362.168589800014,None,2362.168589800014,None,2362.689060500008,None,2362.689060500008,None,2362.689060500008,None,n,3.1730892999330536,2362.689060500008,None,sing14,001,2019_Oct_31_1526,ProdFawcett_Revision2019,3.2.3,59.65836044304997,
,,,,78,0,78,0,,,,,,,,,,,,,2368.7740508000134,None,,,,,,,,,,,,,,,,,,,,,,income,A_silent,78,159,2366.4256668000016,None,2366.4256668000016,None,2366.4256668000016,None,1,1.292578799999319,2366.4256668000016,None,2367.7584669000935,None,2367.7584669000935,None,2368.2813050000696,None,2368.2813050000696,None,2368.2813050000696,None,n,0.4610996999545023,2368.2813050000696,None,sing14,001,2019_Oct_31_1526,ProdFawcett_Revision2019,3.2.3,59.65836044304997,
,,,,79,0,79,0,,,,,,,,,,,,,2371.321611799998,None,,,,,,,,,,,,,,,,,,,,,,character,C_sing,79,46,2369.293081400101,None,2369.293081400101,None,2369.293081400101,None,1,1.0169236999936402,2369.293081400101,None,2370.373256699997,None,2370.373256699997,None,2370.889582300093,None,2370.889582300093,None,2370.889582300093,None,n,0.3968052000273019,2370.889582300093,None,sing14,001,2019_Oct_31_1526,ProdFawcett_Revision2019,3.2.3,59.65836044304997,
,,,,80,0,80,0,,,,,,,,,,,,,2375.341276000021,None,,,,,,,,,,,,,,,,,,,,,,service,B_aloud,80,280,2371.847187900101,None,2371.847187900101,None,2371.847187900101,None,2,2.8149724999675527,2371.847187900101,None,2374.717951000086,None,2374.717951000086,None,2375.2432227000827,None,2375.2432227000827,None,2375.2432227000827,None,f,0.06720209994819015,2375.2432227000827,None,sing14,001,2019_Oct_31_1526,ProdFawcett_Revision2019,3.2.3,59.65836044304997,
,,,,81,0,81,0,,,,,,,,,,,,,2381.1755203000503,None,,,,,,,,,,,,,,,,,,,,,,opening,C_sing,81,205,2375.86260750005,None,2375.86260750005,None,2375.86260750005,None,2,3.8315599999623373,2375.86260750005,None,2379.751468900009,None,2379.751468900009,None,2380.2639129000017,None,2380.2639129000017,None,2380.2639129000017,None,n,0.8784631999442354,2380.2639129000017,None,sing14,001,2019_Oct_31_1526,ProdFawcett_Revision2019,3.2.3,59.65836044304997,
,,,,82,0,82,0,,,,,,,,,,,,,2385.563042200054,None,,,,,,,,,,,,,,,,,,,,,,private,D_new,82,237,2381.697445000056,None,2381.697445000056,None,2381.697445000056,None,4,3.0609472000505775,2381.697445000056,None,2384.799823300098,None,2384.799823300098,None,2385.330045400071,None,2385.330045400071,None,2385.330045400071,None,f,0.1881763000274077,2385.330045400071,None,sing14,001,2019_Oct_31_1526,ProdFawcett_Revision2019,3.2.3,59.65836044304997,
,,,,83,0,83,0,,,,,,,,,,,,,2388.493171600043,None,,,,,,,,,,,,,,,,,,,,,,addition,C_sing,83,2,2386.0974570000544,None,2386.0974570000544,None,2386.0974570000544,None,6,1.4928114999784157,2386.0974570000544,None,2387.6425342999864,None,2387.6425342999864,None,2388.1568091000663,None,2388.1568091000663,None,2388.1568091000663,None,f,0.30548690003342927,2388.1568091000663,None,sing14,001,2019_Oct_31_1526,ProdFawcett_Revision2019,3.2.3,59.65836044304997,
,,,,84,0,84,0,,,,,,,,,,,,,2391.4926835000515,None,,,,,,,,,,,,,,,,,,,,,,emergency,D_new,84,110,2389.005241200095,None,2389.005241200095,None,2389.005241200095,None,3,1.5449523000279441,2389.005241200095,None,2390.6081344000995,None,2390.6081344000995,None,2391.12720550003,None,2391.12720550003,None,2391.12720550003,None,n,0.3271278999745846,2391.12720550003,None,sing14,001,2019_Oct_31_1526,ProdFawcett_Revision2019,3.2.3,59.65836044304997,
,,,,85,0,85,0,,,,,,,,,,,,,2394.978124200017,None,,,,,,,,,,,,,,,,,,,,,,couch,D_new,85,70,2392.011384100071,None,2392.011384100071,None,2392.011384100071,None,1,2.0508124000625685,2392.011384100071,None,2394.1050944000017,None,2394.1050944000017,None,2394.6232359000714,None,2394.6232359000714,None,2394.6232359000714,None,n,0.31093549996148795,2394.6232359000714,None,sing14,001,2019_Oct_31_1526,ProdFawcett_Revision2019,3.2.3,59.65836044304997,
,,,,86,0,86,0,,,,,,,,,,,,,2401.2765707999934,None,,,,,,,,,,,,,,,,,,,,,,native,A_silent,86,199,2395.497734100092,None,2395.497734100092,None,2395.497734100092,None,4,4.004414499970153,2395.497734100092,None,2399.553382400074,None,2399.553382400074,None,2400.086468100082,None,2400.086468100082,None,2400.086468100082,None,f,1.1437141000060365,2400.086468100082,None,sing14,001,2019_Oct_31_1526,ProdFawcett_Revision2019,3.2.3,59.65836044304997,
,,,,87,0,87,0,,,,,,,,,,,,,2404.315427200054,None,,,,,,,,,,,,,,,,,,,,,,clean,D_new,87,51,2401.7944957000436,None,2401.7944957000436,None,2401.7944957000436,None,3,1.7075820999452844,2401.7944957000436,None,2403.5544286000077,None,2403.5544286000077,None,2404.077534400043,None,2404.077534400043,None,2404.077534400043,None,n,0.2085981999989599,2404.077534400043,None,sing14,001,2019_Oct_31_1526,ProdFawcett_Revision2019,3.2.3,59.65836044304997,
,,,,88,0,88,0,,,,,,,,,,,,,2413.677911200095,None,,,,,,,,,,,,,,,,,,,,,,stand,D_new,88,302,2404.8329325000523,None,2404.8329325000523,None,2404.8329325000523,None,4,6.8455339999636635,2404.8329325000523,None,2411.7224902000744,None,2411.7224902000744,None,2412.2397332000546,None,2412.2397332000546,None,2412.2397332000546,None,f,1.398432399961166,2412.2397332000546,None,sing14,001,2019_Oct_31_1526,ProdFawcett_Revision2019,3.2.3,59.65836044304997,
,,,,89,0,89,0,,,,,,,,,,,,,2418.260522000026,None,,,,,,,,,,,,,,,,,,,,,,cross,B_aloud,89,80,2414.1956261000596,None,2414.1956261000596,None,2414.1956261000596,None,3,2.78654630004894,2414.1956261000596,None,2417.037919900031,None,2417.037919900031,None,2417.55813530006,None,2417.55813530006,None,2417.55813530006,None,n,0.655985200079158,2417.55813530006,None,sing14,001,2019_Oct_31_1526,ProdFawcett_Revision2019,3.2.3,59.65836044304997,
,,,,90,0,90,0,,,,,,,,,,,,,2423.577455200022,None,,,,,,,,,,,,,,,,,,,,,,defeat,B_aloud,90,88,2418.778086800012,None,2418.778086800012,None,2418.778086800012,None,1,2.9238835000433028,2418.778086800012,None,2421.7514161000727,None,2421.7514161000727,None,2422.269380700076,None,2422.269380700076,None,2422.269380700076,None,n,1.264921800000593,2422.269380700076,None,sing14,001,2019_Oct_31_1526,ProdFawcett_Revision2019,3.2.3,59.65836044304997,
,,,,91,0,91,0,,,,,,,,,,,,,2431.246329699992,None,,,,,,,,,,,,,,,,,,,,,,cover,A_silent,91,77,2424.0969306000043,None,2424.0969306000043,None,2424.0969306000043,None,5,6.46131509996485,2424.0969306000043,None,2430.604909899994,None,2430.604909899994,None,2431.130021000048,None,2431.130021000048,None,2431.130021000048,None,f,0.0761511999880895,2431.130021000048,None,sing14,001,2019_Oct_31_1526,ProdFawcett_Revision2019,3.2.3,59.65836044304997,
,,,,92,0,92,0,,,,,,,,,,,,,2434.429741400061,None,,,,,,,,,,,,,,,,,,,,,,sound,D_new,92,295,2431.7628238000907,None,2431.7628238000907,None,2431.7628238000907,None,5,1.4753409000113606,2431.7628238000907,None,2433.2891622000607,None,2433.2891622000607,None,2433.808936699992,None,2433.808936699992,None,2433.808936699992,None,f,0.589215200045146,2433.808936699992,None,sing14,001,2019_Oct_31_1526,ProdFawcett_Revision2019,3.2.3,59.65836044304997,
,,,,93,0,93,0,,,,,,,,,,,,,2437.146022000001,None,,,,,,,,,,,,,,,,,,,,,,south,C_sing,93,296,2434.9457011000486,None,2434.9457011000486,None,2434.9457011000486,None,1,1.3564088999992236,2434.9457011000486,None,2436.3580839000642,None,2436.3580839000642,None,2436.8803898000624,None,2436.8803898000624,None,2436.8803898000624,None,n,0.22170310001820326,2436.8803898000624,None,sing14,001,2019_Oct_31_1526,ProdFawcett_Revision2019,3.2.3,59.65836044304997,
,,,,94,0,94,0,,,,,,,,,,,,,2440.322469000006,None,,,,,,,,,,,,,,,,,,,,,,watch,A_silent,94,351,2437.6552225000923,None,2437.6552225000923,None,2437.6552225000923,None,3,2.0626621999545023,2437.6552225000923,None,2439.7601774000796,None,2439.7601774000796,None,2440.283342100098,None,2440.283342100098,None,2440.283342100098,None,f,0.010768600041046739,2440.283342100098,None,sing14,001,2019_Oct_31_1526,ProdFawcett_Revision2019,3.2.3,59.65836044304997,
,,,,95,0,95,0,,,,,,,,,,,,,2443.29753900005,None,,,,,,,,,,,,,,,,,,,,,,swift,B_aloud,95,320,2440.850679200026,None,2440.850679200026,None,2440.850679200026,None,1,1.7474437999771908,2440.850679200026,None,2442.635492500034,None,2442.635492500034,None,2443.167928100098,None,2443.167928100098,None,2443.167928100098,None,n,0.08614680008031428,2443.167928100098,None,sing14,001,2019_Oct_31_1526,ProdFawcett_Revision2019,3.2.3,59.65836044304997,
,,,,96,0,96,0,,,,,,,,,,,,,2446.1461464000167,None,,,,,,,,,,,,,,,,,,,,,,break,A_silent,96,26,2443.8158882000716,None,2443.8158882000716,None,2443.8158882000716,None,3,1.6465461000334471,2443.8158882000716,None,2445.5095105000073,None,2445.5095105000073,None,2446.029716600082,None,2446.029716600082,None,2446.029716600082,None,f,0.08037749992217869,2446.029716600082,None,sing14,001,2019_Oct_31_1526,ProdFawcett_Revision2019,3.2.3,59.65836044304997,
,,,,97,0,97,0,,,,,,,,,,,,,2448.8204687000252,None,,,,,,,,,,,,,,,,,,,,,,majority,A_silent,97,176,2446.6713153000455,None,2446.6713153000455,None,2446.6713153000455,None,1,1.4388214000500739,2446.6713153000455,None,2448.156254700036,None,2448.156254700036,None,2448.6827511000447,None,2448.6827511000447,None,2448.6827511000447,None,n,0.0833794999634847,2448.6827511000447,None,sing14,001,2019_Oct_31_1526,ProdFawcett_Revision2019,3.2.3,59.65836044304997,
,,,,98,0,98,0,,,,,,,,,,,,,2452.0647115000756,None,,,,,,,,,,,,,,,,,,,,,,owner,D_new,98,208,2449.3494598000543,None,2449.3494598000543,None,2449.3494598000543,None,2,1.536543200025335,2449.3494598000543,None,2450.9294681000756,None,2450.9294681000756,None,2451.446319999988,None,2451.446319999988,None,2451.446319999988,None,n,0.5840755000244826,2451.446319999988,None,sing14,001,2019_Oct_31_1526,ProdFawcett_Revision2019,3.2.3,59.65836044304997,
,,,,99,0,99,0,,,,,,,,,,,,,2456.5835596000543,None,,,,,,,,,,,,,,,,,,,,,,personnel,D_new,99,219,2452.5829213000834,None,2452.5829213000834,None,2452.5829213000834,None,1,2.9991716000949964,2452.5829213000834,None,2455.6214142000536,None,2455.6214142000536,None,2456.1484631000785,None,2456.1484631000785,None,2456.1484631000785,None,n,0.38566399994306266,2456.1484631000785,None,sing14,001,2019_Oct_31_1526,ProdFawcett_Revision2019,3.2.3,59.65836044304997,
,,,,100,0,100,0,,,,,,,,,,,,,2459.336389000062,None,,,,,,,,,,,,,,,,,,,,,,guest,C_sing,100,146,2457.1210267000133,None,2457.1210267000133,None,2457.1210267000133,None,4,1.4053407000610605,2457.1210267000133,None,2458.57938260003,None,2458.57938260003,None,2459.1000205000164,None,2459.1000205000164,None,2459.1000205000164,None,f,0.20194020005874336,2459.1000205000164,None,sing14,001,2019_Oct_31_1526,ProdFawcett_Revision2019,3.2.3,59.65836044304997,
,,,,101,0,101,0,,,,,,,,,,,,,2462.5137452000054,None,,,,,,,,,,,,,,,,,,,,,,nature,D_new,101,200,2459.865601800033,None,2459.865601800033,None,2459.865601800033,None,4,1.5488467999966815,2459.865601800033,None,2461.4601822000695,None,2461.4601822000695,None,2461.977475800086,None,2461.977475800086,None,2461.977475800086,None,f,0.4926686000544578,2461.977475800086,None,sing14,001,2019_Oct_31_1526,ProdFawcett_Revision2019,3.2.3,59.65836044304997,
,,,,102,0,102,0,,,,,,,,,,,,,2465.347562800045,None,,,,,,,,,,,,,,,,,,,,,,under,D_new,102,343,2463.0308629000792,None,2463.0308629000792,None,2463.0308629000792,None,1,1.4073172999778762,2463.0308629000792,None,2464.492766600102,None,2464.492766600102,None,2465.0095316000516,None,2465.0095316000516,None,2465.0095316000516,None,f,0.2926045000785962,2465.0095316000516,None,sing14,001,2019_Oct_31_1526,ProdFawcett_Revision2019,3.2.3,59.65836044304997,
,,,,103,0,103,0,,,,,,,,,,,,,2467.9842154000653,None,,,,,,,,,,,,,,,,,,,,,,minor,C_sing,103,191,2465.852330600028,None,2465.852330600028,None,2465.852330600028,None,4,1.1937993000028655,2465.852330600028,None,2467.073946800083,None,2467.073946800083,None,2467.5884738999885,None,2467.5884738999885,None,2467.5884738999885,None,f,0.3693365999497473,2467.5884738999885,None,sing14,001,2019_Oct_31_1526,ProdFawcett_Revision2019,3.2.3,59.65836044304997,
,,,,104,0,104,0,,,,,,,,,,,,,2470.8144500000635,None,,,,,,,,,,,,,,,,,,,,,,force,D_new,104,131,2468.515261900029,None,2468.515261900029,None,2468.515261900029,None,1,1.434880799963139,2468.515261900029,None,2469.990053400048,None,2469.990053400048,None,2470.5123558000196,None,2470.5123558000196,None,2470.5123558000196,None,n,0.26990260009188205,2470.5123558000196,None,sing14,001,2019_Oct_31_1526,ProdFawcett_Revision2019,3.2.3,59.65836044304997,
,,,,105,0,105,0,,,,,,,,,,,,,2473.2575889000436,None,,,,,,,,,,,,,,,,,,,,,,trash,A_silent,105,337,2471.33477950003,None,2471.33477950003,None,2471.33477950003,None,1,1.3117571999318898,2471.33477950003,None,2472.691620000056,None,2472.691620000056,None,2473.212806900032,None,2473.212806900032,None,2473.212806900032,None,n,0.009137700079008937,2473.212806900032,None,sing14,001,2019_Oct_31_1526,ProdFawcett_Revision2019,3.2.3,59.65836044304997,
,,,,106,0,106,0,,,,,,,,,,,,,2476.7486711000092,None,,,,,,,,,,,,,,,,,,,,,,question,C_sing,106,247,2473.7877141000936,None,2473.7877141000936,None,2473.7877141000936,None,5,1.7547265000175685,2473.7877141000936,None,2475.598325900035,None,2475.598325900035,None,2476.111367000034,None,2476.111367000034,None,2476.111367000034,None,f,0.5907013000687584,2476.111367000034,None,sing14,001,2019_Oct_31_1526,ProdFawcett_Revision2019,3.2.3,59.65836044304997,
,,,,107,0,107,0,,,,,,,,,,,,,2480.415077300044,None,,,,,,,,,,,,,,,,,,,,,,science,A_silent,107,275,2477.2685894999886,None,2477.2685894999886,None,2477.2685894999886,None,5,1.9296567999990657,2477.2685894999886,None,2479.2392280000495,None,2479.2392280000495,None,2479.762316300068,None,2479.762316300068,None,2479.762316300068,None,f,0.6118222000077367,2479.762316300068,None,sing14,001,2019_Oct_31_1526,ProdFawcett_Revision2019,3.2.3,59.65836044304997,
,,,,108,0,108,0,,,,,,,,,,,,,2483.131097600097,None,,,,,,,,,,,,,,,,,,,,,,instrument,C_sing,108,163,2480.9339872000273,None,2480.9339872000273,None,2480.9339872000273,None,6,1.512185400002636,2480.9339872000273,None,2482.495685900096,None,2482.495685900096,None,2483.0141046000645,None,2483.0141046000645,None,2483.0141046000645,None,f,0.08022150001488626,2483.0141046000645,None,sing14,001,2019_Oct_31_1526,ProdFawcett_Revision2019,3.2.3,59.65836044304997,
,,,,109,0,109,0,,,,,,,,,,,,,2486.8999672000064,None,,,,,,,,,,,,,,,,,,,,,,fight,D_new,109,127,2483.654003200005,None,2483.654003200005,None,2483.654003200005,None,4,2.192189500085078,2483.654003200005,None,2485.8929248000495,None,2485.8929248000495,None,2486.4253404000774,None,2486.4253404000774,None,2486.4253404000774,None,n,0.4288043000269681,2486.4253404000774,None,sing14,001,2019_Oct_31_1526,ProdFawcett_Revision2019,3.2.3,59.65836044304997,
,,,,110,0,110,0,,,,,,,,,,,,,2490.033596900059,None,,,,,,,,,,,,,,,,,,,,,,measure,D_new,110,184,2487.416645599995,None,2487.416645599995,None,2487.416645599995,None,4,1.7335675000213087,2487.416645599995,None,2489.1918800000567,None,2489.1918800000567,None,2489.714073800016,None,2489.714073800016,None,2489.714073800016,None,f,0.28429009998217225,2489.714073800016,None,sing14,001,2019_Oct_31_1526,ProdFawcett_Revision2019,3.2.3,59.65836044304997,
,,,,111,0,111,0,,,,,,,,,,,,,2493.599045000039,None,,,,,,,,,,,,,,,,,,,,,,citizen,D_new,111,50,2490.56170369999,None,2490.56170369999,None,2490.56170369999,None,1,1.484278199961409,2490.56170369999,None,2492.076246200013,None,2492.076246200013,None,2492.61084139999,None,2492.61084139999,None,2492.61084139999,None,n,0.9472563999006525,2492.61084139999,None,sing14,001,2019_Oct_31_1526,ProdFawcett_Revision2019,3.2.3,59.65836044304997,
,,,,112,0,112,0,,,,,,,,,,,,,2496.3990554000484,None,,,,,,,,,,,,,,,,,,,,,,marriage,B_aloud,112,179,2494.1228905000025,None,2494.1228905000025,None,2494.1228905000025,None,1,1.2192156999371946,2494.1228905000025,None,2495.384650400025,None,2495.384650400025,None,2495.894758700044,None,2495.894758700044,None,2495.894758700044,None,n,0.4634326999075711,2495.894758700044,None,sing14,001,2019_Oct_31_1526,ProdFawcett_Revision2019,3.2.3,59.65836044304997,
,,,,113,0,113,0,,,,,,,,,,,,,2500.5538928000024,None,,,,,,,,,,,,,,,,,,,,,,institute,D_new,113,162,2496.9190778000047,None,2496.9190778000047,None,2496.9190778000047,None,4,2.895134499995038,2496.9190778000047,None,2499.863446800038,None,2499.863446800038,None,2500.371455000015,None,2500.371455000015,None,2500.371455000015,None,f,0.13894030009396374,2500.371455000015,None,sing14,001,2019_Oct_31_1526,ProdFawcett_Revision2019,3.2.3,59.65836044304997,
,,,,114,0,114,0,,,,,,,,,,,,,2503.233367400011,None,,,,,,,,,,,,,,,,,,,,,,disease,D_new,114,97,2501.083620600053,None,2501.083620600053,None,2501.083620600053,None,2,1.4025172999827191,2501.083620600053,None,2502.5291711000027,None,2502.5291711000027,None,2503.0485237000976,None,2503.0485237000976,None,2503.0485237000976,None,n,0.14158219995442778,2503.0485237000976,None,sing14,001,2019_Oct_31_1526,ProdFawcett_Revision2019,3.2.3,59.65836044304997,
,,,,115,0,115,0,,,,,,,,,,,,,2506.1382486000657,None,,,,,,,,,,,,,,,,,,,,,,crisis,D_new,115,79,2503.7507504000096,None,2503.7507504000096,None,2503.7507504000096,None,2,1.5116435999516398,2503.7507504000096,None,2505.305995200062,None,2505.305995200062,None,2505.832384300069,None,2505.832384300069,None,2505.832384300069,None,n,0.2617768000345677,2505.832384300069,None,sing14,001,2019_Oct_31_1526,ProdFawcett_Revision2019,3.2.3,59.65836044304997,
,,,,116,0,116,0,,,,,,,,,,,,,2509.5794471000554,None,,,,,,,,,,,,,,,,,,,,,,history,D_new,116,153,2506.669347200077,None,2506.669347200077,None,2506.669347200077,None,2,2.0247756999451667,2506.669347200077,None,2508.746269700001,None,2508.746269700001,None,2509.2650774000213,None,2509.2650774000213,None,2509.2650774000213,None,n,0.27694289991632104,2509.2650774000213,None,sing14,001,2019_Oct_31_1526,ProdFawcett_Revision2019,3.2.3,59.65836044304997,
,,,,117,0,117,0,,,,,,,,,,,,,2512.6011296000797,None,,,,,,,,,,,,,,,,,,,,,,republic,A_silent,117,260,2510.1028544000583,None,2510.1028544000583,None,2510.1028544000583,None,1,1.487284299917519,2510.1028544000583,None,2511.6473525000038,None,2511.6473525000038,None,2512.1708160000853,None,2512.1708160000853,None,2512.1708160000853,None,n,0.3872508999193087,2512.1708160000853,None,sing14,001,2019_Oct_31_1526,ProdFawcett_Revision2019,3.2.3,59.65836044304997,
,,,,118,0,118,0,,,,,,,,,,,,,2516.632984900032,None,,,,,,,,,,,,,,,,,,,,,,audience,D_new,118,14,2513.118461300037,None,2513.118461300037,None,2513.118461300037,None,6,2.0319542000070214,2513.118461300037,None,2515.1999853000743,None,2515.1999853000743,None,2515.713162500062,None,2515.713162500062,None,2515.713162500062,None,f,0.8849218999966979,2515.713162500062,None,sing14,001,2019_Oct_31_1526,ProdFawcett_Revision2019,3.2.3,59.65836044304997,
,,,,119,0,119,0,,,,,,,,,,,,,2521.701369800023,None,,,,,,,,,,,,,,,,,,,,,,error,D_new,119,117,2517.150997400051,None,2517.150997400051,None,2517.150997400051,None,4,3.7111468999646604,2517.150997400051,None,2520.910347500001,None,2520.910347500001,None,2521.445595200057,None,2521.445595200057,None,2521.445595200057,None,f,0.22466970002278686,2521.445595200057,None,sing14,001,2019_Oct_31_1526,ProdFawcett_Revision2019,3.2.3,59.65836044304997,
,,,,120,0,120,0,,,,,,,,,,,,,2525.0190526000224,None,,,,,,,,,,,,,,,,,,,,,,course,A_silent,120,74,2522.218772900058,None,2522.218772900058,None,2522.218772900058,None,5,1.9317878000438213,2522.218772900058,None,2524.202006500098,None,2524.202006500098,None,2524.725519900094,None,2524.725519900094,None,2524.725519900094,None,f,0.2564794000936672,2524.725519900094,None,sing14,001,2019_Oct_31_1526,ProdFawcett_Revision2019,3.2.3,59.65836044304997,
,,,,121,0,121,0,,,,,,,,,,,,,2529.0773528000573,None,,,,,,,,,,,,,,,,,,,,,,turkey,D_new,121,342,2525.5395137000596,None,2525.5395137000596,None,2525.5395137000596,None,3,2.5624511000933126,2525.5395137000596,None,2528.132901700097,None,2528.132901700097,None,2528.6411015000194,None,2528.6411015000194,None,2528.6411015000194,None,f,0.4046661000465974,2528.6411015000194,None,sing14,001,2019_Oct_31_1526,ProdFawcett_Revision2019,3.2.3,59.65836044304997,
,,,,122,0,122,0,,,,,,,,,,,,,2531.591224700096,None,,,,,,,,,,,,,,,,,,,,,,author,B_aloud,122,15,2529.601049800054,None,2529.601049800054,None,2529.601049800054,None,6,1.373234200058505,2529.601049800054,None,2531.029983300017,None,2531.029983300017,None,2531.5527352000354,None,2531.5527352000354,None,2531.5527352000354,None,f,0.005161199951544404,2531.5527352000354,None,sing14,001,2019_Oct_31_1526,ProdFawcett_Revision2019,3.2.3,59.65836044304997,
,,,,123,0,123,0,,,,,,,,,,,,,2535.8859069000464,None,,,,,,,,,,,,,,,,,,,,,,ground,B_aloud,123,142,2532.1188551000087,None,2532.1188551000087,None,2532.1188551000087,None,6,1.559419700060971,2532.1188551000087,None,2533.7290571000194,None,2533.7290571000194,None,2534.251919100061,None,2534.251919100061,None,2534.251919100061,None,r,1.6023933999240398,2534.251919100061,None,sing14,001,2019_Oct_31_1526,ProdFawcett_Revision2019,3.2.3,59.65836044304997,
,,,,124,0,124,0,,,,,,,,,,,,,2540.9684791000327,None,,,,,,,,,,,,,,,,,,,,,,partner,D_new,124,211,2536.4044783000136,None,2536.4044783000136,None,2536.4044783000136,None,6,2.7856854000128806,2536.4044783000136,None,2539.247412900091,None,2539.247412900091,None,2539.773489000043,None,2539.773489000043,None,2539.773489000043,None,f,1.152613600017503,2539.773489000043,None,sing14,001,2019_Oct_31_1526,ProdFawcett_Revision2019,3.2.3,59.65836044304997,
,,,,125,0,125,0,,,,,,,,,,,,,2545.988335400005,None,,,,,,,,,,,,,,,,,,,,,,sweet,D_new,125,319,2541.4904353000456,None,2541.4904353000456,None,2541.4904353000456,None,4,2.9316470000194386,2541.4904353000456,None,2544.4604486000026,None,2544.4604486000026,None,2544.9870019000955,None,2544.9870019000955,None,2544.9870019000955,None,f,0.9633279000408947,2544.9870019000955,None,sing14,001,2019_Oct_31_1526,ProdFawcett_Revision2019,3.2.3,59.65836044304997,
,,,,126,0,126,0,,,,,,,,,,,,,2552.1704134000465,None,,,,,,,,,,,,,,,,,,,,,,discovery,D_new,126,95,2546.5233276000945,None,2546.5233276000945,None,2546.5233276000945,None,4,3.5707856999943033,2546.5233276000945,None,2550.150340500055,None,2550.150340500055,None,2550.671965699992,None,2550.671965699992,None,2550.671965699992,None,n,1.4624144999543205,2550.671965699992,None,sing14,001,2019_Oct_31_1526,ProdFawcett_Revision2019,3.2.3,59.65836044304997,
,,,,127,0,127,0,,,,,,,,,,,,,2555.0457902000053,None,,,,,,,,,,,,,,,,,,,,,,season,B_aloud,127,277,2552.6884957000148,None,2552.6884957000148,None,2552.6884957000148,None,6,1.4055549999466166,2552.6884957000148,None,2554.144246699987,None,2554.144246699987,None,2554.6672766000265,None,2554.6672766000265,None,2554.6672766000265,None,f,0.3386377999559045,2554.6672766000265,None,sing14,001,2019_Oct_31_1526,ProdFawcett_Revision2019,3.2.3,59.65836044304997,
,,,,128,0,128,0,,,,,,,,,,,,,2560.3039903000463,None,,,,,,,,,,,,,,,,,,,,,,display,D_new,128,98,2555.5704147000797,None,2555.5704147000797,None,2555.5704147000797,None,4,3.5877590000163764,2555.5704147000797,None,2559.2122515999945,None,2559.2122515999945,None,2559.734382200055,None,2559.734382200055,None,2559.734382200055,None,f,0.5358093999093398,2559.734382200055,None,sing14,001,2019_Oct_31_1526,ProdFawcett_Revision2019,3.2.3,59.65836044304997,
,,,,129,0,129,0,,,,,,,,,,,,,2563.22186540009,None,,,,,,,,,,,,,,,,,,,,,,weight,A_silent,129,353,2560.827986899996,None,2560.827986899996,None,2560.827986899996,None,5,1.6983138000359759,2560.827986899996,None,2562.5808873000788,None,2562.5808873000788,None,2563.1081073000096,None,2563.1081073000096,None,2563.1081073000096,None,f,0.07415680005215108,2563.1081073000096,None,sing14,001,2019_Oct_31_1526,ProdFawcett_Revision2019,3.2.3,59.65836044304997,
,,,,130,0,130,0,,,,,,,,,,,,,2567.2450688000536,None,,,,,,,,,,,,,,,,,,,,,,smell,B_aloud,130,291,2563.740581799997,None,2563.740581799997,None,2563.740581799997,None,4,2.5936904000118375,2563.740581799997,None,2566.3808397999965,None,2566.3808397999965,None,2566.9015007000417,None,2566.9015007000417,None,2566.9015007000417,None,f,0.29673669999465346,2566.9015007000417,None,sing14,001,2019_Oct_31_1526,ProdFawcett_Revision2019,3.2.3,59.65836044304997,
,,,,131,0,131,0,,,,,,,,,,,,,2571.719899000018,None,,,,,,,,,,,,,,,,,,,,,,silence,D_new,131,288,2567.771209800034,None,2567.771209800034,None,2567.771209800034,None,3,3.1309525999240577,2567.771209800034,None,2570.9442591000115,None,2570.9442591000115,None,2571.469260200043,None,2571.469260200043,None,2571.469260200043,None,f,0.20867979992181063,2571.469260200043,None,sing14,001,2019_Oct_31_1526,ProdFawcett_Revision2019,3.2.3,59.65836044304997,
,,,,132,0,132,0,,,,,,,,,,,,,2574.689984100056,None,,,,,,,,,,,,,,,,,,,,,,number,A_silent,132,203,2572.2301093999995,None,2572.2301093999995,None,2572.2301093999995,None,5,1.648094000061974,2572.2301093999995,None,2573.9361047000857,None,2573.9361047000857,None,2574.4566300000297,None,2574.4566300000297,None,2574.4566300000297,None,f,0.18945720000192523,2574.4566300000297,None,sing14,001,2019_Oct_31_1526,ProdFawcett_Revision2019,3.2.3,59.65836044304997,
,,,,133,0,133,0,,,,,,,,,,,,,2578.9535949000856,None,,,,,,,,,,,,,,,,,,,,,,murder,A_silent,133,195,2575.2058581000892,None,2575.2058581000892,None,2575.2058581000892,None,1,1.576393899973482,2575.2058581000892,None,2576.8269595000893,None,2576.8269595000893,None,2577.352267500013,None,2577.352267500013,None,2577.352267500013,None,n,1.5660951000172645,2577.352267500013,None,sing14,001,2019_Oct_31_1526,ProdFawcett_Revision2019,3.2.3,59.65836044304997,
,,,,134,0,134,0,,,,,,,,,,,,,2581.738962400006,None,,,,,,,,,,,,,,,,,,,,,,youth,D_new,134,359,2579.4737232000334,None,2579.4737232000334,None,2579.4737232000334,None,1,1.5161556999664754,2579.4737232000334,None,2581.020585200051,None,2581.020585200051,None,2581.533709999989,None,2581.533709999989,None,2581.533709999989,None,n,0.1686039000051096,2581.533709999989,None,sing14,001,2019_Oct_31_1526,ProdFawcett_Revision2019,3.2.3,59.65836044304997,
,,,,135,0,135,0,,,,,,,,,,,,,2585.1571461000713,None,,,,,,,,,,,,,,,,,,,,,,candidate,D_new,135,39,2582.2494659000076,None,2582.2494659000076,None,2582.2494659000076,None,2,2.180695699993521,2582.2494659000076,None,2584.4798949999968,None,2584.4798949999968,None,2585.0045632000547,None,2585.0045632000547,None,2585.0045632000547,None,n,0.11376259999815375,2585.0045632000547,None,sing14,001,2019_Oct_31_1526,ProdFawcett_Revision2019,3.2.3,59.65836044304997,
,,,,136,0,136,0,,,,,,,,,,,,,2588.254609000054,None,,,,,,,,,,,,,,,,,,,,,,scale,D_new,136,272,2585.6729210000485,None,2585.6729210000485,None,2585.6729210000485,None,3,1.7654738000128418,2585.6729210000485,None,2587.477987900027,None,2587.477987900027,None,2587.9914897000417,None,2587.9914897000417,None,2587.9914897000417,None,f,0.22261170006822795,2587.9914897000417,None,sing14,001,2019_Oct_31_1526,ProdFawcett_Revision2019,3.2.3,59.65836044304997,
,,,,137,0,137,0,,,,,,,,,,,,,2590.990413599997,None,,,,,,,,,,,,,,,,,,,,,,oxygen,D_new,137,209,2588.779149200069,None,2588.779149200069,None,2588.779149200069,None,1,1.4507978999754414,2588.779149200069,None,2590.267552400008,None,2590.267552400008,None,2590.787799700047,None,2590.787799700047,None,2590.787799700047,None,n,0.17019580001942813,2590.787799700047,None,sing14,001,2019_Oct_31_1526,ProdFawcett_Revision2019,3.2.3,59.65836044304997,
,,,,138,0,138,0,,,,,,,,,,,,,2593.839509200072,None,,,,,,,,,,,,,,,,,,,,,,period,C_sing,138,217,2591.507612799993,None,2591.507612799993,None,2591.507612799993,None,1,1.266848300001584,2591.507612799993,None,2592.813433400006,None,2592.813433400006,None,2593.337710699998,None,2593.337710699998,None,2593.337710699998,None,n,0.4604935999959707,2593.337710699998,None,sing14,001,2019_Oct_31_1526,ProdFawcett_Revision2019,3.2.3,59.65836044304997,
,,,,139,0,139,0,,,,,,,,,,,,,2598.1898186000763,None,,,,,,,,,,,,,,,,,,,,,,group,D_new,139,143,2594.355620800052,None,2594.355620800052,None,2594.355620800052,None,4,3.010555399931036,2594.355620800052,None,2597.3955764001003,None,2597.3955764001003,None,2597.9191595000448,None,2597.9191595000448,None,2597.9191595000448,None,f,0.23100559995509684,2597.9191595000448,None,sing14,001,2019_Oct_31_1526,ProdFawcett_Revision2019,3.2.3,59.65836044304997,
,,,,140,0,140,0,,,,,,,,,,,,,2601.121824300033,None,,,,,,,,,,,,,,,,,,,,,,junior,D_new,140,167,2598.710778100067,None,2598.710778100067,None,2598.710778100067,None,1,1.6233589000767097,2598.710778100067,None,2600.389883600059,None,2600.389883600059,None,2600.9069615000626,None,2600.9069615000626,None,2600.9069615000626,None,n,0.1713904000353068,2600.9069615000626,None,sing14,001,2019_Oct_31_1526,ProdFawcett_Revision2019,3.2.3,59.65836044304997,
,,,,141,0,141,0,,,,,,,,,,,,,2604.9410225000465,None,,,,,,,,,,,,,,,,,,,,,,religion,D_new,141,258,2601.6458065999905,None,2601.6458065999905,None,2601.6458065999905,None,6,1.5283974999329075,2601.6458065999905,None,2603.2220283000497,None,2603.2220283000497,None,2603.7468176000984,None,2603.7468176000984,None,2603.7468176000984,None,r,1.1633418999845162,2603.7468176000984,None,sing14,001,2019_Oct_31_1526,ProdFawcett_Revision2019,3.2.3,59.65836044304997,
,,,,142,0,142,0,,,,,,,,,,,,,2609.6052690000506,None,,,,,,,,,,,,,,,,,,,,,,estate,D_new,142,119,2605.4579843000975,None,2605.4579843000975,None,2605.4579843000975,None,3,3.212248199968599,2605.4579843000975,None,2608.7145998000633,None,2608.7145998000633,None,2609.2389456999954,None,2609.2389456999954,None,2609.2389456999954,None,f,0.32718819996807724,2609.2389456999954,None,sing14,001,2019_Oct_31_1526,ProdFawcett_Revision2019,3.2.3,59.65836044304997,
,,,,143,0,143,0,,,,,,,,,,,,,2614.7409475999884,None,,,,,,,,,,,,,,,,,,,,,,month,D_new,143,193,2610.1241391000804,None,2610.1241391000804,None,2610.1241391000804,None,3,2.5461479000514373,2610.1241391000804,None,2612.707100300002,None,2612.707100300002,None,2613.223548100097,None,2613.223548100097,None,2613.223548100097,None,n,1.4865995000582188,2613.223548100097,None,sing14,001,2019_Oct_31_1526,ProdFawcett_Revision2019,3.2.3,59.65836044304997,
,,,,144,0,144,0,,,,,,,,,,,,,2619.626010900014,None,,,,,,,,,,,,,,,,,,,,,,skill,D_new,144,289,2615.2581104000565,None,2615.2581104000565,None,2615.2581104000565,None,4,3.4918329999782145,2615.2581104000565,None,2618.7831118000904,None,2618.7831118000904,None,2619.296555100009,None,2619.296555100009,None,2619.296555100009,None,f,0.2937614000402391,2619.296555100009,None,sing14,001,2019_Oct_31_1526,ProdFawcett_Revision2019,3.2.3,59.65836044304997,
,,,,145,0,145,0,,,,,,,,,,,,,2622.4753211000934,None,,,,,,,,,,,,,,,,,,,,,,balance,C_sing,145,17,2620.143799200072,None,2620.143799200072,None,2620.143799200072,None,4,1.3983875000849366,2620.143799200072,None,2621.59465069999,None,2621.59465069999,None,2622.1238166000694,None,2622.1238166000694,None,2622.1238166000694,None,f,0.3144267000025138,2622.1238166000694,None,sing14,001,2019_Oct_31_1526,ProdFawcett_Revision2019,3.2.3,59.65836044304997,
,,,,146,0,146,0,,,,,,,,,,,,,2625.192367200041,None,,,,,,,,,,,,,,,,,,,,,,trend,C_sing,146,340,2622.990665600053,None,2622.990665600053,None,2622.990665600053,None,4,1.2713786999229342,2622.990665600053,None,2624.3140738999937,None,2624.3140738999937,None,2624.844109000056,None,2624.844109000056,None,2624.844109000056,None,f,0.30604140006471425,2624.844109000056,None,sing14,001,2019_Oct_31_1526,ProdFawcett_Revision2019,3.2.3,59.65836044304997,
,,,,147,0,147,0,,,,,,,,,,,,,2629.293140300084,None,,,,,,,,,,,,,,,,,,,,,,sight,D_new,147,286,2625.7134640000295,None,2625.7134640000295,None,2625.7134640000295,None,2,2.572681000106968,2625.7134640000295,None,2628.3349807000486,None,2628.3349807000486,None,2628.8615707000718,None,2628.8615707000718,None,2628.8615707000718,None,n,0.39276519999839365,2628.8615707000718,None,sing14,001,2019_Oct_31_1526,ProdFawcett_Revision2019,3.2.3,59.65836044304997,
,,,,148,0,148,0,,,,,,,,,,,,,2632.2267322000116,None,,,,,,,,,,,,,,,,,,,,,,length,D_new,148,169,2629.814387600054,None,2629.814387600054,None,2629.814387600054,None,1,1.4157550000818446,2629.814387600054,None,2631.291826000088,None,2631.291826000088,None,2631.8114951000316,None,2631.8114951000316,None,2631.8114951000316,None,n,0.37914630002342165,2631.8114951000316,None,sing14,001,2019_Oct_31_1526,ProdFawcett_Revision2019,3.2.3,59.65836044304997,
,,,,149,0,149,0,,,,,,,,,,,,,2637.318869800074,None,,,,,,,,,,,,,,,,,,,,,,touch,C_sing,149,332,2632.7421123000095,None,2632.7421123000095,None,2632.7421123000095,None,3,3.703993699979037,2632.7421123000095,None,2636.503864300088,None,2636.503864300088,None,2637.0230482000625,None,2637.0230482000625,None,2637.0230482000625,None,n,0.2632368999766186,2637.0230482000625,None,sing14,001,2019_Oct_31_1526,ProdFawcett_Revision2019,3.2.3,59.65836044304997,
,,,,150,0,150,0,,,,,,,,,,,,,2641.75741369999,None,,,,,,,,,,,,,,,,,,,,,,present,A_silent,150,231,2637.841714300099,None,2637.841714300099,None,2637.841714300099,None,6,1.988284100079909,2637.841714300099,None,2639.887017000001,None,2639.887017000001,None,2640.410429200041,None,2640.410429200041,None,2640.410429200041,None,r,1.3157362999627367,2640.410429200041,None,sing14,001,2019_Oct_31_1526,ProdFawcett_Revision2019,3.2.3,59.65836044304997,
,,,,151,0,151,0,,,,,,,,,,,,,2644.9429972000653,None,,,,,,,,,,,,,,,,,,,,,,council,D_new,151,71,2642.2649732000427,None,2642.2649732000427,None,2642.2649732000427,None,6,1.7011268000351265,2642.2649732000427,None,2644.0205125000793,None,2644.0205125000793,None,2644.5440887000877,None,2644.5440887000877,None,2644.5440887000877,None,r,0.3581160999601707,2644.5440887000877,None,sing14,001,2019_Oct_31_1526,ProdFawcett_Revision2019,3.2.3,59.65836044304997,
,,,,152,0,152,0,,,,,,,,,,,,,2648.2349596000277,None,,,,,,,,,,,,,,,,,,,,,,point,D_new,152,226,2645.4590635000495,None,2645.4590635000495,None,2645.4590635000495,None,4,1.779207200044766,2645.4590635000495,None,2647.2875455000903,None,2647.2875455000903,None,2647.7960240000393,None,2647.7960240000393,None,2647.7960240000393,None,f,0.4021469000726938,2647.7960240000393,None,sing14,001,2019_Oct_31_1526,ProdFawcett_Revision2019,3.2.3,59.65836044304997,
