StudyTrials.thisRepN,StudyTrials.thisTrialN,StudyTrials.thisN,StudyTrials.thisIndex,TestTrials.thisRepN,TestTrials.thisTrialN,TestTrials.thisN,TestTrials.thisIndex,textWelcome.started,textWelcome.stopped,keyWelcome.keys,keyWelcome.rt,keyWelcome.started,keyWelcome.stopped,textReady.started,textReady.stopped,keyReady.keys,keyReady.rt,keyReady.started,keyReady.stopped,polyback_2.started,polyback_2.stopped,studyPic,studyWord,studyType,studyN,studyOrder,polyback_3.started,polyback_3.stopped,studyPicChoice.started,studyPicChoice.stopped,polyback_4.started,polyback_4.stopped,polyback.started,polyback.stopped,studyWords.started,studyWords.stopped,getResearcher.started,getResearcher.stopped,kPress2.keys,kPress2.rt,kPress2.started,kPress2.stopped,testWord,testType,testN,testOrder,polyback_5.started,polyback_5.stopped,testWords.started,testWords.stopped,textScale.started,textScale.stopped,keyConf.keys,keyConf.rt,keyConf.started,keyConf.stopped,polyback_6.started,polyback_6.stopped,studyWords_2.started,studyWords_2.stopped,polyback_7.started,polyback_7.stopped,testWords_2.started,testWords_2.stopped,textScale_2.started,textScale_2.stopped,keyRKN.keys,keyRKN.rt,keyRKN.started,keyRKN.stopped,participant,session,date,expName,psychopyVersion,frameRate,
,,,,,,,,28.148677200020757,None,space,1923.0270760999992,28.148677200020757,None,,,,,,,,,,,,,,,,,,,,,,,,,,,,,,,,,,,,,,,,,,,,,,,,,,,,,,,,,,sing36,001,2019_Nov_14_1532,ProdFawcett_Revision2019,3.2.3,59.628265465584136,
,,,,,,,,,,,,,,1951.1998773000087,None,space,1.9758966999943368,1951.1998773000087,None,,,,,,,,,,,,,,,,,,,,,,,,,,,,,,,,,,,,,,,,,,,,,,,,,,,,sing36,001,2019_Nov_14_1532,ProdFawcett_Revision2019,3.2.3,59.628265465584136,
0,0,0,0,,,,,,,,,,,,,,,,,1957.9814217000094,None,materials/singPic.jpg,history,C_sing,0,153,1954.3359884000092,None,1954.3359884000092,None,1955.2297890000045,None,1955.4815659000014,None,1955.4815659000014,None,,,,,,,,,,,,,,,,,,,,,,,,,,,,,,,,,,,sing36,001,2019_Nov_14_1532,ProdFawcett_Revision2019,3.2.3,59.628265465584136,
1,0,1,0,,,,,,,,,,,,,,,,,1962.2483746000216,None,materials/speakPic.jpg,balance,B_aloud,1,17,1958.5584740000195,None,1958.5584740000195,None,1959.4987957000267,None,1959.7595229000144,None,1959.7595229000144,None,,,,,,,,,,,,,,,,,,,,,,,,,,,,,,,,,,,sing36,001,2019_Nov_14_1532,ProdFawcett_Revision2019,3.2.3,59.628265465584136,
2,0,2,0,,,,,,,,,,,,,,,,,1966.5150255000044,None,materials/readPic.jpg,goose,A_silent,2,138,1962.8343686000153,None,1962.8343686000153,None,1963.765872900025,None,1964.0254093000258,None,1964.0254093000258,None,,,,,,,,,,,,,,,,,,,,,,,,,,,,,,,,,,,sing36,001,2019_Nov_14_1532,ProdFawcett_Revision2019,3.2.3,59.628265465584136,
3,0,3,0,,,,,,,,,,,,,,,,,1970.7825111999991,None,materials/singPic.jpg,reading,C_sing,3,254,1967.106576100021,None,1967.106576100021,None,1968.0335124000267,None,1968.294517900009,None,1968.294517900009,None,,,,,,,,,,,,,,,,,,,,,,,,,,,,,,,,,,,sing36,001,2019_Nov_14_1532,ProdFawcett_Revision2019,3.2.3,59.628265465584136,
4,0,4,0,,,,,,,,,,,,,,,,,1975.0491334000253,None,materials/readPic.jpg,surface,A_silent,4,316,1971.3536342000007,None,1971.3536342000007,None,1972.3008683000226,None,1972.5562203000009,None,1972.5562203000009,None,,,,,,,,,,,,,,,,,,,,,,,,,,,,,,,,,,,sing36,001,2019_Nov_14_1532,ProdFawcett_Revision2019,3.2.3,59.628265465584136,
5,0,5,0,,,,,,,,,,,,,,,,,1979.3175211000198,None,materials/speakPic.jpg,republic,B_aloud,5,260,1975.664875300019,None,1975.664875300019,None,1976.5661565000191,None,1976.8305467000173,None,1976.8305467000173,None,,,,,,,,,,,,,,,,,,,,,,,,,,,,,,,,,,,sing36,001,2019_Nov_14_1532,ProdFawcett_Revision2019,3.2.3,59.628265465584136,
6,0,6,0,,,,,,,,,,,,,,,,,1983.5830092000251,None,materials/readPic.jpg,conference,A_silent,6,66,1979.898357500002,None,1979.898357500002,None,1980.8328742000158,None,1981.0915734000155,None,1981.0915734000155,None,,,,,,,,,,,,,,,,,,,,,,,,,,,,,,,,,,,sing36,001,2019_Nov_14_1532,ProdFawcett_Revision2019,3.2.3,59.628265465584136,
7,0,7,0,,,,,,,,,,,,,,,,,1987.8500948,None,materials/readPic.jpg,store,A_silent,7,305,1984.1609880000178,None,1984.1609880000178,None,1985.1006264000025,None,1985.348426200013,None,1985.348426200013,None,,,,,,,,,,,,,,,,,,,,,,,,,,,,,,,,,,,sing36,001,2019_Nov_14_1532,ProdFawcett_Revision2019,3.2.3,59.628265465584136,
8,0,8,0,,,,,,,,,,,,,,,,,1992.1175894000044,None,materials/speakPic.jpg,sight,B_aloud,8,286,1988.4376334000262,None,1988.4376334000262,None,1989.3671123000095,None,1989.6296946000075,None,1989.6296946000075,None,,,,,,,,,,,,,,,,,,,,,,,,,,,,,,,,,,,sing36,001,2019_Nov_14_1532,ProdFawcett_Revision2019,3.2.3,59.628265465584136,
9,0,9,0,,,,,,,,,,,,,,,,,1996.3837159000104,None,materials/singPic.jpg,place,C_sing,9,222,1992.709163899999,None,1992.709163899999,None,1993.6343197000097,None,1993.8902229000232,None,1993.8902229000232,None,,,,,,,,,,,,,,,,,,,,,,,,,,,,,,,,,,,sing36,001,2019_Nov_14_1532,ProdFawcett_Revision2019,3.2.3,59.628265465584136,
10,0,10,0,,,,,,,,,,,,,,,,,2000.6506907000148,None,materials/singPic.jpg,household,C_sing,10,154,1996.9731653000053,None,1996.9731653000053,None,1997.8998272000172,None,1998.1660535000265,None,1998.1660535000265,None,,,,,,,,,,,,,,,,,,,,,,,,,,,,,,,,,,,sing36,001,2019_Nov_14_1532,ProdFawcett_Revision2019,3.2.3,59.628265465584136,
11,0,11,0,,,,,,,,,,,,,,,,,2004.9175544000173,None,materials/speakPic.jpg,comfort,B_aloud,11,59,2001.2233207000245,None,2001.2233207000245,None,2002.168180800014,None,2002.4270550000074,None,2002.4270550000074,None,,,,,,,,,,,,,,,,,,,,,,,,,,,,,,,,,,,sing36,001,2019_Nov_14_1532,ProdFawcett_Revision2019,3.2.3,59.628265465584136,
12,0,12,0,,,,,,,,,,,,,,,,,2009.1846070000029,None,materials/speakPic.jpg,trial,B_aloud,12,341,2005.5054667000077,None,2005.5054667000077,None,2006.435767900024,None,2006.6911576999992,None,2006.6911576999992,None,,,,,,,,,,,,,,,,,,,,,,,,,,,,,,,,,,,sing36,001,2019_Nov_14_1532,ProdFawcett_Revision2019,3.2.3,59.628265465584136,
13,0,13,0,,,,,,,,,,,,,,,,,2013.4507474999991,None,materials/singPic.jpg,emergency,C_sing,13,110,2009.7685679000278,None,2009.7685679000278,None,2010.7018868000014,None,2010.9652406000241,None,2010.9652406000241,None,,,,,,,,,,,,,,,,,,,,,,,,,,,,,,,,,,,sing36,001,2019_Nov_14_1532,ProdFawcett_Revision2019,3.2.3,59.628265465584136,
14,0,14,0,,,,,,,,,,,,,,,,,2017.7176225000003,None,materials/readPic.jpg,scale,A_silent,14,272,2014.0617870000133,None,2014.0617870000133,None,2014.9687943000172,None,2015.2266130000062,None,2015.2266130000062,None,,,,,,,,,,,,,,,,,,,,,,,,,,,,,,,,,,,sing36,001,2019_Nov_14_1532,ProdFawcett_Revision2019,3.2.3,59.628265465584136,
15,0,15,0,,,,,,,,,,,,,,,,,2021.985647900001,None,materials/readPic.jpg,addition,A_silent,15,2,2018.2988921000215,None,2018.2988921000215,None,2019.2363012000278,None,2019.4946533000038,None,2019.4946533000038,None,,,,,,,,,,,,,,,,,,,,,,,,,,,,,,,,,,,sing36,001,2019_Nov_14_1532,ProdFawcett_Revision2019,3.2.3,59.628265465584136,
16,0,16,0,,,,,,,,,,,,,,,,,2026.252564000024,None,materials/readPic.jpg,revolution,A_silent,16,264,2022.555616000027,None,2022.555616000027,None,2023.5038342000043,None,2023.7644247999997,None,2023.7644247999997,None,,,,,,,,,,,,,,,,,,,,,,,,,,,,,,,,,,,sing36,001,2019_Nov_14_1532,ProdFawcett_Revision2019,3.2.3,59.628265465584136,
17,0,17,0,,,,,,,,,,,,,,,,,2030.519490000006,None,materials/readPic.jpg,cousin,A_silent,17,76,2026.8394843999995,None,2026.8394843999995,None,2027.7701375000179,None,2028.0271265000047,None,2028.0271265000047,None,,,,,,,,,,,,,,,,,,,,,,,,,,,,,,,,,,,sing36,001,2019_Nov_14_1532,ProdFawcett_Revision2019,3.2.3,59.628265465584136,
18,0,18,0,,,,,,,,,,,,,,,,,2034.7865373000095,None,materials/singPic.jpg,listen,C_sing,18,172,2031.1128941000206,None,2031.1128941000206,None,2032.0372402000066,None,2032.2927525000123,None,2032.2927525000123,None,,,,,,,,,,,,,,,,,,,,,,,,,,,,,,,,,,,sing36,001,2019_Nov_14_1532,ProdFawcett_Revision2019,3.2.3,59.628265465584136,
19,0,19,0,,,,,,,,,,,,,,,,,2039.0532797000196,None,materials/singPic.jpg,graduate,C_sing,19,141,2035.371781200025,None,2035.371781200025,None,2036.3043384000193,None,2036.5557035000238,None,2036.5557035000238,None,,,,,,,,,,,,,,,,,,,,,,,,,,,,,,,,,,,sing36,001,2019_Nov_14_1532,ProdFawcett_Revision2019,3.2.3,59.628265465584136,
20,0,20,0,,,,,,,,,,,,,,,,,2043.3203209000058,None,materials/readPic.jpg,native,A_silent,20,199,2039.6321097000036,None,2039.6321097000036,None,2040.5712015000172,None,2040.832128900016,None,2040.832128900016,None,,,,,,,,,,,,,,,,,,,,,,,,,,,,,,,,,,,sing36,001,2019_Nov_14_1532,ProdFawcett_Revision2019,3.2.3,59.628265465584136,
21,0,21,0,,,,,,,,,,,,,,,,,2047.5872573000088,None,materials/speakPic.jpg,signal,B_aloud,21,287,2043.9072269000171,None,2043.9072269000171,None,2044.837532000005,None,2045.0955429000023,None,2045.0955429000023,None,,,,,,,,,,,,,,,,,,,,,,,,,,,,,,,,,,,sing36,001,2019_Nov_14_1532,ProdFawcett_Revision2019,3.2.3,59.628265465584136,
22,0,22,0,,,,,,,,,,,,,,,,,2051.8540611000208,None,materials/singPic.jpg,trend,C_sing,22,340,2048.2262900000205,None,2048.2262900000205,None,2049.1052931000013,None,2049.360620899999,None,2049.360620899999,None,,,,,,,,,,,,,,,,,,,,,,,,,,,,,,,,,,,sing36,001,2019_Nov_14_1532,ProdFawcett_Revision2019,3.2.3,59.628265465584136,
23,0,23,0,,,,,,,,,,,,,,,,,2056.1213218000194,None,materials/singPic.jpg,guide,C_sing,23,147,2052.4711812000023,None,2052.4711812000023,None,2053.3712317000027,None,2053.631951200019,None,2053.631951200019,None,,,,,,,,,,,,,,,,,,,,,,,,,,,,,,,,,,,sing36,001,2019_Nov_14_1532,ProdFawcett_Revision2019,3.2.3,59.628265465584136,
24,0,24,0,,,,,,,,,,,,,,,,,2060.388297000027,None,materials/speakPic.jpg,clean,B_aloud,24,51,2056.711795900017,None,2056.711795900017,None,2057.638271100004,None,2057.8986276000214,None,2057.8986276000214,None,,,,,,,,,,,,,,,,,,,,,,,,,,,,,,,,,,,sing36,001,2019_Nov_14_1532,ProdFawcett_Revision2019,3.2.3,59.628265465584136,
25,0,25,0,,,,,,,,,,,,,,,,,2064.655251600023,None,materials/speakPic.jpg,piece,B_aloud,25,221,2060.957184400002,None,2060.957184400002,None,2061.9042310000223,None,2062.1614589000237,None,2062.1614589000237,None,,,,,,,,,,,,,,,,,,,,,,,,,,,,,,,,,,,sing36,001,2019_Nov_14_1532,ProdFawcett_Revision2019,3.2.3,59.628265465584136,
26,0,26,0,,,,,,,,,,,,,,,,,2068.921969600022,None,materials/singPic.jpg,science,C_sing,26,275,2065.251603300014,None,2065.251603300014,None,2066.1736062000273,None,2066.431096800021,None,2066.431096800021,None,,,,,,,,,,,,,,,,,,,,,,,,,,,,,,,,,,,sing36,001,2019_Nov_14_1532,ProdFawcett_Revision2019,3.2.3,59.628265465584136,
27,0,27,0,,,,,,,,,,,,,,,,,2073.189033600007,None,materials/speakPic.jpg,citizen,B_aloud,27,50,2069.5155576000107,None,2069.5155576000107,None,2070.4393049000064,None,2070.7081370000087,None,2070.7081370000087,None,,,,,,,,,,,,,,,,,,,,,,,,,,,,,,,,,,,sing36,001,2019_Nov_14_1532,ProdFawcett_Revision2019,3.2.3,59.628265465584136,
28,0,28,0,,,,,,,,,,,,,,,,,2077.4563166000007,None,materials/singPic.jpg,generation,C_sing,28,136,2073.784124900005,None,2073.784124900005,None,2074.707419800019,None,2074.9683963000134,None,2074.9683963000134,None,,,,,,,,,,,,,,,,,,,,,,,,,,,,,,,,,,,sing36,001,2019_Nov_14_1532,ProdFawcett_Revision2019,3.2.3,59.628265465584136,
29,0,29,0,,,,,,,,,,,,,,,,,2081.7229229000222,None,materials/singPic.jpg,company,C_sing,29,64,2078.0352906000044,None,2078.0352906000044,None,2078.9729005000263,None,2079.225606700027,None,2079.225606700027,None,,,,,,,,,,,,,,,,,,,,,,,,,,,,,,,,,,,sing36,001,2019_Nov_14_1532,ProdFawcett_Revision2019,3.2.3,59.628265465584136,
30,0,30,0,,,,,,,,,,,,,,,,,2085.9900519000075,None,materials/readPic.jpg,tragedy,A_silent,30,335,2082.295118000009,None,2082.295118000009,None,2083.240866500011,None,2083.503023700003,None,2083.503023700003,None,,,,,,,,,,,,,,,,,,,,,,,,,,,,,,,,,,,sing36,001,2019_Nov_14_1532,ProdFawcett_Revision2019,3.2.3,59.628265465584136,
31,0,31,0,,,,,,,,,,,,,,,,,2090.257148100005,None,materials/readPic.jpg,master,A_silent,31,180,2086.5911431000277,None,2086.5911431000277,None,2087.5068446000223,None,2087.763684500009,None,2087.763684500009,None,,,,,,,,,,,,,,,,,,,,,,,,,,,,,,,,,,,sing36,001,2019_Nov_14_1532,ProdFawcett_Revision2019,3.2.3,59.628265465584136,
32,0,32,0,,,,,,,,,,,,,,,,,2094.5240519000217,None,materials/speakPic.jpg,business,B_aloud,32,38,2090.8336544000194,None,2090.8336544000194,None,2091.774592600006,None,2092.0376116000116,None,2092.0376116000116,None,,,,,,,,,,,,,,,,,,,,,,,,,,,,,,,,,,,sing36,001,2019_Nov_14_1532,ProdFawcett_Revision2019,3.2.3,59.628265465584136,
33,0,33,0,,,,,,,,,,,,,,,,,2098.7907195000153,None,materials/singPic.jpg,capital,C_sing,33,40,2095.1060375000234,None,2095.1060375000234,None,2096.040812900028,None,2096.2995389999996,None,2096.2995389999996,None,,,,,,,,,,,,,,,,,,,,,,,,,,,,,,,,,,,sing36,001,2019_Nov_14_1532,ProdFawcett_Revision2019,3.2.3,59.628265465584136,
34,0,34,0,,,,,,,,,,,,,,,,,2103.0578992000083,None,materials/singPic.jpg,measure,C_sing,34,184,2099.408383800008,None,2099.408383800008,None,2100.307784100005,None,2100.56570180002,None,2100.56570180002,None,,,,,,,,,,,,,,,,,,,,,,,,,,,,,,,,,,,sing36,001,2019_Nov_14_1532,ProdFawcett_Revision2019,3.2.3,59.628265465584136,
35,0,35,0,,,,,,,,,,,,,,,,,2107.324868100026,None,materials/readPic.jpg,election,A_silent,35,109,2103.6853055000247,None,2103.6853055000247,None,2104.5760611000005,None,2104.83165550002,None,2104.83165550002,None,,,,,,,,,,,,,,,,,,,,,,,,,,,,,,,,,,,sing36,001,2019_Nov_14_1532,ProdFawcett_Revision2019,3.2.3,59.628265465584136,
36,0,36,0,,,,,,,,,,,,,,,,,2111.5916798000108,None,materials/speakPic.jpg,gesture,B_aloud,36,137,2107.9017714000074,None,2107.9017714000074,None,2108.841398700024,None,2109.103986300004,None,2109.103986300004,None,,,,,,,,,,,,,,,,,,,,,,,,,,,,,,,,,,,sing36,001,2019_Nov_14_1532,ProdFawcett_Revision2019,3.2.3,59.628265465584136,
37,0,37,0,,,,,,,,,,,,,,,,,2115.859093600011,None,materials/readPic.jpg,committee,A_silent,37,62,2112.1670118000184,None,2112.1670118000184,None,2113.1080103999993,None,2113.3680607000133,None,2113.3680607000133,None,,,,,,,,,,,,,,,,,,,,,,,,,,,,,,,,,,,sing36,001,2019_Nov_14_1532,ProdFawcett_Revision2019,3.2.3,59.628265465584136,
38,0,38,0,,,,,,,,,,,,,,,,,2120.12473510002,None,materials/speakPic.jpg,candidate,B_aloud,38,39,2116.430820700014,None,2116.430820700014,None,2117.3756086000067,None,2117.6327332000074,None,2117.6327332000074,None,,,,,,,,,,,,,,,,,,,,,,,,,,,,,,,,,,,sing36,001,2019_Nov_14_1532,ProdFawcett_Revision2019,3.2.3,59.628265465584136,
39,0,39,0,,,,,,,,,,,,,,,,,2124.3925380000146,None,materials/singPic.jpg,shear,C_sing,39,283,2120.7077603000216,None,2120.7077603000216,None,2121.6427354000043,None,2121.9004782000266,None,2121.9004782000266,None,,,,,,,,,,,,,,,,,,,,,,,,,,,,,,,,,,,sing36,001,2019_Nov_14_1532,ProdFawcett_Revision2019,3.2.3,59.628265465584136,
40,0,40,0,,,,,,,,,,,,,,,,,2128.6589174000255,None,materials/speakPic.jpg,sound,B_aloud,40,295,2124.976518500014,None,2124.976518500014,None,2125.9096776000224,None,2126.1681466000155,None,2126.1681466000155,None,,,,,,,,,,,,,,,,,,,,,,,,,,,,,,,,,,,sing36,001,2019_Nov_14_1532,ProdFawcett_Revision2019,3.2.3,59.628265465584136,
41,0,41,0,,,,,,,,,,,,,,,,,2132.926935800002,None,materials/speakPic.jpg,length,B_aloud,41,169,2129.2305740000156,None,2129.2305740000156,None,2130.176675200026,None,2130.44015140002,None,2130.44015140002,None,,,,,,,,,,,,,,,,,,,,,,,,,,,,,,,,,,,sing36,001,2019_Nov_14_1532,ProdFawcett_Revision2019,3.2.3,59.628265465584136,
42,0,42,0,,,,,,,,,,,,,,,,,2137.19415570001,None,materials/singPic.jpg,region,C_sing,42,256,2133.5264162000094,None,2133.5264162000094,None,2134.4434406000073,None,2134.7127001000044,None,2134.7127001000044,None,,,,,,,,,,,,,,,,,,,,,,,,,,,,,,,,,,,sing36,001,2019_Nov_14_1532,ProdFawcett_Revision2019,3.2.3,59.628265465584136,
43,0,43,0,,,,,,,,,,,,,,,,,2141.4601958999992,None,materials/readPic.jpg,state,A_silent,43,303,2137.7849560000177,None,2137.7849560000177,None,2138.7107122000016,None,2138.9681057000125,None,2138.9681057000125,None,,,,,,,,,,,,,,,,,,,,,,,,,,,,,,,,,,,sing36,001,2019_Nov_14_1532,ProdFawcett_Revision2019,3.2.3,59.628265465584136,
44,0,44,0,,,,,,,,,,,,,,,,,2145.7272043000266,None,materials/singPic.jpg,waste,C_sing,44,350,2142.0741782000114,None,2142.0741782000114,None,2142.977837800019,None,2143.244890800008,None,2143.244890800008,None,,,,,,,,,,,,,,,,,,,,,,,,,,,,,,,,,,,sing36,001,2019_Nov_14_1532,ProdFawcett_Revision2019,3.2.3,59.628265465584136,
45,0,45,0,,,,,,,,,,,,,,,,,2149.994647000014,None,materials/speakPic.jpg,institute,B_aloud,45,162,2146.2968130000227,None,2146.2968130000227,None,2147.245096800005,None,2147.5043142000213,None,2147.5043142000213,None,,,,,,,,,,,,,,,,,,,,,,,,,,,,,,,,,,,sing36,001,2019_Nov_14_1532,ProdFawcett_Revision2019,3.2.3,59.628265465584136,
46,0,46,0,,,,,,,,,,,,,,,,,2154.261464500014,None,materials/readPic.jpg,finance,A_silent,46,129,2150.612023100024,None,2150.612023100024,None,2151.5115450000158,None,2151.7683019000106,None,2151.7683019000106,None,,,,,,,,,,,,,,,,,,,,,,,,,,,,,,,,,,,sing36,001,2019_Nov_14_1532,ProdFawcett_Revision2019,3.2.3,59.628265465584136,
47,0,47,0,,,,,,,,,,,,,,,,,2158.528104200028,None,materials/speakPic.jpg,marriage,B_aloud,47,179,2154.850307900022,None,2154.850307900022,None,2155.778792200028,None,2156.042663900007,None,2156.042663900007,None,,,,,,,,,,,,,,,,,,,,,,,,,,,,,,,,,,,sing36,001,2019_Nov_14_1532,ProdFawcett_Revision2019,3.2.3,59.628265465584136,
48,0,48,0,,,,,,,,,,,,,,,,,2162.795220800006,None,materials/singPic.jpg,trail,C_sing,48,336,2159.101749100024,None,2159.101749100024,None,2160.04549400002,None,2160.3012409000075,None,2160.3012409000075,None,,,,,,,,,,,,,,,,,,,,,,,,,,,,,,,,,,,sing36,001,2019_Nov_14_1532,ProdFawcett_Revision2019,3.2.3,59.628265465584136,
49,0,49,0,,,,,,,,,,,,,,,,,2167.0621546000184,None,materials/singPic.jpg,captain,C_sing,49,41,2163.3850952000066,None,2163.3850952000066,None,2164.3122305000143,None,2164.5693740000133,None,2164.5693740000133,None,,,,,,,,,,,,,,,,,,,,,,,,,,,,,,,,,,,sing36,001,2019_Nov_14_1532,ProdFawcett_Revision2019,3.2.3,59.628265465584136,
50,0,50,0,,,,,,,,,,,,,,,,,2171.3289385000244,None,materials/speakPic.jpg,debate,B_aloud,50,87,2167.634711600025,None,2167.634711600025,None,2168.5796244000085,None,2168.8331612000184,None,2168.8331612000184,None,,,,,,,,,,,,,,,,,,,,,,,,,,,,,,,,,,,sing36,001,2019_Nov_14_1532,ProdFawcett_Revision2019,3.2.3,59.628265465584136,
51,0,51,0,,,,,,,,,,,,,,,,,2175.5959624000243,None,materials/readPic.jpg,nation,A_silent,51,198,2171.9247662000125,None,2171.9247662000125,None,2172.8466902000073,None,2173.1063169000263,None,2173.1063169000263,None,,,,,,,,,,,,,,,,,,,,,,,,,,,,,,,,,,,sing36,001,2019_Nov_14_1532,ProdFawcett_Revision2019,3.2.3,59.628265465584136,
52,0,52,0,,,,,,,,,,,,,,,,,2179.8630666000245,None,materials/speakPic.jpg,cover,B_aloud,52,77,2176.1598811000003,None,2176.1598811000003,None,2177.1137823000026,None,2177.382165600022,None,2177.382165600022,None,,,,,,,,,,,,,,,,,,,,,,,,,,,,,,,,,,,sing36,001,2019_Nov_14_1532,ProdFawcett_Revision2019,3.2.3,59.628265465584136,
53,0,53,0,,,,,,,,,,,,,,,,,2184.130093900021,None,materials/speakPic.jpg,profession,B_aloud,53,241,2180.4626971000107,None,2180.4626971000107,None,2181.380679300026,None,2181.6401576000208,None,2181.6401576000208,None,,,,,,,,,,,,,,,,,,,,,,,,,,,,,,,,,,,sing36,001,2019_Nov_14_1532,ProdFawcett_Revision2019,3.2.3,59.628265465584136,
54,0,54,0,,,,,,,,,,,,,,,,,2188.396902200009,None,materials/readPic.jpg,appearance,A_silent,54,10,2184.7154107000097,None,2184.7154107000097,None,2185.6486703000264,None,2185.9071591000247,None,2185.9071591000247,None,,,,,,,,,,,,,,,,,,,,,,,,,,,,,,,,,,,sing36,001,2019_Nov_14_1532,ProdFawcett_Revision2019,3.2.3,59.628265465584136,
55,0,55,0,,,,,,,,,,,,,,,,,2192.6637793000264,None,materials/singPic.jpg,death,C_sing,55,86,2189.020690000005,None,2189.020690000005,None,2189.9143905000237,None,2190.1700150000106,None,2190.1700150000106,None,,,,,,,,,,,,,,,,,,,,,,,,,,,,,,,,,,,sing36,001,2019_Nov_14_1532,ProdFawcett_Revision2019,3.2.3,59.628265465584136,
56,0,56,0,,,,,,,,,,,,,,,,,2196.930623500026,None,materials/speakPic.jpg,drama,B_aloud,56,103,2193.246585900022,None,2193.246585900022,None,2194.18249560002,None,2194.4395137000247,None,2194.4395137000247,None,,,,,,,,,,,,,,,,,,,,,,,,,,,,,,,,,,,sing36,001,2019_Nov_14_1532,ProdFawcett_Revision2019,3.2.3,59.628265465584136,
57,0,57,0,,,,,,,,,,,,,,,,,2201.1979186000244,None,materials/speakPic.jpg,stand,B_aloud,57,302,2197.530382900004,None,2197.530382900004,None,2198.446852000023,None,2198.704744900024,None,2198.704744900024,None,,,,,,,,,,,,,,,,,,,,,,,,,,,,,,,,,,,sing36,001,2019_Nov_14_1532,ProdFawcett_Revision2019,3.2.3,59.628265465584136,
58,0,58,0,,,,,,,,,,,,,,,,,2205.4646209000202,None,materials/singPic.jpg,attack,C_sing,58,13,2201.787019100011,None,2201.787019100011,None,2202.7144276000035,None,2202.974101400003,None,2202.974101400003,None,,,,,,,,,,,,,,,,,,,,,,,,,,,,,,,,,,,sing36,001,2019_Nov_14_1532,ProdFawcett_Revision2019,3.2.3,59.628265465584136,
59,0,59,0,,,,,,,,,,,,,,,,,2209.7314945000107,None,materials/speakPic.jpg,author,B_aloud,59,15,2206.050610300008,None,2206.050610300008,None,2206.9822047000052,None,2207.2388043000246,None,2207.2388043000246,None,,,,,,,,,,,,,,,,,,,,,,,,,,,,,,,,,,,sing36,001,2019_Nov_14_1532,ProdFawcett_Revision2019,3.2.3,59.628265465584136,
60,0,60,0,,,,,,,,,,,,,,,,,2213.9986893000023,None,materials/readPic.jpg,payment,A_silent,60,215,2210.324232300016,None,2210.324232300016,None,2211.2491866000055,None,2211.505419400026,None,2211.505419400026,None,,,,,,,,,,,,,,,,,,,,,,,,,,,,,,,,,,,sing36,001,2019_Nov_14_1532,ProdFawcett_Revision2019,3.2.3,59.628265465584136,
61,0,61,0,,,,,,,,,,,,,,,,,2218.2654392000113,None,materials/readPic.jpg,ground,A_silent,61,142,2214.577941100026,None,2214.577941100026,None,2215.5161814000166,None,2215.776031300018,None,2215.776031300018,None,,,,,,,,,,,,,,,,,,,,,,,,,,,,,,,,,,,sing36,001,2019_Nov_14_1532,ProdFawcett_Revision2019,3.2.3,59.628265465584136,
62,0,62,0,,,,,,,,,,,,,,,,,2222.532415600028,None,materials/readPic.jpg,sweet,A_silent,62,319,2218.842336200003,None,2218.842336200003,None,2219.7824745000107,None,2220.0469159000204,None,2220.0469159000204,None,,,,,,,,,,,,,,,,,,,,,,,,,,,,,,,,,,,sing36,001,2019_Nov_14_1532,ProdFawcett_Revision2019,3.2.3,59.628265465584136,
63,0,63,0,,,,,,,,,,,,,,,,,2226.8000559000066,None,materials/singPic.jpg,command,C_sing,63,60,2223.1197201000177,None,2223.1197201000177,None,2224.050923300005,None,2224.3058640000236,None,2224.3058640000236,None,,,,,,,,,,,,,,,,,,,,,,,,,,,,,,,,,,,sing36,001,2019_Nov_14_1532,ProdFawcett_Revision2019,3.2.3,59.628265465584136,
64,0,64,0,,,,,,,,,,,,,,,,,2231.066388700012,None,materials/readPic.jpg,court,A_silent,64,75,2227.3928602000233,None,2227.3928602000233,None,2228.3167216000147,None,2228.575183400011,None,2228.575183400011,None,,,,,,,,,,,,,,,,,,,,,,,,,,,,,,,,,,,sing36,001,2019_Nov_14_1532,ProdFawcett_Revision2019,3.2.3,59.628265465584136,
65,0,65,0,,,,,,,,,,,,,,,,,2235.3332547000027,None,materials/singPic.jpg,population,C_sing,65,227,2231.6594161000103,None,2231.6594161000103,None,2232.5835736000154,None,2232.8418134000094,None,2232.8418134000094,None,,,,,,,,,,,,,,,,,,,,,,,,,,,,,,,,,,,sing36,001,2019_Nov_14_1532,ProdFawcett_Revision2019,3.2.3,59.628265465584136,
66,0,66,0,,,,,,,,,,,,,,,,,2239.6001468000177,None,materials/readPic.jpg,foundation,A_silent,66,132,2235.9118764000013,None,2235.9118764000013,None,2236.8494714000262,None,2237.109570300003,None,2237.109570300003,None,,,,,,,,,,,,,,,,,,,,,,,,,,,,,,,,,,,sing36,001,2019_Nov_14_1532,ProdFawcett_Revision2019,3.2.3,59.628265465584136,
67,0,67,0,,,,,,,,,,,,,,,,,2243.8673352000187,None,materials/speakPic.jpg,tennis,B_aloud,67,323,2240.1807460000273,None,2240.1807460000273,None,2241.1165311000077,None,2241.3754188000166,None,2241.3754188000166,None,,,,,,,,,,,,,,,,,,,,,,,,,,,,,,,,,,,sing36,001,2019_Nov_14_1532,ProdFawcett_Revision2019,3.2.3,59.628265465584136,
68,0,68,0,,,,,,,,,,,,,,,,,2248.1341640000173,None,materials/singPic.jpg,rough,C_sing,68,266,2244.4712898000143,None,2244.4712898000143,None,2245.384761500027,None,2245.6445432000037,None,2245.6445432000037,None,,,,,,,,,,,,,,,,,,,,,,,,,,,,,,,,,,,sing36,001,2019_Nov_14_1532,ProdFawcett_Revision2019,3.2.3,59.628265465584136,
69,0,69,0,,,,,,,,,,,,,,,,,2252.4010755000054,None,materials/singPic.jpg,silence,C_sing,69,288,2248.725515900005,None,2248.725515900005,None,2249.6520701000118,None,2249.9093133000133,None,2249.9093133000133,None,,,,,,,,,,,,,,,,,,,,,,,,,,,,,,,,,,,sing36,001,2019_Nov_14_1532,ProdFawcett_Revision2019,3.2.3,59.628265465584136,
70,0,70,0,,,,,,,,,,,,,,,,,2256.6683439000044,None,materials/readPic.jpg,junior,A_silent,70,167,2253.0128133000107,None,2253.0128133000107,None,2253.918472500023,None,2254.17237700001,None,2254.17237700001,None,,,,,,,,,,,,,,,,,,,,,,,,,,,,,,,,,,,sing36,001,2019_Nov_14_1532,ProdFawcett_Revision2019,3.2.3,59.628265465584136,
71,0,71,0,,,,,,,,,,,,,,,,,2260.9341673000017,None,materials/speakPic.jpg,education,B_aloud,71,108,2257.222795000009,None,2257.222795000009,None,2258.1851186999993,None,2258.4421126000234,None,2258.4421126000234,None,,,,,,,,,,,,,,,,,,,,,,,,,,,,,,,,,,,sing36,001,2019_Nov_14_1532,ProdFawcett_Revision2019,3.2.3,59.628265465584136,
72,0,72,0,,,,,,,,,,,,,,,,,2265.201233700005,None,materials/singPic.jpg,material,C_sing,72,182,2261.5219808000256,None,2261.5219808000256,None,2262.450494000019,None,2262.7112469000276,None,2262.7112469000276,None,,,,,,,,,,,,,,,,,,,,,,,,,,,,,,,,,,,sing36,001,2019_Nov_14_1532,ProdFawcett_Revision2019,3.2.3,59.628265465584136,
73,0,73,0,,,,,,,,,,,,,,,,,2269.47005980002,None,materials/singPic.jpg,empty,C_sing,73,112,2265.7982877000177,None,2265.7982877000177,None,2266.720566300006,None,2266.977261700027,None,2266.977261700027,None,,,,,,,,,,,,,,,,,,,,,,,,,,,,,,,,,,,sing36,001,2019_Nov_14_1532,ProdFawcett_Revision2019,3.2.3,59.628265465584136,
74,0,74,0,,,,,,,,,,,,,,,,,2273.736173100013,None,materials/speakPic.jpg,match,B_aloud,74,181,2270.0676070000045,None,2270.0676070000045,None,2270.9858666000073,None,2271.2403152000043,None,2271.2403152000043,None,,,,,,,,,,,,,,,,,,,,,,,,,,,,,,,,,,,sing36,001,2019_Nov_14_1532,ProdFawcett_Revision2019,3.2.3,59.628265465584136,
75,0,75,0,,,,,,,,,,,,,,,,,2278.00295200001,None,materials/readPic.jpg,finish,A_silent,75,130,2274.320070100017,None,2274.320070100017,None,2275.2536360000086,None,2275.509208100004,None,2275.509208100004,None,,,,,,,,,,,,,,,,,,,,,,,,,,,,,,,,,,,sing36,001,2019_Nov_14_1532,ProdFawcett_Revision2019,3.2.3,59.628265465584136,
76,0,76,0,,,,,,,,,,,,,,,,,2282.2705050000222,None,materials/speakPic.jpg,travel,B_aloud,76,338,2278.5700030000007,None,2278.5700030000007,None,2279.520473100012,None,2279.7831924000056,None,2279.7831924000056,None,,,,,,,,,,,,,,,,,,,,,,,,,,,,,,,,,,,sing36,001,2019_Nov_14_1532,ProdFawcett_Revision2019,3.2.3,59.628265465584136,
77,0,77,0,,,,,,,,,,,,,,,,,2286.536939900019,None,materials/speakPic.jpg,column,B_aloud,77,57,2282.854574600002,None,2282.854574600002,None,2283.7868672000186,None,2284.0435358000104,None,2284.0435358000104,None,,,,,,,,,,,,,,,,,,,,,,,,,,,,,,,,,,,sing36,001,2019_Nov_14_1532,ProdFawcett_Revision2019,3.2.3,59.628265465584136,
78,0,78,0,,,,,,,,,,,,,,,,,2290.80373710001,None,materials/readPic.jpg,distance,A_silent,78,100,2287.1495381999994,None,2287.1495381999994,None,2288.0549995000183,None,2288.3115108000056,None,2288.3115108000056,None,,,,,,,,,,,,,,,,,,,,,,,,,,,,,,,,,,,sing36,001,2019_Nov_14_1532,ProdFawcett_Revision2019,3.2.3,59.628265465584136,
79,0,79,0,,,,,,,,,,,,,,,,,2295.070741400006,None,materials/speakPic.jpg,reach,B_aloud,79,253,2291.378296400013,None,2291.378296400013,None,2292.3215454000165,None,2292.580761600024,None,2292.580761600024,None,,,,,,,,,,,,,,,,,,,,,,,,,,,,,,,,,,,sing36,001,2019_Nov_14_1532,ProdFawcett_Revision2019,3.2.3,59.628265465584136,
80,0,80,0,,,,,,,,,,,,,,,,,2299.337671800022,None,materials/speakPic.jpg,pretty,B_aloud,80,233,2295.643739900028,None,2295.643739900028,None,2296.5878353000153,None,2296.844096200017,None,2296.844096200017,None,,,,,,,,,,,,,,,,,,,,,,,,,,,,,,,,,,,sing36,001,2019_Nov_14_1532,ProdFawcett_Revision2019,3.2.3,59.628265465584136,
81,0,81,0,,,,,,,,,,,,,,,,,2303.6046965999994,None,materials/readPic.jpg,display,A_silent,81,98,2299.938195200026,None,2299.938195200026,None,2300.856027200003,None,2301.1142805000127,None,2301.1142805000127,None,,,,,,,,,,,,,,,,,,,,,,,,,,,,,,,,,,,sing36,001,2019_Nov_14_1532,ProdFawcett_Revision2019,3.2.3,59.628265465584136,
82,0,82,0,,,,,,,,,,,,,,,,,2307.8716188000108,None,materials/readPic.jpg,harmony,A_silent,82,148,2304.1736939000257,None,2304.1736939000257,None,2305.12159960001,None,2305.3784434000263,None,2305.3784434000263,None,,,,,,,,,,,,,,,,,,,,,,,,,,,,,,,,,,,sing36,001,2019_Nov_14_1532,ProdFawcett_Revision2019,3.2.3,59.628265465584136,
83,0,83,0,,,,,,,,,,,,,,,,,2312.138507000025,None,materials/singPic.jpg,second,C_sing,83,278,2308.489393200027,None,2308.489393200027,None,2309.390055200027,None,2309.648327600007,None,2309.648327600007,None,,,,,,,,,,,,,,,,,,,,,,,,,,,,,,,,,,,sing36,001,2019_Nov_14_1532,ProdFawcett_Revision2019,3.2.3,59.628265465584136,
84,0,84,0,,,,,,,,,,,,,,,,,2316.405483600014,None,materials/speakPic.jpg,theme,B_aloud,84,326,2312.7112895000027,None,2312.7112895000027,None,2313.660153600009,None,2313.9118518000178,None,2313.9118518000178,None,,,,,,,,,,,,,,,,,,,,,,,,,,,,,,,,,,,sing36,001,2019_Nov_14_1532,ProdFawcett_Revision2019,3.2.3,59.628265465584136,
85,0,85,0,,,,,,,,,,,,,,,,,2320.672468900011,None,materials/singPic.jpg,pancakes,C_sing,85,210,2317.0028688000166,None,2317.0028688000166,None,2317.922779000015,None,2318.1806289000087,None,2318.1806289000087,None,,,,,,,,,,,,,,,,,,,,,,,,,,,,,,,,,,,sing36,001,2019_Nov_14_1532,ProdFawcett_Revision2019,3.2.3,59.628265465584136,
86,0,86,0,,,,,,,,,,,,,,,,,2324.9394789000216,None,materials/readPic.jpg,discussion,A_silent,86,96,2321.226029900019,None,2321.226029900019,None,2322.189499,None,2322.4617056999996,None,2322.4617056999996,None,,,,,,,,,,,,,,,,,,,,,,,,,,,,,,,,,,,sing36,001,2019_Nov_14_1532,ProdFawcett_Revision2019,3.2.3,59.628265465584136,
87,0,87,0,,,,,,,,,,,,,,,,,2329.206355100003,None,materials/readPic.jpg,voice,A_silent,87,348,2325.5180901000276,None,2325.5180901000276,None,2326.45640570001,None,2326.7172006000183,None,2326.7172006000183,None,,,,,,,,,,,,,,,,,,,,,,,,,,,,,,,,,,,sing36,001,2019_Nov_14_1532,ProdFawcett_Revision2019,3.2.3,59.628265465584136,
88,0,88,0,,,,,,,,,,,,,,,,,2333.47344490001,None,materials/readPic.jpg,split,A_silent,88,299,2329.7815220000048,None,2329.7815220000048,None,2330.723513200006,None,2330.9792217000213,None,2330.9792217000213,None,,,,,,,,,,,,,,,,,,,,,,,,,,,,,,,,,,,sing36,001,2019_Nov_14_1532,ProdFawcett_Revision2019,3.2.3,59.628265465584136,
89,0,89,0,,,,,,,,,,,,,,,,,2337.7402181000216,None,materials/singPic.jpg,minor,C_sing,89,191,2334.056492600008,None,2334.056492600008,None,2334.990368000028,None,2335.2468722000194,None,2335.2468722000194,None,,,,,,,,,,,,,,,,,,,,,,,,,,,,,,,,,,,sing36,001,2019_Nov_14_1532,ProdFawcett_Revision2019,3.2.3,59.628265465584136,
,,,,,,,,,,,,,,,,,,,,,,,,,,,,,,,,,,,,,2338.2403781000176,None,k,39.727685899997596,2338.2403781000176,None,,,,,,,,,,,,,,,,,,,,,,,,,,,,,sing36,001,2019_Nov_14_1532,ProdFawcett_Revision2019,3.2.3,59.628265465584136,
,,,,,,,,,,,,,,2377.9929258000047,None,space,1.638878099998692,2377.9929258000047,None,,,,,,,,,,,,,,,,,,,,,,,,,,,,,,,,,,,,,,,,,,,,,,,,,,,,sing36,001,2019_Nov_14_1532,ProdFawcett_Revision2019,3.2.3,59.628265465584136,
,,,,0,0,0,0,,,,,,,,,,,,,2393.9574780000257,None,,,,,,,,,,,,,,,,,,,,,,salary,D_new,0,271,2380.1819421000255,None,2380.1819421000255,None,2380.1819421000255,None,6,9.681809999980032,2380.1819421000255,None,2389.9246431000065,None,2389.9246431000065,None,2390.4476049000223,None,2390.4476049000223,None,2390.4476049000223,None,f,3.480157499987399,2390.4476049000223,None,sing36,001,2019_Nov_14_1532,ProdFawcett_Revision2019,3.2.3,59.628265465584136,
,,,,1,0,1,0,,,,,,,,,,,,,2404.280488700024,None,,,,,,,,,,,,,,,,,,,,,,revolution,A_silent,1,264,2394.488598200027,None,2394.488598200027,None,2394.488598200027,None,4,4.919175099988934,2394.488598200027,None,2399.459956000006,None,2399.459956000006,None,2399.9836440000217,None,2399.9836440000217,None,2399.9836440000217,None,r,4.256516299996292,2399.9836440000217,None,sing36,001,2019_Nov_14_1532,ProdFawcett_Revision2019,3.2.3,59.628265465584136,
,,,,2,0,2,0,,,,,,,,,,,,,2410.7170977000205,None,,,,,,,,,,,,,,,,,,,,,,ground,A_silent,2,142,2404.8141644000134,None,2404.8141644000134,None,2404.8141644000134,None,2,4.546510799991665,2404.8141644000134,None,2409.415095000004,None,2409.415095000004,None,2409.9259666000144,None,2409.9259666000144,None,2409.9259666000144,None,r,0.7618709999951534,2409.9259666000144,None,sing36,001,2019_Nov_14_1532,ProdFawcett_Revision2019,3.2.3,59.628265465584136,
,,,,3,0,3,0,,,,,,,,,,,,,2415.2439057000156,None,,,,,,,,,,,,,,,,,,,,,,business,B_aloud,3,38,2411.24780870002,None,2411.24780870002,None,2411.24780870002,None,1,2.0398755999922287,2411.24780870002,None,2413.3253715000174,None,2413.3253715000174,None,2413.8430136000097,None,2413.8430136000097,None,2413.8430136000097,None,r,1.36487930000294,2413.8430136000097,None,sing36,001,2019_Nov_14_1532,ProdFawcett_Revision2019,3.2.3,59.628265465584136,
,,,,4,0,4,0,,,,,,,,,,,,,2422.9372055000276,None,,,,,,,,,,,,,,,,,,,,,,stand,B_aloud,4,302,2415.7615711000108,None,2415.7615711000108,None,2415.7615711000108,None,4,5.358446300000651,2415.7615711000108,None,2421.1718491000065,None,2421.1718491000065,None,2421.6931180000247,None,2421.6931180000247,None,2421.6931180000247,None,r,1.210608900000807,2421.6931180000247,None,sing36,001,2019_Nov_14_1532,ProdFawcett_Revision2019,3.2.3,59.628265465584136,
,,,,5,0,5,0,,,,,,,,,,,,,2429.229308400012,None,,,,,,,,,,,,,,,,,,,,,,south,D_new,5,296,2423.4604015000223,None,2423.4604015000223,None,2423.4604015000223,None,1,3.667842399998335,2423.4604015000223,None,2427.178256400017,None,2427.178256400017,None,2427.7018893000204,None,2427.7018893000204,None,2427.7018893000204,None,n,1.4899913000117522,2427.7018893000204,None,sing36,001,2019_Nov_14_1532,ProdFawcett_Revision2019,3.2.3,59.628265465584136,
,,,,6,0,6,0,,,,,,,,,,,,,2435.9455992000003,None,,,,,,,,,,,,,,,,,,,,,,session,D_new,6,281,2429.7481442000135,None,2429.7481442000135,None,2429.7481442000135,None,4,4.291709000011906,2429.7481442000135,None,2434.0901812000084,None,2434.0901812000084,None,2434.6094810000213,None,2434.6094810000213,None,2434.6094810000213,None,r,1.2944038999849,2434.6094810000213,None,sing36,001,2019_Nov_14_1532,ProdFawcett_Revision2019,3.2.3,59.628265465584136,
,,,,7,0,7,0,,,,,,,,,,,,,2443.6954487000185,None,,,,,,,,,,,,,,,,,,,,,,population,C_sing,7,227,2436.466582400026,None,2436.466582400026,None,2436.466582400026,None,5,5.15704530000221,2436.466582400026,None,2441.6692778000142,None,2441.6692778000142,None,2442.1925842000055,None,2442.1925842000055,None,2442.1925842000055,None,r,1.4633122000086587,2442.1925842000055,None,sing36,001,2019_Nov_14_1532,ProdFawcett_Revision2019,3.2.3,59.628265465584136,
,,,,8,0,8,0,,,,,,,,,,,,,2448.6644569000055,None,,,,,,,,,,,,,,,,,,,,,,mankind,D_new,8,178,2444.2148865000054,None,2444.2148865000054,None,2444.2148865000054,None,1,2.0409383999940474,2444.2148865000054,None,2446.308156700019,None,2446.308156700019,None,2446.8266870000225,None,2446.8266870000225,None,2446.8266870000225,None,n,1.805273899983149,2446.8266870000225,None,sing36,001,2019_Nov_14_1532,ProdFawcett_Revision2019,3.2.3,59.628265465584136,
,,,,9,0,9,0,,,,,,,,,,,,,2456.130145000003,None,,,,,,,,,,,,,,,,,,,,,,captain,C_sing,9,41,2449.181093900028,None,2449.181093900028,None,2449.181093900028,None,4,4.3227244000008795,2449.181093900028,None,2453.558598500007,None,2453.558598500007,None,2454.078203700017,None,2454.078203700017,None,2454.078203700017,None,r,2.0180473999935202,2454.078203700017,None,sing36,001,2019_Nov_14_1532,ProdFawcett_Revision2019,3.2.3,59.628265465584136,
,,,,10,0,10,0,,,,,,,,,,,,,2462.613702500006,None,,,,,,,,,,,,,,,,,,,,,,beauty,D_new,10,18,2456.651868200017,None,2456.651868200017,None,2456.651868200017,None,1,3.555977799987886,2456.651868200017,None,2460.2607078000146,None,2460.2607078000146,None,2460.771458700008,None,2460.771458700008,None,2460.771458700008,None,n,1.8044846999982838,2460.771458700008,None,sing36,001,2019_Nov_14_1532,ProdFawcett_Revision2019,3.2.3,59.628265465584136,
,,,,11,0,11,0,,,,,,,,,,,,,2475.6640764000185,None,,,,,,,,,,,,,,,,,,,,,,burden,D_new,11,36,2463.13626140001,None,2463.13626140001,None,2463.13626140001,None,1,11.551643999991938,2463.13626140001,None,2474.7510344000184,None,2474.7510344000184,None,2475.26736160001,None,2475.26736160001,None,2475.26736160001,None,n,0.3649287000007462,2475.26736160001,None,sing36,001,2019_Nov_14_1532,ProdFawcett_Revision2019,3.2.3,59.628265465584136,
,,,,12,0,12,0,,,,,,,,,,,,,2482.4968229000224,None,,,,,,,,,,,,,,,,,,,,,,foundation,A_silent,12,132,2476.184490500018,None,2476.184490500018,None,2476.184490500018,None,4,5.119402899988927,2476.184490500018,None,2481.3592970000172,None,2481.3592970000172,None,2481.885671600001,None,2481.885671600001,None,2481.885671600001,None,r,0.5702720999834128,2481.885671600001,None,sing36,001,2019_Nov_14_1532,ProdFawcett_Revision2019,3.2.3,59.628265465584136,
,,,,13,0,13,0,,,,,,,,,,,,,2494.3323263000057,None,,,,,,,,,,,,,,,,,,,,,,trail,C_sing,13,336,2483.015940500016,None,2483.015940500016,None,2483.015940500016,None,1,9.999993000004906,2483.015940500016,None,2493.0599687000213,None,2493.0599687000213,None,2493.582841800002,None,2493.582841800002,None,2493.582841800002,None,n,0.7050756000098772,2493.582841800002,None,sing36,001,2019_Nov_14_1532,ProdFawcett_Revision2019,3.2.3,59.628265465584136,
,,,,14,0,14,0,,,,,,,,,,,,,2497.8815241000266,None,,,,,,,,,,,,,,,,,,,,,,title,D_new,14,331,2494.850982700009,None,2494.850982700009,None,2494.850982700009,None,1,2.1490606000006665,2494.850982700009,None,2497.049014500022,None,2497.049014500022,None,2497.5682520000264,None,2497.5682520000264,None,2497.5682520000264,None,n,0.27161769999656826,2497.5682520000264,None,sing36,001,2019_Nov_14_1532,ProdFawcett_Revision2019,3.2.3,59.628265465584136,
,,,,15,0,15,0,,,,,,,,,,,,,2504.756169500004,None,,,,,,,,,,,,,,,,,,,,,,marriage,B_aloud,15,179,2498.403812400007,None,2498.403812400007,None,2498.403812400007,None,6,2.8439765000075568,2498.403812400007,None,2501.2989472000045,None,2501.2989472000045,None,2501.819617800007,None,2501.819617800007,None,2501.819617800007,None,r,2.908224299986614,2501.819617800007,None,sing36,001,2019_Nov_14_1532,ProdFawcett_Revision2019,3.2.3,59.628265465584136,
,,,,16,0,16,0,,,,,,,,,,,,,2509.004995700001,None,,,,,,,,,,,,,,,,,,,,,,debate,B_aloud,16,87,2505.279078899999,None,2505.279078899999,None,2505.279078899999,None,6,2.5527085999783594,2505.279078899999,None,2507.878465900023,None,2507.878465900023,None,2508.4058992000064,None,2508.4058992000064,None,2508.4058992000064,None,r,0.5539377999957651,2508.4058992000064,None,sing36,001,2019_Nov_14_1532,ProdFawcett_Revision2019,3.2.3,59.628265465584136,
,,,,17,0,17,0,,,,,,,,,,,,,2513.419967600028,None,,,,,,,,,,,,,,,,,,,,,,split,A_silent,17,299,2509.5355027000187,None,2509.5355027000187,None,2509.5355027000187,None,6,3.0242453000100795,2509.5355027000187,None,2512.6137471000256,None,2512.6137471000256,None,2513.131856300024,None,2513.131856300024,None,2513.131856300024,None,r,0.24405280000064522,2513.131856300024,None,sing36,001,2019_Nov_14_1532,ProdFawcett_Revision2019,3.2.3,59.628265465584136,
,,,,18,0,18,0,,,,,,,,,,,,,2519.8130825000117,None,,,,,,,,,,,,,,,,,,,,,,display,A_silent,18,98,2513.951533100015,None,2513.951533100015,None,2513.951533100015,None,3,4.248677299998235,2513.951533100015,None,2518.2439641000237,None,2518.2439641000237,None,2518.7672027000226,None,2518.7672027000226,None,2518.7672027000226,None,f,1.0166521999926772,2518.7672027000226,None,sing36,001,2019_Nov_14_1532,ProdFawcett_Revision2019,3.2.3,59.628265465584136,
,,,,19,0,19,0,,,,,,,,,,,,,2526.8333092000103,None,,,,,,,,,,,,,,,,,,,,,,court,A_silent,19,75,2520.3417308000207,None,2520.3417308000207,None,2520.3417308000207,None,6,2.4424120000039693,2520.3417308000207,None,2522.8308877000236,None,2522.8308877000236,None,2523.3488685000048,None,2523.3488685000048,None,2523.3488685000048,None,r,3.4514197999960743,2523.3488685000048,None,sing36,001,2019_Nov_14_1532,ProdFawcett_Revision2019,3.2.3,59.628265465584136,
,,,,20,0,20,0,,,,,,,,,,,,,2531.5908016000176,None,,,,,,,,,,,,,,,,,,,,,,company,C_sing,20,64,2527.3531423000095,None,2527.3531423000095,None,2527.3531423000095,None,6,2.062679599999683,2527.3531423000095,None,2529.4647094000247,None,2529.4647094000247,None,2529.9874638000038,None,2529.9874638000038,None,2529.9874638000038,None,r,1.5803275000071153,2529.9874638000038,None,sing36,001,2019_Nov_14_1532,ProdFawcett_Revision2019,3.2.3,59.628265465584136,
,,,,21,0,21,0,,,,,,,,,,,,,2536.202795900026,None,,,,,,,,,,,,,,,,,,,,,,bucket,D_new,21,33,2532.1122534000024,None,2532.1122534000024,None,2532.1122534000024,None,1,3.279596500011394,2532.1122534000024,None,2535.446403400012,None,2535.446403400012,None,2535.9688086000097,None,2535.9688086000097,None,2535.9688086000097,None,n,0.1911575999984052,2535.9688086000097,None,sing36,001,2019_Nov_14_1532,ProdFawcett_Revision2019,3.2.3,59.628265465584136,
,,,,22,0,22,0,,,,,,,,,,,,,2543.2758227000013,None,,,,,,,,,,,,,,,,,,,,,,match,B_aloud,22,181,2536.719466700015,None,2536.719466700015,None,2536.719466700015,None,3,5.288495099986903,2536.719466700015,None,2542.06333970002,None,2542.06333970002,None,2542.583195400017,None,2542.583195400017,None,2542.583195400017,None,f,0.6489690000016708,2542.583195400017,None,sing36,001,2019_Nov_14_1532,ProdFawcett_Revision2019,3.2.3,59.628265465584136,
,,,,23,0,23,0,,,,,,,,,,,,,2550.1788189000217,None,,,,,,,,,,,,,,,,,,,,,,sweet,A_silent,23,319,2543.8076182000223,None,2543.8076182000223,None,2543.8076182000223,None,6,1.9842359999893233,2543.8076182000223,None,2545.8562742000213,None,2545.8562742000213,None,2546.368195100018,None,2546.368195100018,None,2546.368195100018,None,r,3.783470299997134,2546.368195100018,None,sing36,001,2019_Nov_14_1532,ProdFawcett_Revision2019,3.2.3,59.628265465584136,
,,,,24,0,24,0,,,,,,,,,,,,,2559.890065400017,None,,,,,,,,,,,,,,,,,,,,,,discussion,A_silent,24,96,2550.7052651000267,None,2550.7052651000267,None,2550.7052651000267,None,3,8.046633400022984,2550.7052651000267,None,2558.799313400028,None,2558.799313400028,None,2559.3223423000018,None,2559.3223423000018,None,2559.3223423000018,None,f,0.5336661000037566,2559.3223423000018,None,sing36,001,2019_Nov_14_1532,ProdFawcett_Revision2019,3.2.3,59.628265465584136,
,,,,25,0,25,0,,,,,,,,,,,,,2564.2239151000103,None,,,,,,,,,,,,,,,,,,,,,,novel,D_new,25,202,2560.426088200009,None,2560.426088200009,None,2560.426088200009,None,1,1.957922800007509,2560.426088200009,None,2562.4449848000077,None,2562.4449848000077,None,2562.9545356000017,None,2562.9545356000017,None,2562.9545356000017,None,n,1.2214843000110704,2562.9545356000017,None,sing36,001,2019_Nov_14_1532,ProdFawcett_Revision2019,3.2.3,59.628265465584136,
,,,,26,0,26,0,,,,,,,,,,,,,2568.0967999999993,None,,,,,,,,,,,,,,,,,,,,,,tennis,B_aloud,26,323,2564.7536849000026,None,2564.7536849000026,None,2564.7536849000026,None,6,1.7262363999907393,2564.7536849000026,None,2566.530518500018,None,2566.530518500018,None,2567.046419500024,None,2567.046419500024,None,2567.046419500024,None,r,1.017451899999287,2567.046419500024,None,sing36,001,2019_Nov_14_1532,ProdFawcett_Revision2019,3.2.3,59.628265465584136,
,,,,27,0,27,0,,,,,,,,,,,,,2573.1385615000036,None,,,,,,,,,,,,,,,,,,,,,,present,D_new,27,231,2568.6258015000203,None,2568.6258015000203,None,2568.6258015000203,None,3,3.8541750000149477,2568.6258015000203,None,2572.527723600011,None,2572.527723600011,None,2573.053348800022,None,2573.053348800022,None,2573.053348800022,None,f,0.04249250001157634,2573.053348800022,None,sing36,001,2019_Nov_14_1532,ProdFawcett_Revision2019,3.2.3,59.628265465584136,
,,,,28,0,28,0,,,,,,,,,,,,,2579.6379407000204,None,,,,,,,,,,,,,,,,,,,,,,death,C_sing,28,86,2573.656825400016,None,2573.656825400016,None,2573.656825400016,None,6,2.3275016999978106,2573.656825400016,None,2576.032699100004,None,2576.032699100004,None,2576.5534119000076,None,2576.5534119000076,None,2576.5534119000076,None,r,3.046478800009936,2576.5534119000076,None,sing36,001,2019_Nov_14_1532,ProdFawcett_Revision2019,3.2.3,59.628265465584136,
,,,,29,0,29,0,,,,,,,,,,,,,2589.221307700005,None,,,,,,,,,,,,,,,,,,,,,,strength,D_new,29,310,2580.161103100021,None,2580.161103100021,None,2580.161103100021,None,2,6.3029496999806724,2580.161103100021,None,2586.5222909000004,None,2586.5222909000004,None,2587.0450730000157,None,2587.0450730000157,None,2587.0450730000157,None,f,2.1309966999979224,2587.0450730000157,None,sing36,001,2019_Nov_14_1532,ProdFawcett_Revision2019,3.2.3,59.628265465584136,
,,,,30,0,30,0,,,,,,,,,,,,,2592.739215300011,None,,,,,,,,,,,,,,,,,,,,,,contract,D_new,30,68,2589.741939200001,None,2589.741939200001,None,2589.741939200001,None,1,1.9058980999980122,2589.741939200001,None,2591.6983741000004,None,2591.6983741000004,None,2592.225380000018,None,2592.225380000018,None,2592.225380000018,None,n,0.4705185999919195,2592.225380000018,None,sing36,001,2019_Nov_14_1532,ProdFawcett_Revision2019,3.2.3,59.628265465584136,
,,,,31,0,31,0,,,,,,,,,,,,,2596.4726019000227,None,,,,,,,,,,,,,,,,,,,,,,congress,D_new,31,67,2593.259249100025,None,2593.259249100025,None,2593.259249100025,None,1,2.236747499991907,2593.259249100025,None,2595.560163600021,None,2595.560163600021,None,2596.077660800016,None,2596.077660800016,None,2596.077660800016,None,n,0.36266990000149235,2596.077660800016,None,sing36,001,2019_Nov_14_1532,ProdFawcett_Revision2019,3.2.3,59.628265465584136,
,,,,32,0,32,0,,,,,,,,,,,,,2603.2403391000116,None,,,,,,,,,,,,,,,,,,,,,,patient,D_new,32,213,2596.990414400003,None,2596.990414400003,None,2596.990414400003,None,1,4.897717499989085,2596.990414400003,None,2601.922064500017,None,2601.922064500017,None,2602.438956900005,None,2602.438956900005,None,2602.438956900005,None,n,0.769052699994063,2602.438956900005,None,sing36,001,2019_Nov_14_1532,ProdFawcett_Revision2019,3.2.3,59.628265465584136,
,,,,33,0,33,0,,,,,,,,,,,,,2611.090572700021,None,,,,,,,,,,,,,,,,,,,,,,smell,D_new,33,291,2603.7597911000194,None,2603.7597911000194,None,2603.7597911000194,None,1,3.6000157999806106,2603.7597911000194,None,2607.400396800018,None,2607.400396800018,None,2607.9214612000214,None,2607.9214612000214,None,2607.9214612000214,None,n,3.1349014999868814,2607.9214612000214,None,sing36,001,2019_Nov_14_1532,ProdFawcett_Revision2019,3.2.3,59.628265465584136,
,,,,34,0,34,0,,,,,,,,,,,,,2614.590794000018,None,,,,,,,,,,,,,,,,,,,,,,quick,D_new,34,248,2611.615912100009,None,2611.615912100009,None,2611.615912100009,None,1,1.8640621999802534,2611.615912100009,None,2613.534821600013,None,2613.534821600013,None,2614.0581967000035,None,2614.0581967000035,None,2614.0581967000035,None,n,0.5018870999920182,2614.0581967000035,None,sing36,001,2019_Nov_14_1532,ProdFawcett_Revision2019,3.2.3,59.628265465584136,
,,,,35,0,35,0,,,,,,,,,,,,,2618.25799860002,None,,,,,,,,,,,,,,,,,,,,,,master,A_silent,35,180,2615.117139400012,None,2615.117139400012,None,2615.117139400012,None,1,2.050746799999615,2615.117139400012,None,2617.2187636000162,None,2617.2187636000162,None,2617.739907500014,None,2617.739907500014,None,2617.739907500014,None,n,0.4841502000053879,2617.739907500014,None,sing36,001,2019_Nov_14_1532,ProdFawcett_Revision2019,3.2.3,59.628265465584136,
,,,,36,0,36,0,,,,,,,,,,,,,2621.3572684000246,None,,,,,,,,,,,,,,,,,,,,,,private,D_new,36,237,2618.7807180000236,None,2618.7807180000236,None,2618.7807180000236,None,1,1.6191163999901619,2618.7807180000236,None,2620.4561489000043,None,2620.4561489000043,None,2620.9784192000225,None,2620.9784192000225,None,2620.9784192000225,None,n,0.3336917000124231,2620.9784192000225,None,sing36,001,2019_Nov_14_1532,ProdFawcett_Revision2019,3.2.3,59.628265465584136,
,,,,37,0,37,0,,,,,,,,,,,,,2624.7747397000203,None,,,,,,,,,,,,,,,,,,,,,,bright,D_new,37,29,2621.8779529000167,None,2621.8779529000167,None,2621.8779529000167,None,1,1.3778735999949276,2621.8779529000167,None,2623.3099918000225,None,2623.3099918000225,None,2623.8278695000045,None,2623.8278695000045,None,2623.8278695000045,None,n,0.9161885000066832,2623.8278695000045,None,sing36,001,2019_Nov_14_1532,ProdFawcett_Revision2019,3.2.3,59.628265465584136,
,,,,38,0,38,0,,,,,,,,,,,,,2628.0251548000087,None,,,,,,,,,,,,,,,,,,,,,,drama,B_aloud,38,103,2625.2930434000154,None,2625.2930434000154,None,2625.2930434000154,None,6,1.658822900004452,2625.2930434000154,None,2627.0030877000245,None,2627.0030877000245,None,2627.521625000023,None,2627.521625000023,None,2627.521625000023,None,r,0.462584799999604,2627.521625000023,None,sing36,001,2019_Nov_14_1532,ProdFawcett_Revision2019,3.2.3,59.628265465584136,
,,,,39,0,39,0,,,,,,,,,,,,,2630.941671400011,None,,,,,,,,,,,,,,,,,,,,,,colonel,D_new,39,55,2628.5431975000247,None,2628.5431975000247,None,2628.5431975000247,None,1,1.5846652999753132,2628.5431975000247,None,2630.1637062000227,None,2630.1637062000227,None,2630.693219400011,None,2630.693219400011,None,2630.693219400011,None,n,0.20270860000164248,2630.693219400011,None,sing36,001,2019_Nov_14_1532,ProdFawcett_Revision2019,3.2.3,59.628265465584136,
,,,,40,0,40,0,,,,,,,,,,,,,2636.474956800026,None,,,,,,,,,,,,,,,,,,,,,,taste,D_new,40,322,2631.4595339000225,None,2631.4595339000225,None,2631.4595339000225,None,1,2.7802782999933697,2631.4595339000225,None,2634.285795600008,None,2634.285795600008,None,2634.8069052000064,None,2634.8069052000064,None,2634.8069052000064,None,n,1.6330889999808278,2634.8069052000064,None,sing36,001,2019_Nov_14_1532,ProdFawcett_Revision2019,3.2.3,59.628265465584136,
,,,,41,0,41,0,,,,,,,,,,,,,2642.330431200011,None,,,,,,,,,,,,,,,,,,,,,,profession,B_aloud,41,241,2636.9941143000033,None,2636.9941143000033,None,2636.9941143000033,None,6,1.9498428000079002,2636.9941143000033,None,2638.9820292000077,None,2638.9820292000077,None,2639.5134172000107,None,2639.5134172000107,None,2639.5134172000107,None,f,2.782489799981704,2639.5134172000107,None,sing36,001,2019_Nov_14_1532,ProdFawcett_Revision2019,3.2.3,59.628265465584136,
,,,,42,0,42,0,,,,,,,,,,,,,2650.2737358000013,None,,,,,,,,,,,,,,,,,,,,,,suggestion,D_new,42,314,2642.8736197000253,None,2642.8736197000253,None,2642.8736197000253,None,4,5.910408700001426,2642.8736197000253,None,2648.8433084000135,None,2648.8433084000135,None,2649.359828500019,None,2649.359828500019,None,2649.359828500019,None,f,0.8879816000116989,2649.359828500019,None,sing36,001,2019_Nov_14_1532,ProdFawcett_Revision2019,3.2.3,59.628265465584136,
,,,,43,0,43,0,,,,,,,,,,,,,2654.4638793000195,None,,,,,,,,,,,,,,,,,,,,,,sunset,D_new,43,315,2650.7943126000173,None,2650.7943126000173,None,2650.7943126000173,None,1,2.245365499984473,2650.7943126000173,None,2653.066319900012,None,2653.066319900012,None,2653.5884682000033,None,2653.5884682000033,None,2653.5884682000033,None,n,0.8273995000054128,2653.5884682000033,None,sing36,001,2019_Nov_14_1532,ProdFawcett_Revision2019,3.2.3,59.628265465584136,
,,,,44,0,44,0,,,,,,,,,,,,,2659.7116182000027,None,,,,,,,,,,,,,,,,,,,,,,course,D_new,44,74,2654.9942742000276,None,2654.9942742000276,None,2654.9942742000276,None,3,2.2535879999923054,2654.9942742000276,None,2657.287472100026,None,2657.287472100026,None,2657.807903400011,None,2657.807903400011,None,2657.807903400011,None,f,1.871996699977899,2657.807903400011,None,sing36,001,2019_Nov_14_1532,ProdFawcett_Revision2019,3.2.3,59.628265465584136,
,,,,45,0,45,0,,,,,,,,,,,,,2663.3282027000096,None,,,,,,,,,,,,,,,,,,,,,,evidence,D_new,45,120,2660.233927000023,None,2660.233927000023,None,2660.233927000023,None,3,2.158128899987787,2660.233927000023,None,2662.431493000011,None,2662.431493000011,None,2662.9647401000257,None,2662.9647401000257,None,2662.9647401000257,None,f,0.32328229999984615,2662.9647401000257,None,sing36,001,2019_Nov_14_1532,ProdFawcett_Revision2019,3.2.3,59.628265465584136,
,,,,46,0,46,0,,,,,,,,,,,,,2669.0111447000236,None,,,,,,,,,,,,,,,,,,,,,,attack,C_sing,46,13,2663.8451628000184,None,2663.8451628000184,None,2663.8451628000184,None,6,1.8906997000158299,2663.8451628000184,None,2665.7886852000083,None,2665.7886852000083,None,2666.3099554000073,None,2666.3099554000073,None,2666.3099554000073,None,r,2.6659804999944754,2666.3099554000073,None,sing36,001,2019_Nov_14_1532,ProdFawcett_Revision2019,3.2.3,59.628265465584136,
,,,,47,0,47,0,,,,,,,,,,,,,2674.661531700025,None,,,,,,,,,,,,,,,,,,,,,,nation,A_silent,47,198,2669.5292405000073,None,2669.5292405000073,None,2669.5292405000073,None,3,4.030670800013468,2669.5292405000073,None,2673.6067627000157,None,2673.6067627000157,None,2674.126046500023,None,2674.126046500023,None,2674.126046500023,None,f,0.4980699000007007,2674.126046500023,None,sing36,001,2019_Nov_14_1532,ProdFawcett_Revision2019,3.2.3,59.628265465584136,
,,,,48,0,48,0,,,,,,,,,,,,,2679.6780558000028,None,,,,,,,,,,,,,,,,,,,,,,minor,C_sing,48,191,2675.170384200028,None,2675.170384200028,None,2675.170384200028,None,6,1.8297944999940228,2675.170384200028,None,2677.052647400007,None,2677.052647400007,None,2677.572785700002,None,2677.572785700002,None,2677.572785700002,None,r,2.059229400008917,2677.572785700002,None,sing36,001,2019_Nov_14_1532,ProdFawcett_Revision2019,3.2.3,59.628265465584136,
,,,,49,0,49,0,,,,,,,,,,,,,2686.995317600027,None,,,,,,,,,,,,,,,,,,,,,,length,B_aloud,49,169,2680.203536100016,None,2680.203536100016,None,2680.203536100016,None,6,3.2523999999975786,2680.203536100016,None,2683.5041819000035,None,2683.5041819000035,None,2684.033947400021,None,2684.033947400021,None,2684.033947400021,None,r,2.918052199995145,2684.033947400021,None,sing36,001,2019_Nov_14_1532,ProdFawcett_Revision2019,3.2.3,59.628265465584136,
,,,,50,0,50,0,,,,,,,,,,,,,2690.1114920000255,None,,,,,,,,,,,,,,,,,,,,,,mayor,D_new,50,183,2687.517304900015,None,2687.517304900015,None,2687.517304900015,None,1,1.546652399993036,2687.517304900015,None,2689.1063305000134,None,2689.1063305000134,None,2689.6271432000212,None,2689.6271432000212,None,2689.6271432000212,None,n,0.4447290000098292,2689.6271432000212,None,sing36,001,2019_Nov_14_1532,ProdFawcett_Revision2019,3.2.3,59.628265465584136,
,,,,51,0,51,0,,,,,,,,,,,,,2694.445614300028,None,,,,,,,,,,,,,,,,,,,,,,committee,A_silent,51,62,2690.631546700024,None,2690.631546700024,None,2690.631546700024,None,1,2.144260100001702,2690.631546700024,None,2692.8118718000187,None,2692.8118718000187,None,2693.3271275000006,None,2693.3271275000006,None,2693.3271275000006,None,n,1.0808200000028592,2693.3271275000006,None,sing36,001,2019_Nov_14_1532,ProdFawcett_Revision2019,3.2.3,59.628265465584136,
,,,,52,0,52,0,,,,,,,,,,,,,2697.4303413000016,None,,,,,,,,,,,,,,,,,,,,,,testimony,D_new,52,325,2694.966549600009,None,2694.966549600009,None,2694.966549600009,None,1,1.5854555999976583,2694.966549600009,None,2696.606416500028,None,2696.606416500028,None,2697.1335895000084,None,2697.1335895000084,None,2697.1335895000084,None,n,0.250351499998942,2697.1335895000084,None,sing36,001,2019_Nov_14_1532,ProdFawcett_Revision2019,3.2.3,59.628265465584136,
,,,,53,0,53,0,,,,,,,,,,,,,2700.8459975000005,None,,,,,,,,,,,,,,,,,,,,,,author,B_aloud,53,15,2697.9486136000196,None,2697.9486136000196,None,2697.9486136000196,None,6,1.315429399983259,2697.9486136000196,None,2699.304659700021,None,2699.304659700021,None,2699.8301544999995,None,2699.8301544999995,None,2699.8301544999995,None,r,0.977759800007334,2699.8301544999995,None,sing36,001,2019_Nov_14_1532,ProdFawcett_Revision2019,3.2.3,59.628265465584136,
,,,,54,0,54,0,,,,,,,,,,,,,2704.4803752000153,None,,,,,,,,,,,,,,,,,,,,,,century,D_new,54,45,2701.365627400024,None,2701.365627400024,None,2701.365627400024,None,1,2.450415300001623,2701.365627400024,None,2703.8573123000097,None,2703.8573123000097,None,2704.3791803000204,None,2704.3791803000204,None,2704.3791803000204,None,n,0.06879280001157895,2704.3791803000204,None,sing36,001,2019_Nov_14_1532,ProdFawcett_Revision2019,3.2.3,59.628265465584136,
,,,,55,0,55,0,,,,,,,,,,,,,2707.9200047000195,None,,,,,,,,,,,,,,,,,,,,,,travel,B_aloud,55,338,2705.0031917000015,None,2705.0031917000015,None,2705.0031917000015,None,4,1.836703300010413,2705.0031917000015,None,2706.897082600015,None,2706.897082600015,None,2707.4183923000237,None,2707.4183923000237,None,2707.4183923000237,None,f,0.4535926999815274,2707.4183923000237,None,sing36,001,2019_Nov_14_1532,ProdFawcett_Revision2019,3.2.3,59.628265465584136,
,,,,56,0,56,0,,,,,,,,,,,,,2711.737355900026,None,,,,,,,,,,,,,,,,,,,,,,voice,A_silent,56,348,2708.4541756000253,None,2708.4541756000253,None,2708.4541756000253,None,6,2.2978128000104334,2708.4541756000253,None,2710.815862200019,None,2710.815862200019,None,2711.3345493000234,None,2711.3345493000234,None,2711.3345493000234,None,r,0.3774657999747433,2711.3345493000234,None,sing36,001,2019_Nov_14_1532,ProdFawcett_Revision2019,3.2.3,59.628265465584136,
,,,,57,0,57,0,,,,,,,,,,,,,2716.131246200006,None,,,,,,,,,,,,,,,,,,,,,,welcome,D_new,57,354,2712.256542100018,None,2712.256542100018,None,2712.256542100018,None,1,2.2634672000131104,2712.256542100018,None,2714.5771524000156,None,2714.5771524000156,None,2715.0979767000244,None,2715.0979767000244,None,2715.0979767000244,None,n,0.9899948999809567,2715.0979767000244,None,sing36,001,2019_Nov_14_1532,ProdFawcett_Revision2019,3.2.3,59.628265465584136,
,,,,58,0,58,0,,,,,,,,,,,,,2720.3660114000086,None,,,,,,,,,,,,,,,,,,,,,,symbol,D_new,58,321,2716.654083500005,None,2716.654083500005,None,2716.654083500005,None,1,2.1781629000033718,2716.654083500005,None,2718.873788900004,None,2718.873788900004,None,2719.401946500002,None,2719.401946500002,None,2719.401946500002,None,n,0.9180177000234835,2719.401946500002,None,sing36,001,2019_Nov_14_1532,ProdFawcett_Revision2019,3.2.3,59.628265465584136,
,,,,59,0,59,0,,,,,,,,,,,,,2723.1709008000034,None,,,,,,,,,,,,,,,,,,,,,,treatment,D_new,59,339,2720.8835293000157,None,2720.8835293000157,None,2720.8835293000157,None,1,1.4683358000183944,2720.8835293000157,None,2722.397054400004,None,2722.397054400004,None,2722.915225600009,None,2722.915225600009,None,2722.915225600009,None,n,0.22855339999659918,2722.915225600009,None,sing36,001,2019_Nov_14_1532,ProdFawcett_Revision2019,3.2.3,59.628265465584136,
,,,,60,0,60,0,,,,,,,,,,,,,2725.6877905,None,,,,,,,,,,,,,,,,,,,,,,height,D_new,60,152,2723.7049502000154,None,2723.7049502000154,None,2723.7049502000154,None,1,1.2390934999857564,2723.7049502000154,None,2725.001375700027,None,2725.001375700027,None,2725.5173846000107,None,2725.5173846000107,None,2725.5173846000107,None,n,0.146499299997231,2725.5173846000107,None,sing36,001,2019_Nov_14_1532,ProdFawcett_Revision2019,3.2.3,59.628265465584136,
,,,,61,0,61,0,,,,,,,,,,,,,2728.4318555000063,None,,,,,,,,,,,,,,,,,,,,,,harmony,A_silent,61,148,2726.216814900021,None,2726.216814900021,None,2726.216814900021,None,6,1.4074395000061486,2726.216814900021,None,2727.6787888000254,None,2727.6787888000254,None,2728.197883500019,None,2728.197883500019,None,2728.197883500019,None,r,0.20213790002162568,2728.197883500019,None,sing36,001,2019_Nov_14_1532,ProdFawcett_Revision2019,3.2.3,59.628265465584136,
,,,,62,0,62,0,,,,,,,,,,,,,2731.098014200019,None,,,,,,,,,,,,,,,,,,,,,,nature,D_new,62,200,2728.9493738000165,None,2728.9493738000165,None,2728.9493738000165,None,6,1.378943200019421,2728.9493738000165,None,2730.3779675000114,None,2730.3779675000114,None,2730.895870600012,None,2730.895870600012,None,2730.895870600012,None,r,0.1684397000062745,2730.895870600012,None,sing36,001,2019_Nov_14_1532,ProdFawcett_Revision2019,3.2.3,59.628265465584136,
,,,,63,0,63,0,,,,,,,,,,,,,2739.2982965000265,None,,,,,,,,,,,,,,,,,,,,,,safety,D_new,63,270,2731.6158109000244,None,2731.6158109000244,None,2731.6158109000244,None,2,3.848040900018532,2731.6158109000244,None,2735.487762900011,None,2735.487762900011,None,2736.013674000016,None,2736.013674000016,None,2736.013674000016,None,f,3.2502235999854747,2736.013674000016,None,sing36,001,2019_Nov_14_1532,ProdFawcett_Revision2019,3.2.3,59.628265465584136,
,,,,64,0,64,0,,,,,,,,,,,,,2743.9993222000194,None,,,,,,,,,,,,,,,,,,,,,,plane,D_new,64,223,2739.8191202000016,None,2739.8191202000016,None,2739.8191202000016,None,1,2.356857899983879,2739.8191202000016,None,2742.2283076000167,None,2742.2283076000167,None,2742.749510500027,None,2742.749510500027,None,2742.749510500027,None,n,1.2104453000065405,2742.749510500027,None,sing36,001,2019_Nov_14_1532,ProdFawcett_Revision2019,3.2.3,59.628265465584136,
,,,,65,0,65,0,,,,,,,,,,,,,2747.7189889000147,None,,,,,,,,,,,,,,,,,,,,,,second,C_sing,65,278,2744.509344900027,None,2744.509344900027,None,2744.509344900027,None,6,1.362600399996154,2744.509344900027,None,2745.928068100009,None,2745.928068100009,None,2746.448086700024,None,2746.448086700024,None,2746.448086700024,None,r,1.2239617999875918,2746.448086700024,None,sing36,001,2019_Nov_14_1532,ProdFawcett_Revision2019,3.2.3,59.628265465584136,
,,,,66,0,66,0,,,,,,,,,,,,,2752.3505444000184,None,,,,,,,,,,,,,,,,,,,,,,history,C_sing,66,153,2748.2338977000036,None,2748.2338977000036,None,2748.2338977000036,None,6,1.2783254999958444,2748.2338977000036,None,2749.558429900004,None,2749.558429900004,None,2750.083093300025,None,2750.083093300025,None,2750.083093300025,None,r,2.236848700005794,2750.083093300025,None,sing36,001,2019_Nov_14_1532,ProdFawcett_Revision2019,3.2.3,59.628265465584136,
,,,,67,0,67,0,,,,,,,,,,,,,2756.6976093000267,None,,,,,,,,,,,,,,,,,,,,,,impact,D_new,67,157,2752.868459200021,None,2752.868459200021,None,2752.868459200021,None,1,2.2034915999975055,2752.868459200021,None,2755.1279926999996,None,2755.1279926999996,None,2755.6401431000268,None,2755.6401431000268,None,2755.6401431000268,None,n,1.0157202999980655,2755.6401431000268,None,sing36,001,2019_Nov_14_1532,ProdFawcett_Revision2019,3.2.3,59.628265465584136,
,,,,68,0,68,0,,,,,,,,,,,,,2759.716912200005,None,,,,,,,,,,,,,,,,,,,,,,staff,D_new,68,301,2757.2239788000006,None,2757.2239788000006,None,2757.2239788000006,None,1,1.4481814999890048,2757.2239788000006,None,2758.7321330000123,None,2758.7321330000123,None,2759.2467313000234,None,2759.2467313000234,None,2759.2467313000234,None,n,0.4254908000002615,2759.2467313000234,None,sing36,001,2019_Nov_14_1532,ProdFawcett_Revision2019,3.2.3,59.628265465584136,
,,,,69,0,69,0,,,,,,,,,,,,,2763.4171283000032,None,,,,,,,,,,,,,,,,,,,,,,education,B_aloud,69,108,2760.236137800006,None,2760.236137800006,None,2760.236137800006,None,6,2.116012399987085,2760.236137800006,None,2762.3948292999994,None,2762.3948292999994,None,2762.9193981999997,None,2762.9193981999997,None,2762.9193981999997,None,r,0.45662589999847114,2762.9193981999997,None,sing36,001,2019_Nov_14_1532,ProdFawcett_Revision2019,3.2.3,59.628265465584136,
,,,,70,0,70,0,,,,,,,,,,,,,2767.284543900023,None,,,,,,,,,,,,,,,,,,,,,,gesture,B_aloud,70,137,2763.9389537000097,None,2763.9389537000097,None,2763.9389537000097,None,6,2.565096200007247,2763.9389537000097,None,2766.5435212000157,None,2766.5435212000157,None,2767.0690777000273,None,2767.0690777000273,None,2767.0690777000273,None,r,0.17114130000118166,2767.0690777000273,None,sing36,001,2019_Nov_14_1532,ProdFawcett_Revision2019,3.2.3,59.628265465584136,
,,,,71,0,71,0,,,,,,,,,,,,,2769.854745300021,None,,,,,,,,,,,,,,,,,,,,,,military,D_new,71,190,2767.802916000015,None,2767.802916000015,None,2767.802916000015,None,1,1.437007000000449,2767.802916000015,None,2769.2935469000076,None,2769.2935469000076,None,2769.821297800023,None,2769.821297800023,None,2769.821297800023,None,n,0.002651100017828867,2769.821297800023,None,sing36,001,2019_Nov_14_1532,ProdFawcett_Revision2019,3.2.3,59.628265465584136,
,,,,72,0,72,0,,,,,,,,,,,,,2772.2337183000054,None,,,,,,,,,,,,,,,,,,,,,,drink,D_new,72,105,2770.387544600002,None,2770.387544600002,None,2770.387544600002,None,1,1.1884380000119563,2770.387544600002,None,2771.6437430000224,None,2771.6437430000224,None,2772.17011180002,None,2772.17011180002,None,2772.17011180002,None,n,0.03065880000940524,2772.17011180002,None,sing36,001,2019_Nov_14_1532,ProdFawcett_Revision2019,3.2.3,59.628265465584136,
,,,,73,0,73,0,,,,,,,,,,,,,2774.711192900024,None,,,,,,,,,,,,,,,,,,,,,,alert,D_new,73,6,2772.742048300017,None,2772.742048300017,None,2772.742048300017,None,1,1.3382282999809831,2772.742048300017,None,2774.133345900016,None,2774.133345900016,None,2774.655931800022,None,2774.655931800022,None,2774.655931800022,None,n,0.02382570001645945,2774.655931800022,None,sing36,001,2019_Nov_14_1532,ProdFawcett_Revision2019,3.2.3,59.628265465584136,
,,,,74,0,74,0,,,,,,,,,,,,,2777.2180987000174,None,,,,,,,,,,,,,,,,,,,,,,pretty,B_aloud,74,233,2775.239034600003,None,2775.239034600003,None,2775.239034600003,None,6,1.3050006000266876,2775.239034600003,None,2776.5989436000236,None,2776.5989436000236,None,2777.116658200015,None,2777.116658200015,None,2777.116658200015,None,r,0.05934710000292398,2777.116658200015,None,sing36,001,2019_Nov_14_1532,ProdFawcett_Revision2019,3.2.3,59.628265465584136,
,,,,75,0,75,0,,,,,,,,,,,,,2780.404563900025,None,,,,,,,,,,,,,,,,,,,,,,society,D_new,75,293,2777.72614470002,None,2777.72614470002,None,2777.72614470002,None,1,1.649856500007445,2777.72614470002,None,2779.429636100016,None,2779.429636100016,None,2779.9491943000176,None,2779.9491943000176,None,2779.9491943000176,None,n,0.4107273000117857,2779.9491943000176,None,sing36,001,2019_Nov_14_1532,ProdFawcett_Revision2019,3.2.3,59.628265465584136,
,,,,76,0,76,0,,,,,,,,,,,,,2787.5520317000046,None,,,,,,,,,,,,,,,,,,,,,,season,D_new,76,277,2780.9197125000064,None,2780.9197125000064,None,2780.9197125000064,None,1,2.5922314999916125,2780.9197125000064,None,2783.5631782000128,None,2783.5631782000128,None,2784.0831632000045,None,2784.0831632000045,None,2784.0831632000045,None,n,3.428765699994983,2784.0831632000045,None,sing36,001,2019_Nov_14_1532,ProdFawcett_Revision2019,3.2.3,59.628265465584136,
,,,,77,0,77,0,,,,,,,,,,,,,2792.6500310000265,None,,,,,,,,,,,,,,,,,,,,,,mechanical,D_new,77,185,2788.0713339000067,None,2788.0713339000067,None,2788.0713339000067,None,1,2.368533999979263,2788.0713339000067,None,2790.486357900023,None,2790.486357900023,None,2790.996359600016,None,2790.996359600016,None,2790.996359600016,None,n,1.6114552000071853,2790.996359600016,None,sing36,001,2019_Nov_14_1532,ProdFawcett_Revision2019,3.2.3,59.628265465584136,
,,,,78,0,78,0,,,,,,,,,,,,,2798.0677752000047,None,,,,,,,,,,,,,,,,,,,,,,science,C_sing,78,275,2793.163464900019,None,2793.163464900019,None,2793.163464900019,None,6,3.7484809000161476,2793.163464900019,None,2796.9589682000224,None,2796.9589682000224,None,2797.489109600021,None,2797.489109600021,None,2797.489109600021,None,f,0.5508654000004753,2797.489109600021,None,sing36,001,2019_Nov_14_1532,ProdFawcett_Revision2019,3.2.3,59.628265465584136,
,,,,79,0,79,0,,,,,,,,,,,,,2801.0370291,None,,,,,,,,,,,,,,,,,,,,,,listen,C_sing,79,172,2798.5883654000063,None,2798.5883654000063,None,2798.5883654000063,None,6,1.8276809999952093,2798.5883654000063,None,2800.465072800027,None,2800.465072800027,None,2800.9848240000138,None,2800.9848240000138,None,2800.9848240000138,None,r,0.01522629999089986,2800.9848240000138,None,sing36,001,2019_Nov_14_1532,ProdFawcett_Revision2019,3.2.3,59.628265465584136,
,,,,80,0,80,0,,,,,,,,,,,,,2805.391733000026,None,,,,,,,,,,,,,,,,,,,,,,surface,A_silent,80,316,2801.5558138000197,None,2801.5558138000197,None,2801.5558138000197,None,6,2.6201760999974795,2801.5558138000197,None,2804.2323231000046,None,2804.2323231000046,None,2804.764263800025,None,2804.764263800025,None,2804.764263800025,None,f,0.5797557999903802,2804.764263800025,None,sing36,001,2019_Nov_14_1532,ProdFawcett_Revision2019,3.2.3,59.628265465584136,
,,,,81,0,81,0,,,,,,,,,,,,,2811.0202036000264,None,,,,,,,,,,,,,,,,,,,,,,shape,D_new,81,282,2805.9243721000094,None,2805.9243721000094,None,2805.9243721000094,None,1,4.331694099993911,2805.9243721000094,None,2810.301109700027,None,2810.301109700027,None,2810.818477200024,None,2810.818477200024,None,2810.818477200024,None,n,0.16570789998513646,2810.818477200024,None,sing36,001,2019_Nov_14_1532,ProdFawcett_Revision2019,3.2.3,59.628265465584136,
,,,,82,0,82,0,,,,,,,,,,,,,2813.6276397000183,None,,,,,,,,,,,,,,,,,,,,,,religion,D_new,82,258,2811.539736400009,None,2811.539736400009,None,2811.539736400009,None,1,1.2282256000034977,2811.539736400009,None,2812.823833000002,None,2812.823833000002,None,2813.34071400002,None,2813.34071400002,None,2813.34071400002,None,n,0.25108680000994354,2813.34071400002,None,sing36,001,2019_Nov_14_1532,ProdFawcett_Revision2019,3.2.3,59.628265465584136,
,,,,83,0,83,0,,,,,,,,,,,,,2817.104899900005,None,,,,,,,,,,,,,,,,,,,,,,guard,D_new,83,145,2814.1455803000135,None,2814.1455803000135,None,2814.1455803000135,None,1,1.3591153000015765,2814.1455803000135,None,2815.552829799999,None,2815.552829799999,None,2816.0724772000103,None,2816.0724772000103,None,2816.0724772000103,None,n,0.999875699984841,2816.0724772000103,None,sing36,001,2019_Nov_14_1532,ProdFawcett_Revision2019,3.2.3,59.628265465584136,
,,,,84,0,84,0,,,,,,,,,,,,,2824.677955900028,None,,,,,,,,,,,,,,,,,,,,,,government,D_new,84,139,2817.6272699000256,None,2817.6272699000256,None,2817.6272699000256,None,3,5.10881080001127,2817.6272699000256,None,2822.7871657000214,None,2822.7871657000214,None,2823.315353800019,None,2823.315353800019,None,2823.315353800019,None,f,1.3324755000066943,2823.315353800019,None,sing36,001,2019_Nov_14_1532,ProdFawcett_Revision2019,3.2.3,59.628265465584136,
,,,,85,0,85,0,,,,,,,,,,,,,2832.5707621000183,None,,,,,,,,,,,,,,,,,,,,,,reading,C_sing,85,254,2825.199266600015,None,2825.199266600015,None,2825.199266600015,None,1,6.505249100009678,2825.199266600015,None,2831.7539067000034,None,2831.7539067000034,None,2832.2869082000107,None,2832.2869082000107,None,2832.2869082000107,None,n,0.24115719998371787,2832.2869082000107,None,sing36,001,2019_Nov_14_1532,ProdFawcett_Revision2019,3.2.3,59.628265465584136,
,,,,86,0,86,0,,,,,,,,,,,,,2835.083235900005,None,,,,,,,,,,,,,,,,,,,,,,provision,D_new,86,243,2833.095635800011,None,2833.095635800011,None,2833.095635800011,None,1,1.3683769000053871,2833.095635800011,None,2834.517283300025,None,2834.517283300025,None,2835.040731700021,None,2835.040731700021,None,2835.040731700021,None,n,0.007078800001181662,2835.040731700021,None,sing36,001,2019_Nov_14_1532,ProdFawcett_Revision2019,3.2.3,59.628265465584136,
,,,,87,0,87,0,,,,,,,,,,,,,2837.810210800002,None,,,,,,,,,,,,,,,,,,,,,,waste,C_sing,87,350,2835.6121335000207,None,2835.6121335000207,None,2835.6121335000207,None,6,1.4999045000004116,2835.6121335000207,None,2837.162431100005,None,2837.162431100005,None,2837.6935976000095,None,2837.6935976000095,None,2837.6935976000095,None,r,0.07448660000227392,2837.6935976000095,None,sing36,001,2019_Nov_14_1532,ProdFawcett_Revision2019,3.2.3,59.628265465584136,
,,,,88,0,88,0,,,,,,,,,,,,,2841.8598646000028,None,,,,,,,,,,,,,,,,,,,,,,opening,D_new,88,205,2838.3512427000096,None,2838.3512427000096,None,2838.3512427000096,None,1,1.8969266999920364,2838.3512427000096,None,2840.3036660000216,None,2840.3036660000216,None,2840.828503800003,None,2840.828503800003,None,2840.828503800003,None,n,0.9876067999866791,2840.828503800003,None,sing36,001,2019_Nov_14_1532,ProdFawcett_Revision2019,3.2.3,59.628265465584136,
,,,,89,0,89,0,,,,,,,,,,,,,2845.357308400009,None,,,,,,,,,,,,,,,,,,,,,,candidate,B_aloud,89,39,2842.391480600025,None,2842.391480600025,None,2842.391480600025,None,6,1.6724871000042185,2842.391480600025,None,2844.1164533000265,None,2844.1164533000265,None,2844.643783000007,None,2844.643783000007,None,2844.643783000007,None,r,0.6762613000173587,2844.643783000007,None,sing36,001,2019_Nov_14_1532,ProdFawcett_Revision2019,3.2.3,59.628265465584136,
,,,,90,0,90,0,,,,,,,,,,,,,2850.62363680001,None,,,,,,,,,,,,,,,,,,,,,,measure,C_sing,90,184,2845.8751639000257,None,2845.8751639000257,None,2845.8751639000257,None,3,3.8769781999872066,2845.8751639000257,None,2849.8121343000093,None,2849.8121343000093,None,2850.3228610000224,None,2850.3228610000224,None,2850.3228610000224,None,f,0.2610508000070695,2850.3228610000224,None,sing36,001,2019_Nov_14_1532,ProdFawcett_Revision2019,3.2.3,59.628265465584136,
,,,,91,0,91,0,,,,,,,,,,,,,2859.922968000028,None,,,,,,,,,,,,,,,,,,,,,,sound,B_aloud,91,295,2851.142344800028,None,2851.142344800028,None,2851.142344800028,None,6,5.081388599995989,2851.142344800028,None,2856.265847200004,None,2856.265847200004,None,2856.7895294000045,None,2856.7895294000045,None,2856.7895294000045,None,r,3.0984399000008125,2856.7895294000045,None,sing36,001,2019_Nov_14_1532,ProdFawcett_Revision2019,3.2.3,59.628265465584136,
,,,,92,0,92,0,,,,,,,,,,,,,2865.5081820000196,None,,,,,,,,,,,,,,,,,,,,,,background,D_new,92,16,2860.4499743000197,None,2860.4499743000197,None,2860.4499743000197,None,1,4.110173300025053,2860.4499743000197,None,2864.607622600015,None,2864.607622600015,None,2865.1140679000237,None,2865.1140679000237,None,2865.1140679000237,None,n,0.35795750000397675,2865.1140679000237,None,sing36,001,2019_Nov_14_1532,ProdFawcett_Revision2019,3.2.3,59.628265465584136,
,,,,93,0,93,0,,,,,,,,,,,,,2874.000033100019,None,,,,,,,,,,,,,,,,,,,,,,graduate,C_sing,93,141,2866.030458699999,None,2866.030458699999,None,2866.030458699999,None,6,6.80156980000902,2866.030458699999,None,2872.888078900025,None,2872.888078900025,None,2873.4141626000055,None,2873.4141626000055,None,2873.4141626000055,None,r,0.5377200999937486,2873.4141626000055,None,sing36,001,2019_Nov_14_1532,ProdFawcett_Revision2019,3.2.3,59.628265465584136,
,,,,94,0,94,0,,,,,,,,,,,,,2876.8937433000247,None,,,,,,,,,,,,,,,,,,,,,,citizen,B_aloud,94,50,2874.53182210002,None,2874.53182210002,None,2874.53182210002,None,6,1.732210899994243,2874.53182210002,None,2876.318461500021,None,2876.318461500021,None,2876.8437121000024,None,2876.8437121000024,None,2876.8437121000024,None,r,0.004170400003204122,2876.8437121000024,None,sing36,001,2019_Nov_14_1532,ProdFawcett_Revision2019,3.2.3,59.628265465584136,
,,,,95,0,95,0,,,,,,,,,,,,,2881.662412400008,None,,,,,,,,,,,,,,,,,,,,,,research,D_new,95,261,2877.4105000000272,None,2877.4105000000272,None,2877.4105000000272,None,6,3.557457399991108,2877.4105000000272,None,2881.017297800019,None,2881.017297800019,None,2881.541204500012,None,2881.541204500012,None,2881.541204500012,None,r,0.07481120000011288,2881.541204500012,None,sing36,001,2019_Nov_14_1532,ProdFawcett_Revision2019,3.2.3,59.628265465584136,
,,,,96,0,96,0,,,,,,,,,,,,,2884.9246107000217,None,,,,,,,,,,,,,,,,,,,,,,oxygen,D_new,96,209,2882.198717400024,None,2882.198717400024,None,2882.198717400024,None,1,2.017322300001979,2882.198717400024,None,2884.2678761999996,None,2884.2678761999996,None,2884.794049100019,None,2884.794049100019,None,2884.794049100019,None,n,0.08591970000998117,2884.794049100019,None,sing36,001,2019_Nov_14_1532,ProdFawcett_Revision2019,3.2.3,59.628265465584136,
,,,,97,0,97,0,,,,,,,,,,,,,2887.8369349000277,None,,,,,,,,,,,,,,,,,,,,,,income,D_new,97,159,2885.4314377000264,None,2885.4314377000264,None,2885.4314377000264,None,1,1.5687993000028655,2885.4314377000264,None,2887.0498690000095,None,2887.0498690000095,None,2887.5746539000247,None,2887.5746539000247,None,2887.5746539000247,None,n,0.2332845999917481,2887.5746539000247,None,sing36,001,2019_Nov_14_1532,ProdFawcett_Revision2019,3.2.3,59.628265465584136,
,,,,98,0,98,0,,,,,,,,,,,,,2890.875778900023,None,,,,,,,,,,,,,,,,,,,,,,thing,D_new,98,328,2888.3618609000114,None,2888.3618609000114,None,2888.3618609000114,None,1,1.750287999981083,2888.3618609000114,None,2890.158107700001,None,2890.158107700001,None,2890.674993600027,None,2890.674993600027,None,2890.674993600027,None,n,0.15702720000990666,2890.674993600027,None,sing36,001,2019_Nov_14_1532,ProdFawcett_Revision2019,3.2.3,59.628265465584136,
,,,,99,0,99,0,,,,,,,,,,,,,2893.7765277000144,None,,,,,,,,,,,,,,,,,,,,,,silence,C_sing,99,288,2891.394888400013,None,2891.394888400013,None,2891.394888400013,None,6,1.6131344999885187,2891.394888400013,None,2893.0423196000047,None,2893.0423196000047,None,2893.5573367000034,None,2893.5573367000034,None,2893.5573367000034,None,r,0.17858050001086667,2893.5573367000034,None,sing36,001,2019_Nov_14_1532,ProdFawcett_Revision2019,3.2.3,59.628265465584136,
,,,,100,0,100,0,,,,,,,,,,,,,2897.214040800027,None,,,,,,,,,,,,,,,,,,,,,,bicycle,D_new,100,21,2894.297497899999,None,2894.297497899999,None,2894.297497899999,None,1,1.950471699994523,2894.297497899999,None,2896.306470100011,None,2896.306470100011,None,2896.8256330000004,None,2896.8256330000004,None,2896.8256330000004,None,n,0.34239989999332465,2896.8256330000004,None,sing36,001,2019_Nov_14_1532,ProdFawcett_Revision2019,3.2.3,59.628265465584136,
,,,,101,0,101,0,,,,,,,,,,,,,2900.0438918000145,None,,,,,,,,,,,,,,,,,,,,,,shear,C_sing,101,283,2897.743401900021,None,2897.743401900021,None,2897.743401900021,None,6,1.5288757999951486,2897.743401900021,None,2899.3169475000177,None,2899.3169475000177,None,2899.8401769000047,None,2899.8401769000047,None,2899.8401769000047,None,r,0.15990339999552816,2899.8401769000047,None,sing36,001,2019_Nov_14_1532,ProdFawcett_Revision2019,3.2.3,59.628265465584136,
,,,,102,0,102,0,,,,,,,,,,,,,2904.4580783000274,None,,,,,,,,,,,,,,,,,,,,,,bitter,D_new,102,23,2900.565555600013,None,2900.565555600013,None,2900.565555600013,None,1,3.2423316999920644,2900.565555600013,None,2903.8610426000087,None,2903.8610426000087,None,2904.3865227000206,None,2904.3865227000206,None,2904.3865227000206,None,n,0.037482400017324835,2904.3865227000206,None,sing36,001,2019_Nov_14_1532,ProdFawcett_Revision2019,3.2.3,59.628265465584136,
,,,,103,0,103,0,,,,,,,,,,,,,2907.498398100026,None,,,,,,,,,,,,,,,,,,,,,,quantity,D_new,103,245,2904.9825474000245,None,2904.9825474000245,None,2904.9825474000245,None,1,1.5855067999800667,2904.9825474000245,None,2906.625174500019,None,2906.625174500019,None,2907.144364100008,None,2907.144364100008,None,2907.144364100008,None,n,0.31187710000085644,2907.144364100008,None,sing36,001,2019_Nov_14_1532,ProdFawcett_Revision2019,3.2.3,59.628265465584136,
,,,,104,0,104,0,,,,,,,,,,,,,2910.2600688000093,None,,,,,,,,,,,,,,,,,,,,,,notice,D_new,104,201,2908.027790400025,None,2908.027790400025,None,2908.027790400025,None,1,1.5241516999958549,2908.027790400025,None,2909.603345600015,None,2909.603345600015,None,2910.1298802000238,None,2910.1298802000238,None,2910.1298802000238,None,n,0.0861115999869071,2910.1298802000238,None,sing36,001,2019_Nov_14_1532,ProdFawcett_Revision2019,3.2.3,59.628265465584136,
,,,,105,0,105,0,,,,,,,,,,,,,2915.5638178000227,None,,,,,,,,,,,,,,,,,,,,,,conference,A_silent,105,66,2910.781907700002,None,2910.781907700002,None,2910.781907700002,None,3,3.498127900005784,2910.781907700002,None,2914.3235191999993,None,2914.3235191999993,None,2914.84338950002,None,2914.84338950002,None,2914.84338950002,None,f,0.6923971000069287,2914.84338950002,None,sing36,001,2019_Nov_14_1532,ProdFawcett_Revision2019,3.2.3,59.628265465584136,
,,,,106,0,106,0,,,,,,,,,,,,,2918.5946592000255,None,,,,,,,,,,,,,,,,,,,,,,estate,D_new,106,119,2916.079466200026,None,2916.079466200026,None,2916.079466200026,None,1,1.840499700017972,2916.079466200026,None,2917.9730031000217,None,2917.9730031000217,None,2918.496242300025,None,2918.496242300025,None,2918.496242300025,None,n,0.0641816999996081,2918.496242300025,None,sing36,001,2019_Nov_14_1532,ProdFawcett_Revision2019,3.2.3,59.628265465584136,
,,,,107,0,107,0,,,,,,,,,,,,,2921.1844174000144,None,,,,,,,,,,,,,,,,,,,,,,object,D_new,107,204,2919.1167368000024,None,2919.1167368000024,None,2919.1167368000024,None,1,1.4512804999831133,2919.1167368000024,None,2920.622465000022,None,2920.622465000022,None,2921.138570100011,None,2921.138570100011,None,2921.138570100011,None,n,0.021417599986307323,2921.138570100011,None,sing36,001,2019_Nov_14_1532,ProdFawcett_Revision2019,3.2.3,59.628265465584136,
,,,,108,0,108,0,,,,,,,,,,,,,2924.028011300019,None,,,,,,,,,,,,,,,,,,,,,,addition,A_silent,108,2,2921.7143920000235,None,2921.7143920000235,None,2921.7143920000235,None,1,1.4537344000127632,2921.7143920000235,None,2923.22291880002,None,2923.22291880002,None,2923.7443464000244,None,2923.7443464000244,None,2923.7443464000244,None,n,0.2396778000111226,2923.7443464000244,None,sing36,001,2019_Nov_14_1532,ProdFawcett_Revision2019,3.2.3,59.628265465584136,
,,,,109,0,109,0,,,,,,,,,,,,,2926.662288200023,None,,,,,,,,,,,,,,,,,,,,,,guest,D_new,109,146,2924.547881300008,None,2924.547881300008,None,2924.547881300008,None,1,1.2442530000116676,2924.547881300008,None,2925.8255559000245,None,2925.8255559000245,None,2926.343255900021,None,2926.343255900021,None,2926.343255900021,None,n,0.28879809999489225,2926.343255900021,None,sing36,001,2019_Nov_14_1532,ProdFawcett_Revision2019,3.2.3,59.628265465584136,
,,,,110,0,110,0,,,,,,,,,,,,,2929.4411697000032,None,,,,,,,,,,,,,,,,,,,,,,personnel,D_new,110,219,2927.180896200007,None,2927.180896200007,None,2927.180896200007,None,1,1.3473449000157416,2927.180896200007,None,2928.5720327000017,None,2928.5720327000017,None,2929.086385900009,None,2929.086385900009,None,2929.086385900009,None,n,0.32153549999929965,2929.086385900009,None,sing36,001,2019_Nov_14_1532,ProdFawcett_Revision2019,3.2.3,59.628265465584136,
,,,,111,0,111,0,,,,,,,,,,,,,2934.3838465000154,None,,,,,,,,,,,,,,,,,,,,,,empty,C_sing,111,112,2929.9635891000216,None,2929.9635891000216,None,2929.9635891000216,None,6,2.5405327000189573,2929.9635891000216,None,2932.554340600007,None,2932.554340600007,None,2933.076281100017,None,2933.076281100017,None,2933.076281100017,None,r,1.2677691999997478,2933.076281100017,None,sing36,001,2019_Nov_14_1532,ProdFawcett_Revision2019,3.2.3,59.628265465584136,
,,,,112,0,112,0,,,,,,,,,,,,,2937.21207150002,None,,,,,,,,,,,,,,,,,,,,,,disease,D_new,112,97,2934.9181222000043,None,2934.9181222000043,None,2934.9181222000043,None,1,1.545991299994057,2934.9181222000043,None,2936.515797900007,None,2936.515797900007,None,2937.02882940002,None,2937.02882940002,None,2937.02882940002,None,n,0.14741490001324564,2937.02882940002,None,sing36,001,2019_Nov_14_1532,ProdFawcett_Revision2019,3.2.3,59.628265465584136,
,,,,113,0,113,0,,,,,,,,,,,,,2941.945728300023,None,,,,,,,,,,,,,,,,,,,,,,edition,D_new,113,107,2937.7309380000224,None,2937.7309380000224,None,2937.7309380000224,None,1,3.0452229999937117,2937.7309380000224,None,2940.824284500006,None,2940.824284500006,None,2941.335445200006,None,2941.335445200006,None,2941.335445200006,None,n,0.5685839999932796,2941.335445200006,None,sing36,001,2019_Nov_14_1532,ProdFawcett_Revision2019,3.2.3,59.628265465584136,
,,,,114,0,114,0,,,,,,,,,,,,,2946.2459251000255,None,,,,,,,,,,,,,,,,,,,,,,region,C_sing,114,256,2942.4690773000184,None,2942.4690773000184,None,2942.4690773000184,None,6,2.698576700000558,2942.4690773000184,None,2945.2202871000045,None,2945.2202871000045,None,2945.7340151000244,None,2945.7340151000244,None,2945.7340151000244,None,r,0.4739846000156831,2945.7340151000244,None,sing36,001,2019_Nov_14_1532,ProdFawcett_Revision2019,3.2.3,59.628265465584136,
,,,,115,0,115,0,,,,,,,,,,,,,2950.4131020000204,None,,,,,,,,,,,,,,,,,,,,,,literature,D_new,115,173,2946.7676375000156,None,2946.7676375000156,None,2946.7676375000156,None,1,1.568361499987077,2946.7676375000156,None,2948.3904127000133,None,2948.3904127000133,None,2948.913819600013,None,2948.913819600013,None,2948.913819600013,None,n,1.46226589998696,2948.913819600013,None,sing36,001,2019_Nov_14_1532,ProdFawcett_Revision2019,3.2.3,59.628265465584136,
,,,,116,0,116,0,,,,,,,,,,,,,2954.0614797000017,None,,,,,,,,,,,,,,,,,,,,,,republic,B_aloud,116,260,2950.9362058000115,None,2950.9362058000115,None,2950.9362058000115,None,6,1.6478786999941804,2950.9362058000115,None,2952.614991600014,None,2952.614991600014,None,2953.1345423000166,None,2953.1345423000166,None,2953.1345423000166,None,r,0.8975488000141922,2953.1345423000166,None,sing36,001,2019_Nov_14_1532,ProdFawcett_Revision2019,3.2.3,59.628265465584136,
,,,,117,0,117,0,,,,,,,,,,,,,2956.686807500024,None,,,,,,,,,,,,,,,,,,,,,,territory,D_new,117,324,2954.5835743000207,None,2954.5835743000207,None,2954.5835743000207,None,1,1.3442989999894053,2954.5835743000207,None,2955.976630500023,None,2955.976630500023,None,2956.4955217000097,None,2956.4955217000097,None,2956.4955217000097,None,n,0.15275380000821315,2956.4955217000097,None,sing36,001,2019_Nov_14_1532,ProdFawcett_Revision2019,3.2.3,59.628265465584136,
,,,,118,0,118,0,,,,,,,,,,,,,2959.3864126000262,None,,,,,,,,,,,,,,,,,,,,,,generation,C_sing,118,136,2957.219242000021,None,2957.219242000021,None,2957.219242000021,None,6,1.5168368000013288,2957.219242000021,None,2958.795727700024,None,2958.795727700024,None,2959.315892100014,None,2959.315892100014,None,2959.315892100014,None,r,0.035922399983974174,2959.315892100014,None,sing36,001,2019_Nov_14_1532,ProdFawcett_Revision2019,3.2.3,59.628265465584136,
,,,,119,0,119,0,,,,,,,,,,,,,2962.8216058000107,None,,,,,,,,,,,,,,,,,,,,,,answer,D_new,119,8,2959.923300400027,None,2959.923300400027,None,2959.923300400027,None,1,1.421178599994164,2959.923300400027,None,2961.3974041000183,None,2961.3974041000183,None,2961.92040990002,None,2961.92040990002,None,2961.92040990002,None,n,0.86332720000064,2961.92040990002,None,sing36,001,2019_Nov_14_1532,ProdFawcett_Revision2019,3.2.3,59.628265465584136,
,,,,120,0,120,0,,,,,,,,,,,,,2967.2508939000254,None,,,,,,,,,,,,,,,,,,,,,,balance,B_aloud,120,17,2963.338261900004,None,2963.338261900004,None,2963.338261900004,None,6,2.4936756000097375,2963.338261900004,None,2965.8636390000174,None,2965.8636390000174,None,2966.385903800023,None,2966.385903800023,None,2966.385903800023,None,r,0.8221805000212044,2966.385903800023,None,sing36,001,2019_Nov_14_1532,ProdFawcett_Revision2019,3.2.3,59.628265465584136,
,,,,121,0,121,0,,,,,,,,,,,,,2970.597264400014,None,,,,,,,,,,,,,,,,,,,,,,center,D_new,121,44,2967.781051800004,None,2967.781051800004,None,2967.781051800004,None,1,1.619085999991512,2967.781051800004,None,2969.444221200014,None,2969.444221200014,None,2969.9631382000225,None,2969.9631382000225,None,2969.9631382000225,None,n,0.6048398000129964,2969.9631382000225,None,sing36,001,2019_Nov_14_1532,ProdFawcett_Revision2019,3.2.3,59.628265465584136,
,,,,122,0,122,0,,,,,,,,,,,,,2980.402309600002,None,,,,,,,,,,,,,,,,,,,,,,sight,B_aloud,122,286,2971.120981600019,None,2971.120981600019,None,2971.120981600019,None,6,2.119076999981189,2971.120981600019,None,2973.2954445000214,None,2973.2954445000214,None,2973.821083900024,None,2973.821083900024,None,2973.821083900024,None,r,6.547083500016015,2973.821083900024,None,sing36,001,2019_Nov_14_1532,ProdFawcett_Revision2019,3.2.3,59.628265465584136,
,,,,123,0,123,0,,,,,,,,,,,,,2984.8470002000104,None,,,,,,,,,,,,,,,,,,,,,,trial,B_aloud,123,341,2980.933381300012,None,2980.933381300012,None,2980.933381300012,None,6,2.9068225999944843,2980.933381300012,None,2983.8885102000204,None,2983.8885102000204,None,2984.4165060000087,None,2984.4165060000087,None,2984.4165060000087,None,r,0.39148259998182766,2984.4165060000087,None,sing36,001,2019_Nov_14_1532,ProdFawcett_Revision2019,3.2.3,59.628265465584136,
,,,,124,0,124,0,,,,,,,,,,,,,2989.6849781000055,None,,,,,,,,,,,,,,,,,,,,,,tragedy,A_silent,124,335,2985.372768500005,None,2985.372768500005,None,2985.372768500005,None,6,2.627433000016026,2985.372768500005,None,2988.0484755000216,None,2988.0484755000216,None,2988.571841900004,None,2988.571841900004,None,2988.571841900004,None,r,1.0763399999996182,2988.571841900004,None,sing36,001,2019_Nov_14_1532,ProdFawcett_Revision2019,3.2.3,59.628265465584136,
,,,,125,0,125,0,,,,,,,,,,,,,3000.7328372000193,None,,,,,,,,,,,,,,,,,,,,,,election,A_silent,125,109,2990.202737100015,None,2990.202737100015,None,2990.202737100015,None,3,9.189429299993208,2990.202737100015,None,2999.444771200011,None,2999.444771200011,None,2999.9674732000276,None,2999.9674732000276,None,2999.9674732000276,None,f,0.7365108999947552,2999.9674732000276,None,sing36,001,2019_Nov_14_1532,ProdFawcett_Revision2019,3.2.3,59.628265465584136,
,,,,126,0,126,0,,,,,,,,,,,,,3003.4898206000216,None,,,,,,,,,,,,,,,,,,,,,,payment,A_silent,126,215,3001.253434000013,None,3001.253434000013,None,3001.253434000013,None,1,1.42674550000811,3001.253434000013,None,3002.7293194000085,None,3002.7293194000085,None,3003.2523417000193,None,3003.2523417000193,None,3003.2523417000193,None,n,0.2034771000035107,3003.2523417000193,None,sing36,001,2019_Nov_14_1532,ProdFawcett_Revision2019,3.2.3,59.628265465584136,
,,,,127,0,127,0,,,,,,,,,,,,,3006.5351555000234,None,,,,,,,,,,,,,,,,,,,,,,property,D_new,127,242,3004.009073300025,None,3004.009073300025,None,3004.009073300025,None,1,1.5266421000123955,3004.009073300025,None,3005.572647300025,None,3005.572647300025,None,3006.1023047000053,None,3006.1023047000053,None,3006.1023047000053,None,n,0.4018810999987181,3006.1023047000053,None,sing36,001,2019_Nov_14_1532,ProdFawcett_Revision2019,3.2.3,59.628265465584136,
,,,,128,0,128,0,,,,,,,,,,,,,3010.734141700028,None,,,,,,,,,,,,,,,,,,,,,,machinery,D_new,128,175,3007.053782700008,None,3007.053782700008,None,3007.053782700008,None,1,1.9143889999832027,3007.053782700008,None,3009.016893300024,None,3009.016893300024,None,3009.535923700023,None,3009.535923700023,None,3009.535923700023,None,n,1.1601808000123128,3009.535923700023,None,sing36,001,2019_Nov_14_1532,ProdFawcett_Revision2019,3.2.3,59.628265465584136,
,,,,129,0,129,0,,,,,,,,,,,,,3015.317534600006,None,,,,,,,,,,,,,,,,,,,,,,capital,C_sing,129,40,3011.2624945999996,None,3011.2624945999996,None,3011.2624945999996,None,6,1.569532599998638,3011.2624945999996,None,3012.8852752000093,None,3012.8852752000093,None,3013.4008737000113,None,3013.4008737000113,None,3013.4008737000113,None,r,1.8710636000032537,3013.4008737000113,None,sing36,001,2019_Nov_14_1532,ProdFawcett_Revision2019,3.2.3,59.628265465584136,
,,,,130,0,130,0,,,,,,,,,,,,,3020.951800300012,None,,,,,,,,,,,,,,,,,,,,,,material,C_sing,130,182,3015.8375060000108,None,3015.8375060000108,None,3015.8375060000108,None,4,3.75473939999938,3015.8375060000108,None,3019.641730500007,None,3019.641730500007,None,3020.165812000021,None,3020.165812000021,None,3020.165812000021,None,f,0.7461573999898974,3020.165812000021,None,sing36,001,2019_Nov_14_1532,ProdFawcett_Revision2019,3.2.3,59.628265465584136,
,,,,131,0,131,0,,,,,,,,,,,,,3024.117568400019,None,,,,,,,,,,,,,,,,,,,,,,raise,D_new,131,250,3021.46966610002,None,3021.46966610002,None,3021.46966610002,None,1,1.6024061999924015,3021.46966610002,None,3023.1131652000186,None,3023.1131652000186,None,3023.633735600015,None,3023.633735600015,None,3023.633735600015,None,n,0.43833340000128374,3023.633735600015,None,sing36,001,2019_Nov_14_1532,ProdFawcett_Revision2019,3.2.3,59.628265465584136,
,,,,132,0,132,0,,,,,,,,,,,,,3027.9057109999994,None,,,,,,,,,,,,,,,,,,,,,,guide,C_sing,132,147,3024.638905400003,None,3024.638905400003,None,3024.638905400003,None,3,2.4892756000044756,3024.638905400003,None,3027.178494300024,None,3027.178494300024,None,3027.7060236000107,None,3027.7060236000107,None,3027.7060236000107,None,f,0.16593690001172945,3027.7060236000107,None,sing36,001,2019_Nov_14_1532,ProdFawcett_Revision2019,3.2.3,59.628265465584136,
,,,,133,0,133,0,,,,,,,,,,,,,3033.786079600017,None,,,,,,,,,,,,,,,,,,,,,,piece,B_aloud,133,221,3028.435942000011,None,3028.435942000011,None,3028.435942000011,None,6,3.5880806999921333,3028.435942000011,None,3032.077415000007,None,3032.077415000007,None,3032.6006754000264,None,3032.6006754000264,None,3032.6006754000264,None,r,1.1515454999753274,3032.6006754000264,None,sing36,001,2019_Nov_14_1532,ProdFawcett_Revision2019,3.2.3,59.628265465584136,
,,,,134,0,134,0,,,,,,,,,,,,,3039.850359700009,None,,,,,,,,,,,,,,,,,,,,,,close,D_new,134,53,3034.3046151000017,None,3034.3046151000017,None,3034.3046151000017,None,1,4.071252299996559,3034.3046151000017,None,3038.4079209000047,None,3038.4079209000047,None,3038.9200122000184,None,3038.9200122000184,None,3038.9200122000184,None,n,0.888006499997573,3038.9200122000184,None,sing36,001,2019_Nov_14_1532,ProdFawcett_Revision2019,3.2.3,59.628265465584136,
,,,,135,0,135,0,,,,,,,,,,,,,3043.2856500000053,None,,,,,,,,,,,,,,,,,,,,,,rough,C_sing,135,266,3040.360925100016,None,3040.360925100016,None,3040.360925100016,None,6,1.9031495999952313,3040.360925100016,None,3042.319603400014,None,3042.319603400014,None,3042.838346400007,None,3042.838346400007,None,3042.838346400007,None,r,0.4176460999879055,3042.838346400007,None,sing36,001,2019_Nov_14_1532,ProdFawcett_Revision2019,3.2.3,59.628265465584136,
,,,,136,0,136,0,,,,,,,,,,,,,3048.889668800024,None,,,,,,,,,,,,,,,,,,,,,,distance,A_silent,136,100,3043.806003400008,None,3043.806003400008,None,3043.806003400008,None,4,4.346531599992886,3043.806003400008,None,3048.198563300015,None,3048.198563300015,None,3048.719451400015,None,3048.719451400015,None,3048.719451400015,None,f,0.13676029999624006,3048.719451400015,None,sing36,001,2019_Nov_14_1532,ProdFawcett_Revision2019,3.2.3,59.628265465584136,
,,,,137,0,137,0,,,,,,,,,,,,,3051.838300100004,None,,,,,,,,,,,,,,,,,,,,,,pancakes,C_sing,137,210,3049.42640690002,None,3049.42640690002,None,3049.42640690002,None,6,1.373832900018897,3049.42640690002,None,3050.8463159000094,None,3050.8463159000094,None,3051.3703373000026,None,3051.3703373000026,None,3051.3703373000026,None,f,0.42166789999464527,3051.3703373000026,None,sing36,001,2019_Nov_14_1532,ProdFawcett_Revision2019,3.2.3,59.628265465584136,
,,,,138,0,138,0,,,,,,,,,,,,,3055.2707542999997,None,,,,,,,,,,,,,,,,,,,,,,error,D_new,138,117,3052.355193400028,None,3052.355193400028,None,3052.355193400028,None,1,2.068897899996955,3052.355193400028,None,3054.46501840002,None,3054.46501840002,None,3054.9871530000237,None,3054.9871530000237,None,3054.9871530000237,None,n,0.2530927000043448,3054.9871530000237,None,sing36,001,2019_Nov_14_1532,ProdFawcett_Revision2019,3.2.3,59.628265465584136,
,,,,139,0,139,0,,,,,,,,,,,,,3057.9865360000113,None,,,,,,,,,,,,,,,,,,,,,,finance,A_silent,139,129,3055.7884266000183,None,3055.7884266000183,None,3055.7884266000183,None,6,1.4197882000007667,3055.7884266000183,None,3057.265148300008,None,3057.265148300008,None,3057.7890284000023,None,3057.7890284000023,None,3057.7890284000023,None,r,0.15507130001788028,3057.7890284000023,None,sing36,001,2019_Nov_14_1532,ProdFawcett_Revision2019,3.2.3,59.628265465584136,
,,,,140,0,140,0,,,,,,,,,,,,,3063.3933777000057,None,,,,,,,,,,,,,,,,,,,,,,state,A_silent,140,303,3058.5103469000023,None,3058.5103469000023,None,3058.5103469000023,None,3,3.8739521999959834,3058.5103469000023,None,3062.4278735000116,None,3062.4278735000116,None,3062.9526481000066,None,3062.9526481000066,None,3062.9526481000066,None,f,0.41509309998946264,3062.9526481000066,None,sing36,001,2019_Nov_14_1532,ProdFawcett_Revision2019,3.2.3,59.628265465584136,
,,,,141,0,141,0,,,,,,,,,,,,,3068.8212299000006,None,,,,,,,,,,,,,,,,,,,,,,store,A_silent,141,305,3063.920233700017,None,3063.920233700017,None,3063.920233700017,None,6,3.2317921000067145,3063.920233700017,None,3067.196976700012,None,3067.196976700012,None,3067.7237927000097,None,3067.7237927000097,None,3067.7237927000097,None,r,1.052176099998178,3067.7237927000097,None,sing36,001,2019_Nov_14_1532,ProdFawcett_Revision2019,3.2.3,59.628265465584136,
,,,,142,0,142,0,,,,,,,,,,,,,3073.2543453000253,None,,,,,,,,,,,,,,,,,,,,,,school,D_new,142,274,3069.3424972000066,None,3069.3424972000066,None,3069.3424972000066,None,1,2.3934847000055015,3069.3424972000066,None,3071.783674800012,None,3071.783674800012,None,3072.3064390000072,None,3072.3064390000072,None,3072.3064390000072,None,n,0.9178688999963924,3072.3064390000072,None,sing36,001,2019_Nov_14_1532,ProdFawcett_Revision2019,3.2.3,59.628265465584136,
,,,,143,0,143,0,,,,,,,,,,,,,3078.3870065000083,None,,,,,,,,,,,,,,,,,,,,,,exchange,D_new,143,121,3073.7781293000153,None,3073.7781293000153,None,3073.7781293000153,None,1,3.941884100000607,3073.7781293000153,None,3077.7646806000266,None,3077.7646806000266,None,3078.2916665000084,None,3078.2916665000084,None,3078.2916665000084,None,n,0.06045429999358021,3078.2916665000084,None,sing36,001,2019_Nov_14_1532,ProdFawcett_Revision2019,3.2.3,59.628265465584136,
,,,,144,0,144,0,,,,,,,,,,,,,3085.189114500012,None,,,,,,,,,,,,,,,,,,,,,,native,A_silent,144,199,3078.9114864000003,None,3078.9114864000003,None,3078.9114864000003,None,6,1.761144999996759,3078.9114864000003,None,3080.722370000003,None,3080.722370000003,None,3081.245630700025,None,3081.245630700025,None,3081.245630700025,None,f,3.898468400002457,3081.245630700025,None,sing36,001,2019_Nov_14_1532,ProdFawcett_Revision2019,3.2.3,59.628265465584136,
,,,,145,0,145,0,,,,,,,,,,,,,3093.641614800028,None,,,,,,,,,,,,,,,,,,,,,,fight,D_new,145,127,3085.7112340000167,None,3085.7112340000167,None,3085.7112340000167,None,1,3.825082100025611,3085.7112340000167,None,3089.5862636000093,None,3089.5862636000093,None,3090.123242200003,None,3090.123242200003,None,3090.123242200003,None,f,3.4768516000185627,3090.123242200003,None,sing36,001,2019_Nov_14_1532,ProdFawcett_Revision2019,3.2.3,59.628265465584136,
,,,,146,0,146,0,,,,,,,,,,,,,3102.0944495000003,None,,,,,,,,,,,,,,,,,,,,,,clean,B_aloud,146,51,3094.157805900002,None,3094.157805900002,None,3094.157805900002,None,6,6.76240659999894,3094.157805900002,None,3100.9702988000063,None,3100.9702988000063,None,3101.488414100022,None,3101.488414100022,None,3101.488414100022,None,r,0.5682011999888346,3101.488414100022,None,sing36,001,2019_Nov_14_1532,ProdFawcett_Revision2019,3.2.3,59.628265465584136,
,,,,147,0,147,0,,,,,,,,,,,,,3109.723946400016,None,,,,,,,,,,,,,,,,,,,,,,instrument,D_new,147,163,3102.6296406000038,None,3102.6296406000038,None,3102.6296406000038,None,1,3.090846100007184,3102.6296406000038,None,3105.7686717000033,None,3105.7686717000033,None,3106.2795028000255,None,3106.2795028000255,None,3106.2795028000255,None,n,3.4087435999826994,3106.2795028000255,None,sing36,001,2019_Nov_14_1532,ProdFawcett_Revision2019,3.2.3,59.628265465584136,
,,,,148,0,148,0,,,,,,,,,,,,,3115.8461211000104,None,,,,,,,,,,,,,,,,,,,,,,cover,B_aloud,148,77,3110.2469124000054,None,3110.2469124000054,None,3110.2469124000054,None,3,4.449160400021356,3110.2469124000054,None,3114.7606103,None,3114.7606103,None,3115.2812017000106,None,3115.2812017000106,None,3115.2812017000106,None,f,0.5271025999973062,3115.2812017000106,None,sing36,001,2019_Nov_14_1532,ProdFawcett_Revision2019,3.2.3,59.628265465584136,
,,,,149,0,149,0,,,,,,,,,,,,,3119.4912285000028,None,,,,,,,,,,,,,,,,,,,,,,household,C_sing,149,154,3116.3785503000254,None,3116.3785503000254,None,3116.3785503000254,None,1,2.13351220000186,3116.3785503000254,None,3118.543338800024,None,3118.543338800024,None,3119.061429500027,None,3119.061429500027,None,3119.061429500027,None,n,0.39460780000081286,3119.061429500027,None,sing36,001,2019_Nov_14_1532,ProdFawcett_Revision2019,3.2.3,59.628265465584136,
,,,,150,0,150,0,,,,,,,,,,,,,3122.8808393000218,None,,,,,,,,,,,,,,,,,,,,,,dance,D_new,150,84,3120.0105898000184,None,3120.0105898000184,None,3120.0105898000184,None,1,1.413499899994349,3120.0105898000184,None,3121.4702748000273,None,3121.4702748000273,None,3121.991943300003,None,3121.991943300003,None,3121.991943300003,None,n,0.8559303999936674,3121.991943300003,None,sing36,001,2019_Nov_14_1532,ProdFawcett_Revision2019,3.2.3,59.628265465584136,
,,,,151,0,151,0,,,,,,,,,,,,,3126.124705000024,None,,,,,,,,,,,,,,,,,,,,,,style,D_new,151,311,3123.397655000008,None,3123.397655000008,None,3123.397655000008,None,1,1.378572300018277,3123.397655000008,None,3124.823133000027,None,3124.823133000027,None,3125.3300434000266,None,3125.3300434000266,None,3125.3300434000266,None,n,0.7500756999943405,3125.3300434000266,None,sing36,001,2019_Nov_14_1532,ProdFawcett_Revision2019,3.2.3,59.628265465584136,
,,,,152,0,152,0,,,,,,,,,,,,,3129.408913800027,None,,,,,,,,,,,,,,,,,,,,,,comfort,B_aloud,152,59,3126.6443697000213,None,3126.6443697000213,None,3126.6443697000213,None,6,1.915818000008585,3126.6443697000213,None,3128.6037591000204,None,3128.6037591000204,None,3129.127759200026,None,3129.127759200026,None,3129.127759200026,None,r,0.24865339999087155,3129.127759200026,None,sing36,001,2019_Nov_14_1532,ProdFawcett_Revision2019,3.2.3,59.628265465584136,
