StudyTrials.thisRepN,StudyTrials.thisTrialN,StudyTrials.thisN,StudyTrials.thisIndex,TestTrials.thisRepN,TestTrials.thisTrialN,TestTrials.thisN,TestTrials.thisIndex,textWelcome.started,textWelcome.stopped,keyWelcome.keys,keyWelcome.rt,keyWelcome.started,keyWelcome.stopped,textReady.started,textReady.stopped,keyReady.keys,keyReady.rt,keyReady.started,keyReady.stopped,polyback_2.started,polyback_2.stopped,studyPic,studyWord,studyType,studyN,studyOrder,polyback_3.started,polyback_3.stopped,studyPicChoice.started,studyPicChoice.stopped,polyback_4.started,polyback_4.stopped,polyback.started,polyback.stopped,studyWords.started,studyWords.stopped,getResearcher.started,getResearcher.stopped,kPress2.keys,kPress2.rt,kPress2.started,kPress2.stopped,testWord,testType,testN,testOrder,polyback_5.started,polyback_5.stopped,testWords.started,testWords.stopped,textScale.started,textScale.stopped,keyConf.keys,keyConf.rt,keyConf.started,keyConf.stopped,polyback_6.started,polyback_6.stopped,studyWords_2.started,studyWords_2.stopped,polyback_7.started,polyback_7.stopped,testWords_2.started,testWords_2.stopped,textScale_2.started,textScale_2.stopped,keyRKN.keys,keyRKN.rt,keyRKN.started,keyRKN.stopped,participant,session,date,expName,psychopyVersion,frameRate,
,,,,,,,,17.125162199838087,None,space,2873.834857000038,17.125162199838087,None,,,,,,,,,,,,,,,,,,,,,,,,,,,,,,,,,,,,,,,,,,,,,,,,,,,,,,,,,,sing26,001,2019_Nov_07_1508,ProdFawcett_Revision2019,3.2.3,60.06334285017094,
,,,,,,,,,,,,,,2890.984055100009,None,space,3.911846000002697,2890.984055100009,None,,,,,,,,,,,,,,,,,,,,,,,,,,,,,,,,,,,,,,,,,,,,,,,,,,,,sing26,001,2019_Nov_07_1508,ProdFawcett_Revision2019,3.2.3,60.06334285017094,
0,0,0,0,,,,,,,,,,,,,,,,,2899.681169099873,None,materials/speakPic.jpg,report,B_aloud,0,259,2896.062032500049,None,2896.062032500049,None,2896.9332310999744,None,2897.1912751998752,None,2897.1912751998752,None,,,,,,,,,,,,,,,,,,,,,,,,,,,,,,,,,,,sing26,001,2019_Nov_07_1508,ProdFawcett_Revision2019,3.2.3,60.06334285017094,
1,0,1,0,,,,,,,,,,,,,,,,,2903.94882579986,None,materials/readPic.jpg,appeal,A_silent,1,9,2900.268048699945,None,2900.268048699945,None,2901.1991087999195,None,2901.448686099844,None,2901.448686099844,None,,,,,,,,,,,,,,,,,,,,,,,,,,,,,,,,,,,sing26,001,2019_Nov_07_1508,ProdFawcett_Revision2019,3.2.3,60.06334285017094,
2,0,2,0,,,,,,,,,,,,,,,,,2908.215811099857,None,materials/readPic.jpg,turkey,A_silent,2,342,2904.5193580000196,None,2904.5193580000196,None,2905.465803799918,None,2905.7306061999407,None,2905.7306061999407,None,,,,,,,,,,,,,,,,,,,,,,,,,,,,,,,,,,,sing26,001,2019_Nov_07_1508,ProdFawcett_Revision2019,3.2.3,60.06334285017094,
3,0,3,0,,,,,,,,,,,,,,,,,2912.482667000033,None,materials/readPic.jpg,rough,A_silent,3,266,2908.7937262998894,None,2908.7937262998894,None,2909.7324120998383,None,2909.9940857000183,None,2909.9940857000183,None,,,,,,,,,,,,,,,,,,,,,,,,,,,,,,,,,,,sing26,001,2019_Nov_07_1508,ProdFawcett_Revision2019,3.2.3,60.06334285017094,
4,0,4,0,,,,,,,,,,,,,,,,,2916.749682100024,None,materials/readPic.jpg,match,A_silent,4,181,2913.0900385000277,None,2913.0900385000277,None,2913.9983234999236,None,2914.2562634998467,None,2914.2562634998467,None,,,,,,,,,,,,,,,,,,,,,,,,,,,,,,,,,,,sing26,001,2019_Nov_07_1508,ProdFawcett_Revision2019,3.2.3,60.06334285017094,
5,0,5,0,,,,,,,,,,,,,,,,,2921.0165629999246,None,materials/speakPic.jpg,second,B_aloud,5,278,2917.3180016998667,None,2917.3180016998667,None,2918.266786699882,None,2918.5231846000534,None,2918.5231846000534,None,,,,,,,,,,,,,,,,,,,,,,,,,,,,,,,,,,,sing26,001,2019_Nov_07_1508,ProdFawcett_Revision2019,3.2.3,60.06334285017094,
6,0,6,0,,,,,,,,,,,,,,,,,2925.2833870998584,None,materials/readPic.jpg,whole,A_silent,6,355,2921.5967539998237,None,2921.5967539998237,None,2922.5338305998594,None,2922.7939448000398,None,2922.7939448000398,None,,,,,,,,,,,,,,,,,,,,,,,,,,,,,,,,,,,sing26,001,2019_Nov_07_1508,ProdFawcett_Revision2019,3.2.3,60.06334285017094,
7,0,7,0,,,,,,,,,,,,,,,,,2929.550529900007,None,materials/singPic.jpg,personnel,C_sing,7,219,2925.86589669995,None,2925.86589669995,None,2926.800628299825,None,2927.060303899925,None,2927.060303899925,None,,,,,,,,,,,,,,,,,,,,,,,,,,,,,,,,,,,sing26,001,2019_Nov_07_1508,ProdFawcett_Revision2019,3.2.3,60.06334285017094,
8,0,8,0,,,,,,,,,,,,,,,,,2933.8166952000465,None,materials/speakPic.jpg,court,B_aloud,8,75,2930.127679700032,None,2930.127679700032,None,2931.0665414000396,None,2931.3268289999105,None,2931.3268289999105,None,,,,,,,,,,,,,,,,,,,,,,,,,,,,,,,,,,,sing26,001,2019_Nov_07_1508,ProdFawcett_Revision2019,3.2.3,60.06334285017094,
9,0,9,0,,,,,,,,,,,,,,,,,2938.0859878000338,None,materials/readPic.jpg,nature,A_silent,9,200,2934.395123699913,None,2934.395123699913,None,2935.3332743998617,None,2935.591075199889,None,2935.591075199889,None,,,,,,,,,,,,,,,,,,,,,,,,,,,,,,,,,,,sing26,001,2019_Nov_07_1508,ProdFawcett_Revision2019,3.2.3,60.06334285017094,
10,0,10,0,,,,,,,,,,,,,,,,,2942.351384199923,None,materials/singPic.jpg,angle,C_sing,10,7,2938.668327799998,None,2938.668327799998,None,2939.6017191000283,None,2939.8634047999512,None,2939.8634047999512,None,,,,,,,,,,,,,,,,,,,,,,,,,,,,,,,,,,,sing26,001,2019_Nov_07_1508,ProdFawcett_Revision2019,3.2.3,60.06334285017094,
11,0,11,0,,,,,,,,,,,,,,,,,2946.619235499995,None,materials/readPic.jpg,audience,A_silent,11,14,2942.922082499834,None,2942.922082499834,None,2943.8686628998257,None,2944.1206730999984,None,2944.1206730999984,None,,,,,,,,,,,,,,,,,,,,,,,,,,,,,,,,,,,sing26,001,2019_Nov_07_1508,ProdFawcett_Revision2019,3.2.3,60.06334285017094,
12,0,12,0,,,,,,,,,,,,,,,,,2950.885293700034,None,materials/singPic.jpg,little,C_sing,12,174,2947.2117959999014,None,2947.2117959999014,None,2948.1354216998443,None,2948.3919028998353,None,2948.3919028998353,None,,,,,,,,,,,,,,,,,,,,,,,,,,,,,,,,,,,sing26,001,2019_Nov_07_1508,ProdFawcett_Revision2019,3.2.3,60.06334285017094,
13,0,13,0,,,,,,,,,,,,,,,,,2955.1520004998893,None,materials/readPic.jpg,resistance,A_silent,13,262,2951.47423729999,None,2951.47423729999,None,2952.402409599861,None,2952.661128199892,None,2952.661128199892,None,,,,,,,,,,,,,,,,,,,,,,,,,,,,,,,,,,,sing26,001,2019_Nov_07_1508,ProdFawcett_Revision2019,3.2.3,60.06334285017094,
14,0,14,0,,,,,,,,,,,,,,,,,2959.4191766998265,None,materials/speakPic.jpg,drink,B_aloud,14,105,2955.69862010004,None,2955.69862010004,None,2956.66930519999,None,2956.926158200018,None,2956.926158200018,None,,,,,,,,,,,,,,,,,,,,,,,,,,,,,,,,,,,sing26,001,2019_Nov_07_1508,ProdFawcett_Revision2019,3.2.3,60.06334285017094,
15,0,15,0,,,,,,,,,,,,,,,,,2963.6861806998495,None,materials/speakPic.jpg,article,B_aloud,15,11,2959.985356299905,None,2959.985356299905,None,2960.9364606000017,None,2961.193095299881,None,2961.193095299881,None,,,,,,,,,,,,,,,,,,,,,,,,,,,,,,,,,,,sing26,001,2019_Nov_07_1508,ProdFawcett_Revision2019,3.2.3,60.06334285017094,
16,0,16,0,,,,,,,,,,,,,,,,,2967.9532065000385,None,materials/speakPic.jpg,reading,B_aloud,16,254,2964.2654801998287,None,2964.2654801998287,None,2965.201908200048,None,2965.4652750999667,None,2965.4652750999667,None,,,,,,,,,,,,,,,,,,,,,,,,,,,,,,,,,,,sing26,001,2019_Nov_07_1508,ProdFawcett_Revision2019,3.2.3,60.06334285017094,
17,0,17,0,,,,,,,,,,,,,,,,,2972.2200931999832,None,materials/readPic.jpg,ground,A_silent,17,142,2968.5630828998983,None,2968.5630828998983,None,2969.468993199989,None,2969.730872399872,None,2969.730872399872,None,,,,,,,,,,,,,,,,,,,,,,,,,,,,,,,,,,,sing26,001,2019_Nov_07_1508,ProdFawcett_Revision2019,3.2.3,60.06334285017094,
18,0,18,0,,,,,,,,,,,,,,,,,2976.486314599868,None,materials/singPic.jpg,pretty,C_sing,18,233,2972.809139000019,None,2972.809139000019,None,2973.7366283000447,None,2973.993525699945,None,2973.993525699945,None,,,,,,,,,,,,,,,,,,,,,,,,,,,,,,,,,,,sing26,001,2019_Nov_07_1508,ProdFawcett_Revision2019,3.2.3,60.06334285017094,
19,0,19,0,,,,,,,,,,,,,,,,,2980.753886099905,None,materials/singPic.jpg,still,C_sing,19,304,2977.079139499925,None,2977.079139499925,None,2978.004457199946,None,2978.2639283000026,None,2978.2639283000026,None,,,,,,,,,,,,,,,,,,,,,,,,,,,,,,,,,,,sing26,001,2019_Nov_07_1508,ProdFawcett_Revision2019,3.2.3,60.06334285017094,
20,0,20,0,,,,,,,,,,,,,,,,,2985.020919499919,None,materials/readPic.jpg,color,A_silent,20,56,2981.324533799896,None,2981.324533799896,None,2982.2712552000303,None,2982.520362799987,None,2982.520362799987,None,,,,,,,,,,,,,,,,,,,,,,,,,,,,,,,,,,,sing26,001,2019_Nov_07_1508,ProdFawcett_Revision2019,3.2.3,60.06334285017094,
21,0,21,0,,,,,,,,,,,,,,,,,2989.2882413999178,None,materials/speakPic.jpg,route,B_aloud,21,267,2985.5960524999537,None,2985.5960524999537,None,2986.5383035000414,None,2986.7940728999674,None,2986.7940728999674,None,,,,,,,,,,,,,,,,,,,,,,,,,,,,,,,,,,,sing26,001,2019_Nov_07_1508,ProdFawcett_Revision2019,3.2.3,60.06334285017094,
22,0,22,0,,,,,,,,,,,,,,,,,2993.554036400048,None,materials/speakPic.jpg,relation,B_aloud,22,257,2989.8578236999456,None,2989.8578236999456,None,2990.804378699977,None,2991.062069899868,None,2991.062069899868,None,,,,,,,,,,,,,,,,,,,,,,,,,,,,,,,,,,,sing26,001,2019_Nov_07_1508,ProdFawcett_Revision2019,3.2.3,60.06334285017094,
23,0,23,0,,,,,,,,,,,,,,,,,2997.8210817000363,None,materials/speakPic.jpg,light,B_aloud,23,171,2994.115465800045,None,2994.115465800045,None,2995.070032999851,None,2995.3221223000437,None,2995.3221223000437,None,,,,,,,,,,,,,,,,,,,,,,,,,,,,,,,,,,,sing26,001,2019_Nov_07_1508,ProdFawcett_Revision2019,3.2.3,60.06334285017094,
24,0,24,0,,,,,,,,,,,,,,,,,3002.089075299911,None,materials/singPic.jpg,height,C_sing,24,152,2998.402057699859,None,2998.402057699859,None,2999.3390621000435,None,2999.599472000031,None,2999.599472000031,None,,,,,,,,,,,,,,,,,,,,,,,,,,,,,,,,,,,sing26,001,2019_Nov_07_1508,ProdFawcett_Revision2019,3.2.3,60.06334285017094,
25,0,25,0,,,,,,,,,,,,,,,,,3006.355658699991,None,materials/speakPic.jpg,scene,B_aloud,25,273,3002.681546699954,None,3002.681546699954,None,3003.606104000006,None,3003.8594770999625,None,3003.8594770999625,None,,,,,,,,,,,,,,,,,,,,,,,,,,,,,,,,,,,sing26,001,2019_Nov_07_1508,ProdFawcett_Revision2019,3.2.3,60.06334285017094,
26,0,26,0,,,,,,,,,,,,,,,,,3010.6230754000135,None,materials/readPic.jpg,pressure,A_silent,26,232,3006.9447019998915,None,3006.9447019998915,None,3007.873628600035,None,3008.12925680005,None,3008.12925680005,None,,,,,,,,,,,,,,,,,,,,,,,,,,,,,,,,,,,sing26,001,2019_Nov_07_1508,ProdFawcett_Revision2019,3.2.3,60.06334285017094,
27,0,27,0,,,,,,,,,,,,,,,,,3014.8916872998234,None,materials/singPic.jpg,household,C_sing,27,154,3011.214588899864,None,3011.214588899864,None,3012.1399743999355,None,3012.397079099901,None,3012.397079099901,None,,,,,,,,,,,,,,,,,,,,,,,,,,,,,,,,,,,sing26,001,2019_Nov_07_1508,ProdFawcett_Revision2019,3.2.3,60.06334285017094,
28,0,28,0,,,,,,,,,,,,,,,,,3019.156593499938,None,materials/readPic.jpg,design,A_silent,28,91,3015.480360900052,None,3015.480360900052,None,3016.4054932999425,None,3016.6667947999667,None,3016.6667947999667,None,,,,,,,,,,,,,,,,,,,,,,,,,,,,,,,,,,,sing26,001,2019_Nov_07_1508,ProdFawcett_Revision2019,3.2.3,60.06334285017094,
29,0,29,0,,,,,,,,,,,,,,,,,3023.4235365998466,None,materials/singPic.jpg,story,C_sing,29,306,3019.7370765998494,None,3019.7370765998494,None,3020.674364599865,None,3020.9300599000417,None,3020.9300599000417,None,,,,,,,,,,,,,,,,,,,,,,,,,,,,,,,,,,,sing26,001,2019_Nov_07_1508,ProdFawcett_Revision2019,3.2.3,60.06334285017094,
30,0,30,0,,,,,,,,,,,,,,,,,3027.6905139999,None,materials/singPic.jpg,danger,C_sing,30,85,3024.032902200008,None,3024.032902200008,None,3024.9483576999046,None,3025.1891218998935,None,3025.1891218998935,None,,,,,,,,,,,,,,,,,,,,,,,,,,,,,,,,,,,sing26,001,2019_Nov_07_1508,ProdFawcett_Revision2019,3.2.3,60.06334285017094,
31,0,31,0,,,,,,,,,,,,,,,,,3031.9575376999564,None,materials/speakPic.jpg,concern,B_aloud,31,65,3028.268529099878,None,3028.268529099878,None,3029.207306899829,None,3029.4667737998534,None,3029.4667737998534,None,,,,,,,,,,,,,,,,,,,,,,,,,,,,,,,,,,,sing26,001,2019_Nov_07_1508,ProdFawcett_Revision2019,3.2.3,60.06334285017094,
32,0,32,0,,,,,,,,,,,,,,,,,3036.224406399997,None,materials/singPic.jpg,platform,C_sing,32,224,3032.545736399945,None,3032.545736399945,None,3033.47526560002,None,3033.7318090999033,None,3033.7318090999033,None,,,,,,,,,,,,,,,,,,,,,,,,,,,,,,,,,,,sing26,001,2019_Nov_07_1508,ProdFawcett_Revision2019,3.2.3,60.06334285017094,
33,0,33,0,,,,,,,,,,,,,,,,,3040.4903498999774,None,materials/speakPic.jpg,murder,B_aloud,33,195,3036.78861209983,None,3036.78861209983,None,3037.740124499891,None,3037.9977170999628,None,3037.9977170999628,None,,,,,,,,,,,,,,,,,,,,,,,,,,,,,,,,,,,sing26,001,2019_Nov_07_1508,ProdFawcett_Revision2019,3.2.3,60.06334285017094,
34,0,34,0,,,,,,,,,,,,,,,,,3044.7583583998494,None,materials/readPic.jpg,gesture,A_silent,34,137,3041.072014400037,None,3041.072014400037,None,3042.0089374999516,None,3042.270072999876,None,3042.270072999876,None,,,,,,,,,,,,,,,,,,,,,,,,,,,,,,,,,,,sing26,001,2019_Nov_07_1508,ProdFawcett_Revision2019,3.2.3,60.06334285017094,
35,0,35,0,,,,,,,,,,,,,,,,,3049.025319899898,None,materials/singPic.jpg,thing,C_sing,35,328,3045.3275832999498,None,3045.3275832999498,None,3046.27560189995,None,3046.5329173000064,None,3046.5329173000064,None,,,,,,,,,,,,,,,,,,,,,,,,,,,,,,,,,,,sing26,001,2019_Nov_07_1508,ProdFawcett_Revision2019,3.2.3,60.06334285017094,
36,0,36,0,,,,,,,,,,,,,,,,,3053.2922280000057,None,materials/readPic.jpg,raise,A_silent,36,250,3049.5974828999024,None,3049.5974828999024,None,3050.542673199903,None,3050.798824099824,None,3050.798824099824,None,,,,,,,,,,,,,,,,,,,,,,,,,,,,,,,,,,,sing26,001,2019_Nov_07_1508,ProdFawcett_Revision2019,3.2.3,60.06334285017094,
37,0,37,0,,,,,,,,,,,,,,,,,3057.559273999883,None,materials/readPic.jpg,figure,A_silent,37,128,3053.871596199926,None,3053.871596199926,None,3054.807988299988,None,3055.0574983998667,None,3055.0574983998667,None,,,,,,,,,,,,,,,,,,,,,,,,,,,,,,,,,,,sing26,001,2019_Nov_07_1508,ProdFawcett_Revision2019,3.2.3,60.06334285017094,
38,0,38,0,,,,,,,,,,,,,,,,,3061.82617759984,None,materials/readPic.jpg,chief,A_silent,38,48,3058.129020099994,None,3058.129020099994,None,3059.0761831998825,None,3059.3325426999945,None,3059.3325426999945,None,,,,,,,,,,,,,,,,,,,,,,,,,,,,,,,,,,,sing26,001,2019_Nov_07_1508,ProdFawcett_Revision2019,3.2.3,60.06334285017094,
39,0,39,0,,,,,,,,,,,,,,,,,3066.093143899925,None,materials/speakPic.jpg,dream,B_aloud,39,104,3062.385646400042,None,3062.385646400042,None,3063.3431978998706,None,3063.598654799862,None,3063.598654799862,None,,,,,,,,,,,,,,,,,,,,,,,,,,,,,,,,,,,sing26,001,2019_Nov_07_1508,ProdFawcett_Revision2019,3.2.3,60.06334285017094,
40,0,40,0,,,,,,,,,,,,,,,,,3070.3600701999385,None,materials/singPic.jpg,season,C_sing,40,277,3066.688039199915,None,3066.688039199915,None,3067.6101827998646,None,3067.868169100024,None,3067.868169100024,None,,,,,,,,,,,,,,,,,,,,,,,,,,,,,,,,,,,sing26,001,2019_Nov_07_1508,ProdFawcett_Revision2019,3.2.3,60.06334285017094,
41,0,41,0,,,,,,,,,,,,,,,,,3074.6270184000023,None,materials/singPic.jpg,pancakes,C_sing,41,210,3070.9355307999067,None,3070.9355307999067,None,3071.8771508999635,None,3072.1388918999583,None,3072.1388918999583,None,,,,,,,,,,,,,,,,,,,,,,,,,,,,,,,,,,,sing26,001,2019_Nov_07_1508,ProdFawcett_Revision2019,3.2.3,60.06334285017094,
42,0,42,0,,,,,,,,,,,,,,,,,3078.893878699979,None,materials/singPic.jpg,dance,C_sing,42,84,3075.2224081000313,None,3075.2224081000313,None,3076.1442923999857,None,3076.4005746999756,None,3076.4005746999756,None,,,,,,,,,,,,,,,,,,,,,,,,,,,,,,,,,,,sing26,001,2019_Nov_07_1508,ProdFawcett_Revision2019,3.2.3,60.06334285017094,
43,0,43,0,,,,,,,,,,,,,,,,,3083.1608092999086,None,materials/readPic.jpg,center,A_silent,43,44,3079.4767713998444,None,3079.4767713998444,None,3080.410768899834,None,3080.667737999931,None,3080.667737999931,None,,,,,,,,,,,,,,,,,,,,,,,,,,,,,,,,,,,sing26,001,2019_Nov_07_1508,ProdFawcett_Revision2019,3.2.3,60.06334285017094,
44,0,44,0,,,,,,,,,,,,,,,,,3087.427893499844,None,materials/singPic.jpg,broad,C_sing,44,31,3083.745828300016,None,3083.745828300016,None,3084.6769601998385,None,3084.930665699998,None,3084.930665699998,None,,,,,,,,,,,,,,,,,,,,,,,,,,,,,,,,,,,sing26,001,2019_Nov_07_1508,ProdFawcett_Revision2019,3.2.3,60.06334285017094,
45,0,45,0,,,,,,,,,,,,,,,,,3091.694850199856,None,materials/readPic.jpg,direction,A_silent,45,94,3088.010906700045,None,3088.010906700045,None,3088.9446882000193,None,3089.2048335999716,None,3089.2048335999716,None,,,,,,,,,,,,,,,,,,,,,,,,,,,,,,,,,,,sing26,001,2019_Nov_07_1508,ProdFawcett_Revision2019,3.2.3,60.06334285017094,
46,0,46,0,,,,,,,,,,,,,,,,,3095.9616886998992,None,materials/singPic.jpg,skill,C_sing,46,289,3092.297875399934,None,3092.297875399934,None,3093.2121510000434,None,3093.467626999831,None,3093.467626999831,None,,,,,,,,,,,,,,,,,,,,,,,,,,,,,,,,,,,sing26,001,2019_Nov_07_1508,ProdFawcett_Revision2019,3.2.3,60.06334285017094,
47,0,47,0,,,,,,,,,,,,,,,,,3100.228662899928,None,materials/readPic.jpg,trail,A_silent,47,336,3096.572829299839,None,3096.572829299839,None,3097.4787645998877,None,3097.7350923998747,None,3097.7350923998747,None,,,,,,,,,,,,,,,,,,,,,,,,,,,,,,,,,,,sing26,001,2019_Nov_07_1508,ProdFawcett_Revision2019,3.2.3,60.06334285017094,
48,0,48,0,,,,,,,,,,,,,,,,,3104.495180899976,None,materials/readPic.jpg,sweet,A_silent,48,319,3100.771679199999,None,3100.771679199999,None,3101.744061099831,None,3101.9963165998925,None,3101.9963165998925,None,,,,,,,,,,,,,,,,,,,,,,,,,,,,,,,,,,,sing26,001,2019_Nov_07_1508,ProdFawcett_Revision2019,3.2.3,60.06334285017094,
49,0,49,0,,,,,,,,,,,,,,,,,3108.762578499969,None,materials/singPic.jpg,medicine,C_sing,49,186,3105.0504349998664,None,3105.0504349998664,None,3106.0129273999482,None,3106.2697041998617,None,3106.2697041998617,None,,,,,,,,,,,,,,,,,,,,,,,,,,,,,,,,,,,sing26,001,2019_Nov_07_1508,ProdFawcett_Revision2019,3.2.3,60.06334285017094,
50,0,50,0,,,,,,,,,,,,,,,,,3113.0289292000234,None,materials/readPic.jpg,candidate,A_silent,50,39,3109.331717599882,None,3109.331717599882,None,3110.2785658000503,None,3110.5364276999608,None,3110.5364276999608,None,,,,,,,,,,,,,,,,,,,,,,,,,,,,,,,,,,,sing26,001,2019_Nov_07_1508,ProdFawcett_Revision2019,3.2.3,60.06334285017094,
51,0,51,0,,,,,,,,,,,,,,,,,3117.2964865998365,None,materials/readPic.jpg,music,A_silent,51,196,3113.6150582998525,None,3113.6150582998525,None,3114.54647309985,None,3114.820757499896,None,3114.820757499896,None,,,,,,,,,,,,,,,,,,,,,,,,,,,,,,,,,,,sing26,001,2019_Nov_07_1508,ProdFawcett_Revision2019,3.2.3,60.06334285017094,
52,0,52,0,,,,,,,,,,,,,,,,,3121.563488899963,None,materials/singPic.jpg,watch,C_sing,52,351,3117.8882525998633,None,3117.8882525998633,None,3118.8142692998517,None,3119.0702257000376,None,3119.0702257000376,None,,,,,,,,,,,,,,,,,,,,,,,,,,,,,,,,,,,sing26,001,2019_Nov_07_1508,ProdFawcett_Revision2019,3.2.3,60.06334285017094,
53,0,53,0,,,,,,,,,,,,,,,,,3125.8306686000433,None,materials/singPic.jpg,sunset,C_sing,53,315,3122.144209299935,None,3122.144209299935,None,3123.0806974000297,None,3123.3369533000514,None,3123.3369533000514,None,,,,,,,,,,,,,,,,,,,,,,,,,,,,,,,,,,,sing26,001,2019_Nov_07_1508,ProdFawcett_Revision2019,3.2.3,60.06334285017094,
54,0,54,0,,,,,,,,,,,,,,,,,3130.097141999984,None,materials/readPic.jpg,bucket,A_silent,54,33,3126.443644999992,None,3126.443644999992,None,3127.347561500035,None,3127.606803199975,None,3127.606803199975,None,,,,,,,,,,,,,,,,,,,,,,,,,,,,,,,,,,,sing26,001,2019_Nov_07_1508,ProdFawcett_Revision2019,3.2.3,60.06334285017094,
55,0,55,0,,,,,,,,,,,,,,,,,3134.364309199853,None,materials/singPic.jpg,frank,C_sing,55,133,3130.6649823999032,None,3130.6649823999032,None,3131.6154789000284,None,3131.8702340999153,None,3131.8702340999153,None,,,,,,,,,,,,,,,,,,,,,,,,,,,,,,,,,,,sing26,001,2019_Nov_07_1508,ProdFawcett_Revision2019,3.2.3,60.06334285017094,
56,0,56,0,,,,,,,,,,,,,,,,,3138.6313705998473,None,materials/singPic.jpg,bicycle,C_sing,56,21,3134.9476886000484,None,3134.9476886000484,None,3135.881798799848,None,3136.14301349991,None,3136.14301349991,None,,,,,,,,,,,,,,,,,,,,,,,,,,,,,,,,,,,sing26,001,2019_Nov_07_1508,ProdFawcett_Revision2019,3.2.3,60.06334285017094,
57,0,57,0,,,,,,,,,,,,,,,,,3142.898207799997,None,materials/speakPic.jpg,weight,B_aloud,57,353,3139.2057544998825,None,3139.2057544998825,None,3140.1483113998547,None,3140.4175831999164,None,3140.4175831999164,None,,,,,,,,,,,,,,,,,,,,,,,,,,,,,,,,,,,sing26,001,2019_Nov_07_1508,ProdFawcett_Revision2019,3.2.3,60.06334285017094,
58,0,58,0,,,,,,,,,,,,,,,,,3147.165248699952,None,materials/speakPic.jpg,balance,B_aloud,58,17,3143.463685599854,None,3143.463685599854,None,3144.415664299857,None,3144.676841299981,None,3144.676841299981,None,,,,,,,,,,,,,,,,,,,,,,,,,,,,,,,,,,,sing26,001,2019_Nov_07_1508,ProdFawcett_Revision2019,3.2.3,60.06334285017094,
59,0,59,0,,,,,,,,,,,,,,,,,3151.4319143998437,None,materials/readPic.jpg,review,A_silent,59,263,3147.7374517999124,None,3147.7374517999124,None,3148.6825625000056,None,3148.945015999954,None,3148.945015999954,None,,,,,,,,,,,,,,,,,,,,,,,,,,,,,,,,,,,sing26,001,2019_Nov_07_1508,ProdFawcett_Revision2019,3.2.3,60.06334285017094,
60,0,60,0,,,,,,,,,,,,,,,,,3155.699219299946,None,materials/singPic.jpg,crime,C_sing,60,78,3152.0387770999223,None,3152.0387770999223,None,3152.949200999923,None,3153.2056694000494,None,3153.2056694000494,None,,,,,,,,,,,,,,,,,,,,,,,,,,,,,,,,,,,sing26,001,2019_Nov_07_1508,ProdFawcett_Revision2019,3.2.3,60.06334285017094,
61,0,61,0,,,,,,,,,,,,,,,,,3159.9664234998636,None,materials/singPic.jpg,portion,C_sing,61,228,3156.2845465999562,None,3156.2845465999562,None,3157.2165854000486,None,3157.471826599911,None,3157.471826599911,None,,,,,,,,,,,,,,,,,,,,,,,,,,,,,,,,,,,sing26,001,2019_Nov_07_1508,ProdFawcett_Revision2019,3.2.3,60.06334285017094,
62,0,62,0,,,,,,,,,,,,,,,,,3164.233140999917,None,materials/speakPic.jpg,provision,B_aloud,62,243,3160.5156399998814,None,3160.5156399998814,None,3161.4835625998676,None,3161.737001299858,None,3161.737001299858,None,,,,,,,,,,,,,,,,,,,,,,,,,,,,,,,,,,,sing26,001,2019_Nov_07_1508,ProdFawcett_Revision2019,3.2.3,60.06334285017094,
63,0,63,0,,,,,,,,,,,,,,,,,3168.4999561998993,None,materials/readPic.jpg,appearance,A_silent,63,10,3164.8250384998973,None,3164.8250384998973,None,3165.7501103999093,None,3166.0085515999235,None,3166.0085515999235,None,,,,,,,,,,,,,,,,,,,,,,,,,,,,,,,,,,,sing26,001,2019_Nov_07_1508,ProdFawcett_Revision2019,3.2.3,60.06334285017094,
64,0,64,0,,,,,,,,,,,,,,,,,3172.7669259000104,None,materials/speakPic.jpg,collection,B_aloud,64,54,3169.107039100025,None,3169.107039100025,None,3170.0161144998856,None,3170.275053799851,None,3170.275053799851,None,,,,,,,,,,,,,,,,,,,,,,,,,,,,,,,,,,,sing26,001,2019_Nov_07_1508,ProdFawcett_Revision2019,3.2.3,60.06334285017094,
65,0,65,0,,,,,,,,,,,,,,,,,3177.033880800009,None,materials/speakPic.jpg,quick,B_aloud,65,248,3173.3204947998747,None,3173.3204947998747,None,3174.2842027998995,None,3174.5516313000116,None,3174.5516313000116,None,,,,,,,,,,,,,,,,,,,,,,,,,,,,,,,,,,,sing26,001,2019_Nov_07_1508,ProdFawcett_Revision2019,3.2.3,60.06334285017094,
66,0,66,0,,,,,,,,,,,,,,,,,3181.3007765999064,None,materials/readPic.jpg,clean,A_silent,66,51,3177.6711611000355,None,3177.6711611000355,None,3178.5508514998946,None,3178.8024948998354,None,3178.8024948998354,None,,,,,,,,,,,,,,,,,,,,,,,,,,,,,,,,,,,sing26,001,2019_Nov_07_1508,ProdFawcett_Revision2019,3.2.3,60.06334285017094,
67,0,67,0,,,,,,,,,,,,,,,,,3185.567898100009,None,materials/readPic.jpg,strength,A_silent,67,310,3181.8698861999437,None,3181.8698861999437,None,3182.8187259999104,None,3183.0795839000493,None,3183.0795839000493,None,,,,,,,,,,,,,,,,,,,,,,,,,,,,,,,,,,,sing26,001,2019_Nov_07_1508,ProdFawcett_Revision2019,3.2.3,60.06334285017094,
68,0,68,0,,,,,,,,,,,,,,,,,3189.834674099926,None,materials/speakPic.jpg,budget,B_aloud,68,34,3186.146802000003,None,3186.146802000003,None,3187.0872571999207,None,3187.347614799859,None,3187.347614799859,None,,,,,,,,,,,,,,,,,,,,,,,,,,,,,,,,,,,sing26,001,2019_Nov_07_1508,ProdFawcett_Revision2019,3.2.3,60.06334285017094,
69,0,69,0,,,,,,,,,,,,,,,,,3194.1007852000184,None,materials/singPic.jpg,government,C_sing,69,139,3190.42431199993,None,3190.42431199993,None,3191.354276499944,None,3191.61811219994,None,3191.61811219994,None,,,,,,,,,,,,,,,,,,,,,,,,,,,,,,,,,,,sing26,001,2019_Nov_07_1508,ProdFawcett_Revision2019,3.2.3,60.06334285017094,
70,0,70,0,,,,,,,,,,,,,,,,,3198.3687140999828,None,materials/speakPic.jpg,answer,B_aloud,70,8,3194.67493800004,None,3194.67493800004,None,3195.61871109996,None,3195.8804933000356,None,3195.8804933000356,None,,,,,,,,,,,,,,,,,,,,,,,,,,,,,,,,,,,sing26,001,2019_Nov_07_1508,ProdFawcett_Revision2019,3.2.3,60.06334285017094,
71,0,71,0,,,,,,,,,,,,,,,,,3202.6356095999945,None,materials/speakPic.jpg,month,B_aloud,71,193,3198.954539499944,None,3198.954539499944,None,3199.890045200009,None,3200.141930999933,None,3200.141930999933,None,,,,,,,,,,,,,,,,,,,,,,,,,,,,,,,,,,,sing26,001,2019_Nov_07_1508,ProdFawcett_Revision2019,3.2.3,60.06334285017094,
72,0,72,0,,,,,,,,,,,,,,,,,3206.9028662999626,None,materials/readPic.jpg,rapid,A_silent,72,252,3203.2118639999535,None,3203.2118639999535,None,3204.1529834000394,None,3204.4091924999375,None,3204.4091924999375,None,,,,,,,,,,,,,,,,,,,,,,,,,,,,,,,,,,,sing26,001,2019_Nov_07_1508,ProdFawcett_Revision2019,3.2.3,60.06334285017094,
73,0,73,0,,,,,,,,,,,,,,,,,3211.1695071998984,None,materials/speakPic.jpg,impact,B_aloud,73,157,3207.50537899998,None,3207.50537899998,None,3208.419944799971,None,3208.675983299967,None,3208.675983299967,None,,,,,,,,,,,,,,,,,,,,,,,,,,,,,,,,,,,sing26,001,2019_Nov_07_1508,ProdFawcett_Revision2019,3.2.3,60.06334285017094,
74,0,74,0,,,,,,,,,,,,,,,,,3215.4363563000225,None,materials/singPic.jpg,permit,C_sing,74,218,3211.758071699878,None,3211.758071699878,None,3212.687188199954,None,3212.9441523998976,None,3212.9441523998976,None,,,,,,,,,,,,,,,,,,,,,,,,,,,,,,,,,,,sing26,001,2019_Nov_07_1508,ProdFawcett_Revision2019,3.2.3,60.06334285017094,
75,0,75,0,,,,,,,,,,,,,,,,,3219.7036716998555,None,materials/speakPic.jpg,running,B_aloud,75,268,3216.0447698000353,None,3216.0447698000353,None,3216.9543579998426,None,3217.214474099921,None,3217.214474099921,None,,,,,,,,,,,,,,,,,,,,,,,,,,,,,,,,,,,sing26,001,2019_Nov_07_1508,ProdFawcett_Revision2019,3.2.3,60.06334285017094,
76,0,76,0,,,,,,,,,,,,,,,,,3223.970372800017,None,materials/speakPic.jpg,defeat,B_aloud,76,88,3220.269009700045,None,3220.269009700045,None,3221.2205523999874,None,3221.476999499835,None,3221.476999499835,None,,,,,,,,,,,,,,,,,,,,,,,,,,,,,,,,,,,sing26,001,2019_Nov_07_1508,ProdFawcett_Revision2019,3.2.3,60.06334285017094,
77,0,77,0,,,,,,,,,,,,,,,,,3228.2373148000333,None,materials/readPic.jpg,crowd,A_silent,77,81,3224.5973608000204,None,3224.5973608000204,None,3225.4859803998843,None,3225.741114599863,None,3225.741114599863,None,,,,,,,,,,,,,,,,,,,,,,,,,,,,,,,,,,,sing26,001,2019_Nov_07_1508,ProdFawcett_Revision2019,3.2.3,60.06334285017094,
78,0,78,0,,,,,,,,,,,,,,,,,3232.5042367998976,None,materials/speakPic.jpg,position,B_aloud,78,229,3228.813464799896,None,3228.813464799896,None,3229.754547700053,None,3230.0115408999845,None,3230.0115408999845,None,,,,,,,,,,,,,,,,,,,,,,,,,,,,,,,,,,,sing26,001,2019_Nov_07_1508,ProdFawcett_Revision2019,3.2.3,60.06334285017094,
79,0,79,0,,,,,,,,,,,,,,,,,3236.7712560999207,None,materials/speakPic.jpg,capital,B_aloud,79,40,3233.073130100034,None,3233.073130100034,None,3234.0215312000364,None,3234.2813285000157,None,3234.2813285000157,None,,,,,,,,,,,,,,,,,,,,,,,,,,,,,,,,,,,sing26,001,2019_Nov_07_1508,ProdFawcett_Revision2019,3.2.3,60.06334285017094,
80,0,80,0,,,,,,,,,,,,,,,,,3241.0385675998405,None,materials/singPic.jpg,broke,C_sing,80,32,3237.3271365999244,None,3237.3271365999244,None,3238.2920134000015,None,3238.547066199826,None,3238.547066199826,None,,,,,,,,,,,,,,,,,,,,,,,,,,,,,,,,,,,sing26,001,2019_Nov_07_1508,ProdFawcett_Revision2019,3.2.3,60.06334285017094,
81,0,81,0,,,,,,,,,,,,,,,,,3245.305193499895,None,materials/speakPic.jpg,weather,B_aloud,81,352,3241.616130999988,None,3241.616130999988,None,3242.5555082999635,None,3242.8160496999044,None,3242.8160496999044,None,,,,,,,,,,,,,,,,,,,,,,,,,,,,,,,,,,,sing26,001,2019_Nov_07_1508,ProdFawcett_Revision2019,3.2.3,60.06334285017094,
82,0,82,0,,,,,,,,,,,,,,,,,3249.572081899969,None,materials/singPic.jpg,welcome,C_sing,82,354,3245.8947592000477,None,3245.8947592000477,None,3246.822624000022,None,3247.0848427000456,None,3247.0848427000456,None,,,,,,,,,,,,,,,,,,,,,,,,,,,,,,,,,,,sing26,001,2019_Nov_07_1508,ProdFawcett_Revision2019,3.2.3,60.06334285017094,
83,0,83,0,,,,,,,,,,,,,,,,,3253.8393731999677,None,materials/speakPic.jpg,council,B_aloud,83,71,3250.1420433998574,None,3250.1420433998574,None,3251.0893737999722,None,3251.345850300044,None,3251.345850300044,None,,,,,,,,,,,,,,,,,,,,,,,,,,,,,,,,,,,sing26,001,2019_Nov_07_1508,ProdFawcett_Revision2019,3.2.3,60.06334285017094,
84,0,84,0,,,,,,,,,,,,,,,,,3258.105950899888,None,materials/speakPic.jpg,space,B_aloud,84,297,3254.403282099869,None,3254.403282099869,None,3255.3550137998536,None,3255.6133989000227,None,3255.6133989000227,None,,,,,,,,,,,,,,,,,,,,,,,,,,,,,,,,,,,sing26,001,2019_Nov_07_1508,ProdFawcett_Revision2019,3.2.3,60.06334285017094,
85,0,85,0,,,,,,,,,,,,,,,,,3262.3729101000354,None,materials/singPic.jpg,problem,C_sing,85,238,3258.6901382999495,None,3258.6901382999495,None,3259.6264013999607,None,3259.8868595999666,None,3259.8868595999666,None,,,,,,,,,,,,,,,,,,,,,,,,,,,,,,,,,,,sing26,001,2019_Nov_07_1508,ProdFawcett_Revision2019,3.2.3,60.06334285017094,
86,0,86,0,,,,,,,,,,,,,,,,,3266.639050199883,None,materials/speakPic.jpg,voice,B_aloud,86,348,3262.946919400012,None,3262.946919400012,None,3263.8910357998684,None,3264.144379899837,None,3264.144379899837,None,,,,,,,,,,,,,,,,,,,,,,,,,,,,,,,,,,,sing26,001,2019_Nov_07_1508,ProdFawcett_Revision2019,3.2.3,60.06334285017094,
87,0,87,0,,,,,,,,,,,,,,,,,3270.9068596998695,None,materials/singPic.jpg,couch,C_sing,87,70,3267.2262392998673,None,3267.2262392998673,None,3268.157733999891,None,3268.413308299845,None,3268.413308299845,None,,,,,,,,,,,,,,,,,,,,,,,,,,,,,,,,,,,sing26,001,2019_Nov_07_1508,ProdFawcett_Revision2019,3.2.3,60.06334285017094,
88,0,88,0,,,,,,,,,,,,,,,,,3275.1738616998773,None,materials/singPic.jpg,graduate,C_sing,88,141,3271.485266600037,None,3271.485266600037,None,3272.42400670005,None,3272.692036599852,None,3272.692036599852,None,,,,,,,,,,,,,,,,,,,,,,,,,,,,,,,,,,,sing26,001,2019_Nov_07_1508,ProdFawcett_Revision2019,3.2.3,60.06334285017094,
89,0,89,0,,,,,,,,,,,,,,,,,3279.4404580998234,None,materials/readPic.jpg,hunger,A_silent,89,155,3275.7666159998626,None,3275.7666159998626,None,3276.692929999903,None,3276.9532820000313,None,3276.9532820000313,None,,,,,,,,,,,,,,,,,,,,,,,,,,,,,,,,,,,sing26,001,2019_Nov_07_1508,ProdFawcett_Revision2019,3.2.3,60.06334285017094,
,,,,,,,,,,,,,,,,,,,,,,,,,,,,,,,,,,,,,3279.9408928998746,None,k,52.74700770014897,3279.9408928998746,None,,,,,,,,,,,,,,,,,,,,,,,,,,,,,sing26,001,2019_Nov_07_1508,ProdFawcett_Revision2019,3.2.3,60.06334285017094,
,,,,,,,,,,,,,,3332.7111608998384,None,space,2.7208324000239372,3332.7111608998384,None,,,,,,,,,,,,,,,,,,,,,,,,,,,,,,,,,,,,,,,,,,,,,,,,,,,,sing26,001,2019_Nov_07_1508,ProdFawcett_Revision2019,3.2.3,60.06334285017094,
,,,,0,0,0,0,,,,,,,,,,,,,3351.09693959984,None,,,,,,,,,,,,,,,,,,,,,,marriage,D_new,0,179,3335.986092899926,None,3335.986092899926,None,3335.986092899926,None,2,10.189730500103906,3335.986092899926,None,3346.220316799823,None,3346.220316799823,None,3346.7496714999434,None,3346.7496714999434,None,3346.7496714999434,None,f,4.298210399923846,3346.7496714999434,None,sing26,001,2019_Nov_07_1508,ProdFawcett_Revision2019,3.2.3,60.06334285017094,
,,,,1,0,1,0,,,,,,,,,,,,,3366.08546620002,None,,,,,,,,,,,,,,,,,,,,,,shock,D_new,1,284,3351.6275577999186,None,3351.6275577999186,None,3351.6275577999186,None,2,4.132446599891409,3351.6275577999186,None,3355.799460500013,None,3355.799460500013,None,3356.3201003998984,None,3356.3201003998984,None,3356.3201003998984,None,n,9.743638599989936,3356.3201003998984,None,sing26,001,2019_Nov_07_1508,ProdFawcett_Revision2019,3.2.3,60.06334285017094,
,,,,2,0,2,0,,,,,,,,,,,,,3373.7776601999067,None,,,,,,,,,,,,,,,,,,,,,,center,A_silent,2,44,3366.6129143999424,None,3366.6129143999424,None,3366.6129143999424,None,5,3.4833998000249267,3366.6129143999424,None,3370.133028500015,None,3370.133028500015,None,3370.660213300027,None,3370.660213300027,None,3370.660213300027,None,f,3.0756714998278767,3370.660213300027,None,sing26,001,2019_Nov_07_1508,ProdFawcett_Revision2019,3.2.3,60.06334285017094,
,,,,3,0,3,0,,,,,,,,,,,,,3380.811570599908,None,,,,,,,,,,,,,,,,,,,,,,story,C_sing,3,306,3374.299298299942,None,3374.299298299942,None,3374.299298299942,None,6,4.300606200005859,3374.299298299942,None,3378.652069399832,None,3378.652069399832,None,3379.178396599833,None,3379.178396599833,None,3379.178396599833,None,r,1.5894339999649674,3379.178396599833,None,sing26,001,2019_Nov_07_1508,ProdFawcett_Revision2019,3.2.3,60.06334285017094,
,,,,4,0,4,0,,,,,,,,,,,,,3390.416071200045,None,,,,,,,,,,,,,,,,,,,,,,century,D_new,4,45,3381.331578799989,None,3381.331578799989,None,3381.331578799989,None,6,4.1402724999934435,3381.331578799989,None,3385.5258283999283,None,3385.5258283999283,None,3386.045008599991,None,3386.045008599991,None,3386.045008599991,None,r,4.322895699879155,3386.045008599991,None,sing26,001,2019_Nov_07_1508,ProdFawcett_Revision2019,3.2.3,60.06334285017094,
,,,,5,0,5,0,,,,,,,,,,,,,3398.0479782000184,None,,,,,,,,,,,,,,,,,,,,,,group,D_new,5,143,3390.9531498998404,None,3390.9531498998404,None,3390.9531498998404,None,5,5.206479400163516,3390.9531498998404,None,3396.1950695000123,None,3396.1950695000123,None,3396.711513499962,None,3396.711513499962,None,3396.711513499962,None,f,1.3043945000972599,3396.711513499962,None,sing26,001,2019_Nov_07_1508,ProdFawcett_Revision2019,3.2.3,60.06334285017094,
,,,,6,0,6,0,,,,,,,,,,,,,3404.3370921998285,None,,,,,,,,,,,,,,,,,,,,,,sunset,C_sing,6,315,3398.564472500002,None,3398.564472500002,None,3398.564472500002,None,4,4.139347800053656,3398.564472500002,None,3402.754325899994,None,3402.754325899994,None,3403.2790940999985,None,3403.2790940999985,None,3403.2790940999985,None,n,1.0328267000149935,3403.2790940999985,None,sing26,001,2019_Nov_07_1508,ProdFawcett_Revision2019,3.2.3,60.06334285017094,
,,,,7,0,7,0,,,,,,,,,,,,,3409.9248579998966,None,,,,,,,,,,,,,,,,,,,,,,capital,B_aloud,7,40,3404.8649468999356,None,3404.8649468999356,None,3404.8649468999356,None,6,3.686952499905601,3404.8649468999356,None,3408.6156528999563,None,3408.6156528999563,None,3409.135242599994,None,3409.135242599994,None,3409.135242599994,None,r,0.7605770002119243,3409.135242599994,None,sing26,001,2019_Nov_07_1508,ProdFawcett_Revision2019,3.2.3,60.06334285017094,
,,,,8,0,8,0,,,,,,,,,,,,,3416.1071957999375,None,,,,,,,,,,,,,,,,,,,,,,turkey,A_silent,8,342,3410.45146859996,None,3410.45146859996,None,3410.45146859996,None,6,3.0763463999610394,3410.45146859996,None,3413.566916399868,None,3413.566916399868,None,3414.092339399969,None,3414.092339399969,None,3414.092339399969,None,r,1.9793522998224944,3414.092339399969,None,sing26,001,2019_Nov_07_1508,ProdFawcett_Revision2019,3.2.3,60.06334285017094,
,,,,9,0,9,0,,,,,,,,,,,,,3420.9327610000037,None,,,,,,,,,,,,,,,,,,,,,,state,D_new,9,303,3416.6299206998665,None,3416.6299206998665,None,3416.6299206998665,None,1,2.3779826001264155,3416.6299206998665,None,3419.048182999948,None,3419.048182999948,None,3419.5633020999376,None,3419.5633020999376,None,3419.5633020999376,None,n,1.3245840000454336,3419.5633020999376,None,sing26,001,2019_Nov_07_1508,ProdFawcett_Revision2019,3.2.3,60.06334285017094,
,,,,10,0,10,0,,,,,,,,,,,,,3428.4417908999603,None,,,,,,,,,,,,,,,,,,,,,,gesture,A_silent,10,137,3421.454742599977,None,3421.454742599977,None,3421.454742599977,None,3,4.97718230006285,3421.454742599977,None,3426.467980899848,None,3426.467980899848,None,3426.981328099966,None,3426.981328099966,None,3426.981328099966,None,n,1.426673100097105,3426.981328099966,None,sing26,001,2019_Nov_07_1508,ProdFawcett_Revision2019,3.2.3,60.06334285017094,
,,,,11,0,11,0,,,,,,,,,,,,,3433.1640657000244,None,,,,,,,,,,,,,,,,,,,,,,murder,B_aloud,11,195,3428.966472500004,None,3428.966472500004,None,3428.966472500004,None,1,2.1054138999897987,3428.966472500004,None,3431.11849100003,None,3431.11849100003,None,3431.631894899998,None,3431.631894899998,None,3431.631894899998,None,n,1.49598959996365,3431.631894899998,None,sing26,001,2019_Nov_07_1508,ProdFawcett_Revision2019,3.2.3,60.06334285017094,
,,,,12,0,12,0,,,,,,,,,,,,,3438.2474120999686,None,,,,,,,,,,,,,,,,,,,,,,weight,B_aloud,12,353,3433.6793796999846,None,3433.6793796999846,None,3433.6793796999846,None,4,3.344461499946192,3433.6793796999846,None,3437.0823671999387,None,3437.0823671999387,None,3437.6001088998746,None,3437.6001088998746,None,3437.6001088998746,None,f,0.6159590999595821,3437.6001088998746,None,sing26,001,2019_Nov_07_1508,ProdFawcett_Revision2019,3.2.3,60.06334285017094,
,,,,13,0,13,0,,,,,,,,,,,,,3444.0802185998764,None,,,,,,,,,,,,,,,,,,,,,,right,D_new,13,265,3438.7697192998603,None,3438.7697192998603,None,3438.7697192998603,None,3,3.4782342000398785,3438.7697192998603,None,3442.29107269994,None,3442.29107269994,None,3442.8174317998346,None,3442.8174317998346,None,3442.8174317998346,None,f,1.2225878001190722,3442.8174317998346,None,sing26,001,2019_Nov_07_1508,ProdFawcett_Revision2019,3.2.3,60.06334285017094,
,,,,14,0,14,0,,,,,,,,,,,,,3449.391033699969,None,,,,,,,,,,,,,,,,,,,,,,worker,D_new,14,356,3444.5994287999347,None,3444.5994287999347,None,3444.5994287999347,None,4,3.49673720006831,3444.5994287999347,None,3448.1510150998365,None,3448.1510150998365,None,3448.6664219000377,None,3448.6664219000377,None,3448.6664219000377,None,f,0.693516599945724,3448.6664219000377,None,sing26,001,2019_Nov_07_1508,ProdFawcett_Revision2019,3.2.3,60.06334285017094,
,,,,15,0,15,0,,,,,,,,,,,,,3454.25009999983,None,,,,,,,,,,,,,,,,,,,,,,object,D_new,15,204,3449.9174350998364,None,3449.9174350998364,None,3449.9174350998364,None,1,3.426541600143537,3449.9174350998364,None,3453.3947711999062,None,3453.3947711999062,None,3453.920107499929,None,3453.920107499929,None,3453.920107499929,None,n,0.287872500019148,3453.920107499929,None,sing26,001,2019_Nov_07_1508,ProdFawcett_Revision2019,3.2.3,60.06334285017094,
,,,,16,0,16,0,,,,,,,,,,,,,3459.785164099885,None,,,,,,,,,,,,,,,,,,,,,,reading,B_aloud,16,254,3454.775603799848,None,3454.775603799848,None,3454.775603799848,None,3,3.408452099887654,3454.775603799848,None,3458.225983500015,None,3458.225983500015,None,3458.7498847998213,None,3458.7498847998213,None,3458.7498847998213,None,f,0.9939645000267774,3458.7498847998213,None,sing26,001,2019_Nov_07_1508,ProdFawcett_Revision2019,3.2.3,60.06334285017094,
,,,,17,0,17,0,,,,,,,,,,,,,3465.0354241998866,None,,,,,,,,,,,,,,,,,,,,,,audience,A_silent,17,14,3460.305534400046,None,3460.305534400046,None,3460.305534400046,None,1,3.7905117000918835,3460.305534400046,None,3464.144806599943,None,3464.144806599943,None,3464.6683761000168,None,3464.6683761000168,None,3464.6683761000168,None,n,0.3315406001638621,3464.6683761000168,None,sing26,001,2019_Nov_07_1508,ProdFawcett_Revision2019,3.2.3,60.06334285017094,
,,,,18,0,18,0,,,,,,,,,,,,,3469.2156134999823,None,,,,,,,,,,,,,,,,,,,,,,concern,B_aloud,18,65,3465.5536293999758,None,3465.5536293999758,None,3465.5536293999758,None,5,2.734303400153294,3465.5536293999758,None,3468.3229481999297,None,3468.3229481999297,None,3468.8501138000283,None,3468.8501138000283,None,3468.8501138000283,None,f,0.33434720011428,3468.8501138000283,None,sing26,001,2019_Nov_07_1508,ProdFawcett_Revision2019,3.2.3,60.06334285017094,
,,,,19,0,19,0,,,,,,,,,,,,,3478.302455900004,None,,,,,,,,,,,,,,,,,,,,,,broke,C_sing,19,32,3469.7542946999893,None,3469.7542946999893,None,3469.7542946999893,None,6,6.00554129993543,3469.7542946999893,None,3475.8130164998583,None,3475.8130164998583,None,3476.3333673998713,None,3476.3333673998713,None,3476.3333673998713,None,r,1.9306291998364031,3476.3333673998713,None,sing26,001,2019_Nov_07_1508,ProdFawcett_Revision2019,3.2.3,60.06334285017094,
,,,,20,0,20,0,,,,,,,,,,,,,3482.4261163999327,None,,,,,,,,,,,,,,,,,,,,,,voice,B_aloud,20,348,3478.83013259992,None,3478.83013259992,None,3478.83013259992,None,5,2.897732299985364,3478.83013259992,None,3481.7827683999203,None,3481.7827683999203,None,3482.3002067999914,None,3482.3002067999914,None,3482.3002067999914,None,f,0.09154169983230531,3482.3002067999914,None,sing26,001,2019_Nov_07_1508,ProdFawcett_Revision2019,3.2.3,60.06334285017094,
,,,,21,0,21,0,,,,,,,,,,,,,3487.0328532999847,None,,,,,,,,,,,,,,,,,,,,,,discovery,D_new,21,95,3482.9606719999574,None,3482.9606719999574,None,3482.9606719999574,None,3,2.999147600028664,3482.9606719999574,None,3486.014816700015,None,3486.014816700015,None,3486.537800299935,None,3486.537800299935,None,3486.537800299935,None,n,0.4540143001358956,3486.537800299935,None,sing26,001,2019_Nov_07_1508,ProdFawcett_Revision2019,3.2.3,60.06334285017094,
,,,,22,0,22,0,,,,,,,,,,,,,3491.3277198998258,None,,,,,,,,,,,,,,,,,,,,,,angle,C_sing,22,7,3487.5592841999605,None,3487.5592841999605,None,3487.5592841999605,None,4,2.8804731001146138,3487.5592841999605,None,3490.4808545999695,None,3490.4808545999695,None,3490.993645899929,None,3490.993645899929,None,3490.993645899929,None,n,0.2862031999975443,3490.993645899929,None,sing26,001,2019_Nov_07_1508,ProdFawcett_Revision2019,3.2.3,60.06334285017094,
,,,,23,0,23,0,,,,,,,,,,,,,3496.033149899915,None,,,,,,,,,,,,,,,,,,,,,,track,D_new,23,334,3491.851100599859,None,3491.851100599859,None,3491.851100599859,None,1,1.7087754998356104,3491.851100599859,None,3493.613923699828,None,3493.613923699828,None,3494.135097099934,None,3494.135097099934,None,3494.135097099934,None,n,1.8567271998617798,3494.135097099934,None,sing26,001,2019_Nov_07_1508,ProdFawcett_Revision2019,3.2.3,60.06334285017094,
,,,,24,0,24,0,,,,,,,,,,,,,3500.9181411999743,None,,,,,,,,,,,,,,,,,,,,,,chief,A_silent,24,48,3496.554935199907,None,3496.554935199907,None,3496.554935199907,None,3,3.0687653000932187,3496.554935199907,None,3499.6683469000272,None,3499.6683469000272,None,3500.180774899898,None,3500.180774899898,None,3500.180774899898,None,n,0.6989962998777628,3500.180774899898,None,sing26,001,2019_Nov_07_1508,ProdFawcett_Revision2019,3.2.3,60.06334285017094,
,,,,25,0,25,0,,,,,,,,,,,,,3505.91268389998,None,,,,,,,,,,,,,,,,,,,,,,trash,D_new,25,337,3501.438493900001,None,3501.438493900001,None,3501.438493900001,None,1,2.449183699907735,3501.438493900001,None,3503.916714400053,None,3503.916714400053,None,3504.4328902999405,None,3504.4328902999405,None,3504.4328902999405,None,n,1.4547963999211788,3504.4328902999405,None,sing26,001,2019_Nov_07_1508,ProdFawcett_Revision2019,3.2.3,60.06334285017094,
,,,,26,0,26,0,,,,,,,,,,,,,3510.5380565000232,None,,,,,,,,,,,,,,,,,,,,,,travel,D_new,26,338,3506.4484418998472,None,3506.4484418998472,None,3506.4484418998472,None,3,2.1593802000861615,3506.4484418998472,None,3508.6570917998906,None,3508.6570917998906,None,3509.1622184999287,None,3509.1622184999287,None,3509.1622184999287,None,n,1.3421650999225676,3509.1622184999287,None,sing26,001,2019_Nov_07_1508,ProdFawcett_Revision2019,3.2.3,60.06334285017094,
,,,,27,0,27,0,,,,,,,,,,,,,3516.25626439997,None,,,,,,,,,,,,,,,,,,,,,,direction,A_silent,27,94,3511.0532078999095,None,3511.0532078999095,None,3511.0532078999095,None,3,3.9222885000053793,3511.0532078999095,None,3515.0108504998498,None,3515.0108504998498,None,3515.53650489985,None,3515.53650489985,None,3515.53650489985,None,n,0.6877351999282837,3515.53650489985,None,sing26,001,2019_Nov_07_1508,ProdFawcett_Revision2019,3.2.3,60.06334285017094,
,,,,28,0,28,0,,,,,,,,,,,,,3521.4451549998485,None,,,,,,,,,,,,,,,,,,,,,,touch,D_new,28,332,3516.7712854999118,None,3516.7712854999118,None,3516.7712854999118,None,1,3.08480429998599,3516.7712854999118,None,3519.8940073000267,None,3519.8940073000267,None,3520.41793879983,None,3520.41793879983,None,3520.41793879983,None,n,1.0055925999768078,3520.41793879983,None,sing26,001,2019_Nov_07_1508,ProdFawcett_Revision2019,3.2.3,60.06334285017094,
,,,,29,0,29,0,,,,,,,,,,,,,3529.105564299971,None,,,,,,,,,,,,,,,,,,,,,,music,A_silent,29,196,3521.9653129000217,None,3521.9653129000217,None,3521.9653129000217,None,6,4.818368399981409,3521.9653129000217,None,3526.8211715000216,None,3526.8211715000216,None,3527.336867899867,None,3527.336867899867,None,3527.336867899867,None,r,1.7271510001737624,3527.336867899867,None,sing26,001,2019_Nov_07_1508,ProdFawcett_Revision2019,3.2.3,60.06334285017094,
,,,,30,0,30,0,,,,,,,,,,,,,3532.953895899933,None,,,,,,,,,,,,,,,,,,,,,,accident,D_new,30,0,3529.611845599953,None,3529.611845599953,None,3529.611845599953,None,5,2.388200900051743,3529.611845599953,None,3532.04456249997,None,3532.04456249997,None,3532.5718457999174,None,3532.5718457999174,None,3532.5718457999174,None,f,0.3399345998186618,3532.5718457999174,None,sing26,001,2019_Nov_07_1508,ProdFawcett_Revision2019,3.2.3,60.06334285017094,
,,,,31,0,31,0,,,,,,,,,,,,,3536.447888699826,None,,,,,,,,,,,,,,,,,,,,,,position,B_aloud,31,229,3533.461806599982,None,3533.461806599982,None,3533.461806599982,None,2,2.12190099991858,3533.461806599982,None,3535.622129800031,None,3535.622129800031,None,3536.134358299896,None,3536.134358299896,None,3536.134358299896,None,n,0.26558910007588565,3536.134358299896,None,sing26,001,2019_Nov_07_1508,ProdFawcett_Revision2019,3.2.3,60.06334285017094,
,,,,32,0,32,0,,,,,,,,,,,,,3541.155422599986,None,,,,,,,,,,,,,,,,,,,,,,income,D_new,32,159,3536.9730165000074,None,3536.9730165000074,None,3536.9730165000074,None,3,2.0908403999637812,3536.9730165000074,None,3539.109386799857,None,3539.109386799857,None,3539.622095099883,None,3539.622095099883,None,3539.622095099883,None,n,1.4980466000270098,3539.622095099883,None,sing26,001,2019_Nov_07_1508,ProdFawcett_Revision2019,3.2.3,60.06334285017094,
,,,,33,0,33,0,,,,,,,,,,,,,3548.907057299977,None,,,,,,,,,,,,,,,,,,,,,,company,D_new,33,64,3541.675766199827,None,3541.675766199827,None,3541.675766199827,None,3,5.331941599957645,3541.675766199827,None,3547.035455300007,None,3547.035455300007,None,3547.557085099863,None,3547.557085099863,None,3547.557085099863,None,n,1.3068744000047445,3547.557085099863,None,sing26,001,2019_Nov_07_1508,ProdFawcett_Revision2019,3.2.3,60.06334285017094,
,,,,34,0,34,0,,,,,,,,,,,,,3555.5365167998243,None,,,,,,,,,,,,,,,,,,,,,,candidate,A_silent,34,39,3549.4272463999223,None,3549.4272463999223,None,3549.4272463999223,None,3,4.348608599975705,3549.4272463999223,None,3553.8174935998395,None,3553.8174935998395,None,3554.3402046998963,None,3554.3402046998963,None,3554.3402046998963,None,n,1.163642399944365,3554.3402046998963,None,sing26,001,2019_Nov_07_1508,ProdFawcett_Revision2019,3.2.3,60.06334285017094,
,,,,35,0,35,0,,,,,,,,,,,,,3559.907477400033,None,,,,,,,,,,,,,,,,,,,,,,household,C_sing,35,154,3556.058262999868,None,3556.058262999868,None,3556.058262999868,None,2,2.9733549000229686,3556.058262999868,None,3559.0762940000277,None,3559.0762940000277,None,3559.581154699903,None,3559.581154699903,None,3559.581154699903,None,n,0.2827602999750525,3559.581154699903,None,sing26,001,2019_Nov_07_1508,ProdFawcett_Revision2019,3.2.3,60.06334285017094,
,,,,36,0,36,0,,,,,,,,,,,,,3563.3684829999693,None,,,,,,,,,,,,,,,,,,,,,,portion,C_sing,36,228,3560.4279010999016,None,3560.4279010999016,None,3560.4279010999016,None,5,2.235984900034964,3560.4279010999016,None,3562.7193398999516,None,3562.7193398999516,None,3563.239279799862,None,3563.239279799862,None,3563.239279799862,None,f,0.08849840005859733,3563.239279799862,None,sing26,001,2019_Nov_07_1508,ProdFawcett_Revision2019,3.2.3,60.06334285017094,
,,,,37,0,37,0,,,,,,,,,,,,,3567.0764440000057,None,,,,,,,,,,,,,,,,,,,,,,trail,A_silent,37,336,3563.8897694998886,None,3563.8897694998886,None,3563.8897694998886,None,5,1.9421480998862535,3563.8897694998886,None,3565.8813846998382,None,3565.8813846998382,None,3566.4067215998657,None,3566.4067215998657,None,3566.4067215998657,None,f,0.6251825999934226,3566.4067215998657,None,sing26,001,2019_Nov_07_1508,ProdFawcett_Revision2019,3.2.3,60.06334285017094,
,,,,38,0,38,0,,,,,,,,,,,,,3570.4693058999255,None,,,,,,,,,,,,,,,,,,,,,,universal,D_new,38,345,3567.601405599853,None,3567.601405599853,None,3567.601405599853,None,2,1.9984190999530256,3567.601405599853,None,3569.6518059999216,None,3569.6518059999216,None,3570.173961299937,None,3570.173961299937,None,3570.173961299937,None,n,0.2577108000405133,3570.173961299937,None,sing26,001,2019_Nov_07_1508,ProdFawcett_Revision2019,3.2.3,60.06334285017094,
,,,,39,0,39,0,,,,,,,,,,,,,3574.6631228998303,None,,,,,,,,,,,,,,,,,,,,,,weather,B_aloud,39,352,3571.000901899999,None,3571.000901899999,None,3571.000901899999,None,1,2.7191136002074927,3571.000901899999,None,3573.7626279999968,None,3573.7626279999968,None,3574.2785417998675,None,3574.2785417998675,None,3574.2785417998675,None,n,0.3453613999299705,3574.2785417998675,None,sing26,001,2019_Nov_07_1508,ProdFawcett_Revision2019,3.2.3,60.06334285017094,
,,,,40,0,40,0,,,,,,,,,,,,,3578.4756493999157,None,,,,,,,,,,,,,,,,,,,,,,quarter,D_new,40,246,3575.1967497000005,None,3575.1967497000005,None,3575.1967497000005,None,1,2.227146699791774,3575.1967497000005,None,3577.467358799884,None,3577.467358799884,None,3577.998080099933,None,3577.998080099933,None,3577.998080099933,None,n,0.44214030005969107,3577.998080099933,None,sing26,001,2019_Nov_07_1508,ProdFawcett_Revision2019,3.2.3,60.06334285017094,
,,,,41,0,41,0,,,,,,,,,,,,,3581.9194163999055,None,,,,,,,,,,,,,,,,,,,,,,appearance,A_silent,41,10,3578.9962855998892,None,3578.9962855998892,None,3578.9962855998892,None,4,1.9716646000742912,3578.9962855998892,None,3581.0107026998885,None,3581.0107026998885,None,3581.5289188998286,None,3581.5289188998286,None,3581.5289188998286,None,n,0.34338540001772344,3581.5289188998286,None,sing26,001,2019_Nov_07_1508,ProdFawcett_Revision2019,3.2.3,60.06334285017094,
,,,,42,0,42,0,,,,,,,,,,,,,3586.9740267999005,None,,,,,,,,,,,,,,,,,,,,,,shape,D_new,42,282,3582.442279699957,None,3582.442279699957,None,3582.442279699957,None,5,2.9256156999617815,3582.442279699957,None,3585.4137134000193,None,3585.4137134000193,None,3585.940320099937,None,3585.940320099937,None,3585.940320099937,None,f,1.0035487001296133,3585.940320099937,None,sing26,001,2019_Nov_07_1508,ProdFawcett_Revision2019,3.2.3,60.06334285017094,
,,,,43,0,43,0,,,,,,,,,,,,,3591.9836007000413,None,,,,,,,,,,,,,,,,,,,,,,material,D_new,43,182,3587.496200699825,None,3587.496200699825,None,3587.496200699825,None,5,3.655626100022346,3587.496200699825,None,3591.1990099998657,None,3591.1990099998657,None,3591.7251466000453,None,3591.7251466000453,None,3591.7251466000453,None,f,0.22677850001491606,3591.7251466000453,None,sing26,001,2019_Nov_07_1508,ProdFawcett_Revision2019,3.2.3,60.06334285017094,
,,,,44,0,44,0,,,,,,,,,,,,,3598.2080751999747,None,,,,,,,,,,,,,,,,,,,,,,watch,C_sing,44,351,3592.5130322000477,None,3592.5130322000477,None,3592.5130322000477,None,6,3.622955499915406,3592.5130322000477,None,3596.184251199942,None,3596.184251199942,None,3596.7111110000405,None,3596.7111110000405,None,3596.7111110000405,None,r,1.4646962000988424,3596.7111110000405,None,sing26,001,2019_Nov_07_1508,ProdFawcett_Revision2019,3.2.3,60.06334285017094,
,,,,45,0,45,0,,,,,,,,,,,,,3601.6698272000067,None,,,,,,,,,,,,,,,,,,,,,,staff,D_new,45,301,3598.7182036999147,None,3598.7182036999147,None,3598.7182036999147,None,1,1.897518299985677,3598.7182036999147,None,3600.661844499875,None,3600.661844499875,None,3601.1758409000468,None,3601.1758409000468,None,3601.1758409000468,None,n,0.455882600042969,3601.1758409000468,None,sing26,001,2019_Nov_07_1508,ProdFawcett_Revision2019,3.2.3,60.06334285017094,
,,,,46,0,46,0,,,,,,,,,,,,,3606.458813499892,None,,,,,,,,,,,,,,,,,,,,,,piece,D_new,46,221,3602.2011297999416,None,3602.2011297999416,None,3602.2011297999416,None,4,2.686821699840948,3602.2011297999416,None,3604.9371811000165,None,3604.9371811000165,None,3605.4592285000253,None,3605.4592285000253,None,3605.4592285000253,None,n,0.9648322998546064,3605.4592285000253,None,sing26,001,2019_Nov_07_1508,ProdFawcett_Revision2019,3.2.3,60.06334285017094,
,,,,47,0,47,0,,,,,,,,,,,,,3611.2163901999593,None,,,,,,,,,,,,,,,,,,,,,,point,D_new,47,226,3606.97916239989,None,3606.97916239989,None,3606.97916239989,None,3,2.852621200028807,3606.97916239989,None,3609.8820100999437,None,3609.8820100999437,None,3610.408472799929,None,3610.408472799929,None,3610.408472799929,None,n,0.7674523999448866,3610.408472799929,None,sing26,001,2019_Nov_07_1508,ProdFawcett_Revision2019,3.2.3,60.06334285017094,
,,,,48,0,48,0,,,,,,,,,,,,,3616.6676401000004,None,,,,,,,,,,,,,,,,,,,,,,subject,D_new,48,312,3611.7535280999728,None,3611.7535280999728,None,3611.7535280999728,None,6,3.9024185999296606,3611.7535280999728,None,3615.7121464000084,None,3615.7121464000084,None,3616.235173099907,None,3616.235173099907,None,3616.235173099907,None,r,0.40465139993466437,3616.235173099907,None,sing26,001,2019_Nov_07_1508,ProdFawcett_Revision2019,3.2.3,60.06334285017094,
,,,,49,0,49,0,,,,,,,,,,,,,3621.5176990998443,None,,,,,,,,,,,,,,,,,,,,,,institute,D_new,49,162,3617.1869864999317,None,3617.1869864999317,None,3617.1869864999317,None,2,3.1887115999124944,3617.1869864999317,None,3620.4219032998662,None,3620.4219032998662,None,3620.9462458000053,None,3620.9462458000053,None,3620.9462458000053,None,n,0.5418193999212235,3620.9462458000053,None,sing26,001,2019_Nov_07_1508,ProdFawcett_Revision2019,3.2.3,60.06334285017094,
,,,,50,0,50,0,,,,,,,,,,,,,3628.443775099935,None,,,,,,,,,,,,,,,,,,,,,,bucket,A_silent,50,33,3622.045673900051,None,3622.045673900051,None,3622.045673900051,None,6,3.3701826999895275,3622.045673900051,None,3625.4627157999203,None,3625.4627157999203,None,3625.9801900999155,None,3625.9801900999155,None,3625.9801900999155,None,r,2.4280075000133365,3625.9801900999155,None,sing26,001,2019_Nov_07_1508,ProdFawcett_Revision2019,3.2.3,60.06334285017094,
,,,,51,0,51,0,,,,,,,,,,,,,3632.5948226000182,None,,,,,,,,,,,,,,,,,,,,,,treatment,D_new,51,339,3628.9652131998446,None,3628.9652131998446,None,3628.9652131998446,None,2,2.2667429000139236,3628.9652131998446,None,3631.268902400043,None,3631.268902400043,None,3631.793442099821,None,3631.793442099821,None,3631.793442099821,None,n,0.7584313000552356,3631.793442099821,None,sing26,001,2019_Nov_07_1508,ProdFawcett_Revision2019,3.2.3,60.06334285017094,
,,,,52,0,52,0,,,,,,,,,,,,,3636.697147199884,None,,,,,,,,,,,,,,,,,,,,,,thing,C_sing,52,328,3633.1171560999937,None,3633.1171560999937,None,3633.1171560999937,None,2,2.722660700092092,3633.1171560999937,None,3635.8952717999928,None,3635.8952717999928,None,3636.4114830000326,None,3636.4114830000326,None,3636.4114830000326,None,n,0.25251400005072355,3636.4114830000326,None,sing26,001,2019_Nov_07_1508,ProdFawcett_Revision2019,3.2.3,60.06334285017094,
,,,,53,0,53,0,,,,,,,,,,,,,3640.004101400031,None,,,,,,,,,,,,,,,,,,,,,,answer,B_aloud,53,8,3637.218136999989,None,3637.218136999989,None,3637.218136999989,None,3,1.9259103001095355,3637.218136999989,None,3639.1958993000444,None,3639.1958993000444,None,3639.7122694000136,None,3639.7122694000136,None,3639.7122694000136,None,n,0.23963910015299916,3639.7122694000136,None,sing26,001,2019_Nov_07_1508,ProdFawcett_Revision2019,3.2.3,60.06334285017094,
,,,,54,0,54,0,,,,,,,,,,,,,3644.8636353998445,None,,,,,,,,,,,,,,,,,,,,,,season,C_sing,54,277,3640.5353562999517,None,3640.5353562999517,None,3640.5353562999517,None,5,2.4410625000018626,3640.5353562999517,None,3643.0191399999894,None,3643.0191399999894,None,3643.5450416000094,None,3643.5450416000094,None,3643.5450416000094,None,f,1.2789897001348436,3643.5450416000094,None,sing26,001,2019_Nov_07_1508,ProdFawcett_Revision2019,3.2.3,60.06334285017094,
,,,,55,0,55,0,,,,,,,,,,,,,3648.184096999932,None,,,,,,,,,,,,,,,,,,,,,,course,D_new,55,74,3645.379675899865,None,3645.379675899865,None,3645.379675899865,None,5,1.932115999981761,3645.379675899865,None,3647.367107699858,None,3647.367107699858,None,3647.89554139995,None,3647.89554139995,None,3647.89554139995,None,f,0.24844520003534853,3647.89554139995,None,sing26,001,2019_Nov_07_1508,ProdFawcett_Revision2019,3.2.3,60.06334285017094,
,,,,56,0,56,0,,,,,,,,,,,,,3652.4736424000002,None,,,,,,,,,,,,,,,,,,,,,,bicycle,C_sing,56,21,3648.718980100006,None,3648.718980100006,None,3648.718980100006,None,6,2.432876600185409,3648.718980100006,None,3651.2065449999645,None,3651.2065449999645,None,3651.73283350002,None,3651.73283350002,None,3651.73283350002,None,r,0.7070913000497967,3651.73283350002,None,sing26,001,2019_Nov_07_1508,ProdFawcett_Revision2019,3.2.3,60.06334285017094,
,,,,57,0,57,0,,,,,,,,,,,,,3656.179402400041,None,,,,,,,,,,,,,,,,,,,,,,running,B_aloud,57,268,3652.999823599821,None,3652.999823599821,None,3652.999823599821,None,2,2.2799708999227732,3652.999823599821,None,3655.310597399948,None,3655.310597399948,None,3655.8350243999157,None,3655.8350243999157,None,3655.8350243999157,None,n,0.3168200000654906,3655.8350243999157,None,sing26,001,2019_Nov_07_1508,ProdFawcett_Revision2019,3.2.3,60.06334285017094,
,,,,58,0,58,0,,,,,,,,,,,,,3660.1554337998386,None,,,,,,,,,,,,,,,,,,,,,,foundation,D_new,58,132,3656.7006969000213,None,3656.7006969000213,None,3656.7006969000213,None,2,2.4512889001052827,3656.7006969000213,None,3659.207628299948,None,3659.207628299948,None,3659.7310911999084,None,3659.7310911999084,None,3659.7310911999084,None,n,0.3966510999016464,3659.7310911999084,None,sing26,001,2019_Nov_07_1508,ProdFawcett_Revision2019,3.2.3,60.06334285017094,
,,,,59,0,59,0,,,,,,,,,,,,,3663.6470117999706,None,,,,,,,,,,,,,,,,,,,,,,relation,B_aloud,59,257,3660.6784478998743,None,3660.6784478998743,None,3660.6784478998743,None,2,1.577409700024873,3660.6784478998743,None,3662.303208600031,None,3662.303208600031,None,3662.8308594999835,None,3662.8308594999835,None,3662.8308594999835,None,n,0.7769515998661518,3662.8308594999835,None,sing26,001,2019_Nov_07_1508,ProdFawcett_Revision2019,3.2.3,60.06334285017094,
,,,,60,0,60,0,,,,,,,,,,,,,3667.531364899827,None,,,,,,,,,,,,,,,,,,,,,,finish,D_new,60,130,3664.1673336999957,None,3664.1673336999957,None,3664.1673336999957,None,5,2.3847552000079304,3664.1673336999957,None,3666.592571399873,None,3666.592571399873,None,3667.113533800002,None,3667.113533800002,None,3667.113533800002,None,n,0.3743304999079555,3667.113533800002,None,sing26,001,2019_Nov_07_1508,ProdFawcett_Revision2019,3.2.3,60.06334285017094,
,,,,61,0,61,0,,,,,,,,,,,,,3673.9623825999442,None,,,,,,,,,,,,,,,,,,,,,,narrow,D_new,61,197,3668.0540674999356,None,3668.0540674999356,None,3668.0540674999356,None,5,3.489908599993214,3668.0540674999356,None,3671.5953179998323,None,3671.5953179998323,None,3672.1171603000257,None,3672.1171603000257,None,3672.1171603000257,None,f,1.8108814998995513,3672.1171603000257,None,sing26,001,2019_Nov_07_1508,ProdFawcett_Revision2019,3.2.3,60.06334285017094,
,,,,62,0,62,0,,,,,,,,,,,,,3679.2576123999897,None,,,,,,,,,,,,,,,,,,,,,,problem,C_sing,62,238,3674.4848319999874,None,3674.4848319999874,None,3674.4848319999874,None,6,3.7229387999977916,3674.4848319999874,None,3678.2557412998285,None,3678.2557412998285,None,3678.7857753999997,None,3678.7857753999997,None,3678.7857753999997,None,r,0.4378504999913275,3678.7857753999997,None,sing26,001,2019_Nov_07_1508,ProdFawcett_Revision2019,3.2.3,60.06334285017094,
,,,,63,0,63,0,,,,,,,,,,,,,3683.7140601000283,None,,,,,,,,,,,,,,,,,,,,,,route,B_aloud,63,267,3679.785332799889,None,3679.785332799889,None,3679.785332799889,None,6,2.4470806000754237,3679.785332799889,None,3682.276590799913,None,3682.276590799913,None,3682.8034895998426,None,3682.8034895998426,None,3682.8034895998426,None,r,0.876468300120905,3682.8034895998426,None,sing26,001,2019_Nov_07_1508,ProdFawcett_Revision2019,3.2.3,60.06334285017094,
,,,,64,0,64,0,,,,,,,,,,,,,3688.6401144999545,None,,,,,,,,,,,,,,,,,,,,,,welcome,C_sing,64,354,3684.2384644998237,None,3684.2384644998237,None,3684.2384644998237,None,2,2.3617332000285387,3684.2384644998237,None,3686.6406220998615,None,3686.6406220998615,None,3687.16008699988,None,3687.16008699988,None,3687.16008699988,None,n,1.455828599864617,3687.16008699988,None,sing26,001,2019_Nov_07_1508,ProdFawcett_Revision2019,3.2.3,60.06334285017094,
,,,,65,0,65,0,,,,,,,,,,,,,3692.073351699859,None,,,,,,,,,,,,,,,,,,,,,,native,D_new,65,199,3689.172381900018,None,3689.172381900018,None,3689.172381900018,None,2,1.9561827001161873,3689.172381900018,None,3691.1686950000003,None,3691.1686950000003,None,3691.6867123998236,None,3691.6867123998236,None,3691.6867123998236,None,n,0.36145179998129606,3691.6867123998236,None,sing26,001,2019_Nov_07_1508,ProdFawcett_Revision2019,3.2.3,60.06334285017094,
,,,,66,0,66,0,,,,,,,,,,,,,3696.864948999835,None,,,,,,,,,,,,,,,,,,,,,,personnel,C_sing,66,219,3692.600397999864,None,3692.600397999864,None,3692.600397999864,None,3,2.5034095998853445,3692.600397999864,None,3695.160541499965,None,3695.160541499965,None,3695.6816086999606,None,3695.6816086999606,None,3695.6816086999606,None,f,1.1422462000045925,3695.6816086999606,None,sing26,001,2019_Nov_07_1508,ProdFawcett_Revision2019,3.2.3,60.06334285017094,
,,,,67,0,67,0,,,,,,,,,,,,,3702.5177308998536,None,,,,,,,,,,,,,,,,,,,,,,provision,B_aloud,67,243,3697.3908281999175,None,3697.3908281999175,None,3697.3908281999175,None,2,3.168910800013691,3697.3908281999175,None,3700.608500199858,None,3700.608500199858,None,3701.125567500014,None,3701.125567500014,None,3701.125567500014,None,n,1.3622218000236899,3701.125567500014,None,sing26,001,2019_Nov_07_1508,ProdFawcett_Revision2019,3.2.3,60.06334285017094,
,,,,68,0,68,0,,,,,,,,,,,,,3706.6657369998284,None,,,,,,,,,,,,,,,,,,,,,,safety,D_new,68,270,3703.0359338000417,None,3703.0359338000417,None,3703.0359338000417,None,5,2.7799176000989974,3703.0359338000417,None,3705.859226600034,None,3705.859226600034,None,3706.382862099912,None,3706.382862099912,None,3706.382862099912,None,f,0.2408753999043256,3706.382862099912,None,sing26,001,2019_Nov_07_1508,ProdFawcett_Revision2019,3.2.3,60.06334285017094,
,,,,69,0,69,0,,,,,,,,,,,,,3711.0174988999497,None,,,,,,,,,,,,,,,,,,,,,,split,D_new,69,299,3707.187751899939,None,3707.187751899939,None,3707.187751899939,None,4,1.7880680998787284,3707.187751899939,None,3709.0284120999277,None,3709.0284120999277,None,3709.5460312999785,None,3709.5460312999785,None,3709.5460312999785,None,n,1.4383139999117702,3709.5460312999785,None,sing26,001,2019_Nov_07_1508,ProdFawcett_Revision2019,3.2.3,60.06334285017094,
,,,,70,0,70,0,,,,,,,,,,,,,3715.2906657999847,None,,,,,,,,,,,,,,,,,,,,,,hunger,A_silent,70,155,3711.528276299825,None,3711.528276299825,None,3711.528276299825,None,4,2.415860499953851,3711.528276299825,None,3713.994036699878,None,3713.994036699878,None,3714.5185018999036,None,3714.5185018999036,None,3714.5185018999036,None,f,0.7450902001000941,3714.5185018999036,None,sing26,001,2019_Nov_07_1508,ProdFawcett_Revision2019,3.2.3,60.06334285017094,
,,,,71,0,71,0,,,,,,,,,,,,,3720.5665657999925,None,,,,,,,,,,,,,,,,,,,,,,crowd,A_silent,71,81,3715.8194985999726,None,3715.8194985999726,None,3715.8194985999726,None,3,3.0282968999817967,3715.8194985999726,None,3718.891906999983,None,3718.891906999983,None,3719.404149299953,None,3719.404149299953,None,3719.404149299953,None,f,1.12361770006828,3719.404149299953,None,sing26,001,2019_Nov_07_1508,ProdFawcett_Revision2019,3.2.3,60.06334285017094,
,,,,72,0,72,0,,,,,,,,,,,,,3725.664312500041,None,,,,,,,,,,,,,,,,,,,,,,figure,A_silent,72,128,3721.090872199973,None,3721.090872199973,None,3721.090872199973,None,1,1.9734503000508994,3721.090872199973,None,3723.117695099907,None,3723.117695099907,None,3723.6437480999157,None,3723.6437480999157,None,3723.6437480999157,None,n,1.99615369993262,3723.6437480999157,None,sing26,001,2019_Nov_07_1508,ProdFawcett_Revision2019,3.2.3,60.06334285017094,
,,,,73,0,73,0,,,,,,,,,,,,,3729.869661499979,None,,,,,,,,,,,,,,,,,,,,,,number,D_new,73,203,3726.196612800006,None,3726.196612800006,None,3726.196612800006,None,4,2.7873102999292314,3726.196612800006,None,3729.0253991000354,None,3729.0253991000354,None,3729.554221099941,None,3729.554221099941,None,3729.554221099941,None,f,0.27815270004794,3729.554221099941,None,sing26,001,2019_Nov_07_1508,ProdFawcett_Revision2019,3.2.3,60.06334285017094,
,,,,74,0,74,0,,,,,,,,,,,,,3735.1036491999403,None,,,,,,,,,,,,,,,,,,,,,,poetry,D_new,74,225,3730.380916999886,None,3730.380916999886,None,3730.380916999886,None,1,2.8430041999090463,3730.380916999886,None,3733.2679677999113,None,3733.2679677999113,None,3733.7841721998993,None,3733.7841721998993,None,3733.7841721998993,None,n,1.2800300000235438,3733.7841721998993,None,sing26,001,2019_Nov_07_1508,ProdFawcett_Revision2019,3.2.3,60.06334285017094,
,,,,75,0,75,0,,,,,,,,,,,,,3739.1747868999373,None,,,,,,,,,,,,,,,,,,,,,,equipment,D_new,75,116,3735.6215168999042,None,3735.6215168999042,None,3735.6215168999042,None,3,1.850710699800402,3735.6215168999042,None,3737.5143619000446,None,3737.5143619000446,None,3738.042300299974,None,3738.042300299974,None,3738.042300299974,None,n,1.1094927999656647,3738.042300299974,None,sing26,001,2019_Nov_07_1508,ProdFawcett_Revision2019,3.2.3,60.06334285017094,
,,,,76,0,76,0,,,,,,,,,,,,,3742.6265799999237,None,,,,,,,,,,,,,,,,,,,,,,career,D_new,76,42,3739.704765900038,None,3739.704765900038,None,3739.704765900038,None,2,2.0070519999135286,3739.704765900038,None,3741.7647710000165,None,3741.7647710000165,None,3742.285160299856,None,3742.285160299856,None,3742.285160299856,None,n,0.30650039995089173,3742.285160299856,None,sing26,001,2019_Nov_07_1508,ProdFawcett_Revision2019,3.2.3,60.06334285017094,
,,,,77,0,77,0,,,,,,,,,,,,,3747.5359193000477,None,,,,,,,,,,,,,,,,,,,,,,military,D_new,77,190,3743.142736699898,None,3743.142736699898,None,3743.142736699898,None,4,2.7532492000609636,3743.142736699898,None,3745.9373901998624,None,3745.9373901998624,None,3746.449757399969,None,3746.449757399969,None,3746.449757399969,None,f,1.0542639000341296,3746.449757399969,None,sing26,001,2019_Nov_07_1508,ProdFawcett_Revision2019,3.2.3,60.06334285017094,
,,,,78,0,78,0,,,,,,,,,,,,,3751.0043160999194,None,,,,,,,,,,,,,,,,,,,,,,guest,D_new,78,146,3748.0542808000464,None,3748.0542808000464,None,3748.0542808000464,None,3,2.2416550999041647,3748.0542808000464,None,3750.3351916000247,None,3750.3351916000247,None,3750.8542102999054,None,3750.8542102999054,None,3750.8542102999054,None,f,0.11381260002963245,3750.8542102999054,None,sing26,001,2019_Nov_07_1508,ProdFawcett_Revision2019,3.2.3,60.06334285017094,
,,,,79,0,79,0,,,,,,,,,,,,,3756.3644799999893,None,,,,,,,,,,,,,,,,,,,,,,expansion,D_new,79,123,3751.5212411000393,None,3751.5212411000393,None,3751.5212411000393,None,2,3.974611699813977,3751.5212411000393,None,3755.5414843999315,None,3755.5414843999315,None,3756.071598300012,None,3756.071598300012,None,3756.071598300012,None,n,0.2640408999286592,3756.071598300012,None,sing26,001,2019_Nov_07_1508,ProdFawcett_Revision2019,3.2.3,60.06334285017094,
,,,,80,0,80,0,,,,,,,,,,,,,3759.3277815999463,None,,,,,,,,,,,,,,,,,,,,,,rapid,A_silent,80,252,3756.8876129998825,None,3756.8876129998825,None,3756.8876129998825,None,5,1.8486651999410242,3756.8876129998825,None,3758.772905099904,None,3758.772905099904,None,3759.2859371998347,None,3759.2859371998347,None,3759.2859371998347,None,f,0.017867699963971972,3759.2859371998347,None,sing26,001,2019_Nov_07_1508,ProdFawcett_Revision2019,3.2.3,60.06334285017094,
,,,,81,0,81,0,,,,,,,,,,,,,3763.1057197998744,None,,,,,,,,,,,,,,,,,,,,,,pressure,A_silent,81,232,3759.8552469999995,None,3759.8552469999995,None,3759.8552469999995,None,5,2.4805674999952316,3759.8552469999995,None,3762.37831369997,None,3762.37831369997,None,3762.9143252999056,None,3762.9143252999056,None,3762.9143252999056,None,f,0.15767560014501214,3762.9143252999056,None,sing26,001,2019_Nov_07_1508,ProdFawcett_Revision2019,3.2.3,60.06334285017094,
,,,,82,0,82,0,,,,,,,,,,,,,3768.3056451999582,None,,,,,,,,,,,,,,,,,,,,,,match,A_silent,82,181,3763.6228832998313,None,3763.6228832998313,None,3763.6228832998313,None,4,3.8971649000886828,3763.6228832998313,None,3767.5658165998757,None,3767.5658165998757,None,3768.0780411998276,None,3768.0780411998276,None,3768.0780411998276,None,n,0.18594829994253814,3768.0780411998276,None,sing26,001,2019_Nov_07_1508,ProdFawcett_Revision2019,3.2.3,60.06334285017094,
,,,,83,0,83,0,,,,,,,,,,,,,3773.268685600022,None,,,,,,,,,,,,,,,,,,,,,,medicine,C_sing,83,186,3768.824553600047,None,3768.824553600047,None,3768.824553600047,None,4,2.4153740000911057,3768.824553600047,None,3771.283871399937,None,3771.283871399937,None,3771.8055342999287,None,3771.8055342999287,None,3771.8055342999287,None,n,1.4263979000970721,3771.8055342999287,None,sing26,001,2019_Nov_07_1508,ProdFawcett_Revision2019,3.2.3,60.06334285017094,
,,,,84,0,84,0,,,,,,,,,,,,,3776.772438999964,None,,,,,,,,,,,,,,,,,,,,,,tough,D_new,84,333,3773.7972651999444,None,3773.7972651999444,None,3773.7972651999444,None,2,2.258492299821228,3773.7972651999444,None,3776.0896909998264,None,3776.0896909998264,None,3776.6079641999677,None,3776.6079641999677,None,3776.6079641999677,None,n,0.1283199000172317,3776.6079641999677,None,sing26,001,2019_Nov_07_1508,ProdFawcett_Revision2019,3.2.3,60.06334285017094,
,,,,85,0,85,0,,,,,,,,,,,,,3781.613338999916,None,,,,,,,,,,,,,,,,,,,,,,judge,D_new,85,166,3777.292399399914,None,3777.292399399914,None,3777.292399399914,None,5,3.2834473000839353,3777.292399399914,None,3780.6233204000164,None,3780.6233204000164,None,3781.146225699922,None,3781.146225699922,None,3781.146225699922,None,f,0.44538459996692836,3781.146225699922,None,sing26,001,2019_Nov_07_1508,ProdFawcett_Revision2019,3.2.3,60.06334285017094,
,,,,86,0,86,0,,,,,,,,,,,,,3785.601994999917,None,,,,,,,,,,,,,,,,,,,,,,scene,B_aloud,86,273,3782.1398232998326,None,3782.1398232998326,None,3782.1398232998326,None,5,2.7320183000992984,3782.1398232998326,None,3784.9168618998956,None,3784.9168618998956,None,3785.438156799879,None,3785.438156799879,None,3785.438156799879,None,f,0.12991380016319454,3785.438156799879,None,sing26,001,2019_Nov_07_1508,ProdFawcett_Revision2019,3.2.3,60.06334285017094,
,,,,87,0,87,0,,,,,,,,,,,,,3791.7909488999285,None,,,,,,,,,,,,,,,,,,,,,,government,C_sing,87,139,3786.1213088999502,None,3786.1213088999502,None,3786.1213088999502,None,6,3.4065382999833673,3786.1213088999502,None,3789.587841699831,None,3789.587841699831,None,3790.112579099834,None,3790.112579099834,None,3790.112579099834,None,r,1.6473213001154363,3790.112579099834,None,sing26,001,2019_Nov_07_1508,ProdFawcett_Revision2019,3.2.3,60.06334285017094,
,,,,88,0,88,0,,,,,,,,,,,,,3795.60478269984,None,,,,,,,,,,,,,,,,,,,,,,generation,D_new,88,136,3792.3141325998586,None,3792.3141325998586,None,3792.3141325998586,None,1,1.89398659998551,3792.3141325998586,None,3794.268794900039,None,3794.268794900039,None,3794.776086000027,None,3794.776086000027,None,3794.776086000027,None,n,0.7918161998968571,3794.776086000027,None,sing26,001,2019_Nov_07_1508,ProdFawcett_Revision2019,3.2.3,60.06334285017094,
,,,,89,0,89,0,,,,,,,,,,,,,3800.129943100037,None,,,,,,,,,,,,,,,,,,,,,,rough,A_silent,89,266,3796.1311683999375,None,3796.1311683999375,None,3796.1311683999375,None,6,2.868553699925542,3796.1311683999375,None,3799.032026299974,None,3799.032026299974,None,3799.5593999000266,None,3799.5593999000266,None,3799.5593999000266,None,r,0.5442794999107718,3799.5593999000266,None,sing26,001,2019_Nov_07_1508,ProdFawcett_Revision2019,3.2.3,60.06334285017094,
,,,,90,0,90,0,,,,,,,,,,,,,3802.998390799854,None,,,,,,,,,,,,,,,,,,,,,,error,D_new,90,117,3800.656242799945,None,3800.656242799945,None,3800.656242799945,None,1,1.5358062000013888,3800.656242799945,None,3802.2349648999516,None,3802.2349648999516,None,3802.7560642999597,None,3802.7560642999597,None,3802.7560642999597,None,n,0.20403150003403425,3802.7560642999597,None,sing26,001,2019_Nov_07_1508,ProdFawcett_Revision2019,3.2.3,60.06334285017094,
,,,,91,0,91,0,,,,,,,,,,,,,3807.0919796000235,None,,,,,,,,,,,,,,,,,,,,,,drink,B_aloud,91,105,3803.533739299979,None,3803.533739299979,None,3803.533739299979,None,4,2.3942033001221716,3803.533739299979,None,3805.968850699952,None,3805.968850699952,None,3806.4886272998992,None,3806.4886272998992,None,3806.4886272998992,None,f,0.5671736001968384,3806.4886272998992,None,sing26,001,2019_Nov_07_1508,ProdFawcett_Revision2019,3.2.3,60.06334285017094,
,,,,92,0,92,0,,,,,,,,,,,,,3813.0087831998244,None,,,,,,,,,,,,,,,,,,,,,,surprise,D_new,92,317,3807.610788999824,None,3807.610788999824,None,3807.610788999824,None,3,3.64499230007641,3807.610788999824,None,3811.2991331999656,None,3811.2991331999656,None,3811.821138399886,None,3811.821138399886,None,3811.821138399886,None,f,1.1466324999928474,3811.821138399886,None,sing26,001,2019_Nov_07_1508,ProdFawcett_Revision2019,3.2.3,60.06334285017094,
,,,,93,0,93,0,,,,,,,,,,,,,3816.0169905000366,None,,,,,,,,,,,,,,,,,,,,,,ground,A_silent,93,142,3813.5320901998784,None,3813.5320901998784,None,3813.5320901998784,None,2,1.8273932000156492,3813.5320901998784,None,3815.3824622998945,None,3815.3824622998945,None,3815.9086000998504,None,3815.9086000998504,None,3815.9086000998504,None,n,0.08348269993439317,3815.9086000998504,None,sing26,001,2019_Nov_07_1508,ProdFawcett_Revision2019,3.2.3,60.06334285017094,
,,,,94,0,94,0,,,,,,,,,,,,,3820.431751899887,None,,,,,,,,,,,,,,,,,,,,,,question,D_new,94,247,3816.5474193999544,None,3816.5474193999544,None,3816.5474193999544,None,4,2.620429999893531,3816.5474193999544,None,3819.2113173999824,None,3819.2113173999824,None,3819.7313114998396,None,3819.7313114998396,None,3819.7313114998396,None,n,0.6682960998732597,3819.7313114998396,None,sing26,001,2019_Nov_07_1508,ProdFawcett_Revision2019,3.2.3,60.06334285017094,
,,,,95,0,95,0,,,,,,,,,,,,,3823.250890400028,None,,,,,,,,,,,,,,,,,,,,,,block,D_new,95,25,3820.9541278998367,None,3820.9541278998367,None,3820.9541278998367,None,1,1.4456536998040974,3820.9541278998367,None,3822.445119800046,None,3822.445119800046,None,3822.9611706000287,None,3822.9611706000287,None,3822.9611706000287,None,n,0.25453600008040667,3822.9611706000287,None,sing26,001,2019_Nov_07_1508,ProdFawcett_Revision2019,3.2.3,60.06334285017094,
,,,,96,0,96,0,,,,,,,,,,,,,3827.1153646998573,None,,,,,,,,,,,,,,,,,,,,,,crime,C_sing,96,78,3823.7751372999046,None,3823.7751372999046,None,3823.7751372999046,None,5,1.9127484001219273,3823.7751372999046,None,3825.7373976998497,None,3825.7373976998497,None,3826.257819699822,None,3826.257819699822,None,3826.257819699822,None,f,0.8220675000920892,3826.257819699822,None,sing26,001,2019_Nov_07_1508,ProdFawcett_Revision2019,3.2.3,60.06334285017094,
,,,,97,0,97,0,,,,,,,,,,,,,3830.4158141999505,None,,,,,,,,,,,,,,,,,,,,,,bright,D_new,97,29,3827.648685900029,None,3827.648685900029,None,3827.648685900029,None,6,2.007402999792248,3827.648685900029,None,3829.7016823999584,None,3829.7016823999584,None,3830.2313625998795,None,3830.2313625998795,None,3830.2313625998795,None,f,0.15235599991865456,3830.2313625998795,None,sing26,001,2019_Nov_07_1508,ProdFawcett_Revision2019,3.2.3,60.06334285017094,
,,,,98,0,98,0,,,,,,,,,,,,,3834.1320187998936,None,,,,,,,,,,,,,,,,,,,,,,dream,B_aloud,98,104,3830.9433976998553,None,3830.9433976998553,None,3830.9433976998553,None,2,1.8646593999583274,3830.9433976998553,None,3832.8505064998753,None,3832.8505064998753,None,3833.379641099833,None,3833.379641099833,None,3833.379641099833,None,n,0.7319459998980165,3833.379641099833,None,sing26,001,2019_Nov_07_1508,ProdFawcett_Revision2019,3.2.3,60.06334285017094,
,,,,99,0,99,0,,,,,,,,,,,,,3837.726657100022,None,,,,,,,,,,,,,,,,,,,,,,council,B_aloud,99,71,3834.660347699886,None,3834.660347699886,None,3834.660347699886,None,3,2.2514231000095606,3834.660347699886,None,3836.9483336999547,None,3836.9483336999547,None,3837.472131700022,None,3837.472131700022,None,3837.472131700022,None,n,0.2079227000940591,3837.472131700022,None,sing26,001,2019_Nov_07_1508,ProdFawcett_Revision2019,3.2.3,60.06334285017094,
,,,,100,0,100,0,,,,,,,,,,,,,3840.8832331998274,None,,,,,,,,,,,,,,,,,,,,,,cover,D_new,100,77,3838.248217900051,None,3838.248217900051,None,3838.248217900051,None,2,1.9122370001859963,3838.248217900051,None,3840.2036720998585,None,3840.2036720998585,None,3840.7290476998314,None,3840.7290476998314,None,3840.7290476998314,None,n,0.12660409999080002,3840.7290476998314,None,sing26,001,2019_Nov_07_1508,ProdFawcett_Revision2019,3.2.3,60.06334285017094,
,,,,101,0,101,0,,,,,,,,,,,,,3844.893649299862,None,,,,,,,,,,,,,,,,,,,,,,minute,D_new,101,192,3841.4097507998813,None,3841.4097507998813,None,3841.4097507998813,None,4,1.7741636999417096,3841.4097507998813,None,3843.2373619000427,None,3843.2373619000427,None,3843.757909799926,None,3843.757909799926,None,3843.757909799926,None,f,1.0899335998110473,3843.757909799926,None,sing26,001,2019_Nov_07_1508,ProdFawcett_Revision2019,3.2.3,60.06334285017094,
,,,,102,0,102,0,,,,,,,,,,,,,3849.0853170999326,None,,,,,,,,,,,,,,,,,,,,,,clean,A_silent,102,51,3845.413778899936,None,3845.413778899936,None,3845.413778899936,None,6,2.402047600131482,3845.413778899936,None,3847.873338199919,None,3847.873338199919,None,3848.3892457999755,None,3848.3892457999755,None,3848.3892457999755,None,f,0.6585242000874132,3848.3892457999755,None,sing26,001,2019_Nov_07_1508,ProdFawcett_Revision2019,3.2.3,60.06334285017094,
,,,,103,0,103,0,,,,,,,,,,,,,3853.244389799889,None,,,,,,,,,,,,,,,,,,,,,,budget,B_aloud,103,34,3849.61724209995,None,3849.61724209995,None,3849.61724209995,None,6,2.8947109000291675,3849.61724209995,None,3852.5613891999237,None,3852.5613891999237,None,3853.085701899836,None,3853.085701899836,None,3853.085701899836,None,r,0.12234310014173388,3853.085701899836,None,sing26,001,2019_Nov_07_1508,ProdFawcett_Revision2019,3.2.3,60.06334285017094,
,,,,104,0,104,0,,,,,,,,,,,,,3856.511251799995,None,,,,,,,,,,,,,,,,,,,,,,range,D_new,104,251,3853.768337599933,None,3853.768337599933,None,3853.768337599933,None,4,1.8394555998966098,3853.768337599933,None,3855.6504931000527,None,3855.6504931000527,None,3856.1799460998736,None,3856.1799460998736,None,3856.1799460998736,None,n,0.2999958998989314,3856.1799460998736,None,sing26,001,2019_Nov_07_1508,ProdFawcett_Revision2019,3.2.3,60.06334285017094,
,,,,105,0,105,0,,,,,,,,,,,,,3860.5628118999302,None,,,,,,,,,,,,,,,,,,,,,,level,D_new,105,170,3857.0314618998673,None,3857.0314618998673,None,3857.0314618998673,None,5,2.888277699938044,3857.0314618998673,None,3859.9665085999295,None,3859.9665085999295,None,3860.478636399843,None,3860.478636399843,None,3860.478636399843,None,f,0.04910679999738932,3860.478636399843,None,sing26,001,2019_Nov_07_1508,ProdFawcett_Revision2019,3.2.3,60.06334285017094,
,,,,106,0,106,0,,,,,,,,,,,,,3865.232973200036,None,,,,,,,,,,,,,,,,,,,,,,primary,D_new,106,234,3861.0786377999466,None,3861.0786377999466,None,3861.0786377999466,None,5,3.5533571001142263,3861.0786377999466,None,3864.683181699831,None,3864.683181699831,None,3865.1956259999424,None,3865.1956259999424,None,3865.1956259999424,None,f,0.004000799963250756,3865.1956259999424,None,sing26,001,2019_Nov_07_1508,ProdFawcett_Revision2019,3.2.3,60.06334285017094,
,,,,107,0,107,0,,,,,,,,,,,,,3870.108603899833,None,,,,,,,,,,,,,,,,,,,,,,tragedy,D_new,107,335,3865.7668869998306,None,3865.7668869998306,None,3865.7668869998306,None,2,3.585026199929416,3865.7668869998306,None,3869.4166091999505,None,3869.4166091999505,None,3869.929060399998,None,3869.929060399998,None,3869.929060399998,None,n,0.15078129991889,3869.929060399998,None,sing26,001,2019_Nov_07_1508,ProdFawcett_Revision2019,3.2.3,60.06334285017094,
,,,,108,0,108,0,,,,,,,,,,,,,3873.395346999867,None,,,,,,,,,,,,,,,,,,,,,,review,A_silent,108,263,3870.637367099989,None,3870.637367099989,None,3870.637367099989,None,5,2.114447700092569,3870.637367099989,None,3872.797142499825,None,3872.797142499825,None,3873.3065638998523,None,3873.3065638998523,None,3873.3065638998523,None,f,0.05346630001440644,3873.3065638998523,None,sing26,001,2019_Nov_07_1508,ProdFawcett_Revision2019,3.2.3,60.06334285017094,
,,,,109,0,109,0,,,,,,,,,,,,,3877.06881239987,None,,,,,,,,,,,,,,,,,,,,,,solution,D_new,109,294,3873.9144076998346,None,3873.9144076998346,None,3873.9144076998346,None,2,2.325581200188026,3873.9144076998346,None,3876.288509799866,None,3876.288509799866,None,3876.8120196999516,None,3876.8120196999516,None,3876.8120196999516,None,n,0.21198179991915822,3876.8120196999516,None,sing26,001,2019_Nov_07_1508,ProdFawcett_Revision2019,3.2.3,60.06334285017094,
,,,,110,0,110,0,,,,,,,,,,,,,3886.816726299934,None,,,,,,,,,,,,,,,,,,,,,,nature,A_silent,110,200,3877.604439900024,None,3877.604439900024,None,3877.604439900024,None,2,8.39540520007722,3877.604439900024,None,3886.0428801998496,None,3886.0428801998496,None,3886.5627039999235,None,3886.5627039999235,None,3886.5627039999235,None,n,0.2210856000892818,3886.5627039999235,None,sing26,001,2019_Nov_07_1508,ProdFawcett_Revision2019,3.2.3,60.06334285017094,
,,,,111,0,111,0,,,,,,,,,,,,,3890.7142101000063,None,,,,,,,,,,,,,,,,,,,,,,distance,D_new,111,100,3887.350962199969,None,3887.350962199969,None,3887.350962199969,None,3,2.2008947997819632,3887.350962199969,None,3889.607963999966,None,3889.607963999966,None,3890.129177500028,None,3890.129177500028,None,3890.129177500028,None,n,0.5426099000032991,3890.129177500028,None,sing26,001,2019_Nov_07_1508,ProdFawcett_Revision2019,3.2.3,60.06334285017094,
,,,,112,0,112,0,,,,,,,,,,,,,3895.2015334998723,None,,,,,,,,,,,,,,,,,,,,,,sweet,A_silent,112,319,3891.2323037998285,None,3891.2323037998285,None,3891.2323037998285,None,4,2.1597489998675883,3891.2323037998285,None,3893.4485843,None,3893.4485843,None,3893.9651881000027,None,3893.9651881000027,None,3893.9651881000027,None,f,1.2103553002234548,3893.9651881000027,None,sing26,001,2019_Nov_07_1508,ProdFawcett_Revision2019,3.2.3,60.06334285017094,
,,,,113,0,113,0,,,,,,,,,,,,,3899.137345299823,None,,,,,,,,,,,,,,,,,,,,,,thick,D_new,113,327,3895.729270899901,None,3895.729270899901,None,3895.729270899901,None,2,2.694498399971053,3895.729270899901,None,3898.475862900028,None,3898.475862900028,None,3898.995322899893,None,3898.995322899893,None,3898.995322899893,None,n,0.10848550009541214,3898.995322899893,None,sing26,001,2019_Nov_07_1508,ProdFawcett_Revision2019,3.2.3,60.06334285017094,
,,,,114,0,114,0,,,,,,,,,,,,,3902.9062685000245,None,,,,,,,,,,,,,,,,,,,,,,frank,C_sing,114,133,3899.664462900022,None,3899.664462900022,None,3899.664462900022,None,1,1.9434510001447052,3899.664462900022,None,3901.650018000044,None,3901.650018000044,None,3902.1555331000127,None,3902.1555331000127,None,3902.1555331000127,None,n,0.7244790999684483,3902.1555331000127,None,sing26,001,2019_Nov_07_1508,ProdFawcett_Revision2019,3.2.3,60.06334285017094,
,,,,115,0,115,0,,,,,,,,,,,,,3906.597106699832,None,,,,,,,,,,,,,,,,,,,,,,skill,C_sing,115,289,3903.4315361999907,None,3903.4315361999907,None,3903.4315361999907,None,4,2.0001948999706656,3903.4315361999907,None,3905.4619555999525,None,3905.4619555999525,None,3905.972343799891,None,3905.972343799891,None,3905.972343799891,None,f,0.579500799998641,3905.972343799891,None,sing26,001,2019_Nov_07_1508,ProdFawcett_Revision2019,3.2.3,60.06334285017094,
,,,,116,0,116,0,,,,,,,,,,,,,3910.0644111998845,None,,,,,,,,,,,,,,,,,,,,,,collection,B_aloud,116,54,3907.115338600008,None,3907.115338600008,None,3907.115338600008,None,6,2.1323470000643283,3907.115338600008,None,3909.277585200034,None,3909.277585200034,None,3909.792094100034,None,3909.792094100034,None,3909.792094100034,None,r,0.24021700001321733,3909.792094100034,None,sing26,001,2019_Nov_07_1508,ProdFawcett_Revision2019,3.2.3,60.06334285017094,
,,,,117,0,117,0,,,,,,,,,,,,,3913.7604791000485,None,,,,,,,,,,,,,,,,,,,,,,still,C_sing,117,304,3910.5810419998597,None,3910.5810419998597,None,3910.5810419998597,None,3,2.2511051998008043,3910.5810419998597,None,3912.8769852998666,None,3912.8769852998666,None,3913.395765400026,None,3913.395765400026,None,3913.395765400026,None,f,0.33219910017214715,3913.395765400026,None,sing26,001,2019_Nov_07_1508,ProdFawcett_Revision2019,3.2.3,60.06334285017094,
,,,,118,0,118,0,,,,,,,,,,,,,3917.2084116998594,None,,,,,,,,,,,,,,,,,,,,,,couch,C_sing,118,70,3914.283226599917,None,3914.283226599917,None,3914.283226599917,None,6,2.0525064999237657,3914.283226599917,None,3916.388127999846,None,3916.388127999846,None,3916.913572099991,None,3916.913572099991,None,3916.913572099991,None,r,0.2702477998100221,3916.913572099991,None,sing26,001,2019_Nov_07_1508,ProdFawcett_Revision2019,3.2.3,60.06334285017094,
,,,,119,0,119,0,,,,,,,,,,,,,3920.8981476000044,None,,,,,,,,,,,,,,,,,,,,,,raise,A_silent,119,250,3917.7323224998545,None,3917.7323224998545,None,3917.7323224998545,None,2,1.8916277999524027,3917.7323224998545,None,3919.672618099954,None,3919.672618099954,None,3920.1971545999404,None,3920.1971545999404,None,3920.1971545999404,None,n,0.6586909999605268,3920.1971545999404,None,sing26,001,2019_Nov_07_1508,ProdFawcett_Revision2019,3.2.3,60.06334285017094,
,,,,120,0,120,0,,,,,,,,,,,,,3924.2203897999134,None,,,,,,,,,,,,,,,,,,,,,,husband,D_new,120,156,3921.422622699989,None,3921.422622699989,None,3921.422622699989,None,2,1.9780119000934064,3921.422622699989,None,3923.4462172999047,None,3923.4462172999047,None,3923.9680147999898,None,3923.9680147999898,None,3923.9680147999898,None,n,0.21631689998321235,3923.9680147999898,None,sing26,001,2019_Nov_07_1508,ProdFawcett_Revision2019,3.2.3,60.06334285017094,
,,,,121,0,121,0,,,,,,,,,,,,,3927.921788299922,None,,,,,,,,,,,,,,,,,,,,,,substance,D_new,121,313,3924.7552757000085,None,3924.7552757000085,None,3924.7552757000085,None,1,1.7407523998990655,3924.7552757000085,None,3926.5440449998714,None,3926.5440449998714,None,3927.0717197998893,None,3927.0717197998893,None,3927.0717197998893,None,n,0.8001064998097718,3927.0717197998893,None,sing26,001,2019_Nov_07_1508,ProdFawcett_Revision2019,3.2.3,60.06334285017094,
,,,,122,0,122,0,,,,,,,,,,,,,3932.2157260999084,None,,,,,,,,,,,,,,,,,,,,,,month,B_aloud,122,193,3928.4490167999174,None,3928.4490167999174,None,3928.4490167999174,None,5,2.1187781000044197,3928.4490167999174,None,3930.606126599945,None,3930.606126599945,None,3931.129356099991,None,3931.129356099991,None,3931.129356099991,None,f,1.0545042001176625,3931.129356099991,None,sing26,001,2019_Nov_07_1508,ProdFawcett_Revision2019,3.2.3,60.06334285017094,
,,,,123,0,123,0,,,,,,,,,,,,,3935.664257499855,None,,,,,,,,,,,,,,,,,,,,,,fight,D_new,123,127,3932.7400513999164,None,3932.7400513999164,None,3932.7400513999164,None,4,2.059715799987316,3932.7400513999164,None,3934.8328727998305,None,3934.8328727998305,None,3935.3521698999684,None,3935.3521698999684,None,3935.3521698999684,None,f,0.2716155999805778,3935.3521698999684,None,sing26,001,2019_Nov_07_1508,ProdFawcett_Revision2019,3.2.3,60.06334285017094,
,,,,124,0,124,0,,,,,,,,,,,,,3939.488307399908,None,,,,,,,,,,,,,,,,,,,,,,majority,D_new,124,176,3936.190622899914,None,3936.190622899914,None,3936.190622899914,None,4,2.2971850999165326,3936.190622899914,None,3938.5389999998733,None,3938.5389999998733,None,3939.0527170998976,None,3939.0527170998976,None,3939.0527170998976,None,n,0.38709580013528466,3939.0527170998976,None,sing26,001,2019_Nov_07_1508,ProdFawcett_Revision2019,3.2.3,60.06334285017094,
,,,,125,0,125,0,,,,,,,,,,,,,3943.116222199984,None,,,,,,,,,,,,,,,,,,,,,,captain,D_new,125,41,3940.021951899864,None,3940.021951899864,None,3940.021951899864,None,3,1.8658306999132037,3940.021951899864,None,3941.9351820000447,None,3941.9351820000447,None,3942.4508823999204,None,3942.4508823999204,None,3942.4508823999204,None,n,0.6209478999953717,3942.4508823999204,None,sing26,001,2019_Nov_07_1508,ProdFawcett_Revision2019,3.2.3,60.06334285017094,
,,,,126,0,126,0,,,,,,,,,,,,,3947.6506219999865,None,,,,,,,,,,,,,,,,,,,,,,place,D_new,126,222,3943.6347900999244,None,3943.6347900999244,None,3943.6347900999244,None,3,3.1488801001105458,3943.6347900999244,None,3946.807105799904,None,3946.807105799904,None,3947.3304953000043,None,3947.3304953000043,None,3947.3304953000043,None,n,0.285365300020203,3947.3304953000043,None,sing26,001,2019_Nov_07_1508,ProdFawcett_Revision2019,3.2.3,60.06334285017094,
,,,,127,0,127,0,,,,,,,,,,,,,3950.967818599893,None,,,,,,,,,,,,,,,,,,,,,,article,B_aloud,127,11,3948.1686698000412,None,3948.1686698000412,None,3948.1686698000412,None,5,2.0792854998726398,3948.1686698000412,None,3950.2998690998647,None,3950.2998690998647,None,3950.8163238000125,None,3950.8163238000125,None,3950.8163238000125,None,f,0.1195414001122117,3950.8163238000125,None,sing26,001,2019_Nov_07_1508,ProdFawcett_Revision2019,3.2.3,60.06334285017094,
,,,,128,0,128,0,,,,,,,,,,,,,3955.139742899919,None,,,,,,,,,,,,,,,,,,,,,,search,D_new,128,276,3951.4877434000373,None,3951.4877434000373,None,3951.4877434000373,None,5,2.15208030003123,3951.4877434000373,None,3953.69071669993,None,3953.69071669993,None,3954.2161599998362,None,3954.2161599998362,None,3954.2161599998362,None,f,0.8953098000492901,3954.2161599998362,None,sing26,001,2019_Nov_07_1508,ProdFawcett_Revision2019,3.2.3,60.06334285017094,
,,,,129,0,129,0,,,,,,,,,,,,,3958.141907399986,None,,,,,,,,,,,,,,,,,,,,,,committee,D_new,129,62,3955.668272699928,None,3955.668272699928,None,3955.668272699928,None,1,1.8034242999274284,3955.668272699928,None,3957.5299519998953,None,3957.5299519998953,None,3958.05605080002,None,3958.05605080002,None,3958.05605080002,None,n,0.05586680001579225,3958.05605080002,None,sing26,001,2019_Nov_07_1508,ProdFawcett_Revision2019,3.2.3,60.06334285017094,
,,,,130,0,130,0,,,,,,,,,,,,,3963.5367600999307,None,,,,,,,,,,,,,,,,,,,,,,production,D_new,130,240,3958.6684935998637,None,3958.6684935998637,None,3958.6684935998637,None,3,1.987261600093916,3958.6684935998637,None,3960.7171725998633,None,3960.7171725998633,None,3961.234556299867,None,3961.234556299867,None,3961.234556299867,None,n,2.261365999933332,3961.234556299867,None,sing26,001,2019_Nov_07_1508,ProdFawcett_Revision2019,3.2.3,60.06334285017094,
,,,,131,0,131,0,,,,,,,,,,,,,3969.0248320000246,None,,,,,,,,,,,,,,,,,,,,,,pancakes,C_sing,131,210,3964.0650136000477,None,3964.0650136000477,None,3964.0650136000477,None,6,3.1349569999147207,3964.0650136000477,None,3967.2468031998724,None,3967.2468031998724,None,3967.768724999856,None,3967.768724999856,None,3967.768724999856,None,r,1.2229232999961823,3967.768724999856,None,sing26,001,2019_Nov_07_1508,ProdFawcett_Revision2019,3.2.3,60.06334285017094,
,,,,132,0,132,0,,,,,,,,,,,,,3975.2517103999853,None,,,,,,,,,,,,,,,,,,,,,,surface,D_new,132,316,3969.5543976000044,None,3969.5543976000044,None,3969.5543976000044,None,3,4.85342189995572,3969.5543976000044,None,3974.464447799837,None,3974.464447799837,None,3974.989384099841,None,3974.989384099841,None,3974.989384099841,None,n,0.2184605998918414,3974.989384099841,None,sing26,001,2019_Nov_07_1508,ProdFawcett_Revision2019,3.2.3,60.06334285017094,
,,,,133,0,133,0,,,,,,,,,,,,,3980.495556199923,None,,,,,,,,,,,,,,,,,,,,,,department,D_new,133,90,3975.7706190999597,None,3975.7706190999597,None,3975.7706190999597,None,4,2.333269299939275,3975.7706190999597,None,3978.1415919999126,None,3978.1415919999126,None,3978.668789499905,None,3978.668789499905,None,3978.668789499905,None,f,1.795192299876362,3978.668789499905,None,sing26,001,2019_Nov_07_1508,ProdFawcett_Revision2019,3.2.3,60.06334285017094,
,,,,134,0,134,0,,,,,,,,,,,,,3983.927432499826,None,,,,,,,,,,,,,,,,,,,,,,leader,D_new,134,168,3981.009127399884,None,3981.009127399884,None,3981.009127399884,None,5,2.214661499951035,3981.009127399884,None,3983.2758676998783,None,3983.2758676998783,None,3983.801475599874,None,3983.801475599874,None,3983.801475599874,None,f,0.09431770001538098,3983.801475599874,None,sing26,001,2019_Nov_07_1508,ProdFawcett_Revision2019,3.2.3,60.06334285017094,
,,,,135,0,135,0,,,,,,,,,,,,,3987.036823999835,None,,,,,,,,,,,,,,,,,,,,,,trial,D_new,135,341,3984.4524827999994,None,3984.4524827999994,None,3984.4524827999994,None,2,1.8194534999784082,3984.4524827999994,None,3986.3085902999155,None,3986.3085902999155,None,3986.8357678998727,None,3986.8357678998727,None,3986.8357678998727,None,n,0.16426509991288185,3986.8357678998727,None,sing26,001,2019_Nov_07_1508,ProdFawcett_Revision2019,3.2.3,60.06334285017094,
,,,,136,0,136,0,,,,,,,,,,,,,3990.4872175999917,None,,,,,,,,,,,,,,,,,,,,,,congress,D_new,136,67,3987.543102900032,None,3987.543102900032,None,3987.543102900032,None,2,1.7447102998849005,3987.543102900032,None,3989.328688299982,None,3989.328688299982,None,3989.854108199943,None,3989.854108199943,None,3989.854108199943,None,n,0.5938681999687105,3989.854108199943,None,sing26,001,2019_Nov_07_1508,ProdFawcett_Revision2019,3.2.3,60.06334285017094,
,,,,137,0,137,0,,,,,,,,,,,,,3994.509438399924,None,,,,,,,,,,,,,,,,,,,,,,finance,D_new,137,129,3991.0123866000213,None,3991.0123866000213,None,3991.0123866000213,None,4,1.6275024998467416,3991.0123866000213,None,3992.6830631999765,None,3992.6830631999765,None,3993.2013431000523,None,3993.2013431000523,None,3993.2013431000523,None,n,1.2863644000608474,3993.2013431000523,None,sing26,001,2019_Nov_07_1508,ProdFawcett_Revision2019,3.2.3,60.06334285017094,
,,,,138,0,138,0,,,,,,,,,,,,,3997.354495999869,None,,,,,,,,,,,,,,,,,,,,,,court,B_aloud,138,75,3995.02662150003,None,3995.02662150003,None,3995.02662150003,None,5,1.6851596999913454,3995.02662150003,None,3996.7644288998563,None,3996.7644288998563,None,3997.2858126999345,None,3997.2858126999345,None,3997.2858126999345,None,f,0.026014599949121475,3997.2858126999345,None,sing26,001,2019_Nov_07_1508,ProdFawcett_Revision2019,3.2.3,60.06334285017094,
,,,,139,0,139,0,,,,,,,,,,,,,4001.2368119000457,None,,,,,,,,,,,,,,,,,,,,,,conference,D_new,139,66,3997.874147400027,None,3997.874147400027,None,3997.874147400027,None,5,2.549958199961111,3997.874147400027,None,4000.461850099964,None,4000.461850099964,None,4000.9870625999756,None,4000.9870625999756,None,4000.9870625999756,None,f,0.20493080001324415,4000.9870625999756,None,sing26,001,2019_Nov_07_1508,ProdFawcett_Revision2019,3.2.3,60.06334285017094,
,,,,140,0,140,0,,,,,,,,,,,,,4004.0720832999796,None,,,,,,,,,,,,,,,,,,,,,,impact,B_aloud,140,157,4001.757802899927,None,4001.757802899927,None,4001.757802899927,None,2,1.5468301000073552,4001.757802899927,None,4003.3473427998833,None,4003.3473427998833,None,4003.8697655999567,None,4003.8697655999567,None,4003.8697655999567,None,n,0.17023150017485023,4003.8697655999567,None,sing26,001,2019_Nov_07_1508,ProdFawcett_Revision2019,3.2.3,60.06334285017094,
,,,,141,0,141,0,,,,,,,,,,,,,4009.363547399873,None,,,,,,,,,,,,,,,,,,,,,,fellow,D_new,141,126,4004.593457699986,None,4004.593457699986,None,4004.593457699986,None,2,3.8224144000560045,4004.593457699986,None,4008.4688466999214,None,4008.4688466999214,None,4008.9902696998324,None,4008.9902696998324,None,4008.9902696998324,None,n,0.3455060999840498,4008.9902696998324,None,sing26,001,2019_Nov_07_1508,ProdFawcett_Revision2019,3.2.3,60.06334285017094,
,,,,142,0,142,0,,,,,,,,,,,,,4019.119712600019,None,,,,,,,,,,,,,,,,,,,,,,period,D_new,142,217,4009.88868679991,None,4009.88868679991,None,4009.88868679991,None,4,8.311162299942225,4009.88868679991,None,4018.250267599942,None,4018.250267599942,None,4018.7705840000417,None,4018.7705840000417,None,4018.7705840000417,None,n,0.31798779987730086,4018.7705840000417,None,sing26,001,2019_Nov_07_1508,ProdFawcett_Revision2019,3.2.3,60.06334285017094,
,,,,143,0,143,0,,,,,,,,,,,,,4022.3783549999353,None,,,,,,,,,,,,,,,,,,,,,,platform,C_sing,143,224,4019.641299800016,None,4019.641299800016,None,4019.641299800016,None,3,1.8707405000459403,4019.641299800016,None,4021.5679335999303,None,4021.5679335999303,None,4022.0861869999208,None,4022.0861869999208,None,4022.0861869999208,None,n,0.2654079000931233,4022.0861869999208,None,sing26,001,2019_Nov_07_1508,ProdFawcett_Revision2019,3.2.3,60.06334285017094,
,,,,144,0,144,0,,,,,,,,,,,,,4027.0054039999377,None,,,,,,,,,,,,,,,,,,,,,,patient,D_new,144,213,4022.8955391999334,None,4022.8955391999334,None,4022.8955391999334,None,2,2.377234200015664,4022.8955391999334,None,4025.3189536000136,None,4025.3189536000136,None,4025.836686299881,None,4025.836686299881,None,4025.836686299881,None,n,1.131241099908948,4025.836686299881,None,sing26,001,2019_Nov_07_1508,ProdFawcett_Revision2019,3.2.3,60.06334285017094,
,,,,145,0,145,0,,,,,,,,,,,,,4030.8707395000383,None,,,,,,,,,,,,,,,,,,,,,,colonel,D_new,145,55,4027.5253258999437,None,4027.5253258999437,None,4027.5253258999437,None,4,2.266301800031215,4027.5253258999437,None,4029.828249000013,None,4029.828249000013,None,4030.361074599903,None,4030.361074599903,None,4030.361074599903,None,f,0.4793136001098901,4030.361074599903,None,sing26,001,2019_Nov_07_1508,ProdFawcett_Revision2019,3.2.3,60.06334285017094,
,,,,146,0,146,0,,,,,,,,,,,,,4033.970222099917,None,,,,,,,,,,,,,,,,,,,,,,sleep,D_new,146,290,4031.3891300999094,None,4031.3891300999094,None,4031.3891300999094,None,5,1.7309921002015471,4031.3891300999094,None,4033.1702890000306,None,4033.1702890000306,None,4033.691951799905,None,4033.691951799905,None,4033.691951799905,None,f,0.25193589995615184,4033.691951799905,None,sing26,001,2019_Nov_07_1508,ProdFawcett_Revision2019,3.2.3,60.06334285017094,
,,,,147,0,147,0,,,,,,,,,,,,,4037.474045800045,None,,,,,,,,,,,,,,,,,,,,,,strength,A_silent,147,310,4034.4970722999424,None,4034.4970722999424,None,4034.4970722999424,None,4,1.6232580000068992,4034.4970722999424,None,4036.165912800003,None,4036.165912800003,None,4036.6936908999924,None,4036.6936908999924,None,4036.6936908999924,None,f,0.7470332998782396,4036.6936908999924,None,sing26,001,2019_Nov_07_1508,ProdFawcett_Revision2019,3.2.3,60.06334285017094,
,,,,148,0,148,0,,,,,,,,,,,,,4041.8917975998484,None,,,,,,,,,,,,,,,,,,,,,,graduate,C_sing,148,141,4037.9921193998307,None,4037.9921193998307,None,4037.9921193998307,None,6,1.991775899892673,4037.9921193998307,None,4040.026425999822,None,4040.026425999822,None,4040.5374095998704,None,4040.5374095998704,None,4040.5374095998704,None,r,1.3105486000422388,4040.5374095998704,None,sing26,001,2019_Nov_07_1508,ProdFawcett_Revision2019,3.2.3,60.06334285017094,
,,,,149,0,149,0,,,,,,,,,,,,,4044.9297414999455,None,,,,,,,,,,,,,,,,,,,,,,report,B_aloud,149,259,4042.4123599999584,None,4042.4123599999584,None,4042.4123599999584,None,2,1.7796551000792533,4042.4123599999584,None,4044.2313706998248,None,4044.2313706998248,None,4044.755627000006,None,4044.755627000006,None,4044.755627000006,None,n,0.14807630004361272,4044.755627000006,None,sing26,001,2019_Nov_07_1508,ProdFawcett_Revision2019,3.2.3,60.06334285017094,
,,,,150,0,150,0,,,,,,,,,,,,,4048.24087790004,None,,,,,,,,,,,,,,,,,,,,,,balance,B_aloud,150,17,4045.4619238998275,None,4045.4619238998275,None,4045.4619238998275,None,4,1.8581798998638988,4045.4619238998275,None,4047.3603353998624,None,4047.3603353998624,None,4047.8968193999026,None,4047.8968193999026,None,4047.8968193999026,None,f,0.30320510012097657,4047.8968193999026,None,sing26,001,2019_Nov_07_1508,ProdFawcett_Revision2019,3.2.3,60.06334285017094,
,,,,151,0,151,0,,,,,,,,,,,,,4052.4139864000026,None,,,,,,,,,,,,,,,,,,,,,,property,D_new,151,242,4048.761660899967,None,4048.761660899967,None,4048.761660899967,None,6,3.0461288997903466,4048.761660899967,None,4051.8399471000303,None,4051.8399471000303,None,4052.3559007998556,None,4052.3559007998556,None,4052.3559007998556,None,r,0.035812600050121546,4052.3559007998556,None,sing26,001,2019_Nov_07_1508,ProdFawcett_Revision2019,3.2.3,60.06334285017094,
,,,,152,0,152,0,,,,,,,,,,,,,4056.2565732998773,None,,,,,,,,,,,,,,,,,,,,,,instrument,D_new,152,163,4052.9420634999406,None,4052.9420634999406,None,4052.9420634999406,None,3,2.241803399985656,4052.9420634999406,None,4055.2369964998215,None,4055.2369964998215,None,4055.7584163998254,None,4055.7584163998254,None,4055.7584163998254,None,n,0.4574371001217514,4055.7584163998254,None,sing26,001,2019_Nov_07_1508,ProdFawcett_Revision2019,3.2.3,60.06334285017094,
