StudyTrials.thisRepN,StudyTrials.thisTrialN,StudyTrials.thisN,StudyTrials.thisIndex,TestTrials.thisRepN,TestTrials.thisTrialN,TestTrials.thisN,TestTrials.thisIndex,textWelcome.started,textWelcome.stopped,keyWelcome.keys,keyWelcome.rt,keyWelcome.started,keyWelcome.stopped,textReady.started,textReady.stopped,keyReady.keys,keyReady.rt,keyReady.started,keyReady.stopped,polyback_2.started,polyback_2.stopped,studyPic,studyWord,studyType,studyN,studyOrder,polyback_3.started,polyback_3.stopped,studyPicChoice.started,studyPicChoice.stopped,polyback_4.started,polyback_4.stopped,polyback.started,polyback.stopped,studyWords.started,studyWords.stopped,getResearcher.started,getResearcher.stopped,kPress2.keys,kPress2.rt,kPress2.started,kPress2.stopped,testWord,testType,testN,testOrder,polyback_5.started,polyback_5.stopped,testWords.started,testWords.stopped,textScale.started,textScale.stopped,keyConf.keys,keyConf.rt,keyConf.started,keyConf.stopped,polyback_6.started,polyback_6.stopped,studyWords_2.started,studyWords_2.stopped,polyback_7.started,polyback_7.stopped,testWords_2.started,testWords_2.stopped,textScale_2.started,textScale_2.stopped,keyRKN.keys,keyRKN.rt,keyRKN.started,keyRKN.stopped,participant,session,date,expName,psychopyVersion,frameRate,
,,,,,,,,17.710255022742786,None,space,367.65385768492706,17.710255022742786,None,,,,,,,,,,,,,,,,,,,,,,,,,,,,,,,,,,,,,,,,,,,,,,,,,,,,,,,,,,sing28,001,2019_Nov_07_1801,ProdFawcett_Revision2019,3.2.4,59.91469508142321,
,,,,,,,,,,,,,,385.3880608944455,None,space,11.69526217575185,385.3880608944455,None,,,,,,,,,,,,,,,,,,,,,,,,,,,,,,,,,,,,,,,,,,,,,,,,,,,,sing28,001,2019_Nov_07_1801,ProdFawcett_Revision2019,3.2.4,59.91469508142321,
0,0,0,0,,,,,,,,,,,,,,,,,401.8931750326883,None,materials/speakPic.jpg,present,B_aloud,0,231,398.2435426386073,None,398.2435426386073,None,399.14369378623087,None,399.4089715121081,None,399.4089715121081,None,,,,,,,,,,,,,,,,,,,,,,,,,,,,,,,,,,,sing28,001,2019_Nov_07_1801,ProdFawcett_Revision2019,3.2.4,59.91469508142321,
1,0,1,0,,,,,,,,,,,,,,,,,406.16115662129596,None,materials/readPic.jpg,executive,A_silent,1,122,402.5277772594709,None,402.5277772594709,None,403.4104294956196,None,403.6769185793819,None,403.6769185793819,None,,,,,,,,,,,,,,,,,,,,,,,,,,,,,,,,,,,sing28,001,2019_Nov_07_1801,ProdFawcett_Revision2019,3.2.4,59.91469508142321,
2,0,2,0,,,,,,,,,,,,,,,,,410.42921875976026,None,materials/readPic.jpg,frank,A_silent,2,133,406.7443954095943,None,406.7443954095943,None,407.67839646700304,None,407.94494744052645,None,407.94494744052645,None,,,,,,,,,,,,,,,,,,,,,,,,,,,,,,,,,,,sing28,001,2019_Nov_07_1801,ProdFawcett_Revision2019,3.2.4,59.91469508142321,
3,0,3,0,,,,,,,,,,,,,,,,,414.69715245382395,None,materials/speakPic.jpg,minute,B_aloud,3,192,411.0502687068656,None,411.0502687068656,None,411.94640480191447,None,412.2129389811307,None,412.2129389811307,None,,,,,,,,,,,,,,,,,,,,,,,,,,,,,,,,,,,sing28,001,2019_Nov_07_1801,ProdFawcett_Revision2019,3.2.4,59.91469508142321,
4,0,4,0,,,,,,,,,,,,,,,,,418.9650665547233,None,materials/speakPic.jpg,mayor,B_aloud,4,183,415.26785003428813,None,415.26785003428813,None,416.21434907009825,None,416.4809283448849,None,416.4809283448849,None,,,,,,,,,,,,,,,,,,,,,,,,,,,,,,,,,,,sing28,001,2019_Nov_07_1801,ProdFawcett_Revision2019,3.2.4,59.91469508142321,
5,0,5,0,,,,,,,,,,,,,,,,,423.23312122910284,None,materials/singPic.jpg,member,C_sing,5,188,419.58329476893414,None,419.58329476893414,None,420.4839603160508,None,420.74891024443787,None,420.74891024443787,None,,,,,,,,,,,,,,,,,,,,,,,,,,,,,,,,,,,sing28,001,2019_Nov_07_1801,ProdFawcett_Revision2019,3.2.4,59.91469508142321,
6,0,6,0,,,,,,,,,,,,,,,,,427.5011152578518,None,materials/readPic.jpg,personnel,A_silent,6,219,423.837877091486,None,423.837877091486,None,424.75042887357995,None,425.0168706848053,None,425.0168706848053,None,,,,,,,,,,,,,,,,,,,,,,,,,,,,,,,,,,,sing28,001,2019_Nov_07_1801,ProdFawcett_Revision2019,3.2.4,59.91469508142321,
7,0,7,0,,,,,,,,,,,,,,,,,431.76911146356724,None,materials/readPic.jpg,raise,A_silent,7,250,428.0845789015293,None,428.0845789015293,None,429.0183320892975,None,429.2848755987361,None,429.2848755987361,None,,,,,,,,,,,,,,,,,,,,,,,,,,,,,,,,,,,sing28,001,2019_Nov_07_1801,ProdFawcett_Revision2019,3.2.4,59.91469508142321,
8,0,8,0,,,,,,,,,,,,,,,,,436.03709274122957,None,materials/readPic.jpg,bucket,A_silent,8,33,432.3411230329657,None,432.3411230329657,None,433.2863037257921,None,433.55287553649396,None,433.55287553649396,None,,,,,,,,,,,,,,,,,,,,,,,,,,,,,,,,,,,sing28,001,2019_Nov_07_1801,ProdFawcett_Revision2019,3.2.4,59.91469508142321,
9,0,9,0,,,,,,,,,,,,,,,,,440.30503110040445,None,materials/singPic.jpg,burden,C_sing,9,36,436.65512160235085,None,436.65512160235085,None,437.55429588851985,None,437.8208589911228,None,437.8208589911228,None,,,,,,,,,,,,,,,,,,,,,,,,,,,,,,,,,,,sing28,001,2019_Nov_07_1801,ProdFawcett_Revision2019,3.2.4,59.91469508142321,
10,0,10,0,,,,,,,,,,,,,,,,,444.57306338252965,None,materials/speakPic.jpg,vision,B_aloud,10,347,440.9068983641919,None,440.9068983641919,None,441.8222877403023,None,442.0888477328699,None,442.0888477328699,None,,,,,,,,,,,,,,,,,,,,,,,,,,,,,,,,,,,sing28,001,2019_Nov_07_1801,ProdFawcett_Revision2019,3.2.4,59.91469508142321,
11,0,11,0,,,,,,,,,,,,,,,,,448.84104652609676,None,materials/speakPic.jpg,clean,B_aloud,11,51,445.14174068544526,None,445.14174068544526,None,446.0902901660884,None,446.3568035081262,None,446.3568035081262,None,,,,,,,,,,,,,,,,,,,,,,,,,,,,,,,,,,,sing28,001,2019_Nov_07_1801,ProdFawcett_Revision2019,3.2.4,59.91469508142321,
12,0,12,0,,,,,,,,,,,,,,,,,453.10904273192864,None,materials/singPic.jpg,tough,C_sing,12,333,449.44487528770696,None,449.44487528770696,None,450.3583784288494,None,450.6248211731436,None,450.6248211731436,None,,,,,,,,,,,,,,,,,,,,,,,,,,,,,,,,,,,sing28,001,2019_Nov_07_1801,ProdFawcett_Revision2019,3.2.4,59.91469508142321,
13,0,13,0,,,,,,,,,,,,,,,,,457.37699788517784,None,materials/readPic.jpg,literature,A_silent,13,173,453.7118803259218,None,453.7118803259218,None,454.6262247309787,None,454.8928170679137,None,454.8928170679137,None,,,,,,,,,,,,,,,,,,,,,,,,,,,,,,,,,,,sing28,001,2019_Nov_07_1801,ProdFawcett_Revision2019,3.2.4,59.91469508142321,
14,0,14,0,,,,,,,,,,,,,,,,,461.64503887540195,None,materials/readPic.jpg,institute,A_silent,14,162,457.9603517447831,None,457.9603517447831,None,458.89423897501547,None,459.160811407608,None,459.160811407608,None,,,,,,,,,,,,,,,,,,,,,,,,,,,,,,,,,,,sing28,001,2019_Nov_07_1801,ProdFawcett_Revision2019,3.2.4,59.91469508142321,
15,0,15,0,,,,,,,,,,,,,,,,,465.9129893637728,None,materials/singPic.jpg,interior,C_sing,15,164,462.2497549294494,None,462.2497549294494,None,463.16223362565506,None,463.42878148914315,None,463.42878148914315,None,,,,,,,,,,,,,,,,,,,,,,,,,,,,,,,,,,,sing28,001,2019_Nov_07_1801,ProdFawcett_Revision2019,3.2.4,59.91469508142321,
16,0,16,0,,,,,,,,,,,,,,,,,470.18100578465965,None,materials/speakPic.jpg,crisis,B_aloud,16,79,466.515539590735,None,466.515539590735,None,467.430453442852,None,467.69674628356006,None,467.69674628356006,None,,,,,,,,,,,,,,,,,,,,,,,,,,,,,,,,,,,sing28,001,2019_Nov_07_1801,ProdFawcett_Revision2019,3.2.4,59.91469508142321,
17,0,17,0,,,,,,,,,,,,,,,,,474.44903122470714,None,materials/singPic.jpg,shape,C_sing,17,282,470.79895658395253,None,470.79895658395253,None,471.69826988864224,None,471.96478447469417,None,471.96478447469417,None,,,,,,,,,,,,,,,,,,,,,,,,,,,,,,,,,,,sing28,001,2019_Nov_07_1801,ProdFawcett_Revision2019,3.2.4,59.91469508142321,
18,0,18,0,,,,,,,,,,,,,,,,,478.7169568327954,None,materials/readPic.jpg,equipment,A_silent,18,116,475.0509392300155,None,475.0509392300155,None,475.9662377930945,None,476.2349042110145,None,476.2349042110145,None,,,,,,,,,,,,,,,,,,,,,,,,,,,,,,,,,,,sing28,001,2019_Nov_07_1801,ProdFawcett_Revision2019,3.2.4,59.91469508142321,
19,0,19,0,,,,,,,,,,,,,,,,,482.98494806245435,None,materials/singPic.jpg,working,C_sing,19,357,479.3187920632772,None,479.3187920632772,None,480.23422808980104,None,480.5007398768794,None,480.5007398768794,None,,,,,,,,,,,,,,,,,,,,,,,,,,,,,,,,,,,sing28,001,2019_Nov_07_1801,ProdFawcett_Revision2019,3.2.4,59.91469508142321,
20,0,20,0,,,,,,,,,,,,,,,,,487.2529461343074,None,materials/singPic.jpg,stranger,C_sing,20,309,483.5850740188034,None,483.5850740188034,None,484.5021558748558,None,484.76873732660897,None,484.76873732660897,None,,,,,,,,,,,,,,,,,,,,,,,,,,,,,,,,,,,sing28,001,2019_Nov_07_1801,ProdFawcett_Revision2019,3.2.4,59.91469508142321,
21,0,21,0,,,,,,,,,,,,,,,,,491.52092088083737,None,materials/readPic.jpg,recall,A_silent,21,255,487.8549210052006,None,487.8549210052006,None,488.77023076452315,None,489.0367167382501,None,489.0367167382501,None,,,,,,,,,,,,,,,,,,,,,,,,,,,,,,,,,,,sing28,001,2019_Nov_07_1801,ProdFawcett_Revision2019,3.2.4,59.91469508142321,
22,0,22,0,,,,,,,,,,,,,,,,,495.78890464641154,None,materials/speakPic.jpg,hunger,B_aloud,22,155,492.11014772660565,None,492.11014772660565,None,493.0381930709118,None,493.3047023698455,None,493.3047023698455,None,,,,,,,,,,,,,,,,,,,,,,,,,,,,,,,,,,,sing28,001,2019_Nov_07_1801,ProdFawcett_Revision2019,3.2.4,59.91469508142321,
23,0,23,0,,,,,,,,,,,,,,,,,500.0569179573795,None,materials/singPic.jpg,escape,C_sing,23,118,496.3941158176167,None,496.3941158176167,None,497.3061550662387,None,497.57271412585396,None,497.57271412585396,None,,,,,,,,,,,,,,,,,,,,,,,,,,,,,,,,,,,sing28,001,2019_Nov_07_1801,ProdFawcett_Revision2019,3.2.4,59.91469508142321,
24,0,24,0,,,,,,,,,,,,,,,,,504.3248945699306,None,materials/readPic.jpg,testimony,A_silent,24,325,500.6627470921958,None,500.6627470921958,None,501.57415935816243,None,501.84069322643336,None,501.84069322643336,None,,,,,,,,,,,,,,,,,,,,,,,,,,,,,,,,,,,sing28,001,2019_Nov_07_1801,ProdFawcett_Revision2019,3.2.4,59.91469508142321,
25,0,25,0,,,,,,,,,,,,,,,,,508.5928879766725,None,materials/speakPic.jpg,service,B_aloud,25,280,504.9161438700976,None,504.9161438700976,None,505.84232599369716,None,506.1086804129882,None,506.1086804129882,None,,,,,,,,,,,,,,,,,,,,,,,,,,,,,,,,,,,sing28,001,2019_Nov_07_1801,ProdFawcett_Revision2019,3.2.4,59.91469508142321,
26,0,26,0,,,,,,,,,,,,,,,,,512.8608661441831,None,materials/readPic.jpg,division,A_silent,26,101,509.1845450021792,None,509.1845450021792,None,510.11036387388594,None,510.37666013557464,None,510.37666013557464,None,,,,,,,,,,,,,,,,,,,,,,,,,,,,,,,,,,,sing28,001,2019_Nov_07_1801,ProdFawcett_Revision2019,3.2.4,59.91469508142321,
27,0,27,0,,,,,,,,,,,,,,,,,517.1288617280079,None,materials/singPic.jpg,finish,C_sing,27,130,513.4791198606836,None,513.4791198606836,None,514.378174099722,None,514.6446541643236,None,514.6446541643236,None,,,,,,,,,,,,,,,,,,,,,,,,,,,,,,,,,,,sing28,001,2019_Nov_07_1801,ProdFawcett_Revision2019,3.2.4,59.91469508142321,
28,0,28,0,,,,,,,,,,,,,,,,,521.3968445606297,None,materials/readPic.jpg,dance,A_silent,28,84,517.7308076756308,None,517.7308076756308,None,518.6461177458987,None,518.9126597002614,None,518.9126597002614,None,,,,,,,,,,,,,,,,,,,,,,,,,,,,,,,,,,,sing28,001,2019_Nov_07_1801,ProdFawcett_Revision2019,3.2.4,59.91469508142321,
29,0,29,0,,,,,,,,,,,,,,,,,525.6648025129689,None,materials/readPic.jpg,incident,A_silent,29,158,521.9802248553606,None,521.9802248553606,None,522.9143030416453,None,523.1805355476681,None,523.1805355476681,None,,,,,,,,,,,,,,,,,,,,,,,,,,,,,,,,,,,sing28,001,2019_Nov_07_1801,ProdFawcett_Revision2019,3.2.4,59.91469508142321,
30,0,30,0,,,,,,,,,,,,,,,,,529.9328155128751,None,materials/speakPic.jpg,relation,B_aloud,30,257,526.2497452882817,None,526.2497452882817,None,527.1820902532199,None,527.4486082602525,None,527.4486082602525,None,,,,,,,,,,,,,,,,,,,,,,,,,,,,,,,,,,,sing28,001,2019_Nov_07_1801,ProdFawcett_Revision2019,3.2.4,59.91469508142321,
31,0,31,0,,,,,,,,,,,,,,,,,534.2008086085552,None,materials/readPic.jpg,story,A_silent,31,306,530.5362017167499,None,530.5362017167499,None,531.4501032531261,None,531.7165923368884,None,531.7165923368884,None,,,,,,,,,,,,,,,,,,,,,,,,,,,,,,,,,,,sing28,001,2019_Nov_07_1801,ProdFawcett_Revision2019,3.2.4,59.91469508142321,
32,0,32,0,,,,,,,,,,,,,,,,,538.4687880201964,None,materials/readPic.jpg,angle,A_silent,32,7,534.7839945263695,None,534.7839945263695,None,535.7183834048919,None,535.9845810786355,None,535.9845810786355,None,,,,,,,,,,,,,,,,,,,,,,,,,,,,,,,,,,,sing28,001,2019_Nov_07_1801,ProdFawcett_Revision2019,3.2.4,59.91469508142321,
33,0,33,0,,,,,,,,,,,,,,,,,542.7367767618271,None,materials/speakPic.jpg,sight,B_aloud,33,286,539.0554245195817,None,539.0554245195817,None,539.9860900666099,None,540.2525657772785,None,540.2525657772785,None,,,,,,,,,,,,,,,,,,,,,,,,,,,,,,,,,,,sing28,001,2019_Nov_07_1801,ProdFawcett_Revision2019,3.2.4,59.91469508142321,
34,0,34,0,,,,,,,,,,,,,,,,,547.0047838527244,None,materials/speakPic.jpg,detective,B_aloud,34,92,543.3035774709424,None,543.3035774709424,None,544.2542573241517,None,544.5205607389798,None,544.5205607389798,None,,,,,,,,,,,,,,,,,,,,,,,,,,,,,,,,,,,sing28,001,2019_Nov_07_1801,ProdFawcett_Revision2019,3.2.4,59.91469508142321,
35,0,35,0,,,,,,,,,,,,,,,,,551.2727585992543,None,materials/speakPic.jpg,brilliant,B_aloud,35,30,547.5882198171457,None,547.5882198171457,None,548.5219786029775,None,548.7885504136793,None,548.7885504136793,None,,,,,,,,,,,,,,,,,,,,,,,,,,,,,,,,,,,sing28,001,2019_Nov_07_1801,ProdFawcett_Revision2019,3.2.4,59.91469508142321,
36,0,36,0,,,,,,,,,,,,,,,,,555.5407277477207,None,materials/singPic.jpg,mechanical,C_sing,36,185,551.8788968713488,None,551.8788968713488,None,552.7900534926448,None,553.0565329352394,None,553.0565329352394,None,,,,,,,,,,,,,,,,,,,,,,,,,,,,,,,,,,,sing28,001,2019_Nov_07_1801,ProdFawcett_Revision2019,3.2.4,59.91469508142321,
37,0,37,0,,,,,,,,,,,,,,,,,559.8087314176373,None,materials/speakPic.jpg,quick,B_aloud,37,248,556.0975651552435,None,556.0975651552435,None,557.0579924737103,None,557.3245132798329,None,557.3245132798329,None,,,,,,,,,,,,,,,,,,,,,,,,,,,,,,,,,,,sing28,001,2019_Nov_07_1801,ProdFawcett_Revision2019,3.2.4,59.91469508142321,
38,0,38,0,,,,,,,,,,,,,,,,,564.0767080301885,None,materials/singPic.jpg,murder,C_sing,38,195,560.4269608758623,None,560.4269608758623,None,561.326104061678,None,561.592509174603,None,561.592509174603,None,,,,,,,,,,,,,,,,,,,,,,,,,,,,,,,,,,,sing28,001,2019_Nov_07_1801,ProdFawcett_Revision2019,3.2.4,59.91469508142321,
39,0,39,0,,,,,,,,,,,,,,,,,568.34472134104,None,materials/speakPic.jpg,principal,B_aloud,39,236,564.6787612738553,None,564.6787612738553,None,565.5942162717693,None,565.8605069353944,None,565.8605069353944,None,,,,,,,,,,,,,,,,,,,,,,,,,,,,,,,,,,,sing28,001,2019_Nov_07_1801,ProdFawcett_Revision2019,3.2.4,59.91469508142321,
40,0,40,0,,,,,,,,,,,,,,,,,572.6127340300009,None,materials/speakPic.jpg,estate,B_aloud,40,119,568.9184045530856,None,568.9184045530856,None,569.8618921440793,None,570.1284891460091,None,570.1284891460091,None,,,,,,,,,,,,,,,,,,,,,,,,,,,,,,,,,,,sing28,001,2019_Nov_07_1801,ProdFawcett_Revision2019,3.2.4,59.91469508142321,
41,0,41,0,,,,,,,,,,,,,,,,,576.8806988244178,None,materials/singPic.jpg,blind,C_sing,41,24,573.2145471791737,None,573.2145471791737,None,574.1299440194853,None,574.3964778876398,None,574.3964778876398,None,,,,,,,,,,,,,,,,,,,,,,,,,,,,,,,,,,,sing28,001,2019_Nov_07_1801,ProdFawcett_Revision2019,3.2.4,59.91469508142321,
42,0,42,0,,,,,,,,,,,,,,,,,581.1488390247105,None,materials/readPic.jpg,question,A_silent,42,247,577.484892081935,None,577.484892081935,None,578.397981277667,None,578.6644529452315,None,578.6644529452315,None,,,,,,,,,,,,,,,,,,,,,,,,,,,,,,,,,,,sing28,001,2019_Nov_07_1801,ProdFawcett_Revision2019,3.2.4,59.91469508142321,
43,0,43,0,,,,,,,,,,,,,,,,,585.4166654227301,None,materials/singPic.jpg,point,C_sing,43,226,581.7578369721305,None,581.7578369721305,None,582.66596597631,None,582.9324556820793,None,582.9324556820793,None,,,,,,,,,,,,,,,,,,,,,,,,,,,,,,,,,,,sing28,001,2019_Nov_07_1801,ProdFawcett_Revision2019,3.2.4,59.91469508142321,
44,0,44,0,,,,,,,,,,,,,,,,,589.6846622504527,None,materials/singPic.jpg,author,C_sing,44,15,585.9998681346187,None,585.9998681346187,None,586.9341634011362,None,587.2004521988565,None,587.2004521988565,None,,,,,,,,,,,,,,,,,,,,,,,,,,,,,,,,,,,sing28,001,2019_Nov_07_1801,ProdFawcett_Revision2019,3.2.4,59.91469508142321,
45,0,45,0,,,,,,,,,,,,,,,,,593.9526656093076,None,materials/speakPic.jpg,trend,B_aloud,45,340,590.2704910741886,None,590.2704910741886,None,591.201962430845,None,591.4684288114076,None,591.4684288114076,None,,,,,,,,,,,,,,,,,,,,,,,,,,,,,,,,,,,sing28,001,2019_Nov_07_1801,ProdFawcett_Revision2019,3.2.4,59.91469508142321,
46,0,46,0,,,,,,,,,,,,,,,,,598.2206366237951,None,materials/speakPic.jpg,bright,B_aloud,46,29,594.5359976985492,None,594.5359976985492,None,595.4698755986756,None,595.7363761896268,None,595.7363761896268,None,,,,,,,,,,,,,,,,,,,,,,,,,,,,,,,,,,,sing28,001,2019_Nov_07_1801,ProdFawcett_Revision2019,3.2.4,59.91469508142321,
47,0,47,0,,,,,,,,,,,,,,,,,602.4886228773976,None,materials/speakPic.jpg,background,B_aloud,47,16,598.790407725377,None,598.790407725377,None,599.737896062783,None,600.0043876345735,None,600.0043876345735,None,,,,,,,,,,,,,,,,,,,,,,,,,,,,,,,,,,,sing28,001,2019_Nov_07_1801,ProdFawcett_Revision2019,3.2.4,59.91469508142321,
48,0,48,0,,,,,,,,,,,,,,,,,606.7565957579063,None,materials/singPic.jpg,alert,C_sing,48,6,603.091532935272,None,603.091532935272,None,604.0059034646256,None,604.2723729552235,None,604.2723729552235,None,,,,,,,,,,,,,,,,,,,,,,,,,,,,,,,,,,,sing28,001,2019_Nov_07_1801,ProdFawcett_Revision2019,3.2.4,59.91469508142321,
49,0,49,0,,,,,,,,,,,,,,,,,611.0246118679643,None,materials/readPic.jpg,notice,A_silent,49,201,607.3648647136288,None,607.3648647136288,None,608.2739484978374,None,608.5403682279866,None,608.5403682279866,None,,,,,,,,,,,,,,,,,,,,,,,,,,,,,,,,,,,sing28,001,2019_Nov_07_1801,ProdFawcett_Revision2019,3.2.4,59.91469508142321,
50,0,50,0,,,,,,,,,,,,,,,,,615.2926024756161,None,materials/speakPic.jpg,platform,B_aloud,50,224,611.626350065344,None,611.626350065344,None,612.5419111152878,None,612.8083579025697,None,612.8083579025697,None,,,,,,,,,,,,,,,,,,,,,,,,,,,,,,,,,,,sing28,001,2019_Nov_07_1801,ProdFawcett_Revision2019,3.2.4,59.91469508142321,
51,0,51,0,,,,,,,,,,,,,,,,,619.5605772221461,None,materials/speakPic.jpg,election,B_aloud,51,109,615.8594986627577,None,615.8594986627577,None,616.8099772967398,None,617.0763223860413,None,617.0763223860413,None,,,,,,,,,,,,,,,,,,,,,,,,,,,,,,,,,,,sing28,001,2019_Nov_07_1801,ProdFawcett_Revision2019,3.2.4,59.91469508142321,
52,0,52,0,,,,,,,,,,,,,,,,,623.8285525906831,None,materials/readPic.jpg,track,A_silent,52,334,620.1515727436636,None,620.1515727436636,None,621.077863718383,None,621.3443217017921,None,621.3443217017921,None,,,,,,,,,,,,,,,,,,,,,,,,,,,,,,,,,,,sing28,001,2019_Nov_07_1801,ProdFawcett_Revision2019,3.2.4,59.91469508142321,
53,0,53,0,,,,,,,,,,,,,,,,,628.0965419543209,None,materials/readPic.jpg,childhood,A_silent,53,49,624.4138377807103,None,624.4138377807103,None,625.3459019096335,None,625.6123434099136,None,625.6123434099136,None,,,,,,,,,,,,,,,,,,,,,,,,,,,,,,,,,,,sing28,001,2019_Nov_07_1801,ProdFawcett_Revision2019,3.2.4,59.91469508142321,
54,0,54,0,,,,,,,,,,,,,,,,,632.3645356721245,None,materials/singPic.jpg,entrance,C_sing,54,115,628.7028422591975,None,628.7028422591975,None,629.6138934503542,None,629.8803218884859,None,629.8803218884859,None,,,,,,,,,,,,,,,,,,,,,,,,,,,,,,,,,,,sing28,001,2019_Nov_07_1801,ProdFawcett_Revision2019,3.2.4,59.91469508142321,
55,0,55,0,,,,,,,,,,,,,,,,,636.6325216147816,None,materials/singPic.jpg,route,C_sing,55,267,632.9476898675784,None,632.9476898675784,None,633.8820398706011,None,634.1482960130088,None,634.1482960130088,None,,,,,,,,,,,,,,,,,,,,,,,,,,,,,,,,,,,sing28,001,2019_Nov_07_1801,ProdFawcett_Revision2019,3.2.4,59.91469508142321,
56,0,56,0,,,,,,,,,,,,,,,,,640.9005081794458,None,materials/speakPic.jpg,contract,B_aloud,56,68,637.2343783044489,None,637.2343783044489,None,638.149939043331,None,638.4163003048161,None,638.4163003048161,None,,,,,,,,,,,,,,,,,,,,,,,,,,,,,,,,,,,sing28,001,2019_Nov_07_1801,ProdFawcett_Revision2019,3.2.4,59.91469508142321,
57,0,57,0,,,,,,,,,,,,,,,,,645.1684956770623,None,materials/singPic.jpg,committee,C_sing,57,62,641.5184947440866,None,641.5184947440866,None,642.4177940536756,None,642.6843017976498,None,642.6843017976498,None,,,,,,,,,,,,,,,,,,,,,,,,,,,,,,,,,,,sing28,001,2019_Nov_07_1801,ProdFawcett_Revision2019,3.2.4,59.91469508142321,
58,0,58,0,,,,,,,,,,,,,,,,,649.4364813087741,None,materials/readPic.jpg,state,A_silent,58,303,645.7703057163162,None,645.7703057163162,None,646.6858882254455,None,646.9523119985824,None,646.9523119985824,None,,,,,,,,,,,,,,,,,,,,,,,,,,,,,,,,,,,sing28,001,2019_Nov_07_1801,ProdFawcett_Revision2019,3.2.4,59.91469508142321,
59,0,59,0,,,,,,,,,,,,,,,,,653.7044597873464,None,materials/singPic.jpg,ground,C_sing,59,142,650.0387077813502,None,650.0387077813502,None,650.9538925172528,None,651.2202898551477,None,651.2202898551477,None,,,,,,,,,,,,,,,,,,,,,,,,,,,,,,,,,,,sing28,001,2019_Nov_07_1801,ProdFawcett_Revision2019,3.2.4,59.91469508142321,
60,0,60,0,,,,,,,,,,,,,,,,,657.972467189189,None,materials/singPic.jpg,dozen,C_sing,60,102,654.304532873095,None,654.304532873095,None,655.2217752068536,None,655.4902954531135,None,655.4902954531135,None,,,,,,,,,,,,,,,,,,,,,,,,,,,,,,,,,,,sing28,001,2019_Nov_07_1801,ProdFawcett_Revision2019,3.2.4,59.91469508142321,
61,0,61,0,,,,,,,,,,,,,,,,,662.2404400696978,None,materials/singPic.jpg,object,C_sing,61,204,658.5593406730331,None,658.5593406730331,None,659.4901654537534,None,659.7578450582223,None,659.7578450582223,None,,,,,,,,,,,,,,,,,,,,,,,,,,,,,,,,,,,sing28,001,2019_Nov_07_1801,ProdFawcett_Revision2019,3.2.4,59.91469508142321,
62,0,62,0,,,,,,,,,,,,,,,,,666.5084294333356,None,materials/readPic.jpg,period,A_silent,62,217,662.8342119177105,None,662.8342119177105,None,663.7577959196642,None,664.0242504820926,None,664.0242504820926,None,,,,,,,,,,,,,,,,,,,,,,,,,,,,,,,,,,,sing28,001,2019_Nov_07_1801,ProdFawcett_Revision2019,3.2.4,59.91469508142321,
63,0,63,0,,,,,,,,,,,,,,,,,670.7764231511392,None,materials/speakPic.jpg,gesture,B_aloud,63,137,667.0959675313206,None,667.0959675313206,None,668.0258250917541,None,668.2922429557657,None,668.2922429557657,None,,,,,,,,,,,,,,,,,,,,,,,,,,,,,,,,,,,sing28,001,2019_Nov_07_1801,ProdFawcett_Revision2019,3.2.4,59.91469508142321,
64,0,64,0,,,,,,,,,,,,,,,,,675.0443957205862,None,materials/singPic.jpg,income,C_sing,64,159,671.3945829445729,None,671.3945829445729,None,672.2938032593811,None,672.5602466256823,None,672.5602466256823,None,,,,,,,,,,,,,,,,,,,,,,,,,,,,,,,,,,,sing28,001,2019_Nov_07_1801,ProdFawcett_Revision2019,3.2.4,59.91469508142321,
65,0,65,0,,,,,,,,,,,,,,,,,679.3124214716954,None,materials/readPic.jpg,agency,A_silent,65,4,675.646492504864,None,675.646492504864,None,676.5617546805879,None,676.8283215152333,None,676.8283215152333,None,,,,,,,,,,,,,,,,,,,,,,,,,,,,,,,,,,,sing28,001,2019_Nov_07_1801,ProdFawcett_Revision2019,3.2.4,59.91469508142321,
66,0,66,0,,,,,,,,,,,,,,,,,683.5804291845998,None,materials/singPic.jpg,management,C_sing,66,177,679.9139914163388,None,679.9139914163388,None,680.8297779436689,None,681.0962017168058,None,681.0962017168058,None,,,,,,,,,,,,,,,,,,,,,,,,,,,,,,,,,,,sing28,001,2019_Nov_07_1801,ProdFawcett_Revision2019,3.2.4,59.91469508142321,
67,0,67,0,,,,,,,,,,,,,,,,,687.84836785472,None,materials/speakPic.jpg,pretty,B_aloud,67,233,684.183296634932,None,684.183296634932,None,685.097699508653,None,685.3641920135124,None,685.3641920135124,None,,,,,,,,,,,,,,,,,,,,,,,,,,,,,,,,,,,sing28,001,2019_Nov_07_1801,ProdFawcett_Revision2019,3.2.4,59.91469508142321,
68,0,68,0,,,,,,,,,,,,,,,,,692.1163481993135,None,materials/singPic.jpg,benefit,C_sing,68,20,688.4665046340087,None,688.4665046340087,None,689.3657644460909,None,689.6161012627417,None,689.6161012627417,None,,,,,,,,,,,,,,,,,,,,,,,,,,,,,,,,,,,sing28,001,2019_Nov_07_1801,ProdFawcett_Revision2019,3.2.4,59.91469508142321,
69,0,69,0,,,,,,,,,,,,,,,,,696.3843384960201,None,materials/readPic.jpg,device,A_silent,69,93,692.7182807738427,None,692.7182807738427,None,693.6338101014262,None,693.900158300763,None,693.900158300763,None,,,,,,,,,,,,,,,,,,,,,,,,,,,,,,,,,,,sing28,001,2019_Nov_07_1801,ProdFawcett_Revision2019,3.2.4,59.91469508142321,
70,0,70,0,,,,,,,,,,,,,,,,,700.6523636251222,None,materials/singPic.jpg,split,C_sing,70,299,696.9858051876072,None,696.9858051876072,None,697.9016595135909,None,698.1681834297488,None,698.1681834297488,None,,,,,,,,,,,,,,,,,,,,,,,,,,,,,,,,,,,sing28,001,2019_Nov_07_1801,ProdFawcett_Revision2019,3.2.4,59.91469508142321,
71,0,71,0,,,,,,,,,,,,,,,,,704.9203442806611,None,materials/speakPic.jpg,novel,B_aloud,71,202,701.2543745724251,None,701.2543745724251,None,702.1696930397302,None,702.4361690614605,None,702.4361690614605,None,,,,,,,,,,,,,,,,,,,,,,,,,,,,,,,,,,,sing28,001,2019_Nov_07_1801,ProdFawcett_Revision2019,3.2.4,59.91469508142321,
72,0,72,0,,,,,,,,,,,,,,,,,709.1883180942386,None,materials/speakPic.jpg,phrase,B_aloud,72,220,705.4933348883642,None,705.4933348883642,None,706.4376541022211,None,706.7041546930559,None,706.7041546930559,None,,,,,,,,,,,,,,,,,,,,,,,,,,,,,,,,,,,sing28,001,2019_Nov_07_1801,ProdFawcett_Revision2019,3.2.4,59.91469508142321,
73,0,73,0,,,,,,,,,,,,,,,,,713.4562847546767,None,materials/speakPic.jpg,accident,B_aloud,73,0,709.7552432046505,None,709.7552432046505,None,710.7057028674753,None,710.9721219755011,None,710.9721219755011,None,,,,,,,,,,,,,,,,,,,,,,,,,,,,,,,,,,,sing28,001,2019_Nov_07_1801,ProdFawcett_Revision2019,3.2.4,59.91469508142321,
74,0,74,0,,,,,,,,,,,,,,,,,717.7242878024699,None,materials/speakPic.jpg,primary,B_aloud,74,234,714.0228416371392,None,714.0228416371392,None,714.9738555079093,None,715.2401141382288,None,715.2401141382288,None,,,,,,,,,,,,,,,,,,,,,,,,,,,,,,,,,,,sing28,001,2019_Nov_07_1801,ProdFawcett_Revision2019,3.2.4,59.91469508142321,
75,0,75,0,,,,,,,,,,,,,,,,,721.9922864962136,None,materials/readPic.jpg,number,A_silent,75,203,718.3258014555322,None,718.3258014555322,None,719.2415848728269,None,719.5081234060926,None,719.5081234060926,None,,,,,,,,,,,,,,,,,,,,,,,,,,,,,,,,,,,sing28,001,2019_Nov_07_1801,ProdFawcett_Revision2019,3.2.4,59.91469508142321,
76,0,76,0,,,,,,,,,,,,,,,,,726.2602761709131,None,materials/singPic.jpg,dispute,C_sing,76,99,722.5984409404919,None,722.5984409404919,None,723.509680288611,None,723.7761077937903,None,723.7761077937903,None,,,,,,,,,,,,,,,,,,,,,,,,,,,,,,,,,,,sing28,001,2019_Nov_07_1801,ProdFawcett_Revision2019,3.2.4,59.91469508142321,
77,0,77,0,,,,,,,,,,,,,,,,,730.5282664676197,None,materials/readPic.jpg,power,A_silent,77,230,726.861944081611,None,726.861944081611,None,727.7776621882804,None,728.0440984014422,None,728.0440984014422,None,,,,,,,,,,,,,,,,,,,,,,,,,,,,,,,,,,,sing28,001,2019_Nov_07_1801,ProdFawcett_Revision2019,3.2.4,59.91469508142321,
78,0,78,0,,,,,,,,,,,,,,,,,734.7962418361567,None,materials/singPic.jpg,spoke,C_sing,78,300,731.1467385084834,None,731.1467385084834,None,732.0456335137133,None,732.3120650618803,None,732.3120650618803,None,,,,,,,,,,,,,,,,,,,,,,,,,,,,,,,,,,,sing28,001,2019_Nov_07_1801,ProdFawcett_Revision2019,3.2.4,59.91469508142321,
79,0,79,0,,,,,,,,,,,,,,,,,739.0642420849763,None,materials/singPic.jpg,people,C_sing,79,216,735.3857277476927,None,735.3857277476927,None,736.3137149343966,None,736.5800761958817,None,736.5800761958817,None,,,,,,,,,,,,,,,,,,,,,,,,,,,,,,,,,,,sing28,001,2019_Nov_07_1801,ProdFawcett_Revision2019,3.2.4,59.91469508142321,
80,0,80,0,,,,,,,,,,,,,,,,,743.3322557068896,None,materials/readPic.jpg,drink,A_silent,80,105,739.6563183430117,None,739.6563183430117,None,740.5815808298066,None,740.8480571624823,None,740.8480571624823,None,,,,,,,,,,,,,,,,,,,,,,,,,,,,,,,,,,,sing28,001,2019_Nov_07_1801,ProdFawcett_Revision2019,3.2.4,59.91469508142321,
81,0,81,0,,,,,,,,,,,,,,,,,747.6002304534195,None,materials/readPic.jpg,machinery,A_silent,81,175,743.9062437021639,None,743.9062437021639,None,744.849686508649,None,745.1160356410546,None,745.1160356410546,None,,,,,,,,,,,,,,,,,,,,,,,,,,,,,,,,,,,sing28,001,2019_Nov_07_1801,ProdFawcett_Revision2019,3.2.4,59.91469508142321,
82,0,82,0,,,,,,,,,,,,,,,,,751.8682170180837,None,materials/readPic.jpg,minor,A_silent,82,191,748.1836794799892,None,748.1836794799892,None,749.1175343658542,None,749.3840215837117,None,749.3840215837117,None,,,,,,,,,,,,,,,,,,,,,,,,,,,,,,,,,,,sing28,001,2019_Nov_07_1801,ProdFawcett_Revision2019,3.2.4,59.91469508142321,
83,0,83,0,,,,,,,,,,,,,,,,,756.1362126019085,None,materials/readPic.jpg,owner,A_silent,83,208,752.4513572184369,None,752.4513572184369,None,753.3856151645305,None,753.6520075262524,None,753.6520075262524,None,,,,,,,,,,,,,,,,,,,,,,,,,,,,,,,,,,,sing28,001,2019_Nov_07_1801,ProdFawcett_Revision2019,3.2.4,59.91469508142321,
84,0,84,0,,,,,,,,,,,,,,,,,760.404200099525,None,materials/speakPic.jpg,union,B_aloud,84,344,756.7222171425819,None,756.7222171425819,None,757.6536909871502,None,757.9199990669731,None,757.9199990669731,None,,,,,,,,,,,,,,,,,,,,,,,,,,,,,,,,,,,sing28,001,2019_Nov_07_1801,ProdFawcett_Revision2019,3.2.4,59.91469508142321,
85,0,85,0,,,,,,,,,,,,,,,,,764.6724245817168,None,materials/singPic.jpg,debate,C_sing,85,87,761.0084057971835,None,761.0084057971835,None,761.9215873609064,None,762.1880002488615,None,762.1880002488615,None,,,,,,,,,,,,,,,,,,,,,,,,,,,,,,,,,,,sing28,001,2019_Nov_07_1801,ProdFawcett_Revision2019,3.2.4,59.91469508142321,
86,0,86,0,,,,,,,,,,,,,,,,,768.940195310046,None,materials/readPic.jpg,hearing,A_silent,86,150,765.3133152951486,None,765.3133152951486,None,766.1892809603596,None,766.4559768614126,None,766.4559768614126,None,,,,,,,,,,,,,,,,,,,,,,,,,,,,,,,,,,,sing28,001,2019_Nov_07_1801,ProdFawcett_Revision2019,3.2.4,59.91469508142321,
87,0,87,0,,,,,,,,,,,,,,,,,773.2081647695741,None,materials/speakPic.jpg,report,B_aloud,87,259,769.5310269328766,None,769.5310269328766,None,770.4575698202243,None,770.7239702681545,None,770.7239702681545,None,,,,,,,,,,,,,,,,,,,,,,,,,,,,,,,,,,,sing28,001,2019_Nov_07_1801,ProdFawcett_Revision2019,3.2.4,59.91469508142321,
88,0,88,0,,,,,,,,,,,,,,,,,777.4761547552189,None,materials/singPic.jpg,rough,C_sing,88,266,773.8103859551484,None,773.8103859551484,None,774.7255965044023,None,774.9919674069388,None,774.9919674069388,None,,,,,,,,,,,,,,,,,,,,,,,,,,,,,,,,,,,sing28,001,2019_Nov_07_1801,ProdFawcett_Revision2019,3.2.4,59.91469508142321,
89,0,89,0,,,,,,,,,,,,,,,,,781.7441518940032,None,materials/speakPic.jpg,quarter,B_aloud,89,246,778.078154506511,None,778.078154506511,None,778.9935696958564,None,779.2599374883575,None,779.2599374883575,None,,,,,,,,,,,,,,,,,,,,,,,,,,,,,,,,,,,sing28,001,2019_Nov_07_1801,ProdFawcett_Revision2019,3.2.4,59.91469508142321,
,,,,,,,,,,,,,,,,,,,,,,,,,,,,,,,,,,,,,782.2442691422766,None,k,95.37131398892961,782.2442691422766,None,,,,,,,,,,,,,,,,,,,,,,,,,,,,,sing28,001,2019_Nov_07_1801,ProdFawcett_Revision2019,3.2.4,59.91469508142321,
,,,,,,,,,,,,,,877.6405013373587,None,space,5.718846177798696,877.6405013373587,None,,,,,,,,,,,,,,,,,,,,,,,,,,,,,,,,,,,,,,,,,,,,,,,,,,,,sing28,001,2019_Nov_07_1801,ProdFawcett_Revision2019,3.2.4,59.91469508142321,
,,,,0,0,0,0,,,,,,,,,,,,,896.9467322883429,None,,,,,,,,,,,,,,,,,,,,,,figure,D_new,0,128,883.9123085774481,None,883.9123085774481,None,883.9123085774481,None,4,8.54261491575744,883.9123085774481,None,892.5118619768182,None,892.5118619768182,None,893.0294740934623,None,893.0294740934623,None,893.0294740934623,None,f,3.8735289544565603,893.0294740934623,None,sing28,001,2019_Nov_07_1801,ProdFawcett_Revision2019,3.2.4,59.91469508142321,
,,,,1,0,1,0,,,,,,,,,,,,,906.4992007215042,None,,,,,,,,,,,,,,,,,,,,,,marriage,D_new,1,179,897.4633877589367,None,897.4633877589367,None,897.4633877589367,None,1,1.9509435839718208,897.4633877589367,None,899.4532509174896,None,899.4532509174896,None,899.9806148535572,None,899.9806148535572,None,899.9806148535572,None,n,6.4730528083164245,899.9806148535572,None,sing28,001,2019_Nov_07_1801,ProdFawcett_Revision2019,3.2.4,59.91469508142321,
,,,,2,0,2,0,,,,,,,,,,,,,914.3017565465998,None,,,,,,,,,,,,,,,,,,,,,,primary,B_aloud,2,234,907.0184194812318,None,907.0184194812318,None,907.0184194812318,None,2,4.451081047416665,907.0184194812318,None,911.534215960768,None,911.534215960768,None,912.0509205698036,None,912.0509205698036,None,912.0509205698036,None,n,2.2183526154840365,912.0509205698036,None,sing28,001,2019_Nov_07_1801,ProdFawcett_Revision2019,3.2.4,59.91469508142321,
,,,,3,0,3,0,,,,,,,,,,,,,923.6046392362332,None,,,,,,,,,,,,,,,,,,,,,,level,D_new,3,170,914.8189021584112,None,914.8189021584112,None,914.8189021584112,None,2,4.953962492989376,914.8189021584112,None,919.8238225415116,None,919.8238225415116,None,920.3535740498919,None,920.3535740498919,None,920.3535740498919,None,n,3.211414443096146,920.3535740498919,None,sing28,001,2019_Nov_07_1801,ProdFawcett_Revision2019,3.2.4,59.91469508142321,
,,,,4,0,4,0,,,,,,,,,,,,,927.8726609442383,None,,,,,,,,,,,,,,,,,,,,,,trail,D_new,4,336,924.1221823102096,None,924.1221823102096,None,924.1221823102096,None,1,2.09853175340686,924.1221823102096,None,926.272070660023,None,926.272070660023,None,926.7889295266941,None,926.7889295266941,None,926.7889295266941,None,n,1.040309448260814,926.7889295266941,None,sing28,001,2019_Nov_07_1801,ProdFawcett_Revision2019,3.2.4,59.91469508142321,
,,,,5,0,5,0,,,,,,,,,,,,,935.8916377433343,None,,,,,,,,,,,,,,,,,,,,,,measure,D_new,5,184,928.3902655967977,None,928.3902655967977,None,928.3902655967977,None,1,5.965844684978947,928.3902655967977,None,934.4079078808427,None,934.4079078808427,None,934.924881507759,None,934.924881507759,None,934.924881507759,None,n,0.9274687442230061,934.924881507759,None,sing28,001,2019_Nov_07_1801,ProdFawcett_Revision2019,3.2.4,59.91469508142321,
,,,,6,0,6,0,,,,,,,,,,,,,940.9767055420671,None,,,,,,,,,,,,,,,,,,,,,,route,C_sing,6,267,936.4084910120582,None,936.4084910120582,None,936.4084910120582,None,1,2.635335883591324,936.4084910120582,None,939.1093276109314,None,939.1093276109314,None,939.6264909498859,None,939.6264909498859,None,939.6264909498859,None,n,1.3133196491980925,939.6264909498859,None,sing28,001,2019_Nov_07_1801,ProdFawcett_Revision2019,3.2.4,59.91469508142321,
,,,,7,0,7,0,,,,,,,,,,,,,947.9121655159397,None,,,,,,,,,,,,,,,,,,,,,,institute,A_silent,7,162,941.4939015363343,None,941.4939015363343,None,941.4939015363343,None,2,3.742429246660322,941.4939015363343,None,945.2946028488223,None,945.2946028488223,None,945.8116675997153,None,945.8116675997153,None,945.8116675997153,None,n,2.0637419916456565,945.8116675997153,None,sing28,001,2019_Nov_07_1801,ProdFawcett_Revision2019,3.2.4,59.91469508142321,
,,,,8,0,8,0,,,,,,,,,,,,,955.1643820364261,None,,,,,,,,,,,,,,,,,,,,,,review,D_new,8,263,948.4287911301944,None,948.4287911301944,None,948.4287911301944,None,2,5.454123592702672,948.4287911301944,None,953.9473682901589,None,953.9473682901589,None,954.464042109903,None,954.464042109903,None,954.464042109903,None,n,0.6671981712570414,954.464042109903,None,sing28,001,2019_Nov_07_1801,ProdFawcett_Revision2019,3.2.4,59.91469508142321,
,,,,9,0,9,0,,,,,,,,,,,,,971.7863180319546,None,,,,,,,,,,,,,,,,,,,,,,fight,D_new,9,127,955.6813908067998,None,955.6813908067998,None,955.6813908067998,None,1,14.697063195868395,955.6813908067998,None,970.4257980345283,None,970.4257980345283,None,970.9526401070179,None,970.9526401070179,None,970.9526401070179,None,n,0.7936486906837672,970.9526401070179,None,sing28,001,2019_Nov_07_1801,ProdFawcett_Revision2019,3.2.4,59.91469508142321,
,,,,10,0,10,0,,,,,,,,,,,,,978.2881059899228,None,,,,,,,,,,,,,,,,,,,,,,subject,D_new,10,312,972.3084437395446,None,972.3084437395446,None,972.3084437395446,None,2,4.957545872894116,972.3084437395446,None,977.3211043727351,None,977.3211043727351,None,977.83854605956,None,977.83854605956,None,977.83854605956,None,n,0.4114072899101302,977.83854605956,None,sing28,001,2019_Nov_07_1801,ProdFawcett_Revision2019,3.2.4,59.91469508142321,
,,,,11,0,11,0,,,,,,,,,,,,,984.2733834049432,None,,,,,,,,,,,,,,,,,,,,,,question,A_silent,11,247,978.8083193382481,None,978.8083193382481,None,978.8083193382481,None,2,4.097334079677239,978.8083193382481,None,982.9563796106959,None,982.9563796106959,None,983.4748914599186,None,983.4748914599186,None,983.4748914599186,None,n,0.7587046712869778,983.4748914599186,None,sing28,001,2019_Nov_07_1801,ProdFawcett_Revision2019,3.2.4,59.91469508142321,
,,,,12,0,12,0,,,,,,,,,,,,,988.941656092531,None,,,,,,,,,,,,,,,,,,,,,,brilliant,B_aloud,12,30,984.7907719102222,None,984.7907719102222,None,984.7907719102222,None,1,2.4827309199608862,984.7907719102222,None,987.324235864915,None,987.324235864915,None,987.8413366922177,None,987.8413366922177,None,987.8413366922177,None,n,1.056233128067106,987.8413366922177,None,sing28,001,2019_Nov_07_1801,ProdFawcett_Revision2019,3.2.4,59.91469508142321,
,,,,13,0,13,0,,,,,,,,,,,,,994.5266066431068,None,,,,,,,,,,,,,,,,,,,,,,present,B_aloud,13,231,989.4591820613714,None,989.4591820613714,None,989.4591820613714,None,6,2.5903371275635436,989.4591820613714,None,992.0979965167353,None,992.0979965167353,None,992.6258425079286,None,992.6258425079286,None,992.6258425079286,None,r,1.8547120109433308,992.6258425079286,None,sing28,001,2019_Nov_07_1801,ProdFawcett_Revision2019,3.2.4,59.91469508142321,
,,,,14,0,14,0,,,,,,,,,,,,,1003.5794019406894,None,,,,,,,,,,,,,,,,,,,,,,detective,B_aloud,14,92,995.0442137836944,None,995.0442137836944,None,995.0442137836944,None,2,6.660330907441676,995.0442137836944,None,1001.7511684393976,None,1001.7511684393976,None,1002.2788048143266,None,1002.2788048143266,None,1002.2788048143266,None,n,1.26547272503376,1002.2788048143266,None,sing28,001,2019_Nov_07_1801,ProdFawcett_Revision2019,3.2.4,59.91469508142321,
,,,,15,0,15,0,,,,,,,,,,,,,1008.414218448801,None,,,,,,,,,,,,,,,,,,,,,,group,D_new,15,143,1004.0964156870032,None,1004.0964156870032,None,1004.0964156870032,None,2,3.2553784910123795,1004.0964156870032,None,1007.4137572308537,None,1007.4137572308537,None,1007.9307271257276,None,1007.9307271257276,None,1007.9307271257276,None,n,0.44519095600117,1007.9307271257276,None,sing28,001,2019_Nov_07_1801,ProdFawcett_Revision2019,3.2.4,59.91469508142321,
,,,,16,0,16,0,,,,,,,,,,,,,1010.9982913478743,None,,,,,,,,,,,,,,,,,,,,,,smell,D_new,16,291,1008.9309715742711,None,1008.9309715742711,None,1008.9309715742711,None,1,1.364808110985905,1008.9309715742711,None,1010.3481644585263,None,1010.3481644585263,None,1010.8648631585529,None,1010.8648631585529,None,1010.8648631585529,None,n,0.08672109234612435,1010.8648631585529,None,sing28,001,2019_Nov_07_1801,ProdFawcett_Revision2019,3.2.4,59.91469508142321,
,,,,17,0,17,0,,,,,,,,,,,,,1020.7514290601248,None,,,,,,,,,,,,,,,,,,,,,,raise,A_silent,17,250,1011.5151436835295,None,1011.5151436835295,None,1011.5151436835295,None,2,7.75596753123682,1011.5151436835295,None,1019.3237018722575,None,1019.3237018722575,None,1019.8511121477932,None,1019.8511121477932,None,1019.8511121477932,None,n,0.8520075262058526,1019.8511121477932,None,sing28,001,2019_Nov_07_1801,ProdFawcett_Revision2019,3.2.4,59.91469508142321,
,,,,18,0,18,0,,,,,,,,,,,,,1026.7030979038682,None,,,,,,,,,,,,,,,,,,,,,,material,D_new,18,182,1021.2693748833844,None,1021.2693748833844,None,1021.2693748833844,None,1,2.7776198917999864,1021.2693748833844,None,1024.1023617590545,None,1024.1023617590545,None,1024.6192162716761,None,1024.6192162716761,None,1024.6192162716761,None,n,2.0515114759327844,1024.6192162716761,None,sing28,001,2019_Nov_07_1801,ProdFawcett_Revision2019,3.2.4,59.91469508142321,
,,,,19,0,19,0,,,,,,,,,,,,,1030.9212247310206,None,,,,,,,,,,,,,,,,,,,,,,property,D_new,19,242,1027.220242271549,None,1027.220242271549,None,1027.220242271549,None,1,2.2182565154507756,1027.220242271549,None,1029.4936558437767,None,1029.4936558437767,None,1030.020908440696,None,1030.020908440696,None,1030.020908440696,None,n,0.8660359519999474,1030.020908440696,None,sing28,001,2019_Nov_07_1801,ProdFawcett_Revision2019,3.2.4,59.91469508142321,
,,,,20,0,20,0,,,,,,,,,,,,,1036.1895061268006,None,,,,,,,,,,,,,,,,,,,,,,government,D_new,20,139,1031.4391145736445,None,1031.4391145736445,None,1031.4391145736445,None,1,3.447288984199986,1031.4391145736445,None,1034.926844249596,None,1034.926844249596,None,1035.4560571002075,None,1035.4560571002075,None,1035.4560571002075,None,n,0.6860835355473682,1035.4560571002075,None,sing28,001,2019_Nov_07_1801,ProdFawcett_Revision2019,3.2.4,59.91469508142321,
,,,,21,0,21,0,,,,,,,,,,,,,1041.6744317970006,None,,,,,,,,,,,,,,,,,,,,,,position,D_new,21,229,1036.7069114262704,None,1036.7069114262704,None,1036.7069114262704,None,3,3.003006468876265,1036.7069114262704,None,1039.7739385457244,None,1039.7739385457244,None,1040.290572246071,None,1040.290572246071,None,1040.290572246071,None,n,1.34744977299124,1040.290572246071,None,sing28,001,2019_Nov_07_1801,ProdFawcett_Revision2019,3.2.4,59.91469508142321,
,,,,22,0,22,0,,,,,,,,,,,,,1045.2087989052525,None,,,,,,,,,,,,,,,,,,,,,,right,D_new,22,265,1042.1915571935242,None,1042.1915571935242,None,1042.1915571935242,None,2,1.9666402313159779,1042.1915571935242,None,1044.19705293281,None,1044.19705293281,None,1044.7253728930373,None,1044.7253728930373,None,1044.7253728930373,None,n,0.44110468379221857,1044.7253728930373,None,sing28,001,2019_Nov_07_1801,ProdFawcett_Revision2019,3.2.4,59.91469508142321,
,,,,23,0,23,0,,,,,,,,,,,,,1050.1439332587179,None,,,,,,,,,,,,,,,,,,,,,,article,D_new,23,11,1045.726375256665,None,1045.726375256665,None,1045.726375256665,None,2,3.511376189533621,1045.726375256665,None,1049.293527710368,None,1049.293527710368,None,1049.8104562418303,None,1049.8104562418303,None,1049.8104562418303,None,n,0.2916592025430873,1049.8104562418303,None,sing28,001,2019_Nov_07_1801,ProdFawcett_Revision2019,3.2.4,59.91469508142321,
,,,,24,0,24,0,,,,,,,,,,,,,1053.1279414691962,None,,,,,,,,,,,,,,,,,,,,,,career,D_new,24,42,1050.6606419108575,None,1050.6606419108575,None,1050.6606419108575,None,1,1.4330683585722,1050.6606419108575,None,1052.1320516887354,None,1052.1320516887354,None,1052.6444401941262,None,1052.6444401941262,None,1052.6444401941262,None,n,0.44165236048866063,1052.6444401941262,None,sing28,001,2019_Nov_07_1801,ProdFawcett_Revision2019,3.2.4,59.91469508142321,
,,,,25,0,25,0,,,,,,,,,,,,,1061.247257572948,None,,,,,,,,,,,,,,,,,,,,,,science,D_new,25,275,1053.6450519375503,None,1053.6450519375503,None,1053.6450519375503,None,2,6.047814579796977,1053.6450519375503,None,1059.7345055048354,None,1059.7345055048354,None,1060.263512471225,None,1060.263512471225,None,1060.263512471225,None,n,0.9420208993833512,1060.263512471225,None,sing28,001,2019_Nov_07_1801,ProdFawcett_Revision2019,3.2.4,59.91469508142321,
,,,,26,0,26,0,,,,,,,,,,,,,1065.448577470961,None,,,,,,,,,,,,,,,,,,,,,,device,A_silent,26,93,1061.7643565342296,None,1061.7643565342296,None,1061.7643565342296,None,1,2.160596815403551,1061.7643565342296,None,1063.9814001368359,None,1063.9814001368359,None,1064.498103190912,None,1064.498103190912,None,1064.498103190912,None,n,0.9072180754737929,1064.498103190912,None,sing28,001,2019_Nov_07_1801,ProdFawcett_Revision2019,3.2.4,59.91469508142321,
,,,,27,0,27,0,,,,,,,,,,,,,1069.1829224979738,None,,,,,,,,,,,,,,,,,,,,,,recall,A_silent,27,255,1065.9652136593359,None,1065.9652136593359,None,1065.9652136593359,None,1,2.1115304472623393,1065.9652136593359,None,1068.1326864465373,None,1068.1326864465373,None,1068.6495596193708,None,1068.6495596193708,None,1068.6495596193708,None,n,0.49136157240718603,1068.6495596193708,None,sing28,001,2019_Nov_07_1801,ProdFawcett_Revision2019,3.2.4,59.91469508142321,
,,,,28,0,28,0,,,,,,,,,,,,,1072.86739534745,None,,,,,,,,,,,,,,,,,,,,,,cousin,D_new,28,76,1069.6998267711606,None,1069.6998267711606,None,1069.6998267711606,None,1,2.168364744633436,1069.6998267711606,None,1071.93389407231,None,1071.93389407231,None,1072.450548609835,None,1072.450548609835,None,1072.450548609835,None,n,0.3779483112739399,1072.450548609835,None,sing28,001,2019_Nov_07_1801,ProdFawcett_Revision2019,3.2.4,59.91469508142321,
,,,,29,0,29,0,,,,,,,,,,,,,1077.5689466318581,None,,,,,,,,,,,,,,,,,,,,,,dance,A_silent,29,84,1073.3844492131611,None,1073.3844492131611,None,1073.3844492131611,None,2,3.0194545001722872,1073.3844492131611,None,1076.458951918874,None,1076.458951918874,None,1076.9854717920534,None,1076.9854717920534,None,1076.9854717920534,None,n,0.5463802326703444,1076.9854717920534,None,sing28,001,2019_Nov_07_1801,ProdFawcett_Revision2019,3.2.4,59.91469508142321,
,,,,30,0,30,0,,,,,,,,,,,,,1082.8205594950123,None,,,,,,,,,,,,,,,,,,,,,,machinery,A_silent,30,175,1078.086045904085,None,1078.086045904085,None,1078.086045904085,None,2,3.477928718086332,1078.086045904085,None,1081.6204011943191,None,1081.6204011943191,None,1082.1370075263549,None,1082.1370075263549,None,1082.1370075263549,None,n,0.6505290166242048,1082.1370075263549,None,sing28,001,2019_Nov_07_1801,ProdFawcett_Revision2019,3.2.4,59.91469508142321,
,,,,31,0,31,0,,,,,,,,,,,,,1094.9243481371086,None,,,,,,,,,,,,,,,,,,,,,,clean,B_aloud,31,51,1083.3380123779643,None,1083.3380123779643,None,1083.3380123779643,None,4,9.969377060420811,1083.3380123779643,None,1093.3570607078727,None,1093.3570607078727,None,1093.874037755886,None,1093.874037755886,None,1093.874037755886,None,f,1.0092467499198392,1093.874037755886,None,sing28,001,2019_Nov_07_1801,ProdFawcett_Revision2019,3.2.4,59.91469508142321,
,,,,32,0,32,0,,,,,,,,,,,,,1102.8100491384976,None,,,,,,,,,,,,,,,,,,,,,,finish,C_sing,32,130,1095.441190831596,None,1095.441190831596,None,1095.441190831596,None,3,3.881282266578637,1095.441190831596,None,1099.3630761336535,None,1099.3630761336535,None,1099.8924497730331,None,1099.8924497730331,None,1099.8924497730331,None,n,2.8698911488754675,1099.8924497730331,None,sing28,001,2019_Nov_07_1801,ProdFawcett_Revision2019,3.2.4,59.91469508142321,
,,,,33,0,33,0,,,,,,,,,,,,,1110.445825713803,None,,,,,,,,,,,,,,,,,,,,,,owner,A_silent,33,208,1103.3271247745724,None,1103.3271247745724,None,1103.3271247745724,None,2,6.179036822868511,1103.3271247745724,None,1109.5622084344504,None,1109.5622084344504,None,1110.0790427319007,None,1110.0790427319007,None,1110.0790427319007,None,n,0.3309289668686688,1110.0790427319007,None,sing28,001,2019_Nov_07_1801,ProdFawcett_Revision2019,3.2.4,59.91469508142321,
,,,,34,0,34,0,,,,,,,,,,,,,1114.7638153884327,None,,,,,,,,,,,,,,,,,,,,,,shape,C_sing,34,282,1110.9624737201957,None,1110.9624737201957,None,1110.9624737201957,None,2,2.3677228338783607,1110.9624737201957,None,1113.3688458667602,None,1113.3688458667602,None,1113.8969055172056,None,1113.8969055172056,None,1113.8969055172056,None,n,0.8254944952204823,1113.8969055172056,None,sing28,001,2019_Nov_07_1801,ProdFawcett_Revision2019,3.2.4,59.91469508142321,
,,,,35,0,35,0,,,,,,,,,,,,,1119.065011507133,None,,,,,,,,,,,,,,,,,,,,,,crisis,B_aloud,35,79,1115.280448155827,None,1115.280448155827,None,1115.280448155827,None,1,2.9849959569983184,1115.280448155827,None,1118.3147810536902,None,1118.3147810536902,None,1118.831750326557,None,1118.831750326557,None,1118.831750326557,None,n,0.19403588981367648,1118.831750326557,None,sing28,001,2019_Nov_07_1801,ProdFawcett_Revision2019,3.2.4,59.91469508142321,
,,,,36,0,36,0,,,,,,,,,,,,,1121.8159168377751,None,,,,,,,,,,,,,,,,,,,,,,provision,D_new,36,243,1119.5827144368086,None,1119.5827144368086,None,1119.5827144368086,None,1,1.4109899235190824,1119.5827144368086,None,1121.0492063196143,None,1121.0492063196143,None,1121.5659267898882,None,1121.5659267898882,None,1121.5659267898882,None,n,0.20322634815238416,1121.5659267898882,None,sing28,001,2019_Nov_07_1801,ProdFawcett_Revision2019,3.2.4,59.91469508142321,
,,,,37,0,37,0,,,,,,,,,,,,,1127.5510123157874,None,,,,,,,,,,,,,,,,,,,,,,mechanical,C_sing,37,185,1122.3326369969873,None,1122.3326369969873,None,1122.3326369969873,None,5,3.8447742115240544,1122.3326369969873,None,1126.2338996704202,None,1126.2338996704202,None,1126.7507821733598,None,1126.7507821733598,None,1126.7507821733598,None,r,0.7540654351469129,1126.7507821733598,None,sing28,001,2019_Nov_07_1801,ProdFawcett_Revision2019,3.2.4,59.91469508142321,
,,,,38,0,38,0,,,,,,,,,,,,,1133.56963581522,None,,,,,,,,,,,,,,,,,,,,,,literature,A_silent,38,173,1128.0688769671833,None,1128.0688769671833,None,1128.0688769671833,None,1,3.835713130538352,1128.0688769671833,None,1131.9690604590578,None,1131.9690604590578,None,1132.486053368193,None,1132.486053368193,None,1132.486053368193,None,n,1.0507725321222097,1132.486053368193,None,sing28,001,2019_Nov_07_1801,ProdFawcett_Revision2019,3.2.4,59.91469508142321,
,,,,39,0,39,0,,,,,,,,,,,,,1140.2216075761244,None,,,,,,,,,,,,,,,,,,,,,,second,D_new,39,278,1134.08637059154,None,1134.08637059154,None,1134.08637059154,None,2,5.146266716415994,1134.08637059154,None,1139.2880245071137,None,1139.2880245071137,None,1139.805238228524,None,1139.805238228524,None,1139.805238228524,None,n,0.3708409529644996,1139.805238228524,None,sing28,001,2019_Nov_07_1801,ProdFawcett_Revision2019,3.2.4,59.91469508142321,
,,,,40,0,40,0,,,,,,,,,,,,,1145.6733678546734,None,,,,,,,,,,,,,,,,,,,,,,object,C_sing,40,204,1140.7430503203068,None,1140.7430503203068,None,1140.7430503203068,None,4,3.70558375318069,1140.7430503203068,None,1144.5063550414052,None,1144.5063550414052,None,1145.0235553897219,None,1145.0235553897219,None,1145.0235553897219,None,f,0.6084334764163941,1145.0235553897219,None,sing28,001,2019_Nov_07_1801,ProdFawcett_Revision2019,3.2.4,59.91469508142321,
,,,,41,0,41,0,,,,,,,,,,,,,1152.8089575170306,None,,,,,,,,,,,,,,,,,,,,,,personnel,A_silent,41,219,1146.1903131803265,None,1146.1903131803265,None,1146.1903131803265,None,3,5.465117248240858,1146.1903131803265,None,1151.7085130932974,None,1151.7085130932974,None,1152.2254655719735,None,1152.2254655719735,None,1152.2254655719735,None,f,0.5426258008228615,1152.2254655719735,None,sing28,001,2019_Nov_07_1801,ProdFawcett_Revision2019,3.2.4,59.91469508142321,
,,,,42,0,42,0,,,,,,,,,,,,,1158.3940349568147,None,,,,,,,,,,,,,,,,,,,,,,thick,D_new,42,327,1153.3257277477533,None,1153.3257277477533,None,1153.3257277477533,None,2,4.073973067104816,1153.3257277477533,None,1157.4316358773503,None,1157.4316358773503,None,1157.9466943460284,None,1157.9466943460284,None,1157.9466943460284,None,n,0.4052590656792745,1157.9466943460284,None,sing28,001,2019_Nov_07_1801,ProdFawcett_Revision2019,3.2.4,59.91469508142321,
,,,,43,0,43,0,,,,,,,,,,,,,1163.1953539217357,None,,,,,,,,,,,,,,,,,,,,,,patient,D_new,43,213,1158.910821981728,None,1158.910821981728,None,1158.910821981728,None,6,2.9521204204065725,1158.910821981728,None,1161.9284487155965,None,1161.9284487155965,None,1162.4451104061445,None,1162.4451104061445,None,1162.4451104061445,None,r,0.7138751010643318,1162.4451104061445,None,sing28,001,2019_Nov_07_1801,ProdFawcett_Revision2019,3.2.4,59.91469508142321,
,,,,44,0,44,0,,,,,,,,,,,,,1166.6634487155825,None,,,,,,,,,,,,,,,,,,,,,,style,D_new,44,311,1163.7123253716854,None,1163.7123253716854,None,1163.7123253716854,None,2,1.8382810847833753,1163.7123253716854,None,1165.600013062125,None,1165.600013062125,None,1166.1295944517478,None,1166.1295944517478,None,1166.1295944517478,None,n,0.4850450954400003,1166.1295944517478,None,sing28,001,2019_Nov_07_1801,ProdFawcett_Revision2019,3.2.4,59.91469508142321,
,,,,45,0,45,0,,,,,,,,,,,,,1171.1312841325998,None,,,,,,,,,,,,,,,,,,,,,,benefit,C_sing,45,20,1167.1812421472277,None,1167.1812421472277,None,1167.1812421472277,None,3,2.713138956343755,1167.1812421472277,None,1169.9475377869094,None,1169.9475377869094,None,1170.4644193568965,None,1170.4644193568965,None,1170.4644193568965,None,f,0.6222952043171972,1170.4644193568965,None,sing28,001,2019_Nov_07_1801,ProdFawcett_Revision2019,3.2.4,59.91469508142321,
,,,,46,0,46,0,,,,,,,,,,,,,1180.0674087206135,None,,,,,,,,,,,,,,,,,,,,,,generation,D_new,46,136,1171.6337852211436,None,1171.6337852211436,None,1171.6337852211436,None,5,7.32494681852404,1171.6337852211436,None,1179.00692137843,None,1179.00692137843,None,1179.533730795607,None,1179.533730795607,None,1179.533730795607,None,r,0.48810008086729795,1179.533730795607,None,sing28,001,2019_Nov_07_1801,ProdFawcett_Revision2019,3.2.4,59.91469508142321,
,,,,47,0,47,0,,,,,,,,,,,,,1187.0864125769585,None,,,,,,,,,,,,,,,,,,,,,,session,D_new,47,281,1180.5850550476462,None,1180.5850550476462,None,1180.5850550476462,None,4,5.525234496570192,1180.5850550476462,None,1186.1692032095743,None,1186.1692032095743,None,1186.685966287274,None,1186.685966287274,None,1186.685966287274,None,f,0.3514900167938322,1186.685966287274,None,sing28,001,2019_Nov_07_1801,ProdFawcett_Revision2019,3.2.4,59.91469508142321,
,,,,48,0,48,0,,,,,,,,,,,,,1197.4394252658822,None,,,,,,,,,,,,,,,,,,,,,,commercial,D_new,48,61,1187.6050895689987,None,1187.6050895689987,None,1187.6050895689987,None,3,7.3839071344118565,1187.6050895689987,None,1195.0267360204598,None,1195.0267360204598,None,1195.5553200223949,None,1195.5553200223949,None,1195.5553200223949,None,n,1.8499617466004565,1195.5553200223949,None,sing28,001,2019_Nov_07_1801,ProdFawcett_Revision2019,3.2.4,59.91469508142321,
,,,,49,0,49,0,,,,,,,,,,,,,1203.6413497542962,None,,,,,,,,,,,,,,,,,,,,,,reach,D_new,49,253,1197.956118678907,None,1197.956118678907,None,1197.956118678907,None,2,4.832531566731632,1197.956118678907,None,1202.841126765008,None,1202.841126765008,None,1203.3577816134784,None,1203.3577816134784,None,1203.3577816134784,None,n,0.24681532627437264,1203.3577816134784,None,sing28,001,2019_Nov_07_1801,ProdFawcett_Revision2019,3.2.4,59.91469508142321,
,,,,50,0,50,0,,,,,,,,,,,,,1221.096763077774,None,,,,,,,,,,,,,,,,,,,,,,range,D_new,50,251,1204.1582851278363,None,1204.1582851278363,None,1204.1582851278363,None,2,9.926346333348192,1204.1582851278363,None,1214.1338315606117,None,1214.1338315606117,None,1214.6614548735088,None,1214.6614548735088,None,1214.6614548735088,None,n,6.389938732259907,1214.6614548735088,None,sing28,001,2019_Nov_07_1801,ProdFawcett_Revision2019,3.2.4,59.91469508142321,
,,,,51,0,51,0,,,,,,,,,,,,,1226.5651188032934,None,,,,,,,,,,,,,,,,,,,,,,partner,D_new,51,211,1221.6141428749543,None,1221.6141428749543,None,1221.6141428749543,None,6,3.069055794039741,1221.6141428749543,None,1224.7477635752875,None,1224.7477635752875,None,1225.2667957330123,None,1225.2667957330123,None,1225.2667957330123,None,r,1.2571110903518274,1225.2667957330123,None,sing28,001,2019_Nov_07_1801,ProdFawcett_Revision2019,3.2.4,59.91469508142321,
,,,,52,0,52,0,,,,,,,,,,,,,1231.43315077445,None,,,,,,,,,,,,,,,,,,,,,,turkey,D_new,52,342,1227.0818405175814,None,1227.0818405175814,None,1227.0818405175814,None,1,2.745512222405523,1227.0818405175814,None,1229.882813957869,None,1229.882813957869,None,1230.3996734465472,None,1230.3996734465472,None,1230.3996734465472,None,n,0.9952173912897706,1230.3996734465472,None,sing28,001,2019_Nov_07_1801,ProdFawcett_Revision2019,3.2.4,59.91469508142321,
,,,,53,0,53,0,,,,,,,,,,,,,1239.202266903012,None,,,,,,,,,,,,,,,,,,,,,,brief,D_new,53,28,1231.936012004735,None,1231.936012004735,None,1231.936012004735,None,5,6.28290259372443,1231.936012004735,None,1238.255897866562,None,1238.255897866562,None,1238.7853993282188,None,1238.7853993282188,None,1238.7853993282188,None,r,0.37740467744879425,1238.7853993282188,None,sing28,001,2019_Nov_07_1801,ProdFawcett_Revision2019,3.2.4,59.91469508142321,
,,,,54,0,54,0,,,,,,,,,,,,,1243.8872852522181,None,,,,,,,,,,,,,,,,,,,,,,novel,B_aloud,54,202,1239.7197297381936,None,1239.7197297381936,None,1239.7197297381936,None,3,2.9146003607893363,1239.7197297381936,None,1242.6866564035881,None,1242.6866564035881,None,1243.2036903651897,None,1243.2036903651897,None,1243.2036903651897,None,n,0.6387121353764087,1243.2036903651897,None,sing28,001,2019_Nov_07_1801,ProdFawcett_Revision2019,3.2.4,59.91469508142321,
,,,,55,0,55,0,,,,,,,,,,,,,1249.5390809852397,None,,,,,,,,,,,,,,,,,,,,,,frank,A_silent,55,133,1244.4041913914261,None,1244.4041913914261,None,1244.4041913914261,None,3,3.829716986976564,1244.4041913914261,None,1248.2760636312887,None,1248.2760636312887,None,1248.8052547117695,None,1248.8052547117695,None,1248.8052547117695,None,f,0.6845720594283193,1248.8052547117695,None,sing28,001,2019_Nov_07_1801,ProdFawcett_Revision2019,3.2.4,59.91469508142321,
,,,,56,0,56,0,,,,,,,,,,,,,1254.8072927163448,None,,,,,,,,,,,,,,,,,,,,,,scale,D_new,56,272,1250.0557227716781,None,1250.0557227716781,None,1250.0557227716781,None,3,3.1538284505950287,1250.0557227716781,None,1253.2733653667383,None,1253.2733653667383,None,1253.7900755738374,None,1253.7900755738374,None,1253.7900755738374,None,f,0.9713970267912373,1253.7900755738374,None,sing28,001,2019_Nov_07_1801,ProdFawcett_Revision2019,3.2.4,59.91469508142321,
,,,,57,0,57,0,,,,,,,,,,,,,1259.4419282204472,None,,,,,,,,,,,,,,,,,,,,,,angle,A_silent,57,7,1255.3240660571028,None,1255.3240660571028,None,1255.3240660571028,None,3,3.07763575296849,1255.3240660571028,None,1258.4454655719455,None,1258.4454655719455,None,1258.9750329663511,None,1258.9750329663511,None,1258.9750329663511,None,f,0.4265176961198449,1258.9750329663511,None,sing28,001,2019_Nov_07_1801,ProdFawcett_Revision2019,3.2.4,59.91469508142321,
,,,,58,0,58,0,,,,,,,,,,,,,1262.3261600423139,None,,,,,,,,,,,,,,,,,,,,,,oxygen,D_new,58,209,1259.9587332835654,None,1259.9587332835654,None,1259.9587332835654,None,1,1.2912129128817469,1259.9587332835654,None,1261.3092184487032,None,1261.3092184487032,None,1261.8260011196835,None,1261.8260011196835,None,1261.8260011196835,None,n,0.4630916838068515,1261.8260011196835,None,sing28,001,2019_Nov_07_1801,ProdFawcett_Revision2019,3.2.4,59.91469508142321,
,,,,59,0,59,0,,,,,,,,,,,,,1267.977822043933,None,,,,,,,,,,,,,,,,,,,,,,crime,D_new,59,78,1262.8428873546654,None,1262.8428873546654,None,1262.8428873546654,None,4,4.389874665765092,1262.8428873546654,None,1267.2943139267154,None,1267.2943139267154,None,1267.8112396592041,None,1267.8112396592041,None,1267.8112396592041,None,f,0.13377215899527073,1267.8112396592041,None,sing28,001,2019_Nov_07_1801,ProdFawcett_Revision2019,3.2.4,59.91469508142321,
,,,,60,0,60,0,,,,,,,,,,,,,1273.129467562423,None,,,,,,,,,,,,,,,,,,,,,,phrase,B_aloud,60,220,1268.4950021770783,None,1268.4950021770783,None,1268.4950021770783,None,6,3.9854829880641773,1268.4950021770783,None,1272.5459616222652,None,1272.5459616222652,None,1273.0628416371765,None,1273.0628416371765,None,1273.0628416371765,None,r,0.026100951712578535,1273.0628416371765,None,sing28,001,2019_Nov_07_1801,ProdFawcett_Revision2019,3.2.4,59.91469508142321,
,,,,61,0,61,0,,,,,,,,,,,,,1277.2974746532273,None,,,,,,,,,,,,,,,,,,,,,,spoke,C_sing,61,300,1273.6461861665593,None,1273.6461861665593,None,1273.6461861665593,None,4,2.8104671268956736,1273.6461861665593,None,1276.5018050632207,None,1276.5018050632207,None,1277.0306179635227,None,1277.0306179635227,None,1277.0306179635227,None,f,0.2337706038961187,1277.0306179635227,None,sing28,001,2019_Nov_07_1801,ProdFawcett_Revision2019,3.2.4,59.91469508142321,
,,,,62,0,62,0,,,,,,,,,,,,,1282.1490007464308,None,,,,,,,,,,,,,,,,,,,,,,welcome,D_new,62,354,1277.8144495241577,None,1277.8144495241577,None,1277.8144495241577,None,2,3.2424556820187718,1277.8144495241577,None,1281.115162343718,None,1281.115162343718,None,1281.6321773341624,None,1281.6321773341624,None,1281.6321773341624,None,n,0.47977047960739583,1281.6321773341624,None,sing28,001,2019_Nov_07_1801,ProdFawcett_Revision2019,3.2.4,59.91469508142321,
,,,,63,0,63,0,,,,,,,,,,,,,1288.6010113827651,None,,,,,,,,,,,,,,,,,,,,,,author,C_sing,63,15,1282.6670597748598,None,1282.6670597748598,None,1282.6670597748598,None,5,5.212620824808255,1282.6670597748598,None,1287.9340595260728,None,1287.9340595260728,None,1288.4509485600283,None,1288.4509485600283,None,1288.4509485600283,None,r,0.1168790819356218,1288.4509485600283,None,sing28,001,2019_Nov_07_1801,ProdFawcett_Revision2019,3.2.4,59.91469508142321,
,,,,64,0,64,0,,,,,,,,,,,,,1302.2718983641826,None,,,,,,,,,,,,,,,,,,,,,,working,C_sing,64,357,1289.1187802450731,None,1289.1187802450731,None,1289.1187802450731,None,2,12.048096659826115,1289.1187802450731,None,1301.2214937488316,None,1301.2214937488316,None,1301.7383796728682,None,1301.7383796728682,None,1301.7383796728682,None,n,0.49268115940503776,1301.7383796728682,None,sing28,001,2019_Nov_07_1801,ProdFawcett_Revision2019,3.2.4,59.91469508142321,
,,,,65,0,65,0,,,,,,,,,,,,,1306.4731884058565,None,,,,,,,,,,,,,,,,,,,,,,stranger,C_sing,65,309,1302.7899412204279,None,1302.7899412204279,None,1302.7899412204279,None,4,2.9286353174829856,1302.7899412204279,None,1305.7594196678838,None,1305.7594196678838,None,1306.2731451763539,None,1306.2731451763539,None,1306.2731451763539,None,f,0.1658297567628324,1306.2731451763539,None,sing28,001,2019_Nov_07_1801,ProdFawcett_Revision2019,3.2.4,59.91469508142321,
,,,,66,0,66,0,,,,,,,,,,,,,1310.8578578092856,None,,,,,,,,,,,,,,,,,,,,,,platform,B_aloud,66,224,1306.9904257635353,None,1306.9904257635353,None,1306.9904257635353,None,3,1.9198762206360698,1306.9904257635353,None,1308.9614181750221,None,1308.9614181750221,None,1309.4906559060328,None,1309.4906559060328,None,1309.4906559060328,None,n,1.3318019531434402,1309.4906559060328,None,sing28,001,2019_Nov_07_1801,ProdFawcett_Revision2019,3.2.4,59.91469508142321,
,,,,67,0,67,0,,,,,,,,,,,,,1314.058858306962,None,,,,,,,,,,,,,,,,,,,,,,place,D_new,67,222,1311.374822728103,None,1311.374822728103,None,1311.374822728103,None,2,1.6793182807741687,1311.374822728103,None,1313.0974339118693,None,1313.0974339118693,None,1313.6253489457304,None,1313.6253489457304,None,1313.6253489457304,None,n,0.3890203395858407,1313.6253489457304,None,sing28,001,2019_Nov_07_1801,ProdFawcett_Revision2019,3.2.4,59.91469508142321,
,,,,68,0,68,0,,,,,,,,,,,,,1317.6099247372476,None,,,,,,,,,,,,,,,,,,,,,,citizen,D_new,68,50,1314.580186601961,None,1314.580186601961,None,1314.580186601961,None,1,2.033662996836938,1314.580186601961,None,1316.6763926728163,None,1316.6763926728163,None,1317.1952758599073,None,1317.1952758599073,None,1317.1952758599073,None,n,0.37138458667322993,1317.1952758599073,None,sing28,001,2019_Nov_07_1801,ProdFawcett_Revision2019,3.2.4,59.91469508142321,
,,,,69,0,69,0,,,,,,,,,,,,,1321.5112959507387,None,,,,,,,,,,,,,,,,,,,,,,revolution,D_new,69,264,1318.126701810048,None,1318.126701810048,None,1318.126701810048,None,1,2.359823039150797,1318.126701810048,None,1320.5441606021486,None,1320.5441606021486,None,1321.0610533681465,None,1321.0610533681465,None,1321.0610533681465,None,n,0.4089827082352713,1321.0610533681465,None,sing28,001,2019_Nov_07_1801,ProdFawcett_Revision2019,3.2.4,59.91469508142321,
,,,,70,0,70,0,,,,,,,,,,,,,1325.2623387448257,None,,,,,,,,,,,,,,,,,,,,,,blind,C_sing,70,24,1322.0277996517252,None,1322.0277996517252,None,1322.0277996517252,None,2,2.3457084654364735,1322.0277996517252,None,1324.4173359457636,None,1324.4173359457636,None,1324.9454509548377,None,1324.9454509548377,None,1324.9454509548377,None,n,0.28412825777195394,1324.9454509548377,None,sing28,001,2019_Nov_07_1801,ProdFawcett_Revision2019,3.2.4,59.91469508142321,
,,,,71,0,71,0,,,,,,,,,,,,,1332.1644370841095,None,,,,,,,,,,,,,,,,,,,,,,bucket,A_silent,71,33,1325.7793366300175,None,1325.7793366300175,None,1325.7793366300175,None,2,4.993961559957825,1325.7793366300175,None,1330.8306947813835,None,1330.8306947813835,None,1331.3475611121394,None,1331.3475611121394,None,1331.3475611121394,None,n,0.7778005847940221,1331.3475611121394,None,sing28,001,2019_Nov_07_1801,ProdFawcett_Revision2019,3.2.4,59.91469508142321,
,,,,72,0,72,0,,,,,,,,,,,,,1335.9323714001803,None,,,,,,,,,,,,,,,,,,,,,,management,C_sing,72,177,1332.6825844374252,None,1332.6825844374252,None,1332.6825844374252,None,4,2.3462359270779416,1332.6825844374252,None,1335.0670880761463,None,1335.0670880761463,None,1335.582208434469,None,1335.582208434469,None,1335.582208434469,None,f,0.31085868016816676,1335.582208434469,None,sing28,001,2019_Nov_07_1801,ProdFawcett_Revision2019,3.2.4,59.91469508142321,
,,,,73,0,73,0,,,,,,,,,,,,,1340.0502376065124,None,,,,,,,,,,,,,,,,,,,,,,expansion,D_new,73,123,1336.4510191578884,None,1336.4510191578884,None,1336.4510191578884,None,2,2.249622753006406,1336.4510191578884,None,1338.7537416806445,None,1338.7537416806445,None,1339.2831846737536,None,1339.2831846737536,None,1339.2831846737536,None,n,0.7294190458487719,1339.2831846737536,None,sing28,001,2019_Nov_07_1801,ProdFawcett_Revision2019,3.2.4,59.91469508142321,
,,,,74,0,74,0,,,,,,,,,,,,,1345.7853184674168,None,,,,,,,,,,,,,,,,,,,,,,candidate,D_new,74,39,1340.5672286496265,None,1340.5672286496265,None,1340.5672286496265,None,1,3.0051670087268576,1340.5672286496265,None,1343.6346230640775,None,1343.6346230640775,None,1344.1515208061319,None,1344.1515208061319,None,1344.1515208061319,None,n,1.596781115862541,1344.1515208061319,None,sing28,001,2019_Nov_07_1801,ProdFawcett_Revision2019,3.2.4,59.91469508142321,
,,,,75,0,75,0,,,,,,,,,,,,,1350.5867313554045,None,,,,,,,,,,,,,,,,,,,,,,message,D_new,75,189,1346.3039307707222,None,1346.3039307707222,None,1346.3039307707222,None,2,2.996033463976346,1346.3039307707222,None,1349.3399947129656,None,1349.3399947129656,None,1349.8699741867604,None,1349.8699741867604,None,1349.8699741867604,None,n,0.6783644336974248,1349.8699741867604,None,sing28,001,2019_Nov_07_1801,ProdFawcett_Revision2019,3.2.4,59.91469508142321,
,,,,76,0,76,0,,,,,,,,,,,,,1358.4392750513507,None,,,,,,,,,,,,,,,,,,,,,,rough,C_sing,76,266,1351.103866082034,None,1351.103866082034,None,1351.103866082034,None,2,5.6841873484663665,1351.103866082034,None,1356.8388984263875,None,1356.8388984263875,None,1357.3556266716914,None,1357.3556266716914,None,1357.3556266716914,None,n,1.0406913603655994,1357.3556266716914,None,sing28,001,2019_Nov_07_1801,ProdFawcett_Revision2019,3.2.4,59.91469508142321,
,,,,77,0,77,0,,,,,,,,,,,,,1368.008879144094,None,,,,,,,,,,,,,,,,,,,,,,dozen,C_sing,77,102,1358.9631143870065,None,1358.9631143870065,None,1358.9631143870065,None,3,8.120667412993498,1358.9631143870065,None,1367.1317403744906,None,1367.1317403744906,None,1367.6612035827711,None,1367.6612035827711,None,1367.6612035827711,None,f,0.3097676804754883,1367.6612035827711,None,sing28,001,2019_Nov_07_1801,ProdFawcett_Revision2019,3.2.4,59.91469508142321,
,,,,78,0,78,0,,,,,,,,,,,,,1376.9281989799347,None,,,,,,,,,,,,,,,,,,,,,,drink,A_silent,78,105,1368.5256241835887,None,1368.5256241835887,None,1368.5256241835887,None,3,7.669328854884952,1368.5256241835887,None,1376.244860981591,None,1376.244860981591,None,1376.761627791333,None,1376.761627791333,None,1376.761627791333,None,f,0.1288918952923268,1376.761627791333,None,sing28,001,2019_Nov_07_1801,ProdFawcett_Revision2019,3.2.4,59.91469508142321,
,,,,79,0,79,0,,,,,,,,,,,,,1380.562650681124,None,,,,,,,,,,,,,,,,,,,,,,point,C_sing,79,226,1377.4457653791178,None,1377.4457653791178,None,1377.4457653791178,None,1,2.0845250979764387,1377.4457653791178,None,1379.5958446849836,None,1379.5958446849836,None,1380.1125524040544,None,1380.1125524040544,None,1380.1125524040544,None,n,0.41768209252040833,1380.1125524040544,None,sing28,001,2019_Nov_07_1801,ProdFawcett_Revision2019,3.2.4,59.91469508142321,
,,,,80,0,80,0,,,,,,,,,,,,,1385.8476550352061,None,,,,,,,,,,,,,,,,,,,,,,election,B_aloud,80,109,1381.0805753561435,None,1381.0805753561435,None,1381.0805753561435,None,1,3.9454005722654983,1381.0805753561435,None,1385.0690831623506,None,1385.0690831623506,None,1385.5976105617592,None,1385.5976105617592,None,1385.5976105617592,None,n,0.2042507929727435,1385.5976105617592,None,sing28,001,2019_Nov_07_1801,ProdFawcett_Revision2019,3.2.4,59.91469508142321,
,,,,81,0,81,0,,,,,,,,,,,,,1389.4823393668048,None,,,,,,,,,,,,,,,,,,,,,,rural,D_new,81,269,1386.3648367233109,None,1386.3648367233109,None,1386.3648367233109,None,1,2.1651206692913547,1386.3648367233109,None,1388.571151023265,None,1388.571151023265,None,1389.0987985943211,None,1389.0987985943211,None,1389.0987985943211,None,n,0.33493064634967595,1389.0987985943211,None,sing28,001,2019_Nov_07_1801,ProdFawcett_Revision2019,3.2.4,59.91469508142321,
,,,,82,0,82,0,,,,,,,,,,,,,1393.0331927598454,None,,,,,,,,,,,,,,,,,,,,,,burden,C_sing,82,36,1389.9990063444711,None,1389.9990063444711,None,1389.9990063444711,None,2,2.018559432704933,1389.9990063444711,None,1392.0829750575358,None,1392.0829750575358,None,1392.6000283013564,None,1392.6000283013564,None,1392.6000283013564,None,n,0.38551906449720263,1392.6000283013564,None,sing28,001,2019_Nov_07_1801,ProdFawcett_Revision2019,3.2.4,59.91469508142321,
,,,,83,0,83,0,,,,,,,,,,,,,1398.018039124203,None,,,,,,,,,,,,,,,,,,,,,,crowd,D_new,83,81,1393.5499990669778,None,1393.5499990669778,None,1393.5499990669778,None,4,3.4513923617778346,1393.5499990669778,None,1397.0512583194068,None,1397.0512583194068,None,1397.5679144118913,None,1397.5679144118913,None,1397.5679144118913,None,f,0.41726161597762257,1397.5679144118913,None,sing28,001,2019_Nov_07_1801,ProdFawcett_Revision2019,3.2.4,59.91469508142321,
,,,,84,0,84,0,,,,,,,,,,,,,1404.5867954220157,None,,,,,,,,,,,,,,,,,,,,,,debate,C_sing,84,87,1398.534939976409,None,1398.534939976409,None,1398.534939976409,None,1,5.178133358247578,1398.534939976409,None,1403.7569176463876,None,1403.7569176463876,None,1404.2866638676496,None,1404.2866638676496,None,1404.2866638676496,None,n,0.25896840216591954,1404.2866638676496,None,sing28,001,2019_Nov_07_1801,ProdFawcett_Revision2019,3.2.4,59.91469508142321,
,,,,85,0,85,0,,,,,,,,,,,,,1410.9554540648824,None,,,,,,,,,,,,,,,,,,,,,,story,A_silent,85,306,1405.1037012502784,None,1405.1037012502784,None,1405.1037012502784,None,1,4.384989425889216,1405.1037012502784,None,1409.5383100081235,None,1409.5383100081235,None,1410.0552702619461,None,1410.0552702619461,None,1410.0552702619461,None,n,0.85810847801622,1410.0552702619461,None,sing28,001,2019_Nov_07_1801,ProdFawcett_Revision2019,3.2.4,59.91469508142321,
,,,,86,0,86,0,,,,,,,,,,,,,1417.2241195497336,None,,,,,,,,,,,,,,,,,,,,,,division,A_silent,86,101,1411.4735162033467,None,1411.4735162033467,None,1411.4735162033467,None,1,4.823001803830266,1411.4735162033467,None,1416.3571322386852,None,1416.3571322386852,None,1416.8740999564761,None,1416.8740999564761,None,1416.8740999564761,None,n,0.3104030602844432,1416.8740999564761,None,sing28,001,2019_Nov_07_1801,ProdFawcett_Revision2019,3.2.4,59.91469508142321,
,,,,87,0,87,0,,,,,,,,,,,,,1420.9085074951872,None,,,,,,,,,,,,,,,,,,,,,,voice,D_new,87,348,1417.7409199477406,None,1417.7409199477406,None,1417.7409199477406,None,2,2.2918408286059275,1417.7409199477406,None,1420.0916585805826,None,1420.0916585805826,None,1420.608420414268,None,1420.608420414268,None,1420.608420414268,None,n,0.25577191018965095,1420.608420414268,None,sing28,001,2019_Nov_07_1801,ProdFawcett_Revision2019,3.2.4,59.91469508142321,
,,,,88,0,88,0,,,,,,,,,,,,,1425.0265802077483,None,,,,,,,,,,,,,,,,,,,,,,trial,D_new,88,341,1421.425655595027,None,1421.425655595027,None,1421.425655595027,None,2,2.6623956583207473,1421.425655595027,None,1424.1429812776623,None,1424.1429812776623,None,1424.6596824657172,None,1424.6596824657172,None,1424.6596824657172,None,n,0.3252867450937629,1424.6596824657172,None,sing28,001,2019_Nov_07_1801,ProdFawcett_Revision2019,3.2.4,59.91469508142321,
,,,,89,0,89,0,,,,,,,,,,,,,1429.544509547879,None,,,,,,,,,,,,,,,,,,,,,,relation,B_aloud,89,257,1425.5438244076213,None,1425.5438244076213,None,1425.5438244076213,None,2,3.175960067193955,1425.5438244076213,None,1428.7776880015153,None,1428.7776880015153,None,1429.2945667724125,None,1429.2945667724125,None,1429.2945667724125,None,n,0.21693941648118198,1429.2945667724125,None,sing28,001,2019_Nov_07_1801,ProdFawcett_Revision2019,3.2.4,59.91469508142321,
,,,,90,0,90,0,,,,,,,,,,,,,1432.2620771910297,None,,,,,,,,,,,,,,,,,,,,,,surface,D_new,90,316,1430.0613180319779,None,1430.0613180319779,None,1430.0613180319779,None,1,1.5219132923521101,1430.0613180319779,None,1431.6451262673363,None,1431.6451262673363,None,1432.1620998942526,None,1432.1620998942526,None,1432.1620998942526,None,n,0.06124774517957121,1432.1620998942526,None,sing28,001,2019_Nov_07_1801,ProdFawcett_Revision2019,3.2.4,59.91469508142321,
,,,,91,0,91,0,,,,,,,,,,,,,1434.829581389553,None,,,,,,,,,,,,,,,,,,,,,,poetry,D_new,91,225,1432.7789562729886,None,1432.7789562729886,None,1432.7789562729886,None,1,1.3727561112027615,1432.7789562729886,None,1434.201755924616,None,1434.201755924616,None,1434.7295306960586,None,1434.7295306960586,None,1434.7295306960586,None,n,0.061816259170882404,1434.7295306960586,None,sing28,001,2019_Nov_07_1801,ProdFawcett_Revision2019,3.2.4,59.91469508142321,
,,,,92,0,92,0,,,,,,,,,,,,,1437.613685700111,None,,,,,,,,,,,,,,,,,,,,,,fashion,D_new,92,125,1435.3463777446887,None,1435.3463777446887,None,1435.3463777446887,None,1,1.5330098898848519,1435.3463777446887,None,1436.9302394725382,None,1436.9302394725382,None,1437.446996641229,None,1437.446996641229,None,1437.446996641229,None,n,0.12818187475204468,1437.446996641229,None,sing28,001,2019_Nov_07_1801,ProdFawcett_Revision2019,3.2.4,59.91469508142321,
,,,,93,0,93,0,,,,,,,,,,,,,1441.6485034521902,None,,,,,,,,,,,,,,,,,,,,,,split,C_sing,93,299,1438.1308477950515,None,1438.1308477950515,None,1438.1308477950515,None,2,2.795924612786621,1438.1308477950515,None,1440.9814125769772,None,1440.9814125769772,None,1441.498340175487,None,1441.498340175487,None,1441.498340175487,None,n,0.11680661817081273,1441.498340175487,None,sing28,001,2019_Nov_07_1801,ProdFawcett_Revision2019,3.2.4,59.91469508142321,
,,,,94,0,94,0,,,,,,,,,,,,,1445.8496613174211,None,,,,,,,,,,,,,,,,,,,,,,ground,C_sing,94,142,1442.1651536356658,None,1442.1651536356658,None,1442.1651536356658,None,1,2.9459986315341666,1442.1651536356658,None,1445.1535588107072,None,1445.1535588107072,None,1445.6828615413979,None,1445.6828615413979,None,1445.6828615413979,None,n,0.13172669033519924,1445.6828615413979,None,sing28,001,2019_Nov_07_1801,ProdFawcett_Revision2019,3.2.4,59.91469508142321,
,,,,95,0,95,0,,,,,,,,,,,,,1451.4847826086916,None,,,,,,,,,,,,,,,,,,,,,,equipment,A_silent,95,116,1446.3724923804402,None,1446.3724923804402,None,1446.3724923804402,None,2,4.425622628536075,1446.3724923804402,None,1450.8511572432471,None,1450.8511572432471,None,1451.371488461853,None,1451.371488461853,None,1451.371488461853,None,n,0.07482801517471671,1451.371488461853,None,sing28,001,2019_Nov_07_1801,ProdFawcett_Revision2019,3.2.4,59.91469508142321,
,,,,96,0,96,0,,,,,,,,,,,,,1455.0690694781952,None,,,,,,,,,,,,,,,,,,,,,,century,D_new,96,45,1452.0027439821279,None,1452.0027439821279,None,1452.0027439821279,None,1,2.2114430553046986,1452.0027439821279,None,1454.2688950053416,None,1454.2688950053416,None,1454.7859395409469,None,1454.7859395409469,None,1454.7859395409469,None,n,0.24435746727976948,1454.7859395409469,None,sing28,001,2019_Nov_07_1801,ProdFawcett_Revision2019,3.2.4,59.91469508142321,
,,,,97,0,97,0,,,,,,,,,,,,,1460.7209622442024,None,,,,,,,,,,,,,,,,,,,,,,bright,B_aloud,97,29,1455.585854326142,None,1455.585854326142,None,1455.585854326142,None,2,4.4281859177863225,1455.585854326142,None,1460.059489643667,None,1460.059489643667,None,1460.5875318779144,None,1460.5875318779144,None,1460.5875318779144,None,n,0.09821390814613551,1460.5875318779144,None,sing28,001,2019_Nov_07_1801,ProdFawcett_Revision2019,3.2.4,59.91469508142321,
,,,,98,0,98,0,,,,,,,,,,,,,1463.2382804627996,None,,,,,,,,,,,,,,,,,,,,,,bicycle,D_new,98,21,1461.2385930210585,None,1461.2385930210585,None,1461.2385930210585,None,1,1.2548448093002662,1461.2385930210585,None,1462.5548034459352,None,1462.5548034459352,None,1463.0716903029243,None,1463.0716903029243,None,1463.0716903029243,None,n,0.1260552341118455,1463.0716903029243,None,sing28,001,2019_Nov_07_1801,ProdFawcett_Revision2019,3.2.4,59.91469508142321,
,,,,99,0,99,0,,,,,,,,,,,,,1468.4900049760472,None,,,,,,,,,,,,,,,,,,,,,,vision,B_aloud,99,347,1463.7551713628927,None,1463.7551713628927,None,1463.7551713628927,None,3,3.8661308080190793,1463.7551713628927,None,1467.6730863967678,None,1467.6730863967678,None,1468.189826460206,None,1468.189826460206,None,1468.189826460206,None,f,0.25600391859188676,1468.189826460206,None,sing28,001,2019_Nov_07_1801,ProdFawcett_Revision2019,3.2.4,59.91469508142321,
,,,,100,0,100,0,,,,,,,,,,,,,1471.7743851465639,None,,,,,,,,,,,,,,,,,,,,,,cross,D_new,100,80,1469.0077722833958,None,1469.0077722833958,None,1469.0077722833958,None,2,2.045213037286885,1469.0077722833958,None,1471.0972112334566,None,1471.0972112334566,None,1471.624331653933,None,1471.624331653933,None,1471.624331653933,None,n,0.10921813768800348,1471.624331653933,None,sing28,001,2019_Nov_07_1801,ProdFawcett_Revision2019,3.2.4,59.91469508142321,
,,,,101,0,101,0,,,,,,,,,,,,,1479.6268215463497,None,,,,,,,,,,,,,,,,,,,,,,minor,A_silent,101,191,1472.2909784164513,None,1472.2909784164513,None,1472.2909784164513,None,2,6.426454251399264,1472.2909784164513,None,1478.77638551977,None,1478.77638551977,None,1479.2933781178435,None,1479.2933781178435,None,1479.2933781178435,None,n,0.29511538217775524,1479.2933781178435,None,sing28,001,2019_Nov_07_1801,ProdFawcett_Revision2019,3.2.4,59.91469508142321,
,,,,102,0,102,0,,,,,,,,,,,,,1483.22793151706,None,,,,,,,,,,,,,,,,,,,,,,period,A_silent,102,217,1480.1484421845526,None,1480.1484421845526,None,1480.1484421845526,None,2,2.320692293345928,1480.1484421845526,None,1482.5276621882804,None,1482.5276621882804,None,1483.044551222236,None,1483.044551222236,None,1483.044551222236,None,n,0.14410275558475405,1483.044551222236,None,sing28,001,2019_Nov_07_1801,ProdFawcett_Revision2019,3.2.4,59.91469508142321,
,,,,103,0,103,0,,,,,,,,,,,,,1489.296440878301,None,,,,,,,,,,,,,,,,,,,,,,notice,A_silent,103,201,1483.7446694035316,None,1483.7446694035316,None,1483.7446694035316,None,4,3.0194803135236725,1483.7446694035316,None,1486.818482925999,None,1486.818482925999,None,1487.345854948042,None,1487.345854948042,None,1487.345854948042,None,f,1.9063656154321507,1487.345854948042,None,sing28,001,2019_Nov_07_1801,ProdFawcett_Revision2019,3.2.4,59.91469508142321,
,,,,104,0,104,0,,,,,,,,,,,,,1492.797539963969,None,,,,,,,,,,,,,,,,,,,,,,contract,B_aloud,104,68,1489.813503452111,None,1489.813503452111,None,1489.813503452111,None,2,2.118213286041282,1489.813503452111,None,1491.9973163525574,None,1491.9973163525574,None,1492.5139861293137,None,1492.5139861293137,None,1492.5139861293137,None,n,0.25018629105761647,1492.5139861293137,None,sing28,001,2019_Nov_07_1801,ProdFawcett_Revision2019,3.2.4,59.91469508142321,
,,,,105,0,105,0,,,,,,,,,,,,,1497.1655996143818,None,,,,,,,,,,,,,,,,,,,,,,treatment,D_new,105,339,1493.315476768068,None,1493.315476768068,None,1493.315476768068,None,1,3.1680742675671354,1493.315476768068,None,1496.5382033339702,None,1496.5382033339702,None,1497.0656568389386,None,1497.0656568389386,None,1497.0656568389386,None,n,0.05864464771002531,1497.0656568389386,None,sing28,001,2019_Nov_07_1801,ProdFawcett_Revision2019,3.2.4,59.91469508142321,
,,,,106,0,106,0,,,,,,,,,,,,,1500.483270510682,None,,,,,,,,,,,,,,,,,,,,,,discussion,D_new,106,96,1497.6823704671115,None,1497.6823704671115,None,1497.6823704671115,None,1,2.0808795172488317,1497.6823704671115,None,1499.8162483673077,None,1499.8162483673077,None,1500.3333715867484,None,1500.3333715867484,None,1500.3333715867484,None,n,0.11028612300287932,1500.3333715867484,None,sing28,001,2019_Nov_07_1801,ProdFawcett_Revision2019,3.2.4,59.91469508142321,
,,,,107,0,107,0,,,,,,,,,,,,,1503.2840483299224,None,,,,,,,,,,,,,,,,,,,,,,title,D_new,107,331,1501.000138707459,None,1501.000138707459,None,1501.000138707459,None,1,1.5471546308835968,1501.000138707459,None,1502.6005165765528,None,1502.6005165765528,None,1503.1174351557856,None,1503.1174351557856,None,1503.1174351557856,None,n,0.12619363062549382,1503.1174351557856,None,sing28,001,2019_Nov_07_1801,ProdFawcett_Revision2019,3.2.4,59.91469508142321,
,,,,108,0,108,0,,,,,,,,,,,,,1506.8851212912705,None,,,,,,,,,,,,,,,,,,,,,,interior,C_sing,108,164,1503.8013765006326,None,1503.8013765006326,None,1503.8013765006326,None,4,2.3457974125631154,1503.8013765006326,None,1506.201620638254,None,1506.201620638254,None,1506.718526155455,None,1506.718526155455,None,1506.718526155455,None,f,0.13283479504752904,1506.718526155455,None,sing28,001,2019_Nov_07_1801,ProdFawcett_Revision2019,3.2.4,59.91469508142321,
,,,,109,0,109,0,,,,,,,,,,,,,1512.8037706039613,None,,,,,,,,,,,,,,,,,,,,,,bureau,D_new,109,37,1507.402007215307,None,1507.402007215307,None,1507.402007215307,None,1,4.528987995232455,1507.402007215307,None,1511.9867901350372,None,1511.9867901350372,None,1512.5036633078707,None,1512.5036633078707,None,1512.5036633078707,None,n,0.2672435777494684,1512.5036633078707,None,sing28,001,2019_Nov_07_1801,ProdFawcett_Revision2019,3.2.4,59.91469508142321,
,,,,110,0,110,0,,,,,,,,,,,,,1517.9552027741447,None,,,,,,,,,,,,,,,,,,,,,,estate,B_aloud,110,119,1513.3205318156397,None,1513.3205318156397,None,1513.3205318156397,None,2,3.8265786527190357,1513.3205318156397,None,1517.2050836599665,None,1517.2050836599665,None,1517.722149965819,None,1517.722149965819,None,1517.722149965819,None,n,0.19246159109752625,1517.722149965819,None,sing28,001,2019_Nov_07_1801,ProdFawcett_Revision2019,3.2.4,59.91469508142321,
,,,,111,0,111,0,,,,,,,,,,,,,1524.3404926292133,None,,,,,,,,,,,,,,,,,,,,,,murder,C_sing,111,195,1518.4720803010277,None,1518.4720803010277,None,1518.4720803010277,None,4,5.169853828381747,1518.4720803010277,None,1523.7071275735507,None,1523.7071275735507,None,1524.2237643839326,None,1524.2237643839326,None,1524.2237643839326,None,f,0.07496672263368964,1524.2237643839326,None,sing28,001,2019_Nov_07_1801,ProdFawcett_Revision2019,3.2.4,59.91469508142321,
,,,,112,0,112,0,,,,,,,,,,,,,1529.6089848852716,None,,,,,,,,,,,,,,,,,,,,,,month,D_new,112,193,1524.8577172358055,None,1524.8577172358055,None,1524.8577172358055,None,2,3.863927971688099,1524.8577172358055,None,1528.7753710269462,None,1528.7753710269462,None,1529.292081545107,None,1529.292081545107,None,1529.292081545107,None,n,0.2782683336408809,1529.292081545107,None,sing28,001,2019_Nov_07_1801,ProdFawcett_Revision2019,3.2.4,59.91469508142321,
,,,,113,0,113,0,,,,,,,,,,,,,1534.4938026373275,None,,,,,,,,,,,,,,,,,,,,,,childhood,A_silent,113,49,1530.126303725876,None,1530.126303725876,None,1530.126303725876,None,2,3.627472476218827,1530.126303725876,None,1533.7982583815465,None,1533.7982583815465,None,1534.3269201343646,None,1534.3269201343646,None,1534.3269201343646,None,n,0.12316943460609764,1534.3269201343646,None,sing28,001,2019_Nov_07_1801,ProdFawcett_Revision2019,3.2.4,59.91469508142321,
,,,,114,0,114,0,,,,,,,,,,,,,1538.2615229832008,None,,,,,,,,,,,,,,,,,,,,,,gesture,B_aloud,114,137,1535.0115475524217,None,1535.0115475524217,None,1535.0115475524217,None,6,2.1500046650180593,1535.0115475524217,None,1537.2114971699193,None,1537.2114971699193,None,1537.7281324252253,None,1537.7281324252253,None,1537.7281324252253,None,r,0.48960626986809075,1537.7281324252253,None,sing28,001,2019_Nov_07_1801,ProdFawcett_Revision2019,3.2.4,59.91469508142321,
,,,,115,0,115,0,,,,,,,,,,,,,1543.113100391929,None,,,,,,,,,,,,,,,,,,,,,,testimony,A_silent,115,325,1538.7797779436223,None,1538.7797779436223,None,1538.7797779436223,None,1,3.3170734589220956,1538.7797779436223,None,1542.1353865771089,None,1542.1353865771089,None,1542.6630602724617,None,1542.6630602724617,None,1542.6630602724617,None,n,0.40169621200766414,1542.6630602724617,None,sing28,001,2019_Nov_07_1801,ProdFawcett_Revision2019,3.2.4,59.91469508142321,
,,,,116,0,116,0,,,,,,,,,,,,,1551.0156064564362,None,,,,,,,,,,,,,,,,,,,,,,escape,C_sing,116,118,1543.6298124650493,None,1543.6298124650493,None,1543.6298124650493,None,3,6.306666044634767,1543.6298124650493,None,1549.9985301984707,None,1549.9985301984707,None,1550.515418921481,None,1550.515418921481,None,1550.515418921481,None,f,0.4612604962894693,1550.515418921481,None,sing28,001,2019_Nov_07_1801,ProdFawcett_Revision2019,3.2.4,59.91469508142321,
,,,,117,0,117,0,,,,,,,,,,,,,1558.6344949306222,None,,,,,,,,,,,,,,,,,,,,,,committee,C_sing,117,62,1551.5332599366084,None,1551.5332599366084,None,1551.5332599366084,None,3,5.530852460069582,1551.5332599366084,None,1557.1062318840995,None,1557.1062318840995,None,1557.6342439510627,None,1557.6342439510627,None,1557.6342439510627,None,f,0.9660931766266003,1557.6342439510627,None,sing28,001,2019_Nov_07_1801,ProdFawcett_Revision2019,3.2.4,59.91469508142321,
,,,,118,0,118,0,,,,,,,,,,,,,1562.4858310008422,None,,,,,,,,,,,,,,,,,,,,,,territory,D_new,118,324,1559.1520768800983,None,1559.1520768800983,None,1559.1520768800983,None,2,2.463584623998031,1559.1520768800983,None,1561.6688293836778,None,1561.6688293836778,None,1562.1857429868542,None,1562.1857429868542,None,1562.1857429868542,None,n,0.25386483792681247,1562.1857429868542,None,sing28,001,2019_Nov_07_1801,ProdFawcett_Revision2019,3.2.4,59.91469508142321,
,,,,119,0,119,0,,,,,,,,,,,,,1567.6374018784845,None,,,,,,,,,,,,,,,,,,,,,,private,D_new,119,237,1563.0038978043012,None,1563.0038978043012,None,1563.0038978043012,None,2,3.7955570069607347,1563.0038978043012,None,1566.8538231635466,None,1566.8538231635466,None,1567.3706643030746,None,1567.3706643030746,None,1567.3706643030746,None,n,0.22064502083230764,1567.3706643030746,None,sing28,001,2019_Nov_07_1801,ProdFawcett_Revision2019,3.2.4,59.91469508142321,
,,,,120,0,120,0,,,,,,,,,,,,,1571.8386713939253,None,,,,,,,,,,,,,,,,,,,,,,rapid,D_new,120,252,1568.1541553151328,None,1568.1541553151328,None,1568.1541553151328,None,1,2.9491721091326326,1568.1541553151328,None,1571.1437270635506,None,1571.1437270635506,None,1571.6719350625062,None,1571.6719350625062,None,1571.6719350625062,None,n,0.12759314547292888,1571.6719350625062,None,sing28,001,2019_Nov_07_1801,ProdFawcett_Revision2019,3.2.4,59.91469508142321,
,,,,121,0,121,0,,,,,,,,,,,,,1575.88995210547,None,,,,,,,,,,,,,,,,,,,,,,tough,C_sing,121,333,1572.355510667432,None,1572.355510667432,None,1572.355510667432,None,6,2.643835292663425,1572.355510667432,None,1575.0443384960527,None,1575.0443384960527,None,1575.5730562293902,None,1575.5730562293902,None,1575.5730562293902,None,r,0.2746684703743085,1575.5730562293902,None,sing28,001,2019_Nov_07_1801,ProdFawcett_Revision2019,3.2.4,59.91469508142321,
,,,,122,0,122,0,,,,,,,,,,,,,1580.5912981277797,None,,,,,,,,,,,,,,,,,,,,,,state,A_silent,122,303,1576.4070333396085,None,1576.4070333396085,None,1576.4070333396085,None,3,3.319745288346894,1576.4070333396085,None,1579.7812359271338,None,1579.7812359271338,None,1580.3079725694843,None,1580.3079725694843,None,1580.3079725694843,None,f,0.23458947567269206,1580.3079725694843,None,sing28,001,2019_Nov_07_1801,ProdFawcett_Revision2019,3.2.4,59.91469508142321,
,,,,123,0,123,0,,,,,,,,,,,,,1589.944195434451,None,,,,,,,,,,,,,,,,,,,,,,agency,A_silent,123,4,1581.1082462524064,None,1581.1082462524064,None,1581.1082462524064,None,2,3.466213845880702,1581.1082462524064,None,1584.6141553150956,None,1584.6141553150956,None,1585.142659389181,None,1585.142659389181,None,1585.142659389181,None,n,4.76023791753687,1585.142659389181,None,sing28,001,2019_Nov_07_1801,ProdFawcett_Revision2019,3.2.4,59.91469508142321,
,,,,124,0,124,0,,,,,,,,,,,,,1598.3969095603097,None,,,,,,,,,,,,,,,,,,,,,,count,D_new,124,72,1590.4610241338378,None,1590.4610241338378,None,1590.4610241338378,None,5,6.816806618124247,1590.4610241338378,None,1597.3299340673257,None,1597.3299340673257,None,1597.8467720968183,None,1597.8467720968183,None,1597.8467720968183,None,r,0.5111575542250648,1597.8467720968183,None,sing28,001,2019_Nov_07_1801,ProdFawcett_Revision2019,3.2.4,59.91469508142321,
,,,,125,0,125,0,,,,,,,,,,,,,1602.914859426557,None,,,,,,,,,,,,,,,,,,,,,,profession,D_new,125,241,1598.9147969149053,None,1598.9147969149053,None,1598.9147969149053,None,2,3.0270041051553562,1598.9147969149053,None,1601.9863419792382,None,1601.9863419792382,None,1602.5148389003007,None,1602.5148389003007,None,1602.5148389003007,None,n,0.35445761028677225,1602.5148389003007,None,sing28,001,2019_Nov_07_1801,ProdFawcett_Revision2019,3.2.4,59.91469508142321,
,,,,126,0,126,0,,,,,,,,,,,,,1607.366359084379,None,,,,,,,,,,,,,,,,,,,,,,light,D_new,126,171,1603.4317388194613,None,1603.4317388194613,None,1603.4317388194613,None,2,2.765620140475221,1603.4317388194613,None,1606.238966536126,None,1606.238966536126,None,1606.7661830565194,None,1606.7661830565194,None,1606.7661830565194,None,n,0.5592896684538573,1606.7661830565194,None,sing28,001,2019_Nov_07_1801,ProdFawcett_Revision2019,3.2.4,59.91469508142321,
,,,,127,0,127,0,,,,,,,,,,,,,1616.4192902905634,None,,,,,,,,,,,,,,,,,,,,,,break,D_new,127,26,1607.8830605834955,None,1607.8830605834955,None,1607.8830605834955,None,2,7.737496734480374,1607.8830605834955,None,1615.6854783231393,None,1615.6854783231393,None,1616.2022541519254,None,1616.2022541519254,None,1616.2022541519254,None,n,0.17831374006345868,1616.2022541519254,None,sing28,001,2019_Nov_07_1801,ProdFawcett_Revision2019,3.2.4,59.91469508142321,
,,,,128,0,128,0,,,,,,,,,,,,,1620.3702839460457,None,,,,,,,,,,,,,,,,,,,,,,scene,D_new,128,273,1616.9359948995989,None,1616.9359948995989,None,1616.9359948995989,None,4,2.668380605871789,1616.9359948995989,None,1619.6701732288348,None,1619.6701732288348,None,1620.1868713068543,None,1620.1868713068543,None,1620.1868713068543,None,f,0.14548112219199538,1620.1868713068543,None,sing28,001,2019_Nov_07_1801,ProdFawcett_Revision2019,3.2.4,59.91469508142321,
,,,,129,0,129,0,,,,,,,,,,,,,1625.9554705480114,None,,,,,,,,,,,,,,,,,,,,,,income,C_sing,129,159,1620.8872759221122,None,1620.8872759221122,None,1620.8872759221122,None,5,3.5727302979212254,1620.8872759221122,None,1624.5102799029555,None,1624.5102799029555,None,1625.038478882867,None,1625.038478882867,None,1625.038478882867,None,r,0.8694688063114882,1625.038478882867,None,sing28,001,2019_Nov_07_1801,ProdFawcett_Revision2019,3.2.4,59.91469508142321,
,,,,130,0,130,0,,,,,,,,,,,,,1631.1403906202177,None,,,,,,,,,,,,,,,,,,,,,,hunger,B_aloud,130,155,1626.4732568265172,None,1626.4732568265172,None,1626.4732568265172,None,1,3.8428873545490205,1626.4732568265172,None,1630.3612129128305,None,1630.3612129128305,None,1630.8902111712378,None,1630.8902111712378,None,1630.8902111712378,None,n,0.21751166263129562,1630.8902111712378,None,sing28,001,2019_Nov_07_1801,ProdFawcett_Revision2019,3.2.4,59.91469508142321,
,,,,131,0,131,0,,,,,,,,,,,,,1635.1582789077656,None,,,,,,,,,,,,,,,,,,,,,,accident,B_aloud,131,0,1631.6579420912312,None,1631.6579420912312,None,1631.6579420912312,None,2,2.681697456049733,1631.6579420912312,None,1634.3801013871562,None,1634.3801013871562,None,1634.908169745584,None,1634.908169745584,None,1634.908169745584,None,n,0.21541207935661077,1634.908169745584,None,sing28,001,2019_Nov_07_1801,ProdFawcett_Revision2019,3.2.4,59.91469508142321,
,,,,132,0,132,0,,,,,,,,,,,,,1639.809580456582,None,,,,,,,,,,,,,,,,,,,,,,evidence,D_new,132,120,1635.6752587547526,None,1635.6752587547526,None,1635.6752587547526,None,2,3.344395409571007,1635.6752587547526,None,1639.0642455060733,None,1639.0642455060733,None,1639.5928686944535,None,1639.5928686944535,None,1639.5928686944535,None,n,0.17028176900930703,1639.5928686944535,None,sing28,001,2019_Nov_07_1801,ProdFawcett_Revision2019,3.2.4,59.91469508142321,
,,,,133,0,133,0,,,,,,,,,,,,,1644.094246127992,None,,,,,,,,,,,,,,,,,,,,,,report,B_aloud,133,259,1640.3264837968163,None,1640.3264837968163,None,1640.3264837968163,None,2,2.909292467404157,1640.3264837968163,None,1643.2941997885937,None,1643.2941997885937,None,1643.8110200908268,None,1643.8110200908268,None,1643.8110200908268,None,n,0.24812589411158115,1643.8110200908268,None,sing28,001,2019_Nov_07_1801,ProdFawcett_Revision2019,3.2.4,59.91469508142321,
,,,,134,0,134,0,,,,,,,,,,,,,1648.3624164956855,None,,,,,,,,,,,,,,,,,,,,,,union,B_aloud,134,344,1644.6114452322945,None,1644.6114452322945,None,1644.6114452322945,None,2,2.7920659949304536,1644.6114452322945,None,1647.4620370715857,None,1647.4620370715857,None,1647.9789519188926,None,1647.9789519188926,None,1647.9789519188926,None,n,0.33568669529631734,1647.9789519188926,None,sing28,001,2019_Nov_07_1801,ProdFawcett_Revision2019,3.2.4,59.91469508142321,
,,,,135,0,135,0,,,,,,,,,,,,,1656.0147471543169,None,,,,,,,,,,,,,,,,,,,,,,signal,D_new,135,287,1648.8791207936592,None,1648.8791207936592,None,1648.8791207936592,None,3,4.739871244644746,1648.8791207936592,None,1653.6537762020016,None,1653.6537762020016,None,1654.1808530821,None,1654.1808530821,None,1654.1808530821,None,n,1.7901663867523894,1654.1808530821,None,sing28,001,2019_Nov_07_1801,ProdFawcett_Revision2019,3.2.4,59.91469508142321,
,,,,136,0,136,0,,,,,,,,,,,,,1662.966933818534,None,,,,,,,,,,,,,,,,,,,,,,opening,D_new,136,205,1656.532288362272,None,1656.532288362272,None,1656.532288362272,None,2,5.597745537059382,1656.532288362272,None,1662.1831977359252,None,1662.1831977359252,None,1662.700183491921,None,1662.700183491921,None,1662.700183491921,None,n,0.22162188217043877,1662.700183491921,None,sing28,001,2019_Nov_07_1801,ProdFawcett_Revision2019,3.2.4,59.91469508142321,
,,,,137,0,137,0,,,,,,,,,,,,,1668.235167941777,None,,,,,,,,,,,,,,,,,,,,,,quick,B_aloud,137,248,1663.4863438452594,None,1663.4863438452594,None,1663.4863438452594,None,5,3.363395533990115,1663.4863438452594,None,1666.9014131990261,None,1666.9014131990261,None,1667.420037009404,None,1667.420037009404,None,1667.420037009404,None,f,0.7819319524569437,1667.420037009404,None,sing28,001,2019_Nov_07_1801,ProdFawcett_Revision2019,3.2.4,59.91469508142321,
,,,,138,0,138,0,,,,,,,,,,,,,1680.4723589600762,None,,,,,,,,,,,,,,,,,,,,,,service,B_aloud,138,280,1668.7523079555249,None,1668.7523079555249,None,1668.7523079555249,None,2,10.809314859681763,1668.7523079555249,None,1679.6219907321502,None,1679.6219907321502,None,1680.1388925173087,None,1680.1388925173087,None,1680.1388925173087,None,n,0.29432076879311353,1680.1388925173087,None,sing28,001,2019_Nov_07_1801,ProdFawcett_Revision2019,3.2.4,59.91469508142321,
,,,,139,0,139,0,,,,,,,,,,,,,1683.8566884369357,None,,,,,,,,,,,,,,,,,,,,,,broad,D_new,139,31,1680.9903915531468,None,1680.9903915531468,None,1680.9903915531468,None,1,2.106884990935214,1680.9903915531468,None,1683.1564589164918,None,1683.1564589164918,None,1683.6733420414384,None,1683.6733420414384,None,1683.6733420414384,None,n,0.13523853954393417,1683.6733420414384,None,sing28,001,2019_Nov_07_1801,ProdFawcett_Revision2019,3.2.4,59.91469508142321,
,,,,140,0,140,0,,,,,,,,,,,,,1689.208339242381,None,,,,,,,,,,,,,,,,,,,,,,dispute,C_sing,140,99,1684.3741721092956,None,1684.3741721092956,None,1684.3741721092956,None,3,3.986437457264401,1684.3741721092956,None,1688.4116340113105,None,1688.4116340113105,None,1688.9423869503662,None,1688.9423869503662,None,1688.9423869503662,None,f,0.22637152462266386,1688.9423869503662,None,sing28,001,2019_Nov_07_1801,ProdFawcett_Revision2019,3.2.4,59.91469508142321,
,,,,141,0,141,0,,,,,,,,,,,,,1697.2608627232257,None,,,,,,,,,,,,,,,,,,,,,,people,C_sing,141,216,1689.7252898551524,None,1689.7252898551524,None,1689.7252898551524,None,3,6.682762953336351,1689.7252898551524,None,1696.4485619207844,None,1696.4485619207844,None,1696.9773207065882,None,1696.9773207065882,None,1696.9773207065882,None,n,0.24657616473268718,1696.9773207065882,None,sing28,001,2019_Nov_07_1801,ProdFawcett_Revision2019,3.2.4,59.91469508142321,
,,,,142,0,142,0,,,,,,,,,,,,,1702.1122261616401,None,,,,,,,,,,,,,,,,,,,,,,school,D_new,142,274,1697.7775380979292,None,1697.7775380979292,None,1697.7775380979292,None,4,3.6301010760944337,1697.7775380979292,None,1701.4620610189158,None,1701.4620610189158,None,1701.9790274926927,None,1701.9790274926927,None,1701.9790274926927,None,f,0.09289575170259923,1701.9790274926927,None,sing28,001,2019_Nov_07_1801,ProdFawcett_Revision2019,3.2.4,59.91469508142321,
,,,,143,0,143,0,,,,,,,,,,,,,1705.9467764508445,None,,,,,,,,,,,,,,,,,,,,,,power,A_silent,143,230,1702.6300970331067,None,1702.6300970331067,None,1702.6300970331067,None,3,2.3616234371438622,1702.6300970331067,None,1705.046618150198,None,1705.046618150198,None,1705.563331778394,None,1705.563331778394,None,1705.563331778394,None,f,0.3408257137052715,1705.563331778394,None,sing28,001,2019_Nov_07_1801,ProdFawcett_Revision2019,3.2.4,59.91469508142321,
,,,,144,0,144,0,,,,,,,,,,,,,1713.7824174286798,None,,,,,,,,,,,,,,,,,,,,,,track,A_silent,144,334,1706.4637678050203,None,1706.4637678050203,None,1706.4637678050203,None,2,4.599517944850959,1706.4637678050203,None,1711.1150942340028,None,1711.1150942340028,None,1711.6319981962442,None,1711.6319981962442,None,1711.6319981962442,None,n,2.102836972102523,1711.6319981962442,None,sing28,001,2019_Nov_07_1801,ProdFawcett_Revision2019,3.2.4,59.91469508142321,
,,,,145,0,145,0,,,,,,,,,,,,,1716.6667817379348,None,,,,,,,,,,,,,,,,,,,,,,afternoon,D_new,145,3,1714.3009650432505,None,1714.3009650432505,None,1714.3009650432505,None,1,1.5383970889961347,1714.3009650432505,None,1715.8881831187755,None,1715.8881831187755,None,1716.4166557815624,None,1716.4166557815624,None,1716.4166557815624,None,n,0.20674224046524614,1716.4166557815624,None,sing28,001,2019_Nov_07_1801,ProdFawcett_Revision2019,3.2.4,59.91469508142321,
,,,,146,0,146,0,,,,,,,,,,,,,1720.4345390931703,None,,,,,,,,,,,,,,,,,,,,,,empty,D_new,146,112,1717.1836794799892,None,1717.1836794799892,None,1717.1836794799892,None,1,2.5028180008521304,1717.1836794799892,None,1719.751198606682,None,1719.751198606682,None,1720.2679943398107,None,1720.2679943398107,None,1720.2679943398107,None,n,0.1306322697782889,1720.2679943398107,None,sing28,001,2019_Nov_07_1801,ProdFawcett_Revision2019,3.2.4,59.91469508142321,
,,,,147,0,147,0,,,,,,,,,,,,,1723.5689662250225,None,,,,,,,,,,,,,,,,,,,,,,society,D_new,147,293,1720.9513447782956,None,1720.9513447782956,None,1720.9513447782956,None,2,1.8709855694323778,1720.9513447782956,None,1722.873804814415,None,1722.873804814415,None,1723.4022613050183,None,1723.4022613050183,None,1723.4022613050183,None,n,0.12491665116976947,1723.4022613050183,None,sing28,001,2019_Nov_07_1801,ProdFawcett_Revision2019,3.2.4,59.91469508142321,
,,,,148,0,148,0,,,,,,,,,,,,,1726.953274553758,None,,,,,,,,,,,,,,,,,,,,,,color,D_new,148,56,1724.0858079865575,None,1724.0858079865575,None,1724.0858079865575,None,2,2.088310008170083,1724.0858079865575,None,1726.2270750140306,None,1726.2270750140306,None,1726.7533529265784,None,1726.7533529265784,None,1726.7533529265784,None,n,0.15766063320916146,1726.7533529265784,None,sing28,001,2019_Nov_07_1801,ProdFawcett_Revision2019,3.2.4,59.91469508142321,
,,,,149,0,149,0,,,,,,,,,,,,,1741.3578674504533,None,,,,,,,,,,,,,,,,,,,,,,incident,A_silent,149,158,1727.4721272626193,None,1727.4721272626193,None,1727.4721272626193,None,2,13.10986409150064,1727.4721272626193,None,1740.6408757852623,None,1740.6408757852623,None,1741.157790321624,None,1741.157790321624,None,1741.157790321624,None,n,0.15969024074729532,1741.157790321624,None,sing28,001,2019_Nov_07_1801,ProdFawcett_Revision2019,3.2.4,59.91469508142321,
,,,,150,0,150,0,,,,,,,,,,,,,1744.9089671580587,None,,,,,,,,,,,,,,,,,,,,,,executive,A_silent,150,122,1741.864091248368,None,1741.864091248368,None,1741.864091248368,None,2,2.3251987311523408,1741.864091248368,None,1744.2316315233475,None,1744.2316315233475,None,1744.7588237855816,None,1744.7588237855816,None,1744.7588237855816,None,n,0.10235242894850671,1744.7588237855816,None,sing28,001,2019_Nov_07_1801,ProdFawcett_Revision2019,3.2.4,59.91469508142321,
,,,,151,0,151,0,,,,,,,,,,,,,1748.4433638117043,None,,,,,,,,,,,,,,,,,,,,,,mayor,B_aloud,151,183,1745.4262831996894,None,1745.4262831996894,None,1745.4262831996894,None,5,2.2026158487424254,1745.4262831996894,None,1747.6828030727338,None,1747.6828030727338,None,1748.2098650245462,None,1748.2098650245462,None,1748.2098650245462,None,r,0.19515456864610314,1748.2098650245462,None,sing28,001,2019_Nov_07_1801,ProdFawcett_Revision2019,3.2.4,59.91469508142321,
,,,,152,0,152,0,,,,,,,,,,,,,1756.9458981775679,None,,,,,,,,,,,,,,,,,,,,,,display,D_new,152,98,1748.9603442806983,None,1748.9603442806983,None,1748.9603442806983,None,3,7.2361398270586506,1748.9603442806983,None,1756.2340315358015,None,1756.2340315358015,None,1756.7624749642564,None,1756.7624749642564,None,1756.7624749642564,None,f,0.13784101512283087,1756.7624749642564,None,sing28,001,2019_Nov_07_1801,ProdFawcett_Revision2019,3.2.4,59.91469508142321,
