StudyTrials.thisRepN,StudyTrials.thisTrialN,StudyTrials.thisN,StudyTrials.thisIndex,TestTrials.thisRepN,TestTrials.thisTrialN,TestTrials.thisN,TestTrials.thisIndex,keyWelcome.keys,keyWelcome.rt,keyReady.keys,keyReady.rt,studyPic,studyWord,studyType,studyN,studyOrder,kPress2.keys,kPress2.rt,testWord,testType,testN,testOrder,keyConf.keys,keyConf.rt,keyRKN.keys,keyRKN.rt,date,frameRate,expName,session,participant,
,,,,,,,,space,256.6846572,,,,,,,,,,,,,,,,,,2019_Nov_04_0931,60.015039769,ProdFawcett_Revision2019,001,sing18,
,,,,,,,,,,space,2.2513348,,,,,,,,,,,,,,,,2019_Nov_04_0931,60.015039769,ProdFawcett_Revision2019,001,sing18,
0,0,0,0,,,,,,,,,materials/readPic.jpg,opening,A_silent,0,205,,,,,,,,,,,2019_Nov_04_0931,60.015039769,ProdFawcett_Revision2019,001,sing18,
1,0,1,0,,,,,,,,,materials/speakPic.jpg,treatment,B_aloud,1,339,,,,,,,,,,,2019_Nov_04_0931,60.015039769,ProdFawcett_Revision2019,001,sing18,
2,0,2,0,,,,,,,,,materials/speakPic.jpg,nation,B_aloud,2,198,,,,,,,,,,,2019_Nov_04_0931,60.015039769,ProdFawcett_Revision2019,001,sing18,
3,0,3,0,,,,,,,,,materials/singPic.jpg,drama,C_sing,3,103,,,,,,,,,,,2019_Nov_04_0931,60.015039769,ProdFawcett_Revision2019,001,sing18,
4,0,4,0,,,,,,,,,materials/readPic.jpg,display,A_silent,4,98,,,,,,,,,,,2019_Nov_04_0931,60.015039769,ProdFawcett_Revision2019,001,sing18,
5,0,5,0,,,,,,,,,materials/singPic.jpg,welcome,C_sing,5,354,,,,,,,,,,,2019_Nov_04_0931,60.015039769,ProdFawcett_Revision2019,001,sing18,
6,0,6,0,,,,,,,,,materials/readPic.jpg,master,A_silent,6,180,,,,,,,,,,,2019_Nov_04_0931,60.015039769,ProdFawcett_Revision2019,001,sing18,
7,0,7,0,,,,,,,,,materials/speakPic.jpg,background,B_aloud,7,16,,,,,,,,,,,2019_Nov_04_0931,60.015039769,ProdFawcett_Revision2019,001,sing18,
8,0,8,0,,,,,,,,,materials/speakPic.jpg,agency,B_aloud,8,4,,,,,,,,,,,2019_Nov_04_0931,60.015039769,ProdFawcett_Revision2019,001,sing18,
9,0,9,0,,,,,,,,,materials/readPic.jpg,bright,A_silent,9,29,,,,,,,,,,,2019_Nov_04_0931,60.015039769,ProdFawcett_Revision2019,001,sing18,
10,0,10,0,,,,,,,,,materials/singPic.jpg,course,C_sing,10,74,,,,,,,,,,,2019_Nov_04_0931,60.015039769,ProdFawcett_Revision2019,001,sing18,
11,0,11,0,,,,,,,,,materials/singPic.jpg,atmosphere,C_sing,11,12,,,,,,,,,,,2019_Nov_04_0931,60.015039769,ProdFawcett_Revision2019,001,sing18,
12,0,12,0,,,,,,,,,materials/readPic.jpg,volume,A_silent,12,349,,,,,,,,,,,2019_Nov_04_0931,60.015039769,ProdFawcett_Revision2019,001,sing18,
13,0,13,0,,,,,,,,,materials/speakPic.jpg,color,B_aloud,13,56,,,,,,,,,,,2019_Nov_04_0931,60.015039769,ProdFawcett_Revision2019,001,sing18,
14,0,14,0,,,,,,,,,materials/speakPic.jpg,mechanical,B_aloud,14,185,,,,,,,,,,,2019_Nov_04_0931,60.015039769,ProdFawcett_Revision2019,001,sing18,
15,0,15,0,,,,,,,,,materials/speakPic.jpg,notice,B_aloud,15,201,,,,,,,,,,,2019_Nov_04_0931,60.015039769,ProdFawcett_Revision2019,001,sing18,
16,0,16,0,,,,,,,,,materials/speakPic.jpg,audience,B_aloud,16,14,,,,,,,,,,,2019_Nov_04_0931,60.015039769,ProdFawcett_Revision2019,001,sing18,
17,0,17,0,,,,,,,,,materials/speakPic.jpg,worker,B_aloud,17,356,,,,,,,,,,,2019_Nov_04_0931,60.015039769,ProdFawcett_Revision2019,001,sing18,
18,0,18,0,,,,,,,,,materials/speakPic.jpg,partner,B_aloud,18,211,,,,,,,,,,,2019_Nov_04_0931,60.015039769,ProdFawcett_Revision2019,001,sing18,
19,0,19,0,,,,,,,,,materials/singPic.jpg,report,C_sing,19,259,,,,,,,,,,,2019_Nov_04_0931,60.015039769,ProdFawcett_Revision2019,001,sing18,
20,0,20,0,,,,,,,,,materials/readPic.jpg,company,A_silent,20,64,,,,,,,,,,,2019_Nov_04_0931,60.015039769,ProdFawcett_Revision2019,001,sing18,
21,0,21,0,,,,,,,,,materials/speakPic.jpg,close,B_aloud,21,53,,,,,,,,,,,2019_Nov_04_0931,60.015039769,ProdFawcett_Revision2019,001,sing18,
22,0,22,0,,,,,,,,,materials/readPic.jpg,provision,A_silent,22,243,,,,,,,,,,,2019_Nov_04_0931,60.015039769,ProdFawcett_Revision2019,001,sing18,
23,0,23,0,,,,,,,,,materials/readPic.jpg,marriage,A_silent,23,179,,,,,,,,,,,2019_Nov_04_0931,60.015039769,ProdFawcett_Revision2019,001,sing18,
24,0,24,0,,,,,,,,,materials/speakPic.jpg,research,B_aloud,24,261,,,,,,,,,,,2019_Nov_04_0931,60.015039769,ProdFawcett_Revision2019,001,sing18,
25,0,25,0,,,,,,,,,materials/speakPic.jpg,committee,B_aloud,25,62,,,,,,,,,,,2019_Nov_04_0931,60.015039769,ProdFawcett_Revision2019,001,sing18,
26,0,26,0,,,,,,,,,materials/readPic.jpg,height,A_silent,26,152,,,,,,,,,,,2019_Nov_04_0931,60.015039769,ProdFawcett_Revision2019,001,sing18,
27,0,27,0,,,,,,,,,materials/singPic.jpg,gesture,C_sing,27,137,,,,,,,,,,,2019_Nov_04_0931,60.015039769,ProdFawcett_Revision2019,001,sing18,
28,0,28,0,,,,,,,,,materials/readPic.jpg,danger,A_silent,28,85,,,,,,,,,,,2019_Nov_04_0931,60.015039769,ProdFawcett_Revision2019,001,sing18,
29,0,29,0,,,,,,,,,materials/speakPic.jpg,exchange,B_aloud,29,121,,,,,,,,,,,2019_Nov_04_0931,60.015039769,ProdFawcett_Revision2019,001,sing18,
30,0,30,0,,,,,,,,,materials/readPic.jpg,drove,A_silent,30,106,,,,,,,,,,,2019_Nov_04_0931,60.015039769,ProdFawcett_Revision2019,001,sing18,
31,0,31,0,,,,,,,,,materials/singPic.jpg,bitter,C_sing,31,23,,,,,,,,,,,2019_Nov_04_0931,60.015039769,ProdFawcett_Revision2019,001,sing18,
32,0,32,0,,,,,,,,,materials/speakPic.jpg,birth,B_aloud,32,22,,,,,,,,,,,2019_Nov_04_0931,60.015039769,ProdFawcett_Revision2019,001,sing18,
33,0,33,0,,,,,,,,,materials/speakPic.jpg,trial,B_aloud,33,341,,,,,,,,,,,2019_Nov_04_0931,60.015039769,ProdFawcett_Revision2019,001,sing18,
34,0,34,0,,,,,,,,,materials/speakPic.jpg,community,B_aloud,34,63,,,,,,,,,,,2019_Nov_04_0931,60.015039769,ProdFawcett_Revision2019,001,sing18,
35,0,35,0,,,,,,,,,materials/singPic.jpg,solution,C_sing,35,294,,,,,,,,,,,2019_Nov_04_0931,60.015039769,ProdFawcett_Revision2019,001,sing18,
36,0,36,0,,,,,,,,,materials/singPic.jpg,religion,C_sing,36,258,,,,,,,,,,,2019_Nov_04_0931,60.015039769,ProdFawcett_Revision2019,001,sing18,
37,0,37,0,,,,,,,,,materials/readPic.jpg,theme,A_silent,37,326,,,,,,,,,,,2019_Nov_04_0931,60.015039769,ProdFawcett_Revision2019,001,sing18,
38,0,38,0,,,,,,,,,materials/speakPic.jpg,military,B_aloud,38,190,,,,,,,,,,,2019_Nov_04_0931,60.015039769,ProdFawcett_Revision2019,001,sing18,
39,0,39,0,,,,,,,,,materials/speakPic.jpg,direction,B_aloud,39,94,,,,,,,,,,,2019_Nov_04_0931,60.015039769,ProdFawcett_Revision2019,001,sing18,
40,0,40,0,,,,,,,,,materials/readPic.jpg,music,A_silent,40,196,,,,,,,,,,,2019_Nov_04_0931,60.015039769,ProdFawcett_Revision2019,001,sing18,
41,0,41,0,,,,,,,,,materials/singPic.jpg,style,C_sing,41,311,,,,,,,,,,,2019_Nov_04_0931,60.015039769,ProdFawcett_Revision2019,001,sing18,
42,0,42,0,,,,,,,,,materials/singPic.jpg,point,C_sing,42,226,,,,,,,,,,,2019_Nov_04_0931,60.015039769,ProdFawcett_Revision2019,001,sing18,
43,0,43,0,,,,,,,,,materials/singPic.jpg,minute,C_sing,43,192,,,,,,,,,,,2019_Nov_04_0931,60.015039769,ProdFawcett_Revision2019,001,sing18,
44,0,44,0,,,,,,,,,materials/singPic.jpg,trail,C_sing,44,336,,,,,,,,,,,2019_Nov_04_0931,60.015039769,ProdFawcett_Revision2019,001,sing18,
45,0,45,0,,,,,,,,,materials/readPic.jpg,balance,A_silent,45,17,,,,,,,,,,,2019_Nov_04_0931,60.015039769,ProdFawcett_Revision2019,001,sing18,
46,0,46,0,,,,,,,,,materials/singPic.jpg,frank,C_sing,46,133,,,,,,,,,,,2019_Nov_04_0931,60.015039769,ProdFawcett_Revision2019,001,sing18,
47,0,47,0,,,,,,,,,materials/singPic.jpg,mayor,C_sing,47,183,,,,,,,,,,,2019_Nov_04_0931,60.015039769,ProdFawcett_Revision2019,001,sing18,
48,0,48,0,,,,,,,,,materials/singPic.jpg,medicine,C_sing,48,186,,,,,,,,,,,2019_Nov_04_0931,60.015039769,ProdFawcett_Revision2019,001,sing18,
49,0,49,0,,,,,,,,,materials/speakPic.jpg,guard,B_aloud,49,145,,,,,,,,,,,2019_Nov_04_0931,60.015039769,ProdFawcett_Revision2019,001,sing18,
50,0,50,0,,,,,,,,,materials/readPic.jpg,safety,A_silent,50,270,,,,,,,,,,,2019_Nov_04_0931,60.015039769,ProdFawcett_Revision2019,001,sing18,
51,0,51,0,,,,,,,,,materials/speakPic.jpg,reading,B_aloud,51,254,,,,,,,,,,,2019_Nov_04_0931,60.015039769,ProdFawcett_Revision2019,001,sing18,
52,0,52,0,,,,,,,,,materials/speakPic.jpg,cousin,B_aloud,52,76,,,,,,,,,,,2019_Nov_04_0931,60.015039769,ProdFawcett_Revision2019,001,sing18,
53,0,53,0,,,,,,,,,materials/readPic.jpg,addition,A_silent,53,2,,,,,,,,,,,2019_Nov_04_0931,60.015039769,ProdFawcett_Revision2019,001,sing18,
54,0,54,0,,,,,,,,,materials/speakPic.jpg,concern,B_aloud,54,65,,,,,,,,,,,2019_Nov_04_0931,60.015039769,ProdFawcett_Revision2019,001,sing18,
55,0,55,0,,,,,,,,,materials/readPic.jpg,position,A_silent,55,229,,,,,,,,,,,2019_Nov_04_0931,60.015039769,ProdFawcett_Revision2019,001,sing18,
56,0,56,0,,,,,,,,,materials/speakPic.jpg,passage,B_aloud,56,212,,,,,,,,,,,2019_Nov_04_0931,60.015039769,ProdFawcett_Revision2019,001,sing18,
57,0,57,0,,,,,,,,,materials/readPic.jpg,command,A_silent,57,60,,,,,,,,,,,2019_Nov_04_0931,60.015039769,ProdFawcett_Revision2019,001,sing18,
58,0,58,0,,,,,,,,,materials/speakPic.jpg,write,B_aloud,58,358,,,,,,,,,,,2019_Nov_04_0931,60.015039769,ProdFawcett_Revision2019,001,sing18,
59,0,59,0,,,,,,,,,materials/singPic.jpg,principal,C_sing,59,236,,,,,,,,,,,2019_Nov_04_0931,60.015039769,ProdFawcett_Revision2019,001,sing18,
60,0,60,0,,,,,,,,,materials/speakPic.jpg,growth,B_aloud,60,144,,,,,,,,,,,2019_Nov_04_0931,60.015039769,ProdFawcett_Revision2019,001,sing18,
61,0,61,0,,,,,,,,,materials/readPic.jpg,burden,A_silent,61,36,,,,,,,,,,,2019_Nov_04_0931,60.015039769,ProdFawcett_Revision2019,001,sing18,
62,0,62,0,,,,,,,,,materials/singPic.jpg,running,C_sing,62,268,,,,,,,,,,,2019_Nov_04_0931,60.015039769,ProdFawcett_Revision2019,001,sing18,
63,0,63,0,,,,,,,,,materials/singPic.jpg,drink,C_sing,63,105,,,,,,,,,,,2019_Nov_04_0931,60.015039769,ProdFawcett_Revision2019,001,sing18,
64,0,64,0,,,,,,,,,materials/readPic.jpg,public,A_silent,64,244,,,,,,,,,,,2019_Nov_04_0931,60.015039769,ProdFawcett_Revision2019,001,sing18,
65,0,65,0,,,,,,,,,materials/singPic.jpg,message,C_sing,65,189,,,,,,,,,,,2019_Nov_04_0931,60.015039769,ProdFawcett_Revision2019,001,sing18,
66,0,66,0,,,,,,,,,materials/speakPic.jpg,threat,B_aloud,66,329,,,,,,,,,,,2019_Nov_04_0931,60.015039769,ProdFawcett_Revision2019,001,sing18,
67,0,67,0,,,,,,,,,materials/readPic.jpg,permit,A_silent,67,218,,,,,,,,,,,2019_Nov_04_0931,60.015039769,ProdFawcett_Revision2019,001,sing18,
68,0,68,0,,,,,,,,,materials/singPic.jpg,vision,C_sing,68,347,,,,,,,,,,,2019_Nov_04_0931,60.015039769,ProdFawcett_Revision2019,001,sing18,
69,0,69,0,,,,,,,,,materials/readPic.jpg,strain,A_silent,69,308,,,,,,,,,,,2019_Nov_04_0931,60.015039769,ProdFawcett_Revision2019,001,sing18,
70,0,70,0,,,,,,,,,materials/readPic.jpg,error,A_silent,70,117,,,,,,,,,,,2019_Nov_04_0931,60.015039769,ProdFawcett_Revision2019,001,sing18,
71,0,71,0,,,,,,,,,materials/singPic.jpg,shock,C_sing,71,284,,,,,,,,,,,2019_Nov_04_0931,60.015039769,ProdFawcett_Revision2019,001,sing18,
72,0,72,0,,,,,,,,,materials/singPic.jpg,surface,C_sing,72,316,,,,,,,,,,,2019_Nov_04_0931,60.015039769,ProdFawcett_Revision2019,001,sing18,
73,0,73,0,,,,,,,,,materials/readPic.jpg,territory,A_silent,73,324,,,,,,,,,,,2019_Nov_04_0931,60.015039769,ProdFawcett_Revision2019,001,sing18,
74,0,74,0,,,,,,,,,materials/speakPic.jpg,carry,B_aloud,74,43,,,,,,,,,,,2019_Nov_04_0931,60.015039769,ProdFawcett_Revision2019,001,sing18,
75,0,75,0,,,,,,,,,materials/speakPic.jpg,distance,B_aloud,75,100,,,,,,,,,,,2019_Nov_04_0931,60.015039769,ProdFawcett_Revision2019,001,sing18,
76,0,76,0,,,,,,,,,materials/singPic.jpg,scale,C_sing,76,272,,,,,,,,,,,2019_Nov_04_0931,60.015039769,ProdFawcett_Revision2019,001,sing18,
77,0,77,0,,,,,,,,,materials/readPic.jpg,author,A_silent,77,15,,,,,,,,,,,2019_Nov_04_0931,60.015039769,ProdFawcett_Revision2019,001,sing18,
78,0,78,0,,,,,,,,,materials/singPic.jpg,taste,C_sing,78,322,,,,,,,,,,,2019_Nov_04_0931,60.015039769,ProdFawcett_Revision2019,001,sing18,
79,0,79,0,,,,,,,,,materials/readPic.jpg,business,A_silent,79,38,,,,,,,,,,,2019_Nov_04_0931,60.015039769,ProdFawcett_Revision2019,001,sing18,
80,0,80,0,,,,,,,,,materials/singPic.jpg,production,C_sing,80,240,,,,,,,,,,,2019_Nov_04_0931,60.015039769,ProdFawcett_Revision2019,001,sing18,
81,0,81,0,,,,,,,,,materials/speakPic.jpg,sleep,B_aloud,81,290,,,,,,,,,,,2019_Nov_04_0931,60.015039769,ProdFawcett_Revision2019,001,sing18,
82,0,82,0,,,,,,,,,materials/readPic.jpg,patient,A_silent,82,213,,,,,,,,,,,2019_Nov_04_0931,60.015039769,ProdFawcett_Revision2019,001,sing18,
83,0,83,0,,,,,,,,,materials/singPic.jpg,executive,C_sing,83,122,,,,,,,,,,,2019_Nov_04_0931,60.015039769,ProdFawcett_Revision2019,001,sing18,
84,0,84,0,,,,,,,,,materials/readPic.jpg,story,A_silent,84,306,,,,,,,,,,,2019_Nov_04_0931,60.015039769,ProdFawcett_Revision2019,001,sing18,
85,0,85,0,,,,,,,,,materials/singPic.jpg,heavy,C_sing,85,151,,,,,,,,,,,2019_Nov_04_0931,60.015039769,ProdFawcett_Revision2019,001,sing18,
86,0,86,0,,,,,,,,,materials/singPic.jpg,watch,C_sing,86,351,,,,,,,,,,,2019_Nov_04_0931,60.015039769,ProdFawcett_Revision2019,001,sing18,
87,0,87,0,,,,,,,,,materials/readPic.jpg,impact,A_silent,87,157,,,,,,,,,,,2019_Nov_04_0931,60.015039769,ProdFawcett_Revision2019,001,sing18,
88,0,88,0,,,,,,,,,materials/singPic.jpg,bicycle,C_sing,88,21,,,,,,,,,,,2019_Nov_04_0931,60.015039769,ProdFawcett_Revision2019,001,sing18,
89,0,89,0,,,,,,,,,materials/readPic.jpg,poetry,A_silent,89,225,,,,,,,,,,,2019_Nov_04_0931,60.015039769,ProdFawcett_Revision2019,001,sing18,
,,,,,,,,,,,,,,,,,k,75.5055816,,,,,,,,,2019_Nov_04_0931,60.015039769,ProdFawcett_Revision2019,001,sing18,
,,,,,,,,,,space,1.500619,,,,,,,,,,,,,,,,2019_Nov_04_0931,60.015039769,ProdFawcett_Revision2019,001,sing18,
,,,,0,0,0,0,,,,,,,,,,,,provision,A_silent,0,243,6,6.345648,f,4.0961543,2019_Nov_04_0931,60.015039769,ProdFawcett_Revision2019,001,sing18,
,,,,1,0,1,0,,,,,,,,,,,,department,D_new,1,90,5,6.0912705,f,1.4239163,2019_Nov_04_0931,60.015039769,ProdFawcett_Revision2019,001,sing18,
,,,,2,0,2,0,,,,,,,,,,,,household,D_new,2,154,1,2.48602,n,1.3884791,2019_Nov_04_0931,60.015039769,ProdFawcett_Revision2019,001,sing18,
,,,,3,0,3,0,,,,,,,,,,,,science,D_new,3,275,1,6.3725821,n,3.1621201,2019_Nov_04_0931,60.015039769,ProdFawcett_Revision2019,001,sing18,
,,,,4,0,4,0,,,,,,,,,,,,theme,A_silent,4,326,6,2.2171705,f,1.9119474,2019_Nov_04_0931,60.015039769,ProdFawcett_Revision2019,001,sing18,
,,,,5,0,5,0,,,,,,,,,,,,poetry,A_silent,5,225,6,4.4460349,f,1.3432558,2019_Nov_04_0931,60.015039769,ProdFawcett_Revision2019,001,sing18,
,,,,6,0,6,0,,,,,,,,,,,,interview,D_new,6,165,1,2.7966355,n,1.321221,2019_Nov_04_0931,60.015039769,ProdFawcett_Revision2019,001,sing18,
,,,,7,0,7,0,,,,,,,,,,,,majority,D_new,7,176,1,5.542308,n,1.0932835,2019_Nov_04_0931,60.015039769,ProdFawcett_Revision2019,001,sing18,
,,,,8,0,8,0,,,,,,,,,,,,territory,A_silent,8,324,6,2.2280358,r,1.341446,2019_Nov_04_0931,60.015039769,ProdFawcett_Revision2019,001,sing18,
,,,,9,0,9,0,,,,,,,,,,,,school,D_new,9,274,6,2.5682018,r,0.9317479,2019_Nov_04_0931,60.015039769,ProdFawcett_Revision2019,001,sing18,
,,,,10,0,10,0,,,,,,,,,,,,silence,D_new,10,288,4,8.755331,f,0.3120316,2019_Nov_04_0931,60.015039769,ProdFawcett_Revision2019,001,sing18,
,,,,11,0,11,0,,,,,,,,,,,,material,D_new,11,182,6,2.1528302,r,0.431187,2019_Nov_04_0931,60.015039769,ProdFawcett_Revision2019,001,sing18,
,,,,12,0,12,0,,,,,,,,,,,,minor,D_new,12,191,1,1.8883818,n,1.4380583,2019_Nov_04_0931,60.015039769,ProdFawcett_Revision2019,001,sing18,
,,,,13,0,13,0,,,,,,,,,,,,research,B_aloud,13,261,6,1.8444965,r,0.8631734,2019_Nov_04_0931,60.015039769,ProdFawcett_Revision2019,001,sing18,
,,,,14,0,14,0,,,,,,,,,,,,union,D_new,14,344,6,2.1750446,r,0.6723201,2019_Nov_04_0931,60.015039769,ProdFawcett_Revision2019,001,sing18,
,,,,15,0,15,0,,,,,,,,,,,,watch,C_sing,15,351,6,1.7310827,r,0.9601089,2019_Nov_04_0931,60.015039769,ProdFawcett_Revision2019,001,sing18,
,,,,16,0,16,0,,,,,,,,,,,,travel,D_new,16,338,6,1.637606,r,0.5897495,2019_Nov_04_0931,60.015039769,ProdFawcett_Revision2019,001,sing18,
,,,,17,0,17,0,,,,,,,,,,,,graduate,D_new,17,141,1,2.2015996,n,0.611085,2019_Nov_04_0931,60.015039769,ProdFawcett_Revision2019,001,sing18,
,,,,18,0,18,0,,,,,,,,,,,,figure,D_new,18,128,6,2.0683988,r,0.515183,2019_Nov_04_0931,60.015039769,ProdFawcett_Revision2019,001,sing18,
,,,,19,0,19,0,,,,,,,,,,,,owner,D_new,19,208,1,1.4701181,n,1.1396587,2019_Nov_04_0931,60.015039769,ProdFawcett_Revision2019,001,sing18,
,,,,20,0,20,0,,,,,,,,,,,,notice,B_aloud,20,201,5,2.6319625,r,2.2500556,2019_Nov_04_0931,60.015039769,ProdFawcett_Revision2019,001,sing18,
,,,,21,0,21,0,,,,,,,,,,,,appeal,D_new,21,9,1,1.6728594,n,1.362188,2019_Nov_04_0931,60.015039769,ProdFawcett_Revision2019,001,sing18,
,,,,22,0,22,0,,,,,,,,,,,,marriage,A_silent,22,179,6,1.8176165,r,1.8058187,2019_Nov_04_0931,60.015039769,ProdFawcett_Revision2019,001,sing18,
,,,,23,0,23,0,,,,,,,,,,,,number,D_new,23,203,5,2.9126138,f,1.1726503,2019_Nov_04_0931,60.015039769,ProdFawcett_Revision2019,001,sing18,
,,,,24,0,24,0,,,,,,,,,,,,style,C_sing,24,311,6,1.9947826,r,0.3338602,2019_Nov_04_0931,60.015039769,ProdFawcett_Revision2019,001,sing18,
,,,,25,0,25,0,,,,,,,,,,,,signal,D_new,25,287,6,2.4174943,r,0.2560334,2019_Nov_04_0931,60.015039769,ProdFawcett_Revision2019,001,sing18,
,,,,26,0,26,0,,,,,,,,,,,,meeting,D_new,26,187,4,3.7351183,f,0.9604017,2019_Nov_04_0931,60.015039769,ProdFawcett_Revision2019,001,sing18,
,,,,27,0,27,0,,,,,,,,,,,,build,D_new,27,35,4,3.0407348,f,0.8083308,2019_Nov_04_0931,60.015039769,ProdFawcett_Revision2019,001,sing18,
,,,,28,0,28,0,,,,,,,,,,,,entrance,D_new,28,115,4,3.9869535,f,0.5276765,2019_Nov_04_0931,60.015039769,ProdFawcett_Revision2019,001,sing18,
,,,,29,0,29,0,,,,,,,,,,,,military,B_aloud,29,190,6,1.6995049,r,0.9743361,2019_Nov_04_0931,60.015039769,ProdFawcett_Revision2019,001,sing18,
,,,,30,0,30,0,,,,,,,,,,,,people,D_new,30,216,6,2.246557,r,0.3296283,2019_Nov_04_0931,60.015039769,ProdFawcett_Revision2019,001,sing18,
,,,,31,0,31,0,,,,,,,,,,,,nation,B_aloud,31,198,6,1.5927691,r,0.3723987,2019_Nov_04_0931,60.015039769,ProdFawcett_Revision2019,001,sing18,
,,,,32,0,32,0,,,,,,,,,,,,income,D_new,32,159,1,1.5335797,n,0.5284237,2019_Nov_04_0931,60.015039769,ProdFawcett_Revision2019,001,sing18,
,,,,33,0,33,0,,,,,,,,,,,,problem,D_new,33,238,3,3.0364613,f,0.6038878,2019_Nov_04_0931,60.015039769,ProdFawcett_Revision2019,001,sing18,
,,,,34,0,34,0,,,,,,,,,,,,review,D_new,34,263,6,2.2528557,f,1.4434987,2019_Nov_04_0931,60.015039769,ProdFawcett_Revision2019,001,sing18,
,,,,35,0,35,0,,,,,,,,,,,,welcome,C_sing,35,354,6,1.9578948,r,1.0594258,2019_Nov_04_0931,60.015039769,ProdFawcett_Revision2019,001,sing18,
,,,,36,0,36,0,,,,,,,,,,,,partner,B_aloud,36,211,6,2.0570359,r,0.5958071,2019_Nov_04_0931,60.015039769,ProdFawcett_Revision2019,001,sing18,
,,,,37,0,37,0,,,,,,,,,,,,sound,D_new,37,295,5,2.8986757,f,0.6767924,2019_Nov_04_0931,60.015039769,ProdFawcett_Revision2019,001,sing18,
,,,,38,0,38,0,,,,,,,,,,,,dance,D_new,38,84,6,2.3358778,r,1.5916584,2019_Nov_04_0931,60.015039769,ProdFawcett_Revision2019,001,sing18,
,,,,39,0,39,0,,,,,,,,,,,,business,A_silent,39,38,6,1.6455825,r,0.5740737,2019_Nov_04_0931,60.015039769,ProdFawcett_Revision2019,001,sing18,
,,,,40,0,40,0,,,,,,,,,,,,frank,C_sing,40,133,6,1.6245259,r,0.8465452,2019_Nov_04_0931,60.015039769,ProdFawcett_Revision2019,001,sing18,
,,,,41,0,41,0,,,,,,,,,,,,distance,B_aloud,41,100,6,1.9080768,r,0.8305098,2019_Nov_04_0931,60.015039769,ProdFawcett_Revision2019,001,sing18,
,,,,42,0,42,0,,,,,,,,,,,,mayor,C_sing,42,183,6,1.9175464,r,0.911628,2019_Nov_04_0931,60.015039769,ProdFawcett_Revision2019,001,sing18,
,,,,43,0,43,0,,,,,,,,,,,,close,B_aloud,43,53,6,1.6259449,r,0.5894619,2019_Nov_04_0931,60.015039769,ProdFawcett_Revision2019,001,sing18,
,,,,44,0,44,0,,,,,,,,,,,,vision,C_sing,44,347,6,1.8294018,r,0.8953374,2019_Nov_04_0931,60.015039769,ProdFawcett_Revision2019,001,sing18,
,,,,45,0,45,0,,,,,,,,,,,,production,C_sing,45,240,5,1.9863322,f,0.9741791,2019_Nov_04_0931,60.015039769,ProdFawcett_Revision2019,001,sing18,
,,,,46,0,46,0,,,,,,,,,,,,fashion,D_new,46,125,1,1.7152372,n,1.5244399,2019_Nov_04_0931,60.015039769,ProdFawcett_Revision2019,001,sing18,
,,,,47,0,47,0,,,,,,,,,,,,appearance,D_new,47,10,4,2.9458797,f,0.3358503,2019_Nov_04_0931,60.015039769,ProdFawcett_Revision2019,001,sing18,
,,,,48,0,48,0,,,,,,,,,,,,point,C_sing,48,226,5,2.3986766,f,0.5927653,2019_Nov_04_0931,60.015039769,ProdFawcett_Revision2019,001,sing18,
,,,,49,0,49,0,,,,,,,,,,,,rural,D_new,49,269,1,1.3884089,n,0.8434138,2019_Nov_04_0931,60.015039769,ProdFawcett_Revision2019,001,sing18,
,,,,50,0,50,0,,,,,,,,,,,,committee,B_aloud,50,62,4,3.741721,f,0.3847648,2019_Nov_04_0931,60.015039769,ProdFawcett_Revision2019,001,sing18,
,,,,51,0,51,0,,,,,,,,,,,,literature,D_new,51,173,4,3.7680084,f,0.3539914,2019_Nov_04_0931,60.015039769,ProdFawcett_Revision2019,001,sing18,
,,,,52,0,52,0,,,,,,,,,,,,taste,C_sing,52,322,6,2.3052076,r,0.4285416,2019_Nov_04_0931,60.015039769,ProdFawcett_Revision2019,001,sing18,
,,,,53,0,53,0,,,,,,,,,,,,religion,C_sing,53,258,6,1.716447,r,0.5017559,2019_Nov_04_0931,60.015039769,ProdFawcett_Revision2019,001,sing18,
,,,,54,0,54,0,,,,,,,,,,,,command,A_silent,54,60,6,1.6389038,r,0.5408021,2019_Nov_04_0931,60.015039769,ProdFawcett_Revision2019,001,sing18,
,,,,55,0,55,0,,,,,,,,,,,,drama,C_sing,55,103,5,3.0921356,f,0.862796,2019_Nov_04_0931,60.015039769,ProdFawcett_Revision2019,001,sing18,
,,,,56,0,56,0,,,,,,,,,,,,private,D_new,56,237,3,2.2393066,f,0.4553262,2019_Nov_04_0931,60.015039769,ProdFawcett_Revision2019,001,sing18,
,,,,57,0,57,0,,,,,,,,,,,,grade,D_new,57,140,1,1.5665084,n,1.6784844,2019_Nov_04_0931,60.015039769,ProdFawcett_Revision2019,001,sing18,
,,,,58,0,58,0,,,,,,,,,,,,pretty,D_new,58,233,1,1.3197233,n,0.905699,2019_Nov_04_0931,60.015039769,ProdFawcett_Revision2019,001,sing18,
,,,,59,0,59,0,,,,,,,,,,,,society,D_new,59,293,3,3.6498423,f,0.7709739,2019_Nov_04_0931,60.015039769,ProdFawcett_Revision2019,001,sing18,
,,,,60,0,60,0,,,,,,,,,,,,republic,D_new,60,260,1,2.9738714,n,0.9220492,2019_Nov_04_0931,60.015039769,ProdFawcett_Revision2019,001,sing18,
,,,,61,0,61,0,,,,,,,,,,,,passage,B_aloud,61,212,5,2.5883129,f,0.47843,2019_Nov_04_0931,60.015039769,ProdFawcett_Revision2019,001,sing18,
,,,,62,0,62,0,,,,,,,,,,,,bitter,C_sing,62,23,6,2.1755089,r,0.539396,2019_Nov_04_0931,60.015039769,ProdFawcett_Revision2019,001,sing18,
,,,,63,0,63,0,,,,,,,,,,,,patient,A_silent,63,213,6,1.5988937,r,0.3811389,2019_Nov_04_0931,60.015039769,ProdFawcett_Revision2019,001,sing18,
,,,,64,0,64,0,,,,,,,,,,,,match,D_new,64,181,3,5.5301465,f,0.3467737,2019_Nov_04_0931,60.015039769,ProdFawcett_Revision2019,001,sing18,
,,,,65,0,65,0,,,,,,,,,,,,scale,C_sing,65,272,6,2.2646323,r,1.1306546,2019_Nov_04_0931,60.015039769,ProdFawcett_Revision2019,001,sing18,
,,,,66,0,66,0,,,,,,,,,,,,benefit,D_new,66,20,3,4.7388496,f,0.3146067,2019_Nov_04_0931,60.015039769,ProdFawcett_Revision2019,001,sing18,
,,,,67,0,67,0,,,,,,,,,,,,captain,D_new,67,41,1,2.1704561,n,0.3982524,2019_Nov_04_0931,60.015039769,ProdFawcett_Revision2019,001,sing18,
,,,,68,0,68,0,,,,,,,,,,,,concern,B_aloud,68,65,3,3.0753364,f,5.5924288,2019_Nov_04_0931,60.015039769,ProdFawcett_Revision2019,001,sing18,
,,,,69,0,69,0,,,,,,,,,,,,division,D_new,69,101,1,2.1734264,n,0.4240801,2019_Nov_04_0931,60.015039769,ProdFawcett_Revision2019,001,sing18,
,,,,70,0,70,0,,,,,,,,,,,,election,D_new,70,109,6,2.3118981,r,1.4056204,2019_Nov_04_0931,60.015039769,ProdFawcett_Revision2019,001,sing18,
,,,,71,0,71,0,,,,,,,,,,,,strength,D_new,71,310,6,1.6348316,r,0.9241394,2019_Nov_04_0931,60.015039769,ProdFawcett_Revision2019,001,sing18,
,,,,72,0,72,0,,,,,,,,,,,,force,D_new,72,131,3,2.2790543,f,0.3667428,2019_Nov_04_0931,60.015039769,ProdFawcett_Revision2019,001,sing18,
,,,,73,0,73,0,,,,,,,,,,,,primary,D_new,73,234,2,2.9595046,f,0.3357902,2019_Nov_04_0931,60.015039769,ProdFawcett_Revision2019,001,sing18,
,,,,74,0,74,0,,,,,,,,,,,,sleep,B_aloud,74,290,1,4.6346311,n,1.4948045,2019_Nov_04_0931,60.015039769,ProdFawcett_Revision2019,001,sing18,
,,,,75,0,75,0,,,,,,,,,,,,conference,D_new,75,66,1,2.2860807,n,0.2212169,2019_Nov_04_0931,60.015039769,ProdFawcett_Revision2019,001,sing18,
,,,,76,0,76,0,,,,,,,,,,,,write,B_aloud,76,358,2,3.6246117,f,0.1716919,2019_Nov_04_0931,60.015039769,ProdFawcett_Revision2019,001,sing18,
,,,,77,0,77,0,,,,,,,,,,,,bright,A_silent,77,29,1,1.5169448,n,1.066635,2019_Nov_04_0931,60.015039769,ProdFawcett_Revision2019,001,sing18,
,,,,78,0,78,0,,,,,,,,,,,,direction,B_aloud,78,94,3,2.8291014,f,0.2898228,2019_Nov_04_0931,60.015039769,ProdFawcett_Revision2019,001,sing18,
,,,,79,0,79,0,,,,,,,,,,,,colonel,D_new,79,55,2,3.7568609,f,0.6195912,2019_Nov_04_0931,60.015039769,ProdFawcett_Revision2019,001,sing18,
,,,,80,0,80,0,,,,,,,,,,,,mechanical,B_aloud,80,185,6,2.238253,r,0.3221782,2019_Nov_04_0931,60.015039769,ProdFawcett_Revision2019,001,sing18,
,,,,81,0,81,0,,,,,,,,,,,,country,D_new,81,73,5,2.6892692,f,0.0320904999999,2019_Nov_04_0931,60.015039769,ProdFawcett_Revision2019,001,sing18,
,,,,82,0,82,0,,,,,,,,,,,,victory,D_new,82,346,1,6.0578024,n,0.6766825,2019_Nov_04_0931,60.015039769,ProdFawcett_Revision2019,001,sing18,
,,,,83,0,83,0,,,,,,,,,,,,route,D_new,83,267,1,2.3071904,n,0.2771617,2019_Nov_04_0931,60.015039769,ProdFawcett_Revision2019,001,sing18,
,,,,84,0,84,0,,,,,,,,,,,,emergency,D_new,84,110,1,2.0116996,n,1.2074455,2019_Nov_04_0931,60.015039769,ProdFawcett_Revision2019,001,sing18,
,,,,85,0,85,0,,,,,,,,,,,,threat,B_aloud,85,329,1,1.9293902,n,0.3122794,2019_Nov_04_0931,60.015039769,ProdFawcett_Revision2019,001,sing18,
,,,,86,0,86,0,,,,,,,,,,,,gesture,C_sing,86,137,1,2.0285153,n,0.7888591,2019_Nov_04_0931,60.015039769,ProdFawcett_Revision2019,001,sing18,
,,,,87,0,87,0,,,,,,,,,,,,impact,A_silent,87,157,1,3.7044903,n,0.0871382999999,2019_Nov_04_0931,60.015039769,ProdFawcett_Revision2019,001,sing18,
,,,,88,0,88,0,,,,,,,,,,,,series,D_new,88,279,1,2.2245229,n,0.5205424,2019_Nov_04_0931,60.015039769,ProdFawcett_Revision2019,001,sing18,
,,,,89,0,89,0,,,,,,,,,,,,state,D_new,89,303,3,2.4435291,f,0.461392,2019_Nov_04_0931,60.015039769,ProdFawcett_Revision2019,001,sing18,
,,,,90,0,90,0,,,,,,,,,,,,master,A_silent,90,180,2,4.0339343,f,0.410209,2019_Nov_04_0931,60.015039769,ProdFawcett_Revision2019,001,sing18,
,,,,91,0,91,0,,,,,,,,,,,,capital,D_new,91,40,1,3.1237346,n,0.2829645,2019_Nov_04_0931,60.015039769,ProdFawcett_Revision2019,001,sing18,
,,,,92,0,92,0,,,,,,,,,,,,addition,A_silent,92,2,1,2.1209355,n,0.2995295,2019_Nov_04_0931,60.015039769,ProdFawcett_Revision2019,001,sing18,
,,,,93,0,93,0,,,,,,,,,,,,message,C_sing,93,189,2,6.5585075,f,0.3025673,2019_Nov_04_0931,60.015039769,ProdFawcett_Revision2019,001,sing18,
,,,,94,0,94,0,,,,,,,,,,,,bicycle,C_sing,94,21,6,1.7316731,r,0.7891272,2019_Nov_04_0931,60.015039769,ProdFawcett_Revision2019,001,sing18,
,,,,95,0,95,0,,,,,,,,,,,,running,C_sing,95,268,1,1.3356414,n,0.7732472,2019_Nov_04_0931,60.015039769,ProdFawcett_Revision2019,001,sing18,
,,,,96,0,96,0,,,,,,,,,,,,rough,D_new,96,266,1,1.858596,n,0.3820416,2019_Nov_04_0931,60.015039769,ProdFawcett_Revision2019,001,sing18,
,,,,97,0,97,0,,,,,,,,,,,,height,A_silent,97,152,2,2.8914611,f,0.5706203,2019_Nov_04_0931,60.015039769,ProdFawcett_Revision2019,001,sing18,
,,,,98,0,98,0,,,,,,,,,,,,volume,A_silent,98,349,6,2.3907367,r,0.5886609,2019_Nov_04_0931,60.015039769,ProdFawcett_Revision2019,001,sing18,
,,,,99,0,99,0,,,,,,,,,,,,evidence,D_new,99,120,1,1.6800282,n,0.4678567,2019_Nov_04_0931,60.015039769,ProdFawcett_Revision2019,001,sing18,
,,,,100,0,100,0,,,,,,,,,,,,author,A_silent,100,15,1,1.4901692,n,0.4384827,2019_Nov_04_0931,60.015039769,ProdFawcett_Revision2019,001,sing18,
,,,,101,0,101,0,,,,,,,,,,,,story,A_silent,101,306,3,2.6211943,f,0.5628225,2019_Nov_04_0931,60.015039769,ProdFawcett_Revision2019,001,sing18,
,,,,102,0,102,0,,,,,,,,,,,,report,C_sing,102,259,3,2.3770107,f,0.5947603,2019_Nov_04_0931,60.015039769,ProdFawcett_Revision2019,001,sing18,
,,,,103,0,103,0,,,,,,,,,,,,broke,D_new,103,32,1,1.8572147,n,1.0925305,2019_Nov_04_0931,60.015039769,ProdFawcett_Revision2019,001,sing18,
,,,,104,0,104,0,,,,,,,,,,,,color,B_aloud,104,56,6,2.6814367,r,0.3802403,2019_Nov_04_0931,60.015039769,ProdFawcett_Revision2019,001,sing18,
,,,,105,0,105,0,,,,,,,,,,,,position,A_silent,105,229,4,4.6845427,f,0.4410364,2019_Nov_04_0931,60.015039769,ProdFawcett_Revision2019,001,sing18,
,,,,106,0,106,0,,,,,,,,,,,,birth,B_aloud,106,22,3,3.8363994,f,0.361886,2019_Nov_04_0931,60.015039769,ProdFawcett_Revision2019,001,sing18,
,,,,107,0,107,0,,,,,,,,,,,,stand,D_new,107,302,1,2.2999087,n,1.0952096,2019_Nov_04_0931,60.015039769,ProdFawcett_Revision2019,001,sing18,
,,,,108,0,108,0,,,,,,,,,,,,shear,D_new,108,283,1,1.5878959,n,0.5282367,2019_Nov_04_0931,60.015039769,ProdFawcett_Revision2019,001,sing18,
,,,,109,0,109,0,,,,,,,,,,,,staff,D_new,109,301,1,1.8767826,n,0.5746908,2019_Nov_04_0931,60.015039769,ProdFawcett_Revision2019,001,sing18,
,,,,110,0,110,0,,,,,,,,,,,,answer,D_new,110,8,2,3.6320227,f,0.4586627,2019_Nov_04_0931,60.015039769,ProdFawcett_Revision2019,001,sing18,
,,,,111,0,111,0,,,,,,,,,,,,space,D_new,111,297,2,2.0562504,f,0.3944419,2019_Nov_04_0931,60.015039769,ProdFawcett_Revision2019,001,sing18,
,,,,112,0,112,0,,,,,,,,,,,,drink,C_sing,112,105,5,1.8729523,f,0.5115838,2019_Nov_04_0931,60.015039769,ProdFawcett_Revision2019,001,sing18,
,,,,113,0,113,0,,,,,,,,,,,,treatment,B_aloud,113,339,6,2.3568699,r,0.5054203,2019_Nov_04_0931,60.015039769,ProdFawcett_Revision2019,001,sing18,
,,,,114,0,114,0,,,,,,,,,,,,finance,D_new,114,129,2,3.3036098,f,0.7436786,2019_Nov_04_0931,60.015039769,ProdFawcett_Revision2019,001,sing18,
,,,,115,0,115,0,,,,,,,,,,,,burden,A_silent,115,36,1,2.1399118,n,0.9768149,2019_Nov_04_0931,60.015039769,ProdFawcett_Revision2019,001,sing18,
,,,,116,0,116,0,,,,,,,,,,,,carry,B_aloud,116,43,1,1.72763,n,0.6385314,2019_Nov_04_0931,60.015039769,ProdFawcett_Revision2019,001,sing18,
,,,,117,0,117,0,,,,,,,,,,,,population,D_new,117,227,6,2.8857306,r,0.2197911,2019_Nov_04_0931,60.015039769,ProdFawcett_Revision2019,001,sing18,
,,,,118,0,118,0,,,,,,,,,,,,drove,A_silent,118,106,1,4.2262127,n,0.4592129,2019_Nov_04_0931,60.015039769,ProdFawcett_Revision2019,001,sing18,
,,,,119,0,119,0,,,,,,,,,,,,oxygen,D_new,119,209,1,1.4241031,n,0.9797781,2019_Nov_04_0931,60.015039769,ProdFawcett_Revision2019,001,sing18,
,,,,120,0,120,0,,,,,,,,,,,,growth,B_aloud,120,144,6,2.1150579,r,0.3015505,2019_Nov_04_0931,60.015039769,ProdFawcett_Revision2019,001,sing18,
,,,,121,0,121,0,,,,,,,,,,,,present,D_new,121,231,4,2.7921654,f,0.6919984,2019_Nov_04_0931,60.015039769,ProdFawcett_Revision2019,001,sing18,
,,,,122,0,122,0,,,,,,,,,,,,hunger,D_new,122,155,1,2.3284813,n,0.3772132,2019_Nov_04_0931,60.015039769,ProdFawcett_Revision2019,001,sing18,
,,,,123,0,123,0,,,,,,,,,,,,medicine,C_sing,123,186,6,1.7790215,r,0.4103787,2019_Nov_04_0931,60.015039769,ProdFawcett_Revision2019,001,sing18,
,,,,124,0,124,0,,,,,,,,,,,,congress,D_new,124,67,6,3.6212467,r,0.0885404000001,2019_Nov_04_0931,60.015039769,ProdFawcett_Revision2019,001,sing18,
,,,,125,0,125,0,,,,,,,,,,,,salary,D_new,125,271,1,1.594316,n,0.4092275,2019_Nov_04_0931,60.015039769,ProdFawcett_Revision2019,001,sing18,
,,,,126,0,126,0,,,,,,,,,,,,estate,D_new,126,119,2,4.2255785,f,0.8458342,2019_Nov_04_0931,60.015039769,ProdFawcett_Revision2019,001,sing18,
,,,,127,0,127,0,,,,,,,,,,,,safety,A_silent,127,270,6,2.5891299,r,0.283399,2019_Nov_04_0931,60.015039769,ProdFawcett_Revision2019,001,sing18,
,,,,128,0,128,0,,,,,,,,,,,,executive,C_sing,128,122,6,1.8078177,r,1.0032693,2019_Nov_04_0931,60.015039769,ProdFawcett_Revision2019,001,sing18,
,,,,129,0,129,0,,,,,,,,,,,,leader,D_new,129,168,1,2.0084013,n,0.6502066,2019_Nov_04_0931,60.015039769,ProdFawcett_Revision2019,001,sing18,
,,,,130,0,130,0,,,,,,,,,,,,principal,C_sing,130,236,4,2.6584508,f,0.3834212,2019_Nov_04_0931,60.015039769,ProdFawcett_Revision2019,001,sing18,
,,,,131,0,131,0,,,,,,,,,,,,community,B_aloud,131,63,4,2.7505179,f,0.4499289,2019_Nov_04_0931,60.015039769,ProdFawcett_Revision2019,001,sing18,
,,,,132,0,132,0,,,,,,,,,,,,column,D_new,132,57,1,2.3406884,n,0.4621786,2019_Nov_04_0931,60.015039769,ProdFawcett_Revision2019,001,sing18,
,,,,133,0,133,0,,,,,,,,,,,,worker,B_aloud,133,356,1,3.3362023,n,0.7933429,2019_Nov_04_0931,60.015039769,ProdFawcett_Revision2019,001,sing18,
,,,,134,0,134,0,,,,,,,,,,,,public,A_silent,134,244,4,3.4003844,f,0.3101288,2019_Nov_04_0931,60.015039769,ProdFawcett_Revision2019,001,sing18,
,,,,135,0,135,0,,,,,,,,,,,,citizen,D_new,135,50,1,1.7678411,n,0.2721057,2019_Nov_04_0931,60.015039769,ProdFawcett_Revision2019,001,sing18,
,,,,136,0,136,0,,,,,,,,,,,,opening,A_silent,136,205,3,2.3886081,f,0.4520602,2019_Nov_04_0931,60.015039769,ProdFawcett_Revision2019,001,sing18,
,,,,137,0,137,0,,,,,,,,,,,,surface,C_sing,137,316,6,2.9023482,r,0.2062922,2019_Nov_04_0931,60.015039769,ProdFawcett_Revision2019,001,sing18,
,,,,138,0,138,0,,,,,,,,,,,,shock,C_sing,138,284,6,1.4308467,r,0.4751502,2019_Nov_04_0931,60.015039769,ProdFawcett_Revision2019,001,sing18,
,,,,139,0,139,0,,,,,,,,,,,,solution,C_sing,139,294,6,2.1947841,r,0.3059698,2019_Nov_04_0931,60.015039769,ProdFawcett_Revision2019,001,sing18,
,,,,140,0,140,0,,,,,,,,,,,,permit,A_silent,140,218,1,1.4711217,n,0.6256433,2019_Nov_04_0931,60.015039769,ProdFawcett_Revision2019,001,sing18,
,,,,141,0,141,0,,,,,,,,,,,,front,D_new,141,134,1,1.3533288,n,0.295329,2019_Nov_04_0931,60.015039769,ProdFawcett_Revision2019,001,sing18,
,,,,142,0,142,0,,,,,,,,,,,,music,A_silent,142,196,6,2.1592457,r,0.1757084,2019_Nov_04_0931,60.015039769,ProdFawcett_Revision2019,001,sing18,
,,,,143,0,143,0,,,,,,,,,,,,court,D_new,143,75,1,1.4930272,n,0.3776018,2019_Nov_04_0931,60.015039769,ProdFawcett_Revision2019,001,sing18,
,,,,144,0,144,0,,,,,,,,,,,,course,C_sing,144,74,1,3.9313148,n,0.199433,2019_Nov_04_0931,60.015039769,ProdFawcett_Revision2019,001,sing18,
,,,,145,0,145,0,,,,,,,,,,,,budget,D_new,145,34,1,3.0453648,n,0.3217427,2019_Nov_04_0931,60.015039769,ProdFawcett_Revision2019,001,sing18,
,,,,146,0,146,0,,,,,,,,,,,,background,B_aloud,146,16,4,3.0835763,f,0.515065,2019_Nov_04_0931,60.015039769,ProdFawcett_Revision2019,001,sing18,
,,,,147,0,147,0,,,,,,,,,,,,danger,A_silent,147,85,3,2.9325194,f,0.9167819,2019_Nov_04_0931,60.015039769,ProdFawcett_Revision2019,001,sing18,
,,,,148,0,148,0,,,,,,,,,,,,pattern,D_new,148,214,4,3.3990363,f,0.4128932,2019_Nov_04_0931,60.015039769,ProdFawcett_Revision2019,001,sing18,
,,,,149,0,149,0,,,,,,,,,,,,weather,D_new,149,352,1,1.6058755,n,1.354235,2019_Nov_04_0931,60.015039769,ProdFawcett_Revision2019,001,sing18,
,,,,150,0,150,0,,,,,,,,,,,,expansion,D_new,150,123,1,1.7246838,n,0.5417938,2019_Nov_04_0931,60.015039769,ProdFawcett_Revision2019,001,sing18,
,,,,151,0,151,0,,,,,,,,,,,,season,D_new,151,277,1,2.3221664,n,0.3606708,2019_Nov_04_0931,60.015039769,ProdFawcett_Revision2019,001,sing18,
,,,,152,0,152,0,,,,,,,,,,,,exchange,B_aloud,152,121,1,4.2294872,n,0.2877753,2019_Nov_04_0931,60.015039769,ProdFawcett_Revision2019,001,sing18,
,,,,153,0,153,0,,,,,,,,,,,,trend,D_new,153,340,1,1.6054393,n,0.4948874,2019_Nov_04_0931,60.015039769,ProdFawcett_Revision2019,001,sing18,
,,,,154,0,154,0,,,,,,,,,,,,alert,D_new,154,6,2,2.5385152,f,0.5472147,2019_Nov_04_0931,60.015039769,ProdFawcett_Revision2019,001,sing18,
,,,,155,0,155,0,,,,,,,,,,,,reading,B_aloud,155,254,2,3.3364404,f,0.7247954,2019_Nov_04_0931,60.015039769,ProdFawcett_Revision2019,001,sing18,
,,,,156,0,156,0,,,,,,,,,,,,error,A_silent,156,117,6,1.8463202,r,0.5621718,2019_Nov_04_0931,60.015039769,ProdFawcett_Revision2019,001,sing18,
,,,,157,0,157,0,,,,,,,,,,,,article,D_new,157,11,1,1.792437,n,0.536305,2019_Nov_04_0931,60.015039769,ProdFawcett_Revision2019,001,sing18,
,,,,158,0,158,0,,,,,,,,,,,,object,D_new,158,204,1,5.1191699,n,1.1087659,2019_Nov_04_0931,60.015039769,ProdFawcett_Revision2019,001,sing18,
,,,,159,0,159,0,,,,,,,,,,,,company,A_silent,159,64,6,1.526175,r,0.3618714,2019_Nov_04_0931,60.015039769,ProdFawcett_Revision2019,001,sing18,
,,,,160,0,160,0,,,,,,,,,,,,atmosphere,C_sing,160,12,2,3.2355628,f,0.738935,2019_Nov_04_0931,60.015039769,ProdFawcett_Revision2019,001,sing18,
,,,,161,0,161,0,,,,,,,,,,,,management,D_new,161,177,3,3.0823659,f,0.8369095,2019_Nov_04_0931,60.015039769,ProdFawcett_Revision2019,001,sing18,
,,,,162,0,162,0,,,,,,,,,,,,audience,B_aloud,162,14,5,2.8089916,f,0.3857503,2019_Nov_04_0931,60.015039769,ProdFawcett_Revision2019,001,sing18,
,,,,163,0,163,0,,,,,,,,,,,,agency,B_aloud,163,4,6,1.9350836,r,0.5704687,2019_Nov_04_0931,60.015039769,ProdFawcett_Revision2019,001,sing18,
,,,,164,0,164,0,,,,,,,,,,,,display,A_silent,164,98,5,2.1123733,f,0.4826388,2019_Nov_04_0931,60.015039769,ProdFawcett_Revision2019,001,sing18,
,,,,165,0,165,0,,,,,,,,,,,,harmony,D_new,165,148,1,1.6159398,n,2.013813,2019_Nov_04_0931,60.015039769,ProdFawcett_Revision2019,001,sing18,
,,,,166,0,166,0,,,,,,,,,,,,place,D_new,166,222,1,2.6614998,n,0.5121476,2019_Nov_04_0931,60.015039769,ProdFawcett_Revision2019,001,sing18,
,,,,167,0,167,0,,,,,,,,,,,,listen,D_new,167,172,2,3.0086617,f,0.4611255,2019_Nov_04_0931,60.015039769,ProdFawcett_Revision2019,001,sing18,
,,,,168,0,168,0,,,,,,,,,,,,minute,C_sing,168,192,2,2.4402566,f,0.4086181,2019_Nov_04_0931,60.015039769,ProdFawcett_Revision2019,001,sing18,
,,,,169,0,169,0,,,,,,,,,,,,couch,D_new,169,70,1,2.3724934,n,0.480981,2019_Nov_04_0931,60.015039769,ProdFawcett_Revision2019,001,sing18,
,,,,170,0,170,0,,,,,,,,,,,,account,D_new,170,1,2,3.5282057,f,1.0930335,2019_Nov_04_0931,60.015039769,ProdFawcett_Revision2019,001,sing18,
,,,,171,0,171,0,,,,,,,,,,,,scene,D_new,171,273,3,2.5767361,f,0.7382088,2019_Nov_04_0931,60.015039769,ProdFawcett_Revision2019,001,sing18,
,,,,172,0,172,0,,,,,,,,,,,,guard,B_aloud,172,145,4,2.48236,f,0.6437632,2019_Nov_04_0931,60.015039769,ProdFawcett_Revision2019,001,sing18,
,,,,173,0,173,0,,,,,,,,,,,,trial,B_aloud,173,341,2,3.3431636,f,1.0953637,2019_Nov_04_0931,60.015039769,ProdFawcett_Revision2019,001,sing18,
,,,,174,0,174,0,,,,,,,,,,,,balance,A_silent,174,17,5,3.3738364,f,0.2388903,2019_Nov_04_0931,60.015039769,ProdFawcett_Revision2019,001,sing18,
,,,,175,0,175,0,,,,,,,,,,,,quiet,D_new,175,249,3,2.7112053,f,0.3766403,2019_Nov_04_0931,60.015039769,ProdFawcett_Revision2019,001,sing18,
,,,,176,0,176,0,,,,,,,,,,,,cousin,B_aloud,176,76,1,1.9931763,n,0.7782808,2019_Nov_04_0931,60.015039769,ProdFawcett_Revision2019,001,sing18,
,,,,177,0,177,0,,,,,,,,,,,,heavy,C_sing,177,151,6,2.4083188,r,0.1844113,2019_Nov_04_0931,60.015039769,ProdFawcett_Revision2019,001,sing18,
,,,,178,0,178,0,,,,,,,,,,,,trail,C_sing,178,336,6,3.902152,r,0.1618396,2019_Nov_04_0931,60.015039769,ProdFawcett_Revision2019,001,sing18,
,,,,179,0,179,0,,,,,,,,,,,,strain,A_silent,179,308,1,1.6083148,n,0.6813048,2019_Nov_04_0931,60.015039769,ProdFawcett_Revision2019,001,sing18,
