StudyTrials.thisRepN,StudyTrials.thisTrialN,StudyTrials.thisN,StudyTrials.thisIndex,TestTrials.thisRepN,TestTrials.thisTrialN,TestTrials.thisN,TestTrials.thisIndex,textWelcome.started,textWelcome.stopped,keyWelcome.keys,keyWelcome.rt,keyWelcome.started,keyWelcome.stopped,textReady.started,textReady.stopped,keyReady.keys,keyReady.rt,keyReady.started,keyReady.stopped,polyback_2.started,polyback_2.stopped,studyPic,studyWord,studyType,studyN,studyOrder,polyback_3.started,polyback_3.stopped,studyPicChoice.started,studyPicChoice.stopped,polyback_4.started,polyback_4.stopped,polyback.started,polyback.stopped,studyWords.started,studyWords.stopped,getResearcher.started,getResearcher.stopped,kPress2.keys,kPress2.rt,kPress2.started,kPress2.stopped,testWord,testType,testN,testOrder,polyback_5.started,polyback_5.stopped,testWords.started,testWords.stopped,textScale.started,textScale.stopped,keyConf.keys,keyConf.rt,keyConf.started,keyConf.stopped,polyback_6.started,polyback_6.stopped,studyWords_2.started,studyWords_2.stopped,polyback_7.started,polyback_7.stopped,testWords_2.started,testWords_2.stopped,textScale_2.started,textScale_2.stopped,keyRKN.keys,keyRKN.rt,keyRKN.started,keyRKN.stopped,participant,session,date,expName,psychopyVersion,frameRate,
,,,,,,,,12.776268656252796,None,space,270.90272313639616,12.776268656252796,None,,,,,,,,,,,,,,,,,,,,,,,,,,,,,,,,,,,,,,,,,,,,,,,,,,,,,,,,,,sing43,001,2019_Nov_18_1549,ProdFawcett_Revision2019,3.2.4,59.82915047848188,
,,,,,,,,,,,,,,283.70858210928054,None,space,17.849107889817788,283.70858210928054,None,,,,,,,,,,,,,,,,,,,,,,,,,,,,,,,,,,,,,,,,,,,,,,,,,,,,sing43,001,2019_Nov_18_1549,ProdFawcett_Revision2019,3.2.4,59.82915047848188,
0,0,0,0,,,,,,,,,,,,,,,,,306.3655963003166,None,materials/speakPic.jpg,graduate,B_aloud,0,141,302.71422369153606,None,302.71422369153606,None,303.6149026096209,None,303.8813911756206,None,303.8813911756206,None,,,,,,,,,,,,,,,,,,,,,,,,,,,,,,,,,,,sing43,001,2019_Nov_18_1549,ProdFawcett_Revision2019,3.2.4,59.82915047848188,
1,0,1,0,,,,,,,,,,,,,,,,,310.6335322711575,None,materials/readPic.jpg,sweet,A_silent,1,319,306.98397809299604,None,306.98397809299604,None,307.882594443633,None,308.1341611178668,None,308.1341611178668,None,,,,,,,,,,,,,,,,,,,,,,,,,,,,,,,,,,,sing43,001,2019_Nov_18_1549,ProdFawcett_Revision2019,3.2.4,59.82915047848188,
2,0,2,0,,,,,,,,,,,,,,,,,314.9015680737457,None,materials/readPic.jpg,curve,A_silent,2,82,311.18332747612294,None,311.18332747612294,None,312.15083768477507,None,312.4173449109139,None,312.4173449109139,None,,,,,,,,,,,,,,,,,,,,,,,,,,,,,,,,,,,sing43,001,2019_Nov_18_1549,ProdFawcett_Revision2019,3.2.4,59.82915047848188,
3,0,3,0,,,,,,,,,,,,,,,,,319.1528318317105,None,materials/singPic.jpg,travel,C_sing,3,338,315.4943049253443,None,315.4943049253443,None,316.40197610880114,None,316.6686344820728,None,316.6686344820728,None,,,,,,,,,,,,,,,,,,,,,,,,,,,,,,,,,,,sing43,001,2019_Nov_18_1549,ProdFawcett_Revision2019,3.2.4,59.82915047848188,
4,0,4,0,,,,,,,,,,,,,,,,,323.4207998357915,None,materials/singPic.jpg,bicycle,C_sing,4,21,319.70263823276036,None,319.70263823276036,None,320.66987196034097,None,320.92016725705344,None,320.92016725705344,None,,,,,,,,,,,,,,,,,,,,,,,,,,,,,,,,,,,sing43,001,2019_Nov_18_1549,ProdFawcett_Revision2019,3.2.4,59.82915047848188,
5,0,5,0,,,,,,,,,,,,,,,,,327.6887930310604,None,materials/readPic.jpg,sleep,A_silent,5,290,324.05596984521435,None,324.05596984521435,None,324.9396559070228,None,325.2045875953618,None,325.2045875953618,None,,,,,,,,,,,,,,,,,,,,,,,,,,,,,,,,,,,sing43,001,2019_Nov_18_1549,ProdFawcett_Revision2019,3.2.4,59.82915047848188,
6,0,6,0,,,,,,,,,,,,,,,,,331.9565616826476,None,materials/singPic.jpg,listen,C_sing,6,172,328.29239008400236,None,328.29239008400236,None,329.205809834516,None,329.4725605754793,None,329.4725605754793,None,,,,,,,,,,,,,,,,,,,,,,,,,,,,,,,,,,,sing43,001,2019_Nov_18_1549,ProdFawcett_Revision2019,3.2.4,59.82915047848188,
7,0,7,0,,,,,,,,,,,,,,,,,336.2247365032772,None,materials/readPic.jpg,cousin,A_silent,7,76,332.53152786114424,None,332.53152786114424,None,333.47404343458584,None,333.7237388078038,None,333.7237388078038,None,,,,,,,,,,,,,,,,,,,,,,,,,,,,,,,,,,,sing43,001,2019_Nov_18_1549,ProdFawcett_Revision2019,3.2.4,59.82915047848188,
8,0,8,0,,,,,,,,,,,,,,,,,340.49259658954907,None,materials/speakPic.jpg,running,B_aloud,8,268,336.82609091842096,None,336.82609091842096,None,337.7418008900895,None,338.0085376359475,None,338.0085376359475,None,,,,,,,,,,,,,,,,,,,,,,,,,,,,,,,,,,,sing43,001,2019_Nov_18_1549,ProdFawcett_Revision2019,3.2.4,59.82915047848188,
9,0,9,0,,,,,,,,,,,,,,,,,344.76069987964274,None,materials/speakPic.jpg,point,B_aloud,9,226,341.0592002264102,None,341.0592002264102,None,342.0097810232601,None,342.2765777925679,None,342.2765777925679,None,,,,,,,,,,,,,,,,,,,,,,,,,,,,,,,,,,,sing43,001,2019_Nov_18_1549,ProdFawcett_Revision2019,3.2.4,59.82915047848188,
10,0,10,0,,,,,,,,,,,,,,,,,349.0286604196672,None,materials/singPic.jpg,level,C_sing,10,170,345.4116828025044,None,345.4116828025044,None,346.2777745295316,None,346.54435577422555,None,346.54435577422555,None,,,,,,,,,,,,,,,,,,,,,,,,,,,,,,,,,,,sing43,001,2019_Nov_18_1549,ProdFawcett_Revision2019,3.2.4,59.82915047848188,
11,0,11,0,,,,,,,,,,,,,,,,,353.29663433279165,None,materials/readPic.jpg,angle,A_silent,11,7,349.5967699298071,None,349.5967699298071,None,350.5457378685769,None,350.80117869882906,None,350.80117869882906,None,,,,,,,,,,,,,,,,,,,,,,,,,,,,,,,,,,,sing43,001,2019_Nov_18_1549,ProdFawcett_Revision2019,3.2.4,59.82915047848188,
12,0,12,0,,,,,,,,,,,,,,,,,357.5646079349135,None,materials/singPic.jpg,heavy,C_sing,12,151,353.8994915111916,None,353.8994915111916,None,354.81391766524393,None,355.0636052634036,None,355.0636052634036,None,,,,,,,,,,,,,,,,,,,,,,,,,,,,,,,,,,,sing43,001,2019_Nov_18_1549,ProdFawcett_Revision2019,3.2.4,59.82915047848188,
13,0,13,0,,,,,,,,,,,,,,,,,361.83232558211876,None,materials/singPic.jpg,platform,C_sing,13,224,358.1477618717372,None,358.1477618717372,None,359.0817317231713,None,359.3483916514542,None,359.3483916514542,None,,,,,,,,,,,,,,,,,,,,,,,,,,,,,,,,,,,sing43,001,2019_Nov_18_1549,ProdFawcett_Revision2019,3.2.4,59.82915047848188,
14,0,14,0,,,,,,,,,,,,,,,,,366.10055669417034,None,materials/speakPic.jpg,throw,B_aloud,14,330,362.433934086167,None,362.433934086167,None,363.34970408128356,None,363.60052372792325,None,363.60052372792325,None,,,,,,,,,,,,,,,,,,,,,,,,,,,,,,,,,,,sing43,001,2019_Nov_18_1549,ProdFawcett_Revision2019,3.2.4,59.82915047848188,
15,0,15,0,,,,,,,,,,,,,,,,,370.36853620533657,None,materials/readPic.jpg,smooth,A_silent,15,292,366.7016256091765,None,366.7016256091765,None,367.61770971664646,None,367.88432486059355,None,367.88432486059355,None,,,,,,,,,,,,,,,,,,,,,,,,,,,,,,,,,,,sing43,001,2019_Nov_18_1549,ProdFawcett_Revision2019,3.2.4,59.82915047848188,
16,0,16,0,,,,,,,,,,,,,,,,,374.6365266015846,None,materials/singPic.jpg,route,C_sing,16,267,370.94381680718834,None,370.94381680718834,None,371.8855175545268,None,372.15231028080416,None,372.15231028080416,None,,,,,,,,,,,,,,,,,,,,,,,,,,,,,,,,,,,sing43,001,2019_Nov_18_1549,ProdFawcett_Revision2019,3.2.4,59.82915047848188,
17,0,17,0,,,,,,,,,,,,,,,,,378.9044768785325,None,materials/singPic.jpg,youth,C_sing,17,359,375.21967400735866,None,375.21967400735866,None,376.154216414081,None,376.4202705098269,None,376.4202705098269,None,,,,,,,,,,,,,,,,,,,,,,,,,,,,,,,,,,,sing43,001,2019_Nov_18_1549,ProdFawcett_Revision2019,3.2.4,59.82915047848188,
18,0,18,0,,,,,,,,,,,,,,,,,383.17245048065433,None,materials/singPic.jpg,figure,C_sing,18,128,379.4937541402187,None,379.4937541402187,None,380.42144267760614,None,380.68826992514187,None,380.68826992514187,None,,,,,,,,,,,,,,,,,,,,,,,,,,,,,,,,,,,sing43,001,2019_Nov_18_1549,ProdFawcett_Revision2019,3.2.4,59.82915047848188,
19,0,19,0,,,,,,,,,,,,,,,,,387.44042781480493,None,materials/readPic.jpg,bucket,A_silent,19,33,383.8073555160936,None,383.8073555160936,None,384.6896566845289,None,384.93959028553127,None,384.93959028553127,None,,,,,,,,,,,,,,,,,,,,,,,,,,,,,,,,,,,sing43,001,2019_Nov_18_1549,ProdFawcett_Revision2019,3.2.4,59.82915047848188,
20,0,20,0,,,,,,,,,,,,,,,,,391.70840701496854,None,materials/speakPic.jpg,crowd,B_aloud,20,81,388.0299342852086,None,388.0299342852086,None,388.9573388774688,None,389.2242065553073,None,389.2242065553073,None,,,,,,,,,,,,,,,,,,,,,,,,,,,,,,,,,,,sing43,001,2019_Nov_18_1549,ProdFawcett_Revision2019,3.2.4,59.82915047848188,
21,0,21,0,,,,,,,,,,,,,,,,,395.9763821721026,None,materials/singPic.jpg,group,C_sing,21,143,392.31824743967354,None,392.31824743967354,None,393.22553733427503,None,393.49216865034396,None,393.49216865034396,None,,,,,,,,,,,,,,,,,,,,,,,,,,,,,,,,,,,sing43,001,2019_Nov_18_1549,ProdFawcett_Revision2019,3.2.4,59.82915047848188,
22,0,22,0,,,,,,,,,,,,,,,,,400.24435546322275,None,materials/readPic.jpg,opening,A_silent,22,205,396.5818268898838,None,396.5818268898838,None,397.4937081118742,None,397.76016993167286,None,397.76016993167286,None,,,,,,,,,,,,,,,,,,,,,,,,,,,,,,,,,,,sing43,001,2019_Nov_18_1549,ProdFawcett_Revision2019,3.2.4,59.82915047848188,
23,0,23,0,,,,,,,,,,,,,,,,,404.51264068967885,None,materials/readPic.jpg,school,A_silent,23,274,400.8276449970617,None,400.8276449970617,None,401.7613383674252,None,402.0281385577582,None,402.0281385577582,None,,,,,,,,,,,,,,,,,,,,,,,,,,,,,,,,,,,sing43,001,2019_Nov_18_1549,ProdFawcett_Revision2019,3.2.4,59.82915047848188,
24,0,24,0,,,,,,,,,,,,,,,,,408.7802855623395,None,materials/singPic.jpg,minor,C_sing,24,191,405.16421109594194,None,405.16421109594194,None,406.0294503655832,None,406.29597127582565,None,406.29597127582565,None,,,,,,,,,,,,,,,,,,,,,,,,,,,,,,,,,,,sing43,001,2019_Nov_18_1549,ProdFawcett_Revision2019,3.2.4,59.82915047848188,
25,0,25,0,,,,,,,,,,,,,,,,,413.0482883986806,None,materials/speakPic.jpg,incident,B_aloud,25,158,409.41528731950257,None,409.41528731950257,None,410.29742023567815,None,410.5544521538468,None,410.5544521538468,None,,,,,,,,,,,,,,,,,,,,,,,,,,,,,,,,,,,sing43,001,2019_Nov_18_1549,ProdFawcett_Revision2019,3.2.4,59.82915047848188,
26,0,26,0,,,,,,,,,,,,,,,,,417.31623991963716,None,materials/singPic.jpg,disease,C_sing,26,97,413.62383863955165,None,413.62383863955165,None,414.5654003688487,None,414.81717137161377,None,414.81717137161377,None,,,,,,,,,,,,,,,,,,,,,,,,,,,,,,,,,,,sing43,001,2019_Nov_18_1549,ProdFawcett_Revision2019,3.2.4,59.82915047848188,
27,0,27,0,,,,,,,,,,,,,,,,,421.58424742101397,None,materials/speakPic.jpg,broke,B_aloud,27,32,417.9079025691908,None,417.9079025691908,None,418.8335322711573,None,419.0999847608864,None,419.0999847608864,None,,,,,,,,,,,,,,,,,,,,,,,,,,,,,,,,,,,sing43,001,2019_Nov_18_1549,ProdFawcett_Revision2019,3.2.4,59.82915047848188,
28,0,28,0,,,,,,,,,,,,,,,,,425.8521762388,None,materials/readPic.jpg,drama,A_silent,28,103,422.17236682102794,None,422.17236682102794,None,423.101530131461,None,423.3680093673902,None,423.3680093673902,None,,,,,,,,,,,,,,,,,,,,,,,,,,,,,,,,,,,sing43,001,2019_Nov_18_1549,ProdFawcett_Revision2019,3.2.4,59.82915047848188,
29,0,29,0,,,,,,,,,,,,,,,,,430.120539215839,None,materials/speakPic.jpg,detective,B_aloud,29,92,426.45348960163756,None,426.45348960163756,None,427.3692484006706,None,427.6359857685338,None,427.6359857685338,None,,,,,,,,,,,,,,,,,,,,,,,,,,,,,,,,,,,sing43,001,2019_Nov_18_1549,ProdFawcett_Revision2019,3.2.4,59.82915047848188,
30,0,30,0,,,,,,,,,,,,,,,,,434.388149878243,None,materials/singPic.jpg,track,C_sing,30,334,430.7392155277248,None,430.7392155277248,None,431.6382203202702,None,431.88720225414545,None,431.88720225414545,None,,,,,,,,,,,,,,,,,,,,,,,,,,,,,,,,,,,sing43,001,2019_Nov_18_1549,ProdFawcett_Revision2019,3.2.4,59.82915047848188,
31,0,31,0,,,,,,,,,,,,,,,,,438.65612814540054,None,materials/speakPic.jpg,power,B_aloud,31,230,434.9742225719274,None,434.9742225719274,None,435.9053470630497,None,436.1719385708202,None,436.1719385708202,None,,,,,,,,,,,,,,,,,,,,,,,,,,,,,,,,,,,sing43,001,2019_Nov_18_1549,ProdFawcett_Revision2019,3.2.4,59.82915047848188,
32,0,32,0,,,,,,,,,,,,,,,,,442.92410268052936,None,materials/readPic.jpg,owner,A_silent,32,208,439.2406896787661,None,439.2406896787661,None,440.1735610699725,None,440.4398605465558,None,440.4398605465558,None,,,,,,,,,,,,,,,,,,,,,,,,,,,,,,,,,,,sing43,001,2019_Nov_18_1549,ProdFawcett_Revision2019,3.2.4,59.82915047848188,
33,0,33,0,,,,,,,,,,,,,,,,,447.1918010455902,None,materials/singPic.jpg,music,C_sing,33,196,443.5452937572509,None,443.5452937572509,None,444.44125694701506,None,444.70783103865506,None,444.70783103865506,None,,,,,,,,,,,,,,,,,,,,,,,,,,,,,,,,,,,sing43,001,2019_Nov_18_1549,ProdFawcett_Revision2019,3.2.4,59.82915047848188,
34,0,34,0,,,,,,,,,,,,,,,,,451.46006512388794,None,materials/singPic.jpg,taste,C_sing,34,322,447.7585113562509,None,447.7585113562509,None,448.70972162181533,None,448.97581023881867,None,448.97581023881867,None,,,,,,,,,,,,,,,,,,,,,,,,,,,,,,,,,,,sing43,001,2019_Nov_18_1549,ProdFawcett_Revision2019,3.2.4,59.82915047848188,
35,0,35,0,,,,,,,,,,,,,,,,,455.7278686077361,None,materials/speakPic.jpg,distance,B_aloud,35,100,452.04503904634294,None,452.04503904634294,None,452.97720850529186,None,453.24368774122195,None,453.24368774122195,None,,,,,,,,,,,,,,,,,,,,,,,,,,,,,,,,,,,sing43,001,2019_Nov_18_1549,ProdFawcett_Revision2019,3.2.4,59.82915047848188,
36,0,36,0,,,,,,,,,,,,,,,,,459.979305593999,None,materials/readPic.jpg,individual,A_silent,36,160,456.29568733069846,None,456.29568733069846,None,457.24520014554946,None,457.51177579220075,None,457.51177579220075,None,,,,,,,,,,,,,,,,,,,,,,,,,,,,,,,,,,,sing43,001,2019_Nov_18_1549,ProdFawcett_Revision2019,3.2.4,59.82915047848188,
37,0,37,0,,,,,,,,,,,,,,,,,464.2472555599443,None,materials/readPic.jpg,corner,A_silent,37,69,460.5341424577273,None,460.5341424577273,None,461.4963793108818,None,461.76311947776503,None,461.76311947776503,None,,,,,,,,,,,,,,,,,,,,,,,,,,,,,,,,,,,sing43,001,2019_Nov_18_1549,ProdFawcett_Revision2019,3.2.4,59.82915047848188,
38,0,38,0,,,,,,,,,,,,,,,,,468.5152537312506,None,materials/singPic.jpg,motion,C_sing,38,194,464.9151837557265,None,464.9151837557265,None,465.7646343701117,None,466.03112697914185,None,466.03112697914185,None,,,,,,,,,,,,,,,,,,,,,,,,,,,,,,,,,,,sing43,001,2019_Nov_18_1549,ProdFawcett_Revision2019,3.2.4,59.82915047848188,
39,0,39,0,,,,,,,,,,,,,,,,,472.7831399417182,None,materials/readPic.jpg,orchestra,A_silent,39,206,469.1077131687716,None,469.1077131687716,None,470.032400222678,None,470.29905050988873,None,470.29905050988873,None,,,,,,,,,,,,,,,,,,,,,,,,,,,,,,,,,,,sing43,001,2019_Nov_18_1549,ProdFawcett_Revision2019,3.2.4,59.82915047848188,
40,0,40,0,,,,,,,,,,,,,,,,,477.05119502645084,None,materials/speakPic.jpg,interior,B_aloud,40,164,473.3749021120175,None,473.3749021120175,None,474.3012632914624,None,474.56706267629943,None,474.56706267629943,None,,,,,,,,,,,,,,,,,,,,,,,,,,,,,,,,,,,sing43,001,2019_Nov_18_1549,ProdFawcett_Revision2019,3.2.4,59.82915047848188,
41,0,41,0,,,,,,,,,,,,,,,,,481.3191574324892,None,materials/singPic.jpg,solution,C_sing,41,294,477.6576999511726,None,477.6576999511726,None,478.56806192678414,None,478.83503068038044,None,478.83503068038044,None,,,,,,,,,,,,,,,,,,,,,,,,,,,,,,,,,,,sing43,001,2019_Nov_18_1549,ProdFawcett_Revision2019,3.2.4,59.82915047848188,
42,0,42,0,,,,,,,,,,,,,,,,,485.58705826006644,None,materials/speakPic.jpg,religion,B_aloud,42,258,481.92081134287764,None,481.92081134287764,None,482.836239235432,None,483.1029930864188,None,483.1029930864188,None,,,,,,,,,,,,,,,,,,,,,,,,,,,,,,,,,,,sing43,001,2019_Nov_18_1549,ProdFawcett_Revision2019,3.2.4,59.82915047848188,
43,0,43,0,,,,,,,,,,,,,,,,,489.85512858391394,None,materials/readPic.jpg,length,A_silent,43,169,486.15488164806357,None,486.15488164806357,None,487.1042557558758,None,487.370979750639,None,487.370979750639,None,,,,,,,,,,,,,,,,,,,,,,,,,,,,,,,,,,,sing43,001,2019_Nov_18_1549,ProdFawcett_Revision2019,3.2.4,59.82915047848188,
44,0,44,0,,,,,,,,,,,,,,,,,494.1230766838444,None,materials/singPic.jpg,income,C_sing,44,159,490.4598415132132,None,490.4598415132132,None,491.3723836151539,None,491.63892194152595,None,491.63892194152595,None,,,,,,,,,,,,,,,,,,,,,,,,,,,,,,,,,,,sing43,001,2019_Nov_18_1549,ProdFawcett_Revision2019,3.2.4,59.82915047848188,
45,0,45,0,,,,,,,,,,,,,,,,,498.39124901645573,None,materials/speakPic.jpg,narrow,B_aloud,45,197,494.7146550517664,None,494.7146550517664,None,495.6406010431019,None,495.90693068691144,None,495.90693068691144,None,,,,,,,,,,,,,,,,,,,,,,,,,,,,,,,,,,,sing43,001,2019_Nov_18_1549,ProdFawcett_Revision2019,3.2.4,59.82915047848188,
46,0,46,0,,,,,,,,,,,,,,,,,502.65914175797207,None,materials/singPic.jpg,month,C_sing,46,193,499.00912076531495,None,499.00912076531495,None,499.90816661016834,None,500.16178527777174,None,500.16178527777174,None,,,,,,,,,,,,,,,,,,,,,,,,,,,,,,,,,,,sing43,001,2019_Nov_18_1549,ProdFawcett_Revision2019,3.2.4,59.82915047848188,
47,0,47,0,,,,,,,,,,,,,,,,,506.92700682028135,None,materials/speakPic.jpg,threat,B_aloud,47,329,503.25061562911105,None,503.25061562911105,None,504.17637657406067,None,504.44292360849795,None,504.44292360849795,None,,,,,,,,,,,,,,,,,,,,,,,,,,,,,,,,,,,sing43,001,2019_Nov_18_1549,ProdFawcett_Revision2019,3.2.4,59.82915047848188,
48,0,48,0,,,,,,,,,,,,,,,,,511.19502707275296,None,materials/singPic.jpg,production,C_sing,48,240,507.5449249084877,None,507.5449249084877,None,508.4439408971175,None,508.71085709131967,None,508.71085709131967,None,,,,,,,,,,,,,,,,,,,,,,,,,,,,,,,,,,,sing43,001,2019_Nov_18_1549,ProdFawcett_Revision2019,3.2.4,59.82915047848188,
49,0,49,0,,,,,,,,,,,,,,,,,515.4629913448052,None,materials/readPic.jpg,department,A_silent,49,90,511.8130440597006,None,511.8130440597006,None,512.7120805744835,None,512.9788260284076,None,512.9788260284076,None,,,,,,,,,,,,,,,,,,,,,,,,,,,,,,,,,,,sing43,001,2019_Nov_18_1549,ProdFawcett_Revision2019,3.2.4,59.82915047848188,
50,0,50,0,,,,,,,,,,,,,,,,,519.7312305429168,None,materials/singPic.jpg,front,C_sing,50,134,516.080738381731,None,516.080738381731,None,516.98002400938,None,517.2468021185487,None,517.2468021185487,None,,,,,,,,,,,,,,,,,,,,,,,,,,,,,,,,,,,sing43,001,2019_Nov_18_1549,ProdFawcett_Revision2019,3.2.4,59.82915047848188,
51,0,51,0,,,,,,,,,,,,,,,,,523.9989550321734,None,materials/singPic.jpg,property,C_sing,51,242,520.2840878768184,None,520.2840878768184,None,521.2484554069315,None,521.5147704336314,None,521.5147704336314,None,,,,,,,,,,,,,,,,,,,,,,,,,,,,,,,,,,,sing43,001,2019_Nov_18_1549,ProdFawcett_Revision2019,3.2.4,59.82915047848188,
52,0,52,0,,,,,,,,,,,,,,,,,528.266918993224,None,materials/speakPic.jpg,agency,B_aloud,52,4,524.6006185836331,None,524.6006185836331,None,525.5160539402441,None,525.7830817842832,None,525.7830817842832,None,,,,,,,,,,,,,,,,,,,,,,,,,,,,,,,,,,,sing43,001,2019_Nov_18_1549,ProdFawcett_Revision2019,3.2.4,59.82915047848188,
53,0,53,0,,,,,,,,,,,,,,,,,532.5349579058347,None,materials/speakPic.jpg,mayor,B_aloud,53,183,528.850229986223,None,528.850229986223,None,529.7840430924834,None,530.0507142168499,None,530.0507142168499,None,,,,,,,,,,,,,,,,,,,,,,,,,,,,,,,,,,,sing43,001,2019_Nov_18_1549,ProdFawcett_Revision2019,3.2.4,59.82915047848188,
54,0,54,0,,,,,,,,,,,,,,,,,536.8028584224103,None,materials/speakPic.jpg,fight,B_aloud,54,127,533.104462883427,None,533.104462883427,None,534.0519902594078,None,534.3187005700674,None,534.3187005700674,None,,,,,,,,,,,,,,,,,,,,,,,,,,,,,,,,,,,sing43,001,2019_Nov_18_1549,ProdFawcett_Revision2019,3.2.4,59.82915047848188,
55,0,55,0,,,,,,,,,,,,,,,,,541.0708712108253,None,materials/readPic.jpg,second,A_silent,55,278,537.4038026254821,None,537.4038026254821,None,538.3199532874505,None,538.5866729281806,None,538.5866729281806,None,,,,,,,,,,,,,,,,,,,,,,,,,,,,,,,,,,,sing43,001,2019_Nov_18_1549,ProdFawcett_Revision2019,3.2.4,59.82915047848188,
56,0,56,0,,,,,,,,,,,,,,,,,545.338851966002,None,materials/speakPic.jpg,danger,B_aloud,56,85,541.6610988956309,None,541.6610988956309,None,542.5879135164723,None,542.8546403102564,None,542.8546403102564,None,,,,,,,,,,,,,,,,,,,,,,,,,,,,,,,,,,,sing43,001,2019_Nov_18_1549,ProdFawcett_Revision2019,3.2.4,59.82915047848188,
57,0,57,0,,,,,,,,,,,,,,,,,549.6068137500351,None,materials/readPic.jpg,husband,A_silent,57,156,545.943959246255,None,545.943959246255,None,546.8559250608787,None,547.1226297734975,None,547.1226297734975,None,,,,,,,,,,,,,,,,,,,,,,,,,,,,,,,,,,,sing43,001,2019_Nov_18_1549,ProdFawcett_Revision2019,3.2.4,59.82915047848188,
58,0,58,0,,,,,,,,,,,,,,,,,553.8748060122971,None,materials/speakPic.jpg,weight,B_aloud,58,353,550.198028556234,None,550.198028556234,None,551.1243617454702,None,551.3906217247568,None,551.3906217247568,None,,,,,,,,,,,,,,,,,,,,,,,,,,,,,,,,,,,sing43,001,2019_Nov_18_1549,ProdFawcett_Revision2019,3.2.4,59.82915047848188,
59,0,59,0,,,,,,,,,,,,,,,,,558.1427351410866,None,materials/speakPic.jpg,hearing,B_aloud,59,150,554.4433916670041,None,554.4433916670041,None,555.391956546755,None,555.658577910749,None,555.658577910749,None,,,,,,,,,,,,,,,,,,,,,,,,,,,,,,,,,,,sing43,001,2019_Nov_18_1549,ProdFawcett_Revision2019,3.2.4,59.82915047848188,
60,0,60,0,,,,,,,,,,,,,,,,,562.4107494845139,None,materials/speakPic.jpg,display,B_aloud,60,98,558.7259920196802,None,558.7259920196802,None,559.6598984266393,None,559.9099968588771,None,559.9099968588771,None,,,,,,,,,,,,,,,,,,,,,,,,,,,,,,,,,,,sing43,001,2019_Nov_18_1549,ProdFawcett_Revision2019,3.2.4,59.82915047848188,
61,0,61,0,,,,,,,,,,,,,,,,,566.6787112685479,None,materials/speakPic.jpg,voice,B_aloud,61,348,562.9803701549727,None,562.9803701549727,None,563.9277765510469,None,564.1945126749006,None,564.1945126749006,None,,,,,,,,,,,,,,,,,,,,,,,,,,,,,,,,,,,sing43,001,2019_Nov_18_1549,ProdFawcett_Revision2019,3.2.4,59.82915047848188,
62,0,62,0,,,,,,,,,,,,,,,,,570.9467022868002,None,materials/speakPic.jpg,nature,B_aloud,62,200,567.245392655991,None,567.245392655991,None,568.195793693495,None,568.4625012051347,None,568.4625012051347,None,,,,,,,,,,,,,,,,,,,,,,,,,,,,,,,,,,,sing43,001,2019_Nov_18_1549,ProdFawcett_Revision2019,3.2.4,59.82915047848188,
63,0,63,0,,,,,,,,,,,,,,,,,575.2146631378273,None,materials/singPic.jpg,quiet,C_sing,63,249,571.5977943714806,None,571.5977943714806,None,572.4637669846152,None,572.7305335866968,None,572.7305335866968,None,,,,,,,,,,,,,,,,,,,,,,,,,,,,,,,,,,,sing43,001,2019_Nov_18_1549,ProdFawcett_Revision2019,3.2.4,59.82915047848188,
64,0,64,0,,,,,,,,,,,,,,,,,579.4826090607421,None,materials/readPic.jpg,committee,A_silent,64,62,575.8328278508807,None,575.8328278508807,None,576.7317505388119,None,576.9984325482601,None,576.9984325482601,None,,,,,,,,,,,,,,,,,,,,,,,,,,,,,,,,,,,sing43,001,2019_Nov_18_1549,ProdFawcett_Revision2019,3.2.4,59.82915047848188,
65,0,65,0,,,,,,,,,,,,,,,,,583.7506171841233,None,materials/singPic.jpg,member,C_sing,65,188,580.0838838592908,None,580.0838838592908,None,580.9997779443374,None,581.2664049063733,None,581.2664049063733,None,,,,,,,,,,,,,,,,,,,,,,,,,,,,,,,,,,,sing43,001,2019_Nov_18_1549,ProdFawcett_Revision2019,3.2.4,59.82915047848188,
66,0,66,0,,,,,,,,,,,,,,,,,588.0186063363617,None,materials/readPic.jpg,grade,A_silent,66,140,584.3520263356777,None,584.3520263356777,None,585.2676961880452,None,585.5344030776796,None,585.5344030776796,None,,,,,,,,,,,,,,,,,,,,,,,,,,,,,,,,,,,sing43,001,2019_Nov_18_1549,ProdFawcett_Revision2019,3.2.4,59.82915047848188,
67,0,67,0,,,,,,,,,,,,,,,,,592.286527690093,None,materials/singPic.jpg,birth,C_sing,67,22,588.6442917077457,None,588.6442917077457,None,589.5356178527782,None,589.8023661057223,None,589.8023661057223,None,,,,,,,,,,,,,,,,,,,,,,,,,,,,,,,,,,,sing43,001,2019_Nov_18_1549,ProdFawcett_Revision2019,3.2.4,59.82915047848188,
68,0,68,0,,,,,,,,,,,,,,,,,596.554511866294,None,materials/readPic.jpg,tragedy,A_silent,68,335,592.89509735928,None,592.89509735928,None,593.8036166460888,None,594.0703481049077,None,594.0703481049077,None,,,,,,,,,,,,,,,,,,,,,,,,,,,,,,,,,,,sing43,001,2019_Nov_18_1549,ProdFawcett_Revision2019,3.2.4,59.82915047848188,
69,0,69,0,,,,,,,,,,,,,,,,,600.8225109706073,None,materials/readPic.jpg,trash,A_silent,69,337,597.1376580280594,None,597.1376580280594,None,598.071622903456,None,598.3383198410156,None,598.3383198410156,None,,,,,,,,,,,,,,,,,,,,,,,,,,,,,,,,,,,sing43,001,2019_Nov_18_1549,ProdFawcett_Revision2019,3.2.4,59.82915047848188,
70,0,70,0,,,,,,,,,,,,,,,,,605.0904833287204,None,materials/singPic.jpg,pressure,C_sing,70,232,601.4282100882938,None,601.4282100882938,None,602.3396360028737,None,602.6062996631845,None,602.6062996631845,None,,,,,,,,,,,,,,,,,,,,,,,,,,,,,,,,,,,sing43,001,2019_Nov_18_1549,ProdFawcett_Revision2019,3.2.4,59.82915047848188,
71,0,71,0,,,,,,,,,,,,,,,,,609.3585094902364,None,materials/readPic.jpg,little,A_silent,71,174,605.7086894050844,None,605.7086894050844,None,606.6076092939938,None,606.8742639352377,None,606.8742639352377,None,,,,,,,,,,,,,,,,,,,,,,,,,,,,,,,,,,,sing43,001,2019_Nov_18_1549,ProdFawcett_Revision2019,3.2.4,59.82915047848188,
72,0,72,0,,,,,,,,,,,,,,,,,613.6264355090025,None,materials/singPic.jpg,novel,C_sing,72,202,609.9764446835707,None,609.9764446835707,None,610.8758652862316,None,611.142234427336,None,611.142234427336,None,,,,,,,,,,,,,,,,,,,,,,,,,,,,,,,,,,,sing43,001,2019_Nov_18_1549,ProdFawcett_Revision2019,3.2.4,59.82915047848188,
73,0,73,0,,,,,,,,,,,,,,,,,617.8944968137812,None,materials/singPic.jpg,place,C_sing,73,222,614.2116728504297,None,614.2116728504297,None,615.1434753266303,None,615.4102117614866,None,615.4102117614866,None,,,,,,,,,,,,,,,,,,,,,,,,,,,,,,,,,,,sing43,001,2019_Nov_18_1549,ProdFawcett_Revision2019,3.2.4,59.82915047848188,
74,0,74,0,,,,,,,,,,,,,,,,,622.1624116364637,None,materials/speakPic.jpg,victory,B_aloud,74,346,618.4979383655591,None,618.4979383655591,None,619.4114750529488,None,619.6782002917207,None,619.6782002917207,None,,,,,,,,,,,,,,,,,,,,,,,,,,,,,,,,,,,sing43,001,2019_Nov_18_1549,ProdFawcett_Revision2019,3.2.4,59.82915047848188,
75,0,75,0,,,,,,,,,,,,,,,,,626.4303640904272,None,materials/speakPic.jpg,review,B_aloud,75,263,622.7455155019115,None,622.7455155019115,None,623.6795665249538,None,623.9461682958008,None,623.9461682958008,None,,,,,,,,,,,,,,,,,,,,,,,,,,,,,,,,,,,sing43,001,2019_Nov_18_1549,ProdFawcett_Revision2019,3.2.4,59.82915047848188,
76,0,76,0,,,,,,,,,,,,,,,,,630.6983451566057,None,materials/readPic.jpg,charter,A_silent,76,47,627.0313303746652,None,627.0313303746652,None,627.9474452713657,None,628.2141325678531,None,628.2141325678531,None,,,,,,,,,,,,,,,,,,,,,,,,,,,,,,,,,,,sing43,001,2019_Nov_18_1549,ProdFawcett_Revision2019,3.2.4,59.82915047848188,
77,0,77,0,,,,,,,,,,,,,,,,,634.9663256007789,None,materials/speakPic.jpg,reading,B_aloud,77,254,631.287621485285,None,631.287621485285,None,632.2154145194554,None,632.4821039929593,None,632.4821039929593,None,,,,,,,,,,,,,,,,,,,,,,,,,,,,,,,,,,,sing43,001,2019_Nov_18_1549,ProdFawcett_Revision2019,3.2.4,59.82915047848188,
78,0,78,0,,,,,,,,,,,,,,,,,639.2342945378668,None,materials/singPic.jpg,problem,C_sing,78,238,635.5898255587936,None,635.5898255587936,None,636.4834173557965,None,636.7501024752682,None,636.7501024752682,None,,,,,,,,,,,,,,,,,,,,,,,,,,,,,,,,,,,sing43,001,2019_Nov_18_1549,ProdFawcett_Revision2019,3.2.4,59.82915047848188,
79,0,79,0,,,,,,,,,,,,,,,,,643.5023819668413,None,materials/speakPic.jpg,guide,B_aloud,79,147,639.8357581148284,None,639.8357581148284,None,640.7514584454239,None,641.0180639482996,None,641.0180639482996,None,,,,,,,,,,,,,,,,,,,,,,,,,,,,,,,,,,,sing43,001,2019_Nov_18_1549,ProdFawcett_Revision2019,3.2.4,59.82915047848188,
80,0,80,0,,,,,,,,,,,,,,,,,647.7703278897561,None,materials/readPic.jpg,strain,A_silent,80,308,644.1032135870701,None,644.1032135870701,None,645.0195592474993,None,645.2860742486964,None,645.2860742486964,None,,,,,,,,,,,,,,,,,,,,,,,,,,,,,,,,,,,sing43,001,2019_Nov_18_1549,ProdFawcett_Revision2019,3.2.4,59.82915047848188,
81,0,81,0,,,,,,,,,,,,,,,,,652.0382209422751,None,materials/speakPic.jpg,turkey,B_aloud,81,342,648.3597454134933,None,648.3597454134933,None,649.2873394061726,None,649.5540130185582,None,649.5540130185582,None,,,,,,,,,,,,,,,,,,,,,,,,,,,,,,,,,,,sing43,001,2019_Nov_18_1549,ProdFawcett_Revision2019,3.2.4,59.82915047848188,
82,0,82,0,,,,,,,,,,,,,,,,,656.3061982764257,None,materials/readPic.jpg,quarter,A_silent,82,246,652.6462482233992,None,652.6462482233992,None,653.5553080322579,None,653.8219897307035,None,653.8219897307035,None,,,,,,,,,,,,,,,,,,,,,,,,,,,,,,,,,,,sing43,001,2019_Nov_18_1549,ProdFawcett_Revision2019,3.2.4,59.82915047848188,
83,0,83,0,,,,,,,,,,,,,,,,,660.5741874286641,None,materials/readPic.jpg,background,A_silent,83,16,656.8893301320832,None,656.8893301320832,None,657.8234019922811,None,658.0899711078837,None,658.0899711078837,None,,,,,,,,,,,,,,,,,,,,,,,,,,,,,,,,,,,sing43,001,2019_Nov_18_1549,ProdFawcett_Revision2019,3.2.4,59.82915047848188,
84,0,84,0,,,,,,,,,,,,,,,,,664.8421582317651,None,materials/readPic.jpg,article,A_silent,84,11,661.1451500741741,None,661.1451500741741,None,662.0912281792998,None,662.3579465760204,None,662.3579465760204,None,,,,,,,,,,,,,,,,,,,,,,,,,,,,,,,,,,,sing43,001,2019_Nov_18_1549,ProdFawcett_Revision2019,3.2.4,59.82915047848188,
85,0,85,0,,,,,,,,,,,,,,,,,669.1101144177574,None,materials/singPic.jpg,prime,C_sing,85,235,665.4933184259553,None,665.4933184259553,None,666.3593199623065,None,666.6259282642031,None,666.6259282642031,None,,,,,,,,,,,,,,,,,,,,,,,,,,,,,,,,,,,sing43,001,2019_Nov_18_1549,ProdFawcett_Revision2019,3.2.4,59.82915047848188,
86,0,86,0,,,,,,,,,,,,,,,,,673.3780768237957,None,materials/readPic.jpg,state,A_silent,86,303,669.6836506075433,None,669.6836506075433,None,670.6272130148254,None,670.8939065313607,None,670.8939065313607,None,,,,,,,,,,,,,,,,,,,,,,,,,,,,,,,,,,,sing43,001,2019_Nov_18_1549,ProdFawcett_Revision2019,3.2.4,59.82915047848188,
87,0,87,0,,,,,,,,,,,,,,,,,677.6460861911855,None,materials/speakPic.jpg,thing,B_aloud,87,328,673.9794156888238,None,673.9794156888238,None,674.8952945347564,None,675.1618577413146,None,675.1618577413146,None,,,,,,,,,,,,,,,,,,,,,,,,,,,,,,,,,,,sing43,001,2019_Nov_18_1549,ProdFawcett_Revision2019,3.2.4,59.82915047848188,
88,0,88,0,,,,,,,,,,,,,,,,,681.91404673121,None,materials/readPic.jpg,election,A_silent,88,109,678.2471355130456,None,678.2471355130456,None,679.1632180655033,None,679.4298531136001,None,679.4298531136001,None,,,,,,,,,,,,,,,,,,,,,,,,,,,,,,,,,,,sing43,001,2019_Nov_18_1549,ProdFawcett_Revision2019,3.2.4,59.82915047848188,
89,0,89,0,,,,,,,,,,,,,,,,,686.1820200223301,None,materials/speakPic.jpg,comedy,B_aloud,89,58,682.5163049191242,None,682.5163049191242,None,683.4311733184886,None,683.6978276487298,None,683.6978276487298,None,,,,,,,,,,,,,,,,,,,,,,,,,,,,,,,,,,,sing43,001,2019_Nov_18_1549,ProdFawcett_Revision2019,3.2.4,59.82915047848188,
,,,,,,,,,,,,,,,,,,,,,,,,,,,,,,,,,,,,,686.6821770785064,None,k,100.49389564627836,686.6821770785064,None,,,,,,,,,,,,,,,,,,,,,,,,,,,,,sing43,001,2019_Nov_18_1549,ProdFawcett_Revision2019,3.2.4,59.82915047848188,
,,,,,,,,,,,,,,787.1962486899029,None,space,8.24331422742307,787.1962486899029,None,,,,,,,,,,,,,,,,,,,,,,,,,,,,,,,,,,,,,,,,,,,,,,,,,,,,sing43,001,2019_Nov_18_1549,ProdFawcett_Revision2019,3.2.4,59.82915047848188,
,,,,0,0,0,0,,,,,,,,,,,,,805.8527603011753,None,,,,,,,,,,,,,,,,,,,,,,portion,D_new,0,228,795.9864617575986,None,795.9864617575986,None,795.9864617575986,None,4,5.02877331351192,795.9864617575986,None,801.0670847574656,None,801.0670847574656,None,801.585615520261,None,801.585615520261,None,801.585615520261,None,f,4.229294864418989,801.585615520261,None,sing43,001,2019_Nov_18_1549,ProdFawcett_Revision2019,3.2.4,59.82915047848188,
,,,,1,0,1,0,,,,,,,,,,,,,812.3872781387136,None,,,,,,,,,,,,,,,,,,,,,,express,D_new,1,124,806.3688888819779,None,806.3688888819779,None,806.3688888819779,None,1,3.1501301544749367,806.3688888819779,None,809.5603667961477,None,809.5603667961477,None,810.0864698436599,None,810.0864698436599,None,810.0864698436599,None,n,2.256294220644122,810.0864698436599,None,sing43,001,2019_Nov_18_1549,ProdFawcett_Revision2019,3.2.4,59.82915047848188,
,,,,2,0,2,0,,,,,,,,,,,,,819.6893064959058,None,,,,,,,,,,,,,,,,,,,,,,dispute,D_new,2,99,812.9047810388101,None,812.9047810388101,None,812.9047810388101,None,1,5.149354825667615,812.9047810388101,None,818.1058204085948,None,818.1058204085948,None,818.6224633872507,None,818.6224633872507,None,818.6224633872507,None,n,1.0316858503265394,818.6224633872507,None,sing43,001,2019_Nov_18_1549,ProdFawcett_Revision2019,3.2.4,59.82915047848188,
,,,,3,0,3,0,,,,,,,,,,,,,826.1581645886536,None,,,,,,,,,,,,,,,,,,,,,,majority,D_new,3,176,820.2120118429693,None,820.2120118429693,None,820.2120118429693,None,6,4.018289424987415,820.2120118429693,None,824.290768517857,None,824.290768517857,None,824.8114122304778,None,824.8114122304778,None,824.8114122304778,None,r,1.314185438248387,824.8114122304778,None,sing43,001,2019_Nov_18_1549,ProdFawcett_Revision2019,3.2.4,59.82915047848188,
,,,,4,0,4,0,,,,,,,,,,,,,830.4761570064165,None,,,,,,,,,,,,,,,,,,,,,,number,D_new,4,203,826.6759246876763,None,826.6759246876763,None,826.6759246876763,None,6,2.193815718679616,826.6759246876763,None,828.9132092019372,None,828.9132092019372,None,829.4423155989443,None,829.4423155989443,None,829.4423155989443,None,r,0.9870128537268101,829.4423155989443,None,sing43,001,2019_Nov_18_1549,ProdFawcett_Revision2019,3.2.4,59.82915047848188,
,,,,5,0,5,0,,,,,,,,,,,,,840.6624564207987,None,,,,,,,,,,,,,,,,,,,,,,write,D_new,5,358,830.9930223517376,None,830.9930223517376,None,830.9930223517376,None,3,6.068318192703373,830.9930223517376,None,837.0998983022391,None,837.0998983022391,None,837.6281957821866,None,837.6281957821866,None,837.6281957821866,None,f,2.993197135047012,837.6281957821866,None,sing43,001,2019_Nov_18_1549,ProdFawcett_Revision2019,3.2.4,59.82915047848188,
,,,,6,0,6,0,,,,,,,,,,,,,846.6143735946589,None,,,,,,,,,,,,,,,,,,,,,,birth,C_sing,6,22,841.1793139910624,None,841.1793139910624,None,841.1793139910624,None,6,2.217562612544498,841.1793139910624,None,843.4468388168234,None,843.4468388168234,None,843.9634556712836,None,843.9634556712836,None,843.9634556712836,None,r,2.6094610018626554,843.9634556712836,None,sing43,001,2019_Nov_18_1549,ProdFawcett_Revision2019,3.2.4,59.82915047848188,
,,,,7,0,7,0,,,,,,,,,,,,,851.1656812039528,None,,,,,,,,,,,,,,,,,,,,,,little,A_silent,7,174,847.1318789827737,None,847.1318789827737,None,847.1318789827737,None,6,2.032709669995711,847.1318789827737,None,849.2150873450046,None,849.2150873450046,None,849.7320341729364,None,849.7320341729364,None,849.7320341729364,None,r,1.4005374120251872,849.7320341729364,None,sing43,001,2019_Nov_18_1549,ProdFawcett_Revision2019,3.2.4,59.82915047848188,
,,,,8,0,8,0,,,,,,,,,,,,,857.501085709132,None,,,,,,,,,,,,,,,,,,,,,,pretty,D_new,8,233,851.6838714191972,None,851.6838714191972,None,851.6838714191972,None,5,4.080017167329061,851.6838714191972,None,855.8172404141314,None,855.8172404141314,None,856.334061597122,None,856.334061597122,None,856.334061597122,None,f,1.1258952979551395,856.334061597122,None,sing43,001,2019_Nov_18_1549,ProdFawcett_Revision2019,3.2.4,59.82915047848188,
,,,,9,0,9,0,,,,,,,,,,,,,861.76908139242,None,,,,,,,,,,,,,,,,,,,,,,novel,C_sing,9,202,858.0180742113762,None,858.0180742113762,None,858.0180742113762,None,6,2.0258421165572145,858.0180742113762,None,860.101742857054,None,860.101742857054,None,860.6186918620024,None,860.6186918620024,None,860.6186918620024,None,r,1.1127853057623724,860.6186918620024,None,sing43,001,2019_Nov_18_1549,ProdFawcett_Revision2019,3.2.4,59.82915047848188,
,,,,10,0,10,0,,,,,,,,,,,,,868.1708848949283,None,,,,,,,,,,,,,,,,,,,,,,primary,D_new,10,234,862.2869407011858,None,862.2869407011858,None,862.2869407011858,None,5,3.8283491063348265,862.2869407011858,None,866.1704252334857,None,866.1704252334857,None,866.6872501485041,None,866.6872501485041,None,866.6872501485041,None,r,1.4441632637826842,866.6872501485041,None,sing43,001,2019_Nov_18_1549,ProdFawcett_Revision2019,3.2.4,59.82915047848188,
,,,,11,0,11,0,,,,,,,,,,,,,873.1223949667383,None,,,,,,,,,,,,,,,,,,,,,,staff,D_new,11,301,868.6888791787051,None,868.6888791787051,None,868.6888791787051,None,5,2.666349547957907,868.6888791787051,None,871.4053221828635,None,871.4053221828635,None,871.9220597062276,None,871.9220597062276,None,871.9220597062276,None,f,1.160977604722575,871.9220597062276,None,sing43,001,2019_Nov_18_1549,ProdFawcett_Revision2019,3.2.4,59.82915047848188,
,,,,12,0,12,0,,,,,,,,,,,,,879.8912829157098,None,,,,,,,,,,,,,,,,,,,,,,search,D_new,12,276,873.6401077934079,None,873.6401077934079,None,873.6401077934079,None,2,4.298474844576958,873.6401077934079,None,877.9905663663421,None,877.9905663663421,None,878.5076018299378,None,878.5076018299378,None,878.5076018299378,None,n,1.334717501034902,878.5076018299378,None,sing43,001,2019_Nov_18_1549,ProdFawcett_Revision2019,3.2.4,59.82915047848188,
,,,,13,0,13,0,,,,,,,,,,,,,885.5930127106658,None,,,,,,,,,,,,,,,,,,,,,,research,D_new,13,261,880.4086402667162,None,880.4086402667162,None,880.4086402667162,None,3,3.4013833383605743,880.4086402667162,None,883.8590329071567,None,883.8590329071567,None,884.3758870563943,None,884.3758870563943,None,884.3758870563943,None,f,1.1700750448626422,884.3758870563943,None,sing43,001,2019_Nov_18_1549,ProdFawcett_Revision2019,3.2.4,59.82915047848188,
,,,,14,0,14,0,,,,,,,,,,,,,891.3114663448832,None,,,,,,,,,,,,,,,,,,,,,,article,A_silent,14,11,886.1106449877316,None,886.1106449877316,None,886.1106449877316,None,4,3.355180210299295,886.1106449877316,None,889.5275672464795,None,889.5275672464795,None,890.0442503444356,None,890.0442503444356,None,890.0442503444356,None,f,1.2213226307067089,890.0442503444356,None,sing43,001,2019_Nov_18_1549,ProdFawcett_Revision2019,3.2.4,59.82915047848188,
,,,,15,0,15,0,,,,,,,,,,,,,896.3128490612398,None,,,,,,,,,,,,,,,,,,,,,,youth,C_sing,15,359,891.828930680691,None,891.828930680691,None,891.828930680691,None,5,2.6928991948152543,891.828930680691,None,894.5790574141402,None,894.5790574141402,None,895.0959753188554,None,895.0959753188554,None,895.0959753188554,None,r,1.1776607026786223,895.0959753188554,None,sing43,001,2019_Nov_18_1549,ProdFawcett_Revision2019,3.2.4,59.82915047848188,
,,,,16,0,16,0,,,,,,,,,,,,,900.6308396129889,None,,,,,,,,,,,,,,,,,,,,,,listen,C_sing,16,172,896.8309092775107,None,896.8309092775107,None,896.8309092775107,None,5,2.36225675730293,896.8309092775107,None,899.2472113976137,None,899.2472113976137,None,899.763879878461,None,899.763879878461,None,899.763879878461,None,r,0.8211643305203324,899.763879878461,None,sing43,001,2019_Nov_18_1549,ProdFawcett_Revision2019,3.2.4,59.82915047848188,
,,,,17,0,17,0,,,,,,,,,,,,,904.2487104288412,None,,,,,,,,,,,,,,,,,,,,,,income,C_sing,17,159,901.1486544484223,None,901.1486544484223,None,901.1486544484223,None,6,1.5486301902401465,901.1486544484223,None,902.7364591140795,None,902.7364591140795,None,903.2649711856347,None,903.2649711856347,None,903.2649711856347,None,r,0.9442590525004562,903.2649711856347,None,sing43,001,2019_Nov_18_1549,ProdFawcett_Revision2019,3.2.4,59.82915047848188,
,,,,18,0,18,0,,,,,,,,,,,,,907.9999101203275,None,,,,,,,,,,,,,,,,,,,,,,production,C_sing,18,240,904.7672349715904,None,904.7672349715904,None,904.7672349715904,None,6,1.7455814344048122,904.7672349715904,None,906.5661103871671,None,906.5661103871671,None,907.0829063789688,None,907.0829063789688,None,907.0829063789688,None,r,0.8780052932597755,907.0829063789688,None,sing43,001,2019_Nov_18_1549,ProdFawcett_Revision2019,3.2.4,59.82915047848188,
,,,,19,0,19,0,,,,,,,,,,,,,912.5012461863344,None,,,,,,,,,,,,,,,,,,,,,,music,C_sing,19,196,908.5166342705907,None,908.5166342705907,None,908.5166342705907,None,6,2.708412613010296,908.5166342705907,None,911.2842020146736,None,911.2842020146736,None,911.8010490108572,None,911.8010490108572,None,911.8010490108572,None,r,0.6552607599032854,911.8010490108572,None,sing43,001,2019_Nov_18_1549,ProdFawcett_Revision2019,3.2.4,59.82915047848188,
,,,,20,0,20,0,,,,,,,,,,,,,919.103193060916,None,,,,,,,,,,,,,,,,,,,,,,dream,D_new,20,104,913.01793581534,None,913.01793581534,None,913.01793581534,None,3,4.3587657561556625,913.01793581534,None,917.4268758883009,None,917.4268758883009,None,917.9533048662543,None,917.9533048662543,None,917.9533048662543,None,n,1.1109783822284953,917.9533048662543,None,sing43,001,2019_Nov_18_1549,ProdFawcett_Revision2019,3.2.4,59.82915047848188,
,,,,21,0,21,0,,,,,,,,,,,,,923.5713112791218,None,,,,,,,,,,,,,,,,,,,,,,background,A_silent,21,16,919.6206290955124,None,919.6206290955124,None,919.6206290955124,None,6,2.3953831704202457,919.6206290955124,None,922.0589576445927,None,922.0589576445927,None,922.5877119869629,None,922.5877119869629,None,922.5877119869629,None,r,0.9406234352700267,922.5877119869629,None,sing43,001,2019_Nov_18_1549,ProdFawcett_Revision2019,3.2.4,59.82915047848188,
,,,,22,0,22,0,,,,,,,,,,,,,929.2064010499444,None,,,,,,,,,,,,,,,,,,,,,,tragedy,A_silent,22,335,924.0894825232244,None,924.0894825232244,None,924.0894825232244,None,6,3.630006126745684,924.0894825232244,None,927.7726377040572,None,927.7726377040572,None,928.2893257780506,None,928.2893257780506,None,928.2893257780506,None,r,0.8782985684565574,928.2893257780506,None,sing43,001,2019_Nov_18_1549,ProdFawcett_Revision2019,3.2.4,59.82915047848188,
,,,,23,0,23,0,,,,,,,,,,,,,932.7572751219914,None,,,,,,,,,,,,,,,,,,,,,,agency,B_aloud,23,4,929.7236156508816,None,929.7236156508816,None,929.7236156508816,None,6,1.6438995338066889,929.7236156508816,None,931.4124232990507,None,931.4124232990507,None,931.940546617695,None,931.940546617695,None,931.940546617695,None,r,0.7705309742777899,931.940546617695,None,sing43,001,2019_Nov_18_1549,ProdFawcett_Revision2019,3.2.4,59.82915047848188,
,,,,24,0,24,0,,,,,,,,,,,,,936.3584746579754,None,,,,,,,,,,,,,,,,,,,,,,private,D_new,24,237,933.2742384330459,None,933.2742384330459,None,933.2742384330459,None,6,1.9648710428837148,933.2742384330459,None,935.2812742387441,None,935.2812742387441,None,935.80845522033,None,935.80845522033,None,935.80845522033,None,r,0.5023937849291542,935.80845522033,None,sing43,001,2019_Nov_18_1549,ProdFawcett_Revision2019,3.2.4,59.82915047848188,
,,,,25,0,25,0,,,,,,,,,,,,,940.3763523158796,None,,,,,,,,,,,,,,,,,,,,,,department,A_silent,25,90,936.8778264669209,None,936.8778264669209,None,936.8778264669209,None,4,2.0571703142049955,936.8778264669209,None,938.9927461816696,None,938.9927461816696,None,939.5094131075048,None,939.5094131075048,None,939.5094131075048,None,f,0.8258697957644472,939.5094131075048,None,sing43,001,2019_Nov_18_1549,ProdFawcett_Revision2019,3.2.4,59.82915047848188,
,,,,26,0,26,0,,,,,,,,,,,,,944.1610435372168,None,,,,,,,,,,,,,,,,,,,,,,thing,B_aloud,26,328,940.893238809359,None,940.893238809359,None,940.893238809359,None,6,1.8578290171390108,940.893238809359,None,942.8105812322538,None,942.8105812322538,None,943.3274073912817,None,943.3274073912817,None,943.3274073912817,None,r,0.7916048031202081,943.3274073912817,None,sing43,001,2019_Nov_18_1549,ProdFawcett_Revision2019,3.2.4,59.82915047848188,
,,,,27,0,27,0,,,,,,,,,,,,,947.345309929372,None,,,,,,,,,,,,,,,,,,,,,,voice,B_aloud,27,348,944.6824389424683,None,944.6824389424683,None,944.6824389424683,None,6,1.3880624865878417,944.6824389424683,None,946.1156617663073,None,946.1156617663073,None,946.6449575637325,None,946.6449575637325,None,946.6449575637325,None,r,0.6653014701078064,946.6449575637325,None,sing43,001,2019_Nov_18_1549,ProdFawcett_Revision2019,3.2.4,59.82915047848188,
,,,,28,0,28,0,,,,,,,,,,,,,950.8129075296774,None,,,,,,,,,,,,,,,,,,,,,,contract,D_new,28,68,947.8626567062993,None,947.8626567062993,None,947.8626567062993,None,4,1.9919907570110809,947.8626567062993,None,949.9127753536877,None,949.9127753536877,None,950.416752451476,None,950.416752451476,None,950.416752451476,None,f,0.3575494260448977,950.416752451476,None,sing43,001,2019_Nov_18_1549,ProdFawcett_Revision2019,3.2.4,59.82915047848188,
,,,,29,0,29,0,,,,,,,,,,,,,955.5646023368718,None,,,,,,,,,,,,,,,,,,,,,,shape,D_new,29,282,951.3296966794287,None,951.3296966794287,None,951.3296966794287,None,5,1.7483117238543855,951.3296966794287,None,953.1302679907076,None,953.1302679907076,None,953.6472285027421,None,953.6472285027421,None,953.6472285027421,None,r,1.8704386065855942,953.6472285027421,None,sing43,001,2019_Nov_18_1549,ProdFawcett_Revision2019,3.2.4,59.82915047848188,
,,,,30,0,30,0,,,,,,,,,,,,,960.499286871659,None,,,,,,,,,,,,,,,,,,,,,,sound,D_new,30,295,956.0814667491859,None,956.0814667491859,None,956.0814667491859,None,4,3.0520872921342743,956.0814667491859,None,959.189015086723,None,959.189015086723,None,959.7157018856078,None,959.7157018856078,None,959.7157018856078,None,f,0.7378222372890377,959.7157018856078,None,sing43,001,2019_Nov_18_1549,ProdFawcett_Revision2019,3.2.4,59.82915047848188,
,,,,31,0,31,0,,,,,,,,,,,,,965.767624968511,None,,,,,,,,,,,,,,,,,,,,,,science,D_new,31,275,961.0164594872822,None,961.0164594872822,None,961.0164594872822,None,4,3.604667833962594,961.0164594872822,None,964.6838847922972,None,964.6838847922972,None,965.2008226011612,None,965.2008226011612,None,965.2008226011612,None,f,0.524919061644141,965.2008226011612,None,sing43,001,2019_Nov_18_1549,ProdFawcett_Revision2019,3.2.4,59.82915047848188,
,,,,32,0,32,0,,,,,,,,,,,,,971.1194345355652,None,,,,,,,,,,,,,,,,,,,,,,bucket,A_silent,32,33,966.2843951471204,None,966.2843951471204,None,966.2843951471204,None,2,2.8009106148210776,966.2843951471204,None,969.1220873854345,None,969.1220873854345,None,969.6520334887309,None,969.6520334887309,None,969.6520334887309,None,n,1.425405158284775,969.6520334887309,None,sing43,001,2019_Nov_18_1549,ProdFawcett_Revision2019,3.2.4,59.82915047848188,
,,,,33,0,33,0,,,,,,,,,,,,,974.7036965736879,None,,,,,,,,,,,,,,,,,,,,,,length,A_silent,33,169,971.6358741186978,None,971.6358741186978,None,971.6358741186978,None,5,1.752733865976552,971.6358741186978,None,973.4409185764807,None,973.4409185764807,None,973.9700134664008,None,973.9700134664008,None,973.9700134664008,None,r,0.6911171514675516,973.9700134664008,None,sing43,001,2019_Nov_18_1549,ProdFawcett_Revision2019,3.2.4,59.82915047848188,
,,,,34,0,34,0,,,,,,,,,,,,,980.7387707943935,None,,,,,,,,,,,,,,,,,,,,,,guide,B_aloud,34,147,975.2215932027339,None,975.2215932027339,None,975.2215932027339,None,6,3.958840085711927,975.2215932027339,None,979.2281149215814,None,979.2281149215814,None,979.7551198758483,None,979.7551198758483,None,979.7551198758483,None,r,0.9450505534287004,979.7551198758483,None,sing43,001,2019_Nov_18_1549,ProdFawcett_Revision2019,3.2.4,59.82915047848188,
,,,,35,0,35,0,,,,,,,,,,,,,983.7067431525065,None,,,,,,,,,,,,,,,,,,,,,,crowd,B_aloud,35,81,981.2557095362645,None,981.2557095362645,None,981.2557095362645,None,6,1.4203028540678133,981.2557095362645,None,982.7258676187485,None,982.7258676187485,None,983.2395510992383,None,983.2395510992383,None,983.2395510992383,None,r,0.4284570241425172,983.2395510992383,None,sing43,001,2019_Nov_18_1549,ProdFawcett_Revision2019,3.2.4,59.82915047848188,
,,,,36,0,36,0,,,,,,,,,,,,,988.2910736111417,None,,,,,,,,,,,,,,,,,,,,,,force,D_new,36,131,984.2247162881258,None,984.2247162881258,None,984.2247162881258,None,4,2.3632569407945994,984.2247162881258,None,986.6406116171811,None,986.6406116171811,None,987.1575261008711,None,987.1575261008711,None,987.1575261008711,None,f,1.0861625733577966,987.1575261008711,None,sing43,001,2019_Nov_18_1549,ProdFawcett_Revision2019,3.2.4,59.82915047848188,
,,,,37,0,37,0,,,,,,,,,,,,,994.2430128661672,None,,,,,,,,,,,,,,,,,,,,,,captain,D_new,37,41,988.8084452682551,None,988.8084452682551,None,988.8084452682551,None,3,4.099104002289096,988.8084452682551,None,992.9592782879945,None,992.9592782879945,None,993.4759508118723,None,993.4759508118723,None,993.4759508118723,None,n,0.7194572387352309,993.4759508118723,None,sing43,001,2019_Nov_18_1549,ProdFawcett_Revision2019,3.2.4,59.82915047848188,
,,,,38,0,38,0,,,,,,,,,,,,,998.7612609278449,None,,,,,,,,,,,,,,,,,,,,,,comedy,B_aloud,38,58,994.7597948628636,None,994.7597948628636,None,994.7597948628636,None,6,1.8277087525384559,994.7597948628636,None,996.6312280548982,None,996.6312280548982,None,997.1604299296205,None,997.1604299296205,None,997.1604299296205,None,r,1.554620406106551,997.1604299296205,None,sing43,001,2019_Nov_18_1549,ProdFawcett_Revision2019,3.2.4,59.82915047848188,
,,,,39,0,39,0,,,,,,,,,,,,,1003.8791553798737,None,,,,,,,,,,,,,,,,,,,,,,profession,D_new,39,241,999.2794079137657,None,999.2794079137657,None,999.2794079137657,None,3,2.107832282664276,999.2794079137657,None,1001.4335599503647,None,1001.4335599503647,None,1001.961832550126,None,1001.961832550126,None,1001.961832550126,None,f,1.8734970034929574,1001.961832550126,None,sing43,001,2019_Nov_18_1549,ProdFawcett_Revision2019,3.2.4,59.82915047848188,
,,,,40,0,40,0,,,,,,,,,,,,,1009.3643034636334,None,,,,,,,,,,,,,,,,,,,,,,smooth,A_silent,40,292,1004.3959491946598,None,1004.3959491946598,None,1004.3959491946598,None,4,3.9826880553337105,1004.3959491946598,None,1008.4192068818602,None,1008.4192068818602,None,1008.9474614434866,None,1008.9474614434866,None,1008.9474614434866,None,f,0.3833595093628901,1008.9474614434866,None,sing43,001,2019_Nov_18_1549,ProdFawcett_Revision2019,3.2.4,59.82915047848188,
,,,,41,0,41,0,,,,,,,,,,,,,1012.7986738860682,None,,,,,,,,,,,,,,,,,,,,,,opening,A_silent,41,205,1009.8812956979054,None,1009.8812956979054,None,1009.8812956979054,None,6,1.3932935457687563,1009.8812956979054,None,1011.3315975256655,None,1011.3315975256655,None,1011.8484168426421,None,1011.8484168426421,None,1011.8484168426421,None,r,0.9064427242556121,1011.8484168426421,None,sing43,001,2019_Nov_18_1549,ProdFawcett_Revision2019,3.2.4,59.82915047848188,
,,,,42,0,42,0,,,,,,,,,,,,,1016.2830964013929,None,,,,,,,,,,,,,,,,,,,,,,company,D_new,42,64,1013.3163677415951,None,1013.3163677415951,None,1013.3163677415951,None,4,2.00634755754254,1013.3163677415951,None,1015.3827698489467,None,1015.3827698489467,None,1015.899638615294,None,1015.899638615294,None,1015.899638615294,None,f,0.34260483111029316,1015.899638615294,None,sing43,001,2019_Nov_18_1549,ProdFawcett_Revision2019,3.2.4,59.82915047848188,
,,,,43,0,43,0,,,,,,,,,,,,,1022.0347283861156,None,,,,,,,,,,,,,,,,,,,,,,religion,B_aloud,43,258,1016.8002413378081,None,1016.8002413378081,None,1016.8002413378081,None,6,3.8976270522261984,1016.8002413378081,None,1020.7510644054728,None,1020.7510644054728,None,1021.2678520002119,None,1021.2678520002119,None,1021.2678520002119,None,r,0.7341346826688095,1021.2678520002119,None,sing43,001,2019_Nov_18_1549,ProdFawcett_Revision2019,3.2.4,59.82915047848188,
,,,,44,0,44,0,,,,,,,,,,,,,1025.1857122419851,None,,,,,,,,,,,,,,,,,,,,,,travel,C_sing,44,338,1022.5522446593131,None,1022.5522446593131,None,1022.5522446593131,None,6,1.4899745289094426,1022.5522446593131,None,1024.1021701742548,None,1024.1021701742548,None,1024.6189024105797,None,1024.6189024105797,None,1024.6189024105797,None,r,0.5185553319797691,1024.6189024105797,None,sing43,001,2019_Nov_18_1549,ProdFawcett_Revision2019,3.2.4,59.82915047848188,
,,,,45,0,45,0,,,,,,,,,,,,,1029.120287303952,None,,,,,,,,,,,,,,,,,,,,,,republic,D_new,45,260,1025.703459589913,None,1025.703459589913,None,1025.703459589913,None,2,2.2501114943343055,1025.703459589913,None,1028.0032366012429,None,1028.0032366012429,None,1028.509001962425,None,1028.509001962425,None,1028.509001962425,None,f,0.5724775378566846,1028.509001962425,None,sing43,001,2019_Nov_18_1549,ProdFawcett_Revision2019,3.2.4,59.82915047848188,
,,,,46,0,46,0,,,,,,,,,,,,,1033.3382078801778,None,,,,,,,,,,,,,,,,,,,,,,threat,B_aloud,46,329,1029.6372288448447,None,1029.6372288448447,None,1029.6372288448447,None,4,2.451807079034552,1029.6372288448447,None,1032.1445768968815,None,1032.1445768968815,None,1032.6714854404263,None,1032.6714854404263,None,1032.6714854404263,None,f,0.6174637138028629,1032.6714854404263,None,sing43,001,2019_Nov_18_1549,ProdFawcett_Revision2019,3.2.4,59.82915047848188,
,,,,47,0,47,0,,,,,,,,,,,,,1038.1231438603481,None,,,,,,,,,,,,,,,,,,,,,,owner,A_silent,47,208,1033.855020355103,None,1033.855020355103,None,1033.855020355103,None,5,3.129732133694233,1033.855020355103,None,1037.0393856459987,None,1037.0393856459987,None,1037.5563268758888,None,1037.5563268758888,None,1037.5563268758888,None,f,0.5250179603845027,1037.5563268758888,None,sing43,001,2019_Nov_18_1549,ProdFawcett_Revision2019,3.2.4,59.82915047848188,
,,,,48,0,48,0,,,,,,,,,,,,,1042.274370609036,None,,,,,,,,,,,,,,,,,,,,,,victory,B_aloud,48,346,1038.6411082879013,None,1038.6411082879013,None,1038.6411082879013,None,4,2.6239795236060672,1038.6411082879013,None,1041.3120018908949,None,1041.3120018908949,None,1041.824225837452,None,1041.824225837452,None,1041.824225837452,None,f,0.41660068233977654,1041.824225837452,None,sing43,001,2019_Nov_18_1549,ProdFawcett_Revision2019,3.2.4,59.82915047848188,
,,,,49,0,49,0,,,,,,,,,,,,,1045.2252250879365,None,,,,,,,,,,,,,,,,,,,,,,point,B_aloud,49,226,1042.7912238252666,None,1042.7912238252666,None,1042.7912238252666,None,6,1.3614151849997143,1042.7912238252666,None,1044.2082658199115,None,1044.2082658199115,None,1044.7251756385658,None,1044.7251756385658,None,1044.7251756385658,None,r,0.45924532174740307,1044.7251756385658,None,sing43,001,2019_Nov_18_1549,ProdFawcett_Revision2019,3.2.4,59.82915047848188,
,,,,50,0,50,0,,,,,,,,,,,,,1048.4429500436963,None,,,,,,,,,,,,,,,,,,,,,,weather,D_new,50,352,1045.7434317863044,None,1045.7434317863044,None,1045.7434317863044,None,6,1.7769808515868135,1045.7434317863044,None,1047.5649080521616,None,1047.5649080521616,None,1048.092704196355,None,1048.092704196355,None,1048.092704196355,None,r,0.30800519995864306,1048.092704196355,None,sing43,001,2019_Nov_18_1549,ProdFawcett_Revision2019,3.2.4,59.82915047848188,
,,,,51,0,51,0,,,,,,,,,,,,,1052.1607661231383,None,,,,,,,,,,,,,,,,,,,,,,course,D_new,51,74,1048.9602041419294,None,1048.9602041419294,None,1048.9602041419294,None,2,1.9279774585511404,1048.9602041419294,None,1050.9437365685872,None,1050.9437365685872,None,1051.4604066044458,None,1051.4604066044458,None,1051.4604066044458,None,n,0.6673867407262151,1051.4604066044458,None,sing43,001,2019_Nov_18_1549,ProdFawcett_Revision2019,3.2.4,59.82915047848188,
,,,,52,0,52,0,,,,,,,,,,,,,1055.5617666176322,None,,,,,,,,,,,,,,,,,,,,,,story,D_new,52,306,1052.677503957505,None,1052.677503957505,None,1052.677503957505,None,3,1.7141307018382577,1052.677503957505,None,1054.4339032969365,None,1054.4339032969365,None,1054.9639227967818,None,1054.9639227967818,None,1054.9639227967818,None,n,0.5640910490419628,1054.9639227967818,None,sing43,001,2019_Nov_18_1549,ProdFawcett_Revision2019,3.2.4,59.82915047848188,
,,,,53,0,53,0,,,,,,,,,,,,,1059.412867099375,None,,,,,,,,,,,,,,,,,,,,,,sleep,A_silent,53,290,1056.0784083522785,None,1056.0784083522785,None,1056.0784083522785,None,6,2.033432439408898,1056.0784083522785,None,1058.1525942259314,None,1058.1525942259314,None,1058.6794060477514,None,1058.6794060477514,None,1058.6794060477514,None,r,0.687924712556196,1058.6794060477514,None,sing43,001,2019_Nov_18_1549,ProdFawcett_Revision2019,3.2.4,59.82915047848188,
,,,,54,0,54,0,,,,,,,,,,,,,1062.5139465884604,None,,,,,,,,,,,,,,,,,,,,,,danger,B_aloud,54,85,1059.9299647634361,None,1059.9299647634361,None,1059.9299647634361,None,6,1.501229392208188,1059.9299647634361,None,1061.4827300406487,None,1061.4827300406487,None,1061.9969926074746,None,1061.9969926074746,None,1061.9969926074746,None,r,0.4824293013953138,1061.9969926074746,None,sing43,001,2019_Nov_18_1549,ProdFawcett_Revision2019,3.2.4,59.82915047848188,
,,,,55,0,55,0,,,,,,,,,,,,,1065.7481792368626,None,,,,,,,,,,,,,,,,,,,,,,orchestra,A_silent,55,206,1063.0328816542842,None,1063.0328816542842,None,1063.0328816542842,None,5,2.030194594157365,1063.0328816542842,None,1065.1146444776878,None,1065.1146444776878,None,1065.631647286039,None,1065.631647286039,None,1065.631647286039,None,f,0.07141981893437332,1065.631647286039,None,sing43,001,2019_Nov_18_1549,ProdFawcett_Revision2019,3.2.4,59.82915047848188,
,,,,56,0,56,0,,,,,,,,,,,,,1069.2159789886828,None,,,,,,,,,,,,,,,,,,,,,,height,D_new,56,152,1066.2650601323012,None,1066.2650601323012,None,1066.2650601323012,None,4,2.1424104546549643,1066.2650601323012,None,1068.4657763706655,None,1068.4657763706655,None,1068.9824445405102,None,1068.9824445405102,None,1068.9824445405102,None,f,0.19253407807991607,1068.9824445405102,None,sing43,001,2019_Nov_18_1549,ProdFawcett_Revision2019,3.2.4,59.82915047848188,
,,,,57,0,57,0,,,,,,,,,,,,,1074.9510056260324,None,,,,,,,,,,,,,,,,,,,,,,sweet,A_silent,57,319,1069.7326729717206,None,1069.7326729717206,None,1069.7326729717206,None,6,3.985825757834391,1069.7326729717206,None,1073.7840698386835,None,1073.7840698386835,None,1074.3009009737489,None,1074.3009009737489,None,1074.3009009737489,None,r,0.6098351376649589,1074.3009009737489,None,sing43,001,2019_Nov_18_1549,ProdFawcett_Revision2019,3.2.4,59.82915047848188,
,,,,58,0,58,0,,,,,,,,,,,,,1082.9201529509464,None,,,,,,,,,,,,,,,,,,,,,,quarter,A_silent,58,246,1075.4724781598616,None,1075.4724781598616,None,1075.4724781598616,None,3,5.293621653226182,1075.4724781598616,None,1080.8195492954246,None,1080.8195492954246,None,1081.3388560090316,None,1081.3388560090316,None,1081.3388560090316,None,n,1.547436874302548,1081.3388560090316,None,sing43,001,2019_Nov_18_1549,ProdFawcett_Revision2019,3.2.4,59.82915047848188,
,,,,59,0,59,0,,,,,,,,,,,,,1086.1878102636992,None,,,,,,,,,,,,,,,,,,,,,,bicycle,C_sing,59,21,1083.438010704701,None,1083.438010704701,None,1083.438010704701,None,5,1.6404921922867288,1083.438010704701,None,1085.1269663899784,None,1085.1269663899784,None,1085.6542117490462,None,1085.6542117490462,None,1085.6542117490462,None,r,0.48750610342085565,1085.6542117490462,None,sing43,001,2019_Nov_18_1549,ProdFawcett_Revision2019,3.2.4,59.82915047848188,
,,,,60,0,60,0,,,,,,,,,,,,,1095.0571046927143,None,,,,,,,,,,,,,,,,,,,,,,still,D_new,60,304,1086.7045751552687,None,1086.7045751552687,None,1086.7045751552687,None,3,6.509323538833087,1086.7045751552687,None,1093.2733645165008,None,1093.2733645165008,None,1093.7900836907274,None,1093.7900836907274,None,1093.7900836907274,None,n,1.2237416068246603,1093.7900836907274,None,sing43,001,2019_Nov_18_1549,ProdFawcett_Revision2019,3.2.4,59.82915047848188,
,,,,61,0,61,0,,,,,,,,,,,,,1098.4414957968038,None,,,,,,,,,,,,,,,,,,,,,,member,C_sing,61,188,1095.5749584034393,None,1095.5749584034393,None,1095.5749584034393,None,4,1.8302396894951016,1095.5749584034393,None,1097.4580050444583,None,1097.4580050444583,None,1097.9748112993366,None,1097.9748112993366,None,1097.9748112993366,None,f,0.43020765625533386,1097.9748112993366,None,sing43,001,2019_Nov_18_1549,ProdFawcett_Revision2019,3.2.4,59.82915047848188,
,,,,62,0,62,0,,,,,,,,,,,,,1101.609221219067,None,,,,,,,,,,,,,,,,,,,,,,group,C_sing,62,143,1098.9584354716817,None,1098.9584354716817,None,1098.9584354716817,None,5,1.7985438870937287,1098.9584354716817,None,1100.8089139487656,None,1100.8089139487656,None,1101.32582905446,None,1101.32582905446,None,1101.32582905446,None,r,0.24690599332552665,1101.32582905446,None,sing43,001,2019_Nov_18_1549,ProdFawcett_Revision2019,3.2.4,59.82915047848188,
,,,,63,0,63,0,,,,,,,,,,,,,1107.7111118022276,None,,,,,,,,,,,,,,,,,,,,,,account,D_new,63,1,1102.1269324907244,None,1102.1269324907244,None,1102.1269324907244,None,4,4.6695292357735525,1102.1269324907244,None,1106.8608569358184,None,1106.8608569358184,None,1107.3775580719102,None,1107.3775580719102,None,1107.3775580719102,None,n,0.29917522182313405,1107.3775580719102,None,sing43,001,2019_Nov_18_1549,ProdFawcett_Revision2019,3.2.4,59.82915047848188,
,,,,64,0,64,0,,,,,,,,,,,,,1112.429240128009,None,,,,,,,,,,,,,,,,,,,,,,industry,D_new,64,161,1108.2285310426978,None,1108.2285310426978,None,1108.2285310426978,None,5,2.471682615902864,1108.2285310426978,None,1110.762076686955,None,1110.762076686955,None,1111.2787569858901,None,1111.2787569858901,None,1111.2787569858901,None,r,1.1096752824678333,1111.2787569858901,None,sing43,001,2019_Nov_18_1549,ProdFawcett_Revision2019,3.2.4,59.82915047848188,
,,,,65,0,65,0,,,,,,,,,,,,,1115.3299709834828,None,,,,,,,,,,,,,,,,,,,,,,emergency,D_new,65,110,1112.948044572854,None,1112.948044572854,None,1112.948044572854,None,4,1.599937488532305,1112.948044572854,None,1114.613390516295,None,1114.613390516295,None,1115.1300810783077,None,1115.1300810783077,None,1115.1300810783077,None,f,0.16186054033551045,1115.1300810783077,None,sing43,001,2019_Nov_18_1549,ProdFawcett_Revision2019,3.2.4,59.82915047848188,
,,,,66,0,66,0,,,,,,,,,,,,,1122.1987942439691,None,,,,,,,,,,,,,,,,,,,,,,history,D_new,66,153,1115.8479064878202,None,1115.8479064878202,None,1115.8479064878202,None,5,5.659858618340877,1115.8479064878202,None,1121.5652308725794,None,1121.5652308725794,None,1122.0821860975739,None,1122.0821860975739,None,1122.0821860975739,None,f,0.08151028951215267,1122.0821860975739,None,sing43,001,2019_Nov_18_1549,ProdFawcett_Revision2019,3.2.4,59.82915047848188,
,,,,67,0,67,0,,,,,,,,,,,,,1133.9190373855909,None,,,,,,,,,,,,,,,,,,,,,,sunset,D_new,67,315,1122.7157547560037,None,1122.7157547560037,None,1122.7157547560037,None,2,10.46339875785634,1122.7157547560037,None,1133.2355385471838,None,1133.2355385471838,None,1133.7524293946963,None,1133.7524293946963,None,1133.7524293946963,None,n,0.12302412445023947,1133.7524293946963,None,sing43,001,2019_Nov_18_1549,ProdFawcett_Revision2019,3.2.4,59.82915047848188,
,,,,68,0,68,0,,,,,,,,,,,,,1136.6531686472335,None,,,,,,,,,,,,,,,,,,,,,,permit,D_new,68,218,1134.436696097854,None,1134.436696097854,None,1134.436696097854,None,2,1.542190265005047,1134.436696097854,None,1136.0363978466203,None,1136.0363978466203,None,1136.5532989572093,None,1136.5532989572093,None,1136.5532989572093,None,n,0.06568866800807882,1136.5532989572093,None,sing43,001,2019_Nov_18_1549,ProdFawcett_Revision2019,3.2.4,59.82915047848188,
,,,,69,0,69,0,,,,,,,,,,,,,1139.3873201240285,None,,,,,,,,,,,,,,,,,,,,,,mankind,D_new,69,178,1137.1700063133476,None,1137.1700063133476,None,1137.1700063133476,None,2,1.472577680606264,1137.1700063133476,None,1138.7039425765306,None,1138.7039425765306,None,1139.220771845581,None,1139.220771845581,None,1139.220771845581,None,n,0.12595749842148507,1139.220771845581,None,sing43,001,2019_Nov_18_1549,ProdFawcett_Revision2019,3.2.4,59.82915047848188,
,,,,70,0,70,0,,,,,,,,,,,,,1142.5884574595466,None,,,,,,,,,,,,,,,,,,,,,,pressure,C_sing,70,232,1139.905917752324,None,1139.905917752324,None,1139.905917752324,None,6,1.7203669205482583,1139.905917752324,None,1141.688198394606,None,1141.688198394606,None,1142.204871540488,None,1142.204871540488,None,1142.204871540488,None,r,0.3498079560613405,1142.204871540488,None,sing43,001,2019_Nov_18_1549,ProdFawcett_Revision2019,3.2.4,59.82915047848188,
,,,,71,0,71,0,,,,,,,,,,,,,1147.456473668988,None,,,,,,,,,,,,,,,,,,,,,,bitter,D_new,71,23,1143.1055756497617,None,1143.1055756497617,None,1143.1055756497617,None,4,1.936547749743113,1143.1055756497617,None,1145.0935802899166,None,1145.0935802899166,None,1145.6227628824945,None,1145.6227628824945,None,1145.6227628824945,None,f,1.7953200369465776,1145.6227628824945,None,sing43,001,2019_Nov_18_1549,ProdFawcett_Revision2019,3.2.4,59.82915047848188,
,,,,72,0,72,0,,,,,,,,,,,,,1150.340883122215,None,,,,,,,,,,,,,,,,,,,,,,error,D_new,72,117,1147.9746290519724,None,1147.9746290519724,None,1147.9746290519724,None,2,1.5558591283852365,1147.9746290519724,None,1149.5905589022868,None,1149.5905589022868,None,1150.1074736969786,None,1150.1074736969786,None,1150.1074736969786,None,n,0.19835852970572887,1150.1074736969786,None,sing43,001,2019_Nov_18_1549,ProdFawcett_Revision2019,3.2.4,59.82915047848188,
,,,,73,0,73,0,,,,,,,,,,,,,1152.7248920044412,None,,,,,,,,,,,,,,,,,,,,,,column,D_new,73,57,1150.8589025971805,None,1150.8589025971805,None,1150.8589025971805,None,2,1.0867684058948726,1150.8589025971805,None,1151.9944737996093,None,1151.9944737996093,None,1152.524724374186,None,1152.524724374186,None,1152.524724374186,None,n,0.1575994974200512,1152.524724374186,None,sing43,001,2019_Nov_18_1549,ProdFawcett_Revision2019,3.2.4,59.82915047848188,
,,,,74,0,74,0,,,,,,,,,,,,,1156.7095079632154,None,,,,,,,,,,,,,,,,,,,,,,surprise,D_new,74,317,1153.2435844884485,None,1153.2435844884485,None,1153.2435844884485,None,6,2.6300568201249916,1153.2435844884485,None,1155.9159967158157,None,1155.9159967158157,None,1156.4427276770311,None,1156.4427276770311,None,1156.4427276770311,None,r,0.23085423009888473,1156.4427276770311,None,sing43,001,2019_Nov_18_1549,ProdFawcett_Revision2019,3.2.4,59.82915047848188,
,,,,75,0,75,0,,,,,,,,,,,,,1159.7604339726513,None,,,,,,,,,,,,,,,,,,,,,,order,D_new,75,207,1157.2261627599592,None,1157.2261627599592,None,1157.2261627599592,None,4,1.6472101536037371,1157.2261627599592,None,1158.9161721211294,None,1158.9161721211294,None,1159.4436721911052,None,1159.4436721911052,None,1159.4436721911052,None,f,0.2695273697599987,1159.4436721911052,None,sing43,001,2019_Nov_18_1549,ProdFawcett_Revision2019,3.2.4,59.82915047848188,
,,,,76,0,76,0,,,,,,,,,,,,,1162.7946939892581,None,,,,,,,,,,,,,,,,,,,,,,country,D_new,76,73,1160.277415010839,None,1160.277415010839,None,1160.277415010839,None,4,1.7722358890468968,1160.277415010839,None,1162.084170603438,None,1162.084170603438,None,1162.6112850305253,None,1162.6112850305253,None,1162.6112850305253,None,f,0.15011273834443273,1162.6112850305253,None,sing43,001,2019_Nov_18_1549,ProdFawcett_Revision2019,3.2.4,59.82915047848188,
,,,,77,0,77,0,,,,,,,,,,,,,1168.6798311879356,None,,,,,,,,,,,,,,,,,,,,,,shear,D_new,77,283,1163.3125760011944,None,1163.3125760011944,None,1163.3125760011944,None,1,2.320264289779516,1163.3125760011944,None,1165.6954379068302,None,1165.6954379068302,None,1166.212406193923,None,1166.212406193923,None,1166.212406193923,None,n,2.420264600781593,1166.212406193923,None,sing43,001,2019_Nov_18_1549,ProdFawcett_Revision2019,3.2.4,59.82915047848188,
,,,,78,0,78,0,,,,,,,,,,,,,1173.0977032477977,None,,,,,,,,,,,,,,,,,,,,,,employment,D_new,78,111,1169.2022678289868,None,1169.2022678289868,None,1169.2022678289868,None,4,2.67865964216071,1169.2022678289868,None,1171.9308050917307,None,1171.9308050917307,None,1172.4475133808755,None,1172.4475133808755,None,1172.4475133808755,None,f,0.6009190118838887,1172.4475133808755,None,sing43,001,2019_Nov_18_1549,ProdFawcett_Revision2019,3.2.4,59.82915047848188,
,,,,79,0,79,0,,,,,,,,,,,,,1178.5827888200884,None,,,,,,,,,,,,,,,,,,,,,,heavy,C_sing,79,151,1173.6144323740991,None,1173.6144323740991,None,1173.6144323740991,None,3,4.169719569199515,1173.6144323740991,None,1177.8491756883259,None,1177.8491756883259,None,1178.366095459055,None,1178.366095459055,None,1178.366095459055,None,f,0.1699456678925344,1178.366095459055,None,sing43,001,2019_Nov_18_1549,ProdFawcett_Revision2019,3.2.4,59.82915047848188,
,,,,80,0,80,0,,,,,,,,,,,,,1181.4337042554453,None,,,,,,,,,,,,,,,,,,,,,,prime,C_sing,80,235,1179.0995835678814,None,1179.0995835678814,None,1179.0995835678814,None,6,1.4927365405965247,1179.0995835678814,None,1180.6392223697758,None,1180.6392223697758,None,1181.1668440416624,None,1181.1668440416624,None,1181.1668440416624,None,r,0.21739311627516145,1181.1668440416624,None,sing43,001,2019_Nov_18_1549,ProdFawcett_Revision2019,3.2.4,59.82915047848188,
,,,,81,0,81,0,,,,,,,,,,,,,1183.9177806251773,None,,,,,,,,,,,,,,,,,,,,,,place,C_sing,81,222,1181.9503836213735,None,1181.9503836213735,None,1181.9503836213735,None,6,1.1534037649944366,1181.9503836213735,None,1183.1559412329998,None,1183.1559412329998,None,1183.6844162952784,None,1183.6844162952784,None,1183.6844162952784,None,r,0.1873017748903294,1183.6844162952784,None,sing43,001,2019_Nov_18_1549,ProdFawcett_Revision2019,3.2.4,59.82915047848188,
,,,,82,0,82,0,,,,,,,,,,,,,1186.9853940866024,None,,,,,,,,,,,,,,,,,,,,,,quiet,C_sing,82,249,1184.4382137892217,None,1184.4382137892217,None,1184.4382137892217,None,6,1.7297884251156574,1184.4382137892217,None,1186.218468251328,None,1186.218468251328,None,1186.73760609067,None,1186.73760609067,None,1186.73760609067,None,r,0.20662248360258673,1186.73760609067,None,sing43,001,2019_Nov_18_1549,ProdFawcett_Revision2019,3.2.4,59.82915047848188,
,,,,83,0,83,0,,,,,,,,,,,,,1190.8365085634496,None,,,,,,,,,,,,,,,,,,,,,,reading,B_aloud,83,254,1187.5035065512648,None,1187.5035065512648,None,1187.5035065512648,None,4,1.8081233808443358,1187.5035065512648,None,1189.3694188299478,None,1189.3694188299478,None,1189.8863227395577,None,1189.8863227395577,None,1189.8863227395577,None,f,0.9130627198392176,1189.8863227395577,None,sing43,001,2019_Nov_18_1549,ProdFawcett_Revision2019,3.2.4,59.82915047848188,
,,,,84,0,84,0,,,,,,,,,,,,,1193.7875120124654,None,,,,,,,,,,,,,,,,,,,,,,rough,D_new,84,266,1191.353626442662,None,1191.353626442662,None,1191.353626442662,None,5,1.7741840076387234,1191.353626442662,None,1193.1763871481398,None,1193.1763871481398,None,1193.7041080297695,None,1193.7041080297695,None,1193.7041080297695,None,f,0.047148575143182825,1193.7041080297695,None,sing43,001,2019_Nov_18_1549,ProdFawcett_Revision2019,3.2.4,59.82915047848188,
,,,,85,0,85,0,,,,,,,,,,,,,1199.322438818067,None,,,,,,,,,,,,,,,,,,,,,,court,D_new,85,75,1194.3042442487895,None,1194.3042442487895,None,1194.3042442487895,None,2,2.454711840791788,1194.3042442487895,None,1196.8079146982818,None,1196.8079146982818,None,1197.338522303532,None,1197.338522303532,None,1197.338522303532,None,n,1.9409860639862018,1197.338522303532,None,sing43,001,2019_Nov_18_1549,ProdFawcett_Revision2019,3.2.4,59.82915047848188,
,,,,86,0,86,0,,,,,,,,,,,,,1203.7571071807333,None,,,,,,,,,,,,,,,,,,,,,,trash,A_silent,86,337,1199.8392512929922,None,1199.8392512929922,None,1199.8392512929922,None,6,2.8474717065628283,1199.8392512929922,None,1202.7401074824056,None,1202.7401074824056,None,1203.2570760805002,None,1203.2570760805002,None,1203.2570760805002,None,r,0.4534302001920878,1203.2570760805002,None,sing43,001,2019_Nov_18_1549,ProdFawcett_Revision2019,3.2.4,59.82915047848188,
,,,,87,0,87,0,,,,,,,,,,,,,1206.741377926921,None,,,,,,,,,,,,,,,,,,,,,,election,A_silent,87,109,1204.27394515785,None,1204.27394515785,None,1204.27394515785,None,6,1.588440354418708,1204.27394515785,None,1205.9244052857957,None,1205.9244052857957,None,1206.4413922330286,None,1206.4413922330286,None,1206.4413922330286,None,r,0.2612830090101852,1206.4413922330286,None,sing43,001,2019_Nov_18_1549,ProdFawcett_Revision2019,3.2.4,59.82915047848188,
,,,,88,0,88,0,,,,,,,,,,,,,1209.7424172967058,None,,,,,,,,,,,,,,,,,,,,,,expansion,D_new,88,123,1207.2591041266905,None,1207.2591041266905,None,1207.2591041266905,None,4,1.6832180033024997,1207.2591041266905,None,1208.9921148469402,None,1208.9921148469402,None,1209.5089011976706,None,1209.5089011976706,None,1209.5089011976706,None,f,0.19357842390218138,1209.5089011976706,None,sing43,001,2019_Nov_18_1549,ProdFawcett_Revision2019,3.2.4,59.82915047848188,
,,,,89,0,89,0,,,,,,,,,,,,,1213.3768169533596,None,,,,,,,,,,,,,,,,,,,,,,month,C_sing,89,193,1210.2603944753546,None,1210.2603944753546,None,1210.2603944753546,None,3,2.258290855598716,1210.2603944753546,None,1212.5767603509357,None,1212.5767603509357,None,1213.093287636725,None,1213.093287636725,None,1213.093287636725,None,f,0.24138041493915807,1213.093287636725,None,sing43,001,2019_Nov_18_1549,ProdFawcett_Revision2019,3.2.4,59.82915047848188,
,,,,90,0,90,0,,,,,,,,,,,,,1216.011015080503,None,,,,,,,,,,,,,,,,,,,,,,nature,B_aloud,90,200,1213.8936387583544,None,1213.8936387583544,None,1213.8936387583544,None,6,1.2727913392072878,1213.8936387583544,None,1215.2274027262465,None,1215.2274027262465,None,1215.7442285742727,None,1215.7442285742727,None,1215.7442285742727,None,r,0.22960773276190594,1215.7442285742727,None,sing43,001,2019_Nov_18_1549,ProdFawcett_Revision2019,3.2.4,59.82915047848188,
,,,,91,0,91,0,,,,,,,,,,,,,1218.661767239637,None,,,,,,,,,,,,,,,,,,,,,,corner,A_silent,91,69,1216.528293436918,None,1216.528293436918,None,1216.528293436918,None,6,1.2693687585715452,1216.528293436918,None,1217.8614456632286,None,1217.8614456632286,None,1218.3784030652396,None,1218.3784030652396,None,1218.3784030652396,None,r,0.24352508700303588,1218.3784030652396,None,sing43,001,2019_Nov_18_1549,ProdFawcett_Revision2019,3.2.4,59.82915047848188,
,,,,92,0,92,0,,,,,,,,,,,,,1221.2125461449714,None,,,,,,,,,,,,,,,,,,,,,,graduate,B_aloud,92,141,1219.1793659284513,None,1219.1793659284513,None,1219.1793659284513,None,6,1.194288442220568,1219.1793659284513,None,1220.4172348160891,None,1220.4172348160891,None,1220.9456815771555,None,1220.9456815771555,None,1220.9456815771555,None,r,0.21978503519039805,1220.9456815771555,None,sing43,001,2019_Nov_18_1549,ProdFawcett_Revision2019,3.2.4,59.82915047848188,
,,,,93,0,93,0,,,,,,,,,,,,,1227.4144840004856,None,,,,,,,,,,,,,,,,,,,,,,problem,C_sing,93,238,1221.7303189950899,None,1221.7303189950899,None,1221.7303189950899,None,3,2.3151423924173287,1221.7303189950899,None,1224.0966722750754,None,1224.0966722750754,None,1224.6134552047797,None,1224.6134552047797,None,1224.6134552047797,None,f,2.759783355777472,1224.6134552047797,None,sing43,001,2019_Nov_18_1549,ProdFawcett_Revision2019,3.2.4,59.82915047848188,
,,,,94,0,94,0,,,,,,,,,,,,,1230.7989183338987,None,,,,,,,,,,,,,,,,,,,,,,revolution,D_new,94,264,1227.9332274888739,None,1227.9332274888739,None,1227.9332274888739,None,2,1.8080953906346622,1227.9332274888739,None,1229.7984347252768,None,1229.7984347252768,None,1230.315361649059,None,1230.315361649059,None,1230.315361649059,None,n,0.44224904444490676,1230.315361649059,None,sing43,001,2019_Nov_18_1549,ProdFawcett_Revision2019,3.2.4,59.82915047848188,
,,,,95,0,95,0,,,,,,,,,,,,,1233.8331307671497,None,,,,,,,,,,,,,,,,,,,,,,region,D_new,95,256,1231.3163789376786,None,1231.3163789376786,None,1231.3163789376786,None,4,1.7927166364470395,1231.3163789376786,None,1233.1663060076326,None,1233.1663060076326,None,1233.6830901813455,None,1233.6830901813455,None,1233.6830901813455,None,f,0.10620947250936297,1233.6830901813455,None,sing43,001,2019_Nov_18_1549,ProdFawcett_Revision2019,3.2.4,59.82915047848188,
,,,,96,0,96,0,,,,,,,,,,,,,1237.9677220012381,None,,,,,,,,,,,,,,,,,,,,,,grade,A_silent,96,140,1234.3499152518652,None,1234.3499152518652,None,1234.3499152518652,None,3,2.8146933050529697,1234.3499152518652,None,1237.2174537617293,None,1237.2174537617293,None,1237.7343390111992,None,1237.7343390111992,None,1237.7343390111992,None,f,0.19826460700187454,1237.7343390111992,None,sing43,001,2019_Nov_18_1549,ProdFawcett_Revision2019,3.2.4,59.82915047848188,
,,,,97,0,97,0,,,,,,,,,,,,,1240.9352791712417,None,,,,,,,,,,,,,,,,,,,,,,route,C_sing,97,267,1238.4845708634366,None,1238.4845708634366,None,1238.4845708634366,None,6,1.4797764515260496,1238.4845708634366,None,1240.0060791625338,None,1240.0060791625338,None,1240.5350477855081,None,1240.5350477855081,None,1240.5350477855081,None,r,0.36525450875615206,1240.5350477855081,None,sing43,001,2019_Nov_18_1549,ProdFawcett_Revision2019,3.2.4,59.82915047848188,
,,,,98,0,98,0,,,,,,,,,,,,,1243.936220886295,None,,,,,,,,,,,,,,,,,,,,,,skill,D_new,98,289,1241.4520785840687,None,1241.4520785840687,None,1241.4520785840687,None,6,1.560285935542197,1241.4520785840687,None,1243.0692729698549,None,1243.0692729698549,None,1243.586095396855,None,1243.586095396855,None,1243.586095396855,None,r,0.314148739974371,1243.586095396855,None,sing43,001,2019_Nov_18_1549,ProdFawcett_Revision2019,3.2.4,59.82915047848188,
,,,,99,0,99,0,,,,,,,,,,,,,1249.0210837809182,None,,,,,,,,,,,,,,,,,,,,,,interview,D_new,99,165,1244.4539190958549,None,1244.4539190958549,None,1244.4539190958549,None,6,3.661915898749612,1244.4539190958549,None,1248.1708018573063,None,1248.1708018573063,None,1248.6875704809036,None,1248.6875704809036,None,1248.6875704809036,None,r,0.29252288199586474,1248.6875704809036,None,sing43,001,2019_Nov_18_1549,ProdFawcett_Revision2019,3.2.4,59.82915047848188,
,,,,100,0,100,0,,,,,,,,,,,,,1251.9553892038657,None,,,,,,,,,,,,,,,,,,,,,,question,D_new,100,247,1249.5410647475755,None,1249.5410647475755,None,1249.5410647475755,None,5,1.5505686677588528,1249.5410647475755,None,1251.154985833844,None,1251.154985833844,None,1251.672367754035,None,1251.672367754035,None,1251.672367754035,None,f,0.23522723385212885,1251.672367754035,None,sing43,001,2019_Nov_18_1549,ProdFawcett_Revision2019,3.2.4,59.82915047848188,
,,,,101,0,101,0,,,,,,,,,,,,,1254.6393256225492,None,,,,,,,,,,,,,,,,,,,,,,angle,A_silent,101,7,1252.473463415241,None,1252.473463415241,None,1252.473463415241,None,6,1.3461403055907795,1252.473463415241,None,1253.872616866901,None,1253.872616866901,None,1254.3893823804747,None,1254.3893823804747,None,1254.3893823804747,None,r,0.20670800924290234,1254.3893823804747,None,sing43,001,2019_Nov_18_1549,ProdFawcett_Revision2019,3.2.4,59.82915047848188,
,,,,102,0,102,0,,,,,,,,,,,,,1257.9070557098476,None,,,,,,,,,,,,,,,,,,,,,,trail,D_new,102,336,1255.1565249843725,None,1255.1565249843725,None,1255.1565249843725,None,2,1.9988097940849912,1255.1565249843725,None,1257.1943714798426,None,1257.1943714798426,None,1257.7236722533053,None,1257.7236722533053,None,1257.7236722533053,None,n,0.14388895972842874,1257.7236722533053,None,sing43,001,2019_Nov_18_1549,ProdFawcett_Revision2019,3.2.4,59.82915047848188,
,,,,103,0,103,0,,,,,,,,,,,,,1261.1916116451712,None,,,,,,,,,,,,,,,,,,,,,,level,C_sing,103,170,1258.4289393887566,None,1258.4289393887566,None,1258.4289393887566,None,4,1.8785000979651159,1258.4289393887566,None,1260.3463710693195,None,1260.3463710693195,None,1260.8745864446528,None,1260.8745864446528,None,1260.8745864446528,None,f,0.27313655179204943,1260.8745864446528,None,sing43,001,2019_Nov_18_1549,ProdFawcett_Revision2019,3.2.4,59.82915047848188,
,,,,104,0,104,0,,,,,,,,,,,,,1264.0922740801334,None,,,,,,,,,,,,,,,,,,,,,,salary,D_new,104,271,1261.7082757719863,None,1261.7082757719863,None,1261.7082757719863,None,2,1.575332228238949,1261.7082757719863,None,1263.3421293085485,None,1263.3421293085485,None,1263.8589980748957,None,1263.8589980748957,None,1263.8589980748957,None,n,0.192035541345831,1263.8589980748957,None,sing43,001,2019_Nov_18_1549,ProdFawcett_Revision2019,3.2.4,59.82915047848188,
,,,,105,0,105,0,,,,,,,,,,,,,1267.4600707219297,None,,,,,,,,,,,,,,,,,,,,,,chief,D_new,105,48,1264.6093717441945,None,1264.6093717441945,None,1264.6093717441945,None,1,1.8497124783471008,1264.6093717441945,None,1266.509797195381,None,1266.509797195381,None,1267.0264809153423,None,1267.0264809153423,None,1267.0264809153423,None,n,0.40045655141966563,1267.0264809153423,None,sing43,001,2019_Nov_18_1549,ProdFawcett_Revision2019,3.2.4,59.82915047848188,
,,,,106,0,106,0,,,,,,,,,,,,,1270.1609035861684,None,,,,,,,,,,,,,,,,,,,,,,disease,C_sing,106,97,1267.9781175651005,None,1267.9781175651005,None,1267.9781175651005,None,6,1.3284946554249473,1267.9781175651005,None,1269.3607176067753,None,1269.3607176067753,None,1269.877345657319,None,1269.877345657319,None,1269.877345657319,None,r,0.2370839177583548,1269.877345657319,None,sing43,001,2019_Nov_18_1549,ProdFawcett_Revision2019,3.2.4,59.82915047848188,
,,,,107,0,107,0,,,,,,,,,,,,,1273.161864583366,None,,,,,,,,,,,,,,,,,,,,,,split,D_new,107,299,1270.677755869392,None,1270.677755869392,None,1270.677755869392,None,4,1.7647391778964447,1270.677755869392,None,1272.4948818346656,None,1272.4948818346656,None,1273.011813112481,None,1273.011813112481,None,1273.011813112481,None,f,0.11080764194957737,1273.011813112481,None,sing43,001,2019_Nov_18_1549,ProdFawcett_Revision2019,3.2.4,59.82915047848188,
,,,,108,0,108,0,,,,,,,,,,,,,1276.062736322895,None,,,,,,,,,,,,,,,,,,,,,,machinery,D_new,108,175,1273.680105180988,None,1273.680105180988,None,1273.680105180988,None,1,1.546217434168284,1273.680105180988,None,1275.2790176058425,None,1275.2790176058425,None,1275.7959457736342,None,1275.7959457736342,None,1275.7959457736342,None,n,0.22237786160985706,1275.7959457736342,None,sing43,001,2019_Nov_18_1549,ProdFawcett_Revision2019,3.2.4,59.82915047848188,
,,,,109,0,109,0,,,,,,,,,,,,,1279.013625323054,None,,,,,,,,,,,,,,,,,,,,,,property,C_sing,109,242,1276.580136903226,None,1276.580136903226,None,1276.580136903226,None,3,1.7178851219596254,1276.580136903226,None,1278.363432657111,None,1278.363432657111,None,1278.8801247741349,None,1278.8801247741349,None,1278.8801247741349,None,f,0.09051162993182515,1278.8801247741349,None,sing43,001,2019_Nov_18_1549,ProdFawcett_Revision2019,3.2.4,59.82915047848188,
,,,,110,0,110,0,,,,,,,,,,,,,1281.9144553882716,None,,,,,,,,,,,,,,,,,,,,,,division,D_new,110,101,1279.5311462612863,None,1279.5311462612863,None,1279.5311462612863,None,2,1.6147343573602484,1279.5311462612863,None,1281.19763544929,None,1281.19763544929,None,1281.7144379721412,None,1281.7144379721412,None,1281.7144379721412,None,f,0.15134679558741482,1281.7144379721412,None,sing43,001,2019_Nov_18_1549,ProdFawcett_Revision2019,3.2.4,59.82915047848188,
,,,,111,0,111,0,,,,,,,,,,,,,1285.7990290507278,None,,,,,,,,,,,,,,,,,,,,,,drama,A_silent,111,103,1282.4313182455744,None,1282.4313182455744,None,1282.4313182455744,None,3,2.6908384933803973,1282.4313182455744,None,1285.165430847077,None,1285.165430847077,None,1285.6822128437743,None,1285.6822128437743,None,1285.6822128437743,None,f,0.07935255534994212,1285.6822128437743,None,sing43,001,2019_Nov_18_1549,ProdFawcett_Revision2019,3.2.4,59.82915047848188,
,,,,112,0,112,0,,,,,,,,,,,,,1288.8164999175851,None,,,,,,,,,,,,,,,,,,,,,,alert,D_new,112,6,1286.3169592680251,None,1286.3169592680251,None,1286.3169592680251,None,4,1.8524113565608786,1286.3169592680251,None,1288.2331556473364,None,1288.2331556473364,None,1288.7498085780662,None,1288.7498085780662,None,1288.7498085780662,None,f,0.019526592253896524,1288.7498085780662,None,sing43,001,2019_Nov_18_1549,ProdFawcett_Revision2019,3.2.4,59.82915047848188,
,,,,113,0,113,0,,,,,,,,,,,,,1291.9175504834539,None,,,,,,,,,,,,,,,,,,,,,,scale,D_new,113,272,1289.333442391484,None,1289.333442391484,None,1289.333442391484,None,4,1.8517594956783796,1289.333442391484,None,1291.23957007038,None,1291.23957007038,None,1291.767502433594,None,1291.767502433594,None,1291.767502433594,None,f,0.10597653176500899,1291.767502433594,None,sing43,001,2019_Nov_18_1549,ProdFawcett_Revision2019,3.2.4,59.82915047848188,
,,,,114,0,114,0,,,,,,,,,,,,,1294.7851916240852,None,,,,,,,,,,,,,,,,,,,,,,incident,B_aloud,114,158,1292.4351093639698,None,1292.4351093639698,None,1292.4351093639698,None,6,1.6539001247119813,1292.4351093639698,None,1294.1515234449107,None,1294.1515234449107,None,1294.6684481916773,None,1294.6684481916773,None,1294.6684481916773,None,r,0.07680078123757994,1294.6684481916773,None,sing43,001,2019_Nov_18_1549,ProdFawcett_Revision2019,3.2.4,59.82915047848188,
,,,,115,0,115,0,,,,,,,,,,,,,1301.1703170046749,None,,,,,,,,,,,,,,,,,,,,,,platform,C_sing,115,224,1295.3030416027823,None,1295.3030416027823,None,1295.3030416027823,None,6,4.306315835306123,1295.3030416027823,None,1299.6698349510643,None,1299.6698349510643,None,1300.186729219602,None,1300.186729219602,None,1300.186729219602,None,r,0.950274148553035,1300.186729219602,None,sing43,001,2019_Nov_18_1549,ProdFawcett_Revision2019,3.2.4,59.82915047848188,
,,,,116,0,116,0,,,,,,,,,,,,,1304.4380984073578,None,,,,,,,,,,,,,,,,,,,,,,taste,C_sing,116,322,1301.6872426844484,None,1301.6872426844484,None,1301.6872426844484,None,6,2.0095654986453155,1301.6872426844484,None,1303.7544854310963,None,1303.7544854310963,None,1304.2713513984227,None,1304.2713513984227,None,1304.2713513984227,None,r,0.1290715647455727,1304.2713513984227,None,sing43,001,2019_Nov_18_1549,ProdFawcett_Revision2019,3.2.4,59.82915047848188,
,,,,117,0,117,0,,,,,,,,,,,,,1307.372228113989,None,,,,,,,,,,,,,,,,,,,,,,breath,D_new,117,27,1304.9549286094161,None,1304.9549286094161,None,1304.9549286094161,None,3,1.4693261512529716,1304.9549286094161,None,1306.478391558153,None,1306.478391558153,None,1307.0055271333986,None,1307.0055271333986,None,1307.0055271333986,None,f,0.323340102817383,1307.0055271333986,None,sing43,001,2019_Nov_18_1549,ProdFawcett_Revision2019,3.2.4,59.82915047848188,
,,,,118,0,118,0,,,,,,,,,,,,,1309.7898622570683,None,,,,,,,,,,,,,,,,,,,,,,surface,D_new,118,316,1307.8901275420558,None,1307.8901275420558,None,1307.8901275420558,None,3,1.2383182860039597,1307.8901275420558,None,1309.1895671158582,None,1309.1895671158582,None,1309.7063435145137,None,1309.7063435145137,None,1309.7063435145137,None,f,0.045740045593447576,1309.7063435145137,None,sing43,001,2019_Nov_18_1549,ProdFawcett_Revision2019,3.2.4,59.82915047848188,
,,,,119,0,119,0,,,,,,,,,,,,,1316.5417598377817,None,,,,,,,,,,,,,,,,,,,,,,front,C_sing,119,134,1310.3064903076129,None,1310.3064903076129,None,1310.3064903076129,None,4,5.581374381494243,1310.3064903076129,None,1315.9297943341599,None,1315.9297943341599,None,1316.4583322189092,None,1316.4583322189092,None,1316.4583322189092,None,f,0.0453512926815165,1316.4583322189092,None,sing43,001,2019_Nov_18_1549,ProdFawcett_Revision2019,3.2.4,59.82915047848188,
,,,,120,0,120,0,,,,,,,,,,,,,1320.8763230816603,None,,,,,,,,,,,,,,,,,,,,,,equipment,D_new,120,116,1317.0636453827046,None,1317.0636453827046,None,1317.0636453827046,None,3,2.495947639647966,1317.0636453827046,None,1319.6092666254071,None,1319.6092666254071,None,1320.1289847950966,None,1320.1289847950966,None,1320.1289847950966,None,f,0.7023875648828835,1320.1289847950966,None,sing43,001,2019_Nov_18_1549,ProdFawcett_Revision2019,3.2.4,59.82915047848188,
,,,,121,0,121,0,,,,,,,,,,,,,1323.443950227188,None,,,,,,,,,,,,,,,,,,,,,,interior,B_aloud,121,164,1321.3941232999841,None,1321.3941232999841,None,1321.3941232999841,None,6,1.30120917705608,1321.3941232999841,None,1322.7603761262171,None,1322.7603761262171,None,1323.2770446070645,None,1323.2770446070645,None,1323.2770446070645,None,r,0.12272929424216272,1323.2770446070645,None,sing43,001,2019_Nov_18_1549,ProdFawcett_Revision2019,3.2.4,59.82915047848188,
,,,,122,0,122,0,,,,,,,,,,,,,1327.0950572399788,None,,,,,,,,,,,,,,,,,,,,,,count,D_new,122,72,1323.961122220806,None,1323.961122220806,None,1323.961122220806,None,6,1.942522415492931,1323.961122220806,None,1325.9496365937785,None,1325.9496365937785,None,1326.4780040492506,None,1326.4780040492506,None,1326.4780040492506,None,r,0.5690023978277168,1326.4780040492506,None,sing43,001,2019_Nov_18_1549,ProdFawcett_Revision2019,3.2.4,59.82915047848188,
,,,,123,0,123,0,,,,,,,,,,,,,1331.3797804945561,None,,,,,,,,,,,,,,,,,,,,,,beauty,D_new,123,18,1327.6128092529416,None,1327.6128092529416,None,1327.6128092529416,None,4,3.0102562348192805,1327.6128092529416,None,1330.6794878413639,None,1330.6794878413639,None,1331.1961482361503,None,1331.1961482361503,None,1331.1961482361503,None,f,0.13870112987206085,1331.1961482361503,None,sing43,001,2019_Nov_18_1549,ProdFawcett_Revision2019,3.2.4,59.82915047848188,
,,,,124,0,124,0,,,,,,,,,,,,,1334.3639305718407,None,,,,,,,,,,,,,,,,,,,,,,turkey,B_aloud,124,342,1331.8858683651542,None,1331.8858683651542,None,1331.8858683651542,None,6,1.232854286078691,1331.8858683651542,None,1333.1802920933878,None,1333.1802920933878,None,1333.697042056845,None,1333.697042056845,None,1333.697042056845,None,r,0.6215785856238654,1333.697042056845,None,sing43,001,2019_Nov_18_1549,ProdFawcett_Revision2019,3.2.4,59.82915047848188,
,,,,125,0,125,0,,,,,,,,,,,,,1337.8650013528604,None,,,,,,,,,,,,,,,,,,,,,,junior,D_new,125,167,1334.8848184212902,None,1334.8848184212902,None,1334.8848184212902,None,1,2.1542350742211056,1334.8848184212902,None,1337.0980686755347,None,1337.0980686755347,None,1337.6151937078012,None,1337.6151937078012,None,1337.6151937078012,None,n,0.20785809585686366,1337.6151937078012,None,sing43,001,2019_Nov_18_1549,ProdFawcett_Revision2019,3.2.4,59.82915047848188,
,,,,126,0,126,0,,,,,,,,,,,,,1340.8659063696387,None,,,,,,,,,,,,,,,,,,,,,,drink,D_new,126,105,1338.3819288986479,None,1338.3819288986479,None,1338.3819288986479,None,1,1.6882521980087404,1338.3819288986479,None,1340.1322705347065,None,1340.1322705347065,None,1340.6490761675805,None,1340.6490761675805,None,1340.6490761675805,None,n,0.17374114032099897,1340.6490761675805,None,sing43,001,2019_Nov_18_1549,ProdFawcett_Revision2019,3.2.4,59.82915047848188,
,,,,127,0,127,0,,,,,,,,,,,,,1344.0000945447082,None,,,,,,,,,,,,,,,,,,,,,,answer,D_new,127,8,1341.3826672181776,None,1341.3826672181776,None,1341.3826672181776,None,2,1.887321057034569,1341.3826672181776,None,1343.3219113581163,None,1343.3219113581163,None,1343.8500250356883,None,1343.8500250356883,None,1343.8500250356883,None,n,0.11633633035944513,1343.8500250356883,None,sing43,001,2019_Nov_18_1549,ProdFawcett_Revision2019,3.2.4,59.82915047848188,
,,,,128,0,128,0,,,,,,,,,,,,,1346.8509508896223,None,,,,,,,,,,,,,,,,,,,,,,education,D_new,128,108,1344.5168382881193,None,1344.5168382881193,None,1344.5168382881193,None,6,1.569002086825094,1344.5168382881193,None,1346.1507552691573,None,1346.1507552691573,None,1346.667543174899,None,1346.667543174899,None,1346.667543174899,None,r,0.13849058129471814,1346.667543174899,None,sing43,001,2019_Nov_18_1549,ProdFawcett_Revision2019,3.2.4,59.82915047848188,
,,,,129,0,129,0,,,,,,,,,,,,,1350.2354458684904,None,,,,,,,,,,,,,,,,,,,,,,service,D_new,129,280,1347.368514435174,None,1347.368514435174,None,1347.368514435174,None,6,1.405306943749565,1347.368514435174,None,1348.8350680006597,None,1348.8350680006597,None,1349.3518950926946,None,1349.3518950926946,None,1349.3518950926946,None,r,0.845723251466552,1349.3518950926946,None,sing43,001,2019_Nov_18_1549,ProdFawcett_Revision2019,3.2.4,59.82915047848188,
,,,,130,0,130,0,,,,,,,,,,,,,1353.086241878952,None,,,,,,,,,,,,,,,,,,,,,,figure,C_sing,130,128,1350.752105330269,None,1350.752105330269,None,1350.752105330269,None,6,1.6776787408134624,1350.752105330269,None,1352.4862082907002,None,1352.4862082907002,None,1353.002811150056,None,1353.002811150056,None,1353.002811150056,None,r,0.04290339334602322,1353.002811150056,None,sing43,001,2019_Nov_18_1549,ProdFawcett_Revision2019,3.2.4,59.82915047848188,
,,,,131,0,131,0,,,,,,,,,,,,,1358.9215328682812,None,,,,,,,,,,,,,,,,,,,,,,whole,D_new,131,355,1353.6030114355563,None,1353.6030114355563,None,1353.6030114355563,None,3,4.162456420798662,1353.6030114355563,None,1357.8086505297924,None,1357.8086505297924,None,1358.3378362323938,None,1358.3378362323938,None,1358.3378362323938,None,f,0.54719180446682,1358.3378362323938,None,sing43,001,2019_Nov_18_1549,ProdFawcett_Revision2019,3.2.4,59.82915047848188,
,,,,132,0,132,0,,,,,,,,,,,,,1361.8890312588446,None,,,,,,,,,,,,,,,,,,,,,,curve,A_silent,132,82,1359.4384178067494,None,1359.4384178067494,None,1359.4384178067494,None,4,1.6146578507878075,1359.4384178067494,None,1361.1054092635159,None,1361.1054092635159,None,1361.6222945129866,None,1361.6222945129866,None,1361.6222945129866,None,f,0.22324804612799198,1361.6222945129866,None,sing43,001,2019_Nov_18_1549,ProdFawcett_Revision2019,3.2.4,59.82915047848188,
,,,,133,0,133,0,,,,,,,,,,,,,1364.7564674489413,None,,,,,,,,,,,,,,,,,,,,,,broke,B_aloud,133,32,1362.4067403534855,None,1362.4067403534855,None,1362.4067403534855,None,6,1.5824355214417665,1362.4067403534855,None,1364.0230726408145,None,1364.0230726408145,None,1364.5398692546214,None,1364.5398692546214,None,1364.5398692546214,None,r,0.16881797344740335,1364.5398692546214,None,sing43,001,2019_Nov_18_1549,ProdFawcett_Revision2019,3.2.4,59.82915047848188,
,,,,134,0,134,0,,,,,,,,,,,,,1367.2574216040884,None,,,,,,,,,,,,,,,,,,,,,,discovery,D_new,134,95,1365.2734295159871,None,1365.2734295159871,None,1365.2734295159871,None,6,1.2918501839576493,1365.2734295159871,None,1366.6237695970349,None,1366.6237695970349,None,1367.140653602496,None,1367.140653602496,None,1367.140653602496,None,r,0.07196967105210206,1367.140653602496,None,sing43,001,2019_Nov_18_1549,ProdFawcett_Revision2019,3.2.4,59.82915047848188,
,,,,135,0,135,0,,,,,,,,,,,,,1371.7421762699005,None,,,,,,,,,,,,,,,,,,,,,,executive,D_new,135,122,1367.7758061957884,None,1367.7758061957884,None,1367.7758061957884,None,4,3.1411521392292343,1367.7758061957884,None,1370.9751409618066,None,1370.9751409618066,None,1371.4921372391082,None,1371.4921372391082,None,1371.4921372391082,None,f,0.21650551562652254,1371.4921372391082,None,sing43,001,2019_Nov_18_1549,ProdFawcett_Revision2019,3.2.4,59.82915047848188,
,,,,136,0,136,0,,,,,,,,,,,,,1375.0763131295853,None,,,,,,,,,,,,,,,,,,,,,,fellow,D_new,136,126,1372.259572807201,None,1372.259572807201,None,1372.259572807201,None,2,1.8411944355466403,1372.259572807201,None,1374.1594005119105,None,1374.1594005119105,None,1374.6762873163925,None,1374.6762873163925,None,1374.6762873163925,None,f,0.36010804220950376,1374.6762873163925,None,sing43,001,2019_Nov_18_1549,ProdFawcett_Revision2019,3.2.4,59.82915047848188,
,,,,137,0,137,0,,,,,,,,,,,,,1378.4940100951362,None,,,,,,,,,,,,,,,,,,,,,,minor,C_sing,137,191,1375.5930926382644,None,1375.5930926382644,None,1375.5930926382644,None,6,2.0509477795994826,1375.5930926382644,None,1377.6939049763487,None,1377.6939049763487,None,1378.2107255373348,None,1378.2107255373348,None,1378.2107255373348,None,r,0.24953427401214867,1378.2107255373348,None,sing43,001,2019_Nov_18_1549,ProdFawcett_Revision2019,3.2.4,59.82915047848188,
,,,,138,0,138,0,,,,,,,,,,,,,1381.0783134965686,None,,,,,,,,,,,,,,,,,,,,,,clean,D_new,138,51,1379.0107538385464,None,1379.0107538385464,None,1379.0107538385464,None,6,1.3049838123288282,1379.0107538385464,None,1380.366069645862,None,1380.366069645862,None,1380.8947145154125,None,1380.8947145154125,None,1380.8947145154125,None,r,0.14167711116169812,1380.8947145154125,None,sing43,001,2019_Nov_18_1549,ProdFawcett_Revision2019,3.2.4,59.82915047848188,
,,,,139,0,139,0,,,,,,,,,,,,,1386.163299548114,None,,,,,,,,,,,,,,,,,,,,,,payment,D_new,139,215,1381.5948967627774,None,1381.5948967627774,None,1381.5948967627774,None,2,3.5448788801431874,1381.5948967627774,None,1385.1961821354043,None,1385.1961821354043,None,1385.712964754106,None,1385.712964754106,None,1385.712964754106,None,n,0.40250792278402514,1385.712964754106,None,sing43,001,2019_Nov_18_1549,ProdFawcett_Revision2019,3.2.4,59.82915047848188,
,,,,140,0,140,0,,,,,,,,,,,,,1389.6306701167196,None,,,,,,,,,,,,,,,,,,,,,,husband,A_silent,140,156,1386.680523479121,None,1386.680523479121,None,1386.680523479121,None,2,1.8430504974476207,1386.680523479121,None,1388.5804124512897,None,1388.5804124512897,None,1389.097442938848,None,1389.097442938848,None,1389.097442938848,None,n,0.4978416438334534,1389.097442938848,None,sing43,001,2019_Nov_18_1549,ProdFawcett_Revision2019,3.2.4,59.82915047848188,
,,,,141,0,141,0,,,,,,,,,,,,,1394.8657832127165,None,,,,,,,,,,,,,,,,,,,,,,second,A_silent,141,278,1390.148611841103,None,1390.148611841103,None,1390.148611841103,None,4,3.8069608541363777,1390.148611841103,None,1394.0155815277058,None,1394.0155815277058,None,1394.53232433811,None,1394.53232433811,None,1394.53232433811,None,f,0.2946205927082701,1394.53232433811,None,sing43,001,2019_Nov_18_1549,ProdFawcett_Revision2019,3.2.4,59.82915047848188,
,,,,142,0,142,0,,,,,,,,,,,,,1397.566655574251,None,,,,,,,,,,,,,,,,,,,,,,motion,C_sing,142,194,1395.383609555236,None,1395.383609555236,None,1395.383609555236,None,6,1.2754497871192143,1395.383609555236,None,1396.716333531339,None,1396.716333531339,None,1397.2332169147949,None,1397.2332169147949,None,1397.2332169147949,None,r,0.29011043692753447,1397.2332169147949,None,sing43,001,2019_Nov_18_1549,ProdFawcett_Revision2019,3.2.4,59.82915047848188,
,,,,143,0,143,0,,,,,,,,,,,,,1405.4523671942306,None,,,,,,,,,,,,,,,,,,,,,,charter,A_silent,143,47,1398.0845606003595,None,1398.0845606003595,None,1398.0845606003595,None,2,4.678155196382249,1398.0845606003595,None,1402.8062859790825,None,1402.8062859790825,None,1403.3350365894248,None,1403.3350365894248,None,1403.3350365894248,None,n,2.083617952298482,1403.3350365894248,None,sing43,001,2019_Nov_18_1549,ProdFawcett_Revision2019,3.2.4,59.82915047848188,
,,,,144,0,144,0,,,,,,,,,,,,,1407.9531247959048,None,,,,,,,,,,,,,,,,,,,,,,running,B_aloud,144,268,1405.9700828199211,None,1405.9700828199211,None,1405.9700828199211,None,6,1.240748769208949,1405.9700828199211,None,1407.2694931595042,None,1407.2694931595042,None,1407.7864524275292,None,1407.7864524275292,None,1407.7864524275292,None,r,0.11959905579715269,1407.7864524275292,None,sing43,001,2019_Nov_18_1549,ProdFawcett_Revision2019,3.2.4,59.82915047848188,
,,,,145,0,145,0,,,,,,,,,,,,,1410.6872986648677,None,,,,,,,,,,,,,,,,,,,,,,couch,D_new,145,70,1408.469899639549,None,1408.469899639549,None,1408.469899639549,None,2,1.476416071355743,1408.469899639549,None,1410.003736070984,None,1410.003736070984,None,1410.52063811458,None,1410.52063811458,None,1410.52063811458,None,n,0.12123648306169343,1410.52063811458,None,sing43,001,2019_Nov_18_1549,ProdFawcett_Revision2019,3.2.4,59.82915047848188,
,,,,146,0,146,0,,,,,,,,,,,,,1413.288311288452,None,,,,,,,,,,,,,,,,,,,,,,break,D_new,146,26,1411.2040302791875,None,1411.2040302791875,None,1411.2040302791875,None,4,1.4458501404178605,1411.2040302791875,None,1412.7051868968501,None,1412.7051868968501,None,1413.2214815528969,None,1413.2214815528969,None,1413.2214815528969,None,f,0.020232878544447885,1413.2214815528969,None,sing43,001,2019_Nov_18_1549,ProdFawcett_Revision2019,3.2.4,59.82915047848188,
,,,,147,0,147,0,,,,,,,,,,,,,1415.6720937609825,None,,,,,,,,,,,,,,,,,,,,,,solution,C_sing,147,294,1413.8055772047737,None,1413.8055772047737,None,1413.8055772047737,None,6,1.2040309011917998,1413.8055772047737,None,1415.0719528769278,None,1415.0719528769278,None,1415.588835949382,None,1415.588835949382,None,1415.588835949382,None,r,0.04487608112231101,1415.588835949382,None,sing43,001,2019_Nov_18_1549,ProdFawcett_Revision2019,3.2.4,59.82915047848188,
,,,,148,0,148,0,,,,,,,,,,,,,1422.840939413637,None,,,,,,,,,,,,,,,,,,,,,,management,D_new,148,177,1416.1888894417825,None,1416.1888894417825,None,1416.1888894417825,None,4,5.068517856198923,1416.1888894417825,None,1421.3071259963745,None,1421.3071259963745,None,1421.8239673945163,None,1421.8239673945163,None,1421.8239673945163,None,f,0.9692813669180396,1421.8239673945163,None,sing43,001,2019_Nov_18_1549,ProdFawcett_Revision2019,3.2.4,59.82915047848188,
,,,,149,0,149,0,,,,,,,,,,,,,1425.4585387244551,None,,,,,,,,,,,,,,,,,,,,,,detective,B_aloud,149,92,1423.3595385969447,None,1423.3595385969447,None,1423.3595385969447,None,6,1.201491256169902,1423.3595385969447,None,1424.6139873297652,None,1424.6139873297652,None,1425.141602781605,None,1425.141602781605,None,1425.141602781605,None,r,0.2756933019427379,1425.141602781605,None,sing43,001,2019_Nov_18_1549,ProdFawcett_Revision2019,3.2.4,59.82915047848188,
,,,,150,0,150,0,,,,,,,,,,,,,1428.8762428430591,None,,,,,,,,,,,,,,,,,,,,,,meeting,D_new,150,187,1425.9774725462694,None,1425.9774725462694,None,1425.9774725462694,None,6,1.7513626567069878,1425.9774725462694,None,1427.7925776184065,None,1427.7925776184065,None,1428.3093561940786,None,1428.3093561940786,None,1428.3093561940786,None,r,0.5241116995966877,1428.3093561940786,None,sing43,001,2019_Nov_18_1549,ProdFawcett_Revision2019,3.2.4,59.82915047848188,
,,,,151,0,151,0,,,,,,,,,,,,,1431.3602635433745,None,,,,,,,,,,,,,,,,,,,,,,distance,B_aloud,151,100,1429.3942915522439,None,1429.3942915522439,None,1429.3942915522439,None,6,1.110484821531827,1429.3942915522439,None,1430.5499012567607,None,1430.5499012567607,None,1431.0769348232425,None,1431.0769348232425,None,1431.0769348232425,None,r,0.23569093832520593,1431.0769348232425,None,sing43,001,2019_Nov_18_1549,ProdFawcett_Revision2019,3.2.4,59.82915047848188,
,,,,152,0,152,0,,,,,,,,,,,,,1434.094383297931,None,,,,,,,,,,,,,,,,,,,,,,hearing,B_aloud,152,150,1431.87814275629,None,1431.87814275629,None,1431.87814275629,None,2,1.5305012424541928,1431.87814275629,None,1433.461021145049,None,1433.461021145049,None,1433.9778118498116,None,1433.9778118498116,None,1433.9778118498116,None,f,0.07866213017859991,1433.9778118498116,None,sing43,001,2019_Nov_18_1549,ProdFawcett_Revision2019,3.2.4,59.82915047848188,
,,,,153,0,153,0,,,,,,,,,,,,,1436.3785613654254,None,,,,,,,,,,,,,,,,,,,,,,community,D_new,153,63,1434.6120050009176,None,1434.6120050009176,None,1434.6120050009176,None,3,1.108691893102332,1434.6120050009176,None,1435.77835237186,None,1435.77835237186,None,1436.2951539617034,None,1436.2951539617034,None,1436.2951539617034,None,f,0.04954640310279501,1436.2951539617034,None,sing43,001,2019_Nov_18_1549,ProdFawcett_Revision2019,3.2.4,59.82915047848188,
