StudyTrials.thisRepN,StudyTrials.thisTrialN,StudyTrials.thisN,StudyTrials.thisIndex,TestTrials.thisRepN,TestTrials.thisTrialN,TestTrials.thisN,TestTrials.thisIndex,textWelcome.started,textWelcome.stopped,keyWelcome.keys,keyWelcome.rt,keyWelcome.started,keyWelcome.stopped,textReady.started,textReady.stopped,keyReady.keys,keyReady.rt,keyReady.started,keyReady.stopped,polyback_2.started,polyback_2.stopped,studyPic,studyWord,studyType,studyN,studyOrder,polyback_3.started,polyback_3.stopped,studyPicChoice.started,studyPicChoice.stopped,polyback_4.started,polyback_4.stopped,polyback.started,polyback.stopped,studyWords.started,studyWords.stopped,getResearcher.started,getResearcher.stopped,kPress2.keys,kPress2.rt,kPress2.started,kPress2.stopped,testWord,testType,testN,testOrder,polyback_5.started,polyback_5.stopped,testWords.started,testWords.stopped,textScale.started,textScale.stopped,keyConf.keys,keyConf.rt,keyConf.started,keyConf.stopped,polyback_6.started,polyback_6.stopped,studyWords_2.started,studyWords_2.stopped,polyback_7.started,polyback_7.stopped,testWords_2.started,testWords_2.stopped,textScale_2.started,textScale_2.stopped,keyRKN.keys,keyRKN.rt,keyRKN.started,keyRKN.stopped,participant,session,date,expName,psychopyVersion,frameRate,
,,,,,,,,16.95035782807099,None,space,740.9514734069562,16.95035782807099,None,,,,,,,,,,,,,,,,,,,,,,,,,,,,,,,,,,,,,,,,,,,,,,,,,,,,,,,,,,sing31,001,2019_Nov_11_1614,ProdFawcett_Revision2019,3.2.4,59.89361959727362,
,,,,,,,,,,,,,,757.9306960223257,None,space,9.610453661490283,757.9306960223257,None,,,,,,,,,,,,,,,,,,,,,,,,,,,,,,,,,,,,,,,,,,,,,,,,,,,,sing31,001,2019_Nov_11_1614,ProdFawcett_Revision2019,3.2.4,59.89361959727362,
0,0,0,0,,,,,,,,,,,,,,,,,772.3519696482927,None,materials/speakPic.jpg,figure,B_aloud,0,128,768.6838517234874,None,768.6838517234874,None,769.6028682226724,None,769.8677511864107,None,769.8677511864107,None,,,,,,,,,,,,,,,,,,,,,,,,,,,,,,,,,,,sing31,001,2019_Nov_11_1614,ProdFawcett_Revision2019,3.2.4,59.89361959727362,
1,0,1,0,,,,,,,,,,,,,,,,,776.6200049698782,None,materials/readPic.jpg,suspect,A_silent,1,318,772.9532265483522,None,772.9532265483522,None,773.869790142413,None,774.1357616275081,None,774.1357616275081,None,,,,,,,,,,,,,,,,,,,,,,,,,,,,,,,,,,,sing31,001,2019_Nov_11_1614,ProdFawcett_Revision2019,3.2.4,59.89361959727362,
2,0,2,0,,,,,,,,,,,,,,,,,780.8880169660051,None,materials/readPic.jpg,block,A_silent,2,25,777.1912264556722,None,777.1912264556722,None,778.1377987174737,None,778.4037633604339,None,778.4037633604339,None,,,,,,,,,,,,,,,,,,,,,,,,,,,,,,,,,,,sing31,001,2019_Nov_11_1614,ProdFawcett_Revision2019,3.2.4,59.89361959727362,
3,0,3,0,,,,,,,,,,,,,,,,,785.156043579419,None,materials/singPic.jpg,route,C_sing,3,267,781.5148059119774,None,781.5148059119774,None,782.4058063595157,None,782.671924017478,None,782.671924017478,None,,,,,,,,,,,,,,,,,,,,,,,,,,,,,,,,,,,sing31,001,2019_Nov_11_1614,ProdFawcett_Revision2019,3.2.4,59.89361959727362,
4,0,4,0,,,,,,,,,,,,,,,,,789.4240670827721,None,materials/speakPic.jpg,owner,B_aloud,4,208,785.7577980892411,None,785.7577980892411,None,786.6739642175044,None,786.9398430227802,None,786.9398430227802,None,,,,,,,,,,,,,,,,,,,,,,,,,,,,,,,,,,,sing31,001,2019_Nov_11_1614,ProdFawcett_Revision2019,3.2.4,59.89361959727362,
5,0,5,0,,,,,,,,,,,,,,,,,793.692097117254,None,materials/speakPic.jpg,range,B_aloud,5,251,789.9926761173128,None,789.9926761173128,None,790.9419025051857,None,791.2078687031762,None,791.2078687031762,None,,,,,,,,,,,,,,,,,,,,,,,,,,,,,,,,,,,sing31,001,2019_Nov_11_1614,ProdFawcett_Revision2019,3.2.4,59.89361959727362,
6,0,6,0,,,,,,,,,,,,,,,,,797.9601464341131,None,materials/readPic.jpg,heavy,A_silent,6,151,794.2825166986959,None,794.2825166986959,None,795.2099232094833,None,795.4759096228709,None,795.4759096228709,None,,,,,,,,,,,,,,,,,,,,,,,,,,,,,,,,,,,sing31,001,2019_Nov_11_1614,ProdFawcett_Revision2019,3.2.4,59.89361959727362,
7,0,7,0,,,,,,,,,,,,,,,,,802.2281624733196,None,materials/singPic.jpg,space,C_sing,7,297,798.5784007506445,None,798.5784007506445,None,799.4780409476853,None,799.743924107047,None,799.743924107047,None,,,,,,,,,,,,,,,,,,,,,,,,,,,,,,,,,,,sing31,001,2019_Nov_11_1614,ProdFawcett_Revision2019,3.2.4,59.89361959727362,
8,0,8,0,,,,,,,,,,,,,,,,,806.4961981059114,None,materials/singPic.jpg,point,C_sing,8,226,802.8125295650179,None,802.8125295650179,None,803.7458831344811,None,804.0120931612564,None,804.0120931612564,None,,,,,,,,,,,,,,,,,,,,,,,,,,,,,,,,,,,sing31,001,2019_Nov_11_1614,ProdFawcett_Revision2019,3.2.4,59.89361959727362,
9,0,9,0,,,,,,,,,,,,,,,,,810.7642125900875,None,materials/speakPic.jpg,audience,B_aloud,9,14,807.081134338775,None,807.081134338775,None,808.0144826211344,None,808.2800622385412,None,808.2800622385412,None,,,,,,,,,,,,,,,,,,,,,,,,,,,,,,,,,,,sing31,001,2019_Nov_11_1614,ProdFawcett_Revision2019,3.2.4,59.89361959727362,
10,0,10,0,,,,,,,,,,,,,,,,,815.0321801123418,None,materials/speakPic.jpg,majority,B_aloud,10,176,811.3474298922274,None,811.3474298922274,None,812.2823198318329,None,812.551645517734,None,812.551645517734,None,,,,,,,,,,,,,,,,,,,,,,,,,,,,,,,,,,,sing31,001,2019_Nov_11_1614,ProdFawcett_Revision2019,3.2.4,59.89361959727362,
11,0,11,0,,,,,,,,,,,,,,,,,819.30029256344,None,materials/singPic.jpg,trash,C_sing,11,337,815.638354951886,None,815.638354951886,None,816.5501648176842,None,816.8160115893315,None,816.8160115893315,None,,,,,,,,,,,,,,,,,,,,,,,,,,,,,,,,,,,sing31,001,2019_Nov_11_1614,ProdFawcett_Revision2019,3.2.4,59.89361959727362,
12,0,12,0,,,,,,,,,,,,,,,,,823.5682812341101,None,materials/readPic.jpg,scene,A_silent,12,273,819.9019466182908,None,819.9019466182908,None,820.818158775457,None,821.0840438008554,None,821.0840438008554,None,,,,,,,,,,,,,,,,,,,,,,,,,,,,,,,,,,,sing31,001,2019_Nov_11_1614,ProdFawcett_Revision2019,3.2.4,59.89361959727362,
13,0,13,0,,,,,,,,,,,,,,,,,827.8363106465786,None,materials/singPic.jpg,people,C_sing,13,216,824.1728273346998,None,824.1728273346998,None,825.0861819678048,None,825.352081299483,None,825.352081299483,None,,,,,,,,,,,,,,,,,,,,,,,,,,,,,,,,,,,sing31,001,2019_Nov_11_1614,ProdFawcett_Revision2019,3.2.4,59.89361959727362,
14,0,14,0,,,,,,,,,,,,,,,,,832.1043447241391,None,materials/singPic.jpg,reading,C_sing,14,254,828.4361913446382,None,828.4361913446382,None,829.3542577201824,None,829.6201135110077,None,829.6201135110077,None,,,,,,,,,,,,,,,,,,,,,,,,,,,,,,,,,,,sing31,001,2019_Nov_11_1614,ProdFawcett_Revision2019,3.2.4,59.89361959727362,
15,0,15,0,,,,,,,,,,,,,,,,,836.3723573422794,None,materials/speakPic.jpg,store,B_aloud,15,305,832.6941450924332,None,832.6941450924332,None,833.6222339506085,None,833.8881457225316,None,833.8881457225316,None,,,,,,,,,,,,,,,,,,,,,,,,,,,,,,,,,,,sing31,001,2019_Nov_11_1614,ProdFawcett_Revision2019,3.2.4,59.89361959727362,
16,0,16,0,,,,,,,,,,,,,,,,,840.6404113242297,None,materials/readPic.jpg,article,A_silent,16,11,836.9648401381992,None,836.9648401381992,None,837.8902394156075,None,838.1561654938114,None,838.1561654938114,None,,,,,,,,,,,,,,,,,,,,,,,,,,,,,,,,,,,sing31,001,2019_Nov_11_1614,ProdFawcett_Revision2019,3.2.4,59.89361959727362,
17,0,17,0,,,,,,,,,,,,,,,,,844.9084062150223,None,materials/singPic.jpg,cousin,C_sing,17,76,841.2465703024627,None,841.2465703024627,None,842.1582741151806,None,842.4243062464648,None,842.4243062464648,None,,,,,,,,,,,,,,,,,,,,,,,,,,,,,,,,,,,sing31,001,2019_Nov_11_1614,ProdFawcett_Revision2019,3.2.4,59.89361959727362,
18,0,18,0,,,,,,,,,,,,,,,,,849.1764427806311,None,materials/singPic.jpg,mankind,C_sing,18,178,845.5088209105579,None,845.5088209105579,None,846.4264540546028,None,846.6922227637187,None,846.6922227637187,None,,,,,,,,,,,,,,,,,,,,,,,,,,,,,,,,,,,sing31,001,2019_Nov_11_1614,ProdFawcett_Revision2019,3.2.4,59.89361959727362,
19,0,19,0,,,,,,,,,,,,,,,,,853.4444740591371,None,materials/readPic.jpg,budget,A_silent,19,34,849.7782327451487,None,849.7782327451487,None,850.6944100696319,None,850.9602571522855,None,850.9602571522855,None,,,,,,,,,,,,,,,,,,,,,,,,,,,,,,,,,,,sing31,001,2019_Nov_11_1614,ProdFawcett_Revision2019,3.2.4,59.89361959727362,
20,0,20,0,,,,,,,,,,,,,,,,,857.712478280112,None,materials/speakPic.jpg,watch,B_aloud,20,351,854.0340013640734,None,854.0340013640734,None,854.9620970643828,None,855.2283049141142,None,855.2283049141142,None,,,,,,,,,,,,,,,,,,,,,,,,,,,,,,,,,,,sing31,001,2019_Nov_11_1614,ProdFawcett_Revision2019,3.2.4,59.89361959727362,
21,0,21,0,,,,,,,,,,,,,,,,,861.9806697267595,None,materials/singPic.jpg,citizen,C_sing,21,50,858.3146349208228,None,858.3146349208228,None,859.2305143014601,None,859.4977606005659,None,859.4977606005659,None,,,,,,,,,,,,,,,,,,,,,,,,,,,,,,,,,,,sing31,001,2019_Nov_11_1614,ProdFawcett_Revision2019,3.2.4,59.89361959727362,
22,0,22,0,,,,,,,,,,,,,,,,,866.2485483012697,None,materials/readPic.jpg,permit,A_silent,22,218,862.5823144514279,None,862.5823144514279,None,863.4986780685649,None,863.7643298393878,None,863.7643298393878,None,,,,,,,,,,,,,,,,,,,,,,,,,,,,,,,,,,,sing31,001,2019_Nov_11_1614,ProdFawcett_Revision2019,3.2.4,59.89361959727362,
23,0,23,0,,,,,,,,,,,,,,,,,870.5165988621538,None,materials/readPic.jpg,mechanical,A_silent,23,185,866.8317929719469,None,866.8317929719469,None,867.7664795135615,None,868.0323570748142,None,868.0323570748142,None,,,,,,,,,,,,,,,,,,,,,,,,,,,,,,,,,,,sing31,001,2019_Nov_11_1614,ProdFawcett_Revision2019,3.2.4,59.89361959727362,
24,0,24,0,,,,,,,,,,,,,,,,,874.7846680834036,None,materials/readPic.jpg,fellow,A_silent,24,126,871.0905432063673,None,871.0905432063673,None,872.034858807895,None,872.3003799561548,None,872.3003799561548,None,,,,,,,,,,,,,,,,,,,,,,,,,,,,,,,,,,,sing31,001,2019_Nov_11_1614,ProdFawcett_Revision2019,3.2.4,59.89361959727362,
25,0,25,0,,,,,,,,,,,,,,,,,879.0526247204443,None,materials/singPic.jpg,drove,C_sing,25,106,875.4029889552403,None,875.4029889552403,None,876.3025893435006,None,876.5684025264891,None,876.5684025264891,None,,,,,,,,,,,,,,,,,,,,,,,,,,,,,,,,,,,sing31,001,2019_Nov_11_1614,ProdFawcett_Revision2019,3.2.4,59.89361959727362,
26,0,26,0,,,,,,,,,,,,,,,,,883.3206986067862,None,materials/readPic.jpg,public,A_silent,26,244,879.6778844494156,None,879.6778844494156,None,880.5703027737709,None,880.8364390920988,None,880.8364390920988,None,,,,,,,,,,,,,,,,,,,,,,,,,,,,,,,,,,,sing31,001,2019_Nov_11_1614,ProdFawcett_Revision2019,3.2.4,59.89361959727362,
27,0,27,0,,,,,,,,,,,,,,,,,887.5886739041935,None,materials/readPic.jpg,bicycle,A_silent,27,21,883.8708376109635,None,883.8708376109635,None,884.8386310631031,None,885.104458241367,None,885.104458241367,None,,,,,,,,,,,,,,,,,,,,,,,,,,,,,,,,,,,sing31,001,2019_Nov_11_1614,ProdFawcett_Revision2019,3.2.4,59.89361959727362,
28,0,28,0,,,,,,,,,,,,,,,,,891.840043341811,None,materials/singPic.jpg,finance,C_sing,28,129,888.1802059544607,None,888.1802059544607,None,889.0897317914487,None,889.3560634216083,None,889.3560634216083,None,,,,,,,,,,,,,,,,,,,,,,,,,,,,,,,,,,,sing31,001,2019_Nov_11_1614,ProdFawcett_Revision2019,3.2.4,59.89361959727362,
29,0,29,0,,,,,,,,,,,,,,,,,896.1081026108659,None,materials/readPic.jpg,employment,A_silent,29,111,892.4312522567379,None,892.4312522567379,None,893.3576436436106,None,893.6237270909023,None,893.6237270909023,None,,,,,,,,,,,,,,,,,,,,,,,,,,,,,,,,,,,sing31,001,2019_Nov_11_1614,ProdFawcett_Revision2019,3.2.4,59.89361959727362,
30,0,30,0,,,,,,,,,,,,,,,,,900.3761111859258,None,materials/readPic.jpg,universal,A_silent,30,345,896.6835985645203,None,896.6835985645203,None,897.6257445874835,None,897.8918749966961,None,897.8918749966961,None,,,,,,,,,,,,,,,,,,,,,,,,,,,,,,,,,,,sing31,001,2019_Nov_11_1614,ProdFawcett_Revision2019,3.2.4,59.89361959727362,
31,0,31,0,,,,,,,,,,,,,,,,,904.6441427754371,None,materials/singPic.jpg,color,C_sing,31,56,900.985502139567,None,900.985502139567,None,901.8937556505925,None,902.159908452244,None,902.159908452244,None,,,,,,,,,,,,,,,,,,,,,,,,,,,,,,,,,,,sing31,001,2019_Nov_11_1614,ProdFawcett_Revision2019,3.2.4,59.89361959727362,
32,0,32,0,,,,,,,,,,,,,,,,,908.9121445083638,None,materials/readPic.jpg,scale,A_silent,32,272,905.2361727464731,None,905.2361727464731,None,906.1618845850144,None,906.4279468838904,None,906.4279468838904,None,,,,,,,,,,,,,,,,,,,,,,,,,,,,,,,,,,,sing31,001,2019_Nov_11_1614,ProdFawcett_Revision2019,3.2.4,59.89361959727362,
33,0,33,0,,,,,,,,,,,,,,,,,913.1801792079359,None,materials/singPic.jpg,period,C_sing,33,217,909.51716240521,None,909.51716240521,None,910.4299631364474,None,910.6959539039199,None,910.6959539039199,None,,,,,,,,,,,,,,,,,,,,,,,,,,,,,,,,,,,sing31,001,2019_Nov_11_1614,ProdFawcett_Revision2019,3.2.4,59.89361959727362,
34,0,34,0,,,,,,,,,,,,,,,,,917.4482568263511,None,materials/readPic.jpg,enemy,A_silent,34,113,913.7870668734649,None,913.7870668734649,None,914.6978463760488,None,914.9639739862059,None,914.9639739862059,None,,,,,,,,,,,,,,,,,,,,,,,,,,,,,,,,,,,sing31,001,2019_Nov_11_1614,ProdFawcett_Revision2019,3.2.4,59.89361959727362,
35,0,35,0,,,,,,,,,,,,,,,,,921.7162234155876,None,materials/singPic.jpg,corner,C_sing,35,69,918.0574848127944,None,918.0574848127944,None,918.9661765314177,None,919.2320245470901,None,919.2320245470901,None,,,,,,,,,,,,,,,,,,,,,,,,,,,,,,,,,,,sing31,001,2019_Nov_11_1614,ProdFawcett_Revision2019,3.2.4,59.89361959727362,
36,0,36,0,,,,,,,,,,,,,,,,,925.9842783305567,None,materials/readPic.jpg,message,A_silent,36,189,922.3181004618136,None,922.3181004618136,None,923.2337935497962,None,923.5000362322107,None,923.5000362322107,None,,,,,,,,,,,,,,,,,,,,,,,,,,,,,,,,,,,sing31,001,2019_Nov_11_1614,ProdFawcett_Revision2019,3.2.4,59.89361959727362,
37,0,37,0,,,,,,,,,,,,,,,,,930.2522915707086,None,materials/singPic.jpg,pattern,C_sing,37,214,926.5893913952705,None,926.5893913952705,None,927.5020434655908,None,927.7680665776988,None,927.7680665776988,None,,,,,,,,,,,,,,,,,,,,,,,,,,,,,,,,,,,sing31,001,2019_Nov_11_1614,ProdFawcett_Revision2019,3.2.4,59.89361959727362,
38,0,38,0,,,,,,,,,,,,,,,,,934.5203212941842,None,materials/singPic.jpg,count,C_sing,38,72,930.845311474166,None,930.845311474166,None,931.7699932604983,None,932.0361074973935,None,932.0361074973935,None,,,,,,,,,,,,,,,,,,,,,,,,,,,,,,,,,,,sing31,001,2019_Nov_11_1614,ProdFawcett_Revision2019,3.2.4,59.89361959727362,
39,0,39,0,,,,,,,,,,,,,,,,,938.7883821182695,None,materials/speakPic.jpg,commercial,B_aloud,39,61,935.108933619169,None,935.108933619169,None,936.0380503525103,None,936.3041285126974,None,936.3041285126974,None,,,,,,,,,,,,,,,,,,,,,,,,,,,,,,,,,,,sing31,001,2019_Nov_11_1614,ProdFawcett_Revision2019,3.2.4,59.89361959727362,
40,0,40,0,,,,,,,,,,,,,,,,,943.0563770090612,None,materials/speakPic.jpg,cross,B_aloud,40,80,939.3551316473286,None,939.3551316473286,None,940.3060415112286,None,940.5721056761413,None,940.5721056761413,None,,,,,,,,,,,,,,,,,,,,,,,,,,,,,,,,,,,sing31,001,2019_Nov_11_1614,ProdFawcett_Revision2019,3.2.4,59.89361959727362,
41,0,41,0,,,,,,,,,,,,,,,,,947.3243977133588,None,materials/readPic.jpg,welcome,A_silent,41,354,943.6456862987197,None,943.6456862987197,None,944.574101402296,None,944.8401764524224,None,944.8401764524224,None,,,,,,,,,,,,,,,,,,,,,,,,,,,,,,,,,,,sing31,001,2019_Nov_11_1614,ProdFawcett_Revision2019,3.2.4,59.89361959727362,
42,0,42,0,,,,,,,,,,,,,,,,,951.5924202836941,None,materials/readPic.jpg,junior,A_silent,42,167,947.9075755177246,None,947.9075755177246,None,948.8421799537291,None,949.108193735653,None,949.108193735653,None,,,,,,,,,,,,,,,,,,,,,,,,,,,,,,,,,,,sing31,001,2019_Nov_11_1614,ProdFawcett_Revision2019,3.2.4,59.89361959727362,
43,0,43,0,,,,,,,,,,,,,,,,,955.8604549832662,None,materials/speakPic.jpg,story,B_aloud,43,306,952.1795907843916,None,952.1795907843916,None,953.1100448439702,None,953.3762200380615,None,953.3762200380615,None,,,,,,,,,,,,,,,,,,,,,,,,,,,,,,,,,,,sing31,001,2019_Nov_11_1614,ProdFawcett_Revision2019,3.2.4,59.89361959727362,
44,0,44,0,,,,,,,,,,,,,,,,,960.1284862617722,None,materials/speakPic.jpg,narrow,B_aloud,44,197,956.4272720006493,None,956.4272720006493,None,957.3780863856773,None,957.6442447854388,None,957.6442447854388,None,,,,,,,,,,,,,,,,,,,,,,,,,,,,,,,,,,,sing31,001,2019_Nov_11_1614,ProdFawcett_Revision2019,3.2.4,59.89361959727362,
45,0,45,0,,,,,,,,,,,,,,,,,964.3964951478383,None,materials/speakPic.jpg,throw,B_aloud,45,330,960.7116516258939,None,960.7116516258939,None,961.6461786213786,None,961.9122738869019,None,961.9122738869019,None,,,,,,,,,,,,,,,,,,,,,,,,,,,,,,,,,,,sing31,001,2019_Nov_11_1614,ProdFawcett_Revision2019,3.2.4,59.89361959727362,
46,0,46,0,,,,,,,,,,,,,,,,,968.6645370005517,None,materials/speakPic.jpg,private,B_aloud,46,237,964.9691503717613,None,964.9691503717613,None,965.9142590388483,None,966.1803427971454,None,966.1803427971454,None,,,,,,,,,,,,,,,,,,,,,,,,,,,,,,,,,,,sing31,001,2019_Nov_11_1614,ProdFawcett_Revision2019,3.2.4,59.89361959727362,
47,0,47,0,,,,,,,,,,,,,,,,,972.9325583268619,None,materials/readPic.jpg,close,A_silent,47,53,969.2658480156724,None,969.2658480156724,None,970.1823960594284,None,970.448337687937,None,970.448337687937,None,,,,,,,,,,,,,,,,,,,,,,,,,,,,,,,,,,,sing31,001,2019_Nov_11_1614,ProdFawcett_Revision2019,3.2.4,59.89361959727362,
48,0,48,0,,,,,,,,,,,,,,,,,977.2005836962517,None,materials/singPic.jpg,rapid,C_sing,48,252,973.5346882210488,None,973.5346882210488,None,974.4507709996769,None,974.7163624353152,None,974.7163624353152,None,,,,,,,,,,,,,,,,,,,,,,,,,,,,,,,,,,,sing31,001,2019_Nov_11_1614,ProdFawcett_Revision2019,3.2.4,59.89361959727362,
49,0,49,0,,,,,,,,,,,,,,,,,981.4686087546352,None,materials/singPic.jpg,turkey,C_sing,49,342,977.79092614818,None,977.79092614818,None,978.7183478982679,None,978.9843843836379,None,978.9843843836379,None,,,,,,,,,,,,,,,,,,,,,,,,,,,,,,,,,,,sing31,001,2019_Nov_11_1614,ProdFawcett_Revision2019,3.2.4,59.89361959727362,
50,0,50,0,,,,,,,,,,,,,,,,,985.736640966159,None,materials/speakPic.jpg,brief,B_aloud,50,28,982.0572161035234,None,982.0572161035234,None,982.9859599405481,None,983.2523991788203,None,983.2523991788203,None,,,,,,,,,,,,,,,,,,,,,,,,,,,,,,,,,,,sing31,001,2019_Nov_11_1614,ProdFawcett_Revision2019,3.2.4,59.89361959727362,
51,0,51,0,,,,,,,,,,,,,,,,,990.0046638475005,None,materials/speakPic.jpg,height,B_aloud,51,152,986.3031503985076,None,986.3031503985076,None,987.2543457660104,None,987.5204376104657,None,987.5204376104657,None,,,,,,,,,,,,,,,,,,,,,,,,,,,,,,,,,,,sing31,001,2019_Nov_11_1614,ProdFawcett_Revision2019,3.2.4,59.89361959727362,
52,0,52,0,,,,,,,,,,,,,,,,,994.2726882838715,None,materials/singPic.jpg,crisis,C_sing,52,79,990.6226566079004,None,990.6226566079004,None,991.5225872846404,None,991.7884517836355,None,991.7884517836355,None,,,,,,,,,,,,,,,,,,,,,,,,,,,,,,,,,,,sing31,001,2019_Nov_11_1614,ProdFawcett_Revision2019,3.2.4,59.89361959727362,
53,0,53,0,,,,,,,,,,,,,,,,,998.5407208064016,None,materials/readPic.jpg,trend,A_silent,53,340,994.874579325372,None,994.874579325372,None,995.7904434667107,None,996.0565303350686,None,996.0565303350686,None,,,,,,,,,,,,,,,,,,,,,,,,,,,,,,,,,,,sing31,001,2019_Nov_11_1614,ProdFawcett_Revision2019,3.2.4,59.89361959727362,
54,0,54,0,,,,,,,,,,,,,,,,,1002.808821128262,None,materials/speakPic.jpg,speech,B_aloud,54,298,999.1311416318676,None,999.1311416318676,None,1000.0581425906994,None,1000.3245155846716,None,1000.3245155846716,None,,,,,,,,,,,,,,,,,,,,,,,,,,,,,,,,,,,sing31,001,2019_Nov_11_1614,ProdFawcett_Revision2019,3.2.4,59.89361959727362,
55,0,55,0,,,,,,,,,,,,,,,,,1007.0767180521316,None,materials/speakPic.jpg,escape,B_aloud,55,118,1003.3763341773001,None,1003.3763341773001,None,1004.3261331274061,None,1004.5925316238781,None,1004.5925316238781,None,,,,,,,,,,,,,,,,,,,,,,,,,,,,,,,,,,,sing31,001,2019_Nov_11_1614,ProdFawcett_Revision2019,3.2.4,59.89361959727362,
56,0,56,0,,,,,,,,,,,,,,,,,1011.3448000246317,None,materials/readPic.jpg,tough,A_silent,56,333,1007.6785587106433,None,1007.6785587106433,None,1008.5944934503677,None,1008.8605657014386,None,1008.8605657014386,None,,,,,,,,,,,,,,,,,,,,,,,,,,,,,,,,,,,sing31,001,2019_Nov_11_1614,ProdFawcett_Revision2019,3.2.4,59.89361959727362,
57,0,57,0,,,,,,,,,,,,,,,,,1015.6128166858507,None,materials/singPic.jpg,instrument,C_sing,57,163,1011.952821618408,None,1011.952821618408,None,1012.8626743228078,None,1013.128595113908,None,1013.128595113908,None,,,,,,,,,,,,,,,,,,,,,,,,,,,,,,,,,,,sing31,001,2019_Nov_11_1614,ProdFawcett_Revision2019,3.2.4,59.89361959727362,
58,0,58,0,,,,,,,,,,,,,,,,,1019.8808526294479,None,materials/readPic.jpg,short,A_silent,58,285,1016.2046550771283,None,1016.2046550771283,None,1017.1305964381718,None,1017.3966301244864,None,1017.3966301244864,None,,,,,,,,,,,,,,,,,,,,,,,,,,,,,,,,,,,sing31,001,2019_Nov_11_1614,ProdFawcett_Revision2019,3.2.4,59.89361959727362,
59,0,59,0,,,,,,,,,,,,,,,,,1024.1488951041738,None,materials/singPic.jpg,provision,C_sing,59,243,1020.4831094141236,None,1020.4831094141236,None,1021.3986715685378,None,1021.6646492737545,None,1021.6646492737545,None,,,,,,,,,,,,,,,,,,,,,,,,,,,,,,,,,,,sing31,001,2019_Nov_11_1614,ProdFawcett_Revision2019,3.2.4,59.89361959727362,
60,0,60,0,,,,,,,,,,,,,,,,,1028.416995115028,None,materials/speakPic.jpg,territory,B_aloud,60,324,1024.750649613995,None,1024.750649613995,None,1025.6666533970738,None,1025.93269330351,None,1025.93269330351,None,,,,,,,,,,,,,,,,,,,,,,,,,,,,,,,,,,,sing31,001,2019_Nov_11_1614,ProdFawcett_Revision2019,3.2.4,59.89361959727362,
61,0,61,0,,,,,,,,,,,,,,,,,1032.684940866855,None,materials/singPic.jpg,management,C_sing,61,177,1029.022982106886,None,1029.022982106886,None,1029.934721996311,None,1030.2007416873512,None,1030.2007416873512,None,,,,,,,,,,,,,,,,,,,,,,,,,,,,,,,,,,,sing31,001,2019_Nov_11_1614,ProdFawcett_Revision2019,3.2.4,59.89361959727362,
62,0,62,0,,,,,,,,,,,,,,,,,1036.9529615711535,None,materials/speakPic.jpg,evidence,B_aloud,62,120,1033.272020864778,None,1033.272020864778,None,1034.2028907395134,None,1034.4687144967102,None,1034.4687144967102,None,,,,,,,,,,,,,,,,,,,,,,,,,,,,,,,,,,,sing31,001,2019_Nov_11_1614,ProdFawcett_Revision2019,3.2.4,59.89361959727362,
63,0,63,0,,,,,,,,,,,,,,,,,1041.2209822754512,None,materials/speakPic.jpg,break,B_aloud,63,26,1037.5200149531738,None,1037.5200149531738,None,1038.4708321372564,None,1038.736768167655,None,1038.736768167655,None,,,,,,,,,,,,,,,,,,,,,,,,,,,,,,,,,,,sing31,001,2019_Nov_11_1614,ProdFawcett_Revision2019,3.2.4,59.89361959727362,
64,0,64,0,,,,,,,,,,,,,,,,,1045.489058338836,None,materials/singPic.jpg,nature,C_sing,64,200,1041.827575107196,None,1041.827575107196,None,1042.738814587804,None,1043.0047776757337,None,1043.0047776757337,None,,,,,,,,,,,,,,,,,,,,,,,,,,,,,,,,,,,sing31,001,2019_Nov_11_1614,ProdFawcett_Revision2019,3.2.4,59.89361959727362,
65,0,65,0,,,,,,,,,,,,,,,,,1049.7570271051154,None,materials/speakPic.jpg,command,B_aloud,65,60,1046.0771730540582,None,1046.0771730540582,None,1047.0067961053328,None,1047.2728086432335,None,1047.2728086432335,None,,,,,,,,,,,,,,,,,,,,,,,,,,,,,,,,,,,sing31,001,2019_Nov_11_1614,ProdFawcett_Revision2019,3.2.4,59.89361959727362,
66,0,66,0,,,,,,,,,,,,,,,,,1054.025053407523,None,materials/singPic.jpg,couch,C_sing,66,70,1050.3591821907958,None,1050.3591821907958,None,1051.2748597284735,None,1051.540834945641,None,1051.540834945641,None,,,,,,,,,,,,,,,,,,,,,,,,,,,,,,,,,,,sing31,001,2019_Nov_11_1614,ProdFawcett_Revision2019,3.2.4,59.89361959727362,
67,0,67,0,,,,,,,,,,,,,,,,,1058.293218418653,None,materials/speakPic.jpg,colonel,B_aloud,67,55,1054.6269285877124,None,1054.6269285877124,None,1055.5426394030428,None,1055.8088304584453,None,1055.8088304584453,None,,,,,,,,,,,,,,,,,,,,,,,,,,,,,,,,,,,sing31,001,2019_Nov_11_1614,ProdFawcett_Revision2019,3.2.4,59.89361959727362,
68,0,68,0,,,,,,,,,,,,,,,,,1062.5611190745958,None,materials/readPic.jpg,relation,A_silent,68,257,1058.8944501272172,None,1058.8944501272172,None,1059.811221784361,None,1060.0768909715243,None,1060.0768909715243,None,,,,,,,,,,,,,,,,,,,,,,,,,,,,,,,,,,,sing31,001,2019_Nov_11_1614,ProdFawcett_Revision2019,3.2.4,59.89361959727362,
69,0,69,0,,,,,,,,,,,,,,,,,1066.8292744445353,None,materials/readPic.jpg,afternoon,A_silent,69,3,1063.1358763887592,None,1063.1358763887592,None,1064.079394881648,None,1064.3449088767675,None,1064.3449088767675,None,,,,,,,,,,,,,,,,,,,,,,,,,,,,,,,,,,,sing31,001,2019_Nov_11_1614,ProdFawcett_Revision2019,3.2.4,59.89361959727362,
70,0,70,0,,,,,,,,,,,,,,,,,1071.0971511530088,None,materials/singPic.jpg,voice,C_sing,70,348,1067.4355105522818,None,1067.4355105522818,None,1068.346984220484,None,1068.6129535285354,None,1068.6129535285354,None,,,,,,,,,,,,,,,,,,,,,,,,,,,,,,,,,,,sing31,001,2019_Nov_11_1614,ProdFawcett_Revision2019,3.2.4,59.89361959727362,
71,0,71,0,,,,,,,,,,,,,,,,,1075.3652079340145,None,materials/speakPic.jpg,disease,B_aloud,71,97,1071.6991896114014,None,1071.6991896114014,None,1072.6150721020995,None,1072.880978586919,None,1072.880978586919,None,,,,,,,,,,,,,,,,,,,,,,,,,,,,,,,,,,,sing31,001,2019_Nov_11_1614,ProdFawcett_Revision2019,3.2.4,59.89361959727362,
72,0,72,0,,,,,,,,,,,,,,,,,1079.6332348584347,None,materials/speakPic.jpg,running,B_aloud,72,268,1075.9358661877586,None,1075.9358661877586,None,1076.8831618497525,None,1077.1489946261263,None,1077.1489946261263,None,,,,,,,,,,,,,,,,,,,,,,,,,,,,,,,,,,,sing31,001,2019_Nov_11_1614,ProdFawcett_Revision2019,3.2.4,59.89361959727362,
73,0,73,0,,,,,,,,,,,,,,,,,1083.901244055507,None,materials/singPic.jpg,title,C_sing,73,331,1080.2344902034638,None,1080.2344902034638,None,1081.151073390909,None,1081.4170308807288,None,1081.4170308807288,None,,,,,,,,,,,,,,,,,,,,,,,,,,,,,,,,,,,sing31,001,2019_Nov_11_1614,ProdFawcett_Revision2019,3.2.4,59.89361959727362,
74,0,74,0,,,,,,,,,,,,,,,,,1088.1692613387386,None,materials/readPic.jpg,bureau,A_silent,74,37,1084.506267239457,None,1084.506267239457,None,1085.4191895740805,None,1085.6850276375571,None,1085.6850276375571,None,,,,,,,,,,,,,,,,,,,,,,,,,,,,,,,,,,,sing31,001,2019_Nov_11_1614,ProdFawcett_Revision2019,3.2.4,59.89361959727362,
75,0,75,0,,,,,,,,,,,,,,,,,1092.4373140766656,None,materials/readPic.jpg,waste,A_silent,75,350,1088.752480195909,None,1088.752480195909,None,1089.6871536752687,None,1089.9530604710935,None,1089.9530604710935,None,,,,,,,,,,,,,,,,,,,,,,,,,,,,,,,,,,,sing31,001,2019_Nov_11_1614,ProdFawcett_Revision2019,3.2.4,59.89361959727362,
76,0,76,0,,,,,,,,,,,,,,,,,1096.7053245177622,None,materials/speakPic.jpg,weight,B_aloud,76,353,1093.0224126547146,None,1093.0224126547146,None,1093.9552157433782,None,1094.221085529477,None,1094.221085529477,None,,,,,,,,,,,,,,,,,,,,,,,,,,,,,,,,,,,sing31,001,2019_Nov_11_1614,ProdFawcett_Revision2019,3.2.4,59.89361959727362,
77,0,77,0,,,,,,,,,,,,,,,,,1100.973349887152,None,materials/readPic.jpg,trial,A_silent,77,341,1097.2969675972072,None,1097.2969675972072,None,1098.2232936727987,None,1098.4891161859705,None,1098.4891161859705,None,,,,,,,,,,,,,,,,,,,,,,,,,,,,,,,,,,,sing31,001,2019_Nov_11_1614,ProdFawcett_Revision2019,3.2.4,59.89361959727362,
78,0,78,0,,,,,,,,,,,,,,,,,1105.241378988615,None,materials/readPic.jpg,region,A_silent,78,256,1101.559131123594,None,1101.559131123594,None,1102.49123755859,None,1102.7571437324032,None,1102.7571437324032,None,,,,,,,,,,,,,,,,,,,,,,,,,,,,,,,,,,,sing31,001,2019_Nov_11_1614,ProdFawcett_Revision2019,3.2.4,59.89361959727362,
79,0,79,0,,,,,,,,,,,,,,,,,1109.5094261284312,None,materials/readPic.jpg,silence,A_silent,79,288,1105.8245798074313,None,1105.8245798074313,None,1106.7593055358157,None,1107.0251740778904,None,1107.0251740778904,None,,,,,,,,,,,,,,,,,,,,,,,,,,,,,,,,,,,sing31,001,2019_Nov_11_1614,ProdFawcett_Revision2019,3.2.4,59.89361959727362,
80,0,80,0,,,,,,,,,,,,,,,,,1113.7774387465715,None,materials/singPic.jpg,community,C_sing,80,63,1110.114632494975,None,1110.114632494975,None,1111.027300115601,None,1111.2932181076467,None,1111.2932181076467,None,,,,,,,,,,,,,,,,,,,,,,,,,,,,,,,,,,,sing31,001,2019_Nov_11_1614,ProdFawcett_Revision2019,3.2.4,59.89361959727362,
81,0,81,0,,,,,,,,,,,,,,,,,1118.045467226022,None,materials/speakPic.jpg,level,B_aloud,81,170,1114.3632843612759,None,1114.3632843612759,None,1115.295266082826,None,1115.5613694345075,None,1115.5613694345075,None,,,,,,,,,,,,,,,,,,,,,,,,,,,,,,,,,,,sing31,001,2019_Nov_11_1614,ProdFawcett_Revision2019,3.2.4,59.89361959727362,
82,0,82,0,,,,,,,,,,,,,,,,,1122.3134873083081,None,materials/readPic.jpg,prime,A_silent,82,235,1118.6138974320538,None,1118.6138974320538,None,1119.563446955266,None,1119.829292171883,None,1119.829292171883,None,,,,,,,,,,,,,,,,,,,,,,,,,,,,,,,,,,,sing31,001,2019_Nov_11_1614,ProdFawcett_Revision2019,3.2.4,59.89361959727362,
83,0,83,0,,,,,,,,,,,,,,,,,1126.5815080126058,None,materials/singPic.jpg,household,C_sing,83,154,1122.9208850238438,None,1122.9208850238438,None,1123.8314135445025,None,1124.0973038570046,None,1124.0973038570046,None,,,,,,,,,,,,,,,,,,,,,,,,,,,,,,,,,,,sing31,001,2019_Nov_11_1614,ProdFawcett_Revision2019,3.2.4,59.89361959727362,
84,0,84,0,,,,,,,,,,,,,,,,,1130.8495775448619,None,materials/singPic.jpg,month,C_sing,84,193,1127.164703233313,None,1127.164703233313,None,1128.0994753016066,None,1128.3653102550225,None,1128.3653102550225,None,,,,,,,,,,,,,,,,,,,,,,,,,,,,,,,,,,,sing31,001,2019_Nov_11_1614,ProdFawcett_Revision2019,3.2.4,59.89361959727362,
85,0,85,0,,,,,,,,,,,,,,,,,1135.1175503542208,None,materials/speakPic.jpg,medicine,B_aloud,85,186,1131.451391767855,None,1131.451391767855,None,1132.3673330387073,None,1132.6333359354185,None,1132.6333359354185,None,,,,,,,,,,,,,,,,,,,,,,,,,,,,,,,,,,,sing31,001,2019_Nov_11_1614,ProdFawcett_Revision2019,3.2.4,59.89361959727362,
86,0,86,0,,,,,,,,,,,,,,,,,1139.3855890968725,None,materials/singPic.jpg,error,C_sing,86,117,1135.724584503624,None,1135.724584503624,None,1136.6355260403861,None,1136.9015102767307,None,1136.9015102767307,None,,,,,,,,,,,,,,,,,,,,,,,,,,,,,,,,,,,sing31,001,2019_Nov_11_1614,ProdFawcett_Revision2019,3.2.4,59.89361959727362,
87,0,87,0,,,,,,,,,,,,,,,,,1143.6536241074518,None,materials/speakPic.jpg,force,B_aloud,87,131,1139.9753505894032,None,1139.9753505894032,None,1140.9039025356642,None,1141.1693988034358,None,1141.1693988034358,None,,,,,,,,,,,,,,,,,,,,,,,,,,,,,,,,,,,sing31,001,2019_Nov_11_1614,ProdFawcett_Revision2019,3.2.4,59.89361959727362,
88,0,88,0,,,,,,,,,,,,,,,,,1147.9216336155305,None,materials/speakPic.jpg,attack,B_aloud,88,13,1144.2213623249081,None,1144.2213623249081,None,1145.171263285015,None,1145.4374384791063,None,1145.4374384791063,None,,,,,,,,,,,,,,,,,,,,,,,,,,,,,,,,,,,sing31,001,2019_Nov_11_1614,ProdFawcett_Revision2019,3.2.4,59.89361959727362,
89,0,89,0,,,,,,,,,,,,,,,,,1152.1896854204388,None,materials/speakPic.jpg,grade,B_aloud,89,140,1148.504878597214,None,1148.504878597214,None,1149.4396248520006,None,1149.7054420780687,None,1149.7054420780687,None,,,,,,,,,,,,,,,,,,,,,,,,,,,,,,,,,,,sing31,001,2019_Nov_11_1614,ProdFawcett_Revision2019,3.2.4,59.89361959727362,
,,,,,,,,,,,,,,,,,,,,,,,,,,,,,,,,,,,,,1152.6899735675916,None,k,105.65925393990346,1152.6899735675916,None,,,,,,,,,,,,,,,,,,,,,,,,,,,,,sing31,001,2019_Nov_11_1614,ProdFawcett_Revision2019,3.2.4,59.89361959727362,
,,,,,,,,,,,,,,1258.373494691593,None,space,1.1755700975099899,1258.373494691593,None,,,,,,,,,,,,,,,,,,,,,,,,,,,,,,,,,,,,,,,,,,,,,,,,,,,,sing31,001,2019_Nov_11_1614,ProdFawcett_Revision2019,3.2.4,59.89361959727362,
,,,,0,0,0,0,,,,,,,,,,,,,1267.5627220000433,None,,,,,,,,,,,,,,,,,,,,,,period,C_sing,0,217,1260.0956692089349,None,1260.0956692089349,None,1260.0956692089349,None,6,2.7575063655176564,1260.0956692089349,None,1262.9080637973038,None,1262.9080637973038,None,1263.4281586790457,None,1263.4281586790457,None,1263.4281586790457,None,r,4.096522920683128,1263.4281586790457,None,sing31,001,2019_Nov_11_1614,ProdFawcett_Revision2019,3.2.4,59.89361959727362,
,,,,1,0,1,0,,,,,,,,,,,,,1275.6122428795934,None,,,,,,,,,,,,,,,,,,,,,,raise,D_new,1,250,1268.0930066856981,None,1268.0930066856981,None,1268.0930066856981,None,1,2.455392550346005,1268.0930066856981,None,1270.6105037334728,None,1270.6105037334728,None,1271.1274621186794,None,1271.1274621186794,None,1271.1274621186794,None,n,4.445388106069004,1271.1274621186794,None,sing31,001,2019_Nov_11_1614,ProdFawcett_Revision2019,3.2.4,59.89361959727362,
,,,,2,0,2,0,,,,,,,,,,,,,1280.3969622790037,None,,,,,,,,,,,,,,,,,,,,,,candidate,D_new,2,39,1276.1299100477054,None,1276.1299100477054,None,1276.1299100477054,None,1,1.41064903552342,1276.1299100477054,None,1277.5960711843209,None,1277.5960711843209,None,1278.1128858847087,None,1278.1128858847087,None,1278.1128858847087,None,n,2.243722730596346,1278.1128858847087,None,sing31,001,2019_Nov_11_1614,ProdFawcett_Revision2019,3.2.4,59.89361959727362,
,,,,3,0,3,0,,,,,,,,,,,,,1286.6990953765526,None,,,,,,,,,,,,,,,,,,,,,,trend,A_silent,3,340,1280.9144636808633,None,1280.9144636808633,None,1280.9144636808633,None,6,2.3692743387928203,1280.9144636808633,None,1283.3361335286045,None,1283.3361335286045,None,1283.8648227529575,None,1283.8648227529575,None,1283.8648227529575,None,f,2.7952152333282356,1283.8648227529575,None,sing31,001,2019_Nov_11_1614,ProdFawcett_Revision2019,3.2.4,59.89361959727362,
,,,,4,0,4,0,,,,,,,,,,,,,1293.2679656562186,None,,,,,,,,,,,,,,,,,,,,,,search,D_new,4,276,1287.2162182839866,None,1287.2162182839866,None,1287.2162182839866,None,1,1.3955307179176089,1287.2162182839866,None,1288.666391529936,None,1288.666391529936,None,1289.1833408959656,None,1289.1833408959656,None,1289.1833408959656,None,n,4.0520437610466615,1289.1833408959656,None,sing31,001,2019_Nov_11_1614,ProdFawcett_Revision2019,3.2.4,59.89361959727362,
,,,,5,0,5,0,,,,,,,,,,,,,1298.9696713069816,None,,,,,,,,,,,,,,,,,,,,,,grade,B_aloud,5,140,1293.7849794005115,None,1293.7849794005115,None,1293.7849794005115,None,6,1.5143736134959909,1293.7849794005115,None,1295.3394575618186,None,1295.3394575618186,None,1295.8685358548055,None,1295.8685358548055,None,1295.8685358548055,None,r,3.0628754815534194,1295.8685358548055,None,sing31,001,2019_Nov_11_1614,ProdFawcett_Revision2019,3.2.4,59.89361959727362,
,,,,6,0,6,0,,,,,,,,,,,,,1302.570832417162,None,,,,,,,,,,,,,,,,,,,,,,mechanical,A_silent,6,185,1299.4891457315507,None,1299.4891457315507,None,1299.4891457315507,None,1,1.0583509647867686,1299.4891457315507,None,1300.6035281776194,None,1300.6035281776194,None,1301.1210827615232,None,1301.1210827615232,None,1301.1210827615232,None,n,1.410369752044062,1301.1210827615232,None,sing31,001,2019_Nov_11_1614,ProdFawcett_Revision2019,3.2.4,59.89361959727362,
,,,,7,0,7,0,,,,,,,,,,,,,1305.404961044931,None,,,,,,,,,,,,,,,,,,,,,,division,D_new,7,101,1303.089143989916,None,1303.089143989916,None,1303.089143989916,None,1,1.2176672614141353,1303.089143989916,None,1304.3713350652233,None,1304.3713350652233,None,1304.8882194309772,None,1304.8882194309772,None,1304.8882194309772,None,n,0.47535789804624073,1304.8882194309772,None,sing31,001,2019_Nov_11_1614,ProdFawcett_Revision2019,3.2.4,59.89361959727362,
,,,,8,0,8,0,,,,,,,,,,,,,1308.5727298653874,None,,,,,,,,,,,,,,,,,,,,,,light,D_new,8,171,1305.9217748123,None,1305.9217748123,None,1305.9217748123,None,1,0.9849308213579206,1305.9217748123,None,1306.96263261689,None,1306.96263261689,None,1307.489068291031,None,1307.489068291031,None,1307.489068291031,None,n,1.0500178673009941,1307.489068291031,None,sing31,001,2019_Nov_11_1614,ProdFawcett_Revision2019,3.2.4,59.89361959727362,
,,,,9,0,9,0,,,,,,,,,,,,,1311.440152629355,None,,,,,,,,,,,,,,,,,,,,,,escape,B_aloud,9,118,1309.0909077055185,None,1309.0909077055185,None,1309.0909077055185,None,1,1.3996776732765284,1309.0909077055185,None,1310.5399097024892,None,1310.5399097024892,None,1311.0568631115975,None,1311.0568631115975,None,1311.0568631115975,None,n,0.3375252809082667,1311.0568631115975,None,sing31,001,2019_Nov_11_1614,ProdFawcett_Revision2019,3.2.4,59.89361959727362,
,,,,10,0,10,0,,,,,,,,,,,,,1313.6744313486688,None,,,,,,,,,,,,,,,,,,,,,,build,D_new,10,35,1311.9574730256636,None,1311.9574730256636,None,1311.9574730256636,None,1,0.7417408442133819,1311.9574730256636,None,1312.7572824411245,None,1312.7572824411245,None,1313.2740819022129,None,1313.2740819022129,None,1313.2740819022129,None,n,0.36096549978174153,1313.2740819022129,None,sing31,001,2019_Nov_11_1614,ProdFawcett_Revision2019,3.2.4,59.89361959727362,
,,,,11,0,11,0,,,,,,,,,,,,,1316.325070419557,None,,,,,,,,,,,,,,,,,,,,,,store,B_aloud,11,305,1314.1919128461386,None,1314.1919128461386,None,1314.1919128461386,None,1,1.0430563067211551,1314.1919128461386,None,1315.2914512819834,None,1315.2914512819834,None,1315.8083564851459,None,1315.8083564851459,None,1315.8083564851459,None,n,0.48193785413877777,1315.8083564851459,None,sing31,001,2019_Nov_11_1614,ProdFawcett_Revision2019,3.2.4,59.89361959727362,
,,,,12,0,12,0,,,,,,,,,,,,,1320.9100561023906,None,,,,,,,,,,,,,,,,,,,,,,figure,B_aloud,12,128,1316.842008900373,None,1316.842008900373,None,1316.842008900373,None,6,1.8088061999687852,1316.842008900373,None,1318.7092164481182,None,1318.7092164481182,None,1319.2261353355498,None,1319.2261353355498,None,1319.2261353355498,None,f,1.6406057030426382,1319.2261353355498,None,sing31,001,2019_Nov_11_1614,ProdFawcett_Revision2019,3.2.4,59.89361959727362,
,,,,13,0,13,0,,,,,,,,,,,,,1325.244592614663,None,,,,,,,,,,,,,,,,,,,,,,provision,C_sing,13,243,1321.428029611513,None,1321.428029611513,None,1321.428029611513,None,6,1.9499768455962112,1321.428029611513,None,1323.4162104466332,None,1323.4162104466332,None,1323.9441377060384,None,1323.9441377060384,None,1323.9441377060384,None,f,1.2584575776791098,1323.9441377060384,None,sing31,001,2019_Nov_11_1614,ProdFawcett_Revision2019,3.2.4,59.89361959727362,
,,,,14,0,14,0,,,,,,,,,,,,,1328.2455660637606,None,,,,,,,,,,,,,,,,,,,,,,pattern,C_sing,14,214,1325.762076600181,None,1325.762076600181,None,1325.762076600181,None,1,0.7835459733887546,1325.762076600181,None,1326.5950793858628,None,1326.5950793858628,None,1327.1119681057025,None,1327.1119681057025,None,1327.1119681057025,None,n,1.0978291463097776,1327.1119681057025,None,sing31,001,2019_Nov_11_1614,ProdFawcett_Revision2019,3.2.4,59.89361959727362,
,,,,15,0,15,0,,,,,,,,,,,,,1331.4300194285515,None,,,,,,,,,,,,,,,,,,,,,,thing,D_new,15,328,1328.7626022004933,None,1328.7626022004933,None,1328.7626022004933,None,1,1.5757351173469942,1328.7626022004933,None,1330.396221462469,None,1330.396221462469,None,1330.9130672634674,None,1330.9130672634674,None,1330.9130672634674,None,n,0.4804372496982978,1330.9130672634674,None,sing31,001,2019_Nov_11_1614,ProdFawcett_Revision2019,3.2.4,59.89361959727362,
,,,,16,0,16,0,,,,,,,,,,,,,1336.1983537825035,None,,,,,,,,,,,,,,,,,,,,,,bureau,A_silent,16,37,1331.9469740816849,None,1331.9469740816849,None,1331.9469740816849,None,6,1.7108706895724026,1331.9469740816849,None,1333.7035527160015,None,1333.7035527160015,None,1334.2308980829903,None,1334.2308980829903,None,1334.2308980829903,None,r,1.93046463378505,1334.2308980829903,None,sing31,001,2019_Nov_11_1614,ProdFawcett_Revision2019,3.2.4,59.89361959727362,
,,,,17,0,17,0,,,,,,,,,,,,,1340.2828491642185,None,,,,,,,,,,,,,,,,,,,,,,suspect,A_silent,17,318,1336.7164097082423,None,1336.7164097082423,None,1336.7164097082423,None,6,1.8769771824154304,1336.7164097082423,None,1338.6493281801695,None,1338.6493281801695,None,1339.1657768263758,None,1339.1657768263758,None,1339.1657768263758,None,f,1.0837638953635178,1339.1657768263758,None,sing31,001,2019_Nov_11_1614,ProdFawcett_Revision2019,3.2.4,59.89361959727362,
,,,,18,0,18,0,,,,,,,,,,,,,1345.551097835989,None,,,,,,,,,,,,,,,,,,,,,,resistance,D_new,18,262,1340.8012021007844,None,1340.8012021007844,None,1340.8012021007844,None,1,1.8244454527957714,1340.8012021007844,None,1342.6734187128022,None,1342.6734187128022,None,1343.2004319252746,None,1343.2004319252746,None,1343.2004319252746,None,n,2.312528165490221,1343.2004319252746,None,sing31,001,2019_Nov_11_1614,ProdFawcett_Revision2019,3.2.4,59.89361959727362,
,,,,19,0,19,0,,,,,,,,,,,,,1347.6517428315428,None,,,,,,,,,,,,,,,,,,,,,,interior,D_new,19,164,1346.0689509857493,None,1346.0689509857493,None,1346.0689509857493,None,1,0.7161637024155425,1346.0689509857493,None,1346.8347814295776,None,1346.8347814295776,None,1347.3516026610932,None,1347.3516026610932,None,1347.3516026610932,None,n,0.2579080298974077,1347.3516026610932,None,sing31,001,2019_Nov_11_1614,ProdFawcett_Revision2019,3.2.4,59.89361959727362,
,,,,20,0,20,0,,,,,,,,,,,,,1352.4532926371485,None,,,,,,,,,,,,,,,,,,,,,,alert,D_new,20,6,1348.1578558119736,None,1348.1578558119736,None,1348.1578558119736,None,3,2.371386381229968,1348.1578558119736,None,1350.5860085819031,None,1350.5860085819031,None,1351.1028397656137,None,1351.1028397656137,None,1351.1028397656137,None,f,1.3060844300707686,1351.1028397656137,None,sing31,001,2019_Nov_11_1614,ProdFawcett_Revision2019,3.2.4,59.89361959727362,
,,,,21,0,21,0,,,,,,,,,,,,,1358.6219428488967,None,,,,,,,,,,,,,,,,,,,,,,private,B_aloud,21,237,1352.9712863616678,None,1352.9712863616678,None,1352.9712863616678,None,6,2.5009319297832917,1352.9712863616678,None,1355.53755694133,None,1355.53755694133,None,1356.054511283457,None,1356.054511283457,None,1356.054511283457,None,r,2.521698118194763,1356.054511283457,None,sing31,001,2019_Nov_11_1614,ProdFawcett_Revision2019,3.2.4,59.89361959727362,
,,,,22,0,22,0,,,,,,,,,,,,,1361.5563040781299,None,,,,,,,,,,,,,,,,,,,,,,point,C_sing,22,226,1359.1386953480642,None,1359.1386953480642,None,1359.1386953480642,None,1,0.8134610282922949,1359.1386953480642,None,1360.0058808143758,None,1360.0058808143758,None,1360.5226224283297,None,1360.5226224283297,None,1360.5226224283297,None,n,0.9974550370698125,1360.5226224283297,None,sing31,001,2019_Nov_11_1614,ProdFawcett_Revision2019,3.2.4,59.89361959727362,
,,,,23,0,23,0,,,,,,,,,,,,,1364.5738015924135,None,,,,,,,,,,,,,,,,,,,,,,fight,D_new,23,127,1362.0731511231525,None,1362.0731511231525,None,1362.0731511231525,None,1,1.6075808981295268,1362.0731511231525,None,1363.7304466576334,None,1363.7304466576334,None,1364.2571715674494,None,1364.2571715674494,None,1364.2571715674494,None,n,0.2706107631120176,1364.2571715674494,None,sing31,001,2019_Nov_11_1614,ProdFawcett_Revision2019,3.2.4,59.89361959727362,
,,,,24,0,24,0,,,,,,,,,,,,,1366.7911852162633,None,,,,,,,,,,,,,,,,,,,,,,institute,D_new,24,162,1365.0914354828728,None,1365.0914354828728,None,1365.0914354828728,None,1,0.8362745698705112,1365.0914354828728,None,1365.9811850638698,None,1365.9811850638698,None,1366.5078340881973,None,1366.5078340881973,None,1366.5078340881973,None,n,0.2358626733894198,1366.5078340881973,None,sing31,001,2019_Nov_11_1614,ProdFawcett_Revision2019,3.2.4,59.89361959727362,
,,,,25,0,25,0,,,,,,,,,,,,,1370.6758591776816,None,,,,,,,,,,,,,,,,,,,,,,employment,A_silent,25,111,1367.310524042172,None,1367.310524042172,None,1367.310524042172,None,6,1.60103857377635,1367.310524042172,None,1368.975188555225,None,1368.975188555225,None,1369.4920598587223,None,1369.4920598587223,None,1369.4920598587223,None,r,1.147570840192202,1369.4920598587223,None,sing31,001,2019_Nov_11_1614,ProdFawcett_Revision2019,3.2.4,59.89361959727362,
,,,,26,0,26,0,,,,,,,,,,,,,1375.393883629603,None,,,,,,,,,,,,,,,,,,,,,,military,D_new,26,190,1371.1931665117345,None,1371.1931665117345,None,1371.1931665117345,None,3,2.1827191947686515,1371.1931665117345,None,1373.4266658497572,None,1373.4266658497572,None,1373.943595311397,None,1373.943595311397,None,1373.943595311397,None,n,1.416140781266222,1373.943595311397,None,sing31,001,2019_Nov_11_1614,ProdFawcett_Revision2019,3.2.4,59.89361959727362,
,,,,27,0,27,0,,,,,,,,,,,,,1379.0617524385216,None,,,,,,,,,,,,,,,,,,,,,,write,D_new,27,358,1375.9108510339865,None,1375.9108510339865,None,1375.9108510339865,None,1,2.280294249092549,1375.9108510339865,None,1378.2281879758202,None,1378.2281879758202,None,1378.7451062412401,None,1378.7451062412401,None,1378.7451062412401,None,n,0.26997599965943664,1378.7451062412401,None,sing31,001,2019_Nov_11_1614,ProdFawcett_Revision2019,3.2.4,59.89361959727362,
,,,,28,0,28,0,,,,,,,,,,,,,1381.5960046290147,None,,,,,,,,,,,,,,,,,,,,,,junior,A_silent,28,167,1379.581678132944,None,1379.581678132944,None,1379.581678132944,None,1,1.113869286001318,1379.581678132944,None,1380.7456439707894,None,1380.7456439707894,None,1381.2637518345473,None,1381.2637518345473,None,1381.2637518345473,None,n,0.2953873752048821,1381.2637518345473,None,sing31,001,2019_Nov_11_1614,ProdFawcett_Revision2019,3.2.4,59.89361959727362,
,,,,29,0,29,0,,,,,,,,,,,,,1386.280696379983,None,,,,,,,,,,,,,,,,,,,,,,message,A_silent,29,189,1382.1137591898423,None,1382.1137591898423,None,1382.1137591898423,None,3,2.6291361090216014,1382.1137591898423,None,1384.7969581115212,None,1384.7969581115212,None,1385.3138396782206,None,1385.3138396782206,None,1385.3138396782206,None,f,0.9334331870250026,1385.3138396782206,None,sing31,001,2019_Nov_11_1614,ProdFawcett_Revision2019,3.2.4,59.89361959727362,
,,,,30,0,30,0,,,,,,,,,,,,,1389.0482305152345,None,,,,,,,,,,,,,,,,,,,,,,fellow,A_silent,30,126,1386.7975232096078,None,1386.7975232096078,None,1386.7975232096078,None,3,1.3371240830374518,1386.7975232096078,None,1388.198109020701,None,1388.198109020701,None,1388.7147909214837,None,1388.7147909214837,None,1388.7147909214837,None,f,0.2925861432477177,1388.7147909214837,None,sing31,001,2019_Nov_11_1614,ProdFawcett_Revision2019,3.2.4,59.89361959727362,
,,,,31,0,31,0,,,,,,,,,,,,,1392.0826943453803,None,,,,,,,,,,,,,,,,,,,,,,industry,D_new,31,161,1389.5669115632381,None,1389.5669115632381,None,1389.5669115632381,None,3,1.615683851101494,1389.5669115632381,None,1391.2323408402954,None,1391.2323408402954,None,1391.7490861863225,None,1391.7490861863225,None,1391.7490861863225,None,f,0.2901798890388818,1391.7490861863225,None,sing31,001,2019_Nov_11_1614,ProdFawcett_Revision2019,3.2.4,59.89361959727362,
,,,,32,0,32,0,,,,,,,,,,,,,1395.4669408289128,None,,,,,,,,,,,,,,,,,,,,,,science,D_new,32,275,1392.6007033091983,None,1392.6007033091983,None,1392.6007033091983,None,1,1.2778584493044036,1392.6007033091983,None,1393.9332434733042,None,1393.9332434733042,None,1394.4502541075353,None,1394.4502541075353,None,1394.4502541075353,None,n,0.97215313567267,1394.4502541075353,None,sing31,001,2019_Nov_11_1614,ProdFawcett_Revision2019,3.2.4,59.89361959727362,
,,,,33,0,33,0,,,,,,,,,,,,,1399.618494413242,None,,,,,,,,,,,,,,,,,,,,,,executive,D_new,33,122,1395.9847765623317,None,1395.9847765623317,None,1395.9847765623317,None,1,2.7173946645662,1395.9847765623317,None,1398.7407966296896,None,1398.7407966296896,None,1399.26825271485,None,1399.26825271485,None,1399.26825271485,None,n,0.3066168725163152,1399.26825271485,None,sing31,001,2019_Nov_11_1614,ProdFawcett_Revision2019,3.2.4,59.89361959727362,
,,,,34,0,34,0,,,,,,,,,,,,,1402.7027490762348,None,,,,,,,,,,,,,,,,,,,,,,article,A_silent,34,11,1400.1366818945626,None,1400.1366818945626,None,1400.1366818945626,None,1,1.6692901068026913,1400.1366818945626,None,1401.8594392373388,None,1401.8594392373388,None,1402.3859476869084,None,1402.3859476869084,None,1402.3859476869084,None,n,0.26806051307903545,1402.3859476869084,None,sing31,001,2019_Nov_11_1614,ProdFawcett_Revision2019,3.2.4,59.89361959727362,
,,,,35,0,35,0,,,,,,,,,,,,,1407.9877743501456,None,,,,,,,,,,,,,,,,,,,,,,audience,B_aloud,35,14,1403.220832681517,None,1403.220832681517,None,1403.220832681517,None,3,3.241687506667404,1403.220832681517,None,1406.5097750772775,None,1406.5097750772775,None,1407.0374227421971,None,1407.0374227421971,None,1407.0374227421971,None,f,0.9122863271450115,1407.0374227421971,None,sing31,001,2019_Nov_11_1614,ProdFawcett_Revision2019,3.2.4,59.89361959727362,
,,,,36,0,36,0,,,,,,,,,,,,,1413.0893840866265,None,,,,,,,,,,,,,,,,,,,,,,break,B_aloud,36,26,1408.5057509693288,None,1408.5057509693288,None,1408.5057509693288,None,6,3.124614546812154,1408.5057509693288,None,1411.6754306112734,None,1411.6754306112734,None,1412.2056506076597,None,1412.2056506076597,None,1412.2056506076597,None,f,0.8479680882855973,1412.2056506076597,None,sing31,001,2019_Nov_11_1614,ProdFawcett_Revision2019,3.2.4,59.89361959727362,
,,,,37,0,37,0,,,,,,,,,,,,,1417.2406394161053,None,,,,,,,,,,,,,,,,,,,,,,budget,A_silent,37,34,1413.6061823036907,None,1413.6061823036907,None,1413.6061823036907,None,3,2.119226366102339,1413.6061823036907,None,1415.779861484103,None,1415.779861484103,None,1416.3070466829495,None,1416.3070466829495,None,1416.3070466829495,None,f,0.8984754791899832,1416.3070466829495,None,sing31,001,2019_Nov_11_1614,ProdFawcett_Revision2019,3.2.4,59.89361959727362,
,,,,38,0,38,0,,,,,,,,,,,,,1420.8083608392317,None,,,,,,,,,,,,,,,,,,,,,,attack,B_aloud,38,13,1417.7573866281682,None,1417.7573866281682,None,1417.7573866281682,None,6,1.4877362518973314,1417.7573866281682,None,1419.2947964636123,None,1419.2947964636123,None,1419.8110877407307,None,1419.8110877407307,None,1419.8110877407307,None,r,0.9622423042319497,1419.8110877407307,None,sing31,001,2019_Nov_11_1614,ProdFawcett_Revision2019,3.2.4,59.89361959727362,
,,,,39,0,39,0,,,,,,,,,,,,,1426.6102403113046,None,,,,,,,,,,,,,,,,,,,,,,victory,D_new,39,346,1421.325814657158,None,1421.325814657158,None,1421.325814657158,None,1,2.3437786805934593,1421.325814657158,None,1423.7259793659896,None,1423.7259793659896,None,1424.2429635647022,None,1424.2429635647022,None,1424.2429635647022,None,n,2.321778419970542,1424.2429635647022,None,sing31,001,2019_Nov_11_1614,ProdFawcett_Revision2019,3.2.4,59.89361959727362,
,,,,40,0,40,0,,,,,,,,,,,,,1433.1122713366512,None,,,,,,,,,,,,,,,,,,,,,,cross,B_aloud,40,80,1427.1273411373058,None,1427.1273411373058,None,1427.1273411373058,None,6,4.326067816124123,1427.1273411373058,None,1431.5001161607797,None,1431.5001161607797,None,1432.0286477050395,None,1432.0286477050395,None,1432.0286477050395,None,r,1.0406152198293057,1432.0286477050395,None,sing31,001,2019_Nov_11_1614,ProdFawcett_Revision2019,3.2.4,59.89361959727362,
,,,,41,0,41,0,,,,,,,,,,,,,1437.0802296220254,None,,,,,,,,,,,,,,,,,,,,,,title,C_sing,41,331,1433.629399842196,None,1433.629399842196,None,1433.629399842196,None,6,1.870899190171258,1433.629399842196,None,1435.5509118543396,None,1435.5509118543396,None,1436.0798915583928,None,1436.0798915583928,None,1436.0798915583928,None,r,0.9571738377935617,1436.0798915583928,None,sing31,001,2019_Nov_11_1614,ProdFawcett_Revision2019,3.2.4,59.89361959727362,
,,,,42,0,42,0,,,,,,,,,,,,,1440.2147960530838,None,,,,,,,,,,,,,,,,,,,,,,pretty,D_new,42,233,1437.5972001364698,None,1437.5972001364698,None,1437.5972001364698,None,1,1.0151777197716,1437.5972001364698,None,1438.6640350367034,None,1438.6640350367034,None,1439.1810276325814,None,1439.1810276325814,None,1439.1810276325814,None,n,0.9919129083391454,1439.1810276325814,None,sing31,001,2019_Nov_11_1614,ProdFawcett_Revision2019,3.2.4,59.89361959727362,
,,,,43,0,43,0,,,,,,,,,,,,,1443.5657539985277,None,,,,,,,,,,,,,,,,,,,,,,course,D_new,43,74,1440.733233894316,None,1440.733233894316,None,1440.733233894316,None,1,1.9187362826869503,1440.733233894316,None,1442.7154353261258,None,1442.7154353261258,None,1443.2323402182828,None,1443.2323402182828,None,1443.2323402182828,None,n,0.3001799792309612,1443.2323402182828,None,sing31,001,2019_Nov_11_1614,ProdFawcett_Revision2019,3.2.4,59.89361959727362,
,,,,44,0,44,0,,,,,,,,,,,,,1445.7163313347046,None,,,,,,,,,,,,,,,,,,,,,,dozen,D_new,44,102,1444.0882613546,None,1444.0882613546,None,1444.0882613546,None,1,0.9636153961700984,1444.0882613546,None,1445.1161993437154,None,1445.1161993437154,None,1445.6361346793265,None,1445.6361346793265,None,1445.6361346793265,None,n,0.03168841169463121,1445.6361346793265,None,sing31,001,2019_Nov_11_1614,ProdFawcett_Revision2019,3.2.4,59.89361959727362,
,,,,45,0,45,0,,,,,,,,,,,,,1449.48427133292,None,,,,,,,,,,,,,,,,,,,,,,dance,D_new,45,84,1446.233354720187,None,1446.233354720187,None,1446.233354720187,None,3,1.802472871714599,1446.233354720187,None,1448.0888115243933,None,1448.0888115243933,None,1448.617232972494,None,1448.617232972494,None,1448.617232972494,None,f,0.8184865758876185,1448.617232972494,None,sing31,001,2019_Nov_11_1614,ProdFawcett_Revision2019,3.2.4,59.89361959727362,
,,,,46,0,46,0,,,,,,,,,,,,,1453.835674639101,None,,,,,,,,,,,,,,,,,,,,,,colonel,B_aloud,46,55,1450.002518838417,None,1450.002518838417,None,1450.002518838417,None,6,1.6578740058303083,1450.002518838417,None,1451.7183419891517,None,1451.7183419891517,None,1452.2351458043258,None,1452.2351458043258,None,1452.2351458043258,None,r,1.5524074826826109,1452.2351458043258,None,sing31,001,2019_Nov_11_1614,ProdFawcett_Revision2019,3.2.4,59.89361959727362,
,,,,47,0,47,0,,,,,,,,,,,,,1457.5201800974137,None,,,,,,,,,,,,,,,,,,,,,,narrow,B_aloud,47,197,1454.353347405323,None,1454.353347405323,None,1454.353347405323,None,6,1.8907855423221918,1454.353347405323,None,1456.3030113787809,None,1456.3030113787809,None,1456.8201694299041,None,1456.8201694299041,None,1456.8201694299041,None,r,0.6556711496123171,1456.8201694299041,None,sing31,001,2019_Nov_11_1614,ProdFawcett_Revision2019,3.2.4,59.89361959727362,
,,,,48,0,48,0,,,,,,,,,,,,,1460.8712400528593,None,,,,,,,,,,,,,,,,,,,,,,enemy,A_silent,48,113,1458.0371356835649,None,1458.0371356835649,None,1458.0371356835649,None,6,1.454014793315764,1458.0371356835649,None,1459.5438908915958,None,1459.5438908915958,None,1460.071028817515,None,1460.071028817515,None,1460.071028817515,None,r,0.7642331164897769,1460.071028817515,None,sing31,001,2019_Nov_11_1614,ProdFawcett_Revision2019,3.2.4,59.89361959727362,
,,,,49,0,49,0,,,,,,,,,,,,,1464.822380061275,None,,,,,,,,,,,,,,,,,,,,,,population,D_new,49,227,1461.3904927300773,None,1461.3904927300773,None,1461.3904927300773,None,6,1.9324712451534651,1461.3904927300773,None,1463.3886220283757,None,1463.3886220283757,None,1463.9055869447102,None,1463.9055869447102,None,1463.9055869447102,None,r,0.881554570219123,1463.9055869447102,None,sing31,001,2019_Nov_11_1614,ProdFawcett_Revision2019,3.2.4,59.89361959727362,
,,,,50,0,50,0,,,,,,,,,,,,,1467.6732753389888,None,,,,,,,,,,,,,,,,,,,,,,angle,D_new,50,7,1465.3395113658735,None,1465.3395113658735,None,1465.3395113658735,None,1,0.7673708570491726,1465.3395113658735,None,1466.1638999045526,None,1466.1638999045526,None,1466.6898096673758,None,1466.6898096673758,None,1466.6898096673758,None,n,0.9452184522406242,1466.6898096673758,None,sing31,001,2019_Nov_11_1614,ProdFawcett_Revision2019,3.2.4,59.89361959727362,
,,,,51,0,51,0,,,,,,,,,,,,,1472.458319739775,None,,,,,,,,,,,,,,,,,,,,,,detective,D_new,51,92,1468.1913934659487,None,1468.1913934659487,None,1468.1913934659487,None,4,2.6436691131448242,1468.1913934659487,None,1470.8910735339723,None,1470.8910735339723,None,1471.4079743830498,None,1471.4079743830498,None,1471.4079743830498,None,f,1.0025207044536728,1471.4079743830498,None,sing31,001,2019_Nov_11_1614,ProdFawcett_Revision2019,3.2.4,59.89361959727362,
,,,,52,0,52,0,,,,,,,,,,,,,1476.3262338933828,None,,,,,,,,,,,,,,,,,,,,,,height,B_aloud,52,152,1472.975318866781,None,1472.975318866781,None,1472.975318866781,None,6,1.7870827347760496,1472.975318866781,None,1474.8163938158305,None,1474.8163938158305,None,1475.3457317989123,None,1475.3457317989123,None,1475.3457317989123,None,r,0.9447780676009643,1475.3457317989123,None,sing31,001,2019_Nov_11_1614,ProdFawcett_Revision2019,3.2.4,59.89361959727362,
,,,,53,0,53,0,,,,,,,,,,,,,1479.710631836886,None,,,,,,,,,,,,,,,,,,,,,,rapid,C_sing,53,252,1476.8437073046944,None,1476.8437073046944,None,1476.8437073046944,None,6,1.3505928242802838,1476.8437073046944,None,1478.2600511729443,None,1478.2600511729443,None,1478.777014223242,None,1478.777014223242,None,1478.777014223242,None,r,0.8971350428919322,1478.777014223242,None,sing31,001,2019_Nov_11_1614,ProdFawcett_Revision2019,3.2.4,59.89361959727362,
,,,,54,0,54,0,,,,,,,,,,,,,1483.6951104553727,None,,,,,,,,,,,,,,,,,,,,,,stranger,D_new,54,309,1480.2283612062192,None,1480.2283612062192,None,1480.2283612062192,None,4,1.9821563359246284,1480.2283612062192,None,1482.2613545995164,None,1482.2613545995164,None,1482.7782122187455,None,1482.7782122187455,None,1482.7782122187455,None,f,0.8719003188125498,1482.7782122187455,None,sing31,001,2019_Nov_11_1614,ProdFawcett_Revision2019,3.2.4,59.89361959727362,
,,,,55,0,55,0,,,,,,,,,,,,,1487.363031513316,None,,,,,,,,,,,,,,,,,,,,,,crisis,C_sing,55,79,1484.2132372905025,None,1484.2132372905025,None,1484.2132372905025,None,6,1.4366146239426598,1484.2132372905025,None,1485.7040938666178,None,1485.7040938666178,None,1486.2293592247988,None,1486.2293592247988,None,1486.2293592247988,None,f,1.0928412304519952,1486.2293592247988,None,sing31,001,2019_Nov_11_1614,ProdFawcett_Revision2019,3.2.4,59.89361959727362,
,,,,56,0,56,0,,,,,,,,,,,,,1491.7309738129752,None,,,,,,,,,,,,,,,,,,,,,,couch,C_sing,56,70,1487.8807307150564,None,1487.8807307150564,None,1487.8807307150564,None,6,1.536931819065103,1487.8807307150564,None,1489.4707189310348,None,1489.4707189310348,None,1489.9971841507559,None,1489.9971841507559,None,1489.9971841507559,None,r,1.692978819551172,1489.9971841507559,None,sing31,001,2019_Nov_11_1614,ProdFawcett_Revision2019,3.2.4,59.89361959727362,
,,,,57,0,57,0,,,,,,,,,,,,,1495.1321971865773,None,,,,,,,,,,,,,,,,,,,,,,close,A_silent,57,53,1492.2498240482983,None,1492.2498240482983,None,1492.2498240482983,None,6,1.432107834522867,1492.2498240482983,None,1493.7198310863669,None,1493.7198310863669,None,1494.2484245208407,None,1494.2484245208407,None,1494.2484245208407,None,r,0.8494030704387114,1494.2484245208407,None,sing31,001,2019_Nov_11_1614,ProdFawcett_Revision2019,3.2.4,59.89361959727362,
,,,,58,0,58,0,,,,,,,,,,,,,1498.633203757825,None,,,,,,,,,,,,,,,,,,,,,,engineer,D_new,58,114,1495.6506126353697,None,1495.6506126353697,None,1495.6506126353697,None,1,1.1271069497115604,1495.6506126353697,None,1496.8327493157094,None,1496.8327493157094,None,1497.349551264847,None,1497.349551264847,None,1497.349551264847,None,n,1.2442878286829,1497.349551264847,None,sing31,001,2019_Nov_11_1614,ProdFawcett_Revision2019,3.2.4,59.89361959727362,
,,,,59,0,59,0,,,,,,,,,,,,,1505.9188159002497,None,,,,,,,,,,,,,,,,,,,,,,session,D_new,59,281,1499.1517855948823,None,1499.1517855948823,None,1499.1517855948823,None,3,5.313334604311422,1499.1517855948823,None,1504.5184617887026,None,1504.5184617887026,None,1505.035369168908,None,1505.035369168908,None,1505.035369168908,None,f,0.8458495147215217,1505.035369168908,None,sing31,001,2019_Nov_11_1614,ProdFawcett_Revision2019,3.2.4,59.89361959727362,
,,,,60,0,60,0,,,,,,,,,,,,,1509.3537678855728,None,,,,,,,,,,,,,,,,,,,,,,watch,B_aloud,60,351,1506.4360373966183,None,1506.4360373966183,None,1506.4360373966183,None,6,1.3650163542561131,1506.4360373966183,None,1507.8434637869168,None,1507.8434637869168,None,1508.3697228095925,None,1508.3697228095925,None,1508.3697228095925,None,r,0.9510457735668751,1508.3697228095925,None,sing31,001,2019_Nov_11_1614,ProdFawcett_Revision2019,3.2.4,59.89361959727362,
,,,,61,0,61,0,,,,,,,,,,,,,1513.354508080094,None,,,,,,,,,,,,,,,,,,,,,,income,D_new,61,159,1509.8718698402145,None,1509.8718698402145,None,1509.8718698402145,None,4,2.4652079029137894,1509.8718698402145,None,1512.375677332414,None,1512.375677332414,None,1512.9044390211893,None,1512.9044390211893,None,1512.9044390211893,None,f,0.4166831759075649,1512.9044390211893,None,sing31,001,2019_Nov_11_1614,ProdFawcett_Revision2019,3.2.4,59.89361959727362,
,,,,62,0,62,0,,,,,,,,,,,,,1519.8733328129165,None,,,,,,,,,,,,,,,,,,,,,,territory,B_aloud,62,324,1513.8715305325577,None,1513.8715305325577,None,1513.8715305325577,None,2,3.1772526405193275,1513.8715305325577,None,1517.1057339883955,None,1517.1057339883955,None,1517.6225555309175,None,1517.6225555309175,None,1517.6225555309175,None,n,2.217744079921431,1517.6225555309175,None,sing31,001,2019_Nov_11_1614,ProdFawcett_Revision2019,3.2.4,59.89361959727362,
,,,,63,0,63,0,,,,,,,,,,,,,1524.024711611817,None,,,,,,,,,,,,,,,,,,,,,,meeting,D_new,63,187,1520.391853070766,None,1520.391853070766,None,1520.391853070766,None,2,2.728295739434543,1520.391853070766,None,1523.1744311931661,None,1523.1744311931661,None,1523.6913239560854,None,1523.6913239560854,None,1523.6913239560854,None,n,0.29336583554413664,1523.6913239560854,None,sing31,001,2019_Nov_11_1614,ProdFawcett_Revision2019,3.2.4,59.89361959727362,
,,,,64,0,64,0,,,,,,,,,,,,,1527.8258250758627,None,,,,,,,,,,,,,,,,,,,,,,count,C_sing,64,72,1524.5427314608487,None,1524.5427314608487,None,1524.5427314608487,None,5,1.8012661680413657,1524.5427314608487,None,1526.4086837879677,None,1526.4086837879677,None,1526.925680115918,None,1526.925680115918,None,1526.925680115918,None,f,0.8666589329814087,1526.925680115918,None,sing31,001,2019_Nov_11_1614,ProdFawcett_Revision2019,3.2.4,59.89361959727362,
,,,,65,0,65,0,,,,,,,,,,,,,1531.760534942935,None,,,,,,,,,,,,,,,,,,,,,,range,B_aloud,65,251,1528.3429825049743,None,1528.3429825049743,None,1528.3429825049743,None,6,1.7612773145001483,1528.3429825049743,None,1530.1599886918184,None,1530.1599886918184,None,1530.6768248516273,None,1530.6768248516273,None,1530.6768248516273,None,f,1.0507795212433848,1530.6768248516273,None,sing31,001,2019_Nov_11_1614,ProdFawcett_Revision2019,3.2.4,59.89361959727362,
,,,,66,0,66,0,,,,,,,,,,,,,1539.7130492873139,None,,,,,,,,,,,,,,,,,,,,,,prime,A_silent,66,235,1532.2788785493185,None,1532.2788785493185,None,1532.2788785493185,None,1,5.968499435990452,1532.2788785493185,None,1538.3126283094552,None,1538.3126283094552,None,1538.8293126982862,None,1538.8293126982862,None,1538.8293126982862,None,n,0.8427195493150066,1538.8293126982862,None,sing31,001,2019_Nov_11_1614,ProdFawcett_Revision2019,3.2.4,59.89361959727362,
,,,,67,0,67,0,,,,,,,,,,,,,1546.4985707714604,None,,,,,,,,,,,,,,,,,,,,,,trial,A_silent,67,341,1540.2170399621073,None,1540.2170399621073,None,1540.2170399621073,None,5,4.6621198611301224,1540.2170399621073,None,1544.9218245732764,None,1544.9218245732764,None,1545.4482627354673,None,1545.4482627354673,None,1545.4482627354673,None,f,1.0074358448837302,1545.4482627354673,None,sing31,001,2019_Nov_11_1614,ProdFawcett_Revision2019,3.2.4,59.89361959727362,
,,,,68,0,68,0,,,,,,,,,,,,,1551.8167592480004,None,,,,,,,,,,,,,,,,,,,,,,permit,A_silent,68,218,1547.016108250028,None,1547.016108250028,None,1547.016108250028,None,6,3.343176572780976,1547.016108250028,None,1550.4163830550197,None,1550.4163830550197,None,1550.9333146937015,None,1550.9333146937015,None,1550.9333146937015,None,r,0.8421510301614035,1550.9333146937015,None,sing31,001,2019_Nov_11_1614,ProdFawcett_Revision2019,3.2.4,59.89361959727362,
,,,,69,0,69,0,,,,,,,,,,,,,1554.7345143064367,None,,,,,,,,,,,,,,,,,,,,,,force,B_aloud,69,131,1552.3339344044598,None,1552.3339344044598,None,1552.3339344044598,None,6,1.4414392615972247,1552.3339344044598,None,1553.8341883409412,None,1553.8341883409412,None,1554.3510478262078,None,1554.3510478262078,None,1554.3510478262078,None,r,0.34410648102584673,1554.3510478262078,None,sing31,001,2019_Nov_11_1614,ProdFawcett_Revision2019,3.2.4,59.89361959727362,
,,,,70,0,70,0,,,,,,,,,,,,,1557.6352996279438,None,,,,,,,,,,,,,,,,,,,,,,suggestion,D_new,70,314,1555.2530911673957,None,1555.2530911673957,None,1555.2530911673957,None,1,1.0818788873821177,1555.2530911673957,None,1556.3849589985111,None,1556.3849589985111,None,1556.9024041082666,None,1556.9024041082666,None,1556.9024041082666,None,n,0.6960596459939552,1556.9024041082666,None,sing31,001,2019_Nov_11_1614,ProdFawcett_Revision2019,3.2.4,59.89361959727362,
,,,,71,0,71,0,,,,,,,,,,,,,1559.6027385331272,None,,,,,,,,,,,,,,,,,,,,,,orchestra,D_new,71,206,1558.1521385868073,None,1558.1521385868073,None,1558.1521385868073,None,1,0.7823252744401543,1558.1521385868073,None,1558.9857313510638,None,1558.9857313510638,None,1559.5025998555066,None,1559.5025998555066,None,1559.5025998555066,None,n,0.06365921693031851,1559.5025998555066,None,sing31,001,2019_Nov_11_1614,ProdFawcett_Revision2019,3.2.4,59.89361959727362,
,,,,72,0,72,0,,,,,,,,,,,,,1566.4881393158057,None,,,,,,,,,,,,,,,,,,,,,,bicycle,A_silent,72,21,1560.1213561358863,None,1560.1213561358863,None,1560.1213561358863,None,3,4.612773456002287,1560.1213561358863,None,1564.7876428567652,None,1564.7876428567652,None,1565.3045545910572,None,1565.3045545910572,None,1565.3045545910572,None,f,1.1422849804885118,1565.3045545910572,None,sing31,001,2019_Nov_11_1614,ProdFawcett_Revision2019,3.2.4,59.89361959727362,
,,,,73,0,73,0,,,,,,,,,,,,,1570.6227785222918,None,,,,,,,,,,,,,,,,,,,,,,household,C_sing,73,154,1567.007417184518,None,1567.007417184518,None,1567.007417184518,None,2,2.039197032006996,1567.007417184518,None,1569.10570413181,None,1569.10570413181,None,1569.622585387503,None,1569.622585387503,None,1569.622585387503,None,n,0.9672215119180692,1569.622585387503,None,sing31,001,2019_Nov_11_1614,ProdFawcett_Revision2019,3.2.4,59.89361959727362,
,,,,74,0,74,0,,,,,,,,,,,,,1578.825434141193,None,,,,,,,,,,,,,,,,,,,,,,afternoon,A_silent,74,3,1571.1397987977125,None,1571.1397987977125,None,1571.1397987977125,None,2,5.521611036487229,1571.1397987977125,None,1576.7248118490843,None,1576.7248118490843,None,1577.2416806645333,None,1577.2416806645333,None,1577.2416806645333,None,n,1.5403550632254337,1577.2416806645333,None,sing31,001,2019_Nov_11_1614,ProdFawcett_Revision2019,3.2.4,59.89361959727362,
,,,,75,0,75,0,,,,,,,,,,,,,1581.7431167352079,None,,,,,,,,,,,,,,,,,,,,,,drove,C_sing,75,106,1579.3423492965512,None,1579.3423492965512,None,1579.3423492965512,None,2,1.5990055268894139,1579.3423492965512,None,1580.9812031022238,None,1580.9812031022238,None,1581.5097072779472,None,1581.5097072779472,None,1581.5097072779472,None,n,0.19996852618260164,1581.5097072779472,None,sing31,001,2019_Nov_11_1614,ProdFawcett_Revision2019,3.2.4,59.89361959727362,
,,,,76,0,76,0,,,,,,,,,,,,,1584.5438759633025,None,,,,,,,,,,,,,,,,,,,,,,running,B_aloud,76,268,1582.261265340765,None,1582.261265340765,None,1582.261265340765,None,2,1.4959300186510518,1582.261265340765,None,1583.8004345377258,None,1583.8004345377258,None,1584.329297303484,None,1584.329297303484,None,1584.329297303484,None,n,0.17987193390672473,1584.329297303484,None,sing31,001,2019_Nov_11_1614,ProdFawcett_Revision2019,3.2.4,59.89361959727362,
,,,,77,0,77,0,,,,,,,,,,,,,1588.7118646650733,None,,,,,,,,,,,,,,,,,,,,,,route,C_sing,77,267,1585.0652944870126,None,1585.0652944870126,None,1585.0652944870126,None,4,2.0517053864077752,1585.0652944870126,None,1587.1781533141902,None,1587.1781533141902,None,1587.6948818658875,None,1587.6948818658875,None,1587.6948818658875,None,f,0.9821137280896437,1587.6948818658875,None,sing31,001,2019_Nov_11_1614,ProdFawcett_Revision2019,3.2.4,59.89361959727362,
,,,,78,0,78,0,,,,,,,,,,,,,1592.67982668252,None,,,,,,,,,,,,,,,,,,,,,,color,C_sing,78,56,1589.228765825157,None,1589.228765825157,None,1589.228765825157,None,5,1.5446441483736635,1589.228765825157,None,1590.8189729894311,None,1590.8189729894311,None,1591.3484260447713,None,1591.3484260447713,None,1591.3484260447713,None,f,1.2964136953405614,1591.3484260447713,None,sing31,001,2019_Nov_11_1614,ProdFawcett_Revision2019,3.2.4,59.89361959727362,
,,,,79,0,79,0,,,,,,,,,,,,,1597.5148329695085,None,,,,,,,,,,,,,,,,,,,,,,minute,D_new,79,192,1593.1973389695931,None,1593.1973389695931,None,1593.1973389695931,None,5,3.439461573796507,1593.1973389695931,None,1596.6977997251333,None,1596.6977997251333,None,1597.2147195455827,None,1597.2147195455827,None,1597.2147195455827,None,f,0.26209292800103867,1597.2147195455827,None,sing31,001,2019_Nov_11_1614,ProdFawcett_Revision2019,3.2.4,59.89361959727362,
,,,,80,0,80,0,,,,,,,,,,,,,1602.3497848304287,None,,,,,,,,,,,,,,,,,,,,,,broad,D_new,80,31,1598.0316100381579,None,1598.0316100381579,None,1598.0316100381579,None,2,2.6365875042101834,1598.0316100381579,None,1600.7202083367674,None,1600.7202083367674,None,1601.2492253615528,None,1601.2492253615528,None,1601.2492253615528,None,n,1.0673253568565997,1601.2492253615528,None,sing31,001,2019_Nov_11_1614,ProdFawcett_Revision2019,3.2.4,59.89361959727362,
,,,,81,0,81,0,,,,,,,,,,,,,1605.90069419672,None,,,,,,,,,,,,,,,,,,,,,,scene,A_silent,81,273,1602.867435515218,None,1602.867435515218,None,1602.867435515218,None,5,2.20059893555117,1602.867435515218,None,1605.1339680553192,None,1605.1339680553192,None,1605.6507429469266,None,1605.6507429469266,None,1605.6507429469266,None,f,0.20126946470554685,1605.6507429469266,None,sing31,001,2019_Nov_11_1614,ProdFawcett_Revision2019,3.2.4,59.89361959727362,
,,,,82,0,82,0,,,,,,,,,,,,,1609.41850193959,None,,,,,,,,,,,,,,,,,,,,,,thick,D_new,82,327,1606.4176006439075,None,1606.4176006439075,None,1606.4176006439075,None,1,1.8183512882342256,1606.4176006439075,None,1608.3015739085786,None,1608.3015739085786,None,1608.8182548763425,None,1608.8182548763425,None,1608.8182548763425,None,n,0.5535672244359375,1608.8182548763425,None,sing31,001,2019_Nov_11_1614,ProdFawcett_Revision2019,3.2.4,59.89361959727362,
,,,,83,0,83,0,,,,,,,,,,,,,1611.7693298844833,None,,,,,,,,,,,,,,,,,,,,,,beauty,D_new,83,18,1609.936613224415,None,1609.936613224415,None,1609.936613224415,None,1,1.0274503315486072,1609.936613224415,None,1611.0093749679281,None,1611.0093749679281,None,1611.5359338004855,None,1611.5359338004855,None,1611.5359338004855,None,n,0.19590336542842124,1611.5359338004855,None,sing31,001,2019_Nov_11_1614,ProdFawcett_Revision2019,3.2.4,59.89361959727362,
,,,,84,0,84,0,,,,,,,,,,,,,1615.1871289502833,None,,,,,,,,,,,,,,,,,,,,,,theme,D_new,84,326,1612.286608916981,None,1612.286608916981,None,1612.286608916981,None,1,1.6529877889670388,1612.286608916981,None,1613.9946111972777,None,1613.9946111972777,None,1614.5202954806773,None,1614.5202954806773,None,1614.5202954806773,None,n,0.6192209234950496,1614.5202954806773,None,sing31,001,2019_Nov_11_1614,ProdFawcett_Revision2019,3.2.4,59.89361959727362,
,,,,85,0,85,0,,,,,,,,,,,,,1618.7549247038678,None,,,,,,,,,,,,,,,,,,,,,,community,C_sing,85,63,1615.7053773887992,None,1615.7053773887992,None,1615.7053773887992,None,6,1.6020471665633522,1615.7053773887992,None,1617.3710654229326,None,1617.3710654229326,None,1617.8880057697852,None,1617.8880057697852,None,1617.8880057697852,None,r,0.8279165918957005,1617.8880057697852,None,sing31,001,2019_Nov_11_1614,ProdFawcett_Revision2019,3.2.4,59.89361959727362,
,,,,86,0,86,0,,,,,,,,,,,,,1622.4393032716916,None,,,,,,,,,,,,,,,,,,,,,,committee,D_new,86,62,1619.2738841023329,None,1619.2738841023329,None,1619.2738841023329,None,1,2.1453104478459863,1619.2738841023329,None,1621.4722808036777,None,1621.4722808036777,None,1621.9892261266277,None,1621.9892261266277,None,1621.9892261266277,None,n,0.40672476053259743,1621.9892261266277,None,sing31,001,2019_Nov_11_1614,ProdFawcett_Revision2019,3.2.4,59.89361959727362,
,,,,87,0,87,0,,,,,,,,,,,,,1632.3759149410753,None,,,,,,,,,,,,,,,,,,,,,,incident,D_new,87,158,1622.9575741026465,None,1622.9575741026465,None,1622.9575741026465,None,4,2.5582388470884325,1622.9575741026465,None,1625.5625711620842,None,1625.5625711620842,None,1626.090656412589,None,1626.090656412589,None,1626.090656412589,None,f,6.248173227910229,1626.090656412589,None,sing31,001,2019_Nov_11_1614,ProdFawcett_Revision2019,3.2.4,59.89361959727362,
,,,,88,0,88,0,,,,,,,,,,,,,1635.9602546642363,None,,,,,,,,,,,,,,,,,,,,,,relation,A_silent,88,257,1632.8941067764808,None,1632.8941067764808,None,1632.8941067764808,None,5,2.157306264190993,1632.8941067764808,None,1635.0996326706936,None,1635.0996326706936,None,1635.6268150704855,None,1635.6268150704855,None,1635.6268150704855,None,f,0.28770770153732883,1635.6268150704855,None,sing31,001,2019_Nov_11_1614,ProdFawcett_Revision2019,3.2.4,59.89361959727362,
,,,,89,0,89,0,,,,,,,,,,,,,1640.6117393607146,None,,,,,,,,,,,,,,,,,,,,,,short,A_silent,89,285,1636.4771371639545,None,1636.4771371639545,None,1636.4771371639545,None,2,1.4456907150060943,1636.4771371639545,None,1637.9688934807218,None,1637.9688934807218,None,1638.4945444864688,None,1638.4945444864688,None,1638.4945444864688,None,n,2.084188107686714,1638.4945444864688,None,sing31,001,2019_Nov_11_1614,ProdFawcett_Revision2019,3.2.4,59.89361959727362,
,,,,90,0,90,0,,,,,,,,,,,,,1643.0793370345136,None,,,,,,,,,,,,,,,,,,,,,,owner,B_aloud,90,208,1641.1299654067916,None,1641.1299654067916,None,1641.1299654067916,None,2,1.064512928678596,1641.1299654067916,None,1642.2365453317834,None,1642.2365453317834,None,1642.7625642577486,None,1642.7625642577486,None,1642.7625642577486,None,n,0.2717198108712182,1642.7625642577486,None,sing31,001,2019_Nov_11_1614,ProdFawcett_Revision2019,3.2.4,59.89361959727362,
,,,,91,0,91,0,,,,,,,,,,,,,1649.8147918234008,None,,,,,,,,,,,,,,,,,,,,,,blind,D_new,91,24,1643.5969575517101,None,1643.5969575517101,None,1643.5969575517101,None,4,3.813094041091972,1643.5969575517101,None,1647.4639694766174,None,1647.4639694766174,None,1647.9808905410919,None,1647.9808905410919,None,1647.9808905410919,None,f,1.797096198230065,1647.9808905410919,None,sing31,001,2019_Nov_11_1614,ProdFawcett_Revision2019,3.2.4,59.89361959727362,
,,,,92,0,92,0,,,,,,,,,,,,,1652.832450749852,None,,,,,,,,,,,,,,,,,,,,,,tennis,D_new,92,323,1650.3329566012762,None,1650.3329566012762,None,1650.3329566012762,None,1,1.0214902106163208,1650.3329566012762,None,1651.4153284333288,None,1651.4153284333288,None,1651.9321524639,None,1651.9321524639,None,1651.9321524639,None,n,0.8535207912245824,1651.9321524639,None,sing31,001,2019_Nov_11_1614,ProdFawcett_Revision2019,3.2.4,59.89361959727362,
,,,,93,0,93,0,,,,,,,,,,,,,1658.3174268225976,None,,,,,,,,,,,,,,,,,,,,,,subject,D_new,93,312,1653.3554392323622,None,1653.3554392323622,None,1653.3554392323622,None,4,2.1189872024096985,1653.3554392323622,None,1655.5332759423409,None,1655.5332759423409,None,1656.054549537208,None,1656.054549537208,None,1656.054549537208,None,f,2.2197628205267392,1656.054549537208,None,sing31,001,2019_Nov_11_1614,ProdFawcett_Revision2019,3.2.4,59.89361959727362,
,,,,94,0,94,0,,,,,,,,,,,,,1664.3861308695023,None,,,,,,,,,,,,,,,,,,,,,,public,A_silent,94,244,1658.8358497355366,None,1658.8358497355366,None,1658.8358497355366,None,5,4.694004206668069,1658.8358497355366,None,1663.5744388439161,None,1663.5744388439161,None,1664.1025660802443,None,1664.1025660802443,None,1664.1025660802443,None,f,0.25056766388661345,1664.1025660802443,None,sing31,001,2019_Nov_11_1614,ProdFawcett_Revision2019,3.2.4,59.89361959727362,
,,,,95,0,95,0,,,,,,,,,,,,,1668.3207368605372,None,,,,,,,,,,,,,,,,,,,,,,disease,B_aloud,95,97,1664.9040126318241,None,1664.9040126318241,None,1664.9040126318241,None,6,1.2812117170924466,1664.9040126318241,None,1666.23708803743,None,1666.23708803743,None,1666.7535858226001,None,1666.7535858226001,None,1666.7535858226001,None,r,1.527855105989147,1666.7535858226001,None,sing31,001,2019_Nov_11_1614,ProdFawcett_Revision2019,3.2.4,59.89361959727362,
,,,,96,0,96,0,,,,,,,,,,,,,1671.5217466351478,None,,,,,,,,,,,,,,,,,,,,,,silence,A_silent,96,288,1668.838845657313,None,1668.838845657313,None,1668.838845657313,None,4,1.834048388195697,1668.838845657313,None,1670.7380834124588,None,1670.7380834124588,None,1671.2549718212922,None,1671.2549718212922,None,1671.2549718212922,None,f,0.22655892585953552,1671.2549718212922,None,sing31,001,2019_Nov_11_1614,ProdFawcett_Revision2019,3.2.4,59.89361959727362,
,,,,97,0,97,0,,,,,,,,,,,,,1674.5392180249191,None,,,,,,,,,,,,,,,,,,,,,,motion,D_new,97,194,1672.0400585189082,None,1672.0400585189082,None,1672.0400585189082,None,2,1.616593543948511,1672.0400585189082,None,1673.7100455903847,None,1673.7100455903847,None,1674.2391117541338,None,1674.2391117541338,None,1674.2391117541338,None,n,0.2583804481655534,1674.2391117541338,None,sing31,001,2019_Nov_11_1614,ProdFawcett_Revision2019,3.2.4,59.89361959727362,
,,,,98,0,98,0,,,,,,,,,,,,,1678.574009033484,None,,,,,,,,,,,,,,,,,,,,,,strength,D_new,98,310,1675.0561250941182,None,1675.0561250941182,None,1675.0561250941182,None,2,2.872474747081469,1675.0561250941182,None,1677.9903333083494,None,1677.9903333083494,None,1678.5072070998967,None,1678.5072070998967,None,1678.5072070998967,None,n,0.02198782037885394,1678.5072070998967,None,sing31,001,2019_Nov_11_1614,ProdFawcett_Revision2019,3.2.4,59.89361959727362,
,,,,99,0,99,0,,,,,,,,,,,,,1682.5418721509905,None,,,,,,,,,,,,,,,,,,,,,,region,A_silent,99,256,1679.0908187577734,None,1679.0908187577734,None,1679.0908187577734,None,6,1.8055334827622573,1679.0908187577734,None,1680.9579463769505,None,1680.9579463769505,None,1681.4747439720022,None,1681.4747439720022,None,1681.4747439720022,None,r,1.021480258421434,1681.4747439720022,None,sing31,001,2019_Nov_11_1614,ProdFawcett_Revision2019,3.2.4,59.89361959727362,
,,,,100,0,100,0,,,,,,,,,,,,,1685.4943958255517,None,,,,,,,,,,,,,,,,,,,,,,reading,C_sing,100,254,1683.0599420720037,None,1683.0599420720037,None,1683.0599420720037,None,5,1.5642580591793376,1683.0599420720037,None,1684.6759201348777,None,1684.6759201348777,None,1685.1788005178878,None,1685.1788005178878,None,1685.1788005178878,None,f,0.2931680356641664,1685.1788005178878,None,sing31,001,2019_Nov_11_1614,ProdFawcett_Revision2019,3.2.4,59.89361959727362,
,,,,101,0,101,0,,,,,,,,,,,,,1688.1935947671363,None,,,,,,,,,,,,,,,,,,,,,,damage,D_new,101,83,1686.0262000870198,None,1686.0262000870198,None,1686.0262000870198,None,5,1.3018721634298345,1686.0262000870198,None,1687.383873587216,None,1687.383873587216,None,1687.9103161034918,None,1687.9103161034918,None,1687.9103161034918,None,f,0.25019601159510785,1687.9103161034918,None,sing31,001,2019_Nov_11_1614,ProdFawcett_Revision2019,3.2.4,59.89361959727362,
,,,,102,0,102,0,,,,,,,,,,,,,1690.7444086545538,None,,,,,,,,,,,,,,,,,,,,,,youth,D_new,102,359,1688.7123317962378,None,1688.7123317962378,None,1688.7123317962378,None,1,1.208304733730074,1688.7123317962378,None,1689.966210742089,None,1689.966210742089,None,1690.4943728111002,None,1690.4943728111002,None,1690.4943728111002,None,n,0.21006098518682847,1690.4943728111002,None,sing31,001,2019_Nov_11_1614,ProdFawcett_Revision2019,3.2.4,59.89361959727362,
,,,,103,0,103,0,,,,,,,,,,,,,1693.295220053923,None,,,,,,,,,,,,,,,,,,,,,,appeal,D_new,103,9,1691.262350441054,None,1691.262350441054,None,1691.262350441054,None,2,1.0333712657102296,1691.262350441054,None,1692.3615952871387,None,1692.3615952871387,None,1692.8785505622836,None,1692.8785505622836,None,1692.8785505622836,None,n,0.3691502473584478,1692.8785505622836,None,sing31,001,2019_Nov_11_1614,ProdFawcett_Revision2019,3.2.4,59.89361959727362,
,,,,104,0,104,0,,,,,,,,,,,,,1696.663059721569,None,,,,,,,,,,,,,,,,,,,,,,evidence,B_aloud,104,120,1693.818175569787,None,1693.818175569787,None,1693.818175569787,None,6,1.8220522608435203,1693.818175569787,None,1695.6960217032502,None,1695.6960217032502,None,1696.2129738683343,None,1696.2129738683343,None,1696.2129738683343,None,r,0.4025585227955162,1696.2129738683343,None,sing31,001,2019_Nov_11_1614,ProdFawcett_Revision2019,3.2.4,59.89361959727362,
,,,,105,0,105,0,,,,,,,,,,,,,1701.7812753178405,None,,,,,,,,,,,,,,,,,,,,,,throw,B_aloud,105,330,1697.1804846159284,None,1697.1804846159284,None,1697.1804846159284,None,6,3.154827545561602,1697.1804846159284,None,1700.3975196019373,None,1700.3975196019373,None,1700.9143402114405,None,1700.9143402114405,None,1700.9143402114405,None,r,0.8209537872926376,1700.9143402114405,None,sing31,001,2019_Nov_11_1614,ProdFawcett_Revision2019,3.2.4,59.89361959727362,
,,,,106,0,106,0,,,,,,,,,,,,,1708.0165607639055,None,,,,,,,,,,,,,,,,,,,,,,spoke,D_new,106,300,1702.2984028903666,None,1702.2984028903666,None,1702.2984028903666,None,2,3.1648823728273783,1702.2984028903666,None,1705.5053494604517,None,1705.5053494604517,None,1706.0326904733547,None,1706.0326904733547,None,1706.0326904733547,None,n,1.9506088099942644,1706.0326904733547,None,sing31,001,2019_Nov_11_1614,ProdFawcett_Revision2019,3.2.4,59.89361959727362,
,,,,107,0,107,0,,,,,,,,,,,,,1711.6177022807015,None,,,,,,,,,,,,,,,,,,,,,,month,C_sing,107,193,1708.533409985971,None,1708.533409985971,None,1708.533409985971,None,1,2.2497699332370757,1708.533409985971,None,1710.8342981260948,None,1710.8342981260948,None,1711.3509371080354,None,1711.3509371080354,None,1711.3509371080354,None,n,0.22470035339665628,1711.3509371080354,None,sing31,001,2019_Nov_11_1614,ProdFawcett_Revision2019,3.2.4,59.89361959727362,
,,,,108,0,108,0,,,,,,,,,,,,,1717.7696688811338,None,,,,,,,,,,,,,,,,,,,,,,device,D_new,108,93,1712.13513277317,None,1712.13513277317,None,1712.13513277317,None,2,4.783869419734401,1712.13513277317,None,1716.9694812822536,None,1716.9694812822536,None,1717.4863777772462,None,1717.4863777772462,None,1717.4863777772462,None,n,0.24101386745041964,1717.4863777772462,None,sing31,001,2019_Nov_11_1614,ProdFawcett_Revision2019,3.2.4,59.89361959727362,
,,,,109,0,109,0,,,,,,,,,,,,,1721.5376636164228,None,,,,,,,,,,,,,,,,,,,,,,block,A_silent,109,25,1718.2875661937614,None,1718.2875661937614,None,1718.2875661937614,None,6,1.662988812176991,1718.2875661937614,None,1719.994433923799,None,1719.994433923799,None,1720.5207971335194,None,1720.5207971335194,None,1720.5207971335194,None,r,0.9817302575656868,1720.5207971335194,None,sing31,001,2019_Nov_11_1614,ProdFawcett_Revision2019,3.2.4,59.89361959727362,
,,,,110,0,110,0,,,,,,,,,,,,,1726.7391691347593,None,,,,,,,,,,,,,,,,,,,,,,school,D_new,110,274,1722.0544245127548,None,1722.0544245127548,None,1722.0544245127548,None,4,2.9604235405495274,1722.0544245127548,None,1725.0625881119167,None,1725.0625881119167,None,1725.588987087338,None,1725.588987087338,None,1725.588987087338,None,f,1.1054612360439933,1725.588987087338,None,sing31,001,2019_Nov_11_1614,ProdFawcett_Revision2019,3.2.4,59.89361959727362,
,,,,111,0,111,0,,,,,,,,,,,,,1731.640884986523,None,,,,,,,,,,,,,,,,,,,,,,voice,C_sing,111,348,1727.2575509948929,None,1727.2575509948929,None,1727.2575509948929,None,6,2.404605875962261,1727.2575509948929,None,1729.7135148634488,None,1729.7135148634488,None,1730.2404154917122,None,1730.2404154917122,None,1730.2404154917122,None,r,1.3655609259394623,1730.2404154917122,None,sing31,001,2019_Nov_11_1614,ProdFawcett_Revision2019,3.2.4,59.89361959727362,
,,,,112,0,112,0,,,,,,,,,,,,,1735.74209134809,None,,,,,,,,,,,,,,,,,,,,,,hunger,D_new,112,155,1732.1596963460834,None,1732.1596963460834,None,1732.1596963460834,None,2,1.8860013354606053,1732.1596963460834,None,1734.0952428195696,None,1734.0952428195696,None,1734.6250414026872,None,1734.6250414026872,None,1734.6250414026872,None,n,1.084658348911944,1734.6250414026872,None,sing31,001,2019_Nov_11_1614,ProdFawcett_Revision2019,3.2.4,59.89361959727362,
,,,,113,0,113,0,,,,,,,,,,,,,1738.4263719489918,None,,,,,,,,,,,,,,,,,,,,,,agreement,D_new,113,5,1736.2616572084535,None,1736.2616572084535,None,1736.2616572084535,None,1,1.2960504402135484,1736.2616572084535,None,1737.6093741593122,None,1737.6093741593122,None,1738.1262728313468,None,1738.1262728313468,None,1738.1262728313468,None,n,0.2558190019126414,1738.1262728313468,None,sing31,001,2019_Nov_11_1614,ProdFawcett_Revision2019,3.2.4,59.89361959727362,
,,,,114,0,114,0,,,,,,,,,,,,,1746.9792611801258,None,,,,,,,,,,,,,,,,,,,,,,collection,D_new,114,54,1738.9455223052028,None,1738.9455223052028,None,1738.9455223052028,None,2,6.595762044255935,1738.9455223052028,None,1745.5844448432235,None,1745.5844448432235,None,1746.1126619603156,None,1746.1126619603156,None,1746.1126619603156,None,n,0.8285833889767673,1746.1126619603156,None,sing31,001,2019_Nov_11_1614,ProdFawcett_Revision2019,3.2.4,59.89361959727362,
,,,,115,0,115,0,,,,,,,,,,,,,1751.297193387637,None,,,,,,,,,,,,,,,,,,,,,,trash,C_sing,115,337,1747.4967628929917,None,1747.4967628929917,None,1747.4967628929917,None,6,2.3885153532828554,1747.4967628929917,None,1749.9355318562002,None,1749.9355318562002,None,1750.463440455239,None,1750.463440455239,None,1750.463440455239,None,r,0.7902686812813045,1750.463440455239,None,sing31,001,2019_Nov_11_1614,ProdFawcett_Revision2019,3.2.4,59.89361959727362,
,,,,116,0,116,0,,,,,,,,,,,,,1754.9648494683825,None,,,,,,,,,,,,,,,,,,,,,,management,C_sing,116,177,1751.8167440087009,None,1751.8167440087009,None,1751.8167440087009,None,6,1.3084770000104982,1751.8167440087009,None,1753.1810410058442,None,1753.1810410058442,None,1753.6980149413557,None,1753.6980149413557,None,1753.6980149413557,None,r,1.2347461614854183,1753.6980149413557,None,sing31,001,2019_Nov_11_1614,ProdFawcett_Revision2019,3.2.4,59.89361959727362,
,,,,117,0,117,0,,,,,,,,,,,,,1758.5828164152754,None,,,,,,,,,,,,,,,,,,,,,,story,B_aloud,117,306,1755.4817173508127,None,1755.4817173508127,None,1755.4817173508127,None,4,2.2510954412409774,1755.4817173508127,None,1757.7825448447475,None,1757.7825448447475,None,1758.2992656212928,None,1758.2992656212928,None,1758.2992656212928,None,f,0.2421409535636485,1758.2992656212928,None,sing31,001,2019_Nov_11_1614,ProdFawcett_Revision2019,3.2.4,59.89361959727362,
,,,,118,0,118,0,,,,,,,,,,,,,1761.5336339103642,None,,,,,,,,,,,,,,,,,,,,,,welcome,A_silent,118,354,1759.1007927234532,None,1759.1007927234532,None,1759.1007927234532,None,2,1.5280230492844566,1759.1007927234532,None,1760.672724547183,None,1760.672724547183,None,1761.2002154650272,None,1761.2002154650272,None,1761.2002154650272,None,n,0.30050249255873496,1761.2002154650272,None,sing31,001,2019_Nov_11_1614,ProdFawcett_Revision2019,3.2.4,59.89361959727362,
,,,,119,0,119,0,,,,,,,,,,,,,1767.5189889440444,None,,,,,,,,,,,,,,,,,,,,,,speech,B_aloud,119,298,1762.050514855051,None,1762.050514855051,None,1762.050514855051,None,3,3.5216682616101025,1762.050514855051,None,1765.623418572849,None,1765.623418572849,None,1766.1517607143942,None,1766.1517607143942,None,1766.1517607143942,None,f,1.3325871260267377,1766.1517607143942,None,sing31,001,2019_Nov_11_1614,ProdFawcett_Revision2019,3.2.4,59.89361959727362,
,,,,120,0,120,0,,,,,,,,,,,,,1772.220405359133,None,,,,,,,,,,,,,,,,,,,,,,degree,D_new,120,89,1768.0368613761839,None,1768.0368613761839,None,1768.0368613761839,None,2,1.8156001282595753,1768.0368613761839,None,1769.9031110251353,None,1769.9031110251353,None,1770.4197811076856,None,1770.4197811076856,None,1770.4197811076856,None,n,1.7521464863621077,1770.4197811076856,None,sing31,001,2019_Nov_11_1614,ProdFawcett_Revision2019,3.2.4,59.89361959727362,
,,,,121,0,121,0,,,,,,,,,,,,,1775.4880886218107,None,,,,,,,,,,,,,,,,,,,,,,beginning,D_new,121,19,1772.739218273724,None,1772.739218273724,None,1772.739218273724,None,2,1.9608853846102647,1772.739218273724,None,1774.7425880248347,None,1774.7425880248347,None,1775.272150243316,None,1775.272150243316,None,1775.272150243316,None,n,0.17197797703647666,1775.272150243316,None,sing31,001,2019_Nov_11_1614,ProdFawcett_Revision2019,3.2.4,59.89361959727362,
,,,,122,0,122,0,,,,,,,,,,,,,1781.523469608951,None,,,,,,,,,,,,,,,,,,,,,,medicine,B_aloud,122,186,1776.006967158689,None,1776.006967158689,None,1776.006967158689,None,1,4.780591104416999,1776.006967158689,None,1780.830769761872,None,1780.830769761872,None,1781.3430359980239,None,1781.3430359980239,None,1781.3430359980239,None,n,0.13237508206748316,1781.3430359980239,None,sing31,001,2019_Nov_11_1614,ProdFawcett_Revision2019,3.2.4,59.89361959727362,
,,,,123,0,123,0,,,,,,,,,,,,,1785.4745959330976,None,,,,,,,,,,,,,,,,,,,,,,mankind,C_sing,123,178,1782.042018479361,None,1782.042018479361,None,1782.042018479361,None,6,2.6741290507379745,1782.042018479361,None,1784.7629072974787,None,1784.7629072974787,None,1785.2912074531996,None,1785.2912074531996,None,1785.2912074531996,None,f,0.1444219034137859,1785.2912074531996,None,sing31,001,2019_Nov_11_1614,ProdFawcett_Revision2019,3.2.4,59.89361959727362,
,,,,124,0,124,0,,,,,,,,,,,,,1789.825991775133,None,,,,,,,,,,,,,,,,,,,,,,gesture,D_new,124,137,1785.9929015967364,None,1785.9929015967364,None,1785.9929015967364,None,1,3.162218294561171,1785.9929015967364,None,1789.209256101396,None,1789.209256101396,None,1789.7260816869966,None,1789.7260816869966,None,1789.7260816869966,None,n,0.052869171240672586,1789.7260816869966,None,sing31,001,2019_Nov_11_1614,ProdFawcett_Revision2019,3.2.4,59.89361959727362,
,,,,125,0,125,0,,,,,,,,,,,,,1794.094135637847,None,,,,,,,,,,,,,,,,,,,,,,working,D_new,125,357,1790.3440977728542,None,1790.3440977728542,None,1790.3440977728542,None,3,2.9148157397694376,1790.3440977728542,None,1793.31054892266,None,1793.31054892266,None,1793.8274003217675,None,1793.8274003217675,None,1793.8274003217675,None,f,0.2315804303771074,1793.8274003217675,None,sing31,001,2019_Nov_11_1614,ProdFawcett_Revision2019,3.2.4,59.89361959727362,
,,,,126,0,126,0,,,,,,,,,,,,,1797.7286353580976,None,,,,,,,,,,,,,,,,,,,,,,turkey,C_sing,126,342,1794.6121038598658,None,1794.6121038598658,None,1794.6121038598658,None,6,1.6073684809625775,1794.6121038598658,None,1796.2781277805889,None,1796.2781277805889,None,1796.7949906869226,None,1796.7949906869226,None,1796.7949906869226,None,r,0.8875856005415699,1796.7949906869226,None,sing31,001,2019_Nov_11_1614,ProdFawcett_Revision2019,3.2.4,59.89361959727362,
,,,,127,0,127,0,,,,,,,,,,,,,1801.7297584011303,None,,,,,,,,,,,,,,,,,,,,,,government,D_new,127,139,1798.248031409129,None,1798.248031409129,None,1798.248031409129,None,3,2.4590708195109983,1798.248031409129,None,1800.7520096436774,None,1800.7520096436774,None,1801.2800392240897,None,1801.2800392240897,None,1801.2800392240897,None,f,0.40233988550608046,1801.2800392240897,None,sing31,001,2019_Nov_11_1614,ProdFawcett_Revision2019,3.2.4,59.89361959727362,
,,,,128,0,128,0,,,,,,,,,,,,,1805.414394171,None,,,,,,,,,,,,,,,,,,,,,,member,D_new,128,188,1802.247185783538,None,1802.247185783538,None,1802.247185783538,None,2,1.4996935034869239,1802.247185783538,None,1803.7862511044605,None,1803.7862511044605,None,1804.313894104289,None,1804.313894104289,None,1804.313894104289,None,n,1.057164165503309,1804.313894104289,None,sing31,001,2019_Nov_11_1614,ProdFawcett_Revision2019,3.2.4,59.89361959727362,
,,,,129,0,129,0,,,,,,,,,,,,,1809.632412247296,None,,,,,,,,,,,,,,,,,,,,,,surface,D_new,129,316,1805.9331934013217,None,1805.9331934013217,None,1805.9331934013217,None,1,2.836893472012889,1805.9331934013217,None,1808.8218497958715,None,1808.8218497958715,None,1809.353386903098,None,1809.353386903098,None,1809.353386903098,None,n,0.23263225301161583,1809.353386903098,None,sing31,001,2019_Nov_11_1614,ProdFawcett_Revision2019,3.2.4,59.89361959727362,
,,,,130,0,130,0,,,,,,,,,,,,,1814.6672072989404,None,,,,,,,,,,,,,,,,,,,,,,weight,B_aloud,130,353,1810.1497040310442,None,1810.1497040310442,None,1810.1497040310442,None,6,2.8125056175476857,1810.1497040310442,None,1813.0167989945794,None,1813.0167989945794,None,1813.5336780732305,None,1813.5336780732305,None,1813.5336780732305,None,r,1.0926443635898977,1813.5336780732305,None,sing31,001,2019_Nov_11_1614,ProdFawcett_Revision2019,3.2.4,59.89361959727362,
,,,,131,0,131,0,,,,,,,,,,,,,1823.470160364077,None,,,,,,,,,,,,,,,,,,,,,,personnel,D_new,131,219,1815.1852140857154,None,1815.1852140857154,None,1815.1852140857154,None,2,6.041064001634368,1815.1852140857154,None,1821.2755492290007,None,1821.2755492290007,None,1821.80284670105,None,1821.80284670105,None,1821.80284670105,None,n,1.6225135450931703,1821.80284670105,None,sing31,001,2019_Nov_11_1614,ProdFawcett_Revision2019,3.2.4,59.89361959727362,
,,,,132,0,132,0,,,,,,,,,,,,,1826.1043375709987,None,,,,,,,,,,,,,,,,,,,,,,accident,D_new,132,0,1823.9899541919112,None,1823.9899541919112,None,1823.9899541919112,None,2,1.2917722402789877,1823.9899541919112,None,1825.3374257589567,None,1825.3374257589567,None,1825.8541001955919,None,1825.8541001955919,None,1825.8541001955919,None,n,0.21158895816370205,1825.8541001955919,None,sing31,001,2019_Nov_11_1614,ProdFawcett_Revision2019,3.2.4,59.89361959727362,
,,,,133,0,133,0,,,,,,,,,,,,,1829.2052422566485,None,,,,,,,,,,,,,,,,,,,,,,smooth,D_new,133,292,1826.622330051494,None,1826.622330051494,None,1826.622330051494,None,1,1.5554388591554016,1826.622330051494,None,1828.2281435019477,None,1828.2281435019477,None,1828.7551427191456,None,1828.7551427191456,None,1828.7551427191456,None,n,0.40646413741978904,1828.7551427191456,None,sing31,001,2019_Nov_11_1614,ProdFawcett_Revision2019,3.2.4,59.89361959727362,
,,,,134,0,134,0,,,,,,,,,,,,,1831.356023923834,None,,,,,,,,,,,,,,,,,,,,,,passage,D_new,134,212,1829.723327105955,None,1829.723327105955,None,1829.723327105955,None,1,0.7659647984628464,1829.723327105955,None,1830.5557495542507,None,1830.5557495542507,None,1831.0724765509176,None,1831.0724765509176,None,1831.0724765509176,None,n,0.24130403614435636,1831.0724765509176,None,sing31,001,2019_Nov_11_1614,ProdFawcett_Revision2019,3.2.4,59.89361959727362,
,,,,135,0,135,0,,,,,,,,,,,,,1834.0400778012863,None,,,,,,,,,,,,,,,,,,,,,,carry,D_new,135,43,1831.8733732437104,None,1831.8733732437104,None,1831.8733732437104,None,2,1.5194526541417872,1831.8733732437104,None,1833.4468311743813,None,1833.4468311743813,None,1833.97352311755,None,1833.97352311755,None,1833.97352311755,None,n,0.019277713209703506,1833.97352311755,None,sing31,001,2019_Nov_11_1614,ProdFawcett_Revision2019,3.2.4,59.89361959727362,
,,,,136,0,136,0,,,,,,,,,,,,,1838.9582987468639,None,,,,,,,,,,,,,,,,,,,,,,corner,C_sing,136,69,1834.556912717071,None,1834.556912717071,None,1834.556912717071,None,5,2.7961793522426888,1834.556912717071,None,1837.4079479475313,None,1837.4079479475313,None,1837.9247629589245,None,1837.9247629589245,None,1837.9247629589245,None,r,0.9960617297347198,1837.9247629589245,None,sing31,001,2019_Nov_11_1614,ProdFawcett_Revision2019,3.2.4,59.89361959727362,
,,,,137,0,137,0,,,,,,,,,,,,,1843.7265659234972,None,,,,,,,,,,,,,,,,,,,,,,heavy,A_silent,137,151,1839.475069906397,None,1839.475069906397,None,1839.475069906397,None,4,2.685425725368077,1839.475069906397,None,1842.2096554332302,None,1842.2096554332302,None,1842.7262860180053,None,1842.7262860180053,None,1842.7262860180053,None,f,0.9624600085026032,1842.7262860180053,None,sing31,001,2019_Nov_11_1614,ProdFawcett_Revision2019,3.2.4,59.89361959727362,
,,,,138,0,138,0,,,,,,,,,,,,,1848.178033887847,None,,,,,,,,,,,,,,,,,,,,,,staff,D_new,138,301,1844.2436275627297,None,1844.2436275627297,None,1844.2436275627297,None,2,2.3007886181721915,1844.2436275627297,None,1846.5941401474356,None,1846.5941401474356,None,1847.1110683650504,None,1847.1110683650504,None,1847.1110683650504,None,n,1.033595812115891,1847.1110683650504,None,sing31,001,2019_Nov_11_1614,ProdFawcett_Revision2019,3.2.4,59.89361959727362,
,,,,139,0,139,0,,,,,,,,,,,,,1854.363345318472,None,,,,,,,,,,,,,,,,,,,,,,tough,A_silent,139,333,1848.6965460595375,None,1848.6965460595375,None,1848.6965460595375,None,5,2.6877253044831377,1848.6965460595375,None,1851.445756026288,None,1851.445756026288,None,1851.9625753917671,None,1851.9625753917671,None,1851.9625753917671,None,f,2.365534490421851,1851.9625753917671,None,sing31,001,2019_Nov_11_1614,ProdFawcett_Revision2019,3.2.4,59.89361959727362,
,,,,140,0,140,0,,,,,,,,,,,,,1857.8643142579822,None,,,,,,,,,,,,,,,,,,,,,,waste,A_silent,140,350,1854.8806971263975,None,1854.8806971263975,None,1854.8806971263975,None,6,2.1835458489858866,1854.8806971263975,None,1857.1141115597547,None,1857.1141115597547,None,1857.631050351577,None,1857.631050351577,None,1857.631050351577,None,r,0.1930209608781297,1857.631050351577,None,sing31,001,2019_Nov_11_1614,ProdFawcett_Revision2019,3.2.4,59.89361959727362,
,,,,141,0,141,0,,,,,,,,,,,,,1863.899586703992,None,,,,,,,,,,,,,,,,,,,,,,produce,D_new,141,239,1858.3834571500465,None,1858.3834571500465,None,1858.3834571500465,None,4,3.88872792595339,1858.3834571500465,None,1862.3326860259676,None,1862.3326860259676,None,1862.8493673047378,None,1862.8493673047378,None,1862.8493673047378,None,n,1.0065805781050585,1862.8493673047378,None,sing31,001,2019_Nov_11_1614,ProdFawcett_Revision2019,3.2.4,59.89361959727362,
,,,,142,0,142,0,,,,,,,,,,,,,1867.0340184694087,None,,,,,,,,,,,,,,,,,,,,,,state,D_new,142,303,1864.4173792075626,None,1864.4173792075626,None,1864.4173792075626,None,2,1.7585441928786167,1864.4173792075626,None,1866.2337098891549,None,1866.2337098891549,None,1866.7506094942082,None,1866.7506094942082,None,1866.7506094942082,None,n,0.24145083102393983,1866.7506094942082,None,sing31,001,2019_Nov_11_1614,ProdFawcett_Revision2019,3.2.4,59.89361959727362,
,,,,143,0,143,0,,,,,,,,,,,,,1871.5188331299878,None,,,,,,,,,,,,,,,,,,,,,,shear,D_new,143,283,1867.5516281013925,None,1867.5516281013925,None,1867.5516281013925,None,3,2.9438798819792282,1867.5516281013925,None,1870.5516787953866,None,1870.5516787953866,None,1871.0687799323941,None,1871.0687799323941,None,1871.0687799323941,None,f,0.4022571578834686,1871.0687799323941,None,sing31,001,2019_Nov_11_1614,ProdFawcett_Revision2019,3.2.4,59.89361959727362,
,,,,144,0,144,0,,,,,,,,,,,,,1875.3865889814897,None,,,,,,,,,,,,,,,,,,,,,,commercial,B_aloud,144,61,1872.0377107338472,None,1872.0377107338472,None,1872.0377107338472,None,5,2.6010939328616587,1872.0377107338472,None,1874.7032121643197,None,1874.7032121643197,None,1875.220730049503,None,1875.220730049503,None,1875.220730049503,None,f,0.12286109441174631,1875.220730049503,None,sing31,001,2019_Nov_11_1614,ProdFawcett_Revision2019,3.2.4,59.89361959727362,
,,,,145,0,145,0,,,,,,,,,,,,,1880.5048888604151,None,,,,,,,,,,,,,,,,,,,,,,track,D_new,145,334,1875.903697582643,None,1875.903697582643,None,1875.903697582643,None,6,1.9509502946939392,1875.903697582643,None,1877.9041289481065,None,1877.9041289481065,None,1878.4210114478237,None,1878.4210114478237,None,1878.4210114478237,None,r,2.050076647453352,1878.4210114478237,None,sing31,001,2019_Nov_11_1614,ProdFawcett_Revision2019,3.2.4,59.89361959727362,
,,,,146,0,146,0,,,,,,,,,,,,,1892.0085349404471,None,,,,,,,,,,,,,,,,,,,,,,reach,D_new,146,253,1881.022293850383,None,1881.022293850383,None,1881.022293850383,None,5,9.30390147824346,1881.022293850383,None,1890.3914014899065,None,1890.3914014899065,None,1890.9083343726124,None,1890.9083343726124,None,1890.9083343726124,None,f,1.05850460180136,1890.9083343726124,None,sing31,001,2019_Nov_11_1614,ProdFawcett_Revision2019,3.2.4,59.89361959727362,
,,,,147,0,147,0,,,,,,,,,,,,,1895.9432553817278,None,,,,,,,,,,,,,,,,,,,,,,citizen,C_sing,147,50,1892.5313921783836,None,1892.5313921783836,None,1892.5313921783836,None,5,2.5305362895915096,1892.5313921783836,None,1895.1262638121698,None,1895.1262638121698,None,1895.6473458272785,None,1895.6473458272785,None,1895.6473458272785,None,f,0.2549736873288566,1895.6473458272785,None,sing31,001,2019_Nov_11_1614,ProdFawcett_Revision2019,3.2.4,59.89361959727362,
,,,,148,0,148,0,,,,,,,,,,,,,1901.478201426834,None,,,,,,,,,,,,,,,,,,,,,,primary,D_new,148,234,1896.4618857357364,None,1896.4618857357364,None,1896.4618857357364,None,6,3.0322615959403265,1896.4618857357364,None,1899.5344403491854,None,1899.5344403491854,None,1900.0612271492155,None,1900.0612271492155,None,1900.0612271492155,None,f,1.3842974885319563,1900.0612271492155,None,sing31,001,2019_Nov_11_1614,ProdFawcett_Revision2019,3.2.4,59.89361959727362,
,,,,149,0,149,0,,,,,,,,,,,,,1906.6465306802857,None,,,,,,,,,,,,,,,,,,,,,,childhood,D_new,149,49,1901.9956126369243,None,1901.9956126369243,None,1901.9956126369243,None,3,2.074644263445407,1901.9956126369243,None,1904.1291207142194,None,1904.1291207142194,None,1904.6461683581774,None,1904.6461683581774,None,1904.6461683581774,None,n,1.967394120305471,1904.6461683581774,None,sing31,001,2019_Nov_11_1614,ProdFawcett_Revision2019,3.2.4,59.89361959727362,
,,,,150,0,150,0,,,,,,,,,,,,,1909.6975291498247,None,,,,,,,,,,,,,,,,,,,,,,answer,D_new,150,8,1907.1636666499762,None,1907.1636666499762,None,1907.1636666499762,None,2,1.6174736912162189,1907.1636666499762,None,1908.8305424164118,None,1908.8305424164118,None,1909.3475434094544,None,1909.3475434094544,None,1909.3475434094544,None,n,0.30633945507452154,1909.3475434094544,None,sing31,001,2019_Nov_11_1614,ProdFawcett_Revision2019,3.2.4,59.89361959727362,
,,,,151,0,151,0,,,,,,,,,,,,,1916.6165161034296,None,,,,,,,,,,,,,,,,,,,,,,ground,D_new,151,142,1910.214376816859,None,1910.214376816859,None,1910.214376816859,None,3,5.486520218040823,1910.214376816859,None,1915.7661355408136,None,1915.7661355408136,None,1916.2830718445866,None,1916.2830718445866,None,1916.2830718445866,None,n,0.2978514765482032,1916.2830718445866,None,sing31,001,2019_Nov_11_1614,ProdFawcett_Revision2019,3.2.4,59.89361959727362,
,,,,152,0,152,0,,,,,,,,,,,,,1920.0344174902375,None,,,,,,,,,,,,,,,,,,,,,,finance,C_sing,152,129,1917.1350229880163,None,1917.1350229880163,None,1917.1350229880163,None,5,2.0856230898389185,1917.1350229880163,None,1919.2736026418106,None,1919.2736026418106,None,1919.8011591819422,None,1919.8011591819422,None,1919.8011591819422,None,f,0.19552549301442923,1919.8011591819422,None,sing31,001,2019_Nov_11_1614,ProdFawcett_Revision2019,3.2.4,59.89361959727362,
