StudyTrials.thisRepN,StudyTrials.thisTrialN,StudyTrials.thisN,StudyTrials.thisIndex,TestTrials.thisRepN,TestTrials.thisTrialN,TestTrials.thisN,TestTrials.thisIndex,textWelcome.started,textWelcome.stopped,keyWelcome.keys,keyWelcome.rt,keyWelcome.started,keyWelcome.stopped,textReady.started,textReady.stopped,keyReady.keys,keyReady.rt,keyReady.started,keyReady.stopped,polyback_2.started,polyback_2.stopped,studyPic,studyWord,studyType,studyN,studyOrder,polyback_3.started,polyback_3.stopped,studyPicChoice.started,studyPicChoice.stopped,polyback_4.started,polyback_4.stopped,polyback.started,polyback.stopped,studyWords.started,studyWords.stopped,getResearcher.started,getResearcher.stopped,kPress2.keys,kPress2.rt,kPress2.started,kPress2.stopped,testWord,testType,testN,testOrder,polyback_5.started,polyback_5.stopped,testWords.started,testWords.stopped,textScale.started,textScale.stopped,keyConf.keys,keyConf.rt,keyConf.started,keyConf.stopped,polyback_6.started,polyback_6.stopped,studyWords_2.started,studyWords_2.stopped,polyback_7.started,polyback_7.stopped,testWords_2.started,testWords_2.stopped,textScale_2.started,textScale_2.stopped,keyRKN.keys,keyRKN.rt,keyRKN.started,keyRKN.stopped,participant,session,date,expName,psychopyVersion,frameRate,
,,,,,,,,19.912703240654082,None,space,271.5503492567018,19.912703240654082,None,,,,,,,,,,,,,,,,,,,,,,,,,,,,,,,,,,,,,,,,,,,,,,,,,,,,,,,,,,sing41,001,2019_Nov_18_1339,ProdFawcett_Revision2019,3.2.4,60.02015978506053,
,,,,,,,,,,,,,,291.47930957268136,None,space,6.815398395223383,291.47930957268136,None,,,,,,,,,,,,,,,,,,,,,,,,,,,,,,,,,,,,,,,,,,,,,,,,,,,,sing41,001,2019_Nov_18_1339,ProdFawcett_Revision2019,3.2.4,60.02015978506053,
0,0,0,0,,,,,,,,,,,,,,,,,303.100478012067,None,materials/readPic.jpg,dispute,A_silent,0,99,299.4981856067675,None,299.4981856067675,None,300.34996983268,None,300.61537786900544,None,300.61537786900544,None,,,,,,,,,,,,,,,,,,,,,,,,,,,,,,,,,,,sing41,001,2019_Nov_18_1339,ProdFawcett_Revision2019,3.2.4,60.02015978506053,
1,0,1,0,,,,,,,,,,,,,,,,,307.36758194936874,None,materials/speakPic.jpg,cousin,B_aloud,1,76,303.8081737886423,None,303.8081737886423,None,304.616731977359,None,304.8833952229893,None,304.8833952229893,None,,,,,,,,,,,,,,,,,,,,,,,,,,,,,,,,,,,sing41,001,2019_Nov_18_1339,ProdFawcett_Revision2019,3.2.4,60.02015978506053,
2,0,2,0,,,,,,,,,,,,,,,,,311.6355685140261,None,materials/singPic.jpg,guide,C_sing,2,147,308.0022737451018,None,308.0022737451018,None,308.8850901909559,None,309.15133793618224,None,309.15133793618224,None,,,,,,,,,,,,,,,,,,,,,,,,,,,,,,,,,,,sing41,001,2019_Nov_18_1339,ProdFawcett_Revision2019,3.2.4,60.02015978506053,
3,0,3,0,,,,,,,,,,,,,,,,,315.90360732723775,None,materials/speakPic.jpg,safety,B_aloud,3,270,312.237754245195,None,312.237754245195,None,313.1530080238849,None,313.4193487590969,None,313.4193487590969,None,,,,,,,,,,,,,,,,,,,,,,,,,,,,,,,,,,,sing41,001,2019_Nov_18_1339,ProdFawcett_Revision2019,3.2.4,60.02015978506053,
4,0,4,0,,,,,,,,,,,,,,,,,320.17166728867323,None,materials/singPic.jpg,nature,C_sing,4,200,316.5048099769856,None,316.5048099769856,None,317.4210011196119,None,317.68749238041937,None,317.68749238041937,None,,,,,,,,,,,,,,,,,,,,,,,,,,,,,,,,,,,sing41,001,2019_Nov_18_1339,ProdFawcett_Revision2019,3.2.4,60.02015978506053,
5,0,5,0,,,,,,,,,,,,,,,,,324.4395089257946,None,materials/singPic.jpg,style,C_sing,5,311,320.754787273745,None,320.754787273745,None,321.68926012315706,None,321.95532157740854,None,321.95532157740854,None,,,,,,,,,,,,,,,,,,,,,,,,,,,,,,,,,,,sing41,001,2019_Nov_18_1339,ProdFawcett_Revision2019,3.2.4,60.02015978506053,
6,0,6,0,,,,,,,,,,,,,,,,,328.70751788268944,None,materials/speakPic.jpg,disease,B_aloud,6,97,325.0254472227407,None,325.0254472227407,None,325.9570125023324,None,326.20892361759024,None,326.20892361759024,None,,,,,,,,,,,,,,,,,,,,,,,,,,,,,,,,,,,sing41,001,2019_Nov_18_1339,ProdFawcett_Revision2019,3.2.4,60.02015978506053,
7,0,7,0,,,,,,,,,,,,,,,,,332.9755125334327,None,materials/readPic.jpg,volume,A_silent,7,349,329.275250668657,None,329.275250668657,None,330.2250068420726,None,330.4913071468559,None,330.4913071468559,None,,,,,,,,,,,,,,,,,,,,,,,,,,,,,,,,,,,sing41,001,2019_Nov_18_1339,ProdFawcett_Revision2019,3.2.4,60.02015978506053,
8,0,8,0,,,,,,,,,,,,,,,,,337.22719319524776,None,materials/speakPic.jpg,solution,B_aloud,8,294,333.54706039684015,None,333.54706039684015,None,334.47582757977216,None,334.73049418423807,None,334.73049418423807,None,,,,,,,,,,,,,,,,,,,,,,,,,,,,,,,,,,,sing41,001,2019_Nov_18_1339,ProdFawcett_Revision2019,3.2.4,60.02015978506053,
9,0,9,0,,,,,,,,,,,,,,,,,341.4948180630713,None,materials/singPic.jpg,government,C_sing,9,139,337.8484658207376,None,337.8484658207376,None,338.74406916713315,None,339.01081234061076,None,339.01081234061076,None,,,,,,,,,,,,,,,,,,,,,,,,,,,,,,,,,,,sing41,001,2019_Nov_18_1339,ProdFawcett_Revision2019,3.2.4,60.02015978506053,
10,0,10,0,,,,,,,,,,,,,,,,,345.76282359893,None,materials/speakPic.jpg,owner,B_aloud,10,208,342.06301175592444,None,342.06301175592444,None,343.013337065373,None,343.27859364309234,None,343.27859364309234,None,,,,,,,,,,,,,,,,,,,,,,,,,,,,,,,,,,,sing41,001,2019_Nov_18_1339,ProdFawcett_Revision2019,3.2.4,60.02015978506053,
11,0,11,0,,,,,,,,,,,,,,,,,350.0307485849348,None,materials/speakPic.jpg,length,B_aloud,11,169,346.32930832866805,None,346.32930832866805,None,347.2811706164084,None,347.54659544691185,None,347.54659544691185,None,,,,,,,,,,,,,,,,,,,,,,,,,,,,,,,,,,,sing41,001,2019_Nov_18_1339,ProdFawcett_Revision2019,3.2.4,60.02015978506053,
12,0,12,0,,,,,,,,,,,,,,,,,354.29913820986485,None,materials/singPic.jpg,prime,C_sing,12,235,350.65306618150134,None,350.65306618150134,None,351.54804565528366,None,351.8145757915031,None,351.8145757915031,None,,,,,,,,,,,,,,,,,,,,,,,,,,,,,,,,,,,sing41,001,2019_Nov_18_1339,ProdFawcett_Revision2019,3.2.4,60.02015978506053,
13,0,13,0,,,,,,,,,,,,,,,,,358.5667845369162,None,materials/readPic.jpg,close,A_silent,13,53,354.9170411146356,None,354.9170411146356,None,355.81570566647997,None,356.0826093176588,None,356.0826093176588,None,,,,,,,,,,,,,,,,,,,,,,,,,,,,,,,,,,,sing41,001,2019_Nov_18_1339,ProdFawcett_Revision2019,3.2.4,60.02015978506053,
14,0,14,0,,,,,,,,,,,,,,,,,362.83473720221446,None,materials/singPic.jpg,citizen,C_sing,14,50,359.1847959818374,None,359.1847959818374,None,360.0843189027805,None,360.3532425203707,None,360.3532425203707,None,,,,,,,,,,,,,,,,,,,,,,,,,,,,,,,,,,,sing41,001,2019_Nov_18_1339,ProdFawcett_Revision2019,3.2.4,60.02015978506053,
15,0,15,0,,,,,,,,,,,,,,,,,367.1026261118368,None,materials/singPic.jpg,emergency,C_sing,15,110,363.38831342912226,None,363.38831342912226,None,364.3521480997697,None,364.61873701561217,None,364.61873701561217,None,,,,,,,,,,,,,,,,,,,,,,,,,,,,,,,,,,,sing41,001,2019_Nov_18_1339,ProdFawcett_Revision2019,3.2.4,60.02015978506053,
16,0,16,0,,,,,,,,,,,,,,,,,371.37073210176004,None,materials/readPic.jpg,medicine,A_silent,16,186,367.6936399825836,None,367.6936399825836,None,368.62003514337266,None,368.8755448777756,None,368.8755448777756,None,,,,,,,,,,,,,,,,,,,,,,,,,,,,,,,,,,,sing41,001,2019_Nov_18_1339,ProdFawcett_Revision2019,3.2.4,60.02015978506053,
17,0,17,0,,,,,,,,,,,,,,,,,375.63906325807056,None,materials/readPic.jpg,shape,A_silent,17,282,371.95390744541874,None,371.95390744541874,None,372.8877498911488,None,373.1545316290353,None,373.1545316290353,None,,,,,,,,,,,,,,,,,,,,,,,,,,,,,,,,,,,sing41,001,2019_Nov_18_1339,ProdFawcett_Revision2019,3.2.4,60.02015978506053,
18,0,18,0,,,,,,,,,,,,,,,,,379.906709896125,None,materials/singPic.jpg,tough,C_sing,18,333,376.2568806369345,None,376.2568806369345,None,377.1559846364371,None,377.42273309697066,None,377.42273309697066,None,,,,,,,,,,,,,,,,,,,,,,,,,,,,,,,,,,,sing41,001,2019_Nov_18_1339,ProdFawcett_Revision2019,3.2.4,60.02015978506053,
19,0,19,0,,,,,,,,,,,,,,,,,384.17471387696696,None,materials/singPic.jpg,listen,C_sing,19,172,380.4732089320146,None,380.4732089320146,None,381.4244946196427,None,381.6905262175778,None,381.6905262175778,None,,,,,,,,,,,,,,,,,,,,,,,,,,,,,,,,,,,sing41,001,2019_Nov_18_1339,ProdFawcett_Revision2019,3.2.4,60.02015978506053,
20,0,20,0,,,,,,,,,,,,,,,,,388.44298718666414,None,materials/singPic.jpg,object,C_sing,20,204,384.76113329601276,None,384.76113329601276,None,385.6916666666666,None,385.9584969210673,None,385.9584969210673,None,,,,,,,,,,,,,,,,,,,,,,,,,,,,,,,,,,,sing41,001,2019_Nov_18_1339,ProdFawcett_Revision2019,3.2.4,60.02015978506053,
21,0,21,0,,,,,,,,,,,,,,,,,392.71069509236804,None,materials/speakPic.jpg,force,B_aloud,21,131,389.03402313864535,None,389.03402313864535,None,389.9604512657834,None,390.2097900727749,None,390.2097900727749,None,,,,,,,,,,,,,,,,,,,,,,,,,,,,,,,,,,,sing41,001,2019_Nov_18_1339,ProdFawcett_Revision2019,3.2.4,60.02015978506053,
22,0,22,0,,,,,,,,,,,,,,,,,396.9790243826583,None,materials/speakPic.jpg,thick,B_aloud,22,327,393.26868694408176,None,393.26868694408176,None,394.22765379113025,None,394.4944563662375,None,394.4944563662375,None,,,,,,,,,,,,,,,,,,,,,,,,,,,,,,,,,,,sing41,001,2019_Nov_18_1339,ProdFawcett_Revision2019,3.2.4,60.02015978506053,
23,0,23,0,,,,,,,,,,,,,,,,,401.24665795857436,None,materials/speakPic.jpg,guard,B_aloud,23,145,397.5618554456678,None,397.5618554456678,None,398.4959407849724,None,398.76289730671124,None,398.76289730671124,None,,,,,,,,,,,,,,,,,,,,,,,,,,,,,,,,,,,sing41,001,2019_Nov_18_1339,ProdFawcett_Revision2019,3.2.4,60.02015978506053,
24,0,24,0,,,,,,,,,,,,,,,,,405.51460409280344,None,materials/speakPic.jpg,military,B_aloud,24,190,401.7966309012877,None,401.7966309012877,None,402.7639584499593,None,403.0307544939974,None,403.0307544939974,None,,,,,,,,,,,,,,,,,,,,,,,,,,,,,,,,,,,sing41,001,2019_Nov_18_1339,ProdFawcett_Revision2019,3.2.4,60.02015978506053,
25,0,25,0,,,,,,,,,,,,,,,,,409.78264912608074,None,materials/readPic.jpg,empty,A_silent,25,112,406.14898239721333,None,406.14898239721333,None,407.03204173664244,None,407.2984238352924,None,407.2984238352924,None,,,,,,,,,,,,,,,,,,,,,,,,,,,,,,,,,,,sing41,001,2019_Nov_18_1339,ProdFawcett_Revision2019,3.2.4,60.02015978506053,
26,0,26,0,,,,,,,,,,,,,,,,,414.05061765254686,None,materials/speakPic.jpg,business,B_aloud,26,38,410.35604745910314,None,410.35604745910314,None,411.2998759096845,None,411.5664268831247,None,411.5664268831247,None,,,,,,,,,,,,,,,,,,,,,,,,,,,,,,,,,,,sing41,001,2019_Nov_18_1339,ProdFawcett_Revision2019,3.2.4,60.02015978506053,
27,0,27,0,,,,,,,,,,,,,,,,,418.31919356845174,None,materials/speakPic.jpg,passage,B_aloud,27,212,414.6225962555204,None,414.6225962555204,None,415.56793027306094,None,415.8343913665485,None,415.8343913665485,None,,,,,,,,,,,,,,,,,,,,,,,,,,,,,,,,,,,sing41,001,2019_Nov_18_1339,ProdFawcett_Revision2019,3.2.4,60.02015978506053,
28,0,28,0,,,,,,,,,,,,,,,,,422.58660042296424,None,materials/readPic.jpg,audience,A_silent,28,14,418.9029091248367,None,418.9029091248367,None,419.8359799713876,None,420.10262144678745,None,420.10262144678745,None,,,,,,,,,,,,,,,,,,,,,,,,,,,,,,,,,,,sing41,001,2019_Nov_18_1339,ProdFawcett_Revision2019,3.2.4,60.02015978506053,
29,0,29,0,,,,,,,,,,,,,,,,,426.8545851216022,None,materials/speakPic.jpg,vision,B_aloud,29,347,423.17727592212486,None,423.17727592212486,None,424.103601418175,None,424.37039062014037,None,424.37039062014037,None,,,,,,,,,,,,,,,,,,,,,,,,,,,,,,,,,,,sing41,001,2019_Nov_18_1339,ProdFawcett_Revision2019,3.2.4,60.02015978506053,
30,0,30,0,,,,,,,,,,,,,,,,,431.1228211109037,None,materials/readPic.jpg,mechanical,A_silent,30,185,427.45646295950746,None,427.45646295950746,None,428.37201405734913,None,428.6385777819246,None,428.6385777819246,None,,,,,,,,,,,,,,,,,,,,,,,,,,,,,,,,,,,sing41,001,2019_Nov_18_1339,ProdFawcett_Revision2019,3.2.4,60.02015978506053,
31,0,31,0,,,,,,,,,,,,,,,,,435.39055980593366,None,materials/singPic.jpg,captain,C_sing,31,41,431.74692137836655,None,431.74692137836655,None,432.6399231821856,None,432.8954114573612,None,432.8954114573612,None,,,,,,,,,,,,,,,,,,,,,,,,,,,,,,,,,,,sing41,001,2019_Nov_18_1339,ProdFawcett_Revision2019,3.2.4,60.02015978506053,
32,0,32,0,,,,,,,,,,,,,,,,,439.6591627791254,None,materials/readPic.jpg,taste,A_silent,32,322,435.9943384959879,None,435.9943384959879,None,436.90761273869475,None,437.1743462710706,None,437.1743462710706,None,,,,,,,,,,,,,,,,,,,,,,,,,,,,,,,,,,,sing41,001,2019_Nov_18_1339,ProdFawcett_Revision2019,3.2.4,60.02015978506053,
33,0,33,0,,,,,,,,,,,,,,,,,443.9265456863841,None,materials/readPic.jpg,grade,A_silent,33,140,440.24201685637854,None,440.24201685637854,None,441.1758686322073,None,441.42563102568874,None,441.42563102568874,None,,,,,,,,,,,,,,,,,,,,,,,,,,,,,,,,,,,sing41,001,2019_Nov_18_1339,ProdFawcett_Revision2019,3.2.4,60.02015978506053,
34,0,34,0,,,,,,,,,,,,,,,,,448.1945484232133,None,materials/speakPic.jpg,public,B_aloud,34,244,444.52790881383316,None,444.52790881383316,None,445.4444731604153,None,445.7106344467252,None,445.7106344467252,None,,,,,,,,,,,,,,,,,,,,,,,,,,,,,,,,,,,sing41,001,2019_Nov_18_1339,ProdFawcett_Revision2019,3.2.4,60.02015978506053,
35,0,35,0,,,,,,,,,,,,,,,,,452.4625147726565,None,materials/readPic.jpg,afternoon,A_silent,35,3,448.7987898861729,None,448.7987898861729,None,449.71193599552134,None,449.97860732723757,None,449.97860732723757,None,,,,,,,,,,,,,,,,,,,,,,,,,,,,,,,,,,,sing41,001,2019_Nov_18_1339,ProdFawcett_Revision2019,3.2.4,60.02015978506053,
36,0,36,0,,,,,,,,,,,,,,,,,456.73049076320194,None,materials/speakPic.jpg,balance,B_aloud,36,17,453.0549384213473,None,453.0549384213473,None,453.97987404366495,None,454.24630652484893,None,454.24630652484893,None,,,,,,,,,,,,,,,,,,,,,,,,,,,,,,,,,,,sing41,001,2019_Nov_18_1339,ProdFawcett_Revision2019,3.2.4,60.02015978506053,
37,0,37,0,,,,,,,,,,,,,,,,,460.9988471107795,None,materials/readPic.jpg,leader,A_silent,37,168,457.33166480064665,None,457.33166480064665,None,458.24783012999933,None,458.5036359395408,None,458.5036359395408,None,,,,,,,,,,,,,,,,,,,,,,,,,,,,,,,,,,,sing41,001,2019_Nov_18_1339,ProdFawcett_Revision2019,3.2.4,60.02015978506053,
38,0,38,0,,,,,,,,,,,,,,,,,465.26649001679425,None,materials/singPic.jpg,committee,C_sing,38,62,461.6046327051067,None,461.6046327051067,None,462.51633980220186,None,462.78223642470584,None,462.78223642470584,None,,,,,,,,,,,,,,,,,,,,,,,,,,,,,,,,,,,sing41,001,2019_Nov_18_1339,ProdFawcett_Revision2019,3.2.4,60.02015978506053,
39,0,39,0,,,,,,,,,,,,,,,,,469.5344520121912,None,materials/speakPic.jpg,under,B_aloud,39,343,465.86828699384205,None,465.86828699384205,None,466.7838209865022,None,467.0505638489767,None,467.0505638489767,None,,,,,,,,,,,,,,,,,,,,,,,,,,,,,,,,,,,sing41,001,2019_Nov_18_1339,ProdFawcett_Revision2019,3.2.4,60.02015978506053,
40,0,40,0,,,,,,,,,,,,,,,,,473.8024597250728,None,materials/readPic.jpg,payment,A_silent,40,215,470.15276419730026,None,470.15276419730026,None,471.05377184798135,None,471.30223518069306,None,471.30223518069306,None,,,,,,,,,,,,,,,,,,,,,,,,,,,,,,,,,,,sing41,001,2019_Nov_18_1339,ProdFawcett_Revision2019,3.2.4,60.02015978506053,
41,0,41,0,,,,,,,,,,,,,,,,,478.07068482925933,None,materials/speakPic.jpg,reading,B_aloud,41,254,474.3950245692604,None,474.3950245692604,None,475.3197897617715,None,475.5862135348634,None,475.5862135348634,None,,,,,,,,,,,,,,,,,,,,,,,,,,,,,,,,,,,sing41,001,2019_Nov_18_1339,ProdFawcett_Revision2019,3.2.4,60.02015978506053,
42,0,42,0,,,,,,,,,,,,,,,,,482.3386001741619,None,materials/readPic.jpg,trail,A_silent,42,336,478.6789547179201,None,478.6789547179201,None,479.5878018286994,None,479.84228556322705,None,479.84228556322705,None,,,,,,,,,,,,,,,,,,,,,,,,,,,,,,,,,,,sing41,001,2019_Nov_18_1339,ProdFawcett_Revision2019,3.2.4,60.02015978506053,
43,0,43,0,,,,,,,,,,,,,,,,,486.6063024818063,None,materials/singPic.jpg,plane,C_sing,43,223,482.9396613174099,None,482.9396613174099,None,483.85626453940404,None,484.1222019033403,None,484.1222019033403,None,,,,,,,,,,,,,,,,,,,,,,,,,,,,,,,,,,,sing41,001,2019_Nov_18_1339,ProdFawcett_Revision2019,3.2.4,60.02015978506053,
44,0,44,0,,,,,,,,,,,,,,,,,490.8744016296573,None,materials/readPic.jpg,salary,A_silent,44,271,487.2089099334453,None,487.2089099334453,None,488.1237618958762,None,488.39049853828465,None,488.39049853828465,None,,,,,,,,,,,,,,,,,,,,,,,,,,,,,,,,,,,sing41,001,2019_Nov_18_1339,ProdFawcett_Revision2019,3.2.4,60.02015978506053,
45,0,45,0,,,,,,,,,,,,,,,,,495.1424034334764,None,materials/readPic.jpg,brief,A_silent,45,28,491.4447182310132,None,491.4447182310132,None,492.39185078061837,None,492.65819275984313,None,492.65819275984313,None,,,,,,,,,,,,,,,,,,,,,,,,,,,,,,,,,,,sing41,001,2019_Nov_18_1339,ProdFawcett_Revision2019,3.2.4,60.02015978506053,
46,0,46,0,,,,,,,,,,,,,,,,,499.4103809790381,None,materials/readPic.jpg,little,A_silent,46,174,495.7256773651802,None,495.7256773651802,None,496.6597536853892,None,496.92618492255997,None,496.92618492255997,None,,,,,,,,,,,,,,,,,,,,,,,,,,,,,,,,,,,sing41,001,2019_Nov_18_1339,ProdFawcett_Revision2019,3.2.4,60.02015978506053,
47,0,47,0,,,,,,,,,,,,,,,,,503.6784897679913,None,materials/speakPic.jpg,platform,B_aloud,47,224,500.0284061081047,None,500.0284061081047,None,500.9280860857125,None,501.19415344902654,None,501.19415344902654,None,,,,,,,,,,,,,,,,,,,,,,,,,,,,,,,,,,,sing41,001,2019_Nov_18_1339,ProdFawcett_Revision2019,3.2.4,60.02015978506053,
48,0,48,0,,,,,,,,,,,,,,,,,507.94657305467445,None,materials/speakPic.jpg,suggestion,B_aloud,48,314,504.2465494184239,None,504.2465494184239,None,505.1956422218077,None,505.46210300429175,None,505.46210300429175,None,,,,,,,,,,,,,,,,,,,,,,,,,,,,,,,,,,,sing41,001,2019_Nov_18_1339,ProdFawcett_Revision2019,3.2.4,60.02015978506053,
49,0,49,0,,,,,,,,,,,,,,,,,512.2143605772221,None,materials/speakPic.jpg,provision,B_aloud,49,243,508.5301853579649,None,508.5301853579649,None,509.46381756546634,None,509.7308449959569,None,509.7308449959569,None,,,,,,,,,,,,,,,,,,,,,,,,,,,,,,,,,,,sing41,001,2019_Nov_18_1339,ProdFawcett_Revision2019,3.2.4,60.02015978506053,
50,0,50,0,,,,,,,,,,,,,,,,,516.4823555389685,None,materials/singPic.jpg,right,C_sing,50,265,512.8228721154442,None,512.8228721154442,None,513.7315288922064,None,513.9981268271445,None,513.9981268271445,None,,,,,,,,,,,,,,,,,,,,,,,,,,,,,,,,,,,sing41,001,2019_Nov_18_1339,ProdFawcett_Revision2019,3.2.4,60.02015978506053,
51,0,51,0,,,,,,,,,,,,,,,,,520.7503256204513,None,materials/speakPic.jpg,rapid,B_aloud,51,252,517.0511348510295,None,517.0511348510295,None,517.9997406232505,None,518.2661028176899,None,518.2661028176899,None,,,,,,,,,,,,,,,,,,,,,,,,,,,,,,,,,,,sing41,001,2019_Nov_18_1339,ProdFawcett_Revision2019,3.2.4,60.02015978506053,
52,0,52,0,,,,,,,,,,,,,,,,,525.0184353424147,None,materials/readPic.jpg,debate,A_silent,52,87,521.3557389438329,None,521.3557389438329,None,522.2677107047334,None,522.5340968464266,None,522.5340968464266,None,,,,,,,,,,,,,,,,,,,,,,,,,,,,,,,,,,,sing41,001,2019_Nov_18_1339,ProdFawcett_Revision2019,3.2.4,60.02015978506053,
53,0,53,0,,,,,,,,,,,,,,,,,529.2862297070346,None,materials/speakPic.jpg,block,B_aloud,53,25,525.6196722025252,None,525.6196722025252,None,526.5356139205073,None,526.8020806120544,None,526.8020806120544,None,,,,,,,,,,,,,,,,,,,,,,,,,,,,,,,,,,,sing41,001,2019_Nov_18_1339,ProdFawcett_Revision2019,3.2.4,60.02015978506053,
54,0,54,0,,,,,,,,,,,,,,,,,533.5541997885175,None,materials/speakPic.jpg,shear,B_aloud,54,283,529.8577418050631,None,529.8577418050631,None,530.8034885239781,None,531.0533896249299,None,531.0533896249299,None,,,,,,,,,,,,,,,,,,,,,,,,,,,,,,,,,,,sing41,001,2019_Nov_18_1339,ProdFawcett_Revision2019,3.2.4,60.02015978506053,
55,0,55,0,,,,,,,,,,,,,,,,,537.8222933383095,None,materials/speakPic.jpg,space,B_aloud,55,297,534.090322821422,None,534.090322821422,None,535.0719232443862,None,535.3234166822167,None,535.3234166822167,None,,,,,,,,,,,,,,,,,,,,,,,,,,,,,,,,,,,sing41,001,2019_Nov_18_1339,ProdFawcett_Revision2019,3.2.4,60.02015978506053,
56,0,56,0,,,,,,,,,,,,,,,,,542.0906487528769,None,materials/speakPic.jpg,evidence,B_aloud,56,120,538.3961594202897,None,538.3961594202897,None,539.339298687566,None,539.606029731915,None,539.606029731915,None,,,,,,,,,,,,,,,,,,,,,,,,,,,,,,,,,,,sing41,001,2019_Nov_18_1339,ProdFawcett_Revision2019,3.2.4,60.02015978506053,
57,0,57,0,,,,,,,,,,,,,,,,,546.3583516825279,None,materials/singPic.jpg,sound,C_sing,57,295,542.7443807924365,None,542.7443807924365,None,543.6076805374137,None,543.8740498849288,None,543.8740498849288,None,,,,,,,,,,,,,,,,,,,,,,,,,,,,,,,,,,,sing41,001,2019_Nov_18_1339,ProdFawcett_Revision2019,3.2.4,60.02015978506053,
58,0,58,0,,,,,,,,,,,,,,,,,550.6262493002423,None,materials/readPic.jpg,drama,A_silent,58,103,546.948479815886,None,546.948479815886,None,547.8757426758725,None,548.142013124339,None,548.142013124339,None,,,,,,,,,,,,,,,,,,,,,,,,,,,,,,,,,,,sing41,001,2019_Nov_18_1339,ProdFawcett_Revision2019,3.2.4,60.02015978506053,
59,0,59,0,,,,,,,,,,,,,,,,,554.8941755302608,None,materials/readPic.jpg,device,A_silent,59,93,551.1994579212537,None,551.1994579212537,None,552.1436763699694,None,552.4101315543944,None,552.4101315543944,None,,,,,,,,,,,,,,,,,,,,,,,,,,,,,,,,,,,sing41,001,2019_Nov_18_1339,ProdFawcett_Revision2019,3.2.4,60.02015978506053,
60,0,60,0,,,,,,,,,,,,,,,,,559.1622398457421,None,materials/singPic.jpg,interior,C_sing,60,164,555.5121484107731,None,555.5121484107731,None,556.4116806618149,None,556.6669394165579,None,556.6669394165579,None,,,,,,,,,,,,,,,,,,,,,,,,,,,,,,,,,,,sing41,001,2019_Nov_18_1339,ProdFawcett_Revision2019,3.2.4,60.02015978506053,
61,0,61,0,,,,,,,,,,,,,,,,,563.430204640169,None,materials/singPic.jpg,bureau,C_sing,61,37,559.74994153138,None,559.74994153138,None,560.6795387821112,None,560.9460017416186,None,560.9460017416186,None,,,,,,,,,,,,,,,,,,,,,,,,,,,,,,,,,,,sing41,001,2019_Nov_18_1339,ProdFawcett_Revision2019,3.2.4,60.02015978506053,
62,0,62,0,,,,,,,,,,,,,,,,,567.6981635255333,None,materials/singPic.jpg,match,C_sing,62,181,564.030124712322,None,564.030124712322,None,564.9476205137776,None,565.2142635441937,None,565.2142635441937,None,,,,,,,,,,,,,,,,,,,,,,,,,,,,,,,,,,,sing41,001,2019_Nov_18_1339,ProdFawcett_Revision2019,3.2.4,60.02015978506053,
63,0,63,0,,,,,,,,,,,,,,,,,571.9661902096163,None,materials/singPic.jpg,story,C_sing,63,306,568.2651147602164,None,568.2651147602164,None,569.2163267400633,None,569.4819698948809,None,569.4819698948809,None,,,,,,,,,,,,,,,,,,,,,,,,,,,,,,,,,,,sing41,001,2019_Nov_18_1339,ProdFawcett_Revision2019,3.2.4,60.02015978506053,
64,0,64,0,,,,,,,,,,,,,,,,,576.2342560801144,None,materials/singPic.jpg,report,C_sing,64,259,572.5498830627603,None,572.5498830627603,None,573.4836104372707,None,573.7500842818931,None,573.7500842818931,None,,,,,,,,,,,,,,,,,,,,,,,,,,,,,,,,,,,sing41,001,2019_Nov_18_1339,ProdFawcett_Revision2019,3.2.4,60.02015978506053,
65,0,65,0,,,,,,,,,,,,,,,,,580.5021726690302,None,materials/readPic.jpg,employment,A_silent,65,111,576.8435183802949,None,576.8435183802949,None,577.7518538906511,None,578.0179489332586,None,578.0179489332586,None,,,,,,,,,,,,,,,,,,,,,,,,,,,,,,,,,,,sing41,001,2019_Nov_18_1339,ProdFawcett_Revision2019,3.2.4,60.02015978506053,
66,0,66,0,,,,,,,,,,,,,,,,,584.7701906450206,None,materials/singPic.jpg,group,C_sing,66,143,581.1200653106921,None,581.1200653106921,None,582.0195474902034,None,582.2858030105117,None,582.2858030105117,None,,,,,,,,,,,,,,,,,,,,,,,,,,,,,,,,,,,sing41,001,2019_Nov_18_1339,ProdFawcett_Revision2019,3.2.4,60.02015978506053,
67,0,67,0,,,,,,,,,,,,,,,,,589.0381013248739,None,materials/speakPic.jpg,generation,B_aloud,67,136,585.3717039870621,None,585.3717039870621,None,586.2875685762269,None,586.5539049573927,None,586.5539049573927,None,,,,,,,,,,,,,,,,,,,,,,,,,,,,,,,,,,,sing41,001,2019_Nov_18_1339,ProdFawcett_Revision2019,3.2.4,60.02015978506053,
68,0,68,0,,,,,,,,,,,,,,,,,593.3061370280525,None,materials/speakPic.jpg,voice,B_aloud,68,348,589.6122354916961,None,589.6122354916961,None,590.5552217453505,None,590.8219073832183,None,590.8219073832183,None,,,,,,,,,,,,,,,,,,,,,,,,,,,,,,,,,,,sing41,001,2019_Nov_18_1339,ProdFawcett_Revision2019,3.2.4,60.02015978506053,
69,0,69,0,,,,,,,,,,,,,,,,,597.5741127075948,None,materials/singPic.jpg,height,C_sing,69,152,593.9114974808731,None,593.9114974808731,None,594.8235874230268,None,595.0899785407723,None,595.0899785407723,None,,,,,,,,,,,,,,,,,,,,,,,,,,,,,,,,,,,sing41,001,2019_Nov_18_1339,ProdFawcett_Revision2019,3.2.4,60.02015978506053,
70,0,70,0,,,,,,,,,,,,,,,,,601.8422171425018,None,materials/speakPic.jpg,figure,B_aloud,70,128,598.1662978167569,None,598.1662978167569,None,599.0915690116312,None,599.34576040306,None,599.34576040306,None,,,,,,,,,,,,,,,,,,,,,,,,,,,,,,,,,,,sing41,001,2019_Nov_18_1339,ProdFawcett_Revision2019,3.2.4,60.02015978506053,
71,0,71,0,,,,,,,,,,,,,,,,,606.1100852149034,None,materials/singPic.jpg,color,C_sing,71,56,602.4432260371959,None,602.4432260371959,None,603.3602310754495,None,603.6149107420538,None,603.6149107420538,None,,,,,,,,,,,,,,,,,,,,,,,,,,,,,,,,,,,sing41,001,2019_Nov_18_1339,ProdFawcett_Revision2019,3.2.4,60.02015978506053,
72,0,72,0,,,,,,,,,,,,,,,,,610.3780207750201,None,materials/readPic.jpg,question,A_silent,72,247,606.7153433476396,None,606.7153433476396,None,607.6275440069662,None,607.8950771288173,None,607.8950771288173,None,,,,,,,,,,,,,,,,,,,,,,,,,,,,,,,,,,,sing41,001,2019_Nov_18_1339,ProdFawcett_Revision2019,3.2.4,60.02015978506053,
73,0,73,0,,,,,,,,,,,,,,,,,614.6460595882318,None,materials/speakPic.jpg,month,B_aloud,73,193,610.9676251788269,None,610.9676251788269,None,611.8956332027119,None,612.1618728618523,None,612.1618728618523,None,,,,,,,,,,,,,,,,,,,,,,,,,,,,,,,,,,,sing41,001,2019_Nov_18_1339,ProdFawcett_Revision2019,3.2.4,60.02015978506053,
74,0,74,0,,,,,,,,,,,,,,,,,618.9140340237605,None,materials/singPic.jpg,season,C_sing,74,277,615.2701511476021,None,615.2701511476021,None,616.1634434285002,None,616.4298818187472,None,616.4298818187472,None,,,,,,,,,,,,,,,,,,,,,,,,,,,,,,,,,,,sing41,001,2019_Nov_18_1339,ProdFawcett_Revision2019,3.2.4,60.02015978506053,
75,0,75,0,,,,,,,,,,,,,,,,,623.1820591528272,None,materials/readPic.jpg,carry,A_silent,75,43,619.522701996641,None,619.522701996641,None,620.4315484854137,None,620.697843192138,None,620.697843192138,None,,,,,,,,,,,,,,,,,,,,,,,,,,,,,,,,,,,sing41,001,2019_Nov_18_1339,ProdFawcett_Revision2019,3.2.4,60.02015978506053,
76,0,76,0,,,,,,,,,,,,,,,,,627.4499766747526,None,materials/singPic.jpg,travel,C_sing,76,338,623.8000562915968,None,623.8000562915968,None,624.6995754805002,None,624.9658431299372,None,624.9658431299372,None,,,,,,,,,,,,,,,,,,,,,,,,,,,,,,,,,,,sing41,001,2019_Nov_18_1339,ProdFawcett_Revision2019,3.2.4,60.02015978506053,
77,0,77,0,,,,,,,,,,,,,,,,,631.7182683336441,None,materials/readPic.jpg,private,A_silent,77,237,628.0523303477016,None,628.0523303477016,None,628.9675001555015,None,629.233865770977,None,629.233865770977,None,,,,,,,,,,,,,,,,,,,,,,,,,,,,,,,,,,,sing41,001,2019_Nov_18_1339,ProdFawcett_Revision2019,3.2.4,60.02015978506053,
78,0,78,0,,,,,,,,,,,,,,,,,635.9858729862535,None,materials/readPic.jpg,industry,A_silent,78,161,632.3043773714003,None,632.3043773714003,None,633.235509734403,None,633.5018134602228,None,633.5018134602228,None,,,,,,,,,,,,,,,,,,,,,,,,,,,,,,,,,,,sing41,001,2019_Nov_18_1339,ProdFawcett_Revision2019,3.2.4,60.02015978506053,
79,0,79,0,,,,,,,,,,,,,,,,,640.254019717609,None,materials/singPic.jpg,management,C_sing,79,177,636.5612480562295,None,636.5612480562295,None,637.5034972320705,None,637.7697636374946,None,637.7697636374946,None,,,,,,,,,,,,,,,,,,,,,,,,,,,,,,,,,,,sing41,001,2019_Nov_18_1339,ProdFawcett_Revision2019,3.2.4,60.02015978506053,
80,0,80,0,,,,,,,,,,,,,,,,,644.5219549667227,None,materials/readPic.jpg,damage,A_silent,80,83,640.8556848292592,None,640.8556848292592,None,641.7714716675996,None,642.0378145798345,None,642.0378145798345,None,,,,,,,,,,,,,,,,,,,,,,,,,,,,,,,,,,,sing41,001,2019_Nov_18_1339,ProdFawcett_Revision2019,3.2.4,60.02015978506053,
81,0,81,0,,,,,,,,,,,,,,,,,648.789969521677,None,materials/singPic.jpg,clear,C_sing,81,52,645.1324124525718,None,645.1324124525718,None,646.0394411270759,None,646.3060779374259,None,646.3060779374259,None,,,,,,,,,,,,,,,,,,,,,,,,,,,,,,,,,,,sing41,001,2019_Nov_18_1339,ProdFawcett_Revision2019,3.2.4,60.02015978506053,
82,0,82,0,,,,,,,,,,,,,,,,,653.0580220190332,None,materials/speakPic.jpg,raise,B_aloud,82,250,649.3752460036076,None,649.3752460036076,None,650.3074556820302,None,650.5737709149716,None,650.5737709149716,None,,,,,,,,,,,,,,,,,,,,,,,,,,,,,,,,,,,sing41,001,2019_Nov_18_1339,ProdFawcett_Revision2019,3.2.4,60.02015978506053,
83,0,83,0,,,,,,,,,,,,,,,,,657.3257258816943,None,materials/readPic.jpg,dream,A_silent,83,104,653.6591509610003,None,653.6591509610003,None,654.5754164334139,None,654.8417487715369,None,654.8417487715369,None,,,,,,,,,,,,,,,,,,,,,,,,,,,,,,,,,,,sing41,001,2019_Nov_18_1339,ProdFawcett_Revision2019,3.2.4,60.02015978506053,
84,0,84,0,,,,,,,,,,,,,,,,,661.5939307706662,None,materials/singPic.jpg,bitter,C_sing,84,23,657.936019157803,None,657.936019157803,None,658.8434197922497,None,659.0946656714559,None,659.0946656714559,None,,,,,,,,,,,,,,,,,,,,,,,,,,,,,,,,,,,sing41,001,2019_Nov_18_1339,ProdFawcett_Revision2019,3.2.4,60.02015978506053,
85,0,85,0,,,,,,,,,,,,,,,,,665.8619241773963,None,materials/readPic.jpg,junior,A_silent,85,167,662.1862794675621,None,662.1862794675621,None,663.1114296821547,None,663.3776111836787,None,663.3776111836787,None,,,,,,,,,,,,,,,,,,,,,,,,,,,,,,,,,,,sing41,001,2019_Nov_18_1339,ProdFawcett_Revision2019,3.2.4,60.02015978506053,
86,0,86,0,,,,,,,,,,,,,,,,,670.1299110530572,None,materials/readPic.jpg,election,A_silent,86,109,666.431304347826,None,666.431304347826,None,667.3794563662373,None,667.6457227716614,None,667.6457227716614,None,,,,,,,,,,,,,,,,,,,,,,,,,,,,,,,,,,,sing41,001,2019_Nov_18_1339,ProdFawcett_Revision2019,3.2.4,60.02015978506053,
87,0,87,0,,,,,,,,,,,,,,,,,674.3982372333148,None,materials/singPic.jpg,region,C_sing,87,256,670.7391941904584,None,670.7391941904584,None,671.6473686011072,None,671.9138906512408,None,671.9138906512408,None,,,,,,,,,,,,,,,,,,,,,,,,,,,,,,,,,,,sing41,001,2019_Nov_18_1339,ProdFawcett_Revision2019,3.2.4,60.02015978506053,
88,0,88,0,,,,,,,,,,,,,,,,,678.6658661441811,None,materials/readPic.jpg,company,A_silent,88,64,674.9994834235245,None,674.9994834235245,None,675.9153271754681,None,676.1817397524414,None,676.1817397524414,None,,,,,,,,,,,,,,,,,,,,,,,,,,,,,,,,,,,sing41,001,2019_Nov_18_1339,ProdFawcett_Revision2019,3.2.4,60.02015978506053,
89,0,89,0,,,,,,,,,,,,,,,,,682.9338399577036,None,materials/singPic.jpg,quantity,C_sing,89,245,679.2873909933446,None,679.2873909933446,None,680.1834101511477,None,680.4496510543013,None,680.4496510543013,None,,,,,,,,,,,,,,,,,,,,,,,,,,,,,,,,,,,sing41,001,2019_Nov_18_1339,ProdFawcett_Revision2019,3.2.4,60.02015978506053,
,,,,,,,,,,,,,,,,,,,,,,,,,,,,,,,,,,,,,683.433984263233,None,k,93.52923710891355,683.433984263233,None,,,,,,,,,,,,,,,,,,,,,,,,,,,,,sing41,001,2019_Nov_18_1339,ProdFawcett_Revision2019,3.2.4,60.02015978506053,
,,,,,,,,,,,,,,776.9796600733966,None,space,5.470904086583232,776.9796600733966,None,,,,,,,,,,,,,,,,,,,,,,,,,,,,,,,,,,,,,,,,,,,,,,,,,,,,sing41,001,2019_Nov_18_1339,ProdFawcett_Revision2019,3.2.4,60.02015978506053,
,,,,0,0,0,0,,,,,,,,,,,,,790.3002379175218,None,,,,,,,,,,,,,,,,,,,,,,waste,D_new,0,350,782.9990194066058,None,782.9990194066058,None,782.9990194066058,None,1,4.00321857311701,782.9990194066058,None,787.0498460533681,None,787.0498460533681,None,787.5660284879018,None,787.5660284879018,None,787.5660284879018,None,n,2.6929458232257275,787.5660284879018,None,sing41,001,2019_Nov_18_1339,ProdFawcett_Revision2019,3.2.4,60.02015978506053,
,,,,1,0,1,0,,,,,,,,,,,,,799.4369111152578,None,,,,,,,,,,,,,,,,,,,,,,season,C_sing,1,277,790.8173941033774,None,790.8173941033774,None,790.8173941033774,None,1,6.584741556260724,790.8173941033774,None,797.4525225477391,None,797.4525225477391,None,797.9692759843256,None,797.9692759843256,None,797.9692759843256,None,n,1.432495490452311,797.9692759843256,None,sing41,001,2019_Nov_18_1339,ProdFawcett_Revision2019,3.2.4,60.02015978506053,
,,,,2,0,2,0,,,,,,,,,,,,,805.0882562045158,None,,,,,,,,,,,,,,,,,,,,,,leader,A_silent,2,168,799.9569642968213,None,799.9569642968213,None,799.9569642968213,None,1,3.7323829072588524,799.9569642968213,None,803.7547465323132,None,803.7547465323132,None,804.2716025999875,None,804.2716025999875,None,804.2716025999875,None,n,0.7779834546245183,804.2716025999875,None,sing41,001,2019_Nov_18_1339,ProdFawcett_Revision2019,3.2.4,60.02015978506053,
,,,,3,0,3,0,,,,,,,,,,,,,809.3228957516949,None,,,,,,,,,,,,,,,,,,,,,,length,B_aloud,3,169,805.6059529141007,None,805.6059529141007,None,805.6059529141007,None,6,2.051143870125088,805.6059529141007,None,807.7223213286061,None,807.7223213286061,None,808.2396087578527,None,808.2396087578527,None,808.2396087578527,None,r,1.0417462835107472,808.2396087578527,None,sing41,001,2019_Nov_18_1339,ProdFawcett_Revision2019,3.2.4,60.02015978506053,
,,,,4,0,4,0,,,,,,,,,,,,,815.3248329912299,None,,,,,,,,,,,,,,,,,,,,,,rapid,B_aloud,4,252,809.839837345276,None,809.839837345276,None,809.839837345276,None,1,3.8173032904151114,809.839837345276,None,813.6908527710393,None,813.6908527710393,None,814.2077592212477,None,814.2077592212477,None,814.2077592212477,None,n,1.0811087267525181,814.2077592212477,None,sing41,001,2019_Nov_18_1339,ProdFawcett_Revision2019,3.2.4,60.02015978506053,
,,,,5,0,5,0,,,,,,,,,,,,,818.8423779312061,None,,,,,,,,,,,,,,,,,,,,,,afternoon,A_silent,5,3,815.8302805249737,None,815.8302805249737,None,815.8302805249737,None,1,1.3870495117248538,815.8302805249737,None,817.2641599800959,None,817.2641599800959,None,817.792035205573,None,817.792035205573,None,817.792035205573,None,n,1.0092162716923667,817.792035205573,None,sing41,001,2019_Nov_18_1339,ProdFawcett_Revision2019,3.2.4,60.02015978506053,
,,,,6,0,6,0,,,,,,,,,,,,,825.6449060770042,None,,,,,,,,,,,,,,,,,,,,,,empty,A_silent,6,112,819.3434651987309,None,819.3434651987309,None,819.3434651987309,None,1,4.841476954655718,819.3434651987309,None,824.2442374199168,None,824.2442374199168,None,824.7609516700877,None,824.7609516700877,None,824.7609516700877,None,n,0.8395900976547637,824.7609516700877,None,sing41,001,2019_Nov_18_1339,ProdFawcett_Revision2019,3.2.4,60.02015978506053,
,,,,7,0,7,0,,,,,,,,,,,,,831.9468271443675,None,,,,,,,,,,,,,,,,,,,,,,story,C_sing,7,306,826.1619537227093,None,826.1619537227093,None,826.1619537227093,None,3,4.062253840890662,826.1619537227093,None,830.2627834795048,None,830.2627834795048,None,830.7794392610563,None,830.7794392610563,None,830.7794392610563,None,f,1.1323788642157524,830.7794392610563,None,sing41,001,2019_Nov_18_1339,ProdFawcett_Revision2019,3.2.4,60.02015978506053,
,,,,8,0,8,0,,,,,,,,,,,,,836.2645235429495,None,,,,,,,,,,,,,,,,,,,,,,citizen,C_sing,8,50,832.4696787335947,None,832.4696787335947,None,832.4696787335947,None,6,2.0977806804753527,832.4696787335947,None,834.630769733159,None,834.630769733159,None,835.1484962990608,None,835.1484962990608,None,835.1484962990608,None,r,1.0831302481806233,835.1484962990608,None,sing41,001,2019_Nov_18_1339,ProdFawcett_Revision2019,3.2.4,60.02015978506053,
,,,,9,0,9,0,,,,,,,,,,,,,842.6167462835106,None,,,,,,,,,,,,,,,,,,,,,,rough,D_new,9,266,836.7818806369346,None,836.7818806369346,None,836.7818806369346,None,1,4.361131429993293,836.7818806369346,None,841.1896547863407,None,841.1896547863407,None,841.6835357964792,None,841.6835357964792,None,841.6835357964792,None,n,0.8922249175843717,841.6835357964792,None,sing41,001,2019_Nov_18_1339,ProdFawcett_Revision2019,3.2.4,60.02015978506053,
,,,,10,0,10,0,,,,,,,,,,,,,846.350916215712,None,,,,,,,,,,,,,,,,,,,,,,youth,D_new,10,359,843.1332863718353,None,843.1332863718353,None,843.1332863718353,None,1,1.642498289481864,843.1332863718353,None,844.8341363438453,None,844.8341363438453,None,845.3505930832866,None,845.3505930832866,None,845.3505930832866,None,n,0.9522855632271785,845.3505930832866,None,sing41,001,2019_Nov_18_1339,ProdFawcett_Revision2019,3.2.4,60.02015978506053,
,,,,11,0,11,0,,,,,,,,,,,,,850.7879035267774,None,,,,,,,,,,,,,,,,,,,,,,smooth,D_new,11,292,846.8678690054112,None,846.8678690054112,None,846.8678690054112,None,1,2.562752379174981,846.8678690054112,None,849.4686968961869,None,849.4686968961869,None,849.9853377495801,None,849.9853377495801,None,849.9853377495801,None,n,0.7814041798847029,849.9853377495801,None,sing41,001,2019_Nov_18_1339,ProdFawcett_Revision2019,3.2.4,60.02015978506053,
,,,,12,0,12,0,,,,,,,,,,,,,854.1717058530821,None,,,,,,,,,,,,,,,,,,,,,,birth,D_new,12,22,851.3191898364121,None,851.3191898364121,None,851.3191898364121,None,1,1.5277890775641936,851.3191898364121,None,852.8940321577406,None,852.8940321577406,None,853.4198012688935,None,853.4198012688935,None,853.4198012688935,None,n,0.7307224606579439,853.4198012688935,None,sing41,001,2019_Nov_18_1339,ProdFawcett_Revision2019,3.2.4,60.02015978506053,
,,,,13,0,13,0,,,,,,,,,,,,,859.8218047521304,None,,,,,,,,,,,,,,,,,,,,,,style,C_sing,13,311,854.7037335945761,None,854.7037335945761,None,854.7037335945761,None,1,4.382552093052254,854.7037335945761,None,859.1260729613732,None,859.1260729613732,None,859.6383364433664,None,859.6383364433664,None,859.6383364433664,None,n,0.13576258008333753,859.6383364433664,None,sing41,001,2019_Nov_18_1339,ProdFawcett_Revision2019,3.2.4,60.02015978506053,
,,,,14,0,14,0,,,,,,,,,,,,,863.9230960378181,None,,,,,,,,,,,,,,,,,,,,,,force,B_aloud,14,131,860.3393755053803,None,860.3393755053803,None,860.3393755053803,None,1,2.466872550849075,860.3393755053803,None,862.8397104559308,None,862.8397104559308,None,863.3564265721216,None,863.3564265721216,None,863.3564265721216,None,n,0.5294678733594083,863.3564265721216,None,sing41,001,2019_Nov_18_1339,ProdFawcett_Revision2019,3.2.4,60.02015978506053,
,,,,15,0,15,0,,,,,,,,,,,,,866.8612776015425,None,,,,,,,,,,,,,,,,,,,,,,mankind,D_new,15,178,864.4408751632768,None,864.4408751632768,None,864.4408751632768,None,1,1.316735709398472,864.4408751632768,None,865.7789509858803,None,865.7789509858803,None,866.2967126951544,None,866.2967126951544,None,866.2967126951544,None,n,0.5332350562916872,866.2967126951544,None,sing41,001,2019_Nov_18_1339,ProdFawcett_Revision2019,3.2.4,60.02015978506053,
,,,,16,0,16,0,,,,,,,,,,,,,870.4750432294582,None,,,,,,,,,,,,,,,,,,,,,,phrase,D_new,16,220,867.391211979847,None,867.391211979847,None,867.391211979847,None,1,1.5504198544504106,867.391211979847,None,868.9788701250231,None,868.9788701250231,None,869.5082515394661,None,869.5082515394661,None,869.5082515394661,None,n,0.9292616781735887,869.5082515394661,None,sing41,001,2019_Nov_18_1339,ProdFawcett_Revision2019,3.2.4,60.02015978506053,
,,,,17,0,17,0,,,,,,,,,,,,,873.8594986626858,None,,,,,,,,,,,,,,,,,,,,,,century,D_new,17,45,870.9919244883995,None,870.9919244883995,None,870.9919244883995,None,1,1.374139142875265,870.9919244883995,None,872.4139142874915,None,872.4139142874915,None,872.925783106301,None,872.925783106301,None,872.925783106301,None,n,0.8958101635880666,872.925783106301,None,sing41,001,2019_Nov_18_1339,ProdFawcett_Revision2019,3.2.4,60.02015978506053,
,,,,18,0,18,0,,,,,,,,,,,,,877.0606291596691,None,,,,,,,,,,,,,,,,,,,,,,display,D_new,18,98,874.3769866890589,None,874.3769866890589,None,874.3769866890589,None,1,1.3165730546743362,874.3769866890589,None,875.7274945574422,None,875.7274945574422,None,876.2435357964796,None,876.2435357964796,None,876.2435357964796,None,n,0.7779066368102576,876.2435357964796,None,sing41,001,2019_Nov_18_1339,ProdFawcett_Revision2019,3.2.4,60.02015978506053,
,,,,19,0,19,0,,,,,,,,,,,,,883.9792479940288,None,,,,,,,,,,,,,,,,,,,,,,question,A_silent,19,247,877.5818899670335,None,877.5818899670335,None,877.5818899670335,None,6,4.463362256639812,877.5818899670335,None,882.0863385581888,None,882.0863385581888,None,882.6124709211917,None,882.6124709211917,None,882.6124709211917,None,r,1.3202058841820872,882.6124709211917,None,sing41,001,2019_Nov_18_1339,ProdFawcett_Revision2019,3.2.4,60.02015978506053,
,,,,20,0,20,0,,,,,,,,,,,,,887.0136508676992,None,,,,,,,,,,,,,,,,,,,,,,scene,D_new,20,273,884.4961886545998,None,884.4961886545998,None,884.4961886545998,None,1,1.2043972756109724,884.4961886545998,None,885.7632453194005,None,885.7632453194005,None,886.2800258132734,None,886.2800258132734,None,886.2800258132734,None,n,0.6927514461654027,886.2800258132734,None,sing41,001,2019_Nov_18_1339,ProdFawcett_Revision2019,3.2.4,60.02015978506053,
,,,,21,0,21,0,,,,,,,,,,,,,893.3321437457234,None,,,,,,,,,,,,,,,,,,,,,,sound,C_sing,21,295,887.5307171736022,None,887.5307171736022,None,887.5307171736022,None,6,4.129534117061667,887.5307171736022,None,891.7020796790443,None,891.7020796790443,None,892.2150755738012,None,892.2150755738012,None,892.2150755738012,None,r,1.069155937052983,892.2150755738012,None,sing41,001,2019_Nov_18_1339,ProdFawcett_Revision2019,3.2.4,60.02015978506053,
,,,,22,0,22,0,,,,,,,,,,,,,897.0832957019343,None,,,,,,,,,,,,,,,,,,,,,,shear,B_aloud,22,283,893.8493568451827,None,893.8493568451827,None,893.8493568451827,None,6,1.69139671580524,893.8493568451827,None,895.5880661815013,None,895.5880661815013,None,896.1162962617404,None,896.1162962617404,None,896.1162962617404,None,r,0.9196501212909425,896.1162962617404,None,sing41,001,2019_Nov_18_1339,ProdFawcett_Revision2019,3.2.4,60.02015978506053,
,,,,23,0,23,0,,,,,,,,,,,,,902.1349023449648,None,,,,,,,,,,,,,,,,,,,,,,weather,D_new,23,352,897.6168896560303,None,897.6168896560303,None,897.6168896560303,None,1,3.1308944454813172,897.6168896560303,None,900.7894380170428,None,900.7894380170428,None,901.3012844436153,None,901.3012844436153,None,901.3012844436153,None,n,0.7986527337188818,901.3012844436153,None,sing41,001,2019_Nov_18_1339,ProdFawcett_Revision2019,3.2.4,60.02015978506053,
,,,,24,0,24,0,,,,,,,,,,,,,911.5877716613795,None,,,,,,,,,,,,,,,,,,,,,,vision,B_aloud,24,347,902.6518747278719,None,902.6518747278719,None,902.6518747278719,None,3,7.1675384089071486,902.6518747278719,None,909.8706807862163,None,909.8706807862163,None,910.3875371648937,None,910.3875371648937,None,910.3875371648937,None,f,1.1675754182992932,910.3875371648937,None,sing41,001,2019_Nov_18_1339,ProdFawcett_Revision2019,3.2.4,60.02015978506053,
,,,,25,0,25,0,,,,,,,,,,,,,915.4390203396156,None,,,,,,,,,,,,,,,,,,,,,,committee,C_sing,25,62,912.1058872924054,None,912.1058872924054,None,912.1058872924054,None,6,1.6009271008269934,912.1058872924054,None,913.7428808235368,None,913.7428808235368,None,914.2721120233873,None,914.2721120233873,None,914.2721120233873,None,n,1.131197673695624,914.2721120233873,None,sing41,001,2019_Nov_18_1339,ProdFawcett_Revision2019,3.2.4,60.02015978506053,
,,,,26,0,26,0,,,,,,,,,,,,,918.9901642097407,None,,,,,,,,,,,,,,,,,,,,,,suggestion,B_aloud,26,314,915.9583212042048,None,915.9583212042048,None,915.9583212042048,None,6,1.5964321701812878,915.9583212042048,None,917.6063376251786,None,917.6063376251786,None,918.1233330223299,None,918.1233330223299,None,918.1233330223299,None,n,0.8240576600110217,918.1233330223299,None,sing41,001,2019_Nov_18_1339,ProdFawcett_Revision2019,3.2.4,60.02015978506053,
,,,,27,0,27,0,,,,,,,,,,,,,923.4747138769671,None,,,,,,,,,,,,,,,,,,,,,,government,C_sing,27,139,919.5142181377123,None,919.5142181377123,None,919.5142181377123,None,6,1.8484253903093304,919.5142181377123,None,921.413565652796,None,921.413565652796,None,921.9412181999128,None,921.9412181999128,None,921.9412181999128,None,r,1.4935787149343014,921.9412181999128,None,sing41,001,2019_Nov_18_1339,ProdFawcett_Revision2019,3.2.4,60.02015978506053,
,,,,28,0,28,0,,,,,,,,,,,,,927.0927903215775,None,,,,,,,,,,,,,,,,,,,,,,height,C_sing,28,152,923.9765805187535,None,923.9765805187535,None,923.9765805187535,None,6,1.6496939727562676,923.9765805187535,None,925.6756027243887,None,925.6756027243887,None,926.1925461839896,None,926.1925461839896,None,926.1925461839896,None,r,0.866106549729011,926.1925461839896,None,sing41,001,2019_Nov_18_1339,ProdFawcett_Revision2019,3.2.4,60.02015978506053,
,,,,29,0,29,0,,,,,,,,,,,,,935.0121412576973,None,,,,,,,,,,,,,,,,,,,,,,damage,A_silent,29,83,927.6094952416497,None,927.6094952416497,None,927.6094952416497,None,1,6.056431548174714,927.6094952416497,None,933.7167988430679,None,933.7167988430679,None,934.2447216520495,None,934.2447216520495,None,934.2447216520495,None,n,0.7334042420852711,934.2447216520495,None,sing41,001,2019_Nov_18_1339,ProdFawcett_Revision2019,3.2.4,60.02015978506053,
,,,,30,0,30,0,,,,,,,,,,,,,938.5348342352427,None,,,,,,,,,,,,,,,,,,,,,,military,B_aloud,30,190,935.5184365864279,None,935.5184365864279,None,935.5184365864279,None,6,1.3875639111774944,935.5184365864279,None,936.9510826024757,None,936.9510826024757,None,937.4791935684516,None,937.4791935684516,None,937.4791935684516,None,r,1.026605399017626,937.4791935684516,None,sing41,001,2019_Nov_18_1339,ProdFawcett_Revision2019,3.2.4,60.02015978506053,
,,,,31,0,31,0,,,,,,,,,,,,,944.5147008148288,None,,,,,,,,,,,,,,,,,,,,,,executive,D_new,31,122,939.0645695714375,None,939.0645695714375,None,939.0645695714375,None,6,4.280830067798888,939.0645695714375,None,943.38559339429,None,943.38559339429,None,943.8980885737387,None,943.8980885737387,None,943.8980885737387,None,r,0.5673303477014997,943.8980885737387,None,sing41,001,2019_Nov_18_1339,ProdFawcett_Revision2019,3.2.4,60.02015978506053,
,,,,32,0,32,0,,,,,,,,,,,,,949.6497123219506,None,,,,,,,,,,,,,,,,,,,,,,right,C_sing,32,265,945.0320827890773,None,945.0320827890773,None,945.0320827890773,None,1,3.320763513093425,945.0320827890773,None,948.4158617901348,None,948.4158617901348,None,948.9327635752938,None,948.9327635752938,None,948.9327635752938,None,n,0.6681597934939418,948.9327635752938,None,sing41,001,2019_Nov_18_1339,ProdFawcett_Revision2019,3.2.4,60.02015978506053,
,,,,33,0,33,0,,,,,,,,,,,,,953.2673070224546,None,,,,,,,,,,,,,,,,,,,,,,period,D_new,33,217,950.1677159917895,None,950.1677159917895,None,950.1677159917895,None,1,1.849524164956165,950.1677159917895,None,952.0553803570319,None,952.0553803570319,None,952.5838962493003,None,952.5838962493003,None,952.5838962493003,None,n,0.641526093176708,952.5838962493003,None,sing41,001,2019_Nov_18_1339,ProdFawcett_Revision2019,3.2.4,60.02015978506053,
,,,,34,0,34,0,,,,,,,,,,,,,956.0517540585929,None,,,,,,,,,,,,,,,,,,,,,,author,D_new,34,15,953.7858036325183,None,953.7858036325183,None,953.7858036325183,None,1,1.046869751819031,953.7858036325183,None,954.8551194252659,None,954.8551194252659,None,955.3749869378616,None,955.3749869378616,None,955.3749869378616,None,n,0.6500979660381745,955.3749869378616,None,sing41,001,2019_Nov_18_1339,ProdFawcett_Revision2019,3.2.4,60.02015978506053,
,,,,35,0,35,0,,,,,,,,,,,,,959.0034194812465,None,,,,,,,,,,,,,,,,,,,,,,dream,A_silent,35,104,956.5687967282452,None,956.5687967282452,None,956.5687967282452,None,1,1.4243083286683031,956.5687967282452,None,958.0404462897304,None,958.0404462897304,None,958.568996703365,None,958.568996703365,None,958.568996703365,None,n,0.41622441997878923,958.568996703365,None,sing41,001,2019_Nov_18_1339,ProdFawcett_Revision2019,3.2.4,60.02015978506053,
,,,,36,0,36,0,,,,,,,,,,,,,963.2539049573925,None,,,,,,,,,,,,,,,,,,,,,,color,C_sing,36,56,959.5197857187286,None,959.5197857187286,None,959.5197857187286,None,6,2.6645574423087055,959.5197857187286,None,962.2255722460659,None,962.2255722460659,None,962.7537569198234,None,962.7537569198234,None,962.7537569198234,None,r,0.46241307457876246,962.7537569198234,None,sing41,001,2019_Nov_18_1339,ProdFawcett_Revision2019,3.2.4,60.02015978506053,
,,,,37,0,37,0,,,,,,,,,,,,,966.9886073272378,None,,,,,,,,,,,,,,,,,,,,,,pattern,D_new,37,214,963.7708120296074,None,963.7708120296074,None,963.7708120296074,None,1,2.2692072525969706,963.7708120296074,None,966.1045882316353,None,966.1045882316353,None,966.6216225041985,None,966.6216225041985,None,966.6216225041985,None,n,0.32269950861518737,966.6216225041985,None,sing41,001,2019_Nov_18_1339,ProdFawcett_Revision2019,3.2.4,60.02015978506053,
,,,,38,0,38,0,,,,,,,,,,,,,970.9064912608073,None,,,,,,,,,,,,,,,,,,,,,,payment,A_silent,38,215,967.5066750637557,None,967.5066750637557,None,967.5066750637557,None,1,2.0933890029232316,967.5066750637557,None,969.6564856627479,None,969.6564856627479,None,970.172693288549,None,970.172693288549,None,970.172693288549,None,n,0.6993895005289232,970.172693288549,None,sing41,001,2019_Nov_18_1339,ProdFawcett_Revision2019,3.2.4,60.02015978506053,
,,,,39,0,39,0,,,,,,,,,,,,,976.8082627355848,None,,,,,,,,,,,,,,,,,,,,,,population,D_new,39,227,971.424797847857,None,971.424797847857,None,971.424797847857,None,4,4.37535765379107,971.424797847857,None,975.8577206568389,None,975.8577206568389,None,976.3746106238727,None,976.3746106238727,None,976.3746106238727,None,f,0.3935948871057917,976.3746106238727,None,sing41,001,2019_Nov_18_1339,ProdFawcett_Revision2019,3.2.4,60.02015978506053,
,,,,40,0,40,0,,,,,,,,,,,,,981.0925990545497,None,,,,,,,,,,,,,,,,,,,,,,group,C_sing,40,143,977.3248600485163,None,977.3248600485163,None,977.3248600485163,None,6,2.786161908316444,977.3248600485163,None,980.1590212726255,None,980.1590212726255,None,980.6762654724139,None,980.6762654724139,None,980.6762654724139,None,r,0.3788856751880303,980.6762654724139,None,sing41,001,2019_Nov_18_1339,ProdFawcett_Revision2019,3.2.4,60.02015978506053,
,,,,41,0,41,0,,,,,,,,,,,,,985.5273931703678,None,,,,,,,,,,,,,,,,,,,,,,straight,D_new,41,307,981.6096855756668,None,981.6096855756668,None,981.6096855756668,None,1,2.90144523231902,981.6096855756668,None,984.5487052932763,None,984.5487052932763,None,985.0605283946011,None,985.0605283946011,None,985.0605283946011,None,n,0.42660042296438405,985.0605283946011,None,sing41,001,2019_Nov_18_1339,ProdFawcett_Revision2019,3.2.4,60.02015978506053,
,,,,42,0,42,0,,,,,,,,,,,,,988.5453685389066,None,,,,,,,,,,,,,,,,,,,,,,broad,D_new,42,31,986.0349549045218,None,986.0349549045218,None,986.0349549045218,None,1,1.4041304347824735,986.0349549045218,None,987.4649651676309,None,987.4649651676309,None,987.9952307644462,None,987.9952307644462,None,987.9952307644462,None,n,0.5080752005974318,987.9952307644462,None,sing41,001,2019_Nov_18_1339,ProdFawcett_Revision2019,3.2.4,60.02015978506053,
,,,,43,0,43,0,,,,,,,,,,,,,992.179487155564,None,,,,,,,,,,,,,,,,,,,,,,evidence,B_aloud,43,120,989.0631153200225,None,989.0631153200225,None,989.0631153200225,None,6,2.0241624681225403,989.0631153200225,None,991.1213752565777,None,991.1213752565777,None,991.6797648815077,None,991.6797648815077,None,991.6797648815077,None,r,0.45480033588364677,991.6797648815077,None,sing41,001,2019_Nov_18_1339,ProdFawcett_Revision2019,3.2.4,60.02015978506053,
,,,,44,0,44,0,,,,,,,,,,,,,995.3805470547986,None,,,,,,,,,,,,,,,,,,,,,,emergency,C_sing,44,110,992.6978416371212,None,992.6978416371212,None,992.6978416371212,None,6,1.4928422591278832,992.6978416371212,None,994.2468361634633,None,994.2468361634633,None,994.7636278534551,None,994.7636278534551,None,994.7636278534551,None,r,0.5786309634881945,994.7636278534551,None,sing41,001,2019_Nov_18_1339,ProdFawcett_Revision2019,3.2.4,60.02015978506053,
,,,,45,0,45,0,,,,,,,,,,,,,998.5980400572244,None,,,,,,,,,,,,,,,,,,,,,,error,D_new,45,117,995.8978344840457,None,995.8978344840457,None,995.8978344840457,None,1,1.588240343347934,995.8978344840457,None,997.53709149717,None,997.53709149717,None,998.0478948186851,None,998.0478948186851,None,998.0478948186851,None,n,0.5105408347326374,998.0478948186851,None,sing41,001,2019_Nov_18_1339,ProdFawcett_Revision2019,3.2.4,60.02015978506053,
,,,,46,0,46,0,,,,,,,,,,,,,1001.9325203707158,None,,,,,,,,,,,,,,,,,,,,,,guest,D_new,46,146,999.1317089631148,None,999.1317089631148,None,999.1317089631148,None,1,1.4341198606703074,999.1317089631148,None,1000.6153613858305,None,1000.6153613858305,None,1001.1154948062449,None,1001.1154948062449,None,1001.1154948062449,None,n,0.7786384275673299,1001.1154948062449,None,sing41,001,2019_Nov_18_1339,ProdFawcett_Revision2019,3.2.4,60.02015978506053,
,,,,47,0,47,0,,,,,,,,,,,,,1005.1728425701313,None,,,,,,,,,,,,,,,,,,,,,,capital,D_new,47,40,1002.4511301859798,None,1002.4511301859798,None,1002.4511301859798,None,1,1.426883124961023,1002.4511301859798,None,1003.933009889905,None,1003.933009889905,None,1004.4499990669901,None,1004.4499990669901,None,1004.4499990669901,None,n,0.6923238166323245,1004.4499990669901,None,sing41,001,2019_Nov_18_1339,ProdFawcett_Revision2019,3.2.4,60.02015978506053,
,,,,48,0,48,0,,,,,,,,,,,,,1009.7514897057908,None,,,,,,,,,,,,,,,,,,,,,,carry,A_silent,48,43,1005.700796790446,None,1005.700796790446,None,1005.700796790446,None,6,2.728987684269214,1005.700796790446,None,1008.4702879890528,None,1008.4702879890528,None,1008.9848311252099,None,1008.9848311252099,None,1008.9848311252099,None,r,0.7253333955341077,1008.9848311252099,None,sing41,001,2019_Nov_18_1339,ProdFawcett_Revision2019,3.2.4,60.02015978506053,
,,,,49,0,49,0,,,,,,,,,,,,,1013.0360250668655,None,,,,,,,,,,,,,,,,,,,,,,taste,A_silent,49,322,1010.2683818498476,None,1010.2683818498476,None,1010.2683818498476,None,1,1.5289009143498333,1010.2683818498476,None,1011.8399415313802,None,1011.8399415313802,None,1012.3524336007963,None,1012.3524336007963,None,1012.3524336007963,None,n,0.6367671207312924,1012.3524336007963,None,sing41,001,2019_Nov_18_1339,ProdFawcett_Revision2019,3.2.4,60.02015978506053,
,,,,50,0,50,0,,,,,,,,,,,,,1016.3869733159172,None,,,,,,,,,,,,,,,,,,,,,,present,D_new,50,231,1013.5536934751508,None,1013.5536934751508,None,1013.5536934751508,None,1,1.8597897617714807,1013.5536934751508,None,1015.4598333022332,None,1015.4598333022332,None,1015.98708963115,None,1015.98708963115,None,1015.98708963115,None,n,0.3538940722769439,1015.98708963115,None,sing41,001,2019_Nov_18_1339,ProdFawcett_Revision2019,3.2.4,60.02015978506053,
,,,,51,0,51,0,,,,,,,,,,,,,1022.1888129004169,None,,,,,,,,,,,,,,,,,,,,,,dispute,A_silent,51,99,1016.9039472538407,None,1016.9039472538407,None,1016.9039472538407,None,6,3.9574584810602573,1016.9039472538407,None,1020.9216022889841,None,1020.9216022889841,None,1021.4552690178516,None,1021.4552690178516,None,1021.4552690178516,None,r,0.6854011942523357,1021.4552690178516,None,sing41,001,2019_Nov_18_1339,ProdFawcett_Revision2019,3.2.4,60.02015978506053,
,,,,52,0,52,0,,,,,,,,,,,,,1025.5897188530198,None,,,,,,,,,,,,,,,,,,,,,,management,C_sing,52,177,1022.7074077875227,None,1022.7074077875227,None,1022.7074077875227,None,6,1.4494768924546406,1022.7074077875227,None,1024.205963488213,None,1024.205963488213,None,1024.722878957517,None,1024.722878957517,None,1024.722878957517,None,r,0.8263709025318349,1024.722878957517,None,sing41,001,2019_Nov_18_1339,ProdFawcett_Revision2019,3.2.4,60.02015978506053,
,,,,53,0,53,0,,,,,,,,,,,,,1028.5573741991666,None,,,,,,,,,,,,,,,,,,,,,,trend,D_new,53,340,1026.0911099707655,None,1026.0911099707655,None,1026.0911099707655,None,1,1.385211793245162,1026.0911099707655,None,1027.5239895502891,None,1027.5239895502891,None,1028.0406384897678,None,1028.0406384897678,None,1028.0406384897678,None,n,0.475929277850355,1028.0406384897678,None,sing41,001,2019_Nov_18_1339,ProdFawcett_Revision2019,3.2.4,60.02015978506053,
,,,,54,0,54,0,,,,,,,,,,,,,1034.8260110717174,None,,,,,,,,,,,,,,,,,,,,,,month,B_aloud,54,193,1029.0741301237795,None,1029.0741301237795,None,1029.0741301237795,None,6,4.418372519748573,1029.0741301237795,None,1033.6126242458167,None,1033.6126242458167,None,1034.0434036200782,None,1034.0434036200782,None,1034.0434036200782,None,r,0.7365509734399893,1034.0434036200782,None,sing41,001,2019_Nov_18_1339,ProdFawcett_Revision2019,3.2.4,60.02015978506053,
,,,,55,0,55,0,,,,,,,,,,,,,1039.5941820613298,None,,,,,,,,,,,,,,,,,,,,,,captain,C_sing,55,41,1035.3430167319775,None,1035.3430167319775,None,1035.3430167319775,None,6,2.9331031908936893,1035.3430167319775,None,1038.3165795857435,None,1038.3165795857435,None,1038.8439497418672,None,1038.8439497418672,None,1038.8439497418672,None,r,0.7037155563848501,1038.8439497418672,None,sing41,001,2019_Nov_18_1339,ProdFawcett_Revision2019,3.2.4,60.02015978506053,
,,,,56,0,56,0,,,,,,,,,,,,,1042.5950152391615,None,,,,,,,,,,,,,,,,,,,,,,trash,D_new,56,337,1040.112017167382,None,1040.112017167382,None,1040.112017167382,None,1,1.372122286496051,1040.112017167382,None,1041.5447913167877,None,1041.5447913167877,None,1042.0615145860547,None,1042.0615145860547,None,1042.0615145860547,None,n,0.48599832058198444,1042.0615145860547,None,sing41,001,2019_Nov_18_1339,ProdFawcett_Revision2019,3.2.4,60.02015978506053,
,,,,57,0,57,0,,,,,,,,,,,,,1046.4462922186976,None,,,,,,,,,,,,,,,,,,,,,,health,D_new,57,149,1043.1021950612676,None,1043.1021950612676,None,1043.1021950612676,None,1,2.3094439261053594,1043.1021950612676,None,1045.4626373079554,None,1045.4626373079554,None,1045.9795394041175,None,1045.9795394041175,None,1045.9795394041175,None,n,0.4244740934254878,1045.9795394041175,None,sing41,001,2019_Nov_18_1339,ProdFawcett_Revision2019,3.2.4,60.02015978506053,
,,,,58,0,58,0,,,,,,,,,,,,,1049.680495117248,None,,,,,,,,,,,,,,,,,,,,,,ground,D_new,58,142,1046.9637102693287,None,1046.9637102693287,None,1046.9637102693287,None,1,1.52777819244875,1046.9637102693287,None,1048.5469117372645,None,1048.5469117372645,None,1049.063769048952,None,1049.063769048952,None,1049.063769048952,None,n,0.5717375754179557,1049.063769048952,None,sing41,001,2019_Nov_18_1339,ProdFawcett_Revision2019,3.2.4,60.02015978506053,
,,,,59,0,59,0,,,,,,,,,,,,,1053.0483728307518,None,,,,,,,,,,,,,,,,,,,,,,prime,C_sing,59,235,1050.1820768800148,None,1050.1820768800148,None,1050.1820768800148,None,1,1.5576522361138814,1050.1820768800148,None,1051.7864511413823,None,1051.7864511413823,None,1052.3146793556011,None,1052.3146793556011,None,1052.3146793556011,None,n,0.6962524102755197,1052.3146793556011,None,sing41,001,2019_Nov_18_1339,ProdFawcett_Revision2019,3.2.4,60.02015978506053,
,,,,60,0,60,0,,,,,,,,,,,,,1057.1209093736393,None,,,,,,,,,,,,,,,,,,,,,,level,D_new,60,170,1053.5657597810537,None,1053.5657597810537,None,1053.5657597810537,None,1,2.420952292094171,1053.5657597810537,None,1056.049223113765,None,1056.049223113765,None,1056.5660468370966,None,1056.5660468370966,None,1056.5660468370966,None,n,0.5250873919262631,1056.5660468370966,None,sing41,001,2019_Nov_18_1339,ProdFawcett_Revision2019,3.2.4,60.02015978506053,
,,,,61,0,61,0,,,,,,,,,,,,,1060.3671997263168,None,,,,,,,,,,,,,,,,,,,,,,write,D_new,61,358,1057.6498799527276,None,1057.6498799527276,None,1057.6498799527276,None,1,1.4171064253278018,1057.6498799527276,None,1059.1053819120484,None,1059.1053819120484,None,1059.618616346333,None,1059.618616346333,None,1059.618616346333,None,n,0.7040641910807608,1059.618616346333,None,sing41,001,2019_Nov_18_1339,ProdFawcett_Revision2019,3.2.4,60.02015978506053,
,,,,62,0,62,0,,,,,,,,,,,,,1063.8682621135786,None,,,,,,,,,,,,,,,,,,,,,,under,B_aloud,62,343,1060.8840243826585,None,1060.8840243826585,None,1060.8840243826585,None,1,1.9590573490081624,1060.8840243826585,None,1062.8914256391117,None,1062.8914256391117,None,1063.4181168750388,None,1063.4181168750388,None,1063.4181168750388,None,n,0.4089410337746813,1063.4181168750388,None,sing41,001,2019_Nov_18_1339,ProdFawcett_Revision2019,3.2.4,60.02015978506053,
,,,,63,0,63,0,,,,,,,,,,,,,1066.8697194750262,None,,,,,,,,,,,,,,,,,,,,,,estate,D_new,63,119,1064.3851122721899,None,1064.3851122721899,None,1064.3851122721899,None,1,1.5131094109597143,1064.3851122721899,None,1065.9522712570752,None,1065.9522712570752,None,1066.4691724202276,None,1066.4691724202276,None,1066.4691724202276,None,n,0.36501368414519675,1066.4691724202276,None,sing41,001,2019_Nov_18_1339,ProdFawcett_Revision2019,3.2.4,60.02015978506053,
,,,,64,0,64,0,,,,,,,,,,,,,1073.3045953847109,None,,,,,,,,,,,,,,,,,,,,,,touch,D_new,64,332,1067.3867867139393,None,1067.3867867139393,None,1067.3867867139393,None,1,5.030877651302944,1067.3867867139393,None,1072.4548003358836,None,1072.4548003358836,None,1072.9714461653293,None,1072.9714461653293,None,1072.9714461653293,None,n,0.294444237109019,1072.9714461653293,None,sing41,001,2019_Nov_18_1339,ProdFawcett_Revision2019,3.2.4,60.02015978506053,
,,,,65,0,65,0,,,,,,,,,,,,,1076.789076631212,None,,,,,,,,,,,,,,,,,,,,,,command,D_new,65,60,1073.8226883124962,None,1073.8226883124962,None,1073.8226883124962,None,1,1.978924550600368,1073.8226883124962,None,1075.8417814268832,None,1075.8417814268832,None,1076.35610001866,None,1076.35610001866,None,1076.35610001866,None,n,0.3900171051814141,1076.35610001866,None,sing41,001,2019_Nov_18_1339,ProdFawcett_Revision2019,3.2.4,60.02015978506053,
,,,,66,0,66,0,,,,,,,,,,,,,1079.856515208061,None,,,,,,,,,,,,,,,,,,,,,,dance,D_new,66,84,1077.305798967469,None,1077.305798967469,None,1077.305798967469,None,1,1.2956412887974693,1077.305798967469,None,1078.6453399266034,None,1078.6453399266034,None,1079.1730260620761,None,1079.1730260620761,None,1079.1730260620761,None,n,0.636349132300893,1079.1730260620761,None,sing41,001,2019_Nov_18_1339,ProdFawcett_Revision2019,3.2.4,60.02015978506053,
,,,,67,0,67,0,,,,,,,,,,,,,1085.5583345773466,None,,,,,,,,,,,,,,,,,,,,,,clear,C_sing,67,52,1080.3738160104494,None,1080.3738160104494,None,1080.3738160104494,None,1,4.4192507930583815,1080.3738160104494,None,1084.8454528208,None,1084.8454528208,None,1085.3749001679416,None,1085.3749001679416,None,1085.3749001679416,None,n,0.13813553523687006,1085.3749001679416,None,sing41,001,2019_Nov_18_1339,ProdFawcett_Revision2019,3.2.4,60.02015978506053,
,,,,68,0,68,0,,,,,,,,,,,,,1088.892605274616,None,,,,,,,,,,,,,,,,,,,,,,testimony,D_new,68,325,1086.0754462897307,None,1086.0754462897307,None,1086.0754462897307,None,1,1.6937933072090345,1086.0754462897307,None,1087.815243204578,None,1087.815243204578,None,1088.3427757044224,None,1088.3427757044224,None,1088.3427757044224,None,n,0.5142486160352746,1088.3427757044224,None,sing41,001,2019_Nov_18_1339,ProdFawcett_Revision2019,3.2.4,60.02015978506053,
,,,,69,0,69,0,,,,,,,,,,,,,1094.0443167257572,None,,,,,,,,,,,,,,,,,,,,,,medicine,A_silent,69,186,1089.4106164085338,None,1089.4106164085338,None,1089.4106164085338,None,3,3.814081296261975,1089.4106164085338,None,1093.2774034334761,None,1093.2774034334761,None,1093.794310505691,None,1093.794310505691,None,1093.794310505691,None,f,0.20699415313811187,1093.794310505691,None,sing41,001,2019_Nov_18_1339,ProdFawcett_Revision2019,3.2.4,60.02015978506053,
,,,,70,0,70,0,,,,,,,,,,,,,1096.9952867450393,None,,,,,,,,,,,,,,,,,,,,,,notice,D_new,70,201,1094.5610813584622,None,1094.5610813584622,None,1094.5610813584622,None,1,1.5191556260497237,1094.5610813584622,None,1096.116449897369,None,1096.116449897369,None,1096.6359087516325,None,1096.6359087516325,None,1096.6359087516325,None,n,0.32455961933192157,1096.6359087516325,None,sing41,001,2019_Nov_18_1339,ProdFawcett_Revision2019,3.2.4,60.02015978506053,
,,,,71,0,71,0,,,,,,,,,,,,,1099.746128008957,None,,,,,,,,,,,,,,,,,,,,,,goose,D_new,71,138,1097.5128997947377,None,1097.5128997947377,None,1097.5128997947377,None,1,1.3113693475152104,1097.5128997947377,None,1098.8624656341358,None,1098.8624656341358,None,1099.364934067301,None,1099.364934067301,None,1099.364934067301,None,n,0.33994806244936626,1099.364934067301,None,sing41,001,2019_Nov_18_1339,ProdFawcett_Revision2019,3.2.4,60.02015978506053,
,,,,72,0,72,0,,,,,,,,,,,,,1103.5473881943149,None,,,,,,,,,,,,,,,,,,,,,,reading,B_aloud,72,254,1100.263308764073,None,1100.263308764073,None,1100.263308764073,None,6,1.784756795422254,1100.263308764073,None,1102.1135746718915,None,1102.1135746718915,None,1102.6302920320954,None,1102.6302920320954,None,1102.6302920320954,None,r,0.88174721652058,1102.6302920320954,None,sing41,001,2019_Nov_18_1339,ProdFawcett_Revision2019,3.2.4,60.02015978506053,
,,,,73,0,73,0,,,,,,,,,,,,,1107.3818426945327,None,,,,,,,,,,,,,,,,,,,,,,comedy,D_new,73,58,1104.0481877837906,None,1104.0481877837906,None,1104.0481877837906,None,1,1.311798843068118,1104.0481877837906,None,1105.414472849412,None,1105.414472849412,None,1105.9313786776138,None,1105.9313786776138,None,1105.9313786776138,None,n,1.412535920881055,1105.9313786776138,None,sing41,001,2019_Nov_18_1339,ProdFawcett_Revision2019,3.2.4,60.02015978506053,
,,,,74,0,74,0,,,,,,,,,,,,,1114.7173337687377,None,,,,,,,,,,,,,,,,,,,,,,raise,B_aloud,74,250,1107.8995204329167,None,1107.8995204329167,None,1107.8995204329167,None,3,5.8358188716797486,1107.8995204329167,None,1113.7870069042733,None,1113.7870069042733,None,1114.3005476768053,None,1114.3005476768053,None,1114.3005476768053,None,f,0.3787923741992927,1114.3005476768053,None,sing41,001,2019_Nov_18_1339,ProdFawcett_Revision2019,3.2.4,60.02015978506053,
,,,,75,0,75,0,,,,,,,,,,,,,1117.484965167631,None,,,,,,,,,,,,,,,,,,,,,,appeal,D_new,75,9,1115.2357784412516,None,1115.2357784412516,None,1115.2357784412516,None,1,1.2758089195745015,1115.2357784412516,None,1116.5580717795606,None,1116.5580717795606,None,1117.084712632954,None,1117.084712632954,None,1117.084712632954,None,n,0.3544464141318713,1117.084712632954,None,sing41,001,2019_Nov_18_1339,ProdFawcett_Revision2019,3.2.4,60.02015978506053,
,,,,76,0,76,0,,,,,,,,,,,,,1120.2756443988305,None,,,,,,,,,,,,,,,,,,,,,,owner,B_aloud,76,208,1118.001731044349,None,1118.001731044349,None,1118.001731044349,None,1,1.213353859550807,1118.001731044349,None,1119.2551993531129,None,1119.2551993531129,None,1119.7690638800773,None,1119.7690638800773,None,1119.7690638800773,None,n,0.477759221247652,1119.7690638800773,None,sing41,001,2019_Nov_18_1339,ProdFawcett_Revision2019,3.2.4,60.02015978506053,
,,,,77,0,77,0,,,,,,,,,,,,,1123.3533516825278,None,,,,,,,,,,,,,,,,,,,,,,course,D_new,77,74,1120.7891867263793,None,1120.7891867263793,None,1120.7891867263793,None,1,1.5619157803071175,1120.7891867263793,None,1122.403591777073,None,1122.403591777073,None,1122.9729480002488,None,1122.9729480002488,None,1122.9729480002488,None,n,0.34627666853293704,1122.9729480002488,None,sing41,001,2019_Nov_18_1339,ProdFawcett_Revision2019,3.2.4,60.02015978506053,
,,,,78,0,78,0,,,,,,,,,,,,,1126.4544548112208,None,,,,,,,,,,,,,,,,,,,,,,message,D_new,78,189,1123.8762197549295,None,1123.8762197549295,None,1123.8762197549295,None,1,1.4508863593955539,1123.8762197549295,None,1125.3717304223424,None,1125.3717304223424,None,1125.8875859924115,None,1125.8875859924115,None,1125.8875859924115,None,n,0.5273449648561837,1125.8875859924115,None,sing41,001,2019_Nov_18_1339,ProdFawcett_Revision2019,3.2.4,60.02015978506053,
,,,,79,0,79,0,,,,,,,,,,,,,1131.7727075947005,None,,,,,,,,,,,,,,,,,,,,,,audience,A_silent,79,14,1126.9725723082665,None,1126.9725723082665,None,1126.9725723082665,None,6,3.785799278472041,1126.9725723082665,None,1130.8226609442058,None,1130.8226609442058,None,1131.3225909684643,None,1131.3225909684643,None,1131.3225909684643,None,r,0.4037276855137861,1131.3225909684643,None,sing41,001,2019_Nov_18_1339,ProdFawcett_Revision2019,3.2.4,60.02015978506053,
,,,,80,0,80,0,,,,,,,,,,,,,1136.9271729800334,None,,,,,,,,,,,,,,,,,,,,,,interior,C_sing,80,164,1132.2900270572868,None,1132.2900270572868,None,1132.2900270572868,None,6,3.6603072712568974,1132.2900270572868,None,1135.9789665360454,None,1135.9789665360454,None,1136.5074068545127,None,1136.5074068545127,None,1136.5074068545127,None,r,0.3945338060584618,1136.5074068545127,None,sing41,001,2019_Nov_18_1339,ProdFawcett_Revision2019,3.2.4,60.02015978506053,
,,,,81,0,81,0,,,,,,,,,,,,,1141.327296137339,None,,,,,,,,,,,,,,,,,,,,,,music,D_new,81,196,1137.4419381725447,None,1137.4419381725447,None,1137.4419381725447,None,1,2.492123530509616,1137.4419381725447,None,1140.0790194066058,None,1140.0790194066058,None,1140.4921294395722,None,1140.4921294395722,None,1140.4921294395722,None,n,0.8176541021334742,1140.4921294395722,None,sing41,001,2019_Nov_18_1339,ProdFawcett_Revision2019,3.2.4,60.02015978506053,
,,,,82,0,82,0,,,,,,,,,,,,,1144.0098376562792,None,,,,,,,,,,,,,,,,,,,,,,relation,D_new,82,257,1141.8599222491757,None,1141.8599222491757,None,1141.8599222491757,None,1,1.0500705977483449,1141.8599222491757,None,1142.964926603222,None,1142.964926603222,None,1143.4933641226598,None,1143.4933641226598,None,1143.4933641226598,None,n,0.4727707283695963,1143.4933641226598,None,sing41,001,2019_Nov_18_1339,ProdFawcett_Revision2019,3.2.4,60.02015978506053,
,,,,83,0,83,0,,,,,,,,,,,,,1146.693848665796,None,,,,,,,,,,,,,,,,,,,,,,device,A_silent,83,93,1144.5266610686072,None,1144.5266610686072,None,1144.5266610686072,None,1,1.2233171611619582,1144.5266610686072,None,1145.7994843565343,None,1145.7994843565343,None,1146.3124164956148,None,1146.3124164956148,None,1146.3124164956148,None,n,0.34122348696928384,1146.3124164956148,None,sing41,001,2019_Nov_18_1339,ProdFawcett_Revision2019,3.2.4,60.02015978506053,
,,,,84,0,84,0,,,,,,,,,,,,,1149.7950024880265,None,,,,,,,,,,,,,,,,,,,,,,marriage,D_new,84,179,1147.2124917584124,None,1147.2124917584124,None,1147.2124917584124,None,1,1.3932120420477077,1147.2124917584124,None,1148.6502547116997,None,1148.6502547116997,None,1149.1779626174039,None,1149.1779626174039,None,1149.1779626174039,None,n,0.5713239410338247,1149.1779626174039,None,sing41,001,2019_Nov_18_1339,ProdFawcett_Revision2019,3.2.4,60.02015978506053,
,,,,85,0,85,0,,,,,,,,,,,,,1155.3470153013623,None,,,,,,,,,,,,,,,,,,,,,,debate,A_silent,85,87,1150.4019680288611,None,1150.4019680288611,None,1150.4019680288611,None,3,3.8275181936928675,1150.4019680288611,None,1154.269036511787,None,1154.269036511787,None,1154.7964623375005,None,1154.7964623375005,None,1154.7964623375005,None,f,0.5044961746593799,1154.7964623375005,None,sing41,001,2019_Nov_18_1339,ProdFawcett_Revision2019,3.2.4,60.02015978506053,
,,,,86,0,86,0,,,,,,,,,,,,,1158.847801517696,None,,,,,,,,,,,,,,,,,,,,,,generation,B_aloud,86,136,1155.8653688499098,None,1155.8653688499098,None,1155.8653688499098,None,6,1.6194165578153843,1155.8653688499098,None,1157.5352475586242,None,1157.5352475586242,None,1158.0474933134292,None,1158.0474933134292,None,1158.0474933134292,None,r,0.7653203333952661,1158.0474933134292,None,sing41,001,2019_Nov_18_1339,ProdFawcett_Revision2019,3.2.4,60.02015978506053,
,,,,87,0,87,0,,,,,,,,,,,,,1161.7818955650928,None,,,,,,,,,,,,,,,,,,,,,,light,D_new,87,171,1159.3646700255022,None,1159.3646700255022,None,1159.3646700255022,None,1,1.2164138209864177,1159.3646700255022,None,1160.6193021086024,None,1160.6193021086024,None,1161.1485955091125,None,1161.1485955091125,None,1161.1485955091125,None,n,0.6002991851714796,1161.1485955091125,None,sing41,001,2019_Nov_18_1339,ProdFawcett_Revision2019,3.2.4,60.02015978506053,
,,,,88,0,88,0,,,,,,,,,,,,,1166.1833921129564,None,,,,,,,,,,,,,,,,,,,,,,subject,D_new,88,312,1162.2995403371274,None,1162.2995403371274,None,1162.2995403371274,None,3,2.9611040617028266,1162.2995403371274,None,1165.3030161099705,None,1165.3030161099705,None,1165.8164803756918,None,1165.8164803756918,None,1165.8164803756918,None,f,0.332256328917083,1165.8164803756918,None,sing41,001,2019_Nov_18_1339,ProdFawcett_Revision2019,3.2.4,60.02015978506053,
,,,,89,0,89,0,,,,,,,,,,,,,1168.9176637432356,None,,,,,,,,,,,,,,,,,,,,,,death,D_new,89,86,1166.7018594887104,None,1166.7018594887104,None,1166.7018594887104,None,1,1.1104077253221476,1166.7018594887104,None,1167.8672569509235,None,1167.8672569509235,None,1168.3839587609627,None,1168.3839587609627,None,1168.3839587609627,None,n,0.4925032655346513,1168.3839587609627,None,sing41,001,2019_Nov_18_1339,ProdFawcett_Revision2019,3.2.4,60.02015978506053,
,,,,90,0,90,0,,,,,,,,,,,,,1172.5023387447904,None,,,,,,,,,,,,,,,,,,,,,,grade,A_silent,90,140,1169.4342595011508,None,1169.4342595011508,None,1169.4342595011508,None,1,2.042428935746557,1169.4342595011508,None,1171.5184045530882,None,1171.5184045530882,None,1172.0350979660384,None,1172.0350979660384,None,1172.0350979660384,None,n,0.43331094109589685,1172.0350979660384,None,sing41,001,2019_Nov_18_1339,ProdFawcett_Revision2019,3.2.4,60.02015978506053,
,,,,91,0,91,0,,,,,,,,,,,,,1175.5696659824594,None,,,,,,,,,,,,,,,,,,,,,,guard,B_aloud,91,145,1173.0194184238353,None,1173.0194184238353,None,1173.0194184238353,None,1,1.6411556882503646,1173.0194184238353,None,1174.7064819307084,None,1174.7064819307084,None,1175.2193667972879,None,1175.2193667972879,None,1175.2193667972879,None,n,0.3125178826899173,1175.2193667972879,None,sing41,001,2019_Nov_18_1339,ProdFawcett_Revision2019,3.2.4,60.02015978506053,
,,,,92,0,92,0,,,,,,,,,,,,,1178.3370386266092,None,,,,,,,,,,,,,,,,,,,,,,society,D_new,92,293,1176.0873897493311,None,1176.0873897493311,None,1176.0873897493311,None,1,1.2362884866579407,1176.0873897493311,None,1177.3753579647941,None,1177.3753579647941,None,1177.886876904895,None,1177.886876904895,None,1177.886876904895,None,n,0.40475679542214493,1177.886876904895,None,sing41,001,2019_Nov_18_1339,ProdFawcett_Revision2019,3.2.4,60.02015978506053,
,,,,93,0,93,0,,,,,,,,,,,,,1182.5716968339862,None,,,,,,,,,,,,,,,,,,,,,,balance,B_aloud,93,17,1178.854447658145,None,1178.854447658145,None,1178.854447658145,None,6,1.5094066057099553,1178.854447658145,None,1180.421177769484,None,1180.421177769484,None,1180.938015176961,None,1180.938015176961,None,1180.938015176961,None,r,1.5935460595878794,1180.938015176961,None,sing41,001,2019_Nov_18_1339,ProdFawcett_Revision2019,3.2.4,60.02015978506053,
,,,,94,0,94,0,,,,,,,,,,,,,1185.4401272003483,None,,,,,,,,,,,,,,,,,,,,,,conference,D_new,94,66,1183.0904497107667,None,1183.0904497107667,None,1183.0904497107667,None,1,1.3128889096224157,1183.0904497107667,None,1184.438938856752,None,1184.438938856752,None,1184.9399483734528,None,1184.9399483734528,None,1184.9399483734528,None,n,0.4718691298126032,1184.9399483734528,None,sing41,001,2019_Nov_18_1339,ProdFawcett_Revision2019,3.2.4,60.02015978506053,
,,,,95,0,95,0,,,,,,,,,,,,,1188.2761230329043,None,,,,,,,,,,,,,,,,,,,,,,trail,A_silent,95,336,1185.941738197425,None,1185.941738197425,None,1185.941738197425,None,1,1.2136748149528103,1185.941738197425,None,1187.1958720532439,None,1187.1958720532439,None,1187.7233977110159,None,1187.7233977110159,None,1187.7233977110159,None,n,0.527528145798442,1187.7233977110159,None,sing41,001,2019_Nov_18_1339,ProdFawcett_Revision2019,3.2.4,60.02015978506053,
,,,,96,0,96,0,,,,,,,,,,,,,1191.5077676183369,None,,,,,,,,,,,,,,,,,,,,,,bureau,C_sing,96,37,1188.7959774833612,None,1188.7959774833612,None,1188.7959774833612,None,6,1.374946818436456,1188.7959774833612,None,1190.2076939105555,None,1190.2076939105555,None,1190.724361510232,None,1190.724361510232,None,1190.724361510232,None,r,0.7504941842385051,1190.724361510232,None,sing41,001,2019_Nov_18_1339,ProdFawcett_Revision2019,3.2.4,60.02015978506053,
,,,,97,0,97,0,,,,,,,,,,,,,1194.2086057722213,None,,,,,,,,,,,,,,,,,,,,,,series,D_new,97,279,1192.024561796355,None,1192.024561796355,None,1192.024561796355,None,1,1.1221872861851807,1192.024561796355,None,1193.1974395098587,None,1193.1974395098587,None,1193.7146047148099,None,1193.7146047148099,None,1193.7146047148099,None,n,0.4481038129006265,1193.7146047148099,None,sing41,001,2019_Nov_18_1339,ProdFawcett_Revision2019,3.2.4,60.02015978506053,
,,,,98,0,98,0,,,,,,,,,,,,,1197.9931240281148,None,,,,,,,,,,,,,,,,,,,,,,voice,B_aloud,98,348,1194.7254559308326,None,1194.7254559308326,None,1194.7254559308326,None,6,2.1258397089009122,1194.7254559308326,None,1196.9094576102507,None,1196.9094576102507,None,1197.4263012377933,None,1197.4263012377933,None,1197.4263012377933,None,r,0.5201878459911313,1197.4263012377933,None,sing41,001,2019_Nov_18_1339,ProdFawcett_Revision2019,3.2.4,60.02015978506053,
,,,,99,0,99,0,,,,,,,,,,,,,1200.8273580269952,None,,,,,,,,,,,,,,,,,,,,,,thick,B_aloud,99,327,1198.5104537538095,None,1198.5104537538095,None,1198.5104537538095,None,6,1.2518647757665349,1198.5104537538095,None,1199.8140557939914,None,1199.8140557939914,None,1200.3273337687378,None,1200.3273337687378,None,1200.3273337687378,None,r,0.4510070286746668,1200.3273337687378,None,sing41,001,2019_Nov_18_1339,ProdFawcett_Revision2019,3.2.4,60.02015978506053,
,,,,100,0,100,0,,,,,,,,,,,,,1204.0953495677054,None,,,,,,,,,,,,,,,,,,,,,,cousin,B_aloud,100,76,1201.3443444050508,None,1201.3443444050508,None,1201.3443444050508,None,1,1.634105243515478,1201.3443444050508,None,1203.0114520743919,None,1203.0114520743919,None,1203.5283115631023,None,1203.5283115631023,None,1203.5283115631023,None,n,0.5299751197362639,1203.5283115631023,None,sing41,001,2019_Nov_18_1339,ProdFawcett_Revision2019,3.2.4,60.02015978506053,
,,,,101,0,101,0,,,,,,,,,,,,,1207.145946694035,None,,,,,,,,,,,,,,,,,,,,,,plane,C_sing,101,223,1204.6125626671642,None,1204.6125626671642,None,1204.6125626671642,None,1,1.6215652795917777,1204.6125626671642,None,1206.2859379859424,None,1206.2859379859424,None,1206.812616159731,None,1206.812616159731,None,1206.812616159731,None,n,0.29373452758591156,1206.812616159731,None,sing41,001,2019_Nov_18_1339,ProdFawcett_Revision2019,3.2.4,60.02015978506053,
,,,,102,0,102,0,,,,,,,,,,,,,1209.7470846550973,None,,,,,,,,,,,,,,,,,,,,,,brilliant,D_new,102,30,1207.6515792747405,None,1207.6515792747405,None,1207.6515792747405,None,1,0.902999004789308,1207.6515792747405,None,1208.601987622069,None,1208.601987622069,None,1209.1133327113266,None,1209.1133327113266,None,1209.1133327113266,None,n,0.5929066368103122,1209.1133327113266,None,sing41,001,2019_Nov_18_1339,ProdFawcett_Revision2019,3.2.4,60.02015978506053,
,,,,103,0,103,0,,,,,,,,,,,,,1215.4485168252781,None,,,,,,,,,,,,,,,,,,,,,,bitter,C_sing,103,23,1210.2636847670583,None,1210.2636847670583,None,1210.2636847670583,None,3,4.097737140013578,1210.2636847670583,None,1214.3987961062385,None,1214.3987961062385,None,1214.9150827268768,None,1214.9150827268768,None,1214.9150827268768,None,f,0.48639920383175195,1214.9150827268768,None,sing41,001,2019_Nov_18_1339,ProdFawcett_Revision2019,3.2.4,60.02015978506053,
,,,,104,0,104,0,,,,,,,,,,,,,1220.2687814890837,None,,,,,,,,,,,,,,,,,,,,,,private,A_silent,104,237,1215.9653623188406,None,1215.9653623188406,None,1215.9653623188406,None,1,3.403890340237467,1215.9653623188406,None,1219.4354792560803,None,1219.4354792560803,None,1219.9500612676493,None,1219.9500612676493,None,1219.9500612676493,None,n,0.29169807799962655,1219.9500612676493,None,sing41,001,2019_Nov_18_1339,ProdFawcett_Revision2019,3.2.4,60.02015978506053,
,,,,105,0,105,0,,,,,,,,,,,,,1223.184232443864,None,,,,,,,,,,,,,,,,,,,,,,business,B_aloud,105,38,1220.788423213286,None,1220.788423213286,None,1220.788423213286,None,6,1.3246905517198684,1220.788423213286,None,1222.1572286496234,None,1222.1572286496234,None,1222.6841391428748,None,1222.6841391428748,None,1222.6841391428748,None,r,0.45289233065886947,1222.6841391428748,None,sing41,001,2019_Nov_18_1339,ProdFawcett_Revision2019,3.2.4,60.02015978506053,
,,,,106,0,106,0,,,,,,,,,,,,,1227.635749517945,None,,,,,,,,,,,,,,,,,,,,,,drama,A_silent,106,103,1223.6856518629097,None,1223.6856518629097,None,1223.6856518629097,None,3,2.93128724264443,1223.6856518629097,None,1226.6395593083284,None,1226.6395593083284,None,1227.1695894756485,None,1227.1695894756485,None,1227.1695894756485,None,f,0.42388785221146463,1227.1695894756485,None,sing41,001,2019_Nov_18_1339,ProdFawcett_Revision2019,3.2.4,60.02015978506053,
,,,,107,0,107,0,,,,,,,,,,,,,1230.553401132052,None,,,,,,,,,,,,,,,,,,,,,,block,B_aloud,107,25,1228.1525996765563,None,1228.1525996765563,None,1228.1525996765563,None,6,1.2961364060461165,1228.1525996765563,None,1229.4927962306401,None,1229.4927962306401,None,1230.019874043665,None,1230.019874043665,None,1230.019874043665,None,r,0.5007376998196378,1230.019874043665,None,sing41,001,2019_Nov_18_1339,ProdFawcett_Revision2019,3.2.4,60.02015978506053,
,,,,108,0,108,0,,,,,,,,,,,,,1233.9043444050508,None,,,,,,,,,,,,,,,,,,,,,,comfort,D_new,108,59,1231.071081980469,None,1231.071081980469,None,1231.071081980469,None,1,1.9294632083101533,1231.071081980469,None,1233.0542986875662,None,1233.0542986875662,None,1233.5708596131117,None,1233.5708596131117,None,1233.5708596131117,None,n,0.2938527088385854,1233.5708596131117,None,sing41,001,2019_Nov_18_1339,ProdFawcett_Revision2019,3.2.4,60.02015978506053,
,,,,109,0,109,0,,,,,,,,,,,,,1236.6553433476392,None,,,,,,,,,,,,,,,,,,,,,,finish,D_new,109,130,1234.4213814766435,None,1234.4213814766435,None,1234.4213814766435,None,1,1.243169434595984,1234.4213814766435,None,1235.7216293462711,None,1235.7216293462711,None,1236.2382456304035,None,1236.2382456304035,None,1236.2382456304035,None,n,0.39387510107599155,1236.2382456304035,None,sing41,001,2019_Nov_18_1339,ProdFawcett_Revision2019,3.2.4,60.02015978506053,
,,,,110,0,110,0,,,,,,,,,,,,,1239.72282359893,None,,,,,,,,,,,,,,,,,,,,,,region,C_sing,110,256,1237.1734026870686,None,1237.1734026870686,None,1237.1734026870686,None,6,1.3234714187969985,1237.1734026870686,None,1238.5434919450145,None,1238.5434919450145,None,1239.0557647571063,None,1239.0557647571063,None,1239.0557647571063,None,r,0.6325685762267312,1239.0557647571063,None,sing41,001,2019_Nov_18_1339,ProdFawcett_Revision2019,3.2.4,60.02015978506053,
,,,,111,0,111,0,,,,,,,,,,,,,1242.5401996641162,None,,,,,,,,,,,,,,,,,,,,,,report,C_sing,111,259,1240.2396902407163,None,1240.2396902407163,None,1240.2396902407163,None,1,1.2963491323012022,1240.2396902407163,None,1241.5774581700566,None,1241.5774581700566,None,1242.0901160042295,None,1242.0901160042295,None,1242.0901160042295,None,n,0.4064931268271721,1242.0901160042295,None,sing41,001,2019_Nov_18_1339,ProdFawcett_Revision2019,3.2.4,60.02015978506053,
,,,,112,0,112,0,,,,,,,,,,,,,1245.4078422591278,None,,,,,,,,,,,,,,,,,,,,,,judge,D_new,112,166,1243.114635193133,None,1243.114635193133,None,1243.114635193133,None,1,1.2695453131805152,1243.114635193133,None,1244.4409386079492,None,1244.4409386079492,None,1244.9602991851712,None,1244.9602991851712,None,1244.9602991851712,None,n,0.40780773776168644,1244.9602991851712,None,sing41,001,2019_Nov_18_1339,ProdFawcett_Revision2019,3.2.4,60.02015978506053,
,,,,113,0,113,0,,,,,,,,,,,,,1250.1592790943582,None,,,,,,,,,,,,,,,,,,,,,,salary,A_silent,113,271,1245.9158496610062,None,1245.9158496610062,None,1245.9158496610062,None,4,3.0760822914721757,1245.9158496610062,None,1249.0423822852522,None,1249.0423822852522,None,1249.55909622442,None,1249.55909622442,None,1249.55909622442,None,f,0.5523698451202108,1249.55909622442,None,sing41,001,2019_Nov_18_1339,ProdFawcett_Revision2019,3.2.4,60.02015978506053,
,,,,114,0,114,0,,,,,,,,,,,,,1255.5609893014866,None,,,,,,,,,,,,,,,,,,,,,,public,B_aloud,114,244,1250.6774317347763,None,1250.6774317347763,None,1250.6774317347763,None,1,4.2016915469307605,1250.6774317347763,None,1254.930944517012,None,1254.930944517012,None,1255.4443465820736,None,1255.4443465820736,None,1255.4443465820736,None,n,0.08318653977721624,1255.4443465820736,None,sing41,001,2019_Nov_18_1339,ProdFawcett_Revision2019,3.2.4,60.02015978506053,
,,,,115,0,115,0,,,,,,,,,,,,,1258.412410275549,None,,,,,,,,,,,,,,,,,,,,,,sweet,D_new,115,319,1256.0782689556509,None,1256.0782689556509,None,1256.0782689556509,None,1,1.0967842259128702,1256.0782689556509,None,1257.2125869254214,None,1257.2125869254214,None,1257.7284188592398,None,1257.7284188592398,None,1257.7284188592398,None,n,0.6466980779996447,1257.7284188592398,None,sing41,001,2019_Nov_18_1339,ProdFawcett_Revision2019,3.2.4,60.02015978506053,
,,,,116,0,116,0,,,,,,,,,,,,,1262.2796942837595,None,,,,,,,,,,,,,,,,,,,,,,volume,A_silent,116,349,1258.9315239161533,None,1258.9315239161533,None,1258.9315239161533,None,3,2.340053492566767,1258.9315239161533,None,1261.3294936866332,None,1261.3294936866332,None,1261.8463435342414,None,1261.8463435342414,None,1261.8463435342414,None,f,0.38444019406597363,1261.8463435342414,None,sing41,001,2019_Nov_18_1339,ProdFawcett_Revision2019,3.2.4,60.02015978506053,
,,,,117,0,117,0,,,,,,,,,,,,,1265.049278783355,None,,,,,,,,,,,,,,,,,,,,,,husband,D_new,117,156,1262.7967257572932,None,1262.7967257572932,None,1262.7967257572932,None,1,1.2906108104743907,1262.7967257572932,None,1264.1470271194876,None,1264.1470271194876,None,1264.6639046463893,None,1264.6639046463893,None,1264.6639046463893,None,n,0.3588978043167117,1264.6639046463893,None,sing41,001,2019_Nov_18_1339,ProdFawcett_Revision2019,3.2.4,60.02015978506053,
,,,,118,0,118,0,,,,,,,,,,,,,1267.9151766498726,None,,,,,,,,,,,,,,,,,,,,,,defeat,D_new,118,88,1265.5812076258007,None,1265.5812076258007,None,1265.5812076258007,None,1,1.3692619891771756,1265.5812076258007,None,1266.9979694594763,None,1266.9979694594763,None,1267.50070566648,None,1267.50070566648,None,1267.50070566648,None,n,0.37028114698023273,1267.50070566648,None,sing41,001,2019_Nov_18_1339,ProdFawcett_Revision2019,3.2.4,60.02015978506053,
,,,,119,0,119,0,,,,,,,,,,,,,1271.999461031287,None,,,,,,,,,,,,,,,,,,,,,,charter,D_new,119,47,1268.4316290352676,None,1268.4316290352676,None,1268.4316290352676,None,1,2.6466716427194115,1268.4316290352676,None,1271.1158347328483,None,1271.1158347328483,None,1271.6166374323566,None,1271.6166374323566,None,1271.6166374323566,None,n,0.3335855570066997,1271.6166374323566,None,sing41,001,2019_Nov_18_1339,ProdFawcett_Revision2019,3.2.4,60.02015978506053,
,,,,120,0,120,0,,,,,,,,,,,,,1275.067179822106,None,,,,,,,,,,,,,,,,,,,,,,account,D_new,120,1,1272.5165587485226,None,1272.5165587485226,None,1272.5165587485226,None,1,1.2497763886294706,1272.5165587485226,None,1273.800490763202,None,1273.800490763202,None,1274.3171229085028,None,1274.3171229085028,None,1274.3171229085028,None,n,0.712938359146392,1274.3171229085028,None,sing41,001,2019_Nov_18_1339,ProdFawcett_Revision2019,3.2.4,60.02015978506053,
,,,,121,0,121,0,,,,,,,,,,,,,1278.1513121229086,None,,,,,,,,,,,,,,,,,,,,,,silence,D_new,121,288,1275.583947253841,None,1275.583947253841,None,1275.583947253841,None,1,1.3820249424643407,1275.583947253841,None,1277.0176478820676,None,1277.0176478820676,None,1277.534554643279,None,1277.534554643279,None,1277.534554643279,None,n,0.5674357778193553,1277.534554643279,None,sing41,001,2019_Nov_18_1339,ProdFawcett_Revision2019,3.2.4,60.02015978506053,
,,,,122,0,122,0,,,,,,,,,,,,,1281.9901558126517,None,,,,,,,,,,,,,,,,,,,,,,company,A_silent,122,64,1278.6684770168563,None,1278.6684770168563,None,1278.6684770168563,None,6,1.4494787584749247,1278.6684770168563,None,1280.13971885302,None,1280.13971885302,None,1280.6687056042792,None,1280.6687056042792,None,1280.6687056042792,None,r,1.2968081731664824,1280.6687056042792,None,sing41,001,2019_Nov_18_1339,ProdFawcett_Revision2019,3.2.4,60.02015978506053,
,,,,123,0,123,0,,,,,,,,,,,,,1284.636748771537,None,,,,,,,,,,,,,,,,,,,,,,passage,B_aloud,123,212,1282.520823225726,None,1282.520823225726,None,1282.520823225726,None,1,1.2287475897242075,1282.520823225726,None,1283.791984512036,None,1283.791984512036,None,1284.3036418486035,None,1284.3036418486035,None,1284.3036418486035,None,n,0.2942803383716637,1284.3036418486035,None,sing41,001,2019_Nov_18_1339,ProdFawcett_Revision2019,3.2.4,60.02015978506053,
,,,,124,0,124,0,,,,,,,,,,,,,1288.4379657274367,None,,,,,,,,,,,,,,,,,,,,,,fashion,D_new,124,125,1285.1535519686508,None,1285.1535519686508,None,1285.1535519686508,None,1,2.4120420476456275,1285.1535519686508,None,1287.6108406419107,None,1287.6108406419107,None,1288.1376730733346,None,1288.1376730733346,None,1288.1376730733346,None,n,0.2675993655534512,1288.1376730733346,None,sing41,001,2019_Nov_18_1339,ProdFawcett_Revision2019,3.2.4,60.02015978506053,
,,,,125,0,125,0,,,,,,,,,,,,,1290.9896143559122,None,,,,,,,,,,,,,,,,,,,,,,tragedy,D_new,125,335,1288.9409796603845,None,1288.9409796603845,None,1288.9409796603845,None,1,1.1442228027617602,1288.9409796603845,None,1290.1115270261862,None,1290.1115270261862,None,1290.6557439198855,None,1290.6557439198855,None,1290.6557439198855,None,n,0.30119207563620876,1290.6557439198855,None,sing41,001,2019_Nov_18_1339,ProdFawcett_Revision2019,3.2.4,60.02015978506053,
,,,,126,0,126,0,,,,,,,,,,,,,1293.539405361697,None,,,,,,,,,,,,,,,,,,,,,,mayor,D_new,126,183,1291.4899306462648,None,1291.4899306462648,None,1291.4899306462648,None,1,1.1236729489332902,1291.4899306462648,None,1292.6438978043166,None,1292.6438978043166,None,1293.156413509983,None,1293.156413509983,None,1293.156413509983,None,n,0.33657118865448865,1293.156413509983,None,sing41,001,2019_Nov_18_1339,ProdFawcett_Revision2019,3.2.4,60.02015978506053,
,,,,127,0,127,0,,,,,,,,,,,,,1297.89338962493,None,,,,,,,,,,,,,,,,,,,,,,object,C_sing,127,204,1294.062983765628,None,1294.062983765628,None,1294.062983765628,None,4,2.845713441562566,1294.062983765628,None,1296.9635883560363,None,1296.9635883560363,None,1297.49528207999,None,1297.49528207999,None,1297.49528207999,None,f,0.3732720656839774,1297.49528207999,None,sing41,001,2019_Nov_18_1339,ProdFawcett_Revision2019,3.2.4,60.02015978506053,
,,,,128,0,128,0,,,,,,,,,,,,,1301.9921627169247,None,,,,,,,,,,,,,,,,,,,,,,beginning,D_new,128,19,1298.4246339491197,None,1298.4246339491197,None,1298.4246339491197,None,1,2.7718647757665167,1298.4246339491197,None,1301.2950603346394,None,1301.2950603346394,None,1301.7756210735834,None,1301.7756210735834,None,1301.7756210735834,None,n,0.18104777010648831,1301.7756210735834,None,sing41,001,2019_Nov_18_1339,ProdFawcett_Revision2019,3.2.4,60.02015978506053,
,,,,129,0,129,0,,,,,,,,,,,,,1304.7098951918888,None,,,,,,,,,,,,,,,,,,,,,,mechanical,A_silent,129,185,1302.5102323194624,None,1302.5102323194624,None,1302.5102323194624,None,1,1.3021076693412397,1302.5102323194624,None,1303.8637774460408,None,1303.8637774460408,None,1304.3926690302915,None,1304.3926690302915,None,1304.3926690302915,None,n,0.27627604652616355,1304.3926690302915,None,sing41,001,2019_Nov_18_1339,ProdFawcett_Revision2019,3.2.4,60.02015978506053,
,,,,130,0,130,0,,,,,,,,,,,,,1307.4107644461033,None,,,,,,,,,,,,,,,,,,,,,,graduate,D_new,130,141,1305.293554145674,None,1305.293554145674,None,1305.293554145674,None,1,1.2307408098527048,1305.293554145674,None,1306.5601327984077,None,1306.5601327984077,None,1307.067010014306,None,1307.067010014306,None,1307.067010014306,None,n,0.3054749020343479,1307.067010014306,None,sing41,001,2019_Nov_18_1339,ProdFawcett_Revision2019,3.2.4,60.02015978506053,
,,,,131,0,131,0,,,,,,,,,,,,,1311.0122270946072,None,,,,,,,,,,,,,,,,,,,,,,employment,A_silent,131,111,1307.9280608944455,None,1307.9280608944455,None,1307.9280608944455,None,6,2.3165167630777432,1307.9280608944455,None,1310.2846395471793,None,1310.2846395471793,None,1310.8122252285875,None,1310.8122252285875,None,1310.8122252285875,None,r,0.15176027865891228,1310.8122252285875,None,sing41,001,2019_Nov_18_1339,ProdFawcett_Revision2019,3.2.4,60.02015978506053,
,,,,132,0,132,0,,,,,,,,,,,,,1313.8624236486908,None,,,,,,,,,,,,,,,,,,,,,,figure,B_aloud,132,128,1311.5293972756112,None,1311.5293972756112,None,1311.5293972756112,None,1,1.707113267400473,1311.5293972756112,None,1313.362438887852,None,1313.362438887852,None,1313.812300491385,None,1313.812300491385,None,1313.812300491385,None,n,0.015803943521859765,1313.812300491385,None,sing41,001,2019_Nov_18_1339,ProdFawcett_Revision2019,3.2.4,60.02015978506053,
,,,,133,0,133,0,,,,,,,,,,,,,1316.6965351122722,None,,,,,,,,,,,,,,,,,,,,,,provision,B_aloud,133,243,1314.3801346644273,None,1314.3801346644273,None,1314.3801346644273,None,6,1.5355206195185929,1314.3801346644273,None,1315.964538782111,None,1315.964538782111,None,1316.4797636374947,None,1316.4797636374947,None,1316.4797636374947,None,r,0.1799017229582205,1316.4797636374947,None,sing41,001,2019_Nov_18_1339,ProdFawcett_Revision2019,3.2.4,60.02015978506053,
,,,,134,0,134,0,,,,,,,,,,,,,1319.14960564782,None,,,,,,,,,,,,,,,,,,,,,,growth,D_new,134,144,1317.2134110841575,None,1317.2134110841575,None,1317.2134110841575,None,1,1.326227219008615,1317.2134110841575,None,1318.5824992224916,None,1318.5824992224916,None,1319.0974472849412,None,1319.0974472849412,None,1319.0974472849412,None,n,0.03389656030367405,1319.0974472849412,None,sing41,001,2019_Nov_18_1339,ProdFawcett_Revision2019,3.2.4,60.02015978506053,
,,,,135,0,135,0,,,,,,,,,,,,,1324.9350438514648,None,,,,,,,,,,,,,,,,,,,,,,republic,D_new,135,260,1319.6813136779251,None,1319.6813136779251,None,1319.6813136779251,None,6,4.201708652111847,1319.6813136779251,None,1323.9203330845307,None,1323.9203330845307,None,1324.4325231697458,None,1324.4325231697458,None,1324.4325231697458,None,f,0.4752335634757401,1324.4325231697458,None,sing41,001,2019_Nov_18_1339,ProdFawcett_Revision2019,3.2.4,60.02015978506053,
,,,,136,0,136,0,,,,,,,,,,,,,1327.4332269702059,None,,,,,,,,,,,,,,,,,,,,,,little,A_silent,136,174,1325.4660838464888,None,1325.4660838464888,None,1325.4660838464888,None,1,1.1288309386077344,1325.4660838464888,None,1326.633310008086,None,1326.633310008086,None,1327.1354873421656,None,1327.1354873421656,None,1327.1354873421656,None,n,0.25152951421296166,1327.1354873421656,None,sing41,001,2019_Nov_18_1339,ProdFawcett_Revision2019,3.2.4,60.02015978506053,
,,,,137,0,137,0,,,,,,,,,,,,,1332.584926603222,None,,,,,,,,,,,,,,,,,,,,,,route,D_new,137,267,1327.9500255022704,None,1327.9500255022704,None,1327.9500255022704,None,1,2.468773091994535,1327.9500255022704,None,1330.4721023822854,None,1330.4721023822854,None,1331.001202649748,None,1331.001202649748,None,1331.001202649748,None,n,1.545493562231968,1331.001202649748,None,sing41,001,2019_Nov_18_1339,ProdFawcett_Revision2019,3.2.4,60.02015978506053,
,,,,138,0,138,0,,,,,,,,,,,,,1336.8199856938481,None,,,,,,,,,,,,,,,,,,,,,,election,A_silent,138,109,1333.1033510605212,None,1333.1033510605212,None,1333.1033510605212,None,1,2.747426758724032,1333.1033510605212,None,1335.9025464949927,None,1335.9025464949927,None,1336.402871804441,None,1336.402871804441,None,1336.402871804441,None,n,0.37614822417117466,1336.402871804441,None,sing41,001,2019_Nov_18_1339,ProdFawcett_Revision2019,3.2.4,60.02015978506053,
,,,,139,0,139,0,,,,,,,,,,,,,1342.4545876096286,None,,,,,,,,,,,,,,,,,,,,,,match,C_sing,139,181,1337.3364026248678,None,1337.3364026248678,None,1337.3364026248678,None,3,4.177946445232465,1337.3364026248678,None,1341.5713027928095,None,1341.5713027928095,None,1342.087830752006,None,1342.087830752006,None,1342.087830752006,None,f,0.33030447222699877,1342.087830752006,None,sing41,001,2019_Nov_18_1339,ProdFawcett_Revision2019,3.2.4,60.02015978506053,
,,,,140,0,140,0,,,,,,,,,,,,,1344.8555321266404,None,,,,,,,,,,,,,,,,,,,,,,agency,D_new,140,4,1342.9721711140137,None,1342.9721711140137,None,1342.9721711140137,None,1,1.029851340424102,1342.9721711140137,None,1344.0927688623497,None,1344.0927688623497,None,1344.559054549978,None,1344.559054549978,None,1344.559054549978,None,n,0.2588987373269447,1344.559054549978,None,sing41,001,2019_Nov_18_1339,ProdFawcett_Revision2019,3.2.4,60.02015978506053,
,,,,141,0,141,0,,,,,,,,,,,,,1347.893895005287,None,,,,,,,,,,,,,,,,,,,,,,solution,B_aloud,141,294,1345.3730341481619,None,1345.3730341481619,None,1345.3730341481619,None,6,1.5575508490392167,1345.3730341481619,None,1346.9798970579086,None,1346.9798970579086,None,1347.5059976985754,None,1347.5059976985754,None,1347.5059976985754,None,r,0.3516747527523876,1347.5059976985754,None,sing41,001,2019_Nov_18_1339,ProdFawcett_Revision2019,3.2.4,60.02015978506053,
,,,,142,0,142,0,,,,,,,,,,,,,1351.4573250606454,None,,,,,,,,,,,,,,,,,,,,,,listen,C_sing,142,172,1348.410014617155,None,1348.410014617155,None,1348.410014617155,None,1,2.2476939105554266,1348.410014617155,None,1350.679662561423,None,1350.679662561423,None,1351.2074373328355,None,1351.2074373328355,None,1351.2074373328355,None,n,0.21050506935353042,1351.2074373328355,None,sing41,001,2019_Nov_18_1339,ProdFawcett_Revision2019,3.2.4,60.02015978506053,
,,,,143,0,143,0,,,,,,,,,,,,,1354.1082614915717,None,,,,,,,,,,,,,,,,,,,,,,drink,D_new,143,105,1351.974043042856,None,1351.974043042856,None,1351.974043042856,None,1,1.1476438390245676,1351.974043042856,None,1353.1578282639794,None,1353.1578282639794,None,1353.6748612925298,None,1353.6748612925298,None,1353.6748612925298,None,n,0.3987743360080458,1353.6748612925298,None,sing41,001,2019_Nov_18_1339,ProdFawcett_Revision2019,3.2.4,60.02015978506053,
,,,,144,0,144,0,,,,,,,,,,,,,1357.2776326429062,None,,,,,,,,,,,,,,,,,,,,,,addition,D_new,144,2,1354.6095331840515,None,1354.6095331840515,None,1354.6095331840515,None,1,1.7197001928220743,1354.6095331840515,None,1356.3923813522424,None,1356.3923813522424,None,1356.9124220936742,None,1356.9124220936742,None,1356.9124220936742,None,n,0.3449038999815457,1356.9124220936742,None,sing41,001,2019_Nov_18_1339,ProdFawcett_Revision2019,3.2.4,60.02015978506053,
,,,,145,0,145,0,,,,,,,,,,,,,1360.1443120607078,None,,,,,,,,,,,,,,,,,,,,,,sight,D_new,145,286,1357.8095499782298,None,1357.8095499782298,None,1357.8095499782298,None,1,1.135612054487865,1357.8095499782298,None,1358.9978997947378,None,1358.9978997947378,None,1359.5264884617777,None,1359.5264884617777,None,1359.5264884617777,None,n,0.594619642968155,1359.5264884617777,None,sing41,001,2019_Nov_18_1339,ProdFawcett_Revision2019,3.2.4,60.02015978506053,
,,,,146,0,146,0,,,,,,,,,,,,,1364.697489270386,None,,,,,,,,,,,,,,,,,,,,,,travel,C_sing,146,338,1360.6468691298128,None,1360.6468691298128,None,1360.6468691298128,None,1,3.114511102817687,1360.6468691298128,None,1363.8001508365987,None,1363.8001508365987,None,1364.3279588853643,None,1364.3279588853643,None,1364.3279588853643,None,n,0.3449754307398507,1364.3279588853643,None,sing41,001,2019_Nov_18_1339,ProdFawcett_Revision2019,3.2.4,60.02015978506053,
,,,,147,0,147,0,,,,,,,,,,,,,1368.1483787398147,None,,,,,,,,,,,,,,,,,,,,,,still,D_new,147,304,1365.228685389065,None,1365.228685389065,None,1365.228685389065,None,1,1.8678497232072004,1365.228685389065,None,1367.1164408782734,None,1367.1164408782734,None,1367.6456960253777,None,1367.6456960253777,None,1367.6456960253777,None,n,0.4752422715682769,1367.6456960253777,None,sing41,001,2019_Nov_18_1339,ProdFawcett_Revision2019,3.2.4,60.02015978506053,
,,,,148,0,148,0,,,,,,,,,,,,,1371.0801620327175,None,,,,,,,,,,,,,,,,,,,,,,victory,D_new,148,346,1368.6798494744044,None,1368.6798494744044,None,1368.6798494744044,None,1,1.3610636312741917,1368.6798494744044,None,1370.0965114760215,None,1370.0965114760215,None,1370.6132804627728,None,1370.6132804627728,None,1370.6132804627728,None,n,0.4433485724948696,1370.6132804627728,None,sing41,001,2019_Nov_18_1339,ProdFawcett_Revision2019,3.2.4,60.02015978506053,
,,,,149,0,149,0,,,,,,,,,,,,,1375.0817033650555,None,,,,,,,,,,,,,,,,,,,,,,quantity,C_sing,149,245,1371.5969291534489,None,1371.5969291534489,None,1371.5969291534489,None,6,2.411677862785382,1371.5969291534489,None,1374.0541095975618,None,1374.0541095975618,None,1374.5653050942337,None,1374.5653050942337,None,1374.5653050942337,None,r,0.4911457361445173,1374.5653050942337,None,sing41,001,2019_Nov_18_1339,ProdFawcett_Revision2019,3.2.4,60.02015978506053,
,,,,150,0,150,0,,,,,,,,,,,,,1380.016165018349,None,,,,,,,,,,,,,,,,,,,,,,patient,D_new,150,213,1375.5830347701685,None,1375.5830347701685,None,1375.5830347701685,None,4,3.0331389562729782,1375.5830347701685,None,1378.653432854388,None,1378.653432854388,None,1379.182560179138,None,1379.182560179138,None,1379.182560179138,None,f,0.7853884431174265,1379.182560179138,None,sing41,001,2019_Nov_18_1339,ProdFawcett_Revision2019,3.2.4,60.02015978506053,
,,,,151,0,151,0,,,,,,,,,,,,,1383.4841127075947,None,,,,,,,,,,,,,,,,,,,,,,property,D_new,151,242,1380.549828015177,None,1380.549828015177,None,1380.549828015177,None,1,1.9299480624495118,1380.549828015177,None,1382.5191145736144,None,1382.5191145736144,None,1383.0503548547613,None,1383.0503548547613,None,1383.0503548547613,None,n,0.3975483610129231,1383.0503548547613,None,sing41,001,2019_Nov_18_1339,ProdFawcett_Revision2019,3.2.4,60.02015978506053,
,,,,152,0,152,0,,,,,,,,,,,,,1386.2847655035143,None,,,,,,,,,,,,,,,,,,,,,,concern,D_new,152,65,1384.0030462772907,None,1384.0030462772907,None,1384.0030462772907,None,1,1.2929106798533212,1384.0030462772907,None,1385.3392203147355,None,1385.3392203147355,None,1385.8681000808606,None,1385.8681000808606,None,1385.8681000808606,None,n,0.3795400261242321,1385.8681000808606,None,sing41,001,2019_Nov_18_1339,ProdFawcett_Revision2019,3.2.4,60.02015978506053,
,,,,153,0,153,0,,,,,,,,,,,,,1389.8719981961808,None,,,,,,,,,,,,,,,,,,,,,,tough,C_sing,153,333,1386.8024780742676,None,1386.8024780742676,None,1386.8024780742676,None,6,1.7417114511413274,1386.8024780742676,None,1388.5902133482614,None,1388.5902133482614,None,1389.1024000124403,None,1389.1024000124403,None,1389.1024000124403,None,r,0.7451219132926781,1389.1024000124403,None,sing41,001,2019_Nov_18_1339,ProdFawcett_Revision2019,3.2.4,60.02015978506053,
