StudyTrials.thisRepN,StudyTrials.thisTrialN,StudyTrials.thisN,StudyTrials.thisIndex,TestTrials.thisRepN,TestTrials.thisTrialN,TestTrials.thisN,TestTrials.thisIndex,textWelcome.started,textWelcome.stopped,keyWelcome.keys,keyWelcome.rt,keyWelcome.started,keyWelcome.stopped,textReady.started,textReady.stopped,keyReady.keys,keyReady.rt,keyReady.started,keyReady.stopped,polyback_2.started,polyback_2.stopped,studyPic,studyWord,studyType,studyN,studyOrder,polyback_3.started,polyback_3.stopped,studyPicChoice.started,studyPicChoice.stopped,polyback_4.started,polyback_4.stopped,polyback.started,polyback.stopped,studyWords.started,studyWords.stopped,getResearcher.started,getResearcher.stopped,kPress2.keys,kPress2.rt,kPress2.started,kPress2.stopped,testWord,testType,testN,testOrder,polyback_5.started,polyback_5.stopped,testWords.started,testWords.stopped,textScale.started,textScale.stopped,keyConf.keys,keyConf.rt,keyConf.started,keyConf.stopped,polyback_6.started,polyback_6.stopped,studyWords_2.started,studyWords_2.stopped,polyback_7.started,polyback_7.stopped,testWords_2.started,testWords_2.stopped,textScale_2.started,textScale_2.stopped,keyRKN.keys,keyRKN.rt,keyRKN.started,keyRKN.stopped,participant,session,date,expName,psychopyVersion,frameRate,
,,,,,,,,14.54746718914248,None,space,2918.6692906015087,14.54746718914248,None,,,,,,,,,,,,,,,,,,,,,,,,,,,,,,,,,,,,,,,,,,,,,,,,,,,,,,,,,,sing23,001,2019_Nov_05_1650,ProdFawcett_Revision2019,3.2.4,59.87676049010337,
,,,,,,,,,,,,,,2933.233916153549,None,space,7.8538104123435915,2933.233916153549,None,,,,,,,,,,,,,,,,,,,,,,,,,,,,,,,,,,,,,,,,,,,,,,,,,,,,sing23,001,2019_Nov_05_1650,ProdFawcett_Revision2019,3.2.4,59.87676049010337,
0,0,0,0,,,,,,,,,,,,,,,,,2945.9045649063773,None,materials/readPic.jpg,childhood,A_silent,0,49,2942.270264352788,None,2942.270264352788,None,2943.1548090439755,None,2943.4203054052778,None,2943.4203054052778,None,,,,,,,,,,,,,,,,,,,,,,,,,,,,,,,,,,,sing23,001,2019_Nov_05_1650,ProdFawcett_Revision2019,3.2.4,59.87676049010337,
1,0,1,0,,,,,,,,,,,,,,,,,2950.1725045095664,None,materials/speakPic.jpg,hunger,B_aloud,1,155,2946.5280422342476,None,2946.5280422342476,None,2947.422713192762,None,2947.6883308453253,None,2947.6883308453253,None,,,,,,,,,,,,,,,,,,,,,,,,,,,,,,,,,,,sing23,001,2019_Nov_05_1650,ProdFawcett_Revision2019,3.2.4,59.87676049010337,
2,0,2,0,,,,,,,,,,,,,,,,,2954.440510045388,None,materials/readPic.jpg,comfort,A_silent,2,59,2950.7903657399584,None,2950.7903657399584,None,2951.6899502394954,None,2951.956257075304,None,2951.956257075304,None,,,,,,,,,,,,,,,,,,,,,,,,,,,,,,,,,,,sing23,001,2019_Nov_05_1650,ProdFawcett_Revision2019,3.2.4,59.87676049010337,
3,0,3,0,,,,,,,,,,,,,,,,,2958.7084903899813,None,materials/readPic.jpg,blind,A_silent,3,24,2955.0237494558096,None,2955.0237494558096,None,2955.957797785639,None,2956.224218137795,None,2956.224218137795,None,,,,,,,,,,,,,,,,,,,,,,,,,,,,,,,,,,,sing23,001,2019_Nov_05_1650,ProdFawcett_Revision2019,3.2.4,59.87676049010337,
4,0,4,0,,,,,,,,,,,,,,,,,2962.976559059578,None,materials/readPic.jpg,foundation,A_silent,4,132,2959.2810642533004,None,2959.2810642533004,None,2960.225914349663,None,2960.4922569509363,None,2960.4922569509363,None,,,,,,,,,,,,,,,,,,,,,,,,,,,,,,,,,,,sing23,001,2019_Nov_05_1650,ProdFawcett_Revision2019,3.2.4,59.87676049010337,
5,0,5,0,,,,,,,,,,,,,,,,,2967.244450146216,None,materials/singPic.jpg,relation,C_sing,5,257,2963.644656030345,None,2963.644656030345,None,2964.495898799505,None,2964.760233874549,None,2964.760233874549,None,,,,,,,,,,,,,,,,,,,,,,,,,,,,,,,,,,,sing23,001,2019_Nov_05_1650,ProdFawcett_Revision2019,3.2.4,59.87676049010337,
6,0,6,0,,,,,,,,,,,,,,,,,2971.512450705981,None,materials/speakPic.jpg,touch,B_aloud,6,332,2967.8459277228685,None,2967.8459277228685,None,2968.762091497192,None,2969.028259003535,None,2969.028259003535,None,,,,,,,,,,,,,,,,,,,,,,,,,,,,,,,,,,,sing23,001,2019_Nov_05_1650,ProdFawcett_Revision2019,3.2.4,59.87676049010337,
7,0,7,0,,,,,,,,,,,,,,,,,2975.780434782617,None,materials/speakPic.jpg,audience,B_aloud,7,14,2972.083442806499,None,2972.083442806499,None,2973.0299465074204,None,2973.296227529994,None,2973.296227529994,None,,,,,,,,,,,,,,,,,,,,,,,,,,,,,,,,,,,sing23,001,2019_Nov_05_1650,ProdFawcett_Revision2019,3.2.4,59.87676049010337,
8,0,8,0,,,,,,,,,,,,,,,,,2980.048437208403,None,materials/readPic.jpg,escape,A_silent,8,118,2976.381476643728,None,2976.381476643728,None,2977.2980453443015,None,2977.5642206257908,None,2977.5642206257908,None,,,,,,,,,,,,,,,,,,,,,,,,,,,,,,,,,,,sing23,001,2019_Nov_05_1650,ProdFawcett_Revision2019,3.2.4,59.87676049010337,
9,0,9,0,,,,,,,,,,,,,,,,,2984.316408533952,None,materials/readPic.jpg,bureau,A_silent,9,37,2980.6358294457896,None,2980.6358294457896,None,2981.5658813833725,None,2981.8322115445044,None,2981.8322115445044,None,,,,,,,,,,,,,,,,,,,,,,,,,,,,,,,,,,,sing23,001,2019_Nov_05_1650,ProdFawcett_Revision2019,3.2.4,59.87676049010337,
10,0,10,0,,,,,,,,,,,,,,,,,2988.5844115817454,None,materials/speakPic.jpg,speech,B_aloud,10,298,2984.9080885737203,None,2984.9080885737203,None,2985.834055482992,None,2986.100183803006,None,2986.100183803006,None,,,,,,,,,,,,,,,,,,,,,,,,,,,,,,,,,,,sing23,001,2019_Nov_05_1650,ProdFawcett_Revision2019,3.2.4,59.87676049010337,
11,0,11,0,,,,,,,,,,,,,,,,,2992.8523863282753,None,materials/singPic.jpg,broke,C_sing,11,32,2989.192542452016,None,2989.192542452016,None,2990.101958387764,None,2990.3682555825217,None,2990.3682555825217,None,,,,,,,,,,,,,,,,,,,,,,,,,,,,,,,,,,,sing23,001,2019_Nov_05_1650,ProdFawcett_Revision2019,3.2.4,59.87676049010337,
12,0,12,0,,,,,,,,,,,,,,,,,2997.120396529208,None,materials/singPic.jpg,master,C_sing,12,180,2993.435783728375,None,2993.435783728375,None,2994.369867512607,None,2994.6361815015553,None,2994.6361815015553,None,,,,,,,,,,,,,,,,,,,,,,,,,,,,,,,,,,,sing23,001,2019_Nov_05_1650,ProdFawcett_Revision2019,3.2.4,59.87676049010337,
13,0,13,0,,,,,,,,,,,,,,,,,3001.388373141759,None,materials/readPic.jpg,disease,A_silent,13,97,2997.7257423648844,None,2997.7257423648844,None,2998.6380179760745,None,2998.9042411519913,None,2998.9042411519913,None,,,,,,,,,,,,,,,,,,,,,,,,,,,,,,,,,,,sing23,001,2019_Nov_05_1650,ProdFawcett_Revision2019,3.2.4,59.87676049010337,
14,0,14,0,,,,,,,,,,,,,,,,,3005.6564082229743,None,materials/readPic.jpg,rapid,A_silent,14,252,3001.9715257822536,None,3001.9715257822536,None,3002.90606083232,None,3003.1721605398925,None,3003.1721605398925,None,,,,,,,,,,,,,,,,,,,,,,,,,,,,,,,,,,,sing23,001,2019_Nov_05_1650,ProdFawcett_Revision2019,3.2.4,59.87676049010337,
15,0,15,0,,,,,,,,,,,,,,,,,3009.9243562232004,None,materials/speakPic.jpg,oxygen,B_aloud,15,209,3006.21360328421,None,3006.21360328421,None,3007.1740122535266,None,3007.4401387075195,None,3007.4401387075195,None,,,,,,,,,,,,,,,,,,,,,,,,,,,,,,,,,,,sing23,001,2019_Nov_05_1650,ProdFawcett_Revision2019,3.2.4,59.87676049010337,
16,0,16,0,,,,,,,,,,,,,,,,,3014.1923337688204,None,materials/readPic.jpg,testimony,A_silent,16,325,3010.532388816355,None,3010.532388816355,None,3011.442187908222,None,3011.7081215401413,None,3011.7081215401413,None,,,,,,,,,,,,,,,,,,,,,,,,,,,,,,,,,,,sing23,001,2019_Nov_05_1650,ProdFawcett_Revision2019,3.2.4,59.87676049010337,
17,0,17,0,,,,,,,,,,,,,,,,,3018.460319711361,None,materials/speakPic.jpg,income,B_aloud,17,159,3014.7935970640974,None,3014.7935970640974,None,3015.7099430863746,None,3015.976130185998,None,3015.976130185998,None,,,,,,,,,,,,,,,,,,,,,,,,,,,,,,,,,,,sing23,001,2019_Nov_05_1650,ProdFawcett_Revision2019,3.2.4,59.87676049010337,
18,0,18,0,,,,,,,,,,,,,,,,,3022.7282947689528,None,materials/speakPic.jpg,worker,B_aloud,18,356,3019.031330472091,None,3019.031330472091,None,3019.977953598369,None,3020.244129501749,None,3020.244129501749,None,,,,,,,,,,,,,,,,,,,,,,,,,,,,,,,,,,,sing23,001,2019_Nov_05_1650,ProdFawcett_Revision2019,3.2.4,59.87676049010337,
19,0,19,0,,,,,,,,,,,,,,,,,3026.99631243397,None,materials/speakPic.jpg,budget,B_aloud,19,34,3023.2947493313113,None,3023.2947493313113,None,3024.24598463648,None,3024.5120958512416,None,3024.5120958512416,None,,,,,,,,,,,,,,,,,,,,,,,,,,,,,,,,,,,sing23,001,2019_Nov_05_1650,ProdFawcett_Revision2019,3.2.4,59.87676049010337,
20,0,20,0,,,,,,,,,,,,,,,,,3031.2644563663052,None,materials/readPic.jpg,center,A_silent,20,44,3027.600860857172,None,3027.600860857172,None,3028.5138520868495,None,3028.7800845928723,None,3028.7800845928723,None,,,,,,,,,,,,,,,,,,,,,,,,,,,,,,,,,,,sing23,001,2019_Nov_05_1650,ProdFawcett_Revision2019,3.2.4,59.87676049010337,
21,0,21,0,,,,,,,,,,,,,,,,,3035.532275922131,None,materials/readPic.jpg,express,A_silent,21,124,3031.8474304907722,None,3031.8474304907722,None,3032.781578341732,None,3033.0480814207112,None,3033.0480814207112,None,,,,,,,,,,,,,,,,,,,,,,,,,,,,,,,,,,,sing23,001,2019_Nov_05_1650,ProdFawcett_Revision2019,3.2.4,59.87676049010337,
22,0,22,0,,,,,,,,,,,,,,,,,3039.8003072713036,None,materials/singPic.jpg,direction,C_sing,22,94,3036.1395086147822,None,3036.1395086147822,None,3037.049853828503,None,3037.3160651862854,None,3037.3160651862854,None,,,,,,,,,,,,,,,,,,,,,,,,,,,,,,,,,,,sing23,001,2019_Nov_05_1650,ProdFawcett_Revision2019,3.2.4,59.87676049010337,
23,0,23,0,,,,,,,,,,,,,,,,,3044.0682328792755,None,materials/singPic.jpg,drink,C_sing,23,105,3040.3838104123715,None,3040.3838104123715,None,3041.3175592462067,None,3041.5840445979265,None,3041.5840445979265,None,,,,,,,,,,,,,,,,,,,,,,,,,,,,,,,,,,,sing23,001,2019_Nov_05_1650,ProdFawcett_Revision2019,3.2.4,59.87676049010337,
24,0,24,0,,,,,,,,,,,,,,,,,3048.336202027742,None,materials/singPic.jpg,month,C_sing,24,193,3044.6548874168657,None,3044.6548874168657,None,3045.5859109286685,None,3045.852020277409,None,3045.852020277409,None,,,,,,,,,,,,,,,,,,,,,,,,,,,,,,,,,,,sing23,001,2019_Nov_05_1650,ProdFawcett_Revision2019,3.2.4,59.87676049010337,
25,0,25,0,,,,,,,,,,,,,,,,,3052.6042268457823,None,materials/speakPic.jpg,close,B_aloud,25,53,3048.956581140752,None,3048.956581140752,None,3049.853563475772,None,3050.120014306158,None,3050.120014306158,None,,,,,,,,,,,,,,,,,,,,,,,,,,,,,,,,,,,sing23,001,2019_Nov_05_1650,ProdFawcett_Revision2019,3.2.4,59.87676049010337,
26,0,26,0,,,,,,,,,,,,,,,,,3056.8724099645624,None,materials/readPic.jpg,smooth,A_silent,26,292,3053.205413634423,None,3053.205413634423,None,3054.1218364745146,None,3054.38802606205,None,3054.38802606205,None,,,,,,,,,,,,,,,,,,,,,,,,,,,,,,,,,,,sing23,001,2019_Nov_05_1650,ProdFawcett_Revision2019,3.2.4,59.87676049010337,
27,0,27,0,,,,,,,,,,,,,,,,,3061.140184424934,None,materials/readPic.jpg,election,A_silent,27,109,3057.4605775331147,None,3057.4605775331147,None,3058.389885239769,None,3058.6559995645657,None,3058.6559995645657,None,,,,,,,,,,,,,,,,,,,,,,,,,,,,,,,,,,,sing23,001,2019_Nov_05_1650,ProdFawcett_Revision2019,3.2.4,59.87676049010337,
28,0,28,0,,,,,,,,,,,,,,,,,3065.408183740801,None,materials/singPic.jpg,defeat,C_sing,28,88,3061.7582073770463,None,3061.7582073770463,None,3062.657787522534,None,3062.923987995251,None,3062.923987995251,None,,,,,,,,,,,,,,,,,,,,,,,,,,,,,,,,,,,sing23,001,2019_Nov_05_1650,ProdFawcett_Revision2019,3.2.4,59.87676049010337,
29,0,29,0,,,,,,,,,,,,,,,,,3069.676146980142,None,materials/readPic.jpg,congress,A_silent,29,67,3066.011258008308,None,3066.011258008308,None,3066.9257986565353,None,3067.191973315901,None,3067.191973315901,None,,,,,,,,,,,,,,,,,,,,,,,,,,,,,,,,,,,sing23,001,2019_Nov_05_1650,ProdFawcett_Revision2019,3.2.4,59.87676049010337,
30,0,30,0,,,,,,,,,,,,,,,,,3073.944157181075,None,materials/readPic.jpg,sweet,A_silent,30,319,3070.259580767597,None,3070.259580767597,None,3071.1938107233727,None,3071.459971387754,None,3071.459971387754,None,,,,,,,,,,,,,,,,,,,,,,,,,,,,,,,,,,,sing23,001,2019_Nov_05_1650,ProdFawcett_Revision2019,3.2.4,59.87676049010337,
31,0,31,0,,,,,,,,,,,,,,,,,3078.2122398457723,None,materials/speakPic.jpg,scale,B_aloud,31,272,3074.545482366113,None,3074.545482366113,None,3075.4618203022983,None,3075.7279679045314,None,3075.7279679045314,None,,,,,,,,,,,,,,,,,,,,,,,,,,,,,,,,,,,sing23,001,2019_Nov_05_1650,ProdFawcett_Revision2019,3.2.4,59.87676049010337,
32,0,32,0,,,,,,,,,,,,,,,,,3082.4801399514545,None,materials/speakPic.jpg,dance,B_aloud,32,84,3078.7851558126276,None,3078.7851558126276,None,3079.7297499533743,None,3079.9959398519713,None,3079.9959398519713,None,,,,,,,,,,,,,,,,,,,,,,,,,,,,,,,,,,,sing23,001,2019_Nov_05_1650,ProdFawcett_Revision2019,3.2.4,59.87676049010337,
33,0,33,0,,,,,,,,,,,,,,,,,3086.748102568905,None,materials/readPic.jpg,edition,A_silent,33,107,3083.0812237979844,None,3083.0812237979844,None,3083.9977946756408,None,3084.26392610569,None,3084.26392610569,None,,,,,,,,,,,,,,,,,,,,,,,,,,,,,,,,,,,sing23,001,2019_Nov_05_1650,ProdFawcett_Revision2019,3.2.4,59.87676049010337,
34,0,34,0,,,,,,,,,,,,,,,,,3091.0161015737103,None,materials/speakPic.jpg,quick,B_aloud,34,248,3087.356888101087,None,3087.356888101087,None,3088.265464638942,None,3088.5319947751705,None,3088.5319947751705,None,,,,,,,,,,,,,,,,,,,,,,,,,,,,,,,,,,,sing23,001,2019_Nov_05_1650,ProdFawcett_Revision2019,3.2.4,59.87676049010337,
35,0,35,0,,,,,,,,,,,,,,,,,3095.2841058655176,None,materials/speakPic.jpg,universal,B_aloud,35,345,3091.5992455059895,None,3091.5992455059895,None,3092.53368352307,None,3092.7999070100486,None,3092.7999070100486,None,,,,,,,,,,,,,,,,,,,,,,,,,,,,,,,,,,,sing23,001,2019_Nov_05_1650,ProdFawcett_Revision2019,3.2.4,59.87676049010337,
36,0,36,0,,,,,,,,,,,,,,,,,3099.5520914972294,None,materials/singPic.jpg,fashion,C_sing,36,125,3095.8917571686907,None,3095.8917571686907,None,3096.801805063151,None,3097.0678836225998,None,3097.0678836225998,None,,,,,,,,,,,,,,,,,,,,,,,,,,,,,,,,,,,sing23,001,2019_Nov_05_1650,ProdFawcett_Revision2019,3.2.4,59.87676049010337,
37,0,37,0,,,,,,,,,,,,,,,,,3103.820054425625,None,materials/speakPic.jpg,reading,B_aloud,37,254,3100.1411532002967,None,3100.1411532002967,None,3101.0697247621138,None,3101.3358897804283,None,3101.3358897804283,None,,,,,,,,,,,,,,,,,,,,,,,,,,,,,,,,,,,sing23,001,2019_Nov_05_1650,ProdFawcett_Revision2019,3.2.4,59.87676049010337,
38,0,38,0,,,,,,,,,,,,,,,,,3108.0880568514112,None,materials/speakPic.jpg,gesture,B_aloud,38,137,3104.4032204392133,None,3104.4032204392133,None,3105.337516016676,None,3105.603872924112,None,3105.603872924112,None,,,,,,,,,,,,,,,,,,,,,,,,,,,,,,,,,,,sing23,001,2019_Nov_05_1650,ProdFawcett_Revision2019,3.2.4,59.87676049010337,
39,0,39,0,,,,,,,,,,,,,,,,,3112.356044349144,None,materials/readPic.jpg,account,A_silent,39,1,3108.6891696212115,None,3108.6891696212115,None,3109.6053657399025,None,3109.8718597997213,None,3109.8718597997213,None,,,,,,,,,,,,,,,,,,,,,,,,,,,,,,,,,,,sing23,001,2019_Nov_05_1650,ProdFawcett_Revision2019,3.2.4,59.87676049010337,
40,0,40,0,,,,,,,,,,,,,,,,,3116.624049573904,None,materials/readPic.jpg,pancakes,A_silent,40,210,3112.9391913914587,None,3112.9391913914587,None,3113.873693164205,None,3114.1398392113624,None,3114.1398392113624,None,,,,,,,,,,,,,,,,,,,,,,,,,,,,,,,,,,,sing23,001,2019_Nov_05_1650,ProdFawcett_Revision2019,3.2.4,59.87676049010337,
41,0,41,0,,,,,,,,,,,,,,,,,3120.892011880409,None,materials/speakPic.jpg,track,B_aloud,41,334,3117.2099471294787,None,3117.2099471294787,None,3118.141904273187,None,3118.407819244894,None,3118.407819244894,None,,,,,,,,,,,,,,,,,,,,,,,,,,,,,,,,,,,sing23,001,2019_Nov_05_1650,ProdFawcett_Revision2019,3.2.4,59.87676049010337,
42,0,42,0,,,,,,,,,,,,,,,,,3125.1600052870344,None,materials/singPic.jpg,captain,C_sing,42,41,3121.5101797599345,None,3121.5101797599345,None,3122.409687130712,None,3122.6758282018127,None,3122.6758282018127,None,,,,,,,,,,,,,,,,,,,,,,,,,,,,,,,,,,,sing23,001,2019_Nov_05_1650,ProdFawcett_Revision2019,3.2.4,59.87676049010337,
43,0,43,0,,,,,,,,,,,,,,,,,3129.4280198420165,None,materials/singPic.jpg,course,C_sing,43,74,3125.7466840829,None,3125.7466840829,None,3126.6777147478424,None,3126.943805436371,None,3126.943805436371,None,,,,,,,,,,,,,,,,,,,,,,,,,,,,,,,,,,,sing23,001,2019_Nov_05_1650,ProdFawcett_Revision2019,3.2.4,59.87676049010337,
44,0,44,0,,,,,,,,,,,,,,,,,3133.6959939665394,None,materials/singPic.jpg,welcome,C_sing,44,354,3130.0116691547446,None,3130.0116691547446,None,3130.945315979421,None,3131.2117944890633,None,3131.2117944890633,None,,,,,,,,,,,,,,,,,,,,,,,,,,,,,,,,,,,sing23,001,2019_Nov_05_1650,ProdFawcett_Revision2019,3.2.4,59.87676049010337,
45,0,45,0,,,,,,,,,,,,,,,,,3137.9639727561735,None,materials/readPic.jpg,attack,A_silent,45,13,3134.3477278099163,None,3134.3477278099163,None,3135.2134611557703,None,3135.479790694779,None,3135.479790694779,None,,,,,,,,,,,,,,,,,,,,,,,,,,,,,,,,,,,sing23,001,2019_Nov_05_1650,ProdFawcett_Revision2019,3.2.4,59.87676049010337,
46,0,46,0,,,,,,,,,,,,,,,,,3142.2319767370354,None,materials/speakPic.jpg,write,B_aloud,46,358,3138.5653312185314,None,3138.5653312185314,None,3139.481592647964,None,3139.7477735274006,None,3139.7477735274006,None,,,,,,,,,,,,,,,,,,,,,,,,,,,,,,,,,,,sing23,001,2019_Nov_05_1650,ProdFawcett_Revision2019,3.2.4,59.87676049010337,
47,0,47,0,,,,,,,,,,,,,,,,,3146.499968899647,None,materials/speakPic.jpg,broad,B_aloud,47,31,3142.802563600242,None,3142.802563600242,None,3143.7492165827425,None,3144.0157715992536,None,3144.0157715992536,None,,,,,,,,,,,,,,,,,,,,,,,,,,,,,,,,,,,sing23,001,2019_Nov_05_1650,ProdFawcett_Revision2019,3.2.4,59.87676049010337,
48,0,48,0,,,,,,,,,,,,,,,,,3150.767937737168,None,materials/singPic.jpg,history,C_sing,48,153,3147.1062676494475,None,3147.1062676494475,None,3148.017353983945,None,3148.2837497667642,None,3148.2837497667642,None,,,,,,,,,,,,,,,,,,,,,,,,,,,,,,,,,,,sing23,001,2019_Nov_05_1650,ProdFawcett_Revision2019,3.2.4,59.87676049010337,
49,0,49,0,,,,,,,,,,,,,,,,,3155.0359557131305,None,materials/singPic.jpg,session,C_sing,49,281,3151.367896062671,None,3151.367896062671,None,3152.2852783480193,None,3152.5517422404373,None,3152.5517422404373,None,,,,,,,,,,,,,,,,,,,,,,,,,,,,,,,,,,,sing23,001,2019_Nov_05_1650,ProdFawcett_Revision2019,3.2.4,59.87676049010337,
50,0,50,0,,,,,,,,,,,,,,,,,3159.3039317036746,None,materials/readPic.jpg,author,A_silent,50,15,3155.6374684332404,None,3155.6374684332404,None,3156.5532813958125,None,3156.819731915137,None,3156.819731915137,None,,,,,,,,,,,,,,,,,,,,,,,,,,,,,,,,,,,sing23,001,2019_Nov_05_1650,ProdFawcett_Revision2019,3.2.4,59.87676049010337,
51,0,51,0,,,,,,,,,,,,,,,,,3163.571918890346,None,materials/singPic.jpg,subject,C_sing,51,312,3159.912589413463,None,3159.912589413463,None,3160.8212732474785,None,3161.087830130011,None,3161.087830130011,None,,,,,,,,,,,,,,,,,,,,,,,,,,,,,,,,,,,sing23,001,2019_Nov_05_1650,ProdFawcett_Revision2019,3.2.4,59.87676049010337,
52,0,52,0,,,,,,,,,,,,,,,,,3167.8399244261673,None,materials/singPic.jpg,color,C_sing,52,56,3164.1557209056336,None,3164.1557209056336,None,3165.0895627293503,None,3165.3557134416187,None,3165.3557134416187,None,,,,,,,,,,,,,,,,,,,,,,,,,,,,,,,,,,,sing23,001,2019_Nov_05_1650,ProdFawcett_Revision2019,3.2.4,59.87676049010337,
53,0,53,0,,,,,,,,,,,,,,,,,3172.1078945077024,None,materials/speakPic.jpg,novel,B_aloud,53,202,3168.441465136595,None,3168.441465136595,None,3169.3573256826494,None,3169.6236735709244,None,3169.6236735709244,None,,,,,,,,,,,,,,,,,,,,,,,,,,,,,,,,,,,sing23,001,2019_Nov_05_1650,ProdFawcett_Revision2019,3.2.4,59.87676049010337,
54,0,54,0,,,,,,,,,,,,,,,,,3176.3759230577853,None,materials/singPic.jpg,people,C_sing,54,216,3172.7257072215434,None,3172.7257072215434,None,3173.625301362248,None,3173.8916703987634,None,3173.8916703987634,None,,,,,,,,,,,,,,,,,,,,,,,,,,,,,,,,,,,sing23,001,2019_Nov_05_1650,ProdFawcett_Revision2019,3.2.4,59.87676049010337,
55,0,55,0,,,,,,,,,,,,,,,,,3180.643887541257,None,materials/readPic.jpg,marriage,A_silent,55,179,3176.9802568887826,None,3176.9802568887826,None,3177.8932493624743,None,3178.1596650495194,None,3178.1596650495194,None,,,,,,,,,,,,,,,,,,,,,,,,,,,,,,,,,,,sing23,001,2019_Nov_05_1650,ProdFawcett_Revision2019,3.2.4,59.87676049010337,
56,0,56,0,,,,,,,,,,,,,,,,,3184.9118551346473,None,materials/singPic.jpg,range,C_sing,56,251,3181.267272501136,None,3181.267272501136,None,3182.1612088698894,None,3182.4276603222825,None,3182.4276603222825,None,,,,,,,,,,,,,,,,,,,,,,,,,,,,,,,,,,,sing23,001,2019_Nov_05_1650,ProdFawcett_Revision2019,3.2.4,59.87676049010337,
57,0,57,0,,,,,,,,,,,,,,,,,3189.1798423213186,None,materials/singPic.jpg,judge,C_sing,57,166,3185.5024668781552,None,3185.5024668781552,None,3186.429906388046,None,3186.6956344468053,None,3186.6956344468053,None,,,,,,,,,,,,,,,,,,,,,,,,,,,,,,,,,,,sing23,001,2019_Nov_05_1650,ProdFawcett_Revision2019,3.2.4,59.87676049010337,
58,0,58,0,,,,,,,,,,,,,,,,,3193.4478481682017,None,materials/speakPic.jpg,cousin,B_aloud,58,76,3189.768825029605,None,3189.768825029605,None,3190.697396902484,None,3190.9636365615297,None,3190.9636365615297,None,,,,,,,,,,,,,,,,,,,,,,,,,,,,,,,,,,,sing23,001,2019_Nov_05_1650,ProdFawcett_Revision2019,3.2.4,59.87676049010337,
59,0,59,0,,,,,,,,,,,,,,,,,3197.7158418860054,None,materials/speakPic.jpg,agency,B_aloud,59,4,3194.0172908502864,None,3194.0172908502864,None,3194.9646295950515,None,3195.2316209492274,None,3195.2316209492274,None,,,,,,,,,,,,,,,,,,,,,,,,,,,,,,,,,,,sing23,001,2019_Nov_05_1650,ProdFawcett_Revision2019,3.2.4,59.87676049010337,
60,0,60,0,,,,,,,,,,,,,,,,,3201.983811656479,None,materials/speakPic.jpg,season,B_aloud,60,277,3198.2989668471273,None,3198.2989668471273,None,3199.233214841108,None,3199.4996056478703,None,3199.4996056478703,None,,,,,,,,,,,,,,,,,,,,,,,,,,,,,,,,,,,sing23,001,2019_Nov_05_1650,ProdFawcett_Revision2019,3.2.4,59.87676049010337,
61,0,61,0,,,,,,,,,,,,,,,,,3206.251804441097,None,materials/speakPic.jpg,institute,B_aloud,61,162,3202.5530301051913,None,3202.5530301051913,None,3203.50117497053,None,3203.7675794613315,None,3203.7675794613315,None,,,,,,,,,,,,,,,,,,,,,,,,,,,,,,,,,,,sing23,001,2019_Nov_05_1650,ProdFawcett_Revision2019,3.2.4,59.87676049010337,
62,0,62,0,,,,,,,,,,,,,,,,,3210.519791316823,None,materials/singPic.jpg,sunset,C_sing,62,315,3206.9033218262484,None,3206.9033218262484,None,3207.769206008641,None,3208.035569758038,None,3208.035569758038,None,,,,,,,,,,,,,,,,,,,,,,,,,,,,,,,,,,,sing23,001,2019_Nov_05_1650,ProdFawcett_Revision2019,3.2.4,59.87676049010337,
63,0,63,0,,,,,,,,,,,,,,,,,3214.787786589586,None,materials/singPic.jpg,story,C_sing,63,306,3211.105520619545,None,3211.105520619545,None,3212.0372190085473,None,3212.3035616098205,None,3212.3035616098205,None,,,,,,,,,,,,,,,,,,,,,,,,,,,,,,,,,,,sing23,001,2019_Nov_05_1650,ProdFawcett_Revision2019,3.2.4,59.87676049010337,
64,0,64,0,,,,,,,,,,,,,,,,,3219.055767245125,None,materials/speakPic.jpg,working,B_aloud,64,357,3215.3895602413686,None,3215.3895602413686,None,3216.305182870012,None,3216.571559681557,None,3216.571559681557,None,,,,,,,,,,,,,,,,,,,,,,,,,,,,,,,,,,,sing23,001,2019_Nov_05_1650,ProdFawcett_Revision2019,3.2.4,59.87676049010337,
65,0,65,0,,,,,,,,,,,,,,,,,3223.3237662499305,None,materials/speakPic.jpg,entrance,B_aloud,65,115,3219.6279722584877,None,3219.6279722584877,None,3220.573166013579,None,3220.839549045195,None,3220.839549045195,None,,,,,,,,,,,,,,,,,,,,,,,,,,,,,,,,,,,sing23,001,2019_Nov_05_1650,ProdFawcett_Revision2019,3.2.4,59.87676049010337,
66,0,66,0,,,,,,,,,,,,,,,,,3227.591764010722,None,materials/readPic.jpg,strain,A_silent,66,308,3223.9249238042394,None,3223.9249238042394,None,3224.8416268582223,None,3225.107529078843,None,3225.107529078843,None,,,,,,,,,,,,,,,,,,,,,,,,,,,,,,,,,,,sing23,001,2019_Nov_05_1650,ProdFawcett_Revision2019,3.2.4,59.87676049010337,
67,0,67,0,,,,,,,,,,,,,,,,,3231.8597076568985,None,materials/singPic.jpg,society,C_sing,67,293,3228.213214219082,None,3228.213214219082,None,3229.1091789513594,None,3229.375529638608,None,3229.375529638608,None,,,,,,,,,,,,,,,,,,,,,,,,,,,,,,,,,,,sing23,001,2019_Nov_05_1650,ProdFawcett_Revision2019,3.2.4,59.87676049010337,
68,0,68,0,,,,,,,,,,,,,,,,,3236.127707594773,None,materials/readPic.jpg,tough,A_silent,68,333,3232.465259065735,None,3232.465259065735,None,3233.3772246065782,None,3233.6435112272156,None,3233.6435112272156,None,,,,,,,,,,,,,,,,,,,,,,,,,,,,,,,,,,,sing23,001,2019_Nov_05_1650,ProdFawcett_Revision2019,3.2.4,59.87676049010337,
69,0,69,0,,,,,,,,,,,,,,,,,3240.3957038004883,None,materials/readPic.jpg,literature,A_silent,69,173,3236.710877340287,None,3236.710877340287,None,3237.645113205188,None,3237.9114981029416,None,3237.9114981029416,None,,,,,,,,,,,,,,,,,,,,,,,,,,,,,,,,,,,sing23,001,2019_Nov_05_1650,ProdFawcett_Revision2019,3.2.4,59.87676049010337,
70,0,70,0,,,,,,,,,,,,,,,,,3244.6636909871595,None,materials/singPic.jpg,raise,C_sing,70,250,3241.0021561859176,None,3241.0021561859176,None,3241.913152329391,None,3242.179477203521,None,3242.179477203521,None,,,,,,,,,,,,,,,,,,,,,,,,,,,,,,,,,,,sing23,001,2019_Nov_05_1650,ProdFawcett_Revision2019,3.2.4,59.87676049010337,
71,0,71,0,,,,,,,,,,,,,,,,,3248.9315435093595,None,materials/singPic.jpg,carry,C_sing,71,43,3245.2634633327834,None,3245.2634633327834,None,3246.181141071138,None,3246.447471543215,None,3246.447471543215,None,,,,,,,,,,,,,,,,,,,,,,,,,,,,,,,,,,,sing23,001,2019_Nov_05_1650,ProdFawcett_Revision2019,3.2.4,59.87676049010337,
72,0,72,0,,,,,,,,,,,,,,,,,3253.199663805426,None,materials/readPic.jpg,under,A_silent,72,343,3249.533424768364,None,3249.533424768364,None,3250.449162779143,None,3250.715470236959,None,3250.715470236959,None,,,,,,,,,,,,,,,,,,,,,,,,,,,,,,,,,,,sing23,001,2019_Nov_05_1650,ProdFawcett_Revision2019,3.2.4,59.87676049010337,
73,0,73,0,,,,,,,,,,,,,,,,,3257.4676628102316,None,materials/speakPic.jpg,emergency,B_aloud,73,110,3253.7875754183624,None,3253.7875754183624,None,3254.7172242956003,None,3254.9834614667343,None,3254.9834614667343,None,,,,,,,,,,,,,,,,,,,,,,,,,,,,,,,,,,,sing23,001,2019_Nov_05_1650,ProdFawcett_Revision2019,3.2.4,59.87676049010337,
74,0,74,0,,,,,,,,,,,,,,,,,3261.7356456428533,None,materials/singPic.jpg,incident,C_sing,74,158,3258.0763705915306,None,3258.0763705915306,None,3258.9851371524855,None,3259.2515593705466,None,3259.2515593705466,None,,,,,,,,,,,,,,,,,,,,,,,,,,,,,,,,,,,sing23,001,2019_Nov_05_1650,ProdFawcett_Revision2019,3.2.4,59.87676049010337,
75,0,75,0,,,,,,,,,,,,,,,,,3266.0036315855104,None,materials/readPic.jpg,benefit,A_silent,75,20,3262.342098961235,None,3262.342098961235,None,3263.253219817183,None,3263.5194293089444,None,3263.5194293089444,None,,,,,,,,,,,,,,,,,,,,,,,,,,,,,,,,,,,sing23,001,2019_Nov_05_1650,ProdFawcett_Revision2019,3.2.4,59.87676049010337,
76,0,76,0,,,,,,,,,,,,,,,,,3270.2716243702453,None,materials/readPic.jpg,heavy,A_silent,76,151,3266.586742862477,None,3266.586742862477,None,3267.5210726504447,None,3267.7874298688257,None,3267.7874298688257,None,,,,,,,,,,,,,,,,,,,,,,,,,,,,,,,,,,,sing23,001,2019_Nov_05_1650,ProdFawcett_Revision2019,3.2.4,59.87676049010337,
77,0,77,0,,,,,,,,,,,,,,,,,3274.539698637789,None,materials/singPic.jpg,property,C_sing,77,242,3270.877240778762,None,3270.877240778762,None,3271.7891064875294,None,3272.055393730174,None,3272.055393730174,None,,,,,,,,,,,,,,,,,,,,,,,,,,,,,,,,,,,sing23,001,2019_Nov_05_1650,ProdFawcett_Revision2019,3.2.4,59.87676049010337,
78,0,78,0,,,,,,,,,,,,,,,,,3278.8130419232184,None,materials/readPic.jpg,ground,A_silent,78,142,3275.157863718341,None,3275.157863718341,None,3276.0571773340926,None,3276.323384337942,None,3276.323384337942,None,,,,,,,,,,,,,,,,,,,,,,,,,,,,,,,,,,,sing23,001,2019_Nov_05_1650,ProdFawcett_Revision2019,3.2.4,59.87676049010337,
79,0,79,0,,,,,,,,,,,,,,,,,3283.0755896623014,None,materials/speakPic.jpg,cross,B_aloud,79,80,3279.408945076866,None,3279.408945076866,None,3280.3251076071756,None,3280.5913820987334,None,3280.5913820987334,None,,,,,,,,,,,,,,,,,,,,,,,,,,,,,,,,,,,sing23,001,2019_Nov_05_1650,ProdFawcett_Revision2019,3.2.4,59.87676049010337,
80,0,80,0,,,,,,,,,,,,,,,,,3287.3437208434334,None,materials/readPic.jpg,population,A_silent,80,227,3283.6766937240027,None,3283.6766937240027,None,3284.593082042644,None,3284.8593646202935,None,3284.8593646202935,None,,,,,,,,,,,,,,,,,,,,,,,,,,,,,,,,,,,sing23,001,2019_Nov_05_1650,ProdFawcett_Revision2019,3.2.4,59.87676049010337,
81,0,81,0,,,,,,,,,,,,,,,,,3291.611554705538,None,materials/readPic.jpg,space,A_silent,81,297,3287.9170806120383,None,3287.9170806120383,None,3288.861036885064,None,3289.127361448016,None,3289.127361448016,None,,,,,,,,,,,,,,,,,,,,,,,,,,,,,,,,,,,sing23,001,2019_Nov_05_1650,ProdFawcett_Revision2019,3.2.4,59.87676049010337,
82,0,82,0,,,,,,,,,,,,,,,,,3295.8795502892463,None,materials/speakPic.jpg,drama,B_aloud,82,103,3292.2130860857433,None,3292.2130860857433,None,3293.1290601480287,None,3293.395357964793,None,3293.395357964793,None,,,,,,,,,,,,,,,,,,,,,,,,,,,,,,,,,,,sing23,001,2019_Nov_05_1650,ProdFawcett_Revision2019,3.2.4,59.87676049010337,
83,0,83,0,,,,,,,,,,,,,,,,,3300.1480630715378,None,materials/speakPic.jpg,resistance,B_aloud,83,262,3296.452689245576,None,3296.452689245576,None,3297.397080612136,None,3297.6633240032243,None,3297.6633240032243,None,,,,,,,,,,,,,,,,,,,,,,,,,,,,,,,,,,,sing23,001,2019_Nov_05_1650,ProdFawcett_Revision2019,3.2.4,59.87676049010337,
84,0,84,0,,,,,,,,,,,,,,,,,3304.4155392796965,None,materials/singPic.jpg,block,C_sing,84,25,3300.7540974684525,None,3300.7540974684525,None,3301.6652705728775,None,3301.9314141320065,None,3301.9314141320065,None,,,,,,,,,,,,,,,,,,,,,,,,,,,,,,,,,,,sing23,001,2019_Nov_05_1650,ProdFawcett_Revision2019,3.2.4,59.87676049010337,
85,0,85,0,,,,,,,,,,,,,,,,,3308.6836654848885,None,materials/singPic.jpg,rural,C_sing,85,269,3305.0153215774335,None,3305.0153215774335,None,3305.9330363252666,None,3306.1993151707575,None,3306.1993151707575,None,,,,,,,,,,,,,,,,,,,,,,,,,,,,,,,,,,,sing23,001,2019_Nov_05_1650,ProdFawcett_Revision2019,3.2.4,59.87676049010337,
86,0,86,0,,,,,,,,,,,,,,,,,3312.9515092989895,None,materials/singPic.jpg,school,C_sing,86,274,3309.2566529825563,None,3309.2566529825563,None,3310.201012004749,None,3310.4673076444305,None,3310.4673076444305,None,,,,,,,,,,,,,,,,,,,,,,,,,,,,,,,,,,,sing23,001,2019_Nov_05_1650,ProdFawcett_Revision2019,3.2.4,59.87676049010337,
87,0,87,0,,,,,,,,,,,,,,,,,3317.2194986627437,None,materials/speakPic.jpg,watch,B_aloud,87,351,3313.571839895565,None,3313.571839895565,None,3314.4690075884573,None,3314.735280213994,None,3314.735280213994,None,,,,,,,,,,,,,,,,,,,,,,,,,,,,,,,,,,,sing23,001,2019_Nov_05_1650,ProdFawcett_Revision2019,3.2.4,59.87676049010337,
88,0,88,0,,,,,,,,,,,,,,,,,3321.487452571979,None,materials/singPic.jpg,alert,C_sing,88,6,3317.827890464687,None,3317.827890464687,None,3318.737082167063,None,3319.003265534644,None,3319.003265534644,None,,,,,,,,,,,,,,,,,,,,,,,,,,,,,,,,,,,sing23,001,2019_Nov_05_1650,ProdFawcett_Revision2019,3.2.4,59.87676049010337,
89,0,89,0,,,,,,,,,,,,,,,,,3325.755586552201,None,materials/singPic.jpg,minor,C_sing,89,191,3322.087274678168,None,3322.087274678168,None,3323.0050572246546,None,3323.2712626734283,None,3323.2712626734283,None,,,,,,,,,,,,,,,,,,,,,,,,,,,,,,,,,,,sing23,001,2019_Nov_05_1650,ProdFawcett_Revision2019,3.2.4,59.87676049010337,
,,,,,,,,,,,,,,,,,,,,,,,,,,,,,,,,,,,,,3326.255768489209,None,k,82.98894227785058,3326.255768489209,None,,,,,,,,,,,,,,,,,,,,,,,,,,,,,sing23,001,2019_Nov_05_1650,ProdFawcett_Revision2019,3.2.4,59.87676049010337,
,,,,,,,,,,,,,,3409.2646815326298,None,space,3.5957336567807943,3409.2646815326298,None,,,,,,,,,,,,,,,,,,,,,,,,,,,,,,,,,,,,,,,,,,,,,,,,,,,,sing23,001,2019_Nov_05_1650,ProdFawcett_Revision2019,3.2.4,59.87676049010337,
,,,,0,0,0,0,,,,,,,,,,,,,3423.237940225168,None,,,,,,,,,,,,,,,,,,,,,,cross,B_aloud,0,80,3413.402901971829,None,3413.402901971829,None,3413.402901971829,None,5,4.881377433659509,3413.402901971829,None,3418.333935435745,None,3418.333935435745,None,3418.853986751288,None,3418.853986751288,None,3418.853986751288,None,f,4.333805747330189,3418.853986751288,None,sing23,001,2019_Nov_05_1650,ProdFawcett_Revision2019,3.2.4,59.87676049010337,
,,,,1,0,1,0,,,,,,,,,,,,,3429.804098090506,None,,,,,,,,,,,,,,,,,,,,,,session,C_sing,1,281,3423.7697001928464,None,3423.7697001928464,None,3423.7697001928464,None,6,3.5858795173699036,3423.7697001928464,None,3427.4203004292212,None,3427.4203004292212,None,3427.9371253965655,None,3427.9371253965655,None,3427.9371253965655,None,r,1.8266626236727461,3427.9371253965655,None,sing23,001,2019_Nov_05_1650,ProdFawcett_Revision2019,3.2.4,59.87676049010337,
,,,,2,0,2,0,,,,,,,,,,,,,3435.839327921858,None,,,,,,,,,,,,,,,,,,,,,,device,D_new,2,93,3430.3210518131964,None,3430.3210518131964,None,3430.3210518131964,None,1,1.8506381787592545,3430.3210518131964,None,3432.2216228152392,None,3432.2216228152392,None,3432.7384953660658,None,3432.7384953660658,None,3432.7384953660658,None,r,3.064465696341358,3432.7384953660658,None,sing23,001,2019_Nov_05_1650,ProdFawcett_Revision2019,3.2.4,59.87676049010337,
,,,,3,0,3,0,,,,,,,,,,,,,3439.7239789762534,None,,,,,,,,,,,,,,,,,,,,,,graduate,D_new,3,141,3436.3567263793666,None,3436.3567263793666,None,3436.3567263793666,None,1,1.5341714872047305,3436.3567263793666,None,3437.945157989743,None,3437.945157989743,None,3438.4736396715743,None,3438.4736396715743,None,3438.4736396715743,None,r,1.2011090377345681,3438.4736396715743,None,sing23,001,2019_Nov_05_1650,ProdFawcett_Revision2019,3.2.4,59.87676049010337,
,,,,4,0,4,0,,,,,,,,,,,,,3444.0584997201804,None,,,,,,,,,,,,,,,,,,,,,,blind,A_silent,4,24,3440.24100267468,None,3440.24100267468,None,3440.24100267468,None,1,2.305734589812346,3440.24100267468,None,3442.597581327427,None,3442.597581327427,None,3443.12486222561,None,3443.12486222561,None,3443.12486222561,None,r,0.8857750202296302,3443.12486222561,None,sing23,001,2019_Nov_05_1650,ProdFawcett_Revision2019,3.2.4,59.87676049010337,
,,,,5,0,5,0,,,,,,,,,,,,,3447.6930574733997,None,,,,,,,,,,,,,,,,,,,,,,place,D_new,5,222,3444.575820115744,None,3444.575820115744,None,3444.575820115744,None,1,1.5949919139966369,3444.575820115744,None,3446.2259127947036,None,3446.2259127947036,None,3446.7428267089417,None,3446.7428267089417,None,3446.7428267089417,None,r,0.9158026995137334,3446.7428267089417,None,sing23,001,2019_Nov_05_1650,ProdFawcett_Revision2019,3.2.4,59.87676049010337,
,,,,6,0,6,0,,,,,,,,,,,,,3450.960692915367,None,,,,,,,,,,,,,,,,,,,,,,subject,C_sing,6,312,3448.214830503217,None,3448.214830503217,None,3448.214830503217,None,1,1.699315792764537,3448.214830503217,None,3449.977103937301,None,3449.977103937301,None,3450.4981022579595,None,3450.4981022579595,None,3450.4981022579595,None,r,0.42425297014415264,3450.4981022579595,None,sing23,001,2019_Nov_05_1650,ProdFawcett_Revision2019,3.2.4,59.87676049010337,
,,,,7,0,7,0,,,,,,,,,,,,,3456.6791973005747,None,,,,,,,,,,,,,,,,,,,,,,goose,D_new,7,138,3451.4776226908434,None,3451.4776226908434,None,3451.4776226908434,None,1,1.2124724761815742,3451.4776226908434,None,3452.7334533806425,None,3452.7334533806425,None,3453.261494992883,None,3453.261494992883,None,3453.261494992883,None,n,3.3722700129728764,3453.261494992883,None,sing23,001,2019_Nov_05_1650,ProdFawcett_Revision2019,3.2.4,59.87676049010337,
,,,,8,0,8,0,,,,,,,,,,,,,3459.6466965230647,None,,,,,,,,,,,,,,,,,,,,,,fellow,D_new,8,126,3457.1960172918625,None,3457.1960172918625,None,3457.1960172918625,None,1,1.1978298190515488,3457.1960172918625,None,3458.4345468682004,None,3458.4345468682004,None,3458.9632829508046,None,3458.9632829508046,None,3458.9632829508046,None,n,0.6389736891724169,3458.9632829508046,None,sing23,001,2019_Nov_05_1650,ProdFawcett_Revision2019,3.2.4,59.87676049010337,
,,,,9,0,9,0,,,,,,,,,,,,,3463.6478615413653,None,,,,,,,,,,,,,,,,,,,,,,drink,C_sing,9,105,3460.1636063941987,None,3460.1636063941987,None,3460.1636063941987,None,2,1.8299869378097355,3460.1636063941987,None,3462.034316103789,None,3462.034316103789,None,3462.564260745188,None,3462.564260745188,None,3462.564260745188,None,f,1.0451915781013668,3462.564260745188,None,sing23,001,2019_Nov_05_1650,ProdFawcett_Revision2019,3.2.4,59.87676049010337,
,,,,10,0,10,0,,,,,,,,,,,,,3466.9990458418615,None,,,,,,,,,,,,,,,,,,,,,,murder,D_new,10,195,3464.16484823043,None,3464.16484823043,None,3464.16484823043,None,1,1.4767702306853607,3464.16484823043,None,3465.6986539777135,None,3465.6986539777135,None,3466.215677365195,None,3466.215677365195,None,3466.215677365195,None,n,0.7374693661695346,3466.215677365195,None,sing23,001,2019_Nov_05_1650,ProdFawcett_Revision2019,3.2.4,59.87676049010337,
,,,,11,0,11,0,,,,,,,,,,,,,3471.950605212478,None,,,,,,,,,,,,,,,,,,,,,,institute,B_aloud,11,162,3467.5161385830725,None,3467.5161385830725,None,3467.5161385830725,None,6,2.541771163814701,3467.5161385830725,None,3470.1054686820135,None,3470.1054686820135,None,3470.6335457486566,None,3470.6335457486566,None,3470.6335457486566,None,f,1.2713180319406092,3470.6335457486566,None,sing23,001,2019_Nov_05_1650,ProdFawcett_Revision2019,3.2.4,59.87676049010337,
,,,,12,0,12,0,,,,,,,,,,,,,3475.6516865709564,None,,,,,,,,,,,,,,,,,,,,,,problem,D_new,12,238,3472.4677890775492,None,3472.4677890775492,None,3472.4677890775492,None,3,1.7651657647220418,3472.4677890775492,None,3474.2733597686747,None,3474.2733597686747,None,3474.8013155439403,None,3474.8013155439403,None,3474.8013155439403,None,n,0.8155069353524595,3474.8013155439403,None,sing23,001,2019_Nov_05_1650,ProdFawcett_Revision2019,3.2.4,59.87676049010337,
,,,,13,0,13,0,,,,,,,,,,,,,3480.286491260864,None,,,,,,,,,,,,,,,,,,,,,,agency,B_aloud,13,4,3476.169729738147,None,3476.169729738147,None,3476.169729738147,None,5,2.031007650657557,3476.169729738147,None,3478.2525993655436,None,3478.2525993655436,None,3478.769271008321,None,3478.769271008321,None,3478.769271008321,None,f,1.471130185876973,3478.769271008321,None,sing23,001,2019_Nov_05_1650,ProdFawcett_Revision2019,3.2.4,59.87676049010337,
,,,,14,0,14,0,,,,,,,,,,,,,3484.2044364620233,None,,,,,,,,,,,,,,,,,,,,,,light,D_new,14,171,3480.803417926305,None,3480.803417926305,None,3480.803417926305,None,1,1.261320831021294,3480.803417926305,None,3482.1204500218155,None,3482.1204500218155,None,3482.637288673315,None,3482.637288673315,None,3482.637288673315,None,n,1.5310953535372391,3482.637288673315,None,sing23,001,2019_Nov_05_1650,ProdFawcett_Revision2019,3.2.4,59.87676049010337,
,,,,15,0,15,0,,,,,,,,,,,,,3489.055849661003,None,,,,,,,,,,,,,,,,,,,,,,property,C_sing,15,242,3484.7224898923887,None,3484.7224898923887,None,3484.7224898923887,None,5,2.7334658207837492,3484.7224898923887,None,3487.5053616968216,None,3487.5053616968216,None,3488.0222389127593,None,3488.0222389127593,None,3488.0222389127593,None,f,0.9856160974595696,3488.0222389127593,None,sing23,001,2019_Nov_05_1650,ProdFawcett_Revision2019,3.2.4,59.87676049010337,
,,,,16,0,16,0,,,,,,,,,,,,,3493.2404674380086,None,,,,,,,,,,,,,,,,,,,,,,edition,A_silent,16,107,3489.5603421037085,None,3489.5603421037085,None,3489.5603421037085,None,1,2.0556412887526676,3489.5603421037085,None,3491.6733320893254,None,3491.6733320893254,None,3492.190132487449,None,3492.190132487449,None,3492.190132487449,None,n,1.0176932885078713,3492.190132487449,None,sing23,001,2019_Nov_05_1650,ProdFawcett_Revision2019,3.2.4,59.87676049010337,
,,,,17,0,17,0,,,,,,,,,,,,,3498.908907445497,None,,,,,,,,,,,,,,,,,,,,,,society,C_sing,17,293,3493.75975679548,None,3493.75975679548,None,3493.75975679548,None,6,1.7517562356078997,3493.75975679548,None,3495.574574236525,None,3495.574574236525,None,3496.091421907069,None,3496.091421907069,None,3496.091421907069,None,r,2.7719045841367915,3496.091421907069,None,sing23,001,2019_Nov_05_1650,ProdFawcett_Revision2019,3.2.4,59.87676049010337,
,,,,18,0,18,0,,,,,,,,,,,,,3502.309825216187,None,,,,,,,,,,,,,,,,,,,,,,motion,D_new,18,194,3499.4263724575285,None,3499.4263724575285,None,3499.4263724575285,None,1,1.4129719474585727,3499.4263724575285,None,3500.8813964048168,None,3500.8813964048168,None,3501.4096734465566,None,3501.4096734465566,None,3501.4096734465566,None,n,0.8618918330175802,3501.4096734465566,None,sing23,001,2019_Nov_05_1650,ProdFawcett_Revision2019,3.2.4,59.87676049010337,
,,,,19,0,19,0,,,,,,,,,,,,,3506.127746470156,None,,,,,,,,,,,,,,,,,,,,,,machinery,D_new,19,175,3502.8272665920667,None,3502.8272665920667,None,3502.8272665920667,None,1,1.3480067799100652,3502.8272665920667,None,3504.227318840567,None,3504.227318840567,None,3504.743876656168,None,3504.743876656168,None,3504.743876656168,None,n,1.343493188964203,3504.743876656168,None,sing23,001,2019_Nov_05_1650,ProdFawcett_Revision2019,3.2.4,59.87676049010337,
,,,,20,0,20,0,,,,,,,,,,,,,3509.512129439623,None,,,,,,,,,,,,,,,,,,,,,,break,D_new,20,26,3506.644862225512,None,3506.644862225512,None,3506.644862225512,None,1,1.3460026745451614,3506.644862225512,None,3508.0450021770084,None,3508.0450021770084,None,3508.5619257324142,None,3508.5619257324142,None,3508.5619257324142,None,n,0.9095767245162278,3508.5619257324142,None,sing23,001,2019_Nov_05_1650,ProdFawcett_Revision2019,3.2.4,59.87676049010337,
,,,,21,0,21,0,,,,,,,,,,,,,3513.063366921735,None,,,,,,,,,,,,,,,,,,,,,,produce,D_new,21,239,3510.028920818586,None,3510.028920818586,None,3510.028920818586,None,1,1.609816197073087,3510.028920818586,None,3511.696292218752,None,3511.696292218752,None,3512.212888287613,None,3512.212888287613,None,3512.212888287613,None,n,0.8177567331586033,3512.212888287613,None,sing23,001,2019_Nov_05_1650,ProdFawcett_Revision2019,3.2.4,59.87676049010337,
,,,,22,0,22,0,,,,,,,,,,,,,3517.0645045717247,None,,,,,,,,,,,,,,,,,,,,,,history,C_sing,22,153,3513.580764135113,None,3513.580764135113,None,3513.580764135113,None,6,2.0817391304299235,3513.580764135113,None,3515.7034061080776,None,3515.7034061080776,None,3516.230894445558,None,3516.230894445558,None,3516.230894445558,None,f,0.7921984823187813,3516.230894445558,None,sing23,001,2019_Nov_05_1650,ProdFawcett_Revision2019,3.2.4,59.87676049010337,
,,,,23,0,23,0,,,,,,,,,,,,,3520.4321627169847,None,,,,,,,,,,,,,,,,,,,,,,broad,B_aloud,23,31,3517.5828882876085,None,3517.5828882876085,None,3517.5828882876085,None,1,1.1273552279453725,3517.5828882876085,None,3518.765100143035,None,3518.765100143035,None,3519.281953100697,None,3519.281953100697,None,3519.281953100697,None,n,1.1089668470667675,3519.281953100697,None,sing23,001,2019_Nov_05_1650,ProdFawcett_Revision2019,3.2.4,59.87676049010337,
,,,,24,0,24,0,,,,,,,,,,,,,3525.7172071904643,None,,,,,,,,,,,,,,,,,,,,,,universal,B_aloud,24,345,3520.9489973253803,None,3520.9489973253803,None,3520.9489973253803,None,6,1.6416738197440282,3520.9489973253803,None,3522.6496479442576,None,3522.6496479442576,None,3523.166363438475,None,3523.166363438475,None,3523.166363438475,None,r,2.5118498476222157,3523.166363438475,None,sing23,001,2019_Nov_05_1650,ProdFawcett_Revision2019,3.2.4,59.87676049010337,
,,,,25,0,25,0,,,,,,,,,,,,,3530.601973937941,None,,,,,,,,,,,,,,,,,,,,,,clear,D_new,25,52,3526.234803756932,None,3526.234803756932,None,3526.234803756932,None,1,2.5627757044276223,3526.234803756932,None,3528.841590159922,None,3528.841590159922,None,3529.3682658456964,None,3529.3682658456964,None,3529.3682658456964,None,n,1.1974164956482127,3529.3682658456964,None,sing23,001,2019_Nov_05_1650,ProdFawcett_Revision2019,3.2.4,59.87676049010337,
,,,,26,0,26,0,,,,,,,,,,,,,3534.803281084751,None,,,,,,,,,,,,,,,,,,,,,,income,B_aloud,26,159,3531.1196012938162,None,3531.1196012938162,None,3531.1196012938162,None,1,2.2298883497714996,3531.1196012938162,None,3533.402944268193,None,3533.402944268193,None,3533.919953660574,None,3533.919953660574,None,3533.919953660574,None,n,0.8372690801043063,3533.919953660574,None,sing23,001,2019_Nov_05_1650,ProdFawcett_Revision2019,3.2.4,59.87676049010337,
,,,,27,0,27,0,,,,,,,,,,,,,3538.2210101387464,None,,,,,,,,,,,,,,,,,,,,,,couch,D_new,27,70,3535.324322323897,None,3535.324322323897,None,3535.324322323897,None,1,1.240852148970589,3535.324322323897,None,3536.6093108167406,None,3536.6093108167406,None,3537.1374777633464,None,3537.1374777633464,None,3537.1374777633464,None,n,1.0440358897903934,3537.1374777633464,None,sing23,001,2019_Nov_05_1650,ProdFawcett_Revision2019,3.2.4,59.87676049010337,
,,,,28,0,28,0,,,,,,,,,,,,,3541.2219443926588,None,,,,,,,,,,,,,,,,,,,,,,waste,D_new,28,350,3538.7379542203853,None,3538.7379542203853,None,3538.7379542203853,None,1,1.1709637992316857,3538.7379542203853,None,3539.9716452074936,None,3539.9716452074936,None,3540.488555700751,None,3540.488555700751,None,3540.488555700751,None,n,0.6929719474865124,3540.488555700751,None,sing23,001,2019_Nov_05_1650,ProdFawcett_Revision2019,3.2.4,59.87676049010337,
,,,,29,0,29,0,,,,,,,,,,,,,3544.106337936246,None,,,,,,,,,,,,,,,,,,,,,,impact,D_new,29,157,3541.7396373702213,None,3541.7396373702213,None,3541.7396373702213,None,1,1.2011945636477321,3541.7396373702213,None,3542.995752317016,None,3542.995752317016,None,3543.5227781924186,None,3543.5227781924186,None,3543.5227781924186,None,n,0.5459930334473029,3543.5227781924186,None,sing23,001,2019_Nov_05_1650,ProdFawcett_Revision2019,3.2.4,59.87676049010337,
,,,,30,0,30,0,,,,,,,,,,,,,3546.9404910742305,None,,,,,,,,,,,,,,,,,,,,,,still,D_new,30,304,3544.623057473451,None,3544.623057473451,None,3544.623057473451,None,1,1.4535009640967473,3544.623057473451,None,3546.140169185819,None,3546.140169185819,None,3546.6569776700344,None,3546.6569776700344,None,3546.6569776700344,None,n,0.23552963871043175,3546.6569776700344,None,sing23,001,2019_Nov_05_1650,ProdFawcett_Revision2019,3.2.4,59.87676049010337,
,,,,31,0,31,0,,,,,,,,,,,,,3550.6083012999734,None,,,,,,,,,,,,,,,,,,,,,,reading,B_aloud,31,254,3547.457322572591,None,3547.457322572591,None,3547.457322572591,None,3,1.8115170741220936,3547.457322572591,None,3549.324577035499,None,3549.324577035499,None,3549.8271810661536,None,3549.8271810661536,None,3549.8271810661536,None,f,0.7453396156197414,3549.8271810661536,None,sing23,001,2019_Nov_05_1650,ProdFawcett_Revision2019,3.2.4,59.87676049010337,
,,,,32,0,32,0,,,,,,,,,,,,,3555.3263460223097,None,,,,,,,,,,,,,,,,,,,,,,audience,B_aloud,32,14,3551.1249505504966,None,3551.1249505504966,None,3551.1249505504966,None,3,2.2792850034311414,3551.1249505504966,None,3553.4590725882445,None,3553.4590725882445,None,3553.975915904739,None,3553.975915904739,None,3553.975915904739,None,f,1.3166016669711098,3553.975915904739,None,sing23,001,2019_Nov_05_1650,ProdFawcett_Revision2019,3.2.4,59.87676049010337,
,,,,33,0,33,0,,,,,,,,,,,,,3558.6773051564815,None,,,,,,,,,,,,,,,,,,,,,,tough,A_silent,33,333,3555.8435746718897,None,3555.8435746718897,None,3555.8435746718897,None,1,1.1684925670269877,3555.8435746718897,None,3557.0658872923814,None,3557.0658872923814,None,3557.5937979723094,None,3557.5937979723094,None,3557.5937979723094,None,n,1.0505327485734597,3557.5937979723094,None,sing23,001,2019_Nov_05_1650,ProdFawcett_Revision2019,3.2.4,59.87676049010337,
,,,,34,0,34,0,,,,,,,,,,,,,3561.9116654227255,None,,,,,,,,,,,,,,,,,,,,,,grade,D_new,34,140,3559.1943002425833,None,3559.1943002425833,None,3559.1943002425833,None,1,1.3779181439895183,3559.1943002425833,None,3560.628081109724,None,3560.628081109724,None,3561.1447558624204,None,3561.1447558624204,None,3561.1447558624204,None,n,0.7311155688948929,3561.1447558624204,None,sing23,001,2019_Nov_05_1650,ProdFawcett_Revision2019,3.2.4,59.87676049010337,
,,,,35,0,35,0,,,,,,,,,,,,,3565.829614666989,None,,,,,,,,,,,,,,,,,,,,,,interior,D_new,35,164,3562.429531629081,None,3562.429531629081,None,3562.429531629081,None,2,2.0068364744074643,3562.429531629081,None,3564.4959684642963,None,3564.4959684642963,None,3565.0126481930492,None,3565.0126481930492,None,3565.0126481930492,None,f,0.7756978913675994,3565.0126481930492,None,sing23,001,2019_Nov_05_1650,ProdFawcett_Revision2019,3.2.4,59.87676049010337,
,,,,36,0,36,0,,,,,,,,,,,,,3570.5145126578864,None,,,,,,,,,,,,,,,,,,,,,,error,D_new,36,117,3566.347478385316,None,3566.347478385316,None,3566.347478385316,None,1,2.8480636934982613,3566.347478385316,None,3569.2474025004776,None,3569.2474025004776,None,3569.7642669652123,None,3569.7642669652123,None,3569.7642669652123,None,n,0.7113463332643732,3569.7642669652123,None,sing23,001,2019_Nov_05_1650,ProdFawcett_Revision2019,3.2.4,59.87676049010337,
,,,,37,0,37,0,,,,,,,,,,,,,3573.165116315242,None,,,,,,,,,,,,,,,,,,,,,,clean,D_new,37,51,3571.031543198391,None,3571.031543198391,None,3571.031543198391,None,1,1.124454500270076,3571.031543198391,None,3572.214961746591,None,3572.214961746591,None,3572.7318271443946,None,3572.7318271443946,None,3572.7318271443946,None,n,0.3997347141848877,3572.7318271443946,None,sing23,001,2019_Nov_05_1650,ProdFawcett_Revision2019,3.2.4,59.87676049010337,
,,,,38,0,38,0,,,,,,,,,,,,,3576.9330991478637,None,,,,,,,,,,,,,,,,,,,,,,century,D_new,38,45,3573.682714747847,None,3573.682714747847,None,3573.682714747847,None,1,2.2088321825722232,3573.682714747847,None,3575.938384648878,None,3575.938384648878,None,3576.4661003296496,None,3576.4661003296496,None,3576.4661003296496,None,n,0.4332397213438526,3576.4661003296496,None,sing23,001,2019_Nov_05_1650,ProdFawcett_Revision2019,3.2.4,59.87676049010337,
,,,,39,0,39,0,,,,,,,,,,,,,3581.301017913851,None,,,,,,,,,,,,,,,,,,,,,,block,C_sing,39,25,3577.4499122970738,None,3577.4499122970738,None,3577.4499122970738,None,2,1.1688489768421277,3577.4499122970738,None,3578.670307893306,None,3578.670307893306,None,3579.2003753810422,None,3579.2003753810422,None,3579.2003753810422,None,n,2.0665553275030106,3579.2003753810422,None,sing23,001,2019_Nov_05_1650,ProdFawcett_Revision2019,3.2.4,59.87676049010337,
,,,,40,0,40,0,,,,,,,,,,,,,3584.3687367045786,None,,,,,,,,,,,,,,,,,,,,,,executive,D_new,40,122,3581.8183417303953,None,3581.8183417303953,None,3581.8183417303953,None,1,1.0882390992483124,3581.8183417303953,None,3582.957209678483,None,3582.957209678483,None,3583.4856615040917,None,3583.4856615040917,None,3583.4856615040917,None,n,0.8447888287482783,3583.4856615040917,None,sing23,001,2019_Nov_05_1650,ProdFawcett_Revision2019,3.2.4,59.87676049010337,
,,,,41,0,41,0,,,,,,,,,,,,,3587.7364315482555,None,,,,,,,,,,,,,,,,,,,,,,union,D_new,41,344,3584.88577346527,None,3584.88577346527,None,3584.88577346527,None,2,1.316989177139476,3584.88577346527,None,3586.2526671643136,None,3586.2526671643136,None,3586.7695422031684,None,3586.7695422031684,None,3586.7695422031684,None,n,0.9286888100905344,3586.7695422031684,None,sing23,001,2019_Nov_05_1650,ProdFawcett_Revision2019,3.2.4,59.87676049010337,
,,,,42,0,42,0,,,,,,,,,,,,,3592.187677427428,None,,,,,,,,,,,,,,,,,,,,,,childhood,A_silent,42,49,3588.2542567021446,None,3588.2542567021446,None,3588.2542567021446,None,1,1.83576133614406,3588.2542567021446,None,3590.153848976828,None,3590.153848976828,None,3590.670970952371,None,3590.670970952371,None,3590.670970952371,None,n,1.4834891459904611,3590.670970952371,None,sing23,001,2019_Nov_05_1650,ProdFawcett_Revision2019,3.2.4,59.87676049010337,
,,,,43,0,43,0,,,,,,,,,,,,,3596.4558552590897,None,,,,,,,,,,,,,,,,,,,,,,write,B_aloud,43,358,3592.7046078249114,None,3592.7046078249114,None,3592.7046078249114,None,6,2.17758008337114,3592.7046078249114,None,3594.9262729365146,None,3594.9262729365146,None,3595.455577844172,None,3595.455577844172,None,3595.455577844172,None,r,0.9540685451356694,3595.455577844172,None,sing23,001,2019_Nov_05_1650,ProdFawcett_Revision2019,3.2.4,59.87676049010337,
,,,,44,0,44,0,,,,,,,,,,,,,3600.023554456653,None,,,,,,,,,,,,,,,,,,,,,,reach,D_new,44,253,3596.9726612552768,None,3596.9726612552768,None,3596.9726612552768,None,1,1.6691472289385274,3596.9726612552768,None,3598.706537911319,None,3598.706537911319,None,3599.22331063007,None,3599.22331063007,None,3599.22331063007,None,n,0.7622115444391966,3599.22331063007,None,sing23,001,2019_Nov_05_1650,ProdFawcett_Revision2019,3.2.4,59.87676049010337,
,,,,45,0,45,0,,,,,,,,,,,,,3605.0084586676676,None,,,,,,,,,,,,,,,,,,,,,,recall,D_new,45,255,3600.541464203503,None,3600.541464203503,None,3600.541464203503,None,1,2.3959196367068216,3600.541464203503,None,3602.9911535112187,None,3602.9911535112187,None,3603.5084608447505,None,3603.5084608447505,None,3603.5084608447505,None,n,1.4611491571413353,3603.5084608447505,None,sing23,001,2019_Nov_05_1650,ProdFawcett_Revision2019,3.2.4,59.87676049010337,
,,,,46,0,46,0,,,,,,,,,,,,,3608.759675623616,None,,,,,,,,,,,,,,,,,,,,,,engineer,D_new,46,114,3605.5265540834516,None,3605.5265540834516,None,3605.5265540834516,None,1,1.2987024942412972,3605.5265540834516,None,3606.847745537176,None,3606.847745537176,None,3607.360923368833,None,3607.360923368833,None,3607.360923368833,None,n,1.3520065932534635,3607.360923368833,None,sing23,001,2019_Nov_05_1650,ProdFawcett_Revision2019,3.2.4,59.87676049010337,
,,,,47,0,47,0,,,,,,,,,,,,,3613.3276351309614,None,,,,,,,,,,,,,,,,,,,,,,watch,B_aloud,47,351,3609.2764533184236,None,3609.2764533184236,None,3609.2764533184236,None,6,1.836349132237956,3609.2764533184236,None,3611.1769674068782,None,3611.1769674068782,None,3611.6937849101378,None,3611.6937849101378,None,3611.6937849101378,None,r,1.5868958760984242,3611.6937849101378,None,sing23,001,2019_Nov_05_1650,ProdFawcett_Revision2019,3.2.4,59.87676049010337,
,,,,48,0,48,0,,,,,,,,,,,,,3617.2290576600935,None,,,,,,,,,,,,,,,,,,,,,,people,C_sing,48,216,3613.844442682108,None,3613.844442682108,None,3613.844442682108,None,6,2.2285709398565814,3613.844442682108,None,3616.1285871120635,None,3616.1285871120635,None,3616.645440380671,None,3616.645440380671,None,3616.645440380671,None,r,0.5396852646954358,3616.645440380671,None,sing23,001,2019_Nov_05_1650,ProdFawcett_Revision2019,3.2.4,59.87676049010337,
,,,,49,0,49,0,,,,,,,,,,,,,3620.3965145860566,None,,,,,,,,,,,,,,,,,,,,,,poetry,D_new,49,225,3617.746374945622,None,3617.746374945622,None,3617.746374945622,None,1,1.2229703925549984,3617.746374945622,None,3619.017445107922,None,3619.017445107922,None,3619.5462293960154,None,3619.5462293960154,None,3619.5462293960154,None,n,0.8069459475809708,3619.5462293960154,None,sing23,001,2019_Nov_05_1650,ProdFawcett_Revision2019,3.2.4,59.87676049010337,
,,,,50,0,50,0,,,,,,,,,,,,,3623.3641627791803,None,,,,,,,,,,,,,,,,,,,,,,dance,B_aloud,50,84,3620.9133644336835,None,3620.9133644336835,None,3620.9133644336835,None,1,1.2868022640468553,3620.9133644336835,None,3622.252958885394,None,3622.252958885394,None,3622.780630403664,None,3622.780630403664,None,3622.780630403664,None,n,0.5402985630789772,3622.780630403664,None,sing23,001,2019_Nov_05_1650,ProdFawcett_Revision2019,3.2.4,59.87676049010337,
,,,,51,0,51,0,,,,,,,,,,,,,3627.798756297794,None,,,,,,,,,,,,,,,,,,,,,,rural,C_sing,51,269,3623.881629968295,None,3623.881629968295,None,3623.881629968295,None,6,1.7428220439469442,3623.881629968295,None,3625.670959134237,None,3625.670959134237,None,3626.198414194165,None,3626.198414194165,None,3626.198414194165,None,r,1.5534213472856209,3626.198414194165,None,sing23,001,2019_Nov_05_1650,ProdFawcett_Revision2019,3.2.4,59.87676049010337,
,,,,52,0,52,0,,,,,,,,,,,,,3631.016513964045,None,,,,,,,,,,,,,,,,,,,,,,interview,D_new,52,165,3628.3172361137113,None,3628.3172361137113,None,3628.3172361137113,None,1,1.3149735647020862,3628.3172361137113,None,3629.682730608969,None,3629.682730608969,None,3630.1995002176845,None,3630.1995002176845,None,3630.1995002176845,None,n,0.7765854947501794,3630.1995002176845,None,sing23,001,2019_Nov_05_1650,ProdFawcett_Revision2019,3.2.4,59.87676049010337,
,,,,53,0,53,0,,,,,,,,,,,,,3634.134209118667,None,,,,,,,,,,,,,,,,,,,,,,rapid,A_silent,53,252,3631.5373036013916,None,3631.5373036013916,None,3631.5373036013916,None,1,1.4944622752955183,3631.5373036013916,None,3633.0837895751465,None,3633.0837895751465,None,3633.6006332027027,None,3633.6006332027027,None,3633.6006332027027,None,n,0.49500839703250676,3633.6006332027027,None,sing23,001,2019_Nov_05_1650,ProdFawcett_Revision2019,3.2.4,59.87676049010337,
,,,,54,0,54,0,,,,,,,,,,,,,3638.6188757230993,None,,,,,,,,,,,,,,,,,,,,,,accident,D_new,54,0,3634.6509861914674,None,3634.6509861914674,None,3634.6509861914674,None,6,1.957303601433523,3634.6509861914674,None,3636.6574320457876,None,3636.6574320457876,None,3637.18516731984,None,3637.18516731984,None,3637.18516731984,None,r,1.398232257226482,3637.18516731984,None,sing23,001,2019_Nov_05_1650,ProdFawcett_Revision2019,3.2.4,59.87676049010337,
,,,,55,0,55,0,,,,,,,,,,,,,3643.3203725819476,None,,,,,,,,,,,,,,,,,,,,,,season,B_aloud,55,277,3639.135760714067,None,3639.135760714067,None,3639.135760714067,None,6,2.631513031083159,3639.135760714067,None,3641.8198426323943,None,3641.8198426323943,None,3642.3367845369503,None,3642.3367845369503,None,3642.3367845369503,None,r,0.942622690810822,3642.3367845369503,None,sing23,001,2019_Nov_05_1650,ProdFawcett_Revision2019,3.2.4,59.87676049010337,
,,,,56,0,56,0,,,,,,,,,,,,,3646.4714013808407,None,,,,,,,,,,,,,,,,,,,,,,election,A_silent,56,109,3643.838381849928,None,3643.838381849928,None,3643.838381849928,None,1,1.44135504134465,3643.838381849928,None,3645.326394849806,None,3645.326394849806,None,3645.85435591219,None,3645.85435591219,None,3645.85435591219,None,n,0.5768666417570785,3645.85435591219,None,sing23,001,2019_Nov_05_1650,ProdFawcett_Revision2019,3.2.4,59.87676049010337,
,,,,57,0,57,0,,,,,,,,,,,,,3651.6729504882824,None,,,,,,,,,,,,,,,,,,,,,,testimony,A_silent,57,325,3646.990587174194,None,3646.990587174194,None,3646.990587174194,None,6,3.4407171736238524,3646.990587174194,None,3650.489233376924,None,3650.489233376924,None,3651.0062387262005,None,3651.0062387262005,None,3651.0062387262005,None,r,0.632748025120236,3651.0062387262005,None,sing23,001,2019_Nov_05_1650,ProdFawcett_Revision2019,3.2.4,59.87676049010337,
,,,,58,0,58,0,,,,,,,,,,,,,3655.740873297327,None,,,,,,,,,,,,,,,,,,,,,,master,C_sing,58,180,3652.1896208870457,None,3652.1896208870457,None,3652.1896208870457,None,1,2.0576273559127003,3652.1896208870457,None,3654.295389998122,None,3654.295389998122,None,3654.823792374227,None,3654.823792374227,None,3654.823792374227,None,n,0.8704310505418107,3654.823792374227,None,sing23,001,2019_Nov_05_1650,ProdFawcett_Revision2019,3.2.4,59.87676049010337,
,,,,59,0,59,0,,,,,,,,,,,,,3658.8750519375317,None,,,,,,,,,,,,,,,,,,,,,,agreement,D_new,59,5,3656.2580223301193,None,3656.2580223301193,None,3656.2580223301193,None,1,1.3483656777534634,3656.2580223301193,None,3657.6580413013,None,3657.6580413013,None,3658.174926603213,None,3658.174926603213,None,3658.174926603213,None,n,0.6632506065070629,3658.174926603213,None,sing23,001,2019_Nov_05_1650,ProdFawcett_Revision2019,3.2.4,59.87676049010337,
,,,,60,0,60,0,,,,,,,,,,,,,3663.5264029358514,None,,,,,,,,,,,,,,,,,,,,,,welcome,C_sing,60,354,3659.392172980006,None,3659.392172980006,None,3659.392172980006,None,6,1.9584303663577884,3659.392172980006,None,3661.409266965231,None,3661.409266965231,None,3661.9260990857147,None,3661.9260990857147,None,3661.9260990857147,None,r,1.5601778939599171,3661.9260990857147,None,sing23,001,2019_Nov_05_1650,ProdFawcett_Revision2019,3.2.4,59.87676049010337,
,,,,61,0,61,0,,,,,,,,,,,,,3666.344100889517,None,,,,,,,,,,,,,,,,,,,,,,report,D_new,61,259,3664.0443251228426,None,3664.0443251228426,None,3664.0443251228426,None,1,0.9533373763551936,3664.0443251228426,None,3665.0603837780654,None,3665.0603837780654,None,3665.577255084878,None,3665.577255084878,None,3665.577255084878,None,n,0.7328578092856333,3665.577255084878,None,sing23,001,2019_Nov_05_1650,ProdFawcett_Revision2019,3.2.4,59.87676049010337,
,,,,62,0,62,0,,,,,,,,,,,,,3669.1782972569345,None,,,,,,,,,,,,,,,,,,,,,,object,D_new,62,204,3666.849616221967,None,3666.849616221967,None,3666.849616221967,None,1,1.2841385209467262,3666.849616221967,None,3668.1847633265425,None,3668.1847633265425,None,3668.7150510045467,None,3668.7150510045467,None,3668.7150510045467,None,n,0.4265795857645571,3668.7150510045467,None,sing23,001,2019_Nov_05_1650,ProdFawcett_Revision2019,3.2.4,59.87676049010337,
,,,,63,0,63,0,,,,,,,,,,,,,3671.8791179946857,None,,,,,,,,,,,,,,,,,,,,,,education,D_new,63,108,3669.69731293153,None,3669.69731293153,None,3669.69731293153,None,1,1.29232972569298,3669.69731293153,None,3671.034464141354,None,3671.034464141354,None,3671.562400634517,None,3671.562400634517,None,3671.562400634517,None,n,0.2591755302855745,3671.562400634517,None,sing23,001,2019_Nov_05_1650,ProdFawcett_Revision2019,3.2.4,59.87676049010337,
,,,,64,0,64,0,,,,,,,,,,,,,3674.7300609566737,None,,,,,,,,,,,,,,,,,,,,,,trash,D_new,64,337,3672.3995275860652,None,3672.3995275860652,None,3672.3995275860652,None,2,1.190011507133022,3672.3995275860652,None,3673.6463746345835,None,3673.6463746345835,None,3674.1682792188367,None,3674.1682792188367,None,3674.1682792188367,None,f,0.5168871679343283,3674.1682792188367,None,sing23,001,2019_Nov_05_1650,ProdFawcett_Revision2019,3.2.4,59.87676049010337,
,,,,65,0,65,0,,,,,,,,,,,,,3678.681305591832,None,,,,,,,,,,,,,,,,,,,,,,entrance,B_aloud,65,115,3675.2470479566837,None,3675.2470479566837,None,3675.2470479566837,None,5,2.0460266219452024,3675.2470479566837,None,3677.347587858443,None,3677.347587858443,None,3677.864352802164,None,3677.864352802164,None,3677.864352802164,None,f,0.7732935248641297,3677.864352802164,None,sing23,001,2019_Nov_05_1650,ProdFawcett_Revision2019,3.2.4,59.87676049010337,
,,,,66,0,66,0,,,,,,,,,,,,,3681.815553896944,None,,,,,,,,,,,,,,,,,,,,,,sunset,C_sing,66,315,3679.1994470361387,None,3679.1994470361387,None,3679.1994470361387,None,1,1.6293288549641147,3679.1994470361387,None,3680.870964110247,None,3680.870964110247,None,3681.3986698389053,None,3681.3986698389053,None,3681.3986698389053,None,n,0.382288362365216,3681.3986698389053,None,sing23,001,2019_Nov_05_1650,ProdFawcett_Revision2019,3.2.4,59.87676049010337,
,,,,67,0,67,0,,,,,,,,,,,,,3684.466355663375,None,,,,,,,,,,,,,,,,,,,,,,heavy,A_silent,67,151,3682.3326886235736,None,3682.3326886235736,None,3682.3326886235736,None,1,1.0641301238210872,3682.3326886235736,None,3683.4494153137784,None,3683.4494153137784,None,3683.966244013165,None,3683.966244013165,None,3683.966244013165,None,n,0.4624037444591522,3683.966244013165,None,sing23,001,2019_Nov_05_1650,ProdFawcett_Revision2019,3.2.4,59.87676049010337,
,,,,68,0,68,0,,,,,,,,,,,,,3687.9507380108116,None,,,,,,,,,,,,,,,,,,,,,,speech,B_aloud,68,298,3684.9844489021925,None,3684.9844489021925,None,3684.9844489021925,None,6,1.34855103562586,3684.9844489021925,None,3686.3835525907343,None,3686.3835525907343,None,3686.900602724403,None,3686.900602724403,None,3686.900602724403,None,f,1.0086284754797816,3686.900602724403,None,sing23,001,2019_Nov_05_1650,ProdFawcett_Revision2019,3.2.4,59.87676049010337,
,,,,69,0,69,0,,,,,,,,,,,,,3690.4849511724897,None,,,,,,,,,,,,,,,,,,,,,,comfort,A_silent,69,59,3688.4676597001962,None,3688.4676597001962,None,3688.4676597001962,None,1,1.3846448343247175,3688.4676597001962,None,3689.906000186573,None,3689.906000186573,None,3690.418306276086,None,3690.418306276086,None,3690.418306276086,None,n,0.02628568757791072,3690.418306276086,None,sing23,001,2019_Nov_05_1650,ProdFawcett_Revision2019,3.2.4,59.87676049010337,
,,,,70,0,70,0,,,,,,,,,,,,,3692.885637556785,None,,,,,,,,,,,,,,,,,,,,,,background,D_new,70,16,3691.003349194536,None,3691.003349194536,None,3691.003349194536,None,1,1.1448927038582042,3691.003349194536,None,3692.2020501337247,None,3692.2020501337247,None,3692.718879144173,None,3692.718879144173,None,3692.718879144173,None,n,0.12569073832128197,3692.718879144173,None,sing23,001,2019_Nov_05_1650,ProdFawcett_Revision2019,3.2.4,59.87676049010337,
,,,,71,0,71,0,,,,,,,,,,,,,3695.8364788206527,None,,,,,,,,,,,,,,,,,,,,,,worker,B_aloud,71,356,3693.4023281707196,None,3693.4023281707196,None,3693.4023281707196,None,3,1.1297773217083886,3693.4023281707196,None,3694.5861989177065,None,3694.5861989177065,None,3695.103049698402,None,3695.103049698402,None,3695.103049698402,None,f,0.6849340673070401,3695.103049698402,None,sing23,001,2019_Nov_05_1650,ProdFawcett_Revision2019,3.2.4,59.87676049010337,
,,,,72,0,72,0,,,,,,,,,,,,,3697.9705554519314,None,,,,,,,,,,,,,,,,,,,,,,phrase,D_new,72,220,3696.353511227295,None,3696.353511227295,None,3696.353511227295,None,1,0.9464100889163092,3696.353511227295,None,3697.343205510988,None,3697.343205510988,None,3697.870417366503,None,3697.870417366503,None,3697.870417366503,None,n,0.06140915595460683,3697.870417366503,None,sing23,001,2019_Nov_05_1650,ProdFawcett_Revision2019,3.2.4,59.87676049010337,
,,,,73,0,73,0,,,,,,,,,,,,,3700.9215618586168,None,,,,,,,,,,,,,,,,,,,,,,center,A_silent,73,44,3698.4874575480353,None,3698.4874575480353,None,3698.4874575480353,None,1,1.044642657157965,3698.4874575480353,None,3699.5877281209687,None,3699.5877281209687,None,3700.1046056478517,None,3700.1046056478517,None,3700.1046056478517,None,n,0.7710259999148548,3700.1046056478517,None,sing23,001,2019_Nov_05_1650,ProdFawcett_Revision2019,3.2.4,59.87676049010337,
,,,,74,0,74,0,,,,,,,,,,,,,3703.7723303476814,None,,,,,,,,,,,,,,,,,,,,,,bucket,D_new,74,33,3701.438206132967,None,3701.438206132967,None,3701.438206132967,None,1,1.1013883186969906,3701.438206132967,None,3702.6054885862395,None,3702.6054885862395,None,3703.1220765690086,None,3703.1220765690086,None,3703.1220765690086,None,n,0.6174743422307074,3703.1220765690086,None,sing23,001,2019_Nov_05_1650,ProdFawcett_Revision2019,3.2.4,59.87676049010337,
,,,,75,0,75,0,,,,,,,,,,,,,3706.8900335883955,None,,,,,,,,,,,,,,,,,,,,,,minor,C_sing,75,191,3704.2892047646455,None,3704.2892047646455,None,3704.2892047646455,None,2,1.130269017885439,3704.2892047646455,None,3705.472856565262,None,3705.472856565262,None,3705.989782919758,None,3705.989782919758,None,3705.989782919758,None,n,0.8534717297879979,3705.989782919758,None,sing23,001,2019_Nov_05_1650,ProdFawcett_Revision2019,3.2.4,59.87676049010337,
,,,,76,0,76,0,,,,,,,,,,,,,3709.724112396594,None,,,,,,,,,,,,,,,,,,,,,,tennis,D_new,76,323,3707.40696305281,None,3707.40696305281,None,3707.40696305281,None,1,1.0362253530183807,3707.40696305281,None,3708.5072255396517,None,3708.5072255396517,None,3709.024031224777,None,3709.024031224777,None,3709.024031224777,None,n,0.6676071406109259,3709.024031224777,None,sing23,001,2019_Nov_05_1650,ProdFawcett_Revision2019,3.2.4,59.87676049010337,
,,,,77,0,77,0,,,,,,,,,,,,,3712.191648006439,None,,,,,,,,,,,,,,,,,,,,,,attack,A_silent,77,13,3710.2423256826587,None,3710.2423256826587,None,3710.2423256826587,None,1,0.9771381476894021,3710.2423256826587,None,3711.2747602164745,None,3711.2747602164745,None,3711.791391117731,None,3711.791391117731,None,3711.791391117731,None,n,0.36376873799599707,3711.791391117731,None,sing23,001,2019_Nov_05_1650,ProdFawcett_Revision2019,3.2.4,59.87676049010337,
,,,,78,0,78,0,,,,,,,,,,,,,3715.8762262860546,None,,,,,,,,,,,,,,,,,,,,,,oxygen,B_aloud,78,209,3712.708500653156,None,3712.708500653156,None,3712.708500653156,None,5,1.6071487218141556,3712.708500653156,None,3714.3756394227967,None,3714.3756394227967,None,3714.8925371649675,None,3714.8925371649675,None,3714.8925371649675,None,f,0.9427520681638271,3714.8925371649675,None,sing23,001,2019_Nov_05_1650,ProdFawcett_Revision2019,3.2.4,59.87676049010337,
,,,,79,0,79,0,,,,,,,,,,,,,3718.4103013621643,None,,,,,,,,,,,,,,,,,,,,,,research,D_new,79,261,3716.3943929215893,None,3716.3943929215893,None,3716.3943929215893,None,1,1.0409233687678352,3716.3943929215893,None,3717.4932061330182,None,3717.4932061330182,None,3718.0102428935934,None,3718.0102428935934,None,3718.0102428935934,None,n,0.3607597809750587,3718.0102428935934,None,sing23,001,2019_Nov_05_1650,ProdFawcett_Revision2019,3.2.4,59.87676049010337,
,,,,80,0,80,0,,,,,,,,,,,,,3720.7608848044183,None,,,,,,,,,,,,,,,,,,,,,,stand,D_new,80,302,3718.92731821863,None,3718.92731821863,None,3718.92731821863,None,1,0.6918604217935354,3718.92731821863,None,3719.662345275865,None,3719.662345275865,None,3720.1940250047483,None,3720.1940250047483,None,3720.1940250047483,None,n,0.5284748397534713,3720.1940250047483,None,sing23,001,2019_Nov_05_1650,ProdFawcett_Revision2019,3.2.4,59.87676049010337,
,,,,81,0,81,0,,,,,,,,,,,,,3723.011671020766,None,,,,,,,,,,,,,,,,,,,,,,direction,C_sing,81,94,3721.2780058468925,None,3721.2780058468925,None,3721.2780058468925,None,1,0.796533246175386,3721.2780058468925,None,3722.117920942954,None,3722.117920942954,None,3722.644945263397,None,3722.644945263397,None,3722.644945263397,None,n,0.3173427877482027,3722.644945263397,None,sing23,001,2019_Nov_05_1650,ProdFawcett_Revision2019,3.2.4,59.87676049010337,
,,,,82,0,82,0,,,,,,,,,,,,,3725.16238166322,None,,,,,,,,,,,,,,,,,,,,,,portion,D_new,82,228,3723.5284962990554,None,3723.5284962990554,None,3723.5284962990554,None,1,0.6746183990035206,3723.5284962990554,None,3724.2513755676337,None,3724.2513755676337,None,3724.7786940971855,None,3724.7786940971855,None,3724.7786940971855,None,n,0.3355629160068929,3724.7786940971855,None,sing23,001,2019_Nov_05_1650,ProdFawcett_Revision2019,3.2.4,59.87676049010337,
,,,,83,0,83,0,,,,,,,,,,,,,3727.2961382720387,None,,,,,,,,,,,,,,,,,,,,,,literature,A_silent,83,173,3725.680780618335,None,3725.680780618335,None,3725.680780618335,None,1,0.7295543322106823,3725.680780618335,None,3726.4627253218787,None,3726.4627253218787,None,3726.979574236553,None,3726.979574236553,None,3726.979574236553,None,n,0.2785706288414076,3726.979574236553,None,sing23,001,2019_Nov_05_1650,ProdFawcett_Revision2019,3.2.4,59.87676049010337,
,,,,84,0,84,0,,,,,,,,,,,,,3729.3969030291773,None,,,,,,,,,,,,,,,,,,,,,,route,D_new,84,267,3727.812981899595,None,3727.812981899595,None,3727.812981899595,None,1,0.7653128692181781,3727.812981899595,None,3728.629973253701,None,3728.629973253701,None,3729.1469512346666,None,3729.1469512346666,None,3729.1469512346666,None,n,0.2078606082359329,3729.1469512346666,None,sing23,001,2019_Nov_05_1650,ProdFawcett_Revision2019,3.2.4,59.87676049010337,
,,,,85,0,85,0,,,,,,,,,,,,,3731.5308704982745,None,,,,,,,,,,,,,,,,,,,,,,column,D_new,85,57,3729.91368663311,None,3729.91368663311,None,3729.91368663311,None,1,0.7122625489719212,3729.91368663311,None,3730.669022827642,None,3730.669022827642,None,3731.1973838403355,None,3731.1973838403355,None,3731.1973838403355,None,n,0.30078341730404645,3731.1973838403355,None,sing23,001,2019_Nov_05_1650,ProdFawcett_Revision2019,3.2.4,59.87676049010337,
,,,,86,0,86,0,,,,,,,,,,,,,3733.6983373763505,None,,,,,,,,,,,,,,,,,,,,,,treatment,D_new,86,339,3732.0479249859927,None,3732.0479249859927,None,3732.0479249859927,None,1,0.6423692230600864,3732.0479249859927,None,3732.738022019039,None,3732.738022019039,None,3733.2647428002674,None,3733.2647428002674,None,3733.2647428002674,None,n,0.3934073520358652,3733.2647428002674,None,sing23,001,2019_Nov_05_1650,ProdFawcett_Revision2019,3.2.4,59.87676049010337,
,,,,87,0,87,0,,,,,,,,,,,,,3737.266019468778,None,,,,,,,,,,,,,,,,,,,,,,novel,B_aloud,87,202,3734.215162343695,None,3734.215162343695,None,3734.215162343695,None,6,1.3864271941129118,3734.215162343695,None,3735.6657644461375,None,3735.6657644461375,None,3736.1823287927546,None,3736.1823287927546,None,3736.1823287927546,None,f,1.0352500466397032,3736.1823287927546,None,sing23,001,2019_Nov_05_1650,ProdFawcett_Revision2019,3.2.4,59.87676049010337,
,,,,88,0,88,0,,,,,,,,,,,,,3740.3671393917175,None,,,,,,,,,,,,,,,,,,,,,,gesture,B_aloud,88,137,3737.7841578030493,None,3737.7841578030493,None,3737.7841578030493,None,6,1.385216769296676,3737.7841578030493,None,3739.221186166629,None,3739.221186166629,None,3739.7503508117516,None,3739.7503508117516,None,3739.7503508117516,None,f,0.5790505069307983,3739.7503508117516,None,sing23,001,2019_Nov_05_1650,ProdFawcett_Revision2019,3.2.4,59.87676049010337,
,,,,89,0,89,0,,,,,,,,,,,,,3743.0011513342615,None,,,,,,,,,,,,,,,,,,,,,,sleep,D_new,89,290,3740.883881321177,None,3740.883881321177,None,3740.883881321177,None,1,1.1901962429983541,3740.883881321177,None,3742.1235908441013,None,3742.1235908441013,None,3742.6512760465266,None,3742.6512760465266,None,3742.6512760465266,None,n,0.31032251042779535,3742.6512760465266,None,sing23,001,2019_Nov_05_1650,ProdFawcett_Revision2019,3.2.4,59.87676049010337,
,,,,90,0,90,0,,,,,,,,,,,,,3745.9521337936167,None,,,,,,,,,,,,,,,,,,,,,,appearance,D_new,90,10,3743.520240716636,None,3743.520240716636,None,3743.520240716636,None,1,1.248884120141156,3743.520240716636,None,3744.8351144492626,None,3744.8351144492626,None,3745.352254462894,None,3745.352254462894,None,3745.352254462894,None,n,0.5612281520152465,3745.352254462894,None,sing23,001,2019_Nov_05_1650,ProdFawcett_Revision2019,3.2.4,59.87676049010337,
,,,,91,0,91,0,,,,,,,,,,,,,3748.586322074989,None,,,,,,,,,,,,,,,,,,,,,,appeal,D_new,91,9,3746.4702606208157,None,3746.4702606208157,None,3746.4702606208157,None,1,1.0430982147809118,3746.4702606208157,None,3747.556953411782,None,3747.556953411782,None,3748.0860695403535,None,3748.0860695403535,None,3748.0860695403535,None,n,0.46722025249619037,3748.0860695403535,None,sing23,001,2019_Nov_05_1650,ProdFawcett_Revision2019,3.2.4,59.87676049010337,
,,,,92,0,92,0,,,,,,,,,,,,,3750.786940349615,None,,,,,,,,,,,,,,,,,,,,,,smooth,A_silent,92,292,3749.1052453815937,None,3749.1052453815937,None,3749.1052453815937,None,1,0.7355175095144659,3749.1052453815937,None,3749.8935112272156,None,3749.8935112272156,None,3750.420188468066,None,3750.420188468066,None,3750.420188468066,None,n,0.3253402377013117,3750.420188468066,None,sing23,001,2019_Nov_05_1650,ProdFawcett_Revision2019,3.2.4,59.87676049010337,
,,,,93,0,93,0,,,,,,,,,,,,,3752.854143496952,None,,,,,,,,,,,,,,,,,,,,,,disease,A_silent,93,97,3751.303610748262,None,3751.303610748262,None,3751.303610748262,None,1,0.6811451141256839,3751.303610748262,None,3752.008906512405,None,3752.008906512405,None,3752.537505131564,None,3752.537505131564,None,3752.537505131564,None,n,0.27916775515768677,3752.537505131564,None,sing23,001,2019_Nov_05_1650,ProdFawcett_Revision2019,3.2.4,59.87676049010337,
,,,,94,0,94,0,,,,,,,,,,,,,3757.088789886213,None,,,,,,,,,,,,,,,,,,,,,,close,B_aloud,94,53,3753.3713301611133,None,3753.3713301611133,None,3753.3713301611133,None,4,2.4291917025111616,3753.3713301611133,None,3755.855240716599,None,3755.855240716599,None,3756.371923866449,None,3756.371923866449,None,3756.371923866449,None,f,0.6684396964265034,3756.371923866449,None,sing23,001,2019_Nov_05_1650,ProdFawcett_Revision2019,3.2.4,59.87676049010337,
,,,,95,0,95,0,,,,,,,,,,,,,3760.2064029359026,None,,,,,,,,,,,,,,,,,,,,,,management,D_new,95,177,3757.607353984029,None,3757.607353984029,None,3757.607353984029,None,1,1.0894684953382239,3757.607353984029,None,3758.745864589233,None,3758.745864589233,None,3759.2732450084295,None,3759.2732450084295,None,3759.2732450084295,None,n,0.8949819618137553,3759.2732450084295,None,sing23,001,2019_Nov_05_1650,ProdFawcett_Revision2019,3.2.4,59.87676049010337,
,,,,96,0,96,0,,,,,,,,,,,,,3764.7912947067525,None,,,,,,,,,,,,,,,,,,,,,,budget,B_aloud,96,34,3760.723201468005,None,3760.723201468005,None,3760.723201468005,None,1,2.852900416823104,3760.723201468005,None,3763.640850905096,None,3763.640850905096,None,3764.157798096654,None,3764.157798096654,None,3764.157798096654,None,n,0.586100640706718,3764.157798096654,None,sing23,001,2019_Nov_05_1650,ProdFawcett_Revision2019,3.2.4,59.87676049010337,
,,,,97,0,97,0,,,,,,,,,,,,,3766.9252792809857,None,,,,,,,,,,,,,,,,,,,,,,judge,C_sing,97,166,3765.3114206631435,None,3765.3114206631435,None,3765.3114206631435,None,1,0.7053461467148736,3765.3114206631435,None,3766.0656888723606,None,3766.0656888723606,None,3766.59404584195,None,3766.59404584195,None,3766.59404584195,None,n,0.2857386327814311,3766.59404584195,None,sing23,001,2019_Nov_05_1650,ProdFawcett_Revision2019,3.2.4,59.87676049010337,
,,,,98,0,98,0,,,,,,,,,,,,,3769.1593388069887,None,,,,,,,,,,,,,,,,,,,,,,drama,B_aloud,98,103,3767.442134104669,None,3767.442134104669,None,3767.442134104669,None,1,0.6375825713621452,3767.442134104669,None,3768.132607762702,None,3768.132607762702,None,3768.659150028019,None,3768.659150028019,None,3768.659150028019,None,n,0.4525082416366786,3768.659150028019,None,sing23,001,2019_Nov_05_1650,ProdFawcett_Revision2019,3.2.4,59.87676049010337,
,,,,99,0,99,0,,,,,,,,,,,,,3771.0930325931404,None,,,,,,,,,,,,,,,,,,,,,,touch,B_aloud,99,332,3769.676376811578,None,3769.676376811578,None,3769.676376811578,None,1,0.5242007215274498,3769.676376811578,None,3770.259535672143,None,3770.259535672143,None,3770.7765438203933,None,3770.7765438203933,None,3770.7765438203933,None,n,0.2709889905527234,3770.7765438203933,None,sing23,001,2019_Nov_05_1650,ProdFawcett_Revision2019,3.2.4,59.87676049010337,
,,,,100,0,100,0,,,,,,,,,,,,,3773.0604898302117,None,,,,,,,,,,,,,,,,,,,,,,ground,A_silent,100,142,3771.6103794240626,None,3771.6103794240626,None,3771.6103794240626,None,1,0.5896858866326511,3771.6103794240626,None,3772.2483855818864,None,3772.2483855818864,None,3772.7769658518955,None,3772.7769658518955,None,3772.7769658518955,None,n,0.24658082972746342,3772.7769658518955,None,sing23,001,2019_Nov_05_1650,ProdFawcett_Revision2019,3.2.4,59.87676049010337,
,,,,101,0,101,0,,,,,,,,,,,,,3774.894447036204,None,,,,,,,,,,,,,,,,,,,,,,under,A_silent,101,343,3773.577466878225,None,3773.577466878225,None,3773.577466878225,None,1,0.5502369845053181,3773.577466878225,None,3774.194194190437,None,3774.194194190437,None,3774.71102786588,None,3774.71102786588,None,3774.71102786588,None,n,0.14464918826706707,3774.71102786588,None,sing23,001,2019_Nov_05_1650,ProdFawcett_Revision2019,3.2.4,59.87676049010337,
,,,,102,0,102,0,,,,,,,,,,,,,3776.7948494744487,None,,,,,,,,,,,,,,,,,,,,,,military,D_new,102,190,3775.4132549605565,None,3775.4132549605565,None,3775.4132549605565,None,1,0.714500839705579,3775.4132549605565,None,3776.1781187411398,None,3776.1781187411398,None,3776.695109473192,None,3776.695109473192,None,3776.695109473192,None,n,0.05709056416526437,3776.695109473192,None,sing23,001,2019_Nov_05_1650,ProdFawcett_Revision2019,3.2.4,59.87676049010337,
,,,,103,0,103,0,,,,,,,,,,,,,3780.6462412141263,None,,,,,,,,,,,,,,,,,,,,,,detective,D_new,103,92,3777.3119011631934,None,3777.3119011631934,None,3777.3119011631934,None,1,0.6633644335670397,3777.3119011631934,None,3778.0286175903166,None,3778.0286175903166,None,3778.5455140884733,None,3778.5455140884733,None,3778.5455140884733,None,n,2.053477327921428,3778.5455140884733,None,sing23,001,2019_Nov_05_1650,ProdFawcett_Revision2019,3.2.4,59.87676049010337,
,,,,104,0,104,0,,,,,,,,,,,,,3784.0304450457916,None,,,,,,,,,,,,,,,,,,,,,,symbol,D_new,104,321,3781.1680164210266,None,3781.1680164210266,None,3781.1680164210266,None,2,0.9749968900578097,3781.1680164210266,None,3782.196594824898,None,3782.196594824898,None,3782.7135333084734,None,3782.7135333084734,None,3782.7135333084734,None,f,1.277723766863346,3782.7135333084734,None,sing23,001,2019_Nov_05_1650,ProdFawcett_Revision2019,3.2.4,59.87676049010337,
,,,,105,0,105,0,,,,,,,,,,,,,3786.7147916278336,None,,,,,,,,,,,,,,,,,,,,,,provision,D_new,105,243,3784.547864029417,None,3784.547864029417,None,3784.547864029417,None,1,0.994933134294115,3784.547864029417,None,3785.5977284319233,None,3785.5977284319233,None,3786.1146634944016,None,3786.1146634944016,None,3786.1146634944016,None,n,0.5566834608325735,3786.1146634944016,None,sing23,001,2019_Nov_05_1650,ProdFawcett_Revision2019,3.2.4,59.87676049010337,
,,,,106,0,106,0,,,,,,,,,,,,,3788.7153290414717,None,,,,,,,,,,,,,,,,,,,,,,instrument,D_new,106,163,3787.233223860152,None,3787.233223860152,None,3787.233223860152,None,1,0.6852935871575028,3787.233223860152,None,3787.9705339926295,None,3787.9705339926295,None,3788.4819720719242,None,3788.4819720719242,None,3788.4819720719242,None,n,0.1891988554270938,3788.4819720719242,None,sing23,001,2019_Nov_05_1650,ProdFawcett_Revision2019,3.2.4,59.87676049010337,
,,,,107,0,107,0,,,,,,,,,,,,,3790.6529707035515,None,,,,,,,,,,,,,,,,,,,,,,relation,C_sing,107,257,3789.23324127635,None,3789.23324127635,None,3789.23324127635,None,1,0.6851937550818548,3789.23324127635,None,3789.9726761834463,None,3789.9726761834463,None,3790.502467189217,None,3790.502467189217,None,3790.502467189217,None,n,0.12796230637468398,3790.502467189217,None,sing23,001,2019_Nov_05_1650,ProdFawcett_Revision2019,3.2.4,59.87676049010337,
,,,,108,0,108,0,,,,,,,,,,,,,3793.383485725033,None,,,,,,,,,,,,,,,,,,,,,,theme,D_new,108,326,3791.1827203459106,None,3791.1827203459106,None,3791.1827203459106,None,1,0.8637656279606745,3791.1827203459106,None,3792.099762393511,None,3792.099762393511,None,3792.6167319774395,None,3792.6167319774395,None,3792.6167319774395,None,n,0.7174995334353298,3792.6167319774395,None,sing23,001,2019_Nov_05_1650,ProdFawcett_Revision2019,3.2.4,59.87676049010337,
,,,,109,0,109,0,,,,,,,,,,,,,3798.368253405555,None,,,,,,,,,,,,,,,,,,,,,,emergency,B_aloud,109,110,3793.9007168626413,None,3793.9007168626413,None,3793.9007168626413,None,6,2.9134617776144296,3793.9007168626413,None,3796.8678652733797,None,3796.8678652733797,None,3797.384823661181,None,3797.384823661181,None,3797.384823661181,None,r,0.9421599179040641,3797.384823661181,None,sing23,001,2019_Nov_05_1650,ProdFawcett_Revision2019,3.2.4,59.87676049010337,
,,,,110,0,110,0,,,,,,,,,,,,,3801.535971574369,None,,,,,,,,,,,,,,,,,,,,,,whole,D_new,110,355,3798.8853943522554,None,3798.8853943522554,None,3798.8853943522554,None,1,1.2804263855796307,3798.8853943522554,None,3800.2071975492872,None,3800.2071975492872,None,3800.735641288804,None,3800.735641288804,None,3800.735641288804,None,n,0.758878211141564,3800.735641288804,None,sing23,001,2019_Nov_05_1650,ProdFawcett_Revision2019,3.2.4,59.87676049010337,
,,,,111,0,111,0,,,,,,,,,,,,,3804.1034257013816,None,,,,,,,,,,,,,,,,,,,,,,dispute,D_new,111,99,3802.055133420392,None,3802.055133420392,None,3802.055133420392,None,1,1.175025813281536,3802.055133420392,None,3803.286427194136,None,3803.286427194136,None,3803.803436275455,None,3803.803436275455,None,3803.803436275455,None,n,0.2587037382181734,3803.803436275455,None,sing23,001,2019_Nov_05_1650,ProdFawcett_Revision2019,3.2.4,59.87676049010337,
,,,,112,0,112,0,,,,,,,,,,,,,3806.537559868186,None,,,,,,,,,,,,,,,,,,,,,,capital,D_new,112,40,3804.621467002551,None,3804.621467002551,None,3804.621467002551,None,1,1.0568467376288027,3804.621467002551,None,3805.726186477579,None,3805.726186477579,None,3806.254020028631,None,3806.254020028631,None,3806.254020028631,None,n,0.2476550352293998,3806.254020028631,None,sing23,001,2019_Nov_05_1650,ProdFawcett_Revision2019,3.2.4,59.87676049010337,
,,,,113,0,113,0,,,,,,,,,,,,,3808.721463581547,None,,,,,,,,,,,,,,,,,,,,,,bureau,A_silent,113,37,3807.0544277540175,None,3807.0544277540175,None,3807.0544277540175,None,1,0.7350497605511919,3807.0544277540175,None,3807.854596939753,None,3807.854596939753,None,3808.371561236563,None,3808.371561236563,None,3808.371561236563,None,n,0.3062533433549106,3808.371561236563,None,sing23,001,2019_Nov_05_1650,ProdFawcett_Revision2019,3.2.4,59.87676049010337,
,,,,114,0,114,0,,,,,,,,,,,,,3811.3723773092497,None,,,,,,,,,,,,,,,,,,,,,,working,B_aloud,114,357,3809.2392122286838,None,3809.2392122286838,None,3809.2392122286838,None,1,1.2462116688257083,3809.2392122286838,None,3810.5388206755742,None,3810.5388206755742,None,3811.0556798531907,None,3811.0556798531907,None,3811.0556798531907,None,n,0.26953722699545324,3811.0556798531907,None,sing23,001,2019_Nov_05_1650,ProdFawcett_Revision2019,3.2.4,59.87676049010337,
,,,,115,0,115,0,,,,,,,,,,,,,3813.8898298812564,None,,,,,,,,,,,,,,,,,,,,,,quarter,D_new,115,246,3811.893820986501,None,3811.893820986501,None,3811.893820986501,None,1,0.7992554580559954,3811.893820986501,None,3812.7436978291953,None,3812.7436978291953,None,3813.256519251154,None,3813.256519251154,None,3813.256519251154,None,n,0.5889873731648549,3813.256519251154,None,sing23,001,2019_Nov_05_1650,ProdFawcett_Revision2019,3.2.4,59.87676049010337,
,,,,116,0,116,0,,,,,,,,,,,,,3816.157250419841,None,,,,,,,,,,,,,,,,,,,,,,stranger,D_new,116,309,3814.407216209569,None,3814.407216209569,None,3814.407216209569,None,1,0.8458997325506061,3814.407216209569,None,3815.2960993966553,None,3815.2960993966553,None,3815.82353952853,None,3815.82353952853,None,3815.82353952853,None,n,0.29389002930838615,3815.82353952853,None,sing23,001,2019_Nov_05_1650,ProdFawcett_Revision2019,3.2.4,59.87676049010337,
,,,,117,0,117,0,,,,,,,,,,,,,3818.391177458456,None,,,,,,,,,,,,,,,,,,,,,,science,D_new,117,275,3816.6750824159244,None,3816.6750824159244,None,3816.6750824159244,None,1,0.7538293836405501,3816.6750824159244,None,3817.480661504087,None,3817.480661504087,None,3818.00778410153,None,3818.00778410153,None,3818.00778410153,None,n,0.3495366050628945,3818.00778410153,None,sing23,001,2019_Nov_05_1650,ProdFawcett_Revision2019,3.2.4,59.87676049010337,
,,,,118,0,118,0,,,,,,,,,,,,,3820.74177924986,None,,,,,,,,,,,,,,,,,,,,,,permit,D_new,118,218,3818.9092930895276,None,3818.9092930895276,None,3818.9092930895276,None,1,0.9274864713661373,3818.9092930895276,None,3819.8818619768135,None,3819.8818619768135,None,3820.4085053182207,None,3820.4085053182207,None,3820.4085053182207,None,n,0.30039963917806745,3820.4085053182207,None,sing23,001,2019_Nov_05_1650,ProdFawcett_Revision2019,3.2.4,59.87676049010337,
,,,,119,0,119,0,,,,,,,,,,,,,3823.059221247793,None,,,,,,,,,,,,,,,,,,,,,,display,D_new,119,98,3821.258741058642,None,3821.258741058642,None,3821.258741058642,None,1,0.8263998257461935,3821.258741058642,None,3822.13087920635,None,3822.13087920635,None,3822.6591969894944,None,3822.6591969894944,None,3822.6591969894944,None,n,0.3616284132003784,3822.6591969894944,None,sing23,001,2019_Nov_05_1650,ProdFawcett_Revision2019,3.2.4,59.87676049010337,
,,,,120,0,120,0,,,,,,,,,,,,,3824.8264483424136,None,,,,,,,,,,,,,,,,,,,,,,distance,D_new,120,100,3823.5760900665773,None,3823.5760900665773,None,3823.5760900665773,None,1,0.3883700317237526,3823.5760900665773,None,3824.0262673384277,None,3824.0262673384277,None,3824.5432655346813,None,3824.5432655346813,None,3824.5432655346813,None,n,0.23714809969533235,3824.5432655346813,None,sing23,001,2019_Nov_05_1650,ProdFawcett_Revision2019,3.2.4,59.87676049010337,
,,,,121,0,121,0,,,,,,,,,,,,,3826.7436810350046,None,,,,,,,,,,,,,,,,,,,,,,course,C_sing,121,74,3825.3443440940464,None,3825.3443440940464,None,3825.3443440940464,None,1,0.5408291347557679,3825.3443440940464,None,3825.943557877792,None,3825.943557877792,None,3826.4603654289385,None,3826.4603654289385,None,3826.4603654289385,None,n,0.2408767183078453,3826.4603654289385,None,sing23,001,2019_Nov_05_1650,ProdFawcett_Revision2019,3.2.4,59.87676049010337,
,,,,122,0,122,0,,,,,,,,,,,,,3828.4109871245455,None,,,,,,,,,,,,,,,,,,,,,,marriage,A_silent,122,179,3827.260508490377,None,3827.260508490377,None,3827.260508490377,None,1,0.39252410270273685,3827.260508490377,None,3827.700954780099,None,3827.700954780099,None,3828.211166262394,None,3828.211166262394,None,3828.211166262394,None,n,0.15305747336242348,3828.211166262394,None,sing23,001,2019_Nov_05_1650,ProdFawcett_Revision2019,3.2.4,59.87676049010337,
,,,,123,0,123,0,,,,,,,,,,,,,3830.1782163961325,None,,,,,,,,,,,,,,,,,,,,,,author,A_silent,123,15,3828.9291086646263,None,3828.9291086646263,None,3828.9291086646263,None,1,0.5558782733278349,3828.9291086646263,None,3829.5446715805447,None,3829.5446715805447,None,3830.0615021459525,None,3830.0615021459525,None,3830.0615021459525,None,n,0.07060676743276417,3830.0615021459525,None,sing23,001,2019_Nov_05_1650,ProdFawcett_Revision2019,3.2.4,59.87676049010337,
,,,,124,0,124,0,,,,,,,,,,,,,3831.862010325305,None,,,,,,,,,,,,,,,,,,,,,,signal,D_new,124,287,3830.6961653294275,None,3830.6961653294275,None,3830.6961653294275,None,1,0.5483722087228671,3830.6961653294275,None,3831.280250357697,None,3831.280250357697,None,3831.7953819120303,None,3831.7953819120303,None,3831.7953819120303,None,n,0.02557908813469112,3831.7953819120303,None,sing23,001,2019_Nov_05_1650,ProdFawcett_Revision2019,3.2.4,59.87676049010337,
,,,,125,0,125,0,,,,,,,,,,,,,3835.5465640355833,None,,,,,,,,,,,,,,,,,,,,,,fashion,C_sing,125,125,3832.381166884443,None,3832.381166884443,None,3832.381166884443,None,5,1.815181003883481,3832.381166884443,None,3834.2461945636896,None,3834.2461945636896,None,3834.7631246501114,None,3834.7631246501114,None,3834.7631246501114,None,f,0.7366744418395683,3834.7631246501114,None,sing23,001,2019_Nov_05_1650,ProdFawcett_Revision2019,3.2.4,59.87676049010337,
,,,,126,0,126,0,,,,,,,,,,,,,3838.5306919823634,None,,,,,,,,,,,,,,,,,,,,,,crime,D_new,126,78,3836.0635177582735,None,3836.0635177582735,None,3836.0635177582735,None,1,1.2926301548723131,3836.0635177582735,None,3837.4018218573183,None,3837.4018218573183,None,3837.930513777421,None,3837.930513777421,None,3837.930513777421,None,n,0.5531286931363866,3837.930513777421,None,sing23,001,2019_Nov_05_1650,ProdFawcett_Revision2019,3.2.4,59.87676049010337,
,,,,127,0,127,0,,,,,,,,,,,,,3842.7820579088293,None,,,,,,,,,,,,,,,,,,,,,,incident,C_sing,127,158,3839.0477959197015,None,3839.0477959197015,None,3839.0477959197015,None,6,2.044158425182104,3839.0477959197015,None,3841.1482621135656,None,3841.1482621135656,None,3841.6652488026302,None,3841.6652488026302,None,3841.6652488026302,None,f,1.0749959569657221,3841.6652488026302,None,sing23,001,2019_Nov_05_1650,ProdFawcett_Revision2019,3.2.4,59.87676049010337,
,,,,128,0,128,0,,,,,,,,,,,,,3844.982668097364,None,,,,,,,,,,,,,,,,,,,,,,victory,D_new,128,346,3843.300289544044,None,3843.300289544044,None,3843.300289544044,None,1,1.015523107489571,3843.300289544044,None,3844.3659099956276,None,3844.3659099956276,None,3844.8826861354755,None,3844.8826861354755,None,3844.8826861354755,None,n,0.05747340922243893,3844.8826861354755,None,sing23,001,2019_Nov_05_1650,ProdFawcett_Revision2019,3.2.4,59.87676049010337,
,,,,129,0,129,0,,,,,,,,,,,,,3847.650185980019,None,,,,,,,,,,,,,,,,,,,,,,country,D_new,129,73,3845.501637432375,None,3845.501637432375,None,3845.501637432375,None,1,0.7495434471638873,3845.501637432375,None,3846.3164887728635,None,3846.3164887728635,None,3846.833463021787,None,3846.833463021787,None,3846.833463021787,None,n,0.7780378801980987,3846.833463021787,None,sing23,001,2019_Nov_05_1650,ProdFawcett_Revision2019,3.2.4,59.87676049010337,
,,,,130,0,130,0,,,,,,,,,,,,,3850.217825775966,None,,,,,,,,,,,,,,,,,,,,,,nature,D_new,130,200,3848.1672619270394,None,3848.1672619270394,None,3848.1672619270394,None,1,0.7878015177557245,3848.1672619270394,None,3849.007493935409,None,3849.007493935409,None,3849.5341988555156,None,3849.5341988555156,None,3849.5341988555156,None,n,0.6367375754052773,3849.5341988555156,None,sing23,001,2019_Nov_05_1650,ProdFawcett_Revision2019,3.2.4,59.87676049010337,
,,,,131,0,131,0,,,,,,,,,,,,,3854.3023527399637,None,,,,,,,,,,,,,,,,,,,,,,payment,D_new,131,215,3850.7218482926255,None,3850.7218482926255,None,3850.7218482926255,None,1,2.6413886297959834,3850.7218482926255,None,3853.418672016007,None,3853.418672016007,None,3853.935529949609,None,3853.935529949609,None,3853.935529949609,None,n,0.3314387012505904,3853.935529949609,None,sing23,001,2019_Nov_05_1650,ProdFawcett_Revision2019,3.2.4,59.87676049010337,
,,,,132,0,132,0,,,,,,,,,,,,,3857.83682061336,None,,,,,,,,,,,,,,,,,,,,,,broke,C_sing,132,32,3854.8191061764956,None,3854.8191061764956,None,3854.8191061764956,None,6,1.5356335137039423,3854.8191061764956,None,3856.419614977902,None,3856.419614977902,None,3856.9365161410533,None,3856.9365161410533,None,3856.9365161410533,None,r,0.8665547054260969,3856.9365161410533,None,sing23,001,2019_Nov_05_1650,ProdFawcett_Revision2019,3.2.4,59.87676049010337,
,,,,133,0,133,0,,,,,,,,,,,,,3860.2207333458355,None,,,,,,,,,,,,,,,,,,,,,,platform,D_new,133,224,3858.35448871064,None,3858.35448871064,None,3858.35448871064,None,1,0.8483728307764977,3858.35448871064,None,3859.2430232630577,None,3859.2430232630577,None,3859.7712094918825,None,3859.7712094918825,None,3859.7712094918825,None,n,0.40800926787778735,3859.7712094918825,None,sing23,001,2019_Nov_05_1650,ProdFawcett_Revision2019,3.2.4,59.87676049010337,
,,,,134,0,134,0,,,,,,,,,,,,,3863.938588045072,None,,,,,,,,,,,,,,,,,,,,,,scale,B_aloud,134,272,3860.737581949448,None,3860.737581949448,None,3860.737581949448,None,5,1.8255305716302246,3860.737581949448,None,3862.6214589164592,None,3862.6214589164592,None,3863.1383124961285,None,3863.1383124961285,None,3863.1383124961285,None,f,0.751836163457483,3863.1383124961285,None,sing23,001,2019_Nov_05_1650,ProdFawcett_Revision2019,3.2.4,59.87676049010337,
,,,,135,0,135,0,,,,,,,,,,,,,3866.539464452304,None,,,,,,,,,,,,,,,,,,,,,,crisis,D_new,135,79,3864.455575667089,None,3864.455575667089,None,3864.455575667089,None,1,1.002502332557924,3864.455575667089,None,3865.510557006928,None,3865.510557006928,None,3866.039134788909,None,3866.039134788909,None,3866.039134788909,None,n,0.459692106815055,3866.039134788909,None,sing23,001,2019_Nov_05_1650,ProdFawcett_Revision2019,3.2.4,59.87676049010337,
,,,,136,0,136,0,,,,,,,,,,,,,3868.8734938111156,None,,,,,,,,,,,,,,,,,,,,,,range,C_sing,136,251,3867.057137836702,None,3867.057137836702,None,3867.057137836702,None,1,0.9053517447318882,3867.057137836702,None,3868.010062822723,None,3868.010062822723,None,3868.523451825604,None,3868.523451825604,None,3868.523451825604,None,n,0.31089724448975176,3868.523451825604,None,sing23,001,2019_Nov_05_1650,ProdFawcett_Revision2019,3.2.4,59.87676049010337,
,,,,137,0,137,0,,,,,,,,,,,,,3872.941311811912,None,,,,,,,,,,,,,,,,,,,,,,quick,B_aloud,137,248,3869.3939105555182,None,3869.3939105555182,None,3869.3939105555182,None,6,1.9998124650446698,3869.3939105555182,None,3871.457619891851,None,3871.457619891851,None,3871.974474404473,None,3871.974474404473,None,3871.974474404473,None,r,0.9239198855357245,3871.974474404473,None,sing23,001,2019_Nov_05_1650,ProdFawcett_Revision2019,3.2.4,59.87676049010337,
,,,,138,0,138,0,,,,,,,,,,,,,3876.9427141258493,None,,,,,,,,,,,,,,,,,,,,,,afternoon,D_new,138,3,3873.4587071592687,None,3873.4587071592687,None,3873.4587071592687,None,1,1.3833336443640292,3873.4587071592687,None,3874.891950612655,None,3874.891950612655,None,3875.408868881059,None,3875.408868881059,None,3875.408868881059,None,n,1.4966091309906915,3875.408868881059,None,sing23,001,2019_Nov_05_1650,ProdFawcett_Revision2019,3.2.4,59.87676049010337,
,,,,139,0,139,0,,,,,,,,,,,,,3879.2099536604946,None,,,,,,,,,,,,,,,,,,,,,,strain,A_silent,139,308,3877.4594800025225,None,3877.4594800025225,None,3877.4594800025225,None,1,0.9820006842492148,3877.4594800025225,None,3878.4931921379175,None,3878.4931921379175,None,3879.010062822723,None,3879.010062822723,None,3879.010062822723,None,n,0.15127946762368083,3879.010062822723,None,sing23,001,2019_Nov_05_1650,ProdFawcett_Revision2019,3.2.4,59.87676049010337,
,,,,140,0,140,0,,,,,,,,,,,,,3881.27720159234,None,,,,,,,,,,,,,,,,,,,,,,benefit,A_silent,140,20,3879.7269073833013,None,3879.7269073833013,None,3879.7269073833013,None,1,0.8828148908214644,3879.7269073833013,None,3880.6604621509323,None,3880.6604621509323,None,3881.1775029546116,None,3881.1775029546116,None,3881.1775029546116,None,n,0.05655346147250384,3881.1775029546116,None,sing23,001,2019_Nov_05_1650,ProdFawcett_Revision2019,3.2.4,59.87676049010337,
,,,,141,0,141,0,,,,,,,,,,,,,3883.161238104105,None,,,,,,,,,,,,,,,,,,,,,,commercial,D_new,141,61,3881.7945913417498,None,3881.7945913417498,None,3881.7945913417498,None,1,0.6073343907482922,3881.7945913417498,None,3882.4610092056682,None,3882.4610092056682,None,3882.978230702225,None,3882.978230702225,None,3882.978230702225,None,n,0.14321732916869223,3882.978230702225,None,sing23,001,2019_Nov_05_1650,ProdFawcett_Revision2019,3.2.4,59.87676049010337,
,,,,142,0,142,0,,,,,,,,,,,,,3885.862197549315,None,,,,,,,,,,,,,,,,,,,,,,express,A_silent,142,124,3883.67899981339,None,3883.67899981339,None,3883.67899981339,None,1,0.601977358921431,3883.67899981339,None,3884.3450438515283,None,3884.3450438515283,None,3884.8617472165497,None,3884.8617472165497,None,3884.8617472165497,None,n,0.9552761709783226,3884.8617472165497,None,sing23,001,2019_Nov_05_1650,ProdFawcett_Revision2019,3.2.4,59.87676049010337,
,,,,143,0,143,0,,,,,,,,,,,,,3888.14600018668,None,,,,,,,,,,,,,,,,,,,,,,number,D_new,143,203,3886.3800363873597,None,3886.3800363873597,None,3886.3800363873597,None,1,0.8772463768254966,3886.3800363873597,None,3887.3124426199356,None,3887.3124426199356,None,3887.8294131368166,None,3887.8294131368166,None,3887.8294131368166,None,n,0.27569136023521423,3887.8294131368166,None,sing23,001,2019_Nov_05_1650,ProdFawcett_Revision2019,3.2.4,59.87676049010337,
,,,,144,0,144,0,,,,,,,,,,,,,3890.21354108362,None,,,,,,,,,,,,,,,,,,,,,,hunger,B_aloud,144,155,3888.664530385053,None,3888.664530385053,None,3888.664530385053,None,1,0.6324774522799999,3888.664530385053,None,3889.3465621696087,None,3889.3465621696087,None,3889.863260247628,None,3889.863260247628,None,3889.863260247628,None,n,0.3053588978946209,3889.863260247628,None,sing23,001,2019_Nov_05_1650,ProdFawcett_Revision2019,3.2.4,59.87676049010337,
,,,,145,0,145,0,,,,,,,,,,,,,3893.547833240009,None,,,,,,,,,,,,,,,,,,,,,,design,D_new,145,91,3890.7310738944216,None,3890.7310738944216,None,3890.7310738944216,None,1,1.5336222553160042,3890.7310738944216,None,3892.3307115755742,None,3892.3307115755742,None,3892.8476099396357,None,3892.8476099396357,None,3892.8476099396357,None,n,0.6577371400780976,3892.8476099396357,None,sing23,001,2019_Nov_05_1650,ProdFawcett_Revision2019,3.2.4,59.87676049010337,
,,,,146,0,146,0,,,,,,,,,,,,,3896.2151977980975,None,,,,,,,,,,,,,,,,,,,,,,cousin,B_aloud,146,76,3894.0645039497176,None,3894.0645039497176,None,3894.0645039497176,None,1,1.2163621943909675,3894.0645039497176,None,3895.33160913107,None,3895.33160913107,None,3895.8485780929914,None,3895.8485780929914,None,3895.8485780929914,None,n,0.3279464452061802,3895.8485780929914,None,sing23,001,2019_Nov_05_1650,ProdFawcett_Revision2019,3.2.4,59.87676049010337,
,,,,147,0,147,0,,,,,,,,,,,,,3898.732756111189,None,,,,,,,,,,,,,,,,,,,,,,sweet,A_silent,147,319,3896.7320429807296,None,3896.7320429807296,None,3896.7320429807296,None,1,1.0361734154867008,3896.7320429807296,None,3897.8207106426125,None,3897.8207106426125,None,3898.3491833053995,None,3898.3491833053995,None,3898.3491833053995,None,n,0.3393863905221224,3898.3491833053995,None,sing23,001,2019_Nov_05_1650,ProdFawcett_Revision2019,3.2.4,59.87676049010337,
,,,,148,0,148,0,,,,,,,,,,,,,3900.950157678686,None,,,,,,,,,,,,,,,,,,,,,,finance,D_new,148,129,3899.2509952106047,None,3899.2509952106047,None,3899.2509952106047,None,1,0.6934679977130145,3899.2509952106047,None,3899.9997244511032,None,3899.9997244511032,None,3900.516707719071,None,3900.516707719071,None,3900.516707719071,None,n,0.3872824531281367,3900.516707719071,None,sing23,001,2019_Nov_05_1650,ProdFawcett_Revision2019,3.2.4,59.87676049010337,
,,,,149,0,149,0,,,,,,,,,,,,,3903.117329414701,None,,,,,,,,,,,,,,,,,,,,,,character,D_new,149,46,3901.4689886173,None,3901.4689886173,None,3901.4689886173,None,1,0.7396355040837079,3901.4689886173,None,3902.2567369533936,None,3902.2567369533936,None,3902.784146917984,None,3902.784146917984,None,3902.784146917984,None,n,0.2958403308875859,3902.784146917984,None,sing23,001,2019_Nov_05_1650,ProdFawcett_Revision2019,3.2.4,59.87676049010337,
,,,,150,0,150,0,,,,,,,,,,,,,3905.084726317087,None,,,,,,,,,,,,,,,,,,,,,,plane,D_new,150,223,3903.634159358102,None,3903.634159358102,None,3903.634159358102,None,1,0.6376687192823738,3903.634159358102,None,3904.3224650121992,None,3904.3224650121992,None,3904.834542825236,None,3904.834542825236,None,3904.834542825236,None,n,0.20569571433588862,3904.834542825236,None,sing23,001,2019_Nov_05_1650,ProdFawcett_Revision2019,3.2.4,59.87676049010337,
,,,,151,0,151,0,,,,,,,,,,,,,3907.2853166013956,None,,,,,,,,,,,,,,,,,,,,,,escape,A_silent,151,118,3905.6020942962496,None,3905.6020942962496,None,3905.6020942962496,None,1,0.749955837498419,3905.6020942962496,None,3906.4017406854546,None,3906.4017406854546,None,3906.9186682839645,None,3906.9186682839645,None,3906.9186682839645,None,n,0.320968464249745,3906.9186682839645,None,sing23,001,2019_Nov_05_1650,ProdFawcett_Revision2019,3.2.4,59.87676049010337,
,,,,152,0,152,0,,,,,,,,,,,,,3909.252825464937,None,,,,,,,,,,,,,,,,,,,,,,color,C_sing,152,56,3907.8020747030387,None,3907.8020747030387,None,3907.8020747030387,None,1,0.7656531069660559,3907.8020747030387,None,3908.6191008895403,None,3908.6191008895403,None,3909.1360937986756,None,3909.1360937986756,None,3909.1360937986756,None,n,0.07142626109998673,3909.1360937986756,None,sing23,001,2019_Nov_05_1650,ProdFawcett_Revision2019,3.2.4,59.87676049010337,
