StudyTrials.thisRepN,StudyTrials.thisTrialN,StudyTrials.thisN,StudyTrials.thisIndex,TestTrials.thisRepN,TestTrials.thisTrialN,TestTrials.thisN,TestTrials.thisIndex,textWelcome.started,textWelcome.stopped,keyWelcome.keys,keyWelcome.rt,keyWelcome.started,keyWelcome.stopped,textReady.started,textReady.stopped,keyReady.keys,keyReady.rt,keyReady.started,keyReady.stopped,polyback_2.started,polyback_2.stopped,studyPic,studyWord,studyType,studyN,studyOrder,polyback_3.started,polyback_3.stopped,studyPicChoice.started,studyPicChoice.stopped,polyback_4.started,polyback_4.stopped,polyback.started,polyback.stopped,studyWords.started,studyWords.stopped,getResearcher.started,getResearcher.stopped,kPress2.keys,kPress2.rt,kPress2.started,kPress2.stopped,testWord,testType,testN,testOrder,polyback_5.started,polyback_5.stopped,testWords.started,testWords.stopped,textScale.started,participant,keyConf.keys,keyConf.rt,keyConf.started,keyConf.stopped,polyback_6.started,polyback_6.stopped,studyWords_2.started,studyWords_2.stopped,polyback_7.started,polyback_7.stopped,testWords_2.started,testWords_2.stopped,textScale_2.started,textScale_2.stopped,keyRKN.keys,keyRKN.rt,keyRKN.started,keyRKN.stopped,,session,date,expName,psychopyVersion,frameRate
,,,,,,,,14.27266934,None,space,2.703811967,14.27266934,None,,,,,,,,,,,,,,,,,,,,,,,,,,,,,,,,,,,,,,,sing17a,,,,,,,,,,,,,,,,,,,,1,2019_Nov_01_1429,ProdFawcett_Revision2019,3.2.4,59.98679148
,,,,,,,,,,,,,,17.00263886,None,space,12.4291379,17.00263886,None,,,,,,,,,,,,,,,,,,,,,,,,,,,,,,,,,sing17a,,,,,,,,,,,,,,,,,,,,1,2019_Nov_01_1429,ProdFawcett_Revision2019,3.2.4,59.98679148
0,0,0,0,,,,,,,,,,,,,,,,,34.24133203,None,materials/readPic.jpg,medicine,A_silent,0,186,30.57368321,None,30.57368321,None,31.49229116,None,31.7571848,None,31.7571848,None,,,,,,,,,,,,,,,,sing17a,,,,,,,,,,,,,,,,,,,,1,2019_Nov_01_1429,ProdFawcett_Revision2019,3.2.4,59.98679148
1,0,1,0,,,,,,,,,,,,,,,,,38.50932201,None,materials/readPic.jpg,blind,A_silent,1,24,34.81646203,None,34.81646203,None,35.75863843,None,36.0251017,None,36.0251017,None,,,,,,,,,,,,,,,,sing17a,,,,,,,,,,,,,,,,,,,,1,2019_Nov_01_1429,ProdFawcett_Revision2019,3.2.4,59.98679148
2,0,2,0,,,,,,,,,,,,,,,,,42.7773036,None,materials/speakPic.jpg,taste,B_aloud,2,322,39.14399888,None,39.14399888,None,40.02657585,None,40.29312403,None,40.29312403,None,,,,,,,,,,,,,,,,sing17a,,,,,,,,,,,,,,,,,,,,1,2019_Nov_01_1429,ProdFawcett_Revision2019,3.2.4,59.98679148
3,0,3,0,,,,,,,,,,,,,,,,,47.04530354,None,materials/speakPic.jpg,commercial,B_aloud,3,61,43.35146451,None,43.35146451,None,44.29458885,None,44.56106612,None,44.56106612,None,,,,,,,,,,,,,,,,sing17a,,,,,,,,,,,,,,,,,,,,1,2019_Nov_01_1429,ProdFawcett_Revision2019,3.2.4,59.98679148
4,0,4,0,,,,,,,,,,,,,,,,,51.31331778,None,materials/readPic.jpg,science,A_silent,4,275,47.67978852,None,47.67978852,None,48.56254929,None,48.82907788,None,48.82907788,None,,,,,,,,,,,,,,,,sing17a,,,,,,,,,,,,,,,,,,,,1,2019_Nov_01_1429,ProdFawcett_Revision2019,3.2.4,59.98679148
5,0,5,0,,,,,,,,,,,,,,,,,55.58129937,None,materials/readPic.jpg,council,A_silent,5,71,51.90051409,None,51.90051409,None,52.83053524,None,53.09709741,None,53.09709741,None,,,,,,,,,,,,,,,,sing17a,,,,,,,,,,,,,,,,,,,,1,2019_Nov_01_1429,ProdFawcett_Revision2019,3.2.4,59.98679148
6,0,6,0,,,,,,,,,,,,,,,,,59.84922964,None,materials/speakPic.jpg,danger,B_aloud,6,85,56.20194657,None,56.20194657,None,57.09862505,None,57.36546775,None,57.36546775,None,,,,,,,,,,,,,,,,sing17a,,,,,,,,,,,,,,,,,,,,1,2019_Nov_01_1429,ProdFawcett_Revision2019,3.2.4,59.98679148
7,0,7,0,,,,,,,,,,,,,,,,,64.1173574,None,materials/readPic.jpg,question,A_silent,7,247,60.45036947,None,60.45036947,None,61.36758941,None,61.63342632,None,61.63342632,None,,,,,,,,,,,,,,,,sing17a,,,,,,,,,,,,,,,,,,,,1,2019_Nov_01_1429,ProdFawcett_Revision2019,3.2.4,59.98679148
8,0,8,0,,,,,,,,,,,,,,,,,68.38521273,None,materials/singPic.jpg,collection,C_sing,8,54,64.72452883,None,64.72452883,None,65.6344996,None,65.90101947,None,65.90101947,None,,,,,,,,,,,,,,,,sing17a,,,,,,,,,,,,,,,,,,,,1,2019_Nov_01_1429,ProdFawcett_Revision2019,3.2.4,59.98679148
9,0,9,0,,,,,,,,,,,,,,,,,72.65325341,None,materials/speakPic.jpg,history,B_aloud,9,153,68.98655377,None,68.98655377,None,69.90255209,None,70.16902252,None,70.16902252,None,,,,,,,,,,,,,,,,sing17a,,,,,,,,,,,,,,,,,,,,1,2019_Nov_01_1429,ProdFawcett_Revision2019,3.2.4,59.98679148
10,0,10,0,,,,,,,,,,,,,,,,,76.92154133,None,materials/speakPic.jpg,pretty,B_aloud,10,233,73.22720843,None,73.22720843,None,74.17048734,None,74.43701686,None,74.43701686,None,,,,,,,,,,,,,,,,sing17a,,,,,,,,,,,,,,,,,,,,1,2019_Nov_01_1429,ProdFawcett_Revision2019,3.2.4,59.98679148
11,0,11,0,,,,,,,,,,,,,,,,,81.18920663,None,materials/speakPic.jpg,stranger,B_aloud,11,309,77.48826927,None,77.48826927,None,78.43853331,None,78.70499129,None,78.70499129,None,,,,,,,,,,,,,,,,sing17a,,,,,,,,,,,,,,,,,,,,1,2019_Nov_01_1429,ProdFawcett_Revision2019,3.2.4,59.98679148
12,0,12,0,,,,,,,,,,,,,,,,,85.45720035,None,materials/speakPic.jpg,court,B_aloud,12,75,81.7723036,None,81.7723036,None,82.70645736,None,82.97298221,None,82.97298221,None,,,,,,,,,,,,,,,,sing17a,,,,,,,,,,,,,,,,,,,,1,2019_Nov_01_1429,ProdFawcett_Revision2019,3.2.4,59.98679148
13,0,13,0,,,,,,,,,,,,,,,,,89.72513498,None,materials/speakPic.jpg,husband,B_aloud,13,156,86.02934067,None,86.02934067,None,86.9744744,None,87.24098433,None,87.24098433,None,,,,,,,,,,,,,,,,sing17a,,,,,,,,,,,,,,,,,,,,1,2019_Nov_01_1429,ProdFawcett_Revision2019,3.2.4,59.98679148
14,0,14,0,,,,,,,,,,,,,,,,,93.99318219,None,materials/singPic.jpg,error,C_sing,14,117,90.360065,None,90.360065,None,91.2434652,None,91.50896032,None,91.50896032,None,,,,,,,,,,,,,,,,sing17a,,,,,,,,,,,,,,,,,,,,1,2019_Nov_01_1429,ProdFawcett_Revision2019,3.2.4,59.98679148
15,0,15,0,,,,,,,,,,,,,,,,,98.26117653,None,materials/singPic.jpg,interview,C_sing,15,165,94.57624868,None,94.57624868,None,95.51041923,None,95.77695341,None,95.77695341,None,,,,,,,,,,,,,,,,sing17a,,,,,,,,,,,,,,,,,,,,1,2019_Nov_01_1429,ProdFawcett_Revision2019,3.2.4,59.98679148
16,0,16,0,,,,,,,,,,,,,,,,,102.5291329,None,materials/singPic.jpg,education,C_sing,16,108,98.8498672,None,98.8498672,None,99.77846302,None,100.0449462,None,100.0449462,None,,,,,,,,,,,,,,,,sing17a,,,,,,,,,,,,,,,,,,,,1,2019_Nov_01_1429,ProdFawcett_Revision2019,3.2.4,59.98679148
17,0,17,0,,,,,,,,,,,,,,,,,106.7971282,None,materials/singPic.jpg,carry,C_sing,17,43,103.1122644,None,103.1122644,None,104.0464194,None,104.312929,None,104.312929,None,,,,,,,,,,,,,,,,sing17a,,,,,,,,,,,,,,,,,,,,1,2019_Nov_01_1429,ProdFawcett_Revision2019,3.2.4,59.98679148
18,0,18,0,,,,,,,,,,,,,,,,,111.0651966,None,materials/singPic.jpg,recall,C_sing,18,255,107.3802992,None,107.3802992,None,108.314503,None,108.5809302,None,108.5809302,None,,,,,,,,,,,,,,,,sing17a,,,,,,,,,,,,,,,,,,,,1,2019_Nov_01_1429,ProdFawcett_Revision2019,3.2.4,59.98679148
19,0,19,0,,,,,,,,,,,,,,,,,115.3331212,None,materials/speakPic.jpg,region,B_aloud,19,256,111.6570228,None,111.6570228,None,112.5824044,None,112.8488935,None,112.8488935,None,,,,,,,,,,,,,,,,sing17a,,,,,,,,,,,,,,,,,,,,1,2019_Nov_01_1429,ProdFawcett_Revision2019,3.2.4,59.98679148
20,0,20,0,,,,,,,,,,,,,,,,,119.6011115,None,materials/speakPic.jpg,write,B_aloud,20,358,115.9161971,None,115.9161971,None,116.8504049,None,117.1168825,None,117.1168825,None,,,,,,,,,,,,,,,,sing17a,,,,,,,,,,,,,,,,,,,,1,2019_Nov_01_1429,ProdFawcett_Revision2019,3.2.4,59.98679148
21,0,21,0,,,,,,,,,,,,,,,,,123.8691065,None,materials/speakPic.jpg,payment,B_aloud,21,215,120.1712462,None,120.1712462,None,121.11845,None,121.3848299,None,121.3848299,None,,,,,,,,,,,,,,,,sing17a,,,,,,,,,,,,,,,,,,,,1,2019_Nov_01_1429,ProdFawcett_Revision2019,3.2.4,59.98679148
22,0,22,0,,,,,,,,,,,,,,,,,128.1370722,None,materials/speakPic.jpg,produce,B_aloud,22,239,124.4392598,None,124.4392598,None,125.3865507,None,125.6528503,None,125.6528503,None,,,,,,,,,,,,,,,,sing17a,,,,,,,,,,,,,,,,,,,,1,2019_Nov_01_1429,ProdFawcett_Revision2019,3.2.4,59.98679148
23,0,23,0,,,,,,,,,,,,,,,,,132.4051213,None,materials/speakPic.jpg,heavy,B_aloud,23,151,128.7202046,None,128.7202046,None,129.65449,None,129.920854,None,129.920854,None,,,,,,,,,,,,,,,,sing17a,,,,,,,,,,,,,,,,,,,,1,2019_Nov_01_1429,ProdFawcett_Revision2019,3.2.4,59.98679148
24,0,24,0,,,,,,,,,,,,,,,,,136.6730684,None,materials/readPic.jpg,cross,A_silent,24,80,133.040618,None,133.040618,None,133.9223938,None,134.1888614,None,134.1888614,None,,,,,,,,,,,,,,,,sing17a,,,,,,,,,,,,,,,,,,,,1,2019_Nov_01_1429,ProdFawcett_Revision2019,3.2.4,59.98679148
25,0,25,0,,,,,,,,,,,,,,,,,140.9410434,None,materials/singPic.jpg,number,C_sing,25,203,137.2909165,None,137.2909165,None,138.1903493,None,138.4568219,None,138.4568219,None,,,,,,,,,,,,,,,,sing17a,,,,,,,,,,,,,,,,,,,,1,2019_Nov_01_1429,ProdFawcett_Revision2019,3.2.4,59.98679148
26,0,26,0,,,,,,,,,,,,,,,,,145.2090434,None,materials/readPic.jpg,command,A_silent,26,60,141.5423764,None,141.5423764,None,142.4591777,None,142.7171372,None,142.7171372,None,,,,,,,,,,,,,,,,sing17a,,,,,,,,,,,,,,,,,,,,1,2019_Nov_01_1429,ProdFawcett_Revision2019,3.2.4,59.98679148
27,0,27,0,,,,,,,,,,,,,,,,,149.4770414,None,materials/singPic.jpg,primary,C_sing,27,234,145.8275431,None,145.8275431,None,146.7263575,None,146.9928074,None,146.9928074,None,,,,,,,,,,,,,,,,sing17a,,,,,,,,,,,,,,,,,,,,1,2019_Nov_01_1429,ProdFawcett_Revision2019,3.2.4,59.98679148
28,0,28,0,,,,,,,,,,,,,,,,,153.7450339,None,materials/speakPic.jpg,pancakes,B_aloud,28,210,150.1021148,None,150.1021148,None,150.9956046,None,151.260789,None,151.260789,None,,,,,,,,,,,,,,,,sing17a,,,,,,,,,,,,,,,,,,,,1,2019_Nov_01_1429,ProdFawcett_Revision2019,3.2.4,59.98679148
29,0,29,0,,,,,,,,,,,,,,,,,158.0130202,None,materials/singPic.jpg,thick,C_sing,29,327,154.3962652,None,154.3962652,None,155.2623083,None,155.5287852,None,155.5287852,None,,,,,,,,,,,,,,,,sing17a,,,,,,,,,,,,,,,,,,,,1,2019_Nov_01_1429,ProdFawcett_Revision2019,3.2.4,59.98679148
30,0,30,0,,,,,,,,,,,,,,,,,162.2810073,None,materials/readPic.jpg,empty,A_silent,30,112,158.6479965,None,158.6479965,None,159.5302986,None,159.7968079,None,159.7968079,None,,,,,,,,,,,,,,,,sing17a,,,,,,,,,,,,,,,,,,,,1,2019_Nov_01_1429,ProdFawcett_Revision2019,3.2.4,59.98679148
31,0,31,0,,,,,,,,,,,,,,,,,166.5489784,None,materials/singPic.jpg,harmony,C_sing,31,148,162.8896327,None,162.8896327,None,163.798348,None,164.0647493,None,164.0647493,None,,,,,,,,,,,,,,,,sing17a,,,,,,,,,,,,,,,,,,,,1,2019_Nov_01_1429,ProdFawcett_Revision2019,3.2.4,59.98679148
32,0,32,0,,,,,,,,,,,,,,,,,170.8169777,None,materials/readPic.jpg,contract,A_silent,32,68,167.150622,None,167.150622,None,168.0662913,None,168.3327446,None,168.3327446,None,,,,,,,,,,,,,,,,sing17a,,,,,,,,,,,,,,,,,,,,1,2019_Nov_01_1429,ProdFawcett_Revision2019,3.2.4,59.98679148
33,0,33,0,,,,,,,,,,,,,,,,,175.0849434,None,materials/singPic.jpg,victory,C_sing,33,346,171.420385,None,171.420385,None,172.3342626,None,172.6007271,None,172.6007271,None,,,,,,,,,,,,,,,,sing17a,,,,,,,,,,,,,,,,,,,,1,2019_Nov_01_1429,ProdFawcett_Revision2019,3.2.4,59.98679148
34,0,34,0,,,,,,,,,,,,,,,,,179.352934,None,materials/readPic.jpg,nature,A_silent,34,200,175.6903679,None,175.6903679,None,176.6022737,None,176.8687345,None,176.8687345,None,,,,,,,,,,,,,,,,sing17a,,,,,,,,,,,,,,,,,,,,1,2019_Nov_01_1429,ProdFawcett_Revision2019,3.2.4,59.98679148
35,0,35,0,,,,,,,,,,,,,,,,,183.6209315,None,materials/readPic.jpg,defeat,A_silent,35,88,179.9360773,None,179.9360773,None,180.8702504,None,181.1366887,None,181.1366887,None,,,,,,,,,,,,,,,,sing17a,,,,,,,,,,,,,,,,,,,,1,2019_Nov_01_1429,ProdFawcett_Revision2019,3.2.4,59.98679148
36,0,36,0,,,,,,,,,,,,,,,,,187.8889115,None,materials/singPic.jpg,resistance,C_sing,36,262,184.2253872,None,184.2253872,None,185.1382285,None,185.4046308,None,185.4046308,None,,,,,,,,,,,,,,,,sing17a,,,,,,,,,,,,,,,,,,,,1,2019_Nov_01_1429,ProdFawcett_Revision2019,3.2.4,59.98679148
37,0,37,0,,,,,,,,,,,,,,,,,192.1568819,None,materials/readPic.jpg,crowd,A_silent,37,81,188.490618,None,188.490618,None,189.4062263,None,189.6729539,None,189.6729539,None,,,,,,,,,,,,,,,,sing17a,,,,,,,,,,,,,,,,,,,,1,2019_Nov_01_1429,ProdFawcett_Revision2019,3.2.4,59.98679148
38,0,38,0,,,,,,,,,,,,,,,,,196.4249129,None,materials/singPic.jpg,marriage,C_sing,38,179,192.7749583,None,192.7749583,None,193.674239,None,193.940669,None,193.940669,None,,,,,,,,,,,,,,,,sing17a,,,,,,,,,,,,,,,,,,,,1,2019_Nov_01_1429,ProdFawcett_Revision2019,3.2.4,59.98679148
39,0,39,0,,,,,,,,,,,,,,,,,200.6928619,None,materials/singPic.jpg,trial,C_sing,39,341,197.01155,None,197.01155,None,197.9421671,None,198.2086599,None,198.2086599,None,,,,,,,,,,,,,,,,sing17a,,,,,,,,,,,,,,,,,,,,1,2019_Nov_01_1429,ProdFawcett_Revision2019,3.2.4,59.98679148
40,0,40,0,,,,,,,,,,,,,,,,,204.960864,None,materials/singPic.jpg,design,C_sing,40,91,201.2759877,None,201.2759877,None,202.2102202,None,202.4766032,None,202.4766032,None,,,,,,,,,,,,,,,,sing17a,,,,,,,,,,,,,,,,,,,,1,2019_Nov_01_1429,ProdFawcett_Revision2019,3.2.4,59.98679148
41,0,41,0,,,,,,,,,,,,,,,,,209.2288676,None,materials/readPic.jpg,position,A_silent,41,229,205.5625154,None,205.5625154,None,206.4782232,None,206.7446355,None,206.7446355,None,,,,,,,,,,,,,,,,sing17a,,,,,,,,,,,,,,,,,,,,1,2019_Nov_01_1429,ProdFawcett_Revision2019,3.2.4,59.98679148
42,0,42,0,,,,,,,,,,,,,,,,,213.4968393,None,materials/singPic.jpg,under,C_sing,42,343,209.8469565,None,209.8469565,None,210.7461775,None,211.012627,None,211.012627,None,,,,,,,,,,,,,,,,sing17a,,,,,,,,,,,,,,,,,,,,1,2019_Nov_01_1429,ProdFawcett_Revision2019,3.2.4,59.98679148
43,0,43,0,,,,,,,,,,,,,,,,,217.7648479,None,materials/readPic.jpg,suspect,A_silent,43,318,214.0985423,None,214.0985423,None,215.0141566,None,215.2805831,None,215.2805831,None,,,,,,,,,,,,,,,,sing17a,,,,,,,,,,,,,,,,,,,,1,2019_Nov_01_1429,ProdFawcett_Revision2019,3.2.4,59.98679148
44,0,44,0,,,,,,,,,,,,,,,,,222.0328108,None,materials/speakPic.jpg,store,B_aloud,44,305,218.3860459,None,218.3860459,None,219.2821876,None,219.5486163,None,219.5486163,None,,,,,,,,,,,,,,,,sing17a,,,,,,,,,,,,,,,,,,,,1,2019_Nov_01_1429,ProdFawcett_Revision2019,3.2.4,59.98679148
45,0,45,0,,,,,,,,,,,,,,,,,226.3007887,None,materials/speakPic.jpg,trash,B_aloud,45,337,222.6159423,None,222.6159423,None,223.5501362,None,223.8165802,None,223.8165802,None,,,,,,,,,,,,,,,,sing17a,,,,,,,,,,,,,,,,,,,,1,2019_Nov_01_1429,ProdFawcett_Revision2019,3.2.4,59.98679148
46,0,46,0,,,,,,,,,,,,,,,,,230.5687939,None,materials/readPic.jpg,accident,A_silent,46,0,226.9020467,None,226.9020467,None,227.8181533,None,228.0846411,None,228.0846411,None,,,,,,,,,,,,,,,,sing17a,,,,,,,,,,,,,,,,,,,,1,2019_Nov_01_1429,ProdFawcett_Revision2019,3.2.4,59.98679148
47,0,47,0,,,,,,,,,,,,,,,,,234.8367976,None,materials/speakPic.jpg,literature,B_aloud,47,173,231.1579822,None,231.1579822,None,232.086319,None,232.3528902,None,232.3528902,None,,,,,,,,,,,,,,,,sing17a,,,,,,,,,,,,,,,,,,,,1,2019_Nov_01_1429,ProdFawcett_Revision2019,3.2.4,59.98679148
48,0,48,0,,,,,,,,,,,,,,,,,239.1047751,None,materials/singPic.jpg,capital,C_sing,48,40,235.4381287,None,235.4381287,None,236.3551008,None,236.6205449,None,236.6205449,None,,,,,,,,,,,,,,,,sing17a,,,,,,,,,,,,,,,,,,,,1,2019_Nov_01_1429,ProdFawcett_Revision2019,3.2.4,59.98679148
49,0,49,0,,,,,,,,,,,,,,,,,243.3727611,None,materials/speakPic.jpg,sleep,B_aloud,49,290,239.7064888,None,239.7064888,None,240.6221136,None,240.8885367,None,240.8885367,None,,,,,,,,,,,,,,,,sing17a,,,,,,,,,,,,,,,,,,,,1,2019_Nov_01_1429,ProdFawcett_Revision2019,3.2.4,59.98679148
50,0,50,0,,,,,,,,,,,,,,,,,247.640756,None,materials/readPic.jpg,touch,A_silent,50,332,243.9739861,None,243.9739861,None,244.8900793,None,245.156546,None,245.156546,None,,,,,,,,,,,,,,,,sing17a,,,,,,,,,,,,,,,,,,,,1,2019_Nov_01_1429,ProdFawcett_Revision2019,3.2.4,59.98679148
51,0,51,0,,,,,,,,,,,,,,,,,251.9087351,None,materials/singPic.jpg,concern,C_sing,51,65,248.2432111,None,248.2432111,None,249.1583237,None,249.4245226,None,249.4245226,None,,,,,,,,,,,,,,,,sing17a,,,,,,,,,,,,,,,,,,,,1,2019_Nov_01_1429,ProdFawcett_Revision2019,3.2.4,59.98679148
52,0,52,0,,,,,,,,,,,,,,,,,256.1767217,None,materials/singPic.jpg,surface,C_sing,52,316,252.5084907,None,252.5084907,None,253.4260792,None,253.6925194,None,253.6925194,None,,,,,,,,,,,,,,,,sing17a,,,,,,,,,,,,,,,,,,,,1,2019_Nov_01_1429,ProdFawcett_Revision2019,3.2.4,59.98679148
53,0,53,0,,,,,,,,,,,,,,,,,260.4447304,None,materials/singPic.jpg,bucket,C_sing,53,33,256.7666374,None,256.7666374,None,257.6948106,None,257.9604948,None,257.9604948,None,,,,,,,,,,,,,,,,sing17a,,,,,,,,,,,,,,,,,,,,1,2019_Nov_01_1429,ProdFawcett_Revision2019,3.2.4,59.98679148
54,0,54,0,,,,,,,,,,,,,,,,,264.7127101,None,materials/readPic.jpg,dance,A_silent,54,84,261.0463737,None,261.0463737,None,261.9620433,None,262.2284885,None,262.2284885,None,,,,,,,,,,,,,,,,sing17a,,,,,,,,,,,,,,,,,,,,1,2019_Nov_01_1429,ProdFawcett_Revision2019,3.2.4,59.98679148
55,0,55,0,,,,,,,,,,,,,,,,,268.9806789,None,materials/readPic.jpg,title,A_silent,55,331,265.2853589,None,265.2853589,None,266.2299978,None,266.4964766,None,266.4964766,None,,,,,,,,,,,,,,,,sing17a,,,,,,,,,,,,,,,,,,,,1,2019_Nov_01_1429,ProdFawcett_Revision2019,3.2.4,59.98679148
56,0,56,0,,,,,,,,,,,,,,,,,273.2488679,None,materials/speakPic.jpg,front,B_aloud,56,134,269.58208,None,269.58208,None,270.4980363,None,270.7644669,None,270.7644669,None,,,,,,,,,,,,,,,,sing17a,,,,,,,,,,,,,,,,,,,,1,2019_Nov_01_1429,ProdFawcett_Revision2019,3.2.4,59.98679148
57,0,57,0,,,,,,,,,,,,,,,,,277.5166496,None,materials/readPic.jpg,public,A_silent,57,244,273.8499241,None,273.8499241,None,274.7660559,None,275.0324492,None,275.0324492,None,,,,,,,,,,,,,,,,sing17a,,,,,,,,,,,,,,,,,,,,1,2019_Nov_01_1429,ProdFawcett_Revision2019,3.2.4,59.98679148
58,0,58,0,,,,,,,,,,,,,,,,,281.7846682,None,materials/readPic.jpg,judge,A_silent,58,166,278.0894218,None,278.0894218,None,279.0339706,None,279.3007249,None,279.3007249,None,,,,,,,,,,,,,,,,sing17a,,,,,,,,,,,,,,,,,,,,1,2019_Nov_01_1429,ProdFawcett_Revision2019,3.2.4,59.98679148
59,0,59,0,,,,,,,,,,,,,,,,,286.0526541,None,materials/speakPic.jpg,individual,B_aloud,59,160,282.3693895,None,282.3693895,None,283.3020424,None,283.5684307,None,283.5684307,None,,,,,,,,,,,,,,,,sing17a,,,,,,,,,,,,,,,,,,,,1,2019_Nov_01_1429,ProdFawcett_Revision2019,3.2.4,59.98679148
60,0,60,0,,,,,,,,,,,,,,,,,290.3206264,None,materials/speakPic.jpg,afternoon,B_aloud,60,3,286.635761,None,286.635761,None,287.5700264,None,287.8365675,None,287.8365675,None,,,,,,,,,,,,,,,,sing17a,,,,,,,,,,,,,,,,,,,,1,2019_Nov_01_1429,ProdFawcett_Revision2019,3.2.4,59.98679148
61,0,61,0,,,,,,,,,,,,,,,,,294.5886238,None,materials/speakPic.jpg,still,B_aloud,61,304,290.8890462,None,290.8890462,None,291.8375082,None,292.1043811,None,292.1043811,None,,,,,,,,,,,,,,,,sing17a,,,,,,,,,,,,,,,,,,,,1,2019_Nov_01_1429,ProdFawcett_Revision2019,3.2.4,59.98679148
62,0,62,0,,,,,,,,,,,,,,,,,298.8566063,None,materials/readPic.jpg,curve,A_silent,62,82,295.179722,None,295.179722,None,296.105971,None,296.3723938,None,296.3723938,None,,,,,,,,,,,,,,,,sing17a,,,,,,,,,,,,,,,,,,,,1,2019_Nov_01_1429,ProdFawcett_Revision2019,3.2.4,59.98679148
63,0,63,0,,,,,,,,,,,,,,,,,303.124736,None,materials/speakPic.jpg,object,B_aloud,63,204,299.4584854,None,299.4584854,None,300.3742244,None,300.6403704,None,300.6403704,None,,,,,,,,,,,,,,,,sing17a,,,,,,,,,,,,,,,,,,,,1,2019_Nov_01_1429,ProdFawcett_Revision2019,3.2.4,59.98679148
64,0,64,0,,,,,,,,,,,,,,,,,307.3925863,None,materials/readPic.jpg,brilliant,A_silent,64,30,303.7257691,None,303.7257691,None,304.6420041,None,304.908403,None,304.908403,None,,,,,,,,,,,,,,,,sing17a,,,,,,,,,,,,,,,,,,,,1,2019_Nov_01_1429,ProdFawcett_Revision2019,3.2.4,59.98679148
65,0,65,0,,,,,,,,,,,,,,,,,311.66058,None,materials/readPic.jpg,distance,A_silent,65,100,307.9758378,None,307.9758378,None,308.9099733,None,309.1765168,None,309.1765168,None,,,,,,,,,,,,,,,,sing17a,,,,,,,,,,,,,,,,,,,,1,2019_Nov_01_1429,ProdFawcett_Revision2019,3.2.4,59.98679148
66,0,66,0,,,,,,,,,,,,,,,,,315.9285607,None,materials/speakPic.jpg,vision,B_aloud,66,347,312.2479147,None,312.2479147,None,313.1779974,None,313.4443578,None,313.4443578,None,,,,,,,,,,,,,,,,sing17a,,,,,,,,,,,,,,,,,,,,1,2019_Nov_01_1429,ProdFawcett_Revision2019,3.2.4,59.98679148
67,0,67,0,,,,,,,,,,,,,,,,,320.1965647,None,materials/speakPic.jpg,theme,B_aloud,67,326,316.5116872,None,316.5116872,None,317.4460108,None,317.7123434,None,317.7123434,None,,,,,,,,,,,,,,,,sing17a,,,,,,,,,,,,,,,,,,,,1,2019_Nov_01_1429,ProdFawcett_Revision2019,3.2.4,59.98679148
68,0,68,0,,,,,,,,,,,,,,,,,324.4645366,None,materials/speakPic.jpg,mechanical,B_aloud,68,185,320.768905,None,320.768905,None,321.7139815,None,321.9803222,None,321.9803222,None,,,,,,,,,,,,,,,,sing17a,,,,,,,,,,,,,,,,,,,,1,2019_Nov_01_1429,ProdFawcett_Revision2019,3.2.4,59.98679148
69,0,69,0,,,,,,,,,,,,,,,,,328.7325453,None,materials/readPic.jpg,partner,A_silent,69,211,325.0565317,None,325.0565317,None,325.9816894,None,326.2483053,None,326.2483053,None,,,,,,,,,,,,,,,,sing17a,,,,,,,,,,,,,,,,,,,,1,2019_Nov_01_1429,ProdFawcett_Revision2019,3.2.4,59.98679148
70,0,70,0,,,,,,,,,,,,,,,,,333.0005144,None,materials/singPic.jpg,piece,C_sing,70,221,329.3383912,None,329.3383912,None,330.2506687,None,330.5163258,None,330.5163258,None,,,,,,,,,,,,,,,,sing17a,,,,,,,,,,,,,,,,,,,,1,2019_Nov_01_1429,ProdFawcett_Revision2019,3.2.4,59.98679148
71,0,71,0,,,,,,,,,,,,,,,,,337.2685793,None,materials/singPic.jpg,rough,C_sing,71,266,333.5597761,None,333.5597761,None,334.517934,None,334.7843388,None,334.7843388,None,,,,,,,,,,,,,,,,sing17a,,,,,,,,,,,,,,,,,,,,1,2019_Nov_01_1429,ProdFawcett_Revision2019,3.2.4,59.98679148
72,0,72,0,,,,,,,,,,,,,,,,,341.5364667,None,materials/readPic.jpg,little,A_silent,72,174,337.870386,None,337.870386,None,338.786291,None,339.0523201,None,339.0523201,None,,,,,,,,,,,,,,,,sing17a,,,,,,,,,,,,,,,,,,,,1,2019_Nov_01_1429,ProdFawcett_Revision2019,3.2.4,59.98679148
73,0,73,0,,,,,,,,,,,,,,,,,345.8045332,None,materials/singPic.jpg,problem,C_sing,73,238,342.1378615,None,342.1378615,None,343.0539923,None,343.3202584,None,343.3202584,None,,,,,,,,,,,,,,,,sing17a,,,,,,,,,,,,,,,,,,,,1,2019_Nov_01_1429,ProdFawcett_Revision2019,3.2.4,59.98679148
74,0,74,0,,,,,,,,,,,,,,,,,350.0724659,None,materials/readPic.jpg,right,A_silent,74,265,346.4125465,None,346.4125465,None,347.3216452,None,347.5882478,None,347.5882478,None,,,,,,,,,,,,,,,,sing17a,,,,,,,,,,,,,,,,,,,,1,2019_Nov_01_1429,ProdFawcett_Revision2019,3.2.4,59.98679148
75,0,75,0,,,,,,,,,,,,,,,,,354.3404618,None,materials/speakPic.jpg,stand,B_aloud,75,302,350.6739317,None,350.6739317,None,351.5899462,None,351.8563053,None,351.8563053,None,,,,,,,,,,,,,,,,sing17a,,,,,,,,,,,,,,,,,,,,1,2019_Nov_01_1429,ProdFawcett_Revision2019,3.2.4,59.98679148
76,0,76,0,,,,,,,,,,,,,,,,,358.6084276,None,materials/readPic.jpg,second,A_silent,76,278,354.9324103,None,354.9324103,None,355.8579337,None,356.1242393,None,356.1242393,None,,,,,,,,,,,,,,,,sing17a,,,,,,,,,,,,,,,,,,,,1,2019_Nov_01_1429,ProdFawcett_Revision2019,3.2.4,59.98679148
77,0,77,0,,,,,,,,,,,,,,,,,362.8764294,None,materials/readPic.jpg,smell,A_silent,77,291,359.1829919,None,359.1829919,None,360.1259399,None,360.3922439,None,360.3922439,None,,,,,,,,,,,,,,,,sing17a,,,,,,,,,,,,,,,,,,,,1,2019_Nov_01_1429,ProdFawcett_Revision2019,3.2.4,59.98679148
78,0,78,0,,,,,,,,,,,,,,,,,367.1444458,None,materials/singPic.jpg,novel,C_sing,78,202,363.4945655,None,363.4945655,None,364.3938704,None,364.6601956,None,364.6601956,None,,,,,,,,,,,,,,,,sing17a,,,,,,,,,,,,,,,,,,,,1,2019_Nov_01_1429,ProdFawcett_Revision2019,3.2.4,59.98679148
79,0,79,0,,,,,,,,,,,,,,,,,371.4125365,None,materials/singPic.jpg,narrow,C_sing,79,197,367.7328003,None,367.7328003,None,368.6616073,None,368.9282127,None,368.9282127,None,,,,,,,,,,,,,,,,sing17a,,,,,,,,,,,,,,,,,,,,1,2019_Nov_01_1429,ProdFawcett_Revision2019,3.2.4,59.98679148
80,0,80,0,,,,,,,,,,,,,,,,,375.6803922,None,materials/speakPic.jpg,substance,B_aloud,80,313,371.998802,None,371.998802,None,372.9299083,None,373.1962652,None,373.1962652,None,,,,,,,,,,,,,,,,sing17a,,,,,,,,,,,,,,,,,,,,1,2019_Nov_01_1429,ProdFawcett_Revision2019,3.2.4,59.98679148
81,0,81,0,,,,,,,,,,,,,,,,,379.9484046,None,materials/speakPic.jpg,owner,B_aloud,81,208,376.2498656,None,376.2498656,None,377.1978332,None,377.4641541,None,377.4641541,None,,,,,,,,,,,,,,,,sing17a,,,,,,,,,,,,,,,,,,,,1,2019_Nov_01_1429,ProdFawcett_Revision2019,3.2.4,59.98679148
82,0,82,0,,,,,,,,,,,,,,,,,384.2163603,None,materials/readPic.jpg,angle,A_silent,82,7,380.5496094,None,380.5496094,None,381.4659299,None,381.7321804,None,381.7321804,None,,,,,,,,,,,,,,,,sing17a,,,,,,,,,,,,,,,,,,,,1,2019_Nov_01_1429,ProdFawcett_Revision2019,3.2.4,59.98679148
83,0,83,0,,,,,,,,,,,,,,,,,388.4843786,None,materials/singPic.jpg,watch,C_sing,83,351,384.8260506,None,384.8260506,None,385.7338897,None,386.000139,None,386.000139,None,,,,,,,,,,,,,,,,sing17a,,,,,,,,,,,,,,,,,,,,1,2019_Nov_01_1429,ProdFawcett_Revision2019,3.2.4,59.98679148
84,0,84,0,,,,,,,,,,,,,,,,,392.7524013,None,materials/speakPic.jpg,split,B_aloud,84,299,389.0720682,None,389.0720682,None,390.0018816,None,390.2681386,None,390.2681386,None,,,,,,,,,,,,,,,,sing17a,,,,,,,,,,,,,,,,,,,,1,2019_Nov_01_1429,ProdFawcett_Revision2019,3.2.4,59.98679148
85,0,85,0,,,,,,,,,,,,,,,,,397.0203042,None,materials/singPic.jpg,silence,C_sing,85,288,393.3709004,None,393.3709004,None,394.2705623,None,394.5361492,None,394.5361492,None,,,,,,,,,,,,,,,,sing17a,,,,,,,,,,,,,,,,,,,,1,2019_Nov_01_1429,ProdFawcett_Revision2019,3.2.4,59.98679148
86,0,86,0,,,,,,,,,,,,,,,,,401.2882941,None,materials/readPic.jpg,crisis,A_silent,86,79,397.6220175,None,397.6220175,None,398.5391665,None,398.804122,None,398.804122,None,,,,,,,,,,,,,,,,sing17a,,,,,,,,,,,,,,,,,,,,1,2019_Nov_01_1429,ProdFawcett_Revision2019,3.2.4,59.98679148
87,0,87,0,,,,,,,,,,,,,,,,,405.5562935,None,materials/singPic.jpg,incident,C_sing,87,158,401.8922597,None,401.8922597,None,402.806657,None,403.0721702,None,403.0721702,None,,,,,,,,,,,,,,,,sing17a,,,,,,,,,,,,,,,,,,,,1,2019_Nov_01_1429,ProdFawcett_Revision2019,3.2.4,59.98679148
88,0,88,0,,,,,,,,,,,,,,,,,409.8244442,None,materials/singPic.jpg,growth,C_sing,88,144,406.1394144,None,406.1394144,None,407.0735734,None,407.340075,None,407.340075,None,,,,,,,,,,,,,,,,sing17a,,,,,,,,,,,,,,,,,,,,1,2019_Nov_01_1429,ProdFawcett_Revision2019,3.2.4,59.98679148
89,0,89,0,,,,,,,,,,,,,,,,,414.0922744,None,materials/singPic.jpg,enemy,C_sing,89,113,410.4152591,None,410.4152591,None,411.3438303,None,411.5913246,None,411.5913246,None,,,,,,,,,,,,,,,,sing17a,,,,,,,,,,,,,,,,,,,,1,2019_Nov_01_1429,ProdFawcett_Revision2019,3.2.4,59.98679148
,,,,,,,,,,,,,,,,,,,,,,,,,,,,,,,,,,,,,414.5924345,None,k,75.14069416,414.5924345,None,,,,,,,,,,sing17a,,,,,,,,,,,,,,,,,,,,1,2019_Nov_01_1429,ProdFawcett_Revision2019,3.2.4,59.98679148
,,,,,,,,,,,,,,489.7657641,None,space,6.558921441,489.7657641,None,,,,,,,,,,,,,,,,,,,,,,,,,,,,,,,,,sing17a,,,,,,,,,,,,,,,,,,,,1,2019_Nov_01_1429,ProdFawcett_Revision2019,3.2.4,59.98679148
,,,,0,0,0,0,,,,,,,,,,,,,502.487396,None,,,,,,,,,,,,,,,,,,,,,,medicine,A_silent,0,186,496.8741957,None,496.8741957,None,496.8741957,sing17a,6,1.819125148,496.8741957,None,498.7516555,None,498.7516555,None,499.2716359,None,499.2716359,None,499.2716359,None,r,3.173498476,499.2716359,None,,1,2019_Nov_01_1429,ProdFawcett_Revision2019,3.2.4,59.98679148
,,,,1,0,1,0,,,,,,,,,,,,,509.9385535,None,,,,,,,,,,,,,,,,,,,,,,platform,D_new,1,224,503.005497,None,503.005497,None,503.005497,sing17a,3,4.30239939,503.005497,None,507.3710531,None,507.3710531,None,507.8877353,None,507.8877353,None,507.8877353,None,f,2.012205324,507.8877353,None,,1,2019_Nov_01_1429,ProdFawcett_Revision2019,3.2.4,59.98679148
,,,,2,0,2,0,,,,,,,,,,,,,514.0071546,None,,,,,,,,,,,,,,,,,,,,,,problem,C_sing,2,238,510.459642,None,510.459642,None,510.459642,sing17a,2,2.191966785,510.459642,None,512.6947618,None,512.6947618,None,513.2227281,None,513.2227281,None,513.2227281,None,n,0.741649562,513.2227281,None,,1,2019_Nov_01_1429,ProdFawcett_Revision2019,3.2.4,59.98679148
,,,,3,0,3,0,,,,,,,,,,,,,518.657753,None,,,,,,,,,,,,,,,,,,,,,,blind,A_silent,3,24,514.5234136,None,514.5234136,None,514.5234136,sing17a,6,2.312384773,514.5234136,None,516.8905981,None,516.8905981,None,517.4075278,None,517.4075278,None,517.4075278,None,r,1.203715556,517.4075278,None,,1,2019_Nov_01_1429,ProdFawcett_Revision2019,3.2.4,59.98679148
,,,,4,0,4,0,,,,,,,,,,,,,524.9932018,None,,,,,,,,,,,,,,,,,,,,,,conference,D_new,4,66,519.1765858,None,519.1765858,None,519.1765858,sing17a,4,4.050595571,519.1765858,None,523.2809657,None,523.2809657,None,523.8097938,None,523.8097938,None,523.8097938,None,f,1.137120731,523.8097938,None,,1,2019_Nov_01_1429,ProdFawcett_Revision2019,3.2.4,59.98679148
,,,,5,0,5,0,,,,,,,,,,,,,528.8110391,None,,,,,,,,,,,,,,,,,,,,,,piece,C_sing,5,221,525.5103667,None,525.5103667,None,525.5103667,sing17a,6,1.236409467,525.5103667,None,526.8104332,None,526.8104332,None,527.3270903,None,527.3270903,None,527.3270903,None,r,1.444034646,527.3270903,None,,1,2019_Nov_01_1429,ProdFawcett_Revision2019,3.2.4,59.98679148
,,,,6,0,6,0,,,,,,,,,,,,,533.0123359,None,,,,,,,,,,,,,,,,,,,,,,right,A_silent,6,265,529.3276513,None,529.3276513,None,529.3276513,sing17a,2,1.602915967,529.3276513,None,530.9949384,None,530.9949384,None,531.5118215,None,531.5118215,None,531.5118215,None,n,1.459396965,531.5118215,None,,1,2019_Nov_01_1429,ProdFawcett_Revision2019,3.2.4,59.98679148
,,,,7,0,7,0,,,,,,,,,,,,,536.463407,None,,,,,,,,,,,,,,,,,,,,,,concern,C_sing,7,65,533.5304311,None,533.5304311,None,533.5304311,sing17a,1,1.608553835,533.5304311,None,535.1963886,None,535.1963886,None,535.7130904,None,535.7130904,None,535.7130904,None,n,0.713143621,535.7130904,None,,1,2019_Nov_01_1429,ProdFawcett_Revision2019,3.2.4,59.98679148
,,,,8,0,8,0,,,,,,,,,,,,,539.8643034,None,,,,,,,,,,,,,,,,,,,,,,health,D_new,8,149,536.9813289,None,536.9813289,None,536.9813289,sing17a,1,1.08493811,536.9813289,None,538.1305949,None,538.1305949,None,538.6473938,None,538.6473938,None,538.6473938,None,n,1.178704982,538.6473938,None,,1,2019_Nov_01_1429,ProdFawcett_Revision2019,3.2.4,59.98679148
,,,,9,0,9,0,,,,,,,,,,,,,545.0826143,None,,,,,,,,,,,,,,,,,,,,,,taste,B_aloud,9,322,540.3826348,None,540.3826348,None,540.3826348,sing17a,6,2.571232506,540.3826348,None,543.0153835,None,543.0153835,None,543.5322722,None,543.5322722,None,543.5322722,None,r,1.517500467,543.5322722,None,,1,2019_Nov_01_1429,ProdFawcett_Revision2019,3.2.4,59.98679148
,,,,10,0,10,0,,,,,,,,,,,,,548.8672688,None,,,,,,,,,,,,,,,,,,,,,,household,D_new,10,154,545.6014396,None,545.6014396,None,545.6014396,sing17a,2,1.760439448,545.6014396,None,547.4167908,None,547.4167908,None,547.9334979,None,547.9334979,None,547.9334979,None,n,0.900550476,547.9334979,None,,1,2019_Nov_01_1429,ProdFawcett_Revision2019,3.2.4,59.98679148
,,,,11,0,11,0,,,,,,,,,,,,,551.8181474,None,,,,,,,,,,,,,,,,,,,,,,master,D_new,11,180,549.3854503,None,549.3854503,None,549.3854503,sing17a,1,1.448579959,549.3854503,None,550.8844959,None,550.8844959,None,551.4014717,None,551.4014717,None,551.4014717,None,n,0.367779125,551.4014717,None,,1,2019_Nov_01_1429,ProdFawcett_Revision2019,3.2.4,59.98679148
,,,,12,0,12,0,,,,,,,,,,,,,556.2862079,None,,,,,,,,,,,,,,,,,,,,,,partner,A_silent,12,211,552.3360789,None,552.3360789,None,552.3360789,sing17a,3,2.721325185,552.3360789,None,555.1080814,None,555.1080814,None,555.6358391,None,555.6358391,None,555.6358391,None,f,0.613447783,555.6358391,None,,1,2019_Nov_01_1429,ProdFawcett_Revision2019,3.2.4,59.98679148
,,,,13,0,13,0,,,,,,,,,,,,,561.3210702,None,,,,,,,,,,,,,,,,,,,,,,growth,C_sing,13,144,556.8043634,None,556.8043634,None,556.8043634,sing17a,6,1.55745195,556.8043634,None,558.40916,None,558.40916,None,558.9369357,None,558.9369357,None,558.9369357,None,r,2.344336941,558.9369357,None,,1,2019_Nov_01_1429,ProdFawcett_Revision2019,3.2.4,59.98679148
,,,,14,0,14,0,,,,,,,,,,,,,564.3886985,None,,,,,,,,,,,,,,,,,,,,,,thick,C_sing,14,327,561.838124,None,561.838124,None,561.838124,sing17a,6,1.227021832,561.838124,None,563.1215752,None,563.1215752,None,563.6385143,None,563.6385143,None,563.6385143,None,r,0.714257324,563.6385143,None,,1,2019_Nov_01_1429,ProdFawcett_Revision2019,3.2.4,59.98679148
,,,,15,0,15,0,,,,,,,,,,,,,567.0895512,None,,,,,,,,,,,,,,,,,,,,,,death,D_new,15,86,564.9054519,None,564.9054519,None,564.9054519,sing17a,1,1.567400323,564.9054519,None,566.5226976,None,566.5226976,None,567.0394209,None,567.0394209,None,567.0394209,None,n,0.017100827,567.0394209,None,,1,2019_Nov_01_1429,ProdFawcett_Revision2019,3.2.4,59.98679148
,,,,16,0,16,0,,,,,,,,,,,,,570.1404929,None,,,,,,,,,,,,,,,,,,,,,,citizen,D_new,16,50,567.6138443,None,567.6138443,None,567.6138443,sing17a,2,1.370988368,567.6138443,None,569.0400243,None,569.0400243,None,569.5608394,None,569.5608394,None,569.5608394,None,n,0.536328917,569.5608394,None,,1,2019_Nov_01_1429,ProdFawcett_Revision2019,3.2.4,59.98679148
,,,,17,0,17,0,,,,,,,,,,,,,573.7082941,None,,,,,,,,,,,,,,,,,,,,,,brilliant,A_silent,17,30,570.6593422,None,570.6593422,None,570.6593422,sing17a,6,1.725228587,570.6593422,None,572.4410636,None,572.4410636,None,572.9580012,None,572.9580012,None,572.9580012,None,r,0.714247994,572.9580012,None,,1,2019_Nov_01_1429,ProdFawcett_Revision2019,3.2.4,59.98679148
,,,,18,0,18,0,,,,,,,,,,,,,576.7257607,None,,,,,,,,,,,,,,,,,,,,,,history,B_aloud,18,153,574.2250952,None,574.2250952,None,574.2250952,sing17a,1,1.662912546,574.2250952,None,575.9306348,None,575.9306348,None,576.4590312,None,576.4590312,None,576.4590312,None,n,0.220876096,576.4590312,None,,1,2019_Nov_01_1429,ProdFawcett_Revision2019,3.2.4,59.98679148
,,,,19,0,19,0,,,,,,,,,,,,,579.8934226,None,,,,,,,,,,,,,,,,,,,,,,split,B_aloud,19,299,577.242605,None,577.242605,None,577.242605,sing17a,6,1.12606332,577.242605,None,578.4161003,None,578.4161003,None,578.9431831,None,578.9431831,None,578.9431831,None,r,0.90524787,578.9431831,None,,1,2019_Nov_01_1429,ProdFawcett_Revision2019,3.2.4,59.98679148
,,,,20,0,20,0,,,,,,,,,,,,,582.8276575,None,,,,,,,,,,,,,,,,,,,,,,defeat,A_silent,20,88,580.4103334,None,580.4103334,None,580.4103334,sing17a,1,1.581410089,580.4103334,None,582.0441323,None,582.0441323,None,582.5610111,None,582.5610111,None,582.5610111,None,n,0.230712509,582.5610111,None,,1,2019_Nov_01_1429,ProdFawcett_Revision2019,3.2.4,59.98679148
,,,,21,0,21,0,,,,,,,,,,,,,588.6795761,None,,,,,,,,,,,,,,,,,,,,,,distance,A_silent,21,100,583.3465245,None,583.3465245,None,583.3465245,sing17a,6,1.668872924,583.3465245,None,585.0783815,None,585.0783815,None,585.595311,None,585.595311,None,585.595311,None,f,3.044213473,585.595311,None,,1,2019_Nov_01_1429,ProdFawcett_Revision2019,3.2.4,59.98679148
,,,,22,0,22,0,,,,,,,,,,,,,592.1138412,None,,,,,,,,,,,,,,,,,,,,,,sweet,D_new,22,319,589.196564,None,589.196564,None,589.196564,sing17a,1,1.802596567,589.196564,None,591.0636695,None,591.0636695,None,591.5803269,None,591.5803269,None,591.5803269,None,n,0.491629035,591.5803269,None,,1,2019_Nov_01_1429,ProdFawcett_Revision2019,3.2.4,59.98679148
,,,,23,0,23,0,,,,,,,,,,,,,594.5980656,None,,,,,,,,,,,,,,,,,,,,,,smell,A_silent,23,291,592.631332,None,592.631332,None,592.631332,sing17a,1,1.063796417,592.631332,None,593.7477331,None,593.7477331,None,594.2646153,None,594.2646153,None,594.2646153,None,n,0.294704547,594.2646153,None,,1,2019_Nov_01_1429,ProdFawcett_Revision2019,3.2.4,59.98679148
,,,,24,0,24,0,,,,,,,,,,,,,598.7660154,None,,,,,,,,,,,,,,,,,,,,,,owner,B_aloud,24,208,595.1153185,None,595.1153185,None,595.1153185,sing17a,6,2.203394601,595.1153185,None,597.3822725,None,597.3822725,None,597.8991186,None,597.8991186,None,597.8991186,None,r,0.82793556,597.8991186,None,,1,2019_Nov_01_1429,ProdFawcett_Revision2019,3.2.4,59.98679148
,,,,25,0,25,0,,,,,,,,,,,,,601.9169724,None,,,,,,,,,,,,,,,,,,,,,,series,D_new,25,279,599.2842427,None,599.2842427,None,599.2842427,sing17a,1,1.514915407,599.2842427,None,600.8498862,None,600.8498862,None,601.3668178,None,601.3668178,None,601.3668178,None,n,0.511946259,601.3668178,None,,1,2019_Nov_01_1429,ProdFawcett_Revision2019,3.2.4,59.98679148
,,,,26,0,26,0,,,,,,,,,,,,,605.1513516,None,,,,,,,,,,,,,,,,,,,,,,height,D_new,26,152,602.4354124,None,602.4354124,None,602.4354124,sing17a,1,1.731482864,602.4354124,None,604.2176345,None,604.2176345,None,604.7345316,None,604.7345316,None,604.7345316,None,n,0.37604466,604.7345316,None,,1,2019_Nov_01_1429,ProdFawcett_Revision2019,3.2.4,59.98679148
,,,,27,0,27,0,,,,,,,,,,,,,607.6853042,None,,,,,,,,,,,,,,,,,,,,,,spoke,D_new,27,300,605.6719531,None,605.6719531,None,605.6719531,sing17a,1,0.934213162,605.6719531,None,606.6683644,None,606.6683644,None,607.1853437,None,607.1853437,None,607.1853437,None,n,0.46123375,607.1853437,None,,1,2019_Nov_01_1429,ProdFawcett_Revision2019,3.2.4,59.98679148
,,,,28,0,28,0,,,,,,,,,,,,,610.3195783,None,,,,,,,,,,,,,,,,,,,,,,heavy,B_aloud,28,151,608.2021758,None,608.2021758,None,608.2021758,sing17a,1,0.780016172,608.2021758,None,609.0357921,None,609.0357921,None,609.5525745,None,609.5525745,None,609.5525745,None,n,0.726270759,609.5525745,None,,1,2019_Nov_01_1429,ProdFawcett_Revision2019,3.2.4,59.98679148
,,,,29,0,29,0,,,,,,,,,,,,,612.2533529,None,,,,,,,,,,,,,,,,,,,,,,passage,D_new,29,212,610.8373692,None,610.8373692,None,610.8373692,sing17a,1,0.808914909,610.8373692,None,611.6904681,None,611.6904681,None,612.2200435,None,612.2200435,None,612.2200435,None,n,0.001687504,612.2200435,None,,1,2019_Nov_01_1429,ProdFawcett_Revision2019,3.2.4,59.98679148
,,,,30,0,30,0,,,,,,,,,,,,,615.3379819,None,,,,,,,,,,,,,,,,,,,,,,title,A_silent,30,331,612.7703748,None,612.7703748,None,612.7703748,sing17a,6,1.324161535,612.7703748,None,614.1430593,None,614.1430593,None,614.6710493,None,614.6710493,None,614.6710493,None,r,0.623336443,614.6710493,None,,1,2019_Nov_01_1429,ProdFawcett_Revision2019,3.2.4,59.98679148
,,,,31,0,31,0,,,,,,,,,,,,,618.3222255,None,,,,,,,,,,,,,,,,,,,,,,budget,D_new,31,34,615.8546028,None,615.8546028,None,615.8546028,sing17a,1,1.295138707,615.8546028,None,617.2049988,None,617.2049988,None,617.7218915,None,617.7218915,None,617.7218915,None,n,0.556379922,617.7218915,None,,1,2019_Nov_01_1429,ProdFawcett_Revision2019,3.2.4,59.98679148
,,,,32,0,32,0,,,,,,,,,,,,,620.6061448,None,,,,,,,,,,,,,,,,,,,,,,murder,D_new,32,195,618.8402,None,618.8402,None,618.8402,sing17a,1,0.853197736,618.8402,None,619.7558745,None,619.7558745,None,620.2726793,None,620.2726793,None,620.2726793,None,n,0.284732848,620.2726793,None,,1,2019_Nov_01_1429,ProdFawcett_Revision2019,3.2.4,59.98679148
,,,,33,0,33,0,,,,,,,,,,,,,624.3404833,None,,,,,,,,,,,,,,,,,,,,,,swift,D_new,33,320,621.1231144,None,621.1231144,None,621.1231144,sing17a,4,1.802114822,621.1231144,None,622.9901658,None,622.9901658,None,623.5069506,None,623.5069506,None,623.5069506,None,f,0.786179324,623.5069506,None,,1,2019_Nov_01_1429,ProdFawcett_Revision2019,3.2.4,59.98679148
,,,,34,0,34,0,,,,,,,,,,,,,626.6745295,None,,,,,,,,,,,,,,,,,,,,,,minor,D_new,34,191,624.8575241,None,624.8575241,None,624.8575241,sing17a,1,0.940349879,624.8575241,None,625.8462406,None,625.8462406,None,626.3744287,None,626.3744287,None,626.3744287,None,n,0.262666231,626.3744287,None,,1,2019_Nov_01_1429,ProdFawcett_Revision2019,3.2.4,59.98679148
,,,,35,0,35,0,,,,,,,,,,,,,629.2253856,None,,,,,,,,,,,,,,,,,,,,,,silence,C_sing,35,288,627.1913087,None,627.1913087,None,627.1913087,sing17a,1,1.14227841,627.1913087,None,628.3917942,None,628.3917942,None,628.9086782,None,628.9086782,None,628.9086782,None,n,0.272993407,628.9086782,None,,1,2019_Nov_01_1429,ProdFawcett_Revision2019,3.2.4,59.98679148
,,,,36,0,36,0,,,,,,,,,,,,,631.6928777,None,,,,,,,,,,,,,,,,,,,,,,husband,B_aloud,36,156,629.7421198,None,629.7421198,None,629.7421198,sing17a,6,1.214787274,629.7421198,None,631.0093223,None,631.0093223,None,631.5261855,None,631.5261855,None,631.5261855,None,r,0.12698389,631.5261855,None,,1,2019_Nov_01_1429,ProdFawcett_Revision2019,3.2.4,59.98679148
,,,,37,0,37,0,,,,,,,,,,,,,636.4779738,None,,,,,,,,,,,,,,,,,,,,,,resistance,C_sing,37,262,632.2120274,None,632.2120274,None,632.2120274,sing17a,4,3.064996268,632.2120274,None,635.3273646,None,635.3273646,None,635.8447652,None,635.8447652,None,635.8447652,None,f,0.592316042,635.8447652,None,,1,2019_Nov_01_1429,ProdFawcett_Revision2019,3.2.4,59.98679148
,,,,38,0,38,0,,,,,,,,,,,,,639.2285476,None,,,,,,,,,,,,,,,,,,,,,,colonel,D_new,38,55,636.9963317,None,636.9963317,None,636.9963317,sing17a,1,1.144084095,636.9963317,None,638.1947736,None,638.1947736,None,638.7116166,None,638.7116166,None,638.7116166,None,n,0.468728308,638.7116166,None,,1,2019_Nov_01_1429,ProdFawcett_Revision2019,3.2.4,59.98679148
,,,,39,0,39,0,,,,,,,,,,,,,642.6295553,None,,,,,,,,,,,,,,,,,,,,,,region,B_aloud,39,256,639.7461893,None,639.7461893,None,639.7461893,sing17a,1,0.978059028,639.7461893,None,640.7790039,None,640.7790039,None,641.2958686,None,641.2958686,None,641.2958686,None,n,1.300538969,641.2958686,None,,1,2019_Nov_01_1429,ProdFawcett_Revision2019,3.2.4,59.98679148
,,,,40,0,40,0,,,,,,,,,,,,,645.4137958,None,,,,,,,,,,,,,,,,,,,,,,accident,A_silent,40,0,643.1472442,None,643.1472442,None,643.1472442,sing17a,6,1.37716676,643.1472442,None,644.5802329,None,644.5802329,None,645.0969158,None,645.0969158,None,645.0969158,None,f,0.283556634,645.0969158,None,,1,2019_Nov_01_1429,ProdFawcett_Revision2019,3.2.4,59.98679148
,,,,41,0,41,0,,,,,,,,,,,,,648.6814857,None,,,,,,,,,,,,,,,,,,,,,,second,A_silent,41,278,645.9310391,None,645.9310391,None,645.9310391,sing17a,1,1.617029297,645.9310391,None,647.5977455,None,647.5977455,None,648.1146358,None,648.1146358,None,648.1146358,None,n,0.521080114,648.1146358,None,,1,2019_Nov_01_1429,ProdFawcett_Revision2019,3.2.4,59.98679148
,,,,42,0,42,0,,,,,,,,,,,,,651.1988997,None,,,,,,,,,,,,,,,,,,,,,,theme,B_aloud,42,326,649.1983097,None,649.1983097,None,649.1983097,sing17a,1,0.797547739,649.1983097,None,650.0376112,None,650.0376112,None,650.5653947,None,650.5653947,None,650.5653947,None,n,0.59835386,650.5653947,None,,1,2019_Nov_01_1429,ProdFawcett_Revision2019,3.2.4,59.98679148
,,,,43,0,43,0,,,,,,,,,,,,,653.4328998,None,,,,,,,,,,,,,,,,,,,,,,account,D_new,43,1,651.7170564,None,651.7170564,None,651.7170564,sing17a,1,1.023314984,651.7170564,None,652.7875275,None,652.7875275,None,653.3161072,None,653.3161072,None,653.3161072,None,n,0.071349443,653.3161072,None,,1,2019_Nov_01_1429,ProdFawcett_Revision2019,3.2.4,59.98679148
,,,,44,0,44,0,,,,,,,,,,,,,656.2003384,None,,,,,,,,,,,,,,,,,,,,,,touch,A_silent,44,332,653.9496458,None,653.9496458,None,653.9496458,sing17a,3,1.437699509,653.9496458,None,655.4502046,None,655.4502046,None,655.9670955,None,655.9670955,None,655.9670955,None,f,0.188348261,655.9670955,None,,1,2019_Nov_01_1429,ProdFawcett_Revision2019,3.2.4,59.98679148
,,,,45,0,45,0,,,,,,,,,,,,,658.834499,None,,,,,,,,,,,,,,,,,,,,,,store,B_aloud,45,305,656.7186621,None,656.7186621,None,656.7186621,sing17a,1,0.996731355,656.7186621,None,657.7675751,None,657.7675751,None,658.2843727,None,658.2843727,None,658.2843727,None,n,0.502770417,658.2843727,None,,1,2019_Nov_01_1429,ProdFawcett_Revision2019,3.2.4,59.98679148
,,,,46,0,46,0,,,,,,,,,,,,,661.0686646,None,,,,,,,,,,,,,,,,,,,,,,property,D_new,46,242,659.3522283,None,659.3522283,None,659.3522283,sing17a,1,0.659117684,659.3522283,None,660.0683193,None,660.0683193,None,660.5850771,None,660.5850771,None,660.5850771,None,n,0.442753934,660.5850771,None,,1,2019_Nov_01_1429,ProdFawcett_Revision2019,3.2.4,59.98679148
,,,,47,0,47,0,,,,,,,,,,,,,662.9026777,None,,,,,,,,,,,,,,,,,,,,,,notice,D_new,47,201,661.5854108,None,661.5854108,None,661.5854108,sing17a,1,0.585653418,661.5854108,None,662.2356192,None,662.2356192,None,662.752475,None,662.752475,None,662.752475,None,n,0.114701748,662.752475,None,,1,2019_Nov_01_1429,ProdFawcett_Revision2019,3.2.4,59.98679148
,,,,48,0,48,0,,,,,,,,,,,,,664.7864238,None,,,,,,,,,,,,,,,,,,,,,,debate,D_new,48,87,663.4196734,None,663.4196734,None,663.4196734,sing17a,1,0.719140698,663.4196734,None,664.2028647,None,664.2028647,None,664.7196756,None,664.7196756,None,664.7196756,None,n,0.01912888,664.7196756,None,,1,2019_Nov_01_1429,ProdFawcett_Revision2019,3.2.4,59.98679148
,,,,49,0,49,0,,,,,,,,,,,,,667.270617,None,,,,,,,,,,,,,,,,,,,,,,little,A_silent,49,174,665.3038288,None,665.3038288,None,665.3038288,sing17a,1,1.018861728,665.3038288,None,666.3737131,None,666.3737131,None,666.9036487,None,666.9036487,None,666.9036487,None,n,0.323798283,666.9036487,None,,1,2019_Nov_01_1429,ProdFawcett_Revision2019,3.2.4,59.98679148
,,,,50,0,50,0,,,,,,,,,,,,,669.7545531,None,,,,,,,,,,,,,,,,,,,,,,harmony,C_sing,50,148,667.7890847,None,667.7890847,None,667.7890847,sing17a,6,1.277519438,667.7890847,None,669.1084599,None,669.1084599,None,669.6378056,None,669.6378056,None,669.6378056,None,r,0.077166138,669.6378056,None,,1,2019_Nov_01_1429,ProdFawcett_Revision2019,3.2.4,59.98679148
,,,,51,0,51,0,,,,,,,,,,,,,673.3556397,None,,,,,,,,,,,,,,,,,,,,,,quick,D_new,51,248,670.2730208,None,670.2730208,None,670.2730208,sing17a,2,2.377669963,670.2730208,None,672.7055539,None,672.7055539,None,673.2224544,None,673.2224544,None,673.2224544,None,n,0.100168875,673.2224544,None,,1,2019_Nov_01_1429,ProdFawcett_Revision2019,3.2.4,59.98679148
,,,,52,0,52,0,,,,,,,,,,,,,676.4399593,None,,,,,,,,,,,,,,,,,,,,,,worker,D_new,52,356,673.8767338,None,673.8767338,None,673.8767338,sing17a,1,1.501846738,673.8767338,None,675.4289535,None,675.4289535,None,675.9565519,None,675.9565519,None,675.9565519,None,n,0.43756049,675.9565519,None,,1,2019_Nov_01_1429,ProdFawcett_Revision2019,3.2.4,59.98679148
,,,,53,0,53,0,,,,,,,,,,,,,678.7074065,None,,,,,,,,,,,,,,,,,,,,,,curve,A_silent,53,82,676.9567565,None,676.9567565,None,676.9567565,sing17a,1,0.693638739,676.9567565,None,677.6949726,None,677.6949726,None,678.2073027,None,678.2073027,None,678.2073027,None,n,0.467033651,678.2073027,None,,1,2019_Nov_01_1429,ProdFawcett_Revision2019,3.2.4,59.98679148
,,,,54,0,54,0,,,,,,,,,,,,,683.0588232,None,,,,,,,,,,,,,,,,,,,,,,rough,C_sing,54,266,679.2243354,None,679.2243354,None,679.2243354,sing17a,6,3.065630404,679.2243354,None,682.331328,None,682.331328,None,682.8585485,None,682.8585485,None,682.8585485,None,f,0.167294582,682.8585485,None,,1,2019_Nov_01_1429,ProdFawcett_Revision2019,3.2.4,59.98679148
,,,,55,0,55,0,,,,,,,,,,,,,685.509425,None,,,,,,,,,,,,,,,,,,,,,,crisis,A_silent,55,79,683.5758036,None,683.5758036,None,683.5758036,sing17a,6,1.31403589,683.5758036,None,684.9426547,None,684.9426547,None,685.4595245,None,685.4595245,None,685.4595245,None,r,0.006804441,685.4595245,None,,1,2019_Nov_01_1429,ProdFawcett_Revision2019,3.2.4,59.98679148
,,,,56,0,56,0,,,,,,,,,,,,,688.3437703,None,,,,,,,,,,,,,,,,,,,,,,degree,D_new,56,89,686.0262801,None,686.0262801,None,686.0262801,sing17a,3,1.271182435,686.0262801,None,687.3601477,None,687.3601477,None,687.8768701,None,687.8768701,None,687.8768701,None,n,0.420549854,687.8768701,None,,1,2019_Nov_01_1429,ProdFawcett_Revision2019,3.2.4,59.98679148
,,,,57,0,57,0,,,,,,,,,,,,,691.4280537,None,,,,,,,,,,,,,,,,,,,,,,article,D_new,57,11,688.8620113,None,688.8620113,None,688.8620113,sing17a,2,1.483362568,688.8620113,None,690.3995767,None,690.3995767,None,690.9277779,None,690.9277779,None,690.9277779,None,n,0.466147602,690.9277779,None,,1,2019_Nov_01_1429,ProdFawcett_Revision2019,3.2.4,59.98679148
,,,,58,0,58,0,,,,,,,,,,,,,697.2131853,None,,,,,,,,,,,,,,,,,,,,,,community,D_new,58,63,691.9458605,None,691.9458605,None,691.9458605,sing17a,1,4.391898053,691.9458605,None,696.3841976,None,696.3841976,None,696.8963787,None,696.8963787,None,696.8963787,None,n,0.273519313,696.8963787,None,,1,2019_Nov_01_1429,ProdFawcett_Revision2019,3.2.4,59.98679148
,,,,59,0,59,0,,,,,,,,,,,,,699.5306652,None,,,,,,,,,,,,,,,,,,,,,,sleep,B_aloud,59,290,697.7311977,None,697.7311977,None,697.7311977,sing17a,1,0.790560117,697.7311977,None,698.5802867,None,698.5802867,None,699.0969904,None,699.0969904,None,699.0969904,None,n,0.400405548,699.0969904,None,,1,2019_Nov_01_1429,ProdFawcett_Revision2019,3.2.4,59.98679148
,,,,60,0,60,0,,,,,,,,,,,,,702.7982475,None,,,,,,,,,,,,,,,,,,,,,,contract,A_silent,60,68,700.0491084,None,700.0491084,None,700.0491084,sing17a,4,1.983601107,700.0491084,None,702.0979981,None,702.0979981,None,702.6148122,None,702.6148122,None,702.6148122,None,f,0.145902532,702.6148122,None,,1,2019_Nov_01_1429,ProdFawcett_Revision2019,3.2.4,59.98679148
,,,,61,0,61,0,,,,,,,,,,,,,705.4490067,None,,,,,,,,,,,,,,,,,,,,,,foundation,D_new,61,132,703.3167276,None,703.3167276,None,703.3167276,sing17a,1,1.211896498,703.3167276,None,704.5819948,None,704.5819948,None,705.0988089,None,705.0988089,None,705.0988089,None,n,0.310100143,705.0988089,None,,1,2019_Nov_01_1429,ProdFawcett_Revision2019,3.2.4,59.98679148
,,,,62,0,62,0,,,,,,,,,,,,,708.8057467,None,,,,,,,,,,,,,,,,,,,,,,design,C_sing,62,91,705.9657162,None,705.9657162,None,705.9657162,sing17a,4,1.746675375,705.9657162,None,707.7665491,None,707.7665491,None,708.2832649,None,708.2832649,None,708.2832649,None,f,0.485038875,708.2832649,None,,1,2019_Nov_01_1429,ProdFawcett_Revision2019,3.2.4,59.98679148
,,,,63,0,63,0,,,,,,,,,,,,,711.6874364,None,,,,,,,,,,,,,,,,,,,,,,range,D_new,63,251,709.3336042,None,709.3336042,None,709.3336042,sing17a,1,1.483214219,709.3336042,None,710.8673518,None,710.8673518,None,711.3843177,None,711.3843177,None,711.3843177,None,n,0.279573926,711.3843177,None,,1,2019_Nov_01_1429,ProdFawcett_Revision2019,3.2.4,59.98679148
,,,,64,0,64,0,,,,,,,,,,,,,715.1520822,None,,,,,,,,,,,,,,,,,,,,,,marriage,C_sing,64,179,712.2179831,None,712.2179831,None,712.2179831,sing17a,6,1.950348013,712.2179831,None,714.2183778,None,714.2183778,None,714.7352656,None,714.7352656,None,714.7352656,None,f,0.36867015,714.7352656,None,,1,2019_Nov_01_1429,ProdFawcett_Revision2019,3.2.4,59.98679148
,,,,65,0,65,0,,,,,,,,,,,,,717.4527751,None,,,,,,,,,,,,,,,,,,,,,,rural,D_new,65,269,715.6690614,None,715.6690614,None,715.6690614,sing17a,1,0.995161722,715.6690614,None,716.7079219,None,716.7079219,None,717.2359999,None,717.2359999,None,717.2359999,None,n,0.172184487,717.2359999,None,,1,2019_Nov_01_1429,ProdFawcett_Revision2019,3.2.4,59.98679148
,,,,66,0,66,0,,,,,,,,,,,,,720.5203629,None,,,,,,,,,,,,,,,,,,,,,,patient,D_new,66,213,717.9698513,None,717.9698513,None,717.9698513,sing17a,1,0.845937986,717.9698513,None,718.8697969,None,718.8697969,None,719.3866545,None,719.3866545,None,719.3866545,None,n,1.093575605,719.3866545,None,,1,2019_Nov_01_1429,ProdFawcett_Revision2019,3.2.4,59.98679148
,,,,67,0,67,0,,,,,,,,,,,,,723.5546775,None,,,,,,,,,,,,,,,,,,,,,,trial,C_sing,67,341,721.0371929,None,721.0371929,None,721.0371929,sing17a,6,1.850741743,721.0371929,None,722.9377906,None,722.9377906,None,723.4544999,None,723.4544999,None,723.4544999,None,f,0.057737762,723.4544999,None,,1,2019_Nov_01_1429,ProdFawcett_Revision2019,3.2.4,59.98679148
,,,,68,0,68,0,,,,,,,,,,,,,730.6234176,None,,,,,,,,,,,,,,,,,,,,,,payment,B_aloud,68,215,724.0718243,None,724.0718243,None,724.0718243,sing17a,6,4.992097095,724.0718243,None,729.1230376,None,729.1230376,None,729.6397916,None,729.6397916,None,729.6397916,None,r,0.943401754,729.6397916,None,,1,2019_Nov_01_1429,ProdFawcett_Revision2019,3.2.4,59.98679148
,,,,69,0,69,0,,,,,,,,,,,,,733.0241603,None,,,,,,,,,,,,,,,,,,,,,,volume,D_new,69,349,731.1411967,None,731.1411967,None,731.1411967,sing17a,1,0.961751882,731.1411967,None,732.1572837,None,732.1572837,None,732.6741681,None,732.6741681,None,732.6741681,None,n,0.316992598,732.6741681,None,,1,2019_Nov_01_1429,ProdFawcett_Revision2019,3.2.4,59.98679148
,,,,70,0,70,0,,,,,,,,,,,,,736.8421991,None,,,,,,,,,,,,,,,,,,,,,,court,B_aloud,70,75,733.5410898,None,733.5410898,None,733.5410898,sing17a,6,1.705790259,733.5410898,None,735.3082481,None,735.3082481,None,735.8251735,None,735.8251735,None,735.8251735,None,r,0.981660447,735.8251735,None,,1,2019_Nov_01_1429,ProdFawcett_Revision2019,3.2.4,59.98679148
,,,,71,0,71,0,,,,,,,,,,,,,739.5262328,None,,,,,,,,,,,,,,,,,,,,,,throw,D_new,71,330,737.3589407,None,737.3589407,None,737.3589407,sing17a,1,1.111717671,737.3589407,None,738.5163737,None,738.5163737,None,739.0427231,None,739.0427231,None,739.0427231,None,n,0.444193568,739.0427231,None,,1,2019_Nov_01_1429,ProdFawcett_Revision2019,3.2.4,59.98679148
,,,,72,0,72,0,,,,,,,,,,,,,741.7936045,None,,,,,,,,,,,,,,,,,,,,,,under,C_sing,72,343,740.0431956,None,740.0431956,None,740.0431956,sing17a,1,0.851228463,740.0431956,None,740.9433249,None,740.9433249,None,741.4602482,None,741.4602482,None,741.4602482,None,n,0.290992101,741.4602482,None,,1,2019_Nov_01_1429,ProdFawcett_Revision2019,3.2.4,59.98679148
,,,,73,0,73,0,,,,,,,,,,,,,743.8609507,None,,,,,,,,,,,,,,,,,,,,,,addition,D_new,73,2,742.3110717,None,742.3110717,None,742.3110717,sing17a,1,0.735178827,742.3110717,None,743.1106693,None,743.1106693,None,743.6274855,None,743.6274855,None,743.6274855,None,n,0.195054737,743.6274855,None,,1,2019_Nov_01_1429,ProdFawcett_Revision2019,3.2.4,59.98679148
,,,,74,0,74,0,,,,,,,,,,,,,745.9447963,None,,,,,,,,,,,,,,,,,,,,,,command,A_silent,74,60,744.3790589,None,744.3790589,None,744.3790589,sing17a,1,0.803045344,744.3790589,None,745.2343942,None,745.2343942,None,745.7615267,None,745.7615267,None,745.7615267,None,n,0.141323941,745.7615267,None,,1,2019_Nov_01_1429,ProdFawcett_Revision2019,3.2.4,59.98679148
,,,,75,0,75,0,,,,,,,,,,,,,748.0454625,None,,,,,,,,,,,,,,,,,,,,,,figure,D_new,75,128,746.4619388,None,746.4619388,None,746.4619388,sing17a,1,0.920070287,746.4619388,None,747.445418,None,747.445418,None,747.9620159,None,747.9620159,None,747.9620159,None,n,0.044397276,747.9620159,None,,1,2019_Nov_01_1429,ProdFawcett_Revision2019,3.2.4,59.98679148
,,,,76,0,76,0,,,,,,,,,,,,,750.8463435,None,,,,,,,,,,,,,,,,,,,,,,crowd,A_silent,76,81,748.5622293,None,748.5622293,None,748.5622293,sing17a,2,1.44407321,748.5622293,None,750.0628454,None,750.0628454,None,750.5797154,None,750.5797154,None,750.5797154,None,n,0.218208932,750.5797154,None,,1,2019_Nov_01_1429,ProdFawcett_Revision2019,3.2.4,59.98679148
,,,,77,0,77,0,,,,,,,,,,,,,753.2305346,None,,,,,,,,,,,,,,,,,,,,,,answer,D_new,77,8,751.3632372,None,751.3632372,None,751.3632372,sing17a,2,1.186464826,751.3632372,None,752.6136148,None,752.6136148,None,753.1330848,None,753.1330848,None,753.1330848,None,n,0.048647136,753.1330848,None,,1,2019_Nov_01_1429,ProdFawcett_Revision2019,3.2.4,59.98679148
,,,,78,0,78,0,,,,,,,,,,,,,756.6149086,None,,,,,,,,,,,,,,,,,,,,,,science,A_silent,78,275,753.7478528,None,753.7478528,None,753.7478528,sing17a,2,1.906477888,753.7478528,None,755.7044937,None,755.7044937,None,756.2314658,None,756.2314658,None,756.2314658,None,n,0.342531256,756.2314658,None,,1,2019_Nov_01_1429,ProdFawcett_Revision2019,3.2.4,59.98679148
,,,,79,0,79,0,,,,,,,,,,,,,759.8826267,None,,,,,,,,,,,,,,,,,,,,,,recall,C_sing,79,255,757.1319245,None,757.1319245,None,757.1319245,sing17a,6,1.59388723,757.1319245,None,758.7822675,None,758.7822675,None,759.2989516,None,759.2989516,None,759.2989516,None,r,0.538329601,759.2989516,None,,1,2019_Nov_01_1429,ProdFawcett_Revision2019,3.2.4,59.98679148
,,,,80,0,80,0,,,,,,,,,,,,,762.1666144,None,,,,,,,,,,,,,,,,,,,,,,dance,A_silent,80,84,760.3994203,None,760.3994203,None,760.3994203,sing17a,1,1.150279592,760.3994203,None,761.587042,None,761.587042,None,762.1164536,None,762.1164536,None,762.1164536,None,n,0.009015053,762.1164536,None,,1,2019_Nov_01_1429,ProdFawcett_Revision2019,3.2.4,59.98679148
,,,,81,0,81,0,,,,,,,,,,,,,764.8840406,None,,,,,,,,,,,,,,,,,,,,,,broad,D_new,81,31,762.6833358,None,762.6833358,None,762.6833358,sing17a,1,0.729822417,762.6833358,None,763.4670455,None,763.4670455,None,763.9837473,None,763.9837473,None,763.9837473,None,n,0.853238477,763.9837473,None,,1,2019_Nov_01_1429,ProdFawcett_Revision2019,3.2.4,59.98679148
,,,,82,0,82,0,,,,,,,,,,,,,766.7847083,None,,,,,,,,,,,,,,,,,,,,,,cover,D_new,82,77,765.4010276,None,765.4010276,None,765.4010276,sing17a,1,0.660282702,765.4010276,None,766.1178,None,766.1178,None,766.6346616,None,766.6346616,None,766.6346616,None,n,0.106861666,766.6346616,None,,1,2019_Nov_01_1429,ProdFawcett_Revision2019,3.2.4,59.98679148
,,,,83,0,83,0,,,,,,,,,,,,,769.0519584,None,,,,,,,,,,,,,,,,,,,,,,music,D_new,83,196,767.3028615,None,767.3028615,None,767.3028615,sing17a,1,0.678001182,767.3028615,None,768.0350805,None,768.0350805,None,768.5519777,None,768.5519777,None,768.5519777,None,n,0.452726255,768.5519777,None,,1,2019_Nov_01_1429,ProdFawcett_Revision2019,3.2.4,59.98679148
,,,,84,0,84,0,,,,,,,,,,,,,771.4028404,None,,,,,,,,,,,,,,,,,,,,,,estate,D_new,84,119,769.5688686,None,769.5688686,None,769.5688686,sing17a,1,0.692518816,769.5688686,None,770.3191929,None,770.3191929,None,770.8359759,None,770.8359759,None,770.8359759,None,n,0.528712757,770.8359759,None,,1,2019_Nov_01_1429,ProdFawcett_Revision2019,3.2.4,59.98679148
,,,,85,0,85,0,,,,,,,,,,,,,773.336611,None,,,,,,,,,,,,,,,,,,,,,,cross,A_silent,85,80,771.9198283,None,771.9198283,None,771.9198283,sing17a,1,0.749396654,771.9198283,None,772.7198709,None,772.7198709,None,773.236732,None,773.236732,None,773.236732,None,n,0.063964981,773.236732,None,,1,2019_Nov_01_1429,ProdFawcett_Revision2019,3.2.4,59.98679148
,,,,86,0,86,0,,,,,,,,,,,,,776.2042119,None,,,,,,,,,,,,,,,,,,,,,,enemy,C_sing,86,113,773.8534332,None,773.8534332,None,773.8534332,sing17a,4,1.735001244,773.8534332,None,775.6256338,None,775.6256338,None,776.1541463,None,776.1541463,None,776.1541463,None,f,0.00221621,776.1541463,None,,1,2019_Nov_01_1429,ProdFawcett_Revision2019,3.2.4,59.98679148
,,,,87,0,87,0,,,,,,,,,,,,,778.5050156,None,,,,,,,,,,,,,,,,,,,,,,display,D_new,87,98,776.7210671,None,776.7210671,None,776.7210671,sing17a,1,1.163044411,776.7210671,None,777.9220337,None,777.9220337,None,778.4381688,None,778.4381688,None,778.4381688,None,n,0.030216769,778.4381688,None,,1,2019_Nov_01_1429,ProdFawcett_Revision2019,3.2.4,59.98679148
,,,,88,0,88,0,,,,,,,,,,,,,781.2891052,None,,,,,,,,,,,,,,,,,,,,,,column,D_new,88,57,779.0232708,None,779.0232708,None,779.0232708,sing17a,1,1.212974125,779.0232708,None,780.277363,None,780.277363,None,780.8055922,None,780.8055922,None,780.8055922,None,n,0.446646762,780.8055922,None,,1,2019_Nov_01_1429,ProdFawcett_Revision2019,3.2.4,59.98679148
,,,,89,0,89,0,,,,,,,,,,,,,783.739953,None,,,,,,,,,,,,,,,,,,,,,,character,D_new,89,46,781.8079673,None,781.8079673,None,781.8079673,sing17a,1,0.651987311,781.8079673,None,782.5228752,None,782.5228752,None,783.0396915,None,783.0396915,None,783.0396915,None,n,0.652203147,783.0396915,None,,1,2019_Nov_01_1429,ProdFawcett_Revision2019,3.2.4,59.98679148
,,,,90,0,90,0,,,,,,,,,,,,,785.6738882,None,,,,,,,,,,,,,,,,,,,,,,shock,D_new,90,284,784.2572563,None,784.2572563,None,784.2572563,sing17a,1,0.699025005,784.2572563,None,785.0069152,None,785.0069152,None,785.5237613,None,785.5237613,None,785.5237613,None,n,0.104067301,785.5237613,None,,1,2019_Nov_01_1429,ProdFawcett_Revision2019,3.2.4,59.98679148
,,,,91,0,91,0,,,,,,,,,,,,,788.2745833,None,,,,,,,,,,,,,,,,,,,,,,substance,B_aloud,91,313,786.1920371,None,786.1920371,None,786.1920371,sing17a,6,1.427704796,786.1920371,None,787.6744197,None,787.6744197,None,788.1911999,None,788.1911999,None,788.1911999,None,r,0.044915718,788.1911999,None,,1,2019_Nov_01_1429,ProdFawcett_Revision2019,3.2.4,59.98679148
,,,,92,0,92,0,,,,,,,,,,,,,790.6587886,None,,,,,,,,,,,,,,,,,,,,,,short,D_new,92,285,788.7913348,None,788.7913348,None,788.7913348,sing17a,1,0.780441003,788.7913348,None,789.6251683,None,789.6251683,None,790.1418284,None,790.1418284,None,790.1418284,None,n,0.469687442,790.1418284,None,,1,2019_Nov_01_1429,ProdFawcett_Revision2019,3.2.4,59.98679148
,,,,93,0,93,0,,,,,,,,,,,,,792.609396,None,,,,,,,,,,,,,,,,,,,,,,population,D_new,93,227,791.1773854,None,791.1773854,None,791.1773854,sing17a,1,0.698662064,791.1773854,None,791.9145599,None,791.9145599,None,792.443361,None,792.443361,None,792.443361,None,n,0.128188406,792.443361,None,,1,2019_Nov_01_1429,ProdFawcett_Revision2019,3.2.4,59.98679148
,,,,94,0,94,0,,,,,,,,,,,,,794.5765168,None,,,,,,,,,,,,,,,,,,,,,,primary,C_sing,94,234,793.1270141,None,793.1270141,None,793.1270141,sing17a,1,0.708890962,793.1270141,None,793.880789,None,793.880789,None,794.3930736,None,794.3930736,None,794.3930736,None,n,0.138198358,794.3930736,None,,1,2019_Nov_01_1429,ProdFawcett_Revision2019,3.2.4,59.98679148
,,,,95,0,95,0,,,,,,,,,,,,,796.7441457,None,,,,,,,,,,,,,,,,,,,,,,victory,C_sing,95,346,795.0939746,None,795.0939746,None,795.0939746,sing17a,1,0.685220501,795.0939746,None,795.8436024,None,795.8436024,None,796.3605318,None,796.3605318,None,796.3605318,None,n,0.3467948,796.3605318,None,,1,2019_Nov_01_1429,ProdFawcett_Revision2019,3.2.4,59.98679148
,,,,96,0,96,0,,,,,,,,,,,,,798.5111056,None,,,,,,,,,,,,,,,,,,,,,,industry,D_new,96,161,797.2615933,None,797.2615933,None,797.2615933,sing17a,1,0.61364216,797.2615933,None,797.9160017,None,797.9160017,None,798.4443117,None,798.4443117,None,798.4443117,None,n,0.03092057,798.4443117,None,,1,2019_Nov_01_1429,ProdFawcett_Revision2019,3.2.4,59.98679148
,,,,97,0,97,0,,,,,,,,,,,,,800.6950718,None,,,,,,,,,,,,,,,,,,,,,,stand,B_aloud,97,302,799.0288739,None,799.0288739,None,799.0288739,sing17a,1,0.726497481,799.0288739,None,799.8115734,None,799.8115734,None,800.3283212,None,800.3283212,None,800.3283212,None,n,0.330762891,800.3283212,None,,1,2019_Nov_01_1429,ProdFawcett_Revision2019,3.2.4,59.98679148
,,,,98,0,98,0,,,,,,,,,,,,,803.4292894,None,,,,,,,,,,,,,,,,,,,,,,public,A_silent,98,244,801.2119603,None,801.2119603,None,801.2119603,sing17a,3,1.591729489,801.2119603,None,802.8624939,None,802.8624939,None,803.3793568,None,803.3793568,None,803.3793568,None,f,0.008280463,803.3793568,None,,1,2019_Nov_01_1429,ProdFawcett_Revision2019,3.2.4,59.98679148
,,,,99,0,99,0,,,,,,,,,,,,,805.8468187,None,,,,,,,,,,,,,,,,,,,,,,still,B_aloud,99,304,803.946667,None,803.946667,None,803.946667,sing17a,1,1.208857996,803.946667,None,805.2026616,None,805.2026616,None,805.7301222,None,805.7301222,None,805.7301222,None,n,0.073387137,805.7301222,None,,1,2019_Nov_01_1429,ProdFawcett_Revision2019,3.2.4,59.98679148
,,,,100,0,100,0,,,,,,,,,,,,,808.0641923,None,,,,,,,,,,,,,,,,,,,,,,message,D_new,100,189,806.3636621,None,806.3636621,None,806.3636621,sing17a,1,0.959614356,806.3636621,None,807.3806379,None,807.3806379,None,807.897308,None,807.897308,None,807.897308,None,n,0.129334142,807.897308,None,,1,2019_Nov_01_1429,ProdFawcett_Revision2019,3.2.4,59.98679148
,,,,101,0,101,0,,,,,,,,,,,,,811.0651325,None,,,,,,,,,,,,,,,,,,,,,,pancakes,B_aloud,101,210,808.5827654,None,808.5827654,None,808.5827654,sing17a,6,1.356512409,808.5827654,None,809.9979477,None,809.9979477,None,810.5149313,None,810.5149313,None,810.5149313,None,r,0.511585495,810.5149313,None,,1,2019_Nov_01_1429,ProdFawcett_Revision2019,3.2.4,59.98679148
,,,,102,0,102,0,,,,,,,,,,,,,813.4825285,None,,,,,,,,,,,,,,,,,,,,,,education,C_sing,102,108,811.5825288,None,811.5825288,None,811.5825288,sing17a,1,1.187689557,811.5825288,None,812.8218632,None,812.8218632,None,813.3493488,None,813.3493488,None,813.3493488,None,n,0.093257138,813.3493488,None,,1,2019_Nov_01_1429,ProdFawcett_Revision2019,3.2.4,59.98679148
,,,,103,0,103,0,,,,,,,,,,,,,815.8665967,None,,,,,,,,,,,,,,,,,,,,,,generation,D_new,103,136,814.0043584,None,814.0043584,None,814.0043584,sing17a,1,0.534310506,814.0043584,None,814.5875384,None,814.5875384,None,815.0995276,None,815.0995276,None,815.0995276,None,n,0.718581825,815.0995276,None,,1,2019_Nov_01_1429,ProdFawcett_Revision2019,3.2.4,59.98679148
,,,,104,0,104,0,,,,,,,,,,,,,818.9007365,None,,,,,,,,,,,,,,,,,,,,,,judge,A_silent,104,166,816.3872772,None,816.3872772,None,816.3872772,sing17a,3,1.750620763,816.3872772,None,818.2005275,None,818.2005275,None,818.7193985,None,818.7193985,None,818.7193985,None,f,0.146814082,818.7193985,None,,1,2019_Nov_01_1429,ProdFawcett_Revision2019,3.2.4,59.98679148
,,,,105,0,105,0,,,,,,,,,,,,,821.434921,None,,,,,,,,,,,,,,,,,,,,,,burden,D_new,105,36,819.4178077,None,819.4178077,None,819.4178077,sing17a,1,1.02483579,819.4178077,None,820.4850016,None,820.4850016,None,821.0014343,None,821.0014343,None,821.0014343,None,n,0.384316104,821.0014343,None,,1,2019_Nov_01_1429,ProdFawcett_Revision2019,3.2.4,59.98679148
,,,,106,0,106,0,,,,,,,,,,,,,823.7355268,None,,,,,,,,,,,,,,,,,,,,,,gesture,D_new,106,137,821.9530973,None,821.9530973,None,821.9530973,sing17a,1,0.584672825,821.9530973,None,822.6019329,None,822.6019329,None,823.1188064,None,823.1188064,None,823.1188064,None,n,0.578843068,823.1188064,None,,1,2019_Nov_01_1429,ProdFawcett_Revision2019,3.2.4,59.98679148
,,,,107,0,107,0,,,,,,,,,,,,,825.6695985,None,,,,,,,,,,,,,,,,,,,,,,surface,C_sing,107,316,824.2534612,None,824.2534612,None,824.2534612,sing17a,1,0.757010325,824.2534612,None,825.0694106,None,825.0694106,None,825.586253,None,825.586253,None,825.586253,None,n,0.047374199,825.586253,None,,1,2019_Nov_01_1429,ProdFawcett_Revision2019,3.2.4,59.98679148
,,,,108,0,108,0,,,,,,,,,,,,,827.8035632,None,,,,,,,,,,,,,,,,,,,,,,reading,D_new,108,254,826.1874849,None,826.1874849,None,826.1874849,sing17a,1,0.878042234,826.1874849,None,827.1200977,None,827.1200977,None,827.6367858,None,827.6367858,None,827.6367858,None,n,0.125424208,827.6367858,None,,1,2019_Nov_01_1429,ProdFawcett_Revision2019,3.2.4,59.98679148
,,,,109,0,109,0,,,,,,,,,,,,,831.3380565,None,,,,,,,,,,,,,,,,,,,,,,incident,C_sing,109,158,828.3211165,None,828.3211165,None,828.3211165,sing17a,2,1.888082354,828.3211165,None,830.2710599,None,830.2710599,None,830.7877384,None,830.7877384,None,830.7877384,None,f,0.517559868,830.7877384,None,,1,2019_Nov_01_1429,ProdFawcett_Revision2019,3.2.4,59.98679148
,,,,110,0,110,0,,,,,,,,,,,,,835.1890903,None,,,,,,,,,,,,,,,,,,,,,,carry,C_sing,110,43,831.8549073,None,831.8549073,None,831.8549073,sing17a,6,2.602098961,831.8549073,None,834.5111964,None,834.5111964,None,835.0390962,None,835.0390962,None,835.0390962,None,r,0.106265472,835.0390962,None,,1,2019_Nov_01_1429,ProdFawcett_Revision2019,3.2.4,59.98679148
,,,,111,0,111,0,,,,,,,,,,,,,839.7072252,None,,,,,,,,,,,,,,,,,,,,,,trail,D_new,111,336,835.7058577,None,835.7058577,None,835.7058577,sing17a,3,3.359644834,835.7058577,None,839.1236835,None,839.1236835,None,839.6405785,None,839.6405785,None,839.6405785,None,f,0.032915034,839.6405785,None,,1,2019_Nov_01_1429,ProdFawcett_Revision2019,3.2.4,59.98679148
,,,,112,0,112,0,,,,,,,,,,,,,843.9251393,None,,,,,,,,,,,,,,,,,,,,,,nature,A_silent,112,200,840.2249565,None,840.2249565,None,840.2249565,sing17a,1,2.647667786,840.2249565,None,842.9128525,None,842.9128525,None,843.441652,None,843.441652,None,843.441652,None,n,0.446968651,843.441652,None,,1,2019_Nov_01_1429,ProdFawcett_Revision2019,3.2.4,59.98679148
,,,,113,0,113,0,,,,,,,,,,,,,846.242674,None,,,,,,,,,,,,,,,,,,,,,,atmosphere,D_new,113,12,844.4436782,None,844.4436782,None,844.4436782,sing17a,1,0.796812527,844.4436782,None,845.2814101,None,845.2814101,None,845.8090287,None,845.8090287,None,845.8090287,None,n,0.399899546,845.8090287,None,,1,2019_Nov_01_1429,ProdFawcett_Revision2019,3.2.4,59.98679148
,,,,114,0,114,0,,,,,,,,,,,,,848.5765852,None,,,,,,,,,,,,,,,,,,,,,,close,D_new,114,53,846.7606229,None,846.7606229,None,846.7606229,sing17a,1,0.792022765,846.7606229,None,847.6097783,None,847.6097783,None,848.126435,None,848.126435,None,848.126435,None,n,0.40994433,848.126435,None,,1,2019_Nov_01_1429,ProdFawcett_Revision2019,3.2.4,59.98679148
,,,,115,0,115,0,,,,,,,,,,,,,850.9274666,None,,,,,,,,,,,,,,,,,,,,,,report,D_new,115,259,849.0936092,None,849.0936092,None,849.0936092,sing17a,1,0.802428003,849.0936092,None,849.9604003,None,849.9604003,None,850.477321,None,850.477321,None,850.477321,None,n,0.41110655,850.477321,None,,1,2019_Nov_01_1429,ProdFawcett_Revision2019,3.2.4,59.98679148
,,,,116,0,116,0,,,,,,,,,,,,,853.9283716,None,,,,,,,,,,,,,,,,,,,,,,interview,C_sing,116,165,851.4456105,None,851.4456105,None,851.4456105,sing17a,3,1.475115382,851.4456105,None,852.9781178,None,852.9781178,None,853.4946856,None,853.4946856,None,853.4946856,None,f,0.385160167,853.4946856,None,,1,2019_Nov_01_1429,ProdFawcett_Revision2019,3.2.4,59.98679148
,,,,117,0,117,0,,,,,,,,,,,,,858.3130839,None,,,,,,,,,,,,,,,,,,,,,,front,B_aloud,117,134,854.4450924,None,854.4450924,None,854.4450924,sing17a,1,0.779129813,854.4450924,None,855.2685545,None,855.2685545,None,855.7956466,None,855.7956466,None,855.7956466,None,f,2.467956397,855.7956466,None,,1,2019_Nov_01_1429,ProdFawcett_Revision2019,3.2.4,59.98679148
,,,,118,0,118,0,,,,,,,,,,,,,861.4807414,None,,,,,,,,,,,,,,,,,,,,,,mankind,D_new,118,178,858.8318514,None,858.8318514,None,858.8318514,sing17a,1,1.951583007,858.8318514,None,860.847136,None,860.847136,None,861.3640374,None,861.3640374,None,861.3640374,None,n,0.083574672,861.3640374,None,,1,2019_Nov_01_1429,ProdFawcett_Revision2019,3.2.4,59.98679148
,,,,119,0,119,0,,,,,,,,,,,,,863.7313911,None,,,,,,,,,,,,,,,,,,,,,,detective,D_new,119,92,861.9998784,None,861.9998784,None,861.9998784,sing17a,1,0.74370747,861.9998784,None,862.7977639,None,862.7977639,None,863.3148358,None,863.3148358,None,863.3148358,None,n,0.380585308,863.3148358,None,,1,2019_Nov_01_1429,ProdFawcett_Revision2019,3.2.4,59.98679148
,,,,120,0,120,0,,,,,,,,,,,,,865.5152301,None,,,,,,,,,,,,,,,,,,,,,,color,D_new,120,56,864.2496277,None,864.2496277,None,864.2496277,sing17a,1,0.613710891,864.2496277,None,864.9151409,None,864.9151409,None,865.4318181,None,865.4318181,None,865.4318181,None,n,0.040000311,865.4318181,None,,1,2019_Nov_01_1429,ProdFawcett_Revision2019,3.2.4,59.98679148
,,,,121,0,121,0,,,,,,,,,,,,,867.4386726,None,,,,,,,,,,,,,,,,,,,,,,discovery,D_new,121,95,866.0322924,None,866.0322924,None,866.0322924,sing17a,1,0.775634136,866.0322924,None,866.8549478,None,866.8549478,None,867.3823807,None,867.3823807,None,867.3823807,None,n,0.033116564,867.3823807,None,,1,2019_Nov_01_1429,ProdFawcett_Revision2019,3.2.4,59.98679148
,,,,122,0,122,0,,,,,,,,,,,,,870.1999291,None,,,,,,,,,,,,,,,,,,,,,,produce,B_aloud,122,239,867.9659399,None,867.9659399,None,867.9659399,sing17a,3,1.569033091,867.9659399,None,869.5999101,None,869.5999101,None,870.1165886,None,870.1165886,None,870.1165886,None,f,0.050607078,870.1165886,None,,1,2019_Nov_01_1429,ProdFawcett_Revision2019,3.2.4,59.98679148
,,,,123,0,123,0,,,,,,,,,,,,,873.0676221,None,,,,,,,,,,,,,,,,,,,,,,place,D_new,123,222,870.7167985,None,870.7167985,None,870.7167985,sing17a,1,1.458818498,870.7167985,None,872.2219621,None,872.2219621,None,872.7507654,None,872.7507654,None,872.7507654,None,n,0.280038564,872.7507654,None,,1,2019_Nov_01_1429,ProdFawcett_Revision2019,3.2.4,59.98679148
,,,,124,0,124,0,,,,,,,,,,,,,875.6015155,None,,,,,,,,,,,,,,,,,,,,,,suggestion,D_new,124,314,873.5871214,None,873.5871214,None,873.5871214,sing17a,1,1.019799092,873.5871214,None,874.668143,None,874.668143,None,875.1847496,None,875.1847496,None,875.1847496,None,n,0.374494931,875.1847496,None,,1,2019_Nov_01_1429,ProdFawcett_Revision2019,3.2.4,59.98679148
,,,,125,0,125,0,,,,,,,,,,,,,877.6023674,None,,,,,,,,,,,,,,,,,,,,,,afternoon,B_aloud,125,3,876.119712,None,876.119712,None,876.119712,sing17a,1,0.599210674,876.119712,None,876.7688098,None,876.7688098,None,877.2854842,None,877.2854842,None,877.2854842,None,n,0.273822853,877.2854842,None,,1,2019_Nov_01_1429,ProdFawcett_Revision2019,3.2.4,59.98679148
,,,,126,0,126,0,,,,,,,,,,,,,879.3861411,None,,,,,,,,,,,,,,,,,,,,,,period,D_new,126,217,878.1196741,None,878.1196741,None,878.1196741,sing17a,1,0.575215214,878.1196741,None,878.7526115,None,878.7526115,None,879.2695329,None,879.2695329,None,879.2695329,None,n,0.080974995,879.2695329,None,,1,2019_Nov_01_1429,ProdFawcett_Revision2019,3.2.4,59.98679148
,,,,127,0,127,0,,,,,,,,,,,,,881.2367158,None,,,,,,,,,,,,,,,,,,,,,,scale,D_new,127,272,879.9031169,None,879.9031169,None,879.9031169,sing17a,1,0.679257635,879.9031169,None,880.6366664,None,880.6366664,None,881.1532857,None,881.1532857,None,881.1532857,None,n,0.036968962,881.1532857,None,,1,2019_Nov_01_1429,ProdFawcett_Revision2019,3.2.4,59.98679148
,,,,128,0,128,0,,,,,,,,,,,,,883.2539762,None,,,,,,,,,,,,,,,,,,,,,,narrow,C_sing,128,197,881.7559498,None,881.7559498,None,881.7559498,sing17a,1,0.698234123,881.7559498,None,882.4936223,None,882.4936223,None,883.0207613,None,883.0207613,None,883.0207613,None,n,0.193741992,883.0207613,None,,1,2019_Nov_01_1429,ProdFawcett_Revision2019,3.2.4,59.98679148
,,,,129,0,129,0,,,,,,,,,,,,,885.6880391,None,,,,,,,,,,,,,,,,,,,,,,position,A_silent,129,229,883.7720825,None,883.7720825,None,883.7720825,sing17a,2,0.93014866,883.7720825,None,884.7544691,None,884.7544691,None,885.2713103,None,885.2713103,None,885.2713103,None,n,0.37555483,885.2713103,None,,1,2019_Nov_01_1429,ProdFawcett_Revision2019,3.2.4,59.98679148
,,,,130,0,130,0,,,,,,,,,,,,,887.7721755,None,,,,,,,,,,,,,,,,,,,,,,alert,D_new,130,6,886.2049431,None,886.2049431,None,886.2049431,sing17a,1,0.913026062,886.2049431,None,887.1597428,None,887.1597428,None,887.6887457,None,887.6887457,None,887.6887457,None,n,0.045494495,887.6887457,None,,1,2019_Nov_01_1429,ProdFawcett_Revision2019,3.2.4,59.98679148
,,,,131,0,131,0,,,,,,,,,,,,,889.5559675,None,,,,,,,,,,,,,,,,,,,,,,dozen,D_new,131,102,888.2928892,None,888.2928892,None,888.2928892,sing17a,1,0.5698078,888.2928892,None,888.9224821,None,888.9224821,None,889.4422414,None,889.4422414,None,889.4422414,None,n,0.075574112,889.4422414,None,,1,2019_Nov_01_1429,ProdFawcett_Revision2019,3.2.4,59.98679148
,,,,132,0,132,0,,,,,,,,,,,,,892.5569279,None,,,,,,,,,,,,,,,,,,,,,,danger,B_aloud,132,85,890.0734677,None,890.0734677,None,890.0734677,sing17a,2,1.748301611,890.0734677,None,891.873357,None,891.873357,None,892.3902986,None,892.3902986,None,892.3902986,None,f,0.11928096,892.3902986,None,,1,2019_Nov_01_1429,ProdFawcett_Revision2019,3.2.4,59.98679148
,,,,133,0,133,0,,,,,,,,,,,,,894.4741398,None,,,,,,,,,,,,,,,,,,,,,,bucket,C_sing,133,33,893.074768,None,893.074768,None,893.074768,sing17a,1,0.770947627,893.074768,None,893.9073978,None,893.9073978,None,894.4242527,None,894.4242527,None,894.4242527,None,n,0.005412701,894.4242527,None,,1,2019_Nov_01_1429,ProdFawcett_Revision2019,3.2.4,59.98679148
,,,,134,0,134,0,,,,,,,,,,,,,896.5582124,None,,,,,,,,,,,,,,,,,,,,,,research,D_new,134,261,894.9916903,None,894.9916903,None,894.9916903,sing17a,1,0.8617637,894.9916903,None,895.9080833,None,895.9080833,None,896.424712,None,896.424712,None,896.424712,None,n,0.093220128,896.424712,None,,1,2019_Nov_01_1429,ProdFawcett_Revision2019,3.2.4,59.98679148
,,,,135,0,135,0,,,,,,,,,,,,,899.5258354,None,,,,,,,,,,,,,,,,,,,,,,trash,B_aloud,135,337,897.0750277,None,897.0750277,None,897.0750277,sing17a,6,1.459066057,897.0750277,None,898.5922119,None,898.5922119,None,899.1089494,None,899.1089494,None,899.1089494,None,r,0.368291659,899.1089494,None,,1,2019_Nov_01_1429,ProdFawcett_Revision2019,3.2.4,59.98679148
,,,,136,0,136,0,,,,,,,,,,,,,903.0102426,None,,,,,,,,,,,,,,,,,,,,,,suspect,A_silent,136,318,900.0437575,None,900.0437575,None,900.0437575,sing17a,3,2.009800958,900.0437575,None,902.097409,None,902.097409,None,902.6266471,None,902.6266471,None,902.6266471,None,f,0.346426572,902.6266471,None,,1,2019_Nov_01_1429,ProdFawcett_Revision2019,3.2.4,59.98679148
,,,,137,0,137,0,,,,,,,,,,,,,905.8277626,None,,,,,,,,,,,,,,,,,,,,,,election,D_new,137,109,903.5297036,None,903.5297036,None,903.5297036,sing17a,1,1.587904771,903.5297036,None,905.1774479,None,905.1774479,None,905.6942452,None,905.6942452,None,905.6942452,None,n,0.0946806,905.6942452,None,,1,2019_Nov_01_1429,ProdFawcett_Revision2019,3.2.4,59.98679148
,,,,138,0,138,0,,,,,,,,,,,,,908.5118579,None,,,,,,,,,,,,,,,,,,,,,,novel,C_sing,138,202,906.3447677,None,906.3447677,None,906.3447677,sing17a,1,1.364127947,906.3447677,None,907.7618029,None,907.7618029,None,908.278529,None,908.278529,None,908.278529,None,n,0.190910307,908.278529,None,,1,2019_Nov_01_1429,ProdFawcett_Revision2019,3.2.4,59.98679148
,,,,139,0,139,0,,,,,,,,,,,,,911.7129163,None,,,,,,,,,,,,,,,,,,,,,,charter,D_new,139,47,909.0306988,None,909.0306988,None,909.0306988,sing17a,1,1.862006593,909.0306988,None,910.9460459,None,910.9460459,None,911.4628634,None,911.4628634,None,911.4628634,None,n,0.206494371,911.4628634,None,,1,2019_Nov_01_1429,ProdFawcett_Revision2019,3.2.4,59.98679148
,,,,140,0,140,0,,,,,,,,,,,,,913.9469761,None,,,,,,,,,,,,,,,,,,,,,,angle,A_silent,140,7,912.2297384,None,912.2297384,None,912.2297384,sing17a,1,1.054896436,912.2297384,None,913.3467385,None,913.3467385,None,913.8636129,None,913.8636129,None,913.8636129,None,n,0.036717982,913.8636129,None,,1,2019_Nov_01_1429,ProdFawcett_Revision2019,3.2.4,59.98679148
,,,,141,0,141,0,,,,,,,,,,,,,917.48136,None,,,,,,,,,,,,,,,,,,,,,,stranger,B_aloud,141,309,914.4637124,None,914.4637124,None,914.4637124,sing17a,1,1.988487591,914.4637124,None,916.5144467,None,916.5144467,None,917.0312425,None,917.0312425,None,917.0312425,None,n,0.404905766,917.0312425,None,,1,2019_Nov_01_1429,ProdFawcett_Revision2019,3.2.4,59.98679148
,,,,142,0,142,0,,,,,,,,,,,,,920.3722025,None,,,,,,,,,,,,,,,,,,,,,,religion,D_new,142,258,917.9983884,None,917.9983884,None,917.9983884,sing17a,3,1.677980656,917.9983884,None,919.7077592,None,919.7077592,None,920.2180513,None,920.2180513,None,920.2180513,None,f,0.130326864,920.2180513,None,,1,2019_Nov_01_1429,ProdFawcett_Revision2019,3.2.4,59.98679148
,,,,143,0,143,0,,,,,,,,,,,,,923.3165466,None,,,,,,,,,,,,,,,,,,,,,,council,A_silent,143,71,920.8989211,None,920.8989211,None,920.8989211,sing17a,6,1.385011196,920.8989211,None,922.3495845,None,922.3495845,None,922.8663725,None,922.8663725,None,922.8663725,None,r,0.409780121,922.8663725,None,,1,2019_Nov_01_1429,ProdFawcett_Revision2019,3.2.4,59.98679148
,,,,144,0,144,0,,,,,,,,,,,,,926.2507648,None,,,,,,,,,,,,,,,,,,,,,,individual,B_aloud,144,160,923.8358643,None,923.8358643,None,923.8358643,sing17a,6,1.632022454,923.8358643,None,925.5170806,None,925.5170806,None,926.033927,None,926.033927,None,926.033927,None,r,0.178191516,926.033927,None,,1,2019_Nov_01_1429,ProdFawcett_Revision2019,3.2.4,59.98679148
,,,,145,0,145,0,,,,,,,,,,,,,928.8032463,None,,,,,,,,,,,,,,,,,,,,,,capital,C_sing,145,40,926.767562,None,926.767562,None,926.767562,sing17a,6,1.348134291,926.767562,None,928.1679464,None,928.1679464,None,928.6717705,None,928.6717705,None,928.6717705,None,r,0.099874666,928.6717705,None,,1,2019_Nov_01_1429,ProdFawcett_Revision2019,3.2.4,59.98679148
,,,,146,0,146,0,,,,,,,,,,,,,931.235603,None,,,,,,,,,,,,,,,,,,,,,,speech,D_new,146,298,929.3212285,None,929.3212285,None,929.3212285,sing17a,2,1.106442122,929.3212285,None,930.4724939,None,930.4724939,None,930.9854503,None,930.9854503,None,930.9854503,None,f,0.210191267,930.9854503,None,,1,2019_Nov_01_1429,ProdFawcett_Revision2019,3.2.4,59.98679148
,,,,147,0,147,0,,,,,,,,,,,,,935.3702588,None,,,,,,,,,,,,,,,,,,,,,,graduate,D_new,147,141,931.7538785,None,931.7538785,None,931.7538785,sing17a,6,2.113517447,931.7538785,None,933.9198342,None,933.9198342,None,934.4366738,None,934.4366738,None,934.4366738,None,r,0.894881197,934.4366738,None,,1,2019_Nov_01_1429,ProdFawcett_Revision2019,3.2.4,59.98679148
,,,,148,0,148,0,,,,,,,,,,,,,938.0377549,None,,,,,,,,,,,,,,,,,,,,,,story,D_new,148,306,935.8780634,None,935.8780634,None,935.8780634,sing17a,1,1.005045095,935.8780634,None,936.9255797,None,936.9255797,None,937.4540334,None,937.4540334,None,937.4540334,None,n,0.549576102,937.4540334,None,,1,2019_Nov_01_1429,ProdFawcett_Revision2019,3.2.4,59.98679148
,,,,149,0,149,0,,,,,,,,,,,,,940.3383427,None,,,,,,,,,,,,,,,,,,,,,,sound,D_new,149,295,938.5549655,None,938.5549655,None,938.5549655,sing17a,1,1.072389749,938.5549655,None,939.6882064,None,939.6882064,None,940.2051188,None,940.2051188,None,940.2051188,None,n,0.085695403,940.2051188,None,,1,2019_Nov_01_1429,ProdFawcett_Revision2019,3.2.4,59.98679148
,,,,150,0,150,0,,,,,,,,,,,,,942.8726078,None,,,,,,,,,,,,,,,,,,,,,,mayor,D_new,150,183,940.8559243,None,940.8559243,None,940.8559243,sing17a,1,1.29163992,940.8559243,None,942.2057337,None,942.2057337,None,942.7225493,None,942.7225493,None,942.7225493,None,n,0.104111153,942.7225493,None,,1,2019_Nov_01_1429,ProdFawcett_Revision2019,3.2.4,59.98679148
,,,,151,0,151,0,,,,,,,,,,,,,947.1906102,None,,,,,,,,,,,,,,,,,,,,,,collection,C_sing,151,54,943.3918822,None,943.3918822,None,943.3918822,sing17a,1,1.94724109,943.3918822,None,945.3903797,None,945.3903797,None,945.9070346,None,945.9070346,None,945.9070346,None,n,1.240234185,945.9070346,None,,1,2019_Nov_01_1429,ProdFawcett_Revision2019,3.2.4,59.98679148
,,,,152,0,152,0,,,,,,,,,,,,,950.1915242,None,,,,,,,,,,,,,,,,,,,,,,length,D_new,152,169,947.7088785,None,947.7088785,None,947.7088785,sing17a,4,1.837448218,947.7088785,None,949.607878,None,949.607878,None,950.1248,None,950.1248,None,950.1248,None,f,0.021447409,950.1248,None,,1,2019_Nov_01_1429,ProdFawcett_Revision2019,3.2.4,59.98679148
,,,,153,0,153,0,,,,,,,,,,,,,952.4587501,None,,,,,,,,,,,,,,,,,,,,,,drove,D_new,153,106,950.7088499,None,950.7088499,None,950.7088499,sing17a,1,1.013493189,950.7088499,None,951.7752625,None,951.7752625,None,952.2921518,None,952.2921518,None,952.2921518,None,n,0.126434036,952.2921518,None,,1,2019_Nov_01_1429,ProdFawcett_Revision2019,3.2.4,59.98679148
,,,,154,0,154,0,,,,,,,,,,,,,955.5931965,None,,,,,,,,,,,,,,,,,,,,,,object,B_aloud,154,204,952.9810515,None,952.9810515,None,952.9810515,sing17a,5,1.709123593,952.9810515,None,954.7428569,None,954.7428569,None,955.2634951,None,955.2634951,None,955.2634951,None,f,0.282429558,955.2634951,None,,1,2019_Nov_01_1429,ProdFawcett_Revision2019,3.2.4,59.98679148
,,,,155,0,155,0,,,,,,,,,,,,,957.6938452,None,,,,,,,,,,,,,,,,,,,,,,break,D_new,155,26,956.1101082,None,956.1101082,None,956.1101082,sing17a,1,0.883943211,956.1101082,None,957.0436963,None,957.0436963,None,957.5603384,None,957.5603384,None,957.5603384,None,n,0.090360764,957.5603384,None,,1,2019_Nov_01_1429,ProdFawcett_Revision2019,3.2.4,59.98679148
,,,,156,0,156,0,,,,,,,,,,,,,960.0777813,None,,,,,,,,,,,,,,,,,,,,,,mechanical,B_aloud,156,185,958.2131697,None,958.2131697,None,958.2131697,sing17a,1,1.148619145,958.2131697,None,959.4110319,None,959.4110319,None,959.9284238,None,959.9284238,None,959.9284238,None,n,0.113454314,959.9284238,None,,1,2019_Nov_01_1429,ProdFawcett_Revision2019,3.2.4,59.98679148
,,,,157,0,157,0,,,,,,,,,,,,,963.6957302,None,,,,,,,,,,,,,,,,,,,,,,beginning,D_new,157,19,960.5971139,None,960.5971139,None,960.5971139,sing17a,3,2.428474218,960.5971139,None,963.0787526,None,963.0787526,None,963.5961296,None,963.5961296,None,963.5961296,None,f,0.053306276,963.5961296,None,,1,2019_Nov_01_1429,ProdFawcett_Revision2019,3.2.4,59.98679148
,,,,158,0,158,0,,,,,,,,,,,,,965.7461678,None,,,,,,,,,,,,,,,,,,,,,,empty,A_silent,158,112,964.2129474,None,964.2129474,None,964.2129474,sing17a,1,0.844880264,964.2129474,None,965.1128292,None,965.1128292,None,965.6295015,None,965.6295015,None,965.6295015,None,n,0.084257946,965.6295015,None,,1,2019_Nov_01_1429,ProdFawcett_Revision2019,3.2.4,59.98679148
,,,,159,0,159,0,,,,,,,,,,,,,972.5650062,None,,,,,,,,,,,,,,,,,,,,,,threat,D_new,159,329,966.262971,None,966.262971,None,966.262971,sing17a,1,3.65088045,966.262971,None,969.9535454,None,969.9535454,None,970.4809868,None,970.4809868,None,970.4809868,None,n,2.040615787,970.4809868,None,,1,2019_Nov_01_1429,ProdFawcett_Revision2019,3.2.4,59.98679148
,,,,160,0,160,0,,,,,,,,,,,,,975.2492272,None,,,,,,,,,,,,,,,,,,,,,,poetry,D_new,160,225,973.0829813,None,973.0829813,None,973.0829813,sing17a,1,1.158571562,973.0829813,None,974.2988938,None,974.2988938,None,974.8159122,None,974.8159122,None,974.8159122,None,n,0.384935622,974.8159122,None,,1,2019_Nov_01_1429,ProdFawcett_Revision2019,3.2.4,59.98679148
,,,,161,0,161,0,,,,,,,,,,,,,977.6166959,None,,,,,,,,,,,,,,,,,,,,,,thing,D_new,161,328,975.7660901,None,975.7660901,None,975.7660901,sing17a,1,1.067146234,975.7660901,None,976.883199,None,976.883199,None,977.3999673,None,977.3999673,None,977.3999673,None,n,0.177083411,977.3999673,None,,1,2019_Nov_01_1429,ProdFawcett_Revision2019,3.2.4,59.98679148
,,,,162,0,162,0,,,,,,,,,,,,,980.3342017,None,,,,,,,,,,,,,,,,,,,,,,watch,C_sing,162,351,978.1349347,None,978.1349347,None,978.1349347,sing17a,1,1.145631337,978.1349347,None,979.3337728,None,979.3337728,None,979.8505872,None,979.8505872,None,979.8505872,None,n,0.445959134,979.8505872,None,,1,2019_Nov_01_1429,ProdFawcett_Revision2019,3.2.4,59.98679148
,,,,163,0,163,0,,,,,,,,,,,,,982.5849188,None,,,,,,,,,,,,,,,,,,,,,,level,D_new,163,170,980.8510198,None,980.8510198,None,980.8510198,sing17a,1,1.077834795,980.8510198,None,981.984735,None,981.984735,None,982.5015734,None,982.5015734,None,982.5015734,None,n,0.03488213,982.5015734,None,,1,2019_Nov_01_1429,ProdFawcett_Revision2019,3.2.4,59.98679148
,,,,164,0,164,0,,,,,,,,,,,,,984.8854413,None,,,,,,,,,,,,,,,,,,,,,,fashion,D_new,164,125,983.0879651,None,983.0879651,None,983.0879651,sing17a,1,1.073177521,983.0879651,None,984.207915,None,984.207915,None,984.7353483,None,984.7353483,None,984.7353483,None,n,0.113031349,984.7353483,None,,1,2019_Nov_01_1429,ProdFawcett_Revision2019,3.2.4,59.98679148
,,,,165,0,165,0,,,,,,,,,,,,,987.4364194,None,,,,,,,,,,,,,,,,,,,,,,impact,D_new,165,157,985.4039068,None,985.4039068,None,985.4039068,sing17a,2,1.308664863,985.4039068,None,986.7695369,None,986.7695369,None,987.286217,None,987.286217,None,987.286217,None,f,0.106618461,987.286217,None,,1,2019_Nov_01_1429,ProdFawcett_Revision2019,3.2.4,59.98679148
,,,,166,0,166,0,,,,,,,,,,,,,989.4202078,None,,,,,,,,,,,,,,,,,,,,,,salary,D_new,166,271,987.9548299,None,987.9548299,None,987.9548299,sing17a,1,0.821956522,987.9548299,None,988.8257343,None,988.8257343,None,989.3534655,None,989.3534655,None,989.3534655,None,n,0.030723705,989.3534655,None,,1,2019_Nov_01_1429,ProdFawcett_Revision2019,3.2.4,59.98679148
,,,,167,0,167,0,,,,,,,,,,,,,991.4710198,None,,,,,,,,,,,,,,,,,,,,,,number,C_sing,167,203,989.9387921,None,989.9387921,None,989.9387921,sing17a,1,0.805983392,989.9387921,None,990.8040415,None,990.8040415,None,991.3209439,None,991.3209439,None,991.3209439,None,n,0.111353486,991.3209439,None,,1,2019_Nov_01_1429,ProdFawcett_Revision2019,3.2.4,59.98679148
,,,,168,0,168,0,,,,,,,,,,,,,993.6549269,None,,,,,,,,,,,,,,,,,,,,,,vision,B_aloud,168,347,991.9888714,None,991.9888714,None,991.9888714,sing17a,1,0.882913168,991.9888714,None,992.921444,None,992.921444,None,993.4380957,None,993.4380957,None,993.4380957,None,n,0.169633638,993.4380957,None,,1,2019_Nov_01_1429,ProdFawcett_Revision2019,3.2.4,59.98679148
,,,,169,0,169,0,,,,,,,,,,,,,996.34455,None,,,,,,,,,,,,,,,,,,,,,,expansion,D_new,169,123,994.1717556,None,994.1717556,None,994.1717556,sing17a,3,1.563844623,994.1717556,None,995.7890788,None,995.7890788,None,996.2915964,None,996.2915964,None,996.2915964,None,f,0.020122224,996.2915964,None,,1,2019_Nov_01_1429,ProdFawcett_Revision2019,3.2.4,59.98679148
,,,,170,0,170,0,,,,,,,,,,,,,998.4564608,None,,,,,,,,,,,,,,,,,,,,,,question,A_silent,170,247,996.8764079,None,996.8764079,None,996.8764079,sing17a,1,0.891524849,996.8764079,None,997.8228332,None,997.8228332,None,998.3436857,None,998.3436857,None,998.3436857,None,n,0.072152143,998.3436857,None,,1,2019_Nov_01_1429,ProdFawcett_Revision2019,3.2.4,59.98679148
,,,,171,0,171,0,,,,,,,,,,,,,1000.673932,None,,,,,,,,,,,,,,,,,,,,,,staff,D_new,171,301,998.9739205,None,998.9739205,None,998.9739205,sing17a,1,1.025868943,998.9739205,None,1000.045099,None,1000.045099,None,1000.57365,None,1000.57365,None,1000.57365,None,n,0.058567519,1000.57365,None,,1,2019_Nov_01_1429,ProdFawcett_Revision2019,3.2.4,59.98679148
,,,,172,0,172,0,,,,,,,,,,,,,1003.757983,None,,,,,,,,,,,,,,,,,,,,,,write,B_aloud,172,358,1001.19083,None,1001.19083,None,1001.19083,sing17a,6,1.233003981,1001.19083,None,1002.474275,None,1002.474275,None,1002.991181,None,1002.991181,None,1002.991181,None,r,0.728401132,1002.991181,None,,1,2019_Nov_01_1429,ProdFawcett_Revision2019,3.2.4,59.98679148
,,,,173,0,173,0,,,,,,,,,,,,,1006.692199,None,,,,,,,,,,,,,,,,,,,,,,pretty,B_aloud,173,233,1004.275798,None,1004.275798,None,1004.275798,sing17a,6,1.283223549,1004.275798,None,1005.62524,None,1005.62524,None,1006.142131,None,1006.142131,None,1006.142131,None,r,0.512911613,1006.142131,None,,1,2019_Nov_01_1429,ProdFawcett_Revision2019,3.2.4,59.98679148
,,,,174,0,174,0,,,,,,,,,,,,,1009.126282,None,,,,,,,,,,,,,,,,,,,,,,commercial,B_aloud,174,61,1007.209469,None,1007.209469,None,1007.209469,sing17a,6,1.197571375,1007.209469,None,1008.447892,None,1008.447892,None,1008.977278,None,1008.977278,None,1008.977278,None,r,0.101570878,1008.977278,None,,1,2019_Nov_01_1429,ProdFawcett_Revision2019,3.2.4,59.98679148
,,,,175,0,175,0,,,,,,,,,,,,,1012.012238,None,,,,,,,,,,,,,,,,,,,,,,literature,B_aloud,175,173,1009.645855,None,1009.645855,None,1009.645855,sing17a,6,1.392977857,1009.645855,None,1011.082649,None,1011.082649,None,1011.611425,None,1011.611425,None,1011.611425,None,r,0.379405051,1011.611425,None,,1,2019_Nov_01_1429,ProdFawcett_Revision2019,3.2.4,59.98679148
,,,,176,0,176,0,,,,,,,,,,,,,1014.327951,None,,,,,,,,,,,,,,,,,,,,,,quantity,D_new,176,245,1012.547802,None,1012.547802,None,1012.547802,sing17a,1,1.075221123,1012.547802,None,1013.667756,None,1013.667756,None,1014.197225,None,1014.197225,None,1014.197225,None,n,0.097676183,1014.197225,None,,1,2019_Nov_01_1429,ProdFawcett_Revision2019,3.2.4,59.98679148
,,,,177,0,177,0,,,,,,,,,,,,,1016.478614,None,,,,,,,,,,,,,,,,,,,,,,error,C_sing,177,117,1014.844972,None,1014.844972,None,1014.844972,sing17a,1,0.945506935,1014.844972,None,1015.845036,None,1015.845036,None,1016.36603,None,1016.36603,None,1016.36603,None,n,0.072832929,1016.36603,None,,1,2019_Nov_01_1429,ProdFawcett_Revision2019,3.2.4,59.98679148
,,,,178,0,178,0,,,,,,,,,,,,,1019.979674,None,,,,,,,,,,,,,,,,,,,,,,weight,D_new,178,353,1016.996905,None,1016.996905,None,1016.996905,sing17a,1,2.025811408,1016.996905,None,1019.079541,None,1019.079541,None,1019.596222,None,1019.596222,None,1019.596222,None,n,0.338166325,1019.596222,None,,1,2019_Nov_01_1429,ProdFawcett_Revision2019,3.2.4,59.98679148
,,,,179,0,179,0,,,,,,,,,,,,,1022.780687,None,,,,,,,,,,,,,,,,,,,,,,guard,D_new,179,145,1020.496538,None,1020.496538,None,1020.496538,sing17a,1,1.22970548,1020.496538,None,1021.780345,None,1021.780345,None,1022.297052,None,1022.297052,None,1022.297052,None,n,0.436984512,1022.297052,None,,1,2019_Nov_01_1429,ProdFawcett_Revision2019,3.2.4,59.98679148
