StudyTrials.thisRepN,StudyTrials.thisTrialN,StudyTrials.thisN,StudyTrials.thisIndex,TestTrials.thisRepN,TestTrials.thisTrialN,TestTrials.thisN,TestTrials.thisIndex,textWelcome.started,textWelcome.stopped,keyWelcome.keys,keyWelcome.rt,keyWelcome.started,keyWelcome.stopped,textReady.started,textReady.stopped,keyReady.keys,keyReady.rt,keyReady.started,keyReady.stopped,polyback_2.started,polyback_2.stopped,studyPic,studyWord,studyType,studyN,studyOrder,polyback_3.started,polyback_3.stopped,studyPicChoice.started,studyPicChoice.stopped,polyback_4.started,polyback_4.stopped,polyback.started,polyback.stopped,studyWords.started,studyWords.stopped,getResearcher.started,getResearcher.stopped,kPress2.keys,kPress2.rt,kPress2.started,kPress2.stopped,testWord,testType,testN,testOrder,polyback_5.started,polyback_5.stopped,testWords.started,testWords.stopped,textScale.started,textScale.stopped,keyConf.keys,keyConf.rt,keyConf.started,keyConf.stopped,polyback_6.started,polyback_6.stopped,studyWords_2.started,studyWords_2.stopped,polyback_7.started,polyback_7.stopped,testWords_2.started,testWords_2.stopped,textScale_2.started,textScale_2.stopped,keyRKN.keys,keyRKN.rt,keyRKN.started,keyRKN.stopped,participant,session,date,expName,psychopyVersion,frameRate,
,,,,,,,,11.59089044466964,None,space,916.2343605139176,11.59089044466964,None,,,,,,,,,,,,,,,,,,,,,,,,,,,,,,,,,,,,,,,,,,,,,,,,,,,,,,,,,,sing34,001,2019_Nov_14_1328,ProdFawcett_Revision2019,3.2.4,59.969804073129986,
,,,,,,,,,,,,,,927.8464817901258,None,space,3.178541449800832,927.8464817901258,None,,,,,,,,,,,,,,,,,,,,,,,,,,,,,,,,,,,,,,,,,,,,,,,,,,,,sing34,001,2019_Nov_14_1328,ProdFawcett_Revision2019,3.2.4,59.969804073129986,
0,0,0,0,,,,,,,,,,,,,,,,,935.8323680222093,None,materials/readPic.jpg,military,A_silent,0,190,932.1975047358428,None,932.1975047358428,None,933.0824704209808,None,933.3481990103028,None,933.3481990103028,None,,,,,,,,,,,,,,,,,,,,,,,,,,,,,,,,,,,sing34,001,2019_Nov_14_1328,ProdFawcett_Revision2019,3.2.4,59.969804073129986,
1,0,1,0,,,,,,,,,,,,,,,,,940.1003996117215,None,materials/speakPic.jpg,under,B_aloud,1,343,936.4226149952738,None,936.4226149952738,None,937.3494495658379,None,937.6161721306853,None,937.6161721306853,None,,,,,,,,,,,,,,,,,,,,,,,,,,,,,,,,,,,sing34,001,2019_Nov_14_1328,ProdFawcett_Revision2019,3.2.4,59.969804073129986,
2,0,2,0,,,,,,,,,,,,,,,,,944.368447373563,None,materials/speakPic.jpg,disease,B_aloud,2,97,940.6750371885428,None,940.6750371885428,None,941.6174945286184,None,941.8743609990925,None,941.8743609990925,None,,,,,,,,,,,,,,,,,,,,,,,,,,,,,,,,,,,sing34,001,2019_Nov_14_1328,ProdFawcett_Revision2019,3.2.4,59.969804073129986,
3,0,3,0,,,,,,,,,,,,,,,,,948.6364823841432,None,materials/speakPic.jpg,solution,B_aloud,3,294,944.9370794225542,None,944.9370794225542,None,945.8856240850582,None,946.1522356207133,None,946.1522356207133,None,,,,,,,,,,,,,,,,,,,,,,,,,,,,,,,,,,,sing34,001,2019_Nov_14_1328,ProdFawcett_Revision2019,3.2.4,59.969804073129986,
4,0,4,0,,,,,,,,,,,,,,,,,952.9045435192238,None,materials/readPic.jpg,sight,A_silent,4,286,949.2376584226149,None,949.2376584226149,None,950.1535443343746,None,950.4202466838178,None,950.4202466838178,None,,,,,,,,,,,,,,,,,,,,,,,,,,,,,,,,,,,sing34,001,2019_Nov_14_1328,ProdFawcett_Revision2019,3.2.4,59.969804073129986,
5,0,5,0,,,,,,,,,,,,,,,,,957.1725110414845,None,materials/singPic.jpg,evidence,C_sing,5,120,953.5226230503467,None,953.5226230503467,None,954.4233041848056,None,954.6882760962762,None,954.6882760962762,None,,,,,,,,,,,,,,,,,,,,,,,,,,,,,,,,,,,sing34,001,2019_Nov_14_1328,ProdFawcett_Revision2019,3.2.4,59.969804073129986,
6,0,6,0,,,,,,,,,,,,,,,,,961.4405205495714,None,materials/readPic.jpg,month,A_silent,6,193,957.7742030390946,None,957.7742030390946,None,958.6895863649843,None,958.9563160829421,None,958.9563160829421,None,,,,,,,,,,,,,,,,,,,,,,,,,,,,,,,,,,,sing34,001,2019_Nov_14_1328,ProdFawcett_Revision2019,3.2.4,59.969804073129986,
7,0,7,0,,,,,,,,,,,,,,,,,965.7085648903158,None,materials/readPic.jpg,permit,A_silent,7,218,962.0236513919954,None,962.0236513919954,None,962.9576151554356,None,963.2243386532937,None,963.2243386532937,None,,,,,,,,,,,,,,,,,,,,,,,,,,,,,,,,,,,sing34,001,2019_Nov_14_1328,ProdFawcett_Revision2019,3.2.4,59.969804073129986,
8,0,8,0,,,,,,,,,,,,,,,,,969.9765725323814,None,materials/speakPic.jpg,education,B_aloud,8,108,966.2948163679976,None,966.2948163679976,None,967.2256507880229,None,967.4923655777238,None,967.4923655777238,None,,,,,,,,,,,,,,,,,,,,,,,,,,,,,,,,,,,sing34,001,2019_Nov_14_1328,ProdFawcett_Revision2019,3.2.4,59.969804073129986,
9,0,9,0,,,,,,,,,,,,,,,,,974.2446349114762,None,materials/readPic.jpg,hearing,A_silent,9,150,970.5781914435211,None,970.5781914435211,None,971.4936870426463,None,971.7446366220247,None,971.7446366220247,None,,,,,,,,,,,,,,,,,,,,,,,,,,,,,,,,,,,sing34,001,2019_Nov_14_1328,ProdFawcett_Revision2019,3.2.4,59.969804073129986,
10,0,10,0,,,,,,,,,,,,,,,,,978.5126596588525,None,materials/singPic.jpg,republic,C_sing,10,260,974.8530611241877,None,974.8530611241877,None,975.7616853544896,None,976.0283948570723,None,976.0283948570723,None,,,,,,,,,,,,,,,,,,,,,,,,,,,,,,,,,,,sing34,001,2019_Nov_14_1328,ProdFawcett_Revision2019,3.2.4,59.969804073129986,
11,0,11,0,,,,,,,,,,,,,,,,,982.7806365113065,None,materials/singPic.jpg,harmony,C_sing,11,148,979.0957625107549,None,979.0957625107549,None,980.0297004606982,None,980.2964429299172,None,980.2964429299172,None,,,,,,,,,,,,,,,,,,,,,,,,,,,,,,,,,,,sing34,001,2019_Nov_14_1328,ProdFawcett_Revision2019,3.2.4,59.969804073129986,
12,0,12,0,,,,,,,,,,,,,,,,,987.0487116416625,None,materials/speakPic.jpg,detective,B_aloud,12,92,983.3684050767333,None,983.3684050767333,None,984.2978617397312,None,984.5644455958391,None,984.5644455958391,None,,,,,,,,,,,,,,,,,,,,,,,,,,,,,,,,,,,sing34,001,2019_Nov_14_1328,ProdFawcett_Revision2019,3.2.4,59.969804073129986,
13,0,13,0,,,,,,,,,,,,,,,,,991.31672208276,None,materials/readPic.jpg,count,A_silent,13,72,987.649866842723,None,987.649866842723,None,988.5657770129619,None,988.8325026878738,None,988.8325026878738,None,,,,,,,,,,,,,,,,,,,,,,,,,,,,,,,,,,,sing34,001,2019_Nov_14_1328,ProdFawcett_Revision2019,3.2.4,59.969804073129986,
14,0,14,0,,,,,,,,,,,,,,,,,995.5847900599765,None,materials/speakPic.jpg,private,B_aloud,14,237,991.9087868864881,None,991.9087868864881,None,992.8338017603382,None,993.1005958565802,None,993.1005958565802,None,,,,,,,,,,,,,,,,,,,,,,,,,,,,,,,,,,,sing34,001,2019_Nov_14_1328,ProdFawcett_Revision2019,3.2.4,59.969804073129986,
15,0,15,0,,,,,,,,,,,,,,,,,999.8527659794199,None,materials/singPic.jpg,youth,C_sing,15,359,996.1883975441742,None,996.1883975441742,None,997.101822153636,None,997.3685472065117,None,997.3685472065117,None,,,,,,,,,,,,,,,,,,,,,,,,,,,,,,,,,,,sing34,001,2019_Nov_14_1328,ProdFawcett_Revision2019,3.2.4,59.969804073129986,
16,0,16,0,,,,,,,,,,,,,,,,,1004.1207876167318,None,materials/speakPic.jpg,author,B_aloud,16,15,1000.4545854894968,None,1000.4545854894968,None,1001.3698018051218,None,1001.6365651117521,None,1001.6365651117521,None,,,,,,,,,,,,,,,,,,,,,,,,,,,,,,,,,,,sing34,001,2019_Nov_14_1328,ProdFawcett_Revision2019,3.2.4,59.969804073129986,
17,0,17,0,,,,,,,,,,,,,,,,,1008.3888325794833,None,materials/speakPic.jpg,engineer,B_aloud,17,114,1004.6953110542963,None,1004.6953110542963,None,1005.6378483229491,None,1005.9045982563111,None,1005.9045982563111,None,,,,,,,,,,,,,,,,,,,,,,,,,,,,,,,,,,,sing34,001,2019_Nov_14_1328,ProdFawcett_Revision2019,3.2.4,59.969804073129986,
18,0,18,0,,,,,,,,,,,,,,,,,1012.6568601259205,None,materials/speakPic.jpg,break,B_aloud,18,26,1008.9568192908191,None,1008.9568192908191,None,1009.9059110130474,None,1010.1726214486407,None,1010.1726214486407,None,,,,,,,,,,,,,,,,,,,,,,,,,,,,,,,,,,,sing34,001,2019_Nov_14_1328,ProdFawcett_Revision2019,3.2.4,59.969804073129986,
19,0,19,0,,,,,,,,,,,,,,,,,1016.9249396103842,None,materials/singPic.jpg,shock,C_sing,19,284,1013.2595663144311,None,1013.2595663144311,None,1014.1739065258589,None,1014.4406486840744,None,1014.4406486840744,None,,,,,,,,,,,,,,,,,,,,,,,,,,,,,,,,,,,sing34,001,2019_Nov_14_1328,ProdFawcett_Revision2019,3.2.4,59.969804073129986,
20,0,20,0,,,,,,,,,,,,,,,,,1021.192903711577,None,materials/readPic.jpg,household,A_silent,20,154,1017.5297755686624,None,1017.5297755686624,None,1018.4419841442723,None,1018.7086855607049,None,1018.7086855607049,None,,,,,,,,,,,,,,,,,,,,,,,,,,,,,,,,,,,sing34,001,2019_Nov_14_1328,ProdFawcett_Revision2019,3.2.4,59.969804073129986,
21,0,21,0,,,,,,,,,,,,,,,,,1025.4609601815755,None,materials/singPic.jpg,angle,C_sing,21,7,1021.8009181522066,None,1021.8009181522066,None,1022.7099675278296,None,1022.976712485106,None,1022.976712485106,None,,,,,,,,,,,,,,,,,,,,,,,,,,,,,,,,,,,sing34,001,2019_Nov_14_1328,ProdFawcett_Revision2019,3.2.4,59.969804073129986,
22,0,22,0,,,,,,,,,,,,,,,,,1029.728978086816,None,materials/singPic.jpg,alert,C_sing,22,6,1026.0440440620878,None,1026.0440440620878,None,1026.9780103135854,None,1027.244738787529,None,1027.244738787529,None,,,,,,,,,,,,,,,,,,,,,,,,,,,,,,,,,,,sing34,001,2019_Nov_14_1328,ProdFawcett_Revision2019,3.2.4,59.969804073129986,
23,0,23,0,,,,,,,,,,,,,,,,,1033.9969875949027,None,materials/speakPic.jpg,narrow,B_aloud,23,197,1030.3166104315605,None,1030.3166104315605,None,1031.2460957071453,None,1031.5127613578516,None,1031.5127613578516,None,,,,,,,,,,,,,,,,,,,,,,,,,,,,,,,,,,,sing34,001,2019_Nov_14_1328,ProdFawcett_Revision2019,3.2.4,59.969804073129986,
24,0,24,0,,,,,,,,,,,,,,,,,1038.2651746874617,None,materials/readPic.jpg,direction,A_silent,24,94,1034.5983129162923,None,1034.5983129162923,None,1035.514197584038,None,1035.7807935693709,None,1035.7807935693709,None,,,,,,,,,,,,,,,,,,,,,,,,,,,,,,,,,,,sing34,001,2019_Nov_14_1328,ProdFawcett_Revision2019,3.2.4,59.969804073129986,
25,0,25,0,,,,,,,,,,,,,,,,,1042.5330470418266,None,materials/readPic.jpg,enemy,A_silent,25,113,1038.8481397636351,None,1038.8481397636351,None,1039.7821812785987,None,1040.048823292862,None,1040.048823292862,None,,,,,,,,,,,,,,,,,,,,,,,,,,,,,,,,,,,sing34,001,2019_Nov_14_1328,ProdFawcett_Revision2019,3.2.4,59.969804073129986,
26,0,26,0,,,,,,,,,,,,,,,,,1046.801067124121,None,materials/readPic.jpg,watch,A_silent,26,351,1043.1049536740757,None,1043.1049536740757,None,1044.0501161452266,None,1044.3167273698782,None,1044.3167273698782,None,,,,,,,,,,,,,,,,,,,,,,,,,,,,,,,,,,,sing34,001,2019_Nov_14_1328,ProdFawcett_Revision2019,3.2.4,59.969804073129986,
27,0,27,0,,,,,,,,,,,,,,,,,1051.069089383469,None,materials/readPic.jpg,review,A_silent,27,263,1047.3870296771347,None,1047.3870296771347,None,1048.3182030938042,None,1048.5848771416931,None,1048.5848771416931,None,,,,,,,,,,,,,,,,,,,,,,,,,,,,,,,,,,,sing34,001,2019_Nov_14_1328,ProdFawcett_Revision2019,3.2.4,59.969804073129986,
28,0,28,0,,,,,,,,,,,,,,,,,1055.3371187959274,None,materials/speakPic.jpg,entrance,B_aloud,28,115,1051.660583801975,None,1051.660583801975,None,1052.586230951245,None,1052.8529208604596,None,1052.8529208604596,None,,,,,,,,,,,,,,,,,,,,,,,,,,,,,,,,,,,sing34,001,2019_Nov_14_1328,ProdFawcett_Revision2019,3.2.4,59.969804073129986,
29,0,29,0,,,,,,,,,,,,,,,,,1059.605156294565,None,materials/singPic.jpg,drink,C_sing,29,105,1055.9420110463107,None,1055.9420110463107,None,1056.8542441914033,None,1057.1209347225958,None,1057.1209347225958,None,,,,,,,,,,,,,,,,,,,,,,,,,,,,,,,,,,,sing34,001,2019_Nov_14_1328,ProdFawcett_Revision2019,3.2.4,59.969804073129986,
30,0,30,0,,,,,,,,,,,,,,,,,1063.873104534432,None,materials/singPic.jpg,partner,C_sing,30,211,1060.1882690986386,None,1060.1882690986386,None,1061.12234731231,None,1061.3889594700013,None,1061.3889594700013,None,,,,,,,,,,,,,,,,,,,,,,,,,,,,,,,,,,,sing34,001,2019_Nov_14_1328,ProdFawcett_Revision2019,3.2.4,59.969804073129986,
31,0,31,0,,,,,,,,,,,,,,,,,1068.1411753107095,None,materials/speakPic.jpg,surface,B_aloud,31,316,1064.4748966759944,None,1064.4748966759944,None,1065.3903462461894,None,1065.6569714661164,None,1065.6569714661164,None,,,,,,,,,,,,,,,,,,,,,,,,,,,,,,,,,,,sing34,001,2019_Nov_14_1328,ProdFawcett_Revision2019,3.2.4,59.969804073129986,
32,0,32,0,,,,,,,,,,,,,,,,,1072.409250752069,None,materials/readPic.jpg,crime,A_silent,32,78,1068.7424020431645,None,1068.7424020431645,None,1069.6585028601694,None,1069.9150297119631,None,1069.9150297119631,None,,,,,,,,,,,,,,,,,,,,,,,,,,,,,,,,,,,sing34,001,2019_Nov_14_1328,ProdFawcett_Revision2019,3.2.4,59.969804073129986,
33,0,33,0,,,,,,,,,,,,,,,,,1076.677275810478,None,materials/readPic.jpg,primary,A_silent,33,234,1072.9839051232266,None,1072.9839051232266,None,1073.9268261733814,None,1074.193029047019,None,1074.193029047019,None,,,,,,,,,,,,,,,,,,,,,,,,,,,,,,,,,,,sing34,001,2019_Nov_14_1328,ProdFawcett_Revision2019,3.2.4,59.969804073129986,
34,0,34,0,,,,,,,,,,,,,,,,,1080.945279720443,None,materials/singPic.jpg,waste,C_sing,34,350,1077.2953792890476,None,1077.2953792890476,None,1078.1944111581543,None,1078.4610668566602,None,1078.4610668566602,None,,,,,,,,,,,,,,,,,,,,,,,,,,,,,,,,,,,sing34,001,2019_Nov_14_1328,ProdFawcett_Revision2019,3.2.4,59.969804073129986,
35,0,35,0,,,,,,,,,,,,,,,,,1085.213301357755,None,materials/speakPic.jpg,society,B_aloud,35,293,1081.5469141819049,None,1081.5469141819049,None,1082.4625276523293,None,1082.7290794748114,None,1082.7290794748114,None,,,,,,,,,,,,,,,,,,,,,,,,,,,,,,,,,,,sing34,001,2019_Nov_14_1328,ProdFawcett_Revision2019,3.2.4,59.969804073129986,
36,0,36,0,,,,,,,,,,,,,,,,,1089.4813394783996,None,materials/singPic.jpg,account,C_sing,36,1,1085.8174064516788,None,1085.8174064516788,None,1086.7303884994762,None,1086.9971063992125,None,1086.9971063992125,None,,,,,,,,,,,,,,,,,,,,,,,,,,,,,,,,,,,sing34,001,2019_Nov_14_1328,ProdFawcett_Revision2019,3.2.4,59.969804073129986,
37,0,37,0,,,,,,,,,,,,,,,,,1093.749360182701,None,materials/speakPic.jpg,device,B_aloud,37,93,1090.068308758142,None,1090.068308758142,None,1090.998509969766,None,1091.2651336346462,None,1091.2651336346462,None,,,,,,,,,,,,,,,,,,,,,,,,,,,,,,,,,,,sing34,001,2019_Nov_14_1328,ProdFawcett_Revision2019,3.2.4,59.969804073129986,
38,0,38,0,,,,,,,,,,,,,,,,,1098.0173839970375,None,materials/readPic.jpg,bright,A_silent,38,29,1094.3529281691008,None,1094.3529281691008,None,1095.2665182338096,None,1095.5334087419324,None,1095.5334087419324,None,,,,,,,,,,,,,,,,,,,,,,,,,,,,,,,,,,,sing34,001,2019_Nov_14_1328,ProdFawcett_Revision2019,3.2.4,59.969804073129986,
39,0,39,0,,,,,,,,,,,,,,,,,1102.2854218066786,None,materials/speakPic.jpg,afternoon,B_aloud,39,3,1098.6189049412787,None,1098.6189049412787,None,1099.534570038726,None,1099.8011806413415,None,1099.8011806413415,None,,,,,,,,,,,,,,,,,,,,,,,,,,,,,,,,,,,sing34,001,2019_Nov_14_1328,ProdFawcett_Revision2019,3.2.4,59.969804073129986,
40,0,40,0,,,,,,,,,,,,,,,,,1106.5534403339261,None,materials/singPic.jpg,management,C_sing,40,177,1102.8920606673346,None,1102.8920606673346,None,1103.802635838918,None,1104.0691976135713,None,1104.0691976135713,None,,,,,,,,,,,,,,,,,,,,,,,,,,,,,,,,,,,sing34,001,2019_Nov_14_1328,ProdFawcett_Revision2019,3.2.4,59.969804073129986,
41,0,41,0,,,,,,,,,,,,,,,,,1110.8214675693598,None,materials/readPic.jpg,corner,A_silent,41,69,1107.1456254970108,None,1107.1456254970108,None,1108.0706285526394,None,1108.3372245380015,None,1108.3372245380015,None,,,,,,,,,,,,,,,,,,,,,,,,,,,,,,,,,,,sing34,001,2019_Nov_14_1328,ProdFawcett_Revision2019,3.2.4,59.969804073129986,
42,0,42,0,,,,,,,,,,,,,,,,,1115.0895047569938,None,materials/speakPic.jpg,space,B_aloud,42,297,1111.4229738963186,None,1111.4229738963186,None,1112.338719544321,None,1112.6052209838235,None,1112.6052209838235,None,,,,,,,,,,,,,,,,,,,,,,,,,,,,,,,,,,,sing34,001,2019_Nov_14_1328,ProdFawcett_Revision2019,3.2.4,59.969804073129986,
43,0,43,0,,,,,,,,,,,,,,,,,1119.3575285713305,None,materials/readPic.jpg,history,A_silent,43,153,1115.6906745753367,None,1115.6906745753367,None,1116.606669961242,None,1116.8732874060224,None,1116.8732874060224,None,,,,,,,,,,,,,,,,,,,,,,,,,,,,,,,,,,,sing34,001,2019_Nov_14_1328,ProdFawcett_Revision2019,3.2.4,59.969804073129986,
44,0,44,0,,,,,,,,,,,,,,,,,1123.6255589168286,None,materials/singPic.jpg,treatment,C_sing,44,339,1119.9628220195882,None,1119.9628220195882,None,1120.8747391825018,None,1121.141295670066,None,1121.141295670066,None,,,,,,,,,,,,,,,,,,,,,,,,,,,,,,,,,,,sing34,001,2019_Nov_14_1328,ProdFawcett_Revision2019,3.2.4,59.969804073129986,
45,0,45,0,,,,,,,,,,,,,,,,,1127.8935858412588,None,materials/speakPic.jpg,number,B_aloud,45,203,1124.2283885747602,None,1124.2283885747602,None,1125.1427875663503,None,1125.4093185514212,None,1125.4093185514212,None,,,,,,,,,,,,,,,,,,,,,,,,,,,,,,,,,,,sing34,001,2019_Nov_14_1328,ProdFawcett_Revision2019,3.2.4,59.969804073129986,
46,0,46,0,,,,,,,,,,,,,,,,,1132.1615962823562,None,materials/singPic.jpg,welcome,C_sing,46,354,1128.5015041810111,None,1128.5015041810111,None,1129.4107690838573,None,1129.6773467198655,None,1129.6773467198655,None,,,,,,,,,,,,,,,,,,,,,,,,,,,,,,,,,,,sing34,001,2019_Nov_14_1328,ProdFawcett_Revision2019,3.2.4,59.969804073129986,
47,0,47,0,,,,,,,,,,,,,,,,,1136.4296583504474,None,materials/speakPic.jpg,smooth,B_aloud,47,292,1132.7516420344473,None,1132.7516420344473,None,1133.6788121806167,None,1133.9456734541454,None,1133.9456734541454,None,,,,,,,,,,,,,,,,,,,,,,,,,,,,,,,,,,,sing34,001,2019_Nov_14_1328,ProdFawcett_Revision2019,3.2.4,59.969804073129986,
48,0,48,0,,,,,,,,,,,,,,,,,1140.6976747006702,None,materials/speakPic.jpg,surprise,B_aloud,48,317,1136.9964881190972,None,1136.9964881190972,None,1137.946904105309,None,1138.2134276262368,None,1138.2134276262368,None,,,,,,,,,,,,,,,,,,,,,,,,,,,,,,,,,,,sing34,001,2019_Nov_14_1328,ProdFawcett_Revision2019,3.2.4,59.969804073129986,
49,0,49,0,,,,,,,,,,,,,,,,,1144.965706601186,None,materials/speakPic.jpg,brilliant,B_aloud,49,30,1141.2807800406008,None,1141.2807800406008,None,1142.2148542112263,None,1142.4814306031913,None,1142.4814306031913,None,,,,,,,,,,,,,,,,,,,,,,,,,,,,,,,,,,,sing34,001,2019_Nov_14_1328,ProdFawcett_Revision2019,3.2.4,59.969804073129986,
50,0,50,0,,,,,,,,,,,,,,,,,1149.233706468076,None,materials/singPic.jpg,dispute,C_sing,50,99,1145.5718565602438,None,1145.5718565602438,None,1146.4829632412584,None,1146.7494830300857,None,1146.7494830300857,None,,,,,,,,,,,,,,,,,,,,,,,,,,,,,,,,,,,sing34,001,2019_Nov_14_1328,ProdFawcett_Revision2019,3.2.4,59.969804073129986,
51,0,51,0,,,,,,,,,,,,,,,,,1153.5017433447065,None,materials/readPic.jpg,agreement,A_silent,51,5,1149.8353782502818,None,1149.8353782502818,None,1150.7509363616118,None,1151.0175139975909,None,1151.0175139975909,None,,,,,,,,,,,,,,,,,,,,,,,,,,,,,,,,,,,sing34,001,2019_Nov_14_1328,ProdFawcett_Revision2019,3.2.4,59.969804073129986,
52,0,52,0,,,,,,,,,,,,,,,,,1157.7697783552867,None,materials/singPic.jpg,foundation,C_sing,52,132,1154.0728681075852,None,1154.0728681075852,None,1155.018937472516,None,1155.285514486488,None,1155.285514486488,None,,,,,,,,,,,,,,,,,,,,,,,,,,,,,,,,,,,sing34,001,2019_Nov_14_1328,ProdFawcett_Revision2019,3.2.4,59.969804073129986,
53,0,53,0,,,,,,,,,,,,,,,,,1162.0377968825342,None,materials/readPic.jpg,suspect,A_silent,53,318,1158.3759472857055,None,1158.3759472857055,None,1159.2870073157828,None,1159.5433077551425,None,1159.5433077551425,None,,,,,,,,,,,,,,,,,,,,,,,,,,,,,,,,,,,sing34,001,2019_Nov_14_1328,ProdFawcett_Revision2019,3.2.4,59.969804073129986,
54,0,54,0,,,,,,,,,,,,,,,,,1166.3058228739246,None,materials/readPic.jpg,machinery,A_silent,54,175,1162.611707016069,None,1162.611707016069,None,1163.5549767040648,None,1163.8215817086166,None,1163.8215817086166,None,,,,,,,,,,,,,,,,,,,,,,,,,,,,,,,,,,,sing34,001,2019_Nov_14_1328,ProdFawcett_Revision2019,3.2.4,59.969804073129986,
55,0,55,0,,,,,,,,,,,,,,,,,1170.5738594395516,None,materials/readPic.jpg,straight,A_silent,55,307,1166.8779223299352,None,1166.8779223299352,None,1167.8231255428982,None,1168.0895955707529,None,1168.0895955707529,None,,,,,,,,,,,,,,,,,,,,,,,,,,,,,,,,,,,sing34,001,2019_Nov_14_1328,ProdFawcett_Revision2019,3.2.4,59.969804073129986,
56,0,56,0,,,,,,,,,,,,,,,,,1174.841848110198,None,materials/speakPic.jpg,payment,B_aloud,56,215,1171.1752740196825,None,1171.1752740196825,None,1172.0910675626365,None,1172.3576392895193,None,1172.3576392895193,None,,,,,,,,,,,,,,,,,,,,,,,,,,,,,,,,,,,sing34,001,2019_Nov_14_1328,ProdFawcett_Revision2019,3.2.4,59.969804073129986,
57,0,57,0,,,,,,,,,,,,,,,,,1179.1100370688073,None,materials/singPic.jpg,literature,C_sing,57,173,1175.4501483654603,None,1175.4501483654603,None,1176.3591218556103,None,1176.6256839412963,None,1176.6256839412963,None,,,,,,,,,,,,,,,,,,,,,,,,,,,,,,,,,,,sing34,001,2019_Nov_14_1328,ProdFawcett_Revision2019,3.2.4,59.969804073129986,
58,0,58,0,,,,,,,,,,,,,,,,,1183.3779308826197,None,materials/readPic.jpg,power,A_silent,58,230,1179.7115116731438,None,1179.7115116731438,None,1180.6271845457377,None,1180.8936987364723,None,1180.8936987364723,None,,,,,,,,,,,,,,,,,,,,,,,,,,,,,,,,,,,sing34,001,2019_Nov_14_1328,ProdFawcett_Revision2019,3.2.4,59.969804073129986,
59,0,59,0,,,,,,,,,,,,,,,,,1187.645902758959,None,materials/readPic.jpg,meeting,A_silent,59,187,1183.9680652714742,None,1183.9680652714742,None,1184.8951809915598,None,1185.1616911392193,None,1185.1616911392193,None,,,,,,,,,,,,,,,,,,,,,,,,,,,,,,,,,,,sing34,001,2019_Nov_14_1328,ProdFawcett_Revision2019,3.2.4,59.969804073129986,
60,0,60,0,,,,,,,,,,,,,,,,,1191.9139788223547,None,materials/singPic.jpg,balance,C_sing,60,17,1188.2642677936528,None,1188.2642677936528,None,1189.163239638583,None,1189.4297342359496,None,1189.4297342359496,None,,,,,,,,,,,,,,,,,,,,,,,,,,,,,,,,,,,sing34,001,2019_Nov_14_1328,ProdFawcett_Revision2019,3.2.4,59.969804073129986,
61,0,61,0,,,,,,,,,,,,,,,,,1196.1819951725483,None,materials/singPic.jpg,throw,C_sing,61,330,1192.5004560904345,None,1192.5004560904345,None,1193.431246347609,None,1193.697771112551,None,1193.697771112551,None,,,,,,,,,,,,,,,,,,,,,,,,,,,,,,,,,,,sing34,001,2019_Nov_14_1328,ProdFawcett_Revision2019,3.2.4,59.969804073129986,
62,0,62,0,,,,,,,,,,,,,,,,,1200.4501654708001,None,materials/singPic.jpg,orchestra,C_sing,62,206,1196.765153383545,None,1196.765153383545,None,1197.6992847792571,None,1197.9657837307022,None,1197.9657837307022,None,,,,,,,,,,,,,,,,,,,,,,,,,,,,,,,,,,,sing34,001,2019_Nov_14_1328,ProdFawcett_Revision2019,3.2.4,59.969804073129986,
63,0,63,0,,,,,,,,,,,,,,,,,1204.7180617726408,None,materials/singPic.jpg,answer,C_sing,63,8,1201.0331806189497,None,1201.0331806189497,None,1201.9673042395443,None,1202.2338159422216,None,1202.2338159422216,None,,,,,,,,,,,,,,,,,,,,,,,,,,,,,,,,,,,sing34,001,2019_Nov_14_1328,ProdFawcett_Revision2019,3.2.4,59.969804073129986,
64,0,64,0,,,,,,,,,,,,,,,,,1208.9860759458097,None,materials/speakPic.jpg,style,B_aloud,64,311,1205.3198361868563,None,1205.3198361868563,None,1206.2353047284414,None,1206.501863082056,None,1206.501863082056,None,,,,,,,,,,,,,,,,,,,,,,,,,,,,,,,,,,,sing34,001,2019_Nov_14_1328,ProdFawcett_Revision2019,3.2.4,59.969804073129986,
65,0,65,0,,,,,,,,,,,,,,,,,1213.2541128224402,None,materials/speakPic.jpg,weather,B_aloud,65,352,1209.555022732995,None,1209.555022732995,None,1210.5033975861443,None,1210.7698884514393,None,1210.7698884514393,None,,,,,,,,,,,,,,,,,,,,,,,,,,,,,,,,,,,sing34,001,2019_Nov_14_1328,ProdFawcett_Revision2019,3.2.4,59.969804073129986,
66,0,66,0,,,,,,,,,,,,,,,,,1217.5221210864838,None,materials/singPic.jpg,session,C_sing,66,281,1213.8563403725275,None,1213.8563403725275,None,1214.771729296539,None,1215.0379144428298,None,1215.0379144428298,None,,,,,,,,,,,,,,,,,,,,,,,,,,,,,,,,,,,sing34,001,2019_Nov_14_1328,ProdFawcett_Revision2019,3.2.4,59.969804073129986,
67,0,67,0,,,,,,,,,,,,,,,,,1221.7899486559909,None,materials/singPic.jpg,expansion,C_sing,67,123,1218.1126784436346,None,1218.1126784436346,None,1219.0394312196004,None,1219.3059398122132,None,1219.3059398122132,None,,,,,,,,,,,,,,,,,,,,,,,,,,,,,,,,,,,sing34,001,2019_Nov_14_1328,ProdFawcett_Revision2019,3.2.4,59.969804073129986,
68,0,68,0,,,,,,,,,,,,,,,,,1226.0581805334368,None,materials/speakPic.jpg,piece,B_aloud,68,221,1222.408494696254,None,1222.408494696254,None,1223.3074668521876,None,1223.5739605165145,None,1223.5739605165145,None,,,,,,,,,,,,,,,,,,,,,,,,,,,,,,,,,,,sing34,001,2019_Nov_14_1328,ProdFawcett_Revision2019,3.2.4,59.969804073129986,
69,0,69,0,,,,,,,,,,,,,,,,,1230.3262261182244,None,materials/readPic.jpg,salary,A_silent,69,271,1226.6497197368299,None,1226.6497197368299,None,1227.5754735612136,None,1227.8420064123056,None,1227.8420064123056,None,,,,,,,,,,,,,,,,,,,,,,,,,,,,,,,,,,,sing34,001,2019_Nov_14_1328,ProdFawcett_Revision2019,3.2.4,59.969804073129986,
70,0,70,0,,,,,,,,,,,,,,,,,1234.594245267479,None,materials/speakPic.jpg,passage,B_aloud,70,212,1230.916195673839,None,1230.916195673839,None,1231.8435418494337,None,1232.110015609389,None,1232.110015609389,None,,,,,,,,,,,,,,,,,,,,,,,,,,,,,,,,,,,sing34,001,2019_Nov_14_1328,ProdFawcett_Revision2019,3.2.4,59.969804073129986,
71,0,71,0,,,,,,,,,,,,,,,,,1238.8623092016496,None,materials/singPic.jpg,theme,C_sing,71,326,1235.2120993191784,None,1235.2120993191784,None,1236.1115479364526,None,1236.3780366246938,None,1236.3780366246938,None,,,,,,,,,,,,,,,,,,,,,,,,,,,,,,,,,,,sing34,001,2019_Nov_14_1328,ProdFawcett_Revision2019,3.2.4,59.969804073129986,
72,0,72,0,,,,,,,,,,,,,,,,,1243.1303100015502,None,materials/singPic.jpg,atmosphere,C_sing,72,12,1239.4456729876401,None,1239.4456729876401,None,1240.3795701957715,None,1240.6461008698388,None,1240.6461008698388,None,,,,,,,,,,,,,,,,,,,,,,,,,,,,,,,,,,,sing34,001,2019_Nov_14_1328,ProdFawcett_Revision2019,3.2.4,59.969804073129986,
73,0,73,0,,,,,,,,,,,,,,,,,1247.3983322608692,None,materials/singPic.jpg,sweet,C_sing,73,319,1243.7134548392496,None,1243.7134548392496,None,1244.6475856129837,None,1244.9141001147218,None,1244.9141001147218,None,,,,,,,,,,,,,,,,,,,,,,,,,,,,,,,,,,,sing34,001,2019_Nov_14_1328,ProdFawcett_Revision2019,3.2.4,59.969804073129986,
74,0,74,0,,,,,,,,,,,,,,,,,1251.6663548312208,None,materials/speakPic.jpg,skill,B_aloud,74,289,1248.0001175602956,None,1248.0001175602956,None,1248.9155789487413,None,1249.182127661159,None,1249.182127661159,None,,,,,,,,,,,,,,,,,,,,,,,,,,,,,,,,,,,sing34,001,2019_Nov_14_1328,ProdFawcett_Revision2019,3.2.4,59.969804073129986,
75,0,75,0,,,,,,,,,,,,,,,,,1255.934378956561,None,materials/singPic.jpg,graduate,C_sing,75,141,1252.27513652388,None,1252.27513652388,None,1253.1842760913132,None,1253.450164848764,None,1253.450164848764,None,,,,,,,,,,,,,,,,,,,,,,,,,,,,,,,,,,,sing34,001,2019_Nov_14_1328,ProdFawcett_Revision2019,3.2.4,59.969804073129986,
76,0,76,0,,,,,,,,,,,,,,,,,1260.20239312973,None,materials/readPic.jpg,community,A_silent,76,63,1256.536100810743,None,1256.536100810743,None,1257.4517397836607,None,1257.7181852420617,None,1257.7181852420617,None,,,,,,,,,,,,,,,,,,,,,,,,,,,,,,,,,,,sing34,001,2019_Nov_14_1328,ProdFawcett_Revision2019,3.2.4,59.969804073129986,
77,0,77,0,,,,,,,,,,,,,,,,,1264.4704449346464,None,materials/readPic.jpg,pretty,A_silent,77,233,1260.773628299794,None,1260.773628299794,None,1261.7197188131686,None,1261.9862096784345,None,1261.9862096784345,None,,,,,,,,,,,,,,,,,,,,,,,,,,,,,,,,,,,sing34,001,2019_Nov_14_1328,ProdFawcett_Revision2019,3.2.4,59.969804073129986,
78,0,78,0,,,,,,,,,,,,,,,,,1268.7384547537367,None,materials/speakPic.jpg,emergency,B_aloud,78,110,1265.0718330792733,None,1265.0718330792733,None,1265.987752890709,None,1266.2542440670077,None,1266.2542440670077,None,,,,,,,,,,,,,,,,,,,,,,,,,,,,,,,,,,,sing34,001,2019_Nov_14_1328,ProdFawcett_Revision2019,3.2.4,59.969804073129986,
79,0,79,0,,,,,,,,,,,,,,,,,1273.0064536876162,None,materials/speakPic.jpg,accident,B_aloud,79,0,1269.310769425967,None,1269.310769425967,None,1270.2557639538136,None,1270.522392283805,None,1270.522392283805,None,,,,,,,,,,,,,,,,,,,,,,,,,,,,,,,,,,,sing34,001,2019_Nov_14_1328,ProdFawcett_Revision2019,3.2.4,59.969804073129986,
80,0,80,0,,,,,,,,,,,,,,,,,1277.2744858991355,None,materials/singPic.jpg,heavy,C_sing,80,151,1273.6095047818671,None,1273.6095047818671,None,1274.5238064285368,None,1274.7902882746712,None,1274.7902882746712,None,,,,,,,,,,,,,,,,,,,,,,,,,,,,,,,,,,,sing34,001,2019_Nov_14_1328,ProdFawcett_Revision2019,3.2.4,59.969804073129986,
81,0,81,0,,,,,,,,,,,,,,,,,1281.5425041153794,None,materials/singPic.jpg,period,C_sing,81,217,1277.8576689905894,None,1277.8576689905894,None,1278.7918510803138,None,1279.058321419201,None,1279.058321419201,None,,,,,,,,,,,,,,,,,,,,,,,,,,,,,,,,,,,sing34,001,2019_Nov_14_1328,ProdFawcett_Revision2019,3.2.4,59.969804073129986,
82,0,82,0,,,,,,,,,,,,,,,,,1285.8105369489058,None,materials/readPic.jpg,reading,A_silent,82,254,1282.1181238494755,None,1282.1181238494755,None,1283.0598795597616,None,1283.3263343483559,None,1283.3263343483559,None,,,,,,,,,,,,,,,,,,,,,,,,,,,,,,,,,,,sing34,001,2019_Nov_14_1328,ProdFawcett_Revision2019,3.2.4,59.969804073129986,
83,0,83,0,,,,,,,,,,,,,,,,,1290.078576002561,None,materials/readPic.jpg,dance,A_silent,83,84,1286.3937231504533,None,1286.3937231504533,None,1287.3278172254504,None,1287.5943659378681,None,1287.5943659378681,None,,,,,,,,,,,,,,,,,,,,,,,,,,,,,,,,,,,sing34,001,2019_Nov_14_1328,ProdFawcett_Revision2019,3.2.4,59.969804073129986,
84,0,84,0,,,,,,,,,,,,,,,,,1294.3465783575084,None,materials/speakPic.jpg,still,B_aloud,84,304,1290.6653064296406,None,1290.6653064296406,None,1291.5959881456802,None,1291.8625303269655,None,1291.8625303269655,None,,,,,,,,,,,,,,,,,,,,,,,,,,,,,,,,,,,sing34,001,2019_Nov_14_1328,ProdFawcett_Revision2019,3.2.4,59.969804073129986,
85,0,85,0,,,,,,,,,,,,,,,,,1298.6145990618097,None,materials/singPic.jpg,search,C_sing,85,276,1294.9645067396632,None,1294.9645067396632,None,1295.8639049739286,None,1296.1304135665705,None,1296.1304135665705,None,,,,,,,,,,,,,,,,,,,,,,,,,,,,,,,,,,,sing34,001,2019_Nov_14_1328,ProdFawcett_Revision2019,3.2.4,59.969804073129986,
86,0,86,0,,,,,,,,,,,,,,,,,1302.8826362494437,None,materials/readPic.jpg,judge,A_silent,86,166,1299.2190372432815,None,1299.2190372432815,None,1300.1319732621778,None,1300.39920058992,None,1300.39920058992,None,,,,,,,,,,,,,,,,,,,,,,,,,,,,,,,,,,,sing34,001,2019_Nov_14_1328,ProdFawcett_Revision2019,3.2.4,59.969804073129986,
87,0,87,0,,,,,,,,,,,,,,,,,1307.1506777911272,None,materials/speakPic.jpg,birth,B_aloud,87,22,1303.471390704217,None,1303.471390704217,None,1304.400476958952,None,1304.6664680374379,None,1304.6664680374379,None,,,,,,,,,,,,,,,,,,,,,,,,,,,,,,,,,,,sing34,001,2019_Nov_14_1328,ProdFawcett_Revision2019,3.2.4,59.969804073129986,
88,0,88,0,,,,,,,,,,,,,,,,,1311.4186984954285,None,materials/readPic.jpg,strength,A_silent,88,310,1307.7431360175833,None,1307.7431360175833,None,1308.668012182723,None,1308.934488119703,None,1308.934488119703,None,,,,,,,,,,,,,,,,,,,,,,,,,,,,,,,,,,,sing34,001,2019_Nov_14_1328,ProdFawcett_Revision2019,3.2.4,59.969804073129986,
89,0,89,0,,,,,,,,,,,,,,,,,1315.686731950991,None,materials/readPic.jpg,figure,A_silent,89,128,1312.0060904324928,None,1312.0060904324928,None,1312.9360443942423,None,1313.202783753397,None,1313.202783753397,None,,,,,,,,,,,,,,,,,,,,,,,,,,,,,,,,,,,sing34,001,2019_Nov_14_1328,ProdFawcett_Revision2019,3.2.4,59.969804073129986,
,,,,,,,,,,,,,,,,,,,,,,,,,,,,,,,,,,,,,1316.1869414135872,None,k,96.75047296253615,1316.1869414135872,None,,,,,,,,,,,,,,,,,,,,,,,,,,,,,sing34,001,2019_Nov_14_1328,ProdFawcett_Revision2019,3.2.4,59.969804073129986,
,,,,,,,,,,,,,,1412.9677741697524,None,space,1.4415869895019569,1412.9677741697524,None,,,,,,,,,,,,,,,,,,,,,,,,,,,,,,,,,,,,,,,,,,,,,,,,,,,,sing34,001,2019_Nov_14_1328,ProdFawcett_Revision2019,3.2.4,59.969804073129986,
,,,,0,0,0,0,,,,,,,,,,,,,1421.4881909428223,None,,,,,,,,,,,,,,,,,,,,,,harmony,C_sing,0,148,1414.9560865604435,None,1414.9560865604435,None,1414.9560865604435,None,6,3.325039940944407,1414.9560865604435,None,1418.3359683843446,None,1418.3359683843446,None,1418.8568457574584,None,1418.8568457574584,None,1418.8568457574584,None,r,2.59210367948981,1418.8568457574584,None,sing34,001,2019_Nov_14_1328,ProdFawcett_Revision2019,3.2.4,59.969804073129986,
,,,,1,0,1,0,,,,,,,,,,,,,1427.1555077158846,None,,,,,,,,,,,,,,,,,,,,,,incident,D_new,1,158,1422.0047493741731,None,1422.0047493741731,None,1422.0047493741731,None,6,3.316248420480406,1422.0047493741731,None,1425.3548753782816,None,1425.3548753782816,None,1425.8717743613233,None,1425.8717743613233,None,1425.8717743613233,None,f,1.2491448109794874,1425.8717743613233,None,sing34,001,2019_Nov_14_1328,ProdFawcett_Revision2019,3.2.4,59.969804073129986,
,,,,2,0,2,0,,,,,,,,,,,,,1431.5735720699013,None,,,,,,,,,,,,,,,,,,,,,,alert,C_sing,2,6,1427.6722396886616,None,1427.6722396886616,None,1427.6722396886616,None,6,2.064234578225296,1427.6722396886616,None,1429.789520711609,None,1429.789520711609,None,1430.3066902699356,None,1430.3066902699356,None,1430.3066902699356,None,r,1.2217632117681205,1430.3066902699356,None,sing34,001,2019_Nov_14_1328,ProdFawcett_Revision2019,3.2.4,59.969804073129986,
,,,,3,0,3,0,,,,,,,,,,,,,1434.5411702101992,None,,,,,,,,,,,,,,,,,,,,,,youth,C_sing,3,359,1432.0903335882467,None,1432.0903335882467,None,1432.0903335882467,None,6,1.3664681307564024,1432.0903335882467,None,1433.5075339672912,None,1433.5075339672912,None,1434.0242115139845,None,1434.0242115139845,None,1434.0242115139845,None,r,0.4727796574588865,1434.0242115139845,None,sing34,001,2019_Nov_14_1328,ProdFawcett_Revision2019,3.2.4,59.969804073129986,
,,,,4,0,4,0,,,,,,,,,,,,,1437.208709974686,None,,,,,,,,,,,,,,,,,,,,,,birth,B_aloud,4,22,1435.058069193241,None,1435.058069193241,None,1435.058069193241,None,6,1.014291663392214,1435.058069193241,None,1436.1255553402589,None,1436.1255553402589,None,1436.641875540954,None,1436.641875540954,None,1436.641875540954,None,r,0.5342947983299382,1436.641875540954,None,sing34,001,2019_Nov_14_1328,ProdFawcett_Revision2019,3.2.4,59.969804073129986,
,,,,5,0,5,0,,,,,,,,,,,,,1442.7436892974365,None,,,,,,,,,,,,,,,,,,,,,,generation,D_new,5,136,1437.7275132480718,None,1437.7275132480718,None,1437.7275132480718,None,1,3.2164767300419044,1437.7275132480718,None,1440.993341359368,None,1440.993341359368,None,1441.5099887384567,None,1441.5099887384567,None,1441.5099887384567,None,n,1.1858513372135349,1441.5099887384567,None,sing34,001,2019_Nov_14_1328,ProdFawcett_Revision2019,3.2.4,59.969804073129986,
,,,,6,0,6,0,,,,,,,,,,,,,1448.412219305319,None,,,,,,,,,,,,,,,,,,,,,,burden,D_new,6,36,1443.2609593107481,None,1443.2609593107481,None,1443.2609593107481,None,5,3.434696960321162,1443.2609593107481,None,1446.7450023652054,None,1446.7450023652054,None,1447.261900104204,None,1447.261900104204,None,1447.261900104204,None,f,1.1138556017249357,1447.261900104204,None,sing34,001,2019_Nov_14_1328,ProdFawcett_Revision2019,3.2.4,59.969804073129986,
,,,,7,0,7,0,,,,,,,,,,,,,1451.5131547805795,None,,,,,,,,,,,,,,,,,,,,,,evidence,C_sing,7,120,1448.9303162838623,None,1448.9303162838623,None,1448.9303162838623,None,6,1.4453066224523354,1448.9303162838623,None,1450.429426028888,None,1450.429426028888,None,1450.946308528626,None,1450.946308528626,None,1450.946308528626,None,r,0.5255455746955704,1450.946308528626,None,sing34,001,2019_Nov_14_1328,ProdFawcett_Revision2019,3.2.4,59.969804073129986,
,,,,8,0,8,0,,,,,,,,,,,,,1455.3809952257434,None,,,,,,,,,,,,,,,,,,,,,,finance,D_new,8,129,1452.0309127624787,None,1452.0309127624787,None,1452.0309127624787,None,1,1.9843526610347908,1452.0309127624787,None,1454.0647635995992,None,1454.0647635995992,None,1454.580927986215,None,1454.580927986215,None,1454.580927986215,None,n,0.7625350231828634,1454.580927986215,None,sing34,001,2019_Nov_14_1328,ProdFawcett_Revision2019,3.2.4,59.969804073129986,
,,,,9,0,9,0,,,,,,,,,,,,,1458.5821381109708,None,,,,,,,,,,,,,,,,,,,,,,touch,D_new,9,332,1455.898212368018,None,1455.898212368018,None,1455.898212368018,None,1,1.7737172475608531,1455.898212368018,None,1457.731850228156,None,1457.731850228156,None,1458.248724641715,None,1458.248724641715,None,1458.248724641715,None,n,0.29462976433569565,1458.248724641715,None,sing34,001,2019_Nov_14_1328,ProdFawcett_Revision2019,3.2.4,59.969804073129986,
,,,,10,0,10,0,,,,,,,,,,,,,1461.7330531997723,None,,,,,,,,,,,,,,,,,,,,,,region,D_new,10,256,1459.1000186292513,None,1459.1000186292513,None,1459.1000186292513,None,1,1.602945663180435,1459.1000186292513,None,1460.7544068786956,None,1460.7544068786956,None,1461.2830273706932,None,1461.2830273706932,None,1461.2830273706932,None,n,0.4119537061196752,1461.2830273706932,None,sing34,001,2019_Nov_14_1328,ProdFawcett_Revision2019,3.2.4,59.969804073129986,
,,,,11,0,11,0,,,,,,,,,,,,,1464.6505821567553,None,,,,,,,,,,,,,,,,,,,,,,audience,D_new,11,14,1462.2502802942472,None,1462.2502802942472,None,1462.2502802942472,None,6,1.5253362675721291,1462.2502802942472,None,1463.8235335829086,None,1463.8235335829086,None,1464.3506077525672,None,1464.3506077525672,None,1464.3506077525672,None,r,0.2643685596412979,1464.3506077525672,None,sing34,001,2019_Nov_14_1328,ProdFawcett_Revision2019,3.2.4,59.969804073129986,
,,,,12,0,12,0,,,,,,,,,,,,,1467.9184607312782,None,,,,,,,,,,,,,,,,,,,,,,hunger,D_new,12,155,1465.168104396027,None,1465.168104396027,None,1465.168104396027,None,1,1.766904347896343,1465.168104396027,None,1466.9848714191758,None,1466.9848714191758,None,1467.5015343485866,None,1467.5015343485866,None,1467.5015343485866,None,n,0.36918010396766476,1467.5015343485866,None,sing34,001,2019_Nov_14_1328,ProdFawcett_Revision2019,3.2.4,59.969804073129986,
,,,,13,0,13,0,,,,,,,,,,,,,1471.6196837005555,None,,,,,,,,,,,,,,,,,,,,,,chief,D_new,13,48,1468.43529937914,None,1468.43529937914,None,1468.43529937914,None,1,1.931366551463725,1468.43529937914,None,1470.4192200526595,None,1470.4192200526595,None,1470.9361059734656,None,1470.9361059734656,None,1470.9361059734656,None,n,0.6383403345826082,1470.9361059734656,None,sing34,001,2019_Nov_14_1328,ProdFawcett_Revision2019,3.2.4,59.969804073129986,
,,,,14,0,14,0,,,,,,,,,,,,,1474.5874724876194,None,,,,,,,,,,,,,,,,,,,,,,detective,B_aloud,14,92,1472.1377654398093,None,1472.1377654398093,None,1472.1377654398093,None,6,1.6051712228509132,1472.1377654398093,None,1473.8035937376844,None,1473.8035937376844,None,1474.3205533669388,None,1474.3205533669388,None,1474.3205533669388,None,r,0.2298832700762432,1474.3205533669388,None,sing34,001,2019_Nov_14_1328,ProdFawcett_Revision2019,3.2.4,59.969804073129986,
,,,,15,0,15,0,,,,,,,,,,,,,1477.4880848897155,None,,,,,,,,,,,,,,,,,,,,,,payment,B_aloud,15,215,1475.105148674891,None,1475.105148674891,None,1475.105148674891,None,6,1.2690327181480825,1475.105148674891,None,1476.4377112314396,None,1476.4377112314396,None,1476.9547016502765,None,1476.9547016502765,None,1476.9547016502765,None,r,0.49991929391399026,1476.9547016502765,None,sing34,001,2019_Nov_14_1328,ProdFawcett_Revision2019,3.2.4,59.969804073129986,
,,,,16,0,16,0,,,,,,,,,,,,,1480.4391518117045,None,,,,,,,,,,,,,,,,,,,,,,second,D_new,16,278,1478.0061321072862,None,1478.0061321072862,None,1478.0061321072862,None,1,1.1999448897258844,1478.0061321072862,None,1479.261344647326,None,1479.261344647326,None,1479.788948149362,None,1479.788948149362,None,1479.788948149362,None,n,0.6093035609228536,1479.788948149362,None,sing34,001,2019_Nov_14_1328,ProdFawcett_Revision2019,3.2.4,59.969804073129986,
,,,,17,0,17,0,,,,,,,,,,,,,1483.023328878684,None,,,,,,,,,,,,,,,,,,,,,,dance,A_silent,17,84,1480.9561929245538,None,1480.9561929245538,None,1480.9561929245538,None,6,1.1537194308184553,1480.9561929245538,None,1482.1729579572566,None,1482.1729579572566,None,1482.6898721795878,None,1482.6898721795878,None,1482.6898721795878,None,r,0.30028509930707514,1482.6898721795878,None,sing34,001,2019_Nov_14_1328,ProdFawcett_Revision2019,3.2.4,59.969804073129986,
,,,,18,0,18,0,,,,,,,,,,,,,1490.0921330695564,None,,,,,,,,,,,,,,,,,,,,,,machinery,A_silent,18,175,1483.5422291859868,None,1483.5422291859868,None,1483.5422291859868,None,2,4.295445222349372,1483.5422291859868,None,1487.89151174156,None,1487.89151174156,None,1488.4082091926539,None,1488.4082091926539,None,1488.4082091926539,None,f,1.6373193015460856,1488.4082091926539,None,sing34,001,2019_Nov_14_1328,ProdFawcett_Revision2019,3.2.4,59.969804073129986,
,,,,19,0,19,0,,,,,,,,,,,,,1493.1098103453696,None,,,,,,,,,,,,,,,,,,,,,,search,C_sing,19,276,1490.6103659577493,None,1490.6103659577493,None,1490.6103659577493,None,6,1.6510536420100834,1490.6103659577493,None,1492.3136854191835,None,1492.3136854191835,None,1492.843003186863,None,1492.843003186863,None,1492.843003186863,None,r,0.21844913077075034,1492.843003186863,None,sing34,001,2019_Nov_14_1328,ProdFawcett_Revision2019,3.2.4,59.969804073129986,
,,,,20,0,20,0,,,,,,,,,,,,,1496.410784323176,None,,,,,,,,,,,,,,,,,,,,,,election,D_new,20,109,1493.628088329453,None,1493.628088329453,None,1493.628088329453,None,1,1.9451801984687336,1493.628088329453,None,1495.6152608827979,None,1495.6152608827979,None,1496.143989604927,None,1496.143989604927,None,1496.143989604927,None,n,0.22924788459204137,1496.143989604927,None,sing34,001,2019_Nov_14_1328,ProdFawcett_Revision2019,3.2.4,59.969804073129986,
,,,,21,0,21,0,,,,,,,,,,,,,1499.7286216738285,None,,,,,,,,,,,,,,,,,,,,,,frank,D_new,21,133,1496.9274923484772,None,1496.9274923484772,None,1496.9274923484772,None,1,1.869761218840722,1496.9274923484772,None,1498.8510159480793,None,1498.8510159480793,None,1499.3784984687518,None,1499.3784984687518,None,1499.3784984687518,None,n,0.3073996748717036,1499.3784984687518,None,sing34,001,2019_Nov_14_1328,ProdFawcett_Revision2019,3.2.4,59.969804073129986,
,,,,22,0,22,0,,,,,,,,,,,,,1503.84659561835,None,,,,,,,,,,,,,,,,,,,,,,universal,D_new,22,345,1500.2473835833953,None,1500.2473835833953,None,1500.2473835833953,None,1,2.557890209252946,1500.2473835833953,None,1502.8629747546802,None,1502.8629747546802,None,1503.3796317749948,None,1503.3796317749948,None,1503.3796317749948,None,n,0.4256351755175274,1503.3796317749948,None,sing34,001,2019_Nov_14_1328,ProdFawcett_Revision2019,3.2.4,59.969804073129986,
,,,,23,0,23,0,,,,,,,,,,,,,1506.6140162363881,None,,,,,,,,,,,,,,,,,,,,,,review,A_silent,23,263,1504.363677472982,None,1504.363677472982,None,1504.363677472982,None,6,1.3935664033924695,1504.363677472982,None,1505.8138165082491,None,1505.8138165082491,None,1506.3309845115873,None,1506.3309845115873,None,1506.3309845115873,None,r,0.24223798749153502,1506.3309845115873,None,sing34,001,2019_Nov_14_1328,ProdFawcett_Revision2019,3.2.4,59.969804073129986,
,,,,24,0,24,0,,,,,,,,,,,,,1509.2315502627753,None,,,,,,,,,,,,,,,,,,,,,,author,B_aloud,24,15,1507.130863592407,None,1507.130863592407,None,1507.130863592407,None,6,1.0820256822626106,1507.130863592407,None,1508.264523440681,None,1508.264523440681,None,1508.7814258447906,None,1508.7814258447906,None,1508.7814258447906,None,r,0.4153125720040407,1508.7814258447906,None,sing34,001,2019_Nov_14_1328,ProdFawcett_Revision2019,3.2.4,59.969804073129986,
,,,,25,0,25,0,,,,,,,,,,,,,1512.1324534555897,None,,,,,,,,,,,,,,,,,,,,,,smell,D_new,25,291,1509.7486657060508,None,1509.7486657060508,None,1509.7486657060508,None,1,1.5839901522849686,1509.7486657060508,None,1511.3823474802775,None,1511.3823474802775,None,1511.8990259599814,None,1511.8990259599814,None,1511.8990259599814,None,n,0.19375244723050855,1511.8990259599814,None,sing34,001,2019_Nov_14_1328,ProdFawcett_Revision2019,3.2.4,59.969804073129986,
,,,,26,0,26,0,,,,,,,,,,,,,1515.6669995468692,None,,,,,,,,,,,,,,,,,,,,,,contract,D_new,26,68,1512.6499016754096,None,1512.6499016754096,None,1512.6499016754096,None,4,2.0426852764212526,1512.6499016754096,None,1514.7499924580916,None,1514.7499924580916,None,1515.2668522543681,None,1515.2668522543681,None,1515.2668522543681,None,f,0.36186368542257696,1515.2668522543681,None,sing34,001,2019_Nov_14_1328,ProdFawcett_Revision2019,3.2.4,59.969804073129986,
,,,,27,0,27,0,,,,,,,,,,,,,1519.1014697837236,None,,,,,,,,,,,,,,,,,,,,,,space,B_aloud,27,297,1516.1836519020435,None,1516.1836519020435,None,1516.1836519020435,None,6,2.0205201825592667,1516.1836519020435,None,1518.2678204163676,None,1518.2678204163676,None,1518.7846873657836,None,1518.7846873657836,None,1518.7846873657836,None,r,0.27572650247020647,1518.7846873657836,None,sing34,001,2019_Nov_14_1328,ProdFawcett_Revision2019,3.2.4,59.969804073129986,
,,,,28,0,28,0,,,,,,,,,,,,,1521.9023761177086,None,,,,,,,,,,,,,,,,,,,,,,surprise,B_aloud,28,317,1519.6232951034035,None,1519.6232951034035,None,1519.6232951034035,None,6,1.5248324376880191,1519.6232951034035,None,1521.2020317406568,None,1521.2020317406568,None,1521.7189705324708,None,1521.7189705324708,None,1521.7189705324708,None,r,0.1417855046747718,1521.7189705324708,None,sing34,001,2019_Nov_14_1328,ProdFawcett_Revision2019,3.2.4,59.969804073129986,
,,,,29,0,29,0,,,,,,,,,,,,,1525.3201220014598,None,,,,,,,,,,,,,,,,,,,,,,angle,C_sing,29,7,1522.4194620154158,None,1522.4194620154158,None,1522.4194620154158,None,6,2.1203935719968285,1522.4194620154158,None,1524.5909339855134,None,1524.5909339855134,None,1525.119926751824,None,1525.119926751824,None,1525.119926751824,None,r,0.16407282394357026,1525.119926751824,None,sing34,001,2019_Nov_14_1328,ProdFawcett_Revision2019,3.2.4,59.969804073129986,
,,,,30,0,30,0,,,,,,,,,,,,,1527.870886127901,None,,,,,,,,,,,,,,,,,,,,,,accident,B_aloud,30,0,1525.837497445842,None,1525.837497445842,None,1525.837497445842,None,6,1.2623093882284593,1525.837497445842,None,1527.1431601516379,None,1527.1431601516379,None,1527.6707058065804,None,1527.6707058065804,None,1527.6707058065804,None,r,0.16516943147871643,1527.6707058065804,None,sing34,001,2019_Nov_14_1328,ProdFawcett_Revision2019,3.2.4,59.969804073129986,
,,,,31,0,31,0,,,,,,,,,,,,,1530.1216699410288,None,,,,,,,,,,,,,,,,,,,,,,republic,C_sing,31,260,1528.3877885320107,None,1528.3877885320107,None,1528.3877885320107,None,6,0.8563158030447084,1528.3877885320107,None,1529.3046342086163,None,1529.3046342086163,None,1529.8215375457366,None,1529.8215375457366,None,1529.8215375457366,None,r,0.26210474624531344,1529.8215375457366,None,sing34,001,2019_Nov_14_1328,ProdFawcett_Revision2019,3.2.4,59.969804073129986,
,,,,32,0,32,0,,,,,,,,,,,,,1533.1891781694721,None,,,,,,,,,,,,,,,,,,,,,,public,D_new,32,244,1530.6384211961704,None,1530.6384211961704,None,1530.6384211961704,None,1,1.8691413836786523,1530.6384211961704,None,1532.5723802945286,None,1532.5723802945286,None,1533.0892671483161,None,1533.0892671483161,None,1533.0892671483161,None,n,0.059008431679103523,1533.0892671483161,None,sing34,001,2019_Nov_14_1328,ProdFawcett_Revision2019,3.2.4,59.969804073129986,
,,,,33,0,33,0,,,,,,,,,,,,,1537.7407661510806,None,,,,,,,,,,,,,,,,,,,,,,territory,D_new,33,324,1533.7059316016675,None,1533.7059316016675,None,1533.7059316016675,None,5,3.1534373482863884,1533.7059316016675,None,1536.9237136243319,None,1536.9237136243319,None,1537.4406661004177,None,1537.4406661004177,None,1537.4406661004177,None,f,0.2668538094148971,1537.4406661004177,None,sing34,001,2019_Nov_14_1328,ProdFawcett_Revision2019,3.2.4,59.969804073129986,
,,,,34,0,34,0,,,,,,,,,,,,,1540.5749495159253,None,,,,,,,,,,,,,,,,,,,,,,story,D_new,34,306,1538.257592047681,None,1538.257592047681,None,1538.257592047681,None,4,1.561966255219886,1538.257592047681,None,1539.862435781106,None,1539.862435781106,None,1540.3915118970617,None,1540.3915118970617,None,1540.3915118970617,None,f,0.14769617564161308,1540.3915118970617,None,sing34,001,2019_Nov_14_1328,ProdFawcett_Revision2019,3.2.4,59.969804073129986,
,,,,35,0,35,0,,,,,,,,,,,,,1543.6759453263658,None,,,,,,,,,,,,,,,,,,,,,,quiet,D_new,35,249,1541.1003641570278,None,1541.1003641570278,None,1541.1003641570278,None,5,1.7349801935779396,1541.1003641570278,None,1542.8820095721458,None,1542.8820095721458,None,1543.3945006656868,None,1543.3945006656868,None,1543.3945006656868,None,f,0.2324795490130782,1543.3945006656868,None,sing34,001,2019_Nov_14_1328,ProdFawcett_Revision2019,3.2.4,59.969804073129986,
,,,,36,0,36,0,,,,,,,,,,,,,1546.2433408150973,None,,,,,,,,,,,,,,,,,,,,,,literature,C_sing,36,173,1544.1927920603775,None,1544.1927920603775,None,1544.1927920603775,None,6,1.2908544612873811,1544.1927920603775,None,1545.5324035702215,None,1545.5324035702215,None,1546.0606536539563,None,1546.0606536539563,None,1546.0606536539563,None,r,0.1341969558270648,1546.0606536539563,None,sing34,001,2019_Nov_14_1328,ProdFawcett_Revision2019,3.2.4,59.969804073129986,
,,,,37,0,37,0,,,,,,,,,,,,,1550.4281241573626,None,,,,,,,,,,,,,,,,,,,,,,display,D_new,37,98,1546.7606117614196,None,1546.7606117614196,None,1546.7606117614196,None,2,2.23411450808635,1546.7606117614196,None,1549.0442113833851,None,1549.0442113833851,None,1549.5611660364957,None,1549.5611660364957,None,1549.5611660364957,None,n,0.8337970952852629,1549.5611660364957,None,sing34,001,2019_Nov_14_1328,ProdFawcett_Revision2019,3.2.4,59.969804073129986,
,,,,38,0,38,0,,,,,,,,,,,,,1556.7133369679505,None,,,,,,,,,,,,,,,,,,,,,,vision,D_new,38,347,1550.9456821623317,None,1550.9456821623317,None,1550.9456821623317,None,6,4.528864631807664,1550.9456821623317,None,1555.5184425063198,None,1555.5184425063198,None,1556.046534287947,None,1556.046534287947,None,1556.046534287947,None,r,0.6197452797787264,1556.046534287947,None,sing34,001,2019_Nov_14_1328,ProdFawcett_Revision2019,3.2.4,59.969804073129986,
,,,,39,0,39,0,,,,,,,,,,,,,1560.3811976907018,None,,,,,,,,,,,,,,,,,,,,,,appearance,D_new,39,10,1557.2314109320287,None,1557.2314109320287,None,1557.2314109320287,None,6,2.091589430870954,1557.2314109320287,None,1559.3808247943816,None,1559.3808247943816,None,1559.8976995189441,None,1559.8976995189441,None,1559.8976995189441,None,r,0.4412722513079643,1559.8976995189441,None,sing34,001,2019_Nov_14_1328,ProdFawcett_Revision2019,3.2.4,59.969804073129986,
,,,,40,0,40,0,,,,,,,,,,,,,1563.482281826873,None,,,,,,,,,,,,,,,,,,,,,,passage,B_aloud,40,212,1560.8988318921765,None,1560.8988318921765,None,1560.8988318921765,None,2,1.808007536281366,1560.8988318921765,None,1562.7538629290357,None,1562.7538629290357,None,1563.282069160894,None,1563.282069160894,None,1563.282069160894,None,f,0.1519563372421544,1563.282069160894,None,sing34,001,2019_Nov_14_1328,ProdFawcett_Revision2019,3.2.4,59.969804073129986,
,,,,41,0,41,0,,,,,,,,,,,,,1567.133450852154,None,,,,,,,,,,,,,,,,,,,,,,afternoon,B_aloud,41,3,1564.0007911995053,None,1564.0007911995053,None,1564.0007911995053,None,1,1.9772884684207384,1564.0007911995053,None,1566.0205114744022,None,1566.0205114744022,None,1566.5497900553164,None,1566.5497900553164,None,1566.5497900553164,None,n,0.5482455990277231,1566.5497900553164,None,sing34,001,2019_Nov_14_1328,ProdFawcett_Revision2019,3.2.4,59.969804073129986,
,,,,42,0,42,0,,,,,,,,,,,,,1569.6674629459449,None,,,,,,,,,,,,,,,,,,,,,,shape,D_new,42,282,1567.6502021072956,None,1567.6502021072956,None,1567.6502021072956,None,1,1.1839240324043203,1567.6502021072956,None,1568.8840177385428,None,1568.8840177385428,None,1569.4006962182466,None,1569.4006962182466,None,1569.4006962182466,None,n,0.22581313323462382,1569.4006962182466,None,sing34,001,2019_Nov_14_1328,ProdFawcett_Revision2019,3.2.4,59.969804073129986,
,,,,43,0,43,0,,,,,,,,,,,,,1572.3350474952895,None,,,,,,,,,,,,,,,,,,,,,,thick,D_new,43,327,1570.184195540729,None,1570.184195540729,None,1570.184195540729,None,1,1.297522743087029,1570.184195540729,None,1571.53469288614,None,1571.53469288614,None,1572.051681127923,None,1572.051681127923,None,1572.051681127923,None,n,0.2379380171187222,1572.051681127923,None,sing34,001,2019_Nov_14_1328,ProdFawcett_Revision2019,3.2.4,59.969804073129986,
,,,,44,0,44,0,,,,,,,,,,,,,1577.0865949839063,None,,,,,,,,,,,,,,,,,,,,,,under,B_aloud,44,343,1572.8519374591415,None,1572.8519374591415,None,1572.8519374591415,None,5,3.1815834004664794,1572.8519374591415,None,1576.0863026381703,None,1576.0863026381703,None,1576.6030713096552,None,1576.6030713096552,None,1576.6030713096552,None,f,0.43836527728126384,1576.6030713096552,None,sing34,001,2019_Nov_14_1328,ProdFawcett_Revision2019,3.2.4,59.969804073129986,
,,,,45,0,45,0,,,,,,,,,,,,,1580.8877529218153,None,,,,,,,,,,,,,,,,,,,,,,block,D_new,45,25,1577.603445760993,None,1577.603445760993,None,1577.603445760993,None,1,2.629743503930513,1577.603445760993,None,1580.287646122306,None,1580.287646122306,None,1580.804355702654,None,1580.804355702654,None,1580.804355702654,None,n,0.04506882719579153,1580.804355702654,None,sing34,001,2019_Nov_14_1328,ProdFawcett_Revision2019,3.2.4,59.969804073129986,
,,,,46,0,46,0,,,,,,,,,,,,,1584.3055367483175,None,,,,,,,,,,,,,,,,,,,,,,hearing,A_silent,46,150,1581.4048179821111,None,1581.4048179821111,None,1581.4048179821111,None,4,2.084254973975476,1581.4048179821111,None,1583.5255334454414,None,1583.5255334454414,None,1584.0387205706502,None,1584.0387205706502,None,1584.0387205706502,None,f,0.2266345003445167,1584.0387205706502,None,sing34,001,2019_Nov_14_1328,ProdFawcett_Revision2019,3.2.4,59.969804073129986,
,,,,47,0,47,0,,,,,,,,,,,,,1587.806691358477,None,,,,,,,,,,,,,,,,,,,,,,expansion,C_sing,47,123,1584.8228104937007,None,1584.8228104937007,None,1584.8228104937007,None,1,2.266506726591615,1584.8228104937007,None,1587.1397872904781,None,1587.1397872904781,None,1587.6565945267212,None,1587.6565945267212,None,1587.6565945267212,None,n,0.10414008211228065,1587.6565945267212,None,sing34,001,2019_Nov_14_1328,ProdFawcett_Revision2019,3.2.4,59.969804073129986,
,,,,48,0,48,0,,,,,,,,,,,,,1591.1411019132647,None,,,,,,,,,,,,,,,,,,,,,,motion,D_new,48,194,1588.3234506997687,None,1588.3234506997687,None,1588.3234506997687,None,6,1.501232672657352,1588.3234506997687,None,1589.890716809954,None,1589.890716809954,None,1590.4074270123092,None,1590.4074270123092,None,1590.4074270123092,None,n,0.6971705597825348,1590.4074270123092,None,sing34,001,2019_Nov_14_1328,ProdFawcett_Revision2019,3.2.4,59.969804073129986,
,,,,49,0,49,0,,,,,,,,,,,,,1594.3254038180748,None,,,,,,,,,,,,,,,,,,,,,,article,D_new,49,11,1591.6590194412856,None,1591.6590194412856,None,1591.6590194412856,None,4,1.8455727192922495,1591.6590194412856,None,1593.5584596614062,None,1593.5584596614062,None,1594.0753542903694,None,1594.0753542903694,None,1594.0753542903694,None,n,0.21322889332077466,1594.0753542903694,None,sing34,001,2019_Nov_14_1328,ProdFawcett_Revision2019,3.2.4,59.969804073129986,
,,,,50,0,50,0,,,,,,,,,,,,,1598.4600955845963,None,,,,,,,,,,,,,,,,,,,,,,volume,D_new,50,349,1594.842996966734,None,1594.842996966734,None,1594.842996966734,None,1,2.885384299355792,1594.842996966734,None,1597.7931538848788,None,1597.7931538848788,None,1598.3100379396346,None,1598.3100379396346,None,1598.3100379396346,None,n,0.11436378571670502,1598.3100379396346,None,sing34,001,2019_Nov_14_1328,ProdFawcett_Revision2019,3.2.4,59.969804073129986,
,,,,51,0,51,0,,,,,,,,,,,,,1601.2444968247728,None,,,,,,,,,,,,,,,,,,,,,,strength,A_silent,51,310,1598.9778787579853,None,1598.9778787579853,None,1598.9778787579853,None,6,1.3022553229529876,1598.9778787579853,None,1600.3440912417136,None,1600.3440912417136,None,1600.8607743865286,None,1600.8607743865286,None,1600.8607743865286,None,r,0.34014923937502317,1600.8607743865286,None,sing34,001,2019_Nov_14_1328,ProdFawcett_Revision2019,3.2.4,59.969804073129986,
,,,,52,0,52,0,,,,,,,,,,,,,1604.061886793148,None,,,,,,,,,,,,,,,,,,,,,,trend,D_new,52,340,1601.7612574101076,None,1601.7612574101076,None,1601.7612574101076,None,1,1.3110490204708185,1601.7612574101076,None,1603.128198892111,None,1603.128198892111,None,1603.6450866789382,None,1603.6450866789382,None,1603.6450866789382,None,n,0.37893481031642295,1603.6450866789382,None,sing34,001,2019_Nov_14_1328,ProdFawcett_Revision2019,3.2.4,59.969804073129986,
,,,,53,0,53,0,,,,,,,,,,,,,1606.3624477548583,None,,,,,,,,,,,,,,,,,,,,,,heavy,C_sing,53,151,1604.5786097467353,None,1604.5786097467353,None,1604.5786097467353,None,6,0.9581790094962344,1604.5786097467353,None,1605.5958049630863,None,1605.5958049630863,None,1606.1125117443735,None,1606.1125117443735,None,1606.1125117443735,None,r,0.2157834974641446,1606.1125117443735,None,sing34,001,2019_Nov_14_1328,ProdFawcett_Revision2019,3.2.4,59.969804073129986,
,,,,54,0,54,0,,,,,,,,,,,,,1608.5632407582016,None,,,,,,,,,,,,,,,,,,,,,,voice,D_new,54,348,1606.8794080060907,None,1606.8794080060907,None,1606.8794080060907,None,6,0.9766894706699532,1606.8794080060907,None,1607.9015280040621,None,1607.9015280040621,None,1608.4297979921976,None,1608.4297979921976,None,1608.4297979921976,None,r,0.09829689949401654,1608.4297979921976,None,sing34,001,2019_Nov_14_1328,ProdFawcett_Revision2019,3.2.4,59.969804073129986,
,,,,55,0,55,0,,,,,,,,,,,,,1610.8140339015226,None,,,,,,,,,,,,,,,,,,,,,,fight,D_new,55,127,1609.0802398852247,None,1609.0802398852247,None,1609.0802398852247,None,6,0.9114898405387066,1609.0802398852247,None,1610.0471326636907,None,1610.0471326636907,None,1610.5638201625843,None,1610.5638201625843,None,1610.5638201625843,None,r,0.20381007355172187,1610.5638201625843,None,sing34,001,2019_Nov_14_1328,ProdFawcett_Revision2019,3.2.4,59.969804073129986,
,,,,56,0,56,0,,,,,,,,,,,,,1615.8823398606037,None,,,,,,,,,,,,,,,,,,,,,,foundation,C_sing,56,132,1611.3330782046542,None,1611.3330782046542,None,1611.3330782046542,None,1,1.78653380900505,1611.3330782046542,None,1613.1813576100394,None,1613.1813576100394,None,1613.6983047990361,None,1613.6983047990361,None,1613.6983047990361,None,r,2.1493056322215125,1613.6983047990361,None,sing34,001,2019_Nov_14_1328,ProdFawcett_Revision2019,3.2.4,59.969804073129986,
,,,,57,0,57,0,,,,,,,,,,,,,1619.316715862631,None,,,,,,,,,,,,,,,,,,,,,,comedy,D_new,57,58,1616.3990908047417,None,1616.3990908047417,None,1616.3990908047417,None,1,1.976879184396239,1616.3990908047417,None,1618.4330784845515,None,1618.4330784845515,None,1618.9499311276886,None,1618.9499311276886,None,1618.9499311276886,None,n,0.32930507863056846,1618.9499311276886,None,sing34,001,2019_Nov_14_1328,ProdFawcett_Revision2019,3.2.4,59.969804073129986,
,,,,58,0,58,0,,,,,,,,,,,,,1621.9675835230155,None,,,,,,,,,,,,,,,,,,,,,,owner,D_new,58,208,1619.8334186008433,None,1619.8334186008433,None,1619.8334186008433,None,1,1.2780857947655022,1619.8334186008433,None,1621.1524138271925,None,1621.1524138271925,None,1621.6674666780164,None,1621.6674666780164,None,1621.6674666780164,None,n,0.26014385276357643,1621.6674666780164,None,sing34,001,2019_Nov_14_1328,ProdFawcett_Revision2019,3.2.4,59.969804073129986,
,,,,59,0,59,0,,,,,,,,,,,,,1624.2015947770851,None,,,,,,,,,,,,,,,,,,,,,,school,D_new,59,274,1622.4843568595825,None,1622.4843568595825,None,1622.4843568595825,None,1,0.8594942853960674,1622.4843568595825,None,1623.4012423449603,None,1623.4012423449603,None,1623.918151591206,None,1623.918151591206,None,1623.918151591206,None,n,0.24930093603325076,1623.918151591206,None,sing34,001,2019_Nov_14_1328,ProdFawcett_Revision2019,3.2.4,59.969804073129986,
,,,,60,0,60,0,,,,,,,,,,,,,1627.0857534013921,None,,,,,,,,,,,,,,,,,,,,,,history,A_silent,60,153,1624.7203461124736,None,1624.7203461124736,None,1624.7203461124736,None,6,1.598846602748381,1624.7203461124736,None,1626.3688681648055,None,1626.3688681648055,None,1626.8857012145745,None,1626.8857012145745,None,1626.8857012145745,None,r,0.16158322009141557,1626.8857012145745,None,sing34,001,2019_Nov_14_1328,ProdFawcett_Revision2019,3.2.4,59.969804073129986,
,,,,61,0,61,0,,,,,,,,,,,,,1629.0698242908693,None,,,,,,,,,,,,,,,,,,,,,,theme,C_sing,61,326,1627.6024729339115,None,1627.6024729339115,None,1627.6024729339115,None,6,0.6767215976142325,1627.6024729339115,None,1628.324979916768,None,1628.324979916768,None,1628.8530788515345,None,1628.8530788515345,None,1628.8530788515345,None,r,0.16965507244458422,1628.8530788515345,None,sing34,001,2019_Nov_14_1328,ProdFawcett_Revision2019,3.2.4,59.969804073129986,
,,,,62,0,62,0,,,,,,,,,,,,,1631.053831113095,None,,,,,,,,,,,,,,,,,,,,,,community,A_silent,62,63,1629.5866557855916,None,1629.5866557855916,None,1629.5866557855916,None,6,0.7087689103209414,1629.5866557855916,None,1630.341361230152,None,1630.341361230152,None,1630.8537450266012,None,1630.8537450266012,None,1630.8537450266012,None,r,0.15287069516489282,1630.8537450266012,None,sing34,001,2019_Nov_14_1328,ProdFawcett_Revision2019,3.2.4,59.969804073129986,
,,,,63,0,63,0,,,,,,,,,,,,,1633.637975835445,None,,,,,,,,,,,,,,,,,,,,,,phrase,D_new,63,220,1631.571303591394,None,1631.571303591394,None,1631.571303591394,None,2,1.219235665164888,1631.571303591394,None,1632.8543381152558,None,1632.8543381152558,None,1633.3712321221828,None,1633.3712321221828,None,1633.3712321221828,None,f,0.22772084464668296,1633.3712321221828,None,sing34,001,2019_Nov_14_1328,ProdFawcett_Revision2019,3.2.4,59.969804073129986,
,,,,64,0,64,0,,,,,,,,,,,,,1636.9889222736529,None,,,,,,,,,,,,,,,,,,,,,,pattern,D_new,64,214,1634.1554137920612,None,1634.1554137920612,None,1634.1554137920612,None,1,1.7869689065555576,1634.1554137920612,None,1636.005326601502,None,1636.005326601502,None,1636.5221220194944,None,1636.5221220194944,None,1636.5221220194944,None,n,0.42019941090256907,1636.5221220194944,None,sing34,001,2019_Nov_14_1328,ProdFawcett_Revision2019,3.2.4,59.969804073129986,
,,,,65,0,65,0,,,,,,,,,,,,,1640.4234907884675,None,,,,,,,,,,,,,,,,,,,,,,device,B_aloud,65,93,1637.506417766388,None,1637.506417766388,None,1637.506417766388,None,1,1.9406877153669484,1637.506417766388,None,1639.5065272405627,None,1639.5065272405627,None,1640.0232032322092,None,1640.0232032322092,None,1640.0232032322092,None,n,0.359233195806155,1640.0232032322092,None,sing34,001,2019_Nov_14_1328,ProdFawcett_Revision2019,3.2.4,59.969804073129986,
,,,,66,0,66,0,,,,,,,,,,,,,1642.9907963964215,None,,,,,,,,,,,,,,,,,,,,,,drink,C_sing,66,105,1640.940414962999,None,1640.940414962999,None,1640.940414962999,None,6,1.1858000212232582,1640.940414962999,None,1642.1805303338042,None,1642.1805303338042,None,1642.7075503884116,None,1642.7075503884116,None,1642.7075503884116,None,r,0.2428494254418183,1642.7075503884116,None,sing34,001,2019_Nov_14_1328,ProdFawcett_Revision2019,3.2.4,59.969804073129986,
,,,,67,0,67,0,,,,,,,,,,,,,1645.5416472935758,None,,,,,,,,,,,,,,,,,,,,,,straight,A_silent,67,307,1643.4920315571653,None,1643.4920315571653,None,1643.4920315571653,None,1,1.2908270927437115,1643.4920315571653,None,1644.8299533708487,None,1644.8299533708487,None,1645.358219315909,None,1645.358219315909,None,1645.358219315909,None,n,0.13571155551471747,1645.358219315909,None,sing34,001,2019_Nov_14_1328,ProdFawcett_Revision2019,3.2.4,59.969804073129986,
,,,,68,0,68,0,,,,,,,,,,,,,1648.2760378195671,None,,,,,,,,,,,,,,,,,,,,,,right,D_new,68,265,1646.0587957035168,None,1646.0587957035168,None,1646.0587957035168,None,1,1.4274847288324963,1646.0587957035168,None,1647.542406770459,None,1647.542406770459,None,1648.0591151067638,None,1648.0591151067638,None,1648.0591151067638,None,n,0.1706303876126185,1648.0591151067638,None,sing34,001,2019_Nov_14_1328,ProdFawcett_Revision2019,3.2.4,59.969804073129986,
,,,,69,0,69,0,,,,,,,,,,,,,1650.476650128403,None,,,,,,,,,,,,,,,,,,,,,,quarter,D_new,69,246,1648.7957734892843,None,1648.7957734892843,None,1648.7957734892843,None,1,0.8421472980699036,1648.7957734892843,None,1649.692973532452,None,1649.692973532452,None,1650.2119298208563,None,1650.2119298208563,None,1650.2119298208563,None,n,0.21775683117448352,1650.2119298208563,None,sing34,001,2019_Nov_14_1328,ProdFawcett_Revision2019,3.2.4,59.969804073129986,
,,,,70,0,70,0,,,,,,,,,,,,,1652.727376094379,None,,,,,,,,,,,,,,,,,,,,,,household,A_silent,70,154,1650.9952521808445,None,1650.9952521808445,None,1650.9952521808445,None,1,0.930643773288466,1650.9952521808445,None,1651.9661532059545,None,1651.9661532059545,None,1652.4937274734257,None,1652.4937274734257,None,1652.4937274734257,None,n,0.20035044167889282,1652.4937274734257,None,sing34,001,2019_Nov_14_1328,ProdFawcett_Revision2019,3.2.4,59.969804073129986,
,,,,71,0,71,0,,,,,,,,,,,,,1656.1117886551656,None,,,,,,,,,,,,,,,,,,,,,,front,D_new,71,134,1653.2440682583547,None,1653.2440682583547,None,1653.2440682583547,None,3,2.1373704620637,1653.2440682583547,None,1655.444857218652,None,1655.444857218652,None,1655.9617303881678,None,1655.9617303881678,None,1655.9617303881678,None,f,0.10835950190084986,1655.9617303881678,None,sing34,001,2019_Nov_14_1328,ProdFawcett_Revision2019,3.2.4,59.969804073129986,
,,,,72,0,72,0,,,,,,,,,,,,,1659.3003864872735,None,,,,,,,,,,,,,,,,,,,,,,style,B_aloud,72,311,1656.628663379728,None,1656.628663379728,None,1656.628663379728,None,6,1.9366032722173259,1656.628663379728,None,1658.6293211576412,None,1658.6293211576412,None,1659.1460724127828,None,1659.1460724127828,None,1659.1460724127828,None,r,0.12406593206105754,1659.1460724127828,None,sing34,001,2019_Nov_14_1328,ProdFawcett_Revision2019,3.2.4,59.969804073129986,
,,,,73,0,73,0,,,,,,,,,,,,,1662.0303199848277,None,,,,,,,,,,,,,,,,,,,,,,debate,D_new,73,87,1659.8296202833008,None,1659.8296202833008,None,1659.8296202833008,None,2,1.5439664660661947,1659.8296202833008,None,1661.4185414373642,None,1661.4185414373642,None,1661.9468406600645,None,1661.9468406600645,None,1661.9468406600645,None,f,0.04265915194991976,1661.9468406600645,None,sing34,001,2019_Nov_14_1328,ProdFawcett_Revision2019,3.2.4,59.969804073129986,
,,,,74,0,74,0,,,,,,,,,,,,,1664.4811084008543,None,,,,,,,,,,,,,,,,,,,,,,answer,C_sing,74,8,1662.5481283497356,None,1662.5481283497356,None,1662.5481283497356,None,6,1.152901484776521,1662.5481283497356,None,1663.7530838587554,None,1663.7530838587554,None,1664.281137386628,None,1664.281137386628,None,1664.281137386628,None,r,0.16405198656138964,1664.281137386628,None,sing34,001,2019_Nov_14_1328,ProdFawcett_Revision2019,3.2.4,59.969804073129986,
,,,,75,0,75,0,,,,,,,,,,,,,1667.332180952042,None,,,,,,,,,,,,,,,,,,,,,,judge,A_silent,75,166,1665.0013898862526,None,1665.0013898862526,None,1665.0013898862526,None,2,1.6361754211247899,1665.0013898862526,None,1666.6984593690722,None,1666.6984593690722,None,1667.2173674515216,None,1667.2173674515216,None,1667.2173674515216,None,f,0.07592591957654804,1667.2173674515216,None,sing34,001,2019_Nov_14_1328,ProdFawcett_Revision2019,3.2.4,59.969804073129986,
,,,,76,0,76,0,,,,,,,,,,,,,1669.8660300786432,None,,,,,,,,,,,,,,,,,,,,,,emergency,B_aloud,76,110,1667.8491925192939,None,1667.8491925192939,None,1667.8491925192939,None,6,1.2035143067478202,1667.8491925192939,None,1669.1007526036701,None,1669.1007526036701,None,1669.6161344989378,None,1669.6161344989378,None,1669.6161344989378,None,r,0.2045860337675549,1669.6161344989378,None,sing34,001,2019_Nov_14_1328,ProdFawcett_Revision2019,3.2.4,59.969804073129986,
,,,,77,0,77,0,,,,,,,,,,,,,1673.3839833723614,None,,,,,,,,,,,,,,,,,,,,,,produce,D_new,77,239,1670.3828074582852,None,1670.3828074582852,None,1670.3828074582852,None,6,2.1101692464144435,1670.3828074582852,None,1672.5504378810292,None,1672.5504378810292,None,1673.0671602126095,None,1673.0671602126095,None,1673.0671602126095,None,r,0.27398891138727777,1673.0671602126095,None,sing34,001,2019_Nov_14_1328,ProdFawcett_Revision2019,3.2.4,59.969804073129986,
,,,,78,0,78,0,,,,,,,,,,,,,1676.4563153054332,None,,,,,,,,,,,,,,,,,,,,,,brilliant,B_aloud,78,30,1673.9007551539107,None,1673.9007551539107,None,1673.9007551539107,None,1,1.9198188949085306,1673.9007551539107,None,1675.8740487489558,None,1675.8740487489558,None,1676.4057796129782,None,1676.4057796129782,None,1676.4057796129782,None,n,0.014737024146597832,1676.4057796129782,None,sing34,001,2019_Nov_14_1328,ProdFawcett_Revision2019,3.2.4,59.969804073129986,
,,,,79,0,79,0,,,,,,,,,,,,,1679.8193374885595,None,,,,,,,,,,,,,,,,,,,,,,plane,D_new,79,223,1676.985116180993,None,1676.985116180993,None,1676.985116180993,None,6,1.763294189091539,1676.985116180993,None,1678.8023674406286,None,1678.8023674406286,None,1679.3190309920465,None,1679.3190309920465,None,1679.3190309920465,None,r,0.4616944669978693,1679.3190309920465,None,sing34,001,2019_Nov_14_1328,ProdFawcett_Revision2019,3.2.4,59.969804073129986,
,,,,80,0,80,0,,,,,,,,,,,,,1683.0368980749045,None,,,,,,,,,,,,,,,,,,,,,,height,D_new,80,152,1680.3359550111054,None,1680.3359550111054,None,1680.3359550111054,None,1,1.7962490176141728,1680.3359550111054,None,1682.1744629157765,None,1682.1744629157765,None,1682.7034839836415,None,1682.7034839836415,None,1682.7034839836415,None,n,0.3007615606475156,1682.7034839836415,None,sing34,001,2019_Nov_14_1328,ProdFawcett_Revision2019,3.2.4,59.969804073129986,
,,,,81,0,81,0,,,,,,,,,,,,,1685.7878683361923,None,,,,,,,,,,,,,,,,,,,,,,revolution,D_new,81,264,1683.5555900081235,None,1683.5555900081235,None,1683.5555900081235,None,6,1.152391123760026,1683.5555900081235,None,1684.7583423499018,None,1684.7583423499018,None,1685.2876140886801,None,1685.2876140886801,None,1685.2876140886801,None,r,0.45235339872306213,1685.2876140886801,None,sing34,001,2019_Nov_14_1328,ProdFawcett_Revision2019,3.2.4,59.969804073129986,
,,,,82,0,82,0,,,,,,,,,,,,,1688.171877211047,None,,,,,,,,,,,,,,,,,,,,,,write,D_new,82,358,1686.3046031080012,None,1686.3046031080012,None,1686.3046031080012,None,6,1.0599501581455115,1686.3046031080012,None,1687.4217556854128,None,1687.4217556854128,None,1687.9386151706858,None,1687.9386151706858,None,1687.9386151706858,None,r,0.19365074823144823,1687.9386151706858,None,sing34,001,2019_Nov_14_1328,ProdFawcett_Revision2019,3.2.4,59.969804073129986,
,,,,83,0,83,0,,,,,,,,,,,,,1690.5728887894948,None,,,,,,,,,,,,,,,,,,,,,,resistance,D_new,83,262,1688.690706297959,None,1688.690706297959,None,1688.690706297959,None,1,1.1291938006470446,1688.690706297959,None,1689.872536326293,None,1689.872536326293,None,1690.389253992762,None,1690.389253992762,None,1690.389253992762,None,n,0.15047625917941332,1690.389253992762,None,sing34,001,2019_Nov_14_1328,ProdFawcett_Revision2019,3.2.4,59.969804073129986,
,,,,84,0,84,0,,,,,,,,,,,,,1693.6070671160414,None,,,,,,,,,,,,,,,,,,,,,,subject,D_new,84,312,1691.0951087759167,None,1691.0951087759167,None,1691.0951087759167,None,5,0.7889506374194752,1691.0951087759167,None,1691.93990709004,None,1691.93990709004,None,1692.4592823036364,None,1692.4592823036364,None,1692.4592823036364,None,f,1.1126006921113003,1692.4592823036364,None,sing34,001,2019_Nov_14_1328,ProdFawcett_Revision2019,3.2.4,59.969804073129986,
,,,,85,0,85,0,,,,,,,,,,,,,1696.608159369469,None,,,,,,,,,,,,,,,,,,,,,,pretty,A_silent,85,233,1694.124718422856,None,1694.124718422856,None,1694.124718422856,None,1,1.7348660543211736,1694.124718422856,None,1695.9120757759956,None,1695.9120757759956,None,1696.4412081840564,None,1696.4412081840564,None,1696.4412081840564,None,n,0.1303778008732479,1696.4412081840564,None,sing34,001,2019_Nov_14_1328,ProdFawcett_Revision2019,3.2.4,59.969804073129986,
,,,,86,0,86,0,,,,,,,,,,,,,1699.242177963286,None,,,,,,,,,,,,,,,,,,,,,,break,B_aloud,86,26,1697.1249877541268,None,1697.1249877541268,None,1697.1249877541268,None,6,1.342740231222706,1697.1249877541268,None,1698.525265047152,None,1698.525265047152,None,1699.0421397717437,None,1699.0421397717437,None,1699.0421397717437,None,r,0.1615934833243955,1699.0421397717437,None,sing34,001,2019_Nov_14_1328,ProdFawcett_Revision2019,3.2.4,59.969804073129986,
,,,,87,0,87,0,,,,,,,,,,,,,1702.0430597277882,None,,,,,,,,,,,,,,,,,,,,,,enemy,A_silent,87,113,1699.7591033818317,None,1699.7591033818317,None,1699.7591033818317,None,6,1.4841637247882318,1699.7591033818317,None,1701.2813653541089,None,1701.2813653541089,None,1701.8096611557412,None,1701.8096611557412,None,1701.8096611557412,None,r,0.1855014553584624,1701.8096611557412,None,sing34,001,2019_Nov_14_1328,ProdFawcett_Revision2019,3.2.4,59.969804073129986,
,,,,88,0,88,0,,,,,,,,,,,,,1706.1777822838922,None,,,,,,,,,,,,,,,,,,,,,,weather,B_aloud,88,352,1702.5599770601839,None,1702.5599770601839,None,1702.5599770601839,None,1,2.2597084442095365,1702.5599770601839,None,1704.8669845563709,None,1704.8669845563709,None,1705.3941535828926,None,1705.3941535828926,None,1705.3941535828926,None,f,0.7367790528805926,1705.3941535828926,None,sing34,001,2019_Nov_14_1328,ProdFawcett_Revision2019,3.2.4,59.969804073129986,
,,,,89,0,89,0,,,,,,,,,,,,,1710.895914654946,None,,,,,,,,,,,,,,,,,,,,,,spoke,D_new,89,300,1706.6948090904625,None,1706.6948090904625,None,1706.6948090904625,None,4,3.244389838684583,1706.6948090904625,None,1709.9824393514718,None,1709.9824393514718,None,1710.5123579829524,None,1710.5123579829524,None,1710.5123579829524,None,f,0.3390383255900815,1710.5123579829524,None,sing34,001,2019_Nov_14_1328,ProdFawcett_Revision2019,3.2.4,59.969804073129986,
,,,,90,0,90,0,,,,,,,,,,,,,1713.8800782242324,None,,,,,,,,,,,,,,,,,,,,,,title,D_new,90,331,1711.412594378693,None,1711.412594378693,None,1711.412594378693,None,2,1.6061655093508307,1711.412594378693,None,1713.0693590257433,None,1713.0693590257433,None,1713.5967833882896,None,1713.5967833882896,None,1713.5967833882896,None,n,0.23790691647445783,1713.5967833882896,None,sing34,001,2019_Nov_14_1328,ProdFawcett_Revision2019,3.2.4,59.969804073129986,
,,,,91,0,91,0,,,,,,,,,,,,,1718.7982917056652,None,,,,,,,,,,,,,,,,,,,,,,throw,C_sing,91,330,1714.3971271122282,None,1714.3971271122282,None,1714.3971271122282,None,6,3.589226251031505,1714.3971271122282,None,1718.0480386244599,None,1718.0480386244599,None,1718.5650610769226,None,1718.5650610769226,None,1718.5650610769226,None,r,0.19000482370029204,1718.5650610769226,None,sing34,001,2019_Nov_14_1328,ProdFawcett_Revision2019,3.2.4,59.969804073129986,
,,,,92,0,92,0,,,,,,,,,,,,,1722.2161377333978,None,,,,,,,,,,,,,,,,,,,,,,place,D_new,92,222,1719.3152737273485,None,1719.3152737273485,None,1719.3152737273485,None,1,2.2395754642493557,1719.3152737273485,None,1721.615892847185,None,1721.615892847185,None,1722.133060228487,None,1722.133060228487,None,1722.133060228487,None,n,0.037210014037555084,1722.133060228487,None,sing34,001,2019_Nov_14_1328,ProdFawcett_Revision2019,3.2.4,59.969804073129986,
,,,,93,0,93,0,,,,,,,,,,,,,1724.5501424252288,None,,,,,,,,,,,,,,,,,,,,,,shock,C_sing,93,284,1722.7331331283203,None,1722.7331331283203,None,1722.7331331283203,None,6,1.0689472536905669,1722.7331331283203,None,1723.866722689214,None,1723.866722689214,None,1724.3835607150686,None,1724.3835607150686,None,1724.3835607150686,None,r,0.12338856075075455,1724.3835607150686,None,sing34,001,2019_Nov_14_1328,ProdFawcett_Revision2019,3.2.4,59.969804073129986,
,,,,94,0,94,0,,,,,,,,,,,,,1726.9842251485097,None,,,,,,,,,,,,,,,,,,,,,,government,D_new,94,139,1725.0675862909702,None,1725.0675862909702,None,1725.0675862909702,None,6,1.1343879135674797,1725.0675862909702,None,1726.2674487640616,None,1726.2674487640616,None,1726.7843017182022,None,1726.7843017182022,None,1726.7843017182022,None,r,0.1619657576084137,1726.7843017182022,None,sing34,001,2019_Nov_14_1328,ProdFawcett_Revision2019,3.2.4,59.969804073129986,
,,,,95,0,95,0,,,,,,,,,,,,,1730.5688550403574,None,,,,,,,,,,,,,,,,,,,,,,mechanical,D_new,95,185,1727.5031111495337,None,1727.5031111495337,None,1727.5031111495337,None,1,2.059148073400138,1727.5031111495337,None,1729.618564389617,None,1729.618564389617,None,1730.135217055824,None,1730.135217055824,None,1730.135217055824,None,n,0.38657312019495293,1730.135217055824,None,sing34,001,2019_Nov_14_1328,ProdFawcett_Revision2019,3.2.4,59.969804073129986,
,,,,96,0,96,0,,,,,,,,,,,,,1732.9194898504647,None,,,,,,,,,,,,,,,,,,,,,,engineer,B_aloud,96,114,1731.0880598226504,None,1731.0880598226504,None,1731.0880598226504,None,6,1.122517121664714,1731.0880598226504,None,1732.2693586525274,None,1732.2693586525274,None,1732.7862641667016,None,1732.7862641667016,None,1732.7862641667016,None,r,0.08736161395790987,1732.7862641667016,None,sing34,001,2019_Nov_14_1328,ProdFawcett_Revision2019,3.2.4,59.969804073129986,
,,,,97,0,97,0,,,,,,,,,,,,,1735.253701983369,None,,,,,,,,,,,,,,,,,,,,,,partner,C_sing,97,211,1733.436444192601,None,1733.436444192601,None,1733.436444192601,None,6,1.021134730632184,1733.436444192601,None,1734.520087728597,None,1734.520087728597,None,1735.0369674292451,None,1735.0369674292451,None,1735.0369674292451,None,r,0.17339056674973108,1735.0369674292451,None,sing34,001,2019_Nov_14_1328,ProdFawcett_Revision2019,3.2.4,59.969804073129986,
,,,,98,0,98,0,,,,,,,,,,,,,1737.9377539947745,None,,,,,,,,,,,,,,,,,,,,,,principal,D_new,98,236,1735.7719566420128,None,1735.7719566420128,None,1735.7719566420128,None,6,0.5336130729701836,1735.7719566420128,None,1736.3707142970234,None,1736.3707142970234,None,1736.8873778484704,None,1736.8873778484704,None,1736.8873778484704,None,n,1.0021649134869222,1736.8873778484704,None,sing34,001,2019_Nov_14_1328,ProdFawcett_Revision2019,3.2.4,59.969804073129986,
,,,,99,0,99,0,,,,,,,,,,,,,1740.3885259274684,None,,,,,,,,,,,,,,,,,,,,,,society,B_aloud,99,293,1738.4561084863963,None,1738.4561084863963,None,1738.4561084863963,None,6,1.1773832630715333,1738.4561084863963,None,1739.677774975251,None,1739.677774975251,None,1740.2052528308413,None,1740.2052528308413,None,1740.2052528308413,None,r,0.14084129018010572,1740.2052528308413,None,sing34,001,2019_Nov_14_1328,ProdFawcett_Revision2019,3.2.4,59.969804073129986,
,,,,100,0,100,0,,,,,,,,,,,,,1742.6893789239111,None,,,,,,,,,,,,,,,,,,,,,,account,C_sing,100,1,1740.9054034510918,None,1740.9054034510918,None,1740.9054034510918,None,1,1.0877967114793137,1740.9054034510918,None,1742.0557777002978,None,1742.0557777002978,None,1742.5726841474825,None,1742.5726841474825,None,1742.5726841474825,None,n,0.06848820866434835,1742.5726841474825,None,sing34,001,2019_Nov_14_1328,ProdFawcett_Revision2019,3.2.4,59.969804073129986,
,,,,101,0,101,0,,,,,,,,,,,,,1746.340449671261,None,,,,,,,,,,,,,,,,,,,,,,welcome,C_sing,101,354,1743.2071403268783,None,1743.2071403268783,None,1743.2071403268783,None,6,1.9067302031617146,1743.2071403268783,None,1745.173430997529,None,1745.173430997529,None,1745.690335267689,None,1745.690335267689,None,1745.690335267689,None,r,0.6149063358607236,1745.690335267689,None,sing34,001,2019_Nov_14_1328,ProdFawcett_Revision2019,3.2.4,59.969804073129986,
,,,,102,0,102,0,,,,,,,,,,,,,1749.8584063860762,None,,,,,,,,,,,,,,,,,,,,,,surface,B_aloud,102,316,1746.8573321709991,None,1746.8573321709991,None,1746.8573321709991,None,1,1.495633940823609,1746.8573321709991,None,1748.4078229230654,None,1748.4078229230654,None,1748.9247567387938,None,1748.9247567387938,None,1748.9247567387938,None,r,0.900412736198632,1748.9247567387938,None,sing34,001,2019_Nov_14_1328,ProdFawcett_Revision2019,3.2.4,59.969804073129986,
,,,,103,0,103,0,,,,,,,,,,,,,1752.7257772120065,None,,,,,,,,,,,,,,,,,,,,,,stand,D_new,103,302,1750.3753016370465,None,1750.3753016370465,None,1750.3753016370465,None,1,1.5938751702487934,1750.3753016370465,None,1752.0133157262462,None,1752.0133157262462,None,1752.542537704052,None,1752.542537704052,None,1752.542537704052,None,n,0.14627705482416786,1752.542537704052,None,sing34,001,2019_Nov_14_1328,ProdFawcett_Revision2019,3.2.4,59.969804073129986,
,,,,104,0,104,0,,,,,,,,,,,,,1755.2431766038644,None,,,,,,,,,,,,,,,,,,,,,,entrance,B_aloud,104,115,1753.248184113123,None,1753.248184113123,None,1753.248184113123,None,6,1.192527705221437,1753.248184113123,None,1754.4635629916447,None,1754.4635629916447,None,1754.993308081699,None,1754.993308081699,None,1754.993308081699,None,r,0.2080767662555445,1754.993308081699,None,sing34,001,2019_Nov_14_1328,ProdFawcett_Revision2019,3.2.4,59.969804073129986,
,,,,105,0,105,0,,,,,,,,,,,,,1757.8274541257997,None,,,,,,,,,,,,,,,,,,,,,,guide,D_new,105,147,1755.7602712097578,None,1755.7602712097578,None,1755.7602712097578,None,5,1.2803524072514847,1755.7602712097578,None,1757.0811564202013,None,1757.0811564202013,None,1757.6106968682434,None,1757.6106968682434,None,1757.6106968682434,None,r,0.18188756445306353,1757.6106968682434,None,sing34,001,2019_Nov_14_1328,ProdFawcett_Revision2019,3.2.4,59.969804073129986,
,,,,106,0,106,0,,,,,,,,,,,,,1762.278994243592,None,,,,,,,,,,,,,,,,,,,,,,column,D_new,106,57,1758.3444352144725,None,1758.3444352144725,None,1758.3444352144725,None,1,2.2321215810079593,1758.3444352144725,None,1760.6179405113799,None,1760.6179405113799,None,1761.145303294703,None,1761.145303294703,None,1761.145303294703,None,n,1.0868848415848333,1761.145303294703,None,sing34,001,2019_Nov_14_1328,ProdFawcett_Revision2019,3.2.4,59.969804073129986,
,,,,107,0,107,0,,,,,,,,,,,,,1766.980439893232,None,,,,,,,,,,,,,,,,,,,,,,number,B_aloud,107,203,1762.7956571730028,None,1762.7956571730028,None,1762.7956571730028,None,6,3.4446109018172137,1762.7956571730028,None,1766.2842981416325,None,1766.2842981416325,None,1766.796917058702,None,1766.796917058702,None,1766.796917058702,None,r,0.14703093358548358,1766.796917058702,None,sing34,001,2019_Nov_14_1328,ProdFawcett_Revision2019,3.2.4,59.969804073129986,
,,,,108,0,108,0,,,,,,,,,,,,,1769.0811691714625,None,,,,,,,,,,,,,,,,,,,,,,corner,A_silent,108,69,1767.497423469933,None,1767.497423469933,None,1767.497423469933,None,6,0.8864684666332323,1767.497423469933,None,1768.4475850531599,None,1768.4475850531599,None,1768.9644131268142,None,1768.9644131268142,None,1768.9644131268142,None,r,0.07584008190315217,1768.9644131268142,None,sing34,001,2019_Nov_14_1328,ProdFawcett_Revision2019,3.2.4,59.969804073129986,
,,,,109,0,109,0,,,,,,,,,,,,,1771.0483325252135,None,,,,,,,,,,,,,,,,,,,,,,management,C_sing,109,177,1769.6004457961244,None,1769.6004457961244,None,1769.6004457961244,None,6,0.7673493976180907,1769.6004457961244,None,1770.43145720975,None,1770.43145720975,None,1770.94851542791,None,1770.94851542791,None,1770.94851542791,None,r,0.051326269953278825,1770.94851542791,None,sing34,001,2019_Nov_14_1328,ProdFawcett_Revision2019,3.2.4,59.969804073129986,
,,,,110,0,110,0,,,,,,,,,,,,,1773.4325168075447,None,,,,,,,,,,,,,,,,,,,,,,present,D_new,110,231,1771.5653400493902,None,1771.5653400493902,None,1771.5653400493902,None,1,1.186374138458632,1771.5653400493902,None,1772.8033754114003,None,1772.8033754114003,None,1773.3323930581973,None,1773.3323930581973,None,1773.3323930581973,None,n,0.059753913315944374,1773.3323930581973,None,sing34,001,2019_Nov_14_1328,ProdFawcett_Revision2019,3.2.4,59.969804073129986,
,,,,111,0,111,0,,,,,,,,,,,,,1778.9174742199248,None,,,,,,,,,,,,,,,,,,,,,,salary,A_silent,111,271,1773.9505176852108,None,1773.9505176852108,None,1773.9505176852108,None,1,4.249454884062288,1773.9505176852108,None,1778.250666252803,None,1778.250666252803,None,1778.767453273671,None,1778.767453273671,None,1778.767453273671,None,n,0.11202315377886407,1778.767453273671,None,sing34,001,2019_Nov_14_1328,ProdFawcett_Revision2019,3.2.4,59.969804073129986,
,,,,112,0,112,0,,,,,,,,,,,,,1782.1019561972644,None,,,,,,,,,,,,,,,,,,,,,,crime,A_silent,112,78,1779.4348409561499,None,1779.4348409561499,None,1779.4348409561499,None,5,1.6685337399831042,1779.4348409561499,None,1781.1682770044135,None,1781.1682770044135,None,1781.6851846956415,None,1781.6851846956415,None,1781.6851846956415,None,f,0.37001422230969183,1781.6851846956415,None,sing34,001,2019_Nov_14_1328,ProdFawcett_Revision2019,3.2.4,59.969804073129986,
,,,,113,0,113,0,,,,,,,,,,,,,1785.5363549027243,None,,,,,,,,,,,,,,,,,,,,,,solution,B_aloud,113,294,1782.6205377233273,None,1782.6205377233273,None,1782.6205377233273,None,5,1.7554170265211724,1782.6205377233273,None,1784.4359923007141,None,1784.4359923007141,None,1784.9528530300013,None,1784.9528530300013,None,1784.9528530300013,None,r,0.5505171875993256,1784.9528530300013,None,sing34,001,2019_Nov_14_1328,ProdFawcett_Revision2019,3.2.4,59.969804073129986,
,,,,114,0,114,0,,,,,,,,,,,,,1789.4542670192604,None,,,,,,,,,,,,,,,,,,,,,,waste,C_sing,114,350,1786.0533779772231,None,1786.0533779772231,None,1786.0533779772231,None,6,2.713653261162108,1786.0533779772231,None,1788.8207360829983,None,1788.8207360829983,None,1789.3375843720569,None,1789.3375843720569,None,1789.3375843720569,None,r,0.07771264965413138,1789.3375843720569,None,sing34,001,2019_Nov_14_1328,ProdFawcett_Revision2019,3.2.4,59.969804073129986,
,,,,115,0,115,0,,,,,,,,,,,,,1792.2384866318607,None,,,,,,,,,,,,,,,,,,,,,,music,D_new,115,196,1789.971622559242,None,1789.971622559242,None,1789.971622559242,None,1,1.4834773343463894,1789.971622559242,None,1791.5049280471867,None,1791.5049280471867,None,1792.021647579706,None,1792.021647579706,None,1792.021647579706,None,n,0.17748993818531744,1792.021647579706,None,sing34,001,2019_Nov_14_1328,ProdFawcett_Revision2019,3.2.4,59.969804073129986,
,,,,116,0,116,0,,,,,,,,,,,,,1794.889420847525,None,,,,,,,,,,,,,,,,,,,,,,primary,A_silent,116,234,1792.7555376968812,None,1792.7555376968812,None,1792.7555376968812,None,4,1.443546638940461,1792.7555376968812,None,1794.2457728828012,None,1794.2457728828012,None,1794.7726763101236,None,1794.7726763101236,None,1794.7726763101236,None,f,0.07461813892587088,1794.7726763101236,None,sing34,001,2019_Nov_14_1328,ProdFawcett_Revision2019,3.2.4,59.969804073129986,
,,,,117,0,117,0,,,,,,,,,,,,,1797.4234724390844,None,,,,,,,,,,,,,,,,,,,,,,period,C_sing,117,217,1795.406217198557,None,1795.406217198557,None,1795.406217198557,None,3,1.2963891258405056,1795.406217198557,None,1796.756650165713,None,1796.756650165713,None,1797.27337125325,None,1797.27337125325,None,1797.27337125325,None,f,0.10113109811209142,1797.27337125325,None,sing34,001,2019_Nov_14_1328,ProdFawcett_Revision2019,3.2.4,59.969804073129986,
,,,,118,0,118,0,,,,,,,,,,,,,1800.107707011106,None,,,,,,,,,,,,,,,,,,,,,,running,D_new,118,268,1797.9405328342982,None,1797.9405328342982,None,1797.9405328342982,None,5,1.1859875578957144,1797.9405328342982,None,1799.1907080084784,None,1799.1907080084784,None,1799.707544790319,None,1799.707544790319,None,1799.707544790319,None,f,0.362933235388482,1799.707544790319,None,sing34,001,2019_Nov_14_1328,ProdFawcett_Revision2019,3.2.4,59.969804073129986,
,,,,119,0,119,0,,,,,,,,,,,,,1802.4583104095946,None,,,,,,,,,,,,,,,,,,,,,,direction,A_silent,119,94,1800.6251542978862,None,1800.6251542978862,None,1800.6251542978862,None,6,1.2059896042919718,1800.6251542978862,None,1801.880168727017,None,1801.880168727017,None,1802.4086396250932,None,1802.4086396250932,None,1802.4086396250932,None,r,0.005697320768376812,1802.4086396250932,None,sing34,001,2019_Nov_14_1328,ProdFawcett_Revision2019,3.2.4,59.969804073129986,
,,,,120,0,120,0,,,,,,,,,,,,,1805.2593259066925,None,,,,,,,,,,,,,,,,,,,,,,beginning,D_new,120,19,1802.9750918323116,None,1802.9750918323116,None,1802.9750918323116,None,1,1.1434496983420104,1802.9750918323116,None,1804.1756267005985,None,1804.1756267005985,None,1804.692373912665,None,1804.692373912665,None,1804.692373912665,None,n,0.5217114914557897,1804.692373912665,None,sing34,001,2019_Nov_14_1328,ProdFawcett_Revision2019,3.2.4,59.969804073129986,
,,,,121,0,121,0,,,,,,,,,,,,,1807.893388974393,None,,,,,,,,,,,,,,,,,,,,,,center,D_new,121,44,1805.7760911571095,None,1805.7760911571095,None,1805.7760911571095,None,3,1.310386266472051,1805.7760911571095,None,1807.1431461563625,None,1807.1431461563625,None,1807.6600924123486,None,1807.6600924123486,None,1807.6600924123486,None,f,0.1858731076354161,1807.6600924123486,None,sing34,001,2019_Nov_14_1328,ProdFawcett_Revision2019,3.2.4,59.969804073129986,
,,,,122,0,122,0,,,,,,,,,,,,,1810.01090947201,None,,,,,,,,,,,,,,,,,,,,,,smooth,B_aloud,122,292,1808.411404780345,None,1808.411404780345,None,1808.411404780345,None,1,0.923341039015213,1808.411404780345,None,1809.3940098980675,None,1809.3940098980675,None,1809.910771416413,None,1809.910771416413,None,1809.910771416413,None,n,0.05584270055987872,1809.910771416413,None,sing34,001,2019_Nov_14_1328,ProdFawcett_Revision2019,3.2.4,59.969804073129986,
,,,,123,0,123,0,,,,,,,,,,,,,1813.8120698979765,None,,,,,,,,,,,,,,,,,,,,,,sweet,C_sing,123,319,1810.5275307266274,None,1810.5275307266274,None,1810.5275307266274,None,5,2.4541970428836066,1810.5275307266274,None,1813.0451375595585,None,1813.0451375595585,None,1813.5618518049596,None,1813.5618518049596,None,1813.5618518049596,None,r,0.20383557604509406,1813.5618518049596,None,sing34,001,2019_Nov_14_1328,ProdFawcett_Revision2019,3.2.4,59.969804073129986,
,,,,124,0,124,0,,,,,,,,,,,,,1817.4131974195188,None,,,,,,,,,,,,,,,,,,,,,,level,D_new,124,170,1814.3288410575187,None,1814.3288410575187,None,1814.3288410575187,None,1,2.3734048108162824,1814.3288410575187,None,1816.7466964154155,None,1816.7466964154155,None,1817.263164966018,None,1817.263164966018,None,1817.263164966018,None,n,0.1024631372129079,1817.263164966018,None,sing34,001,2019_Nov_14_1328,ProdFawcett_Revision2019,3.2.4,59.969804073129986,
,,,,125,0,125,0,,,,,,,,,,,,,1820.3808148422104,None,,,,,,,,,,,,,,,,,,,,,,ground,D_new,125,142,1817.9299349903886,None,1817.9299349903886,None,1817.9299349903886,None,5,1.4034669716202188,1817.9299349903886,None,1819.3861019459146,None,1819.3861019459146,None,1819.9139654490864,None,1819.9139654490864,None,1819.9139654490864,None,r,0.419354718294926,1819.9139654490864,None,sing34,001,2019_Nov_14_1328,ProdFawcett_Revision2019,3.2.4,59.969804073129986,
,,,,126,0,126,0,,,,,,,,,,,,,1823.2650602372014,None,,,,,,,,,,,,,,,,,,,,,,industry,D_new,126,161,1820.8986745230795,None,1820.8986745230795,None,1820.8986745230795,None,1,1.7074284740374424,1820.8986745230795,None,1822.6648119299498,None,1822.6648119299498,None,1823.1816959846765,None,1823.1816959846765,None,1823.1816959846765,None,n,0.04036050583817996,1823.1816959846765,None,sing34,001,2019_Nov_14_1328,ProdFawcett_Revision2019,3.2.4,59.969804073129986,
,,,,127,0,127,0,,,,,,,,,,,,,1825.7490927174513,None,,,,,,,,,,,,,,,,,,,,,,military,A_silent,127,190,1823.782629438385,None,1823.782629438385,None,1823.782629438385,None,6,1.142885844281409,1823.782629438385,None,1824.970845977019,None,1824.970845977019,None,1825.4989816105226,None,1825.4989816105226,None,1825.4989816105226,None,r,0.20224726790911518,1825.4989816105226,None,sing34,001,2019_Nov_14_1328,ProdFawcett_Revision2019,3.2.4,59.969804073129986,
,,,,128,0,128,0,,,,,,,,,,,,,1828.5500740038988,None,,,,,,,,,,,,,,,,,,,,,,opening,D_new,128,205,1826.267548908043,None,1826.267548908043,None,1826.267548908043,None,1,1.5694288466474973,1826.267548908043,None,1827.899736919935,None,1827.899736919935,None,1828.416734180908,None,1828.416734180908,None,1828.416734180908,None,n,0.08427612239029258,1828.416734180908,None,sing34,001,2019_Nov_14_1328,ProdFawcett_Revision2019,3.2.4,59.969804073129986,
,,,,129,0,129,0,,,,,,,,,,,,,1831.4675706162525,None,,,,,,,,,,,,,,,,,,,,,,express,D_new,129,124,1829.067720645602,None,1829.067720645602,None,1829.067720645602,None,4,1.6011440048459917,1829.067720645602,None,1830.722980023129,None,1830.722980023129,None,1831.2509554884746,None,1831.2509554884746,None,1831.2509554884746,None,f,0.16986126953270286,1831.2509554884746,None,sing34,001,2019_Nov_14_1328,ProdFawcett_Revision2019,3.2.4,59.969804073129986,
,,,,130,0,130,0,,,,,,,,,,,,,1834.101826818718,None,,,,,,,,,,,,,,,,,,,,,,piece,B_aloud,130,221,1831.9863797987637,None,1831.9863797987637,None,1831.9863797987637,None,6,1.3465587641112506,1831.9863797987637,None,1833.3709264032077,None,1833.3709264032077,None,1833.901688794227,None,1833.901688794227,None,1833.901688794227,None,r,0.16734180907951668,1833.901688794227,None,sing34,001,2019_Nov_14_1328,ProdFawcett_Revision2019,3.2.4,59.969804073129986,
,,,,131,0,131,0,,,,,,,,,,,,,1836.285893602937,None,,,,,,,,,,,,,,,,,,,,,,dispute,C_sing,131,99,1834.6198077920126,None,1834.6198077920126,None,1834.6198077920126,None,1,0.912849559186725,1834.6198077920126,None,1835.5855871686363,None,1835.5855871686363,None,1836.1024307925836,None,1836.1024307925836,None,1836.1024307925836,None,n,0.14243799549876712,1836.1024307925836,None,sing34,001,2019_Nov_14_1328,ProdFawcett_Revision2019,3.2.4,59.969804073129986,
,,,,132,0,132,0,,,,,,,,,,,,,1839.1534485445009,None,,,,,,,,,,,,,,,,,,,,,,session,C_sing,132,281,1836.8036864175228,None,1836.8036864175228,None,1836.8036864175228,None,4,1.3849341180175543,1836.8036864175228,None,1838.2412415239087,None,1838.2412415239087,None,1838.753283524653,None,1838.753283524653,None,1838.753283524653,None,f,0.363292758440366,1838.753283524653,None,sing34,001,2019_Nov_14_1328,ProdFawcett_Revision2019,3.2.4,59.969804073129986,
,,,,133,0,133,0,,,,,,,,,,,,,1842.0042663817003,None,,,,,,,,,,,,,,,,,,,,,,problem,D_new,133,238,1839.6702032207104,None,1839.6702032207104,None,1839.6702032207104,None,6,1.3425526945502497,1839.6702032207104,None,1841.070592164935,None,1841.070592164935,None,1841.5875626793713,None,1841.5875626793713,None,1841.5875626793713,None,r,0.36886101169511676,1841.5875626793713,None,sing34,001,2019_Nov_14_1328,ProdFawcett_Revision2019,3.2.4,59.969804073129986,
,,,,134,0,134,0,,,,,,,,,,,,,1844.521702472266,None,,,,,,,,,,,,,,,,,,,,,,population,D_new,134,227,1842.5232012106862,None,1842.5232012106862,None,1842.5232012106862,None,1,1.161123242083704,1842.5232012106862,None,1843.7381095369637,None,1843.7381095369637,None,1844.2548704333021,None,1844.2548704333021,None,1844.2548704333021,None,n,0.22131256395368837,1844.2548704333021,None,sing34,001,2019_Nov_14_1328,ProdFawcett_Revision2019,3.2.4,59.969804073129986,
,,,,135,0,135,0,,,,,,,,,,,,,1848.3562469152093,None,,,,,,,,,,,,,,,,,,,,,,thing,D_new,135,328,1845.038648106216,None,1845.038648106216,None,1845.038648106216,None,1,2.437376899877563,1845.038648106216,None,1847.527629315562,None,1847.527629315562,None,1848.0561984915403,None,1848.0561984915403,None,1848.0561984915403,None,n,0.26022626939811744,1848.0561984915403,None,sing34,001,2019_Nov_14_1328,ProdFawcett_Revision2019,3.2.4,59.969804073129986,
,,,,136,0,136,0,,,,,,,,,,,,,1851.7407997397531,None,,,,,,,,,,,,,,,,,,,,,,defeat,D_new,136,88,1848.8730833860172,None,1848.8730833860172,None,1848.8730833860172,None,5,1.9707899959466886,1848.8730833860172,None,1850.9071805399726,None,1850.9071805399726,None,1851.423919043853,None,1851.423919043853,None,1851.423919043853,None,f,0.27617404027841985,1851.423919043853,None,sing34,001,2019_Nov_14_1328,ProdFawcett_Revision2019,3.2.4,59.969804073129986,
,,,,137,0,137,0,,,,,,,,,,,,,1854.4583119646122,None,,,,,,,,,,,,,,,,,,,,,,collection,D_new,137,54,1852.2601398096594,None,1852.2601398096594,None,1852.2601398096594,None,1,1.4404742096667178,1852.2601398096594,None,1853.7579744296963,None,1853.7579744296963,None,1854.2748136995651,None,1854.2748136995651,None,1854.2748136995651,None,n,0.14538384528714232,1854.2748136995651,None,sing34,001,2019_Nov_14_1328,ProdFawcett_Revision2019,3.2.4,59.969804073129986,
,,,,138,0,138,0,,,,,,,,,,,,,1857.1591676356911,None,,,,,,,,,,,,,,,,,,,,,,count,A_silent,138,72,1854.9751089376514,None,1854.9751089376514,None,1854.9751089376514,None,6,1.4928687856008764,1854.9751089376514,None,1856.52553779952,None,1856.52553779952,None,1857.0424980507523,None,1857.0424980507523,None,1857.0424980507523,None,r,0.07389909282210283,1857.0424980507523,None,sing34,001,2019_Nov_14_1328,ProdFawcett_Revision2019,3.2.4,59.969804073129986,
,,,,139,0,139,0,,,,,,,,,,,,,1860.3267321251624,None,,,,,,,,,,,,,,,,,,,,,,sight,A_silent,139,286,1857.6769613832876,None,1857.6769613832876,None,1857.6769613832876,None,6,1.9428983467223588,1857.6769613832876,None,1859.6765716926602,None,1859.6765716926602,None,1860.193493690138,None,1860.193493690138,None,1860.193493690138,None,r,0.09814139641821384,1860.193493690138,None,sing34,001,2019_Nov_14_1328,ProdFawcett_Revision2019,3.2.4,59.969804073129986,
,,,,140,0,140,0,,,,,,,,,,,,,1863.0110494247638,None,,,,,,,,,,,,,,,,,,,,,,bright,A_silent,140,29,1860.844674222666,None,1860.844674222666,None,1860.844674222666,None,1,1.3590972861275077,1860.844674222666,None,1862.2607468935894,None,1862.2607468935894,None,1862.7776343694131,None,1862.7776343694131,None,1862.7776343694131,None,n,0.18564203011919744,1862.7776343694131,None,sing34,001,2019_Nov_14_1328,ProdFawcett_Revision2019,3.2.4,59.969804073129986,
,,,,141,0,141,0,,,,,,,,,,,,,1865.3451614137157,None,,,,,,,,,,,,,,,,,,,,,,cousin,D_new,141,76,1863.5278557279962,None,1863.5278557279962,None,1863.5278557279962,None,1,1.0438042763853446,1863.5278557279962,None,1864.6282108658634,None,1864.6282108658634,None,1865.1450812363473,None,1865.1450812363473,None,1865.1450812363473,None,n,0.15406869066646323,1865.1450812363473,None,sing34,001,2019_Nov_14_1328,ProdFawcett_Revision2019,3.2.4,59.969804073129986,
,,,,142,0,142,0,,,,,,,,,,,,,1868.0958890902402,None,,,,,,,,,,,,,,,,,,,,,,discussion,D_new,142,96,1865.8639727732807,None,1865.8639727732807,None,1865.8639727732807,None,6,1.41906641566311,1865.8639727732807,None,1867.3456748847966,None,1867.3456748847966,None,1867.8624653267034,None,1867.8624653267034,None,1867.8624653267034,None,r,0.18891257027280517,1867.8624653267034,None,sing34,001,2019_Nov_14_1328,ProdFawcett_Revision2019,3.2.4,59.969804073129986,
,,,,143,0,143,0,,,,,,,,,,,,,1870.9969278817298,None,,,,,,,,,,,,,,,,,,,,,,health,D_new,143,149,1868.612738623313,None,1868.612738623313,None,1868.612738623313,None,1,1.4946477405028418,1868.612738623313,None,1870.163322366221,None,1870.163322366221,None,1870.6800409657008,None,1870.6800409657008,None,1870.6800409657008,None,n,0.283380362612661,1870.6800409657008,None,sing34,001,2019_Nov_14_1328,ProdFawcett_Revision2019,3.2.4,59.969804073129986,
,,,,144,0,144,0,,,,,,,,,,,,,1874.5980911689403,None,,,,,,,,,,,,,,,,,,,,,,trash,D_new,144,337,1871.5139982291148,None,1871.5139982291148,None,1871.5139982291148,None,6,1.3612513143743854,1871.5139982291148,None,1872.9308322430006,None,1872.9308322430006,None,1873.4477296709956,None,1873.4477296709956,None,1873.4477296709956,None,n,1.1152227845450398,1873.4477296709956,None,sing34,001,2019_Nov_14_1328,ProdFawcett_Revision2019,3.2.4,59.969804073129986,
,,,,145,0,145,0,,,,,,,,,,,,,1877.0654325737269,None,,,,,,,,,,,,,,,,,,,,,,murder,D_new,145,195,1875.1160544148588,None,1875.1160544148588,None,1875.1160544148588,None,1,1.1749860280542634,1875.1160544148588,None,1876.3484985091782,None,1876.3484985091782,None,1876.8654637365253,None,1876.8654637365253,None,1876.8654637365253,None,n,0.15310737080289982,1876.8654637365253,None,sing34,001,2019_Nov_14_1328,ProdFawcett_Revision2019,3.2.4,59.969804073129986,
,,,,146,0,146,0,,,,,,,,,,,,,1879.6830225812155,None,,,,,,,,,,,,,,,,,,,,,,quantity,D_new,146,245,1877.584546231199,None,1877.584546231199,None,1877.584546231199,None,5,1.426405537640676,1877.584546231199,None,1879.0567645226547,None,1879.0567645226547,None,1879.5862042047374,None,1879.5862042047374,None,1879.5862042047374,None,f,0.06432912405580282,1879.5862042047374,None,sing34,001,2019_Nov_14_1328,ProdFawcett_Revision2019,3.2.4,59.969804073129986,
,,,,147,0,147,0,,,,,,,,,,,,,1882.6172301734332,None,,,,,,,,,,,,,,,,,,,,,,quick,D_new,147,248,1880.2036601685977,None,1880.2036601685977,None,1880.2036601685977,None,5,1.7587550550233573,1880.2036601685977,None,1882.0171190198453,None,1882.0171190198453,None,1882.536003154848,None,1882.536003154848,None,1882.536003154848,None,f,0.042625252273865044,1882.536003154848,None,sing34,001,2019_Nov_14_1328,ProdFawcett_Revision2019,3.2.4,59.969804073129986,
,,,,148,0,148,0,,,,,,,,,,,,,1885.4849026752927,None,,,,,,,,,,,,,,,,,,,,,,month,A_silent,148,193,1883.135285477154,None,1883.135285477154,None,1883.135285477154,None,4,0.9398215633409563,1883.135285477154,None,1884.123021573556,None,1884.123021573556,None,1884.651252374897,None,1884.651252374897,None,1884.651252374897,None,n,0.7918081615061965,1884.651252374897,None,sing34,001,2019_Nov_14_1328,ProdFawcett_Revision2019,3.2.4,59.969804073129986,
,,,,149,0,149,0,,,,,,,,,,,,,1888.8858225069416,None,,,,,,,,,,,,,,,,,,,,,,balance,C_sing,149,17,1886.001975510735,None,1886.001975510735,None,1886.001975510735,None,6,2.064218094892567,1886.001975510735,None,1888.119005862769,None,1888.119005862769,None,1888.6359064008284,None,1888.6359064008284,None,1888.6359064008284,None,r,0.21421229460975155,1888.6359064008284,None,sing34,001,2019_Nov_14_1328,ProdFawcett_Revision2019,3.2.4,59.969804073129986,
,,,,150,0,150,0,,,,,,,,,,,,,1891.0198524524749,None,,,,,,,,,,,,,,,,,,,,,,watch,A_silent,150,351,1889.4027323751943,None,1889.4027323751943,None,1889.4027323751943,None,1,0.9193365244427696,1889.4027323751943,None,1890.3863404876029,None,1890.3863404876029,None,1890.903309136018,None,1890.903309136018,None,1890.903309136018,None,n,0.07555302328546531,1890.903309136018,None,sing34,001,2019_Nov_14_1328,ProdFawcett_Revision2019,3.2.4,59.969804073129986,
