StudyTrials.thisRepN,StudyTrials.thisTrialN,StudyTrials.thisN,StudyTrials.thisIndex,TestTrials.thisRepN,TestTrials.thisTrialN,TestTrials.thisN,TestTrials.thisIndex,textWelcome.started,textWelcome.stopped,keyWelcome.keys,keyWelcome.rt,keyWelcome.started,keyWelcome.stopped,textReady.started,textReady.stopped,keyReady.keys,keyReady.rt,keyReady.started,keyReady.stopped,polyback_2.started,polyback_2.stopped,studyPic,studyWord,studyType,studyN,studyOrder,polyback_3.started,polyback_3.stopped,studyPicChoice.started,studyPicChoice.stopped,polyback_4.started,polyback_4.stopped,polyback.started,polyback.stopped,studyWords.started,studyWords.stopped,getResearcher.started,getResearcher.stopped,kPress2.keys,kPress2.rt,kPress2.started,kPress2.stopped,testWord,testType,testN,testOrder,polyback_5.started,polyback_5.stopped,testWords.started,testWords.stopped,textScale.started,textScale.stopped,keyConf.keys,keyConf.rt,keyConf.started,keyConf.stopped,polyback_6.started,polyback_6.stopped,studyWords_2.started,studyWords_2.stopped,polyback_7.started,polyback_7.stopped,testWords_2.started,testWords_2.stopped,textScale_2.started,textScale_2.stopped,keyRKN.keys,keyRKN.rt,keyRKN.started,keyRKN.stopped,participant,session,date,expName,psychopyVersion,frameRate,
,,,,,,,,13.727850399998715,None,space,273.4297876000055,13.727850399998715,None,,,,,,,,,,,,,,,,,,,,,,,,,,,,,,,,,,,,,,,,,,,,,,,,,,,,,,,,,,sing37,001,2019_Nov_14_1628,ProdFawcett_Revision2019,3.2.3,60.046680295190555,
,,,,,,,,,,,,,,287.184070599993,None,space,3.7252578000188805,287.184070599993,None,,,,,,,,,,,,,,,,,,,,,,,,,,,,,,,,,,,,,,,,,,,,,,,,,,,,sing37,001,2019_Nov_14_1628,ProdFawcett_Revision2019,3.2.3,60.046680295190555,
0,0,0,0,,,,,,,,,,,,,,,,,295.71563009999227,None,materials/readPic.jpg,comfort,A_silent,0,59,292.0544296000153,None,292.0544296000153,None,292.96718330000294,None,293.2237074000004,None,293.2237074000004,None,,,,,,,,,,,,,,,,,,,,,,,,,,,,,,,,,,,sing37,001,2019_Nov_14_1628,ProdFawcett_Revision2019,3.2.3,60.046680295190555,
1,0,1,0,,,,,,,,,,,,,,,,,299.9826495000161,None,materials/readPic.jpg,design,A_silent,1,91,296.3025250000064,None,296.3025250000064,None,297.2335752999934,None,297.4961985000118,None,297.4961985000118,None,,,,,,,,,,,,,,,,,,,,,,,,,,,,,,,,,,,sing37,001,2019_Nov_14_1628,ProdFawcett_Revision2019,3.2.3,60.046680295190555,
2,0,2,0,,,,,,,,,,,,,,,,,304.2497829000058,None,materials/readPic.jpg,addition,A_silent,2,2,300.5513499999943,None,300.5513499999943,None,301.500366399996,None,301.7582084000169,None,301.7582084000169,None,,,,,,,,,,,,,,,,,,,,,,,,,,,,,,,,,,,sing37,001,2019_Nov_14_1628,ProdFawcett_Revision2019,3.2.3,60.046680295190555,
3,0,3,0,,,,,,,,,,,,,,,,,308.5169082999928,None,materials/singPic.jpg,tennis,C_sing,3,323,304.88857760000974,None,304.88857760000974,None,305.7667870000005,None,306.02378670001053,None,306.02378670001053,None,,,,,,,,,,,,,,,,,,,,,,,,,,,,,,,,,,,sing37,001,2019_Nov_14_1628,ProdFawcett_Revision2019,3.2.3,60.046680295190555,
4,0,4,0,,,,,,,,,,,,,,,,,312.7834787000029,None,materials/speakPic.jpg,tough,B_aloud,4,333,309.0940908000048,None,309.0940908000048,None,310.0344165000133,None,310.2960899999889,None,310.2960899999889,None,,,,,,,,,,,,,,,,,,,,,,,,,,,,,,,,,,,sing37,001,2019_Nov_14_1628,ProdFawcett_Revision2019,3.2.3,60.046680295190555,
5,0,5,0,,,,,,,,,,,,,,,,,317.0504160000128,None,materials/singPic.jpg,beauty,C_sing,5,18,313.403670300002,None,313.403670300002,None,314.29955039999913,None,314.56144140000106,None,314.56144140000106,None,,,,,,,,,,,,,,,,,,,,,,,,,,,,,,,,,,,sing37,001,2019_Nov_14_1628,ProdFawcett_Revision2019,3.2.3,60.046680295190555,
6,0,6,0,,,,,,,,,,,,,,,,,321.3172996999929,None,materials/singPic.jpg,narrow,C_sing,6,197,317.62579520000145,None,317.62579520000145,None,318.5675772000104,None,318.8296893000079,None,318.8296893000079,None,,,,,,,,,,,,,,,,,,,,,,,,,,,,,,,,,,,sing37,001,2019_Nov_14_1628,ProdFawcett_Revision2019,3.2.3,60.046680295190555,
7,0,7,0,,,,,,,,,,,,,,,,,325.5846215999918,None,materials/singPic.jpg,write,C_sing,7,358,321.9064180999994,None,321.9064180999994,None,322.8345360000094,None,323.0963260999997,None,323.0963260999997,None,,,,,,,,,,,,,,,,,,,,,,,,,,,,,,,,,,,sing37,001,2019_Nov_14_1628,ProdFawcett_Revision2019,3.2.3,60.046680295190555,
8,0,8,0,,,,,,,,,,,,,,,,,329.8513207999931,None,materials/speakPic.jpg,corner,B_aloud,8,69,326.13835379999364,None,326.13835379999364,None,327.1042515000154,None,327.3584833999921,None,327.3584833999921,None,,,,,,,,,,,,,,,,,,,,,,,,,,,,,,,,,,,sing37,001,2019_Nov_14_1628,ProdFawcett_Revision2019,3.2.3,60.046680295190555,
9,0,9,0,,,,,,,,,,,,,,,,,334.11813899999834,None,materials/readPic.jpg,machinery,A_silent,9,175,330.4171576999943,None,330.4171576999943,None,331.368901800015,None,331.6268490999937,None,331.6268490999937,None,,,,,,,,,,,,,,,,,,,,,,,,,,,,,,,,,,,sing37,001,2019_Nov_14_1628,ProdFawcett_Revision2019,3.2.3,60.046680295190555,
10,0,10,0,,,,,,,,,,,,,,,,,338.38453470001696,None,materials/speakPic.jpg,position,B_aloud,10,229,334.68546959999367,None,334.68546959999367,None,335.63582759999554,None,335.89203980000457,None,335.89203980000457,None,,,,,,,,,,,,,,,,,,,,,,,,,,,,,,,,,,,sing37,001,2019_Nov_14_1628,ProdFawcett_Revision2019,3.2.3,60.046680295190555,
11,0,11,0,,,,,,,,,,,,,,,,,342.65112500000396,None,materials/singPic.jpg,track,C_sing,11,334,338.96500480000395,None,338.96500480000395,None,339.902934200014,None,340.1585430999985,None,340.1585430999985,None,,,,,,,,,,,,,,,,,,,,,,,,,,,,,,,,,,,sing37,001,2019_Nov_14_1628,ProdFawcett_Revision2019,3.2.3,60.046680295190555,
12,0,12,0,,,,,,,,,,,,,,,,,346.92022550001275,None,materials/readPic.jpg,entrance,A_silent,12,115,343.2376207000052,None,343.2376207000052,None,344.16913940000813,None,344.42968239999027,None,344.42968239999027,None,,,,,,,,,,,,,,,,,,,,,,,,,,,,,,,,,,,sing37,001,2019_Nov_14_1628,ProdFawcett_Revision2019,3.2.3,60.046680295190555,
13,0,13,0,,,,,,,,,,,,,,,,,351.1864792999986,None,materials/speakPic.jpg,period,B_aloud,13,217,347.4982413999969,None,347.4982413999969,None,348.43605489999754,None,348.6922512000019,None,348.6922512000019,None,,,,,,,,,,,,,,,,,,,,,,,,,,,,,,,,,,,sing37,001,2019_Nov_14_1628,ProdFawcett_Revision2019,3.2.3,60.046680295190555,
14,0,14,0,,,,,,,,,,,,,,,,,355.453250999999,None,materials/readPic.jpg,level,A_silent,14,170,351.7636158000096,None,351.7636158000096,None,352.70351580000715,None,352.96495560000767,None,352.96495560000767,None,,,,,,,,,,,,,,,,,,,,,,,,,,,,,,,,,,,sing37,001,2019_Nov_14_1628,ProdFawcett_Revision2019,3.2.3,60.046680295190555,
15,0,15,0,,,,,,,,,,,,,,,,,359.7202174999984,None,materials/singPic.jpg,junior,C_sing,15,167,356.0524560000049,None,356.0524560000049,None,356.9706811000069,None,357.2395269999979,None,357.2395269999979,None,,,,,,,,,,,,,,,,,,,,,,,,,,,,,,,,,,,sing37,001,2019_Nov_14_1628,ProdFawcett_Revision2019,3.2.3,60.046680295190555,
16,0,16,0,,,,,,,,,,,,,,,,,363.98683040001197,None,materials/speakPic.jpg,individual,B_aloud,16,160,360.29675280000083,None,360.29675280000083,None,361.23586049998994,None,361.50293899999815,None,361.50293899999815,None,,,,,,,,,,,,,,,,,,,,,,,,,,,,,,,,,,,sing37,001,2019_Nov_14_1628,ProdFawcett_Revision2019,3.2.3,60.046680295190555,
17,0,17,0,,,,,,,,,,,,,,,,,368.25394230001257,None,materials/readPic.jpg,threat,A_silent,17,329,364.5706540000101,None,364.5706540000101,None,365.505203800014,None,365.7603506000014,None,365.7603506000014,None,,,,,,,,,,,,,,,,,,,,,,,,,,,,,,,,,,,sing37,001,2019_Nov_14_1628,ProdFawcett_Revision2019,3.2.3,60.046680295190555,
18,0,18,0,,,,,,,,,,,,,,,,,372.5208935000119,None,materials/singPic.jpg,republic,C_sing,18,260,368.8370042000024,None,368.8370042000024,None,369.77168840001104,None,370.0369740000169,None,370.0369740000169,None,,,,,,,,,,,,,,,,,,,,,,,,,,,,,,,,,,,sing37,001,2019_Nov_14_1628,ProdFawcett_Revision2019,3.2.3,60.046680295190555,
19,0,19,0,,,,,,,,,,,,,,,,,376.7880196000042,None,materials/readPic.jpg,strain,A_silent,19,308,373.0922038000135,None,373.0922038000135,None,374.0378927999991,None,374.29435800001374,None,374.29435800001374,None,,,,,,,,,,,,,,,,,,,,,,,,,,,,,,,,,,,sing37,001,2019_Nov_14_1628,ProdFawcett_Revision2019,3.2.3,60.046680295190555,
20,0,20,0,,,,,,,,,,,,,,,,,381.0547477999935,None,materials/readPic.jpg,spoke,A_silent,20,300,377.4017300000123,None,377.4017300000123,None,378.3063317000051,None,378.56297070000437,None,378.56297070000437,None,,,,,,,,,,,,,,,,,,,,,,,,,,,,,,,,,,,sing37,001,2019_Nov_14_1628,ProdFawcett_Revision2019,3.2.3,60.046680295190555,
21,0,21,0,,,,,,,,,,,,,,,,,385.3216384999978,None,materials/speakPic.jpg,sleep,B_aloud,21,290,381.62763969998923,None,381.62763969998923,None,382.57176930000423,None,382.82795440001064,None,382.82795440001064,None,,,,,,,,,,,,,,,,,,,,,,,,,,,,,,,,,,,sing37,001,2019_Nov_14_1628,ProdFawcett_Revision2019,3.2.3,60.046680295190555,
22,0,22,0,,,,,,,,,,,,,,,,,389.58872440000414,None,materials/readPic.jpg,capital,A_silent,22,40,385.92814560001716,None,385.92814560001716,None,386.8393666000047,None,387.09743930000695,None,387.09743930000695,None,,,,,,,,,,,,,,,,,,,,,,,,,,,,,,,,,,,sing37,001,2019_Nov_14_1628,ProdFawcett_Revision2019,3.2.3,60.046680295190555,
23,0,23,0,,,,,,,,,,,,,,,,,393.85571969999,None,materials/speakPic.jpg,theme,B_aloud,23,326,390.1583777999913,None,390.1583777999913,None,391.10571699999855,None,391.36232489999384,None,391.36232489999384,None,,,,,,,,,,,,,,,,,,,,,,,,,,,,,,,,,,,sing37,001,2019_Nov_14_1628,ProdFawcett_Revision2019,3.2.3,60.046680295190555,
24,0,24,0,,,,,,,,,,,,,,,,,398.1224893000035,None,materials/readPic.jpg,short,A_silent,24,285,394.4423897000088,None,394.4423897000088,None,395.37428139999975,None,395.6312930000131,None,395.6312930000131,None,,,,,,,,,,,,,,,,,,,,,,,,,,,,,,,,,,,sing37,001,2019_Nov_14_1628,ProdFawcett_Revision2019,3.2.3,60.046680295190555,
25,0,25,0,,,,,,,,,,,,,,,,,402.3895554000046,None,materials/speakPic.jpg,angle,B_aloud,25,7,398.69667900001514,None,398.69667900001514,None,399.6396701000049,None,399.90420700001414,None,399.90420700001414,None,,,,,,,,,,,,,,,,,,,,,,,,,,,,,,,,,,,sing37,001,2019_Nov_14_1628,ProdFawcett_Revision2019,3.2.3,60.046680295190555,
26,0,26,0,,,,,,,,,,,,,,,,,406.65725170000223,None,materials/speakPic.jpg,stranger,B_aloud,26,309,402.96563869999954,None,402.96563869999954,None,403.908168199996,None,404.17022160001216,None,404.17022160001216,None,,,,,,,,,,,,,,,,,,,,,,,,,,,,,,,,,,,sing37,001,2019_Nov_14_1628,ProdFawcett_Revision2019,3.2.3,60.046680295190555,
27,0,27,0,,,,,,,,,,,,,,,,,410.92334619999747,None,materials/singPic.jpg,subject,C_sing,27,312,407.2427454999997,None,407.2427454999997,None,408.17497930000536,None,408.4406378999993,None,408.4406378999993,None,,,,,,,,,,,,,,,,,,,,,,,,,,,,,,,,,,,sing37,001,2019_Nov_14_1628,ProdFawcett_Revision2019,3.2.3,60.046680295190555,
28,0,28,0,,,,,,,,,,,,,,,,,415.1904264999903,None,materials/speakPic.jpg,detective,B_aloud,28,92,411.51126950001344,None,411.51126950001344,None,412.4403031000111,None,412.704516400001,None,412.704516400001,None,,,,,,,,,,,,,,,,,,,,,,,,,,,,,,,,,,,sing37,001,2019_Nov_14_1628,ProdFawcett_Revision2019,3.2.3,60.046680295190555,
29,0,29,0,,,,,,,,,,,,,,,,,419.4573919000104,None,materials/readPic.jpg,danger,A_silent,29,85,415.77325369999744,None,415.77325369999744,None,416.70813509999425,None,416.97095290001016,None,416.97095290001016,None,,,,,,,,,,,,,,,,,,,,,,,,,,,,,,,,,,,sing37,001,2019_Nov_14_1628,ProdFawcett_Revision2019,3.2.3,60.046680295190555,
30,0,30,0,,,,,,,,,,,,,,,,,423.72424939999473,None,materials/speakPic.jpg,guide,B_aloud,30,147,420.03280869999435,None,420.03280869999435,None,420.97609199999715,None,421.23473660001764,None,421.23473660001764,None,,,,,,,,,,,,,,,,,,,,,,,,,,,,,,,,,,,sing37,001,2019_Nov_14_1628,ProdFawcett_Revision2019,3.2.3,60.046680295190555,
31,0,31,0,,,,,,,,,,,,,,,,,427.99124920001486,None,materials/readPic.jpg,religion,A_silent,31,258,424.3123264000169,None,424.3123264000169,None,425.24182699999074,None,425.50525049999123,None,425.50525049999123,None,,,,,,,,,,,,,,,,,,,,,,,,,,,,,,,,,,,sing37,001,2019_Nov_14_1628,ProdFawcett_Revision2019,3.2.3,60.046680295190555,
32,0,32,0,,,,,,,,,,,,,,,,,432.2583612000162,None,materials/singPic.jpg,territory,C_sing,32,324,428.5706827999966,None,428.5706827999966,None,429.50903250000556,None,429.7655184000032,None,429.7655184000032,None,,,,,,,,,,,,,,,,,,,,,,,,,,,,,,,,,,,sing37,001,2019_Nov_14_1628,ProdFawcett_Revision2019,3.2.3,60.046680295190555,
33,0,33,0,,,,,,,,,,,,,,,,,436.5251158000028,None,materials/readPic.jpg,century,A_silent,33,45,432.8414073000022,None,432.8414073000022,None,433.77531210001325,None,434.0292550000013,None,434.0292550000013,None,,,,,,,,,,,,,,,,,,,,,,,,,,,,,,,,,,,sing37,001,2019_Nov_14_1628,ProdFawcett_Revision2019,3.2.3,60.046680295190555,
34,0,34,0,,,,,,,,,,,,,,,,,440.79242040001554,None,materials/speakPic.jpg,distance,B_aloud,34,100,437.08219879999524,None,437.08219879999524,None,438.04215439999825,None,438.30147840001155,None,438.30147840001155,None,,,,,,,,,,,,,,,,,,,,,,,,,,,,,,,,,,,sing37,001,2019_Nov_14_1628,ProdFawcett_Revision2019,3.2.3,60.046680295190555,
35,0,35,0,,,,,,,,,,,,,,,,,445.05898580001667,None,materials/speakPic.jpg,balance,B_aloud,35,17,441.36623220000183,None,441.36623220000183,None,442.30907479999587,None,442.5703027000127,None,442.5703027000127,None,,,,,,,,,,,,,,,,,,,,,,,,,,,,,,,,,,,sing37,001,2019_Nov_14_1628,ProdFawcett_Revision2019,3.2.3,60.046680295190555,
36,0,36,0,,,,,,,,,,,,,,,,,449.3260159000056,None,materials/speakPic.jpg,finish,B_aloud,36,130,445.6273247000063,None,445.6273247000063,None,446.5758223000157,None,446.8347081000102,None,446.8347081000102,None,,,,,,,,,,,,,,,,,,,,,,,,,,,,,,,,,,,sing37,001,2019_Nov_14_1628,ProdFawcett_Revision2019,3.2.3,60.046680295190555,
37,0,37,0,,,,,,,,,,,,,,,,,453.59288909999304,None,materials/singPic.jpg,society,C_sing,37,293,449.9419873000006,None,449.9419873000006,None,450.84212039998965,None,451.09966880001593,None,451.09966880001593,None,,,,,,,,,,,,,,,,,,,,,,,,,,,,,,,,,,,sing37,001,2019_Nov_14_1628,ProdFawcett_Revision2019,3.2.3,60.046680295190555,
38,0,38,0,,,,,,,,,,,,,,,,,457.8597890000092,None,materials/speakPic.jpg,bright,B_aloud,38,29,454.1686466000101,None,454.1686466000101,None,455.11351060000015,None,455.3737219000177,None,455.3737219000177,None,,,,,,,,,,,,,,,,,,,,,,,,,,,,,,,,,,,sing37,001,2019_Nov_14_1628,ProdFawcett_Revision2019,3.2.3,60.046680295190555,
39,0,39,0,,,,,,,,,,,,,,,,,462.12686630000826,None,materials/speakPic.jpg,dance,B_aloud,39,84,458.4359466000169,None,458.4359466000169,None,459.3777267000114,None,459.6341114999959,None,459.6341114999959,None,,,,,,,,,,,,,,,,,,,,,,,,,,,,,,,,,,,sing37,001,2019_Nov_14_1628,ProdFawcett_Revision2019,3.2.3,60.046680295190555,
40,0,40,0,,,,,,,,,,,,,,,,,466.3938421999919,None,materials/singPic.jpg,travel,C_sing,40,338,462.6906205000123,None,462.6906205000123,None,463.64485380001133,None,463.90654900000663,None,463.90654900000663,None,,,,,,,,,,,,,,,,,,,,,,,,,,,,,,,,,,,sing37,001,2019_Nov_14_1628,ProdFawcett_Revision2019,3.2.3,60.046680295190555,
41,0,41,0,,,,,,,,,,,,,,,,,470.6608484000026,None,materials/readPic.jpg,question,A_silent,41,247,466.9896201000083,None,466.9896201000083,None,467.9114949000068,None,468.1814948999963,None,468.1814948999963,None,,,,,,,,,,,,,,,,,,,,,,,,,,,,,,,,,,,sing37,001,2019_Nov_14_1628,ProdFawcett_Revision2019,3.2.3,60.046680295190555,
42,0,42,0,,,,,,,,,,,,,,,,,474.9276998999994,None,materials/singPic.jpg,title,C_sing,42,331,471.24868009999045,None,471.24868009999045,None,472.17794150000555,None,472.43383059999906,None,472.43383059999906,None,,,,,,,,,,,,,,,,,,,,,,,,,,,,,,,,,,,sing37,001,2019_Nov_14_1628,ProdFawcett_Revision2019,3.2.3,60.046680295190555,
43,0,43,0,,,,,,,,,,,,,,,,,479.19368140000734,None,materials/singPic.jpg,fight,C_sing,43,127,475.51410050000413,None,475.51410050000413,None,476.44853970000986,None,476.707934200007,None,476.707934200007,None,,,,,,,,,,,,,,,,,,,,,,,,,,,,,,,,,,,sing37,001,2019_Nov_14_1628,ProdFawcett_Revision2019,3.2.3,60.046680295190555,
44,0,44,0,,,,,,,,,,,,,,,,,483.46176820000983,None,materials/speakPic.jpg,minute,B_aloud,44,192,479.7651321000012,None,479.7651321000012,None,480.7131545000011,None,480.9697976000025,None,480.9697976000025,None,,,,,,,,,,,,,,,,,,,,,,,,,,,,,,,,,,,sing37,001,2019_Nov_14_1628,ProdFawcett_Revision2019,3.2.3,60.046680295190555,
45,0,45,0,,,,,,,,,,,,,,,,,487.7275479999953,None,materials/speakPic.jpg,meeting,B_aloud,45,187,484.02769700001227,None,484.02769700001227,None,484.9793224000023,None,485.23942570001236,None,485.23942570001236,None,,,,,,,,,,,,,,,,,,,,,,,,,,,,,,,,,,,sing37,001,2019_Nov_14_1628,ProdFawcett_Revision2019,3.2.3,60.046680295190555,
46,0,46,0,,,,,,,,,,,,,,,,,491.99653709999984,None,materials/singPic.jpg,discovery,C_sing,46,95,488.3311498000112,None,488.3311498000112,None,489.2456937000097,None,489.51019289999385,None,489.51019289999385,None,,,,,,,,,,,,,,,,,,,,,,,,,,,,,,,,,,,sing37,001,2019_Nov_14_1628,ProdFawcett_Revision2019,3.2.3,60.046680295190555,
47,0,47,0,,,,,,,,,,,,,,,,,496.26179109999794,None,materials/singPic.jpg,whole,C_sing,47,355,492.5848156000138,None,492.5848156000138,None,493.51259800000116,None,493.7733903999906,None,493.7733903999906,None,,,,,,,,,,,,,,,,,,,,,,,,,,,,,,,,,,,sing37,001,2019_Nov_14_1628,ProdFawcett_Revision2019,3.2.3,60.046680295190555,
48,0,48,0,,,,,,,,,,,,,,,,,500.52965790001326,None,materials/speakPic.jpg,goose,B_aloud,48,138,496.85456850001356,None,496.85456850001356,None,497.7798996999918,None,498.04015159999835,None,498.04015159999835,None,,,,,,,,,,,,,,,,,,,,,,,,,,,,,,,,,,,sing37,001,2019_Nov_14_1628,ProdFawcett_Revision2019,3.2.3,60.046680295190555,
49,0,49,0,,,,,,,,,,,,,,,,,504.7967525999993,None,materials/speakPic.jpg,colonel,B_aloud,49,55,501.12133470000117,None,501.12133470000117,None,502.0471638000163,None,502.3055253000057,None,502.3055253000057,None,,,,,,,,,,,,,,,,,,,,,,,,,,,,,,,,,,,sing37,001,2019_Nov_14_1628,ProdFawcett_Revision2019,3.2.3,60.046680295190555,
50,0,50,0,,,,,,,,,,,,,,,,,509.0636479000095,None,materials/singPic.jpg,alert,C_sing,50,6,505.38772820000304,None,505.38772820000304,None,506.31470710001304,None,506.5696175000048,None,506.5696175000048,None,,,,,,,,,,,,,,,,,,,,,,,,,,,,,,,,,,,sing37,001,2019_Nov_14_1628,ProdFawcett_Revision2019,3.2.3,60.046680295190555,
51,0,51,0,,,,,,,,,,,,,,,,,513.3306023000041,None,materials/readPic.jpg,range,A_silent,51,251,509.60537750000367,None,509.60537750000367,None,510.58126140001696,None,510.8441223000118,None,510.8441223000118,None,,,,,,,,,,,,,,,,,,,,,,,,,,,,,,,,,,,sing37,001,2019_Nov_14_1628,ProdFawcett_Revision2019,3.2.3,60.046680295190555,
52,0,52,0,,,,,,,,,,,,,,,,,517.5972777999996,None,materials/speakPic.jpg,region,B_aloud,52,256,513.9061741000041,None,513.9061741000041,None,514.8479756000161,None,515.1098944999976,None,515.1098944999976,None,,,,,,,,,,,,,,,,,,,,,,,,,,,,,,,,,,,sing37,001,2019_Nov_14_1628,ProdFawcett_Revision2019,3.2.3,60.046680295190555,
53,0,53,0,,,,,,,,,,,,,,,,,521.8643663999974,None,materials/readPic.jpg,committee,A_silent,53,62,518.1746157000016,None,518.1746157000016,None,519.1156691999931,None,519.3745696000115,None,519.3745696000115,None,,,,,,,,,,,,,,,,,,,,,,,,,,,,,,,,,,,sing37,001,2019_Nov_14_1628,ProdFawcett_Revision2019,3.2.3,60.046680295190555,
54,0,54,0,,,,,,,,,,,,,,,,,526.1316298000165,None,materials/speakPic.jpg,guest,B_aloud,54,146,522.4319004999998,None,522.4319004999998,None,523.3823282000085,None,523.6407596000063,None,523.6407596000063,None,,,,,,,,,,,,,,,,,,,,,,,,,,,,,,,,,,,sing37,001,2019_Nov_14_1628,ProdFawcett_Revision2019,3.2.3,60.046680295190555,
55,0,55,0,,,,,,,,,,,,,,,,,530.3986371000065,None,materials/singPic.jpg,master,C_sing,55,180,526.7425215000112,None,526.7425215000112,None,527.6484469000134,None,527.9058838000055,None,527.9058838000055,None,,,,,,,,,,,,,,,,,,,,,,,,,,,,,,,,,,,sing37,001,2019_Nov_14_1628,ProdFawcett_Revision2019,3.2.3,60.046680295190555,
56,0,56,0,,,,,,,,,,,,,,,,,534.6653428999998,None,materials/readPic.jpg,school,A_silent,56,274,530.9776145000069,None,530.9776145000069,None,531.915119799989,None,532.171889099991,None,532.171889099991,None,,,,,,,,,,,,,,,,,,,,,,,,,,,,,,,,,,,sing37,001,2019_Nov_14_1628,ProdFawcett_Revision2019,3.2.3,60.046680295190555,
57,0,57,0,,,,,,,,,,,,,,,,,538.9320030999952,None,materials/singPic.jpg,carry,C_sing,57,43,535.247617200017,None,535.247617200017,None,536.1821174999932,None,536.4420588999928,None,536.4420588999928,None,,,,,,,,,,,,,,,,,,,,,,,,,,,,,,,,,,,sing37,001,2019_Nov_14_1628,ProdFawcett_Revision2019,3.2.3,60.046680295190555,
58,0,58,0,,,,,,,,,,,,,,,,,543.1986287999898,None,materials/readPic.jpg,atmosphere,A_silent,58,12,539.5271299000015,None,539.5271299000015,None,540.4491921000008,None,540.7075725000177,None,540.7075725000177,None,,,,,,,,,,,,,,,,,,,,,,,,,,,,,,,,,,,sing37,001,2019_Nov_14_1628,ProdFawcett_Revision2019,3.2.3,60.046680295190555,
59,0,59,0,,,,,,,,,,,,,,,,,547.4659868000017,None,materials/readPic.jpg,material,A_silent,59,182,543.8032018000085,None,543.8032018000085,None,544.7161418999895,None,544.9731975999894,None,544.9731975999894,None,,,,,,,,,,,,,,,,,,,,,,,,,,,,,,,,,,,sing37,001,2019_Nov_14_1628,ProdFawcett_Revision2019,3.2.3,60.046680295190555,
60,0,60,0,,,,,,,,,,,,,,,,,551.7329012000118,None,materials/readPic.jpg,phrase,A_silent,60,220,548.0462497000117,None,548.0462497000117,None,548.9833237999992,None,549.2368317999935,None,549.2368317999935,None,,,,,,,,,,,,,,,,,,,,,,,,,,,,,,,,,,,sing37,001,2019_Nov_14_1628,ProdFawcett_Revision2019,3.2.3,60.046680295190555,
61,0,61,0,,,,,,,,,,,,,,,,,555.9998875000165,None,materials/speakPic.jpg,conference,B_aloud,61,66,552.3047048000153,None,552.3047048000153,None,553.2505294000148,None,553.5098857000121,None,553.5098857000121,None,,,,,,,,,,,,,,,,,,,,,,,,,,,,,,,,,,,sing37,001,2019_Nov_14_1628,ProdFawcett_Revision2019,3.2.3,60.046680295190555,
62,0,62,0,,,,,,,,,,,,,,,,,560.2668454000086,None,materials/readPic.jpg,revolution,A_silent,62,264,556.5963383000053,None,556.5963383000053,None,557.5175124999951,None,557.7789926000114,None,557.7789926000114,None,,,,,,,,,,,,,,,,,,,,,,,,,,,,,,,,,,,sing37,001,2019_Nov_14_1628,ProdFawcett_Revision2019,3.2.3,60.046680295190555,
63,0,63,0,,,,,,,,,,,,,,,,,564.5341340000159,None,materials/readPic.jpg,hunger,A_silent,63,155,560.8571777000034,None,560.8571777000034,None,561.786534200015,None,562.0482506999979,None,562.0482506999979,None,,,,,,,,,,,,,,,,,,,,,,,,,,,,,,,,,,,sing37,001,2019_Nov_14_1628,ProdFawcett_Revision2019,3.2.3,60.046680295190555,
64,0,64,0,,,,,,,,,,,,,,,,,568.8007130000042,None,materials/singPic.jpg,income,C_sing,64,159,565.1253168999974,None,565.1253168999974,None,566.0515322000138,None,566.3081308999972,None,566.3081308999972,None,,,,,,,,,,,,,,,,,,,,,,,,,,,,,,,,,,,sing37,001,2019_Nov_14_1628,ProdFawcett_Revision2019,3.2.3,60.046680295190555,
65,0,65,0,,,,,,,,,,,,,,,,,573.0678317999991,None,materials/readPic.jpg,industry,A_silent,65,161,569.3965804000036,None,569.3965804000036,None,570.3178600000101,None,570.5748869999952,None,570.5748869999952,None,,,,,,,,,,,,,,,,,,,,,,,,,,,,,,,,,,,sing37,001,2019_Nov_14_1628,ProdFawcett_Revision2019,3.2.3,60.046680295190555,
66,0,66,0,,,,,,,,,,,,,,,,,577.3346625000122,None,materials/speakPic.jpg,break,B_aloud,66,26,573.6404094999889,None,573.6404094999889,None,574.5868207000021,None,574.8445595999947,None,574.8445595999947,None,,,,,,,,,,,,,,,,,,,,,,,,,,,,,,,,,,,sing37,001,2019_Nov_14_1628,ProdFawcett_Revision2019,3.2.3,60.046680295190555,
67,0,67,0,,,,,,,,,,,,,,,,,581.6017119000026,None,materials/speakPic.jpg,column,B_aloud,67,57,577.918845600012,None,577.918845600012,None,578.852151500003,None,579.1085865999921,None,579.1085865999921,None,,,,,,,,,,,,,,,,,,,,,,,,,,,,,,,,,,,sing37,001,2019_Nov_14_1628,ProdFawcett_Revision2019,3.2.3,60.046680295190555,
68,0,68,0,,,,,,,,,,,,,,,,,585.868586800003,None,materials/singPic.jpg,state,C_sing,68,303,582.2198510000017,None,582.2198510000017,None,583.1193484000105,None,583.3761207000061,None,583.3761207000061,None,,,,,,,,,,,,,,,,,,,,,,,,,,,,,,,,,,,sing37,001,2019_Nov_14_1628,ProdFawcett_Revision2019,3.2.3,60.046680295190555,
69,0,69,0,,,,,,,,,,,,,,,,,590.135600300011,None,materials/singPic.jpg,plane,C_sing,69,223,586.4502435000031,None,586.4502435000031,None,587.3868326999946,None,587.644189100014,None,587.644189100014,None,,,,,,,,,,,,,,,,,,,,,,,,,,,,,,,,,,,sing37,001,2019_Nov_14_1628,ProdFawcett_Revision2019,3.2.3,60.046680295190555,
70,0,70,0,,,,,,,,,,,,,,,,,594.40262909999,None,materials/singPic.jpg,account,C_sing,70,1,590.7166877000127,None,590.7166877000127,None,591.6552690000099,None,591.909780499991,None,591.909780499991,None,,,,,,,,,,,,,,,,,,,,,,,,,,,,,,,,,,,sing37,001,2019_Nov_14_1628,ProdFawcett_Revision2019,3.2.3,60.046680295190555,
71,0,71,0,,,,,,,,,,,,,,,,,598.6693850000156,None,materials/singPic.jpg,suggestion,C_sing,71,314,594.9988282000122,None,594.9988282000122,None,595.9201293000078,None,596.1822450000036,None,596.1822450000036,None,,,,,,,,,,,,,,,,,,,,,,,,,,,,,,,,,,,sing37,001,2019_Nov_14_1628,ProdFawcett_Revision2019,3.2.3,60.046680295190555,
72,0,72,0,,,,,,,,,,,,,,,,,602.9363598999917,None,materials/speakPic.jpg,measure,B_aloud,72,184,599.2871810999932,None,599.2871810999932,None,600.1873342999897,None,600.4453680000152,None,600.4453680000152,None,,,,,,,,,,,,,,,,,,,,,,,,,,,,,,,,,,,sing37,001,2019_Nov_14_1628,ProdFawcett_Revision2019,3.2.3,60.046680295190555,
73,0,73,0,,,,,,,,,,,,,,,,,607.203391499992,None,materials/singPic.jpg,weight,C_sing,73,353,603.5248851999932,None,603.5248851999932,None,604.4549826000002,None,604.7190047999902,None,604.7190047999902,None,,,,,,,,,,,,,,,,,,,,,,,,,,,,,,,,,,,sing37,001,2019_Nov_14_1628,ProdFawcett_Revision2019,3.2.3,60.046680295190555,
74,0,74,0,,,,,,,,,,,,,,,,,611.4704176000087,None,materials/singPic.jpg,silence,C_sing,74,288,607.7907823999994,None,607.7907823999994,None,608.7205668000097,None,608.9769771000138,None,608.9769771000138,None,,,,,,,,,,,,,,,,,,,,,,,,,,,,,,,,,,,sing37,001,2019_Nov_14_1628,ProdFawcett_Revision2019,3.2.3,60.046680295190555,
75,0,75,0,,,,,,,,,,,,,,,,,615.7372799000004,None,materials/readPic.jpg,vision,A_silent,75,347,612.0648908000148,None,612.0648908000148,None,612.9873701999895,None,613.2487926000031,None,613.2487926000031,None,,,,,,,,,,,,,,,,,,,,,,,,,,,,,,,,,,,sing37,001,2019_Nov_14_1628,ProdFawcett_Revision2019,3.2.3,60.046680295190555,
76,0,76,0,,,,,,,,,,,,,,,,,620.0042582000024,None,materials/readPic.jpg,ground,A_silent,76,142,616.3239203999983,None,616.3239203999983,None,617.257393500011,None,617.5182188999897,None,617.5182188999897,None,,,,,,,,,,,,,,,,,,,,,,,,,,,,,,,,,,,sing37,001,2019_Nov_14_1628,ProdFawcett_Revision2019,3.2.3,60.046680295190555,
77,0,77,0,,,,,,,,,,,,,,,,,624.2712476000015,None,materials/speakPic.jpg,weather,B_aloud,77,352,620.6030113000015,None,620.6030113000015,None,621.5218310999917,None,621.786712000001,None,621.786712000001,None,,,,,,,,,,,,,,,,,,,,,,,,,,,,,,,,,,,sing37,001,2019_Nov_14_1628,ProdFawcett_Revision2019,3.2.3,60.046680295190555,
78,0,78,0,,,,,,,,,,,,,,,,,628.5383190000139,None,materials/speakPic.jpg,trend,B_aloud,78,340,624.8590512000083,None,624.8590512000083,None,625.7895827000029,None,626.045678399998,None,626.045678399998,None,,,,,,,,,,,,,,,,,,,,,,,,,,,,,,,,,,,sing37,001,2019_Nov_14_1628,ProdFawcett_Revision2019,3.2.3,60.046680295190555,
79,0,79,0,,,,,,,,,,,,,,,,,632.8056964999996,None,materials/readPic.jpg,still,A_silent,79,304,629.1435763000045,None,629.1435763000045,None,630.0535769000126,None,630.3120402999921,None,630.3120402999921,None,,,,,,,,,,,,,,,,,,,,,,,,,,,,,,,,,,,sing37,001,2019_Nov_14_1628,ProdFawcett_Revision2019,3.2.3,60.046680295190555,
80,0,80,0,,,,,,,,,,,,,,,,,637.0734506000008,None,materials/readPic.jpg,produce,A_silent,80,239,633.3925373000093,None,633.3925373000093,None,634.3220598000044,None,634.5798875000037,None,634.5798875000037,None,,,,,,,,,,,,,,,,,,,,,,,,,,,,,,,,,,,sing37,001,2019_Nov_14_1628,ProdFawcett_Revision2019,3.2.3,60.046680295190555,
81,0,81,0,,,,,,,,,,,,,,,,,641.3391905000026,None,materials/singPic.jpg,candidate,C_sing,81,39,637.6893967000069,None,637.6893967000069,None,638.5896054999903,None,638.8474819000112,None,638.8474819000112,None,,,,,,,,,,,,,,,,,,,,,,,,,,,,,,,,,,,sing37,001,2019_Nov_14_1628,ProdFawcett_Revision2019,3.2.3,60.046680295190555,
82,0,82,0,,,,,,,,,,,,,,,,,645.6061122000101,None,materials/readPic.jpg,blind,A_silent,82,24,641.9204561999941,None,641.9204561999941,None,642.8567179999955,None,643.1174305000168,None,643.1174305000168,None,,,,,,,,,,,,,,,,,,,,,,,,,,,,,,,,,,,sing37,001,2019_Nov_14_1628,ProdFawcett_Revision2019,3.2.3,60.046680295190555,
83,0,83,0,,,,,,,,,,,,,,,,,649.872109399992,None,materials/readPic.jpg,point,A_silent,83,226,646.2044078999897,None,646.2044078999897,None,647.122989800002,None,647.3790286000003,None,647.3790286000003,None,,,,,,,,,,,,,,,,,,,,,,,,,,,,,,,,,,,sing37,001,2019_Nov_14_1628,ProdFawcett_Revision2019,3.2.3,60.046680295190555,
84,0,84,0,,,,,,,,,,,,,,,,,654.1399872000038,None,materials/singPic.jpg,husband,C_sing,84,156,650.4750583000132,None,650.4750583000132,None,651.3910598999937,None,651.6558627999912,None,651.6558627999912,None,,,,,,,,,,,,,,,,,,,,,,,,,,,,,,,,,,,sing37,001,2019_Nov_14_1628,ProdFawcett_Revision2019,3.2.3,60.046680295190555,
85,0,85,0,,,,,,,,,,,,,,,,,658.407114200003,None,materials/singPic.jpg,waste,C_sing,85,350,654.7293320999888,None,654.7293320999888,None,655.6582802000048,None,655.9184208000079,None,655.9184208000079,None,,,,,,,,,,,,,,,,,,,,,,,,,,,,,,,,,,,sing37,001,2019_Nov_14_1628,ProdFawcett_Revision2019,3.2.3,60.046680295190555,
86,0,86,0,,,,,,,,,,,,,,,,,662.6740972000116,None,materials/singPic.jpg,finance,C_sing,86,129,658.9891067999997,None,658.9891067999997,None,659.9259220999957,None,660.1825989999925,None,660.1825989999925,None,,,,,,,,,,,,,,,,,,,,,,,,,,,,,,,,,,,sing37,001,2019_Nov_14_1628,ProdFawcett_Revision2019,3.2.3,60.046680295190555,
87,0,87,0,,,,,,,,,,,,,,,,,666.9407652000082,None,materials/speakPic.jpg,cross,B_aloud,87,80,663.2444407000148,None,663.2444407000148,None,664.1909606000117,None,664.4421462000173,None,664.4421462000173,None,,,,,,,,,,,,,,,,,,,,,,,,,,,,,,,,,,,sing37,001,2019_Nov_14_1628,ProdFawcett_Revision2019,3.2.3,60.046680295190555,
88,0,88,0,,,,,,,,,,,,,,,,,671.2078431000118,None,materials/speakPic.jpg,drove,B_aloud,88,106,667.485176599992,None,667.485176599992,None,668.4606082999962,None,668.7194190000009,None,668.7194190000009,None,,,,,,,,,,,,,,,,,,,,,,,,,,,,,,,,,,,sing37,001,2019_Nov_14_1628,ProdFawcett_Revision2019,3.2.3,60.046680295190555,
89,0,89,0,,,,,,,,,,,,,,,,,675.4750421000062,None,materials/singPic.jpg,display,C_sing,89,98,671.8023911000055,None,671.8023911000055,None,672.7238332999987,None,672.9827124000003,None,672.9827124000003,None,,,,,,,,,,,,,,,,,,,,,,,,,,,,,,,,,,,sing37,001,2019_Nov_14_1628,ProdFawcett_Revision2019,3.2.3,60.046680295190555,
,,,,,,,,,,,,,,,,,,,,,,,,,,,,,,,,,,,,,675.9746389999927,None,k,46.45477660000324,675.9746389999927,None,,,,,,,,,,,,,,,,,,,,,,,,,,,,,sing37,001,2019_Nov_14_1628,ProdFawcett_Revision2019,3.2.3,60.046680295190555,
,,,,,,,,,,,,,,722.4440553000022,None,space,3.121441600000253,722.4440553000022,None,,,,,,,,,,,,,,,,,,,,,,,,,,,,,,,,,,,,,,,,,,,,,,,,,,,,sing37,001,2019_Nov_14_1628,ProdFawcett_Revision2019,3.2.3,60.046680295190555,
,,,,0,0,0,0,,,,,,,,,,,,,739.0242332000053,None,,,,,,,,,,,,,,,,,,,,,,republic,C_sing,0,260,726.1202052000153,None,726.1202052000153,None,726.1202052000153,None,6,4.317356899991864,726.1202052000153,None,730.4921462000057,None,730.4921462000057,None,731.0100273000135,None,731.0100273000135,None,731.0100273000135,None,r,7.971370700019179,731.0100273000135,None,sing37,001,2019_Nov_14_1628,ProdFawcett_Revision2019,3.2.3,60.046680295190555,
,,,,1,0,1,0,,,,,,,,,,,,,750.3435861000034,None,,,,,,,,,,,,,,,,,,,,,,machinery,A_silent,1,175,739.5503369999933,None,739.5503369999933,None,739.5503369999933,None,6,5.5031855999841355,739.5503369999933,None,745.1030891000119,None,745.1030891000119,None,745.6308151000121,None,745.6308151000121,None,745.6308151000121,None,f,4.6787495000171475,745.6308151000121,None,sing37,001,2019_Nov_14_1628,ProdFawcett_Revision2019,3.2.3,60.046680295190555,
,,,,2,0,2,0,,,,,,,,,,,,,761.1978452999901,None,,,,,,,,,,,,,,,,,,,,,,cover,D_new,2,77,750.8567164000124,None,750.8567164000124,None,750.8567164000124,None,3,4.684957999998005,750.8567164000124,None,755.5937507000053,None,755.5937507000053,None,756.1102307999972,None,756.1102307999972,None,756.1102307999972,None,f,5.047291999973822,756.1102307999972,None,sing37,001,2019_Nov_14_1628,ProdFawcett_Revision2019,3.2.3,60.046680295190555,
,,,,3,0,3,0,,,,,,,,,,,,,770.3122304000135,None,,,,,,,,,,,,,,,,,,,,,,entrance,A_silent,3,115,761.7159552999947,None,761.7159552999947,None,761.7159552999947,None,5,4.641561399999773,761.7159552999947,None,766.3972271000093,None,766.3972271000093,None,766.9141316000023,None,766.9141316000023,None,766.9141316000023,None,r,3.3554505000065546,766.9141316000023,None,sing37,001,2019_Nov_14_1628,ProdFawcett_Revision2019,3.2.3,60.046680295190555,
,,,,4,0,4,0,,,,,,,,,,,,,777.8454530000163,None,,,,,,,,,,,,,,,,,,,,,,minor,D_new,4,191,770.8323447000002,None,770.8323447000002,None,770.8323447000002,None,1,3.48511830001371,770.8323447000002,None,774.3791815000004,None,774.3791815000004,None,774.8945349999995,None,774.8945349999995,None,774.8945349999995,None,n,2.9109069999831263,774.8945349999995,None,sing37,001,2019_Nov_14_1628,ProdFawcett_Revision2019,3.2.3,60.046680295190555,
,,,,5,0,5,0,,,,,,,,,,,,,788.4325367000129,None,,,,,,,,,,,,,,,,,,,,,,revolution,A_silent,5,264,778.3706369000138,None,778.3706369000138,None,778.3706369000138,None,3,7.938969500013627,778.3706369000138,None,786.3639638000168,None,786.3639638000168,None,786.8876135000028,None,786.8876135000028,None,786.8876135000028,None,n,1.510134999989532,786.8876135000028,None,sing37,001,2019_Nov_14_1628,ProdFawcett_Revision2019,3.2.3,60.046680295190555,
,,,,6,0,6,0,,,,,,,,,,,,,798.7333111999906,None,,,,,,,,,,,,,,,,,,,,,,range,A_silent,6,251,788.9561778999923,None,788.9561778999923,None,788.9561778999923,None,5,7.393922199989902,788.9561778999923,None,796.3957934000064,None,796.3957934000064,None,796.9174600999977,None,796.9174600999977,None,796.9174600999977,None,f,1.7761095999740064,796.9174600999977,None,sing37,001,2019_Nov_14_1628,ProdFawcett_Revision2019,3.2.3,60.046680295190555,
,,,,7,0,7,0,,,,,,,,,,,,,804.6979351000045,None,,,,,,,,,,,,,,,,,,,,,,prime,D_new,7,235,799.2505385999975,None,799.2505385999975,None,799.2505385999975,None,1,2.843000299995765,799.2505385999975,None,802.1429102999973,None,802.1429102999973,None,802.6648744000122,None,802.6648744000122,None,802.6648744000122,None,n,1.9886316999909468,802.6648744000122,None,sing37,001,2019_Nov_14_1628,ProdFawcett_Revision2019,3.2.3,60.046680295190555,
,,,,8,0,8,0,,,,,,,,,,,,,812.4481084000145,None,,,,,,,,,,,,,,,,,,,,,,weather,B_aloud,8,352,805.2211341999937,None,805.2211341999937,None,805.2211341999937,None,6,5.320471599989105,805.2211341999937,None,810.5973110999912,None,810.5973110999912,None,811.1070351999952,None,811.1070351999952,None,811.1070351999952,None,r,1.3063964000029955,811.1070351999952,None,sing37,001,2019_Nov_14_1628,ProdFawcett_Revision2019,3.2.3,60.046680295190555,
,,,,9,0,9,0,,,,,,,,,,,,,822.6670062000048,None,,,,,,,,,,,,,,,,,,,,,,danger,A_silent,9,85,812.9781665999908,None,812.9781665999908,None,812.9781665999908,None,1,3.075046800018754,812.9781665999908,None,816.0981864999922,None,816.0981864999922,None,816.621026000008,None,816.621026000008,None,816.621026000008,None,f,6.00881530001061,816.621026000008,None,sing37,001,2019_Nov_14_1628,ProdFawcett_Revision2019,3.2.3,60.046680295190555,
,,,,10,0,10,0,,,,,,,,,,,,,830.8838705999951,None,,,,,,,,,,,,,,,,,,,,,,bucket,D_new,10,33,823.1882992000028,None,823.1882992000028,None,823.1882992000028,None,1,6.345811900013359,823.1882992000028,None,829.5796868999896,None,829.5796868999896,None,830.1086948000011,None,830.1086948000011,None,830.1086948000011,None,n,0.7369426999939606,830.1086948000011,None,sing37,001,2019_Nov_14_1628,ProdFawcett_Revision2019,3.2.3,60.046680295190555,
,,,,11,0,11,0,,,,,,,,,,,,,838.6504066000052,None,,,,,,,,,,,,,,,,,,,,,,waste,C_sing,11,350,831.4058899999945,None,831.4058899999945,None,831.4058899999945,None,6,4.183716599975014,831.4058899999945,None,835.6429890000145,None,835.6429890000145,None,836.1691777000087,None,836.1691777000087,None,836.1691777000087,None,r,2.4363802000007126,836.1691777000087,None,sing37,001,2019_Nov_14_1628,ProdFawcett_Revision2019,3.2.3,60.046680295190555,
,,,,12,0,12,0,,,,,,,,,,,,,845.6700099000009,None,,,,,,,,,,,,,,,,,,,,,,junior,C_sing,12,167,839.1727029000176,None,839.1727029000176,None,839.1727029000176,None,4,4.832997399993474,839.1727029000176,None,844.0750881000131,None,844.0750881000131,None,844.5865839000035,None,844.5865839000035,None,844.5865839000035,None,f,1.0429874999972526,844.5865839000035,None,sing37,001,2019_Nov_14_1628,ProdFawcett_Revision2019,3.2.3,60.046680295190555,
,,,,13,0,13,0,,,,,,,,,,,,,853.0582177999895,None,,,,,,,,,,,,,,,,,,,,,,resistance,D_new,13,262,846.190403799992,None,846.190403799992,None,846.190403799992,None,2,4.223141399997985,846.190403799992,None,850.4637667000061,None,850.4637667000061,None,850.984903900011,None,850.984903900011,None,850.984903900011,None,n,2.036566299997503,850.984903900011,None,sing37,001,2019_Nov_14_1628,ProdFawcett_Revision2019,3.2.3,60.046680295190555,
,,,,14,0,14,0,,,,,,,,,,,,,868.7560755000159,None,,,,,,,,,,,,,,,,,,,,,,partner,D_new,14,211,853.5853673999954,None,853.5853673999954,None,853.5853673999954,None,4,9.020124000002397,853.5853673999954,None,862.641640899994,None,862.641640899994,None,863.1729753999971,None,863.1729753999971,None,863.1729753999971,None,f,5.544526100013172,863.1729753999971,None,sing37,001,2019_Nov_14_1628,ProdFawcett_Revision2019,3.2.3,60.046680295190555,
,,,,15,0,15,0,,,,,,,,,,,,,875.9859005000035,None,,,,,,,,,,,,,,,,,,,,,,bright,B_aloud,15,29,869.2831183999951,None,869.2831183999951,None,869.2831183999951,None,6,5.2985081000078935,869.2831183999951,None,874.6234927999903,None,874.6234927999903,None,875.143605099991,None,875.143605099991,None,875.143605099991,None,r,0.8062162999995053,875.143605099991,None,sing37,001,2019_Nov_14_1628,ProdFawcett_Revision2019,3.2.3,60.046680295190555,
,,,,16,0,16,0,,,,,,,,,,,,,880.4984002000128,None,,,,,,,,,,,,,,,,,,,,,,education,D_new,16,108,876.5052580999909,None,876.5052580999909,None,876.5052580999909,None,1,2.5483103999868035,876.5052580999909,None,879.10296009999,None,879.10296009999,None,879.6203275000153,None,879.6203275000153,None,879.6203275000153,None,n,0.8493490999971982,879.6203275000153,None,sing37,001,2019_Nov_14_1628,ProdFawcett_Revision2019,3.2.3,60.046680295190555,
,,,,17,0,17,0,,,,,,,,,,,,,888.3542813000095,None,,,,,,,,,,,,,,,,,,,,,,shape,D_new,17,282,881.0232406000141,None,881.0232406000141,None,881.0232406000141,None,4,6.246435100008966,881.0232406000141,None,887.322867800016,None,887.322867800016,None,887.834219500015,None,887.834219500015,None,887.834219500015,None,f,0.4834539000003133,887.834219500015,None,sing37,001,2019_Nov_14_1628,ProdFawcett_Revision2019,3.2.3,60.046680295190555,
,,,,18,0,18,0,,,,,,,,,,,,,894.5712385000079,None,,,,,,,,,,,,,,,,,,,,,,sleep,B_aloud,18,290,888.8672816999897,None,888.8672816999897,None,888.8672816999897,None,6,4.594316100003198,888.8672816999897,None,893.5113757000072,None,893.5113757000072,None,894.0362552000151,None,894.0362552000151,None,894.0362552000151,None,r,0.4978024000010919,894.0362552000151,None,sing37,001,2019_Nov_14_1628,ProdFawcett_Revision2019,3.2.3,60.046680295190555,
,,,,19,0,19,0,,,,,,,,,,,,,904.4262274999928,None,,,,,,,,,,,,,,,,,,,,,,review,D_new,19,263,895.0948746000067,None,895.0948746000067,None,895.0948746000067,None,2,7.406928999989759,895.0948746000067,None,902.561394599994,None,902.561394599994,None,903.0767500000075,None,903.0767500000075,None,903.0767500000075,None,n,1.312913200003095,903.0767500000075,None,sing37,001,2019_Nov_14_1628,ProdFawcett_Revision2019,3.2.3,60.046680295190555,
,,,,20,0,20,0,,,,,,,,,,,,,909.844423100003,None,,,,,,,,,,,,,,,,,,,,,,mayor,D_new,20,183,904.9543608000095,None,904.9543608000095,None,904.9543608000095,None,6,3.8913479000038933,904.9543608000095,None,908.8872061000147,None,908.8872061000147,None,909.403824500012,None,909.403824500012,None,909.403824500012,None,f,0.4018893000029493,909.403824500012,None,sing37,001,2019_Nov_14_1628,ProdFawcett_Revision2019,3.2.3,60.046680295190555,
,,,,21,0,21,0,,,,,,,,,,,,,917.0388853999902,None,,,,,,,,,,,,,,,,,,,,,,atmosphere,A_silent,21,12,910.3749121000001,None,910.3749121000001,None,910.3749121000001,None,5,5.2387585999968,910.3749121000001,None,915.6695383999904,None,915.6695383999904,None,916.1890451000072,None,916.1890451000072,None,916.1890451000072,None,r,0.8169110000017099,916.1890451000072,None,sing37,001,2019_Nov_14_1628,ProdFawcett_Revision2019,3.2.3,60.046680295190555,
,,,,22,0,22,0,,,,,,,,,,,,,923.7393127999967,None,,,,,,,,,,,,,,,,,,,,,,cousin,D_new,22,76,917.5570850000076,None,917.5570850000076,None,917.5570850000076,None,1,4.8725275000033434,917.5570850000076,None,922.483456899994,None,922.483456899994,None,923.0056247999892,None,923.0056247999892,None,923.0056247999892,None,n,0.695896300021559,923.0056247999892,None,sing37,001,2019_Nov_14_1628,ProdFawcett_Revision2019,3.2.3,60.046680295190555,
,,,,23,0,23,0,,,,,,,,,,,,,931.4798671000171,None,,,,,,,,,,,,,,,,,,,,,,carry,C_sing,23,43,924.2575532000046,None,924.2575532000046,None,924.2575532000046,None,1,6.348429500008933,924.2575532000046,None,930.6516426000162,None,930.6516426000162,None,931.174096600007,None,931.174096600007,None,931.174096600007,None,n,0.2791809999907855,931.174096600007,None,sing37,001,2019_Nov_14_1628,ProdFawcett_Revision2019,3.2.3,60.046680295190555,
,,,,24,0,24,0,,,,,,,,,,,,,936.6069393999933,None,,,,,,,,,,,,,,,,,,,,,,candidate,C_sing,24,39,932.0073651999992,None,932.0073651999992,None,932.0073651999992,None,6,3.4062521000159904,932.0073651999992,None,935.4690938999993,None,935.4690938999993,None,935.9900359000021,None,935.9900359000021,None,935.9900359000021,None,r,0.5838943999842741,935.9900359000021,None,sing37,001,2019_Nov_14_1628,ProdFawcett_Revision2019,3.2.3,60.046680295190555,
,,,,25,0,25,0,,,,,,,,,,,,,943.8908673000115,None,,,,,,,,,,,,,,,,,,,,,,comedy,D_new,25,58,937.1254234999942,None,937.1254234999942,None,937.1254234999942,None,3,5.3442063000111375,937.1254234999942,None,942.5191798000014,None,942.5191798000014,None,943.0374797999975,None,943.0374797999975,None,943.0374797999975,None,f,0.8162944000214338,943.0374797999975,None,sing37,001,2019_Nov_14_1628,ProdFawcett_Revision2019,3.2.3,60.046680295190555,
,,,,26,0,26,0,,,,,,,,,,,,,947.408769200003,None,,,,,,,,,,,,,,,,,,,,,,shear,D_new,26,283,944.4091546999989,None,944.4091546999989,None,944.4091546999989,None,1,1.7491199999931268,944.4091546999989,None,946.2021555000101,None,946.2021555000101,None,946.7251994000108,None,946.7251994000108,None,946.7251994000108,None,n,0.6491659999883268,946.7251994000108,None,sing37,001,2019_Nov_14_1628,ProdFawcett_Revision2019,3.2.3,60.046680295190555,
,,,,27,0,27,0,,,,,,,,,,,,,952.0110022000154,None,,,,,,,,,,,,,,,,,,,,,,question,A_silent,27,247,947.930740300013,None,947.930740300013,None,947.930740300013,None,6,3.1469182000146247,947.930740300013,None,951.1174308999907,None,951.1174308999907,None,951.6435386000085,None,951.6435386000085,None,951.6435386000085,None,r,0.3220900000014808,951.6435386000085,None,sing37,001,2019_Nov_14_1628,ProdFawcett_Revision2019,3.2.3,60.046680295190555,
,,,,28,0,28,0,,,,,,,,,,,,,960.763231399993,None,,,,,,,,,,,,,,,,,,,,,,region,B_aloud,28,256,952.5355849000043,None,952.5355849000043,None,952.5355849000043,None,4,7.189833099982934,952.5355849000043,None,959.7659050000075,None,959.7659050000075,None,960.271498999995,None,960.271498999995,None,960.271498999995,None,f,0.4460638000164181,960.271498999995,None,sing37,001,2019_Nov_14_1628,ProdFawcett_Revision2019,3.2.3,60.046680295190555,
,,,,29,0,29,0,,,,,,,,,,,,,965.874507200002,None,,,,,,,,,,,,,,,,,,,,,,tennis,C_sing,29,323,961.3018269000167,None,961.3018269000167,None,961.3018269000167,None,6,3.208041499980027,961.3018269000167,None,964.5539548000088,None,964.5539548000088,None,965.0775547999947,None,965.0775547999947,None,965.0775547999947,None,r,0.7600352999870665,965.0775547999947,None,sing37,001,2019_Nov_14_1628,ProdFawcett_Revision2019,3.2.3,60.046680295190555,
,,,,30,0,30,0,,,,,,,,,,,,,975.6820302999986,None,,,,,,,,,,,,,,,,,,,,,,election,D_new,30,109,966.395620299998,None,966.395620299998,None,966.395620299998,None,4,5.4579739999899175,966.395620299998,None,971.9036655999953,None,971.9036655999953,None,972.4291783999943,None,972.4291783999943,None,972.4291783999943,None,f,3.2088487000146415,972.4291783999943,None,sing37,001,2019_Nov_14_1628,ProdFawcett_Revision2019,3.2.3,60.046680295190555,
,,,,31,0,31,0,,,,,,,,,,,,,979.6267085,None,,,,,,,,,,,,,,,,,,,,,,period,B_aloud,31,217,976.2114751999907,None,976.2114751999907,None,976.2114751999907,None,1,2.5300737000070512,976.2114751999907,None,978.7906684000045,None,978.7906684000045,None,979.3096507000155,None,979.3096507000155,None,979.3096507000155,None,n,0.28024120000191033,979.3096507000155,None,sing37,001,2019_Nov_14_1628,ProdFawcett_Revision2019,3.2.3,60.046680295190555,
,,,,32,0,32,0,,,,,,,,,,,,,984.5827929000079,None,,,,,,,,,,,,,,,,,,,,,,strength,D_new,32,310,980.1408347999968,None,980.1408347999968,None,980.1408347999968,None,2,3.176900900027249,980.1408347999968,None,983.3764135999954,None,983.3764135999954,None,983.8958054000104,None,983.8958054000104,None,983.8958054000104,None,n,0.6378671000129543,983.8958054000104,None,sing37,001,2019_Nov_14_1628,ProdFawcett_Revision2019,3.2.3,60.046680295190555,
,,,,33,0,33,0,,,,,,,,,,,,,992.9461550000124,None,,,,,,,,,,,,,,,,,,,,,,finance,C_sing,33,129,985.113266100001,None,985.113266100001,None,985.113266100001,None,4,6.9645911999978125,985.113266100001,None,992.1256241000083,None,992.1256241000083,None,992.648188399995,None,992.648188399995,None,992.648188399995,None,f,0.2533529000065755,992.648188399995,None,sing37,001,2019_Nov_14_1628,ProdFawcett_Revision2019,3.2.3,60.046680295190555,
,,,,34,0,34,0,,,,,,,,,,,,,998.2792625000002,None,,,,,,,,,,,,,,,,,,,,,,school,A_silent,34,274,993.4646987000015,None,993.4646987000015,None,993.4646987000015,None,6,1.8848992999992333,993.4646987000015,None,995.4042303000169,None,995.4042303000169,None,995.9257865000109,None,995.9257865000109,None,995.9257865000109,None,r,2.3117652000219095,995.9257865000109,None,sing37,001,2019_Nov_14_1628,ProdFawcett_Revision2019,3.2.3,60.046680295190555,
,,,,35,0,35,0,,,,,,,,,,,,,1003.3614347999974,None,,,,,,,,,,,,,,,,,,,,,,clean,D_new,35,51,998.7960308000038,None,998.7960308000038,None,998.7960308000038,None,1,3.8496433999971487,998.7960308000038,None,1002.6890389999899,None,1002.6890389999899,None,1003.2138691,None,1003.2138691,None,1003.2138691,None,n,0.11183650000020862,1003.2138691,None,sing37,001,2019_Nov_14_1628,ProdFawcett_Revision2019,3.2.3,60.046680295190555,
,,,,36,0,36,0,,,,,,,,,,,,,1008.1011599999911,None,,,,,,,,,,,,,,,,,,,,,,trend,B_aloud,36,340,1003.8810499999963,None,1003.8810499999963,None,1003.8810499999963,None,6,2.652517699985765,1003.8810499999963,None,1006.584271700005,None,1006.584271700005,None,1007.1107561000099,None,1007.1107561000099,None,1007.1107561000099,None,r,0.9511658999836072,1007.1107561000099,None,sing37,001,2019_Nov_14_1628,ProdFawcett_Revision2019,3.2.3,60.046680295190555,
,,,,37,0,37,0,,,,,,,,,,,,,1011.1233299000014,None,,,,,,,,,,,,,,,,,,,,,,husband,C_sing,37,156,1008.6363626999955,None,1008.6363626999955,None,1008.6363626999955,None,6,1.5852244999841787,1008.6363626999955,None,1010.2718859000015,None,1010.2718859000015,None,1010.80261839999,None,1010.80261839999,None,1010.80261839999,None,r,0.2830170000088401,1010.80261839999,None,sing37,001,2019_Nov_14_1628,ProdFawcett_Revision2019,3.2.3,60.046680295190555,
,,,,38,0,38,0,,,,,,,,,,,,,1017.2509510999953,None,,,,,,,,,,,,,,,,,,,,,,stranger,B_aloud,38,309,1011.652388699993,None,1011.652388699993,None,1011.652388699993,None,5,4.697238599997945,1011.652388699993,None,1016.3914768999966,None,1016.3914768999966,None,1016.9162145000009,None,1016.9162145000009,None,1016.9162145000009,None,f,0.29768020001938567,1016.9162145000009,None,sing37,001,2019_Nov_14_1628,ProdFawcett_Revision2019,3.2.3,60.046680295190555,
,,,,39,0,39,0,,,,,,,,,,,,,1020.579610899993,None,,,,,,,,,,,,,,,,,,,,,,notice,D_new,39,201,1017.7802457000071,None,1017.7802457000071,None,1017.7802457000071,None,2,1.8818521999928635,1017.7802457000071,None,1019.7143487000139,None,1019.7143487000139,None,1020.2263066000014,None,1020.2263066000014,None,1020.2263066000014,None,n,0.31533099999069236,1020.2263066000014,None,sing37,001,2019_Nov_14_1628,ProdFawcett_Revision2019,3.2.3,60.046680295190555,
,,,,40,0,40,0,,,,,,,,,,,,,1025.2963396999985,None,,,,,,,,,,,,,,,,,,,,,,alert,C_sing,40,6,1021.0967979000125,None,1021.0967979000125,None,1021.0967979000125,None,5,2.8208041999896523,1021.0967979000125,None,1023.9780157000059,None,1023.9780157000059,None,1024.4987134000112,None,1024.4987134000112,None,1024.4987134000112,None,f,0.7629551999852993,1024.4987134000112,None,sing37,001,2019_Nov_14_1628,ProdFawcett_Revision2019,3.2.3,60.046680295190555,
,,,,41,0,41,0,,,,,,,,,,,,,1029.987219200004,None,,,,,,,,,,,,,,,,,,,,,,front,D_new,41,134,1025.8147369000071,None,1025.8147369000071,None,1025.8147369000071,None,2,3.24691229997552,1025.8147369000071,None,1029.1074631999945,None,1029.1074631999945,None,1029.6289063000004,None,1029.6289063000004,None,1029.6289063000004,None,n,0.3205729000037536,1029.6289063000004,None,sing37,001,2019_Nov_14_1628,ProdFawcett_Revision2019,3.2.3,60.046680295190555,
,,,,42,0,42,0,,,,,,,,,,,,,1034.515278900013,None,,,,,,,,,,,,,,,,,,,,,,executive,D_new,42,122,1030.5229003000131,None,1030.5229003000131,None,1030.5229003000131,None,1,3.1307632999960333,1030.5229003000131,None,1033.71484890001,None,1033.71484890001,None,1034.233566400013,None,1034.233566400013,None,1034.233566400013,None,n,0.24418959999457002,1034.233566400013,None,sing37,001,2019_Nov_14_1628,ProdFawcett_Revision2019,3.2.3,60.046680295190555,
,,,,43,0,43,0,,,,,,,,,,,,,1039.1170971000101,None,,,,,,,,,,,,,,,,,,,,,,comfort,A_silent,43,59,1035.020114200015,None,1035.020114200015,None,1035.020114200015,None,5,3.137495900009526,1035.020114200015,None,1038.2064979000133,None,1038.2064979000133,None,1038.7297449999896,None,1038.7297449999896,None,1038.7297449999896,None,f,0.34809539999696426,1038.7297449999896,None,sing37,001,2019_Nov_14_1628,ProdFawcett_Revision2019,3.2.3,60.046680295190555,
,,,,44,0,44,0,,,,,,,,,,,,,1042.3316415000008,None,,,,,,,,,,,,,,,,,,,,,,goose,B_aloud,44,138,1039.653386799997,None,1039.653386799997,None,1039.653386799997,None,6,1.8324121999903582,1039.653386799997,None,1041.544708100002,None,1041.544708100002,None,1042.0676840000087,None,1042.0676840000087,None,1042.0676840000087,None,r,0.23391870001796633,1042.0676840000087,None,sing37,001,2019_Nov_14_1628,ProdFawcett_Revision2019,3.2.3,60.046680295190555,
,,,,45,0,45,0,,,,,,,,,,,,,1045.8644805999938,None,,,,,,,,,,,,,,,,,,,,,,spoke,A_silent,45,300,1042.8493544000085,None,1042.8493544000085,None,1042.8493544000085,None,1,2.2522579999931622,1042.8493544000085,None,1045.1448431999888,None,1045.1448431999888,None,1045.660576299997,None,1045.660576299997,None,1045.660576299997,None,n,0.1689401000039652,1045.660576299997,None,sing37,001,2019_Nov_14_1628,ProdFawcett_Revision2019,3.2.3,60.046680295190555,
,,,,46,0,46,0,,,,,,,,,,,,,1049.465287900006,None,,,,,,,,,,,,,,,,,,,,,,orchestra,D_new,46,206,1046.3838066000026,None,1046.3838066000026,None,1046.3838066000026,None,2,2.2536292000149842,1046.3838066000026,None,1048.6830400000035,None,1048.6830400000035,None,1049.189887000015,None,1049.189887000015,None,1049.189887000015,None,n,0.23185209999792278,1049.189887000015,None,sing37,001,2019_Nov_14_1628,ProdFawcett_Revision2019,3.2.3,60.046680295190555,
,,,,47,0,47,0,,,,,,,,,,,,,1056.7979754999978,None,,,,,,,,,,,,,,,,,,,,,,theme,B_aloud,47,326,1049.9854779000161,None,1049.9854779000161,None,1049.9854779000161,None,3,5.884241199993994,1049.9854779000161,None,1055.9248742999916,None,1055.9248742999916,None,1056.4507660999952,None,1056.4507660999952,None,1056.4507660999952,None,f,0.3069921999995131,1056.4507660999952,None,sing37,001,2019_Nov_14_1628,ProdFawcett_Revision2019,3.2.3,60.046680295190555,
,,,,48,0,48,0,,,,,,,,,,,,,1061.4991025000054,None,,,,,,,,,,,,,,,,,,,,,,pressure,D_new,48,232,1057.3176256000006,None,1057.3176256000006,None,1057.3176256000006,None,5,3.144097199983662,1057.3176256000006,None,1060.5146208000078,None,1060.5146208000078,None,1061.030596800003,None,1061.030596800003,None,1061.030596800003,None,f,0.42320989997824654,1061.030596800003,None,sing37,001,2019_Nov_14_1628,ProdFawcett_Revision2019,3.2.3,60.046680295190555,
,,,,49,0,49,0,,,,,,,,,,,,,1068.9154448999907,None,,,,,,,,,,,,,,,,,,,,,,match,D_new,49,181,1062.0172861000174,None,1062.0172861000174,None,1062.0172861000174,None,1,5.26032750000013,1062.0172861000174,None,1067.3259257000173,None,1067.3259257000173,None,1067.8473552000069,None,1067.8473552000069,None,1067.8473552000069,None,n,1.0303812999918591,1067.8473552000069,None,sing37,001,2019_Nov_14_1628,ProdFawcett_Revision2019,3.2.3,60.046680295190555,
,,,,50,0,50,0,,,,,,,,,,,,,1075.0333203999908,None,,,,,,,,,,,,,,,,,,,,,,phrase,A_silent,50,220,1069.4353428999893,None,1069.4353428999893,None,1069.4353428999893,None,3,2.8260605999967083,1069.4353428999893,None,1072.3008181999903,None,1072.3008181999903,None,1072.8063350000011,None,1072.8063350000011,None,1072.8063350000011,None,n,2.191231600008905,1072.8063350000011,None,sing37,001,2019_Nov_14_1628,ProdFawcett_Revision2019,3.2.3,60.046680295190555,
,,,,51,0,51,0,,,,,,,,,,,,,1079.650556700013,None,,,,,,,,,,,,,,,,,,,,,,enemy,D_new,51,113,1075.5521825999895,None,1075.5521825999895,None,1075.5521825999895,None,4,3.205265900003724,1075.5521825999895,None,1078.7986938999966,None,1078.7986938999966,None,1079.3150259999966,None,1079.3150259999966,None,1079.3150259999966,None,f,0.2987968999950681,1079.3150259999966,None,sing37,001,2019_Nov_14_1628,ProdFawcett_Revision2019,3.2.3,60.046680295190555,
,,,,52,0,52,0,,,,,,,,,,,,,1086.1939144000062,None,,,,,,,,,,,,,,,,,,,,,,threat,A_silent,52,329,1080.168371000007,None,1080.168371000007,None,1080.168371000007,None,3,5.173283599986462,1080.168371000007,None,1085.3978644000017,None,1085.3978644000017,None,1085.9155394000118,None,1085.9155394000118,None,1085.9155394000118,None,f,0.2504122999962419,1085.9155394000118,None,sing37,001,2019_Nov_14_1628,ProdFawcett_Revision2019,3.2.3,60.046680295190555,
,,,,53,0,53,0,,,,,,,,,,,,,1096.2847746000043,None,,,,,,,,,,,,,,,,,,,,,,material,A_silent,53,182,1086.7112548000005,None,1086.7112548000005,None,1086.7112548000005,None,4,6.950293900008546,1086.7112548000005,None,1093.7052283000085,None,1093.7052283000085,None,1094.2244247999915,None,1094.2244247999915,None,1094.2244247999915,None,n,2.0294410999922547,1094.2244247999915,None,sing37,001,2019_Nov_14_1628,ProdFawcett_Revision2019,3.2.3,60.046680295190555,
,,,,54,0,54,0,,,,,,,,,,,,,1102.4845870000136,None,,,,,,,,,,,,,,,,,,,,,,detective,B_aloud,54,92,1096.8086074000166,None,1096.8086074000166,None,1096.8086074000166,None,5,4.764985899993917,1096.8086074000166,None,1101.6367126000114,None,1101.6367126000114,None,1102.1580284000083,None,1102.1580284000083,None,1102.1580284000083,None,r,0.2957231999898795,1102.1580284000083,None,sing37,001,2019_Nov_14_1628,ProdFawcett_Revision2019,3.2.3,60.046680295190555,
,,,,55,0,55,0,,,,,,,,,,,,,1107.0860094999953,None,,,,,,,,,,,,,,,,,,,,,,state,C_sing,55,303,1103.0040308999887,None,1103.0040308999887,None,1103.0040308999887,None,6,2.545506199996453,1103.0040308999887,None,1105.6008779999975,None,1105.6008779999975,None,1106.1216410000052,None,1106.1216410000052,None,1106.1216410000052,None,r,0.932056299992837,1106.1216410000052,None,sing37,001,2019_Nov_14_1628,ProdFawcett_Revision2019,3.2.3,60.046680295190555,
,,,,56,0,56,0,,,,,,,,,,,,,1111.28250999999,None,,,,,,,,,,,,,,,,,,,,,,suspect,D_new,56,318,1107.6041860000114,None,1107.6041860000114,None,1107.6041860000114,None,2,2.1215530000044964,1107.6041860000114,None,1109.7778765000112,None,1109.7778765000112,None,1110.302529700013,None,1110.302529700013,None,1110.302529700013,None,n,0.9431180999963544,1110.302529700013,None,sing37,001,2019_Nov_14_1628,ProdFawcett_Revision2019,3.2.3,60.046680295190555,
,,,,57,0,57,0,,,,,,,,,,,,,1114.8599407000002,None,,,,,,,,,,,,,,,,,,,,,,vision,A_silent,57,347,1111.809473900008,None,1111.809473900008,None,1111.809473900008,None,6,2.292988300003344,1111.809473900008,None,1114.15109639999,None,1114.15109639999,None,1114.6689449000114,None,1114.6689449000114,None,1114.6689449000114,None,r,0.15305210000951774,1114.6689449000114,None,sing37,001,2019_Nov_14_1628,ProdFawcett_Revision2019,3.2.3,60.046680295190555,
,,,,58,0,58,0,,,,,,,,,,,,,1121.6102977000119,None,,,,,,,,,,,,,,,,,,,,,,display,C_sing,58,98,1115.3860477000126,None,1115.3860477000126,None,1115.3860477000126,None,4,5.003341200004797,1115.3860477000126,None,1120.4162077000074,None,1120.4162077000074,None,1120.9348159999936,None,1120.9348159999936,None,1120.9348159999936,None,f,0.623006500012707,1120.9348159999936,None,sing37,001,2019_Nov_14_1628,ProdFawcett_Revision2019,3.2.3,60.046680295190555,
,,,,59,0,59,0,,,,,,,,,,,,,1124.9753569000168,None,,,,,,,,,,,,,,,,,,,,,,treatment,D_new,59,339,1122.1377106000145,None,1122.1377106000145,None,1122.1377106000145,None,2,1.9960705999983475,1122.1377106000145,None,1124.1793907000101,None,1124.1793907000101,None,1124.6931786999921,None,1124.6931786999921,None,1124.6931786999921,None,n,0.24808910000137985,1124.6931786999921,None,sing37,001,2019_Nov_14_1628,ProdFawcett_Revision2019,3.2.3,60.046680295190555,
,,,,60,0,60,0,,,,,,,,,,,,,1129.3859375000175,None,,,,,,,,,,,,,,,,,,,,,,corner,B_aloud,60,69,1125.4926395000075,None,1125.4926395000075,None,1125.4926395000075,None,1,2.9849978999991436,1125.4926395000075,None,1128.5280899000063,None,1128.5280899000063,None,1129.0560467999894,None,1129.0560467999894,None,1129.0560467999894,None,n,0.2855946999916341,1129.0560467999894,None,sing37,001,2019_Nov_14_1628,ProdFawcett_Revision2019,3.2.3,60.046680295190555,
,,,,61,0,61,0,,,,,,,,,,,,,1133.9198153000034,None,,,,,,,,,,,,,,,,,,,,,,marriage,D_new,61,179,1129.9113021999947,None,1129.9113021999947,None,1129.9113021999947,None,2,3.174368800013326,1129.9113021999947,None,1133.1380291999958,None,1133.1380291999958,None,1133.657857400016,None,1133.657857400016,None,1133.657857400016,None,n,0.21984340000199154,1133.657857400016,None,sing37,001,2019_Nov_14_1628,ProdFawcett_Revision2019,3.2.3,60.046680295190555,
,,,,62,0,62,0,,,,,,,,,,,,,1140.1248732999957,None,,,,,,,,,,,,,,,,,,,,,,reach,D_new,62,253,1134.4413960000093,None,1134.4413960000093,None,1134.4413960000093,None,2,3.5645618999842554,1134.4413960000093,None,1138.056595800008,None,1138.056595800008,None,1138.5707466000167,None,1138.5707466000167,None,1138.5707466000167,None,f,1.5069520999968518,1138.5707466000167,None,sing37,001,2019_Nov_14_1628,ProdFawcett_Revision2019,3.2.3,60.046680295190555,
,,,,63,0,63,0,,,,,,,,,,,,,1142.9712180999923,None,,,,,,,,,,,,,,,,,,,,,,sunset,D_new,63,315,1140.6546847000136,None,1140.6546847000136,None,1140.6546847000136,None,1,1.6549104000150692,1140.6546847000136,None,1142.362958200014,None,1142.362958200014,None,1142.888936000003,None,1142.888936000003,None,1142.888936000003,None,n,0.03677499998593703,1142.888936000003,None,sing37,001,2019_Nov_14_1628,ProdFawcett_Revision2019,3.2.3,60.046680295190555,
,,,,64,0,64,0,,,,,,,,,,,,,1148.5872239000164,None,,,,,,,,,,,,,,,,,,,,,,fight,C_sing,64,127,1143.4940052000165,None,1143.4940052000165,None,1143.4940052000165,None,3,4.08760820000316,1143.4940052000165,None,1147.6392005000089,None,1147.6392005000089,None,1148.157064900006,None,1148.157064900006,None,1148.157064900006,None,n,0.40055089999805205,1148.157064900006,None,sing37,001,2019_Nov_14_1628,ProdFawcett_Revision2019,3.2.3,60.046680295190555,
,,,,65,0,65,0,,,,,,,,,,,,,1155.4718182999932,None,,,,,,,,,,,,,,,,,,,,,,substance,D_new,65,313,1149.1129980999976,None,1149.1129980999976,None,1149.1129980999976,None,2,4.725550699979067,1149.1129980999976,None,1153.8916930000123,None,1153.8916930000123,None,1154.4140102000092,None,1154.4140102000092,None,1154.4140102000092,None,f,1.023978499986697,1154.4140102000092,None,sing37,001,2019_Nov_14_1628,ProdFawcett_Revision2019,3.2.3,60.046680295190555,
,,,,66,0,66,0,,,,,,,,,,,,,1160.0511763000104,None,,,,,,,,,,,,,,,,,,,,,,balance,B_aloud,66,17,1155.9954276999924,None,1155.9954276999924,None,1155.9954276999924,None,6,3.2903975999797694,1155.9954276999924,None,1159.3375271999976,None,1159.3375271999976,None,1159.8574240000162,None,1159.8574240000162,None,1159.8574240000162,None,r,0.15623230001074262,1159.8574240000162,None,sing37,001,2019_Nov_14_1628,ProdFawcett_Revision2019,3.2.3,60.046680295190555,
,,,,67,0,67,0,,,,,,,,,,,,,1165.6224229999934,None,,,,,,,,,,,,,,,,,,,,,,capital,A_silent,67,40,1160.572721000004,None,1160.572721000004,None,1160.572721000004,None,3,4.176883400010411,1160.572721000004,None,1164.805696800002,None,1164.805696800002,None,1165.324708,None,1165.324708,None,1165.324708,None,f,0.2569204000174068,1165.324708,None,sing37,001,2019_Nov_14_1628,ProdFawcett_Revision2019,3.2.3,60.046680295190555,
,,,,68,0,68,0,,,,,,,,,,,,,1168.6140992,None,,,,,,,,,,,,,,,,,,,,,,track,C_sing,68,334,1166.1418227000104,None,1166.1418227000104,None,1166.1418227000104,None,5,1.6158104999922216,1166.1418227000104,None,1167.8023446000007,None,1167.8023446000007,None,1168.3235497999995,None,1168.3235497999995,None,1168.3235497999995,None,f,0.26619309998932295,1168.3235497999995,None,sing37,001,2019_Nov_14_1628,ProdFawcett_Revision2019,3.2.3,60.046680295190555,
,,,,69,0,69,0,,,,,,,,,,,,,1172.9257706000062,None,,,,,,,,,,,,,,,,,,,,,,dream,D_new,69,104,1169.143567799998,None,1169.143567799998,None,1169.143567799998,None,6,2.198407500021858,1169.143567799998,None,1171.3907028000103,None,1171.3907028000103,None,1171.904585100012,None,1171.904585100012,None,1171.904585100012,None,r,0.9813644999812823,1171.904585100012,None,sing37,001,2019_Nov_14_1628,ProdFawcett_Revision2019,3.2.3,60.046680295190555,
,,,,70,0,70,0,,,,,,,,,,,,,1178.8723728999903,None,,,,,,,,,,,,,,,,,,,,,,solution,D_new,70,294,1173.4425117000064,None,1173.4425117000064,None,1173.4425117000064,None,3,4.403064200014342,1173.4425117000064,None,1177.9039484999957,None,1177.9039484999957,None,1178.4227757999906,None,1178.4227757999906,None,1178.4227757999906,None,f,0.4146366000059061,1178.4227757999906,None,sing37,001,2019_Nov_14_1628,ProdFawcett_Revision2019,3.2.3,60.046680295190555,
,,,,71,0,71,0,,,,,,,,,,,,,1184.5628232000163,None,,,,,,,,,,,,,,,,,,,,,,tough,B_aloud,71,333,1179.3975772999984,None,1179.3975772999984,None,1179.3975772999984,None,4,1.9603278000140563,1179.3975772999984,None,1181.409980700002,None,1181.409980700002,None,1181.9259611000016,None,1181.9259611000016,None,1181.9259611000016,None,f,2.591801700007636,1181.9259611000016,None,sing37,001,2019_Nov_14_1628,ProdFawcett_Revision2019,3.2.3,60.046680295190555,
,,,,72,0,72,0,,,,,,,,,,,,,1189.6574217000161,None,,,,,,,,,,,,,,,,,,,,,,hearing,D_new,72,150,1185.0801586000016,None,1185.0801586000016,None,1185.0801586000016,None,1,3.4855403000256047,1185.0801586000016,None,1188.623065199994,None,1188.623065199994,None,1189.1345712000038,None,1189.1345712000038,None,1189.1345712000038,None,n,0.4871900000143796,1189.1345712000038,None,sing37,001,2019_Nov_14_1628,ProdFawcett_Revision2019,3.2.3,60.046680295190555,
,,,,73,0,73,0,,,,,,,,,,,,,1194.7081339000142,None,,,,,,,,,,,,,,,,,,,,,,beauty,C_sing,73,18,1190.1803260000015,None,1190.1803260000015,None,1190.1803260000015,None,5,3.5536104000057094,1190.1803260000015,None,1193.788837400003,None,1193.788837400003,None,1194.3133627999923,None,1194.3133627999923,None,1194.3133627999923,None,f,0.3644265000184532,1194.3133627999923,None,sing37,001,2019_Nov_14_1628,ProdFawcett_Revision2019,3.2.3,60.046680295190555,
,,,,74,0,74,0,,,,,,,,,,,,,1198.7079998000117,None,,,,,,,,,,,,,,,,,,,,,,sight,D_new,74,286,1195.23240909999,None,1195.23240909999,None,1195.23240909999,None,1,2.597201299999142,1195.23240909999,None,1197.889750000002,None,1197.889750000002,None,1198.4096949000086,None,1198.4096949000086,None,1198.4096949000086,None,n,0.26806430000578985,1198.4096949000086,None,sing37,001,2019_Nov_14_1628,ProdFawcett_Revision2019,3.2.3,60.046680295190555,
,,,,75,0,75,0,,,,,,,,,,,,,1202.132796299993,None,,,,,,,,,,,,,,,,,,,,,,south,D_new,75,296,1199.2252025000053,None,1199.2252025000053,None,1199.2252025000053,None,1,2.0286096000054386,1199.2252025000053,None,1201.3042579999892,None,1201.3042579999892,None,1201.8279451999988,None,1201.8279451999988,None,1201.8279451999988,None,n,0.2658301000192296,1201.8279451999988,None,sing37,001,2019_Nov_14_1628,ProdFawcett_Revision2019,3.2.3,60.046680295190555,
,,,,76,0,76,0,,,,,,,,,,,,,1212.6114769999986,None,,,,,,,,,,,,,,,,,,,,,,position,B_aloud,76,229,1202.6602621999918,None,1202.6602621999918,None,1202.6602621999918,None,2,8.081586999993306,1202.6602621999918,None,1210.7911288000178,None,1210.7911288000178,None,1211.3078374000033,None,1211.3078374000033,None,1211.3078374000033,None,n,1.2577249000023585,1211.3078374000033,None,sing37,001,2019_Nov_14_1628,ProdFawcett_Revision2019,3.2.3,60.046680295190555,
,,,,77,0,77,0,,,,,,,,,,,,,1216.0122580000025,None,,,,,,,,,,,,,,,,,,,,,,empty,D_new,77,112,1213.1284499000176,None,1213.1284499000176,None,1213.1284499000176,None,6,1.7808832000009716,1213.1284499000176,None,1214.9423433000047,None,1214.9423433000047,None,1215.4604319999926,None,1215.4604319999926,None,1215.4604319999926,None,r,0.5053644999861717,1215.4604319999926,None,sing37,001,2019_Nov_14_1628,ProdFawcett_Revision2019,3.2.3,60.046680295190555,
,,,,78,0,78,0,,,,,,,,,,,,,1222.466972299997,None,,,,,,,,,,,,,,,,,,,,,,speech,D_new,78,298,1216.5367441000126,None,1216.5367441000126,None,1216.5367441000126,None,3,3.732892300002277,1216.5367441000126,None,1220.3219817999925,None,1220.3219817999925,None,1220.8407588000118,None,1220.8407588000118,None,1220.8407588000118,None,f,1.5970272999838926,1220.8407588000118,None,sing37,001,2019_Nov_14_1628,ProdFawcett_Revision2019,3.2.3,60.046680295190555,
,,,,79,0,79,0,,,,,,,,,,,,,1227.5438432999945,None,,,,,,,,,,,,,,,,,,,,,,guide,B_aloud,79,147,1222.9961078999913,None,1222.9961078999913,None,1222.9961078999913,None,5,3.6416768999770284,1222.9961078999913,None,1226.6906527999963,None,1226.6906527999963,None,1227.2127825999924,None,1227.2127825999924,None,1227.2127825999924,None,f,0.2891191999951843,1227.2127825999924,None,sing37,001,2019_Nov_14_1628,ProdFawcett_Revision2019,3.2.3,60.046680295190555,
,,,,80,0,80,0,,,,,,,,,,,,,1231.2274455000006,None,,,,,,,,,,,,,,,,,,,,,,quantity,D_new,80,245,1228.067955800012,None,1228.067955800012,None,1228.067955800012,None,1,2.2497440000006463,1228.067955800012,None,1230.3744446999917,None,1230.3744446999917,None,1230.8952651,None,1230.8952651,None,1230.8952651,None,n,0.2944701999949757,1230.8952651,None,sing37,001,2019_Nov_14_1628,ProdFawcett_Revision2019,3.2.3,60.046680295190555,
,,,,81,0,81,0,,,,,,,,,,,,,1235.880043400015,None,,,,,,,,,,,,,,,,,,,,,,finish,B_aloud,81,130,1231.7467804999906,None,1231.7467804999906,None,1231.7467804999906,None,6,2.450903399992967,1231.7467804999906,None,1234.2582434999931,None,1234.2582434999931,None,1234.7760684000095,None,1234.7760684000095,None,1234.7760684000095,None,r,1.0696684999857098,1234.7760684000095,None,sing37,001,2019_Nov_14_1628,ProdFawcett_Revision2019,3.2.3,60.046680295190555,
,,,,82,0,82,0,,,,,,,,,,,,,1240.9451299000066,None,,,,,,,,,,,,,,,,,,,,,,character,D_new,82,46,1236.396386700013,None,1236.396386700013,None,1236.396386700013,None,4,3.6815312999824528,1236.396386700013,None,1240.1232948999968,None,1240.1232948999968,None,1240.6443251000019,None,1240.6443251000019,None,1240.6443251000019,None,f,0.2575348000100348,1240.6443251000019,None,sing37,001,2019_Nov_14_1628,ProdFawcett_Revision2019,3.2.3,60.046680295190555,
,,,,83,0,83,0,,,,,,,,,,,,,1244.0113023000013,None,,,,,,,,,,,,,,,,,,,,,,author,D_new,83,15,1241.4646638999984,None,1241.4646638999984,None,1241.4646638999984,None,1,1.6294384999782778,1241.4646638999984,None,1243.1474745000014,None,1243.1474745000014,None,1243.6691694000037,None,1243.6691694000037,None,1243.6691694000037,None,n,0.3126036999747157,1243.6691694000037,None,sing37,001,2019_Nov_14_1628,ProdFawcett_Revision2019,3.2.3,60.046680295190555,
,,,,84,0,84,0,,,,,,,,,,,,,1248.1117924000137,None,,,,,,,,,,,,,,,,,,,,,,staff,D_new,84,301,1244.5332610000041,None,1244.5332610000041,None,1244.5332610000041,None,1,2.6484586000151467,1244.5332610000041,None,1247.2234449000098,None,1247.2234449000098,None,1247.743648100004,None,1247.743648100004,None,1247.743648100004,None,n,0.32607850001659244,1247.743648100004,None,sing37,001,2019_Nov_14_1628,ProdFawcett_Revision2019,3.2.3,60.046680295190555,
,,,,85,0,85,0,,,,,,,,,,,,,1252.3345839999965,None,,,,,,,,,,,,,,,,,,,,,,discovery,C_sing,85,95,1248.6356859999942,None,1248.6356859999942,None,1248.6356859999942,None,5,3.0019433999841567,1248.6356859999942,None,1251.7047466000076,None,1251.7047466000076,None,1252.2153645000071,None,1252.2153645000071,None,1252.2153645000071,None,f,0.09423980000428855,1252.2153645000071,None,sing37,001,2019_Nov_14_1628,ProdFawcett_Revision2019,3.2.3,60.046680295190555,
,,,,86,0,86,0,,,,,,,,,,,,,1255.0943005000008,None,,,,,,,,,,,,,,,,,,,,,,territory,C_sing,86,324,1252.8650270999933,None,1252.8650270999933,None,1252.8650270999933,None,6,1.5407129999948665,1252.8650270999933,None,1254.4563677000115,None,1254.4563677000115,None,1254.979466699995,None,1254.979466699995,None,1254.979466699995,None,f,0.07434650001232512,1254.979466699995,None,sing37,001,2019_Nov_14_1628,ProdFawcett_Revision2019,3.2.3,60.046680295190555,
,,,,87,0,87,0,,,,,,,,,,,,,1260.379510400002,None,,,,,,,,,,,,,,,,,,,,,,mankind,D_new,87,178,1255.6192028000078,None,1255.6192028000078,None,1255.6192028000078,None,3,3.8508107000088785,1255.6192028000078,None,1259.524693400017,None,1259.524693400017,None,1260.0477518000116,None,1260.0477518000116,None,1260.0477518000116,None,f,0.3019694999966305,1260.0477518000116,None,sing37,001,2019_Nov_14_1628,ProdFawcett_Revision2019,3.2.3,60.046680295190555,
,,,,88,0,88,0,,,,,,,,,,,,,1266.0030582000036,None,,,,,,,,,,,,,,,,,,,,,,society,C_sing,88,293,1260.8989179999917,None,1260.8989179999917,None,1260.8989179999917,None,6,4.234599299990805,1260.8989179999917,None,1265.1943590000155,None,1265.1943590000155,None,1265.7118319,None,1265.7118319,None,1265.7118319,None,f,0.24593629999435507,1265.7118319,None,sing37,001,2019_Nov_14_1628,ProdFawcett_Revision2019,3.2.3,60.046680295190555,
,,,,89,0,89,0,,,,,,,,,,,,,1275.06875820001,None,,,,,,,,,,,,,,,,,,,,,,expansion,D_new,89,123,1266.5295880000049,None,1266.5295880000049,None,1266.5295880000049,None,3,5.476056899991818,1266.5295880000049,None,1272.0542387000169,None,1272.0542387000169,None,1272.5886288000038,None,1272.5886288000038,None,1272.5886288000038,None,n,2.4487650000082795,1272.5886288000038,None,sing37,001,2019_Nov_14_1628,ProdFawcett_Revision2019,3.2.3,60.046680295190555,
,,,,90,0,90,0,,,,,,,,,,,,,1280.513319699996,None,,,,,,,,,,,,,,,,,,,,,,space,D_new,90,297,1275.6004919999978,None,1275.6004919999978,None,1275.6004919999978,None,5,4.0453345000278205,1275.6004919999978,None,1279.6968441999925,None,1279.6968441999925,None,1280.2122863999975,None,1280.2122863999975,None,1280.2122863999975,None,r,0.2574687000014819,1280.2122863999975,None,sing37,001,2019_Nov_14_1628,ProdFawcett_Revision2019,3.2.3,60.046680295190555,
,,,,91,0,91,0,,,,,,,,,,,,,1285.5644546000112,None,,,,,,,,,,,,,,,,,,,,,,measure,B_aloud,91,184,1281.0333437999943,None,1281.0333437999943,None,1281.0333437999943,None,6,3.58051559998421,1281.0333437999943,None,1284.6530341999896,None,1284.6530341999896,None,1285.180245399999,None,1285.180245399999,None,1285.180245399999,None,r,0.35353149997536093,1285.180245399999,None,sing37,001,2019_Nov_14_1628,ProdFawcett_Revision2019,3.2.3,60.046680295190555,
,,,,92,0,92,0,,,,,,,,,,,,,1288.3269700999954,None,,,,,,,,,,,,,,,,,,,,,,subject,C_sing,92,312,1286.08716190001,None,1286.08716190001,None,1286.08716190001,None,1,1.598566500004381,1286.08716190001,None,1287.7554963000002,None,1287.7554963000002,None,1288.2729249999975,None,1288.2729249999975,None,1288.2729249999975,None,n,0.004676100012147799,1288.2729249999975,None,sing37,001,2019_Nov_14_1628,ProdFawcett_Revision2019,3.2.3,60.046680295190555,
,,,,93,0,93,0,,,,,,,,,,,,,1292.748713500012,None,,,,,,,,,,,,,,,,,,,,,,suggestion,C_sing,93,314,1288.852361600002,None,1288.852361600002,None,1288.852361600002,None,1,1.8574219000001904,1288.852361600002,None,1290.763861799991,None,1290.763861799991,None,1291.2814931999892,None,1291.2814931999892,None,1291.2814931999892,None,n,1.4362777999776881,1291.2814931999892,None,sing37,001,2019_Nov_14_1628,ProdFawcett_Revision2019,3.2.3,60.046680295190555,
,,,,94,0,94,0,,,,,,,,,,,,,1296.127813500003,None,,,,,,,,,,,,,,,,,,,,,,brilliant,D_new,94,30,1293.258993800002,None,1293.258993800002,None,1293.258993800002,None,3,2.2426223999937065,1293.258993800002,None,1295.5411344000022,None,1295.5411344000022,None,1296.0740100000112,None,1296.0740100000112,None,1296.0740100000112,None,n,0.019450899999355897,1296.0740100000112,None,sing37,001,2019_Nov_14_1628,ProdFawcett_Revision2019,3.2.3,60.046680295190555,
,,,,95,0,95,0,,,,,,,,,,,,,1306.5478794999945,None,,,,,,,,,,,,,,,,,,,,,,century,A_silent,95,45,1296.6484349000093,None,1296.6484349000093,None,1296.6484349000093,None,3,6.613536499993643,1296.6484349000093,None,1303.3117767999938,None,1303.3117767999938,None,1303.8325528000132,None,1303.8325528000132,None,1303.8325528000132,None,f,2.685255699994741,1303.8325528000132,None,sing37,001,2019_Nov_14_1628,ProdFawcett_Revision2019,3.2.3,60.046680295190555,
,,,,96,0,96,0,,,,,,,,,,,,,1310.3836433000106,None,,,,,,,,,,,,,,,,,,,,,,object,D_new,96,204,1307.0746624000021,None,1307.0746624000021,None,1307.0746624000021,None,6,1.5870455999975093,1307.0746624000021,None,1308.7154111000127,None,1308.7154111000127,None,1309.2380979000009,None,1309.2380979000009,None,1309.2380979000009,None,f,1.1035875999950804,1309.2380979000009,None,sing37,001,2019_Nov_14_1628,ProdFawcett_Revision2019,3.2.3,60.046680295190555,
,,,,97,0,97,0,,,,,,,,,,,,,1314.2814440999937,None,,,,,,,,,,,,,,,,,,,,,,cross,B_aloud,97,80,1310.901146899996,None,1310.901146899996,None,1310.901146899996,None,6,2.528738799999701,1310.901146899996,None,1313.4841787999903,None,1313.4841787999903,None,1313.9988487999944,None,1313.9988487999944,None,1313.9988487999944,None,r,0.2388214000093285,1313.9988487999944,None,sing37,001,2019_Nov_14_1628,ProdFawcett_Revision2019,3.2.3,60.046680295190555,
,,,,98,0,98,0,,,,,,,,,,,,,1317.299196900014,None,,,,,,,,,,,,,,,,,,,,,,bicycle,D_new,98,21,1314.805283499998,None,1314.805283499998,None,1314.805283499998,None,1,1.5365586999978404,1314.805283499998,None,1316.393958700006,None,1316.393958700006,None,1316.9213535000163,None,1316.9213535000163,None,1316.9213535000163,None,n,0.3405083999969065,1316.9213535000163,None,sing37,001,2019_Nov_14_1628,ProdFawcett_Revision2019,3.2.3,60.046680295190555,
,,,,99,0,99,0,,,,,,,,,,,,,1320.5001171999902,None,,,,,,,,,,,,,,,,,,,,,,budget,D_new,99,34,1317.8326728999964,None,1317.8326728999964,None,1317.8326728999964,None,1,1.7409007000096608,1317.8326728999964,None,1319.628872900008,None,1319.628872900008,None,1320.1569776000106,None,1320.1569776000106,None,1320.1569776000106,None,n,0.3127092999930028,1320.1569776000106,None,sing37,001,2019_Nov_14_1628,ProdFawcett_Revision2019,3.2.3,60.046680295190555,
,,,,100,0,100,0,,,,,,,,,,,,,1326.7456641000172,None,,,,,,,,,,,,,,,,,,,,,,quick,D_new,100,248,1321.0208884000021,None,1321.0208884000021,None,1321.0208884000021,None,3,4.032771199999843,1321.0208884000021,None,1325.0933195000107,None,1325.0933195000107,None,1325.6187051000015,None,1325.6187051000015,None,1325.6187051000015,None,f,1.0989691999857314,1325.6187051000015,None,sing37,001,2019_Nov_14_1628,ProdFawcett_Revision2019,3.2.3,60.046680295190555,
,,,,101,0,101,0,,,,,,,,,,,,,1333.4341246999975,None,,,,,,,,,,,,,,,,,,,,,,impact,D_new,101,157,1327.2671315000043,None,1327.2671315000043,None,1327.2671315000043,None,3,5.282952799985651,1327.2671315000043,None,1332.5944539000047,None,1332.5944539000047,None,1333.126992400008,None,1333.126992400008,None,1333.126992400008,None,f,0.2627517999790143,1333.126992400008,None,sing37,001,2019_Nov_14_1628,ProdFawcett_Revision2019,3.2.3,60.046680295190555,
,,,,102,0,102,0,,,,,,,,,,,,,1336.3028582000115,None,,,,,,,,,,,,,,,,,,,,,,discussion,D_new,102,96,1333.9569188000169,None,1333.9569188000169,None,1333.9569188000169,None,1,1.4565942999906838,1333.9569188000169,None,1335.4406917000015,None,1335.4406917000015,None,1335.9700575000024,None,1335.9700575000024,None,1335.9700575000024,None,n,0.291863899998134,1335.9700575000024,None,sing37,001,2019_Nov_14_1628,ProdFawcett_Revision2019,3.2.3,60.046680295190555,
,,,,103,0,103,0,,,,,,,,,,,,,1341.6356324999942,None,,,,,,,,,,,,,,,,,,,,,,leader,D_new,103,168,1336.8272576000018,None,1336.8272576000018,None,1336.8272576000018,None,6,3.8664332999906037,1336.8272576000018,None,1340.7490127999918,None,1340.7490127999918,None,1341.2673971999902,None,1341.2673971999902,None,1341.2673971999902,None,f,0.3222785000107251,1341.2673971999902,None,sing37,001,2019_Nov_14_1628,ProdFawcett_Revision2019,3.2.3,60.046680295190555,
,,,,104,0,104,0,,,,,,,,,,,,,1346.4974176000105,None,,,,,,,,,,,,,,,,,,,,,,guest,B_aloud,104,146,1342.1581104999932,None,1342.1581104999932,None,1342.1581104999932,None,5,3.263358900003368,1342.1581104999932,None,1345.4489022000053,None,1345.4489022000053,None,1345.971451599995,None,1345.971451599995,None,1345.971451599995,None,f,0.4823657999804709,1345.971451599995,None,sing37,001,2019_Nov_14_1628,ProdFawcett_Revision2019,3.2.3,60.046680295190555,
,,,,105,0,105,0,,,,,,,,,,,,,1354.5429692000034,None,,,,,,,,,,,,,,,,,,,,,,order,D_new,105,207,1347.0260996000143,None,1347.0260996000143,None,1347.0260996000143,None,1,6.076055100013036,1347.0260996000143,None,1353.1433035999944,None,1353.1433035999944,None,1353.6646003999922,None,1353.6646003999922,None,1353.6646003999922,None,n,0.8448475999757648,1353.6646003999922,None,sing37,001,2019_Nov_14_1628,ProdFawcett_Revision2019,3.2.3,60.046680295190555,
,,,,106,0,106,0,,,,,,,,,,,,,1358.7037877000112,None,,,,,,,,,,,,,,,,,,,,,,travel,C_sing,106,338,1355.0680379999976,None,1355.0680379999976,None,1355.0680379999976,None,2,2.9058541000122204,1355.0680379999976,None,1358.0297986000078,None,1358.0297986000078,None,1358.5551447999896,None,1358.5551447999896,None,1358.5551447999896,None,n,0.10654899998917244,1358.5551447999896,None,sing37,001,2019_Nov_14_1628,ProdFawcett_Revision2019,3.2.3,60.046680295190555,
,,,,107,0,107,0,,,,,,,,,,,,,1363.3195650000125,None,,,,,,,,,,,,,,,,,,,,,,meeting,B_aloud,107,187,1359.2242486000177,None,1359.2242486000177,None,1359.2242486000177,None,4,2.7015034000214655,1359.2242486000177,None,1361.9938419999962,None,1361.9938419999962,None,1362.5213831000146,None,1362.5213831000146,None,1362.5213831000146,None,f,0.7649809999857098,1362.5213831000146,None,sing37,001,2019_Nov_14_1628,ProdFawcett_Revision2019,3.2.3,60.046680295190555,
,,,,108,0,108,0,,,,,,,,,,,,,1366.0028579999926,None,,,,,,,,,,,,,,,,,,,,,,strain,A_silent,108,308,1363.8385451000067,None,1363.8385451000067,None,1363.8385451000067,None,1,1.366795000009006,1363.8385451000067,None,1365.2480825000093,None,1365.2480825000093,None,1365.759740700014,None,1365.759740700014,None,1365.759740700014,None,n,0.198119200009387,1365.759740700014,None,sing37,001,2019_Nov_14_1628,ProdFawcett_Revision2019,3.2.3,60.046680295190555,
,,,,109,0,109,0,,,,,,,,,,,,,1369.3754501999938,None,,,,,,,,,,,,,,,,,,,,,,payment,D_new,109,215,1366.5253606000042,None,1366.5253606000042,None,1366.5253606000042,None,1,2.0164253000111785,1366.5253606000042,None,1368.6028878999932,None,1368.6028878999932,None,1369.1187074999907,None,1369.1187074999907,None,1369.1187074999907,None,n,0.20712760000606067,1369.1187074999907,None,sing37,001,2019_Nov_14_1628,ProdFawcett_Revision2019,3.2.3,60.046680295190555,
,,,,110,0,110,0,,,,,,,,,,,,,1373.1240715000022,None,,,,,,,,,,,,,,,,,,,,,,command,D_new,110,60,1369.9049964000005,None,1369.9049964000005,None,1369.9049964000005,None,2,2.468762600008631,1369.9049964000005,None,1372.4156144000008,None,1372.4156144000008,None,1372.9363999000052,None,1372.9363999000052,None,1372.9363999000052,None,n,0.14985929999966174,1372.9363999000052,None,sing37,001,2019_Nov_14_1628,ProdFawcett_Revision2019,3.2.3,60.046680295190555,
,,,,111,0,111,0,,,,,,,,,,,,,1377.1935320000048,None,,,,,,,,,,,,,,,,,,,,,,turkey,D_new,111,342,1373.6561137000099,None,1373.6561137000099,None,1373.6561137000099,None,1,2.8456039000011515,1373.6561137000099,None,1376.5502754999907,None,1376.5502754999907,None,1377.0724593999912,None,1377.0724593999912,None,1377.0724593999912,None,n,0.08511029998771846,1377.0724593999912,None,sing37,001,2019_Nov_14_1628,ProdFawcett_Revision2019,3.2.3,60.046680295190555,
,,,,112,0,112,0,,,,,,,,,,,,,1380.0024328000145,None,,,,,,,,,,,,,,,,,,,,,,poetry,D_new,112,225,1377.7197895999998,None,1377.7197895999998,None,1377.7197895999998,None,3,1.6619425000099,1377.7197895999998,None,1379.4317928999953,None,1379.4317928999953,None,1379.952743300004,None,1379.952743300004,None,1379.952743300004,None,f,0.020819999976083636,1379.952743300004,None,sing37,001,2019_Nov_14_1628,ProdFawcett_Revision2019,3.2.3,60.046680295190555,
,,,,113,0,113,0,,,,,,,,,,,,,1383.056923199998,None,,,,,,,,,,,,,,,,,,,,,,point,A_silent,113,226,1380.5238239000028,None,1380.5238239000028,None,1380.5238239000028,None,6,1.7539626999932807,1380.5238239000028,None,1382.3277326000098,None,1382.3277326000098,None,1382.8524554999894,None,1382.8524554999894,None,1382.8524554999894,None,r,0.16130000000703149,1382.8524554999894,None,sing37,001,2019_Nov_14_1628,ProdFawcett_Revision2019,3.2.3,60.046680295190555,
,,,,114,0,114,0,,,,,,,,,,,,,1390.2054198000114,None,,,,,,,,,,,,,,,,,,,,,,level,A_silent,114,170,1383.5770244000014,None,1383.5770244000014,None,1383.5770244000014,None,3,4.988718199980212,1383.5770244000014,None,1388.6189964000077,None,1388.6189964000077,None,1389.143943700008,None,1389.143943700008,None,1389.143943700008,None,n,1.021822400012752,1389.143943700008,None,sing37,001,2019_Nov_14_1628,ProdFawcett_Revision2019,3.2.3,60.046680295190555,
,,,,115,0,115,0,,,,,,,,,,,,,1393.7739023000177,None,,,,,,,,,,,,,,,,,,,,,,working,D_new,115,357,1390.7266955999949,None,1390.7266955999949,None,1390.7266955999949,None,6,2.0795032999885734,1390.7266955999949,None,1392.8535401000117,None,1392.8535401000117,None,1393.3711119999934,None,1393.3711119999934,None,1393.3711119999934,None,f,0.36267440000665374,1393.3711119999934,None,sing37,001,2019_Nov_14_1628,ProdFawcett_Revision2019,3.2.3,60.046680295190555,
,,,,116,0,116,0,,,,,,,,,,,,,1396.9718399000121,None,,,,,,,,,,,,,,,,,,,,,,plane,C_sing,116,223,1394.290158399992,None,1394.290158399992,None,1394.290158399992,None,2,1.8518282000150066,1394.290158399992,None,1396.182188100007,None,1396.182188100007,None,1396.7007278999954,None,1396.7007278999954,None,1396.7007278999954,None,n,0.2410084999864921,1396.7007278999954,None,sing37,001,2019_Nov_14_1628,ProdFawcett_Revision2019,3.2.3,60.046680295190555,
,,,,117,0,117,0,,,,,,,,,,,,,1400.6636247000133,None,,,,,,,,,,,,,,,,,,,,,,write,C_sing,117,358,1397.4972598000022,None,1397.4972598000022,None,1397.4972598000022,None,4,2.1005563999933656,1397.4972598000022,None,1399.6558812000148,None,1399.6558812000148,None,1400.1732618999959,None,1400.1732618999959,None,1400.1732618999959,None,f,0.4646556999941822,1400.1732618999959,None,sing37,001,2019_Nov_14_1628,ProdFawcett_Revision2019,3.2.3,60.046680295190555,
,,,,118,0,118,0,,,,,,,,,,,,,1408.3397089999926,None,,,,,,,,,,,,,,,,,,,,,,individual,B_aloud,118,160,1401.1977233999933,None,1401.1977233999933,None,1401.1977233999933,None,2,5.552051700011361,1401.1977233999933,None,1406.810509700008,None,1406.810509700008,None,1407.3232595000009,None,1407.3232595000009,None,1407.3232595000009,None,n,0.9786885000066832,1407.3232595000009,None,sing37,001,2019_Nov_14_1628,ProdFawcett_Revision2019,3.2.3,60.046680295190555,
,,,,119,0,119,0,,,,,,,,,,,,,1413.0388062999991,None,,,,,,,,,,,,,,,,,,,,,,break,B_aloud,119,26,1408.8623146000027,None,1408.8623146000027,None,1408.8623146000027,None,4,2.344024599995464,1408.8623146000027,None,1411.2582041000132,None,1411.2582041000132,None,1411.782430799998,None,1411.782430799998,None,1411.782430799998,None,f,1.2237584999820683,1411.782430799998,None,sing37,001,2019_Nov_14_1628,ProdFawcett_Revision2019,3.2.3,60.046680295190555,
,,,,120,0,120,0,,,,,,,,,,,,,1418.156774300005,None,,,,,,,,,,,,,,,,,,,,,,religion,A_silent,120,258,1413.5674983999925,None,1413.5674983999925,None,1413.5674983999925,None,6,3.7423610999831,1413.5674983999925,None,1417.3585392000095,None,1417.3585392000095,None,1417.878201000014,None,1417.878201000014,None,1417.878201000014,None,r,0.23955909998039715,1417.878201000014,None,sing37,001,2019_Nov_14_1628,ProdFawcett_Revision2019,3.2.3,60.046680295190555,
,,,,121,0,121,0,,,,,,,,,,,,,1421.607136800012,None,,,,,,,,,,,,,,,,,,,,,,platform,D_new,121,224,1418.6756267000164,None,1418.6756267000164,None,1418.6756267000164,None,1,2.034057799988659,1418.6756267000164,None,1420.7540773999935,None,1420.7540773999935,None,1421.2771703999897,None,1421.2771703999897,None,1421.2771703999897,None,n,0.29675949999364093,1421.2771703999897,None,sing37,001,2019_Nov_14_1628,ProdFawcett_Revision2019,3.2.3,60.046680295190555,
,,,,122,0,122,0,,,,,,,,,,,,,1426.4084592,None,,,,,,,,,,,,,,,,,,,,,,business,D_new,122,38,1422.131300500012,None,1422.131300500012,None,1422.131300500012,None,1,3.370320599991828,1422.131300500012,None,1425.5339181000018,None,1425.5339181000018,None,1426.060176900006,None,1426.060176900006,None,1426.060176900006,None,n,0.31423289998201653,1426.060176900006,None,sing37,001,2019_Nov_14_1628,ProdFawcett_Revision2019,3.2.3,60.046680295190555,
,,,,123,0,123,0,,,,,,,,,,,,,1432.042075800011,None,,,,,,,,,,,,,,,,,,,,,,light,D_new,123,171,1426.933000399993,None,1426.933000399993,None,1426.933000399993,None,1,4.464563399989856,1426.933000399993,None,1431.434603600006,None,1431.434603600006,None,1431.9606679000135,None,1431.9606679000135,None,1431.9606679000135,None,n,0.045296199998119846,1431.9606679000135,None,sing37,001,2019_Nov_14_1628,ProdFawcett_Revision2019,3.2.3,60.046680295190555,
,,,,124,0,124,0,,,,,,,,,,,,,1437.5610705,None,,,,,,,,,,,,,,,,,,,,,,principal,D_new,124,236,1432.5628410000063,None,1432.5628410000063,None,1432.5628410000063,None,3,4.1787251999776345,1432.5628410000063,None,1436.7647209000133,None,1436.7647209000133,None,1437.2752769000072,None,1437.2752769000072,None,1437.2752769000072,None,f,0.2584101999818813,1437.2752769000072,None,sing37,001,2019_Nov_14_1628,ProdFawcett_Revision2019,3.2.3,60.046680295190555,
,,,,125,0,125,0,,,,,,,,,,,,,1444.029067800002,None,,,,,,,,,,,,,,,,,,,,,,guard,D_new,125,145,1438.077224400011,None,1438.077224400011,None,1438.077224400011,None,1,5.096480200008955,1438.077224400011,None,1443.1981154000096,None,1443.1981154000096,None,1443.7140618000121,None,1443.7140618000121,None,1443.7140618000121,None,n,0.2833985000033863,1443.7140618000121,None,sing37,001,2019_Nov_14_1628,ProdFawcett_Revision2019,3.2.3,60.046680295190555,
,,,,126,0,126,0,,,,,,,,,,,,,1449.4253155000042,None,,,,,,,,,,,,,,,,,,,,,,fellow,D_new,126,126,1444.5462195000146,None,1444.5462195000146,None,1444.5462195000146,None,1,3.5555912999843713,1444.5462195000146,None,1448.1552051999897,None,1448.1552051999897,None,1448.6797673999972,None,1448.6797673999972,None,1448.6797673999972,None,n,0.7021337000187486,1448.6797673999972,None,sing37,001,2019_Nov_14_1628,ProdFawcett_Revision2019,3.2.3,60.046680295190555,
,,,,127,0,127,0,,,,,,,,,,,,,1453.7621479000081,None,,,,,,,,,,,,,,,,,,,,,,interview,D_new,127,165,1449.9514283000026,None,1449.9514283000026,None,1449.9514283000026,None,3,2.934167500003241,1449.9514283000026,None,1452.9300073999912,None,1452.9300073999912,None,1453.4492488999967,None,1453.4492488999967,None,1453.4492488999967,None,f,0.2685244000167586,1453.4492488999967,None,sing37,001,2019_Nov_14_1628,ProdFawcett_Revision2019,3.2.3,60.046680295190555,
,,,,128,0,128,0,,,,,,,,,,,,,1459.7446207999892,None,,,,,,,,,,,,,,,,,,,,,,dance,B_aloud,128,84,1454.2947470000072,None,1454.2947470000072,None,1454.2947470000072,None,6,2.9992854000010993,1454.2947470000072,None,1457.3316570000025,None,1457.3316570000025,None,1457.8604838000028,None,1457.8604838000028,None,1457.8604838000028,None,f,1.8412461999978404,1457.8604838000028,None,sing37,001,2019_Nov_14_1628,ProdFawcett_Revision2019,3.2.3,60.046680295190555,
,,,,129,0,129,0,,,,,,,,,,,,,1465.7696482000174,None,,,,,,,,,,,,,,,,,,,,,,smooth,D_new,129,292,1460.2618940999964,None,1460.2618940999964,None,1460.2618940999964,None,3,3.7919629999960307,1460.2618940999964,None,1464.104549999989,None,1464.104549999989,None,1464.6253042000171,None,1464.6253042000171,None,1464.6253042000171,None,f,1.108451399981277,1464.6253042000171,None,sing37,001,2019_Nov_14_1628,ProdFawcett_Revision2019,3.2.3,60.046680295190555,
,,,,130,0,130,0,,,,,,,,,,,,,1470.7151740000118,None,,,,,,,,,,,,,,,,,,,,,,touch,D_new,130,332,1466.2947255999898,None,1466.2947255999898,None,1466.2947255999898,None,6,3.151213100005407,1466.2947255999898,None,1469.4829995000036,None,1469.4829995000036,None,1470.0086649000004,None,1470.0086649000004,None,1470.0086649000004,None,f,0.6693985000019893,1470.0086649000004,None,sing37,001,2019_Nov_14_1628,ProdFawcett_Revision2019,3.2.3,60.046680295190555,
,,,,131,0,131,0,,,,,,,,,,,,,1477.361171800003,None,,,,,,,,,,,,,,,,,,,,,,short,A_silent,131,285,1471.2493805999984,None,1471.2493805999984,None,1471.2493805999984,None,3,3.7245657999883406,1471.2493805999984,None,1475.0219855000032,None,1475.0219855000032,None,1475.5418793999997,None,1475.5418793999997,None,1475.5418793999997,None,f,1.7840100000030361,1475.5418793999997,None,sing37,001,2019_Nov_14_1628,ProdFawcett_Revision2019,3.2.3,60.046680295190555,
,,,,132,0,132,0,,,,,,,,,,,,,1480.9108927999914,None,,,,,,,,,,,,,,,,,,,,,,route,D_new,132,267,1477.8788577000087,None,1477.8788577000087,None,1477.8788577000087,None,1,1.790938299993286,1477.8788577000087,None,1479.7152582000126,None,1479.7152582000126,None,1480.2486978000088,None,1480.2486978000088,None,1480.2486978000088,None,n,0.6294235000095796,1480.2486978000088,None,sing37,001,2019_Nov_14_1628,ProdFawcett_Revision2019,3.2.3,60.046680295190555,
,,,,133,0,133,0,,,,,,,,,,,,,1484.695066699991,None,,,,,,,,,,,,,,,,,,,,,,dispute,D_new,133,99,1481.4303745999932,None,1481.4303745999932,None,1481.4303745999932,None,1,2.28742800001055,1481.4303745999932,None,1483.7738160000008,None,1483.7738160000008,None,1484.295086099999,None,1484.295086099999,None,1484.295086099999,None,n,0.3589401000062935,1484.295086099999,None,sing37,001,2019_Nov_14_1628,ProdFawcett_Revision2019,3.2.3,60.046680295190555,
,,,,134,0,134,0,,,,,,,,,,,,,1491.6954278000048,None,,,,,,,,,,,,,,,,,,,,,,second,D_new,134,278,1485.1966437000083,None,1485.1966437000083,None,1485.1966437000083,None,1,5.393281399999978,1485.1966437000083,None,1490.6330763000005,None,1490.6330763000005,None,1491.1638887000154,None,1491.1638887000154,None,1491.1638887000154,None,n,0.4983566000009887,1491.1638887000154,None,sing37,001,2019_Nov_14_1628,ProdFawcett_Revision2019,3.2.3,60.046680295190555,
,,,,135,0,135,0,,,,,,,,,,,,,1495.296636300016,None,,,,,,,,,,,,,,,,,,,,,,dozen,D_new,135,102,1492.2199041999993,None,1492.2199041999993,None,1492.2199041999993,None,3,2.3859135000093374,1492.2199041999993,None,1494.6547846000176,None,1494.6547846000176,None,1495.1846215999976,None,1495.1846215999976,None,1495.1846215999976,None,f,0.06927969999378547,1495.1846215999976,None,sing37,001,2019_Nov_14_1628,ProdFawcett_Revision2019,3.2.3,60.046680295190555,
,,,,136,0,136,0,,,,,,,,,,,,,1500.4308589000138,None,,,,,,,,,,,,,,,,,,,,,,account,C_sing,136,1,1495.814194400009,None,1495.814194400009,None,1495.814194400009,None,4,3.879768500017235,1495.814194400009,None,1499.740555700002,None,1499.740555700002,None,1500.259506900009,None,1500.259506900009,None,1500.259506900009,None,f,0.13039199999184348,1500.259506900009,None,sing37,001,2019_Nov_14_1628,ProdFawcett_Revision2019,3.2.3,60.046680295190555,
,,,,137,0,137,0,,,,,,,,,,,,,1503.7278035999916,None,,,,,,,,,,,,,,,,,,,,,,blind,A_silent,137,24,1500.9489423999912,None,1500.9489423999912,None,1500.9489423999912,None,6,1.8648092999937944,1500.9489423999912,None,1502.8599445,None,1502.8599445,None,1503.379087600013,None,1503.379087600013,None,1503.379087600013,None,r,0.3067960000189487,1503.379087600013,None,sing37,001,2019_Nov_14_1628,ProdFawcett_Revision2019,3.2.3,60.046680295190555,
,,,,138,0,138,0,,,,,,,,,,,,,1510.0786627999914,None,,,,,,,,,,,,,,,,,,,,,,skill,D_new,138,289,1504.2492077999923,None,1504.2492077999923,None,1504.2492077999923,None,1,4.852401799988002,1504.2492077999923,None,1509.1445698000025,None,1509.1445698000025,None,1509.6533840000047,None,1509.6533840000047,None,1509.6533840000047,None,n,0.38473550000344403,1509.6533840000047,None,sing37,001,2019_Nov_14_1628,ProdFawcett_Revision2019,3.2.3,60.046680295190555,
,,,,139,0,139,0,,,,,,,,,,,,,1513.3296788000152,None,,,,,,,,,,,,,,,,,,,,,,patient,D_new,139,213,1510.5996330000053,None,1510.5996330000053,None,1510.5996330000053,None,4,1.8781396000122186,1510.5996330000053,None,1512.5247681000037,None,1512.5247681000037,None,1513.0457902000053,None,1513.0457902000053,None,1513.0457902000053,None,f,0.24008869999670424,1513.0457902000053,None,sing37,001,2019_Nov_14_1628,ProdFawcett_Revision2019,3.2.3,60.046680295190555,
,,,,140,0,140,0,,,,,,,,,,,,,1522.2968402999977,None,,,,,,,,,,,,,,,,,,,,,,division,D_new,140,101,1513.850197599997,None,1513.850197599997,None,1513.850197599997,None,3,6.571609199978411,1513.850197599997,None,1520.4797480000125,None,1520.4797480000125,None,1521.0014957000094,None,1521.0014957000094,None,1521.0014957000094,None,f,1.252335099998163,1521.0014957000094,None,sing37,001,2019_Nov_14_1628,ProdFawcett_Revision2019,3.2.3,60.046680295190555,
,,,,141,0,141,0,,,,,,,,,,,,,1525.9797448000172,None,,,,,,,,,,,,,,,,,,,,,,hunger,A_silent,141,155,1522.8208271999902,None,1522.8208271999902,None,1522.8208271999902,None,1,2.2571049999969546,1522.8208271999902,None,1525.1277324999974,None,1525.1277324999974,None,1525.651891000016,None,1525.651891000016,None,1525.651891000016,None,n,0.2899108999990858,1525.651891000016,None,sing37,001,2019_Nov_14_1628,ProdFawcett_Revision2019,3.2.3,60.046680295190555,
,,,,142,0,142,0,,,,,,,,,,,,,1533.9801575000165,None,,,,,,,,,,,,,,,,,,,,,,silence,C_sing,142,288,1526.5033501000144,None,1526.5033501000144,None,1526.5033501000144,None,6,6.678756000008434,1526.5033501000144,None,1533.2267993999994,None,1533.2267993999994,None,1533.7462801999936,None,1533.7462801999936,None,1533.7462801999936,None,r,0.1956361000193283,1533.7462801999936,None,sing37,001,2019_Nov_14_1628,ProdFawcett_Revision2019,3.2.3,60.046680295190555,
,,,,143,0,143,0,,,,,,,,,,,,,1539.153587800014,None,,,,,,,,,,,,,,,,,,,,,,broke,D_new,143,32,1534.4872142999957,None,1534.4872142999957,None,1534.4872142999957,None,5,3.286572700017132,1534.4872142999957,None,1537.8263366000028,None,1537.8263366000028,None,1538.349115399993,None,1538.349115399993,None,1538.349115399993,None,f,0.7607351999904495,1538.349115399993,None,sing37,001,2019_Nov_14_1628,ProdFawcett_Revision2019,3.2.3,60.046680295190555,
,,,,144,0,144,0,,,,,,,,,,,,,1542.1890838000108,None,,,,,,,,,,,,,,,,,,,,,,angle,B_aloud,144,7,1539.6877648000082,None,1539.6877648000082,None,1539.6877648000082,None,1,1.4620748999877833,1539.6877648000082,None,1541.2023868999968,None,1541.2023868999968,None,1541.7199682999926,None,1541.7199682999926,None,1541.7199682999926,None,n,0.42188700000406243,1541.7199682999926,None,sing37,001,2019_Nov_14_1628,ProdFawcett_Revision2019,3.2.3,60.046680295190555,
,,,,145,0,145,0,,,,,,,,,,,,,1545.3702838000027,None,,,,,,,,,,,,,,,,,,,,,,victory,D_new,145,346,1542.7200908999948,None,1542.7200908999948,None,1542.7200908999948,None,5,1.8535584000055678,1542.7200908999948,None,1544.6141841000062,None,1544.6141841000062,None,1545.11677220001,None,1545.11677220001,None,1545.11677220001,None,f,0.2329588999855332,1545.11677220001,None,sing37,001,2019_Nov_14_1628,ProdFawcett_Revision2019,3.2.3,60.046680295190555,
,,,,146,0,146,0,,,,,,,,,,,,,1551.8988865000138,None,,,,,,,,,,,,,,,,,,,,,,column,B_aloud,146,57,1545.898355000012,None,1545.898355000012,None,1545.898355000012,None,6,4.115367499995045,1545.898355000012,None,1550.0579125999939,None,1550.0579125999939,None,1550.5827211000142,None,1550.5827211000142,None,1550.5827211000142,None,f,1.2711046999902464,1550.5827211000142,None,sing37,001,2019_Nov_14_1628,ProdFawcett_Revision2019,3.2.3,60.046680295190555,
,,,,147,0,147,0,,,,,,,,,,,,,1556.5149256000004,None,,,,,,,,,,,,,,,,,,,,,,watch,D_new,147,351,1552.4206389000174,None,1552.4206389000174,None,1552.4206389000174,None,4,3.129373800009489,1552.4206389000174,None,1555.596113800013,None,1555.596113800013,None,1556.118361300003,None,1556.118361300003,None,1556.118361300003,None,f,0.367569399997592,1556.118361300003,None,sing37,001,2019_Nov_14_1628,ProdFawcett_Revision2019,3.2.3,60.046680295190555,
,,,,148,0,148,0,,,,,,,,,,,,,1559.8662342999887,None,,,,,,,,,,,,,,,,,,,,,,whole,C_sing,148,355,1557.0369995000074,None,1557.0369995000074,None,1557.0369995000074,None,1,1.9129239000030793,1557.0369995000074,None,1558.9953791000007,None,1558.9953791000007,None,1559.5165817000088,None,1559.5165817000088,None,1559.5165817000088,None,n,0.30517899998812936,1559.5165817000088,None,sing37,001,2019_Nov_14_1628,ProdFawcett_Revision2019,3.2.3,60.046680295190555,
,,,,149,0,149,0,,,,,,,,,,,,,1565.5666791000112,None,,,,,,,,,,,,,,,,,,,,,,relation,D_new,149,257,1560.3848934000125,None,1560.3848934000125,None,1560.3848934000125,None,3,3.1813749999855645,1560.3848934000125,None,1563.6128692000057,None,1563.6128692000057,None,1564.129296500003,None,1564.129296500003,None,1564.129296500003,None,f,1.396610800002236,1564.129296500003,None,sing37,001,2019_Nov_14_1628,ProdFawcett_Revision2019,3.2.3,60.046680295190555,
,,,,150,0,150,0,,,,,,,,,,,,,1570.9006497999944,None,,,,,,,,,,,,,,,,,,,,,,drove,B_aloud,150,106,1566.0892958999902,None,1566.0892958999902,None,1566.0892958999902,None,1,4.036497299995972,1566.0892958999902,None,1570.1831091000058,None,1570.1831091000058,None,1570.6987777000177,None,1570.6987777000177,None,1570.6987777000177,None,n,0.17095250001875684,1570.6987777000177,None,sing37,001,2019_Nov_14_1628,ProdFawcett_Revision2019,3.2.3,60.046680295190555,
,,,,151,0,151,0,,,,,,,,,,,,,1574.99148170001,None,,,,,,,,,,,,,,,,,,,,,,narrow,C_sing,151,197,1571.4230956000101,None,1571.4230956000101,None,1571.4230956000101,None,5,2.694805200007977,1571.4230956000101,None,1574.1722960000043,None,1574.1722960000043,None,1574.6883183000027,None,1574.6883183000027,None,1574.6883183000027,None,f,0.2774758000159636,1574.6883183000027,None,sing37,001,2019_Nov_14_1628,ProdFawcett_Revision2019,3.2.3,60.046680295190555,
,,,,152,0,152,0,,,,,,,,,,,,,1581.9179783000145,None,,,,,,,,,,,,,,,,,,,,,,equipment,D_new,152,116,1575.5226983999892,None,1575.5226983999892,None,1575.5226983999892,None,4,5.539128900010837,1575.5226983999892,None,1581.1218663000036,None,1581.1218663000036,None,1581.6434366999893,None,1581.6434366999893,None,1581.6434366999893,None,f,0.24256949999835342,1581.6434366999893,None,sing37,001,2019_Nov_14_1628,ProdFawcett_Revision2019,3.2.3,60.046680295190555,
