StudyTrials.thisRepN,StudyTrials.thisTrialN,StudyTrials.thisN,StudyTrials.thisIndex,TestTrials.thisRepN,TestTrials.thisTrialN,TestTrials.thisN,TestTrials.thisIndex,textWelcome.started,textWelcome.stopped,keyWelcome.keys,keyWelcome.rt,keyWelcome.started,keyWelcome.stopped,textReady.started,textReady.stopped,keyReady.keys,keyReady.rt,keyReady.started,keyReady.stopped,polyback_2.started,polyback_2.stopped,studyPic,studyWord,studyType,studyN,studyOrder,polyback_3.started,polyback_3.stopped,studyPicChoice.started,studyPicChoice.stopped,polyback_4.started,polyback_4.stopped,polyback.started,polyback.stopped,studyWords.started,studyWords.stopped,getResearcher.started,getResearcher.stopped,kPress2.keys,kPress2.rt,kPress2.started,kPress2.stopped,testWord,testType,testN,testOrder,polyback_5.started,polyback_5.stopped,testWords.started,testWords.stopped,textScale.started,textScale.stopped,keyConf.keys,keyConf.rt,keyConf.started,keyConf.stopped,polyback_6.started,polyback_6.stopped,studyWords_2.started,studyWords_2.stopped,polyback_7.started,polyback_7.stopped,testWords_2.started,testWords_2.stopped,textScale_2.started,textScale_2.stopped,keyRKN.keys,keyRKN.rt,keyRKN.started,keyRKN.stopped,participant,session,date,expName,psychopyVersion,frameRate,
,,,,,,,,13.240353900007904,None,space,260.8018121999921,13.240353900007904,None,,,,,,,,,,,,,,,,,,,,,,,,,,,,,,,,,,,,,,,,,,,,,,,,,,,,,,,,,,sing13,001,2019_Oct_31_1456,ProdFawcett_Revision2019,3.2.3,59.84089501505053,
,,,,,,,,,,,,,,274.0631735000061,None,space,3.8505293999332935,274.0631735000061,None,,,,,,,,,,,,,,,,,,,,,,,,,,,,,,,,,,,,,,,,,,,,,,,,,,,,sing13,001,2019_Oct_31_1456,ProdFawcett_Revision2019,3.2.3,59.84089501505053,
0,0,0,0,,,,,,,,,,,,,,,,,282.71303380001336,None,materials/speakPic.jpg,sight,B_aloud,0,286,279.07139769999776,None,279.07139769999776,None,279.9628953000065,None,280.2304801000282,None,280.2304801000282,None,,,,,,,,,,,,,,,,,,,,,,,,,,,,,,,,,,,sing13,001,2019_Oct_31_1456,ProdFawcett_Revision2019,3.2.3,59.84089501505053,
1,0,1,0,,,,,,,,,,,,,,,,,286.97805859998334,None,materials/speakPic.jpg,fashion,B_aloud,1,125,283.3224685000023,None,283.3224685000023,None,284.2289655000204,None,284.484449999989,None,284.484449999989,None,,,,,,,,,,,,,,,,,,,,,,,,,,,,,,,,,,,sing13,001,2019_Oct_31_1456,ProdFawcett_Revision2019,3.2.3,59.84089501505053,
2,0,2,0,,,,,,,,,,,,,,,,,291.24520540004596,None,materials/readPic.jpg,article,A_silent,2,11,287.55645439994987,None,287.55645439994987,None,288.49562199995853,None,288.7530894000083,None,288.7530894000083,None,,,,,,,,,,,,,,,,,,,,,,,,,,,,,,,,,,,sing13,001,2019_Oct_31_1456,ProdFawcett_Revision2019,3.2.3,59.84089501505053,
3,0,3,0,,,,,,,,,,,,,,,,,295.51193929999135,None,materials/readPic.jpg,pretty,A_silent,3,233,291.8697005000431,None,291.8697005000431,None,292.76116080000065,None,293.01954330003355,None,293.01954330003355,None,,,,,,,,,,,,,,,,,,,,,,,,,,,,,,,,,,,sing13,001,2019_Oct_31_1456,ProdFawcett_Revision2019,3.2.3,59.84089501505053,
4,0,4,0,,,,,,,,,,,,,,,,,299.77899330004584,None,materials/speakPic.jpg,scene,B_aloud,4,273,296.074009199976,None,296.074009199976,None,297.0289939000504,None,297.28681820002384,None,297.28681820002384,None,,,,,,,,,,,,,,,,,,,,,,,,,,,,,,,,,,,sing13,001,2019_Oct_31_1456,ProdFawcett_Revision2019,3.2.3,59.84089501505053,
5,0,5,0,,,,,,,,,,,,,,,,,304.0460467999801,None,materials/readPic.jpg,afternoon,A_silent,5,3,300.35709519998636,None,300.35709519998636,None,301.2949614999816,None,301.55582959996536,None,301.55582959996536,None,,,,,,,,,,,,,,,,,,,,,,,,,,,,,,,,,,,sing13,001,2019_Oct_31_1456,ProdFawcett_Revision2019,3.2.3,59.84089501505053,
6,0,6,0,,,,,,,,,,,,,,,,,308.313062399975,None,materials/singPic.jpg,childhood,C_sing,6,49,304.64829299994744,None,304.64829299994744,None,305.5628342999844,None,305.82217830000445,None,305.82217830000445,None,,,,,,,,,,,,,,,,,,,,,,,,,,,,,,,,,,,sing13,001,2019_Oct_31_1456,ProdFawcett_Revision2019,3.2.3,59.84089501505053,
7,0,7,0,,,,,,,,,,,,,,,,,312.57995269994717,None,materials/speakPic.jpg,build,B_aloud,7,35,308.8746492000064,None,308.8746492000064,None,309.8300358999986,None,310.08401710004546,None,310.08401710004546,None,,,,,,,,,,,,,,,,,,,,,,,,,,,,,,,,,,,sing13,001,2019_Oct_31_1456,ProdFawcett_Revision2019,3.2.3,59.84089501505053,
8,0,8,0,,,,,,,,,,,,,,,,,316.8469415999716,None,materials/speakPic.jpg,provision,B_aloud,8,243,313.11675659997854,None,313.11675659997854,None,314.0976063000271,None,314.35991020000074,None,314.35991020000074,None,,,,,,,,,,,,,,,,,,,,,,,,,,,,,,,,,,,sing13,001,2019_Oct_31_1456,ProdFawcett_Revision2019,3.2.3,59.84089501505053,
9,0,9,0,,,,,,,,,,,,,,,,,321.1128666000441,None,materials/readPic.jpg,express,A_silent,9,124,317.40095679997467,None,317.40095679997467,None,318.3628597999923,None,318.621573899989,None,318.621573899989,None,,,,,,,,,,,,,,,,,,,,,,,,,,,,,,,,,,,sing13,001,2019_Oct_31_1456,ProdFawcett_Revision2019,3.2.3,59.84089501505053,
10,0,10,0,,,,,,,,,,,,,,,,,325.3808504999615,None,materials/singPic.jpg,reach,C_sing,10,253,321.69386350002605,None,321.69386350002605,None,322.6301504999865,None,322.8871505999705,None,322.8871505999705,None,,,,,,,,,,,,,,,,,,,,,,,,,,,,,,,,,,,sing13,001,2019_Oct_31_1456,ProdFawcett_Revision2019,3.2.3,59.84089501505053,
11,0,11,0,,,,,,,,,,,,,,,,,329.6476950000506,None,materials/singPic.jpg,machinery,C_sing,11,175,325.956605299958,None,325.956605299958,None,326.8990822000196,None,327.1479003999848,None,327.1479003999848,None,,,,,,,,,,,,,,,,,,,,,,,,,,,,,,,,,,,sing13,001,2019_Oct_31_1456,ProdFawcett_Revision2019,3.2.3,59.84089501505053,
12,0,12,0,,,,,,,,,,,,,,,,,333.91429470002186,None,materials/readPic.jpg,death,A_silent,12,86,330.2322217000183,None,330.2322217000183,None,331.1647764999652,None,331.4211477000499,None,331.4211477000499,None,,,,,,,,,,,,,,,,,,,,,,,,,,,,,,,,,,,sing13,001,2019_Oct_31_1456,ProdFawcett_Revision2019,3.2.3,59.84089501505053,
13,0,13,0,,,,,,,,,,,,,,,,,338.1819074000232,None,materials/singPic.jpg,research,C_sing,13,261,334.4843684999505,None,334.4843684999505,None,335.431609799969,None,335.68408859998453,None,335.68408859998453,None,,,,,,,,,,,,,,,,,,,,,,,,,,,,,,,,,,,sing13,001,2019_Oct_31_1456,ProdFawcett_Revision2019,3.2.3,59.84089501505053,
14,0,14,0,,,,,,,,,,,,,,,,,342.44848409993574,None,materials/readPic.jpg,court,A_silent,14,75,338.7585546999471,None,338.7585546999471,None,339.69898840005044,None,339.95748129999265,None,339.95748129999265,None,,,,,,,,,,,,,,,,,,,,,,,,,,,,,,,,,,,sing13,001,2019_Oct_31_1456,ProdFawcett_Revision2019,3.2.3,59.84089501505053,
15,0,15,0,,,,,,,,,,,,,,,,,346.7158800000325,None,materials/singPic.jpg,month,C_sing,15,193,343.0026259999722,None,343.0026259999722,None,343.96469359996263,None,344.2244392000139,None,344.2244392000139,None,,,,,,,,,,,,,,,,,,,,,,,,,,,,,,,,,,,sing13,001,2019_Oct_31_1456,ProdFawcett_Revision2019,3.2.3,59.84089501505053,
16,0,16,0,,,,,,,,,,,,,,,,,350.9815102999564,None,materials/singPic.jpg,private,C_sing,16,237,347.2978065999923,None,347.2978065999923,None,348.2365841999417,None,348.492581199971,None,348.492581199971,None,,,,,,,,,,,,,,,,,,,,,,,,,,,,,,,,,,,sing13,001,2019_Oct_31_1456,ProdFawcett_Revision2019,3.2.3,59.84089501505053,
17,0,17,0,,,,,,,,,,,,,,,,,355.2492597999517,None,materials/readPic.jpg,discovery,A_silent,17,95,351.5623268999625,None,351.5623268999625,None,352.49824029998854,None,352.7632177999476,None,352.7632177999476,None,,,,,,,,,,,,,,,,,,,,,,,,,,,,,,,,,,,sing13,001,2019_Oct_31_1456,ProdFawcett_Revision2019,3.2.3,59.84089501505053,
18,0,18,0,,,,,,,,,,,,,,,,,359.51637940004,None,materials/speakPic.jpg,guest,B_aloud,18,146,355.81755819998216,None,355.81755819998216,None,356.76777249993756,None,357.02003150002565,None,357.02003150002565,None,,,,,,,,,,,,,,,,,,,,,,,,,,,,,,,,,,,sing13,001,2019_Oct_31_1456,ProdFawcett_Revision2019,3.2.3,59.84089501505053,
19,0,19,0,,,,,,,,,,,,,,,,,363.7835178000387,None,materials/readPic.jpg,judge,A_silent,19,166,360.0883608999429,None,360.0883608999429,None,361.0336091000354,None,361.30055259994697,None,361.30055259994697,None,,,,,,,,,,,,,,,,,,,,,,,,,,,,,,,,,,,sing13,001,2019_Oct_31_1456,ProdFawcett_Revision2019,3.2.3,59.84089501505053,
20,0,20,0,,,,,,,,,,,,,,,,,368.0501468000002,None,materials/readPic.jpg,breath,A_silent,20,27,364.3830436000135,None,364.3830436000135,None,365.29918870003894,None,365.55882619996555,None,365.55882619996555,None,,,,,,,,,,,,,,,,,,,,,,,,,,,,,,,,,,,sing13,001,2019_Oct_31_1456,ProdFawcett_Revision2019,3.2.3,59.84089501505053,
21,0,21,0,,,,,,,,,,,,,,,,,372.3163079000078,None,materials/singPic.jpg,passage,C_sing,21,212,368.640550000011,None,368.640550000011,None,369.565965399961,None,369.8312360999407,None,369.8312360999407,None,,,,,,,,,,,,,,,,,,,,,,,,,,,,,,,,,,,sing13,001,2019_Oct_31_1456,ProdFawcett_Revision2019,3.2.3,59.84089501505053,
22,0,22,0,,,,,,,,,,,,,,,,,376.5840065999655,None,materials/singPic.jpg,beauty,C_sing,22,18,372.89910849998705,None,372.89910849998705,None,373.83588050003164,None,374.0968326999573,None,374.0968326999573,None,,,,,,,,,,,,,,,,,,,,,,,,,,,,,,,,,,,sing13,001,2019_Oct_31_1456,ProdFawcett_Revision2019,3.2.3,59.84089501505053,
23,0,23,0,,,,,,,,,,,,,,,,,380.85107029997744,None,materials/readPic.jpg,stranger,A_silent,23,309,377.1601389000425,None,377.1601389000425,None,378.1022654999979,None,378.36598610004876,None,378.36598610004876,None,,,,,,,,,,,,,,,,,,,,,,,,,,,,,,,,,,,sing13,001,2019_Oct_31_1456,ProdFawcett_Revision2019,3.2.3,59.84089501505053,
24,0,24,0,,,,,,,,,,,,,,,,,385.1182249999838,None,materials/readPic.jpg,murder,A_silent,24,195,381.4189019999467,None,381.4189019999467,None,382.3696245000465,None,382.6190687000053,None,382.6190687000053,None,,,,,,,,,,,,,,,,,,,,,,,,,,,,,,,,,,,sing13,001,2019_Oct_31_1456,ProdFawcett_Revision2019,3.2.3,59.84089501505053,
25,0,25,0,,,,,,,,,,,,,,,,,389.3849761999445,None,materials/speakPic.jpg,light,B_aloud,25,171,385.7228808000218,None,385.7228808000218,None,386.63509380002506,None,386.8997391000157,None,386.8997391000157,None,,,,,,,,,,,,,,,,,,,,,,,,,,,,,,,,,,,sing13,001,2019_Oct_31_1456,ProdFawcett_Revision2019,3.2.3,59.84089501505053,
26,0,26,0,,,,,,,,,,,,,,,,,393.65148260002024,None,materials/readPic.jpg,atmosphere,A_silent,26,12,389.96301940002013,None,389.96301940002013,None,390.904327700031,None,391.1628747000359,None,391.1628747000359,None,,,,,,,,,,,,,,,,,,,,,,,,,,,,,,,,,,,sing13,001,2019_Oct_31_1456,ProdFawcett_Revision2019,3.2.3,59.84089501505053,
27,0,27,0,,,,,,,,,,,,,,,,,397.9179859999567,None,materials/speakPic.jpg,committee,B_aloud,27,62,394.2191955000162,None,394.2191955000162,None,395.1677946000127,None,395.4278995000059,None,395.4278995000059,None,,,,,,,,,,,,,,,,,,,,,,,,,,,,,,,,,,,sing13,001,2019_Oct_31_1456,ProdFawcett_Revision2019,3.2.3,59.84089501505053,
28,0,28,0,,,,,,,,,,,,,,,,,402.1858137999661,None,materials/readPic.jpg,individual,A_silent,28,160,398.4910686999792,None,398.4910686999792,None,399.4348762000445,None,399.6977613000199,None,399.6977613000199,None,,,,,,,,,,,,,,,,,,,,,,,,,,,,,,,,,,,sing13,001,2019_Oct_31_1456,ProdFawcett_Revision2019,3.2.3,59.84089501505053,
29,0,29,0,,,,,,,,,,,,,,,,,406.4517736999551,None,materials/speakPic.jpg,sleep,B_aloud,29,290,402.74617409997154,None,402.74617409997154,None,403.70301779999863,None,403.9633414000273,None,403.9633414000273,None,,,,,,,,,,,,,,,,,,,,,,,,,,,,,,,,,,,sing13,001,2019_Oct_31_1456,ProdFawcett_Revision2019,3.2.3,59.84089501505053,
30,0,30,0,,,,,,,,,,,,,,,,,410.7197611000156,None,materials/singPic.jpg,running,C_sing,30,268,407.054200100014,None,407.054200100014,None,407.9710223999573,None,408.23152289993595,None,408.23152289993595,None,,,,,,,,,,,,,,,,,,,,,,,,,,,,,,,,,,,sing13,001,2019_Oct_31_1456,ProdFawcett_Revision2019,3.2.3,59.84089501505053,
31,0,31,0,,,,,,,,,,,,,,,,,414.9867056000512,None,materials/singPic.jpg,material,C_sing,31,182,411.3047644000035,None,411.3047644000035,None,412.2376960000256,None,412.49289989995304,None,412.49289989995304,None,,,,,,,,,,,,,,,,,,,,,,,,,,,,,,,,,,,sing13,001,2019_Oct_31_1456,ProdFawcett_Revision2019,3.2.3,59.84089501505053,
32,0,32,0,,,,,,,,,,,,,,,,,419.25370709993877,None,materials/speakPic.jpg,skill,B_aloud,32,289,415.55361489998177,None,415.55361489998177,None,416.50445879995823,None,416.76042970002163,None,416.76042970002163,None,,,,,,,,,,,,,,,,,,,,,,,,,,,,,,,,,,,sing13,001,2019_Oct_31_1456,ProdFawcett_Revision2019,3.2.3,59.84089501505053,
33,0,33,0,,,,,,,,,,,,,,,,,423.5206167999422,None,materials/readPic.jpg,safety,A_silent,33,270,419.8405060999794,None,419.8405060999794,None,420.77180009998847,None,421.02776430000085,None,421.02776430000085,None,,,,,,,,,,,,,,,,,,,,,,,,,,,,,,,,,,,sing13,001,2019_Oct_31_1456,ProdFawcett_Revision2019,3.2.3,59.84089501505053,
34,0,34,0,,,,,,,,,,,,,,,,,427.7875497000059,None,materials/singPic.jpg,vision,C_sing,34,347,424.1200262999628,None,424.1200262999628,None,425.03590879996773,None,425.2906512999907,None,425.2906512999907,None,,,,,,,,,,,,,,,,,,,,,,,,,,,,,,,,,,,sing13,001,2019_Oct_31_1456,ProdFawcett_Revision2019,3.2.3,59.84089501505053,
35,0,35,0,,,,,,,,,,,,,,,,,432.05458050000016,None,materials/readPic.jpg,column,A_silent,35,57,428.3313276999397,None,428.3313276999397,None,429.3057970999507,None,429.5633811999578,None,429.5633811999578,None,,,,,,,,,,,,,,,,,,,,,,,,,,,,,,,,,,,sing13,001,2019_Oct_31_1456,ProdFawcett_Revision2019,3.2.3,59.84089501505053,
36,0,36,0,,,,,,,,,,,,,,,,,436.32147199998144,None,materials/singPic.jpg,commercial,C_sing,36,61,432.6453548000427,None,432.6453548000427,None,433.570324899978,None,433.82883769995533,None,433.82883769995533,None,,,,,,,,,,,,,,,,,,,,,,,,,,,,,,,,,,,sing13,001,2019_Oct_31_1456,ProdFawcett_Revision2019,3.2.3,59.84089501505053,
37,0,37,0,,,,,,,,,,,,,,,,,440.5885398000246,None,materials/singPic.jpg,answer,C_sing,37,8,436.8956354999682,None,436.8956354999682,None,437.84026690002065,None,438.10206299996935,None,438.10206299996935,None,,,,,,,,,,,,,,,,,,,,,,,,,,,,,,,,,,,sing13,001,2019_Oct_31_1456,ProdFawcett_Revision2019,3.2.3,59.84089501505053,
38,0,38,0,,,,,,,,,,,,,,,,,444.85543809994124,None,materials/singPic.jpg,state,C_sing,38,303,441.1738154999912,None,441.1738154999912,None,442.1055557000218,None,442.35963720001746,None,442.35963720001746,None,,,,,,,,,,,,,,,,,,,,,,,,,,,,,,,,,,,sing13,001,2019_Oct_31_1456,ProdFawcett_Revision2019,3.2.3,59.84089501505053,
39,0,39,0,,,,,,,,,,,,,,,,,449.1222392000491,None,materials/speakPic.jpg,weight,B_aloud,39,353,445.43165389995556,None,445.43165389995556,None,446.3717954000458,None,446.6360706000123,None,446.6360706000123,None,,,,,,,,,,,,,,,,,,,,,,,,,,,,,,,,,,,sing13,001,2019_Oct_31_1456,ProdFawcett_Revision2019,3.2.3,59.84089501505053,
40,0,40,0,,,,,,,,,,,,,,,,,453.3895017999457,None,materials/singPic.jpg,interior,C_sing,40,164,449.69914769998286,None,449.69914769998286,None,450.6400715999771,None,450.8963010000298,None,450.8963010000298,None,,,,,,,,,,,,,,,,,,,,,,,,,,,,,,,,,,,sing13,001,2019_Oct_31_1456,ProdFawcett_Revision2019,3.2.3,59.84089501505053,
41,0,41,0,,,,,,,,,,,,,,,,,457.6556488999631,None,materials/readPic.jpg,dispute,A_silent,41,99,453.9621589999879,None,453.9621589999879,None,454.90520799998194,None,455.1564744999632,None,455.1564744999632,None,,,,,,,,,,,,,,,,,,,,,,,,,,,,,,,,,,,sing13,001,2019_Oct_31_1456,ProdFawcett_Revision2019,3.2.3,59.84089501505053,
42,0,42,0,,,,,,,,,,,,,,,,,461.9235214999644,None,materials/readPic.jpg,poetry,A_silent,42,225,458.2399241999956,None,458.2399241999956,None,459.17409610003233,None,459.43033630005084,None,459.43033630005084,None,,,,,,,,,,,,,,,,,,,,,,,,,,,,,,,,,,,sing13,001,2019_Oct_31_1456,ProdFawcett_Revision2019,3.2.3,59.84089501505053,
43,0,43,0,,,,,,,,,,,,,,,,,466.19043329998385,None,materials/speakPic.jpg,profession,B_aloud,43,241,462.49986510002054,None,462.49986510002054,None,463.4411279000342,None,463.69900619995315,None,463.69900619995315,None,,,,,,,,,,,,,,,,,,,,,,,,,,,,,,,,,,,sing13,001,2019_Oct_31_1456,ProdFawcett_Revision2019,3.2.3,59.84089501505053,
44,0,44,0,,,,,,,,,,,,,,,,,470.45724100002553,None,materials/speakPic.jpg,problem,B_aloud,44,238,466.75753009994514,None,466.75753009994514,None,467.7070090000052,None,467.9709167999681,None,467.9709167999681,None,,,,,,,,,,,,,,,,,,,,,,,,,,,,,,,,,,,sing13,001,2019_Oct_31_1456,ProdFawcett_Revision2019,3.2.3,59.84089501505053,
45,0,45,0,,,,,,,,,,,,,,,,,474.72407160000876,None,materials/singPic.jpg,interview,C_sing,45,165,471.0363030999433,None,471.0363030999433,None,471.97472589998506,None,472.23667260003276,None,472.23667260003276,None,,,,,,,,,,,,,,,,,,,,,,,,,,,,,,,,,,,sing13,001,2019_Oct_31_1456,ProdFawcett_Revision2019,3.2.3,59.84089501505053,
46,0,46,0,,,,,,,,,,,,,,,,,478.991000500042,None,materials/speakPic.jpg,minor,B_aloud,46,191,475.2984216000186,None,475.2984216000186,None,476.24102830002084,None,476.49709389999043,None,476.49709389999043,None,,,,,,,,,,,,,,,,,,,,,,,,,,,,,,,,,,,sing13,001,2019_Oct_31_1456,ProdFawcett_Revision2019,3.2.3,59.84089501505053,
47,0,47,0,,,,,,,,,,,,,,,,,483.2583720999537,None,materials/singPic.jpg,mayor,C_sing,47,183,479.5866141000297,None,479.5866141000297,None,480.5080344999442,None,480.76443550002296,None,480.76443550002296,None,,,,,,,,,,,,,,,,,,,,,,,,,,,,,,,,,,,sing13,001,2019_Oct_31_1456,ProdFawcett_Revision2019,3.2.3,59.84089501505053,
48,0,48,0,,,,,,,,,,,,,,,,,487.52498840005137,None,materials/readPic.jpg,narrow,A_silent,48,197,483.8348629999673,None,483.8348629999673,None,484.7741591000231,None,485.0249903999502,None,485.0249903999502,None,,,,,,,,,,,,,,,,,,,,,,,,,,,,,,,,,,,sing13,001,2019_Oct_31_1456,ProdFawcett_Revision2019,3.2.3,59.84089501505053,
49,0,49,0,,,,,,,,,,,,,,,,,491.7918708999641,None,materials/readPic.jpg,cover,A_silent,49,77,488.09467070002574,None,488.09467070002574,None,489.0424919000361,None,489.3033379999688,None,489.3033379999688,None,,,,,,,,,,,,,,,,,,,,,,,,,,,,,,,,,,,sing13,001,2019_Oct_31_1456,ProdFawcett_Revision2019,3.2.3,59.84089501505053,
50,0,50,0,,,,,,,,,,,,,,,,,496.0589983999962,None,materials/singPic.jpg,contract,C_sing,50,68,492.37687150004786,None,492.37687150004786,None,493.30952729994897,None,493.5612143999897,None,493.5612143999897,None,,,,,,,,,,,,,,,,,,,,,,,,,,,,,,,,,,,sing13,001,2019_Oct_31_1456,ProdFawcett_Revision2019,3.2.3,59.84089501505053,
51,0,51,0,,,,,,,,,,,,,,,,,500.32580049999524,None,materials/speakPic.jpg,fight,B_aloud,51,127,496.6601414999459,None,496.6601414999459,None,497.5767715999391,None,497.83001020003576,None,497.83001020003576,None,,,,,,,,,,,,,,,,,,,,,,,,,,,,,,,,,,,sing13,001,2019_Oct_31_1456,ProdFawcett_Revision2019,3.2.3,59.84089501505053,
52,0,52,0,,,,,,,,,,,,,,,,,504.5927365999669,None,materials/readPic.jpg,management,A_silent,52,177,500.90156819997355,None,500.90156819997355,None,501.84351060003974,None,502.10734260000754,None,502.10734260000754,None,,,,,,,,,,,,,,,,,,,,,,,,,,,,,,,,,,,sing13,001,2019_Oct_31_1456,ProdFawcett_Revision2019,3.2.3,59.84089501505053,
53,0,53,0,,,,,,,,,,,,,,,,,508.8595863999799,None,materials/speakPic.jpg,little,B_aloud,53,174,505.1582409000257,None,505.1582409000257,None,506.1113680000417,None,506.3697445000289,None,506.3697445000289,None,,,,,,,,,,,,,,,,,,,,,,,,,,,,,,,,,,,sing13,001,2019_Oct_31_1456,ProdFawcett_Revision2019,3.2.3,59.84089501505053,
54,0,54,0,,,,,,,,,,,,,,,,,513.1259527000366,None,materials/singPic.jpg,general,C_sing,54,135,509.4381066999631,None,509.4381066999631,None,510.3755298999604,None,510.63850640004966,None,510.63850640004966,None,,,,,,,,,,,,,,,,,,,,,,,,,,,,,,,,,,,sing13,001,2019_Oct_31_1456,ProdFawcett_Revision2019,3.2.3,59.84089501505053,
55,0,55,0,,,,,,,,,,,,,,,,,517.3931691000471,None,materials/speakPic.jpg,gesture,B_aloud,55,137,513.690565799945,None,513.690565799945,None,514.6473265000386,None,514.8925299999537,None,514.8925299999537,None,,,,,,,,,,,,,,,,,,,,,,,,,,,,,,,,,,,sing13,001,2019_Oct_31_1456,ProdFawcett_Revision2019,3.2.3,59.84089501505053,
56,0,56,0,,,,,,,,,,,,,,,,,521.660281599965,None,materials/singPic.jpg,write,C_sing,56,358,517.9713712999364,None,517.9713712999364,None,518.9113912000321,None,519.1633082999615,None,519.1633082999615,None,,,,,,,,,,,,,,,,,,,,,,,,,,,,,,,,,,,sing13,001,2019_Oct_31_1456,ProdFawcett_Revision2019,3.2.3,59.84089501505053,
57,0,57,0,,,,,,,,,,,,,,,,,525.9275889999699,None,materials/speakPic.jpg,company,B_aloud,57,64,522.2121456000023,None,522.2121456000023,None,523.1776429000311,None,523.4356432999484,None,523.4356432999484,None,,,,,,,,,,,,,,,,,,,,,,,,,,,,,,,,,,,sing13,001,2019_Oct_31_1456,ProdFawcett_Revision2019,3.2.3,59.84089501505053,
58,0,58,0,,,,,,,,,,,,,,,,,530.1945055000251,None,materials/speakPic.jpg,union,B_aloud,58,344,526.4916320999619,None,526.4916320999619,None,527.445221300004,None,527.7023589999881,None,527.7023589999881,None,,,,,,,,,,,,,,,,,,,,,,,,,,,,,,,,,,,sing13,001,2019_Oct_31_1456,ProdFawcett_Revision2019,3.2.3,59.84089501505053,
59,0,59,0,,,,,,,,,,,,,,,,,534.460787900025,None,materials/readPic.jpg,touch,A_silent,59,332,530.7988369000377,None,530.7988369000377,None,531.7121325000189,None,531.9683392000152,None,531.9683392000152,None,,,,,,,,,,,,,,,,,,,,,,,,,,,,,,,,,,,sing13,001,2019_Oct_31_1456,ProdFawcett_Revision2019,3.2.3,59.84089501505053,
60,0,60,0,,,,,,,,,,,,,,,,,538.7284329000395,None,materials/readPic.jpg,people,A_silent,60,216,535.0383257999783,None,535.0383257999783,None,535.9795565999812,None,536.2349961999571,None,536.2349961999571,None,,,,,,,,,,,,,,,,,,,,,,,,,,,,,,,,,,,sing13,001,2019_Oct_31_1456,ProdFawcett_Revision2019,3.2.3,59.84089501505053,
61,0,61,0,,,,,,,,,,,,,,,,,542.996178100002,None,materials/readPic.jpg,taste,A_silent,61,322,539.2822539999615,None,539.2822539999615,None,540.2461064000381,None,540.5032469000435,None,540.5032469000435,None,,,,,,,,,,,,,,,,,,,,,,,,,,,,,,,,,,,sing13,001,2019_Oct_31_1456,ProdFawcett_Revision2019,3.2.3,59.84089501505053,
62,0,62,0,,,,,,,,,,,,,,,,,547.262634600047,None,materials/singPic.jpg,payment,C_sing,62,215,543.6016171999509,None,543.6016171999509,None,544.5130034999456,None,544.7667596000247,None,544.7667596000247,None,,,,,,,,,,,,,,,,,,,,,,,,,,,,,,,,,,,sing13,001,2019_Oct_31_1456,ProdFawcett_Revision2019,3.2.3,59.84089501505053,
63,0,63,0,,,,,,,,,,,,,,,,,551.5295948999701,None,materials/speakPic.jpg,fellow,B_aloud,63,126,547.8445143999998,None,547.8445143999998,None,548.7792994000483,None,549.0370475000236,None,549.0370475000236,None,,,,,,,,,,,,,,,,,,,,,,,,,,,,,,,,,,,sing13,001,2019_Oct_31_1456,ProdFawcett_Revision2019,3.2.3,59.84089501505053,
64,0,64,0,,,,,,,,,,,,,,,,,555.7976642999565,None,materials/speakPic.jpg,discussion,B_aloud,64,96,552.1290979000041,None,552.1290979000041,None,553.0466644000262,None,553.3091931999661,None,553.3091931999661,None,,,,,,,,,,,,,,,,,,,,,,,,,,,,,,,,,,,sing13,001,2019_Oct_31_1456,ProdFawcett_Revision2019,3.2.3,59.84089501505053,
65,0,65,0,,,,,,,,,,,,,,,,,560.0631630000426,None,materials/singPic.jpg,split,C_sing,65,299,556.3993114000186,None,556.3993114000186,None,557.3141540000215,None,557.5698799999664,None,557.5698799999664,None,,,,,,,,,,,,,,,,,,,,,,,,,,,,,,,,,,,sing13,001,2019_Oct_31_1456,ProdFawcett_Revision2019,3.2.3,59.84089501505053,
66,0,66,0,,,,,,,,,,,,,,,,,564.3300965999952,None,materials/speakPic.jpg,household,B_aloud,66,154,560.6493488999549,None,560.6493488999549,None,561.57898510003,None,561.8404683000408,None,561.8404683000408,None,,,,,,,,,,,,,,,,,,,,,,,,,,,,,,,,,,,sing13,001,2019_Oct_31_1456,ProdFawcett_Revision2019,3.2.3,59.84089501505053,
67,0,67,0,,,,,,,,,,,,,,,,,568.5971513999393,None,materials/readPic.jpg,opening,A_silent,67,205,564.9025684000226,None,564.9025684000226,None,565.8488629000494,None,566.1074063000269,None,566.1074063000269,None,,,,,,,,,,,,,,,,,,,,,,,,,,,,,,,,,,,sing13,001,2019_Oct_31_1456,ProdFawcett_Revision2019,3.2.3,59.84089501505053,
68,0,68,0,,,,,,,,,,,,,,,,,572.8642229000106,None,materials/speakPic.jpg,exchange,B_aloud,68,121,569.1707716999808,None,569.1707716999808,None,570.1127666999819,None,570.3747807999607,None,570.3747807999607,None,,,,,,,,,,,,,,,,,,,,,,,,,,,,,,,,,,,sing13,001,2019_Oct_31_1456,ProdFawcett_Revision2019,3.2.3,59.84089501505053,
69,0,69,0,,,,,,,,,,,,,,,,,577.1310092000058,None,materials/singPic.jpg,harmony,C_sing,69,148,573.4532294999808,None,573.4532294999808,None,574.3817276000045,None,574.6389303000178,None,574.6389303000178,None,,,,,,,,,,,,,,,,,,,,,,,,,,,,,,,,,,,sing13,001,2019_Oct_31_1456,ProdFawcett_Revision2019,3.2.3,59.84089501505053,
70,0,70,0,,,,,,,,,,,,,,,,,581.3980088999961,None,materials/speakPic.jpg,series,B_aloud,70,279,577.7413893999765,None,577.7413893999765,None,578.6485771000152,None,578.9072694999631,None,578.9072694999631,None,,,,,,,,,,,,,,,,,,,,,,,,,,,,,,,,,,,sing13,001,2019_Oct_31_1456,ProdFawcett_Revision2019,3.2.3,59.84089501505053,
71,0,71,0,,,,,,,,,,,,,,,,,585.6648780000396,None,materials/singPic.jpg,executive,C_sing,71,122,582.0141106999945,None,582.0141106999945,None,582.9148568999954,None,583.1782228000229,None,583.1782228000229,None,,,,,,,,,,,,,,,,,,,,,,,,,,,,,,,,,,,sing13,001,2019_Oct_31_1456,ProdFawcett_Revision2019,3.2.3,59.84089501505053,
72,0,72,0,,,,,,,,,,,,,,,,,589.9322711999994,None,materials/readPic.jpg,finish,A_silent,72,130,586.2316807999741,None,586.2316807999741,None,587.1835515999701,None,587.4407924000407,None,587.4407924000407,None,,,,,,,,,,,,,,,,,,,,,,,,,,,,,,,,,,,sing13,001,2019_Oct_31_1456,ProdFawcett_Revision2019,3.2.3,59.84089501505053,
73,0,73,0,,,,,,,,,,,,,,,,,594.1987891000463,None,materials/speakPic.jpg,turkey,B_aloud,73,342,590.5097739000339,None,590.5097739000339,None,591.4497471000068,None,591.7063357000006,None,591.7063357000006,None,,,,,,,,,,,,,,,,,,,,,,,,,,,,,,,,,,,sing13,001,2019_Oct_31_1456,ProdFawcett_Revision2019,3.2.3,59.84089501505053,
74,0,74,0,,,,,,,,,,,,,,,,,598.4659565000329,None,materials/speakPic.jpg,native,B_aloud,74,199,594.768863699981,None,594.768863699981,None,595.7160422999877,None,595.9715364000294,None,595.9715364000294,None,,,,,,,,,,,,,,,,,,,,,,,,,,,,,,,,,,,sing13,001,2019_Oct_31_1456,ProdFawcett_Revision2019,3.2.3,59.84089501505053,
75,0,75,0,,,,,,,,,,,,,,,,,602.7327589000342,None,materials/readPic.jpg,number,A_silent,75,203,599.064407399972,None,599.064407399972,None,599.9829156999476,None,600.2452686999459,None,600.2452686999459,None,,,,,,,,,,,,,,,,,,,,,,,,,,,,,,,,,,,sing13,001,2019_Oct_31_1456,ProdFawcett_Revision2019,3.2.3,59.84089501505053,
76,0,76,0,,,,,,,,,,,,,,,,,607.001930700033,None,materials/readPic.jpg,employment,A_silent,76,111,603.3348648999818,None,603.3348648999818,None,604.2503153999569,None,604.5095823999727,None,604.5095823999727,None,,,,,,,,,,,,,,,,,,,,,,,,,,,,,,,,,,,sing13,001,2019_Oct_31_1456,ProdFawcett_Revision2019,3.2.3,59.84089501505053,
77,0,77,0,,,,,,,,,,,,,,,,,611.2656388999894,None,materials/singPic.jpg,surprise,C_sing,77,317,607.6158282000106,None,607.6158282000106,None,608.5168490000069,None,608.7764778999845,None,608.7764778999845,None,,,,,,,,,,,,,,,,,,,,,,,,,,,,,,,,,,,sing13,001,2019_Oct_31_1456,ProdFawcett_Revision2019,3.2.3,59.84089501505053,
78,0,78,0,,,,,,,,,,,,,,,,,615.5336500999983,None,materials/readPic.jpg,trial,A_silent,78,341,611.8428292999743,None,611.8428292999743,None,612.7838255999377,None,613.0443495999789,None,613.0443495999789,None,,,,,,,,,,,,,,,,,,,,,,,,,,,,,,,,,,,sing13,001,2019_Oct_31_1456,ProdFawcett_Revision2019,3.2.3,59.84089501505053,
79,0,79,0,,,,,,,,,,,,,,,,,619.8005182000343,None,materials/singPic.jpg,figure,C_sing,79,128,616.117315200041,None,616.117315200041,None,617.0513059999794,None,617.3135574000189,None,617.3135574000189,None,,,,,,,,,,,,,,,,,,,,,,,,,,,,,,,,,,,sing13,001,2019_Oct_31_1456,ProdFawcett_Revision2019,3.2.3,59.84089501505053,
80,0,80,0,,,,,,,,,,,,,,,,,624.0675174000207,None,materials/speakPic.jpg,order,B_aloud,80,207,620.3644759999588,None,620.3644759999588,None,621.321241699974,None,621.5759720000206,None,621.5759720000206,None,,,,,,,,,,,,,,,,,,,,,,,,,,,,,,,,,,,sing13,001,2019_Oct_31_1456,ProdFawcett_Revision2019,3.2.3,59.84089501505053,
81,0,81,0,,,,,,,,,,,,,,,,,628.3344841999933,None,materials/singPic.jpg,impact,C_sing,81,157,624.6537657999434,None,624.6537657999434,None,625.5860621000174,None,625.842637600028,None,625.842637600028,None,,,,,,,,,,,,,,,,,,,,,,,,,,,,,,,,,,,sing13,001,2019_Oct_31_1456,ProdFawcett_Revision2019,3.2.3,59.84089501505053,
82,0,82,0,,,,,,,,,,,,,,,,,632.6014267000137,None,materials/speakPic.jpg,heavy,B_aloud,82,151,628.9067998999963,None,628.9067998999963,None,629.8520612999564,None,630.1123788999394,None,630.1123788999394,None,,,,,,,,,,,,,,,,,,,,,,,,,,,,,,,,,,,sing13,001,2019_Oct_31_1456,ProdFawcett_Revision2019,3.2.3,59.84089501505053,
83,0,83,0,,,,,,,,,,,,,,,,,636.8679701000219,None,materials/singPic.jpg,search,C_sing,83,276,633.1885564000113,None,633.1885564000113,None,634.1199611000484,None,634.3781342000002,None,634.3781342000002,None,,,,,,,,,,,,,,,,,,,,,,,,,,,,,,,,,,,sing13,001,2019_Oct_31_1456,ProdFawcett_Revision2019,3.2.3,59.84089501505053,
84,0,84,0,,,,,,,,,,,,,,,,,641.1352958000498,None,materials/singPic.jpg,message,C_sing,84,189,637.4508852999425,None,637.4508852999425,None,638.3864547000267,None,638.64537319995,None,638.64537319995,None,,,,,,,,,,,,,,,,,,,,,,,,,,,,,,,,,,,sing13,001,2019_Oct_31_1456,ProdFawcett_Revision2019,3.2.3,59.84089501505053,
85,0,85,0,,,,,,,,,,,,,,,,,645.4022030000342,None,materials/speakPic.jpg,master,B_aloud,85,180,641.7115917999763,None,641.7115917999763,None,642.6529178000055,None,642.9082527999999,None,642.9082527999999,None,,,,,,,,,,,,,,,,,,,,,,,,,,,,,,,,,,,sing13,001,2019_Oct_31_1456,ProdFawcett_Revision2019,3.2.3,59.84089501505053,
86,0,86,0,,,,,,,,,,,,,,,,,649.6695690000197,None,materials/readPic.jpg,income,A_silent,86,159,645.9845316000283,None,645.9845316000283,None,646.9196279000025,None,647.1768029000377,None,647.1768029000377,None,,,,,,,,,,,,,,,,,,,,,,,,,,,,,,,,,,,sing13,001,2019_Oct_31_1456,ProdFawcett_Revision2019,3.2.3,59.84089501505053,
87,0,87,0,,,,,,,,,,,,,,,,,653.9364198000403,None,materials/singPic.jpg,growth,C_sing,87,144,650.2592982000206,None,650.2592982000206,None,651.1870065999683,None,651.4499621000141,None,651.4499621000141,None,,,,,,,,,,,,,,,,,,,,,,,,,,,,,,,,,,,sing13,001,2019_Oct_31_1456,ProdFawcett_Revision2019,3.2.3,59.84089501505053,
88,0,88,0,,,,,,,,,,,,,,,,,658.2032091999426,None,materials/speakPic.jpg,title,B_aloud,88,331,654.5006594000151,None,654.5006594000151,None,655.4537368000019,None,655.7098211999983,None,655.7098211999983,None,,,,,,,,,,,,,,,,,,,,,,,,,,,,,,,,,,,sing13,001,2019_Oct_31_1456,ProdFawcett_Revision2019,3.2.3,59.84089501505053,
89,0,89,0,,,,,,,,,,,,,,,,,662.4691845000489,None,materials/readPic.jpg,spoke,A_silent,89,300,658.809973299969,None,658.809973299969,None,659.7204601999838,None,659.9770262000384,None,659.9770262000384,None,,,,,,,,,,,,,,,,,,,,,,,,,,,,,,,,,,,sing13,001,2019_Oct_31_1456,ProdFawcett_Revision2019,3.2.3,59.84089501505053,
,,,,,,,,,,,,,,,,,,,,,,,,,,,,,,,,,,,,,662.9693805000279,None,k,104.79228390008211,662.9693805000279,None,,,,,,,,,,,,,,,,,,,,,,,,,,,,,sing13,001,2019_Oct_31_1456,ProdFawcett_Revision2019,3.2.3,59.84089501505053,
,,,,,,,,,,,,,,767.77709889994,None,space,2.408623999916017,767.77709889994,None,,,,,,,,,,,,,,,,,,,,,,,,,,,,,,,,,,,,,,,,,,,,,,,,,,,,sing13,001,2019_Oct_31_1456,ProdFawcett_Revision2019,3.2.3,59.84089501505053,
,,,,0,0,0,0,,,,,,,,,,,,,788.1472814000444,None,,,,,,,,,,,,,,,,,,,,,,reach,C_sing,0,253,770.7286128000123,None,770.7286128000123,None,770.7286128000123,None,1,12.121016699937172,770.7286128000123,None,782.9096600000048,None,782.9096600000048,None,783.4261975999689,None,783.4261975999689,None,783.4261975999689,None,n,4.671448100009002,783.4261975999689,None,sing13,001,2019_Oct_31_1456,ProdFawcett_Revision2019,3.2.3,59.84089501505053,
,,,,1,0,1,0,,,,,,,,,,,,,792.9673962999368,None,,,,,,,,,,,,,,,,,,,,,,division,D_new,1,101,788.6793969999999,None,788.6793969999999,None,788.6793969999999,None,1,1.609952099970542,788.6793969999999,None,790.3247840999393,None,790.3247840999393,None,790.8471439999994,None,790.8471439999994,None,790.8471439999994,None,n,2.0903735000174493,790.8471439999994,None,sing13,001,2019_Oct_31_1456,ProdFawcett_Revision2019,3.2.3,59.84089501505053,
,,,,2,0,2,0,,,,,,,,,,,,,800.1930985000217,None,,,,,,,,,,,,,,,,,,,,,,write,C_sing,2,358,793.4988449999364,None,793.4988449999364,None,793.4988449999364,None,3,4.118599700042978,793.4988449999364,None,797.6749501000158,None,797.6749501000158,None,798.1949654000346,None,798.1949654000346,None,798.1949654000346,None,f,1.9585363999940455,798.1949654000346,None,sing13,001,2019_Oct_31_1456,ProdFawcett_Revision2019,3.2.3,59.84089501505053,
,,,,3,0,3,0,,,,,,,,,,,,,803.776257499936,None,,,,,,,,,,,,,,,,,,,,,,region,D_new,3,256,800.7183055999922,None,800.7183055999922,None,800.7183055999922,None,1,1.6911852000048384,800.7183055999922,None,802.451633599936,None,802.451633599936,None,802.9750076000346,None,802.9750076000346,None,802.9750076000346,None,n,0.7704575000097975,802.9750076000346,None,sing13,001,2019_Oct_31_1456,ProdFawcett_Revision2019,3.2.3,59.84089501505053,
,,,,4,0,4,0,,,,,,,,,,,,,809.3991941999411,None,,,,,,,,,,,,,,,,,,,,,,running,C_sing,4,268,804.3007070999593,None,804.3007070999593,None,804.3007070999593,None,2,3.724610000033863,804.3007070999593,None,808.0632254999364,None,808.0632254999364,None,808.585942100035,None,808.585942100035,None,808.585942100035,None,n,0.767552400007844,808.585942100035,None,sing13,001,2019_Oct_31_1456,ProdFawcett_Revision2019,3.2.3,59.84089501505053,
,,,,5,0,5,0,,,,,,,,,,,,,815.4759700000286,None,,,,,,,,,,,,,,,,,,,,,,spoke,A_silent,5,300,809.9286574999569,None,809.9286574999569,None,809.9286574999569,None,4,2.808900799951516,809.9286574999569,None,812.7806489999639,None,812.7806489999639,None,813.2950974999694,None,813.2950974999694,None,813.2950974999694,None,f,2.146435200003907,813.2950974999694,None,sing13,001,2019_Oct_31_1456,ProdFawcett_Revision2019,3.2.3,59.84089501505053,
,,,,6,0,6,0,,,,,,,,,,,,,820.2232715999708,None,,,,,,,,,,,,,,,,,,,,,,fashion,B_aloud,6,125,816.0005080000265,None,816.0005080000265,None,816.0005080000265,None,6,2.2492515000049025,816.0005080000265,None,818.3081090999767,None,818.3081090999767,None,818.8260552999564,None,818.8260552999564,None,818.8260552999564,None,r,1.368008799967356,818.8260552999564,None,sing13,001,2019_Oct_31_1456,ProdFawcett_Revision2019,3.2.3,59.84089501505053,
,,,,7,0,7,0,,,,,,,,,,,,,825.2701954999939,None,,,,,,,,,,,,,,,,,,,,,,produce,D_new,7,239,820.7454465000192,None,820.7454465000192,None,820.7454465000192,None,2,2.3681110999314114,820.7454465000192,None,823.1440406000474,None,823.1440406000474,None,823.6587398999836,None,823.6587398999836,None,823.6587398999836,None,f,1.5671423999592662,823.6587398999836,None,sing13,001,2019_Oct_31_1456,ProdFawcett_Revision2019,3.2.3,59.84089501505053,
,,,,8,0,8,0,,,,,,,,,,,,,830.7610496999696,None,,,,,,,,,,,,,,,,,,,,,,signal,D_new,8,287,825.8033863999881,None,825.8033863999881,None,825.8033863999881,None,6,2.4300581999123096,825.8033863999881,None,828.2785345000448,None,828.2785345000448,None,828.804171100026,None,828.804171100026,None,828.804171100026,None,f,1.9254608999472111,828.804171100026,None,sing13,001,2019_Oct_31_1456,ProdFawcett_Revision2019,3.2.3,59.84089501505053,
,,,,9,0,9,0,,,,,,,,,,,,,834.4651317000389,None,,,,,,,,,,,,,,,,,,,,,,audience,D_new,9,14,831.2829955000198,None,831.2829955000198,None,831.2829955000198,None,1,1.5264222000259906,831.2829955000198,None,832.8433004999533,None,832.8433004999533,None,833.3640305999434,None,833.3640305999434,None,833.3640305999434,None,n,1.053589200018905,833.3640305999434,None,sing13,001,2019_Oct_31_1456,ProdFawcett_Revision2019,3.2.3,59.84089501505053,
,,,,10,0,10,0,,,,,,,,,,,,,837.4690590000246,None,,,,,,,,,,,,,,,,,,,,,,benefit,D_new,10,20,834.9860138000222,None,834.9860138000222,None,834.9860138000222,None,1,1.2636073000030592,834.9860138000222,None,836.3059184999438,None,836.3059184999438,None,836.8289066000143,None,836.8289066000143,None,836.8289066000143,None,n,0.6044300999492407,836.8289066000143,None,sing13,001,2019_Oct_31_1456,ProdFawcett_Revision2019,3.2.3,59.84089501505053,
,,,,11,0,11,0,,,,,,,,,,,,,842.288503699936,None,,,,,,,,,,,,,,,,,,,,,,partner,D_new,11,211,837.986795200035,None,837.986795200035,None,837.986795200035,None,2,3.0067199000623077,837.986795200035,None,841.0335463000229,None,841.0335463000229,None,841.5477316000033,None,841.5477316000033,None,841.5477316000033,None,n,0.7099242000840604,841.5477316000033,None,sing13,001,2019_Oct_31_1456,ProdFawcett_Revision2019,3.2.3,59.84089501505053,
,,,,12,0,12,0,,,,,,,,,,,,,848.15892419999,None,,,,,,,,,,,,,,,,,,,,,,atmosphere,A_silent,12,12,842.8193115999456,None,842.8193115999456,None,842.8193115999456,None,5,3.7342599000548944,842.8193115999456,None,846.6063258999493,None,846.6063258999493,None,847.1344577999553,None,847.1344577999553,None,847.1344577999553,None,f,0.9868878000415862,847.1344577999553,None,sing13,001,2019_Oct_31_1456,ProdFawcett_Revision2019,3.2.3,59.84089501505053,
,,,,13,0,13,0,,,,,,,,,,,,,853.0920765999472,None,,,,,,,,,,,,,,,,,,,,,,tough,D_new,13,333,848.6710160999792,None,848.6710160999792,None,848.6710160999792,None,1,2.0106109000043944,848.6710160999792,None,850.7220496999798,None,850.7220496999798,None,851.2515016000252,None,851.2515016000252,None,851.2515016000252,None,n,1.8060488000046462,851.2515016000252,None,sing13,001,2019_Oct_31_1456,ProdFawcett_Revision2019,3.2.3,59.84089501505053,
,,,,14,0,14,0,,,,,,,,,,,,,858.7625689000124,None,,,,,,,,,,,,,,,,,,,,,,problem,B_aloud,14,238,853.6213108999655,None,853.6213108999655,None,853.6213108999655,None,3,2.556311000022106,853.6213108999655,None,856.2192970999749,None,856.2192970999749,None,856.745334199979,None,856.745334199979,None,856.745334199979,None,f,1.9761997000314295,856.745334199979,None,sing13,001,2019_Oct_31_1456,ProdFawcett_Revision2019,3.2.3,59.84089501505053,
,,,,15,0,15,0,,,,,,,,,,,,,864.7439492000267,None,,,,,,,,,,,,,,,,,,,,,,machinery,C_sing,15,175,859.2909462000243,None,859.2909462000243,None,859.2909462000243,None,5,4.430442300043069,859.2909462000243,None,863.7674684999511,None,863.7674684999511,None,864.2872497000499,None,864.2872497000499,None,864.2872497000499,None,f,0.4181275999872014,864.2872497000499,None,sing13,001,2019_Oct_31_1456,ProdFawcett_Revision2019,3.2.3,59.84089501505053,
,,,,16,0,16,0,,,,,,,,,,,,,867.8668513000011,None,,,,,,,,,,,,,,,,,,,,,,military,D_new,16,190,865.2672309000045,None,865.2672309000045,None,865.2672309000045,None,1,1.6785810999572277,865.2672309000045,None,866.9979799999855,None,866.9979799999855,None,867.5198803000385,None,867.5198803000385,None,867.5198803000385,None,n,0.31385899998713285,867.5198803000385,None,sing13,001,2019_Oct_31_1456,ProdFawcett_Revision2019,3.2.3,59.84089501505053,
,,,,17,0,17,0,,,,,,,,,,,,,872.7000166999642,None,,,,,,,,,,,,,,,,,,,,,,candidate,D_new,17,39,868.3839407999767,None,868.3839407999767,None,868.3839407999767,None,1,3.4174556999932975,868.3839407999767,None,871.8373655000469,None,871.8373655000469,None,872.3443638000172,None,872.3443638000172,None,872.3443638000172,None,n,0.31316749996040016,872.3443638000172,None,sing13,001,2019_Oct_31_1456,ProdFawcett_Revision2019,3.2.3,59.84089501505053,
,,,,18,0,18,0,,,,,,,,,,,,,876.6563206999563,None,,,,,,,,,,,,,,,,,,,,,,provision,B_aloud,18,243,873.2226639,None,873.2226639,None,873.2226639,None,6,2.3627498999703676,873.2226639,None,875.6219488000497,None,875.6219488000497,None,876.1523157999618,None,876.1523157999618,None,876.1523157999618,None,r,0.48118350002914667,876.1523157999618,None,sing13,001,2019_Oct_31_1456,ProdFawcett_Revision2019,3.2.3,59.84089501505053,
,,,,19,0,19,0,,,,,,,,,,,,,880.9937606999883,None,,,,,,,,,,,,,,,,,,,,,,fight,B_aloud,19,127,877.1911880000262,None,877.1911880000262,None,877.1911880000262,None,6,2.218232100014575,877.1911880000262,None,879.4476711000316,None,879.4476711000316,None,879.9621260999702,None,879.9621260999702,None,879.9621260999702,None,r,0.9993359000654891,879.9621260999702,None,sing13,001,2019_Oct_31_1456,ProdFawcett_Revision2019,3.2.3,59.84089501505053,
,,,,20,0,20,0,,,,,,,,,,,,,884.2550320000155,None,,,,,,,,,,,,,,,,,,,,,,strain,D_new,20,308,881.5160909999395,None,881.5160909999395,None,881.5160909999395,None,1,1.581489900010638,881.5160909999395,None,883.1492620999925,None,883.1492620999925,None,883.6677119999658,None,883.6677119999658,None,883.6677119999658,None,n,0.541980899986811,883.6677119999658,None,sing13,001,2019_Oct_31_1456,ProdFawcett_Revision2019,3.2.3,59.84089501505053,
,,,,21,0,21,0,,,,,,,,,,,,,887.8199322000146,None,,,,,,,,,,,,,,,,,,,,,,impact,C_sing,21,157,884.7891007999424,None,884.7891007999424,None,884.7891007999424,None,3,1.8683773999800906,884.7891007999424,None,886.7138374999631,None,886.7138374999631,None,887.230412999983,None,887.230412999983,None,887.230412999983,None,f,0.5470803999342024,887.230412999983,None,sing13,001,2019_Oct_31_1456,ProdFawcett_Revision2019,3.2.3,59.84089501505053,
,,,,22,0,22,0,,,,,,,,,,,,,890.6344939999981,None,,,,,,,,,,,,,,,,,,,,,,track,D_new,22,334,888.3403459000401,None,888.3403459000401,None,888.3403459000401,None,1,1.3971514999866486,888.3403459000401,None,889.8009573000018,None,889.8009573000018,None,890.313052500016,None,890.313052500016,None,890.313052500016,None,n,0.2804265000158921,890.313052500016,None,sing13,001,2019_Oct_31_1456,ProdFawcett_Revision2019,3.2.3,59.84089501505053,
,,,,23,0,23,0,,,,,,,,,,,,,895.48484369996,None,,,,,,,,,,,,,,,,,,,,,,government,D_new,23,139,891.1563647999428,None,891.1563647999428,None,891.1563647999428,None,4,3.2294551000231877,891.1563647999428,None,894.4209664999507,None,894.4209664999507,None,894.9371570999501,None,894.9371570999501,None,894.9371570999501,None,f,0.5044700000435114,894.9371570999501,None,sing13,001,2019_Oct_31_1456,ProdFawcett_Revision2019,3.2.3,59.84089501505053,
,,,,24,0,24,0,,,,,,,,,,,,,898.8291023999918,None,,,,,,,,,,,,,,,,,,,,,,native,B_aloud,24,199,896.0075822999934,None,896.0075822999934,None,896.0075822999934,None,6,1.85796679998748,896.0075822999934,None,897.8990747999633,None,897.8990747999633,None,898.415767599945,None,898.415767599945,None,898.415767599945,None,r,0.3778818999417126,898.415767599945,None,sing13,001,2019_Oct_31_1456,ProdFawcett_Revision2019,3.2.3,59.84089501505053,
,,,,25,0,25,0,,,,,,,,,,,,,902.8980221999809,None,,,,,,,,,,,,,,,,,,,,,,safety,A_silent,25,270,899.3542036999715,None,899.3542036999715,None,899.3542036999715,None,6,2.5594780000392348,899.3542036999715,None,901.9716884000227,None,901.9716884000227,None,902.4834717999911,None,902.4834717999911,None,902.4834717999911,None,r,0.3741587999975309,902.4834717999911,None,sing13,001,2019_Oct_31_1456,ProdFawcett_Revision2019,3.2.3,59.84089501505053,
,,,,26,0,26,0,,,,,,,,,,,,,905.6440646999981,None,,,,,,,,,,,,,,,,,,,,,,victory,D_new,26,346,903.4261811999604,None,903.4261811999604,None,903.4261811999604,None,1,1.2874007999198511,903.4261811999604,None,904.7741215999704,None,904.7741215999704,None,905.2735621000174,None,905.2735621000174,None,905.2735621000174,None,n,0.34402129997033626,905.2735621000174,None,sing13,001,2019_Oct_31_1456,ProdFawcett_Revision2019,3.2.3,59.84089501505053,
,,,,27,0,27,0,,,,,,,,,,,,,907.9649957000511,None,,,,,,,,,,,,,,,,,,,,,,household,B_aloud,27,154,906.1723852000432,None,906.1723852000432,None,906.1723852000432,None,1,0.9011670999461785,906.1723852000432,None,907.1174738999689,None,907.1174738999689,None,907.6391746000154,None,907.6391746000154,None,907.6391746000154,None,n,0.2904612000565976,907.6391746000154,None,sing13,001,2019_Oct_31_1456,ProdFawcett_Revision2019,3.2.3,59.84089501505053,
,,,,28,0,28,0,,,,,,,,,,,,,911.5849609000143,None,,,,,,,,,,,,,,,,,,,,,,exchange,B_aloud,28,121,908.4984987999778,None,908.4984987999778,None,908.4984987999778,None,2,1.8068709999788553,908.4984987999778,None,910.3602069000481,None,910.3602069000481,None,910.8913945000386,None,910.8913945000386,None,910.8913945000386,None,n,0.6624324999283999,910.8913945000386,None,sing13,001,2019_Oct_31_1456,ProdFawcett_Revision2019,3.2.3,59.84089501505053,
,,,,29,0,29,0,,,,,,,,,,,,,914.5580056000035,None,,,,,,,,,,,,,,,,,,,,,,marriage,D_new,29,179,912.1120313999709,None,912.1120313999709,None,912.1120313999709,None,1,1.5060692999977618,912.1120313999709,None,913.6641632999526,None,913.6641632999526,None,914.1906399000436,None,914.1906399000436,None,914.1906399000436,None,n,0.3469106999691576,914.1906399000436,None,sing13,001,2019_Oct_31_1456,ProdFawcett_Revision2019,3.2.3,59.84089501505053,
,,,,30,0,30,0,,,,,,,,,,,,,916.8759468999924,None,,,,,,,,,,,,,,,,,,,,,,minute,D_new,30,192,915.0920229000039,None,915.0920229000039,None,915.0920229000039,None,1,0.89347250002902,915.0920229000039,None,916.0160823999904,None,916.0160823999904,None,916.5325971000129,None,916.5325971000129,None,916.5325971000129,None,n,0.31669919996056706,916.5325971000129,None,sing13,001,2019_Oct_31_1456,ProdFawcett_Revision2019,3.2.3,59.84089501505053,
,,,,31,0,31,0,,,,,,,,,,,,,922.9531301000388,None,,,,,,,,,,,,,,,,,,,,,,discovery,A_silent,31,95,917.4098373999586,None,917.4098373999586,None,917.4098373999586,None,1,4.863776799989864,917.4098373999586,None,922.3289260000456,None,922.3289260000456,None,922.8593751000008,None,922.8593751000008,None,922.8593751000008,None,n,0.0542159000178799,922.8593751000008,None,sing13,001,2019_Oct_31_1456,ProdFawcett_Revision2019,3.2.3,59.84089501505053,
,,,,32,0,32,0,,,,,,,,,,,,,925.9033026000252,None,,,,,,,,,,,,,,,,,,,,,,personnel,D_new,32,219,923.4747751000104,None,923.4747751000104,None,923.4747751000104,None,1,1.5905184000730515,923.4747751000104,None,925.1027920000488,None,925.1027920000488,None,925.6210846999893,None,925.6210846999893,None,925.6210846999893,None,n,0.2365138999884948,925.6210846999893,None,sing13,001,2019_Oct_31_1456,ProdFawcett_Revision2019,3.2.3,59.84089501505053,
,,,,33,0,33,0,,,,,,,,,,,,,930.6438335999846,None,,,,,,,,,,,,,,,,,,,,,,minor,B_aloud,33,191,926.4216020000167,None,926.4216020000167,None,926.4216020000167,None,4,3.2040561999892816,926.4216020000167,None,929.6767733000452,None,929.6767733000452,None,930.2051131000044,None,930.2051131000044,None,930.2051131000044,None,f,0.4041867000050843,930.2051131000044,None,sing13,001,2019_Oct_31_1456,ProdFawcett_Revision2019,3.2.3,59.84089501505053,
,,,,34,0,34,0,,,,,,,,,,,,,935.7124248000327,None,,,,,,,,,,,,,,,,,,,,,,column,A_silent,34,57,931.1613938999362,None,931.1613938999362,None,931.1613938999362,None,6,3.663774300017394,931.1613938999362,None,934.8515286999755,None,934.8515286999755,None,935.359859899967,None,935.359859899967,None,935.359859899967,None,r,0.3215788999805227,935.359859899967,None,sing13,001,2019_Oct_31_1456,ProdFawcett_Revision2019,3.2.3,59.84089501505053,
,,,,35,0,35,0,,,,,,,,,,,,,939.0301498000044,None,,,,,,,,,,,,,,,,,,,,,,revolution,D_new,35,264,936.2416225000052,None,936.2416225000052,None,936.2416225000052,None,1,1.9283857999835163,936.2416225000052,None,938.2223287000088,None,938.2223287000088,None,938.7404977999395,None,938.7404977999395,None,938.7404977999395,None,n,0.26116220001131296,938.7404977999395,None,sing13,001,2019_Oct_31_1456,ProdFawcett_Revision2019,3.2.3,59.84089501505053,
,,,,36,0,36,0,,,,,,,,,,,,,942.6016637999564,None,,,,,,,,,,,,,,,,,,,,,,beginning,D_new,36,19,939.5629655999364,None,939.5629655999364,None,939.5629655999364,None,5,2.190557299996726,939.5629655999364,None,941.7951838000445,None,941.7951838000445,None,942.3213218000019,None,942.3213218000019,None,942.3213218000019,None,f,0.24032310000620782,942.3213218000019,None,sing13,001,2019_Oct_31_1456,ProdFawcett_Revision2019,3.2.3,59.84089501505053,
,,,,37,0,37,0,,,,,,,,,,,,,946.9133211999433,None,,,,,,,,,,,,,,,,,,,,,,search,C_sing,37,276,943.1241069999523,None,943.1241069999523,None,943.1241069999523,None,6,2.917263100040145,943.1241069999523,None,946.0891285999678,None,946.0891285999678,None,946.5911163999699,None,946.5911163999699,None,946.5911163999699,None,r,0.2984320999821648,946.5911163999699,None,sing13,001,2019_Oct_31_1456,ProdFawcett_Revision2019,3.2.3,59.84089501505053,
,,,,38,0,38,0,,,,,,,,,,,,,950.4730336000212,None,,,,,,,,,,,,,,,,,,,,,,order,B_aloud,38,207,947.437278999947,None,947.437278999947,None,947.437278999947,None,6,2.1640646000159904,947.437278999947,None,949.635553900036,None,949.635553900036,None,950.1525055000093,None,950.1525055000093,None,950.1525055000093,None,r,0.27326539997011423,950.1525055000093,None,sing13,001,2019_Oct_31_1456,ProdFawcett_Revision2019,3.2.3,59.84089501505053,
,,,,39,0,39,0,,,,,,,,,,,,,955.9778832000447,None,,,,,,,,,,,,,,,,,,,,,,cousin,D_new,39,76,950.9917696999619,None,950.9917696999619,None,950.9917696999619,None,4,4.162018100032583,950.9917696999619,None,955.1903566999827,None,955.1903566999827,None,955.7031365999719,None,955.7031365999719,None,955.7031365999719,None,f,0.2349065999733284,955.7031365999719,None,sing13,001,2019_Oct_31_1456,ProdFawcett_Revision2019,3.2.3,59.84089501505053,
,,,,40,0,40,0,,,,,,,,,,,,,960.4540641000494,None,,,,,,,,,,,,,,,,,,,,,,speech,D_new,40,298,956.5059302999871,None,956.5059302999871,None,956.5059302999871,None,6,2.7514097000239417,956.5059302999871,None,959.291895100032,None,959.291895100032,None,959.823782499996,None,959.823782499996,None,959.823782499996,None,f,0.5940110000083223,959.823782499996,None,sing13,001,2019_Oct_31_1456,ProdFawcett_Revision2019,3.2.3,59.84089501505053,
,,,,41,0,41,0,,,,,,,,,,,,,963.5561712000053,None,,,,,,,,,,,,,,,,,,,,,,device,D_new,41,93,960.9787964000134,None,960.9787964000134,None,960.9787964000134,None,1,1.7346241999184713,960.9787964000134,None,962.7585348000284,None,962.7585348000284,None,963.2768453999888,None,963.2768453999888,None,963.2768453999888,None,n,0.2366850000107661,963.2768453999888,None,sing13,001,2019_Oct_31_1456,ProdFawcett_Revision2019,3.2.3,59.84089501505053,
,,,,42,0,42,0,,,,,,,,,,,,,967.9850746999728,None,,,,,,,,,,,,,,,,,,,,,,committee,B_aloud,42,62,964.076791999978,None,964.076791999978,None,964.076791999978,None,6,2.9645200999220833,964.076791999978,None,967.0657569000032,None,967.0657569000032,None,967.5744491999503,None,967.5744491999503,None,967.5744491999503,None,r,0.3709415999474004,967.5744491999503,None,sing13,001,2019_Oct_31_1456,ProdFawcett_Revision2019,3.2.3,59.84089501505053,
,,,,43,0,43,0,,,,,,,,,,,,,971.7897842000239,None,,,,,,,,,,,,,,,,,,,,,,passage,C_sing,43,212,968.5125760999508,None,968.5125760999508,None,968.5125760999508,None,6,1.9689330999972299,968.5125760999508,None,970.5232685999945,None,970.5232685999945,None,971.0413315000478,None,971.0413315000478,None,971.0413315000478,None,r,0.7042485999409109,971.0413315000478,None,sing13,001,2019_Oct_31_1456,ProdFawcett_Revision2019,3.2.3,59.84089501505053,
,,,,44,0,44,0,,,,,,,,,,,,,975.0064552000258,None,,,,,,,,,,,,,,,,,,,,,,department,D_new,44,90,972.306023000041,None,972.306023000041,None,972.306023000041,None,1,1.7755370000377297,972.306023000041,None,974.1314220000058,None,974.1314220000058,None,974.6453865999356,None,974.6453865999356,None,974.6453865999356,None,n,0.324300300097093,974.6453865999356,None,sing13,001,2019_Oct_31_1456,ProdFawcett_Revision2019,3.2.3,59.84089501505053,
,,,,45,0,45,0,,,,,,,,,,,,,978.4633640999673,None,,,,,,,,,,,,,,,,,,,,,,individual,A_silent,45,160,975.5316395999398,None,975.5316395999398,None,975.5316395999398,None,2,1.749855500063859,975.5316395999398,None,977.3260721999686,None,977.3260721999686,None,977.858402300044,None,977.858402300044,None,977.858402300044,None,n,0.5829400001093745,977.858402300044,None,sing13,001,2019_Oct_31_1456,ProdFawcett_Revision2019,3.2.3,59.84089501505053,
,,,,46,0,46,0,,,,,,,,,,,,,983.1266307999613,None,,,,,,,,,,,,,,,,,,,,,,thing,D_new,46,328,978.9953153999522,None,978.9953153999522,None,978.9953153999522,None,1,3.1342962000053376,978.9953153999522,None,982.1890178000322,None,982.1890178000322,None,982.711494200048,None,982.711494200048,None,982.711494200048,None,n,0.37815880007110536,982.711494200048,None,sing13,001,2019_Oct_31_1456,ProdFawcett_Revision2019,3.2.3,59.84089501505053,
,,,,47,0,47,0,,,,,,,,,,,,,986.7144454999361,None,,,,,,,,,,,,,,,,,,,,,,contract,C_sing,47,68,983.6620550999651,None,983.6620550999651,None,983.6620550999651,None,4,2.411649900022894,983.6620550999651,None,986.1113001999911,None,986.1113001999911,None,986.6405425999546,None,986.6405425999546,None,986.6405425999546,None,f,0.04086549999192357,986.6405425999546,None,sing13,001,2019_Oct_31_1456,ProdFawcett_Revision2019,3.2.3,59.84089501505053,
,,,,48,0,48,0,,,,,,,,,,,,,991.1980779999867,None,,,,,,,,,,,,,,,,,,,,,,primary,D_new,48,234,987.2428839999484,None,987.2428839999484,None,987.2428839999484,None,4,3.014809099957347,987.2428839999484,None,990.3001137999818,None,990.3001137999818,None,990.8257790999487,None,990.8257790999487,None,990.8257790999487,None,f,0.3436225999612361,990.8257790999487,None,sing13,001,2019_Oct_31_1456,ProdFawcett_Revision2019,3.2.3,59.84089501505053,
,,,,49,0,49,0,,,,,,,,,,,,,994.5907244000118,None,,,,,,,,,,,,,,,,,,,,,,profession,B_aloud,49,241,991.7233342999825,None,991.7233342999825,None,991.7233342999825,None,6,1.7900358999613672,991.7233342999825,None,993.5514245999511,None,993.5514245999511,None,994.072740899981,None,994.072740899981,None,994.072740899981,None,f,0.47279529995284975,994.072740899981,None,sing13,001,2019_Oct_31_1456,ProdFawcett_Revision2019,3.2.3,59.84089501505053,
,,,,50,0,50,0,,,,,,,,,,,,,997.6714464999968,None,,,,,,,,,,,,,,,,,,,,,,quantity,D_new,50,245,995.0979083999991,None,995.0979083999991,None,995.0979083999991,None,1,1.7276931999949738,995.0979083999991,None,996.8578116999706,None,996.8578116999706,None,997.3694605999626,None,997.3694605999626,None,997.3694605999626,None,n,0.2720149999950081,997.3694605999626,None,sing13,001,2019_Oct_31_1456,ProdFawcett_Revision2019,3.2.3,59.84089501505053,
,,,,51,0,51,0,,,,,,,,,,,,,1003.1189196000341,None,,,,,,,,,,,,,,,,,,,,,,generation,D_new,51,136,998.1951382999541,None,998.1951382999541,None,998.1951382999541,None,2,3.9904231000691652,998.1951382999541,None,1002.2440982999979,None,1002.2440982999979,None,1002.7571609000443,None,1002.7571609000443,None,1002.7571609000443,None,n,0.32419820001814514,1002.7571609000443,None,sing13,001,2019_Oct_31_1456,ProdFawcett_Revision2019,3.2.3,59.84089501505053,
,,,,52,0,52,0,,,,,,,,,,,,,1007.9824631999945,None,,,,,,,,,,,,,,,,,,,,,,travel,D_new,52,338,1003.649765899987,None,1003.649765899987,None,1003.649765899987,None,5,3.3996010000118986,1003.649765899987,None,1007.0982215999393,None,1007.0982215999393,None,1007.6326060999418,None,1007.6326060999418,None,1007.6326060999418,None,f,0.32100410002749413,1007.6326060999418,None,sing13,001,2019_Oct_31_1456,ProdFawcett_Revision2019,3.2.3,59.84089501505053,
,,,,53,0,53,0,,,,,,,,,,,,,1010.8915555999847,None,,,,,,,,,,,,,,,,,,,,,,oxygen,D_new,53,209,1008.5132149000419,None,1008.5132149000419,None,1008.5132149000419,None,1,1.160544199985452,1008.5132149000419,None,1009.7083598000463,None,1009.7083598000463,None,1010.2256279999856,None,1010.2256279999856,None,1010.2256279999856,None,n,0.6238979999907315,1010.2256279999856,None,sing13,001,2019_Oct_31_1456,ProdFawcett_Revision2019,3.2.3,59.84089501505053,
,,,,54,0,54,0,,,,,,,,,,,,,1016.1389550999738,None,,,,,,,,,,,,,,,,,,,,,,management,A_silent,54,177,1011.417144899955,None,1011.417144899955,None,1011.417144899955,None,6,3.4962115000234917,1011.417144899955,None,1014.9626189999981,None,1014.9626189999981,None,1015.4786401999881,None,1015.4786401999881,None,1015.4786401999881,None,n,0.6188931999495253,1015.4786401999881,None,sing13,001,2019_Oct_31_1456,ProdFawcett_Revision2019,3.2.3,59.84089501505053,
,,,,55,0,55,0,,,,,,,,,,,,,1020.7209795999806,None,,,,,,,,,,,,,,,,,,,,,,sight,B_aloud,55,286,1016.6650877000066,None,1016.6650877000066,None,1016.6650877000066,None,5,3.136504099937156,1016.6650877000066,None,1019.8606849999633,None,1019.8606849999633,None,1020.3815058999462,None,1020.3815058999462,None,1020.3815058999462,None,f,0.299901399994269,1020.3815058999462,None,sing13,001,2019_Oct_31_1456,ProdFawcett_Revision2019,3.2.3,59.84089501505053,
,,,,56,0,56,0,,,,,,,,,,,,,1027.0150137000019,None,,,,,,,,,,,,,,,,,,,,,,touch,A_silent,56,332,1021.2467289000051,None,1021.2467289000051,None,1021.2467289000051,None,3,4.92287520004902,1021.2467289000051,None,1026.2168552000076,None,1026.2168552000076,None,1026.74264880002,None,1026.74264880002,None,1026.74264880002,None,f,0.22690559993498027,1026.74264880002,None,sing13,001,2019_Oct_31_1456,ProdFawcett_Revision2019,3.2.3,59.84089501505053,
,,,,57,0,57,0,,,,,,,,,,,,,1029.790355199948,None,,,,,,,,,,,,,,,,,,,,,,growth,C_sing,57,144,1027.5498377999756,None,1027.5498377999756,None,1027.5498377999756,None,1,1.3635188000043854,1027.5498377999756,None,1028.9614358999534,None,1028.9614358999534,None,1029.4798545000376,None,1029.4798545000376,None,1029.4798545000376,None,n,0.28167980001308024,1029.4798545000376,None,sing13,001,2019_Oct_31_1456,ProdFawcett_Revision2019,3.2.3,59.84089501505053,
,,,,58,0,58,0,,,,,,,,,,,,,1032.4577894000104,None,,,,,,,,,,,,,,,,,,,,,,brilliant,D_new,58,30,1030.3164857999654,None,1030.3164857999654,None,1030.3164857999654,None,1,1.2210730999941006,1030.3164857999654,None,1031.595568699995,None,1031.595568699995,None,1032.1166155999526,None,1032.1166155999526,None,1032.1166155999526,None,n,0.3009113000007346,1032.1166155999526,None,sing13,001,2019_Oct_31_1456,ProdFawcett_Revision2019,3.2.3,59.84089501505053,
,,,,59,0,59,0,,,,,,,,,,,,,1035.8477268000133,None,,,,,,,,,,,,,,,,,,,,,,command,D_new,59,60,1032.9809857000364,None,1032.9809857000364,None,1032.9809857000364,None,2,1.6845411999383941,1032.9809857000364,None,1034.7140557999955,None,1034.7140557999955,None,1035.2409752999665,None,1035.2409752999665,None,1035.2409752999665,None,f,0.5605374000733718,1035.2409752999665,None,sing13,001,2019_Oct_31_1456,ProdFawcett_Revision2019,3.2.3,59.84089501505053,
,,,,60,0,60,0,,,,,,,,,,,,,1039.2693451000378,None,,,,,,,,,,,,,,,,,,,,,,mayor,C_sing,60,183,1036.366997999954,None,1036.366997999954,None,1036.366997999954,None,1,2.002502099960111,1036.366997999954,None,1038.4197556000436,None,1038.4197556000436,None,1038.9527141000144,None,1038.9527141000144,None,1038.9527141000144,None,n,0.28886050009168684,1038.9527141000144,None,sing13,001,2019_Oct_31_1456,ProdFawcett_Revision2019,3.2.3,59.84089501505053,
,,,,61,0,61,0,,,,,,,,,,,,,1043.6195740000112,None,,,,,,,,,,,,,,,,,,,,,,month,C_sing,61,193,1039.7927236999385,None,1039.7927236999385,None,1039.7927236999385,None,1,2.7929439999861643,1039.7927236999385,None,1042.6315362999449,None,1042.6315362999449,None,1043.1606949999696,None,1043.1606949999696,None,1043.1606949999696,None,n,0.43309449998196214,1043.1606949999696,None,sing13,001,2019_Oct_31_1456,ProdFawcett_Revision2019,3.2.3,59.84089501505053,
,,,,62,0,62,0,,,,,,,,,,,,,1046.811789499945,None,,,,,,,,,,,,,,,,,,,,,,heavy,B_aloud,62,151,1044.151561500039,None,1044.151561500039,None,1044.151561500039,None,1,1.6579212999204174,1044.151561500039,None,1045.8394362999825,None,1045.8394362999825,None,1046.3652476000134,None,1046.3652476000134,None,1046.3652476000134,None,n,0.40438650001306087,1046.3652476000134,None,sing13,001,2019_Oct_31_1456,ProdFawcett_Revision2019,3.2.3,59.84089501505053,
,,,,63,0,63,0,,,,,,,,,,,,,1049.1686208000174,None,,,,,,,,,,,,,,,,,,,,,,shear,D_new,63,283,1047.3283067999873,None,1047.3283067999873,None,1047.3283067999873,None,1,0.9294572999933735,1047.3283067999873,None,1048.299714099965,None,1048.299714099965,None,1048.8266929000383,None,1048.8266929000383,None,1048.8266929000383,None,n,0.3187698000110686,1048.8266929000383,None,sing13,001,2019_Oct_31_1456,ProdFawcett_Revision2019,3.2.3,59.84089501505053,
,,,,64,0,64,0,,,,,,,,,,,,,1052.693800900015,None,,,,,,,,,,,,,,,,,,,,,,pancakes,D_new,64,210,1049.6975115999812,None,1049.6975115999812,None,1049.6975115999812,None,1,1.9839999999385327,1049.6975115999812,None,1051.7181351999752,None,1051.7181351999752,None,1052.2445460000308,None,1052.2445460000308,None,1052.2445460000308,None,n,0.40487840003333986,1052.2445460000308,None,sing13,001,2019_Oct_31_1456,ProdFawcett_Revision2019,3.2.3,59.84089501505053,
,,,,65,0,65,0,,,,,,,,,,,,,1055.8149733999744,None,,,,,,,,,,,,,,,,,,,,,,article,A_silent,65,11,1053.2128604999743,None,1053.2128604999743,None,1053.2128604999743,None,4,1.7005320000462234,1053.2128604999743,None,1054.9669298999943,None,1054.9669298999943,None,1055.4908456000267,None,1055.4908456000267,None,1055.4908456000267,None,f,0.2869359999895096,1055.4908456000267,None,sing13,001,2019_Oct_31_1456,ProdFawcett_Revision2019,3.2.3,59.84089501505053,
,,,,66,0,66,0,,,,,,,,,,,,,1059.7731873999583,None,,,,,,,,,,,,,,,,,,,,,,colonel,D_new,66,55,1056.3503288000356,None,1056.3503288000356,None,1056.3503288000356,None,1,2.5391821999801323,1056.3503288000356,None,1058.942280499963,None,1058.942280499963,None,1059.464530199999,None,1059.464530199999,None,1059.464530199999,None,n,0.2729108000639826,1059.464530199999,None,sing13,001,2019_Oct_31_1456,ProdFawcett_Revision2019,3.2.3,59.84089501505053,
,,,,67,0,67,0,,,,,,,,,,,,,1062.4585150999483,None,,,,,,,,,,,,,,,,,,,,,,dispute,A_silent,67,99,1060.2950908000348,None,1060.2950908000348,None,1060.2950908000348,None,1,1.314295700052753,1060.2950908000348,None,1061.6458577000303,None,1061.6458577000303,None,1062.1581157000037,None,1062.1581157000037,None,1062.1581157000037,None,n,0.2594159999862313,1062.1581157000037,None,sing13,001,2019_Oct_31_1456,ProdFawcett_Revision2019,3.2.3,59.84089501505053,
,,,,68,0,68,0,,,,,,,,,,,,,1067.7271933000302,None,,,,,,,,,,,,,,,,,,,,,,scale,D_new,68,272,1062.9818717000308,None,1062.9818717000308,None,1062.9818717000308,None,3,3.8676551999524236,1062.9818717000308,None,1066.8947014999576,None,1066.8947014999576,None,1067.4214872999582,None,1067.4214872999582,None,1067.4214872999582,None,f,0.27604179992340505,1067.4214872999582,None,sing13,001,2019_Oct_31_1456,ProdFawcett_Revision2019,3.2.3,59.84089501505053,
,,,,69,0,69,0,,,,,,,,,,,,,1071.6801892999792,None,,,,,,,,,,,,,,,,,,,,,,member,D_new,69,188,1068.2480297000147,None,1068.2480297000147,None,1068.2480297000147,None,5,2.0176345000509173,1068.2480297000147,None,1070.312485100003,None,1070.312485100003,None,1070.8275242999662,None,1070.8275242999662,None,1070.8275242999662,None,f,0.8060101999435574,1070.8275242999662,None,sing13,001,2019_Oct_31_1456,ProdFawcett_Revision2019,3.2.3,59.84089501505053,
,,,,70,0,70,0,,,,,,,,,,,,,1074.9777050999692,None,,,,,,,,,,,,,,,,,,,,,,master,B_aloud,70,180,1072.1982542000478,None,1072.1982542000478,None,1072.1982542000478,None,6,1.7551038999808952,1072.1982542000478,None,1073.9851143000415,None,1073.9851143000415,None,1074.5109975000378,None,1074.5109975000378,None,1074.5109975000378,None,r,0.4265434999251738,1074.5109975000378,None,sing13,001,2019_Oct_31_1456,ProdFawcett_Revision2019,3.2.3,59.84089501505053,
,,,,71,0,71,0,,,,,,,,,,,,,1080.7126772999763,None,,,,,,,,,,,,,,,,,,,,,,course,D_new,71,74,1075.5011577999685,None,1075.5011577999685,None,1075.5011577999685,None,5,4.300272600026801,1075.5011577999685,None,1079.8439182000002,None,1079.8439182000002,None,1080.3573446000228,None,1080.3573446000228,None,1080.3573446000228,None,f,0.3239310000790283,1080.3573446000228,None,sing13,001,2019_Oct_31_1456,ProdFawcett_Revision2019,3.2.3,59.84089501505053,
,,,,72,0,72,0,,,,,,,,,,,,,1083.8650054000318,None,,,,,,,,,,,,,,,,,,,,,,review,D_new,72,263,1081.2339491000166,None,1081.2339491000166,None,1081.2339491000166,None,3,1.5756031000055373,1081.2339491000166,None,1082.8560386999743,None,1082.8560386999743,None,1083.38628039998,None,1083.38628039998,None,1083.38628039998,None,f,0.4392646999331191,1083.38628039998,None,sing13,001,2019_Oct_31_1456,ProdFawcett_Revision2019,3.2.3,59.84089501505053,
,,,,73,0,73,0,,,,,,,,,,,,,1089.6496790000238,None,,,,,,,,,,,,,,,,,,,,,,ground,D_new,73,142,1084.3842466999777,None,1084.3842466999777,None,1084.3842466999777,None,5,4.385324100032449,1084.3842466999777,None,1088.8254923999775,None,1088.8254923999775,None,1089.342530600028,None,1089.342530600028,None,1089.342530600028,None,f,0.2672305000014603,1089.342530600028,None,sing13,001,2019_Oct_31_1456,ProdFawcett_Revision2019,3.2.3,59.84089501505053,
,,,,74,0,74,0,,,,,,,,,,,,,1093.751030000043,None,,,,,,,,,,,,,,,,,,,,,,build,B_aloud,74,35,1090.1705931000179,None,1090.1705931000179,None,1090.1705931000179,None,1,2.630755399935879,1090.1705931000179,None,1092.850323999999,None,1092.850323999999,None,1093.384174100007,None,1093.384174100007,None,1093.384174100007,None,n,0.329849399975501,1093.384174100007,None,sing13,001,2019_Oct_31_1456,ProdFawcett_Revision2019,3.2.3,59.84089501505053,
,,,,75,0,75,0,,,,,,,,,,,,,1100.1457560999552,None,,,,,,,,,,,,,,,,,,,,,,afternoon,A_silent,75,3,1094.2832032999722,None,1094.2832032999722,None,1094.2832032999722,None,4,4.966237499960698,1094.2832032999722,None,1099.2863878000062,None,1099.2863878000062,None,1099.8115877000382,None,1099.8115877000382,None,1099.8115877000382,None,f,0.3021457999711856,1099.8115877000382,None,sing13,001,2019_Oct_31_1456,ProdFawcett_Revision2019,3.2.3,59.84089501505053,
,,,,76,0,76,0,,,,,,,,,,,,,1104.6370012999978,None,,,,,,,,,,,,,,,,,,,,,,express,A_silent,76,124,1100.6552853999892,None,1100.6552853999892,None,1100.6552853999892,None,3,2.554398400010541,1100.6552853999892,None,1103.2504323000321,None,1103.2504323000321,None,1103.7713318000315,None,1103.7713318000315,None,1103.7713318000315,None,f,0.8299374999478459,1103.7713318000315,None,sing13,001,2019_Oct_31_1456,ProdFawcett_Revision2019,3.2.3,59.84089501505053,
,,,,77,0,77,0,,,,,,,,,,,,,1108.4106523999944,None,,,,,,,,,,,,,,,,,,,,,,beauty,C_sing,77,18,1105.170648099971,None,1105.170648099971,None,1105.170648099971,None,6,1.3350181999849156,1105.170648099971,None,1106.5625772000058,None,1106.5625772000058,None,1107.0835697000148,None,1107.0835697000148,None,1107.0835697000148,None,r,1.285879300092347,1107.0835697000148,None,sing13,001,2019_Oct_31_1456,ProdFawcett_Revision2019,3.2.3,59.84089501505053,
,,,,78,0,78,0,,,,,,,,,,,,,1114.3462067999644,None,,,,,,,,,,,,,,,,,,,,,,broke,D_new,78,32,1108.9353721999796,None,1108.9353721999796,None,1108.9353721999796,None,1,4.4982059999601915,1108.9353721999796,None,1113.470643699984,None,1113.470643699984,None,1113.9717317000031,None,1113.9717317000031,None,1113.9717317000031,None,n,0.34171169996261597,1113.9717317000031,None,sing13,001,2019_Oct_31_1456,ProdFawcett_Revision2019,3.2.3,59.84089501505053,
,,,,79,0,79,0,,,,,,,,,,,,,1117.6822467000457,None,,,,,,,,,,,,,,,,,,,,,,pattern,D_new,79,214,1114.8657751999563,None,1114.8657751999563,None,1114.8657751999563,None,6,1.911836800049059,1114.8657751999563,None,1116.8271347000264,None,1116.8271347000264,None,1117.3501078999834,None,1117.3501078999834,None,1117.3501078999834,None,r,0.2995953999925405,1117.3501078999834,None,sing13,001,2019_Oct_31_1456,ProdFawcett_Revision2019,3.2.3,59.84089501505053,
,,,,80,0,80,0,,,,,,,,,,,,,1121.3844214000273,None,,,,,,,,,,,,,,,,,,,,,,century,D_new,80,45,1118.2023420999758,None,1118.2023420999758,None,1118.2023420999758,None,1,2.318953900015913,1118.2023420999758,None,1120.5644438000163,None,1120.5644438000163,None,1121.0840883000055,None,1121.0840883000055,None,1121.0840883000055,None,n,0.25341330002993345,1121.0840883000055,None,sing13,001,2019_Oct_31_1456,ProdFawcett_Revision2019,3.2.3,59.84089501505053,
,,,,81,0,81,0,,,,,,,,,,,,,1126.6136158000445,None,,,,,,,,,,,,,,,,,,,,,,distance,D_new,81,100,1121.9038546000374,None,1121.9038546000374,None,1121.9038546000374,None,3,3.809743400081061,1121.9038546000374,None,1125.7577121000504,None,1125.7577121000504,None,1126.2841398000019,None,1126.2841398000019,None,1126.2841398000019,None,f,0.30144840001594275,1126.2841398000019,None,sing13,001,2019_Oct_31_1456,ProdFawcett_Revision2019,3.2.3,59.84089501505053,
,,,,82,0,82,0,,,,,,,,,,,,,1129.67257960001,None,,,,,,,,,,,,,,,,,,,,,,surprise,C_sing,82,317,1127.1358470999403,None,1127.1358470999403,None,1127.1358470999403,None,6,1.6575727000599727,1127.1358470999403,None,1128.8314478000393,None,1128.8314478000393,None,1129.3524701000424,None,1129.3524701000424,None,1129.3524701000424,None,r,0.28119840007275343,1129.3524701000424,None,sing13,001,2019_Oct_31_1456,ProdFawcett_Revision2019,3.2.3,59.84089501505053,
,,,,83,0,83,0,,,,,,,,,,,,,1132.3621912000235,None,,,,,,,,,,,,,,,,,,,,,,light,B_aloud,83,171,1130.2019834000384,None,1130.2019834000384,None,1130.2019834000384,None,6,1.295498999999836,1130.2019834000384,None,1131.5446490000468,None,1131.5446490000468,None,1132.0683852999937,None,1132.0683852999937,None,1132.0683852999937,None,r,0.26128799992147833,1132.0683852999937,None,sing13,001,2019_Oct_31_1456,ProdFawcett_Revision2019,3.2.3,59.84089501505053,
,,,,84,0,84,0,,,,,,,,,,,,,1134.9905020999722,None,,,,,,,,,,,,,,,,,,,,,,clean,D_new,84,51,1132.890889900038,None,1132.890889900038,None,1132.890889900038,None,1,1.2628205999499187,1132.890889900038,None,1134.1893667000113,None,1134.1893667000113,None,1134.7169550999533,None,1134.7169550999533,None,1134.7169550999533,None,n,0.24447879998479038,1134.7169550999533,None,sing13,001,2019_Oct_31_1456,ProdFawcett_Revision2019,3.2.3,59.84089501505053,
,,,,85,0,85,0,,,,,,,,,,,,,1138.333457199973,None,,,,,,,,,,,,,,,,,,,,,,council,D_new,85,71,1135.5167077999795,None,1135.5167077999795,None,1135.5167077999795,None,2,1.9331246999790892,1135.5167077999795,None,1137.4877415000228,None,1137.4877415000228,None,1138.0164336999878,None,1138.0164336999878,None,1138.0164336999878,None,f,0.28137250000145286,1138.0164336999878,None,sing13,001,2019_Oct_31_1456,ProdFawcett_Revision2019,3.2.3,59.84089501505053,
,,,,86,0,86,0,,,,,,,,,,,,,1141.1340950999875,None,,,,,,,,,,,,,,,,,,,,,,series,B_aloud,86,279,1138.859415999963,None,1138.859415999963,None,1138.859415999963,None,6,1.381902200053446,1138.859415999963,None,1140.2794916999992,None,1140.2794916999992,None,1140.8023317999905,None,1140.8023317999905,None,1140.8023317999905,None,r,0.2949953000061214,1140.8023317999905,None,sing13,001,2019_Oct_31_1456,ProdFawcett_Revision2019,3.2.3,59.84089501505053,
,,,,87,0,87,0,,,,,,,,,,,,,1144.8451130000176,None,,,,,,,,,,,,,,,,,,,,,,childhood,C_sing,87,49,1141.6548793000402,None,1141.6548793000402,None,1141.6548793000402,None,3,2.2908840000163764,1141.6548793000402,None,1143.992222400033,None,1143.992222400033,None,1144.516010500025,None,1144.516010500025,None,1144.516010500025,None,f,0.285381400026381,1144.516010500025,None,sing13,001,2019_Oct_31_1456,ProdFawcett_Revision2019,3.2.3,59.84089501505053,
,,,,88,0,88,0,,,,,,,,,,,,,1147.6630859000143,None,,,,,,,,,,,,,,,,,,,,,,report,D_new,88,259,1145.3608058999525,None,1145.3608058999525,None,1145.3608058999525,None,1,1.42474599997513,1145.3608058999525,None,1146.8148064999841,None,1146.8148064999841,None,1147.3365216000238,None,1147.3365216000238,None,1147.3365216000238,None,n,0.29698770004324615,1147.3365216000238,None,sing13,001,2019_Oct_31_1456,ProdFawcett_Revision2019,3.2.3,59.84089501505053,
,,,,89,0,89,0,,,,,,,,,,,,,1150.3905390000436,None,,,,,,,,,,,,,,,,,,,,,,whole,D_new,89,355,1148.181007700041,None,1148.181007700041,None,1148.181007700041,None,1,1.324515699991025,1148.181007700041,None,1149.5695222000359,None,1149.5695222000359,None,1150.0867934999987,None,1150.0867934999987,None,1150.0867934999987,None,n,0.2746418999740854,1150.0867934999987,None,sing13,001,2019_Oct_31_1456,ProdFawcett_Revision2019,3.2.3,59.84089501505053,
,,,,90,0,90,0,,,,,,,,,,,,,1153.7079660999589,None,,,,,,,,,,,,,,,,,,,,,,employment,A_silent,90,111,1150.918055600021,None,1150.918055600021,None,1150.918055600021,None,6,1.5232872000196949,1150.918055600021,None,1152.4929358999943,None,1152.4929358999943,None,1153.019480500021,None,1153.019480500021,None,1153.019480500021,None,f,0.638176399981603,1153.019480500021,None,sing13,001,2019_Oct_31_1456,ProdFawcett_Revision2019,3.2.3,59.84089501505053,
,,,,91,0,91,0,,,,,,,,,,,,,1156.907955899951,None,,,,,,,,,,,,,,,,,,,,,,interview,C_sing,91,165,1154.244150500046,None,1154.244150500046,None,1154.244150500046,None,6,1.7972498999442905,1154.244150500046,None,1156.0898524000077,None,1156.0898524000077,None,1156.6252725999802,None,1156.6252725999802,None,1156.6252725999802,None,r,0.24788759998045862,1156.6252725999802,None,sing13,001,2019_Oct_31_1456,ProdFawcett_Revision2019,3.2.3,59.84089501505053,
,,,,92,0,92,0,,,,,,,,,,,,,1160.0780899999663,None,,,,,,,,,,,,,,,,,,,,,,material,C_sing,92,182,1157.4347961000167,None,1157.4347961000167,None,1157.4347961000167,None,6,1.7667006999254227,1157.4347961000167,None,1159.2339534000494,None,1159.2339534000494,None,1159.7488532999996,None,1159.7488532999996,None,1159.7488532999996,None,f,0.30056359991431236,1159.7488532999996,None,sing13,001,2019_Oct_31_1456,ProdFawcett_Revision2019,3.2.3,59.84089501505053,
,,,,93,0,93,0,,,,,,,,,,,,,1164.659505299991,None,,,,,,,,,,,,,,,,,,,,,,poetry,A_silent,93,225,1160.6089273999678,None,1160.6089273999678,None,1160.6089273999678,None,6,3.1288206999888644,1160.6089273999678,None,1163.7796658000443,None,1163.7796658000443,None,1164.304376599961,None,1164.304376599961,None,1164.304376599961,None,r,0.3051410000771284,1164.304376599961,None,sing13,001,2019_Oct_31_1456,ProdFawcett_Revision2019,3.2.3,59.84089501505053,
,,,,94,0,94,0,,,,,,,,,,,,,1168.1536118000513,None,,,,,,,,,,,,,,,,,,,,,,split,C_sing,94,299,1165.187409200007,None,1165.187409200007,None,1165.187409200007,None,1,2.046070000040345,1165.187409200007,None,1167.2763457000256,None,1167.2763457000256,None,1167.799387200037,None,1167.799387200037,None,1167.799387200037,None,n,0.3141055000014603,1167.799387200037,None,sing13,001,2019_Oct_31_1456,ProdFawcett_Revision2019,3.2.3,59.84089501505053,
,,,,95,0,95,0,,,,,,,,,,,,,1171.9704460999928,None,,,,,,,,,,,,,,,,,,,,,,drink,D_new,95,105,1168.6714061000384,None,1168.6714061000384,None,1168.6714061000384,None,2,2.458090899977833,1168.6714061000384,None,1171.1765068999957,None,1171.1765068999957,None,1171.7050444999477,None,1171.7050444999477,None,1171.7050444999477,None,f,0.22476829995866865,1171.7050444999477,None,sing13,001,2019_Oct_31_1456,ProdFawcett_Revision2019,3.2.3,59.84089501505053,
,,,,96,0,96,0,,,,,,,,,,,,,1174.9272642999422,None,,,,,,,,,,,,,,,,,,,,,,recall,D_new,96,255,1172.4911034000106,None,1172.4911034000106,None,1172.4911034000106,None,1,1.6627063999185339,1172.4911034000106,None,1174.2034524000483,None,1174.2034524000483,None,1174.721455299994,None,1174.721455299994,None,1174.721455299994,None,n,0.16765569988638163,1174.721455299994,None,sing13,001,2019_Oct_31_1456,ProdFawcett_Revision2019,3.2.3,59.84089501505053,
,,,,97,0,97,0,,,,,,,,,,,,,1178.1826302999398,None,,,,,,,,,,,,,,,,,,,,,,figure,C_sing,97,128,1175.4514233999653,None,1175.4514233999653,None,1175.4514233999653,None,6,1.9022867999738082,1175.4514233999653,None,1177.3959543999517,None,1177.3959543999517,None,1177.9229776000138,None,1177.9229776000138,None,1177.9229776000138,None,r,0.2304983000503853,1177.9229776000138,None,sing13,001,2019_Oct_31_1456,ProdFawcett_Revision2019,3.2.3,59.84089501505053,
,,,,98,0,98,0,,,,,,,,,,,,,1182.0495812000008,None,,,,,,,,,,,,,,,,,,,,,,principal,D_new,98,236,1178.7058368000435,None,1178.7058368000435,None,1178.7058368000435,None,5,2.4959651000099257,1178.7058368000435,None,1181.2320513000013,None,1181.2320513000013,None,1181.7510798999574,None,1181.7510798999574,None,1181.7510798999574,None,f,0.2583654000191018,1181.7510798999574,None,sing13,001,2019_Oct_31_1456,ProdFawcett_Revision2019,3.2.3,59.84089501505053,
,,,,99,0,99,0,,,,,,,,,,,,,1184.6001868000021,None,,,,,,,,,,,,,,,,,,,,,,death,A_silent,99,86,1182.5715976000065,None,1182.5715976000065,None,1182.5715976000065,None,6,1.1897781000006944,1182.5715976000065,None,1183.804105999996,None,1183.804105999996,None,1184.3189536000136,None,1184.3189536000136,None,1184.3189536000136,None,r,0.2507352000102401,1184.3189536000136,None,sing13,001,2019_Oct_31_1456,ProdFawcett_Revision2019,3.2.3,59.84089501505053,
,,,,100,0,100,0,,,,,,,,,,,,,1190.546278099995,None,,,,,,,,,,,,,,,,,,,,,,balance,D_new,100,17,1185.1238038999727,None,1185.1238038999727,None,1185.1238038999727,None,5,4.565526799997315,1185.1238038999727,None,1189.7196601999458,None,1189.7196601999458,None,1190.2428489000304,None,1190.2428489000304,None,1190.2428489000304,None,f,0.26274769997689873,1190.2428489000304,None,sing13,001,2019_Oct_31_1456,ProdFawcett_Revision2019,3.2.3,59.84089501505053,
,,,,101,0,101,0,,,,,,,,,,,,,1194.6820073999697,None,,,,,,,,,,,,,,,,,,,,,,threat,D_new,101,329,1191.0723350000335,None,1191.0723350000335,None,1191.0723350000335,None,6,2.7773760000709444,1191.0723350000335,None,1193.8926194999367,None,1193.8926194999367,None,1194.4158537000185,None,1194.4158537000185,None,1194.4158537000185,None,r,0.2415498000336811,1194.4158537000185,None,sing13,001,2019_Oct_31_1456,ProdFawcett_Revision2019,3.2.3,59.84089501505053,
,,,,102,0,102,0,,,,,,,,,,,,,1197.7954705000157,None,,,,,,,,,,,,,,,,,,,,,,business,D_new,102,38,1195.2073930000188,None,1195.2073930000188,None,1195.2073930000188,None,4,1.7779563999501988,1195.2073930000188,None,1197.0272588999942,None,1197.0272588999942,None,1197.547145199962,None,1197.547145199962,None,1197.547145199962,None,f,0.21440339996479452,1197.547145199962,None,sing13,001,2019_Oct_31_1456,ProdFawcett_Revision2019,3.2.3,59.84089501505053,
,,,,103,0,103,0,,,,,,,,,,,,,1200.5953632999444,None,,,,,,,,,,,,,,,,,,,,,,union,B_aloud,103,344,1198.323118399945,None,1198.323118399945,None,1198.323118399945,None,6,1.4063666999572888,1198.323118399945,None,1199.7766327999998,None,1199.7766327999998,None,1200.2992431999883,None,1200.2992431999883,None,1200.2992431999883,None,r,0.2462515999795869,1200.2992431999883,None,sing13,001,2019_Oct_31_1456,ProdFawcett_Revision2019,3.2.3,59.84089501505053,
,,,,104,0,104,0,,,,,,,,,,,,,1203.8225076999515,None,,,,,,,,,,,,,,,,,,,,,,interior,C_sing,104,164,1201.124790700036,None,1201.124790700036,None,1201.124790700036,None,6,1.8528307999949902,1201.124790700036,None,1203.0329727999633,None,1203.0329727999633,None,1203.5541804999812,None,1203.5541804999812,None,1203.5541804999812,None,r,0.23129729996435344,1203.5541804999812,None,sing13,001,2019_Oct_31_1456,ProdFawcett_Revision2019,3.2.3,59.84089501505053,
,,,,105,0,105,0,,,,,,,,,,,,,1206.7323475000449,None,,,,,,,,,,,,,,,,,,,,,,husband,D_new,105,156,1204.3458697999595,None,1204.3458697999595,None,1204.3458697999595,None,1,1.5196004000026733,1204.3458697999595,None,1205.9127702999394,None,1205.9127702999394,None,1206.435487800045,None,1206.435487800045,None,1206.435487800045,None,n,0.2619202999630943,1206.435487800045,None,sing13,001,2019_Oct_31_1456,ProdFawcett_Revision2019,3.2.3,59.84089501505053,
,,,,106,0,106,0,,,,,,,,,,,,,1210.860878800042,None,,,,,,,,,,,,,,,,,,,,,,general,C_sing,106,135,1207.2608216999797,None,1207.2608216999797,None,1207.2608216999797,None,2,2.012866700068116,1207.2608216999797,None,1209.3129556999775,None,1209.3129556999775,None,1209.842188199982,None,1209.842188199982,None,1209.842188199982,None,f,0.9674133999506012,1209.842188199982,None,sing13,001,2019_Oct_31_1456,ProdFawcett_Revision2019,3.2.3,59.84089501505053,
,,,,107,0,107,0,,,,,,,,,,,,,1216.1701251999475,None,,,,,,,,,,,,,,,,,,,,,,discussion,B_aloud,107,96,1211.3908070999896,None,1211.3908070999896,None,1211.3908070999896,None,2,2.146970000001602,1211.3908070999896,None,1213.5856968000298,None,1213.5856968000298,None,1214.1045124999946,None,1214.1045124999946,None,1214.1045124999946,None,f,2.0249229000182822,1214.1045124999946,None,sing13,001,2019_Oct_31_1456,ProdFawcett_Revision2019,3.2.3,59.84089501505053,
,,,,108,0,108,0,,,,,,,,,,,,,1219.1564538000384,None,,,,,,,,,,,,,,,,,,,,,,education,D_new,108,108,1216.6983425000217,None,1216.6983425000217,None,1216.6983425000217,None,3,1.567163800005801,1216.6983425000217,None,1218.3117729000514,None,1218.3117729000514,None,1218.8284476000117,None,1218.8284476000117,None,1218.8284476000117,None,f,0.29367000004276633,1218.8284476000117,None,sing13,001,2019_Oct_31_1456,ProdFawcett_Revision2019,3.2.3,59.84089501505053,
,,,,109,0,109,0,,,,,,,,,,,,,1222.8288944000378,None,,,,,,,,,,,,,,,,,,,,,,pretty,A_silent,109,233,1219.6758280999493,None,1219.6758280999493,None,1219.6758280999493,None,6,2.0774929999606684,1219.6758280999493,None,1221.7903117999667,None,1221.7903117999667,None,1222.3085332999472,None,1222.3085332999472,None,1222.3085332999472,None,r,0.47707969998009503,1222.3085332999472,None,sing13,001,2019_Oct_31_1456,ProdFawcett_Revision2019,3.2.3,59.84089501505053,
,,,,110,0,110,0,,,,,,,,,,,,,1226.2341505000368,None,,,,,,,,,,,,,,,,,,,,,,career,D_new,110,42,1223.3610859999899,None,1223.3610859999899,None,1223.3610859999899,None,3,1.9925336999585852,1223.3610859999899,None,1225.4057599999942,None,1225.4057599999942,None,1225.9204804999754,None,1225.9204804999754,None,1225.9204804999754,None,f,0.27287430001888424,1225.9204804999754,None,sing13,001,2019_Oct_31_1456,ProdFawcett_Revision2019,3.2.3,59.84089501505053,
,,,,111,0,111,0,,,,,,,,,,,,,1228.7947995000286,None,,,,,,,,,,,,,,,,,,,,,,stand,D_new,111,302,1226.7594947000034,None,1226.7594947000034,None,1226.7594947000034,None,1,1.2177981999702752,1226.7594947000034,None,1228.0159997999435,None,1228.0159997999435,None,1228.53766859998,None,1228.53766859998,None,1228.53766859998,None,n,0.23163920000661165,1228.53766859998,None,sing13,001,2019_Oct_31_1456,ProdFawcett_Revision2019,3.2.3,59.84089501505053,
,,,,112,0,112,0,,,,,,,,,,,,,1234.0622929999372,None,,,,,,,,,,,,,,,,,,,,,,little,B_aloud,112,174,1229.3279685999732,None,1229.3279685999732,None,1229.3279685999732,None,5,3.969435999984853,1229.3279685999732,None,1233.3436484000413,None,1233.3436484000413,None,1233.8732923000352,None,1233.8732923000352,None,1233.8732923000352,None,f,0.16008699999656528,1233.8732923000352,None,sing13,001,2019_Oct_31_1456,ProdFawcett_Revision2019,3.2.3,59.84089501505053,
,,,,113,0,113,0,,,,,,,,,,,,,1237.0020498000085,None,,,,,,,,,,,,,,,,,,,,,,harmony,C_sing,113,148,1234.5914593000198,None,1234.5914593000198,None,1234.5914593000198,None,6,1.5538494000211358,1234.5914593000198,None,1236.185732700047,None,1236.185732700047,None,1236.7139113999438,None,1236.7139113999438,None,1236.7139113999438,None,r,0.2556907000252977,1236.7139113999438,None,sing13,001,2019_Oct_31_1456,ProdFawcett_Revision2019,3.2.3,59.84089501505053,
,,,,114,0,114,0,,,,,,,,,,,,,1239.4516666999552,None,,,,,,,,,,,,,,,,,,,,,,youth,D_new,114,359,1237.5247972999932,None,1237.5247972999932,None,1237.5247972999932,None,1,1.2206664000404999,1237.5247972999932,None,1238.7932467999635,None,1238.7932467999635,None,1239.3065307999495,None,1239.3065307999495,None,1239.3065307999495,None,n,0.11885909992270172,1239.3065307999495,None,sing13,001,2019_Oct_31_1456,ProdFawcett_Revision2019,3.2.3,59.84089501505053,
,,,,115,0,115,0,,,,,,,,,,,,,1244.3264823999489,None,,,,,,,,,,,,,,,,,,,,,,message,C_sing,115,189,1239.979801999987,None,1239.979801999987,None,1239.979801999987,None,6,3.5657209999626502,1239.979801999987,None,1243.5999429000076,None,1243.5999429000076,None,1244.127211999963,None,1244.127211999963,None,1244.127211999963,None,r,0.15430900000501424,1244.127211999963,None,sing13,001,2019_Oct_31_1456,ProdFawcett_Revision2019,3.2.3,59.84089501505053,
,,,,116,0,116,0,,,,,,,,,,,,,1247.919496400049,None,,,,,,,,,,,,,,,,,,,,,,commercial,C_sing,116,61,1244.84611579997,None,1244.84611579997,None,1244.84611579997,None,5,2.2512140999315307,1244.84611579997,None,1247.14399589994,None,1247.14399589994,None,1247.6536497999914,None,1247.6536497999914,None,1247.6536497999914,None,f,0.23615820007398725,1247.6536497999914,None,sing13,001,2019_Oct_31_1456,ProdFawcett_Revision2019,3.2.3,59.84089501505053,
,,,,117,0,117,0,,,,,,,,,,,,,1254.800378600019,None,,,,,,,,,,,,,,,,,,,,,,breath,A_silent,117,27,1248.44740179996,None,1248.44740179996,None,1248.44740179996,None,4,4.649989600060508,1248.44740179996,None,1253.1485300000058,None,1253.1485300000058,None,1253.6750947999535,None,1253.6750947999535,None,1253.6750947999535,None,f,1.086464500054717,1253.6750947999535,None,sing13,001,2019_Oct_31_1456,ProdFawcett_Revision2019,3.2.3,59.84089501505053,
,,,,118,0,118,0,,,,,,,,,,,,,1257.795874399948,None,,,,,,,,,,,,,,,,,,,,,,title,B_aloud,118,331,1255.325781499967,None,1255.325781499967,None,1255.325781499967,None,5,1.427878599963151,1255.325781499967,None,1256.8004224000033,None,1256.8004224000033,None,1257.325399799971,None,1257.325399799971,None,1257.325399799971,None,f,0.4282893999479711,1257.325399799971,None,sing13,001,2019_Oct_31_1456,ProdFawcett_Revision2019,3.2.3,59.84089501505053,
,,,,119,0,119,0,,,,,,,,,,,,,1260.9268518999452,None,,,,,,,,,,,,,,,,,,,,,,taste,A_silent,119,322,1258.3282997000497,None,1258.3282997000497,None,1258.3282997000497,None,6,1.6332323999376968,1258.3282997000497,None,1260.0030696999747,None,1260.0030696999747,None,1260.5265210999642,None,1260.5265210999642,None,1260.5265210999642,None,r,0.35506420000456274,1260.5265210999642,None,sing13,001,2019_Oct_31_1456,ProdFawcett_Revision2019,3.2.3,59.84089501505053,
,,,,120,0,120,0,,,,,,,,,,,,,1264.1941214000108,None,,,,,,,,,,,,,,,,,,,,,,judge,A_silent,120,166,1261.4497991999378,None,1261.4497991999378,None,1261.4497991999378,None,6,1.887738100020215,1261.4497991999378,None,1263.3746505000163,None,1263.3746505000163,None,1263.8974883999908,None,1263.8974883999908,None,1263.8974883999908,None,r,0.2562137000495568,1263.8974883999908,None,sing13,001,2019_Oct_31_1456,ProdFawcett_Revision2019,3.2.3,59.84089501505053,
,,,,121,0,121,0,,,,,,,,,,,,,1267.0706135999644,None,,,,,,,,,,,,,,,,,,,,,,present,D_new,121,231,1264.711780600017,None,1264.711780600017,None,1264.711780600017,None,5,1.681724900030531,1264.711780600017,None,1266.4264670000412,None,1266.4264670000412,None,1266.9448472999502,None,1266.9448472999502,None,1266.9448472999502,None,f,0.09673379990272224,1266.9448472999502,None,sing13,001,2019_Oct_31_1456,ProdFawcett_Revision2019,3.2.3,59.84089501505053,
,,,,122,0,122,0,,,,,,,,,,,,,1270.5931945999619,None,,,,,,,,,,,,,,,,,,,,,,shape,D_new,122,282,1267.5940886000171,None,1267.5940886000171,None,1267.5940886000171,None,3,1.959285799995996,1267.5940886000171,None,1269.6025216999697,None,1269.6025216999697,None,1270.1255012999754,None,1270.1255012999754,None,1270.1255012999754,None,f,0.42807460005860776,1270.1255012999754,None,sing13,001,2019_Oct_31_1456,ProdFawcett_Revision2019,3.2.3,59.84089501505053,
,,,,123,0,123,0,,,,,,,,,,,,,1273.3121118999552,None,,,,,,,,,,,,,,,,,,,,,,vision,C_sing,123,347,1271.12386599998,None,1271.12386599998,None,1271.12386599998,None,6,1.3177503000479192,1271.12386599998,None,1272.4866546000121,None,1272.4866546000121,None,1273.0115397999762,None,1273.0115397999762,None,1273.0115397999762,None,f,0.2623953999718651,1273.0115397999762,None,sing13,001,2019_Oct_31_1456,ProdFawcett_Revision2019,3.2.3,59.84089501505053,
,,,,124,0,124,0,,,,,,,,,,,,,1276.1690776000032,None,,,,,,,,,,,,,,,,,,,,,,murder,A_silent,124,195,1273.8297983999364,None,1273.8297983999364,None,1273.8297983999364,None,6,1.3716314000776038,1273.8297983999364,None,1275.2499606000492,None,1275.2499606000492,None,1275.7764010999817,None,1275.7764010999817,None,1275.7764010999817,None,r,0.3690131999319419,1275.7764010999817,None,sing13,001,2019_Oct_31_1456,ProdFawcett_Revision2019,3.2.3,59.84089501505053,
,,,,125,0,125,0,,,,,,,,,,,,,1278.89548810001,None,,,,,,,,,,,,,,,,,,,,,,court,A_silent,125,75,1276.6936845999444,None,1276.6936845999444,None,1276.6936845999444,None,6,1.2917542000068352,1276.6936845999444,None,1278.0331686999416,None,1278.0331686999416,None,1278.552447999944,None,1278.552447999944,None,1278.552447999944,None,r,0.2970929000293836,1278.552447999944,None,sing13,001,2019_Oct_31_1456,ProdFawcett_Revision2019,3.2.3,59.84089501505053,
,,,,126,0,126,0,,,,,,,,,,,,,1282.827269500005,None,,,,,,,,,,,,,,,,,,,,,,research,C_sing,126,261,1279.4112194000045,None,1279.4112194000045,None,1279.4112194000045,None,6,2.5185175000224262,1279.4112194000045,None,1281.9774436999578,None,1281.9774436999578,None,1282.4833831000142,None,1282.4833831000142,None,1282.4833831000142,None,r,0.31044680008199066,1282.4833831000142,None,sing13,001,2019_Oct_31_1456,ProdFawcett_Revision2019,3.2.3,59.84089501505053,
,,,,127,0,127,0,,,,,,,,,,,,,1287.9084736000514,None,,,,,,,,,,,,,,,,,,,,,,trial,A_silent,127,341,1283.3434542999603,None,1283.3434542999603,None,1283.3434542999603,None,2,3.162074499996379,1283.3434542999603,None,1286.5541244000196,None,1286.5541244000196,None,1287.0782993000466,None,1287.0782993000466,None,1287.0782993000466,None,n,0.7954335999675095,1287.0782993000466,None,sing13,001,2019_Oct_31_1456,ProdFawcett_Revision2019,3.2.3,59.84089501505053,
,,,,128,0,128,0,,,,,,,,,,,,,1291.2765978999669,None,,,,,,,,,,,,,,,,,,,,,,answer,C_sing,128,8,1288.4424124000361,None,1288.4424124000361,None,1288.4424124000361,None,1,1.943076900090091,1288.4424124000361,None,1290.4475260999752,None,1290.4475260999752,None,1290.965176000027,None,1290.965176000027,None,1290.965176000027,None,n,0.26836679992266,1290.965176000027,None,sing13,001,2019_Oct_31_1456,ProdFawcett_Revision2019,3.2.3,59.84089501505053,
,,,,129,0,129,0,,,,,,,,,,,,,1293.6291209999472,None,,,,,,,,,,,,,,,,,,,,,,session,D_new,129,281,1291.7999203000218,None,1291.7999203000218,None,1291.7999203000218,None,1,0.9616381999803707,1291.7999203000218,None,1292.8062669000356,None,1292.8062669000356,None,1293.3261808999814,None,1293.3261808999814,None,1293.3261808999814,None,n,0.25928959995508194,1293.3261808999814,None,sing13,001,2019_Oct_31_1456,ProdFawcett_Revision2019,3.2.3,59.84089501505053,
,,,,130,0,130,0,,,,,,,,,,,,,1296.864701500046,None,,,,,,,,,,,,,,,,,,,,,,republic,D_new,130,260,1294.1484351999825,None,1294.1484351999825,None,1294.1484351999825,None,1,1.9409724000142887,1294.1484351999825,None,1296.1289946000325,None,1296.1289946000325,None,1296.6520773000084,None,1296.6520773000084,None,1296.6520773000084,None,n,0.16543170006480068,1296.6520773000084,None,sing13,001,2019_Oct_31_1456,ProdFawcett_Revision2019,3.2.3,59.84089501505053,
,,,,131,0,131,0,,,,,,,,,,,,,1300.0401401999407,None,,,,,,,,,,,,,,,,,,,,,,group,D_new,131,143,1297.404002299998,None,1297.404002299998,None,1297.404002299998,None,1,1.7655307999812067,1297.404002299998,None,1299.2152465999825,None,1299.2152465999825,None,1299.7275490999455,None,1299.7275490999455,None,1299.7275490999455,None,n,0.28228150005452335,1299.7275490999455,None,sing13,001,2019_Oct_31_1456,ProdFawcett_Revision2019,3.2.3,59.84089501505053,
,,,,132,0,132,0,,,,,,,,,,,,,1303.0462448999751,None,,,,,,,,,,,,,,,,,,,,,,stranger,A_silent,132,309,1300.5685839999933,None,1300.5685839999933,None,1300.5685839999933,None,5,1.72890109999571,1300.5685839999933,None,1302.3370820999844,None,1302.3370820999844,None,1302.851401999942,None,1302.851401999942,None,1302.851401999942,None,f,0.1580985999898985,1302.851401999942,None,sing13,001,2019_Oct_31_1456,ProdFawcett_Revision2019,3.2.3,59.84089501505053,
,,,,133,0,133,0,,,,,,,,,,,,,1306.7202051000204,None,,,,,,,,,,,,,,,,,,,,,,meeting,D_new,133,187,1303.568567499984,None,1303.568567499984,None,1303.568567499984,None,4,1.4807711000321433,1303.568567499984,None,1305.1025120000122,None,1305.1025120000122,None,1305.6319953999482,None,1305.6319953999482,None,1305.6319953999482,None,f,1.0653252999763936,1305.6319953999482,None,sing13,001,2019_Oct_31_1456,ProdFawcett_Revision2019,3.2.3,59.84089501505053,
,,,,134,0,134,0,,,,,,,,,,,,,1309.497790299938,None,,,,,,,,,,,,,,,,,,,,,,bright,D_new,134,29,1307.236090600025,None,1307.236090600025,None,1307.236090600025,None,1,1.597330700024031,1307.236090600025,None,1308.8754749000072,None,1308.8754749000072,None,1309.405858800048,None,1309.405858800048,None,1309.405858800048,None,n,0.05962830001953989,1309.405858800048,None,sing13,001,2019_Oct_31_1456,ProdFawcett_Revision2019,3.2.3,59.84089501505053,
,,,,135,0,135,0,,,,,,,,,,,,,1312.3801744999364,None,,,,,,,,,,,,,,,,,,,,,,junior,D_new,135,167,1310.034438499948,None,1310.034438499948,None,1310.034438499948,None,1,1.598987799952738,1310.034438499948,None,1311.6857645999407,None,1311.6857645999407,None,1312.2183916999493,None,1312.2183916999493,None,1312.2183916999493,None,n,0.11910390004049987,1312.2183916999493,None,sing13,001,2019_Oct_31_1456,ProdFawcett_Revision2019,3.2.3,59.84089501505053,
,,,,136,0,136,0,,,,,,,,,,,,,1318.9475309000118,None,,,,,,,,,,,,,,,,,,,,,,gesture,B_aloud,136,137,1312.8976312000304,None,1312.8976312000304,None,1312.8976312000304,None,2,5.087831599987112,1312.8976312000304,None,1318.041521199979,None,1318.041521199979,None,1318.5619330999907,None,1318.5619330999907,None,1318.5619330999907,None,f,0.3435534000163898,1318.5619330999907,None,sing13,001,2019_Oct_31_1456,ProdFawcett_Revision2019,3.2.3,59.84089501505053,
,,,,137,0,137,0,,,,,,,,,,,,,1321.6792822999414,None,,,,,,,,,,,,,,,,,,,,,,turkey,B_aloud,137,342,1319.4676162999822,None,1319.4676162999822,None,1319.4676162999822,None,6,1.2620305999880657,1319.4676162999822,None,1320.773832499981,None,1320.773832499981,None,1321.2951783000026,None,1321.2951783000026,None,1321.2951783000026,None,r,0.33848080004099756,1321.2951783000026,None,sing13,001,2019_Oct_31_1456,ProdFawcett_Revision2019,3.2.3,59.84089501505053,
,,,,138,0,138,0,,,,,,,,,,,,,1325.1161150999833,None,,,,,,,,,,,,,,,,,,,,,,property,D_new,138,242,1322.1956092000473,None,1322.1956092000473,None,1322.1956092000473,None,4,2.0620473000453785,1322.1956092000473,None,1324.3086225000443,None,1324.3086225000443,None,1324.8231547999894,None,1324.8231547999894,None,1324.8231547999894,None,f,0.26616949995514005,1324.8231547999894,None,sing13,001,2019_Oct_31_1456,ProdFawcett_Revision2019,3.2.3,59.84089501505053,
,,,,139,0,139,0,,,,,,,,,,,,,1329.4522021999583,None,,,,,,,,,,,,,,,,,,,,,,cover,A_silent,139,77,1325.6470305999974,None,1325.6470305999974,None,1325.6470305999974,None,5,2.762709700036794,1325.6470305999974,None,1328.4607640999602,None,1328.4607640999602,None,1328.982022000011,None,1328.982022000011,None,1328.982022000011,None,f,0.4352005999535322,1328.982022000011,None,sing13,001,2019_Oct_31_1456,ProdFawcett_Revision2019,3.2.3,59.84089501505053,
,,,,140,0,140,0,,,,,,,,,,,,,1332.447352899937,None,,,,,,,,,,,,,,,,,,,,,,private,C_sing,140,237,1329.9739529000362,None,1329.9739529000362,None,1329.9739529000362,None,6,1.5477118999697268,1329.9739529000362,None,1331.5884636000264,None,1331.5884636000264,None,1332.1182488000486,None,1332.1182488000486,None,1332.1182488000486,None,r,0.2834296999499202,1332.1182488000486,None,sing13,001,2019_Oct_31_1456,ProdFawcett_Revision2019,3.2.3,59.84089501505053,
,,,,141,0,141,0,,,,,,,,,,,,,1334.8718089000322,None,,,,,,,,,,,,,,,,,,,,,,sunset,D_new,141,315,1332.9643803000217,None,1332.9643803000217,None,1332.9643803000217,None,1,1.1009588000597432,1332.9643803000217,None,1334.0920815999852,None,1334.0920815999852,None,1334.6055296999402,None,1334.6055296999402,None,1334.6055296999402,None,n,0.23604809993412346,1334.6055296999402,None,sing13,001,2019_Oct_31_1456,ProdFawcett_Revision2019,3.2.3,59.84089501505053,
,,,,142,0,142,0,,,,,,,,,,,,,1338.521954099997,None,,,,,,,,,,,,,,,,,,,,,,payment,C_sing,142,215,1335.3981295999838,None,1335.3981295999838,None,1335.3981295999838,None,5,2.331303399987519,1335.3981295999838,None,1337.7611839999445,None,1337.7611839999445,None,1338.2787714999868,None,1338.2787714999868,None,1338.2787714999868,None,f,0.21061989990994334,1338.2787714999868,None,sing13,001,2019_Oct_31_1456,ProdFawcett_Revision2019,3.2.3,59.84089501505053,
,,,,143,0,143,0,,,,,,,,,,,,,1341.048574800021,None,,,,,,,,,,,,,,,,,,,,,,majority,D_new,143,176,1339.0513028999558,None,1339.0513028999558,None,1339.0513028999558,None,1,1.24608320009429,1339.0513028999558,None,1340.3346386000048,None,1340.3346386000048,None,1340.8521052999422,None,1340.8521052999422,None,1340.8521052999422,None,n,0.1574434998910874,1340.8521052999422,None,sing13,001,2019_Oct_31_1456,ProdFawcett_Revision2019,3.2.3,59.84089501505053,
,,,,144,0,144,0,,,,,,,,,,,,,1344.8462426000042,None,,,,,,,,,,,,,,,,,,,,,,trail,D_new,144,336,1341.5658220000332,None,1341.5658220000332,None,1341.5658220000332,None,6,1.7797088000224903,1341.5658220000332,None,1343.3770259999437,None,1343.3770259999437,None,1343.8955063000321,None,1343.8955063000321,None,1343.8955063000321,None,f,0.9139861000003293,1343.8955063000321,None,sing13,001,2019_Oct_31_1456,ProdFawcett_Revision2019,3.2.3,59.84089501505053,
,,,,145,0,145,0,,,,,,,,,,,,,1349.2551031999756,None,,,,,,,,,,,,,,,,,,,,,,public,D_new,145,244,1345.3710570000112,None,1345.3710570000112,None,1345.3710570000112,None,5,3.118310200050473,1345.3710570000112,None,1348.5312574999407,None,1348.5312574999407,None,1349.0541435000487,None,1349.0541435000487,None,1349.0541435000487,None,f,0.1714773999992758,1349.0541435000487,None,sing13,001,2019_Oct_31_1456,ProdFawcett_Revision2019,3.2.3,59.84089501505053,
,,,,146,0,146,0,,,,,,,,,,,,,1351.7235434999457,None,,,,,,,,,,,,,,,,,,,,,,rural,D_new,146,269,1349.7839449000312,None,1349.7839449000312,None,1349.7839449000312,None,1,1.1535740999970585,1349.7839449000312,None,1350.9922054000199,None,1350.9922054000199,None,1351.512993499986,None,1351.512993499986,None,1351.512993499986,None,n,0.17628250003326684,1351.512993499986,None,sing13,001,2019_Oct_31_1456,ProdFawcett_Revision2019,3.2.3,59.84089501505053,
,,,,147,0,147,0,,,,,,,,,,,,,1356.6317652999423,None,,,,,,,,,,,,,,,,,,,,,,opening,A_silent,147,205,1352.2519451000262,None,1352.2519451000262,None,1352.2519451000262,None,5,3.58941309992224,1352.2519451000262,None,1355.8805050000083,None,1355.8805050000083,None,1356.394432000001,None,1356.394432000001,None,1356.394432000001,None,f,0.19912549993023276,1356.394432000001,None,sing13,001,2019_Oct_31_1456,ProdFawcett_Revision2019,3.2.3,59.84089501505053,
,,,,148,0,148,0,,,,,,,,,,,,,1359.2168327999534,None,,,,,,,,,,,,,,,,,,,,,,chief,D_new,148,48,1357.1389480000362,None,1357.1389480000362,None,1357.1389480000362,None,1,1.3185577999101952,1357.1389480000362,None,1358.5097051999765,None,1358.5097051999765,None,1359.032526499941,None,1359.032526499941,None,1359.032526499941,None,n,0.1370804999023676,1359.032526499941,None,sing13,001,2019_Oct_31_1456,ProdFawcett_Revision2019,3.2.3,59.84089501505053,
,,,,149,0,149,0,,,,,,,,,,,,,1363.7465594999958,None,,,,,,,,,,,,,,,,,,,,,,guest,B_aloud,149,146,1359.7382683999604,None,1359.7382683999604,None,1359.7382683999604,None,1,3.2713130000047386,1359.7382683999604,None,1363.0397755999584,None,1363.0397755999584,None,1363.5601853999542,None,1363.5601853999542,None,1363.5601853999542,None,n,0.15328149998094887,1363.5601853999542,None,sing13,001,2019_Oct_31_1456,ProdFawcett_Revision2019,3.2.3,59.84089501505053,
,,,,150,0,150,0,,,,,,,,,,,,,1366.9937605999876,None,,,,,,,,,,,,,,,,,,,,,,finish,A_silent,150,130,1364.2665919000283,None,1364.2665919000283,None,1364.2665919000283,None,6,1.7592698000371456,1364.2665919000283,None,1366.0791017999873,None,1366.0791017999873,None,1366.5958830999443,None,1366.5958830999443,None,1366.5958830999443,None,r,0.35744330007582903,1366.5958830999443,None,sing13,001,2019_Oct_31_1456,ProdFawcett_Revision2019,3.2.3,59.84089501505053,
,,,,151,0,151,0,,,,,,,,,,,,,1371.4097106000409,None,,,,,,,,,,,,,,,,,,,,,,straight,D_new,151,307,1367.5210847000126,None,1367.5210847000126,None,1367.5210847000126,None,1,3.240347499959171,1367.5210847000126,None,1370.8010243000463,None,1370.8010243000463,None,1371.318127800012,None,1371.318127800012,None,1371.318127800012,None,n,0.051160499919205904,1371.318127800012,None,sing13,001,2019_Oct_31_1456,ProdFawcett_Revision2019,3.2.3,59.84089501505053,
,,,,152,0,152,0,,,,,,,,,,,,,1374.6187251999509,None,,,,,,,,,,,,,,,,,,,,,,danger,D_new,152,85,1371.936200199998,None,1371.936200199998,None,1371.936200199998,None,6,1.721285599982366,1371.936200199998,None,1373.7118689999916,None,1373.7118689999916,None,1374.234953199979,None,1374.234953199979,None,1374.234953199979,None,r,0.3425378000829369,1374.234953199979,None,sing13,001,2019_Oct_31_1456,ProdFawcett_Revision2019,3.2.3,59.84089501505053,
,,,,153,0,153,0,,,,,,,,,,,,,1377.066280900035,None,,,,,,,,,,,,,,,,,,,,,,quick,D_new,153,248,1375.1389135000063,None,1375.1389135000063,None,1375.1389135000063,None,1,1.142537000006996,1375.1389135000063,None,1376.327123099938,None,1376.327123099938,None,1376.854162500007,None,1376.854162500007,None,1376.854162500007,None,n,0.17966909997630864,1376.854162500007,None,sing13,001,2019_Oct_31_1456,ProdFawcett_Revision2019,3.2.3,59.84089501505053,
