StudyTrials.thisRepN,StudyTrials.thisTrialN,StudyTrials.thisN,StudyTrials.thisIndex,TestTrials.thisRepN,TestTrials.thisTrialN,TestTrials.thisN,TestTrials.thisIndex,textWelcome.started,textWelcome.stopped,keyWelcome.keys,keyWelcome.rt,keyWelcome.started,keyWelcome.stopped,textReady.started,textReady.stopped,keyReady.keys,keyReady.rt,keyReady.started,keyReady.stopped,polyback_2.started,polyback_2.stopped,studyPic,studyWord,studyType,studyN,studyOrder,polyback_3.started,polyback_3.stopped,studyPicChoice.started,studyPicChoice.stopped,polyback_4.started,polyback_4.stopped,polyback.started,polyback.stopped,studyWords.started,studyWords.stopped,getResearcher.started,getResearcher.stopped,kPress2.keys,kPress2.rt,kPress2.started,kPress2.stopped,testWord,testType,testN,testOrder,polyback_5.started,polyback_5.stopped,testWords.started,testWords.stopped,textScale.started,textScale.stopped,keyConf.keys,keyConf.rt,keyConf.started,keyConf.stopped,polyback_6.started,polyback_6.stopped,studyWords_2.started,studyWords_2.stopped,polyback_7.started,polyback_7.stopped,testWords_2.started,testWords_2.stopped,textScale_2.started,textScale_2.stopped,keyRKN.keys,keyRKN.rt,keyRKN.started,keyRKN.stopped,participant,session,date,expName,psychopyVersion,frameRate,
,,,,,,,,9.574934898642823,None,space,277.9748010416224,9.574934898642823,None,,,,,,,,,,,,,,,,,,,,,,,,,,,,,,,,,,,,,,,,,,,,,,,,,,,,,,,,,,sing33,001,2019_Nov_14_1304,ProdFawcett_Revision2019,3.2.4,59.97629204653933,
,,,,,,,,,,,,,,287.5789160877466,None,space,12.386432234430686,287.5789160877466,None,,,,,,,,,,,,,,,,,,,,,,,,,,,,,,,,,,,,,,,,,,,,,,,,,,,,sing33,001,2019_Nov_14_1304,ProdFawcett_Revision2019,3.2.4,59.97629204653933,
0,0,0,0,,,,,,,,,,,,,,,,,304.7677263370133,None,materials/speakPic.jpg,character,B_aloud,0,46,301.1171096585749,None,301.1171096585749,None,302.01793447785894,None,302.2835305785702,None,302.2835305785702,None,,,,,,,,,,,,,,,,,,,,,,,,,,,,,,,,,,,sing33,001,2019_Nov_14_1304,ProdFawcett_Revision2019,3.2.4,59.97629204653933,
1,0,1,0,,,,,,,,,,,,,,,,,309.035757615522,None,materials/singPic.jpg,write,C_sing,1,358,305.4191590954724,None,305.4191590954724,None,306.2851599395508,None,306.5515158281778,None,306.5515158281778,None,,,,,,,,,,,,,,,,,,,,,,,,,,,,,,,,,,,sing33,001,2019_Nov_14_1304,ProdFawcett_Revision2019,3.2.4,59.97629204653933,
2,0,2,0,,,,,,,,,,,,,,,,,313.3037655685621,None,materials/speakPic.jpg,grade,B_aloud,2,140,309.6377049491275,None,309.6377049491275,None,310.55310569136054,None,310.81958940351615,None,310.81958940351615,None,,,,,,,,,,,,,,,,,,,,,,,,,,,,,,,,,,,sing33,001,2019_Nov_14_1304,ProdFawcett_Revision2019,3.2.4,59.97629204653933,
3,0,3,0,,,,,,,,,,,,,,,,,317.57202512555523,None,materials/speakPic.jpg,court,B_aloud,3,75,313.8737669774273,None,313.8737669774273,None,314.8210582853353,None,315.08759486852796,None,315.08759486852796,None,,,,,,,,,,,,,,,,,,,,,,,,,,,,,,,,,,,sing33,001,2019_Nov_14_1304,ProdFawcett_Revision2019,3.2.4,59.97629204653933,
4,0,4,0,,,,,,,,,,,,,,,,,321.8398004460323,None,materials/readPic.jpg,dozen,A_silent,4,102,318.16146130568814,None,318.16146130568814,None,319.08915674115997,None,319.35619435517583,None,319.35619435517583,None,,,,,,,,,,,,,,,,,,,,,,,,,,,,,,,,,,,sing33,001,2019_Nov_14_1304,ProdFawcett_Revision2019,3.2.4,59.97629204653933,
5,0,5,0,,,,,,,,,,,,,,,,,326.1078416767414,None,materials/singPic.jpg,defeat,C_sing,5,88,322.4921304571035,None,322.4921304571035,None,323.3572520869202,None,323.62365898056305,None,323.62365898056305,None,,,,,,,,,,,,,,,,,,,,,,,,,,,,,,,,,,,sing33,001,2019_Nov_14_1304,ProdFawcett_Revision2019,3.2.4,59.97629204653933,
6,0,6,0,,,,,,,,,,,,,,,,,330.375849940785,None,materials/speakPic.jpg,block,B_aloud,6,25,326.7097280531307,None,326.7097280531307,None,327.625239202549,None,327.89169865622534,None,327.89169865622534,None,,,,,,,,,,,,,,,,,,,,,,,,,,,,,,,,,,,sing33,001,2019_Nov_14_1304,ProdFawcett_Revision2019,3.2.4,59.97629204653933,
7,0,7,0,,,,,,,,,,,,,,,,,334.64390454476234,None,materials/readPic.jpg,drove,A_silent,7,106,330.9683952489286,None,330.9683952489286,None,331.89329473953694,None,332.15970318819745,None,332.15970318819745,None,,,,,,,,,,,,,,,,,,,,,,,,,,,,,,,,,,,sing33,001,2019_Nov_14_1304,ProdFawcett_Revision2019,3.2.4,59.97629204653933,
8,0,8,0,,,,,,,,,,,,,,,,,338.91195199557114,None,materials/speakPic.jpg,build,B_aloud,8,35,335.23081255631405,None,335.23081255631405,None,336.16136209474644,None,336.42773664376,None,336.42773664376,None,,,,,,,,,,,,,,,,,,,,,,,,,,,,,,,,,,,sing33,001,2019_Nov_14_1304,ProdFawcett_Revision2019,3.2.4,59.97629204653933,
9,0,9,0,,,,,,,,,,,,,,,,,343.1799521734647,None,materials/singPic.jpg,personnel,C_sing,9,219,339.53007413452724,None,339.53007413452724,None,340.4292736359057,None,340.6957819175441,None,340.6957819175441,None,,,,,,,,,,,,,,,,,,,,,,,,,,,,,,,,,,,sing33,001,2019_Nov_14_1304,ProdFawcett_Revision2019,3.2.4,59.97629204653933,
10,0,10,0,,,,,,,,,,,,,,,,,347.4480052223953,None,materials/speakPic.jpg,safety,B_aloud,10,270,343.7818472580402,None,343.7818472580402,None,344.6973235747719,None,344.9637845834659,None,344.9637845834659,None,,,,,,,,,,,,,,,,,,,,,,,,,,,,,,,,,,,sing33,001,2019_Nov_14_1304,ProdFawcett_Revision2019,3.2.4,59.97629204653933,
11,0,11,0,,,,,,,,,,,,,,,,,351.7160193955642,None,materials/singPic.jpg,route,C_sing,11,267,348.05012765244464,None,348.05012765244464,None,348.9653147335048,None,349.2318301682535,None,349.2318301682535,None,,,,,,,,,,,,,,,,,,,,,,,,,,,,,,,,,,,sing33,001,2019_Nov_14_1304,ProdFawcett_Revision2019,3.2.4,59.97629204653933,
12,0,12,0,,,,,,,,,,,,,,,,,355.9840379228408,None,materials/speakPic.jpg,individual,B_aloud,12,160,352.3211523646896,None,352.3211523646896,None,353.2333982610435,None,353.4998471404833,None,353.4998471404833,None,,,,,,,,,,,,,,,,,,,,,,,,,,,,,,,,,,,sing33,001,2019_Nov_14_1304,ProdFawcett_Revision2019,3.2.4,59.97629204653933,
13,0,13,0,,,,,,,,,,,,,,,,,360.2520950148464,None,materials/speakPic.jpg,surprise,B_aloud,13,317,356.5675180251128,None,356.5675180251128,None,357.5015209753183,None,357.7679104526178,None,357.7679104526178,None,,,,,,,,,,,,,,,,,,,,,,,,,,,,,,,,,,,sing33,001,2019_Nov_14_1304,ProdFawcett_Revision2019,3.2.4,59.97629204653933,
14,0,14,0,,,,,,,,,,,,,,,,,364.52045067271683,None,materials/readPic.jpg,track,A_silent,14,334,360.8448508741276,None,360.8448508741276,None,361.7694045259268,None,362.03592400377966,None,362.03592400377966,None,,,,,,,,,,,,,,,,,,,,,,,,,,,,,,,,,,,sing33,001,2019_Nov_14_1304,ProdFawcett_Revision2019,3.2.4,59.97629204653933,
15,0,15,0,,,,,,,,,,,,,,,,,368.78816254794947,None,materials/speakPic.jpg,mayor,B_aloud,15,183,365.1121571974072,None,365.1121571974072,None,366.0374392255035,None,366.30394439707743,None,366.30394439707743,None,,,,,,,,,,,,,,,,,,,,,,,,,,,,,,,,,,,sing33,001,2019_Nov_14_1304,ProdFawcett_Revision2019,3.2.4,59.97629204653933,
16,0,16,0,,,,,,,,,,,,,,,,,373.0561617928324,None,materials/singPic.jpg,surface,C_sing,16,316,369.4062728686549,None,369.4062728686549,None,370.30549787255586,None,370.57217969559133,None,370.57217969559133,None,,,,,,,,,,,,,,,,,,,,,,,,,,,,,,,,,,,sing33,001,2019_Nov_14_1304,ProdFawcett_Revision2019,3.2.4,59.97629204653933,
17,0,17,0,,,,,,,,,,,,,,,,,377.3242291480419,None,materials/readPic.jpg,suspect,A_silent,17,318,373.65814955721726,None,373.65814955721726,None,374.57356211770093,None,374.8399795855512,None,374.8399795855512,None,,,,,,,,,,,,,,,,,,,,,,,,,,,,,,,,,,,sing33,001,2019_Nov_14_1304,ProdFawcett_Revision2019,3.2.4,59.97629204653933,
18,0,18,0,,,,,,,,,,,,,,,,,381.5922324359999,None,materials/speakPic.jpg,turkey,B_aloud,18,342,377.9161465348734,None,377.9161465348734,None,378.8417560523958,None,379.10799997884897,None,379.10799997884897,None,,,,,,,,,,,,,,,,,,,,,,,,,,,,,,,,,,,sing33,001,2019_Nov_14_1304,ProdFawcett_Revision2019,3.2.4,59.97629204653933,
19,0,19,0,,,,,,,,,,,,,,,,,385.8602767767734,None,materials/readPic.jpg,produce,A_silent,19,239,382.18332410161383,None,382.18332410161383,None,383.1096156555286,None,383.3760598699155,None,383.3760598699155,None,,,,,,,,,,,,,,,,,,,,,,,,,,,,,,,,,,,sing33,001,2019_Nov_14_1304,ProdFawcett_Revision2019,3.2.4,59.97629204653933,
20,0,20,0,,,,,,,,,,,,,,,,,390.12830090211355,None,materials/readPic.jpg,theme,A_silent,20,326,386.44564748514676,None,386.44564748514676,None,387.3776201875298,None,387.64407342107734,None,387.64407342107734,None,,,,,,,,,,,,,,,,,,,,,,,,,,,,,,,,,,,sing33,001,2019_Nov_14_1304,ProdFawcett_Revision2019,3.2.4,59.97629204653933,
21,0,21,0,,,,,,,,,,,,,,,,,394.39631756333984,None,materials/readPic.jpg,emergency,A_silent,21,110,390.7115645441809,None,390.7115645441809,None,391.645625341509,None,391.9120785750565,None,391.9120785750565,None,,,,,,,,,,,,,,,,,,,,,,,,,,,,,,,,,,,sing33,001,2019_Nov_14_1304,ProdFawcett_Revision2019,3.2.4,59.97629204653933,
22,0,22,0,,,,,,,,,,,,,,,,,398.6645659241185,None,materials/speakPic.jpg,split,B_aloud,22,299,394.98599788328283,None,394.98599788328283,None,395.913658486068,None,396.1801173177082,None,396.1801173177082,None,,,,,,,,,,,,,,,,,,,,,,,,,,,,,,,,,,,sing33,001,2019_Nov_14_1304,ProdFawcett_Revision2019,3.2.4,59.97629204653933,
23,0,23,0,,,,,,,,,,,,,,,,,402.93237887634314,None,materials/readPic.jpg,debate,A_silent,23,87,399.299177606561,None,399.299177606561,None,400.18177684626426,None,400.44814890722046,None,400.44814890722046,None,,,,,,,,,,,,,,,,,,,,,,,,,,,,,,,,,,,sing33,001,2019_Nov_14_1304,ProdFawcett_Revision2019,3.2.4,59.97629204653933,
24,0,24,0,,,,,,,,,,,,,,,,,407.20037594417227,None,materials/readPic.jpg,oxygen,A_silent,24,209,403.5159093616239,None,403.5159093616239,None,404.44973534933524,None,404.71616650145734,None,404.71616650145734,None,,,,,,,,,,,,,,,,,,,,,,,,,,,,,,,,,,,sing33,001,2019_Nov_14_1304,ProdFawcett_Revision2019,3.2.4,59.97629204653933,
25,0,25,0,,,,,,,,,,,,,,,,,411.4684265050455,None,materials/speakPic.jpg,afternoon,B_aloud,25,3,407.7852997367736,None,407.7852997367736,None,408.7177383262897,None,408.9841781865689,None,408.9841781865689,None,,,,,,,,,,,,,,,,,,,,,,,,,,,,,,,,,,,sing33,001,2019_Nov_14_1304,ProdFawcett_Revision2019,3.2.4,59.97629204653933,
26,0,26,0,,,,,,,,,,,,,,,,,415.736441611225,None,materials/speakPic.jpg,education,B_aloud,26,108,412.03538969528745,None,412.03538969528745,None,412.98576898279134,None,413.25221941727796,None,413.25221941727796,None,,,,,,,,,,,,,,,,,,,,,,,,,,,,,,,,,,,sing33,001,2019_Nov_14_1304,ProdFawcett_Revision2019,3.2.4,59.97629204653933,
27,0,27,0,,,,,,,,,,,,,,,,,420.0044784878555,None,materials/speakPic.jpg,pressure,B_aloud,27,232,416.3103532998066,None,416.3103532998066,None,417.2537931081606,None,417.52050043368945,None,417.52050043368945,None,,,,,,,,,,,,,,,,,,,,,,,,,,,,,,,,,,,sing33,001,2019_Nov_14_1304,ProdFawcett_Revision2019,3.2.4,59.97629204653933,
28,0,28,0,,,,,,,,,,,,,,,,,424.2725057232892,None,materials/speakPic.jpg,bucket,B_aloud,28,33,420.5776670872292,None,420.5776670872292,None,421.5222193644149,None,421.78826331393793,None,421.78826331393793,None,,,,,,,,,,,,,,,,,,,,,,,,,,,,,,,,,,,sing33,001,2019_Nov_14_1304,ProdFawcett_Revision2019,3.2.4,59.97629204653933,
29,0,29,0,,,,,,,,,,,,,,,,,428.5411751863139,None,materials/singPic.jpg,payment,C_sing,29,215,424.92389276385074,None,424.92389276385074,None,425.7898771245964,None,426.0563334682083,None,426.0563334682083,None,,,,,,,,,,,,,,,,,,,,,,,,,,,,,,,,,,,sing33,001,2019_Nov_14_1304,ProdFawcett_Revision2019,3.2.4,59.97629204653933,
30,0,30,0,,,,,,,,,,,,,,,,,432.80856454820605,None,materials/singPic.jpg,region,C_sing,30,256,429.12380561992177,None,429.12380561992177,None,430.05797837948194,None,430.3243121866835,None,430.3243121866835,None,,,,,,,,,,,,,,,,,,,,,,,,,,,,,,,,,,,sing33,001,2019_Nov_14_1304,ProdFawcett_Revision2019,3.2.4,59.97629204653933,
31,0,31,0,,,,,,,,,,,,,,,,,437.07657934341114,None,materials/readPic.jpg,spoke,A_silent,31,300,433.4489354416437,None,433.4489354416437,None,434.32589893980185,None,434.592349685292,None,434.592349685292,None,,,,,,,,,,,,,,,,,,,,,,,,,,,,,,,,,,,sing33,001,2019_Nov_14_1304,ProdFawcett_Revision2019,3.2.4,59.97629204653933,
32,0,32,0,,,,,,,,,,,,,,,,,441.3446099998837,None,materials/singPic.jpg,background,C_sing,32,16,437.67987893152167,None,437.67987893152167,None,438.59394359157886,None,438.8603772317292,None,438.8603772317292,None,,,,,,,,,,,,,,,,,,,,,,,,,,,,,,,,,,,sing33,001,2019_Nov_14_1304,ProdFawcett_Revision2019,3.2.4,59.97629204653933,
33,0,33,0,,,,,,,,,,,,,,,,,445.6126251060923,None,materials/singPic.jpg,space,C_sing,33,297,441.92792371392716,None,441.92792371392716,None,442.8620258750743,None,443.1284054001735,None,443.1284054001735,None,,,,,,,,,,,,,,,,,,,,,,,,,,,,,,,,,,,sing33,001,2019_Nov_14_1304,ProdFawcett_Revision2019,3.2.4,59.97629204653933,
34,0,34,0,,,,,,,,,,,,,,,,,449.88064238932566,None,materials/singPic.jpg,society,C_sing,34,293,446.21264202482416,None,446.21264202482416,None,447.1299812680809,None,447.3964251714642,None,447.3964251714642,None,,,,,,,,,,,,,,,,,,,,,,,,,,,,,,,,,,,sing33,001,2019_Nov_14_1304,ProdFawcett_Revision2019,3.2.4,59.97629204653933,
35,0,35,0,,,,,,,,,,,,,,,,,454.1486873520771,None,materials/speakPic.jpg,narrow,B_aloud,35,197,450.5039007940213,None,450.5039007940213,None,451.3981612075295,None,451.6644754213339,None,451.6644754213339,None,,,,,,,,,,,,,,,,,,,,,,,,,,,,,,,,,,,sing33,001,2019_Nov_14_1304,ProdFawcett_Revision2019,3.2.4,59.97629204653933,
36,0,36,0,,,,,,,,,,,,,,,,,458.41670743437135,None,materials/readPic.jpg,people,A_silent,36,216,454.7674333692703,None,454.7674333692703,None,455.66604693516274,None,455.9324740442098,None,455.9324740442098,None,,,,,,,,,,,,,,,,,,,,,,,,,,,,,,,,,,,sing33,001,2019_Nov_14_1304,ProdFawcett_Revision2019,3.2.4,59.97629204653933,
37,0,37,0,,,,,,,,,,,,,,,,,462.6847393348871,None,materials/singPic.jpg,mechanical,C_sing,37,185,459.0223672478169,None,459.0223672478169,None,459.9340483570995,None,460.20051714094006,None,460.20051714094006,None,,,,,,,,,,,,,,,,,,,,,,,,,,,,,,,,,,,sing33,001,2019_Nov_14_1304,ProdFawcett_Revision2019,3.2.4,59.97629204653933,
38,0,38,0,,,,,,,,,,,,,,,,,466.95336774512543,None,materials/readPic.jpg,store,A_silent,38,305,463.2880162195943,None,463.2880162195943,None,464.2021772915032,None,464.4685362901946,None,464.4685362901946,None,,,,,,,,,,,,,,,,,,,,,,,,,,,,,,,,,,,sing33,001,2019_Nov_14_1304,ProdFawcett_Revision2019,3.2.4,59.97629204653933,
39,0,39,0,,,,,,,,,,,,,,,,,471.2208081120334,None,materials/speakPic.jpg,quiet,B_aloud,39,249,467.55432421326987,None,467.55432421326987,None,468.4701162012061,None,468.73646649174043,None,468.73646649174043,None,,,,,,,,,,,,,,,,,,,,,,,,,,,,,,,,,,,sing33,001,2019_Nov_14_1304,ProdFawcett_Revision2019,3.2.4,59.97629204653933,
40,0,40,0,,,,,,,,,,,,,,,,,475.4888698691211,None,materials/singPic.jpg,foundation,C_sing,40,132,471.8299443516589,None,471.8299443516589,None,472.7381536998146,None,473.004590761062,None,473.004590761062,None,,,,,,,,,,,,,,,,,,,,,,,,,,,,,,,,,,,sing33,001,2019_Nov_14_1304,ProdFawcett_Revision2019,3.2.4,59.97629204653933,
41,0,41,0,,,,,,,,,,,,,,,,,479.756838635396,None,materials/speakPic.jpg,health,B_aloud,41,149,476.09296998695936,None,476.09296998695936,None,477.0070725897385,None,477.2726086663024,None,477.2726086663024,None,,,,,,,,,,,,,,,,,,,,,,,,,,,,,,,,,,,sing33,001,2019_Nov_14_1304,ProdFawcett_Revision2019,3.2.4,59.97629204653933,
42,0,42,0,,,,,,,,,,,,,,,,,484.02487520102295,None,materials/singPic.jpg,figure,C_sing,42,128,480.3750089802779,None,480.3750089802779,None,481.2743614966748,None,481.5299049472087,None,481.5299049472087,None,,,,,,,,,,,,,,,,,,,,,,,,,,,,,,,,,,,sing33,001,2019_Nov_14_1304,ProdFawcett_Revision2019,3.2.4,59.97629204653933,
43,0,43,0,,,,,,,,,,,,,,,,,488.2929049244849,None,materials/singPic.jpg,phrase,C_sing,43,220,484.6100023916224,None,484.6100023916224,None,485.54240894751274,None,485.80868552959873,None,485.80868552959873,None,,,,,,,,,,,,,,,,,,,,,,,,,,,,,,,,,,,sing33,001,2019_Nov_14_1304,ProdFawcett_Revision2019,3.2.4,59.97629204653933,
44,0,44,0,,,,,,,,,,,,,,,,,492.5611495531921,None,materials/singPic.jpg,candidate,C_sing,44,39,488.8762945240014,None,488.8762945240014,None,489.8102803688671,None,490.0767065449036,None,490.0767065449036,None,,,,,,,,,,,,,,,,,,,,,,,,,,,,,,,,,,,sing33,001,2019_Nov_14_1304,ProdFawcett_Revision2019,3.2.4,59.97629204653933,
45,0,45,0,,,,,,,,,,,,,,,,,496.8290007591422,None,materials/readPic.jpg,income,A_silent,45,159,493.19837119884323,None,493.19837119884323,None,494.07836171938106,None,494.34482055102126,None,494.34482055102126,None,,,,,,,,,,,,,,,,,,,,,,,,,,,,,,,,,,,sing33,001,2019_Nov_14_1304,ProdFawcett_Revision2019,3.2.4,59.97629204653933,
46,0,46,0,,,,,,,,,,,,,,,,,501.0969953389431,None,materials/readPic.jpg,equipment,A_silent,46,116,497.4122612911451,None,497.4122612911451,None,498.3463444809313,None,498.61272742709843,None,498.61272742709843,None,,,,,,,,,,,,,,,,,,,,,,,,,,,,,,,,,,,sing33,001,2019_Nov_14_1304,ProdFawcett_Revision2019,3.2.4,59.97629204653933,
47,0,47,0,,,,,,,,,,,,,,,,,505.3649818325648,None,materials/readPic.jpg,order,A_silent,47,207,501.67167863366194,None,501.67167863366194,None,502.61439628581866,None,502.8807814090396,None,502.8807814090396,None,,,,,,,,,,,,,,,,,,,,,,,,,,,,,,,,,,,sing33,001,2019_Nov_14_1304,ProdFawcett_Revision2019,3.2.4,59.97629204653933,
48,0,48,0,,,,,,,,,,,,,,,,,509.6330330154742,None,materials/speakPic.jpg,engineer,B_aloud,48,114,505.93346957472386,None,505.93346957472386,None,506.88245306684985,None,507.14879744825885,None,507.14879744825885,None,,,,,,,,,,,,,,,,,,,,,,,,,,,,,,,,,,,sing33,001,2019_Nov_14_1304,ProdFawcett_Revision2019,3.2.4,59.97629204653933,
49,0,49,0,,,,,,,,,,,,,,,,,513.9012278831797,None,materials/singPic.jpg,report,C_sing,49,259,510.2422662890167,None,510.2422662890167,None,511.1504877663974,None,511.4012678474537,None,511.4012678474537,None,,,,,,,,,,,,,,,,,,,,,,,,,,,,,,,,,,,sing33,001,2019_Nov_14_1304,ProdFawcett_Revision2019,3.2.4,59.97629204653933,
50,0,50,0,,,,,,,,,,,,,,,,,518.169301458518,None,materials/singPic.jpg,weather,C_sing,50,352,514.4559623135137,None,514.4559623135137,None,515.4189074915485,None,515.6689791006793,None,515.6689791006793,None,,,,,,,,,,,,,,,,,,,,,,,,,,,,,,,,,,,sing33,001,2019_Nov_14_1304,ProdFawcett_Revision2019,3.2.4,59.97629204653933,
51,0,51,0,,,,,,,,,,,,,,,,,522.4373140766693,None,materials/singPic.jpg,harmony,C_sing,51,148,518.7361601507291,None,518.7361601507291,None,519.6874761885847,None,519.9375770323095,None,519.9375770323095,None,,,,,,,,,,,,,,,,,,,,,,,,,,,,,,,,,,,sing33,001,2019_Nov_14_1304,ProdFawcett_Revision2019,3.2.4,59.97629204653933,
52,0,52,0,,,,,,,,,,,,,,,,,526.705477532756,None,materials/speakPic.jpg,concern,B_aloud,52,65,523.0229062213912,None,523.0229062213912,None,523.9559494067507,None,524.205441611557,None,524.205441611557,None,,,,,,,,,,,,,,,,,,,,,,,,,,,,,,,,,,,sing33,001,2019_Nov_14_1304,ProdFawcett_Revision2019,3.2.4,59.97629204653933,
53,0,53,0,,,,,,,,,,,,,,,,,530.9564473275386,None,materials/speakPic.jpg,review,B_aloud,53,263,527.2257605732011,None,527.2257605732011,None,528.2056720670662,None,528.4577748570882,None,528.4577748570882,None,,,,,,,,,,,,,,,,,,,,,,,,,,,,,,,,,,,sing33,001,2019_Nov_14_1304,ProdFawcett_Revision2019,3.2.4,59.97629204653933,
54,0,54,0,,,,,,,,,,,,,,,,,535.2251534892712,None,materials/speakPic.jpg,rough,B_aloud,54,266,531.5262164148444,None,531.5262164148444,None,532.4738840401114,None,532.72385830438,None,532.72385830438,None,,,,,,,,,,,,,,,,,,,,,,,,,,,,,,,,,,,sing33,001,2019_Nov_14_1304,ProdFawcett_Revision2019,3.2.4,59.97629204653933,
55,0,55,0,,,,,,,,,,,,,,,,,539.4925294779241,None,materials/readPic.jpg,rural,A_silent,55,269,535.8438497454918,None,535.8438497454918,None,536.7419280698814,None,536.9923759964295,None,536.9923759964295,None,,,,,,,,,,,,,,,,,,,,,,,,,,,,,,,,,,,sing33,001,2019_Nov_14_1304,ProdFawcett_Revision2019,3.2.4,59.97629204653933,
56,0,56,0,,,,,,,,,,,,,,,,,543.744500090339,None,materials/singPic.jpg,comedy,C_sing,56,58,540.082554392633,None,540.082554392633,None,541.0098284148262,None,541.2608653868956,None,541.2608653868956,None,,,,,,,,,,,,,,,,,,,,,,,,,,,,,,,,,,,sing33,001,2019_Nov_14_1304,ProdFawcett_Revision2019,3.2.4,59.97629204653933,
57,0,57,0,,,,,,,,,,,,,,,,,548.0122237838223,None,materials/readPic.jpg,stranger,A_silent,57,309,544.3468791003979,None,544.3468791003979,None,545.2612529004982,None,545.5115496780782,None,545.5115496780782,None,,,,,,,,,,,,,,,,,,,,,,,,,,,,,,,,,,,sing33,001,2019_Nov_14_1304,ProdFawcett_Revision2019,3.2.4,59.97629204653933,
58,0,58,0,,,,,,,,,,,,,,,,,552.2803673355083,None,materials/readPic.jpg,height,A_silent,58,152,548.5628292971523,None,548.5628292971523,None,549.5299509761098,None,549.7790432270267,None,549.7790432270267,None,,,,,,,,,,,,,,,,,,,,,,,,,,,,,,,,,,,sing33,001,2019_Nov_14_1304,ProdFawcett_Revision2019,3.2.4,59.97629204653933,
59,0,59,0,,,,,,,,,,,,,,,,,556.5479563633562,None,materials/speakPic.jpg,article,B_aloud,59,11,552.8652043574257,None,552.8652043574257,None,553.7978547420935,None,554.0482429554686,None,554.0482429554686,None,,,,,,,,,,,,,,,,,,,,,,,,,,,,,,,,,,,sing33,001,2019_Nov_14_1304,ProdFawcett_Revision2019,3.2.4,59.97629204653933,
60,0,60,0,,,,,,,,,,,,,,,,,560.8162124992523,None,materials/singPic.jpg,course,C_sing,60,74,557.1664741020359,None,557.1664741020359,None,558.0654139133403,None,558.316988614999,None,558.316988614999,None,,,,,,,,,,,,,,,,,,,,,,,,,,,,,,,,,,,sing33,001,2019_Nov_14_1304,ProdFawcett_Revision2019,3.2.4,59.97629204653933,
61,0,61,0,,,,,,,,,,,,,,,,,565.0841091121256,None,materials/singPic.jpg,design,C_sing,61,91,561.3669809798012,None,561.3669809798012,None,562.3337879205646,None,562.5845515183173,None,562.5845515183173,None,,,,,,,,,,,,,,,,,,,,,,,,,,,,,,,,,,,sing33,001,2019_Nov_14_1304,ProdFawcett_Revision2019,3.2.4,59.97629204653933,
62,0,62,0,,,,,,,,,,,,,,,,,569.3520744573325,None,materials/speakPic.jpg,measure,B_aloud,62,184,565.657261945802,None,565.657261945802,None,566.6015402266057,None,566.8678289379168,None,566.8678289379168,None,,,,,,,,,,,,,,,,,,,,,,,,,,,,,,,,,,,sing33,001,2019_Nov_14_1304,ProdFawcett_Revision2019,3.2.4,59.97629204653933,
63,0,63,0,,,,,,,,,,,,,,,,,573.6034924119012,None,materials/speakPic.jpg,salary,B_aloud,63,271,569.9071864490688,None,569.9071864490688,None,570.8529622242495,None,571.1191725620301,None,571.1191725620301,None,,,,,,,,,,,,,,,,,,,,,,,,,,,,,,,,,,,sing33,001,2019_Nov_14_1304,ProdFawcett_Revision2019,3.2.4,59.97629204653933,
64,0,64,0,,,,,,,,,,,,,,,,,577.8714795275591,None,materials/speakPic.jpg,appeal,B_aloud,64,9,574.1700789737806,None,574.1700789737806,None,575.1209002009418,None,575.3872075726104,None,575.3872075726104,None,,,,,,,,,,,,,,,,,,,,,,,,,,,,,,,,,,,sing33,001,2019_Nov_14_1304,ProdFawcett_Revision2019,3.2.4,59.97629204653933,
65,0,65,0,,,,,,,,,,,,,,,,,582.1394734853238,None,materials/readPic.jpg,literature,A_silent,65,173,578.5062065932434,None,578.5062065932434,None,579.3889632020728,None,579.6552248558437,None,579.6552248558437,None,,,,,,,,,,,,,,,,,,,,,,,,,,,,,,,,,,,sing33,001,2019_Nov_14_1304,ProdFawcett_Revision2019,3.2.4,59.97629204653933,
66,0,66,0,,,,,,,,,,,,,,,,,586.4074951226357,None,materials/speakPic.jpg,school,B_aloud,66,274,582.7306957734982,None,582.7306957734982,None,583.6569898154703,None,583.9232561343524,None,583.9232561343524,None,,,,,,,,,,,,,,,,,,,,,,,,,,,,,,,,,,,sing33,001,2019_Nov_14_1304,ProdFawcett_Revision2019,3.2.4,59.97629204653933,
67,0,67,0,,,,,,,,,,,,,,,,,590.6755649659026,None,materials/readPic.jpg,state,A_silent,67,303,587.0088922864525,None,587.0088922864525,None,587.9250242040434,None,588.1912886568753,None,588.1912886568753,None,,,,,,,,,,,,,,,,,,,,,,,,,,,,,,,,,,,sing33,001,2019_Nov_14_1304,ProdFawcett_Revision2019,3.2.4,59.97629204653933,
68,0,68,0,,,,,,,,,,,,,,,,,594.9435250240203,None,materials/speakPic.jpg,pretty,B_aloud,68,233,591.2617430461396,None,591.2617430461396,None,592.1930542385089,None,592.4593102941872,None,592.4593102941872,None,,,,,,,,,,,,,,,,,,,,,,,,,,,,,,,,,,,sing33,001,2019_Nov_14_1304,ProdFawcett_Revision2019,3.2.4,59.97629204653933,
69,0,69,0,,,,,,,,,,,,,,,,,599.2115849150869,None,materials/singPic.jpg,beauty,C_sing,69,18,595.5617852496507,None,595.5617852496507,None,596.4610435311915,None,596.7273437497497,None,596.7273437497497,None,,,,,,,,,,,,,,,,,,,,,,,,,,,,,,,,,,,sing33,001,2019_Nov_14_1304,ProdFawcett_Revision2019,3.2.4,59.97629204653933,
70,0,70,0,,,,,,,,,,,,,,,,,603.479604997352,None,materials/singPic.jpg,discussion,C_sing,70,96,599.8013902594685,None,599.8013902594685,None,600.7290468191495,None,600.9953843584226,None,600.9953843584226,None,,,,,,,,,,,,,,,,,,,,,,,,,,,,,,,,,,,sing33,001,2019_Nov_14_1304,ProdFawcett_Revision2019,3.2.4,59.97629204653933,
71,0,71,0,,,,,,,,,,,,,,,,,607.7476266346639,None,materials/singPic.jpg,resistance,C_sing,71,262,604.062934572692,None,604.062934572692,None,604.9972737205098,None,605.2633817372844,None,605.2633817372844,None,,,,,,,,,,,,,,,,,,,,,,,,,,,,,,,,,,,sing33,001,2019_Nov_14_1304,ProdFawcett_Revision2019,3.2.4,59.97629204653933,
72,0,72,0,,,,,,,,,,,,,,,,,612.0156572911656,None,materials/readPic.jpg,revolution,A_silent,72,264,608.3494697812421,None,608.3494697812421,None,609.265102534031,None,609.5314179918787,None,609.5314179918787,None,,,,,,,,,,,,,,,,,,,,,,,,,,,,,,,,,,,sing33,001,2019_Nov_14_1304,ProdFawcett_Revision2019,3.2.4,59.97629204653933,
73,0,73,0,,,,,,,,,,,,,,,,,616.2836795505136,None,materials/readPic.jpg,population,A_silent,73,227,612.5822761976742,None,612.5822761976742,None,613.5331238603394,None,613.799453624466,None,613.799453624466,None,,,,,,,,,,,,,,,,,,,,,,,,,,,,,,,,,,,sing33,001,2019_Nov_14_1304,ProdFawcett_Revision2019,3.2.4,59.97629204653933,
74,0,74,0,,,,,,,,,,,,,,,,,620.5522168359312,None,materials/singPic.jpg,alert,C_sing,74,6,616.8924329416186,None,616.8924329416186,None,617.8012089428958,None,618.0676121044671,None,618.0676121044671,None,,,,,,,,,,,,,,,,,,,,,,,,,,,,,,,,,,,sing33,001,2019_Nov_14_1304,ProdFawcett_Revision2019,3.2.4,59.97629204653933,
75,0,75,0,,,,,,,,,,,,,,,,,624.819727801223,None,materials/speakPic.jpg,title,B_aloud,75,331,621.1369785943825,None,621.1369785943825,None,622.0691864173568,None,622.3355152484728,None,622.3355152484728,None,,,,,,,,,,,,,,,,,,,,,,,,,,,,,,,,,,,sing33,001,2019_Nov_14_1304,ProdFawcett_Revision2019,3.2.4,59.97629204653933,
76,0,76,0,,,,,,,,,,,,,,,,,629.0877917353646,None,materials/readPic.jpg,answer,A_silent,76,8,625.4125862925139,None,625.4125862925139,None,626.33722889208,None,626.6033571242588,None,626.6033571242588,None,,,,,,,,,,,,,,,,,,,,,,,,,,,,,,,,,,,sing33,001,2019_Nov_14_1304,ProdFawcett_Revision2019,3.2.4,59.97629204653933,
77,0,77,0,,,,,,,,,,,,,,,,,633.355918803747,None,materials/singPic.jpg,season,C_sing,77,277,629.7061203823541,None,629.7061203823541,None,630.6053124196187,None,630.8715320875926,None,630.8715320875926,None,,,,,,,,,,,,,,,,,,,,,,,,,,,,,,,,,,,sing33,001,2019_Nov_14_1304,ProdFawcett_Revision2019,3.2.4,59.97629204653933,
78,0,78,0,,,,,,,,,,,,,,,,,637.6238135505992,None,materials/speakPic.jpg,poetry,B_aloud,78,225,633.9449864416674,None,633.9449864416674,None,634.8732650135644,None,635.1395972657483,None,635.1395972657483,None,,,,,,,,,,,,,,,,,,,,,,,,,,,,,,,,,,,sing33,001,2019_Nov_14_1304,ProdFawcett_Revision2019,3.2.4,59.97629204653933,
79,0,79,0,,,,,,,,,,,,,,,,,641.8918588243541,None,materials/singPic.jpg,business,C_sing,79,38,638.2272487373848,None,638.2272487373848,None,639.1412854068622,None,639.4077579228033,None,639.4077579228033,None,,,,,,,,,,,,,,,,,,,,,,,,,,,,,,,,,,,sing33,001,2019_Nov_14_1304,ProdFawcett_Revision2019,3.2.4,59.97629204653933,
80,0,80,0,,,,,,,,,,,,,,,,,646.1598627343483,None,materials/readPic.jpg,agreement,A_silent,80,5,642.498501106078,None,642.498501106078,None,643.4093434319075,None,643.6756141048681,None,643.6756141048681,None,,,,,,,,,,,,,,,,,,,,,,,,,,,,,,,,,,,sing33,001,2019_Nov_14_1304,ProdFawcett_Revision2019,3.2.4,59.97629204653933,
81,0,81,0,,,,,,,,,,,,,,,,,650.4278840606567,None,materials/readPic.jpg,position,A_silent,81,229,646.7432243433141,None,646.7432243433141,None,647.677414830192,None,647.9436957663565,None,647.9436957663565,None,,,,,,,,,,,,,,,,,,,,,,,,,,,,,,,,,,,sing33,001,2019_Nov_14_1304,ProdFawcett_Revision2019,3.2.4,59.97629204653933,
82,0,82,0,,,,,,,,,,,,,,,,,654.6962204361334,None,materials/readPic.jpg,curve,A_silent,82,82,651.0023008231365,None,651.0023008231365,None,651.9454616589937,None,652.2117086955113,None,652.2117086955113,None,,,,,,,,,,,,,,,,,,,,,,,,,,,,,,,,,,,sing33,001,2019_Nov_14_1304,ProdFawcett_Revision2019,3.2.4,59.97629204653933,
83,0,83,0,,,,,,,,,,,,,,,,,658.9639587468992,None,materials/singPic.jpg,election,C_sing,83,109,655.303543199203,None,655.303543199203,None,656.2134540617408,None,656.4797266007517,None,656.4797266007517,None,,,,,,,,,,,,,,,,,,,,,,,,,,,,,,,,,,,sing33,001,2019_Nov_14_1304,ProdFawcett_Revision2019,3.2.4,59.97629204653933,
84,0,84,0,,,,,,,,,,,,,,,,,663.2319750971219,None,materials/readPic.jpg,expansion,A_silent,84,123,659.5667918258696,None,659.5667918258696,None,660.4814760100562,None,660.7477628553461,None,660.7477628553461,None,,,,,,,,,,,,,,,,,,,,,,,,,,,,,,,,,,,sing33,001,2019_Nov_14_1304,ProdFawcett_Revision2019,3.2.4,59.97629204653933,
85,0,85,0,,,,,,,,,,,,,,,,,667.4999998444982,None,materials/singPic.jpg,number,C_sing,85,203,663.8407200910733,None,663.8407200910733,None,664.7495237718977,None,665.0157788945653,None,665.0157788945653,None,,,,,,,,,,,,,,,,,,,,,,,,,,,,,,,,,,,sing33,001,2019_Nov_14_1304,ProdFawcett_Revision2019,3.2.4,59.97629204653933,
86,0,86,0,,,,,,,,,,,,,,,,,671.7679972233309,None,materials/readPic.jpg,count,A_silent,86,72,668.0916370148188,None,668.0916370148188,None,669.0175108875264,None,669.2838148381561,None,669.2838148381561,None,,,,,,,,,,,,,,,,,,,,,,,,,,,,,,,,,,,sing33,001,2019_Nov_14_1304,ProdFawcett_Revision2019,3.2.4,59.97629204653933,
87,0,87,0,,,,,,,,,,,,,,,,,676.0360813728767,None,materials/singPic.jpg,error,C_sing,87,117,672.3726195204072,None,672.3726195204072,None,673.2855869509222,None,673.5519667870249,None,673.5519667870249,None,,,,,,,,,,,,,,,,,,,,,,,,,,,,,,,,,,,sing33,001,2019_Nov_14_1304,ProdFawcett_Revision2019,3.2.4,59.97629204653933,
88,0,88,0,,,,,,,,,,,,,,,,,680.3041023881815,None,materials/readPic.jpg,cross,A_silent,88,80,676.6055630905321,None,676.6055630905321,None,677.553375333664,None,677.8031984489353,None,677.8031984489353,None,,,,,,,,,,,,,,,,,,,,,,,,,,,,,,,,,,,sing33,001,2019_Nov_14_1304,ProdFawcett_Revision2019,3.2.4,59.97629204653933,
89,0,89,0,,,,,,,,,,,,,,,,,684.5720608912525,None,materials/readPic.jpg,clean,A_silent,89,51,680.8794447048276,None,680.8794447048276,None,681.8217347236059,None,682.0879587456584,None,682.0879587456584,None,,,,,,,,,,,,,,,,,,,,,,,,,,,,,,,,,,,sing33,001,2019_Nov_14_1304,ProdFawcett_Revision2019,3.2.4,59.97629204653933,
,,,,,,,,,,,,,,,,,,,,,,,,,,,,,,,,,,,,,685.0723002104496,None,k,88.22158034017775,685.0723002104496,None,,,,,,,,,,,,,,,,,,,,,,,,,,,,,sing33,001,2019_Nov_14_1304,ProdFawcett_Revision2019,3.2.4,59.97629204653933,
,,,,,,,,,,,,,,773.3170561033185,None,space,3.7685088283615187,773.3170561033185,None,,,,,,,,,,,,,,,,,,,,,,,,,,,,,,,,,,,,,,,,,,,,,,,,,,,,sing33,001,2019_Nov_14_1304,ProdFawcett_Revision2019,3.2.4,59.97629204653933,
,,,,0,0,0,0,,,,,,,,,,,,,785.6389390213299,None,,,,,,,,,,,,,,,,,,,,,,mechanical,C_sing,0,185,777.6386724891199,None,777.6386724891199,None,777.6386724891199,None,5,4.774980865360703,777.6386724891199,None,782.4698412718135,None,782.4698412718135,None,782.9911658716737,None,782.9911658716737,None,782.9911658716737,None,f,2.606175772554707,782.9911658716737,None,sing33,001,2019_Nov_14_1304,ProdFawcett_Revision2019,3.2.4,59.97629204653933,
,,,,1,0,1,0,,,,,,,,,,,,,793.3066461070848,None,,,,,,,,,,,,,,,,,,,,,,emergency,A_silent,1,110,786.1717008705891,None,786.1717008705891,None,786.1717008705891,None,6,4.105376331397565,786.1717008705891,None,790.3289492876502,None,790.3289492876502,None,790.8558670212515,None,790.8558670212515,None,790.8558670212515,None,r,2.412945815594867,790.8558670212515,None,sing33,001,2019_Nov_14_1304,ProdFawcett_Revision2019,3.2.4,59.97629204653933,
,,,,2,0,2,0,,,,,,,,,,,,,798.6082113074954,None,,,,,,,,,,,,,,,,,,,,,,escape,D_new,2,118,793.8237662154716,None,793.8237662154716,None,793.8237662154716,None,6,2.9332798610266764,793.8237662154716,None,796.8076974631986,None,796.8076974631986,None,797.3246045324195,None,797.3246045324195,None,797.3246045324195,None,r,1.240308505599387,797.3246045324195,None,sing33,001,2019_Nov_14_1304,ProdFawcett_Revision2019,3.2.4,59.97629204653933,
,,,,3,0,3,0,,,,,,,,,,,,,804.4435447728902,None,,,,,,,,,,,,,,,,,,,,,,throw,D_new,3,330,799.1251780898601,None,799.1251780898601,None,799.1251780898601,None,1,1.8397379338275641,799.1251780898601,None,801.0257923580066,None,801.0257923580066,None,801.542489498097,None,801.542489498097,None,801.542489498097,None,n,2.8536728732287884,801.542489498097,None,sing33,001,2019_Nov_14_1304,ProdFawcett_Revision2019,3.2.4,59.97629204653933,
,,,,4,0,4,0,,,,,,,,,,,,,808.4113351149717,None,,,,,,,,,,,,,,,,,,,,,,business,C_sing,4,38,804.9621558445215,None,804.9621558445215,None,804.9621558445215,None,6,1.8423171074246056,804.9621558445215,None,806.8608819946239,None,806.8608819946239,None,807.3778733465006,None,807.3778733465006,None,807.3778733465006,None,r,0.9860625725705177,807.3778733465006,None,sing33,001,2019_Nov_14_1304,ProdFawcett_Revision2019,3.2.4,59.97629204653933,
,,,,5,0,5,0,,,,,,,,,,,,,812.612682953215,None,,,,,,,,,,,,,,,,,,,,,,quiet,B_aloud,5,249,808.9316122462915,None,808.9316122462915,None,808.9316122462915,None,6,2.216185317345662,808.9316122462915,None,811.2122644633928,None,811.2122644633928,None,811.7308021376084,None,811.7308021376084,None,811.7308021376084,None,r,0.8415112906077411,811.7308021376084,None,sing33,001,2019_Nov_14_1304,ProdFawcett_Revision2019,3.2.4,59.97629204653933,
,,,,6,0,6,0,,,,,,,,,,,,,818.9481714551803,None,,,,,,,,,,,,,,,,,,,,,,short,D_new,6,285,813.1297203339636,None,813.1297203339636,None,813.1297203339636,None,2,2.8587858135288116,813.1297203339636,None,816.0371154681488,None,816.0371154681488,None,816.5640095653071,None,816.5640095653071,None,816.5640095653071,None,n,2.3438349727075547,816.5640095653071,None,sing33,001,2019_Nov_14_1304,ProdFawcett_Revision2019,3.2.4,59.97629204653933,
,,,,7,0,7,0,,,,,,,,,,,,,824.249737899605,None,,,,,,,,,,,,,,,,,,,,,,close,D_new,7,53,819.4654284062271,None,819.4654284062271,None,819.4654284062271,None,3,3.026680280454457,819.4654284062271,None,822.5493167040404,None,822.5493167040404,None,823.0662156870821,None,823.0662156870821,None,823.0662156870821,None,f,1.145365806936752,823.0662156870821,None,sing33,001,2019_Nov_14_1304,ProdFawcett_Revision2019,3.2.4,59.97629204653933,
,,,,8,0,8,0,,,,,,,,,,,,,828.6678999095166,None,,,,,,,,,,,,,,,,,,,,,,answer,A_silent,8,8,824.76670654802,None,824.76670654802,None,824.76670654802,None,6,2.2364877956570126,824.76670654802,None,827.0547065952851,None,827.0547065952851,None,827.5840980714129,None,827.5840980714129,None,827.5840980714129,None,r,1.0510018906206824,827.5840980714129,None,sing33,001,2019_Nov_14_1304,ProdFawcett_Revision2019,3.2.4,59.97629204653933,
,,,,9,0,9,0,,,,,,,,,,,,,832.4691066753876,None,,,,,,,,,,,,,,,,,,,,,,commercial,D_new,9,61,829.1866129911505,None,829.1866129911505,None,829.1866129911505,None,6,2.2646948050532956,829.1866129911505,None,831.4905066942447,None,831.4905066942447,None,832.0189054388902,None,832.0189054388902,None,832.0189054388902,None,r,0.4163936292170547,832.0189054388902,None,sing33,001,2019_Nov_14_1304,ProdFawcett_Revision2019,3.2.4,59.97629204653933,
,,,,10,0,10,0,,,,,,,,,,,,,835.8535111500241,None,,,,,,,,,,,,,,,,,,,,,,quantity,D_new,10,245,832.9866715224925,None,832.9866715224925,None,832.9866715224925,None,1,1.4960917418356985,832.9866715224925,None,834.5364730850561,None,834.5364730850561,None,835.0552098031621,None,835.0552098031621,None,835.0552098031621,None,n,0.7635722285194788,835.0552098031621,None,sing33,001,2019_Nov_14_1304,ProdFawcett_Revision2019,3.2.4,59.97629204653933,
,,,,11,0,11,0,,,,,,,,,,,,,841.1885682865104,None,,,,,,,,,,,,,,,,,,,,,,executive,D_new,11,122,836.3725902858423,None,836.3725902858423,None,836.3725902858423,None,1,3.3581359662639443,836.3725902858423,None,839.7881351794058,None,839.7881351794058,None,840.3048285874247,None,840.3048285874247,None,840.3048285874247,None,n,0.8500359678582754,840.3048285874247,None,sing33,001,2019_Nov_14_1304,ProdFawcett_Revision2019,3.2.4,59.97629204653933,
,,,,12,0,12,0,,,,,,,,,,,,,850.7748474437103,None,,,,,,,,,,,,,,,,,,,,,,medicine,D_new,12,186,841.7067078728869,None,841.7067078728869,None,841.7067078728869,None,2,7.063392373704119,841.7067078728869,None,848.8243142082065,None,848.8243142082065,None,849.3411839566834,None,849.3411839566834,None,849.3411839566834,None,f,1.3967697662301362,849.3411839566834,None,sing33,001,2019_Nov_14_1304,ProdFawcett_Revision2019,3.2.4,59.97629204653933,
,,,,13,0,13,0,,,,,,,,,,,,,854.9929348743754,None,,,,,,,,,,,,,,,,,,,,,,background,C_sing,13,16,851.2937975120149,None,851.2937975120149,None,851.2937975120149,None,4,2.2999955526320264,851.2937975120149,None,853.6591062119987,None,853.6591062119987,None,854.1762076599989,None,854.1762076599989,None,854.1762076599989,None,f,0.7694552199391183,854.1762076599989,None,sing33,001,2019_Nov_14_1304,ProdFawcett_Revision2019,3.2.4,59.97629204653933,
,,,,14,0,14,0,,,,,,,,,,,,,860.0613033456902,None,,,,,,,,,,,,,,,,,,,,,,front,D_new,14,134,855.5098229722062,None,855.5098229722062,None,855.5098229722062,None,6,3.412072199425893,855.5098229722062,None,858.9656216965232,None,858.9656216965232,None,859.494383074285,None,859.494383074285,None,859.494383074285,None,r,0.5238851130998228,859.494383074285,None,sing33,001,2019_Nov_14_1304,ProdFawcett_Revision2019,3.2.4,59.97629204653933,
,,,,15,0,15,0,,,,,,,,,,,,,864.9465564004786,None,,,,,,,,,,,,,,,,,,,,,,point,D_new,15,226,860.578974867909,None,860.578974867909,None,860.578974867909,None,2,2.4862962936458644,860.578974867909,None,863.1288986558502,None,863.1288986558502,None,863.6456216094375,None,863.6456216094375,None,863.6456216094375,None,f,1.2516403239569627,863.6456216094375,None,sing33,001,2019_Nov_14_1304,ProdFawcett_Revision2019,3.2.4,59.97629204653933,
,,,,16,0,16,0,,,,,,,,,,,,,868.0638349353685,None,,,,,,,,,,,,,,,,,,,,,,household,D_new,16,154,865.4503368351434,None,865.4503368351434,None,865.4503368351434,None,1,1.558866146398941,865.4503368351434,None,867.0635130440642,None,867.0635130440642,None,867.5809080818144,None,867.5809080818144,None,867.5809080818144,None,n,0.4361061289673671,867.5809080818144,None,sing33,001,2019_Nov_14_1304,ProdFawcett_Revision2019,3.2.4,59.97629204653933,
,,,,17,0,17,0,,,,,,,,,,,,,871.2647846858017,None,,,,,,,,,,,,,,,,,,,,,,region,C_sing,17,256,868.5819135645579,None,868.5819135645579,None,868.5819135645579,None,6,1.5716920380073134,868.5819135645579,None,870.2144648315734,None,870.2144648315734,None,870.7311921392393,None,870.7311921392393,None,870.7311921392393,None,r,0.48564971194718964,870.7311921392393,None,sing33,001,2019_Nov_14_1304,ProdFawcett_Revision2019,3.2.4,59.97629204653933,
,,,,18,0,18,0,,,,,,,,,,,,,874.665890810109,None,,,,,,,,,,,,,,,,,,,,,,safety,B_aloud,18,270,871.7816842908505,None,871.7816842908505,None,871.7816842908505,None,6,1.8115191062097438,871.7816842908505,None,873.6366997774167,None,873.6366997774167,None,874.1656253663823,None,874.1656253663823,None,874.1656253663823,None,r,0.4594241224403959,874.1656253663823,None,sing33,001,2019_Nov_14_1304,ProdFawcett_Revision2019,3.2.4,59.97629204653933,
,,,,19,0,19,0,,,,,,,,,,,,,878.8672513995843,None,,,,,,,,,,,,,,,,,,,,,,review,B_aloud,19,263,875.1839143912075,None,875.1839143912075,None,875.1839143912075,None,6,2.7127339271246456,875.1839143912075,None,877.950278832519,None,877.950278832519,None,878.4671289875987,None,878.4671289875987,None,878.4671289875987,None,r,0.36581563993240707,878.4671289875987,None,sing33,001,2019_Nov_14_1304,ProdFawcett_Revision2019,3.2.4,59.97629204653933,
,,,,20,0,20,0,,,,,,,,,,,,,882.7851616500702,None,,,,,,,,,,,,,,,,,,,,,,hearing,D_new,20,150,879.3848140696646,None,879.3848140696646,None,879.3848140696646,None,3,2.4563740855955984,879.3848140696646,None,881.8902630520752,None,881.8902630520752,None,882.4182907664508,None,882.4182907664508,None,882.4182907664508,None,f,0.3340712471399456,882.4182907664508,None,sing33,001,2019_Nov_14_1304,ProdFawcett_Revision2019,3.2.4,59.97629204653933,
,,,,21,0,21,0,,,,,,,,,,,,,886.8197872033925,None,,,,,,,,,,,,,,,,,,,,,,produce,A_silent,21,239,883.3027936744911,None,883.3027936744911,None,883.3027936744911,None,4,2.6259800191037357,883.3027936744911,None,885.9862252287567,None,885.9862252287567,None,886.502911483607,None,886.502911483607,None,886.502911483607,None,f,0.2740974525222555,886.502911483607,None,sing33,001,2019_Nov_14_1304,ProdFawcett_Revision2019,3.2.4,59.97629204653933,
,,,,22,0,22,0,,,,,,,,,,,,,891.2710813153244,None,,,,,,,,,,,,,,,,,,,,,,drove,A_silent,22,106,887.3364753242931,None,887.3364753242931,None,887.3364753242931,None,2,2.2875011934665963,887.3364753242931,None,889.6872668814904,None,889.6872668814904,None,890.2042178025295,None,890.2042178025295,None,890.2042178025295,None,f,1.0196745569701307,890.2042178025295,None,sing33,001,2019_Nov_14_1304,ProdFawcett_Revision2019,3.2.4,59.97629204653933,
,,,,23,0,23,0,,,,,,,,,,,,,895.3724671274249,None,,,,,,,,,,,,,,,,,,,,,,government,D_new,23,139,891.7898513110704,None,891.7898513110704,None,891.7898513110704,None,6,2.7779453755065333,891.7898513110704,None,894.6222662952205,None,894.6222662952205,None,895.1390586031775,None,895.1390586031775,None,895.1390586031775,None,r,0.19673064164817333,895.1390586031775,None,sing33,001,2019_Nov_14_1304,ProdFawcett_Revision2019,3.2.4,59.97629204653933,
,,,,24,0,24,0,,,,,,,,,,,,,904.2753473860212,None,,,,,,,,,,,,,,,,,,,,,,question,D_new,24,247,895.8919207145809,None,895.8919207145809,None,895.8919207145809,None,4,6.747706563241081,895.8919207145809,None,902.6915345072048,None,902.6915345072048,None,903.2113469954056,None,903.2113469954056,None,903.2113469954056,None,f,1.020585182850482,903.2113469954056,None,sing33,001,2019_Nov_14_1304,ProdFawcett_Revision2019,3.2.4,59.97629204653933,
,,,,25,0,25,0,,,,,,,,,,,,,906.892743325734,None,,,,,,,,,,,,,,,,,,,,,,poetry,B_aloud,25,225,904.7921679955325,None,904.7921679955325,None,904.7921679955325,None,6,1.2471814294694923,904.7921679955325,None,906.0925342674309,None,906.0925342674309,None,906.6094223652617,None,906.6094223652617,None,906.6094223652617,None,r,0.2376917002547998,906.6094223652617,None,sing33,001,2019_Nov_14_1304,ProdFawcett_Revision2019,3.2.4,59.97629204653933,
,,,,26,0,26,0,,,,,,,,,,,,,912.2778895499068,None,,,,,,,,,,,,,,,,,,,,,,cross,A_silent,26,80,907.4097356105922,None,907.4097356105922,None,907.4097356105922,None,5,3.358008764771512,907.4097356105922,None,910.8274105849559,None,910.8274105849559,None,911.3442402136279,None,911.3442402136279,None,911.3442402136279,None,f,0.8949399618431926,911.3442402136279,None,sing33,001,2019_Nov_14_1304,ProdFawcett_Revision2019,3.2.4,59.97629204653933,
,,,,27,0,27,0,,,,,,,,,,,,,919.4301379218523,None,,,,,,,,,,,,,,,,,,,,,,drink,D_new,27,105,912.7950600412732,None,912.7950600412732,None,912.7950600412732,None,3,5.2355989401985426,912.7950600412732,None,918.0963783028419,None,918.0963783028419,None,918.6132281469181,None,918.6132281469181,None,918.6132281469181,None,f,0.7777108768932521,918.6132281469181,None,sing33,001,2019_Nov_14_1304,ProdFawcett_Revision2019,3.2.4,59.97629204653933,
,,,,28,0,28,0,,,,,,,,,,,,,922.8479276574799,None,,,,,,,,,,,,,,,,,,,,,,sound,D_new,28,295,919.9472235085559,None,919.9472235085559,None,919.9472235085559,None,6,1.7711900119902566,919.9472235085559,None,921.7809329001175,None,921.7809329001175,None,922.297751332575,None,922.297751332575,None,922.297751332575,None,r,0.5092348596954253,922.297751332575,None,sing33,001,2019_Nov_14_1304,ProdFawcett_Revision2019,3.2.4,59.97629204653933,
,,,,29,0,29,0,,,,,,,,,,,,,925.6153417443857,None,,,,,,,,,,,,,,,,,,,,,,dozen,A_silent,29,102,923.3691552234523,None,923.3691552234523,None,923.3691552234523,None,6,1.4539678314176854,923.3691552234523,None,924.8818761505245,None,924.8818761505245,None,925.3987356357975,None,925.3987356357975,None,925.3987356357975,None,r,0.18366372032323852,925.3987356357975,None,sing33,001,2019_Nov_14_1304,ProdFawcett_Revision2019,3.2.4,59.97629204653933,
,,,,30,0,30,0,,,,,,,,,,,,,928.7996962092293,None,,,,,,,,,,,,,,,,,,,,,,design,C_sing,30,91,926.1323433594371,None,926.1323433594371,None,926.1323433594371,None,6,2.026562720129732,926.1323433594371,None,928.204052658286,None,928.204052658286,None,928.7329729601915,None,928.7329729601915,None,928.7329729601915,None,r,0.03364992715069093,928.7329729601915,None,sing33,001,2019_Nov_14_1304,ProdFawcett_Revision2019,3.2.4,59.97629204653933,
,,,,31,0,31,0,,,,,,,,,,,,,931.2837995988666,None,,,,,,,,,,,,,,,,,,,,,,swift,D_new,31,320,929.3166919151554,None,929.3166919151554,None,929.3166919151554,None,1,1.2973821683553979,929.3166919151554,None,930.6670250493626,None,930.6670250493626,None,931.1839171902684,None,931.1839171902684,None,931.1839171902684,None,n,0.06210076535353437,931.1839171902684,None,sing33,001,2019_Nov_14_1304,ProdFawcett_Revision2019,3.2.4,59.97629204653933,
,,,,32,0,32,0,,,,,,,,,,,,,934.3180936196586,None,,,,,,,,,,,,,,,,,,,,,,alert,C_sing,32,6,931.8006957828475,None,931.8006957828475,None,931.8006957828475,None,6,1.6455920638691168,931.8006957828475,None,933.5013010940165,None,933.5013010940165,None,934.0180576362764,None,934.0180576362764,None,934.0180576362764,None,r,0.2602290684299078,934.0180576362764,None,sing33,001,2019_Nov_14_1304,ProdFawcett_Revision2019,3.2.4,59.97629204653933,
,,,,33,0,33,0,,,,,,,,,,,,,938.3862145301246,None,,,,,,,,,,,,,,,,,,,,,,literature,A_silent,33,173,934.8369180414884,None,934.8369180414884,None,934.8369180414884,None,1,2.8575753777695354,934.8369180414884,None,937.7429662082577,None,937.7429662082577,None,938.2694995382917,None,938.2694995382917,None,938.2694995382917,None,n,0.08028560312232003,938.2694995382917,None,sing33,001,2019_Nov_14_1304,ProdFawcett_Revision2019,3.2.4,59.97629204653933,
,,,,34,0,34,0,,,,,,,,,,,,,941.720503170538,None,,,,,,,,,,,,,,,,,,,,,,expansion,A_silent,34,123,938.903531505377,None,938.903531505377,None,938.903531505377,None,2,1.7104551854426973,938.903531505377,None,940.6703195369919,None,940.6703195369919,None,941.1869488777302,None,941.1869488777302,None,941.1869488777302,None,f,0.4986273745598737,941.1869488777302,None,sing33,001,2019_Nov_14_1304,ProdFawcett_Revision2019,3.2.4,59.97629204653933,
,,,,35,0,35,0,,,,,,,,,,,,,944.5547403394303,None,,,,,,,,,,,,,,,,,,,,,,oxygen,A_silent,35,209,942.23762918805,None,942.23762918805,None,942.23762918805,None,6,1.5601415824203286,942.23762918805,None,943.8545188097924,None,943.8545188097924,None,944.3713279120857,None,944.3713279120857,None,944.3713279120857,None,r,0.1379623066750355,944.3713279120857,None,sing33,001,2019_Nov_14_1304,ProdFawcett_Revision2019,3.2.4,59.97629204653933,
,,,,36,0,36,0,,,,,,,,,,,,,948.1893265193794,None,,,,,,,,,,,,,,,,,,,,,,novel,D_new,36,202,945.0717158299813,None,945.0717158299813,None,945.0717158299813,None,3,2.16561168213957,945.0717158299813,None,947.2787597449787,None,947.2787597449787,None,947.8060755663901,None,947.8060755663901,None,947.8060755663901,None,f,0.3434315977792721,947.8060755663901,None,sing33,001,2019_Nov_14_1304,ProdFawcett_Revision2019,3.2.4,59.97629204653933,
,,,,37,0,37,0,,,,,,,,,,,,,950.8568781020876,None,,,,,,,,,,,,,,,,,,,,,,court,B_aloud,37,75,948.7060867937107,None,948.7060867937107,None,948.7060867937107,None,6,1.5151013677823357,948.7060867937107,None,950.2733871145756,None,950.2733871145756,None,950.7900382257358,None,950.7900382257358,None,950.7900382257358,None,r,0.03113202180247754,950.7900382257358,None,sing33,001,2019_Nov_14_1304,ProdFawcett_Revision2019,3.2.4,59.97629204653933,
,,,,38,0,38,0,,,,,,,,,,,,,960.0931460164138,None,,,,,,,,,,,,,,,,,,,,,,trend,D_new,38,340,951.3737385203713,None,951.3737385203713,None,951.3737385203713,None,1,4.695406844170066,951.3737385203713,None,956.1251295729016,None,956.1251295729016,None,956.6420916901843,None,956.6420916901843,None,956.6420916901843,None,n,3.402512804896105,956.6420916901843,None,sing33,001,2019_Nov_14_1304,ProdFawcett_Revision2019,3.2.4,59.97629204653933,
,,,,39,0,39,0,,,,,,,,,,,,,964.461088005075,None,,,,,,,,,,,,,,,,,,,,,,suspect,A_silent,39,318,960.6116560110822,None,960.6116560110822,None,960.6116560110822,None,3,2.1931522054364905,960.6116560110822,None,962.8502427868953,None,962.8502427868953,None,963.3778322936851,None,963.3778322936851,None,963.3778322936851,None,f,1.042774224159075,963.3778322936851,None,sing33,001,2019_Nov_14_1304,ProdFawcett_Revision2019,3.2.4,59.97629204653933,
,,,,40,0,40,0,,,,,,,,,,,,,967.1453872663551,None,,,,,,,,,,,,,,,,,,,,,,character,B_aloud,40,46,964.9781679936568,None,964.9781679936568,None,964.9781679936568,None,6,1.4909875096927863,964.9781679936568,None,966.5285234580806,None,966.5285234580806,None,967.04520162681,None,967.04520162681,None,967.04520162681,None,r,0.055201717012096196,967.04520162681,None,sing33,001,2019_Nov_14_1304,ProdFawcett_Revision2019,3.2.4,59.97629204653933,
,,,,41,0,41,0,,,,,,,,,,,,,970.0296289292746,None,,,,,,,,,,,,,,,,,,,,,,south,D_new,41,296,967.651923837082,None,967.651923837082,None,967.651923837082,None,4,1.5849856828572229,967.651923837082,None,969.295938477997,None,969.295938477997,None,969.8129068154085,None,969.8129068154085,None,969.8129068154085,None,f,0.16737259869114496,969.8129068154085,None,sing33,001,2019_Nov_14_1304,ProdFawcett_Revision2019,3.2.4,59.97629204653933,
,,,,42,0,42,0,,,,,,,,,,,,,972.9304067866469,None,,,,,,,,,,,,,,,,,,,,,,public,D_new,42,244,970.547425475932,None,970.547425475932,None,970.547425475932,None,6,1.6646698001713958,970.547425475932,None,972.2636697289126,None,972.2636697289126,None,972.7804051227577,None,972.7804051227577,None,972.7804051227577,None,r,0.11177403788315132,972.7804051227577,None,sing33,001,2019_Nov_14_1304,ProdFawcett_Revision2019,3.2.4,59.97629204653933,
,,,,43,0,43,0,,,,,,,,,,,,,975.5480431340402,None,,,,,,,,,,,,,,,,,,,,,,clear,D_new,43,52,973.447522540926,None,973.447522540926,None,973.447522540926,None,6,1.3883256395638455,973.447522540926,None,974.8978547110164,None,974.8978547110164,None,975.4145319467061,None,975.4145319467061,None,975.4145319467061,None,r,0.08532670102431439,975.4145319467061,None,sing33,001,2019_Nov_14_1304,ProdFawcett_Revision2019,3.2.4,59.97629204653933,
,,,,44,0,44,0,,,,,,,,,,,,,979.4492977637565,None,,,,,,,,,,,,,,,,,,,,,,people,A_silent,44,216,976.0648861359805,None,976.0648861359805,None,976.0648861359805,None,4,2.723295694333501,976.0648861359805,None,978.8390639835852,None,978.8390639835852,None,979.3659266690956,None,979.3659266690956,None,979.3659266690956,None,f,0.03773934641503729,979.3659266690956,None,sing33,001,2019_Nov_14_1304,ProdFawcett_Revision2019,3.2.4,59.97629204653933,
,,,,45,0,45,0,,,,,,,,,,,,,983.8340362589515,None,,,,,,,,,,,,,,,,,,,,,,minor,D_new,45,191,979.9661441867647,None,979.9661441867647,None,979.9661441867647,None,2,1.5338904904201627,979.9661441867647,None,981.5396385051718,None,981.5396385051718,None,982.0667723880033,None,982.0667723880033,None,982.0667723880033,None,n,1.7289874170091935,982.0667723880033,None,sing33,001,2019_Nov_14_1304,ProdFawcett_Revision2019,3.2.4,59.97629204653933,
,,,,46,0,46,0,,,,,,,,,,,,,987.2350042965263,None,,,,,,,,,,,,,,,,,,,,,,space,C_sing,46,297,984.335963408259,None,984.335963408259,None,984.335963408259,None,3,2.1242021527141333,984.335963408259,None,986.5181818832061,None,986.5181818832061,None,987.0350737131084,None,987.0350737131084,None,987.0350737131084,None,f,0.15225428107078187,987.0350737131084,None,sing33,001,2019_Nov_14_1304,ProdFawcett_Revision2019,3.2.4,59.97629204653933,
,,,,47,0,47,0,,,,,,,,,,,,,991.2195796379237,None,,,,,,,,,,,,,,,,,,,,,,income,A_silent,47,159,987.7519959594065,None,987.7519959594065,None,987.7519959594065,None,6,2.571036126173567,987.7519959594065,None,990.3859803425439,None,990.3859803425439,None,990.9029580101196,None,990.9029580101196,None,990.9029580101196,None,r,0.26812022624653764,990.9029580101196,None,sing33,001,2019_Nov_14_1304,ProdFawcett_Revision2019,3.2.4,59.97629204653933,
,,,,48,0,48,0,,,,,,,,,,,,,998.1551528579439,None,,,,,,,,,,,,,,,,,,,,,,general,D_new,48,135,991.7370082643465,None,991.7370082643465,None,991.7370082643465,None,5,1.3619464130315464,991.7370082643465,None,993.1536706028564,None,993.1536706028564,None,993.6705331981939,None,993.6705331981939,None,993.6705331981939,None,f,4.436176105344202,993.6705331981939,None,sing33,001,2019_Nov_14_1304,ProdFawcett_Revision2019,3.2.4,59.97629204653933,
,,,,49,0,49,0,,,,,,,,,,,,,1000.7394425091043,None,,,,,,,,,,,,,,,,,,,,,,childhood,D_new,49,49,998.6723955027119,None,998.6723955027119,None,998.6723955027119,None,6,1.3701529310201295,998.6723955027119,None,1000.1057206151308,None,1000.1057206151308,None,1000.6227290723182,None,1000.6227290723182,None,1000.6227290723182,None,r,0.07602544155088253,1000.6227290723182,None,sing33,001,2019_Nov_14_1304,ProdFawcett_Revision2019,3.2.4,59.97629204653933,
,,,,50,0,50,0,,,,,,,,,,,,,1003.4736056896509,None,,,,,,,,,,,,,,,,,,,,,,shock,D_new,50,284,1001.2576315454498,None,1001.2576315454498,None,1001.2576315454498,None,4,1.473679087095661,1001.2576315454498,None,1002.7783359991736,None,1002.7783359991736,None,1003.3068631893257,None,1003.3068631893257,None,1003.3068631893257,None,f,0.1279572403873317,1003.3068631893257,None,sing33,001,2019_Nov_14_1304,ProdFawcett_Revision2019,3.2.4,59.97629204653933,
,,,,51,0,51,0,,,,,,,,,,,,,1006.0910784478474,None,,,,,,,,,,,,,,,,,,,,,,individual,B_aloud,51,160,1003.9909301290463,None,1003.9909301290463,None,1003.9909301290463,None,6,1.4514496149786282,1003.9909301290463,None,1005.5076058097184,None,1005.5076058097184,None,1006.0243950075819,None,1006.0243950075819,None,1006.0243950075819,None,r,0.026187335781287402,1006.0243950075819,None,sing33,001,2019_Nov_14_1304,ProdFawcett_Revision2019,3.2.4,59.97629204653933,
,,,,52,0,52,0,,,,,,,,,,,,,1009.5755407385295,None,,,,,,,,,,,,,,,,,,,,,,quarter,D_new,52,246,1006.6140675523784,None,1006.6140675523784,None,1006.6140675523784,None,3,2.2922969075734727,1006.6140675523784,None,1008.942107769195,None,1008.942107769195,None,1009.4601114459219,None,1009.4601114459219,None,1009.4601114459219,None,f,0.07801836865837686,1009.4601114459219,None,sing33,001,2019_Nov_14_1304,ProdFawcett_Revision2019,3.2.4,59.97629204653933,
,,,,53,0,53,0,,,,,,,,,,,,,1012.6932350885763,None,,,,,,,,,,,,,,,,,,,,,,pressure,B_aloud,53,232,1010.0934113046387,None,1010.0934113046387,None,1010.0934113046387,None,6,1.9647427932650317,1010.0934113046387,None,1012.1096542202868,None,1012.1096542202868,None,1012.6265292558819,None,1012.6265292558819,None,1012.6265292558819,None,r,0.03161967932828702,1012.6265292558819,None,sing33,001,2019_Nov_14_1304,ProdFawcett_Revision2019,3.2.4,59.97629204653933,
,,,,54,0,54,0,,,,,,,,,,,,,1016.1609935525339,None,,,,,,,,,,,,,,,,,,,,,,break,D_new,54,26,1013.2102942397469,None,1013.2102942397469,None,1013.2102942397469,None,6,1.2477483935945202,1013.2102942397469,None,1014.5103787401167,None,1014.5103787401167,None,1015.0273274841311,None,1015.0273274841311,None,1015.0273274841311,None,r,1.094843176746508,1015.0273274841311,None,sing33,001,2019_Nov_14_1304,ProdFawcett_Revision2019,3.2.4,59.97629204653933,
,,,,55,0,55,0,,,,,,,,,,,,,1019.2451909903903,None,,,,,,,,,,,,,,,,,,,,,,institute,D_new,55,162,1016.6785011744942,None,1016.6785011744942,None,1016.6785011744942,None,4,1.7156163316685706,1016.6785011744942,None,1018.4450469323783,None,1018.4450469323783,None,1018.9618905563257,None,1018.9618905563257,None,1018.9618905563257,None,f,0.2405741048278287,1018.9618905563257,None,sing33,001,2019_Nov_14_1304,ProdFawcett_Revision2019,3.2.4,59.97629204653933,
,,,,56,0,56,0,,,,,,,,,,,,,1023.1299172008294,None,,,,,,,,,,,,,,,,,,,,,,store,A_silent,56,305,1019.7622880843119,None,1019.7622880843119,None,1019.7622880843119,None,3,2.6711785358784255,1019.7622880843119,None,1022.4863105999248,None,1022.4863105999248,None,1023.0131966109038,None,1023.0131966109038,None,1023.0131966109038,None,f,0.0766822864243295,1023.0131966109038,None,sing33,001,2019_Nov_14_1304,ProdFawcett_Revision2019,3.2.4,59.97629204653933,
,,,,57,0,57,0,,,,,,,,,,,,,1026.2141818160308,None,,,,,,,,,,,,,,,,,,,,,,citizen,D_new,57,50,1023.652382260072,None,1023.652382260072,None,1023.652382260072,None,6,1.164971320569748,1023.652382260072,None,1024.8803161439137,None,1024.8803161439137,None,1025.398121398728,None,1025.398121398728,None,1025.398121398728,None,r,0.771171351603698,1025.398121398728,None,sing33,001,2019_Nov_14_1304,ProdFawcett_Revision2019,3.2.4,59.97629204653933,
,,,,58,0,58,0,,,,,,,,,,,,,1029.7653088865918,None,,,,,,,,,,,,,,,,,,,,,,height,A_silent,58,152,1026.7310798660328,None,1026.7310798660328,None,1026.7310798660328,None,1,1.926707058068132,1026.7310798660328,None,1028.7149750370882,None,1028.7149750370882,None,1029.2317001677293,None,1029.2317001677293,None,1029.2317001677293,None,n,0.49015090326429345,1029.2317001677293,None,sing33,001,2019_Nov_14_1304,ProdFawcett_Revision2019,3.2.4,59.97629204653933,
,,,,59,0,59,0,,,,,,,,,,,,,1036.0339873687772,None,,,,,,,,,,,,,,,,,,,,,,season,C_sing,59,277,1030.2820862662338,None,1030.2820862662338,None,1030.2820862662338,None,6,4.4708038357202895,1030.2820862662338,None,1034.8169178611133,None,1034.8169178611133,None,1035.3338180881692,None,1035.3338180881692,None,1035.3338180881692,None,r,0.6672502177825663,1035.3338180881692,None,sing33,001,2019_Nov_14_1304,ProdFawcett_Revision2019,3.2.4,59.97629204653933,
,,,,60,0,60,0,,,,,,,,,,,,,1039.601800538716,None,,,,,,,,,,,,,,,,,,,,,,employment,D_new,60,111,1036.5528363600897,None,1036.5528363600897,None,1036.5528363600897,None,3,2.2960398660216015,1036.5528363600897,None,1038.901504367619,None,1038.901504367619,None,1039.4184826572018,None,1039.4184826572018,None,1039.4184826572018,None,f,0.15046972807613201,1039.4184826572018,None,sing33,001,2019_Nov_14_1304,ProdFawcett_Revision2019,3.2.4,59.97629204653933,
,,,,61,0,61,0,,,,,,,,,,,,,1045.487048928393,None,,,,,,,,,,,,,,,,,,,,,,course,C_sing,61,74,1040.1201276617649,None,1040.1201276617649,None,1040.1201276617649,None,6,4.520283973455662,1040.1201276617649,None,1044.7034298685903,None,1044.7034298685903,None,1045.22011519043,None,1045.22011519043,None,1045.22011519043,None,r,0.22841780932503752,1045.22011519043,None,sing33,001,2019_Nov_14_1304,ProdFawcett_Revision2019,3.2.4,59.97629204653933,
,,,,62,0,62,0,,,,,,,,,,,,,1048.2379212227534,None,,,,,,,,,,,,,,,,,,,,,,provision,D_new,62,243,1046.0047574603232,None,1046.0047574603232,None,1046.0047574603232,None,1,1.3402867041004356,1046.0047574603232,None,1047.3921653208963,None,1047.3921653208963,None,1047.9045985673147,None,1047.9045985673147,None,1047.9045985673147,None,n,0.2876159547595307,1047.9045985673147,None,sing33,001,2019_Nov_14_1304,ProdFawcett_Revision2019,3.2.4,59.97629204653933,
,,,,63,0,63,0,,,,,,,,,,,,,1051.4055500904797,None,,,,,,,,,,,,,,,,,,,,,,nature,D_new,63,200,1048.7562747813354,None,1048.7562747813354,None,1048.7562747813354,None,3,1.819824524136493,1048.7562747813354,None,1050.626707462361,None,1050.626707462361,None,1051.155374605296,None,1051.155374605296,None,1051.155374605296,None,f,0.21272506346576847,1051.155374605296,None,sing33,001,2019_Nov_14_1304,ProdFawcett_Revision2019,3.2.4,59.97629204653933,
,,,,64,0,64,0,,,,,,,,,,,,,1054.089735212503,None,,,,,,,,,,,,,,,,,,,,,,curve,A_silent,64,82,1051.9224024226132,None,1051.9224024226132,None,1051.9224024226132,None,2,1.2695819549262524,1051.9224024226132,None,1053.2421627239673,None,1053.2421627239673,None,1053.7728744210035,None,1053.7728744210035,None,1053.7728744210035,None,f,0.28360117695410736,1053.7728744210035,None,sing33,001,2019_Nov_14_1304,ProdFawcett_Revision2019,3.2.4,59.97629204653933,
,,,,65,0,65,0,,,,,,,,,,,,,1058.7078875190346,None,,,,,,,,,,,,,,,,,,,,,,service,D_new,65,280,1054.607398337539,None,1054.607398337539,None,1054.607398337539,None,6,3.3124099831620697,1054.607398337539,None,1057.9621434042929,None,1057.9621434042929,None,1058.4744360759505,None,1058.4744360759505,None,1058.4744360759505,None,r,0.19007604409125634,1058.4744360759505,None,sing33,001,2019_Nov_14_1304,ProdFawcett_Revision2019,3.2.4,59.97629204653933,
,,,,66,0,66,0,,,,,,,,,,,,,1062.6925070232828,None,,,,,,,,,,,,,,,,,,,,,,grade,B_aloud,66,140,1059.224705329485,None,1059.224705329485,None,1059.224705329485,None,4,2.815133308118675,1059.224705329485,None,1062.082325803145,None,1062.082325803145,None,1062.6091567660333,None,1062.6091567660333,None,1062.6091567660333,None,f,0.04648141690995544,1062.6091567660333,None,sing33,001,2019_Nov_14_1304,ProdFawcett_Revision2019,3.2.4,59.97629204653933,
,,,,67,0,67,0,,,,,,,,,,,,,1067.794156879565,None,,,,,,,,,,,,,,,,,,,,,,present,D_new,67,231,1063.2114549145335,None,1063.2114549145335,None,1063.2114549145335,None,2,3.7800200972124003,1063.2114549145335,None,1067.033911483304,None,1067.033911483304,None,1067.5607259628596,None,1067.5607259628596,None,1067.5607259628596,None,f,0.19143171969335526,1067.5607259628596,None,sing33,001,2019_Nov_14_1304,ProdFawcett_Revision2019,3.2.4,59.97629204653933,
,,,,68,0,68,0,,,,,,,,,,,,,1070.678364953841,None,,,,,,,,,,,,,,,,,,,,,,collection,D_new,68,54,1068.3133697479789,None,1068.3133697479789,None,1068.3133697479789,None,4,1.5906410177994985,1068.3133697479789,None,1069.9506032118807,None,1069.9506032118807,None,1070.4784707580984,None,1070.4784707580984,None,1070.4784707580984,None,f,0.16108623234322295,1070.4784707580984,None,sing33,001,2019_Nov_14_1304,ProdFawcett_Revision2019,3.2.4,59.97629204653933,
,,,,69,0,69,0,,,,,,,,,,,,,1073.295754673396,None,,,,,,,,,,,,,,,,,,,,,,dance,D_new,69,84,1071.1954468084732,None,1071.1954468084732,None,1071.1954468084732,None,1,1.340380627923878,1071.1954468084732,None,1072.5852942008642,None,1072.5852942008642,None,1073.1124417679966,None,1073.1124417679966,None,1073.1124417679966,None,n,0.1429023276141379,1073.1124417679966,None,sing33,001,2019_Nov_14_1304,ProdFawcett_Revision2019,3.2.4,59.97629204653933,
,,,,70,0,70,0,,,,,,,,,,,,,1075.9132436039217,None,,,,,,,,,,,,,,,,,,,,,,engineer,B_aloud,70,114,1073.8126648526522,None,1073.8126648526522,None,1073.8126648526522,None,6,1.2751545622595586,1073.8126648526522,None,1075.1357457661943,None,1075.1357457661943,None,1075.663249124278,None,1075.663249124278,None,1075.663249124278,None,r,0.2161315132980235,1075.663249124278,None,sing33,001,2019_Nov_14_1304,ProdFawcett_Revision2019,3.2.4,59.97629204653933,
,,,,71,0,71,0,,,,,,,,,,,,,1078.5141621293442,None,,,,,,,,,,,,,,,,,,,,,,education,B_aloud,71,108,1076.432444032107,None,1076.432444032107,None,1076.432444032107,None,6,1.4148326895956416,1076.432444032107,None,1077.8972550912295,None,1077.8972550912295,None,1078.4142097443691,None,1078.4142097443691,None,1078.4142097443691,None,r,0.05737720467732288,1078.4142097443691,None,sing33,001,2019_Nov_14_1304,ProdFawcett_Revision2019,3.2.4,59.97629204653933,
,,,,72,0,72,0,,,,,,,,,,,,,1081.2482229888847,None,,,,,,,,,,,,,,,,,,,,,,brief,D_new,72,28,1079.0313515920716,None,1079.0313515920716,None,1079.0313515920716,None,1,1.5996881852915976,1079.0313515920716,None,1080.681690853089,None,1080.681690853089,None,1081.1983640457038,None,1081.1983640457038,None,1081.1983640457038,None,n,0.009096928493818268,1081.1983640457038,None,sing33,001,2019_Nov_14_1304,ProdFawcett_Revision2019,3.2.4,59.97629204653933,
,,,,73,0,73,0,,,,,,,,,,,,,1084.999456672318,None,,,,,,,,,,,,,,,,,,,,,,religion,D_new,73,258,1081.7675736330275,None,1081.7675736330275,None,1081.7675736330275,None,6,1.8557401307625696,1081.7675736330275,None,1083.6825069330807,None,1083.6825069330807,None,1084.1994180453767,None,1084.1994180453767,None,1084.1994180453767,None,r,0.7672884404310025,1084.1994180453767,None,sing33,001,2019_Nov_14_1304,ProdFawcett_Revision2019,3.2.4,59.97629204653933,
,,,,74,0,74,0,,,,,,,,,,,,,1088.7007872497488,None,,,,,,,,,,,,,,,,,,,,,,personnel,C_sing,74,219,1085.5171418788086,None,1085.5171418788086,None,1085.5171418788086,None,6,2.329199647560017,1085.5171418788086,None,1087.888666657731,None,1087.888666657731,None,1088.4172311686561,None,1088.4172311686561,None,1088.4172311686561,None,r,0.23713593237334862,1088.4172311686561,None,sing33,001,2019_Nov_14_1304,ProdFawcett_Revision2019,3.2.4,59.97629204653933,
,,,,75,0,75,0,,,,,,,,,,,,,1091.7350632321904,None,,,,,,,,,,,,,,,,,,,,,,trial,D_new,75,341,1089.2185281262791,None,1089.2185281262791,None,1089.2185281262791,None,4,1.6919394371507224,1089.2185281262791,None,1090.968093262025,None,1090.968093262025,None,1091.4849978431594,None,1091.4849978431594,None,1091.4849978431594,None,f,0.21715161329484545,1091.4849978431594,None,sing33,001,2019_Nov_14_1304,ProdFawcett_Revision2019,3.2.4,59.97629204653933,
,,,,76,0,76,0,,,,,,,,,,,,,1094.98603364898,None,,,,,,,,,,,,,,,,,,,,,,relation,D_new,76,257,1092.2531906893419,None,1092.2531906893419,None,1092.2531906893419,None,3,1.9056615861773025,1092.2531906893419,None,1094.219152937556,None,1094.219152937556,None,1094.7360823991767,None,1094.7360823991767,None,1094.7360823991767,None,f,0.20662405676557682,1094.7360823991767,None,sing33,001,2019_Nov_14_1304,ProdFawcett_Revision2019,3.2.4,59.97629204653933,
,,,,77,0,77,0,,,,,,,,,,,,,1098.253724997834,None,,,,,,,,,,,,,,,,,,,,,,century,D_new,77,45,1095.5060980521375,None,1095.5060980521375,None,1095.5060980521375,None,1,1.7642237863037735,1095.5060980521375,None,1097.3202292985807,None,1097.3202292985807,None,1097.836903424206,None,1097.836903424206,None,1097.836903424206,None,n,0.36900003140908666,1097.836903424206,None,sing33,001,2019_Nov_14_1304,ProdFawcett_Revision2019,3.2.4,59.97629204653933,
,,,,78,0,78,0,,,,,,,,,,,,,1102.0884044173872,None,,,,,,,,,,,,,,,,,,,,,,article,B_aloud,78,11,1098.7714655633608,None,1098.7714655633608,None,1098.7714655633608,None,6,2.3622275625530165,1098.7714655633608,None,1101.1739345164096,None,1101.1739345164096,None,1101.6882779623265,None,1101.6882779623265,None,1101.6882779623265,None,r,0.3581474734819494,1101.6882779623265,None,sing33,001,2019_Nov_14_1304,ProdFawcett_Revision2019,3.2.4,59.97629204653933,
,,,,79,0,79,0,,,,,,,,,,,,,1105.4893581487122,None,,,,,,,,,,,,,,,,,,,,,,graduate,D_new,79,141,1102.6065617311106,None,1102.6065617311106,None,1102.6065617311106,None,1,2.183015894581331,1102.6065617311106,None,1104.8392440561147,None,1104.8392440561147,None,1105.356094522198,None,1105.356094522198,None,1105.356094522198,None,n,0.09767768633901142,1105.356094522198,None,sing33,001,2019_Nov_14_1304,ProdFawcett_Revision2019,3.2.4,59.97629204653933,
,,,,80,0,80,0,,,,,,,,,,,,,1108.8405328654044,None,,,,,,,,,,,,,,,,,,,,,,industry,D_new,80,161,1106.0079278565245,None,1106.0079278565245,None,1106.0079278565245,None,5,1.8613957767083775,1106.0079278565245,None,1107.923582690768,None,1107.923582690768,None,1108.4405081093137,None,1108.4405081093137,None,1108.4405081093137,None,f,0.36495010994258337,1108.4405081093137,None,sing33,001,2019_Nov_14_1304,ProdFawcett_Revision2019,3.2.4,59.97629204653933,
,,,,81,0,81,0,,,,,,,,,,,,,1111.3746740267088,None,,,,,,,,,,,,,,,,,,,,,,title,B_aloud,81,331,1109.3576850074169,None,1109.3576850074169,None,1109.3576850074169,None,6,1.1115703289106023,1109.3576850074169,None,1110.5244415030174,None,1110.5244415030174,None,1111.041110030521,None,1111.041110030521,None,1111.041110030521,None,r,0.3004396693140734,1111.041110030521,None,sing33,001,2019_Nov_14_1304,ProdFawcett_Revision2019,3.2.4,59.97629204653933,
,,,,82,0,82,0,,,,,,,,,,,,,1113.9588585578313,None,,,,,,,,,,,,,,,,,,,,,,equipment,A_silent,82,116,1111.897878036456,None,1111.897878036456,None,1111.897878036456,None,6,1.2110944584710523,1111.897878036456,None,1113.1467270806315,None,1113.1467270806315,None,1113.6631069944997,None,1113.6631069944997,None,1113.6631069944997,None,r,0.2623883837950416,1113.6631069944997,None,sing33,001,2019_Nov_14_1304,ProdFawcett_Revision2019,3.2.4,59.97629204653933,
,,,,83,0,83,0,,,,,,,,,,,,,1117.7767358727579,None,,,,,,,,,,,,,,,,,,,,,,express,D_new,83,124,1114.4767869710631,None,1114.4767869710631,None,1114.4767869710631,None,2,2.656849551742198,1114.4767869710631,None,1117.1775188617466,None,1117.1775188617466,None,1117.6932960457634,None,1117.6932960457634,None,1117.6932960457634,None,f,0.04769465170102194,1117.6932960457634,None,sing33,001,2019_Nov_14_1304,ProdFawcett_Revision2019,3.2.4,59.97629204653933,
,,,,84,0,84,0,,,,,,,,,,,,,1120.2440806986124,None,,,,,,,,,,,,,,,,,,,,,,write,C_sing,84,358,1118.2938115072902,None,1118.2938115072902,None,1118.2938115072902,None,6,1.0952254032308701,1118.2938115072902,None,1119.4439170472033,None,1119.4439170472033,None,1119.9607538290147,None,1119.9607538290147,None,1119.9607538290147,None,r,0.2358234866114799,1119.9607538290147,None,sing33,001,2019_Nov_14_1304,ProdFawcett_Revision2019,3.2.4,59.97629204653933,
,,,,85,0,85,0,,,,,,,,,,,,,1122.9782435681554,None,,,,,,,,,,,,,,,,,,,,,,defeat,C_sing,85,88,1120.7608608773153,None,1120.7608608773153,None,1120.7608608773153,None,3,1.363919435738353,1120.7608608773153,None,1122.1780118063907,None,1122.1780118063907,None,1122.6949652155163,None,1122.6949652155163,None,1122.6949652155163,None,f,0.237575695005944,1122.6949652155163,None,sing33,001,2019_Nov_14_1304,ProdFawcett_Revision2019,3.2.4,59.97629204653933,
,,,,86,0,86,0,,,,,,,,,,,,,1125.7125177778653,None,,,,,,,,,,,,,,,,,,,,,,frank,D_new,86,133,1123.4968241611787,None,1123.4968241611787,None,1123.4968241611787,None,1,1.3638220908178482,1123.4968241611787,None,1124.9026249226008,None,1124.9026249226008,None,1125.4175679882464,None,1125.4175679882464,None,1125.4175679882464,None,n,0.2591567194031086,1125.4175679882464,None,sing33,001,2019_Nov_14_1304,ProdFawcett_Revision2019,3.2.4,59.97629204653933,
,,,,87,0,87,0,,,,,,,,,,,,,1130.9307868361066,None,,,,,,,,,,,,,,,,,,,,,,pattern,D_new,87,214,1126.230995738908,None,1126.230995738908,None,1126.230995738908,None,5,3.8213185974454973,1126.230995738908,None,1130.1034707969811,None,1130.1034707969811,None,1130.6306426225638,None,1130.6306426225638,None,1130.6306426225638,None,f,0.2616034043894615,1130.6306426225638,None,sing33,001,2019_Nov_14_1304,ProdFawcett_Revision2019,3.2.4,59.97629204653933,
,,,,88,0,88,0,,,,,,,,,,,,,1133.5819316029083,None,,,,,,,,,,,,,,,,,,,,,,material,D_new,88,182,1131.4499225750333,None,1131.4499225750333,None,1131.4499225750333,None,6,1.3387761474587023,1131.4499225750333,None,1132.8481067969988,None,1132.8481067969988,None,1133.3652259723458,None,1133.3652259723458,None,1133.3652259723458,None,r,0.18331663747085258,1133.3652259723458,None,sing33,001,2019_Nov_14_1304,ProdFawcett_Revision2019,3.2.4,59.97629204653933,
,,,,89,0,89,0,,,,,,,,,,,,,1139.4501950163685,None,,,,,,,,,,,,,,,,,,,,,,health,B_aloud,89,149,1134.0999324805744,None,1134.0999324805744,None,1134.0999324805744,None,1,4.616431198752252,1134.0999324805744,None,1138.7667124571162,None,1138.7667124571162,None,1139.2835878036858,None,1139.2835878036858,None,1139.2835878036858,None,n,0.12014196804375388,1139.2835878036858,None,sing33,001,2019_Nov_14_1304,ProdFawcett_Revision2019,3.2.4,59.97629204653933,
,,,,90,0,90,0,,,,,,,,,,,,,1145.3688180928293,None,,,,,,,,,,,,,,,,,,,,,,phrase,C_sing,90,220,1139.9678886199836,None,1139.9678886199836,None,1139.9678886199836,None,2,4.771585611742921,1139.9678886199836,None,1144.79176337659,None,1144.79176337659,None,1145.3188335031737,None,1145.3188335031737,None,1145.3188335031737,None,f,0.0045957371476106346,1145.3188335031737,None,sing33,001,2019_Nov_14_1304,ProdFawcett_Revision2019,3.2.4,59.97629204653933,
,,,,91,0,91,0,,,,,,,,,,,,,1147.769589574571,None,,,,,,,,,,,,,,,,,,,,,,rough,B_aloud,91,266,1145.8857114777493,None,1145.8857114777493,None,1145.8857114777493,None,6,1.0218260972178541,1145.8857114777493,None,1146.9693724301178,None,1146.9693724301178,None,1147.4860484217643,None,1147.4860484217643,None,1147.4860484217643,None,r,0.24535240256227553,1147.4860484217643,None,sing33,001,2019_Nov_14_1304,ProdFawcett_Revision2019,3.2.4,59.97629204653933,
,,,,92,0,92,0,,,,,,,,,,,,,1150.3037027453247,None,,,,,,,,,,,,,,,,,,,,,,population,A_silent,92,227,1148.2891426836723,None,1148.2891426836723,None,1148.2891426836723,None,6,1.2021222434414085,1148.2891426836723,None,1149.553439089912,None,1149.553439089912,None,1150.0702146035328,None,1150.0702146035328,None,1150.0702146035328,None,r,0.18976223893696442,1150.0702146035328,None,sing33,001,2019_Nov_14_1304,ProdFawcett_Revision2019,3.2.4,59.97629204653933,
,,,,93,0,93,0,,,,,,,,,,,,,1152.5877757185663,None,,,,,,,,,,,,,,,,,,,,,,error,C_sing,93,117,1150.8205305079755,None,1150.8205305079755,None,1150.8205305079755,None,6,1.0466969441331457,1150.8205305079755,None,1151.9209752156166,None,1151.9209752156166,None,1152.437639078038,None,1152.437639078038,None,1152.437639078038,None,r,0.10999228394939564,1152.437639078038,None,sing33,001,2019_Nov_14_1304,ProdFawcett_Revision2019,3.2.4,59.97629204653933,
,,,,94,0,94,0,,,,,,,,,,,,,1154.6718565291376,None,,,,,,,,,,,,,,,,,,,,,,pretty,B_aloud,94,233,1153.1046551082109,None,1153.1046551082109,None,1153.1046551082109,None,6,0.9071951572550461,1153.1046551082109,None,1154.0607111900754,None,1154.0607111900754,None,1154.588429764408,None,1154.588429764408,None,1154.588429764408,None,r,0.04675727934227325,1154.588429764408,None,sing33,001,2019_Nov_14_1304,ProdFawcett_Revision2019,3.2.4,59.97629204653933,
,,,,95,0,95,0,,,,,,,,,,,,,1157.9560458186606,None,,,,,,,,,,,,,,,,,,,,,,estate,D_new,95,119,1155.1893209212867,None,1155.1893209212867,None,1155.1893209212867,None,5,2.0619374871603213,1155.1893209212867,None,1157.3058878742158,None,1157.3058878742158,None,1157.822868651856,None,1157.822868651856,None,1157.822868651856,None,f,0.09255230578128248,1157.822868651856,None,sing33,001,2019_Nov_14_1304,ProdFawcett_Revision2019,3.2.4,59.97629204653933,
,,,,96,0,96,0,,,,,,,,,,,,,1161.523947314301,None,,,,,,,,,,,,,,,,,,,,,,society,C_sing,96,293,1158.4740880601166,None,1158.4740880601166,None,1158.4740880601166,None,3,2.3769393951806705,1158.4740880601166,None,1160.9070775969594,None,1160.9070775969594,None,1161.4239579196146,None,1161.4239579196146,None,1161.4239579196146,None,f,0.06688497221330181,1161.4239579196146,None,sing33,001,2019_Nov_14_1304,ProdFawcett_Revision2019,3.2.4,59.97629204653933,
,,,,97,0,97,0,,,,,,,,,,,,,1163.7913929683273,None,,,,,,,,,,,,,,,,,,,,,,foundation,C_sing,97,132,1162.0407231389254,None,1162.0407231389254,None,1162.0407231389254,None,6,0.9943686125043314,1162.0407231389254,None,1163.0911185676523,None,1163.0911185676523,None,1163.608448916144,None,1163.608448916144,None,1163.608448916144,None,r,0.138241590175312,1163.608448916144,None,sing33,001,2019_Nov_14_1304,ProdFawcett_Revision2019,3.2.4,59.97629204653933,
,,,,98,0,98,0,,,,,,,,,,,,,1165.9419603522983,None,,,,,,,,,,,,,,,,,,,,,,route,C_sing,98,267,1164.3083687698818,None,1164.3083687698818,None,1164.3083687698818,None,6,0.9910029044840485,1164.3083687698818,None,1165.348565064487,None,1165.348565064487,None,1165.875367103814,None,1165.875367103814,None,1165.875367103814,None,r,0.02400002983631566,1165.875367103814,None,sing33,001,2019_Nov_14_1304,ProdFawcett_Revision2019,3.2.4,59.97629204653933,
,,,,99,0,99,0,,,,,,,,,,,,,1168.5427638054825,None,,,,,,,,,,,,,,,,,,,,,,edition,D_new,99,107,1166.461805496161,None,1166.461805496161,None,1166.461805496161,None,6,1.2447714431618806,1166.461805496161,None,1167.7593173540372,None,1167.7593173540372,None,1168.2760092070093,None,1168.2760092070093,None,1168.2760092070093,None,r,0.22311608830932528,1168.2760092070093,None,sing33,001,2019_Nov_14_1304,ProdFawcett_Revision2019,3.2.4,59.97629204653933,
,,,,100,0,100,0,,,,,,,,,,,,,1171.2937639233423,None,,,,,,,,,,,,,,,,,,,,,,degree,D_new,100,89,1169.0600220005726,None,1169.0600220005726,None,1169.0600220005726,None,2,1.5827056971029378,1169.0600220005726,None,1170.681911356398,None,1170.681911356398,None,1171.210271847318,None,1171.210271847318,None,1171.210271847318,None,f,0.040732780122198164,1171.210271847318,None,sing33,001,2019_Nov_14_1304,ProdFawcett_Revision2019,3.2.4,59.97629204653933,
,,,,101,0,101,0,,,,,,,,,,,,,1173.9445137123985,None,,,,,,,,,,,,,,,,,,,,,,worker,D_new,101,356,1171.8111518079822,None,1171.8111518079822,None,1171.8111518079822,None,1,1.3918866594322026,1171.8111518079822,None,1173.2609841912345,None,1173.2609841912345,None,1173.77803121318,None,1173.77803121318,None,1173.77803121318,None,n,0.12002907285932451,1173.77803121318,None,sing33,001,2019_Nov_14_1304,ProdFawcett_Revision2019,3.2.4,59.97629204653933,
,,,,102,0,102,0,,,,,,,,,,,,,1178.479307986534,None,,,,,,,,,,,,,,,,,,,,,,company,D_new,102,64,1174.4622732493153,None,1174.4622732493153,None,1174.4622732493153,None,3,3.2838226133026183,1174.4622732493153,None,1177.7958017908386,None,1177.7958017908386,None,1178.3126665632008,None,1178.3126665632008,None,1178.3126665632008,None,f,0.12116673318087123,1178.3126665632008,None,sing33,001,2019_Nov_14_1304,ProdFawcett_Revision2019,3.2.4,59.97629204653933,
,,,,103,0,103,0,,,,,,,,,,,,,1182.2472240372736,None,,,,,,,,,,,,,,,,,,,,,,agency,D_new,103,4,1178.9963375921361,None,1178.9963375921361,None,1178.9963375921361,None,3,1.8213742675434332,1178.9963375921361,None,1180.8801195880515,None,1180.8801195880515,None,1181.3969921355892,None,1181.3969921355892,None,1181.3969921355892,None,f,0.8127752598375082,1181.3969921355892,None,sing33,001,2019_Nov_14_1304,ProdFawcett_Revision2019,3.2.4,59.97629204653933,
,,,,104,0,104,0,,,,,,,,,,,,,1184.8147339762654,None,,,,,,,,,,,,,,,,,,,,,,vision,D_new,104,347,1182.765276230959,None,1182.765276230959,None,1182.765276230959,None,6,1.2362955938733649,1182.765276230959,None,1184.0644376651908,None,1184.0644376651908,None,1184.5813646387833,None,1184.5813646387833,None,1184.5813646387833,None,r,0.18822897886275314,1184.5813646387833,None,sing33,001,2019_Nov_14_1304,ProdFawcett_Revision2019,3.2.4,59.97629204653933,
,,,,105,0,105,0,,,,,,,,,,,,,1187.2987639684288,None,,,,,,,,,,,,,,,,,,,,,,republic,D_new,105,260,1185.3333089711668,None,1185.3333089711668,None,1185.3333089711668,None,6,1.316100381576689,1185.3333089711668,None,1186.6986325994658,None,1186.6986325994658,None,1187.2155110560998,None,1187.2155110560998,None,1187.2155110560998,None,r,0.04249960579909384,1187.2155110560998,None,sing33,001,2019_Nov_14_1304,ProdFawcett_Revision2019,3.2.4,59.97629204653933,
,,,,106,0,106,0,,,,,,,,,,,,,1192.6671174181683,None,,,,,,,,,,,,,,,,,,,,,,contract,D_new,106,68,1187.8173311882128,None,1187.8173311882128,None,1187.8173311882128,None,2,3.80853438063059,1187.8173311882128,None,1191.6835466265038,None,1191.6835466265038,None,1192.2004369013594,None,1192.2004369013594,None,1192.2004369013594,None,f,0.42539570084773004,1192.2004369013594,None,sing33,001,2019_Nov_14_1304,ProdFawcett_Revision2019,3.2.4,59.97629204653933,
,,,,107,0,107,0,,,,,,,,,,,,,1195.434783108998,None,,,,,,,,,,,,,,,,,,,,,,disease,D_new,107,97,1193.185163391725,None,1193.185163391725,None,1193.185163391725,None,1,1.5358563599584159,1193.185163391725,None,1194.7731512164464,None,1194.7731512164464,None,1195.3012762757426,None,1195.3012762757426,None,1195.3012762757426,None,n,0.10027209925465286,1195.3012762757426,None,sing33,001,2019_Nov_14_1304,ProdFawcett_Revision2019,3.2.4,59.97629204653933,
,,,,108,0,108,0,,,,,,,,,,,,,1199.15254507176,None,,,,,,,,,,,,,,,,,,,,,,agreement,A_silent,108,5,1195.951619579806,None,1195.951619579806,None,1195.951619579806,None,6,2.297436905413633,1195.951619579806,None,1198.3022049399442,None,1198.3022049399442,None,1198.8191328465473,None,1198.8191328465473,None,1198.8191328465473,None,r,0.28584975108969957,1198.8191328465473,None,sing33,001,2019_Nov_14_1304,ProdFawcett_Revision2019,3.2.4,59.97629204653933,
,,,,109,0,109,0,,,,,,,,,,,,,1201.536721267912,None,,,,,,,,,,,,,,,,,,,,,,harmony,C_sing,109,148,1199.6713517662429,None,1199.6713517662429,None,1199.6713517662429,None,6,1.153500171523774,1199.6713517662429,None,1200.886539064988,None,1200.886539064988,None,1201.4033634065709,None,1201.4033634065709,None,1201.4033634065709,None,r,0.08548064902424812,1201.4033634065709,None,sing33,001,2019_Nov_14_1304,ProdFawcett_Revision2019,3.2.4,59.97629204653933,
,,,,110,0,110,0,,,,,,,,,,,,,1204.1544285247219,None,,,,,,,,,,,,,,,,,,,,,,incident,D_new,110,158,1202.054222358769,None,1202.054222358769,None,1202.054222358769,None,1,1.330712070222944,1202.054222358769,None,1203.4372997703613,None,1203.4372997703613,None,1203.9541800930456,None,1203.9541800930456,None,1203.9541800930456,None,n,0.16684979741694406,1203.9541800930456,None,sing33,001,2019_Nov_14_1304,ProdFawcett_Revision2019,3.2.4,59.97629204653933,
,,,,111,0,111,0,,,,,,,,,,,,,1206.9551215085085,None,,,,,,,,,,,,,,,,,,,,,,silence,D_new,111,288,1204.6725111969863,None,1204.6725111969863,None,1204.6725111969863,None,2,1.4641234246373642,1204.6725111969863,None,1206.1882432851417,None,1206.1882432851417,None,1206.7049164777563,None,1206.7049164777563,None,1206.7049164777563,None,f,0.2159607709327247,1206.7049164777563,None,sing33,001,2019_Nov_14_1304,ProdFawcett_Revision2019,3.2.4,59.97629204653933,
,,,,112,0,112,0,,,,,,,,,,,,,1209.4891693679965,None,,,,,,,,,,,,,,,,,,,,,,salary,B_aloud,112,271,1207.4722888898395,None,1207.4722888898395,None,1207.4722888898395,None,5,1.184147645777557,1207.4722888898395,None,1208.7056958590401,None,1208.7056958590401,None,1209.2223563003936,None,1209.2223563003936,None,1209.2223563003936,None,f,0.2180429567815736,1209.2223563003936,None,sing33,001,2019_Nov_14_1304,ProdFawcett_Revision2019,3.2.4,59.97629204653933,
,,,,113,0,113,0,,,,,,,,,,,,,1211.9400485978113,None,,,,,,,,,,,,,,,,,,,,,,smell,D_new,113,291,1210.0060089488688,None,1210.0060089488688,None,1210.0060089488688,None,1,1.2430786369659472,1210.0060089488688,None,1211.2935658124625,None,1211.2935658124625,None,1211.8065389654657,None,1211.8065389654657,None,1211.8065389654657,None,n,0.09051334980176762,1211.8065389654657,None,sing33,001,2019_Nov_14_1304,ProdFawcett_Revision2019,3.2.4,59.97629204653933,
,,,,114,0,114,0,,,,,,,,,,,,,1214.6241768057225,None,,,,,,,,,,,,,,,,,,,,,,management,D_new,114,177,1212.4575120569207,None,1212.4575120569207,None,1212.4575120569207,None,1,1.3830823876778595,1212.4575120569207,None,1213.880176813167,None,1213.880176813167,None,1214.4076599558757,None,1214.4076599558757,None,1214.4076599558757,None,n,0.16852114419452846,1214.4076599558757,None,sing33,001,2019_Nov_14_1304,ProdFawcett_Revision2019,3.2.4,59.97629204653933,
,,,,115,0,115,0,,,,,,,,,,,,,1217.6252354704775,None,,,,,,,,,,,,,,,,,,,,,,stranger,A_silent,115,309,1215.1421839034883,None,1215.1421839034883,None,1215.1421839034883,None,3,1.6905252923897933,1215.1421839034883,None,1216.880202626693,None,1216.880202626693,None,1217.408547567291,None,1217.408547567291,None,1217.408547567291,None,f,0.17587674953392707,1217.408547567291,None,sing33,001,2019_Nov_14_1304,ProdFawcett_Revision2019,3.2.4,59.97629204653933,
,,,,116,0,116,0,,,,,,,,,,,,,1222.9601430130424,None,,,,,,,,,,,,,,,,,,,,,,thing,D_new,116,328,1218.1420190702484,None,1218.1420190702484,None,1218.1420190702484,None,5,3.8978108591691125,1218.1420190702484,None,1222.0931618777395,None,1222.0931618777395,None,1222.6101155978395,None,1222.6101155978395,None,1222.6101155978395,None,f,0.30160003309720196,1222.6101155978395,None,sing33,001,2019_Nov_14_1304,ProdFawcett_Revision2019,3.2.4,59.97629204653933,
,,,,117,0,117,0,,,,,,,,,,,,,1225.510927976895,None,,,,,,,,,,,,,,,,,,,,,,discussion,C_sing,117,96,1223.4773013751546,None,1223.4773013751546,None,1223.4773013751546,None,6,1.1786005409667268,1223.4773013751546,None,1224.7107637034496,None,1224.7107637034496,None,1225.2277674955549,None,1225.2277674955549,None,1225.2277674955549,None,r,0.24422034036251716,1225.2277674955549,None,sing33,001,2019_Nov_14_1304,ProdFawcett_Revision2019,3.2.4,59.97629204653933,
,,,,118,0,118,0,,,,,,,,,,,,,1227.8618125248759,None,,,,,,,,,,,,,,,,,,,,,,block,B_aloud,118,25,1226.029640125489,None,1226.029640125489,None,1226.029640125489,None,6,0.9858031934709288,1226.029640125489,None,1227.078170450608,None,1227.078170450608,None,1227.5950473522244,None,1227.5950473522244,None,1227.5950473522244,None,r,0.22043179464526474,1227.5950473522244,None,sing33,001,2019_Nov_14_1304,ProdFawcett_Revision2019,3.2.4,59.97629204653933,
,,,,119,0,119,0,,,,,,,,,,,,,1230.5459668573167,None,,,,,,,,,,,,,,,,,,,,,,sweet,D_new,119,319,1228.3790047866933,None,1228.3790047866933,None,1228.3790047866933,None,1,1.4926159376336727,1228.3790047866933,None,1229.9167013697443,None,1229.9167013697443,None,1230.4291812671,None,1230.4291812671,None,1230.4291812671,None,n,0.07502275789738633,1230.4291812671,None,sing33,001,2019_Nov_14_1304,ProdFawcett_Revision2019,3.2.4,59.97629204653933,
,,,,120,0,120,0,,,,,,,,,,,,,1233.1803160506242,None,,,,,,,,,,,,,,,,,,,,,,state,A_silent,120,303,1231.0634987377853,None,1231.0634987377853,None,1231.0634987377853,None,5,1.3281882557203062,1231.0634987377853,None,1232.4466548339115,None,1232.4466548339115,None,1232.9634185293107,None,1232.9634185293107,None,1232.9634185293107,None,f,0.17987006789189763,1232.9634185293107,None,sing33,001,2019_Nov_14_1304,ProdFawcett_Revision2019,3.2.4,59.97629204653933,
,,,,121,0,121,0,,,,,,,,,,,,,1240.0655610192334,None,,,,,,,,,,,,,,,,,,,,,,watch,D_new,121,351,1233.6976728346199,None,1233.6976728346199,None,1233.6976728346199,None,2,5.142060434096493,1233.6976728346199,None,1238.8900226443366,None,1238.8900226443366,None,1239.4154982426553,None,1239.4154982426553,None,1239.4154982426553,None,f,0.6156614586652722,1239.4154982426553,None,sing33,001,2019_Nov_14_1304,ProdFawcett_Revision2019,3.2.4,59.97629204653933,
,,,,122,0,122,0,,,,,,,,,,,,,1243.533450416755,None,,,,,,,,,,,,,,,,,,,,,,judge,D_new,122,166,1240.5992922745063,None,1240.5992922745063,None,1240.5992922745063,None,5,1.5922812639619224,1240.5992922745063,None,1242.249581774522,None,1242.249581774522,None,1242.7667264523916,None,1242.7667264523916,None,1242.7667264523916,None,f,0.728301959548844,1242.7667264523916,None,sing33,001,2019_Nov_14_1304,ProdFawcett_Revision2019,3.2.4,59.97629204653933,
,,,,123,0,123,0,,,,,,,,,,,,,1246.1009448054247,None,,,,,,,,,,,,,,,,,,,,,,bureau,D_new,123,37,1244.0516036874033,None,1244.0516036874033,None,1244.0516036874033,None,1,1.195046854641987,1244.0516036874033,None,1245.2887029210397,None,1245.2887029210397,None,1245.8173803271784,None,1245.8173803271784,None,1245.8173803271784,None,n,0.23715272670960985,1245.8173803271784,None,sing33,001,2019_Nov_14_1304,ProdFawcett_Revision2019,3.2.4,59.97629204653933,
,,,,124,0,124,0,,,,,,,,,,,,,1248.6517341233557,None,,,,,,,,,,,,,,,,,,,,,,report,C_sing,124,259,1246.6186713757052,None,1246.6186713757052,None,1246.6186713757052,None,6,1.1721925712481607,1246.6186713757052,None,1247.839606067224,None,1247.839606067224,None,1248.3682306022965,None,1248.3682306022965,None,1248.3682306022965,None,r,0.23854416797985323,1248.3682306022965,None,sing33,001,2019_Nov_14_1304,ProdFawcett_Revision2019,3.2.4,59.97629204653933,
,,,,125,0,125,0,,,,,,,,,,,,,1251.7193935007672,None,,,,,,,,,,,,,,,,,,,,,,crisis,D_new,125,79,1249.168733872386,None,1249.168733872386,None,1249.168733872386,None,3,1.7339153086650185,1249.168733872386,None,1250.95711567963,None,1250.95711567963,None,1251.4858555980027,None,1251.4858555980027,None,1251.4858555980027,None,f,0.20071929492405616,1251.4858555980027,None,sing33,001,2019_Nov_14_1304,ProdFawcett_Revision2019,3.2.4,59.97629204653933,
,,,,126,0,126,0,,,,,,,,,,,,,1254.0868092671153,None,,,,,,,,,,,,,,,,,,,,,,election,C_sing,126,109,1252.2361562631268,None,1252.2361562631268,None,1252.2361562631268,None,6,1.042921330081299,1252.2361562631268,None,1253.3262024817523,None,1253.3262024817523,None,1253.8534172261716,None,1253.8534172261716,None,1253.8534172261716,None,r,0.19313789915759116,1253.8534172261716,None,sing33,001,2019_Nov_14_1304,ProdFawcett_Revision2019,3.2.4,59.97629204653933,
,,,,127,0,127,0,,,,,,,,,,,,,1256.4542499139206,None,,,,,,,,,,,,,,,,,,,,,,resistance,C_sing,127,262,1254.604939834302,None,1254.604939834302,None,1254.604939834302,None,6,1.025622237677453,1254.604939834302,None,1255.6772835856245,None,1255.6772835856245,None,1256.2061600356537,None,1256.2061600356537,None,1256.2061600356537,None,r,0.2159411775355693,1256.2061600356537,None,sing33,001,2019_Nov_14_1304,ProdFawcett_Revision2019,3.2.4,59.97629204653933,
,,,,128,0,128,0,,,,,,,,,,,,,1259.721963966207,None,,,,,,,,,,,,,,,,,,,,,,order,A_silent,128,207,1256.971257749101,None,1256.971257749101,None,1256.971257749101,None,6,1.9148005004681181,1256.971257749101,None,1258.9383041645924,None,1258.9383041645924,None,1259.4552062576695,None,1259.4552062576695,None,1259.4552062576695,None,r,0.2233798214874696,1259.4552062576695,None,sing33,001,2019_Nov_14_1304,ProdFawcett_Revision2019,3.2.4,59.97629204653933,
,,,,129,0,129,0,,,,,,,,,,,,,1262.889485847816,None,,,,,,,,,,,,,,,,,,,,,,instrument,D_new,129,163,1260.2408577423776,None,1260.2408577423776,None,1260.2408577423776,None,1,1.2376067956211045,1260.2408577423776,None,1261.5390497705957,None,1261.5390497705957,None,1262.0559126769367,None,1262.0559126769367,None,1262.0559126769367,None,n,0.7905995917681139,1262.0559126769367,None,sing33,001,2019_Nov_14_1304,ProdFawcett_Revision2019,3.2.4,59.97629204653933,
,,,,130,0,130,0,,,,,,,,,,,,,1265.3236208200979,None,,,,,,,,,,,,,,,,,,,,,,dispute,D_new,130,99,1263.4075439505978,None,1263.4075439505978,None,1263.4075439505978,None,2,1.1340650892234407,1263.4075439505978,None,1264.593249736965,None,1264.593249736965,None,1265.1068682276236,None,1265.1068682276236,None,1265.1068682276236,None,f,0.1707152922754176,1265.1068682276236,None,sing33,001,2019_Nov_14_1304,ProdFawcett_Revision2019,3.2.4,59.97629204653933,
,,,,131,0,131,0,,,,,,,,,,,,,1270.558777820639,None,,,,,,,,,,,,,,,,,,,,,,appeal,B_aloud,131,9,1265.8407776271924,None,1265.8407776271924,None,1265.8407776271924,None,1,3.964582314132713,1265.8407776271924,None,1269.8584521039738,None,1269.8584521039738,None,1270.375204914133,None,1270.375204914133,None,1270.375204914133,None,n,0.15044640260748565,1270.375204914133,None,sing33,001,2019_Nov_14_1304,ProdFawcett_Revision2019,3.2.4,59.97629204653933,
,,,,132,0,132,0,,,,,,,,,,,,,1273.1428463464836,None,,,,,,,,,,,,,,,,,,,,,,machinery,D_new,132,175,1271.0778012863593,None,1271.0778012863593,None,1271.0778012863593,None,1,1.256362329586409,1271.0778012863593,None,1272.3926738158625,None,1272.3926738158625,None,1272.9093656688347,None,1272.9093656688347,None,1272.9093656688347,None,n,0.192144234693842,1272.9093656688347,None,sing33,001,2019_Nov_14_1304,ProdFawcett_Revision2019,3.2.4,59.97629204653933,
,,,,133,0,133,0,,,,,,,,,,,,,1276.1271738159994,None,,,,,,,,,,,,,,,,,,,,,,afternoon,B_aloud,133,3,1273.6606979412318,None,1273.6606979412318,None,1273.6606979412318,None,6,1.784480546717532,1273.6606979412318,None,1275.4986074701592,None,1275.4986074701592,None,1276.0271380814083,None,1276.0271380814083,None,1276.0271380814083,None,f,0.06647257812437601,1276.0271380814083,None,sing33,001,2019_Nov_14_1304,ProdFawcett_Revision2019,3.2.4,59.97629204653933,
,,,,134,0,134,0,,,,,,,,,,,,,1279.6615472988924,None,,,,,,,,,,,,,,,,,,,,,,spoke,A_silent,134,300,1276.6440143299114,None,1276.6440143299114,None,1276.6440143299114,None,3,2.1689717920671683,1276.6440143299114,None,1278.8779385022644,None,1278.8779385022644,None,1279.394760977797,None,1279.394760977797,None,1279.394760977797,None,f,0.21819877086090855,1279.394760977797,None,sing33,001,2019_Nov_14_1304,ProdFawcett_Revision2019,3.2.4,59.97629204653933,
,,,,135,0,135,0,,,,,,,,,,,,,1282.5458449429134,None,,,,,,,,,,,,,,,,,,,,,,concern,B_aloud,135,65,1280.179969589808,None,1280.179969589808,None,1280.179969589808,None,6,1.6653393963060807,1280.179969589808,None,1281.8848303974664,None,1281.8848303974664,None,1282.4125427516701,None,1282.4125427516701,None,1282.4125427516701,None,r,0.08871169143822044,1282.4125427516701,None,sing33,001,2019_Nov_14_1304,ProdFawcett_Revision2019,3.2.4,59.97629204653933,
,,,,136,0,136,0,,,,,,,,,,,,,1285.263405062724,None,,,,,,,,,,,,,,,,,,,,,,surface,C_sing,136,316,1283.0640277591592,None,1283.0640277591592,None,1283.0640277591592,None,6,1.3006816320703365,1283.0640277591592,None,1284.4296655035869,None,1284.4296655035869,None,1284.9466839129745,None,1284.9466839129745,None,1284.9466839129745,None,r,0.282222486945102,1284.9466839129745,None,sing33,001,2019_Nov_14_1304,ProdFawcett_Revision2019,3.2.4,59.97629204653933,
,,,,137,0,137,0,,,,,,,,,,,,,1287.7809024215094,None,,,,,,,,,,,,,,,,,,,,,,marriage,D_new,137,179,1285.7820830006676,None,1285.7820830006676,None,1285.7820830006676,None,1,1.1825055335648358,1285.7820830006676,None,1287.0188889555866,None,1287.0188889555866,None,1287.54740370551,None,1287.54740370551,None,1287.54740370551,None,n,0.18518889424740337,1287.54740370551,None,sing33,001,2019_Nov_14_1304,ProdFawcett_Revision2019,3.2.4,59.97629204653933,
,,,,138,0,138,0,,,,,,,,,,,,,1290.2650219834468,None,,,,,,,,,,,,,,,,,,,,,,payment,C_sing,138,215,1288.299054759147,None,1288.299054759147,None,1288.299054759147,None,6,1.041850536072161,1288.299054759147,None,1289.385947686911,None,1289.385947686911,None,1289.914770643867,None,1289.914770643867,None,1289.914770643867,None,r,0.3138085776299704,1289.914770643867,None,sing33,001,2019_Nov_14_1304,ProdFawcett_Revision2019,3.2.4,59.97629204653933,
,,,,139,0,139,0,,,,,,,,,,,,,1293.3159940174664,None,,,,,,,,,,,,,,,,,,,,,,crime,D_new,139,78,1290.7830592488172,None,1290.7830592488172,None,1290.7830592488172,None,1,1.149412618309725,1290.7830592488172,None,1291.982230977388,None,1291.982230977388,None,1292.4989125671564,None,1292.4989125671564,None,1292.4989125671564,None,n,0.7777481976372655,1292.4989125671564,None,sing33,001,2019_Nov_14_1304,ProdFawcett_Revision2019,3.2.4,59.97629204653933,
,,,,140,0,140,0,,,,,,,,,,,,,1295.8169691771036,None,,,,,,,,,,,,,,,,,,,,,,property,D_new,140,242,1293.834002048272,None,1293.834002048272,None,1293.834002048272,None,4,1.1861278216529172,1293.834002048272,None,1295.0831222897687,None,1295.0831222897687,None,1295.6000539284432,None,1295.6000539284432,None,1295.6000539284432,None,f,0.17273589890100993,1295.6000539284432,None,sing33,001,2019_Nov_14_1304,ProdFawcett_Revision2019,3.2.4,59.97629204653933,
,,,,141,0,141,0,,,,,,,,,,,,,1298.6070353934192,None,,,,,,,,,,,,,,,,,,,,,,split,B_aloud,141,299,1296.3344173969235,None,1296.3344173969235,None,1296.3344173969235,None,6,1.4456474851467647,1296.3344173969235,None,1297.8340825988562,None,1297.8340825988562,None,1298.3507915571681,None,1298.3507915571681,None,1298.3507915571681,None,r,0.22114835269167088,1298.3507915571681,None,sing33,001,2019_Nov_14_1304,ProdFawcett_Revision2019,3.2.4,59.97629204653933,
,,,,142,0,142,0,,,,,,,,,,,,,1301.535252386093,None,,,,,,,,,,,,,,,,,,,,,,rural,A_silent,142,269,1299.1344345644757,None,1299.1344345644757,None,1299.1344345644757,None,4,1.6374169574701227,1299.1344345644757,None,1300.8259404591226,None,1300.8259404591226,None,1301.3517659392965,None,1301.3517659392965,None,1301.3517659392965,None,f,0.14071315567707643,1301.3517659392965,None,sing33,001,2019_Nov_14_1304,ProdFawcett_Revision2019,3.2.4,59.97629204653933,
,,,,143,0,143,0,,,,,,,,,,,,,1303.969367454003,None,,,,,,,,,,,,,,,,,,,,,,turkey,B_aloud,143,342,1302.0520919669943,None,1302.0520919669943,None,1302.0520919669943,None,6,1.1517159295035526,1302.0520919669943,None,1303.2690168568224,None,1303.2690168568224,None,1303.7860781850468,None,1303.7860781850468,None,1303.7860781850468,None,r,0.14569765044143423,1303.7860781850468,None,sing33,001,2019_Nov_14_1304,ProdFawcett_Revision2019,3.2.4,59.97629204653933,
,,,,144,0,144,0,,,,,,,,,,,,,1306.4868763200066,None,,,,,,,,,,,,,,,,,,,,,,union,D_new,144,344,1304.4864287822274,None,1304.4864287822274,None,1304.4864287822274,None,6,1.1653908677981235,1304.4864287822274,None,1305.7032703224395,None,1305.7032703224395,None,1306.220074448618,None,1306.220074448618,None,1306.220074448618,None,r,0.22435949070495553,1306.220074448618,None,sing33,001,2019_Nov_14_1304,ProdFawcett_Revision2019,3.2.4,59.97629204653933,
,,,,145,0,145,0,,,,,,,,,,,,,1309.3377659996331,None,,,,,,,,,,,,,,,,,,,,,,weather,C_sing,145,352,1307.0052236584597,None,1307.0052236584597,None,1307.0052236584597,None,6,1.6390093087102287,1307.0052236584597,None,1308.70422417816,None,1308.70422417816,None,1309.2210665580933,None,1309.2210665580933,None,1309.2210665580933,None,r,0.07849171990528703,1309.2210665580933,None,sing33,001,2019_Nov_14_1304,ProdFawcett_Revision2019,3.2.4,59.97629204653933,
,,,,146,0,146,0,,,,,,,,,,,,,1311.3884114772372,None,,,,,,,,,,,,,,,,,,,,,,debate,A_silent,146,87,1309.8400352556491,None,1309.8400352556491,None,1309.8400352556491,None,6,0.8593879213440232,1309.8400352556491,None,1310.741186320316,None,1310.741186320316,None,1311.2550800514,None,1311.2550800514,None,1311.2550800514,None,r,0.10025561592192389,1311.2550800514,None,sing33,001,2019_Nov_14_1304,ProdFawcett_Revision2019,3.2.4,59.97629204653933,
,,,,147,0,147,0,,,,,,,,,,,,,1313.689073826943,None,,,,,,,,,,,,,,,,,,,,,,bucket,B_aloud,147,33,1311.9061486217252,None,1311.9061486217252,None,1311.9061486217252,None,6,1.0812938848976046,1311.9061486217252,None,1313.0273221970128,None,1313.0273221970128,None,1313.5556366590317,None,1313.5556366590317,None,1313.5556366590317,None,r,0.09567760609206744,1313.5556366590317,None,sing33,001,2019_Nov_14_1304,ProdFawcett_Revision2019,3.2.4,59.97629204653933,
,,,,148,0,148,0,,,,,,,,,,,,,1316.3567078262276,None,,,,,,,,,,,,,,,,,,,,,,clean,A_silent,148,51,1314.2059728099848,None,1314.2059728099848,None,1314.2059728099848,None,6,1.5336917575041298,1314.2059728099848,None,1315.7898960959574,None,1315.7898960959574,None,1316.3066613463743,None,1316.3066613463743,None,1316.3066613463743,None,r,0.009253675554646179,1316.3066613463743,None,sing33,001,2019_Nov_14_1304,ProdFawcett_Revision2019,3.2.4,59.97629204653933,
,,,,149,0,149,0,,,,,,,,,,,,,1319.0908968203003,None,,,,,,,,,,,,,,,,,,,,,,history,D_new,149,153,1316.8743295874738,None,1316.8743295874738,None,1316.8743295874738,None,6,1.0006587109237444,1316.8743295874738,None,1317.9404812073044,None,1317.9404812073044,None,1318.4574165780505,None,1318.4574165780505,None,1318.4574165780505,None,r,0.5855374076636508,1318.4574165780505,None,sing33,001,2019_Nov_14_1304,ProdFawcett_Revision2019,3.2.4,59.97629204653933,
,,,,150,0,150,0,,,,,,,,,,,,,1324.3426982453966,None,,,,,,,,,,,,,,,,,,,,,,little,D_new,150,174,1319.6092985848081,None,1319.6092985848081,None,1319.6092985848081,None,6,3.2977267630922142,1319.6092985848081,None,1322.9587161170493,None,1322.9587161170493,None,1323.475622564234,None,1323.475622564234,None,1323.475622564234,None,r,0.8312403140880633,1323.475622564234,None,sing33,001,2019_Nov_14_1304,ProdFawcett_Revision2019,3.2.4,59.97629204653933,
,,,,151,0,151,0,,,,,,,,,,,,,1326.7099830781517,None,,,,,,,,,,,,,,,,,,,,,,surprise,B_aloud,151,317,1324.8595328501542,None,1324.8595328501542,None,1324.8595328501542,None,6,1.0079941008298192,1324.8595328501542,None,1325.9263071042078,None,1325.9263071042078,None,1326.4432070202602,None,1326.4432070202602,None,1326.4432070202602,None,r,0.23170452180784196,1326.4432070202602,None,sing33,001,2019_Nov_14_1304,ProdFawcett_Revision2019,3.2.4,59.97629204653933,
,,,,152,0,152,0,,,,,,,,,,,,,1329.1107327894424,None,,,,,,,,,,,,,,,,,,,,,,power,D_new,152,230,1327.2272263449559,None,1327.2272263449559,None,1327.2272263449559,None,6,1.2400021646171808,1327.2272263449559,None,1328.5130704979238,None,1328.5130704979238,None,1329.0273542306386,None,1329.0273542306386,None,1329.0273542306386,None,r,0.04728319062269293,1329.0273542306386,None,sing33,001,2019_Nov_14_1304,ProdFawcett_Revision2019,3.2.4,59.97629204653933,
,,,,153,0,153,0,,,,,,,,,,,,,1331.9949906247202,None,,,,,,,,,,,,,,,,,,,,,,beginning,D_new,153,19,1329.6280737121706,None,1329.6280737121706,None,1329.6280737121706,None,4,1.5502851770434063,1329.6280737121706,None,1331.2280321617436,None,1331.2280321617436,None,1331.7448474841658,None,1331.7448474841658,None,1331.7448474841658,None,f,0.20973722785129212,1331.7448474841658,None,sing33,001,2019_Nov_14_1304,ProdFawcett_Revision2019,3.2.4,59.97629204653933,
