StudyTrials.thisRepN,StudyTrials.thisTrialN,StudyTrials.thisN,StudyTrials.thisIndex,TestTrials.thisRepN,TestTrials.thisTrialN,TestTrials.thisN,TestTrials.thisIndex,textWelcome.started,textWelcome.stopped,keyWelcome.keys,keyWelcome.rt,keyWelcome.started,keyWelcome.stopped,textReady.started,textReady.stopped,keyReady.keys,keyReady.rt,keyReady.started,keyReady.stopped,polyback_2.started,polyback_2.stopped,studyPic,studyWord,studyType,studyN,studyOrder,polyback_3.started,polyback_3.stopped,studyPicChoice.started,studyPicChoice.stopped,polyback_4.started,polyback_4.stopped,polyback.started,polyback.stopped,studyWords.started,studyWords.stopped,getResearcher.started,getResearcher.stopped,kPress2.keys,kPress2.rt,kPress2.started,kPress2.stopped,testWord,testType,testN,testOrder,polyback_5.started,polyback_5.stopped,testWords.started,testWords.stopped,textScale.started,textScale.stopped,keyConf.keys,keyConf.rt,keyConf.started,keyConf.stopped,polyback_6.started,polyback_6.stopped,studyWords_2.started,studyWords_2.stopped,polyback_7.started,polyback_7.stopped,testWords_2.started,testWords_2.stopped,textScale_2.started,textScale_2.stopped,keyRKN.keys,keyRKN.rt,keyRKN.started,keyRKN.stopped,participant,session,date,expName,psychopyVersion,frameRate,
,,,,,,,,14.481299682776694,None,space,4816.766321142004,14.481299682776694,None,,,,,,,,,,,,,,,,,,,,,,,,,,,,,,,,,,,,,,,,,,,,,,,,,,,,,,,,,,sing11,001,2019_Oct_30_1608,ProdFawcett_Revision2019,3.2.4,59.88880507362226,
,,,,,,,,,,,,,,4831.2719599427755,None,space,9.270955091124051,4831.2719599427755,None,,,,,,,,,,,,,,,,,,,,,,,,,,,,,,,,,,,,,,,,,,,,,,,,,,,,sing11,001,2019_Oct_30_1608,ProdFawcett_Revision2019,3.2.4,59.88880507362226,
0,0,0,0,,,,,,,,,,,,,,,,,4845.359543447161,None,materials/readPic.jpg,comfort,A_silent,0,59,4841.724897057909,None,4841.724897057909,None,4842.609909498041,None,4842.864079119239,None,4842.864079119239,None,,,,,,,,,,,,,,,,,,,,,,,,,,,,,,,,,,,sing11,001,2019_Oct_30_1608,ProdFawcett_Revision2019,3.2.4,59.88880507362226,
1,0,1,0,,,,,,,,,,,,,,,,,4849.627692666542,None,materials/speakPic.jpg,murder,B_aloud,1,195,4845.947983765628,None,4845.947983765628,None,4846.8767923119985,None,4847.143522734341,None,4847.143522734341,None,,,,,,,,,,,,,,,,,,,,,,,,,,,,,,,,,,,sing11,001,2019_Oct_30_1608,ProdFawcett_Revision2019,3.2.4,59.88880507362226,
2,0,2,0,,,,,,,,,,,,,,,,,4853.89567829819,None,materials/speakPic.jpg,place,B_aloud,2,222,4850.194134477826,None,4850.194134477826,None,4851.144693972757,None,4851.411496547864,None,4851.411496547864,None,,,,,,,,,,,,,,,,,,,,,,,,,,,,,,,,,,,sing11,001,2019_Oct_30_1608,ProdFawcett_Revision2019,3.2.4,59.88880507362226,
3,0,3,0,,,,,,,,,,,,,,,,,4858.1470047272505,None,materials/speakPic.jpg,military,B_aloud,3,190,4854.4289932823285,None,4854.4289932823285,None,4855.413246563414,None,4855.679310194688,None,4855.679310194688,None,,,,,,,,,,,,,,,,,,,,,,,,,,,,,,,,,,,sing11,001,2019_Oct_30_1608,ProdFawcett_Revision2019,3.2.4,59.88880507362226,
4,0,4,0,,,,,,,,,,,,,,,,,4862.415092678983,None,materials/singPic.jpg,sight,C_sing,4,286,4858.881592025876,None,4858.881592025876,None,4859.664041176837,None,4859.914368663308,None,4859.914368663308,None,,,,,,,,,,,,,,,,,,,,,,,,,,,,,,,,,,,sing11,001,2019_Oct_30_1608,ProdFawcett_Revision2019,3.2.4,59.88880507362226,
5,0,5,0,,,,,,,,,,,,,,,,,4866.683023885053,None,materials/readPic.jpg,youth,A_silent,5,359,4863.000730546744,None,4863.000730546744,None,4863.931852024632,None,4864.19875380979,None,4864.19875380979,None,,,,,,,,,,,,,,,,,,,,,,,,,,,,,,,,,,,sing11,001,2019_Oct_30_1608,ProdFawcett_Revision2019,3.2.4,59.88880507362226,
6,0,6,0,,,,,,,,,,,,,,,,,4870.950969397276,None,materials/speakPic.jpg,clean,B_aloud,6,51,4867.273851153823,None,4867.273851153823,None,4868.200027679293,None,4868.453455557629,None,4868.453455557629,None,,,,,,,,,,,,,,,,,,,,,,,,,,,,,,,,,,,sing11,001,2019_Oct_30_1608,ProdFawcett_Revision2019,3.2.4,59.88880507362226,
7,0,7,0,,,,,,,,,,,,,,,,,4875.2189379237425,None,materials/speakPic.jpg,union,B_aloud,7,344,4871.485193133048,None,4871.485193133048,None,4872.468602351185,None,4872.734730671145,None,4872.734730671145,None,,,,,,,,,,,,,,,,,,,,,,,,,,,,,,,,,,,sing11,001,2019_Oct_30_1608,ProdFawcett_Revision2019,3.2.4,59.88880507362226,
8,0,8,0,,,,,,,,,,,,,,,,,4879.486728556323,None,materials/speakPic.jpg,treatment,B_aloud,8,339,4875.785510045406,None,4875.785510045406,None,4876.73599147851,None,4877.002920942962,None,4877.002920942962,None,,,,,,,,,,,,,,,,,,,,,,,,,,,,,,,,,,,sing11,001,2019_Oct_30_1608,ProdFawcett_Revision2019,3.2.4,59.88880507362226,
9,0,9,0,,,,,,,,,,,,,,,,,4883.755055669591,None,materials/singPic.jpg,plane,C_sing,9,223,4880.080454375817,None,4880.080454375817,None,4881.004025626672,None,4881.254236175903,None,4881.254236175903,None,,,,,,,,,,,,,,,,,,,,,,,,,,,,,,,,,,,sing11,001,2019_Oct_30_1608,ProdFawcett_Revision2019,3.2.4,59.88880507362226,
10,0,10,0,,,,,,,,,,,,,,,,,4888.022896684705,None,materials/readPic.jpg,personnel,A_silent,10,219,4884.3425225477395,None,4884.3425225477395,None,4885.272086210114,None,4885.538657087765,None,4885.538657087765,None,,,,,,,,,,,,,,,,,,,,,,,,,,,,,,,,,,,sing11,001,2019_Oct_30_1608,ProdFawcett_Revision2019,3.2.4,59.88880507362226,
11,0,11,0,,,,,,,,,,,,,,,,,4892.290944206009,None,materials/singPic.jpg,engineer,C_sing,11,114,4888.59477918766,None,4888.59477918766,None,4889.540367605897,None,4889.806676929776,None,4889.806676929776,None,,,,,,,,,,,,,,,,,,,,,,,,,,,,,,,,,,,sing11,001,2019_Oct_30_1608,ProdFawcett_Revision2019,3.2.4,59.88880507362226,
12,0,12,0,,,,,,,,,,,,,,,,,4896.558936990732,None,materials/speakPic.jpg,skill,B_aloud,12,289,4892.876263917397,None,4892.876263917397,None,4893.807787211545,None,4894.074646389252,None,4894.074646389252,None,,,,,,,,,,,,,,,,,,,,,,,,,,,,,,,,,,,sing11,001,2019_Oct_30_1608,ProdFawcett_Revision2019,3.2.4,59.88880507362226,
13,0,13,0,,,,,,,,,,,,,,,,,4900.826864464763,None,materials/readPic.jpg,front,A_silent,13,134,4897.161597312932,None,4897.161597312932,None,4898.075952914101,None,4898.327561423152,None,4898.327561423152,None,,,,,,,,,,,,,,,,,,,,,,,,,,,,,,,,,,,sing11,001,2019_Oct_30_1608,ProdFawcett_Revision2019,3.2.4,59.88880507362226,
14,0,14,0,,,,,,,,,,,,,,,,,4905.0952833240035,None,materials/speakPic.jpg,guest,B_aloud,14,146,4901.411864775767,None,4901.411864775767,None,4902.343870436027,None,4902.610637556758,None,4902.610637556758,None,,,,,,,,,,,,,,,,,,,,,,,,,,,,,,,,,,,sing11,001,2019_Oct_30_1608,ProdFawcett_Revision2019,3.2.4,59.88880507362226,
15,0,15,0,,,,,,,,,,,,,,,,,4909.362843503141,None,materials/speakPic.jpg,permit,B_aloud,15,218,4905.683548858618,None,4905.683548858618,None,4906.611912359272,None,4906.86180755116,None,4906.86180755116,None,,,,,,,,,,,,,,,,,,,,,,,,,,,,,,,,,,,sing11,001,2019_Oct_30_1608,ProdFawcett_Revision2019,3.2.4,59.88880507362226,
16,0,16,0,,,,,,,,,,,,,,,,,4913.630829756796,None,materials/readPic.jpg,strength,A_silent,16,310,4909.9491861043725,None,4909.9491861043725,None,4910.879710455931,None,4911.146592958886,None,4911.146592958886,None,,,,,,,,,,,,,,,,,,,,,,,,,,,,,,,,,,,sing11,001,2019_Oct_30_1608,ProdFawcett_Revision2019,3.2.4,59.88880507362226,
17,0,17,0,,,,,,,,,,,,,,,,,4917.898818498476,None,materials/singPic.jpg,style,C_sing,17,311,4914.238574671892,None,4914.238574671892,None,4915.147891397649,None,4915.414951172483,None,4915.414951172483,None,,,,,,,,,,,,,,,,,,,,,,,,,,,,,,,,,,,sing11,001,2019_Oct_30_1608,ProdFawcett_Revision2019,3.2.4,59.88880507362226,
18,0,18,0,,,,,,,,,,,,,,,,,4922.167316663556,None,materials/singPic.jpg,speech,C_sing,18,298,4918.4820153013625,None,4918.4820153013625,None,4919.41584997201,None,4919.682731541954,None,4919.682731541954,None,,,,,,,,,,,,,,,,,,,,,,,,,,,,,,,,,,,sing11,001,2019_Oct_30_1608,ProdFawcett_Revision2019,3.2.4,59.88880507362226,
19,0,19,0,,,,,,,,,,,,,,,,,4926.435104808111,None,materials/singPic.jpg,burden,C_sing,19,36,4922.7499433974,None,4922.7499433974,None,4923.6839226845805,None,4923.950619518567,None,4923.950619518567,None,,,,,,,,,,,,,,,,,,,,,,,,,,,,,,,,,,,sing11,001,2019_Oct_30_1608,ProdFawcett_Revision2019,3.2.4,59.88880507362226,
20,0,20,0,,,,,,,,,,,,,,,,,4930.702780680475,None,materials/speakPic.jpg,track,B_aloud,20,334,4927.003705915283,None,4927.003705915283,None,4927.952077191018,None,4928.207652236114,None,4928.207652236114,None,,,,,,,,,,,,,,,,,,,,,,,,,,,,,,,,,,,sing11,001,2019_Oct_30_1608,ProdFawcett_Revision2019,3.2.4,59.88880507362226,
21,0,21,0,,,,,,,,,,,,,,,,,4934.970770666169,None,materials/readPic.jpg,mechanical,A_silent,21,185,4931.304100267463,None,4931.304100267463,None,4932.219836412266,None,4932.486572432668,None,4932.486572432668,None,,,,,,,,,,,,,,,,,,,,,,,,,,,,,,,,,,,sing11,001,2019_Oct_30_1608,ProdFawcett_Revision2019,3.2.4,59.88880507362226,
22,0,22,0,,,,,,,,,,,,,,,,,4939.238767182932,None,materials/singPic.jpg,period,C_sing,22,217,4935.563364744667,None,4935.563364744667,None,4936.487963550414,None,4936.754554332276,None,4936.754554332276,None,,,,,,,,,,,,,,,,,,,,,,,,,,,,,,,,,,,sing11,001,2019_Oct_30_1608,ProdFawcett_Revision2019,3.2.4,59.88880507362226,
23,0,23,0,,,,,,,,,,,,,,,,,4943.506739130435,None,materials/singPic.jpg,broke,C_sing,23,32,4939.821903962182,None,4939.821903962182,None,4940.755821359707,None,4941.006119922871,None,4941.006119922871,None,,,,,,,,,,,,,,,,,,,,,,,,,,,,,,,,,,,sing11,001,2019_Oct_30_1608,ProdFawcett_Revision2019,3.2.4,59.88880507362226,
24,0,24,0,,,,,,,,,,,,,,,,,4947.774852273435,None,materials/readPic.jpg,shear,A_silent,24,283,4944.10850749518,None,4944.10850749518,None,4945.023837469677,None,4945.290541456739,None,4945.290541456739,None,,,,,,,,,,,,,,,,,,,,,,,,,,,,,,,,,,,sing11,001,2019_Oct_30_1608,ProdFawcett_Revision2019,3.2.4,59.88880507362226,
25,0,25,0,,,,,,,,,,,,,,,,,4952.042730919948,None,materials/speakPic.jpg,appeal,B_aloud,25,9,4948.376539466319,None,4948.376539466319,None,4949.291786402936,None,4949.541688125894,None,4949.541688125894,None,,,,,,,,,,,,,,,,,,,,,,,,,,,,,,,,,,,sing11,001,2019_Oct_30_1608,ProdFawcett_Revision2019,3.2.4,59.88880507362226,
26,0,26,0,,,,,,,,,,,,,,,,,4956.310817627667,None,materials/singPic.jpg,narrow,C_sing,26,197,4952.647471232195,None,4952.647471232195,None,4953.559689307707,None,4953.826516763078,None,4953.826516763078,None,,,,,,,,,,,,,,,,,,,,,,,,,,,,,,,,,,,sing11,001,2019_Oct_30_1608,ProdFawcett_Revision2019,3.2.4,59.88880507362226,
27,0,27,0,,,,,,,,,,,,,,,,,4960.5789565839395,None,materials/speakPic.jpg,swift,B_aloud,27,320,4956.865998009579,None,4956.865998009579,None,4957.827744915096,None,4958.094418734839,None,4958.094418734839,None,,,,,,,,,,,,,,,,,,,,,,,,,,,,,,,,,,,sing11,001,2019_Oct_30_1608,ProdFawcett_Revision2019,3.2.4,59.88880507362226,
28,0,28,0,,,,,,,,,,,,,,,,,4964.846689058904,None,materials/singPic.jpg,death,C_sing,28,86,4961.21686322075,None,4961.21686322075,None,4962.095755427008,None,4962.346345400261,None,4962.346345400261,None,,,,,,,,,,,,,,,,,,,,,,,,,,,,,,,,,,,sing11,001,2019_Oct_30_1608,ProdFawcett_Revision2019,3.2.4,59.88880507362226,
29,0,29,0,,,,,,,,,,,,,,,,,4969.114781675686,None,materials/singPic.jpg,collection,C_sing,29,54,4965.430673633141,None,4965.430673633141,None,4966.363670460907,None,4966.630484232133,None,4966.630484232133,None,,,,,,,,,,,,,,,,,,,,,,,,,,,,,,,,,,,sing11,001,2019_Oct_30_1608,ProdFawcett_Revision2019,3.2.4,59.88880507362226,
30,0,30,0,,,,,,,,,,,,,,,,,4973.382590968465,None,materials/speakPic.jpg,series,B_aloud,30,279,4969.685175094856,None,4969.685175094856,None,4970.631941593581,None,4970.898422902283,None,4970.898422902283,None,,,,,,,,,,,,,,,,,,,,,,,,,,,,,,,,,,,sing11,001,2019_Oct_30_1608,ProdFawcett_Revision2019,3.2.4,59.88880507362226,
31,0,31,0,,,,,,,,,,,,,,,,,4977.650639422778,None,materials/readPic.jpg,running,A_silent,31,268,4973.986996641164,None,4973.986996641164,None,4974.899716987,None,4975.166775828824,None,4975.166775828824,None,,,,,,,,,,,,,,,,,,,,,,,,,,,,,,,,,,,sing11,001,2019_Oct_30_1608,ProdFawcett_Revision2019,3.2.4,59.88880507362226,
32,0,32,0,,,,,,,,,,,,,,,,,4981.918890029235,None,materials/speakPic.jpg,corner,B_aloud,32,69,4978.235499782298,None,4978.235499782298,None,4979.167702929652,None,4979.434462586303,None,4979.434462586303,None,,,,,,,,,,,,,,,,,,,,,,,,,,,,,,,,,,,sing11,001,2019_Oct_30_1608,ProdFawcett_Revision2019,3.2.4,59.88880507362226,
33,0,33,0,,,,,,,,,,,,,,,,,4986.1866246812215,None,materials/singPic.jpg,second,C_sing,33,278,4982.525608633452,None,4982.525608633452,None,4983.4357097095235,None,4983.686109659762,None,4983.686109659762,None,,,,,,,,,,,,,,,,,,,,,,,,,,,,,,,,,,,sing11,001,2019_Oct_30_1608,ProdFawcett_Revision2019,3.2.4,59.88880507362226,
34,0,34,0,,,,,,,,,,,,,,,,,4990.454627729054,None,materials/readPic.jpg,report,A_silent,34,259,4986.779359022205,None,4986.779359022205,None,4987.7040125645335,None,4987.970437581638,None,4987.970437581638,None,,,,,,,,,,,,,,,,,,,,,,,,,,,,,,,,,,,sing11,001,2019_Oct_30_1608,ProdFawcett_Revision2019,3.2.4,59.88880507362226,
35,0,35,0,,,,,,,,,,,,,,,,,4994.7225807053555,None,materials/singPic.jpg,throw,C_sing,35,330,4991.0734770168565,None,4991.0734770168565,None,4991.971702743049,None,4992.224941220377,None,4992.224941220377,None,,,,,,,,,,,,,,,,,,,,,,,,,,,,,,,,,,,sing11,001,2019_Oct_30_1608,ProdFawcett_Revision2019,3.2.4,59.88880507362226,
36,0,36,0,,,,,,,,,,,,,,,,,4998.990575978106,None,materials/singPic.jpg,solution,C_sing,36,294,4995.3059616221935,None,4995.3059616221935,None,4996.23975088636,None,4996.506453318405,None,4996.506453318405,None,,,,,,,,,,,,,,,,,,,,,,,,,,,,,,,,,,,sing11,001,2019_Oct_30_1608,ProdFawcett_Revision2019,3.2.4,59.88880507362226,
37,0,37,0,,,,,,,,,,,,,,,,,5003.258558188717,None,materials/singPic.jpg,silence,C_sing,37,288,4999.573731728557,None,4999.573731728557,None,5000.507854077254,None,5000.774405361697,None,5000.774405361697,None,,,,,,,,,,,,,,,,,,,,,,,,,,,,,,,,,,,sing11,001,2019_Oct_30_1608,ProdFawcett_Revision2019,3.2.4,59.88880507362226,
38,0,38,0,,,,,,,,,,,,,,,,,5007.526550973441,None,materials/singPic.jpg,community,C_sing,38,63,5003.842630776887,None,5003.842630776887,None,5004.775715307583,None,5005.042782235492,None,5005.042782235492,None,,,,,,,,,,,,,,,,,,,,,,,,,,,,,,,,,,,sing11,001,2019_Oct_30_1608,ProdFawcett_Revision2019,3.2.4,59.88880507362226,
39,0,39,0,,,,,,,,,,,,,,,,,5011.794676556572,None,materials/readPic.jpg,write,A_silent,39,358,5008.0948451203585,None,5008.0948451203585,None,5009.043644958637,None,5009.310380357032,None,5009.310380357032,None,,,,,,,,,,,,,,,,,,,,,,,,,,,,,,,,,,,sing11,001,2019_Oct_30_1608,ProdFawcett_Revision2019,3.2.4,59.88880507362226,
40,0,40,0,,,,,,,,,,,,,,,,,5016.06251601667,None,materials/speakPic.jpg,command,B_aloud,40,60,5012.381871928843,None,5012.381871928843,None,5013.312390060335,None,5013.578379361821,None,5013.578379361821,None,,,,,,,,,,,,,,,,,,,,,,,,,,,,,,,,,,,sing11,001,2019_Oct_30_1608,ProdFawcett_Revision2019,3.2.4,59.88880507362226,
41,0,41,0,,,,,,,,,,,,,,,,,5020.330896000498,None,materials/readPic.jpg,resistance,A_silent,41,262,5016.663806058345,None,5016.663806058345,None,5017.579957081545,None,5017.846356907384,None,5017.846356907384,None,,,,,,,,,,,,,,,,,,,,,,,,,,,,,,,,,,,sing11,001,2019_Oct_30_1608,ProdFawcett_Revision2019,3.2.4,59.88880507362226,
42,0,42,0,,,,,,,,,,,,,,,,,5024.598524289358,None,materials/speakPic.jpg,ground,B_aloud,42,142,5020.967785345525,None,5020.967785345525,None,5021.8476164707345,None,5022.114348448094,None,5022.114348448094,None,,,,,,,,,,,,,,,,,,,,,,,,,,,,,,,,,,,sing11,001,2019_Oct_30_1608,ProdFawcett_Revision2019,3.2.4,59.88880507362226,
43,0,43,0,,,,,,,,,,,,,,,,,5028.866520184114,None,materials/speakPic.jpg,shape,B_aloud,43,282,5025.165428873546,None,5025.165428873546,None,5026.115596815326,None,5026.382529389812,None,5026.382529389812,None,,,,,,,,,,,,,,,,,,,,,,,,,,,,,,,,,,,sing11,001,2019_Oct_30_1608,ProdFawcett_Revision2019,3.2.4,59.88880507362226,
44,0,44,0,,,,,,,,,,,,,,,,,5033.134513901848,None,materials/readPic.jpg,couch,A_silent,44,70,5029.4581411332965,None,5029.4581411332965,None,5030.383555078684,None,5030.6503150463395,None,5030.6503150463395,None,,,,,,,,,,,,,,,,,,,,,,,,,,,,,,,,,,,sing11,001,2019_Oct_30_1608,ProdFawcett_Revision2019,3.2.4,59.88880507362226,
45,0,45,0,,,,,,,,,,,,,,,,,5037.402409031536,None,materials/speakPic.jpg,recall,B_aloud,45,255,5033.726412576973,None,5033.726412576973,None,5034.651546930398,None,5034.918201778939,None,5034.918201778939,None,,,,,,,,,,,,,,,,,,,,,,,,,,,,,,,,,,,sing11,001,2019_Oct_30_1608,ProdFawcett_Revision2019,3.2.4,59.88880507362226,
46,0,46,0,,,,,,,,,,,,,,,,,5041.670500715308,None,materials/readPic.jpg,phrase,A_silent,46,220,5038.003870125023,None,5038.003870125023,None,5038.920432605586,None,5039.170582509175,None,5039.170582509175,None,,,,,,,,,,,,,,,,,,,,,,,,,,,,,,,,,,,sing11,001,2019_Oct_30_1608,ProdFawcett_Revision2019,3.2.4,59.88880507362226,
47,0,47,0,,,,,,,,,,,,,,,,,5045.938771225975,None,materials/readPic.jpg,grade,A_silent,47,140,5042.244460720284,None,5042.244460720284,None,5043.1879896746905,None,5043.45429526653,None,5043.45429526653,None,,,,,,,,,,,,,,,,,,,,,,,,,,,,,,,,,,,sing11,001,2019_Oct_30_1608,ProdFawcett_Revision2019,3.2.4,59.88880507362226,
48,0,48,0,,,,,,,,,,,,,,,,,5050.206473844623,None,materials/speakPic.jpg,charter,B_aloud,48,47,5046.5258729862535,None,5046.5258729862535,None,5047.455545810786,None,5047.722260993966,None,5047.722260993966,None,,,,,,,,,,,,,,,,,,,,,,,,,,,,,,,,,,,sing11,001,2019_Oct_30_1608,ProdFawcett_Revision2019,3.2.4,59.88880507362226,
49,0,49,0,,,,,,,,,,,,,,,,,5054.475086458917,None,materials/speakPic.jpg,shock,B_aloud,49,284,5050.789597872737,None,5050.789597872737,None,5051.72347639485,None,5051.9902606207625,None,5051.9902606207625,None,,,,,,,,,,,,,,,,,,,,,,,,,,,,,,,,,,,sing11,001,2019_Oct_30_1608,ProdFawcett_Revision2019,3.2.4,59.88880507362226,
50,0,50,0,,,,,,,,,,,,,,,,,5058.7424578590535,None,materials/speakPic.jpg,suspect,B_aloud,50,318,5055.013914287491,None,5055.013914287491,None,5055.991534801269,None,5056.258246563414,None,5056.258246563414,None,,,,,,,,,,,,,,,,,,,,,,,,,,,,,,,,,,,sing11,001,2019_Oct_30_1608,ProdFawcett_Revision2019,3.2.4,59.88880507362226,
51,0,51,0,,,,,,,,,,,,,,,,,5063.010445978727,None,materials/readPic.jpg,dozen,A_silent,51,102,5059.334081607265,None,5059.334081607265,None,5060.259564595385,None,5060.526529514213,None,5060.526529514213,None,,,,,,,,,,,,,,,,,,,,,,,,,,,,,,,,,,,sing11,001,2019_Oct_30_1608,ProdFawcett_Revision2019,3.2.4,59.88880507362226,
52,0,52,0,,,,,,,,,,,,,,,,,5067.278263046588,None,materials/singPic.jpg,message,C_sing,52,189,5063.616351309324,None,5063.616351309324,None,5064.527512595634,None,5064.794229644835,None,5064.794229644835,None,,,,,,,,,,,,,,,,,,,,,,,,,,,,,,,,,,,sing11,001,2019_Oct_30_1608,ProdFawcett_Revision2019,3.2.4,59.88880507362226,
53,0,53,0,,,,,,,,,,,,,,,,,5071.546419108043,None,materials/readPic.jpg,month,A_silent,53,193,5067.88079616844,None,5067.88079616844,None,5068.795526217578,None,5069.049561796355,None,5069.049561796355,None,,,,,,,,,,,,,,,,,,,,,,,,,,,,,,,,,,,sing11,001,2019_Oct_30_1608,ProdFawcett_Revision2019,3.2.4,59.88880507362226,
54,0,54,0,,,,,,,,,,,,,,,,,5075.814448902159,None,materials/singPic.jpg,entrance,C_sing,54,115,5072.1485846239975,None,5072.1485846239975,None,5073.063515581265,None,5073.3302130372585,None,5073.3302130372585,None,,,,,,,,,,,,,,,,,,,,,,,,,,,,,,,,,,,sing11,001,2019_Oct_30_1608,ProdFawcett_Revision2019,3.2.4,59.88880507362226,
55,0,55,0,,,,,,,,,,,,,,,,,5080.082393170368,None,materials/singPic.jpg,universal,C_sing,55,345,5076.397542140947,None,5076.397542140947,None,5077.331477576662,None,5077.598194936866,None,5077.598194936866,None,,,,,,,,,,,,,,,,,,,,,,,,,,,,,,,,,,,sing11,001,2019_Oct_30_1608,ProdFawcett_Revision2019,3.2.4,59.88880507362226,
56,0,56,0,,,,,,,,,,,,,,,,,5084.350631647696,None,materials/speakPic.jpg,degree,B_aloud,56,89,5080.65793680413,None,5080.65793680413,None,5081.599471916403,None,5081.86621788891,None,5081.86621788891,None,,,,,,,,,,,,,,,,,,,,,,,,,,,,,,,,,,,sing11,001,2019_Oct_30_1608,ProdFawcett_Revision2019,3.2.4,59.88880507362226,
57,0,57,0,,,,,,,,,,,,,,,,,5088.618375629781,None,materials/readPic.jpg,distance,A_silent,57,100,5084.973080798657,None,5084.973080798657,None,5085.867534365864,None,5086.118470174784,None,5086.118470174784,None,,,,,,,,,,,,,,,,,,,,,,,,,,,,,,,,,,,sing11,001,2019_Oct_30_1608,ProdFawcett_Revision2019,3.2.4,59.88880507362226,
58,0,58,0,,,,,,,,,,,,,,,,,5092.886425328109,None,materials/speakPic.jpg,bureau,B_aloud,58,37,5089.207696709585,None,5089.207696709585,None,5090.135760092057,None,5090.402151520806,None,5090.402151520806,None,,,,,,,,,,,,,,,,,,,,,,,,,,,,,,,,,,,sing11,001,2019_Oct_30_1608,ProdFawcett_Revision2019,3.2.4,59.88880507362226,
59,0,59,0,,,,,,,,,,,,,,,,,5097.1543988306275,None,materials/readPic.jpg,volume,A_silent,59,349,5093.487602475587,None,5093.487602475587,None,5094.404141630902,None,5094.656234061081,None,5094.656234061081,None,,,,,,,,,,,,,,,,,,,,,,,,,,,,,,,,,,,sing11,001,2019_Oct_30_1608,ProdFawcett_Revision2019,3.2.4,59.88880507362226,
60,0,60,0,,,,,,,,,,,,,,,,,5101.4223390557945,None,materials/readPic.jpg,weight,A_silent,60,353,5097.707640417989,None,5097.707640417989,None,5098.671438390247,None,5098.921402313865,None,5098.921402313865,None,,,,,,,,,,,,,,,,,,,,,,,,,,,,,,,,,,,sing11,001,2019_Oct_30_1608,ProdFawcett_Revision2019,3.2.4,59.88880507362226,
61,0,61,0,,,,,,,,,,,,,,,,,5105.69040088325,None,materials/singPic.jpg,match,C_sing,61,181,5102.023807613361,None,5102.023807613361,None,5102.940065932699,None,5103.206170616409,None,5103.206170616409,None,,,,,,,,,,,,,,,,,,,,,,,,,,,,,,,,,,,sing11,001,2019_Oct_30_1608,ProdFawcett_Revision2019,3.2.4,59.88880507362226,
62,0,62,0,,,,,,,,,,,,,,,,,5109.958337998383,None,materials/singPic.jpg,passage,C_sing,62,212,5106.273432232382,None,5106.273432232382,None,5107.207472165205,None,5107.474122037694,None,5107.474122037694,None,,,,,,,,,,,,,,,,,,,,,,,,,,,,,,,,,,,sing11,001,2019_Oct_30_1608,ProdFawcett_Revision2019,3.2.4,59.88880507362226,
63,0,63,0,,,,,,,,,,,,,,,,,5114.2260555451885,None,materials/speakPic.jpg,state,B_aloud,63,303,5110.5440840952915,None,5110.5440840952915,None,5111.475590906264,None,5111.742133482615,None,5111.742133482615,None,,,,,,,,,,,,,,,,,,,,,,,,,,,,,,,,,,,sing11,001,2019_Oct_30_1608,ProdFawcett_Revision2019,3.2.4,59.88880507362226,
64,0,64,0,,,,,,,,,,,,,,,,,5118.494432729987,None,materials/singPic.jpg,payment,C_sing,64,215,5114.833264912609,None,5114.833264912609,None,5115.743386203894,None,5115.993268022641,None,5115.993268022641,None,,,,,,,,,,,,,,,,,,,,,,,,,,,,,,,,,,,sing11,001,2019_Oct_30_1608,ProdFawcett_Revision2019,3.2.4,59.88880507362226,
65,0,65,0,,,,,,,,,,,,,,,,,5122.762618025751,None,materials/singPic.jpg,strain,C_sing,65,308,5119.044165267152,None,5119.044165267152,None,5120.011356907384,None,5120.27807457859,None,5120.27807457859,None,,,,,,,,,,,,,,,,,,,,,,,,,,,,,,,,,,,sing11,001,2019_Oct_30_1608,ProdFawcett_Revision2019,3.2.4,59.88880507362226,
66,0,66,0,,,,,,,,,,,,,,,,,5127.0302500466505,None,materials/singPic.jpg,pancakes,C_sing,66,210,5123.345959445171,None,5123.345959445171,None,5124.279450146172,None,5124.531297194751,None,5124.531297194751,None,,,,,,,,,,,,,,,,,,,,,,,,,,,,,,,,,,,sing11,001,2019_Oct_30_1608,ProdFawcett_Revision2019,3.2.4,59.88880507362226,
67,0,67,0,,,,,,,,,,,,,,,,,5131.298287926852,None,materials/readPic.jpg,brief,A_silent,67,28,5127.621423151086,None,5127.621423151086,None,5128.547170492007,None,5128.814019095603,None,5128.814019095603,None,,,,,,,,,,,,,,,,,,,,,,,,,,,,,,,,,,,sing11,001,2019_Oct_30_1608,ProdFawcett_Revision2019,3.2.4,59.88880507362226,
68,0,68,0,,,,,,,,,,,,,,,,,5135.56658207377,None,materials/readPic.jpg,fellow,A_silent,68,126,5131.882021521428,None,5131.882021521428,None,5132.815365739877,None,5133.072140324688,None,5133.072140324688,None,,,,,,,,,,,,,,,,,,,,,,,,,,,,,,,,,,,sing11,001,2019_Oct_30_1608,ProdFawcett_Revision2019,3.2.4,59.88880507362226,
69,0,69,0,,,,,,,,,,,,,,,,,5139.834159358089,None,materials/singPic.jpg,crime,C_sing,69,78,5136.175454375816,None,5136.175454375816,None,5137.083116875039,None,5137.350075884805,None,5137.350075884805,None,,,,,,,,,,,,,,,,,,,,,,,,,,,,,,,,,,,sing11,001,2019_Oct_30_1608,ProdFawcett_Revision2019,3.2.4,59.88880507362226,
70,0,70,0,,,,,,,,,,,,,,,,,5144.102569198234,None,materials/speakPic.jpg,beauty,B_aloud,70,18,5140.408892206257,None,5140.408892206257,None,5141.351143248118,None,5141.61802730609,None,5141.61802730609,None,,,,,,,,,,,,,,,,,,,,,,,,,,,,,,,,,,,sing11,001,2019_Oct_30_1608,ProdFawcett_Revision2019,3.2.4,59.88880507362226,
71,0,71,0,,,,,,,,,,,,,,,,,5148.370191267028,None,materials/singPic.jpg,review,C_sing,71,263,5144.7201713628165,None,5144.7201713628165,None,5145.619615288922,None,5145.876082602475,None,5145.876082602475,None,,,,,,,,,,,,,,,,,,,,,,,,,,,,,,,,,,,sing11,001,2019_Oct_30_1608,ProdFawcett_Revision2019,3.2.4,59.88880507362226,
72,0,72,0,,,,,,,,,,,,,,,,,5152.638212664055,None,materials/readPic.jpg,agreement,A_silent,72,5,5148.973234745288,None,5148.973234745288,None,5149.887412452572,None,5150.154214094669,None,5150.154214094669,None,,,,,,,,,,,,,,,,,,,,,,,,,,,,,,,,,,,sing11,001,2019_Oct_30_1608,ProdFawcett_Revision2019,3.2.4,59.88880507362226,
73,0,73,0,,,,,,,,,,,,,,,,,5156.906205137775,None,materials/readPic.jpg,gesture,A_silent,73,137,5153.195925545811,None,5153.195925545811,None,5154.155288300056,None,5154.406847670585,None,5154.406847670585,None,,,,,,,,,,,,,,,,,,,,,,,,,,,,,,,,,,,sing11,001,2019_Oct_30_1608,ProdFawcett_Revision2019,3.2.4,59.88880507362226,
74,0,74,0,,,,,,,,,,,,,,,,,5161.174476270448,None,materials/readPic.jpg,relation,A_silent,74,257,5157.458096037818,None,5157.458096037818,None,5158.423361634634,None,5158.689930335262,None,5158.689930335262,None,,,,,,,,,,,,,,,,,,,,,,,,,,,,,,,,,,,sing11,001,2019_Oct_30_1608,ProdFawcett_Revision2019,3.2.4,59.88880507362226,
75,0,75,0,,,,,,,,,,,,,,,,,5165.442171114014,None,materials/readPic.jpg,production,A_silent,75,240,5161.759223735772,None,5161.759223735772,None,5162.691291285688,None,5162.957965416434,None,5162.957965416434,None,,,,,,,,,,,,,,,,,,,,,,,,,,,,,,,,,,,sing11,001,2019_Oct_30_1608,ProdFawcett_Revision2019,3.2.4,59.88880507362226,
76,0,76,0,,,,,,,,,,,,,,,,,5169.710157678672,None,materials/singPic.jpg,straight,C_sing,76,307,5166.04413012378,None,5166.04413012378,None,5166.959473471419,None,5167.225999875599,None,5167.225999875599,None,,,,,,,,,,,,,,,,,,,,,,,,,,,,,,,,,,,sing11,001,2019_Oct_30_1608,ProdFawcett_Revision2019,3.2.4,59.88880507362226,
77,0,77,0,,,,,,,,,,,,,,,,,5173.978163836537,None,materials/speakPic.jpg,executive,B_aloud,77,122,5170.299803445917,None,5170.299803445917,None,5171.227079990048,None,5171.493938856752,None,5171.493938856752,None,,,,,,,,,,,,,,,,,,,,,,,,,,,,,,,,,,,sing11,001,2019_Oct_30_1608,ProdFawcett_Revision2019,3.2.4,59.88880507362226,
78,0,78,0,,,,,,,,,,,,,,,,,5178.24601604777,None,materials/singPic.jpg,subject,C_sing,78,312,5174.59673011134,None,5174.59673011134,None,5175.49526124277,None,5175.763067736518,None,5175.763067736518,None,,,,,,,,,,,,,,,,,,,,,,,,,,,,,,,,,,,sing11,001,2019_Oct_30_1608,ProdFawcett_Revision2019,3.2.4,59.88880507362226,
79,0,79,0,,,,,,,,,,,,,,,,,5182.514063258071,None,materials/singPic.jpg,company,C_sing,79,64,5178.831395471792,None,5178.831395471792,None,5179.763248429434,None,5180.030128133359,None,5180.030128133359,None,,,,,,,,,,,,,,,,,,,,,,,,,,,,,,,,,,,sing11,001,2019_Oct_30_1608,ProdFawcett_Revision2019,3.2.4,59.88880507362226,
80,0,80,0,,,,,,,,,,,,,,,,,5186.782488959383,None,materials/speakPic.jpg,short,B_aloud,80,285,5183.099818374075,None,5183.099818374075,None,5184.0312272190085,None,5184.297918454936,None,5184.297918454936,None,,,,,,,,,,,,,,,,,,,,,,,,,,,,,,,,,,,sing11,001,2019_Oct_30_1608,ProdFawcett_Revision2019,3.2.4,59.88880507362226,
81,0,81,0,,,,,,,,,,,,,,,,,5191.050225788394,None,materials/singPic.jpg,welcome,C_sing,81,354,5187.38339055794,None,5187.38339055794,None,5188.2994327299875,None,5188.566249611246,None,5188.566249611246,None,,,,,,,,,,,,,,,,,,,,,,,,,,,,,,,,,,,sing11,001,2019_Oct_30_1608,ProdFawcett_Revision2019,3.2.4,59.88880507362226,
82,0,82,0,,,,,,,,,,,,,,,,,5195.3180870187225,None,materials/readPic.jpg,harmony,A_silent,82,148,5191.619132300802,None,5191.619132300802,None,5192.567163960938,None,5192.833837158674,None,5192.833837158674,None,,,,,,,,,,,,,,,,,,,,,,,,,,,,,,,,,,,sing11,001,2019_Oct_30_1608,ProdFawcett_Revision2019,3.2.4,59.88880507362226,
83,0,83,0,,,,,,,,,,,,,,,,,5199.58607824843,None,materials/readPic.jpg,colonel,A_silent,83,55,5195.884522920943,None,5195.884522920943,None,5196.8352733718975,None,5197.101842383529,None,5197.101842383529,None,,,,,,,,,,,,,,,,,,,,,,,,,,,,,,,,,,,sing11,001,2019_Oct_30_1608,ProdFawcett_Revision2019,3.2.4,59.88880507362226,
84,0,84,0,,,,,,,,,,,,,,,,,5203.854038999813,None,materials/speakPic.jpg,husband,B_aloud,84,156,5200.17153106923,None,5200.17153106923,None,5201.103399577036,None,5201.353024818063,None,5201.353024818063,None,,,,,,,,,,,,,,,,,,,,,,,,,,,,,,,,,,,sing11,001,2019_Oct_30_1608,ProdFawcett_Revision2019,3.2.4,59.88880507362226,
85,0,85,0,,,,,,,,,,,,,,,,,5208.105343658643,None,materials/readPic.jpg,member,A_silent,85,188,5204.42203396156,None,5204.42203396156,None,5205.371163774336,None,5205.637855010264,None,5205.637855010264,None,,,,,,,,,,,,,,,,,,,,,,,,,,,,,,,,,,,sing11,001,2019_Oct_30_1608,ProdFawcett_Revision2019,3.2.4,59.88880507362226,
86,0,86,0,,,,,,,,,,,,,,,,,5212.373468930771,None,materials/readPic.jpg,crowd,A_silent,86,81,5208.688513404242,None,5208.688513404242,None,5209.622422715681,None,5209.889454189214,None,5209.889454189214,None,,,,,,,,,,,,,,,,,,,,,,,,,,,,,,,,,,,sing11,001,2019_Oct_30_1608,ProdFawcett_Revision2019,3.2.4,59.88880507362226,
87,0,87,0,,,,,,,,,,,,,,,,,5216.641183989551,None,materials/readPic.jpg,institute,A_silent,87,162,5212.945533992661,None,5212.945533992661,None,5213.89075947005,None,5214.147678360391,None,5214.147678360391,None,,,,,,,,,,,,,,,,,,,,,,,,,,,,,,,,,,,sing11,001,2019_Oct_30_1608,ProdFawcett_Revision2019,3.2.4,59.88880507362226,
88,0,88,0,,,,,,,,,,,,,,,,,5220.909310816694,None,materials/speakPic.jpg,territory,B_aloud,88,324,5217.215557317908,None,5217.215557317908,None,5218.158399888039,None,5218.425083348884,None,5218.425083348884,None,,,,,,,,,,,,,,,,,,,,,,,,,,,,,,,,,,,sing11,001,2019_Oct_30_1608,ProdFawcett_Revision2019,3.2.4,59.88880507362226,
89,0,89,0,,,,,,,,,,,,,,,,,5225.177338744791,None,materials/speakPic.jpg,employment,B_aloud,89,111,5221.479040865834,None,5221.479040865834,None,5222.4263444672515,None,5222.693105367917,None,5222.693105367917,None,,,,,,,,,,,,,,,,,,,,,,,,,,,,,,,,,,,sing11,001,2019_Oct_30_1608,ProdFawcett_Revision2019,3.2.4,59.88880507362226,
,,,,,,,,,,,,,,,,,,,,,,,,,,,,,,,,,,,,,5225.677643217018,None,k,96.87748305031982,5225.677643217018,None,,,,,,,,,,,,,,,,,,,,,,,,,,,,,sing11,001,2019_Oct_30_1608,ProdFawcett_Revision2019,3.2.4,59.88880507362226,
,,,,,,,,,,,,,,5322.574463830317,None,space,3.516703676058569,5322.574463830317,None,,,,,,,,,,,,,,,,,,,,,,,,,,,,,,,,,,,,,,,,,,,,,,,,,,,,sing11,001,2019_Oct_30_1608,ProdFawcett_Revision2019,3.2.4,59.88880507362226,
,,,,0,0,0,0,,,,,,,,,,,,,5342.853131803197,None,,,,,,,,,,,,,,,,,,,,,,short,B_aloud,0,285,5326.62921316166,None,5326.62921316166,None,5326.62921316166,None,4,6.093165080549625,5326.62921316166,None,5332.765219257324,None,5332.765219257324,None,5333.295358586801,None,5333.295358586801,None,5333.295358586801,None,f,9.522395347390557,5333.295358586801,None,sing11,001,2019_Oct_30_1608,ProdFawcett_Revision2019,3.2.4,59.88880507362226,
,,,,1,0,1,0,,,,,,,,,,,,,5348.7990023014245,None,,,,,,,,,,,,,,,,,,,,,,community,C_sing,1,63,5343.38135286434,None,5343.38135286434,None,5343.38135286434,None,6,2.7410857125087205,5343.38135286434,None,5346.181283199602,None,5346.181283199602,None,5346.698181874728,None,5346.698181874728,None,5346.698181874728,None,r,2.063162281519908,5346.698181874728,None,sing11,001,2019_Oct_30_1608,ProdFawcett_Revision2019,3.2.4,59.88880507362226,
,,,,2,0,2,0,,,,,,,,,,,,,5353.700218324315,None,,,,,,,,,,,,,,,,,,,,,,music,D_new,2,196,5349.300961000186,None,5349.300961000186,None,5349.300961000186,None,6,2.7730434782615703,5349.300961000186,None,5352.133312496113,None,5352.133312496113,None,5352.649896746906,None,5352.649896746906,None,5352.649896746906,None,r,1.0153747589720297,5352.649896746906,None,sing11,001,2019_Oct_30_1608,ProdFawcett_Revision2019,3.2.4,59.88880507362226,
,,,,3,0,3,0,,,,,,,,,,,,,5359.8521334826155,None,,,,,,,,,,,,,,,,,,,,,,member,A_silent,3,188,5354.217125707532,None,5354.217125707532,None,5354.217125707532,None,2,2.840351433725118,5354.217125707532,None,5357.118068358524,None,5357.118068358524,None,5357.63488586179,None,5357.63488586179,None,5357.63488586179,None,f,2.1746277290540093,5357.63488586179,None,sing11,001,2019_Oct_30_1608,ProdFawcett_Revision2019,3.2.4,59.88880507362226,
,,,,4,0,4,0,,,,,,,,,,,,,5365.187217142502,None,,,,,,,,,,,,,,,,,,,,,,crowd,A_silent,4,81,5360.368967469055,None,5360.368967469055,None,5360.368967469055,None,4,2.7514150650004012,5360.368967469055,None,5363.157897617715,None,5363.157897617715,None,5363.670585308205,None,5363.670585308205,None,5363.670585308205,None,f,1.4822239845734657,5363.670585308205,None,sing11,001,2019_Oct_30_1608,ProdFawcett_Revision2019,3.2.4,59.88880507362226,
,,,,5,0,5,0,,,,,,,,,,,,,5369.771843316539,None,,,,,,,,,,,,,,,,,,,,,,speech,C_sing,5,298,5365.704052683958,None,5365.704052683958,None,5365.704052683958,None,6,2.120207439198566,5365.704052683958,None,5367.88793960316,None,5367.88793960316,None,5368.404849163401,None,5368.404849163401,None,5368.404849163401,None,r,1.3241929464447821,5368.404849163401,None,sing11,001,2019_Oct_30_1608,ProdFawcett_Revision2019,3.2.4,59.88880507362226,
,,,,6,0,6,0,,,,,,,,,,,,,5374.506849536605,None,,,,,,,,,,,,,,,,,,,,,,direction,D_new,6,94,5370.288699384214,None,5370.288699384214,None,5370.288699384214,None,4,2.576124276916744,5370.288699384214,None,5372.9082201281335,None,5372.9082201281335,None,5373.407524724762,None,5373.407524724762,None,5373.407524724762,None,f,1.0566402313861545,5373.407524724762,None,sing11,001,2019_Oct_30_1608,ProdFawcett_Revision2019,3.2.4,59.88880507362226,
,,,,7,0,7,0,,,,,,,,,,,,,5382.876015425763,None,,,,,,,,,,,,,,,,,,,,,,opening,D_new,7,205,5375.024270386266,None,5375.024270386266,None,5375.024270386266,None,1,4.24723269266633,5375.024270386266,None,5379.308143932326,None,5379.308143932326,None,5379.809153449027,None,5379.809153449027,None,5379.809153449027,None,f,3.0302702618646435,5379.809153449027,None,sing11,001,2019_Oct_30_1608,ProdFawcett_Revision2019,3.2.4,59.88880507362226,
,,,,8,0,8,0,,,,,,,,,,,,,5388.060901287554,None,,,,,,,,,,,,,,,,,,,,,,column,D_new,8,57,5383.376062387261,None,5383.376062387261,None,5383.376062387261,None,1,2.8953794240214847,5383.376062387261,None,5386.29994992847,None,5386.29994992847,None,5386.827408409529,None,5386.827408409529,None,5386.827408409529,None,n,1.1876805374131436,5386.827408409529,None,sing11,001,2019_Oct_30_1608,ProdFawcett_Revision2019,3.2.4,59.88880507362226,
,,,,9,0,9,0,,,,,,,,,,,,,5392.829109908565,None,,,,,,,,,,,,,,,,,,,,,,signal,D_new,9,287,5388.577769484356,None,5388.577769484356,None,5388.577769484356,None,3,2.8452173913046863,5388.577769484356,None,5391.449913852087,None,5391.449913852087,None,5391.978674814954,None,5391.978674814954,None,5391.978674814954,None,f,0.8041095975622738,5391.978674814954,None,sing11,001,2019_Oct_30_1608,ProdFawcett_Revision2019,3.2.4,59.88880507362226,
,,,,10,0,10,0,,,,,,,,,,,,,5398.2473235056295,None,,,,,,,,,,,,,,,,,,,,,,split,D_new,10,299,5393.345845306961,None,5393.345845306961,None,5393.345845306961,None,1,3.525588729240553,5393.345845306961,None,5396.913608882254,None,5396.913608882254,None,5397.430518442496,None,5397.430518442496,None,5397.430518442496,None,n,0.7763149219381376,5397.430518442496,None,sing11,001,2019_Oct_30_1608,ProdFawcett_Revision2019,3.2.4,59.88880507362226,
,,,,11,0,11,0,,,,,,,,,,,,,5404.2502061951855,None,,,,,,,,,,,,,,,,,,,,,,guest,B_aloud,11,146,5398.764440816073,None,5398.764440816073,None,5398.764440816073,None,6,2.721989799091716,5398.764440816073,None,5401.53316508055,None,5401.53316508055,None,5402.048597064129,None,5402.048597064129,None,5402.048597064129,None,r,2.1741105305709425,5402.048597064129,None,sing11,001,2019_Oct_30_1608,ProdFawcett_Revision2019,3.2.4,59.88880507362226,
,,,,12,0,12,0,,,,,,,,,,,,,5410.701275113516,None,,,,,,,,,,,,,,,,,,,,,,profession,D_new,12,241,5404.768446849537,None,5404.768446849537,None,5404.768446849537,None,2,4.365888847421957,5404.768446849537,None,5409.172394725384,None,5409.172394725384,None,5409.700829756795,None,5409.700829756795,None,5409.700829756795,None,f,0.952809292778511,5409.700829756795,None,sing11,001,2019_Oct_30_1608,ProdFawcett_Revision2019,3.2.4,59.88880507362226,
,,,,13,0,13,0,,,,,,,,,,,,,5415.502867761398,None,,,,,,,,,,,,,,,,,,,,,,brief,A_silent,13,28,5411.218133358214,None,5411.218133358214,None,5411.218133358214,None,2,2.7957694221558995,5411.218133358214,None,5414.069068234124,None,5414.069068234124,None,5414.585798034459,None,5414.585798034459,None,5414.585798034459,None,f,0.8760232008453386,5414.585798034459,None,sing11,001,2019_Oct_30_1608,ProdFawcett_Revision2019,3.2.4,59.88880507362226,
,,,,14,0,14,0,,,,,,,,,,,,,5420.254340051005,None,,,,,,,,,,,,,,,,,,,,,,review,C_sing,14,263,5416.019605958823,None,5416.019605958823,None,5416.019605958823,None,3,2.5217008770287066,5416.019605958823,None,5418.5883491945015,None,5418.5883491945015,None,5419.104204142564,None,5419.104204142564,None,5419.104204142564,None,f,1.1010850905013285,5419.104204142564,None,sing11,001,2019_Oct_30_1608,ProdFawcett_Revision2019,3.2.4,59.88880507362226,
,,,,15,0,15,0,,,,,,,,,,,,,5425.4391313677925,None,,,,,,,,,,,,,,,,,,,,,,career,D_new,15,42,5420.7709407849725,None,5420.7709407849725,None,5420.7709407849725,None,5,3.0983659886796886,5420.7709407849725,None,5423.905724948685,None,5423.905724948685,None,5424.422368912111,None,5424.422368912111,None,5424.422368912111,None,f,0.9754621508991477,5424.422368912111,None,sing11,001,2019_Oct_30_1608,ProdFawcett_Revision2019,3.2.4,59.88880507362226,
,,,,16,0,16,0,,,,,,,,,,,,,5429.640549542825,None,,,,,,,,,,,,,,,,,,,,,,silence,C_sing,16,288,5425.955942028986,None,5425.955942028986,None,5425.955942028986,None,6,2.080740809852614,5425.955942028986,None,5428.073593954096,None,5428.073593954096,None,5428.590131865398,None,5428.590131865398,None,5428.590131865398,None,r,1.0074317347771284,5428.590131865398,None,sing11,001,2019_Oct_30_1608,ProdFawcett_Revision2019,3.2.4,59.88880507362226,
,,,,17,0,17,0,,,,,,,,,,,,,5434.725314735337,None,,,,,,,,,,,,,,,,,,,,,,company,C_sing,17,64,5430.15858773403,None,5430.15858773403,None,5430.15858773403,None,6,2.2619506126766282,5430.15858773403,None,5432.461516763078,None,5432.461516763078,None,5432.974906699012,None,5432.974906699012,None,5432.974906699012,None,r,1.7015245381599016,5432.974906699012,None,sing11,001,2019_Oct_30_1608,ProdFawcett_Revision2019,3.2.4,59.88880507362226,
,,,,18,0,18,0,,,,,,,,,,,,,5438.676597934938,None,,,,,,,,,,,,,,,,,,,,,,welcome,C_sing,18,354,5435.242146233751,None,5435.242146233751,None,5435.242146233751,None,6,1.9943008645896043,5435.242146233751,None,5437.264843565342,None,5437.264843565342,None,5437.793198979909,None,5437.793198979909,None,5437.793198979909,None,r,0.8510325309453037,5437.793198979909,None,sing11,001,2019_Oct_30_1608,ProdFawcett_Revision2019,3.2.4,59.88880507362226,
,,,,19,0,19,0,,,,,,,,,,,,,5442.984546246191,None,,,,,,,,,,,,,,,,,,,,,,detective,D_new,19,92,5439.193992038316,None,5439.193992038316,None,5439.193992038316,None,5,2.5067829818990504,5439.193992038316,None,5441.749309572681,None,5441.749309572681,None,5442.278038502208,None,5442.278038502208,None,5442.278038502208,None,f,0.6698780867072855,5442.278038502208,None,sing11,001,2019_Oct_30_1608,ProdFawcett_Revision2019,3.2.4,59.88880507362226,
,,,,20,0,20,0,,,,,,,,,,,,,5447.166414442993,None,,,,,,,,,,,,,,,,,,,,,,tragedy,D_new,20,335,5443.512189463208,None,5443.512189463208,None,5443.512189463208,None,1,1.9637587858433108,5443.512189463208,None,5445.516543509361,None,5445.516543509361,None,5446.028821297506,None,5446.028821297506,None,5446.028821297506,None,n,1.1111715494180316,5446.028821297506,None,sing11,001,2019_Oct_30_1608,ProdFawcett_Revision2019,3.2.4,59.88880507362226,
,,,,21,0,21,0,,,,,,,,,,,,,5452.380734278783,None,,,,,,,,,,,,,,,,,,,,,,agreement,A_silent,21,5,5447.696204515768,None,5447.696204515768,None,5447.696204515768,None,4,3.419092181376982,5447.696204515768,None,5451.150750139952,None,5451.150750139952,None,5451.681092243578,None,5451.681092243578,None,5451.681092243578,None,f,0.674477825464237,5451.681092243578,None,sing11,001,2019_Oct_30_1608,ProdFawcett_Revision2019,3.2.4,59.88880507362226,
,,,,22,0,22,0,,,,,,,,,,,,,5456.415665858059,None,,,,,,,,,,,,,,,,,,,,,,count,D_new,22,72,5452.883045344281,None,5452.883045344281,None,5452.883045344281,None,3,2.0646871306835237,5452.883045344281,None,5454.9873079554645,None,5454.9873079554645,None,5455.515052870561,None,5455.515052870561,None,5455.515052870561,None,f,0.8569403495675942,5455.515052870561,None,sing11,001,2019_Oct_30_1608,ProdFawcett_Revision2019,3.2.4,59.88880507362226,
,,,,23,0,23,0,,,,,,,,,,,,,5460.066541021335,None,,,,,,,,,,,,,,,,,,,,,,bright,D_new,23,29,5456.932749891149,None,5456.932749891149,None,5456.932749891149,None,1,1.7586819680291228,5456.932749891149,None,5458.736002052622,None,5458.736002052622,None,5459.249681532624,None,5459.249681532624,None,5459.249681532624,None,n,0.7692532810842749,5459.249681532624,None,sing11,001,2019_Oct_30_1608,ProdFawcett_Revision2019,3.2.4,59.88880507362226,
,,,,24,0,24,0,,,,,,,,,,,,,5463.417526901785,None,,,,,,,,,,,,,,,,,,,,,,recall,B_aloud,24,255,5460.58325371649,None,5460.58325371649,None,5460.58325371649,None,1,1.5634176152270811,5460.58325371649,None,5462.17096690925,None,5462.17096690925,None,5462.690817316664,None,5462.690817316664,None,5462.690817316664,None,n,0.6799104310512121,5462.690817316664,None,sing11,001,2019_Oct_30_1608,ProdFawcett_Revision2019,3.2.4,59.88880507362226,
,,,,25,0,25,0,,,,,,,,,,,,,5467.08533588356,None,,,,,,,,,,,,,,,,,,,,,,message,C_sing,25,189,5463.917836661069,None,5463.917836661069,None,5463.917836661069,None,3,1.9732198171304844,5463.917836661069,None,5465.951620327176,None,5465.951620327176,None,5466.4686082602475,None,5466.4686082602475,None,5466.4686082602475,None,f,0.5748109099959038,5466.4686082602475,None,sing11,001,2019_Oct_30_1608,ProdFawcett_Revision2019,3.2.4,59.88880507362226,
,,,,26,0,26,0,,,,,,,,,,,,,5470.7572432667785,None,,,,,,,,,,,,,,,,,,,,,,state,B_aloud,26,303,5467.602244199788,None,5467.602244199788,None,5467.602244199788,None,1,1.7285535236669602,5467.602244199788,None,5469.375172606829,None,5469.375172606829,None,5469.903015487965,None,5469.903015487965,None,5469.903015487965,None,f,0.8191207936806677,5469.903015487965,None,sing11,001,2019_Oct_30_1608,ProdFawcett_Revision2019,3.2.4,59.88880507362226,
,,,,27,0,27,0,,,,,,,,,,,,,5474.087593767494,None,,,,,,,,,,,,,,,,,,,,,,report,A_silent,27,259,5471.287037382596,None,5471.287037382596,None,5471.287037382596,None,1,1.363356969583947,5471.287037382596,None,5472.687134415625,None,5472.687134415625,None,5473.206636810351,None,5473.206636810351,None,5473.206636810351,None,n,0.8358552590652835,5473.206636810351,None,sing11,001,2019_Oct_30_1608,ProdFawcett_Revision2019,3.2.4,59.88880507362226,
,,,,28,0,28,0,,,,,,,,,,,,,5477.388669838901,None,,,,,,,,,,,,,,,,,,,,,,season,D_new,28,277,5474.604442993096,None,5474.604442993096,None,5474.604442993096,None,1,1.6055299496174484,5474.604442993096,None,5476.259273496299,None,5476.259273496299,None,5476.7717814268835,None,5476.7717814268835,None,5476.7717814268835,None,n,0.582585370405468,5476.7717814268835,None,sing11,001,2019_Oct_30_1608,ProdFawcett_Revision2019,3.2.4,59.88880507362226,
,,,,29,0,29,0,,,,,,,,,,,,,5480.178374074765,None,,,,,,,,,,,,,,,,,,,,,,general,D_new,29,135,5477.905409591342,None,5477.905409591342,None,5477.905409591342,None,1,1.6326808484172943,5477.905409591342,None,5479.577146855757,None,5479.577146855757,None,5480.089303663619,None,5480.089303663619,None,5480.089303663619,None,n,0.057270946072094375,5480.089303663619,None,sing11,001,2019_Oct_30_1608,ProdFawcett_Revision2019,3.2.4,59.88880507362226,
,,,,30,0,30,0,,,,,,,,,,,,,5483.073659886795,None,,,,,,,,,,,,,,,,,,,,,,drama,D_new,30,103,5480.706387074703,None,5480.706387074703,None,5480.706387074703,None,1,1.5353237544322837,5480.706387074703,None,5482.306934129502,None,5482.306934129502,None,5482.823694097157,None,5482.823694097157,None,5482.823694097157,None,n,0.2097393792373623,5482.823694097157,None,sing11,001,2019_Oct_30_1608,ProdFawcett_Revision2019,3.2.4,59.88880507362226,
,,,,31,0,31,0,,,,,,,,,,,,,5486.174617776948,None,,,,,,,,,,,,,,,,,,,,,,broad,D_new,31,31,5483.576855445668,None,5483.576855445668,None,5483.576855445668,None,1,1.2569947751444488,5483.576855445668,None,5484.89085090502,None,5484.89085090502,None,5485.407785967532,None,5485.407785967532,None,5485.407785967532,None,n,0.7218259003548155,5485.407785967532,None,sing11,001,2019_Oct_30_1608,ProdFawcett_Revision2019,3.2.4,59.88880507362226,
,,,,32,0,32,0,,,,,,,,,,,,,5488.642091186167,None,,,,,,,,,,,,,,,,,,,,,,tennis,D_new,32,323,5486.691521428127,None,5486.691521428127,None,5486.691521428127,None,1,1.0225598681345218,5486.691521428127,None,5487.763615413323,None,5487.763615413323,None,5488.291988555079,None,5488.291988555079,None,5488.291988555079,None,n,0.3172846302168182,5488.291988555079,None,sing11,001,2019_Oct_30_1608,ProdFawcett_Revision2019,3.2.4,59.88880507362226,
,,,,33,0,33,0,,,,,,,,,,,,,5491.092869316415,None,,,,,,,,,,,,,,,,,,,,,,store,D_new,33,305,5489.1588984263235,None,5489.1588984263235,None,5489.1588984263235,None,1,0.954412825775762,5489.1588984263235,None,5490.164400696647,None,5490.164400696647,None,5490.692703551657,None,5490.692703551657,None,5490.692703551657,None,n,0.36459103066499665,5490.692703551657,None,sing11,001,2019_Oct_30_1608,ProdFawcett_Revision2019,3.2.4,59.88880507362226,
,,,,34,0,34,0,,,,,,,,,,,,,5495.527417739629,None,,,,,,,,,,,,,,,,,,,,,,touch,D_new,34,332,5491.609739379238,None,5491.609739379238,None,5491.609739379238,None,1,3.14362194439218,5491.609739379238,None,5494.810533992661,None,5494.810533992661,None,5495.327445729925,None,5495.327445729925,None,5495.327445729925,None,n,0.16156683460849308,5495.327445729925,None,sing11,001,2019_Oct_30_1608,ProdFawcett_Revision2019,3.2.4,59.88880507362226,
,,,,35,0,35,0,,,,,,,,,,,,,5498.328440940474,None,,,,,,,,,,,,,,,,,,,,,,literature,D_new,35,173,5496.044224357778,None,5496.044224357778,None,5496.044224357778,None,1,1.4685214903274755,5496.044224357778,None,5497.578148597376,None,5497.578148597376,None,5498.094930024258,None,5498.094930024258,None,5498.094930024258,None,n,0.18579461342233117,5498.094930024258,None,sing11,001,2019_Oct_30_1608,ProdFawcett_Revision2019,3.2.4,59.88880507362226,
,,,,36,0,36,0,,,,,,,,,,,,,5500.729090937364,None,,,,,,,,,,,,,,,,,,,,,,region,D_new,36,256,5498.845301051191,None,5498.845301051191,None,5498.845301051191,None,1,1.0671624059214082,5498.845301051191,None,5499.935861168128,None,5499.935861168128,None,5500.46245848106,None,5500.46245848106,None,5500.46245848106,None,n,0.21809106176533533,5500.46245848106,None,sing11,001,2019_Oct_30_1608,ProdFawcett_Revision2019,3.2.4,59.88880507362226,
,,,,37,0,37,0,,,,,,,,,,,,,5502.963124650121,None,,,,,,,,,,,,,,,,,,,,,,reach,D_new,37,253,5501.246053368166,None,5501.246053368166,None,5501.246053368166,None,1,1.0108670771905963,5501.246053368166,None,5502.312959507371,None,5502.312959507371,None,5502.82997449773,None,5502.82997449773,None,5502.82997449773,None,n,0.0912934627103823,5502.82997449773,None,sing11,001,2019_Oct_30_1608,ProdFawcett_Revision2019,3.2.4,59.88880507362226,
,,,,38,0,38,0,,,,,,,,,,,,,5506.102374199167,None,,,,,,,,,,,,,,,,,,,,,,solution,C_sing,38,294,5503.480118492256,None,5503.480118492256,None,5503.480118492256,None,4,1.6167512595629887,5503.480118492256,None,5505.135252534677,None,5505.135252534677,None,5505.66398208621,None,5505.66398208621,None,5505.66398208621,None,f,0.41654848541384126,5505.66398208621,None,sing11,001,2019_Oct_30_1608,ProdFawcett_Revision2019,3.2.4,59.88880507362226,
,,,,39,0,39,0,,,,,,,,,,,,,5509.39856036574,None,,,,,,,,,,,,,,,,,,,,,,addition,D_new,39,2,5506.631377433601,None,5506.631377433601,None,5506.631377433601,None,1,1.664984449835174,5506.631377433601,None,5508.348268955651,None,5508.348268955651,None,5508.865035454376,None,5508.865035454376,None,5508.865035454376,None,f,0.4870261864771237,5508.865035454376,None,sing11,001,2019_Oct_30_1608,ProdFawcett_Revision2019,3.2.4,59.88880507362226,
,,,,40,0,40,0,,,,,,,,,,,,,5512.420392175157,None,,,,,,,,,,,,,,,,,,,,,,volume,A_silent,40,349,5509.9154189214405,None,5509.9154189214405,None,5509.9154189214405,None,3,1.604502705728919,5509.9154189214405,None,5511.582543695963,None,5511.582543695963,None,5512.099367419295,None,5512.099367419295,None,5512.099367419295,None,f,0.292840704111768,5512.099367419295,None,sing11,001,2019_Oct_30_1608,ProdFawcett_Revision2019,3.2.4,59.88880507362226,
,,,,41,0,41,0,,,,,,,,,,,,,5517.8678176898675,None,,,,,,,,,,,,,,,,,,,,,,production,A_silent,41,240,5512.938773714001,None,5512.938773714001,None,5512.938773714001,None,1,3.5648830627606003,5512.938773714001,None,5516.567627044847,None,5516.567627044847,None,5517.08435280214,None,5517.08435280214,None,5517.08435280214,None,n,0.7397443552899858,5517.08435280214,None,sing11,001,2019_Oct_30_1608,ProdFawcett_Revision2019,3.2.4,59.88880507362226,
,,,,42,0,42,0,,,,,,,,,,,,,5520.5551013870745,None,,,,,,,,,,,,,,,,,,,,,,route,D_new,42,267,5518.3845020837225,None,5518.3845020837225,None,5518.3845020837225,None,1,1.302930584063688,5518.3845020837225,None,5519.740688872303,None,5519.740688872303,None,5520.268642470611,None,5520.268642470611,None,5520.268642470611,None,n,0.2506226285995581,5520.268642470611,None,sing11,001,2019_Oct_30_1608,ProdFawcett_Revision2019,3.2.4,59.88880507362226,
,,,,43,0,43,0,,,,,,,,,,,,,5522.854198855508,None,,,,,,,,,,,,,,,,,,,,,,running,A_silent,43,268,5521.06895751695,None,5521.06895751695,None,5521.06895751695,None,1,1.0265830067792194,5521.06895751695,None,5522.123045655284,None,5522.123045655284,None,5522.652829507993,None,5522.652829507993,None,5522.652829507993,None,n,0.17842134726652148,5522.652829507993,None,sing11,001,2019_Oct_30_1608,ProdFawcett_Revision2019,3.2.4,59.88880507362226,
,,,,44,0,44,0,,,,,,,,,,,,,5525.607488959383,None,,,,,,,,,,,,,,,,,,,,,,threat,D_new,44,329,5523.370791814394,None,5523.370791814394,None,5523.370791814394,None,3,1.3731545064374586,5523.370791814394,None,5524.791966784848,None,5524.791966784848,None,5525.3200547365805,None,5525.3200547365805,None,5525.3200547365805,None,f,0.25535609877533716,5525.3200547365805,None,sing11,001,2019_Oct_30_1608,ProdFawcett_Revision2019,3.2.4,59.88880507362226,
,,,,45,0,45,0,,,,,,,,,,,,,5528.354402251664,None,,,,,,,,,,,,,,,,,,,,,,interior,D_new,45,164,5526.136956210736,None,5526.136956210736,None,5526.136956210736,None,1,1.0860829134780943,5526.136956210736,None,5527.274905766001,None,5527.274905766001,None,5527.804096535423,None,5527.804096535423,None,5527.804096535423,None,n,0.5076892455062989,5527.804096535423,None,sing11,001,2019_Oct_30_1608,ProdFawcett_Revision2019,3.2.4,59.88880507362226,
,,,,46,0,46,0,,,,,,,,,,,,,5530.8552233003675,None,,,,,,,,,,,,,,,,,,,,,,subject,C_sing,46,312,5528.87616501835,None,5528.87616501835,None,5528.87616501835,None,1,1.2035631647695482,5528.87616501835,None,5530.129154071034,None,5530.129154071034,None,5530.658853019842,None,5530.658853019842,None,5530.658853019842,None,n,0.15646917957383266,5530.658853019842,None,sing11,001,2019_Oct_30_1608,ProdFawcett_Revision2019,3.2.4,59.88880507362226,
,,,,47,0,47,0,,,,,,,,,,,,,5534.1060773154195,None,,,,,,,,,,,,,,,,,,,,,,spoke,D_new,47,300,5531.372276855135,None,5531.372276855135,None,5531.372276855135,None,2,1.4987889531630572,5531.372276855135,None,5532.905731790757,None,5532.905731790757,None,5533.406731666356,None,5533.406731666356,None,5533.406731666356,None,f,0.6641637121356325,5533.406731666356,None,sing11,001,2019_Oct_30_1608,ProdFawcett_Revision2019,3.2.4,59.88880507362226,
,,,,48,0,48,0,,,,,,,,,,,,,5537.257039248616,None,,,,,,,,,,,,,,,,,,,,,,collection,C_sing,48,54,5534.622891397649,None,5534.622891397649,None,5534.622891397649,None,5,1.8244756484418758,5534.622891397649,None,5536.493794551222,None,5536.493794551222,None,5537.007027119487,None,5537.007027119487,None,5537.007027119487,None,f,0.20828201778931543,5537.007027119487,None,sing11,001,2019_Oct_30_1608,ProdFawcett_Revision2019,3.2.4,59.88880507362226,
,,,,49,0,49,0,,,,,,,,,,,,,5541.764935622317,None,,,,,,,,,,,,,,,,,,,,,,distance,A_silent,49,100,5537.773944765815,None,5537.773944765815,None,5537.773944765815,None,6,2.664461031286919,5537.773944765815,None,5540.478748833738,None,5540.478748833738,None,5541.008168812589,None,5541.008168812589,None,5541.008168812589,None,r,0.7181087889530318,5541.008168812589,None,sing11,001,2019_Oct_30_1608,ProdFawcett_Revision2019,3.2.4,59.88880507362226,
,,,,50,0,50,0,,,,,,,,,,,,,5545.392891708652,None,,,,,,,,,,,,,,,,,,,,,,benefit,D_new,50,20,5542.291897742116,None,5542.291897742116,None,5542.291897742116,None,2,2.154153760029658,5542.291897742116,None,5544.493020153014,None,5544.493020153014,None,5544.992932761087,None,5544.992932761087,None,5544.992932761087,None,f,0.3577694843570498,5544.992932761087,None,sing11,001,2019_Oct_30_1608,ProdFawcett_Revision2019,3.2.4,59.88880507362226,
,,,,51,0,51,0,,,,,,,,,,,,,5549.394318280774,None,,,,,,,,,,,,,,,,,,,,,,present,D_new,51,231,5545.909783541706,None,5545.909783541706,None,5545.909783541706,None,6,2.551989488088111,5545.909783541706,None,5548.51059805934,None,5548.51059805934,None,5549.011079803446,None,5549.011079803446,None,5549.011079803446,None,r,0.3467114511413456,5549.011079803446,None,sing11,001,2019_Oct_30_1608,ProdFawcett_Revision2019,3.2.4,59.88880507362226,
,,,,52,0,52,0,,,,,,,,,,,,,5552.8953396156,None,,,,,,,,,,,,,,,,,,,,,,history,D_new,52,153,5549.910886359396,None,5549.910886359396,None,5549.910886359396,None,3,2.1509631772096327,5549.910886359396,None,5552.097226161597,None,5552.097226161597,None,5552.611830254401,None,5552.611830254401,None,5552.611830254401,None,f,0.2502382285256317,5552.611830254401,None,sing11,001,2019_Oct_30_1608,ProdFawcett_Revision2019,3.2.4,59.88880507362226,
,,,,53,0,53,0,,,,,,,,,,,,,5558.463653044722,None,,,,,,,,,,,,,,,,,,,,,,shear,A_silent,53,283,5553.417180444113,None,5553.417180444113,None,5553.417180444113,None,1,3.6530608944458436,5553.417180444113,None,5557.119825527151,None,5557.119825527151,None,5557.632738073024,None,5557.632738073024,None,5557.632738073024,None,n,0.7893556011695182,5557.632738073024,None,sing11,001,2019_Oct_30_1608,ProdFawcett_Revision2019,3.2.4,59.88880507362226,
,,,,54,0,54,0,,,,,,,,,,,,,5562.714967966661,None,,,,,,,,,,,,,,,,,,,,,,strain,C_sing,54,308,5558.980551408845,None,5558.980551408845,None,5558.980551408845,None,6,2.27263108788884,5558.980551408845,None,5561.314505193755,None,5561.314505193755,None,5561.831324563041,None,5561.831324563041,None,5561.831324563041,None,r,0.8376525471176137,5561.831324563041,None,sing11,001,2019_Oct_30_1608,ProdFawcett_Revision2019,3.2.4,59.88880507362226,
,,,,55,0,55,0,,,,,,,,,,,,,5566.549830814207,None,,,,,,,,,,,,,,,,,,,,,,degree,B_aloud,55,89,5563.231777694844,None,5563.231777694844,None,5563.231777694844,None,6,2.005117559246173,5563.231777694844,None,5565.299215338683,None,5565.299215338683,None,5565.815844995957,None,5565.815844995957,None,5565.815844995957,None,r,0.693370964731912,5565.815844995957,None,sing11,001,2019_Oct_30_1608,ProdFawcett_Revision2019,3.2.4,59.88880507362226,
,,,,56,0,56,0,,,,,,,,,,,,,5572.724226534801,None,,,,,,,,,,,,,,,,,,,,,,guard,D_new,56,145,5567.066440256267,None,5567.066440256267,None,5567.066440256267,None,2,2.9301741618464803,5567.066440256267,None,5570.038128382161,None,5570.038128382161,None,5570.550705977484,None,5570.550705977484,None,5570.550705977484,None,n,2.150074018784835,5570.550705977484,None,sing11,001,2019_Oct_30_1608,ProdFawcett_Revision2019,3.2.4,59.88880507362226,
,,,,57,0,57,0,,,,,,,,,,,,,5576.885989923493,None,,,,,,,,,,,,,,,,,,,,,,mankind,D_new,57,178,5573.235603968402,None,5573.235603968402,None,5573.235603968402,None,1,1.7207383218255927,5573.235603968402,None,5575.018895938297,None,5575.018895938297,None,5575.53556789202,None,5575.53556789202,None,5575.53556789202,None,n,1.3171166884367267,5575.53556789202,None,sing11,001,2019_Oct_30_1608,ProdFawcett_Revision2019,3.2.4,59.88880507362226,
,,,,58,0,58,0,,,,,,,,,,,,,5581.004261056168,None,,,,,,,,,,,,,,,,,,,,,,entrance,C_sing,58,115,5577.403172544629,None,5577.403172544629,None,5577.403172544629,None,6,2.2091764632705235,5577.403172544629,None,5579.656778005847,None,5579.656778005847,None,5580.187008770293,None,5580.187008770293,None,5580.187008770293,None,r,0.7774084095299258,5580.187008770293,None,sing11,001,2019_Oct_30_1608,ProdFawcett_Revision2019,3.2.4,59.88880507362226,
,,,,59,0,59,0,,,,,,,,,,,,,5586.478830627605,None,,,,,,,,,,,,,,,,,,,,,,estate,D_new,59,119,5581.520865833178,None,5581.520865833178,None,5581.520865833178,None,1,1.762987186664759,5581.520865833178,None,5583.323890962244,None,5583.323890962244,None,5583.838226037196,None,5583.838226037196,None,5583.838226037196,None,n,2.6054123903713844,5583.838226037196,None,sing11,001,2019_Oct_30_1608,ProdFawcett_Revision2019,3.2.4,59.88880507362226,
,,,,60,0,60,0,,,,,,,,,,,,,5590.4739009143495,None,,,,,,,,,,,,,,,,,,,,,,write,A_silent,60,358,5587.006313677925,None,5587.006313677925,None,5587.006313677925,None,1,1.9971278845559937,5587.006313677925,None,5589.040882005349,None,5589.040882005349,None,5589.544687130684,None,5589.544687130684,None,5589.544687130684,None,n,0.882634197922016,5589.544687130684,None,sing11,001,2019_Oct_30_1608,ProdFawcett_Revision2019,3.2.4,59.88880507362226,
,,,,61,0,61,0,,,,,,,,,,,,,5594.308257137526,None,,,,,,,,,,,,,,,,,,,,,,voice,D_new,61,348,5590.990390309137,None,5590.990390309137,None,5590.990390309137,None,2,1.9330982148412659,5590.990390309137,None,5592.9446320831,None,5592.9446320831,None,5593.474416868819,None,5593.474416868819,None,5593.474416868819,None,n,0.7930111339182986,5593.474416868819,None,sing11,001,2019_Oct_30_1608,ProdFawcett_Revision2019,3.2.4,59.88880507362226,
,,,,62,0,62,0,,,,,,,,,,,,,5597.559146295951,None,,,,,,,,,,,,,,,,,,,,,,payment,C_sing,62,215,5594.82522361137,None,5594.82522361137,None,5594.82522361137,None,1,1.874974497729454,5594.82522361137,None,5596.748170056603,None,5596.748170056603,None,5597.275727747714,None,5597.275727747714,None,5597.275727747714,None,n,0.24743173477691016,5597.275727747714,None,sing11,001,2019_Oct_30_1608,ProdFawcett_Revision2019,3.2.4,59.88880507362226,
,,,,63,0,63,0,,,,,,,,,,,,,5604.561385519687,None,,,,,,,,,,,,,,,,,,,,,,foundation,D_new,63,132,5598.078324625241,None,5598.078324625241,None,5598.078324625241,None,1,5.468283261802753,5598.078324625241,None,5603.61107451639,None,5603.61107451639,None,5604.112501088512,None,5604.112501088512,None,5604.112501088512,None,n,0.4020451576789128,5604.112501088512,None,sing11,001,2019_Oct_30_1608,ProdFawcett_Revision2019,3.2.4,59.88880507362226,
,,,,64,0,64,0,,,,,,,,,,,,,5607.39540088325,None,,,,,,,,,,,,,,,,,,,,,,under,D_new,64,343,5605.078479504883,None,5605.078479504883,None,5605.078479504883,None,1,1.4921306835849464,5605.078479504883,None,5606.6167515705665,None,5606.6167515705665,None,5607.128732661567,None,5607.128732661567,None,5607.128732661567,None,n,0.23393699073221796,5607.128732661567,None,sing11,001,2019_Oct_30_1608,ProdFawcett_Revision2019,3.2.4,59.88880507362226,
,,,,65,0,65,0,,,,,,,,,,,,,5613.230705355477,None,,,,,,,,,,,,,,,,,,,,,,search,D_new,65,276,5607.912333146732,None,5607.912333146732,None,5607.912333146732,None,2,1.9858138956278708,5607.912333146732,None,5609.950173228836,None,5609.950173228836,None,5610.479837034272,None,5610.479837034272,None,5610.479837034272,None,f,2.706341979224817,5610.479837034272,None,sing11,001,2019_Oct_30_1608,ProdFawcett_Revision2019,3.2.4,59.88880507362226,
,,,,66,0,66,0,,,,,,,,,,,,,5620.020960067177,None,,,,,,,,,,,,,,,,,,,,,,command,B_aloud,66,60,5613.748154506438,None,5613.748154506438,None,5613.748154506438,None,3,2.1979224979786522,5613.748154506438,None,5615.9878043167255,None,5615.9878043167255,None,5616.514921938173,None,5616.514921938173,None,5616.514921938173,None,f,3.4706319586985046,5616.514921938173,None,sing11,001,2019_Oct_30_1608,ProdFawcett_Revision2019,3.2.4,59.88880507362226,
,,,,67,0,67,0,,,,,,,,,,,,,5626.30861510232,None,,,,,,,,,,,,,,,,,,,,,,youth,A_silent,67,359,5620.549523231946,None,5620.549523231946,None,5620.549523231946,None,2,2.963893139267384,5620.549523231946,None,5623.540700068421,None,5623.540700068421,None,5624.0508278907755,None,5624.0508278907755,None,5624.0508278907755,None,n,2.2304870311627383,5624.0508278907755,None,sing11,001,2019_Oct_30_1608,ProdFawcett_Revision2019,3.2.4,59.88880507362226,
,,,,68,0,68,0,,,,,,,,,,,,,5631.506426883125,None,,,,,,,,,,,,,,,,,,,,,,expansion,D_new,68,123,5626.834774833614,None,5626.834774833614,None,5626.834774833614,None,4,2.6065403993279688,5626.834774833614,None,5629.4909899234935,None,5629.4909899234935,None,5630.002879890527,None,5630.002879890527,None,5630.002879890527,None,f,1.4703834670644937,5630.002879890527,None,sing11,001,2019_Oct_30_1608,ProdFawcett_Revision2019,3.2.4,59.88880507362226,
,,,,69,0,69,0,,,,,,,,,,,,,5636.471218199913,None,,,,,,,,,,,,,,,,,,,,,,crisis,D_new,69,79,5632.036770230765,None,5632.036770230765,None,5632.036770230765,None,1,1.9250105741120933,5632.036770230765,None,5634.008994837345,None,5634.008994837345,None,5634.537197238291,None,5634.537197238291,None,5634.537197238291,None,n,1.8956310256889992,5634.537197238291,None,sing11,001,2019_Oct_30_1608,ProdFawcett_Revision2019,3.2.4,59.88880507362226,
,,,,70,0,70,0,,,,,,,,,,,,,5639.838961870996,None,,,,,,,,,,,,,,,,,,,,,,industry,D_new,70,161,5636.989394787585,None,5636.989394787585,None,5636.989394787585,None,1,1.763353859550989,5636.989394787585,None,5638.805262797786,None,5638.805262797786,None,5639.322110779374,None,5639.322110779374,None,5639.322110779374,None,n,0.47879983827806427,5639.322110779374,None,sing11,001,2019_Oct_30_1608,ProdFawcett_Revision2019,3.2.4,59.88880507362226,
,,,,71,0,71,0,,,,,,,,,,,,,5643.44002923431,None,,,,,,,,,,,,,,,,,,,,,,escape,D_new,71,118,5640.3556055234185,None,5640.3556055234185,None,5640.3556055234185,None,4,2.4128133358217383,5640.3556055234185,None,5642.811060832245,None,5642.811060832245,None,5643.323337376376,None,5643.323337376376,None,5643.323337376376,None,f,0.06897213410411496,5643.323337376376,None,sing11,001,2019_Oct_30_1608,ProdFawcett_Revision2019,3.2.4,59.88880507362226,
,,,,72,0,72,0,,,,,,,,,,,,,5647.791398270821,None,,,,,,,,,,,,,,,,,,,,,,harmony,A_silent,72,148,5643.956778938857,None,5643.956778938857,None,5643.956778938857,None,3,3.051533557255425,5643.956778938857,None,5647.057773838403,None,5647.057773838403,None,5647.574677178578,None,5647.574677178578,None,5647.574677178578,None,f,0.16936555327447422,5647.574677178578,None,sing11,001,2019_Oct_30_1608,ProdFawcett_Revision2019,3.2.4,59.88880507362226,
,,,,73,0,73,0,,,,,,,,,,,,,5652.376092243578,None,,,,,,,,,,,,,,,,,,,,,,personnel,A_silent,73,219,5648.309340051004,None,5648.309340051004,None,5648.309340051004,None,2,3.13067892019626,5648.309340051004,None,5651.492668408286,None,5651.492668408286,None,5652.009407849723,None,5652.009407849723,None,5652.009407849723,None,f,0.32681968028919073,5652.009407849723,None,sing11,001,2019_Oct_30_1608,ProdFawcett_Revision2019,3.2.4,59.88880507362226,
,,,,74,0,74,0,,,,,,,,,,,,,5658.211255520308,None,,,,,,,,,,,,,,,,,,,,,,meeting,D_new,74,187,5652.893202711949,None,5652.893202711949,None,5652.893202711949,None,2,1.466968339864252,5652.893202711949,None,5654.410066243702,None,5654.410066243702,None,5654.926927909436,None,5654.926927909436,None,5654.926927909436,None,f,3.2413839646706037,5654.926927909436,None,sing11,001,2019_Oct_30_1608,ProdFawcett_Revision2019,3.2.4,59.88880507362226,
,,,,75,0,75,0,,,,,,,,,,,,,5661.166049636126,None,,,,,,,,,,,,,,,,,,,,,,taste,D_new,75,322,5658.728839024694,None,5658.728839024694,None,5658.728839024694,None,1,1.6229672824529189,5658.728839024694,None,5660.41191982335,None,5660.41191982335,None,5660.928740747652,None,5660.928740747652,None,5660.928740747652,None,n,0.20720252534738393,5660.928740747652,None,sing11,001,2019_Oct_30_1608,ProdFawcett_Revision2019,3.2.4,59.88880507362226,
,,,,76,0,76,0,,,,,,,,,,,,,5663.9129598183745,None,,,,,,,,,,,,,,,,,,,,,,throw,C_sing,76,330,5661.6957302357405,None,5661.6957302357405,None,5661.6957302357405,None,1,1.4082745537107257,5661.6957302357405,None,5663.1489858182495,None,5663.1489858182495,None,5663.649668159483,None,5663.649668159483,None,5663.649668159483,None,n,0.22995459351932368,5663.649668159483,None,sing11,001,2019_Oct_30_1608,ProdFawcett_Revision2019,3.2.4,59.88880507362226,
,,,,77,0,77,0,,,,,,,,,,,,,5666.481670087703,None,,,,,,,,,,,,,,,,,,,,,,fellow,A_silent,77,126,5664.429784785719,None,5664.429784785719,None,5664.429784785719,None,1,1.2974311127700275,5664.429784785719,None,5665.780250357654,None,5665.780250357654,None,5666.297186664179,None,5666.297186664179,None,5666.297186664179,None,n,0.15791814393287495,5666.297186664179,None,sing11,001,2019_Oct_30_1608,ProdFawcett_Revision2019,3.2.4,59.88880507362226,
,,,,78,0,78,0,,,,,,,,,,,,,5671.815424208497,None,,,,,,,,,,,,,,,,,,,,,,executive,B_aloud,78,122,5666.998057162406,None,5666.998057162406,None,5666.998057162406,None,6,2.400857125086077,5666.998057162406,None,5669.448038502208,None,5669.448038502208,None,5669.96477452261,None,5669.96477452261,None,5669.96477452261,None,r,1.8339851962427929,5669.96477452261,None,sing11,001,2019_Oct_30_1608,ProdFawcett_Revision2019,3.2.4,59.88880507362226,
,,,,79,0,79,0,,,,,,,,,,,,,5675.066376189588,None,,,,,,,,,,,,,,,,,,,,,,property,D_new,79,242,5672.337948622256,None,5672.337948622256,None,5672.337948622256,None,2,1.405003732039404,5672.337948622256,None,5673.784137587859,None,5673.784137587859,None,5674.299615910929,None,5674.299615910929,None,5674.299615910929,None,f,0.7310039186413633,5674.299615910929,None,sing11,001,2019_Oct_30_1608,ProdFawcett_Revision2019,3.2.4,59.88880507362226,
,,,,80,0,80,0,,,,,,,,,,,,,5678.417463768116,None,,,,,,,,,,,,,,,,,,,,,,contract,D_new,80,68,5675.583175032655,None,5675.583175032655,None,5675.583175032655,None,1,1.9031513964046098,5675.583175032655,None,5677.533925172607,None,5677.533925172607,None,5678.05081607265,None,5678.05081607265,None,5678.05081607265,None,n,0.32420911861663626,5678.05081607265,None,sing11,001,2019_Oct_30_1608,ProdFawcett_Revision2019,3.2.4,59.88880507362226,
,,,,81,0,81,0,,,,,,,,,,,,,5681.101572743672,None,,,,,,,,,,,,,,,,,,,,,,tough,D_new,81,333,5678.920908440629,None,5678.920908440629,None,5678.920908440629,None,1,1.4454979162783275,5678.920908440629,None,5680.418135535237,None,5680.418135535237,None,5680.935015861169,None,5680.935015861169,None,5680.935015861169,None,n,0.1275153946626233,5680.935015861169,None,sing11,001,2019_Oct_30_1608,ProdFawcett_Revision2019,3.2.4,59.88880507362226,
,,,,82,0,82,0,,,,,,,,,,,,,5683.502409653543,None,,,,,,,,,,,,,,,,,,,,,,point,D_new,82,226,5681.618527088387,None,5681.618527088387,None,5681.618527088387,None,1,1.059779498662465,5681.618527088387,None,5682.723924550601,None,5682.723924550601,None,5683.252296137339,None,5683.252296137339,None,5683.252296137339,None,n,0.20168190582808165,5683.252296137339,None,sing11,001,2019_Oct_30_1608,ProdFawcett_Revision2019,3.2.4,59.88880507362226,
,,,,83,0,83,0,,,,,,,,,,,,,5688.120427007527,None,,,,,,,,,,,,,,,,,,,,,,right,D_new,83,265,5684.019238974934,None,5684.019238974934,None,5684.019238974934,None,1,1.1387534987870822,5684.019238974934,None,5685.219780742676,None,5685.219780742676,None,5685.736476021646,None,5685.736476021646,None,5685.736476021646,None,n,2.349472538408918,5685.736476021646,None,sing11,001,2019_Oct_30_1608,ProdFawcett_Revision2019,3.2.4,59.88880507362226,
,,,,84,0,84,0,,,,,,,,,,,,,5692.171792623002,None,,,,,,,,,,,,,,,,,,,,,,problem,D_new,84,238,5688.638109099957,None,5688.638109099957,None,5688.638109099957,None,2,2.808275175716517,5688.638109099957,None,5691.504940287367,None,5691.504940287367,None,5692.021940660571,None,5692.021940660571,None,5692.021940660571,None,f,0.11157958574312943,5692.021940660571,None,sing11,001,2019_Oct_30_1608,ProdFawcett_Revision2019,3.2.4,59.88880507362226,
,,,,85,0,85,0,,,,,,,,,,,,,5694.555890402438,None,,,,,,,,,,,,,,,,,,,,,,height,D_new,85,152,5692.688527088388,None,5692.688527088388,None,5692.688527088388,None,1,1.1577502021527835,5692.688527088388,None,5693.905569447036,None,5693.905569447036,None,5694.422392237358,None,5694.422392237358,None,5694.422392237358,None,n,0.09515798967549927,5694.422392237358,None,sing11,001,2019_Oct_30_1608,ProdFawcett_Revision2019,3.2.4,59.88880507362226,
,,,,86,0,86,0,,,,,,,,,,,,,5699.34065466194,None,,,,,,,,,,,,,,,,,,,,,,theme,D_new,86,326,5695.0726037196,None,5695.0726037196,None,5695.0726037196,None,3,2.468547614605086,5695.0726037196,None,5697.590180070909,None,5697.590180070909,None,5698.107091808173,None,5698.107091808173,None,5698.107091808173,None,f,1.186053679169163,5698.107091808173,None,sing11,001,2019_Oct_30_1608,ProdFawcett_Revision2019,3.2.4,59.88880507362226,
,,,,87,0,87,0,,,,,,,,,,,,,5706.092954842322,None,,,,,,,,,,,,,,,,,,,,,,period,C_sing,87,217,5699.857479629284,None,5699.857479629284,None,5699.857479629284,None,1,5.444112085588131,5699.857479629284,None,5705.345141817504,None,5705.345141817504,None,5705.875922124775,None,5705.875922124775,None,5705.875922124775,None,n,0.18460222678277205,5705.875922124775,None,sing11,001,2019_Oct_30_1608,ProdFawcett_Revision2019,3.2.4,59.88880507362226,
,,,,88,0,88,0,,,,,,,,,,,,,5708.828756919824,None,,,,,,,,,,,,,,,,,,,,,,second,C_sing,88,278,5706.594265721217,None,5706.594265721217,None,5706.594265721217,None,1,1.5232820177898247,5706.594265721217,None,5708.16492162717,None,5708.16492162717,None,5708.693448715557,None,5708.693448715557,None,5708.693448715557,None,n,0.10297630154855142,5708.693448715557,None,sing11,001,2019_Oct_30_1608,ProdFawcett_Revision2019,3.2.4,59.88880507362226,
,,,,89,0,89,0,,,,,,,,,,,,,5711.127590657461,None,,,,,,,,,,,,,,,,,,,,,,weight,A_silent,89,353,5709.360495117248,None,5709.360495117248,None,5709.360495117248,None,1,1.060301362193968,5709.360495117248,None,5710.477454749021,None,5710.477454749021,None,5710.994346582074,None,5710.994346582074,None,5710.994346582074,None,n,0.09086987622140441,5710.994346582074,None,sing11,001,2019_Oct_30_1608,ProdFawcett_Revision2019,3.2.4,59.88880507362226,
,,,,90,0,90,0,,,,,,,,,,,,,5714.712025253468,None,,,,,,,,,,,,,,,,,,,,,,narrow,C_sing,90,197,5711.644449524165,None,5711.644449524165,None,5711.644449524165,None,1,1.5925101076063584,5711.644449524165,None,5713.294983827829,None,5713.294983827829,None,5713.795815139641,None,5713.795815139641,None,5713.795815139641,None,n,0.8731753436586587,5713.795815139641,None,sing11,001,2019_Oct_30_1608,ProdFawcett_Revision2019,3.2.4,59.88880507362226,
,,,,91,0,91,0,,,,,,,,,,,,,5719.880257199727,None,,,,,,,,,,,,,,,,,,,,,,shock,B_aloud,91,284,5715.228882565156,None,5715.228882565156,None,5715.228882565156,None,3,3.743214219070069,5715.228882565156,None,5719.000494806245,None,5719.000494806245,None,5719.513473284817,None,5719.513473284817,None,5719.513473284817,None,f,0.33045686384230066,5719.513473284817,None,sing11,001,2019_Oct_30_1608,ProdFawcett_Revision2019,3.2.4,59.88880507362226,
,,,,92,0,92,0,,,,,,,,,,,,,5724.367530322822,None,,,,,,,,,,,,,,,,,,,,,,employment,B_aloud,92,111,5720.397844436151,None,5720.397844436151,None,5720.397844436151,None,6,2.381920445356627,5720.397844436151,None,5722.81887447907,None,5722.81887447907,None,5723.331984512036,None,5723.331984512036,None,5723.331984512036,None,r,1.0078923306591605,5723.331984512036,None,sing11,001,2019_Oct_30_1608,ProdFawcett_Revision2019,3.2.4,59.88880507362226,
,,,,93,0,93,0,,,,,,,,,,,,,5728.232970392486,None,,,,,,,,,,,,,,,,,,,,,,audience,D_new,93,14,5724.898416371214,None,5724.898416371214,None,5724.898416371214,None,3,2.401174970455031,5724.898416371214,None,5727.333056540399,None,5727.333056540399,None,5727.849420911862,None,5727.849420911862,None,5727.849420911862,None,f,0.33803166013603914,5727.849420911862,None,sing11,001,2019_Oct_30_1608,ProdFawcett_Revision2019,3.2.4,59.88880507362226,
,,,,94,0,94,0,,,,,,,,,,,,,5730.9836959631775,None,,,,,,,,,,,,,,,,,,,,,,place,B_aloud,94,222,5728.749786651739,None,5728.749786651739,None,5728.749786651739,None,1,1.4136399825838453,5728.749786651739,None,5730.21686135473,None,5730.21686135473,None,5730.723883187162,None,5730.723883187162,None,5730.723883187162,None,n,0.2235043851469527,5730.723883187162,None,sing11,001,2019_Oct_30_1608,ProdFawcett_Revision2019,3.2.4,59.88880507362226,
,,,,95,0,95,0,,,,,,,,,,,,,5733.571881569945,None,,,,,,,,,,,,,,,,,,,,,,straight,C_sing,95,307,5731.501068607327,None,5731.501068607327,None,5731.501068607327,None,1,1.166533868258739,5731.501068607327,None,5732.706423151086,None,5732.706423151086,None,5733.234395720595,None,5733.234395720595,None,5733.234395720595,None,n,0.3052435155814237,5733.234395720595,None,sing11,001,2019_Oct_30_1608,ProdFawcett_Revision2019,3.2.4,59.88880507362226,
,,,,96,0,96,0,,,,,,,,,,,,,5736.518886608198,None,,,,,,,,,,,,,,,,,,,,,,produce,D_new,96,239,5734.0859180817315,None,5734.0859180817315,None,5734.0859180817315,None,2,1.3972264725998684,5734.0859180817315,None,5735.522223362568,None,5735.522223362568,None,5736.036870062823,None,5736.036870062823,None,5736.036870062823,None,f,0.461942526590974,5736.036870062823,None,sing11,001,2019_Oct_30_1608,ProdFawcett_Revision2019,3.2.4,59.88880507362226,
,,,,97,0,97,0,,,,,,,,,,,,,5740.536804752131,None,,,,,,,,,,,,,,,,,,,,,,institute,A_silent,97,162,5737.0257196616285,None,5737.0257196616285,None,5737.0257196616285,None,6,2.6410116937240673,5737.0257196616285,None,5739.719781053679,None,5739.719781053679,None,5740.236601977981,None,5740.236601977981,None,5740.236601977981,None,r,0.2540663681038495,5740.236601977981,None,sing11,001,2019_Oct_30_1608,ProdFawcett_Revision2019,3.2.4,59.88880507362226,
,,,,98,0,98,0,,,,,,,,,,,,,5745.788424768302,None,,,,,,,,,,,,,,,,,,,,,,universal,C_sing,98,345,5741.053914598495,None,5741.053914598495,None,5741.053914598495,None,6,2.700748273931822,5741.053914598495,None,5743.804422466878,None,5743.804422466878,None,5744.321388318716,None,5744.321388318716,None,5744.321388318716,None,r,1.4255389687132265,5744.321388318716,None,sing11,001,2019_Oct_30_1608,ProdFawcett_Revision2019,3.2.4,59.88880507362226,
,,,,99,0,99,0,,,,,,,,,,,,,5748.822811158799,None,,,,,,,,,,,,,,,,,,,,,,couch,A_silent,99,70,5746.305247558625,None,5746.305247558625,None,5746.305247558625,None,2,1.6173266156629325,5746.305247558625,None,5747.972349318903,None,5747.972349318903,None,5748.489234309884,None,5748.489234309884,None,5748.489234309884,None,n,0.29695154568617,5748.489234309884,None,sing11,001,2019_Oct_30_1608,ProdFawcett_Revision2019,3.2.4,59.88880507362226,
,,,,100,0,100,0,,,,,,,,,,,,,5751.257057286807,None,,,,,,,,,,,,,,,,,,,,,,month,A_silent,100,193,5749.339396031598,None,5749.339396031598,None,5749.339396031598,None,2,1.2467664987243552,5749.339396031598,None,5750.626942215587,None,5750.626942215587,None,5751.139948995459,None,5751.139948995459,None,5751.139948995459,None,n,0.07842725632872316,5751.139948995459,None,sing11,001,2019_Oct_30_1608,ProdFawcett_Revision2019,3.2.4,59.88880507362226,
,,,,101,0,101,0,,,,,,,,,,,,,5755.4747801206695,None,,,,,,,,,,,,,,,,,,,,,,mechanical,A_silent,101,185,5751.775319400386,None,5751.775319400386,None,5751.775319400386,None,6,2.5784900789940366,5751.775319400386,None,5754.393133669217,None,5754.393133669217,None,5754.892325682652,None,5754.892325682652,None,5754.892325682652,None,r,0.5334838589287756,5754.892325682652,None,sing11,001,2019_Oct_30_1608,ProdFawcett_Revision2019,3.2.4,59.88880507362226,
,,,,102,0,102,0,,,,,,,,,,,,,5758.227209678423,None,,,,,,,,,,,,,,,,,,,,,,leader,D_new,102,168,5755.992485538347,None,5755.992485538347,None,5755.992485538347,None,2,1.6171490327797073,5755.992485538347,None,5757.642248864838,None,5757.642248864838,None,5758.158917086521,None,5758.158917086521,None,5758.158917086521,None,f,0.05058064315471711,5758.158917086521,None,sing11,001,2019_Oct_30_1608,ProdFawcett_Revision2019,3.2.4,59.88880507362226,
,,,,103,0,103,0,,,,,,,,,,,,,5761.67652453816,None,,,,,,,,,,,,,,,,,,,,,,phrase,A_silent,103,220,5758.759380792437,None,5758.759380792437,None,5758.759380792437,None,3,2.186101262673219,5758.759380792437,None,5760.993383093861,None,5760.993383093861,None,5761.510036387386,None,5761.510036387386,None,5761.510036387386,None,f,0.13156932263427734,5761.510036387386,None,sing11,001,2019_Oct_30_1608,ProdFawcett_Revision2019,3.2.4,59.88880507362226,
,,,,104,0,104,0,,,,,,,,,,,,,5764.527406854513,None,,,,,,,,,,,,,,,,,,,,,,style,C_sing,104,311,5762.179142252908,None,5762.179142252908,None,5762.179142252908,None,1,1.3502139702677596,5762.179142252908,None,5763.581511165018,None,5763.581511165018,None,5764.094113018598,None,5764.094113018598,None,5764.094113018598,None,n,0.4030344591647008,5764.094113018598,None,sing11,001,2019_Oct_30_1608,ProdFawcett_Revision2019,3.2.4,59.88880507362226,
,,,,105,0,105,0,,,,,,,,,,,,,5766.761505255956,None,,,,,,,,,,,,,,,,,,,,,,court,D_new,105,75,5765.033627853455,None,5765.033627853455,None,5765.033627853455,None,1,1.0634362754244648,5765.033627853455,None,5766.132561112148,None,5766.132561112148,None,5766.64814051129,None,5766.64814051129,None,5766.64814051129,None,n,0.07340051004484849,5766.64814051129,None,sing11,001,2019_Oct_30_1608,ProdFawcett_Revision2019,3.2.4,59.88880507362226,
,,,,106,0,106,0,,,,,,,,,,,,,5770.145939229956,None,,,,,,,,,,,,,,,,,,,,,,military,B_aloud,106,190,5767.2632590035455,None,5767.2632590035455,None,5767.2632590035455,None,6,1.7697564844183944,5767.2632590035455,None,5769.095543322759,None,5769.095543322759,None,5769.612366424084,None,5769.612366424084,None,5769.612366424084,None,r,0.5007697331584495,5769.612366424084,None,sing11,001,2019_Oct_30_1608,ProdFawcett_Revision2019,3.2.4,59.88880507362226,
,,,,107,0,107,0,,,,,,,,,,,,,5773.413653666729,None,,,,,,,,,,,,,,,,,,,,,,engineer,C_sing,107,114,5770.662725943896,None,5770.662725943896,None,5770.662725943896,None,6,1.5701072961373939,5770.662725943896,None,5772.279879952727,None,5772.279879952727,None,5772.796768053741,None,5772.796768053741,None,5772.796768053741,None,r,0.5801791378989947,5772.796768053741,None,sing11,001,2019_Oct_30_1608,ProdFawcett_Revision2019,3.2.4,59.88880507362226,
,,,,108,0,108,0,,,,,,,,,,,,,5777.464954593519,None,,,,,,,,,,,,,,,,,,,,,,track,B_aloud,108,334,5773.914741867264,None,5773.914741867264,None,5773.914741867264,None,2,2.198067736518169,5773.914741867264,None,5776.153702494246,None,5776.153702494246,None,5776.66465945139,None,5776.66465945139,None,5776.66465945139,None,f,0.7679458232260004,5776.66465945139,None,sing11,001,2019_Oct_30_1608,ProdFawcett_Revision2019,3.2.4,59.88880507362226,
,,,,109,0,109,0,,,,,,,,,,,,,5781.466115879828,None,,,,,,,,,,,,,,,,,,,,,,corner,B_aloud,109,69,5777.981742862475,None,5777.981742862475,None,5777.981742862475,None,6,1.8270815450641749,5777.981742862475,None,5779.865614853517,None,5779.865614853517,None,5780.382574796293,None,5780.382574796293,None,5780.382574796293,None,r,1.0501191142620883,5780.382574796293,None,sing11,001,2019_Oct_30_1608,ProdFawcett_Revision2019,3.2.4,59.88880507362226,
,,,,110,0,110,0,,,,,,,,,,,,,5784.383601418175,None,,,,,,,,,,,,,,,,,,,,,,skill,B_aloud,110,289,5781.982927163028,None,5781.982927163028,None,5781.982927163028,None,3,1.6973928593642995,5781.982927163028,None,5783.733454935623,None,5783.733454935623,None,5784.250321888412,None,5784.250321888412,None,5784.250321888412,None,f,0.08582478074276878,5784.250321888412,None,sing11,001,2019_Oct_30_1608,ProdFawcett_Revision2019,3.2.4,59.88880507362226,
,,,,111,0,111,0,,,,,,,,,,,,,5787.734708589911,None,,,,,,,,,,,,,,,,,,,,,,edition,D_new,111,107,5784.901106238726,None,5784.901106238726,None,5784.901106238726,None,3,2.1868622877409507,5784.901106238726,None,5787.151164396343,None,5787.151164396343,None,5787.668062449462,None,5787.668062449462,None,5787.668062449462,None,f,0.02824718542069604,5787.668062449462,None,sing11,001,2019_Oct_30_1608,ProdFawcett_Revision2019,3.2.4,59.88880507362226,
,,,,112,0,112,0,,,,,,,,,,,,,5790.769133544815,None,,,,,,,,,,,,,,,,,,,,,,department,D_new,112,90,5788.25283386204,None,5788.25283386204,None,5788.25283386204,None,1,1.7237112023385635,5788.25283386204,None,5790.023481370903,None,5790.023481370903,None,5790.53550569136,None,5790.53550569136,None,5790.53550569136,None,n,0.18428531442441454,5790.53550569136,None,sing11,001,2019_Oct_30_1608,ProdFawcett_Revision2019,3.2.4,59.88880507362226,
,,,,113,0,113,0,,,,,,,,,,,,,5793.738501275114,None,,,,,,,,,,,,,,,,,,,,,,treatment,B_aloud,113,339,5791.2857240156745,None,5791.2857240156745,None,5791.2857240156745,None,6,1.7539086894321372,5791.2857240156745,None,5793.09065279592,None,5793.09065279592,None,5793.619744666294,None,5793.619744666294,None,5793.619744666294,None,r,0.10005971263308311,5793.619744666294,None,sing11,001,2019_Oct_30_1608,ProdFawcett_Revision2019,3.2.4,59.88880507362226,
,,,,114,0,114,0,,,,,,,,,,,,,5798.421418797039,None,,,,,,,,,,,,,,,,,,,,,,author,D_new,114,15,5794.270078683834,None,5794.270078683834,None,5794.270078683834,None,2,1.9373673570944447,5794.270078683834,None,5796.270590906263,None,5796.270590906263,None,5796.787568576227,None,5796.787568576227,None,5796.787568576227,None,n,1.595878584313141,5796.787568576227,None,sing11,001,2019_Oct_30_1608,ProdFawcett_Revision2019,3.2.4,59.88880507362226,
,,,,115,0,115,0,,,,,,,,,,,,,5801.855891024445,None,,,,,,,,,,,,,,,,,,,,,,substance,D_new,115,313,5798.9380512533435,None,5798.9380512533435,None,5798.9380512533435,None,2,1.6775309448275948,5798.9380512533435,None,5800.6608913354485,None,5800.6608913354485,None,5801.1721851091625,None,5801.1721851091625,None,5801.1721851091625,None,n,0.6509883684766464,5801.1721851091625,None,sing11,001,2019_Oct_30_1608,ProdFawcett_Revision2019,3.2.4,59.88880507362226,
,,,,116,0,116,0,,,,,,,,,,,,,5805.19014337252,None,,,,,,,,,,,,,,,,,,,,,,strength,A_silent,116,310,5802.374012564534,None,5802.374012564534,None,5802.374012564534,None,2,2.041595757914365,5802.374012564534,None,5804.462342165827,None,5804.462342165827,None,5804.989943086397,None,5804.989943086397,None,5804.989943086397,None,n,0.16104061703026673,5804.989943086397,None,sing11,001,2019_Oct_30_1608,ProdFawcett_Revision2019,3.2.4,59.88880507362226,
,,,,117,0,117,0,,,,,,,,,,,,,5808.691171549419,None,,,,,,,,,,,,,,,,,,,,,,crime,C_sing,117,78,5805.7068454935625,None,5805.7068454935625,None,5805.7068454935625,None,6,1.6762032717551847,5805.7068454935625,None,5807.427691733533,None,5807.427691733533,None,5807.957671829322,None,5807.957671829322,None,5807.957671829322,None,r,0.6970625738631497,5807.957671829322,None,sing11,001,2019_Oct_30_1608,ProdFawcett_Revision2019,3.2.4,59.88880507362226,
,,,,118,0,118,0,,,,,,,,,,,,,5812.342464701126,None,,,,,,,,,,,,,,,,,,,,,,captain,D_new,118,41,5809.209155937053,None,5809.209155937053,None,5809.209155937053,None,2,2.117380730235709,5809.209155937053,None,5811.392276855135,None,5811.392276855135,None,5811.909185171363,None,5811.909185171363,None,5811.909185171363,None,n,0.38527554892061744,5811.909185171363,None,sing11,001,2019_Oct_30_1608,ProdFawcett_Revision2019,3.2.4,59.88880507362226,
,,,,119,0,119,0,,,,,,,,,,,,,5815.579630528084,None,,,,,,,,,,,,,,,,,,,,,,front,A_silent,119,134,5812.8424329787895,None,5812.8424329787895,None,5812.8424329787895,None,1,2.0442504820548493,5812.8424329787895,None,5814.929857871493,None,5814.929857871493,None,5815.459859115507,None,5815.459859115507,None,5815.459859115507,None,n,0.09867046090676013,5815.459859115507,None,sing11,001,2019_Oct_30_1608,ProdFawcett_Revision2019,3.2.4,59.88880507362226,
,,,,120,0,120,0,,,,,,,,,,,,,5818.277784101511,None,,,,,,,,,,,,,,,,,,,,,,match,C_sing,120,181,5816.100009952105,None,5816.100009952105,None,5816.100009952105,None,1,1.5383722087453862,5816.100009952105,None,5817.683577781924,None,5817.683577781924,None,5818.211007961684,None,5818.211007961684,None,5818.211007961684,None,n,0.027612427691565244,5818.211007961684,None,sing11,001,2019_Oct_30_1608,ProdFawcett_Revision2019,3.2.4,59.88880507362226,
,,,,121,0,121,0,,,,,,,,,,,,,5820.678598619145,None,,,,,,,,,,,,,,,,,,,,,,colonel,A_silent,121,55,5818.794212850657,None,5818.794212850657,None,5818.794212850657,None,1,1.2358509050200155,5818.794212850657,None,5820.084506748772,None,5820.084506748772,None,5820.611850780619,None,5820.611850780619,None,5820.611850780619,None,n,0.01810972196290095,5820.611850780619,None,sing11,001,2019_Oct_30_1608,ProdFawcett_Revision2019,3.2.4,59.88880507362226,
,,,,122,0,122,0,,,,,,,,,,,,,5825.262991540711,None,,,,,,,,,,,,,,,,,,,,,,series,B_aloud,122,279,5821.195067798719,None,5821.195067798719,None,5821.195067798719,None,1,2.2594321079805013,5821.195067798719,None,5823.501653604529,None,5823.501653604529,None,5824.0129825216145,None,5824.0129825216145,None,5824.0129825216145,None,n,1.2168097281828523,5824.0129825216145,None,sing11,001,2019_Oct_30_1608,ProdFawcett_Revision2019,3.2.4,59.88880507362226,
,,,,123,0,123,0,,,,,,,,,,,,,5827.897291161286,None,,,,,,,,,,,,,,,,,,,,,,pressure,D_new,123,232,5825.769348137091,None,5825.769348137091,None,5825.769348137091,None,1,1.1244349070102544,5825.769348137091,None,5826.946941593581,None,5826.946941593581,None,5827.463570006842,None,5827.463570006842,None,5827.463570006842,None,n,0.39829103688498435,5827.463570006842,None,sing11,001,2019_Oct_30_1608,ProdFawcett_Revision2019,3.2.4,59.88880507362226,
,,,,124,0,124,0,,,,,,,,,,,,,5830.0478158238475,None,,,,,,,,,,,,,,,,,,,,,,sweet,D_new,124,319,5828.414217826709,None,5828.414217826709,None,5828.414217826709,None,1,0.9757246376811963,5828.414217826709,None,5829.447543073957,None,5829.447543073957,None,5829.964469117373,None,5829.964469117373,None,5829.964469117373,None,n,0.049521365926921135,5829.964469117373,None,sing11,001,2019_Oct_30_1608,ProdFawcett_Revision2019,3.2.4,59.88880507362226,
,,,,125,0,125,0,,,,,,,,,,,,,5833.749018162593,None,,,,,,,,,,,,,,,,,,,,,,passage,C_sing,125,212,5830.564996267961,None,5830.564996267961,None,5830.564996267961,None,3,1.4169216893697012,5830.564996267961,None,5832.048342352429,None,5832.048342352429,None,5832.565264352802,None,5832.565264352802,None,5832.565264352802,None,f,1.144485289543809,5832.565264352802,None,sing11,001,2019_Oct_30_1608,ProdFawcett_Revision2019,3.2.4,59.88880507362226,
,,,,126,0,126,0,,,,,,,,,,,,,5838.733781800087,None,,,,,,,,,,,,,,,,,,,,,,cousin,D_new,126,76,5834.266294706724,None,5834.266294706724,None,5834.266294706724,None,6,3.1547228960625944,5834.266294706724,None,5837.470810785594,None,5837.470810785594,None,5837.983527088388,None,5837.983527088388,None,5837.983527088388,None,r,0.7176519251097488,5837.983527088388,None,sing11,001,2019_Oct_30_1608,ProdFawcett_Revision2019,3.2.4,59.88880507362226,
,,,,127,0,127,0,,,,,,,,,,,,,5843.238906201406,None,,,,,,,,,,,,,,,,,,,,,,charter,B_aloud,127,47,5839.250976239348,None,5839.250976239348,None,5839.250976239348,None,6,2.7939649810286937,5839.250976239348,None,5842.073198046899,None,5842.073198046899,None,5842.60203862661,None,5842.60203862661,None,5842.60203862661,None,r,0.6108291347891281,5842.60203862661,None,sing11,001,2019_Oct_30_1608,ProdFawcett_Revision2019,3.2.4,59.88880507362226,
,,,,128,0,128,0,,,,,,,,,,,,,5845.952706039684,None,,,,,,,,,,,,,,,,,,,,,,rough,D_new,128,266,5843.768732350563,None,5843.768732350563,None,5843.768732350563,None,3,1.4679206319588047,5843.768732350563,None,5845.2857924364,None,5845.2857924364,None,5845.787737451017,None,5845.787737451017,None,5845.787737451017,None,f,0.12158673881913273,5845.787737451017,None,sing11,001,2019_Oct_30_1608,ProdFawcett_Revision2019,3.2.4,59.88880507362226,
,,,,129,0,129,0,,,,,,,,,,,,,5849.170415189401,None,,,,,,,,,,,,,,,,,,,,,,burden,C_sing,129,36,5846.459142252908,None,5846.459142252908,None,5846.459142252908,None,3,1.8574015674566908,5846.459142252908,None,5848.370035143373,None,5848.370035143373,None,5848.8868940100765,None,5848.8868940100765,None,5848.8868940100765,None,f,0.24553337065390224,5848.8868940100765,None,sing11,001,2019_Oct_30_1608,ProdFawcett_Revision2019,3.2.4,59.88880507362226,
,,,,130,0,130,0,,,,,,,,,,,,,5853.488418548237,None,,,,,,,,,,,,,,,,,,,,,,bureau,B_aloud,130,37,5849.687061329851,None,5849.687061329851,None,5849.687061329851,None,6,2.2775729302729815,5849.687061329851,None,5852.007273123095,None,5852.007273123095,None,5852.521487839771,None,5852.521487839771,None,5852.521487839771,None,r,0.9232291472289944,5852.521487839771,None,sing11,001,2019_Oct_30_1608,ProdFawcett_Revision2019,3.2.4,59.88880507362226,
,,,,131,0,131,0,,,,,,,,,,,,,5856.639470050382,None,,,,,,,,,,,,,,,,,,,,,,sight,C_sing,131,286,5854.005134353424,None,5854.005134353424,None,5854.005134353424,None,2,1.830868010200902,5854.005134353424,None,5855.875787460347,None,5855.875787460347,None,5856.405872986254,None,5856.405872986254,None,5856.405872986254,None,n,0.1983028550102972,5856.405872986254,None,sing11,001,2019_Oct_30_1608,ProdFawcett_Revision2019,3.2.4,59.88880507362226,
,,,,132,0,132,0,,,,,,,,,,,,,5860.774247994029,None,,,,,,,,,,,,,,,,,,,,,,safety,D_new,132,270,5857.156053368166,None,5857.156053368166,None,5857.156053368166,None,6,2.792525346769253,5857.156053368166,None,5859.992282453194,None,5859.992282453194,None,5860.491433103191,None,5860.491433103191,None,5860.491433103191,None,r,0.25668470485743455,5860.491433103191,None,sing11,001,2019_Oct_30_1608,ProdFawcett_Revision2019,3.2.4,59.88880507362226,
,,,,133,0,133,0,,,,,,,,,,,,,5867.2426363749455,None,,,,,,,,,,,,,,,,,,,,,,ground,B_aloud,133,142,5861.290855259066,None,5861.290855259066,None,5861.290855259066,None,2,2.7930481433104433,5861.290855259066,None,5864.141726690303,None,5864.141726690303,None,5864.658429122349,None,5864.658429122349,None,5864.658429122349,None,n,2.5369052061960247,5864.658429122349,None,sing11,001,2019_Oct_30_1608,ProdFawcett_Revision2019,3.2.4,59.88880507362226,
,,,,134,0,134,0,,,,,,,,,,,,,5871.627271879082,None,,,,,,,,,,,,,,,,,,,,,,husband,B_aloud,134,156,5867.759410959757,None,5867.759410959757,None,5867.759410959757,None,6,1.8441662001623627,5867.759410959757,None,5869.6433591466075,None,5869.6433591466075,None,5870.147017167382,None,5870.147017167382,None,5870.147017167382,None,r,1.4404406916710286,5870.147017167382,None,sing11,001,2019_Oct_30_1608,ProdFawcett_Revision2019,3.2.4,59.88880507362226,
,,,,135,0,135,0,,,,,,,,,,,,,5876.979042109847,None,,,,,,,,,,,,,,,,,,,,,,background,D_new,135,16,5872.146215400883,None,5872.146215400883,None,5872.146215400883,None,2,3.7769531007024852,5872.146215400883,None,5875.978616657337,None,5875.978616657337,None,5876.495494184239,None,5876.495494184239,None,5876.495494184239,None,n,0.435376002985322,5876.495494184239,None,sing11,001,2019_Oct_30_1608,ProdFawcett_Revision2019,3.2.4,59.88880507362226,
,,,,136,0,136,0,,,,,,,,,,,,,5880.5467972880515,None,,,,,,,,,,,,,,,,,,,,,,debate,D_new,136,87,5877.495714063569,None,5877.495714063569,None,5877.495714063569,None,2,2.0027722833865482,5877.495714063569,None,5879.546713006158,None,5879.546713006158,None,5880.063195869877,None,5880.063195869877,None,5880.063195869877,None,n,0.4354879641723528,5880.063195869877,None,sing11,001,2019_Oct_30_1608,ProdFawcett_Revision2019,3.2.4,59.88880507362226,
,,,,137,0,137,0,,,,,,,,,,,,,5884.714649188281,None,,,,,,,,,,,,,,,,,,,,,,shape,B_aloud,137,282,5881.063803259315,None,5881.063803259315,None,5881.063803259315,None,3,2.6186406045899275,5881.063803259315,None,5883.737989363687,None,5883.737989363687,None,5884.264631772097,None,5884.264631772097,None,5884.264631772097,None,f,0.4258704982275958,5884.264631772097,None,sing11,001,2019_Oct_30_1608,ProdFawcett_Revision2019,3.2.4,59.88880507362226,
,,,,138,0,138,0,,,,,,,,,,,,,5887.682319773589,None,,,,,,,,,,,,,,,,,,,,,,resistance,A_silent,138,262,5885.216869751819,None,5885.216869751819,None,5885.216869751819,None,6,1.64154133233842,5885.216869751819,None,5886.885361074827,None,5886.885361074827,None,5887.399632705107,None,5887.399632705107,None,5887.399632705107,None,r,0.24288953162886173,5887.399632705107,None,sing11,001,2019_Oct_30_1608,ProdFawcett_Revision2019,3.2.4,59.88880507362226,
,,,,139,0,139,0,,,,,,,,,,,,,5892.533747278721,None,,,,,,,,,,,,,,,,,,,,,,beauty,B_aloud,139,18,5888.199149716987,None,5888.199149716987,None,5888.199149716987,None,6,3.4436042172046655,5888.199149716987,None,5891.6906195185675,None,5891.6906195185675,None,5892.2174339118,None,5892.2174339118,None,5892.2174339118,None,r,0.27323132425226504,5892.2174339118,None,sing11,001,2019_Oct_30_1608,ProdFawcett_Revision2019,3.2.4,59.88880507362226,
,,,,140,0,140,0,,,,,,,,,,,,,5899.553235367295,None,,,,,,,,,,,,,,,,,,,,,,congress,D_new,140,67,5893.0506045904085,None,5893.0506045904085,None,5893.0506045904085,None,2,1.8953962181994939,5893.0506045904085,None,5894.984648566275,None,5894.984648566275,None,5895.501679417802,None,5895.501679417802,None,5895.501679417802,None,f,4.012254462897545,5895.501679417802,None,sing11,001,2019_Oct_30_1608,ProdFawcett_Revision2019,3.2.4,59.88880507362226,
,,,,141,0,141,0,,,,,,,,,,,,,5904.3208617901355,None,,,,,,,,,,,,,,,,,,,,,,instrument,D_new,141,163,5900.071594824905,None,5900.071594824905,None,5900.071594824905,None,6,2.953726752503826,5900.071594824905,None,5903.075545188779,None,5903.075545188779,None,5903.587257261927,None,5903.587257261927,None,5903.587257261927,None,r,0.6859168377186506,5903.587257261927,None,sing11,001,2019_Oct_30_1608,ProdFawcett_Revision2019,3.2.4,59.88880507362226,
,,,,142,0,142,0,,,,,,,,,,,,,5907.478080798656,None,,,,,,,,,,,,,,,,,,,,,,pancakes,C_sing,142,210,5904.837588480438,None,5904.837588480438,None,5904.837588480438,None,6,1.9795201219130831,5904.837588480438,None,5906.85497543074,None,5906.85497543074,None,5907.373518380295,None,5907.373518380295,None,5907.373518380295,None,r,0.07567923119950137,5907.373518380295,None,sing11,001,2019_Oct_30_1608,ProdFawcett_Revision2019,3.2.4,59.88880507362226,
,,,,143,0,143,0,,,,,,,,,,,,,5911.489644212229,None,,,,,,,,,,,,,,,,,,,,,,listen,D_new,143,172,5908.005578155128,None,5908.005578155128,None,5908.005578155128,None,3,1.515379424022285,5908.005578155128,None,5909.572359582012,None,5909.572359582012,None,5910.08929806556,None,5910.08929806556,None,5910.08929806556,None,f,1.3598317472169583,5910.08929806556,None,sing11,001,2019_Oct_30_1608,ProdFawcett_Revision2019,3.2.4,59.88880507362226,
,,,,144,0,144,0,,,,,,,,,,,,,5914.674003234434,None,,,,,,,,,,,,,,,,,,,,,,death,C_sing,144,86,5911.994566461404,None,5911.994566461404,None,5911.994566461404,None,6,1.4224830503208068,5911.994566461404,None,5913.4738489768,None,5913.4738489768,None,5913.990477390061,None,5913.990477390061,None,5913.990477390061,None,r,0.6341590470856318,5913.990477390061,None,sing11,001,2019_Oct_30_1608,ProdFawcett_Revision2019,3.2.4,59.88880507362226,
,,,,145,0,145,0,,,,,,,,,,,,,5918.275141195497,None,,,,,,,,,,,,,,,,,,,,,,division,D_new,145,101,5915.19101604777,None,5915.19101604777,None,5915.19101604777,None,6,1.9855159544686103,5915.19101604777,None,5917.231095042607,None,5917.231095042607,None,5917.7582764197305,None,5917.7582764197305,None,5917.7582764197305,None,r,0.47484076631189964,5917.7582764197305,None,sing11,001,2019_Oct_30_1608,ProdFawcett_Revision2019,3.2.4,59.88880507362226,
,,,,146,0,146,0,,,,,,,,,,,,,5921.309452945201,None,,,,,,,,,,,,,,,,,,,,,,evidence,D_new,146,120,5918.792409653543,None,5918.792409653543,None,5918.792409653543,None,6,1.5118607327231075,5918.792409653543,None,5920.3423580269955,None,5920.3423580269955,None,5920.859278472352,None,5920.859278472352,None,5920.859278472352,None,r,0.4129501772722506,5920.859278472352,None,sing11,001,2019_Oct_30_1608,ProdFawcett_Revision2019,3.2.4,59.88880507362226,
,,,,147,0,147,0,,,,,,,,,,,,,5924.293493500031,None,,,,,,,,,,,,,,,,,,,,,,appeal,B_aloud,147,9,5921.826636499347,None,5921.826636499347,None,5921.826636499347,None,4,1.7420594638306284,5921.826636499347,None,5923.613622877403,None,5923.613622877403,None,5924.1269820240095,None,5924.1269820240095,None,5924.1269820240095,None,f,0.12103097592807899,5924.1269820240095,None,sing11,001,2019_Oct_30_1608,ProdFawcett_Revision2019,3.2.4,59.88880507362226,
,,,,148,0,148,0,,,,,,,,,,,,,5927.461322075014,None,,,,,,,,,,,,,,,,,,,,,,territory,B_aloud,148,324,5924.812553648068,None,5924.812553648068,None,5924.812553648068,None,4,1.9721169994400043,5924.812553648068,None,5926.844401940661,None,5926.844401940661,None,5927.3620958512165,None,5927.3620958512165,None,5927.3620958512165,None,f,0.061681905827754235,5927.3620958512165,None,sing11,001,2019_Oct_30_1608,ProdFawcett_Revision2019,3.2.4,59.88880507362226,
,,,,149,0,149,0,,,,,,,,,,,,,5931.22906512409,None,,,,,,,,,,,,,,,,,,,,,,plane,C_sing,149,223,5927.9781744106485,None,5927.9781744106485,None,5927.9781744106485,None,6,1.5098028239099222,5927.9781744106485,None,5929.545209616222,None,5929.545209616222,None,5930.062157429869,None,5930.062157429869,None,5930.062157429869,None,r,1.1216470734589166,5930.062157429869,None,sing11,001,2019_Oct_30_1608,ProdFawcett_Revision2019,3.2.4,59.88880507362226,
,,,,150,0,150,0,,,,,,,,,,,,,5935.969632394103,None,,,,,,,,,,,,,,,,,,,,,,broke,C_sing,150,32,5931.746902407166,None,5931.746902407166,None,5931.746902407166,None,2,1.3490962244195543,5931.746902407166,None,5933.133186228774,None,5933.133186228774,None,5933.646562169559,None,5933.646562169559,None,5933.646562169559,None,n,2.288950985880547,5933.646562169559,None,sing11,001,2019_Oct_30_1608,ProdFawcett_Revision2019,3.2.4,59.88880507362226,
,,,,151,0,151,0,,,,,,,,,,,,,5939.048152329415,None,,,,,,,,,,,,,,,,,,,,,,suspect,B_aloud,151,318,5936.497668719288,None,5936.497668719288,None,5936.497668719288,None,5,1.8535364184863283,5936.497668719288,None,5938.400247558624,None,5938.400247558624,None,5938.931539466318,None,5938.931539466318,None,5938.931539466318,None,f,0.07617528145783581,5938.931539466318,None,sing11,001,2019_Oct_30_1608,ProdFawcett_Revision2019,3.2.4,59.88880507362226,
,,,,152,0,152,0,,,,,,,,,,,,,5942.115775953225,None,,,,,,,,,,,,,,,,,,,,,,comfort,A_silent,152,59,5939.564920072153,None,5939.564920072153,None,5939.564920072153,None,6,1.4663099458857687,5939.564920072153,None,5941.052099894259,None,5941.052099894259,None,5941.58237451017,None,5941.58237451017,None,5941.58237451017,None,r,0.4967804938733025,5941.58237451017,None,sing11,001,2019_Oct_30_1608,ProdFawcett_Revision2019,3.2.4,59.88880507362226,
,,,,153,0,153,0,,,,,,,,,,,,,5946.000274304908,None,,,,,,,,,,,,,,,,,,,,,,partner,D_new,153,211,5942.633818498476,None,5942.633818498476,None,5942.633818498476,None,6,1.7495244759593334,5942.633818498476,None,5944.433221994153,None,5944.433221994153,None,5944.950128755365,None,5944.950128755365,None,5944.950128755365,None,r,1.0093531131424243,5944.950128755365,None,sing11,001,2019_Oct_30_1608,ProdFawcett_Revision2019,3.2.4,59.88880507362226,
,,,,154,0,154,0,,,,,,,,,,,,,5949.551376811594,None,,,,,,,,,,,,,,,,,,,,,,goose,D_new,154,138,5946.517119176463,None,5946.517119176463,None,5946.517119176463,None,1,2.385403060272438,5946.517119176463,None,5948.955973440318,None,5948.955973440318,None,5949.469982583815,None,5949.469982583815,None,5949.469982583815,None,n,0.04872550848995161,5949.469982583815,None,sing11,001,2019_Oct_30_1608,ProdFawcett_Revision2019,3.2.4,59.88880507362226,
,,,,155,0,155,0,,,,,,,,,,,,,5952.469067301114,None,,,,,,,,,,,,,,,,,,,,,,novel,D_new,155,202,5950.068080487654,None,5950.068080487654,None,5950.068080487654,None,1,1.2665472414009855,5950.068080487654,None,5951.355945450022,None,5951.355945450022,None,5951.88545748585,None,5951.88545748585,None,5951.88545748585,None,n,0.5450031100326669,5951.88545748585,None,sing11,001,2019_Oct_30_1608,ProdFawcett_Revision2019,3.2.4,59.88880507362226,
