StudyTrials.thisRepN,StudyTrials.thisTrialN,StudyTrials.thisN,StudyTrials.thisIndex,TestTrials.thisRepN,TestTrials.thisTrialN,TestTrials.thisN,TestTrials.thisIndex,textWelcome.started,textWelcome.stopped,keyWelcome.keys,keyWelcome.rt,keyWelcome.started,keyWelcome.stopped,textReady.started,textReady.stopped,keyReady.keys,keyReady.rt,keyReady.started,keyReady.stopped,polyback_2.started,polyback_2.stopped,studyPic,studyWord,studyType,studyN,studyOrder,polyback_3.started,polyback_3.stopped,studyPicChoice.started,studyPicChoice.stopped,polyback_4.started,polyback_4.stopped,polyback.started,polyback.stopped,studyWords.started,studyWords.stopped,getResearcher.started,getResearcher.stopped,kPress2.keys,kPress2.rt,kPress2.started,kPress2.stopped,testWord,testType,testN,testOrder,polyback_5.started,polyback_5.stopped,testWords.started,testWords.stopped,textScale.started,textScale.stopped,keyConf.keys,keyConf.rt,keyConf.started,keyConf.stopped,polyback_6.started,polyback_6.stopped,studyWords_2.started,studyWords_2.stopped,polyback_7.started,polyback_7.stopped,testWords_2.started,testWords_2.stopped,textScale_2.started,textScale_2.stopped,keyRKN.keys,keyRKN.rt,keyRKN.started,keyRKN.stopped,participant,session,date,expName,psychopyVersion,frameRate,
,,,,,,,,18.773570499994094,None,space,434.637075799983,18.773570499994094,None,,,,,,,,,,,,,,,,,,,,,,,,,,,,,,,,,,,,,,,,,,,,,,,,,,,,,,,,,,sing35,001,2019_Nov_14_1504,ProdFawcett_Revision2019,3.2.3,59.58967740359094,
,,,,,,,,,,,,,,453.4389607000048,None,space,10.795704299991485,453.4389607000048,None,,,,,,,,,,,,,,,,,,,,,,,,,,,,,,,,,,,,,,,,,,,,,,,,,,,,sing35,001,2019_Nov_14_1504,ProdFawcett_Revision2019,3.2.3,59.58967740359094,
0,0,0,0,,,,,,,,,,,,,,,,,469.01891949999845,None,materials/speakPic.jpg,tough,B_aloud,0,333,465.3743556999834,None,465.3743556999834,None,466.2693762999843,None,466.51801939998404,None,466.51801939998404,None,,,,,,,,,,,,,,,,,,,,,,,,,,,,,,,,,,,sing35,001,2019_Nov_14_1504,ProdFawcett_Revision2019,3.2.3,59.58967740359094,
1,0,1,0,,,,,,,,,,,,,,,,,473.28501359999063,None,materials/singPic.jpg,bucket,C_sing,1,33,469.5878326999955,None,469.5878326999955,None,470.5356727000035,None,470.7923283999844,None,470.7923283999844,None,,,,,,,,,,,,,,,,,,,,,,,,,,,,,,,,,,,sing35,001,2019_Nov_14_1504,ProdFawcett_Revision2019,3.2.3,59.58967740359094,
2,0,2,0,,,,,,,,,,,,,,,,,477.55238629999803,None,materials/singPic.jpg,fight,C_sing,2,127,473.8374230999907,None,473.8374230999907,None,474.80147969999234,None,475.05709580000257,None,475.05709580000257,None,,,,,,,,,,,,,,,,,,,,,,,,,,,,,,,,,,,sing35,001,2019_Nov_14_1504,ProdFawcett_Revision2019,3.2.3,59.58967740359094,
3,0,3,0,,,,,,,,,,,,,,,,,481.8194064999989,None,materials/readPic.jpg,watch,A_silent,3,351,478.10099420000915,None,478.10099420000915,None,479.06873719999567,None,479.31954989998485,None,479.31954989998485,None,,,,,,,,,,,,,,,,,,,,,,,,,,,,,,,,,,,sing35,001,2019_Nov_14_1504,ProdFawcett_Revision2019,3.2.3,59.58967740359094,
4,0,4,0,,,,,,,,,,,,,,,,,486.08583799999906,None,materials/readPic.jpg,surprise,A_silent,4,317,482.3621438999835,None,482.3621438999835,None,483.33562410000013,None,483.58573819999583,None,483.58573819999583,None,,,,,,,,,,,,,,,,,,,,,,,,,,,,,,,,,,,sing35,001,2019_Nov_14_1504,ProdFawcett_Revision2019,3.2.3,59.58967740359094,
5,0,5,0,,,,,,,,,,,,,,,,,490.352756200009,None,materials/singPic.jpg,symbol,C_sing,5,321,486.6663941000006,None,486.6663941000006,None,487.60252849999233,None,487.86790769998333,None,487.86790769998333,None,,,,,,,,,,,,,,,,,,,,,,,,,,,,,,,,,,,sing35,001,2019_Nov_14_1504,ProdFawcett_Revision2019,3.2.3,59.58967740359094,
6,0,6,0,,,,,,,,,,,,,,,,,494.6210560000036,None,materials/singPic.jpg,trend,C_sing,6,340,490.9185647999984,None,490.9185647999984,None,491.87163310000324,None,492.12762019998627,None,492.12762019998627,None,,,,,,,,,,,,,,,,,,,,,,,,,,,,,,,,,,,sing35,001,2019_Nov_14_1504,ProdFawcett_Revision2019,3.2.3,59.58967740359094,
7,0,7,0,,,,,,,,,,,,,,,,,498.8882082999917,None,materials/singPic.jpg,youth,C_sing,7,359,495.22518340000533,None,495.22518340000533,None,496.1405759000045,None,496.3867261999985,None,496.3867261999985,None,,,,,,,,,,,,,,,,,,,,,,,,,,,,,,,,,,,sing35,001,2019_Nov_14_1504,ProdFawcett_Revision2019,3.2.3,59.58967740359094,
8,0,8,0,,,,,,,,,,,,,,,,,503.15496939999866,None,materials/singPic.jpg,generation,C_sing,8,136,499.49898509998457,None,499.49898509998457,None,500.4049117999966,None,500.66718289998244,None,500.66718289998244,None,,,,,,,,,,,,,,,,,,,,,,,,,,,,,,,,,,,sing35,001,2019_Nov_14_1504,ProdFawcett_Revision2019,3.2.3,59.58967740359094,
9,0,9,0,,,,,,,,,,,,,,,,,507.4204385000048,None,materials/readPic.jpg,center,A_silent,9,44,503.7553934000025,None,503.7553934000025,None,504.6710260999971,None,504.93056700000307,None,504.93056700000307,None,,,,,,,,,,,,,,,,,,,,,,,,,,,,,,,,,,,sing35,001,2019_Nov_14_1504,ProdFawcett_Revision2019,3.2.3,59.58967740359094,
10,0,10,0,,,,,,,,,,,,,,,,,511.6881609999982,None,materials/singPic.jpg,company,C_sing,10,64,507.9822244999814,None,507.9822244999814,None,508.93892990000313,None,509.1877974999952,None,509.1877974999952,None,,,,,,,,,,,,,,,,,,,,,,,,,,,,,,,,,,,sing35,001,2019_Nov_14_1504,ProdFawcett_Revision2019,3.2.3,59.58967740359094,
11,0,11,0,,,,,,,,,,,,,,,,,515.9559054999845,None,materials/singPic.jpg,error,C_sing,11,117,512.2788290999888,None,512.2788290999888,None,513.2059962000058,None,513.4640537000087,None,513.4640537000087,None,,,,,,,,,,,,,,,,,,,,,,,,,,,,,,,,,,,sing35,001,2019_Nov_14_1504,ProdFawcett_Revision2019,3.2.3,59.58967740359094,
12,0,12,0,,,,,,,,,,,,,,,,,520.2227095999988,None,materials/singPic.jpg,minute,C_sing,12,192,516.5746971000044,None,516.5746971000044,None,517.4752489000093,None,517.7272962999996,None,517.7272962999996,None,,,,,,,,,,,,,,,,,,,,,,,,,,,,,,,,,,,sing35,001,2019_Nov_14_1504,ProdFawcett_Revision2019,3.2.3,59.58967740359094,
13,0,13,0,,,,,,,,,,,,,,,,,524.4891037000052,None,materials/readPic.jpg,crowd,A_silent,13,81,520.7950977,None,520.7950977,None,521.7391179999977,None,522.0026203999878,None,522.0026203999878,None,,,,,,,,,,,,,,,,,,,,,,,,,,,,,,,,,,,sing35,001,2019_Nov_14_1504,ProdFawcett_Revision2019,3.2.3,59.58967740359094,
14,0,14,0,,,,,,,,,,,,,,,,,528.7556960000074,None,materials/readPic.jpg,community,A_silent,14,63,525.0283746999921,None,525.0283746999921,None,526.0058563000057,None,526.2638029000082,None,526.2638029000082,None,,,,,,,,,,,,,,,,,,,,,,,,,,,,,,,,,,,sing35,001,2019_Nov_14_1504,ProdFawcett_Revision2019,3.2.3,59.58967740359094,
15,0,15,0,,,,,,,,,,,,,,,,,533.0239739000099,None,materials/speakPic.jpg,light,B_aloud,15,171,529.326059199986,None,529.326059199986,None,530.27426559999,None,530.5332871999999,None,530.5332871999999,None,,,,,,,,,,,,,,,,,,,,,,,,,,,,,,,,,,,sing35,001,2019_Nov_14_1504,ProdFawcett_Revision2019,3.2.3,59.58967740359094,
16,0,16,0,,,,,,,,,,,,,,,,,537.2890703000012,None,materials/singPic.jpg,accident,C_sing,16,0,533.6380593999929,None,533.6380593999929,None,534.5414081999916,None,534.7890556000057,None,534.7890556000057,None,,,,,,,,,,,,,,,,,,,,,,,,,,,,,,,,,,,sing35,001,2019_Nov_14_1504,ProdFawcett_Revision2019,3.2.3,59.58967740359094,
17,0,17,0,,,,,,,,,,,,,,,,,541.5576116000011,None,materials/readPic.jpg,little,A_silent,17,174,537.9234548999812,None,537.9234548999812,None,538.8078161999874,None,539.0639892999898,None,539.0639892999898,None,,,,,,,,,,,,,,,,,,,,,,,,,,,,,,,,,,,sing35,001,2019_Nov_14_1504,ProdFawcett_Revision2019,3.2.3,59.58967740359094,
18,0,18,0,,,,,,,,,,,,,,,,,545.823914699984,None,materials/readPic.jpg,running,A_silent,18,268,542.1643794999982,None,542.1643794999982,None,543.0730819999881,None,543.3302286999824,None,543.3302286999824,None,,,,,,,,,,,,,,,,,,,,,,,,,,,,,,,,,,,sing35,001,2019_Nov_14_1504,ProdFawcett_Revision2019,3.2.3,59.58967740359094,
19,0,19,0,,,,,,,,,,,,,,,,,550.09050749999,None,materials/readPic.jpg,owner,A_silent,19,208,546.3653598999954,None,546.3653598999954,None,547.3433611000073,None,547.6018639999966,None,547.6018639999966,None,,,,,,,,,,,,,,,,,,,,,,,,,,,,,,,,,,,sing35,001,2019_Nov_14_1504,ProdFawcett_Revision2019,3.2.3,59.58967740359094,
20,0,20,0,,,,,,,,,,,,,,,,,554.3583604999876,None,materials/readPic.jpg,broke,A_silent,20,32,550.685038399999,None,550.685038399999,None,551.6103210999863,None,551.8676104999904,None,551.8676104999904,None,,,,,,,,,,,,,,,,,,,,,,,,,,,,,,,,,,,sing35,001,2019_Nov_14_1504,ProdFawcett_Revision2019,3.2.3,59.58967740359094,
21,0,21,0,,,,,,,,,,,,,,,,,558.6256827999896,None,materials/readPic.jpg,drama,A_silent,21,103,554.983252999984,None,554.983252999984,None,555.8756222999946,None,556.123911600007,None,556.123911600007,None,,,,,,,,,,,,,,,,,,,,,,,,,,,,,,,,,,,sing35,001,2019_Nov_14_1504,ProdFawcett_Revision2019,3.2.3,59.58967740359094,
22,0,22,0,,,,,,,,,,,,,,,,,562.8926134000067,None,materials/singPic.jpg,captain,C_sing,22,41,559.2363824000058,None,559.2363824000058,None,560.1478422000073,None,560.4028555999976,None,560.4028555999976,None,,,,,,,,,,,,,,,,,,,,,,,,,,,,,,,,,,,sing35,001,2019_Nov_14_1504,ProdFawcett_Revision2019,3.2.3,59.58967740359094,
23,0,23,0,,,,,,,,,,,,,,,,,567.1584758999816,None,materials/singPic.jpg,cross,C_sing,23,80,563.4801910000097,None,563.4801910000097,None,564.4091831999831,None,564.6620021999988,None,564.6620021999988,None,,,,,,,,,,,,,,,,,,,,,,,,,,,,,,,,,,,sing35,001,2019_Nov_14_1504,ProdFawcett_Revision2019,3.2.3,59.58967740359094,
24,0,24,0,,,,,,,,,,,,,,,,,571.4266249999928,None,materials/readPic.jpg,clear,A_silent,24,52,567.7296582999988,None,567.7296582999988,None,568.6747281999851,None,568.9392789999838,None,568.9392789999838,None,,,,,,,,,,,,,,,,,,,,,,,,,,,,,,,,,,,sing35,001,2019_Nov_14_1504,ProdFawcett_Revision2019,3.2.3,59.58967740359094,
25,0,25,0,,,,,,,,,,,,,,,,,575.6937133999891,None,materials/speakPic.jpg,route,B_aloud,25,267,572.045767899981,None,572.045767899981,None,572.9436173999857,None,573.1918348000036,None,573.1918348000036,None,,,,,,,,,,,,,,,,,,,,,,,,,,,,,,,,,,,sing35,001,2019_Nov_14_1504,ProdFawcett_Revision2019,3.2.3,59.58967740359094,
26,0,26,0,,,,,,,,,,,,,,,,,579.9604602000036,None,materials/readPic.jpg,session,A_silent,26,281,576.2789265000029,None,576.2789265000029,None,577.2110376000055,None,577.4669464000035,None,577.4669464000035,None,,,,,,,,,,,,,,,,,,,,,,,,,,,,,,,,,,,sing35,001,2019_Nov_14_1504,ProdFawcett_Revision2019,3.2.3,59.58967740359094,
27,0,27,0,,,,,,,,,,,,,,,,,584.2275413000025,None,materials/readPic.jpg,taste,A_silent,27,322,580.534328299982,None,580.534328299982,None,581.4756293999963,None,581.7345128000015,None,581.7345128000015,None,,,,,,,,,,,,,,,,,,,,,,,,,,,,,,,,,,,sing35,001,2019_Nov_14_1504,ProdFawcett_Revision2019,3.2.3,59.58967740359094,
28,0,28,0,,,,,,,,,,,,,,,,,588.4943166000012,None,materials/speakPic.jpg,resistance,B_aloud,28,262,584.8079732999904,None,584.8079732999904,None,585.7460407000035,None,585.9938218999887,None,585.9938218999887,None,,,,,,,,,,,,,,,,,,,,,,,,,,,,,,,,,,,sing35,001,2019_Nov_14_1504,ProdFawcett_Revision2019,3.2.3,59.58967740359094,
29,0,29,0,,,,,,,,,,,,,,,,,592.7612411000009,None,materials/speakPic.jpg,damage,B_aloud,29,83,589.1252337000042,None,589.1252337000042,None,590.0123974999879,None,590.2755926999962,None,590.2755926999962,None,,,,,,,,,,,,,,,,,,,,,,,,,,,,,,,,,,,sing35,001,2019_Nov_14_1504,ProdFawcett_Revision2019,3.2.3,59.58967740359094,
30,0,30,0,,,,,,,,,,,,,,,,,597.0271340000036,None,materials/readPic.jpg,junior,A_silent,30,167,593.3430260999885,None,593.3430260999885,None,594.2768681999878,None,594.5529623999901,None,594.5529623999901,None,,,,,,,,,,,,,,,,,,,,,,,,,,,,,,,,,,,sing35,001,2019_Nov_14_1504,ProdFawcett_Revision2019,3.2.3,59.58967740359094,
31,0,31,0,,,,,,,,,,,,,,,,,601.2957186999847,None,materials/readPic.jpg,relation,A_silent,31,257,597.5678190999897,None,597.5678190999897,None,598.5459736000048,None,598.8025789000094,None,598.8025789000094,None,,,,,,,,,,,,,,,,,,,,,,,,,,,,,,,,,,,sing35,001,2019_Nov_14_1504,ProdFawcett_Revision2019,3.2.3,59.58967740359094,
32,0,32,0,,,,,,,,,,,,,,,,,605.5660338999878,None,materials/singPic.jpg,worker,C_sing,32,356,601.8920028999855,None,601.8920028999855,None,602.8128279999946,None,603.0624109999917,None,603.0624109999917,None,,,,,,,,,,,,,,,,,,,,,,,,,,,,,,,,,,,sing35,001,2019_Nov_14_1504,ProdFawcett_Revision2019,3.2.3,59.58967740359094,
33,0,33,0,,,,,,,,,,,,,,,,,609.8287092999963,None,materials/speakPic.jpg,region,B_aloud,33,256,606.1778914000024,None,606.1778914000024,None,607.0791662999836,None,607.3500971999892,None,607.3500971999892,None,,,,,,,,,,,,,,,,,,,,,,,,,,,,,,,,,,,sing35,001,2019_Nov_14_1504,ProdFawcett_Revision2019,3.2.3,59.58967740359094,
34,0,34,0,,,,,,,,,,,,,,,,,614.0962962000049,None,materials/singPic.jpg,career,C_sing,34,42,610.3764800000063,None,610.3764800000063,None,611.3475032999995,None,611.6031086999865,None,611.6031086999865,None,,,,,,,,,,,,,,,,,,,,,,,,,,,,,,,,,,,sing35,001,2019_Nov_14_1504,ProdFawcett_Revision2019,3.2.3,59.58967740359094,
35,0,35,0,,,,,,,,,,,,,,,,,618.363274000003,None,materials/speakPic.jpg,general,B_aloud,35,135,614.683687599987,None,614.683687599987,None,615.6129446999985,None,615.8725338999939,None,615.8725338999939,None,,,,,,,,,,,,,,,,,,,,,,,,,,,,,,,,,,,sing35,001,2019_Nov_14_1504,ProdFawcett_Revision2019,3.2.3,59.58967740359094,
36,0,36,0,,,,,,,,,,,,,,,,,622.6297961999953,None,materials/singPic.jpg,engineer,C_sing,36,114,619.0069094999926,None,619.0069094999926,None,619.8804110999918,None,620.1418114999833,None,620.1418114999833,None,,,,,,,,,,,,,,,,,,,,,,,,,,,,,,,,,,,sing35,001,2019_Nov_14_1504,ProdFawcett_Revision2019,3.2.3,59.58967740359094,
37,0,37,0,,,,,,,,,,,,,,,,,626.8963918999943,None,materials/speakPic.jpg,management,B_aloud,37,177,623.2186703000043,None,623.2186703000043,None,624.1470714999887,None,624.4133289000019,None,624.4133289000019,None,,,,,,,,,,,,,,,,,,,,,,,,,,,,,,,,,,,sing35,001,2019_Nov_14_1504,ProdFawcett_Revision2019,3.2.3,59.58967740359094,
38,0,38,0,,,,,,,,,,,,,,,,,631.163692800008,None,materials/readPic.jpg,solution,A_silent,38,294,627.4441024999833,None,627.4441024999833,None,628.4127249000012,None,628.6726819000032,None,628.6726819000032,None,,,,,,,,,,,,,,,,,,,,,,,,,,,,,,,,,,,sing35,001,2019_Nov_14_1504,ProdFawcett_Revision2019,3.2.3,59.58967740359094,
39,0,39,0,,,,,,,,,,,,,,,,,635.4308765000023,None,materials/singPic.jpg,strain,C_sing,39,308,631.7196006999875,None,631.7196006999875,None,632.681577899988,None,632.9385936000035,None,632.9385936000035,None,,,,,,,,,,,,,,,,,,,,,,,,,,,,,,,,,,,sing35,001,2019_Nov_14_1504,ProdFawcett_Revision2019,3.2.3,59.58967740359094,
40,0,40,0,,,,,,,,,,,,,,,,,639.6978337999899,None,materials/speakPic.jpg,number,B_aloud,40,203,636.0035932000028,None,636.0035932000028,None,636.9489340999862,None,637.2148234999913,None,637.2148234999913,None,,,,,,,,,,,,,,,,,,,,,,,,,,,,,,,,,,,sing35,001,2019_Nov_14_1504,ProdFawcett_Revision2019,3.2.3,59.58967740359094,
41,0,41,0,,,,,,,,,,,,,,,,,643.9649579999968,None,materials/speakPic.jpg,touch,B_aloud,41,332,640.2754993999843,None,640.2754993999843,None,641.2148801999865,None,641.4725501000066,None,641.4725501000066,None,,,,,,,,,,,,,,,,,,,,,,,,,,,,,,,,,,,sing35,001,2019_Nov_14_1504,ProdFawcett_Revision2019,3.2.3,59.58967740359094,
42,0,42,0,,,,,,,,,,,,,,,,,648.2311775999842,None,materials/speakPic.jpg,candidate,B_aloud,42,39,644.5833487999917,None,644.5833487999917,None,645.4804636999907,None,645.7413401000085,None,645.7413401000085,None,,,,,,,,,,,,,,,,,,,,,,,,,,,,,,,,,,,sing35,001,2019_Nov_14_1504,ProdFawcett_Revision2019,3.2.3,59.58967740359094,
43,0,43,0,,,,,,,,,,,,,,,,,652.499291199987,None,materials/singPic.jpg,quantity,C_sing,43,245,648.7828190999862,None,648.7828190999862,None,649.746936999989,None,650.0203449999972,None,650.0203449999972,None,,,,,,,,,,,,,,,,,,,,,,,,,,,,,,,,,,,sing35,001,2019_Nov_14_1504,ProdFawcett_Revision2019,3.2.3,59.58967740359094,
44,0,44,0,,,,,,,,,,,,,,,,,656.7645211000054,None,materials/speakPic.jpg,group,B_aloud,44,143,653.071391400008,None,653.071391400008,None,654.01440059999,None,654.2692277999886,None,654.2692277999886,None,,,,,,,,,,,,,,,,,,,,,,,,,,,,,,,,,,,sing35,001,2019_Nov_14_1504,ProdFawcett_Revision2019,3.2.3,59.58967740359094,
45,0,45,0,,,,,,,,,,,,,,,,,661.032298599981,None,materials/readPic.jpg,empty,A_silent,45,112,657.3104061000049,None,657.3104061000049,None,658.2862617000064,None,658.5420595000032,None,658.5420595000032,None,,,,,,,,,,,,,,,,,,,,,,,,,,,,,,,,,,,sing35,001,2019_Nov_14_1504,ProdFawcett_Revision2019,3.2.3,59.58967740359094,
46,0,46,0,,,,,,,,,,,,,,,,,665.2979996000067,None,materials/singPic.jpg,escape,C_sing,46,118,661.6396491999913,None,661.6396491999913,None,662.5514255999879,None,662.8067644999828,None,662.8067644999828,None,,,,,,,,,,,,,,,,,,,,,,,,,,,,,,,,,,,sing35,001,2019_Nov_14_1504,ProdFawcett_Revision2019,3.2.3,59.58967740359094,
47,0,47,0,,,,,,,,,,,,,,,,,669.5671443000028,None,materials/singPic.jpg,alert,C_sing,47,6,665.8488219999999,None,665.8488219999999,None,666.8221847999957,None,667.0731772999861,None,667.0731772999861,None,,,,,,,,,,,,,,,,,,,,,,,,,,,,,,,,,,,sing35,001,2019_Nov_14_1504,ProdFawcett_Revision2019,3.2.3,59.58967740359094,
48,0,48,0,,,,,,,,,,,,,,,,,673.8334804000042,None,materials/speakPic.jpg,color,B_aloud,48,56,670.1189560999919,None,670.1189560999919,None,671.083535599988,None,671.3323434999911,None,671.3323434999911,None,,,,,,,,,,,,,,,,,,,,,,,,,,,,,,,,,,,sing35,001,2019_Nov_14_1504,ProdFawcett_Revision2019,3.2.3,59.58967740359094,
49,0,49,0,,,,,,,,,,,,,,,,,678.1006308000069,None,materials/speakPic.jpg,nature,B_aloud,49,200,674.4073008999985,None,674.4073008999985,None,675.3503387999954,None,675.609074499982,None,675.609074499982,None,,,,,,,,,,,,,,,,,,,,,,,,,,,,,,,,,,,sing35,001,2019_Nov_14_1504,ProdFawcett_Revision2019,3.2.3,59.58967740359094,
50,0,50,0,,,,,,,,,,,,,,,,,682.3659464000084,None,materials/readPic.jpg,husband,A_silent,50,156,678.7057416999887,None,678.7057416999887,None,679.6157990999927,None,679.8798707000096,None,679.8798707000096,None,,,,,,,,,,,,,,,,,,,,,,,,,,,,,,,,,,,sing35,001,2019_Nov_14_1504,ProdFawcett_Revision2019,3.2.3,59.58967740359094,
51,0,51,0,,,,,,,,,,,,,,,,,686.6329129000078,None,materials/singPic.jpg,department,C_sing,51,90,682.9268660999951,None,682.9268660999951,None,683.888867200003,None,684.1448378000059,None,684.1448378000059,None,,,,,,,,,,,,,,,,,,,,,,,,,,,,,,,,,,,sing35,001,2019_Nov_14_1504,ProdFawcett_Revision2019,3.2.3,59.58967740359094,
52,0,52,0,,,,,,,,,,,,,,,,,690.9012795999879,None,materials/speakPic.jpg,narrow,B_aloud,52,197,687.188476899988,None,687.188476899988,None,688.1524694999971,None,688.4021622999862,None,688.4021622999862,None,,,,,,,,,,,,,,,,,,,,,,,,,,,,,,,,,,,sing35,001,2019_Nov_14_1504,ProdFawcett_Revision2019,3.2.3,59.58967740359094,
53,0,53,0,,,,,,,,,,,,,,,,,695.1684080999985,None,materials/singPic.jpg,hearing,C_sing,53,150,691.4789603000099,None,691.4789603000099,None,692.4189790000091,None,692.6799841999891,None,692.6799841999891,None,,,,,,,,,,,,,,,,,,,,,,,,,,,,,,,,,,,sing35,001,2019_Nov_14_1504,ProdFawcett_Revision2019,3.2.3,59.58967740359094,
54,0,54,0,,,,,,,,,,,,,,,,,699.4369087000086,None,materials/singPic.jpg,council,C_sing,54,71,695.7581630999921,None,695.7581630999921,None,696.6835597000027,None,696.9440936000028,None,696.9440936000028,None,,,,,,,,,,,,,,,,,,,,,,,,,,,,,,,,,,,sing35,001,2019_Nov_14_1504,ProdFawcett_Revision2019,3.2.3,59.58967740359094,
55,0,55,0,,,,,,,,,,,,,,,,,703.7018478999962,None,materials/speakPic.jpg,silence,B_aloud,55,288,700.0287010000029,None,700.0287010000029,None,700.9529217999952,None,701.2091130999906,None,701.2091130999906,None,,,,,,,,,,,,,,,,,,,,,,,,,,,,,,,,,,,sing35,001,2019_Nov_14_1504,ProdFawcett_Revision2019,3.2.3,59.58967740359094,
56,0,56,0,,,,,,,,,,,,,,,,,707.9688200000091,None,materials/speakPic.jpg,danger,B_aloud,56,85,704.2350658999931,None,704.2350658999931,None,705.2193056999822,None,705.4920149999962,None,705.4920149999962,None,,,,,,,,,,,,,,,,,,,,,,,,,,,,,,,,,,,sing35,001,2019_Nov_14_1504,ProdFawcett_Revision2019,3.2.3,59.58967740359094,
57,0,57,0,,,,,,,,,,,,,,,,,712.2348280999868,None,materials/singPic.jpg,individual,C_sing,57,160,708.5555510999984,None,708.5555510999984,None,709.4860799000016,None,709.7530535999977,None,709.7530535999977,None,,,,,,,,,,,,,,,,,,,,,,,,,,,,,,,,,,,sing35,001,2019_Nov_14_1504,ProdFawcett_Revision2019,3.2.3,59.58967740359094,
58,0,58,0,,,,,,,,,,,,,,,,,716.5012289999868,None,materials/singPic.jpg,crisis,C_sing,58,79,712.7956941000011,None,712.7956941000011,None,713.7520427999843,None,714.0100069000036,None,714.0100069000036,None,,,,,,,,,,,,,,,,,,,,,,,,,,,,,,,,,,,sing35,001,2019_Nov_14_1504,ProdFawcett_Revision2019,3.2.3,59.58967740359094,
59,0,59,0,,,,,,,,,,,,,,,,,720.7719111999904,None,materials/readPic.jpg,comfort,A_silent,59,59,717.1089897000056,None,717.1089897000056,None,718.0205589999969,None,718.2794188999978,None,718.2794188999978,None,,,,,,,,,,,,,,,,,,,,,,,,,,,,,,,,,,,sing35,001,2019_Nov_14_1504,ProdFawcett_Revision2019,3.2.3,59.58967740359094,
60,0,60,0,,,,,,,,,,,,,,,,,725.0370169999951,None,materials/speakPic.jpg,block,B_aloud,60,25,721.3555638999969,None,721.3555638999969,None,722.2861073999957,None,722.5362233000051,None,722.5362233000051,None,,,,,,,,,,,,,,,,,,,,,,,,,,,,,,,,,,,sing35,001,2019_Nov_14_1504,ProdFawcett_Revision2019,3.2.3,59.58967740359094,
61,0,61,0,,,,,,,,,,,,,,,,,729.3023628999945,None,materials/speakPic.jpg,nation,B_aloud,61,198,725.6118082999892,None,725.6118082999892,None,726.554613299988,None,726.8131275000051,None,726.8131275000051,None,,,,,,,,,,,,,,,,,,,,,,,,,,,,,,,,,,,sing35,001,2019_Nov_14_1504,ProdFawcett_Revision2019,3.2.3,59.58967740359094,
62,0,62,0,,,,,,,,,,,,,,,,,733.5708397999988,None,materials/speakPic.jpg,length,B_aloud,62,169,729.8395611000014,None,729.8395611000014,None,730.8206725000055,None,731.0833227999974,None,731.0833227999974,None,,,,,,,,,,,,,,,,,,,,,,,,,,,,,,,,,,,sing35,001,2019_Nov_14_1504,ProdFawcett_Revision2019,3.2.3,59.58967740359094,
63,0,63,0,,,,,,,,,,,,,,,,,737.8378479999956,None,materials/readPic.jpg,strength,A_silent,63,310,734.1881966000074,None,734.1881966000074,None,735.0876828999899,None,735.3539160999935,None,735.3539160999935,None,,,,,,,,,,,,,,,,,,,,,,,,,,,,,,,,,,,sing35,001,2019_Nov_14_1504,ProdFawcett_Revision2019,3.2.3,59.58967740359094,
64,0,64,0,,,,,,,,,,,,,,,,,742.1033536999894,None,materials/speakPic.jpg,master,B_aloud,64,180,738.4541410999955,None,738.4541410999955,None,739.3535868999898,None,739.6146241000097,None,739.6146241000097,None,,,,,,,,,,,,,,,,,,,,,,,,,,,,,,,,,,,sing35,001,2019_Nov_14_1504,ProdFawcett_Revision2019,3.2.3,59.58967740359094,
65,0,65,0,,,,,,,,,,,,,,,,,746.3722227999824,None,materials/speakPic.jpg,colonel,B_aloud,65,55,742.6583475999942,None,742.6583475999942,None,743.6238470000098,None,743.8803277999978,None,743.8803277999978,None,,,,,,,,,,,,,,,,,,,,,,,,,,,,,,,,,,,sing35,001,2019_Nov_14_1504,ProdFawcett_Revision2019,3.2.3,59.58967740359094,
66,0,66,0,,,,,,,,,,,,,,,,,750.6392801000038,None,materials/readPic.jpg,level,A_silent,66,170,746.9725696999812,None,746.9725696999812,None,747.8902713999851,None,748.1416214999917,None,748.1416214999917,None,,,,,,,,,,,,,,,,,,,,,,,,,,,,,,,,,,,sing35,001,2019_Nov_14_1504,ProdFawcett_Revision2019,3.2.3,59.58967740359094,
67,0,67,0,,,,,,,,,,,,,,,,,754.9042480000062,None,materials/speakPic.jpg,carry,B_aloud,67,43,751.221152699989,None,751.221152699989,None,752.1541443000024,None,752.4119077000069,None,752.4119077000069,None,,,,,,,,,,,,,,,,,,,,,,,,,,,,,,,,,,,sing35,001,2019_Nov_14_1504,ProdFawcett_Revision2019,3.2.3,59.58967740359094,
68,0,68,0,,,,,,,,,,,,,,,,,759.172307300003,None,materials/readPic.jpg,throw,A_silent,68,330,755.4748661000049,None,755.4748661000049,None,756.4226938000065,None,756.6714236999978,None,756.6714236999978,None,,,,,,,,,,,,,,,,,,,,,,,,,,,,,,,,,,,sing35,001,2019_Nov_14_1504,ProdFawcett_Revision2019,3.2.3,59.58967740359094,
69,0,69,0,,,,,,,,,,,,,,,,,763.4399264999956,None,materials/speakPic.jpg,education,B_aloud,69,108,759.7524336999923,None,759.7524336999923,None,760.6893158000021,None,760.9490038999938,None,760.9490038999938,None,,,,,,,,,,,,,,,,,,,,,,,,,,,,,,,,,,,sing35,001,2019_Nov_14_1504,ProdFawcett_Revision2019,3.2.3,59.58967740359094,
70,0,70,0,,,,,,,,,,,,,,,,,767.7054701999878,None,materials/readPic.jpg,machinery,A_silent,70,175,764.0072671000089,None,764.0072671000089,None,764.9574381999846,None,765.2142540999921,None,765.2142540999921,None,,,,,,,,,,,,,,,,,,,,,,,,,,,,,,,,,,,sing35,001,2019_Nov_14_1504,ProdFawcett_Revision2019,3.2.3,59.58967740359094,
71,0,71,0,,,,,,,,,,,,,,,,,771.9738752999983,None,materials/readPic.jpg,column,A_silent,71,57,768.3029357999912,None,768.3029357999912,None,769.2264955999854,None,769.4784278000006,None,769.4784278000006,None,,,,,,,,,,,,,,,,,,,,,,,,,,,,,,,,,,,sing35,001,2019_Nov_14_1504,ProdFawcett_Revision2019,3.2.3,59.58967740359094,
72,0,72,0,,,,,,,,,,,,,,,,,776.2392828000011,None,materials/readPic.jpg,blind,A_silent,72,24,772.6223800999869,None,772.6223800999869,None,773.4889220999903,None,773.7496795000043,None,773.7496795000043,None,,,,,,,,,,,,,,,,,,,,,,,,,,,,,,,,,,,sing35,001,2019_Nov_14_1504,ProdFawcett_Revision2019,3.2.3,59.58967740359094,
73,0,73,0,,,,,,,,,,,,,,,,,780.5077811999945,None,materials/readPic.jpg,second,A_silent,73,278,776.7951956999896,None,776.7951956999896,None,777.7571700999979,None,778.0126482000051,None,778.0126482000051,None,,,,,,,,,,,,,,,,,,,,,,,,,,,,,,,,,,,sing35,001,2019_Nov_14_1504,ProdFawcett_Revision2019,3.2.3,59.58967740359094,
74,0,74,0,,,,,,,,,,,,,,,,,784.7745253999892,None,materials/speakPic.jpg,breath,B_aloud,74,27,781.087961799989,None,781.087961799989,None,782.0250451999891,None,782.2783084999828,None,782.2783084999828,None,,,,,,,,,,,,,,,,,,,,,,,,,,,,,,,,,,,sing35,001,2019_Nov_14_1504,ProdFawcett_Revision2019,3.2.3,59.58967740359094,
75,0,75,0,,,,,,,,,,,,,,,,,789.0402471999987,None,materials/speakPic.jpg,substance,B_aloud,75,313,785.3401102999924,None,785.3401102999924,None,786.2908308999904,None,786.5540332999954,None,786.5540332999954,None,,,,,,,,,,,,,,,,,,,,,,,,,,,,,,,,,,,sing35,001,2019_Nov_14_1504,ProdFawcett_Revision2019,3.2.3,59.58967740359094,
76,0,76,0,,,,,,,,,,,,,,,,,793.3084739999904,None,materials/singPic.jpg,front,C_sing,76,134,789.6042000000016,None,789.6042000000016,None,790.5590779999911,None,790.8151821999927,None,790.8151821999927,None,,,,,,,,,,,,,,,,,,,,,,,,,,,,,,,,,,,sing35,001,2019_Nov_14_1504,ProdFawcett_Revision2019,3.2.3,59.58967740359094,
77,0,77,0,,,,,,,,,,,,,,,,,797.5752713999827,None,materials/readPic.jpg,poetry,A_silent,77,225,793.8976062999864,None,793.8976062999864,None,794.8253112999955,None,795.0787070000079,None,795.0787070000079,None,,,,,,,,,,,,,,,,,,,,,,,,,,,,,,,,,,,sing35,001,2019_Nov_14_1504,ProdFawcett_Revision2019,3.2.3,59.58967740359094,
78,0,78,0,,,,,,,,,,,,,,,,,801.8422626999964,None,materials/singPic.jpg,guest,C_sing,78,146,798.2015329999849,None,798.2015329999849,None,799.0909952000075,None,799.3544487000036,None,799.3544487000036,None,,,,,,,,,,,,,,,,,,,,,,,,,,,,,,,,,,,sing35,001,2019_Nov_14_1504,ProdFawcett_Revision2019,3.2.3,59.58967740359094,
79,0,79,0,,,,,,,,,,,,,,,,,806.1087729999854,None,materials/speakPic.jpg,treatment,B_aloud,79,339,802.4110598999832,None,802.4110598999832,None,803.3598052999878,None,803.6075357999944,None,803.6075357999944,None,,,,,,,,,,,,,,,,,,,,,,,,,,,,,,,,,,,sing35,001,2019_Nov_14_1504,ProdFawcett_Revision2019,3.2.3,59.58967740359094,
80,0,80,0,,,,,,,,,,,,,,,,,810.3751746999915,None,materials/speakPic.jpg,still,B_aloud,80,304,806.6893936999841,None,806.6893936999841,None,807.6261165000033,None,807.8839009999938,None,807.8839009999938,None,,,,,,,,,,,,,,,,,,,,,,,,,,,,,,,,,,,sing35,001,2019_Nov_14_1504,ProdFawcett_Revision2019,3.2.3,59.58967740359094,
81,0,81,0,,,,,,,,,,,,,,,,,814.6427614999993,None,materials/singPic.jpg,research,C_sing,81,261,810.9387763999985,None,810.9387763999985,None,811.8931406000047,None,812.1479839999811,None,812.1479839999811,None,,,,,,,,,,,,,,,,,,,,,,,,,,,,,,,,,,,sing35,001,2019_Nov_14_1504,ProdFawcett_Revision2019,3.2.3,59.58967740359094,
82,0,82,0,,,,,,,,,,,,,,,,,818.9098549000046,None,materials/readPic.jpg,write,A_silent,82,358,815.2422970999905,None,815.2422970999905,None,816.1612802000018,None,816.4134782000037,None,816.4134782000037,None,,,,,,,,,,,,,,,,,,,,,,,,,,,,,,,,,,,sing35,001,2019_Nov_14_1504,ProdFawcett_Revision2019,3.2.3,59.58967740359094,
83,0,83,0,,,,,,,,,,,,,,,,,823.1759794999962,None,materials/readPic.jpg,death,A_silent,83,86,819.4938043000002,None,819.4938043000002,None,820.4259394999826,None,820.6859820999962,None,820.6859820999962,None,,,,,,,,,,,,,,,,,,,,,,,,,,,,,,,,,,,sing35,001,2019_Nov_14_1504,ProdFawcett_Revision2019,3.2.3,59.58967740359094,
84,0,84,0,,,,,,,,,,,,,,,,,827.4446553000016,None,materials/singPic.jpg,citizen,C_sing,84,50,823.7291283000086,None,823.7291283000086,None,824.6964587999973,None,824.9480877000024,None,824.9480877000024,None,,,,,,,,,,,,,,,,,,,,,,,,,,,,,,,,,,,sing35,001,2019_Nov_14_1504,ProdFawcett_Revision2019,3.2.3,59.58967740359094,
85,0,85,0,,,,,,,,,,,,,,,,,831.7095171999827,None,materials/readPic.jpg,entrance,A_silent,85,115,828.05196479999,None,828.05196479999,None,828.9589024999877,None,829.2191625999985,None,829.2191625999985,None,,,,,,,,,,,,,,,,,,,,,,,,,,,,,,,,,,,sing35,001,2019_Nov_14_1504,ProdFawcett_Revision2019,3.2.3,59.58967740359094,
86,0,86,0,,,,,,,,,,,,,,,,,835.9791541000013,None,materials/speakPic.jpg,speech,B_aloud,86,298,832.2786392999988,None,832.2786392999988,None,833.2277812999964,None,833.4839232999948,None,833.4839232999948,None,,,,,,,,,,,,,,,,,,,,,,,,,,,,,,,,,,,sing35,001,2019_Nov_14_1504,ProdFawcett_Revision2019,3.2.3,59.58967740359094,
87,0,87,0,,,,,,,,,,,,,,,,,840.2444235000003,None,materials/singPic.jpg,profession,C_sing,87,241,836.5971778999956,None,836.5971778999956,None,837.4932206000085,None,837.7460319999955,None,837.7460319999955,None,,,,,,,,,,,,,,,,,,,,,,,,,,,,,,,,,,,sing35,001,2019_Nov_14_1504,ProdFawcett_Revision2019,3.2.3,59.58967740359094,
88,0,88,0,,,,,,,,,,,,,,,,,844.5122628999816,None,materials/singPic.jpg,atmosphere,C_sing,88,12,840.8323709999968,None,840.8323709999968,None,841.7600773999875,None,842.0216706999927,None,842.0216706999927,None,,,,,,,,,,,,,,,,,,,,,,,,,,,,,,,,,,,sing35,001,2019_Nov_14_1504,ProdFawcett_Revision2019,3.2.3,59.58967740359094,
89,0,89,0,,,,,,,,,,,,,,,,,848.7783894999884,None,materials/speakPic.jpg,angle,B_aloud,89,7,845.0983054999961,None,845.0983054999961,None,846.0292810999963,None,846.2844803000044,None,846.2844803000044,None,,,,,,,,,,,,,,,,,,,,,,,,,,,,,,,,,,,sing35,001,2019_Nov_14_1504,ProdFawcett_Revision2019,3.2.3,59.58967740359094,
,,,,,,,,,,,,,,,,,,,,,,,,,,,,,,,,,,,,,849.2784655999858,None,k,52.49207760000718,849.2784655999858,None,,,,,,,,,,,,,,,,,,,,,,,,,,,,,sing35,001,2019_Nov_14_1504,ProdFawcett_Revision2019,3.2.3,59.58967740359094,
,,,,,,,,,,,,,,901.7980818999931,None,space,5.692405600013444,901.7980818999931,None,,,,,,,,,,,,,,,,,,,,,,,,,,,,,,,,,,,,,,,,,,,,,,,,,,,,sing35,001,2019_Nov_14_1504,ProdFawcett_Revision2019,3.2.3,59.58967740359094,
,,,,0,0,0,0,,,,,,,,,,,,,917.4939642999962,None,,,,,,,,,,,,,,,,,,,,,,personnel,D_new,0,219,908.0297805999871,None,908.0297805999871,None,908.0297805999871,None,1,4.076875200000359,908.0297805999871,None,912.1615638000076,None,912.1615638000076,None,912.6830519000068,None,912.6830519000068,None,912.6830519000068,None,n,4.775657200021669,912.6830519000068,None,sing35,001,2019_Nov_14_1504,ProdFawcett_Revision2019,3.2.3,59.58967740359094,
,,,,1,0,1,0,,,,,,,,,,,,,923.4538865000068,None,,,,,,,,,,,,,,,,,,,,,,straight,D_new,1,307,918.0195522999857,None,918.0195522999857,None,918.0195522999857,None,1,4.086963600013405,918.0195522999857,None,922.1572045999928,None,922.1572045999928,None,922.6696041999967,None,922.6696041999967,None,922.6696041999967,None,n,0.741176399984397,922.6696041999967,None,sing35,001,2019_Nov_14_1504,ProdFawcett_Revision2019,3.2.3,59.58967740359094,
,,,,2,0,2,0,,,,,,,,,,,,,933.302544599981,None,,,,,,,,,,,,,,,,,,,,,,relation,A_silent,2,257,923.9822114999988,None,923.9822114999988,None,923.9822114999988,None,6,5.676537099992856,923.9822114999988,None,929.7106875999889,None,929.7106875999889,None,930.2313170999987,None,930.2313170999987,None,930.2313170999987,None,r,3.0511284999956843,930.2313170999987,None,sing35,001,2019_Nov_14_1504,ProdFawcett_Revision2019,3.2.3,59.58967740359094,
,,,,3,0,3,0,,,,,,,,,,,,,937.2777799000032,None,,,,,,,,,,,,,,,,,,,,,,title,D_new,3,331,933.820287199982,None,933.820287199982,None,933.820287199982,None,1,2.3504359000071418,933.820287199982,None,936.2250975999923,None,936.2250975999923,None,936.7466876999824,None,936.7466876999824,None,936.7466876999824,None,n,0.5040330000047106,936.7466876999824,None,sing35,001,2019_Nov_14_1504,ProdFawcett_Revision2019,3.2.3,59.58967740359094,
,,,,4,0,4,0,,,,,,,,,,,,,941.1555489999882,None,,,,,,,,,,,,,,,,,,,,,,clear,A_silent,4,52,937.7885632999823,None,937.7885632999823,None,937.7885632999823,None,1,1.9179832999943756,937.7885632999823,None,939.7582072000077,None,939.7582072000077,None,940.2827681000053,None,940.2827681000053,None,940.2827681000053,None,n,0.8478687999886461,940.2827681000053,None,sing35,001,2019_Nov_14_1504,ProdFawcett_Revision2019,3.2.3,59.58967740359094,
,,,,5,0,5,0,,,,,,,,,,,,,945.0106001999811,None,,,,,,,,,,,,,,,,,,,,,,dozen,D_new,5,102,941.6734793999931,None,941.6734793999931,None,941.6734793999931,None,1,1.5053396000002977,941.6734793999931,None,943.2257476999948,None,943.2257476999948,None,943.7523137000098,None,943.7523137000098,None,943.7523137000098,None,n,1.2262553999898955,943.7523137000098,None,sing35,001,2019_Nov_14_1504,ProdFawcett_Revision2019,3.2.3,59.58967740359094,
,,,,6,0,6,0,,,,,,,,,,,,,949.3410844999889,None,,,,,,,,,,,,,,,,,,,,,,curve,D_new,6,82,945.5402038999891,None,945.5402038999891,None,945.5402038999891,None,1,2.734372600010829,945.5402038999891,None,948.3056727999938,None,948.3056727999938,None,948.8220260000089,None,948.8220260000089,None,948.8220260000089,None,n,0.4845758999872487,948.8220260000089,None,sing35,001,2019_Nov_14_1504,ProdFawcett_Revision2019,3.2.3,59.58967740359094,
,,,,7,0,7,0,,,,,,,,,,,,,953.0838407999836,None,,,,,,,,,,,,,,,,,,,,,,weight,D_new,7,353,949.8590652999992,None,949.8590652999992,None,949.8590652999992,None,1,2.063662000000477,949.8590652999992,None,951.9771376999852,None,951.9771376999852,None,952.5082197999873,None,952.5082197999873,None,952.5082197999873,None,n,0.5344468000112101,952.5082197999873,None,sing35,001,2019_Nov_14_1504,ProdFawcett_Revision2019,3.2.3,59.58967740359094,
,,,,8,0,8,0,,,,,,,,,,,,,963.9359694999876,None,,,,,,,,,,,,,,,,,,,,,,society,D_new,8,293,953.6030337999982,None,953.6030337999982,None,953.6030337999982,None,2,7.863903399993433,953.6030337999982,None,961.5137628999946,None,961.5137628999946,None,962.0355641999922,None,962.0355641999922,None,962.0355641999922,None,f,1.863276299991412,962.0355641999922,None,sing35,001,2019_Nov_14_1504,ProdFawcett_Revision2019,3.2.3,59.58967740359094,
,,,,9,0,9,0,,,,,,,,,,,,,967.4885677999991,None,,,,,,,,,,,,,,,,,,,,,,frank,D_new,9,133,964.4530777999898,None,964.4530777999898,None,964.4530777999898,None,1,1.6454334000009112,964.4530777999898,None,966.1244893999828,None,966.1244893999828,None,966.6380305000057,None,966.6380305000057,None,966.6380305000057,None,n,0.8205666999856476,966.6380305000057,None,sing35,001,2019_Nov_14_1504,ProdFawcett_Revision2019,3.2.3,59.58967740359094,
,,,,10,0,10,0,,,,,,,,,,,,,974.4751491000061,None,,,,,,,,,,,,,,,,,,,,,,drama,A_silent,10,103,968.0083857999998,None,968.0083857999998,None,968.0083857999998,None,6,2.8904545000114013,968.0083857999998,None,970.9417130000074,None,970.9417130000074,None,971.4548666999908,None,971.4548666999908,None,971.4548666999908,None,r,2.9876763000211213,971.4548666999908,None,sing35,001,2019_Nov_14_1504,ProdFawcett_Revision2019,3.2.3,59.58967740359094,
,,,,11,0,11,0,,,,,,,,,,,,,979.8682995999989,None,,,,,,,,,,,,,,,,,,,,,,taste,A_silent,11,322,975.0142182999989,None,975.0142182999989,None,975.0142182999989,None,6,3.7729048000182956,975.0142182999989,None,978.8270268999913,None,978.8270268999913,None,979.3499920000031,None,979.3499920000031,None,979.3499920000031,None,r,0.4768169999879319,979.3499920000031,None,sing35,001,2019_Nov_14_1504,ProdFawcett_Revision2019,3.2.3,59.58967740359094,
,,,,12,0,12,0,,,,,,,,,,,,,984.8520973999985,None,,,,,,,,,,,,,,,,,,,,,,company,C_sing,12,64,980.3855386000068,None,980.3855386000068,None,980.3855386000068,None,2,3.4092564999882597,980.3855386000068,None,983.8490206999995,None,983.8490206999995,None,984.3683769000054,None,984.3683769000054,None,984.3683769000054,None,f,0.4510527000238653,984.3683769000054,None,sing35,001,2019_Nov_14_1504,ProdFawcett_Revision2019,3.2.3,59.58967740359094,
,,,,13,0,13,0,,,,,,,,,,,,,989.7883011999947,None,,,,,,,,,,,,,,,,,,,,,,silence,B_aloud,13,288,985.3726209999877,None,985.3726209999877,None,985.3726209999877,None,6,2.446327600016957,985.3726209999877,None,987.8580426999833,None,987.8580426999833,None,988.3858089999994,None,988.3858089999994,None,988.3858089999994,None,r,1.3689873999974225,988.3858089999994,None,sing35,001,2019_Nov_14_1504,ProdFawcett_Revision2019,3.2.3,59.58967740359094,
,,,,14,0,14,0,,,,,,,,,,,,,993.226608099998,None,,,,,,,,,,,,,,,,,,,,,,length,B_aloud,14,169,990.3100981999887,None,990.3100981999887,None,990.3100981999887,None,6,1.7562855000142008,990.3100981999887,None,992.0979907999863,None,992.0979907999863,None,992.6103256999922,None,992.6103256999922,None,992.6103256999922,None,r,0.584189699991839,992.6103256999922,None,sing35,001,2019_Nov_14_1504,ProdFawcett_Revision2019,3.2.3,59.58967740359094,
,,,,15,0,15,0,,,,,,,,,,,,,996.5374236000062,None,,,,,,,,,,,,,,,,,,,,,,article,D_new,15,11,993.7532157999813,None,993.7532157999813,None,993.7532157999813,None,1,1.529804799996782,993.7532157999813,None,995.327632600005,None,995.327632600005,None,995.8519706999941,None,995.8519706999941,None,995.8519706999941,None,n,0.6468529000121634,995.8519706999941,None,sing35,001,2019_Nov_14_1504,ProdFawcett_Revision2019,3.2.3,59.58967740359094,
,,,,16,0,16,0,,,,,,,,,,,,,1001.8649011999951,None,,,,,,,,,,,,,,,,,,,,,,minute,C_sing,16,192,997.0558062999917,None,997.0558062999917,None,997.0558062999917,None,3,3.7068534999853,997.0558062999917,None,1000.7943495000072,None,1000.7943495000072,None,1001.3127266000083,None,1001.3127266000083,None,1001.3127266000083,None,f,0.5220363000116777,1001.3127266000083,None,sing35,001,2019_Nov_14_1504,ProdFawcett_Revision2019,3.2.3,59.58967740359094,
,,,,17,0,17,0,,,,,,,,,,,,,1007.8052856999857,None,,,,,,,,,,,,,,,,,,,,,,smell,D_new,17,291,1002.3839386999898,None,1002.3839386999898,None,1002.3839386999898,None,1,3.450581599987345,1002.3839386999898,None,1005.871241899993,None,1005.871241899993,None,1006.3922584999818,None,1006.3922584999818,None,1006.3922584999818,None,n,1.3788858000189066,1006.3922584999818,None,sing35,001,2019_Nov_14_1504,ProdFawcett_Revision2019,3.2.3,59.58967740359094,
,,,,18,0,18,0,,,,,,,,,,,,,1012.1699163999874,None,,,,,,,,,,,,,,,,,,,,,,route,B_aloud,18,267,1008.3254673999909,None,1008.3254673999909,None,1008.3254673999909,None,6,2.085289800015744,1008.3254673999909,None,1010.4640684000042,None,1010.4640684000042,None,1010.9828067999915,None,1010.9828067999915,None,1010.9828067999915,None,r,1.1479193000122905,1010.9828067999915,None,sing35,001,2019_Nov_14_1504,ProdFawcett_Revision2019,3.2.3,59.58967740359094,
,,,,19,0,19,0,,,,,,,,,,,,,1017.8047115000081,None,,,,,,,,,,,,,,,,,,,,,,employment,D_new,19,111,1012.6912967999815,None,1012.6912967999815,None,1012.6912967999815,None,2,3.2313611999852583,1012.6912967999815,None,1015.9650022999849,None,1015.9650022999849,None,1016.4735795999877,None,1016.4735795999877,None,1016.4735795999877,None,f,1.2979492000013124,1016.4735795999877,None,sing35,001,2019_Nov_14_1504,ProdFawcett_Revision2019,3.2.3,59.58967740359094,
,,,,20,0,20,0,,,,,,,,,,,,,1021.205709300004,None,,,,,,,,,,,,,,,,,,,,,,still,B_aloud,20,304,1018.3233421999903,None,1018.3233421999903,None,1018.3233421999903,None,6,1.69543550000526,1018.3233421999903,None,1020.0659546999959,None,1020.0659546999959,None,1020.5863630000094,None,1020.5863630000094,None,1020.5863630000094,None,r,0.5846090000122786,1020.5863630000094,None,sing35,001,2019_Nov_14_1504,ProdFawcett_Revision2019,3.2.3,59.58967740359094,
,,,,21,0,21,0,,,,,,,,,,,,,1024.8419032999955,None,,,,,,,,,,,,,,,,,,,,,,background,D_new,21,16,1021.7326016000006,None,1021.7326016000006,None,1021.7326016000006,None,1,2.0140004999993835,1021.7326016000006,None,1023.7980841999815,None,1023.7980841999815,None,1024.3072373000032,None,1024.3072373000032,None,1024.3072373000032,None,n,0.4876170000061393,1024.3072373000032,None,sing35,001,2019_Nov_14_1504,ProdFawcett_Revision2019,3.2.3,59.58967740359094,
,,,,22,0,22,0,,,,,,,,,,,,,1029.7555264999974,None,,,,,,,,,,,,,,,,,,,,,,collection,D_new,22,54,1025.374290399981,None,1025.374290399981,None,1025.374290399981,None,6,3.0203127000131644,1025.374290399981,None,1028.4453654999961,None,1028.4453654999961,None,1028.9585768999823,None,1028.9585768999823,None,1028.9585768999823,None,r,0.7561704000108875,1028.9585768999823,None,sing35,001,2019_Nov_14_1504,ProdFawcett_Revision2019,3.2.3,59.58967740359094,
,,,,23,0,23,0,,,,,,,,,,,,,1033.166164299997,None,,,,,,,,,,,,,,,,,,,,,,month,D_new,23,193,1030.273495500005,None,1030.273495500005,None,1030.273495500005,None,1,1.7533100000000559,1030.273495500005,None,1032.0779634999926,None,1032.0779634999926,None,1032.5922174000007,None,1032.5922174000007,None,1032.5922174000007,None,n,0.546548599988455,1032.5922174000007,None,sing35,001,2019_Nov_14_1504,ProdFawcett_Revision2019,3.2.3,59.58967740359094,
,,,,24,0,24,0,,,,,,,,,,,,,1040.090393099992,None,,,,,,,,,,,,,,,,,,,,,,junior,A_silent,24,167,1033.6840642000025,None,1033.6840642000025,None,1033.6840642000025,None,2,2.3347021999943536,1033.6840642000025,None,1036.0520946999895,None,1036.0520946999895,None,1036.5749384000083,None,1036.5749384000083,None,1036.5749384000083,None,n,3.484071300015785,1036.5749384000083,None,sing35,001,2019_Nov_14_1504,ProdFawcett_Revision2019,3.2.3,59.58967740359094,
,,,,25,0,25,0,,,,,,,,,,,,,1044.491836900008,None,,,,,,,,,,,,,,,,,,,,,,quantity,C_sing,25,245,1040.5957744999905,None,1040.5957744999905,None,1040.5957744999905,None,6,2.102794099977473,1040.5957744999905,None,1042.7364394000033,None,1042.7364394000033,None,1043.2682972000039,None,1043.2682972000039,None,1043.2682972000039,None,r,1.1909985000093002,1043.2682972000039,None,sing35,001,2019_Nov_14_1504,ProdFawcett_Revision2019,3.2.3,59.58967740359094,
,,,,26,0,26,0,,,,,,,,,,,,,1048.6810051999928,None,,,,,,,,,,,,,,,,,,,,,,breath,B_aloud,26,27,1045.0133215000096,None,1045.0133215000096,None,1045.0133215000096,None,6,1.8291054999863263,1045.0133215000096,None,1046.8848099999886,None,1046.8848099999886,None,1047.4043369999854,None,1047.4043369999854,None,1047.4043369999854,None,r,1.254216000001179,1047.4043369999854,None,sing35,001,2019_Nov_14_1504,ProdFawcett_Revision2019,3.2.3,59.58967740359094,
,,,,27,0,27,0,,,,,,,,,,,,,1052.5297964999918,None,,,,,,,,,,,,,,,,,,,,,,citizen,C_sing,27,50,1049.1947358000034,None,1049.1947358000034,None,1049.1947358000034,None,6,2.2319306999852415,1049.1947358000034,None,1051.4642449000094,None,1051.4642449000094,None,1051.977671200002,None,1051.977671200002,None,1051.977671200002,None,r,0.521062499989057,1051.977671200002,None,sing35,001,2019_Nov_14_1504,ProdFawcett_Revision2019,3.2.3,59.58967740359094,
,,,,28,0,28,0,,,,,,,,,,,,,1056.5866119999846,None,,,,,,,,,,,,,,,,,,,,,,beauty,D_new,28,18,1053.0453980999882,None,1053.0453980999882,None,1053.0453980999882,None,2,2.037429699994391,1053.0453980999882,None,1055.1400723999832,None,1055.1400723999832,None,1055.6577714000014,None,1055.6577714000014,None,1055.6577714000014,None,n,0.8969305999926291,1055.6577714000014,None,sing35,001,2019_Nov_14_1504,ProdFawcett_Revision2019,3.2.3,59.58967740359094,
,,,,29,0,29,0,,,,,,,,,,,,,1059.861238499987,None,,,,,,,,,,,,,,,,,,,,,,rapid,D_new,29,252,1057.1115830999915,None,1057.1115830999915,None,1057.1115830999915,None,1,1.6271697000192944,1057.1115830999915,None,1058.7632967999962,None,1058.7632967999962,None,1059.275334999984,None,1059.275334999984,None,1059.275334999984,None,n,0.5594079000002239,1059.275334999984,None,sing35,001,2019_Nov_14_1504,ProdFawcett_Revision2019,3.2.3,59.58967740359094,
,,,,30,0,30,0,,,,,,,,,,,,,1065.1903460999893,None,,,,,,,,,,,,,,,,,,,,,,danger,B_aloud,30,85,1060.3782062999962,None,1060.3782062999962,None,1060.3782062999962,None,5,3.544911500008311,1060.3782062999962,None,1063.9724663000088,None,1063.9724663000088,None,1064.4969872999936,None,1064.4969872999936,None,1064.4969872999936,None,f,0.6576962000108324,1064.4969872999936,None,sing35,001,2019_Nov_14_1504,ProdFawcett_Revision2019,3.2.3,59.58967740359094,
,,,,31,0,31,0,,,,,,,,,,,,,1070.0763449000078,None,,,,,,,,,,,,,,,,,,,,,,direction,D_new,31,94,1065.7116911000048,None,1065.7116911000048,None,1065.7116911000048,None,2,3.355072600010317,1065.7116911000048,None,1069.120529000007,None,1069.120529000007,None,1069.6404623999842,None,1069.6404623999842,None,1069.6404623999842,None,f,0.39423260002513416,1069.6404623999842,None,sing35,001,2019_Nov_14_1504,ProdFawcett_Revision2019,3.2.3,59.58967740359094,
,,,,32,0,32,0,,,,,,,,,,,,,1075.529157699988,None,,,,,,,,,,,,,,,,,,,,,,resistance,B_aloud,32,262,1070.597472399997,None,1070.597472399997,None,1070.597472399997,None,6,2.925440699997125,1070.597472399997,None,1073.5667080999992,None,1073.5667080999992,None,1074.094406899996,None,1074.094406899996,None,1074.094406899996,None,r,1.4041340999829117,1074.094406899996,None,sing35,001,2019_Nov_14_1504,ProdFawcett_Revision2019,3.2.3,59.58967740359094,
,,,,33,0,33,0,,,,,,,,,,,,,1079.1753379000002,None,,,,,,,,,,,,,,,,,,,,,,childhood,D_new,33,49,1076.057173100009,None,1076.057173100009,None,1076.057173100009,None,2,1.9696630000253208,1076.057173100009,None,1078.0660842999932,None,1078.0660842999932,None,1078.5924127000035,None,1078.5924127000035,None,1078.5924127000035,None,n,0.5465610999963246,1078.5924127000035,None,sing35,001,2019_Nov_14_1504,ProdFawcett_Revision2019,3.2.3,59.58967740359094,
,,,,34,0,34,0,,,,,,,,,,,,,1083.6419922999921,None,,,,,,,,,,,,,,,,,,,,,,shock,D_new,34,284,1079.6952835999837,None,1079.6952835999837,None,1079.6952835999837,None,1,2.699633599986555,1079.6952835999837,None,1082.4361109999882,None,1082.4361109999882,None,1082.9603872000007,None,1082.9603872000007,None,1082.9603872000007,None,n,0.6505644000135362,1082.9603872000007,None,sing35,001,2019_Nov_14_1504,ProdFawcett_Revision2019,3.2.3,59.58967740359094,
,,,,35,0,35,0,,,,,,,,,,,,,1087.0883875,None,,,,,,,,,,,,,,,,,,,,,,gesture,D_new,35,137,1084.1645877999836,None,1084.1645877999836,None,1084.1645877999836,None,1,2.08621830001357,1084.1645877999836,None,1086.3086401000037,None,1086.3086401000037,None,1086.8274330999993,None,1086.8274330999993,None,1086.8274330999993,None,n,0.223281099984888,1086.8274330999993,None,sing35,001,2019_Nov_14_1504,ProdFawcett_Revision2019,3.2.3,59.58967740359094,
,,,,36,0,36,0,,,,,,,,,,,,,1093.2929587999824,None,,,,,,,,,,,,,,,,,,,,,,volume,D_new,36,349,1087.6163364000095,None,1087.6163364000095,None,1087.6163364000095,None,5,4.098108900012448,1087.6163364000095,None,1091.7503475999983,None,1091.7503475999983,None,1092.262702899985,None,1092.262702899985,None,1092.262702899985,None,f,0.9968680999882054,1092.262702899985,None,sing35,001,2019_Nov_14_1504,ProdFawcett_Revision2019,3.2.3,59.58967740359094,
,,,,37,0,37,0,,,,,,,,,,,,,1097.5325683999981,None,,,,,,,,,,,,,,,,,,,,,,write,A_silent,37,358,1093.8156489999965,None,1093.8156489999965,None,1093.8156489999965,None,4,2.906858200003626,1093.8156489999965,None,1096.7502406999993,None,1096.7502406999993,None,1097.2704820999934,None,1097.2704820999934,None,1097.2704820999934,None,f,0.22816250001778826,1097.2704820999934,None,sing35,001,2019_Nov_14_1504,ProdFawcett_Revision2019,3.2.3,59.58967740359094,
,,,,38,0,38,0,,,,,,,,,,,,,1100.5102175000065,None,,,,,,,,,,,,,,,,,,,,,,trend,C_sing,38,340,1098.0557987999928,None,1098.0557987999928,None,1098.0557987999928,None,6,1.5710081000288483,1098.0557987999928,None,1099.6567906999844,None,1099.6567906999844,None,1100.1616071999888,None,1100.1616071999888,None,1100.1616071999888,None,r,0.30517810001038015,1100.1616071999888,None,sing35,001,2019_Nov_14_1504,ProdFawcett_Revision2019,3.2.3,59.58967740359094,
,,,,39,0,39,0,,,,,,,,,,,,,1104.910324299999,None,,,,,,,,,,,,,,,,,,,,,,surprise,A_silent,39,317,1101.0315478999983,None,1101.0315478999983,None,1101.0315478999983,None,4,3.1634213000070304,1101.0315478999983,None,1104.2400556000066,None,1104.2400556000066,None,1104.7591663000057,None,1104.7591663000057,None,1104.7591663000057,None,f,0.10768829999142326,1104.7591663000057,None,sing35,001,2019_Nov_14_1504,ProdFawcett_Revision2019,3.2.3,59.58967740359094,
,,,,40,0,40,0,,,,,,,,,,,,,1107.7940603999887,None,,,,,,,,,,,,,,,,,,,,,,education,B_aloud,40,108,1105.4300271999964,None,1105.4300271999964,None,1105.4300271999964,None,6,1.4444955000071786,1105.4300271999964,None,1106.907950599998,None,1106.907950599998,None,1107.4113777999883,None,1107.4113777999883,None,1107.4113777999883,None,r,0.35153270000591874,1107.4113777999883,None,sing35,001,2019_Nov_14_1504,ProdFawcett_Revision2019,3.2.3,59.58967740359094,
,,,,41,0,41,0,,,,,,,,,,,,,1111.868758800003,None,,,,,,,,,,,,,,,,,,,,,,drink,D_new,41,105,1108.3076194000023,None,1108.3076194000023,None,1108.3076194000023,None,1,2.847031599987531,1108.3076194000023,None,1111.2062960999901,None,1111.2062960999901,None,1111.7248052000068,None,1111.7248052000068,None,1111.7248052000068,None,n,0.09395489998860285,1111.7248052000068,None,sing35,001,2019_Nov_14_1504,ProdFawcett_Revision2019,3.2.3,59.58967740359094,
,,,,42,0,42,0,,,,,,,,,,,,,1115.3012241999968,None,,,,,,,,,,,,,,,,,,,,,,agreement,D_new,42,5,1112.4002440999902,None,1112.4002440999902,None,1112.4002440999902,None,1,2.186383599997498,1112.4002440999902,None,1114.6227944999991,None,1114.6227944999991,None,1115.1356817999913,None,1115.1356817999913,None,1115.1356817999913,None,n,0.13877219997812063,1115.1356817999913,None,sing35,001,2019_Nov_14_1504,ProdFawcett_Revision2019,3.2.3,59.58967740359094,
,,,,43,0,43,0,,,,,,,,,,,,,1120.3442698,None,,,,,,,,,,,,,,,,,,,,,,principal,D_new,43,236,1115.8163440999924,None,1115.8163440999924,None,1115.8163440999924,None,2,3.6504714000038803,1115.8163440999924,None,1119.5237813999993,None,1119.5237813999993,None,1120.0449590999924,None,1120.0449590999924,None,1120.0449590999924,None,n,0.2697940999933053,1120.0449590999924,None,sing35,001,2019_Nov_14_1504,ProdFawcett_Revision2019,3.2.3,59.58967740359094,
,,,,44,0,44,0,,,,,,,,,,,,,1127.0167623999878,None,,,,,,,,,,,,,,,,,,,,,,strain,C_sing,44,308,1120.8545697999944,None,1120.8545697999944,None,1120.8545697999944,None,1,5.188217799994163,1120.8545697999944,None,1126.0915998999844,None,1126.0915998999844,None,1126.6104540000088,None,1126.6104540000088,None,1126.6104540000088,None,n,0.3761979000119027,1126.6104540000088,None,sing35,001,2019_Nov_14_1504,ProdFawcett_Revision2019,3.2.3,59.58967740359094,
,,,,45,0,45,0,,,,,,,,,,,,,1130.116392099997,None,,,,,,,,,,,,,,,,,,,,,,youth,C_sing,45,359,1127.538417999982,None,1127.538417999982,None,1127.538417999982,None,6,1.816349500004435,1127.538417999982,None,1129.408570700005,None,1129.408570700005,None,1129.9142495999986,None,1129.9142495999986,None,1129.9142495999986,None,r,0.17629949998809025,1129.9142495999986,None,sing35,001,2019_Nov_14_1504,ProdFawcett_Revision2019,3.2.3,59.58967740359094,
,,,,46,0,46,0,,,,,,,,,,,,,1133.5885170999973,None,,,,,,,,,,,,,,,,,,,,,,solution,A_silent,46,294,1130.6320901,None,1130.6320901,None,1130.6320901,None,4,2.282877199992072,1130.6320901,None,1132.9597199999844,None,1132.9597199999844,None,1133.4758486000064,None,1133.4758486000064,None,1133.4758486000064,None,f,0.0869517000101041,1133.4758486000064,None,sing35,001,2019_Nov_14_1504,ProdFawcett_Revision2019,3.2.3,59.58967740359094,
,,,,47,0,47,0,,,,,,,,,,,,,1136.4649366000085,None,,,,,,,,,,,,,,,,,,,,,,opening,D_new,47,205,1134.115008199995,None,1134.115008199995,None,1134.115008199995,None,1,1.5838536999945063,1134.115008199995,None,1135.7444727999973,None,1135.7444727999973,None,1136.2658168000053,None,1136.2658168000053,None,1136.2658168000053,None,n,0.1529603999806568,1136.2658168000053,None,sing35,001,2019_Nov_14_1504,ProdFawcett_Revision2019,3.2.3,59.58967740359094,
,,,,48,0,48,0,,,,,,,,,,,,,1142.6474442000035,None,,,,,,,,,,,,,,,,,,,,,,light,B_aloud,48,171,1136.9868263000099,None,1136.9868263000099,None,1136.9868263000099,None,4,2.656100000021979,1136.9868263000099,None,1139.6896056999976,None,1139.6896056999976,None,1140.2156809000007,None,1140.2156809000007,None,1140.2156809000007,None,f,2.387140899983933,1140.2156809000007,None,sing35,001,2019_Nov_14_1504,ProdFawcett_Revision2019,3.2.3,59.58967740359094,
,,,,49,0,49,0,,,,,,,,,,,,,1148.7133067999966,None,,,,,,,,,,,,,,,,,,,,,,problem,D_new,49,238,1143.1667292999919,None,1143.1667292999919,None,1143.1667292999919,None,3,4.6358840000175405,1143.1667292999919,None,1147.8376806000015,None,1147.8376806000015,None,1148.3497836999886,None,1148.3497836999886,None,1148.3497836999886,None,f,0.33294029999524355,1148.3497836999886,None,sing35,001,2019_Nov_14_1504,ProdFawcett_Revision2019,3.2.3,59.58967740359094,
,,,,50,0,50,0,,,,,,,,,,,,,1152.1867281000013,None,,,,,,,,,,,,,,,,,,,,,,owner,A_silent,50,208,1149.2374458999839,None,1149.2374458999839,None,1149.2374458999839,None,6,2.1813762999954633,1149.2374458999839,None,1151.4750574000063,None,1151.4750574000063,None,1151.9996474999934,None,1151.9996474999934,None,1151.9996474999934,None,r,0.16314109999802895,1151.9996474999934,None,sing35,001,2019_Nov_14_1504,ProdFawcett_Revision2019,3.2.3,59.58967740359094,
,,,,51,0,51,0,,,,,,,,,,,,,1155.0966285000031,None,,,,,,,,,,,,,,,,,,,,,,front,C_sing,51,134,1152.7005185000016,None,1152.7005185000016,None,1152.7005185000016,None,2,1.6301273000135552,1152.7005185000016,None,1154.3554575000016,None,1154.3554575000016,None,1154.8712446999853,None,1154.8712446999853,None,1154.8712446999853,None,n,0.18765290000010282,1154.8712446999853,None,sing35,001,2019_Nov_14_1504,ProdFawcett_Revision2019,3.2.3,59.58967740359094,
,,,,52,0,52,0,,,,,,,,,,,,,1160.470949199982,None,,,,,,,,,,,,,,,,,,,,,,platform,D_new,52,224,1155.6183202999819,None,1155.6183202999819,None,1155.6183202999819,None,4,2.6643675999948755,1155.6183202999819,None,1158.30965499999,None,1158.30965499999,None,1158.8159187999845,None,1158.8159187999845,None,1158.8159187999845,None,f,1.6109981999907177,1158.8159187999845,None,sing35,001,2019_Nov_14_1504,ProdFawcett_Revision2019,3.2.3,59.58967740359094,
,,,,53,0,53,0,,,,,,,,,,,,,1163.7695801999944,None,,,,,,,,,,,,,,,,,,,,,,poetry,A_silent,53,225,1161.0005249000096,None,1161.0005249000096,None,1161.0005249000096,None,6,1.7062048999941908,1161.0005249000096,None,1162.7373899999948,None,1162.7373899999948,None,1163.2510783000034,None,1163.2510783000034,None,1163.2510783000034,None,r,0.4876174000091851,1163.2510783000034,None,sing35,001,2019_Nov_14_1504,ProdFawcett_Revision2019,3.2.3,59.58967740359094,
,,,,54,0,54,0,,,,,,,,,,,,,1169.1137495999865,None,,,,,,,,,,,,,,,,,,,,,,council,C_sing,54,71,1164.2884845999943,None,1164.2884845999943,None,1164.2884845999943,None,3,2.042592700017849,1164.2884845999943,None,1166.384281799983,None,1166.384281799983,None,1166.9010024000017,None,1166.9010024000017,None,1166.9010024000017,None,f,2.1738528000132646,1166.9010024000017,None,sing35,001,2019_Nov_14_1504,ProdFawcett_Revision2019,3.2.3,59.58967740359094,
,,,,55,0,55,0,,,,,,,,,,,,,1171.867926100007,None,,,,,,,,,,,,,,,,,,,,,,season,D_new,55,277,1169.6261686999933,None,1169.6261686999933,None,1169.6261686999933,None,1,1.5446172000083607,1169.6261686999933,None,1171.216178200004,None,1171.216178200004,None,1171.7303288999829,None,1171.7303288999829,None,1171.7303288999829,None,n,0.09665759999188595,1171.7303288999829,None,sing35,001,2019_Nov_14_1504,ProdFawcett_Revision2019,3.2.3,59.58967740359094,
,,,,56,0,56,0,,,,,,,,,,,,,1175.504914899997,None,,,,,,,,,,,,,,,,,,,,,,guest,C_sing,56,146,1172.3845134000003,None,1172.3845134000003,None,1172.3845134000003,None,6,2.1623301999934483,1172.3845134000003,None,1174.5966835999861,None,1174.5966835999861,None,1175.1166467999865,None,1175.1166467999865,None,1175.1166467999865,None,r,0.36610660000587814,1175.1166467999865,None,sing35,001,2019_Nov_14_1504,ProdFawcett_Revision2019,3.2.3,59.58967740359094,
,,,,57,0,57,0,,,,,,,,,,,,,1179.3576491999847,None,,,,,,,,,,,,,,,,,,,,,,captain,C_sing,57,41,1176.0198678000015,None,1176.0198678000015,None,1176.0198678000015,None,6,1.6791840000078082,1176.0198678000015,None,1177.732647500001,None,1177.732647500001,None,1178.2488767000032,None,1178.2488767000032,None,1178.2488767000032,None,r,1.0580776999995578,1178.2488767000032,None,sing35,001,2019_Nov_14_1504,ProdFawcett_Revision2019,3.2.3,59.58967740359094,
,,,,58,0,58,0,,,,,,,,,,,,,1182.1529671000026,None,,,,,,,,,,,,,,,,,,,,,,speech,B_aloud,58,298,1179.8816637999844,None,1179.8816637999844,None,1179.8816637999844,None,6,1.3051327000139281,1179.8816637999844,None,1181.2381726999884,None,1181.2381726999884,None,1181.7636894999887,None,1181.7636894999887,None,1181.7636894999887,None,r,0.35897359999944456,1181.7636894999887,None,sing35,001,2019_Nov_14_1504,ProdFawcett_Revision2019,3.2.3,59.58967740359094,
,,,,59,0,59,0,,,,,,,,,,,,,1185.4325175999838,None,,,,,,,,,,,,,,,,,,,,,,symbol,C_sing,59,321,1182.6896938999998,None,1182.6896938999998,None,1182.6896938999998,None,6,1.7449403000064194,1182.6896938999998,None,1184.4560379000031,None,1184.4560379000031,None,1184.9689346000087,None,1184.9689346000087,None,1184.9689346000087,None,r,0.4259619000076782,1184.9689346000087,None,sing35,001,2019_Nov_14_1504,ProdFawcett_Revision2019,3.2.3,59.58967740359094,
,,,,60,0,60,0,,,,,,,,,,,,,1188.3312050999957,None,,,,,,,,,,,,,,,,,,,,,,character,D_new,60,46,1185.9551597999816,None,1185.9551597999816,None,1185.9551597999816,None,3,1.5442137999925762,1185.9551597999816,None,1187.5397490999894,None,1187.5397490999894,None,1188.0652046999894,None,1188.0652046999894,None,1188.0652046999894,None,f,0.22551270000985824,1188.0652046999894,None,sing35,001,2019_Nov_14_1504,ProdFawcett_Revision2019,3.2.3,59.58967740359094,
,,,,61,0,61,0,,,,,,,,,,,,,1191.033151999989,None,,,,,,,,,,,,,,,,,,,,,,colonel,B_aloud,61,55,1188.8545568999834,None,1188.8545568999834,None,1188.8545568999834,None,6,1.364440100005595,1188.8545568999834,None,1190.261677500006,None,1190.261677500006,None,1190.7795544999826,None,1190.7795544999826,None,1190.7795544999826,None,r,0.2231978999916464,1190.7795544999826,None,sing35,001,2019_Nov_14_1504,ProdFawcett_Revision2019,3.2.3,59.58967740359094,
,,,,62,0,62,0,,,,,,,,,,,,,1194.8088931000093,None,,,,,,,,,,,,,,,,,,,,,,mayor,D_new,62,183,1191.5509656000067,None,1191.5509656000067,None,1191.5509656000067,None,1,2.531817699986277,1191.5509656000067,None,1194.1060353000066,None,1194.1060353000066,None,1194.6324157000054,None,1194.6324157000054,None,1194.6324157000054,None,n,0.14619140001013875,1194.6324157000054,None,sing35,001,2019_Nov_14_1504,ProdFawcett_Revision2019,3.2.3,59.58967740359094,
,,,,63,0,63,0,,,,,,,,,,,,,1200.465907899983,None,,,,,,,,,,,,,,,,,,,,,,strength,A_silent,63,310,1195.3283192999952,None,1195.3283192999952,None,1195.3283192999952,None,4,3.5387081999797374,1195.3283192999952,None,1198.9095695999858,None,1198.9095695999858,None,1199.4373818000022,None,1199.4373818000022,None,1199.4373818000022,None,f,0.9977885999833234,1199.4373818000022,None,sing35,001,2019_Nov_14_1504,ProdFawcett_Revision2019,3.2.3,59.58967740359094,
,,,,64,0,64,0,,,,,,,,,,,,,1204.350598799996,None,,,,,,,,,,,,,,,,,,,,,,machinery,A_silent,64,175,1200.9859057999856,None,1200.9859057999856,None,1200.9859057999856,None,6,1.8170592999958899,1200.9859057999856,None,1202.840744599991,None,1202.840744599991,None,1203.3587630999973,None,1203.3587630999973,None,1203.3587630999973,None,r,0.9564287000102922,1203.3587630999973,None,sing35,001,2019_Nov_14_1504,ProdFawcett_Revision2019,3.2.3,59.58967740359094,
,,,,65,0,65,0,,,,,,,,,,,,,1207.2153316999902,None,,,,,,,,,,,,,,,,,,,,,,angle,B_aloud,65,7,1204.8734036000096,None,1204.8734036000096,None,1204.8734036000096,None,6,1.4253989000280853,1204.8734036000096,None,1206.3236467000097,None,1206.3236467000097,None,1206.8379719000077,None,1206.8379719000077,None,1206.8379719000077,None,r,0.3409529999771621,1206.8379719000077,None,sing35,001,2019_Nov_14_1504,ProdFawcett_Revision2019,3.2.3,59.58967740359094,
,,,,66,0,66,0,,,,,,,,,,,,,1210.3693636000098,None,,,,,,,,,,,,,,,,,,,,,,notice,D_new,66,201,1207.7352186999924,None,1207.7352186999924,None,1207.7352186999924,None,2,1.9153654999972787,1207.7352186999924,None,1209.6740728000004,None,1209.6740728000004,None,1210.1868915999949,None,1210.1868915999949,None,1210.1868915999949,None,n,0.14409070002147928,1210.1868915999949,None,sing35,001,2019_Nov_14_1504,ProdFawcett_Revision2019,3.2.3,59.58967740359094,
,,,,67,0,67,0,,,,,,,,,,,,,1213.4061726999935,None,,,,,,,,,,,,,,,,,,,,,,entrance,A_silent,67,115,1210.8831123999844,None,1210.8831123999844,None,1210.8831123999844,None,4,1.6155501000175718,1210.8831123999844,None,1212.5360213000095,None,1212.5360213000095,None,1213.0367348,None,1213.0367348,None,1213.0367348,None,f,0.32618480001110584,1213.0367348,None,sing35,001,2019_Nov_14_1504,ProdFawcett_Revision2019,3.2.3,59.58967740359094,
,,,,68,0,68,0,,,,,,,,,,,,,1217.338010300009,None,,,,,,,,,,,,,,,,,,,,,,death,A_silent,68,86,1213.9349242000026,None,1213.9349242000026,None,1213.9349242000026,None,6,1.580251799983671,1213.9349242000026,None,1215.557715700008,None,1215.557715700008,None,1216.0820725999947,None,1216.0820725999947,None,1216.0820725999947,None,r,1.2088062999828253,1216.0820725999947,None,sing35,001,2019_Nov_14_1504,ProdFawcett_Revision2019,3.2.3,59.58967740359094,
,,,,69,0,69,0,,,,,,,,,,,,,1221.2845507999882,None,,,,,,,,,,,,,,,,,,,,,,session,A_silent,69,281,1217.8667221000069,None,1217.8667221000069,None,1217.8667221000069,None,4,1.927930900012143,1217.8667221000069,None,1219.8324768999883,None,1219.8324768999883,None,1220.3529251999862,None,1220.3529251999862,None,1220.3529251999862,None,f,0.8987070999864955,1220.3529251999862,None,sing35,001,2019_Nov_14_1504,ProdFawcett_Revision2019,3.2.3,59.58967740359094,
,,,,70,0,70,0,,,,,,,,,,,,,1225.6143128999975,None,,,,,,,,,,,,,,,,,,,,,,watch,A_silent,70,351,1221.806420000008,None,1221.806420000008,None,1221.806420000008,None,3,3.0522330999956466,1221.806420000008,None,1224.8925283999997,None,1224.8925283999997,None,1225.4046502999845,None,1225.4046502999845,None,1225.4046502999845,None,f,0.18231880001258105,1225.4046502999845,None,sing35,001,2019_Nov_14_1504,ProdFawcett_Revision2019,3.2.3,59.58967740359094,
,,,,71,0,71,0,,,,,,,,,,,,,1228.6532260999957,None,,,,,,,,,,,,,,,,,,,,,,mankind,D_new,71,178,1226.137217999989,None,1226.137217999989,None,1226.137217999989,None,1,1.7139965000096709,1226.137217999989,None,1227.8981214000087,None,1227.8981214000087,None,1228.4176324,None,1228.4176324,None,1228.4176324,None,n,0.20140670001273975,1228.4176324,None,sing35,001,2019_Nov_14_1504,ProdFawcett_Revision2019,3.2.3,59.58967740359094,
,,,,72,0,72,0,,,,,,,,,,,,,1232.0841011999873,None,,,,,,,,,,,,,,,,,,,,,,group,B_aloud,72,143,1229.1732064000098,None,1229.1732064000098,None,1229.1732064000098,None,6,1.6937037000025157,1229.1732064000098,None,1230.9146168000007,None,1230.9146168000007,None,1231.4414816999924,None,1231.4414816999924,None,1231.4414816999924,None,r,0.6092684000032023,1231.4414816999924,None,sing35,001,2019_Nov_14_1504,ProdFawcett_Revision2019,3.2.3,59.58967740359094,
,,,,73,0,73,0,,,,,,,,,,,,,1235.1720528999867,None,,,,,,,,,,,,,,,,,,,,,,executive,D_new,73,122,1232.610087499983,None,1232.610087499983,None,1232.610087499983,None,1,1.8007263999897987,1232.610087499983,None,1234.453335099999,None,1234.453335099999,None,1234.9616655999853,None,1234.9616655999853,None,1234.9616655999853,None,n,0.17725989999598823,1234.9616655999853,None,sing35,001,2019_Nov_14_1504,ProdFawcett_Revision2019,3.2.3,59.58967740359094,
,,,,74,0,74,0,,,,,,,,,,,,,1238.1191453000065,None,,,,,,,,,,,,,,,,,,,,,,throw,A_silent,74,330,1235.6939459999849,None,1235.6939459999849,None,1235.6939459999849,None,6,1.476728700014064,1235.6939459999849,None,1237.1927926999924,None,1237.1927926999924,None,1237.7219426000083,None,1237.7219426000083,None,1237.7219426000083,None,r,0.36128179999650456,1237.7219426000083,None,sing35,001,2019_Nov_14_1504,ProdFawcett_Revision2019,3.2.3,59.58967740359094,
,,,,75,0,75,0,,,,,,,,,,,,,1241.3383159000077,None,,,,,,,,,,,,,,,,,,,,,,power,D_new,75,230,1238.6492289000016,None,1238.6492289000016,None,1238.6492289000016,None,6,1.9135685999935959,1238.6492289000016,None,1240.6011177999899,None,1240.6011177999899,None,1241.119698399998,None,1241.119698399998,None,1241.119698399998,None,r,0.18711870000697672,1241.119698399998,None,sing35,001,2019_Nov_14_1504,ProdFawcett_Revision2019,3.2.3,59.58967740359094,
,,,,76,0,76,0,,,,,,,,,,,,,1244.524700399983,None,,,,,,,,,,,,,,,,,,,,,,welcome,D_new,76,354,1241.8637438000005,None,1241.8637438000005,None,1241.8637438000005,None,2,1.899085599987302,1241.8637438000005,None,1243.8161277000036,None,1243.8161277000036,None,1244.3434148000088,None,1244.3434148000088,None,1244.3434148000088,None,n,0.1471624999830965,1244.3434148000088,None,sing35,001,2019_Nov_14_1504,ProdFawcett_Revision2019,3.2.3,59.58967740359094,
,,,,77,0,77,0,,,,,,,,,,,,,1247.453353799996,None,,,,,,,,,,,,,,,,,,,,,,scene,D_new,77,273,1245.0431146000046,None,1245.0431146000046,None,1245.0431146000046,None,1,1.6714753000123892,1245.0431146000046,None,1246.7428604000015,None,1246.7428604000015,None,1247.2546351999918,None,1247.2546351999918,None,1247.2546351999918,None,n,0.16434699998353608,1247.2546351999918,None,sing35,001,2019_Nov_14_1504,ProdFawcett_Revision2019,3.2.3,59.58967740359094,
,,,,78,0,78,0,,,,,,,,,,,,,1251.4337790999853,None,,,,,,,,,,,,,,,,,,,,,,crisis,C_sing,78,79,1247.9732869,None,1247.9732869,None,1247.9732869,None,6,2.517531699995743,1247.9732869,None,1250.531505699997,None,1250.531505699997,None,1251.0523038999818,None,1251.0523038999818,None,1251.0523038999818,None,r,0.33477150002727285,1251.0523038999818,None,sing35,001,2019_Nov_14_1504,ProdFawcett_Revision2019,3.2.3,59.58967740359094,
,,,,79,0,79,0,,,,,,,,,,,,,1254.6284748000035,None,,,,,,,,,,,,,,,,,,,,,,patient,D_new,79,213,1251.9611949999817,None,1251.9611949999817,None,1251.9611949999817,None,2,1.5775033000099938,1251.9611949999817,None,1253.5600021999853,None,1253.5600021999853,None,1254.0733913999866,None,1254.0733913999866,None,1254.0733913999866,None,n,0.5212679000105709,1254.0733913999866,None,sing35,001,2019_Nov_14_1504,ProdFawcett_Revision2019,3.2.3,59.58967740359094,
,,,,80,0,80,0,,,,,,,,,,,,,1257.557600900007,None,,,,,,,,,,,,,,,,,,,,,,court,D_new,80,75,1255.139252699999,None,1255.139252699999,None,1255.139252699999,None,1,1.6393985000031535,1255.139252699999,None,1256.8151575000084,None,1256.8151575000084,None,1257.3264331999817,None,1257.3264331999817,None,1257.3264331999817,None,n,0.20424609998008236,1257.3264331999817,None,sing35,001,2019_Nov_14_1504,ProdFawcett_Revision2019,3.2.3,59.58967740359094,
,,,,81,0,81,0,,,,,,,,,,,,,1261.9217711999954,None,,,,,,,,,,,,,,,,,,,,,,congress,D_new,81,67,1258.0920852999843,None,1258.0920852999843,None,1258.0920852999843,None,1,3.102522700006375,1258.0920852999843,None,1261.2313052999962,None,1261.2313052999962,None,1261.7472503999888,None,1261.7472503999888,None,1261.7472503999888,None,n,0.1355850999825634,1261.7472503999888,None,sing35,001,2019_Nov_14_1504,ProdFawcett_Revision2019,3.2.3,59.58967740359094,
,,,,82,0,82,0,,,,,,,,,,,,,1265.129715099989,None,,,,,,,,,,,,,,,,,,,,,,expansion,D_new,82,123,1262.433350599982,None,1262.433350599982,None,1262.433350599982,None,1,2.025470499997027,1262.433350599982,None,1264.5213898000075,None,1264.5213898000075,None,1265.0409437000053,None,1265.0409437000053,None,1265.0409437000053,None,n,0.058062499971129,1265.0409437000053,None,sing35,001,2019_Nov_14_1504,ProdFawcett_Revision2019,3.2.3,59.58967740359094,
,,,,83,0,83,0,,,,,,,,,,,,,1269.4562346999883,None,,,,,,,,,,,,,,,,,,,,,,narrow,B_aloud,83,197,1265.6589299000043,None,1265.6589299000043,None,1265.6589299000043,None,3,3.0800658000225667,1265.6589299000043,None,1268.7803862,None,1268.7803862,None,1269.3055385999905,None,1269.3055385999905,None,1269.3055385999905,None,f,0.11359339999035001,1269.3055385999905,None,sing35,001,2019_Nov_14_1504,ProdFawcett_Revision2019,3.2.3,59.58967740359094,
,,,,84,0,84,0,,,,,,,,,,,,,1273.1389202999999,None,,,,,,,,,,,,,,,,,,,,,,measure,D_new,84,184,1269.9768628999882,None,1269.9768628999882,None,1269.9768628999882,None,2,2.4737402999890037,1269.9768628999882,None,1272.4780050999834,None,1272.4780050999834,None,1272.989839499991,None,1272.989839499991,None,1272.989839499991,None,n,0.11700820000260137,1272.989839499991,None,sing35,001,2019_Nov_14_1504,ProdFawcett_Revision2019,3.2.3,59.58967740359094,
,,,,85,0,85,0,,,,,,,,,,,,,1276.1930118000018,None,,,,,,,,,,,,,,,,,,,,,,worker,C_sing,85,356,1273.66211569999,None,1273.66211569999,None,1273.66211569999,None,3,1.7963515000010375,1273.66211569999,None,1275.4968459999945,None,1275.4968459999945,None,1276.0111165999842,None,1276.0111165999842,None,1276.0111165999842,None,f,0.1596828000037931,1276.0111165999842,None,sing35,001,2019_Nov_14_1504,ProdFawcett_Revision2019,3.2.3,59.58967740359094,
,,,,86,0,86,0,,,,,,,,,,,,,1279.508891000005,None,,,,,,,,,,,,,,,,,,,,,,heavy,D_new,86,151,1276.7135585999931,None,1276.7135585999931,None,1276.7135585999931,None,1,1.7851507999876048,1276.7135585999931,None,1278.535639699985,None,1278.535639699985,None,1279.0422001999978,None,1279.0422001999978,None,1279.0422001999978,None,n,0.440586099983193,1279.0422001999978,None,sing35,001,2019_Nov_14_1504,ProdFawcett_Revision2019,3.2.3,59.58967740359094,
,,,,87,0,87,0,,,,,,,,,,,,,1283.141679399996,None,,,,,,,,,,,,,,,,,,,,,,column,A_silent,87,57,1280.0246579000086,None,1280.0246579000086,None,1280.0246579000086,None,6,1.9778871000162326,1280.0246579000086,None,1282.0291670000006,None,1282.0291670000006,None,1282.5413451000059,None,1282.5413451000059,None,1282.5413451000059,None,r,0.5732956000138074,1282.5413451000059,None,sing35,001,2019_Nov_14_1504,ProdFawcett_Revision2019,3.2.3,59.58967740359094,
,,,,88,0,88,0,,,,,,,,,,,,,1286.2933783000044,None,,,,,,,,,,,,,,,,,,,,,,primary,D_new,88,234,1283.6590539999888,None,1283.6590539999888,None,1283.6590539999888,None,6,1.8078190000087488,1283.6590539999888,None,1285.5142941999948,None,1285.5142941999948,None,1286.040077499987,None,1286.040077499987,None,1286.040077499987,None,r,0.23444329999620095,1286.040077499987,None,sing35,001,2019_Nov_14_1504,ProdFawcett_Revision2019,3.2.3,59.58967740359094,
,,,,89,0,89,0,,,,,,,,,,,,,1289.655694999994,None,,,,,,,,,,,,,,,,,,,,,,blind,A_silent,89,24,1286.8185491999902,None,1286.8185491999902,None,1286.8185491999902,None,6,2.0002327999973204,1286.8185491999902,None,1288.857469999988,None,1288.857469999988,None,1289.3637136000034,None,1289.3637136000034,None,1289.3637136000034,None,r,0.2631208999955561,1289.3637136000034,None,sing35,001,2019_Nov_14_1504,ProdFawcett_Revision2019,3.2.3,59.58967740359094,
,,,,90,0,90,0,,,,,,,,,,,,,1292.5882074999972,None,,,,,,,,,,,,,,,,,,,,,,passage,D_new,90,212,1290.17906699999,None,1290.17906699999,None,1290.17906699999,None,2,1.6078731000015978,1290.17906699999,None,1291.8515145999845,None,1291.8515145999845,None,1292.3759504999907,None,1292.3759504999907,None,1292.3759504999907,None,n,0.17073330000857823,1292.3759504999907,None,sing35,001,2019_Nov_14_1504,ProdFawcett_Revision2019,3.2.3,59.58967740359094,
,,,,91,0,91,0,,,,,,,,,,,,,1296.2109264000028,None,,,,,,,,,,,,,,,,,,,,,,edition,D_new,91,107,1293.1042359999847,None,1293.1042359999847,None,1293.1042359999847,None,2,2.354664899990894,1293.1042359999847,None,1295.5011676999857,None,1295.5011676999857,None,1296.0268418999913,None,1296.0268418999913,None,1296.0268418999913,None,n,0.14405299999634735,1296.0268418999913,None,sing35,001,2019_Nov_14_1504,ProdFawcett_Revision2019,3.2.3,59.58967740359094,
,,,,92,0,92,0,,,,,,,,,,,,,1299.3063091000076,None,,,,,,,,,,,,,,,,,,,,,,smooth,D_new,92,292,1296.7474192999944,None,1296.7474192999944,None,1296.7474192999944,None,4,1.6955334999947809,1296.7474192999944,None,1298.4799184000003,None,1298.4799184000003,None,1299.0047337999858,None,1299.0047337999858,None,1299.0047337999858,None,f,0.2622577000001911,1299.0047337999858,None,sing35,001,2019_Nov_14_1504,ProdFawcett_Revision2019,3.2.3,59.58967740359094,
,,,,93,0,93,0,,,,,,,,,,,,,1302.3069620000024,None,,,,,,,,,,,,,,,,,,,,,,bucket,C_sing,93,33,1299.8130904999853,None,1299.8130904999853,None,1299.8130904999853,None,6,1.5258622000110336,1299.8130904999853,None,1301.3853956999956,None,1301.3853956999956,None,1301.9079857000033,None,1301.9079857000033,None,1301.9079857000033,None,r,0.3589792000129819,1301.9079857000033,None,sing35,001,2019_Nov_14_1504,ProdFawcett_Revision2019,3.2.3,59.58967740359094,
,,,,94,0,94,0,,,,,,,,,,,,,1305.2785387999902,None,,,,,,,,,,,,,,,,,,,,,,republic,D_new,94,260,1302.827686899982,None,1302.827686899982,None,1302.827686899982,None,2,1.7592373999941628,1302.827686899982,None,1304.6307618999854,None,1304.6307618999854,None,1305.1604164000018,None,1305.1604164000018,None,1305.1604164000018,None,n,0.09043290000408888,1305.1604164000018,None,sing35,001,2019_Nov_14_1504,ProdFawcett_Revision2019,3.2.3,59.58967740359094,
,,,,95,0,95,0,,,,,,,,,,,,,1308.1296311999904,None,,,,,,,,,,,,,,,,,,,,,,treatment,B_aloud,95,339,1305.7975040999881,None,1305.7975040999881,None,1305.7975040999881,None,4,1.6533886000106577,1305.7975040999881,None,1307.4825991999824,None,1307.4825991999824,None,1308.0077163999958,None,1308.0077163999958,None,1308.0077163999958,None,f,0.09926059999270365,1308.0077163999958,None,sing35,001,2019_Nov_14_1504,ProdFawcett_Revision2019,3.2.3,59.58967740359094,
,,,,96,0,96,0,,,,,,,,,,,,,1310.9195020000043,None,,,,,,,,,,,,,,,,,,,,,,cousin,D_new,96,76,1308.6474168999994,None,1308.6474168999994,None,1308.6474168999994,None,1,1.5233646999986377,1308.6474168999994,None,1310.2045126000012,None,1310.2045126000012,None,1310.717651999992,None,1310.717651999992,None,1310.717651999992,None,n,0.1733718999894336,1310.717651999992,None,sing35,001,2019_Nov_14_1504,ProdFawcett_Revision2019,3.2.3,59.58967740359094,
,,,,97,0,97,0,,,,,,,,,,,,,1313.8046373999969,None,,,,,,,,,,,,,,,,,,,,,,running,A_silent,97,268,1311.446458499995,None,1311.446458499995,None,1311.446458499995,None,1,1.5883903999929316,1311.446458499995,None,1313.0860725000093,None,1313.0860725000093,None,1313.5951578999811,None,1313.5951578999811,None,1313.5951578999811,None,n,0.17582299999776296,1313.5951578999811,None,sing35,001,2019_Nov_14_1504,ProdFawcett_Revision2019,3.2.3,59.58967740359094,
,,,,98,0,98,0,,,,,,,,,,,,,1318.672569199989,None,,,,,,,,,,,,,,,,,,,,,,atmosphere,C_sing,98,12,1314.3248623999825,None,1314.3248623999825,None,1314.3248623999825,None,6,1.8940497000003234,1314.3248623999825,None,1316.2674133999972,None,1316.2674133999972,None,1316.7922311000002,None,1316.7922311000002,None,1316.7922311000002,None,r,1.8425671999866609,1316.7922311000002,None,sing35,001,2019_Nov_14_1504,ProdFawcett_Revision2019,3.2.3,59.58967740359094,
,,,,99,0,99,0,,,,,,,,,,,,,1322.5086889000086,None,,,,,,,,,,,,,,,,,,,,,,nature,B_aloud,99,200,1319.1940254000074,None,1319.1940254000074,None,1319.1940254000074,None,4,2.608887500013225,1319.1940254000074,None,1321.8494501000096,None,1321.8494501000096,None,1322.3745323999901,None,1322.3745323999901,None,1322.3745323999901,None,f,0.10054740001214668,1322.3745323999901,None,sing35,001,2019_Nov_14_1504,ProdFawcett_Revision2019,3.2.3,59.58967740359094,
,,,,100,0,100,0,,,,,,,,,,,,,1325.480879699986,None,,,,,,,,,,,,,,,,,,,,,,candidate,B_aloud,100,39,1323.0280612999923,None,1323.0280612999923,None,1323.0280612999923,None,6,1.4949426999955904,1323.0280612999923,None,1324.5717319999821,None,1324.5717319999821,None,1325.0916452999809,None,1325.0916452999809,None,1325.0916452999809,None,r,0.3591700000106357,1325.0916452999809,None,sing35,001,2019_Nov_14_1504,ProdFawcett_Revision2019,3.2.3,59.58967740359094,
,,,,101,0,101,0,,,,,,,,,,,,,1329.259219700005,None,,,,,,,,,,,,,,,,,,,,,,division,D_new,101,101,1326.0142904999957,None,1326.0142904999957,None,1326.0142904999957,None,4,2.5407447000034153,1326.0142904999957,None,1328.6056336000038,None,1328.6056336000038,None,1329.132691899984,None,1329.132691899984,None,1329.132691899984,None,f,0.08619390000239946,1329.132691899984,None,sing35,001,2019_Nov_14_1504,ProdFawcett_Revision2019,3.2.3,59.58967740359094,
,,,,102,0,102,0,,,,,,,,,,,,,1333.241170399997,None,,,,,,,,,,,,,,,,,,,,,,payment,D_new,102,215,1329.778114899993,None,1329.778114899993,None,1329.778114899993,None,3,2.800870600010967,1329.778114899993,None,1332.6167763999838,None,1332.6167763999838,None,1333.1407373999828,None,1333.1407373999828,None,1333.1407373999828,None,f,0.07019880000734702,1333.1407373999828,None,sing35,001,2019_Nov_14_1504,ProdFawcett_Revision2019,3.2.3,59.58967740359094,
,,,,103,0,103,0,,,,,,,,,,,,,1336.1999798000033,None,,,,,,,,,,,,,,,,,,,,,,error,C_sing,103,117,1333.761997499998,None,1333.761997499998,None,1333.761997499998,None,6,1.665022700006375,1333.761997499998,None,1335.4704244000022,None,1335.4704244000022,None,1335.9936037999869,None,1335.9936037999869,None,1335.9936037999869,None,r,0.17719319998286664,1335.9936037999869,None,sing35,001,2019_Nov_14_1504,ProdFawcett_Revision2019,3.2.3,59.58967740359094,
,,,,104,0,104,0,,,,,,,,,,,,,1338.878855499992,None,,,,,,,,,,,,,,,,,,,,,,permit,D_new,104,218,1336.7137106999871,None,1336.7137106999871,None,1336.7137106999871,None,1,1.433198499988066,1336.7137106999871,None,1338.1779491000052,None,1338.1779491000052,None,1338.6978503999999,None,1338.6978503999999,None,1338.6978503999999,None,n,0.1370535000169184,1338.6978503999999,None,sing35,001,2019_Nov_14_1504,ProdFawcett_Revision2019,3.2.3,59.58967740359094,
,,,,105,0,105,0,,,,,,,,,,,,,1341.8978755999997,None,,,,,,,,,,,,,,,,,,,,,,management,B_aloud,105,177,1339.4036255999818,None,1339.4036255999818,None,1339.4036255999818,None,2,1.8713303000258747,1339.4036255999818,None,1341.3257385999896,None,1341.3257385999896,None,1341.8449327999842,None,1341.8449327999842,None,1341.8449327999842,None,n,0.014169000001857057,1341.8449327999842,None,sing35,001,2019_Nov_14_1504,ProdFawcett_Revision2019,3.2.3,59.58967740359094,
,,,,106,0,106,0,,,,,,,,,,,,,1345.0659298999817,None,,,,,,,,,,,,,,,,,,,,,,search,D_new,106,276,1342.4311092999997,None,1342.4311092999997,None,1342.4311092999997,None,1,1.9080115999968257,1342.4311092999997,None,1344.3916379000002,None,1344.3916379000002,None,1344.9091138000076,None,1344.9091138000076,None,1344.9091138000076,None,n,0.1257190000033006,1344.9091138000076,None,sing35,001,2019_Nov_14_1504,ProdFawcett_Revision2019,3.2.3,59.58967740359094,
,,,,107,0,107,0,,,,,,,,,,,,,1347.909239200002,None,,,,,,,,,,,,,,,,,,,,,,escape,C_sing,107,118,1345.5831023000064,None,1345.5831023000064,None,1345.5831023000064,None,6,1.651418299996294,1345.5831023000064,None,1347.2767683999846,None,1347.2767683999846,None,1347.7810935000016,None,1347.7810935000016,None,1347.7810935000016,None,r,0.09374989999923855,1347.7810935000016,None,sing35,001,2019_Nov_14_1504,ProdFawcett_Revision2019,3.2.3,59.58967740359094,
,,,,108,0,108,0,,,,,,,,,,,,,1350.6105137999984,None,,,,,,,,,,,,,,,,,,,,,,height,D_new,108,152,1348.434766899998,None,1348.434766899998,None,1348.434766899998,None,2,1.4958626999869011,1348.434766899998,None,1349.9827649999934,None,1349.9827649999934,None,1350.4984715000028,None,1350.4984715000028,None,1350.4984715000028,None,n,0.08048010000493377,1350.4984715000028,None,sing35,001,2019_Nov_14_1504,ProdFawcett_Revision2019,3.2.3,59.58967740359094,
,,,,109,0,109,0,,,,,,,,,,,,,1353.474028800003,None,,,,,,,,,,,,,,,,,,,,,,fight,C_sing,109,127,1351.1348815000092,None,1351.1348815000092,None,1351.1348815000092,None,1,1.4276298000186216,1351.1348815000092,None,1352.596381499985,None,1352.596381499985,None,1353.1119824000052,None,1353.1119824000052,None,1353.1119824000052,None,n,0.3151627999905031,1353.1119824000052,None,sing35,001,2019_Nov_14_1504,ProdFawcett_Revision2019,3.2.3,59.58967740359094,
,,,,110,0,110,0,,,,,,,,,,,,,1356.6357858999982,None,,,,,,,,,,,,,,,,,,,,,,number,B_aloud,110,203,1354.0019118000055,None,1354.0019118000055,None,1354.0019118000055,None,4,1.8256786999991164,1354.0019118000055,None,1355.8725098999857,None,1355.8725098999857,None,1356.3995833999943,None,1356.3995833999943,None,1356.3995833999943,None,f,0.211060700006783,1356.3995833999943,None,sing35,001,2019_Nov_14_1504,ProdFawcett_Revision2019,3.2.3,59.58967740359094,
,,,,111,0,111,0,,,,,,,,,,,,,1360.2445021999883,None,,,,,,,,,,,,,,,,,,,,,,build,D_new,111,35,1357.1686150000023,None,1357.1686150000023,None,1357.1686150000023,None,2,2.4021524999989197,1357.1686150000023,None,1359.608124899998,None,1359.608124899998,None,1360.114498799987,None,1360.114498799987,None,1360.114498799987,None,n,0.08837370001128875,1360.114498799987,None,sing35,001,2019_Nov_14_1504,ProdFawcett_Revision2019,3.2.3,59.58967740359094,
,,,,112,0,112,0,,,,,,,,,,,,,1364.5329644999874,None,,,,,,,,,,,,,,,,,,,,,,accident,C_sing,112,0,1360.7658034999913,None,1360.7658034999913,None,1360.7658034999913,None,6,1.9330703000014182,1360.7658034999913,None,1362.7589503999916,None,1362.7589503999916,None,1363.2784922999854,None,1363.2784922999854,None,1363.2784922999854,None,r,1.2280930999841075,1363.2784922999854,None,sing35,001,2019_Nov_14_1504,ProdFawcett_Revision2019,3.2.3,59.58967740359094,
,,,,113,0,113,0,,,,,,,,,,,,,1368.3143272000016,None,,,,,,,,,,,,,,,,,,,,,,second,A_silent,113,278,1365.0512749000045,None,1365.0512749000045,None,1365.0512749000045,None,2,2.143928900011815,1365.0512749000045,None,1367.240025200008,None,1367.240025200008,None,1367.7626816999982,None,1367.7626816999982,None,1367.7626816999982,None,n,0.5124278000148479,1367.7626816999982,None,sing35,001,2019_Nov_14_1504,ProdFawcett_Revision2019,3.2.3,59.58967740359094,
,,,,114,0,114,0,,,,,,,,,,,,,1371.1695465999946,None,,,,,,,,,,,,,,,,,,,,,,substance,B_aloud,114,313,1368.8354560000007,None,1368.8354560000007,None,1368.8354560000007,None,4,1.7115364999917801,1368.8354560000007,None,1370.596268399997,None,1370.596268399997,None,1371.1158850000065,None,1371.1158850000065,None,1371.1158850000065,None,f,0.007027999992715195,1371.1158850000065,None,sing35,001,2019_Nov_14_1504,ProdFawcett_Revision2019,3.2.3,59.58967740359094,
,,,,115,0,115,0,,,,,,,,,,,,,1375.5307021999906,None,,,,,,,,,,,,,,,,,,,,,,generation,C_sing,115,136,1371.6949156000046,None,1371.6949156000046,None,1371.6949156000046,None,6,2.8040267000033055,1371.6949156000046,None,1374.5364671999996,None,1374.5364671999996,None,1375.0658657999884,None,1375.0658657999884,None,1375.0658657999884,None,r,0.43298549999599345,1375.0658657999884,None,sing35,001,2019_Nov_14_1504,ProdFawcett_Revision2019,3.2.3,59.58967740359094,
,,,,116,0,116,0,,,,,,,,,,,,,1378.3629218999995,None,,,,,,,,,,,,,,,,,,,,,,comfort,A_silent,116,59,1376.0482108999859,None,1376.0482108999859,None,1376.0482108999859,None,2,1.5703541000257246,1376.0482108999859,None,1377.6553639000049,None,1377.6553639000049,None,1378.168879600009,None,1378.168879600009,None,1378.168879600009,None,n,0.15410460002021864,1378.168879600009,None,sing35,001,2019_Nov_14_1504,ProdFawcett_Revision2019,3.2.3,59.58967740359094,
,,,,117,0,117,0,,,,,,,,,,,,,1382.2631162999896,None,,,,,,,,,,,,,,,,,,,,,,discussion,D_new,117,96,1378.8820521000016,None,1378.8820521000016,None,1378.8820521000016,None,2,2.48869040000136,1378.8820521000016,None,1381.4182747000013,None,1381.4182747000013,None,1381.9317515000002,None,1381.9317515000002,None,1381.9317515000002,None,n,0.2952741000044625,1381.9317515000002,None,sing35,001,2019_Nov_14_1504,ProdFawcett_Revision2019,3.2.3,59.58967740359094,
,,,,118,0,118,0,,,,,,,,,,,,,1385.7124566999846,None,,,,,,,,,,,,,,,,,,,,,,waste,D_new,118,350,1382.785004699981,None,1382.785004699981,None,1382.785004699981,None,1,1.9458892999973614,1382.785004699981,None,1384.7528119999915,None,1384.7528119999915,None,1385.2762352999998,None,1385.2762352999998,None,1385.2762352999998,None,n,0.3907013999996707,1385.2762352999998,None,sing35,001,2019_Nov_14_1504,ProdFawcett_Revision2019,3.2.3,59.58967740359094,
,,,,119,0,119,0,,,,,,,,,,,,,1388.3124287999817,None,,,,,,,,,,,,,,,,,,,,,,burden,D_new,119,36,1386.235032800003,None,1386.235032800003,None,1386.235032800003,None,1,1.3360289999982342,1386.235032800003,None,1387.618946600007,None,1387.618946600007,None,1388.1453732000082,None,1388.1453732000082,None,1388.1453732000082,None,n,0.12207899999339134,1388.1453732000082,None,sing35,001,2019_Nov_14_1504,ProdFawcett_Revision2019,3.2.3,59.58967740359094,
,,,,120,0,120,0,,,,,,,,,,,,,1393.146895999991,None,,,,,,,,,,,,,,,,,,,,,,career,C_sing,120,42,1388.8316882000072,None,1388.8316882000072,None,1388.8316882000072,None,2,2.8592689000070095,1388.8316882000072,None,1391.7442052999977,None,1391.7442052999977,None,1392.262281400006,None,1392.262281400006,None,1392.262281400006,None,n,0.8604401999909896,1392.262281400006,None,sing35,001,2019_Nov_14_1504,ProdFawcett_Revision2019,3.2.3,59.58967740359094,
,,,,121,0,121,0,,,,,,,,,,,,,1396.4904076000093,None,,,,,,,,,,,,,,,,,,,,,,little,A_silent,121,174,1393.6487501999945,None,1393.6487501999945,None,1393.6487501999945,None,1,1.6339707000006456,1393.6487501999945,None,1395.31634759999,None,1395.31634759999,None,1395.8303268000018,None,1395.8303268000018,None,1395.8303268000018,None,n,0.6205597999796737,1395.8303268000018,None,sing35,001,2019_Nov_14_1504,ProdFawcett_Revision2019,3.2.3,59.58967740359094,
,,,,122,0,122,0,,,,,,,,,,,,,1402.3135904000083,None,,,,,,,,,,,,,,,,,,,,,,history,D_new,122,153,1397.012013700005,None,1397.012013700005,None,1397.012013700005,None,2,4.135125200002221,1397.012013700005,None,1401.1911504000018,None,1401.1911504000018,None,1401.7133735000098,None,1401.7133735000098,None,1401.7133735000098,None,n,0.5616070999822114,1401.7133735000098,None,sing35,001,2019_Nov_14_1504,ProdFawcett_Revision2019,3.2.3,59.58967740359094,
,,,,123,0,123,0,,,,,,,,,,,,,1405.5808681999915,None,,,,,,,,,,,,,,,,,,,,,,individual,C_sing,123,160,1402.837853200006,None,1402.837853200006,None,1402.837853200006,None,3,2.0288625999819487,1402.837853200006,None,1404.9006106999877,None,1404.9006106999877,None,1405.418528499984,None,1405.418528499984,None,1405.418528499984,None,f,0.1203549999918323,1405.418528499984,None,sing35,001,2019_Nov_14_1504,ProdFawcett_Revision2019,3.2.3,59.58967740359094,
,,,,124,0,124,0,,,,,,,,,,,,,1408.8530926000094,None,,,,,,,,,,,,,,,,,,,,,,equipment,D_new,124,116,1406.1077220999869,None,1406.1077220999869,None,1406.1077220999869,None,2,1.8392041000188328,1406.1077220999869,None,1407.9721568000095,None,1407.9721568000095,None,1408.4877471000073,None,1408.4877471000073,None,1408.4877471000073,None,f,0.33117780002066866,1408.4877471000073,None,sing35,001,2019_Nov_14_1504,ProdFawcett_Revision2019,3.2.3,59.58967740359094,
,,,,125,0,125,0,,,,,,,,,,,,,1412.4514830999833,None,,,,,,,,,,,,,,,,,,,,,,household,D_new,125,154,1409.3862603000016,None,1409.3862603000016,None,1409.3862603000016,None,1,1.752682599995751,1409.3862603000016,None,1411.1836849999963,None,1411.1836849999963,None,1411.6956671999942,None,1411.6956671999942,None,1411.6956671999942,None,n,0.7153203999914695,1411.6956671999942,None,sing35,001,2019_Nov_14_1504,ProdFawcett_Revision2019,3.2.3,59.58967740359094,
,,,,126,0,126,0,,,,,,,,,,,,,1418.1819178999867,None,,,,,,,,,,,,,,,,,,,,,,broke,A_silent,126,32,1412.9898585999908,None,1412.9898585999908,None,1412.9898585999908,None,4,1.8209575999935623,1412.9898585999908,None,1414.8643359999987,None,1414.8643359999987,None,1415.3794703999883,None,1415.3794703999883,None,1415.3794703999883,None,f,2.7594533000083175,1415.3794703999883,None,sing35,001,2019_Nov_14_1504,ProdFawcett_Revision2019,3.2.3,59.58967740359094,
,,,,127,0,127,0,,,,,,,,,,,,,1422.283488599991,None,,,,,,,,,,,,,,,,,,,,,,husband,A_silent,127,156,1418.688771199988,None,1418.688771199988,None,1418.688771199988,None,5,2.6743086999922525,1418.688771199988,None,1421.3990380000032,None,1421.3990380000032,None,1421.9227008000016,None,1421.9227008000016,None,1421.9227008000016,None,f,0.3202654999913648,1421.9227008000016,None,sing35,001,2019_Nov_14_1504,ProdFawcett_Revision2019,3.2.3,59.58967740359094,
,,,,128,0,128,0,,,,,,,,,,,,,1429.1799368000065,None,,,,,,,,,,,,,,,,,,,,,,budget,D_new,128,34,1422.8097946000053,None,1422.8097946000053,None,1422.8097946000053,None,6,4.569240499986336,1422.8097946000053,None,1427.4336031999846,None,1427.4336031999846,None,1427.9557725999912,None,1427.9557725999912,None,1427.9557725999912,None,r,1.1990347999962978,1427.9557725999912,None,sing35,001,2019_Nov_14_1504,ProdFawcett_Revision2019,3.2.3,59.58967740359094,
,,,,129,0,129,0,,,,,,,,,,,,,1432.5906557999842,None,,,,,,,,,,,,,,,,,,,,,,account,D_new,129,1,1429.702542599989,None,1429.702542599989,None,1429.702542599989,None,4,2.0363837000040803,1429.702542599989,None,1431.7932305999857,None,1431.7932305999857,None,1432.3157402999932,None,1432.3157402999932,None,1432.3157402999932,None,f,0.23120869998820126,1432.3157402999932,None,sing35,001,2019_Nov_14_1504,ProdFawcett_Revision2019,3.2.3,59.58967740359094,
,,,,130,0,130,0,,,,,,,,,,,,,1435.8828286000062,None,,,,,,,,,,,,,,,,,,,,,,cover,D_new,130,77,1433.121656400006,None,1433.121656400006,None,1433.121656400006,None,1,1.905151199985994,1433.121656400006,None,1435.071294399997,None,1435.071294399997,None,1435.5700746999937,None,1435.5700746999937,None,1435.5700746999937,None,n,0.2728662000154145,1435.5700746999937,None,sing35,001,2019_Nov_14_1504,ProdFawcett_Revision2019,3.2.3,59.58967740359094,
,,,,131,0,131,0,,,,,,,,,,,,,1439.0149487000017,None,,,,,,,,,,,,,,,,,,,,,,nation,B_aloud,131,198,1436.404255100002,None,1436.404255100002,None,1436.404255100002,None,4,1.878608200000599,1436.404255100002,None,1438.3057508000056,None,1438.3057508000056,None,1438.8170917000098,None,1438.8170917000098,None,1438.8170917000098,None,f,0.16989019999164157,1438.8170917000098,None,sing35,001,2019_Nov_14_1504,ProdFawcett_Revision2019,3.2.3,59.58967740359094,
,,,,132,0,132,0,,,,,,,,,,,,,1445.1168432999984,None,,,,,,,,,,,,,,,,,,,,,,range,D_new,132,251,1439.540339900006,None,1439.540339900006,None,1439.540339900006,None,2,4.006908499985002,1439.540339900006,None,1443.5949671999842,None,1443.5949671999842,None,1444.1256139999896,None,1444.1256139999896,None,1444.1256139999896,None,n,0.9492461000045296,1444.1256139999896,None,sing35,001,2019_Nov_14_1504,ProdFawcett_Revision2019,3.2.3,59.58967740359094,
,,,,133,0,133,0,,,,,,,,,,,,,1448.8817512000096,None,,,,,,,,,,,,,,,,,,,,,,profession,C_sing,133,241,1445.6371077999938,None,1445.6371077999938,None,1445.6371077999938,None,1,2.405762999987928,1445.6371077999938,None,1448.0929148999858,None,1448.0929148999858,None,1448.6170117000001,None,1448.6170117000001,None,1448.6170117000001,None,n,0.22589860000880435,1448.6170117000001,None,sing35,001,2019_Nov_14_1504,ProdFawcett_Revision2019,3.2.3,59.58967740359094,
,,,,134,0,134,0,,,,,,,,,,,,,1452.0381432999857,None,,,,,,,,,,,,,,,,,,,,,,travel,D_new,134,338,1449.4068643999926,None,1449.4068643999926,None,1449.4068643999926,None,3,1.8766444000066258,1449.4068643999926,None,1451.3273809000093,None,1451.3273809000093,None,1451.8536692000052,None,1451.8536692000052,None,1451.8536692000052,None,f,0.14131039998028427,1451.8536692000052,None,sing35,001,2019_Nov_14_1504,ProdFawcett_Revision2019,3.2.3,59.58967740359094,
,,,,135,0,135,0,,,,,,,,,,,,,1455.3344108999881,None,,,,,,,,,,,,,,,,,,,,,,industry,D_new,135,161,1452.5684818000009,None,1452.5684818000009,None,1452.5684818000009,None,2,1.93829089999781,1452.5684818000009,None,1454.5497946999967,None,1454.5497946999967,None,1455.0639257000003,None,1455.0639257000003,None,1455.0639257000003,None,n,0.2269273000129033,1455.0639257000003,None,sing35,001,2019_Nov_14_1504,ProdFawcett_Revision2019,3.2.3,59.58967740359094,
,,,,136,0,136,0,,,,,,,,,,,,,1459.9843474999943,None,,,,,,,,,,,,,,,,,,,,,,order,D_new,136,207,1455.8519870000018,None,1455.8519870000018,None,1455.8519870000018,None,1,3.318823199981125,1455.8519870000018,None,1459.2136032999842,None,1459.2136032999842,None,1459.7315970000054,None,1459.7315970000054,None,1459.7315970000054,None,n,0.2153701000206638,1459.7315970000054,None,sing35,001,2019_Nov_14_1504,ProdFawcett_Revision2019,3.2.3,59.58967740359094,
,,,,137,0,137,0,,,,,,,,,,,,,1466.1522508999915,None,,,,,,,,,,,,,,,,,,,,,,impact,D_new,137,157,1460.5038238999841,None,1460.5038238999841,None,1460.5038238999841,None,3,4.95511759998044,1460.5038238999841,None,1465.5156279999937,None,1465.5156279999937,None,1466.0265051999886,None,1466.0265051999886,None,1466.0265051999886,None,f,0.08861720000277273,1466.0265051999886,None,sing35,001,2019_Nov_14_1504,ProdFawcett_Revision2019,3.2.3,59.58967740359094,
,,,,138,0,138,0,,,,,,,,,,,,,1470.601889099984,None,,,,,,,,,,,,,,,,,,,,,,color,B_aloud,138,56,1466.6706528000068,None,1466.6706528000068,None,1466.6706528000068,None,6,1.7963134000019636,1466.6706528000068,None,1468.5145616999944,None,1468.5145616999944,None,1469.0334307999874,None,1469.0334307999874,None,1469.0334307999874,None,r,1.5296147000044584,1469.0334307999874,None,sing35,001,2019_Nov_14_1504,ProdFawcett_Revision2019,3.2.3,59.58967740359094,
,,,,139,0,139,0,,,,,,,,,,,,,1473.7074818999972,None,,,,,,,,,,,,,,,,,,,,,,community,A_silent,139,63,1471.1213242000085,None,1471.1213242000085,None,1471.1213242000085,None,4,1.8656609000172466,1471.1213242000085,None,1473.0208502000023,None,1473.0208502000023,None,1473.5418735999847,None,1473.5418735999847,None,1473.5418735999847,None,f,0.13280130000202917,1473.5418735999847,None,sing35,001,2019_Nov_14_1504,ProdFawcett_Revision2019,3.2.3,59.58967740359094,
,,,,140,0,140,0,,,,,,,,,,,,,1476.8544631999976,None,,,,,,,,,,,,,,,,,,,,,,discovery,D_new,140,95,1474.225043399987,None,1474.225043399987,None,1474.225043399987,None,3,1.9059204999939539,1474.225043399987,None,1476.1863521999912,None,1476.1863521999912,None,1476.7022230000002,None,1476.7022230000002,None,1476.7022230000002,None,f,0.10869480000110343,1476.7022230000002,None,sing35,001,2019_Nov_14_1504,ProdFawcett_Revision2019,3.2.3,59.58967740359094,
,,,,141,0,141,0,,,,,,,,,,,,,1479.7805599999847,None,,,,,,,,,,,,,,,,,,,,,,damage,B_aloud,141,83,1477.376116200001,None,1477.376116200001,None,1477.376116200001,None,6,1.57087529997807,1477.376116200001,None,1478.9944467000023,None,1478.9944467000023,None,1479.5221123000083,None,1479.5221123000083,None,1479.5221123000083,None,r,0.21684520001872443,1479.5221123000083,None,sing35,001,2019_Nov_14_1504,ProdFawcett_Revision2019,3.2.3,59.58967740359094,
,,,,142,0,142,0,,,,,,,,,,,,,1483.373045699991,None,,,,,,,,,,,,,,,,,,,,,,drove,D_new,142,106,1480.306990299985,None,1480.306990299985,None,1480.306990299985,None,2,2.13589950001915,1480.306990299985,None,1482.4978543999896,None,1482.4978543999896,None,1483.0166701999842,None,1483.0166701999842,None,1483.0166701999842,None,n,0.31446380002307706,1483.0166701999842,None,sing35,001,2019_Nov_14_1504,ProdFawcett_Revision2019,3.2.3,59.58967740359094,
,,,,143,0,143,0,,,,,,,,,,,,,1486.7432703000086,None,,,,,,,,,,,,,,,,,,,,,,empty,A_silent,143,112,1483.9039374999993,None,1483.9039374999993,None,1483.9039374999993,None,6,2.171053400001256,1483.9039374999993,None,1486.1367244999856,None,1486.1367244999856,None,1486.650770599983,None,1486.650770599983,None,1486.650770599983,None,r,0.05601539998315275,1486.650770599983,None,sing35,001,2019_Nov_14_1504,ProdFawcett_Revision2019,3.2.3,59.58967740359094,
,,,,144,0,144,0,,,,,,,,,,,,,1490.0529274999863,None,,,,,,,,,,,,,,,,,,,,,,reach,D_new,144,253,1487.274292999995,None,1487.274292999995,None,1487.274292999995,None,6,2.0084113999910187,1487.274292999995,None,1489.3108535000065,None,1489.3108535000065,None,1489.8213140000007,None,1489.8213140000007,None,1489.8213140000007,None,r,0.19787849998101592,1489.8213140000007,None,sing35,001,2019_Nov_14_1504,ProdFawcett_Revision2019,3.2.3,59.58967740359094,
,,,,145,0,145,0,,,,,,,,,,,,,1495.1192769999907,None,,,,,,,,,,,,,,,,,,,,,,research,C_sing,145,261,1490.5756457000098,None,1490.5756457000098,None,1490.5756457000098,None,6,3.7629544000083115,1490.5756457000098,None,1494.3594021000026,None,1494.3594021000026,None,1494.8851553999993,None,1494.8851553999993,None,1494.8851553999993,None,r,0.18988560000434518,1494.8851553999993,None,sing35,001,2019_Nov_14_1504,ProdFawcett_Revision2019,3.2.3,59.58967740359094,
,,,,146,0,146,0,,,,,,,,,,,,,1498.3084893999912,None,,,,,,,,,,,,,,,,,,,,,,broad,D_new,146,31,1495.6426904999826,None,1495.6426904999826,None,1495.6426904999826,None,2,1.9601098999846727,1495.6426904999826,None,1497.633135399985,None,1497.633135399985,None,1498.1536017000035,None,1498.1536017000035,None,1498.1536017000035,None,n,0.12105810001958162,1498.1536017000035,None,sing35,001,2019_Nov_14_1504,ProdFawcett_Revision2019,3.2.3,59.58967740359094,
,,,,147,0,147,0,,,,,,,,,,,,,1501.4058203999884,None,,,,,,,,,,,,,,,,,,,,,,center,A_silent,147,44,1498.8264607999881,None,1498.8264607999881,None,1498.8264607999881,None,1,1.856585300003644,1498.8264607999881,None,1500.7257296000025,None,1500.7257296000025,None,1501.2524716999906,None,1501.2524716999906,None,1501.2524716999906,None,n,0.11865940000279807,1501.2524716999906,None,sing35,001,2019_Nov_14_1504,ProdFawcett_Revision2019,3.2.3,59.58967740359094,
,,,,148,0,148,0,,,,,,,,,,,,,1509.322080599988,None,,,,,,,,,,,,,,,,,,,,,,cross,C_sing,148,80,1501.9115878999874,None,1501.9115878999874,None,1501.9115878999874,None,4,5.499316000001272,1501.9115878999874,None,1507.4648643999826,None,1507.4648643999826,None,1507.986760700005,None,1507.986760700005,None,1507.986760700005,None,f,1.2962110999797005,1507.986760700005,None,sing35,001,2019_Nov_14_1504,ProdFawcett_Revision2019,3.2.3,59.58967740359094,
,,,,149,0,149,0,,,,,,,,,,,,,1513.538065700006,None,,,,,,,,,,,,,,,,,,,,,,addition,D_new,149,2,1509.8446263000078,None,1509.8446263000078,None,1509.8446263000078,None,2,1.7423364999995101,1509.8446263000078,None,1511.6283612999832,None,1511.6283612999832,None,1512.1611120000016,None,1512.1611120000016,None,1512.1611120000016,None,n,1.3459374999802094,1512.1611120000016,None,sing35,001,2019_Nov_14_1504,ProdFawcett_Revision2019,3.2.3,59.58967740359094,
,,,,150,0,150,0,,,,,,,,,,,,,1518.5386503000045,None,,,,,,,,,,,,,,,,,,,,,,touch,B_aloud,150,332,1514.0571511999879,None,1514.0571511999879,None,1514.0571511999879,None,6,2.1138495999912266,1514.0571511999879,None,1516.2126282999816,None,1516.2126282999816,None,1516.7362075999845,None,1516.7362075999845,None,1516.7362075999845,None,r,1.7708801999979187,1516.7362075999845,None,sing35,001,2019_Nov_14_1504,ProdFawcett_Revision2019,3.2.3,59.58967740359094,
,,,,151,0,151,0,,,,,,,,,,,,,1522.3289848999993,None,,,,,,,,,,,,,,,,,,,,,,express,D_new,151,124,1519.0608080000093,None,1519.0608080000093,None,1519.0608080000093,None,3,2.661915200005751,1519.0608080000093,None,1521.7447141000011,None,1521.7447141000011,None,1522.2569653999817,None,1522.2569653999817,None,1522.2569653999817,None,f,0.04979350001667626,1522.2569653999817,None,sing35,001,2019_Nov_14_1504,ProdFawcett_Revision2019,3.2.3,59.58967740359094,
,,,,152,0,152,0,,,,,,,,,,,,,1525.674387499981,None,,,,,,,,,,,,,,,,,,,,,,master,B_aloud,152,180,1522.8535322000098,None,1522.8535322000098,None,1522.8535322000098,None,6,1.5333763000089675,1522.8535322000098,None,1524.4321041000076,None,1524.4321041000076,None,1524.9570661000034,None,1524.9570661000034,None,1524.9570661000034,None,r,0.6780482000031043,1524.9570661000034,None,sing35,001,2019_Nov_14_1504,ProdFawcett_Revision2019,3.2.3,59.58967740359094,
