StudyTrials.thisRepN,StudyTrials.thisTrialN,StudyTrials.thisN,StudyTrials.thisIndex,TestTrials.thisRepN,TestTrials.thisTrialN,TestTrials.thisN,TestTrials.thisIndex,textWelcome.started,textWelcome.stopped,keyWelcome.keys,keyWelcome.rt,keyWelcome.started,keyWelcome.stopped,textReady.started,textReady.stopped,keyReady.keys,keyReady.rt,keyReady.started,keyReady.stopped,polyback_2.started,polyback_2.stopped,studyPic,studyWord,studyType,studyN,studyOrder,polyback_3.started,polyback_3.stopped,studyPicChoice.started,studyPicChoice.stopped,polyback_4.started,polyback_4.stopped,polyback.started,polyback.stopped,studyWords.started,studyWords.stopped,getResearcher.started,getResearcher.stopped,kPress2.keys,kPress2.rt,kPress2.started,kPress2.stopped,testWord,testType,testN,testOrder,polyback_5.started,polyback_5.stopped,testWords.started,testWords.stopped,textScale.started,textScale.stopped,keyConf.keys,keyConf.rt,keyConf.started,keyConf.stopped,polyback_6.started,polyback_6.stopped,studyWords_2.started,studyWords_2.stopped,polyback_7.started,polyback_7.stopped,testWords_2.started,testWords_2.stopped,textScale_2.started,textScale_2.stopped,keyRKN.keys,keyRKN.rt,keyRKN.started,keyRKN.stopped,participant,session,date,expName,psychopyVersion,frameRate,
,,,,,,,,11.473037899995688,None,space,245.85984839999583,11.473037899995688,None,,,,,,,,,,,,,,,,,,,,,,,,,,,,,,,,,,,,,,,,,,,,,,,,,,,,,,,,,,sing40,001,2019_Nov_16_1457,ProdFawcett_Revision2019,3.2.3,60.02069513255612,
,,,,,,,,,,,,,,257.35441949998494,None,space,10.305558399995789,257.35441949998494,None,,,,,,,,,,,,,,,,,,,,,,,,,,,,,,,,,,,,,,,,,,,,,,,,,,,,sing40,001,2019_Nov_16_1457,ProdFawcett_Revision2019,3.2.3,60.02069513255612,
0,0,0,0,,,,,,,,,,,,,,,,,272.46893819997786,None,materials/singPic.jpg,sound,C_sing,0,295,268.8104179999791,None,268.8104179999791,None,269.73731629998656,None,269.9947408000007,None,269.9947408000007,None,,,,,,,,,,,,,,,,,,,,,,,,,,,,,,,,,,,sing40,001,2019_Nov_16_1457,ProdFawcett_Revision2019,3.2.3,60.02069513255612,
1,0,1,0,,,,,,,,,,,,,,,,,276.73587340000086,None,materials/speakPic.jpg,produce,B_aloud,1,239,273.07320389995584,None,273.07320389995584,None,273.98596889997134,None,274.2428877999773,None,274.2428877999773,None,,,,,,,,,,,,,,,,,,,,,,,,,,,,,,,,,,,sing40,001,2019_Nov_16_1457,ProdFawcett_Revision2019,3.2.3,60.02069513255612,
2,0,2,0,,,,,,,,,,,,,,,,,281.00285879999865,None,materials/speakPic.jpg,plane,B_aloud,2,223,277.30784949997906,None,277.30784949997906,None,278.25447379995603,None,278.51106639998034,None,278.51106639998034,None,,,,,,,,,,,,,,,,,,,,,,,,,,,,,,,,,,,sing40,001,2019_Nov_16_1457,ProdFawcett_Revision2019,3.2.3,60.02069513255612,
3,0,3,0,,,,,,,,,,,,,,,,,285.2698409999721,None,materials/singPic.jpg,style,C_sing,3,311,281.59496899996884,None,281.59496899996884,None,282.5206260999548,None,282.7779609999852,None,282.7779609999852,None,,,,,,,,,,,,,,,,,,,,,,,,,,,,,,,,,,,sing40,001,2019_Nov_16_1457,ProdFawcett_Revision2019,3.2.3,60.02069513255612,
4,0,4,0,,,,,,,,,,,,,,,,,289.53674959996715,None,materials/readPic.jpg,captain,A_silent,4,41,285.849979599996,None,285.849979599996,None,286.7874539999757,None,287.0449239999871,None,287.0449239999871,None,,,,,,,,,,,,,,,,,,,,,,,,,,,,,,,,,,,sing40,001,2019_Nov_16_1457,ProdFawcett_Revision2019,3.2.3,60.02069513255612,
5,0,5,0,,,,,,,,,,,,,,,,,293.8037340999581,None,materials/singPic.jpg,generation,C_sing,5,136,290.13078239996685,None,290.13078239996685,None,291.05450699996436,None,291.31642649997957,None,291.31642649997957,None,,,,,,,,,,,,,,,,,,,,,,,,,,,,,,,,,,,sing40,001,2019_Nov_16_1457,ProdFawcett_Revision2019,3.2.3,60.02069513255612,
6,0,6,0,,,,,,,,,,,,,,,,,298.07068599999184,None,materials/singPic.jpg,people,C_sing,6,216,294.412010799977,None,294.412010799977,None,295.3208106000093,None,295.57716709998203,None,295.57716709998203,None,,,,,,,,,,,,,,,,,,,,,,,,,,,,,,,,,,,sing40,001,2019_Nov_16_1457,ProdFawcett_Revision2019,3.2.3,60.02069513255612,
7,0,7,0,,,,,,,,,,,,,,,,,302.33765369997127,None,materials/speakPic.jpg,finish,B_aloud,7,130,298.6414000999648,None,298.6414000999648,None,299.58839399996214,None,299.84450409997953,None,299.84450409997953,None,,,,,,,,,,,,,,,,,,,,,,,,,,,,,,,,,,,sing40,001,2019_Nov_16_1457,ProdFawcett_Revision2019,3.2.3,60.02069513255612,
8,0,8,0,,,,,,,,,,,,,,,,,306.6046664000023,None,materials/speakPic.jpg,listen,B_aloud,8,172,302.9078975999728,None,302.9078975999728,None,303.855323900003,None,304.11149459995795,None,304.11149459995795,None,,,,,,,,,,,,,,,,,,,,,,,,,,,,,,,,,,,sing40,001,2019_Nov_16_1457,ProdFawcett_Revision2019,3.2.3,60.02069513255612,
9,0,9,0,,,,,,,,,,,,,,,,,310.87155989999883,None,materials/singPic.jpg,edition,C_sing,9,107,307.2019340999541,None,307.2019340999541,None,308.12231249996694,None,308.3786940999562,None,308.3786940999562,None,,,,,,,,,,,,,,,,,,,,,,,,,,,,,,,,,,,sing40,001,2019_Nov_16_1457,ProdFawcett_Revision2019,3.2.3,60.02069513255612,
10,0,10,0,,,,,,,,,,,,,,,,,315.13865489995806,None,materials/singPic.jpg,guide,C_sing,10,147,311.46384619997116,None,311.46384619997116,None,312.38928149995627,None,312.6503101999988,None,312.6503101999988,None,,,,,,,,,,,,,,,,,,,,,,,,,,,,,,,,,,,sing40,001,2019_Nov_16_1457,ProdFawcett_Revision2019,3.2.3,60.02069513255612,
11,0,11,0,,,,,,,,,,,,,,,,,319.40543459996115,None,materials/readPic.jpg,community,A_silent,11,63,315.7424591999734,None,315.7424591999734,None,316.65616499999305,None,316.91542739997385,None,316.91542739997385,None,,,,,,,,,,,,,,,,,,,,,,,,,,,,,,,,,,,sing40,001,2019_Nov_16_1457,ProdFawcett_Revision2019,3.2.3,60.02069513255612,
12,0,12,0,,,,,,,,,,,,,,,,,323.67143940000096,None,materials/speakPic.jpg,turkey,B_aloud,12,342,320.02541579998797,None,320.02541579998797,None,320.9231365000014,None,321.18127649999224,None,321.18127649999224,None,,,,,,,,,,,,,,,,,,,,,,,,,,,,,,,,,,,sing40,001,2019_Nov_16_1457,ProdFawcett_Revision2019,3.2.3,60.02069513255612,
13,0,13,0,,,,,,,,,,,,,,,,,327.93938029999845,None,materials/readPic.jpg,guard,A_silent,13,145,324.26484999997774,None,324.26484999997774,None,325.1900553999585,None,325.4485710999579,None,325.4485710999579,None,,,,,,,,,,,,,,,,,,,,,,,,,,,,,,,,,,,sing40,001,2019_Nov_16_1457,ProdFawcett_Revision2019,3.2.3,60.02069513255612,
14,0,14,0,,,,,,,,,,,,,,,,,332.20649549999507,None,materials/speakPic.jpg,conference,B_aloud,14,66,328.51693529996555,None,328.51693529996555,None,329.45707169995876,None,329.71653829998104,None,329.71653829998104,None,,,,,,,,,,,,,,,,,,,,,,,,,,,,,,,,,,,sing40,001,2019_Nov_16_1457,ProdFawcett_Revision2019,3.2.3,60.02069513255612,
15,0,15,0,,,,,,,,,,,,,,,,,336.473388399987,None,materials/singPic.jpg,dozen,C_sing,15,102,332.80562110000756,None,332.80562110000756,None,333.72336529998574,None,333.9919784999802,None,333.9919784999802,None,,,,,,,,,,,,,,,,,,,,,,,,,,,,,,,,,,,sing40,001,2019_Nov_16_1457,ProdFawcett_Revision2019,3.2.3,60.02069513255612,
16,0,16,0,,,,,,,,,,,,,,,,,340.7403471999569,None,materials/speakPic.jpg,hunger,B_aloud,16,155,337.0460358999553,None,337.0460358999553,None,337.99101609998615,None,338.2529408999835,None,338.2529408999835,None,,,,,,,,,,,,,,,,,,,,,,,,,,,,,,,,,,,sing40,001,2019_Nov_16_1457,ProdFawcett_Revision2019,3.2.3,60.02069513255612,
17,0,17,0,,,,,,,,,,,,,,,,,345.00732909998624,None,materials/readPic.jpg,design,A_silent,17,91,341.3163748999941,None,341.3163748999941,None,342.2579485999886,None,342.51982579997275,None,342.51982579997275,None,,,,,,,,,,,,,,,,,,,,,,,,,,,,,,,,,,,sing40,001,2019_Nov_16_1457,ProdFawcett_Revision2019,3.2.3,60.02069513255612,
18,0,18,0,,,,,,,,,,,,,,,,,349.2740912999725,None,materials/speakPic.jpg,chief,B_aloud,18,48,345.57652409997536,None,345.57652409997536,None,346.52557309996337,None,346.7800163999782,None,346.7800163999782,None,,,,,,,,,,,,,,,,,,,,,,,,,,,,,,,,,,,sing40,001,2019_Nov_16_1457,ProdFawcett_Revision2019,3.2.3,60.02069513255612,
19,0,19,0,,,,,,,,,,,,,,,,,353.5411082999781,None,materials/singPic.jpg,republic,C_sing,19,260,349.89217959996313,None,349.89217959996313,None,350.79195179999806,None,351.0559554999927,None,351.0559554999927,None,,,,,,,,,,,,,,,,,,,,,,,,,,,,,,,,,,,sing40,001,2019_Nov_16_1457,ProdFawcett_Revision2019,3.2.3,60.02069513255612,
20,0,20,0,,,,,,,,,,,,,,,,,357.80811419995734,None,materials/readPic.jpg,color,A_silent,20,56,354.1210407000035,None,354.1210407000035,None,355.0581908999593,None,355.3149923000019,None,355.3149923000019,None,,,,,,,,,,,,,,,,,,,,,,,,,,,,,,,,,,,sing40,001,2019_Nov_16_1457,ProdFawcett_Revision2019,3.2.3,60.02069513255612,
21,0,21,0,,,,,,,,,,,,,,,,,362.07509389996994,None,materials/speakPic.jpg,incident,B_aloud,21,158,358.39058169996133,None,358.39058169996133,None,359.3258114999626,None,359.5818498999579,None,359.5818498999579,None,,,,,,,,,,,,,,,,,,,,,,,,,,,,,,,,,,,sing40,001,2019_Nov_16_1457,ProdFawcett_Revision2019,3.2.3,60.02069513255612,
22,0,22,0,,,,,,,,,,,,,,,,,366.3419861999573,None,materials/speakPic.jpg,executive,B_aloud,22,122,362.6598182999878,None,362.6598182999878,None,363.5927370999707,None,363.85667819995433,None,363.85667819995433,None,,,,,,,,,,,,,,,,,,,,,,,,,,,,,,,,,,,sing40,001,2019_Nov_16_1457,ProdFawcett_Revision2019,3.2.3,60.02069513255612,
23,0,23,0,,,,,,,,,,,,,,,,,370.60908819996985,None,materials/singPic.jpg,detective,C_sing,23,92,366.93922379997093,None,366.93922379997093,None,367.8596889000037,None,368.1225658999756,None,368.1225658999756,None,,,,,,,,,,,,,,,,,,,,,,,,,,,,,,,,,,,sing40,001,2019_Nov_16_1457,ProdFawcett_Revision2019,3.2.3,60.02069513255612,
24,0,24,0,,,,,,,,,,,,,,,,,374.8759222999797,None,materials/speakPic.jpg,number,B_aloud,24,203,371.1848089999985,None,371.1848089999985,None,372.12757549999515,None,372.3895387999946,None,372.3895387999946,None,,,,,,,,,,,,,,,,,,,,,,,,,,,,,,,,,,,sing40,001,2019_Nov_16_1457,ProdFawcett_Revision2019,3.2.3,60.02069513255612,
25,0,25,0,,,,,,,,,,,,,,,,,379.14282770000864,None,materials/singPic.jpg,quantity,C_sing,25,245,375.47402189997956,None,375.47402189997956,None,376.3936321999645,None,376.66222080000443,None,376.66222080000443,None,,,,,,,,,,,,,,,,,,,,,,,,,,,,,,,,,,,sing40,001,2019_Nov_16_1457,ProdFawcett_Revision2019,3.2.3,60.02069513255612,
26,0,26,0,,,,,,,,,,,,,,,,,383.40984589996515,None,materials/singPic.jpg,recall,C_sing,26,255,379.74027639999986,None,379.74027639999986,None,380.6606120999786,None,380.9159765999648,None,380.9159765999648,None,,,,,,,,,,,,,,,,,,,,,,,,,,,,,,,,,,,sing40,001,2019_Nov_16_1457,ProdFawcett_Revision2019,3.2.3,60.02069513255612,
27,0,27,0,,,,,,,,,,,,,,,,,387.67683829995804,None,materials/speakPic.jpg,material,B_aloud,27,182,383.9876465999987,None,383.9876465999987,None,384.9268422999885,None,385.184473900008,None,385.184473900008,None,,,,,,,,,,,,,,,,,,,,,,,,,,,,,,,,,,,sing40,001,2019_Nov_16_1457,ProdFawcett_Revision2019,3.2.3,60.02069513255612,
28,0,28,0,,,,,,,,,,,,,,,,,391.9437381000025,None,materials/readPic.jpg,sweet,A_silent,28,319,388.2667494000052,None,388.2667494000052,None,389.19449449999956,None,389.4554915999761,None,389.4554915999761,None,,,,,,,,,,,,,,,,,,,,,,,,,,,,,,,,,,,sing40,001,2019_Nov_16_1457,ProdFawcett_Revision2019,3.2.3,60.02069513255612,
29,0,29,0,,,,,,,,,,,,,,,,,396.21073239995167,None,materials/speakPic.jpg,division,B_aloud,29,101,392.51651960000163,None,392.51651960000163,None,393.46146079996834,None,393.72538129996974,None,393.72538129996974,None,,,,,,,,,,,,,,,,,,,,,,,,,,,,,,,,,,,sing40,001,2019_Nov_16_1457,ProdFawcett_Revision2019,3.2.3,60.02069513255612,
30,0,30,0,,,,,,,,,,,,,,,,,400.4777060999768,None,materials/readPic.jpg,south,A_silent,30,296,396.7928152999957,None,396.7928152999957,None,397.72767719998956,None,397.98465040000156,None,397.98465040000156,None,,,,,,,,,,,,,,,,,,,,,,,,,,,,,,,,,,,sing40,001,2019_Nov_16_1457,ProdFawcett_Revision2019,3.2.3,60.02069513255612,
31,0,31,0,,,,,,,,,,,,,,,,,404.74462690000655,None,materials/readPic.jpg,union,A_silent,31,344,401.05494709999766,None,401.05494709999766,None,401.99543879996054,None,402.2509760999819,None,402.2509760999819,None,,,,,,,,,,,,,,,,,,,,,,,,,,,,,,,,,,,sing40,001,2019_Nov_16_1457,ProdFawcett_Revision2019,3.2.3,60.02069513255612,
32,0,32,0,,,,,,,,,,,,,,,,,409.0115393999731,None,materials/readPic.jpg,break,A_silent,32,26,405.3226510999957,None,405.3226510999957,None,406.2623955999734,None,406.5223254999728,None,406.5223254999728,None,,,,,,,,,,,,,,,,,,,,,,,,,,,,,,,,,,,sing40,001,2019_Nov_16_1457,ProdFawcett_Revision2019,3.2.3,60.02069513255612,
33,0,33,0,,,,,,,,,,,,,,,,,413.27852649998385,None,materials/readPic.jpg,season,A_silent,33,277,409.59573379997164,None,409.59573379997164,None,410.5286381999613,None,410.7855553999543,None,410.7855553999543,None,,,,,,,,,,,,,,,,,,,,,,,,,,,,,,,,,,,sing40,001,2019_Nov_16_1457,ProdFawcett_Revision2019,3.2.3,60.02069513255612,
34,0,34,0,,,,,,,,,,,,,,,,,417.54541179997614,None,materials/readPic.jpg,front,A_silent,34,134,413.8671810000087,None,413.8671810000087,None,414.7939316999982,None,415.05336299998453,None,415.05336299998453,None,,,,,,,,,,,,,,,,,,,,,,,,,,,,,,,,,,,sing40,001,2019_Nov_16_1457,ProdFawcett_Revision2019,3.2.3,60.02069513255612,
35,0,35,0,,,,,,,,,,,,,,,,,421.81243649998214,None,materials/readPic.jpg,nature,A_silent,35,200,418.1362919000094,None,418.1362919000094,None,419.0630725999945,None,419.3203466999694,None,419.3203466999694,None,,,,,,,,,,,,,,,,,,,,,,,,,,,,,,,,,,,sing40,001,2019_Nov_16_1457,ProdFawcett_Revision2019,3.2.3,60.02069513255612,
36,0,36,0,,,,,,,,,,,,,,,,,426.07934599998407,None,materials/readPic.jpg,notice,A_silent,36,201,422.4378502999898,None,422.4378502999898,None,423.3303378999699,None,423.58628039999167,None,423.58628039999167,None,,,,,,,,,,,,,,,,,,,,,,,,,,,,,,,,,,,sing40,001,2019_Nov_16_1457,ProdFawcett_Revision2019,3.2.3,60.02069513255612,
37,0,37,0,,,,,,,,,,,,,,,,,430.34632339997916,None,materials/singPic.jpg,impact,C_sing,37,157,426.6702482999535,None,426.6702482999535,None,427.59702069999184,None,427.85331320000114,None,427.85331320000114,None,,,,,,,,,,,,,,,,,,,,,,,,,,,,,,,,,,,sing40,001,2019_Nov_16_1457,ProdFawcett_Revision2019,3.2.3,60.02069513255612,
38,0,38,0,,,,,,,,,,,,,,,,,434.6133068999625,None,materials/singPic.jpg,present,C_sing,38,231,430.9463106999756,None,430.9463106999756,None,431.86405499995453,None,432.1198272999609,None,432.1198272999609,None,,,,,,,,,,,,,,,,,,,,,,,,,,,,,,,,,,,sing40,001,2019_Nov_16_1457,ProdFawcett_Revision2019,3.2.3,60.02069513255612,
39,0,39,0,,,,,,,,,,,,,,,,,438.88029959995765,None,materials/speakPic.jpg,shape,B_aloud,39,282,435.19933709996985,None,435.19933709996985,None,436.1311496999697,None,436.38666479999665,None,436.38666479999665,None,,,,,,,,,,,,,,,,,,,,,,,,,,,,,,,,,,,sing40,001,2019_Nov_16_1457,ProdFawcett_Revision2019,3.2.3,60.02069513255612,
40,0,40,0,,,,,,,,,,,,,,,,,443.1471802999731,None,materials/speakPic.jpg,distance,B_aloud,40,100,439.45692480000434,None,439.45692480000434,None,440.3983215999906,None,440.6571656999877,None,440.6571656999877,None,,,,,,,,,,,,,,,,,,,,,,,,,,,,,,,,,,,sing40,001,2019_Nov_16_1457,ProdFawcett_Revision2019,3.2.3,60.02069513255612,
41,0,41,0,,,,,,,,,,,,,,,,,447.41418859997066,None,materials/readPic.jpg,platform,A_silent,41,224,443.73413499997696,None,443.73413499997696,None,444.6648365999572,None,444.92204249999486,None,444.92204249999486,None,,,,,,,,,,,,,,,,,,,,,,,,,,,,,,,,,,,sing40,001,2019_Nov_16_1457,ProdFawcett_Revision2019,3.2.3,60.02069513255612,
42,0,42,0,,,,,,,,,,,,,,,,,451.68121199996676,None,materials/readPic.jpg,resistance,A_silent,42,262,448.0150389999617,None,448.0150389999617,None,448.9318750000093,None,449.1903715999797,None,449.1903715999797,None,,,,,,,,,,,,,,,,,,,,,,,,,,,,,,,,,,,sing40,001,2019_Nov_16_1457,ProdFawcett_Revision2019,3.2.3,60.02069513255612,
43,0,43,0,,,,,,,,,,,,,,,,,455.94810739997774,None,materials/speakPic.jpg,audience,B_aloud,43,14,452.2459824999678,None,452.2459824999678,None,453.1988141000038,None,453.45697309996467,None,453.45697309996467,None,,,,,,,,,,,,,,,,,,,,,,,,,,,,,,,,,,,sing40,001,2019_Nov_16_1457,ProdFawcett_Revision2019,3.2.3,60.02069513255612,
44,0,44,0,,,,,,,,,,,,,,,,,460.21503919997485,None,materials/singPic.jpg,appeal,C_sing,44,9,456.5625288999872,None,456.5625288999872,None,457.46668079996016,None,457.723071699962,None,457.723071699962,None,,,,,,,,,,,,,,,,,,,,,,,,,,,,,,,,,,,sing40,001,2019_Nov_16_1457,ProdFawcett_Revision2019,3.2.3,60.02069513255612,
45,0,45,0,,,,,,,,,,,,,,,,,464.482008699968,None,materials/speakPic.jpg,ground,B_aloud,45,142,460.8145860999939,None,460.8145860999939,None,461.7331306999549,None,461.99255599995377,None,461.99255599995377,None,,,,,,,,,,,,,,,,,,,,,,,,,,,,,,,,,,,sing40,001,2019_Nov_16_1457,ProdFawcett_Revision2019,3.2.3,60.02069513255612,
46,0,46,0,,,,,,,,,,,,,,,,,468.7490592999966,None,materials/speakPic.jpg,write,B_aloud,46,358,465.05580739997094,None,465.05580739997094,None,465.99963839998236,None,466.2596399000031,None,466.2596399000031,None,,,,,,,,,,,,,,,,,,,,,,,,,,,,,,,,,,,sing40,001,2019_Nov_16_1457,ProdFawcett_Revision2019,3.2.3,60.02069513255612,
47,0,47,0,,,,,,,,,,,,,,,,,473.0159092999529,None,materials/readPic.jpg,speech,A_silent,47,298,469.33885739999823,None,469.33885739999823,None,470.2666326999897,None,470.524682999996,None,470.524682999996,None,,,,,,,,,,,,,,,,,,,,,,,,,,,,,,,,,,,sing40,001,2019_Nov_16_1457,ProdFawcett_Revision2019,3.2.3,60.02069513255612,
48,0,48,0,,,,,,,,,,,,,,,,,477.28287569998065,None,materials/readPic.jpg,portion,A_silent,48,228,473.58887539996067,None,473.58887539996067,None,474.53300039999885,None,474.7988037999603,None,474.7988037999603,None,,,,,,,,,,,,,,,,,,,,,,,,,,,,,,,,,,,sing40,001,2019_Nov_16_1457,ProdFawcett_Revision2019,3.2.3,60.02069513255612,
49,0,49,0,,,,,,,,,,,,,,,,,481.54977099999087,None,materials/readPic.jpg,salary,A_silent,49,271,477.8628933999571,None,477.8628933999571,None,478.8006525999517,None,479.0580721999868,None,479.0580721999868,None,,,,,,,,,,,,,,,,,,,,,,,,,,,,,,,,,,,sing40,001,2019_Nov_16_1457,ProdFawcett_Revision2019,3.2.3,60.02069513255612,
50,0,50,0,,,,,,,,,,,,,,,,,485.81679469998926,None,materials/speakPic.jpg,course,B_aloud,50,74,482.1273935000063,None,482.1273935000063,None,483.06747979996726,None,483.3257997999899,None,483.3257997999899,None,,,,,,,,,,,,,,,,,,,,,,,,,,,,,,,,,,,sing40,001,2019_Nov_16_1457,ProdFawcett_Revision2019,3.2.3,60.02069513255612,
51,0,51,0,,,,,,,,,,,,,,,,,490.08378479996463,None,materials/singPic.jpg,history,C_sing,51,153,486.4121833999525,None,486.4121833999525,None,487.3344230999937,None,487.59186629997566,None,487.59186629997566,None,,,,,,,,,,,,,,,,,,,,,,,,,,,,,,,,,,,sing40,001,2019_Nov_16_1457,ProdFawcett_Revision2019,3.2.3,60.02069513255612,
52,0,52,0,,,,,,,,,,,,,,,,,494.3507208999945,None,materials/singPic.jpg,state,C_sing,52,303,490.6800168000045,None,490.6800168000045,None,491.6014367999742,None,491.8577886999701,None,491.8577886999701,None,,,,,,,,,,,,,,,,,,,,,,,,,,,,,,,,,,,sing40,001,2019_Nov_16_1457,ProdFawcett_Revision2019,3.2.3,60.02069513255612,
53,0,53,0,,,,,,,,,,,,,,,,,498.61763759999303,None,materials/speakPic.jpg,block,B_aloud,53,25,494.9264202999766,None,494.9264202999766,None,495.8683951999992,None,496.12844509998104,None,496.12844509998104,None,,,,,,,,,,,,,,,,,,,,,,,,,,,,,,,,,,,sing40,001,2019_Nov_16_1457,ProdFawcett_Revision2019,3.2.3,60.02069513255612,
54,0,54,0,,,,,,,,,,,,,,,,,502.8846186999581,None,materials/singPic.jpg,weight,C_sing,54,353,499.20695629995316,None,499.20695629995316,None,500.1358773999964,None,500.3977538999752,None,500.3977538999752,None,,,,,,,,,,,,,,,,,,,,,,,,,,,,,,,,,,,sing40,001,2019_Nov_16_1457,ProdFawcett_Revision2019,3.2.3,60.02069513255612,
55,0,55,0,,,,,,,,,,,,,,,,,507.15155859995866,None,materials/speakPic.jpg,mankind,B_aloud,55,178,503.50927599996794,None,503.50927599996794,None,504.40232269995613,None,504.6604335999582,None,504.6604335999582,None,,,,,,,,,,,,,,,,,,,,,,,,,,,,,,,,,,,sing40,001,2019_Nov_16_1457,ProdFawcett_Revision2019,3.2.3,60.02069513255612,
56,0,56,0,,,,,,,,,,,,,,,,,511.4185304999701,None,materials/singPic.jpg,collection,C_sing,56,54,507.7536430999753,None,507.7536430999753,None,508.6693037999794,None,508.9274763999856,None,508.9274763999856,None,,,,,,,,,,,,,,,,,,,,,,,,,,,,,,,,,,,sing40,001,2019_Nov_16_1457,ProdFawcett_Revision2019,3.2.3,60.02069513255612,
57,0,57,0,,,,,,,,,,,,,,,,,515.6855028999853,None,materials/readPic.jpg,stranger,A_silent,57,309,512.0038723999751,None,512.0038723999751,None,512.9362470000051,None,513.1990598999546,None,513.1990598999546,None,,,,,,,,,,,,,,,,,,,,,,,,,,,,,,,,,,,sing40,001,2019_Nov_16_1457,ProdFawcett_Revision2019,3.2.3,60.02069513255612,
58,0,58,0,,,,,,,,,,,,,,,,,519.95250449999,None,materials/readPic.jpg,committee,A_silent,58,62,516.276240999985,None,516.276240999985,None,517.2031067999778,None,517.4624713999801,None,517.4624713999801,None,,,,,,,,,,,,,,,,,,,,,,,,,,,,,,,,,,,sing40,001,2019_Nov_16_1457,ProdFawcett_Revision2019,3.2.3,60.02069513255612,
59,0,59,0,,,,,,,,,,,,,,,,,524.2194570999709,None,materials/speakPic.jpg,force,B_aloud,59,131,520.5291612999863,None,520.5291612999863,None,521.4700570999994,None,521.7257429999881,None,521.7257429999881,None,,,,,,,,,,,,,,,,,,,,,,,,,,,,,,,,,,,sing40,001,2019_Nov_16_1457,ProdFawcett_Revision2019,3.2.3,60.02069513255612,
60,0,60,0,,,,,,,,,,,,,,,,,528.4865000999998,None,materials/singPic.jpg,marriage,C_sing,60,179,524.8114075000049,None,524.8114075000049,None,525.7370711999829,None,525.998521099973,None,525.998521099973,None,,,,,,,,,,,,,,,,,,,,,,,,,,,,,,,,,,,sing40,001,2019_Nov_16_1457,ProdFawcett_Revision2019,3.2.3,60.02069513255612,
61,0,61,0,,,,,,,,,,,,,,,,,532.7532634999952,None,materials/readPic.jpg,order,A_silent,61,207,529.0921777999611,None,529.0921777999611,None,530.0040545999655,None,530.2597425999702,None,530.2597425999702,None,,,,,,,,,,,,,,,,,,,,,,,,,,,,,,,,,,,sing40,001,2019_Nov_16_1457,ProdFawcett_Revision2019,3.2.3,60.02069513255612,
62,0,62,0,,,,,,,,,,,,,,,,,537.0202867999906,None,materials/singPic.jpg,research,C_sing,62,261,533.3390941999969,None,533.3390941999969,None,534.2710468999576,None,534.531564200006,None,534.531564200006,None,,,,,,,,,,,,,,,,,,,,,,,,,,,,,,,,,,,sing40,001,2019_Nov_16_1457,ProdFawcett_Revision2019,3.2.3,60.02069513255612,
63,0,63,0,,,,,,,,,,,,,,,,,541.2872936999775,None,materials/singPic.jpg,tennis,C_sing,63,323,537.6074217999703,None,537.6074217999703,None,538.5379529999918,None,538.7951690999907,None,538.7951690999907,None,,,,,,,,,,,,,,,,,,,,,,,,,,,,,,,,,,,sing40,001,2019_Nov_16_1457,ProdFawcett_Revision2019,3.2.3,60.02069513255612,
64,0,64,0,,,,,,,,,,,,,,,,,545.5543860999751,None,materials/speakPic.jpg,second,B_aloud,64,278,541.8571415999904,None,541.8571415999904,None,542.8049081999925,None,543.0606027999893,None,543.0606027999893,None,,,,,,,,,,,,,,,,,,,,,,,,,,,,,,,,,,,sing40,001,2019_Nov_16_1457,ProdFawcett_Revision2019,3.2.3,60.02069513255612,
65,0,65,0,,,,,,,,,,,,,,,,,549.8211387000047,None,materials/singPic.jpg,match,C_sing,65,181,546.1530974999769,None,546.1530974999769,None,547.0727938999771,None,547.3292421000078,None,547.3292421000078,None,,,,,,,,,,,,,,,,,,,,,,,,,,,,,,,,,,,sing40,001,2019_Nov_16_1457,ProdFawcett_Revision2019,3.2.3,60.02069513255612,
66,0,66,0,,,,,,,,,,,,,,,,,554.0880517999758,None,materials/speakPic.jpg,mayor,B_aloud,66,183,550.3979148999788,None,550.3979148999788,None,551.3389063999639,None,551.5960271999938,None,551.5960271999938,None,,,,,,,,,,,,,,,,,,,,,,,,,,,,,,,,,,,sing40,001,2019_Nov_16_1457,ProdFawcett_Revision2019,3.2.3,60.02069513255612,
67,0,67,0,,,,,,,,,,,,,,,,,558.3550383999827,None,materials/speakPic.jpg,session,B_aloud,67,281,554.6638936999952,None,554.6638936999952,None,555.6057936999714,None,555.8629808999831,None,555.8629808999831,None,,,,,,,,,,,,,,,,,,,,,,,,,,,,,,,,,,,sing40,001,2019_Nov_16_1457,ProdFawcett_Revision2019,3.2.3,60.02069513255612,
68,0,68,0,,,,,,,,,,,,,,,,,562.6219727999996,None,materials/readPic.jpg,minor,A_silent,68,191,558.9309048999567,None,558.9309048999567,None,559.8727064999985,None,560.1288870999706,None,560.1288870999706,None,,,,,,,,,,,,,,,,,,,,,,,,,,,,,,,,,,,sing40,001,2019_Nov_16_1457,ProdFawcett_Revision2019,3.2.3,60.02069513255612,
69,0,69,0,,,,,,,,,,,,,,,,,566.8889581999974,None,materials/readPic.jpg,relation,A_silent,69,257,563.2140263000038,None,563.2140263000038,None,564.1395804999629,None,564.3977368999622,None,564.3977368999622,None,,,,,,,,,,,,,,,,,,,,,,,,,,,,,,,,,,,sing40,001,2019_Nov_16_1457,ProdFawcett_Revision2019,3.2.3,60.02069513255612,
70,0,70,0,,,,,,,,,,,,,,,,,571.15590839996,None,materials/singPic.jpg,problem,C_sing,70,238,567.4819505999913,None,567.4819505999913,None,568.4067323000054,None,568.6685660000076,None,568.6685660000076,None,,,,,,,,,,,,,,,,,,,,,,,,,,,,,,,,,,,sing40,001,2019_Nov_16_1457,ProdFawcett_Revision2019,3.2.3,60.02069513255612,
71,0,71,0,,,,,,,,,,,,,,,,,575.4227720999625,None,materials/readPic.jpg,dispute,A_silent,71,99,571.7609229999944,None,571.7609229999944,None,572.673940699955,None,572.9332625999814,None,572.9332625999814,None,,,,,,,,,,,,,,,,,,,,,,,,,,,,,,,,,,,sing40,001,2019_Nov_16_1457,ProdFawcett_Revision2019,3.2.3,60.02069513255612,
72,0,72,0,,,,,,,,,,,,,,,,,579.6898276999709,None,materials/readPic.jpg,graduate,A_silent,72,141,576.0029487999855,None,576.0029487999855,None,576.9405474999803,None,577.200534100004,None,577.200534100004,None,,,,,,,,,,,,,,,,,,,,,,,,,,,,,,,,,,,sing40,001,2019_Nov_16_1457,ProdFawcett_Revision2019,3.2.3,60.02069513255612,
73,0,73,0,,,,,,,,,,,,,,,,,583.9568204999669,None,materials/speakPic.jpg,couch,B_aloud,73,70,580.268619599985,None,580.268619599985,None,581.207521400007,None,581.4647719999775,None,581.4647719999775,None,,,,,,,,,,,,,,,,,,,,,,,,,,,,,,,,,,,sing40,001,2019_Nov_16_1457,ProdFawcett_Revision2019,3.2.3,60.02069513255612,
74,0,74,0,,,,,,,,,,,,,,,,,588.2237607999705,None,materials/singPic.jpg,solution,C_sing,74,294,584.5769734999631,None,584.5769734999631,None,585.4738064999692,None,585.7332531999564,None,585.7332531999564,None,,,,,,,,,,,,,,,,,,,,,,,,,,,,,,,,,,,sing40,001,2019_Nov_16_1457,ProdFawcett_Revision2019,3.2.3,60.02069513255612,
75,0,75,0,,,,,,,,,,,,,,,,,592.490702399984,None,materials/singPic.jpg,service,C_sing,75,280,588.8390339000034,None,588.8390339000034,None,589.7413288999815,None,590.0045282999636,None,590.0045282999636,None,,,,,,,,,,,,,,,,,,,,,,,,,,,,,,,,,,,sing40,001,2019_Nov_16_1457,ProdFawcett_Revision2019,3.2.3,60.02069513255612,
76,0,76,0,,,,,,,,,,,,,,,,,596.7576636999729,None,materials/speakPic.jpg,trail,B_aloud,76,336,593.0683649999555,None,593.0683649999555,None,594.0082993999822,None,594.2646676999866,None,594.2646676999866,None,,,,,,,,,,,,,,,,,,,,,,,,,,,,,,,,,,,sing40,001,2019_Nov_16_1457,ProdFawcett_Revision2019,3.2.3,60.02069513255612,
77,0,77,0,,,,,,,,,,,,,,,,,601.0247360999929,None,materials/readPic.jpg,figure,A_silent,77,128,597.3761954999645,None,597.3761954999645,None,598.2753492000047,None,598.5373861999833,None,598.5373861999833,None,,,,,,,,,,,,,,,,,,,,,,,,,,,,,,,,,,,sing40,001,2019_Nov_16_1457,ProdFawcett_Revision2019,3.2.3,60.02069513255612,
78,0,78,0,,,,,,,,,,,,,,,,,605.2915702000028,None,materials/singPic.jpg,youth,C_sing,78,359,601.6288248999626,None,601.6288248999626,None,602.5423738999525,None,602.7986333000008,None,602.7986333000008,None,,,,,,,,,,,,,,,,,,,,,,,,,,,,,,,,,,,sing40,001,2019_Nov_16_1457,ProdFawcett_Revision2019,3.2.3,60.02069513255612,
79,0,79,0,,,,,,,,,,,,,,,,,609.5585265999543,None,materials/speakPic.jpg,military,B_aloud,79,190,605.9042302999878,None,605.9042302999878,None,606.809196999995,None,607.0664167999639,None,607.0664167999639,None,,,,,,,,,,,,,,,,,,,,,,,,,,,,,,,,,,,sing40,001,2019_Nov_16_1457,ProdFawcett_Revision2019,3.2.3,60.02069513255612,
80,0,80,0,,,,,,,,,,,,,,,,,613.8254756999668,None,materials/readPic.jpg,burden,A_silent,80,36,610.1392584999558,None,610.1392584999558,None,611.0767908999696,None,611.3372194999829,None,611.3372194999829,None,,,,,,,,,,,,,,,,,,,,,,,,,,,,,,,,,,,sing40,001,2019_Nov_16_1457,ProdFawcett_Revision2019,3.2.3,60.02069513255612,
81,0,81,0,,,,,,,,,,,,,,,,,618.0925966000068,None,materials/singPic.jpg,household,C_sing,81,154,614.4116821999778,None,614.4116821999778,None,615.3431753999903,None,615.6051703999983,None,615.6051703999983,None,,,,,,,,,,,,,,,,,,,,,,,,,,,,,,,,,,,sing40,001,2019_Nov_16_1457,ProdFawcett_Revision2019,3.2.3,60.02069513255612,
82,0,82,0,,,,,,,,,,,,,,,,,622.359490999952,None,materials/readPic.jpg,position,A_silent,82,229,618.6711906999699,None,618.6711906999699,None,619.6101633000071,None,619.8683070999687,None,619.8683070999687,None,,,,,,,,,,,,,,,,,,,,,,,,,,,,,,,,,,,sing40,001,2019_Nov_16_1457,ProdFawcett_Revision2019,3.2.3,60.02069513255612,
83,0,83,0,,,,,,,,,,,,,,,,,626.6263409999665,None,materials/speakPic.jpg,trial,B_aloud,83,341,622.9351556999609,None,622.9351556999609,None,623.8770606999751,None,624.1326346999849,None,624.1326346999849,None,,,,,,,,,,,,,,,,,,,,,,,,,,,,,,,,,,,sing40,001,2019_Nov_16_1457,ProdFawcett_Revision2019,3.2.3,60.02069513255612,
84,0,84,0,,,,,,,,,,,,,,,,,630.893459199986,None,materials/readPic.jpg,smooth,A_silent,84,292,627.230078099994,None,627.230078099994,None,628.1439927999745,None,628.3996455000015,None,628.3996455000015,None,,,,,,,,,,,,,,,,,,,,,,,,,,,,,,,,,,,sing40,001,2019_Nov_16_1457,ProdFawcett_Revision2019,3.2.3,60.02069513255612,
85,0,85,0,,,,,,,,,,,,,,,,,635.1602588999667,None,materials/singPic.jpg,meeting,C_sing,85,187,631.4795812999946,None,631.4795812999946,None,632.4108935999684,None,632.6722431000089,None,632.6722431000089,None,,,,,,,,,,,,,,,,,,,,,,,,,,,,,,,,,,,sing40,001,2019_Nov_16_1457,ProdFawcett_Revision2019,3.2.3,60.02069513255612,
86,0,86,0,,,,,,,,,,,,,,,,,639.4272164999857,None,materials/readPic.jpg,drama,A_silent,86,103,635.7570132999681,None,635.7570132999681,None,636.6788258999586,None,636.9352248999639,None,636.9352248999639,None,,,,,,,,,,,,,,,,,,,,,,,,,,,,,,,,,,,sing40,001,2019_Nov_16_1457,ProdFawcett_Revision2019,3.2.3,60.02069513255612,
87,0,87,0,,,,,,,,,,,,,,,,,643.6941888000001,None,materials/speakPic.jpg,welcome,B_aloud,87,354,640.0081766999792,None,640.0081766999792,None,640.9449402999599,None,641.2047902999911,None,641.2047902999911,None,,,,,,,,,,,,,,,,,,,,,,,,,,,,,,,,,,,sing40,001,2019_Nov_16_1457,ProdFawcett_Revision2019,3.2.3,60.02069513255612,
88,0,88,0,,,,,,,,,,,,,,,,,647.9610330999712,None,materials/singPic.jpg,staff,C_sing,88,301,644.2833716999739,None,644.2833716999739,None,645.2119668999803,None,645.4675636999891,None,645.4675636999891,None,,,,,,,,,,,,,,,,,,,,,,,,,,,,,,,,,,,sing40,001,2019_Nov_16_1457,ProdFawcett_Revision2019,3.2.3,60.02069513255612,
89,0,89,0,,,,,,,,,,,,,,,,,652.2280946999672,None,materials/singPic.jpg,provision,C_sing,89,243,648.5434692999697,None,648.5434692999697,None,649.4787764999783,None,649.7416857999633,None,649.7416857999633,None,,,,,,,,,,,,,,,,,,,,,,,,,,,,,,,,,,,sing40,001,2019_Nov_16_1457,ProdFawcett_Revision2019,3.2.3,60.02069513255612,
,,,,,,,,,,,,,,,,,,,,,,,,,,,,,,,,,,,,,652.7281338999746,None,k,83.49997410003562,652.7281338999746,None,,,,,,,,,,,,,,,,,,,,,,,,,,,,,sing40,001,2019_Nov_16_1457,ProdFawcett_Revision2019,3.2.3,60.02069513255612,
,,,,,,,,,,,,,,736.2505508000031,None,space,1.201616299978923,736.2505508000031,None,,,,,,,,,,,,,,,,,,,,,,,,,,,,,,,,,,,,,,,,,,,,,,,,,,,,sing40,001,2019_Nov_16_1457,ProdFawcett_Revision2019,3.2.3,60.02069513255612,
,,,,0,0,0,0,,,,,,,,,,,,,742.8347631999641,None,,,,,,,,,,,,,,,,,,,,,,turkey,B_aloud,0,342,737.9831544999615,None,737.9831544999615,None,737.9831544999615,None,1,2.581200299959164,737.9831544999615,None,740.6124000999844,None,740.6124000999844,None,741.132947999984,None,741.132947999984,None,741.132947999984,None,n,1.6634474000311457,741.132947999984,None,sing40,001,2019_Nov_16_1457,ProdFawcett_Revision2019,3.2.3,60.02069513255612,
,,,,1,0,1,0,,,,,,,,,,,,,746.7655755999731,None,,,,,,,,,,,,,,,,,,,,,,relation,A_silent,1,257,743.3502366999746,None,743.3502366999746,None,743.3502366999746,None,1,1.637945300026331,743.3502366999746,None,745.0431624999619,None,745.0431624999619,None,745.566099299991,None,745.566099299991,None,745.566099299991,None,n,1.1580602999893017,745.566099299991,None,sing40,001,2019_Nov_16_1457,ProdFawcett_Revision2019,3.2.3,60.02069513255612,
,,,,2,0,2,0,,,,,,,,,,,,,751.9499820999918,None,,,,,,,,,,,,,,,,,,,,,,executive,B_aloud,2,122,747.28964979999,None,747.28964979999,None,747.28964979999,None,4,2.8744991999701597,747.28964979999,None,750.2155972999753,None,750.2155972999753,None,750.7375850999961,None,750.7375850999961,None,750.7375850999961,None,f,1.17878820002079,750.7375850999961,None,sing40,001,2019_Nov_16_1457,ProdFawcett_Revision2019,3.2.3,60.02069513255612,
,,,,3,0,3,0,,,,,,,,,,,,,757.2321161999716,None,,,,,,,,,,,,,,,,,,,,,,surface,D_new,3,316,752.4689383999794,None,752.4689383999794,None,752.4689383999794,None,1,3.1433190999669023,752.4689383999794,None,755.6561157999677,None,755.6561157999677,None,756.1836803999613,None,756.1836803999613,None,756.1836803999613,None,n,1.0045129000209272,756.1836803999613,None,sing40,001,2019_Nov_16_1457,ProdFawcett_Revision2019,3.2.3,60.02069513255612,
,,,,4,0,4,0,,,,,,,,,,,,,760.5499167999951,None,,,,,,,,,,,,,,,,,,,,,,shear,D_new,4,283,757.7502025999711,None,757.7502025999711,None,757.7502025999711,None,1,1.50197169999592,757.7502025999711,None,759.2935216999613,None,759.2935216999613,None,759.8164970999933,None,759.8164970999933,None,759.8164970999933,None,n,0.6916875999886543,759.8164970999933,None,sing40,001,2019_Nov_16_1457,ProdFawcett_Revision2019,3.2.3,60.02069513255612,
,,,,5,0,5,0,,,,,,,,,,,,,766.0336176999845,None,,,,,,,,,,,,,,,,,,,,,,notice,A_silent,5,201,761.0694573000073,None,761.0694573000073,None,761.0694573000073,None,2,2.6066884999745525,761.0694573000073,None,763.7231204999844,None,763.7231204999844,None,764.2497451999807,None,764.2497451999807,None,764.2497451999807,None,f,1.7385077000362799,764.2497451999807,None,sing40,001,2019_Nov_16_1457,ProdFawcett_Revision2019,3.2.3,60.02069513255612,
,,,,6,0,6,0,,,,,,,,,,,,,770.250074999989,None,,,,,,,,,,,,,,,,,,,,,,weather,D_new,6,352,766.5563077999977,None,766.5563077999977,None,766.5563077999977,None,2,2.215938000008464,766.5563077999977,None,768.8258992999909,None,768.8258992999909,None,769.3568108999752,None,769.3568108999752,None,769.3568108999752,None,f,0.8553654999705032,769.3568108999752,None,sing40,001,2019_Nov_16_1457,ProdFawcett_Revision2019,3.2.3,60.02069513255612,
,,,,7,0,7,0,,,,,,,,,,,,,775.9514419999905,None,,,,,,,,,,,,,,,,,,,,,,force,B_aloud,7,131,770.7676904999535,None,770.7676904999535,None,770.7676904999535,None,3,3.444638399989344,770.7676904999535,None,774.2675599000067,None,774.2675599000067,None,774.7856235000072,None,774.7856235000072,None,774.7856235000072,None,f,1.1305176999885589,774.7856235000072,None,sing40,001,2019_Nov_16_1457,ProdFawcett_Revision2019,3.2.3,60.02069513255612,
,,,,8,0,8,0,,,,,,,,,,,,,782.0851804999984,None,,,,,,,,,,,,,,,,,,,,,,division,B_aloud,8,101,776.4572678999975,None,776.4572678999975,None,776.4572678999975,None,5,3.2910842999699526,776.4572678999975,None,779.7992419999791,None,779.7992419999791,None,780.3260025999625,None,780.3260025999625,None,780.3260025999625,None,f,1.7263032000046223,780.3260025999625,None,sing40,001,2019_Nov_16_1457,ProdFawcett_Revision2019,3.2.3,60.02069513255612,
,,,,9,0,9,0,,,,,,,,,,,,,788.0523624999914,None,,,,,,,,,,,,,,,,,,,,,,rural,D_new,9,269,782.6033649999881,None,782.6033649999881,None,782.6033649999881,None,1,3.7128382999799214,782.6033649999881,None,786.3633756999625,None,786.3633756999625,None,786.8867252999917,None,786.8867252999917,None,786.8867252999917,None,n,1.133413899980951,786.8867252999917,None,sing40,001,2019_Nov_16_1457,ProdFawcett_Revision2019,3.2.3,60.02069513255612,
,,,,10,0,10,0,,,,,,,,,,,,,792.8186199999764,None,,,,,,,,,,,,,,,,,,,,,,republic,C_sing,10,260,788.5750082999584,None,788.5750082999584,None,788.5750082999584,None,3,2.8451995000359602,788.5750082999584,None,791.4671988000046,None,791.4671988000046,None,791.9949501999654,None,791.9949501999654,None,791.9949501999654,None,f,0.7852757999789901,791.9949501999654,None,sing40,001,2019_Nov_16_1457,ProdFawcett_Revision2019,3.2.3,60.02069513255612,
,,,,11,0,11,0,,,,,,,,,,,,,798.4858654999989,None,,,,,,,,,,,,,,,,,,,,,,expansion,D_new,11,123,793.3381226999918,None,793.3381226999918,None,793.3381226999918,None,2,3.514309999998659,793.3381226999918,None,796.8971085000085,None,796.8971085000085,None,797.4227491999627,None,797.4227491999627,None,797.4227491999627,None,n,1.0298681000131182,797.4227491999627,None,sing40,001,2019_Nov_16_1457,ProdFawcett_Revision2019,3.2.3,60.02069513255612,
,,,,12,0,12,0,,,,,,,,,,,,,802.8870466999942,None,,,,,,,,,,,,,,,,,,,,,,dream,D_new,12,104,799.0043358999537,None,799.0043358999537,None,799.0043358999537,None,1,2.3997447000001557,799.0043358999537,None,801.4476125999936,None,801.4476125999936,None,801.9689280999592,None,801.9689280999592,None,801.9689280999592,None,n,0.8753046999918297,801.9689280999592,None,sing40,001,2019_Nov_16_1457,ProdFawcett_Revision2019,3.2.3,60.02069513255612,
,,,,13,0,13,0,,,,,,,,,,,,,809.2536810999736,None,,,,,,,,,,,,,,,,,,,,,,write,B_aloud,13,358,803.4066603999818,None,803.4066603999818,None,803.4066603999818,None,3,4.229821200016886,803.4066603999818,None,807.6769599999534,None,807.6769599999534,None,808.2065042000031,None,808.2065042000031,None,808.2065042000031,None,f,1.014014899963513,808.2065042000031,None,sing40,001,2019_Nov_16_1457,ProdFawcett_Revision2019,3.2.3,60.02069513255612,
,,,,14,0,14,0,,,,,,,,,,,,,812.7534358999692,None,,,,,,,,,,,,,,,,,,,,,,bucket,D_new,14,33,809.7756744999788,None,809.7756744999788,None,809.7756744999788,None,1,1.5324913999647833,809.7756744999788,None,811.3667495999835,None,811.3667495999835,None,811.8921160000027,None,811.8921160000027,None,811.8921160000027,None,n,0.8160909999860451,811.8921160000027,None,sing40,001,2019_Nov_16_1457,ProdFawcett_Revision2019,3.2.3,60.02069513255612,
,,,,15,0,15,0,,,,,,,,,,,,,817.6043229000061,None,,,,,,,,,,,,,,,,,,,,,,pattern,D_new,15,214,813.2728462999803,None,813.2728462999803,None,813.2728462999803,None,2,2.85132999997586,813.2728462999803,None,816.1665146999876,None,816.1665146999876,None,816.6880431000027,None,816.6880431000027,None,816.6880431000027,None,f,0.8761073999921791,816.6880431000027,None,sing40,001,2019_Nov_16_1457,ProdFawcett_Revision2019,3.2.3,60.02069513255612,
,,,,16,0,16,0,,,,,,,,,,,,,820.7372921999777,None,,,,,,,,,,,,,,,,,,,,,,theme,D_new,16,326,818.1231047000038,None,818.1231047000038,None,818.1231047000038,None,1,1.5051271000411361,818.1231047000038,None,819.6817252999754,None,819.6817252999754,None,820.2042772999848,None,820.2042772999848,None,820.2042772999848,None,n,0.4880341000389308,820.2042772999848,None,sing40,001,2019_Nov_16_1457,ProdFawcett_Revision2019,3.2.3,60.02069513255612,
,,,,17,0,17,0,,,,,,,,,,,,,826.771429299959,None,,,,,,,,,,,,,,,,,,,,,,military,B_aloud,17,190,821.2560913999914,None,821.2560913999914,None,821.2560913999914,None,6,3.8680918000172824,821.2560913999914,None,825.1668267999776,None,825.1668267999776,None,825.6900833999971,None,825.6900833999971,None,825.6900833999971,None,r,1.0502754999906756,825.6900833999971,None,sing40,001,2019_Nov_16_1457,ProdFawcett_Revision2019,3.2.3,60.02069513255612,
,,,,18,0,18,0,,,,,,,,,,,,,832.337651699956,None,,,,,,,,,,,,,,,,,,,,,,foundation,D_new,18,132,827.289323200006,None,827.289323200006,None,827.289323200006,None,2,3.6268842999706976,827.289323200006,None,830.9674271999975,None,830.9674271999975,None,831.490129599988,None,831.490129599988,None,831.490129599988,None,n,0.8101027000229806,831.490129599988,None,sing40,001,2019_Nov_16_1457,ProdFawcett_Revision2019,3.2.3,60.02069513255612,
,,,,19,0,19,0,,,,,,,,,,,,,837.7884584999993,None,,,,,,,,,,,,,,,,,,,,,,crime,D_new,19,78,832.8563669999712,None,832.8563669999712,None,832.8563669999712,None,1,3.48398580000503,832.8563669999712,None,836.3917816999601,None,836.3917816999601,None,836.905697899987,None,836.905697899987,None,836.905697899987,None,n,0.8505500000319444,836.905697899987,None,sing40,001,2019_Nov_16_1457,ProdFawcett_Revision2019,3.2.3,60.02069513255612,
,,,,20,0,20,0,,,,,,,,,,,,,843.6227176999673,None,,,,,,,,,,,,,,,,,,,,,,character,D_new,20,46,838.3089777999558,None,838.3089777999558,None,838.3089777999558,None,4,3.8153943000361323,838.3089777999558,None,842.166066100006,None,842.166066100006,None,842.6883394999895,None,842.6883394999895,None,842.6883394999895,None,f,0.9005424999631941,842.6883394999895,None,sing40,001,2019_Nov_16_1457,ProdFawcett_Revision2019,3.2.3,60.02069513255612,
,,,,21,0,21,0,,,,,,,,,,,,,848.138993599976,None,,,,,,,,,,,,,,,,,,,,,,minor,A_silent,21,191,844.1406414000085,None,844.1406414000085,None,844.1406414000085,None,2,2.527634500002023,844.1406414000085,None,846.7166518999729,None,846.7166518999729,None,847.2367078999523,None,847.2367078999523,None,847.2367078999523,None,n,0.871566999994684,847.2367078999523,None,sing40,001,2019_Nov_16_1457,ProdFawcett_Revision2019,3.2.3,60.02069513255612,
,,,,22,0,22,0,,,,,,,,,,,,,856.6736497000093,None,,,,,,,,,,,,,,,,,,,,,,power,D_new,22,230,848.6617125999765,None,848.6617125999765,None,848.6617125999765,None,3,6.526627599960193,848.6617125999765,None,855.2374695999897,None,855.2374695999897,None,855.759932499961,None,855.759932499961,None,855.759932499961,None,f,0.8767253000405617,855.759932499961,None,sing40,001,2019_Nov_16_1457,ProdFawcett_Revision2019,3.2.3,60.02069513255612,
,,,,23,0,23,0,,,,,,,,,,,,,861.1404283999582,None,,,,,,,,,,,,,,,,,,,,,,speech,A_silent,23,298,857.1913146000006,None,857.1913146000006,None,857.1913146000006,None,1,2.4529485999955796,857.1913146000006,None,859.7002949999878,None,859.7002949999878,None,860.2228394999984,None,860.2228394999984,None,860.2228394999984,None,n,0.8773608999908902,860.2228394999984,None,sing40,001,2019_Nov_16_1457,ProdFawcett_Revision2019,3.2.3,60.02069513255612,
,,,,24,0,24,0,,,,,,,,,,,,,866.2742508999654,None,,,,,,,,,,,,,,,,,,,,,,research,C_sing,24,261,861.6593583999784,None,861.6593583999784,None,861.6593583999784,None,6,2.1848615999915637,861.6593583999784,None,863.8851321999682,None,863.8851321999682,None,864.408328999998,None,864.408328999998,None,864.408328999998,None,r,1.8358751999912784,864.408328999998,None,sing40,001,2019_Nov_16_1457,ProdFawcett_Revision2019,3.2.3,60.02069513255612,
,,,,25,0,25,0,,,,,,,,,,,,,871.0574080999941,None,,,,,,,,,,,,,,,,,,,,,,graduate,A_silent,25,141,866.7957486999803,None,866.7957486999803,None,866.7957486999803,None,6,2.6481408000108786,866.7957486999803,None,869.4999640999595,None,869.4999640999595,None,870.0283661999856,None,870.0283661999856,None,870.0283661999856,None,r,0.9998609999893233,870.0283661999856,None,sing40,001,2019_Nov_16_1457,ProdFawcett_Revision2019,3.2.3,60.02069513255612,
,,,,26,0,26,0,,,,,,,,,,,,,875.0913186999969,None,,,,,,,,,,,,,,,,,,,,,,stand,D_new,26,302,871.5758837999892,None,871.5758837999892,None,871.5758837999892,None,1,2.1003711999510415,871.5758837999892,None,873.7197139000054,None,873.7197139000054,None,874.2399828999769,None,874.2399828999769,None,874.2399828999769,None,n,0.8203849000274204,874.2399828999769,None,sing40,001,2019_Nov_16_1457,ProdFawcett_Revision2019,3.2.3,60.02069513255612,
,,,,27,0,27,0,,,,,,,,,,,,,879.958477499953,None,,,,,,,,,,,,,,,,,,,,,,quantity,C_sing,27,245,875.6134447999648,None,875.6134447999648,None,875.6134447999648,None,3,2.862788099970203,875.6134447999648,None,878.5220995999989,None,878.5220995999989,None,879.0458904999541,None,879.0458904999541,None,879.0458904999541,None,f,0.8789119999855757,879.0458904999541,None,sing40,001,2019_Nov_16_1457,ProdFawcett_Revision2019,3.2.3,60.02069513255612,
,,,,28,0,28,0,,,,,,,,,,,,,884.8256181000033,None,,,,,,,,,,,,,,,,,,,,,,gesture,D_new,28,137,880.478696999955,None,880.478696999955,None,880.478696999955,None,2,2.909661299956497,880.478696999955,None,883.4403040999896,None,883.4403040999896,None,883.961451799958,None,883.961451799958,None,883.961451799958,None,f,0.8271489999606274,883.961451799958,None,sing40,001,2019_Nov_16_1457,ProdFawcett_Revision2019,3.2.3,60.02069513255612,
,,,,29,0,29,0,,,,,,,,,,,,,890.1256889000069,None,,,,,,,,,,,,,,,,,,,,,,throw,D_new,29,330,885.3472518000053,None,885.3472518000053,None,885.3472518000053,None,1,3.1772913999739103,885.3472518000053,None,888.5739302999573,None,888.5739302999573,None,889.0953140999773,None,889.0953140999773,None,889.0953140999773,None,n,0.9889898000401445,889.0953140999773,None,sing40,001,2019_Nov_16_1457,ProdFawcett_Revision2019,3.2.3,60.02069513255612,
,,,,30,0,30,0,,,,,,,,,,,,,894.9262037999579,None,,,,,,,,,,,,,,,,,,,,,,grade,D_new,30,140,890.6477281999541,None,890.6477281999541,None,890.6477281999541,None,5,2.772588199994061,890.6477281999541,None,893.4695774999564,None,893.4695774999564,None,893.9968379999627,None,893.9968379999627,None,893.9968379999627,None,f,0.8873853000113741,893.9968379999627,None,sing40,001,2019_Nov_16_1457,ProdFawcett_Revision2019,3.2.3,60.02069513255612,
,,,,31,0,31,0,,,,,,,,,,,,,901.410284499987,None,,,,,,,,,,,,,,,,,,,,,,nature,A_silent,31,200,895.445010299969,None,895.445010299969,None,895.445010299969,None,5,4.711386999988463,895.445010299969,None,900.2044364999747,None,900.2044364999747,None,900.7273369999602,None,900.7273369999602,None,900.7273369999602,None,f,0.6528605000348762,900.7273369999602,None,sing40,001,2019_Nov_16_1457,ProdFawcett_Revision2019,3.2.3,60.02069513255612,
,,,,32,0,32,0,,,,,,,,,,,,,905.2604598999606,None,,,,,,,,,,,,,,,,,,,,,,design,A_silent,32,91,901.9335720999516,None,901.9335720999516,None,901.9335720999516,None,6,2.2949585999595,901.9335720999516,None,904.2716059999657,None,904.2716059999657,None,904.7993395999656,None,904.7993395999656,None,904.7993395999656,None,r,0.42900070000905544,904.7993395999656,None,sing40,001,2019_Nov_16_1457,ProdFawcett_Revision2019,3.2.3,60.02069513255612,
,,,,33,0,33,0,,,,,,,,,,,,,909.4942350999918,None,,,,,,,,,,,,,,,,,,,,,,youth,C_sing,33,359,905.7790759999771,None,905.7790759999771,None,905.7790759999771,None,5,2.2491824999451637,905.7790759999771,None,908.0716054000077,None,908.0716054000077,None,908.5912992999656,None,908.5912992999656,None,908.5912992999656,None,f,0.8611548999906518,908.5912992999656,None,sing40,001,2019_Nov_16_1457,ProdFawcett_Revision2019,3.2.3,60.02069513255612,
,,,,34,0,34,0,,,,,,,,,,,,,914.7438124999753,None,,,,,,,,,,,,,,,,,,,,,,vision,D_new,34,347,910.015703699959,None,910.015703699959,None,910.015703699959,None,2,2.892550199991092,910.015703699959,None,912.9609254999668,None,912.9609254999668,None,913.4824640000006,None,913.4824640000006,None,913.4824640000006,None,n,1.2178374999784864,913.4824640000006,None,sing40,001,2019_Nov_16_1457,ProdFawcett_Revision2019,3.2.3,60.02069513255612,
,,,,35,0,35,0,,,,,,,,,,,,,918.6433018999523,None,,,,,,,,,,,,,,,,,,,,,,couch,B_aloud,35,70,915.2621028999565,None,915.2621028999565,None,915.2621028999565,None,6,1.830181099998299,915.2621028999565,None,917.1378160999739,None,917.1378160999739,None,917.6612599999644,None,917.6612599999644,None,917.6612599999644,None,r,0.9511416000314057,917.6612599999644,None,sing40,001,2019_Nov_16_1457,ProdFawcett_Revision2019,3.2.3,60.02069513255612,
,,,,36,0,36,0,,,,,,,,,,,,,923.4112957000034,None,,,,,,,,,,,,,,,,,,,,,,rough,D_new,36,266,919.1673261999968,None,919.1673261999968,None,919.1673261999968,None,2,2.3329148999764584,919.1673261999968,None,921.5537355999695,None,921.5537355999695,None,922.0820044999709,None,922.0820044999709,None,922.0820044999709,None,n,1.2983768000267446,922.0820044999709,None,sing40,001,2019_Nov_16_1457,ProdFawcett_Revision2019,3.2.3,60.02069513255612,
,,,,37,0,37,0,,,,,,,,,,,,,927.511299500009,None,,,,,,,,,,,,,,,,,,,,,,dispute,A_silent,37,99,923.9301605999935,None,923.9301605999935,None,923.9301605999935,None,6,2.570074699993711,923.9301605999935,None,926.5559135999647,None,926.5559135999647,None,927.0805420999532,None,927.0805420999532,None,927.0805420999532,None,r,0.3877517000073567,927.0805420999532,None,sing40,001,2019_Nov_16_1457,ProdFawcett_Revision2019,3.2.3,60.02069513255612,
,,,,38,0,38,0,,,,,,,,,,,,,932.0782375999843,None,,,,,,,,,,,,,,,,,,,,,,salary,A_silent,38,271,928.0286683999584,None,928.0286683999584,None,928.0286683999584,None,1,2.5275847000302747,928.0286683999584,None,930.6057050999952,None,930.6057050999952,None,931.1288453000016,None,931.1288453000016,None,931.1288453000016,None,n,0.9162383999791928,931.1288453000016,None,sing40,001,2019_Nov_16_1457,ProdFawcett_Revision2019,3.2.3,60.02069513255612,
,,,,39,0,39,0,,,,,,,,,,,,,936.0612532999949,None,,,,,,,,,,,,,,,,,,,,,,figure,A_silent,39,128,932.6024764999747,None,932.6024764999747,None,932.6024764999747,None,4,2.2977446999866515,932.6024764999747,None,934.9590961000067,None,934.9590961000067,None,935.4838237999938,None,935.4838237999938,None,935.4838237999938,None,f,0.5447074000257999,935.4838237999938,None,sing40,001,2019_Nov_16_1457,ProdFawcett_Revision2019,3.2.3,60.02069513255612,
,,,,40,0,40,0,,,,,,,,,,,,,940.2125748999533,None,,,,,,,,,,,,,,,,,,,,,,height,D_new,40,152,936.5826567999902,None,936.5826567999902,None,936.5826567999902,None,1,2.117466100025922,936.5826567999902,None,938.7601630999707,None,938.7601630999707,None,939.2831574999727,None,939.2831574999727,None,939.2831574999727,None,n,0.8890455000218935,939.2831574999727,None,sing40,001,2019_Nov_16_1457,ProdFawcett_Revision2019,3.2.3,60.02069513255612,
,,,,41,0,41,0,,,,,,,,,,,,,945.0785176999634,None,,,,,,,,,,,,,,,,,,,,,,appeal,C_sing,41,9,940.7307151999557,None,940.7307151999557,None,940.7307151999557,None,5,2.78552730003139,940.7307151999557,None,943.5612768999999,None,943.5612768999999,None,944.0796985999914,None,944.0796985999914,None,944.0796985999914,None,f,0.9566432000137866,944.0796985999914,None,sing40,001,2019_Nov_16_1457,ProdFawcett_Revision2019,3.2.3,60.02069513255612,
,,,,42,0,42,0,,,,,,,,,,,,,949.0788470999687,None,,,,,,,,,,,,,,,,,,,,,,material,B_aloud,42,182,945.6006114999764,None,945.6006114999764,None,945.6006114999764,None,2,1.995890500023961,945.6006114999764,None,947.6419049999677,None,947.6419049999677,None,948.1611156999716,None,948.1611156999716,None,948.1611156999716,None,n,0.883199899981264,948.1611156999716,None,sing40,001,2019_Nov_16_1457,ProdFawcett_Revision2019,3.2.3,60.02069513255612,
,,,,43,0,43,0,,,,,,,,,,,,,953.9210319999838,None,,,,,,,,,,,,,,,,,,,,,,resistance,A_silent,43,262,949.5974052999518,None,949.5974052999518,None,949.5974052999518,None,3,3.230832699977327,949.5974052999518,None,952.8711791999522,None,952.8711791999522,None,953.3979478999972,None,953.3979478999972,None,953.3979478999972,None,f,0.49412909999955446,953.3979478999972,None,sing40,001,2019_Nov_16_1457,ProdFawcett_Revision2019,3.2.3,60.02069513255612,
,,,,44,0,44,0,,,,,,,,,,,,,958.1305530999671,None,,,,,,,,,,,,,,,,,,,,,,property,D_new,44,242,954.4490872999886,None,954.4490872999886,None,954.4490872999886,None,1,2.491159399971366,954.4490872999886,None,956.9944307999685,None,956.9944307999685,None,957.5161652999814,None,957.5161652999814,None,957.5161652999814,None,n,0.5840892999549396,957.5161652999814,None,sing40,001,2019_Nov_16_1457,ProdFawcett_Revision2019,3.2.3,60.02069513255612,
,,,,45,0,45,0,,,,,,,,,,,,,963.5309552999679,None,,,,,,,,,,,,,,,,,,,,,,cover,D_new,45,77,958.6544400999555,None,958.6544400999555,None,958.6544400999555,None,4,3.3818232000339776,958.6544400999555,None,962.0943342999672,None,962.0943342999672,None,962.6191226000083,None,962.6191226000083,None,962.6191226000083,None,f,0.8731531000230461,962.6191226000083,None,sing40,001,2019_Nov_16_1457,ProdFawcett_Revision2019,3.2.3,60.02069513255612,
,,,,46,0,46,0,,,,,,,,,,,,,968.9173890999518,None,,,,,,,,,,,,,,,,,,,,,,entrance,D_new,46,115,964.0497731000069,None,964.0497731000069,None,964.0497731000069,None,2,3.378690399986226,964.0497731000069,None,967.4757118999842,None,967.4757118999842,None,967.9987454999937,None,967.9987454999937,None,967.9987454999937,None,n,0.8855460000340827,967.9987454999937,None,sing40,001,2019_Nov_16_1457,ProdFawcett_Revision2019,3.2.3,60.02069513255612,
,,,,47,0,47,0,,,,,,,,,,,,,974.365104699973,None,,,,,,,,,,,,,,,,,,,,,,recall,C_sing,47,255,969.4495959999622,None,969.4495959999622,None,969.4495959999622,None,5,3.0746190000209026,969.4495959999622,None,972.5757172000012,None,972.5757172000012,None,973.0983053999953,None,973.0983053999953,None,973.0983053999953,None,f,1.233975899987854,973.0983053999953,None,sing40,001,2019_Nov_16_1457,ProdFawcett_Revision2019,3.2.3,60.02069513255612,
,,,,48,0,48,0,,,,,,,,,,,,,978.4818019999657,None,,,,,,,,,,,,,,,,,,,,,,portion,A_silent,48,228,974.883735099982,None,974.883735099982,None,974.883735099982,None,2,2.3205170000437647,974.883735099982,None,977.2635901999893,None,977.2635901999893,None,977.7819793999661,None,977.7819793999661,None,977.7819793999661,None,n,0.6625095999916084,977.7819793999661,None,sing40,001,2019_Nov_16_1457,ProdFawcett_Revision2019,3.2.3,60.02069513255612,
,,,,49,0,49,0,,,,,,,,,,,,,983.6155959999887,None,,,,,,,,,,,,,,,,,,,,,,route,D_new,49,267,978.998612699972,None,978.998612699972,None,978.998612699972,None,1,3.5499562000040896,978.998612699972,None,982.5933057999937,None,982.5933057999937,None,983.1146289999597,None,983.1146289999597,None,983.1146289999597,None,n,0.465647800010629,983.1146289999597,None,sing40,001,2019_Nov_16_1457,ProdFawcett_Revision2019,3.2.3,60.02069513255612,
,,,,50,0,50,0,,,,,,,,,,,,,987.5992392000044,None,,,,,,,,,,,,,,,,,,,,,,provision,C_sing,50,243,984.1400169999688,None,984.1400169999688,None,984.1400169999688,None,6,1.888396400026977,984.1400169999688,None,986.079576499993,None,986.079576499993,None,986.6069302999531,None,986.6069302999531,None,986.6069302999531,None,f,0.9493946000002325,986.6069302999531,None,sing40,001,2019_Nov_16_1457,ProdFawcett_Revision2019,3.2.3,60.02069513255612,
,,,,51,0,51,0,,,,,,,,,,,,,993.4173420000006,None,,,,,,,,,,,,,,,,,,,,,,position,A_silent,51,229,988.1171877000015,None,988.1171877000015,None,988.1171877000015,None,5,4.199373299954459,988.1171877000015,None,992.3606565999798,None,992.3606565999798,None,992.8837798999739,None,992.8837798999739,None,992.8837798999739,None,f,0.49653840000974014,992.8837798999739,None,sing40,001,2019_Nov_16_1457,ProdFawcett_Revision2019,3.2.3,60.02069513255612,
,,,,52,0,52,0,,,,,,,,,,,,,996.9164277999662,None,,,,,,,,,,,,,,,,,,,,,,platform,A_silent,52,224,993.9350016999524,None,993.9350016999524,None,993.9350016999524,None,2,1.8137455999967642,993.9350016999524,None,995.7940179999568,None,995.7940179999568,None,996.3173459999962,None,996.3173459999962,None,996.3173459999962,None,n,0.5589048999827355,996.3173459999962,None,sing40,001,2019_Nov_16_1457,ProdFawcett_Revision2019,3.2.3,60.02069513255612,
,,,,53,0,53,0,,,,,,,,,,,,,1000.8494348999811,None,,,,,,,,,,,,,,,,,,,,,,shape,B_aloud,53,282,997.4344386999728,None,997.4344386999728,None,997.4344386999728,None,1,2.1779806000413373,997.4344386999728,None,999.6610681999591,None,999.6610681999591,None,1000.1810938999988,None,1000.1810938999988,None,1000.1810938999988,None,n,0.6231803999980912,1000.1810938999988,None,sing40,001,2019_Nov_16_1457,ProdFawcett_Revision2019,3.2.3,60.02069513255612,
,,,,54,0,54,0,,,,,,,,,,,,,1004.0485447999672,None,,,,,,,,,,,,,,,,,,,,,,childhood,D_new,54,49,1001.3701529999962,None,1001.3701529999962,None,1001.3701529999962,None,1,1.4581217999802902,1001.3701529999962,None,1002.8776006999542,None,1002.8776006999542,None,1003.4024122999981,None,1003.4024122999981,None,1003.4024122999981,None,n,0.6099087999900803,1003.4024122999981,None,sing40,001,2019_Nov_16_1457,ProdFawcett_Revision2019,3.2.3,60.02069513255612,
,,,,55,0,55,0,,,,,,,,,,,,,1007.9166426999727,None,,,,,,,,,,,,,,,,,,,,,,ground,B_aloud,55,142,1004.5723707999568,None,1004.5723707999568,None,1004.5723707999568,None,1,1.6959974999772385,1004.5723707999568,None,1006.3070830999641,None,1006.3070830999641,None,1006.8366420000093,None,1006.8366420000093,None,1006.8366420000093,None,n,1.0479802999761887,1006.8366420000093,None,sing40,001,2019_Nov_16_1457,ProdFawcett_Revision2019,3.2.3,60.02069513255612,
,,,,56,0,56,0,,,,,,,,,,,,,1011.6989039999899,None,,,,,,,,,,,,,,,,,,,,,,damage,D_new,56,83,1008.440815399983,None,1008.440815399983,None,1008.440815399983,None,1,1.9074880999978632,1008.440815399983,None,1010.3989673999604,None,1010.3989673999604,None,1010.9234279000084,None,1010.9234279000084,None,1010.9234279000084,None,n,0.744854899996426,1010.9234279000084,None,sing40,001,2019_Nov_16_1457,ProdFawcett_Revision2019,3.2.3,60.02069513255612,
,,,,57,0,57,0,,,,,,,,,,,,,1016.3174962999765,None,,,,,,,,,,,,,,,,,,,,,,story,D_new,57,306,1012.2186737000011,None,1012.2186737000011,None,1012.2186737000011,None,3,3.1057229000143707,1012.2186737000011,None,1015.3773461999954,None,1015.3773461999954,None,1015.9021336999722,None,1015.9021336999722,None,1015.9021336999722,None,f,0.38235520001035184,1015.9021336999722,None,sing40,001,2019_Nov_16_1457,ProdFawcett_Revision2019,3.2.3,60.02069513255612,
,,,,58,0,58,0,,,,,,,,,,,,,1020.7851144999731,None,,,,,,,,,,,,,,,,,,,,,,title,D_new,58,331,1016.8357824999839,None,1016.8357824999839,None,1016.8357824999839,None,1,2.83267660002457,1016.8357824999839,None,1019.7101968000061,None,1019.7101968000061,None,1020.233825400006,None,1020.233825400006,None,1020.233825400006,None,n,0.5145617999951355,1020.233825400006,None,sing40,001,2019_Nov_16_1457,ProdFawcett_Revision2019,3.2.3,60.02069513255612,
,,,,59,0,59,0,,,,,,,,,,,,,1025.0515842000023,None,,,,,,,,,,,,,,,,,,,,,,collection,C_sing,59,54,1021.3015011999523,None,1021.3015011999523,None,1021.3015011999523,None,5,2.3907900999765843,1021.3015011999523,None,1023.7475871999632,None,1023.7475871999632,None,1024.269156800001,None,1024.269156800001,None,1024.269156800001,None,f,0.7511757999891415,1024.269156800001,None,sing40,001,2019_Nov_16_1457,ProdFawcett_Revision2019,3.2.3,60.02069513255612,
,,,,60,0,60,0,,,,,,,,,,,,,1029.585355999996,None,,,,,,,,,,,,,,,,,,,,,,state,C_sing,60,303,1025.5705047000083,None,1025.5705047000083,None,1025.5705047000083,None,4,2.921802699973341,1025.5705047000083,None,1028.5447574999998,None,1028.5447574999998,None,1029.0661027999595,None,1029.0661027999595,None,1029.0661027999595,None,f,0.4823022000491619,1029.0661027999595,None,sing40,001,2019_Nov_16_1457,ProdFawcett_Revision2019,3.2.3,60.02069513255612,
,,,,61,0,61,0,,,,,,,,,,,,,1035.9846207000082,None,,,,,,,,,,,,,,,,,,,,,,education,D_new,61,108,1030.1049042000086,None,1030.1049042000086,None,1030.1049042000086,None,5,4.4114219000330195,1030.1049042000086,None,1034.5612855000072,None,1034.5612855000072,None,1035.0837561999797,None,1035.0837561999797,None,1035.0837561999797,None,f,0.8648704999941401,1035.0837561999797,None,sing40,001,2019_Nov_16_1457,ProdFawcett_Revision2019,3.2.3,60.02069513255612,
,,,,62,0,62,0,,,,,,,,,,,,,1039.6856221999624,None,,,,,,,,,,,,,,,,,,,,,,literature,D_new,62,173,1036.505876899988,None,1036.505876899988,None,1036.505876899988,None,2,2.1224414000171237,1036.505876899988,None,1038.6762661999674,None,1038.6762661999674,None,1039.2037601000047,None,1039.2037601000047,None,1039.2037601000047,None,n,0.44075820001307875,1039.2037601000047,None,sing40,001,2019_Nov_16_1457,ProdFawcett_Revision2019,3.2.3,60.02069513255612,
,,,,63,0,63,0,,,,,,,,,,,,,1042.9860573000042,None,,,,,,,,,,,,,,,,,,,,,,hunger,B_aloud,63,155,1040.2052440999541,None,1040.2052440999541,None,1040.2052440999541,None,1,1.7272086000302806,1040.2052440999541,None,1041.9782693999587,None,1041.9782693999587,None,1042.5079465999734,None,1042.5079465999734,None,1042.5079465999734,None,n,0.440407200017944,1042.5079465999734,None,sing40,001,2019_Nov_16_1457,ProdFawcett_Revision2019,3.2.3,60.02069513255612,
,,,,64,0,64,0,,,,,,,,,,,,,1047.2868639999651,None,,,,,,,,,,,,,,,,,,,,,,number,B_aloud,64,203,1043.508940299973,None,1043.508940299973,None,1043.508940299973,None,2,1.9353350999881513,1043.508940299973,None,1045.501196099969,None,1045.501196099969,None,1046.0218007999938,None,1046.0218007999938,None,1046.0218007999938,None,n,1.2313423999585211,1046.0218007999938,None,sing40,001,2019_Nov_16_1457,ProdFawcett_Revision2019,3.2.3,60.02069513255612,
,,,,65,0,65,0,,,,,,,,,,,,,1051.719615399954,None,,,,,,,,,,,,,,,,,,,,,,school,D_new,65,274,1047.804407699965,None,1047.804407699965,None,1047.804407699965,None,1,2.719565400038846,1047.804407699965,None,1050.5600702000083,None,1050.5600702000083,None,1051.0878378999769,None,1051.0878378999769,None,1051.0878378999769,None,n,0.5964517000247724,1051.0878378999769,None,sing40,001,2019_Nov_16_1457,ProdFawcett_Revision2019,3.2.3,60.02069513255612,
,,,,66,0,66,0,,,,,,,,,,,,,1056.203646299953,None,,,,,,,,,,,,,,,,,,,,,,union,A_silent,66,344,1052.2381015999708,None,1052.2381015999708,None,1052.2381015999708,None,1,2.8701837999979034,1052.2381015999708,None,1055.163502899988,None,1055.163502899988,None,1055.6890548999654,None,1055.6890548999654,None,1055.6890548999654,None,n,0.4832360000000335,1055.6890548999654,None,sing40,001,2019_Nov_16_1457,ProdFawcett_Revision2019,3.2.3,60.02069513255612,
,,,,67,0,67,0,,,,,,,,,,,,,1062.7563449000008,None,,,,,,,,,,,,,,,,,,,,,,trial,B_aloud,67,341,1056.7217745999806,None,1056.7217745999806,None,1056.7217745999806,None,6,4.858521600021049,1056.7217745999806,None,1061.631355099962,None,1061.631355099962,None,1062.155392399989,None,1062.155392399989,None,1062.155392399989,None,r,0.5610117000178434,1062.155392399989,None,sing40,001,2019_Nov_16_1457,ProdFawcett_Revision2019,3.2.3,60.02069513255612,
,,,,68,0,68,0,,,,,,,,,,,,,1067.7711874999804,None,,,,,,,,,,,,,,,,,,,,,,addition,D_new,68,2,1063.27117979998,None,1063.27117979998,None,1063.27117979998,None,1,2.773267399985343,1063.27117979998,None,1066.094990499958,None,1066.094990499958,None,1066.622188899957,None,1066.622188899957,None,1066.622188899957,None,n,1.1101196999661624,1066.622188899957,None,sing40,001,2019_Nov_16_1457,ProdFawcett_Revision2019,3.2.3,60.02069513255612,
,,,,69,0,69,0,,,,,,,,,,,,,1071.8877419999917,None,,,,,,,,,,,,,,,,,,,,,,solution,C_sing,69,294,1068.2899383999757,None,1068.2899383999757,None,1068.2899383999757,None,6,2.1383625000016764,1068.2899383999757,None,1070.4825937999994,None,1070.4825937999994,None,1071.0058210999705,None,1071.0058210999705,None,1071.0058210999705,None,r,0.8466379000456072,1071.0058210999705,None,sing40,001,2019_Nov_16_1457,ProdFawcett_Revision2019,3.2.3,60.02069513255612,
,,,,70,0,70,0,,,,,,,,,,,,,1076.1553532999824,None,,,,,,,,,,,,,,,,,,,,,,break,A_silent,70,26,1072.4101370999706,None,1072.4101370999706,None,1072.4101370999706,None,3,2.7462069999892265,1072.4101370999706,None,1075.202426599979,None,1075.202426599979,None,1075.7241817999748,None,1075.7241817999748,None,1075.7241817999748,None,f,0.4003487000009045,1075.7241817999748,None,sing40,001,2019_Nov_16_1457,ProdFawcett_Revision2019,3.2.3,60.02069513255612,
,,,,71,0,71,0,,,,,,,,,,,,,1079.221955899964,None,,,,,,,,,,,,,,,,,,,,,,sunset,D_new,71,315,1076.6731941999751,None,1076.6731941999751,None,1076.6731941999751,None,1,1.3711604999843985,1076.6731941999751,None,1078.0945127999876,None,1078.0945127999876,None,1078.6230742000043,None,1078.6230742000043,None,1078.6230742000043,None,n,0.5654388999682851,1078.6230742000043,None,sing40,001,2019_Nov_16_1457,ProdFawcett_Revision2019,3.2.3,60.02069513255612,
,,,,72,0,72,0,,,,,,,,,,,,,1082.9217727999785,None,,,,,,,,,,,,,,,,,,,,,,appearance,D_new,72,10,1079.7412714000093,None,1079.7412714000093,None,1079.7412714000093,None,2,2.1352045999956317,1079.7412714000093,None,1081.9305682999548,None,1081.9305682999548,None,1082.456723499985,None,1082.456723499985,None,1082.456723499985,None,n,0.4196517000091262,1082.456723499985,None,sing40,001,2019_Nov_16_1457,ProdFawcett_Revision2019,3.2.3,60.02069513255612,
,,,,73,0,73,0,,,,,,,,,,,,,1086.3891968999524,None,,,,,,,,,,,,,,,,,,,,,,candidate,D_new,73,39,1083.4411989999935,None,1083.4411989999935,None,1083.4411989999935,None,1,1.9233039000537246,1083.4411989999935,None,1085.4136671999586,None,1085.4136671999586,None,1085.9383025999996,None,1085.9383025999996,None,1085.9383025999996,None,n,0.41831290000118315,1085.9383025999996,None,sing40,001,2019_Nov_16_1457,ProdFawcett_Revision2019,3.2.3,60.02069513255612,
,,,,74,0,74,0,,,,,,,,,,,,,1090.2050454999553,None,,,,,,,,,,,,,,,,,,,,,,service,C_sing,74,280,1086.9101251999964,None,1086.9101251999964,None,1086.9101251999964,None,5,2.27867819997482,1086.9101251999964,None,1089.2390263999696,None,1089.2390263999696,None,1089.7611314999522,None,1089.7611314999522,None,1089.7611314999522,None,f,0.4032612999435514,1089.7611314999522,None,sing40,001,2019_Nov_16_1457,ProdFawcett_Revision2019,3.2.3,60.02069513255612,
,,,,75,0,75,0,,,,,,,,,,,,,1093.9230038999813,None,,,,,,,,,,,,,,,,,,,,,,chief,B_aloud,75,48,1090.724077699997,None,1090.724077699997,None,1090.724077699997,None,6,2.1522039999836124,1090.724077699997,None,1092.9122542999685,None,1092.9122542999685,None,1093.437714300002,None,1093.437714300002,None,1093.437714300002,None,r,0.44660569995176047,1093.437714300002,None,sing40,001,2019_Nov_16_1457,ProdFawcett_Revision2019,3.2.3,60.02069513255612,
,,,,76,0,76,0,,,,,,,,,,,,,1097.5562677999842,None,,,,,,,,,,,,,,,,,,,,,,display,D_new,76,98,1094.4409067999804,None,1094.4409067999804,None,1094.4409067999804,None,3,2.115630100015551,1094.4409067999804,None,1096.6002061999752,None,1096.6002061999752,None,1097.1234321999946,None,1097.1234321999946,None,1097.1234321999946,None,f,0.4008513999870047,1097.1234321999946,None,sing40,001,2019_Nov_16_1457,ProdFawcett_Revision2019,3.2.3,60.02069513255612,
,,,,77,0,77,0,,,,,,,,,,,,,1102.9569230999914,None,,,,,,,,,,,,,,,,,,,,,,household,C_sing,77,154,1098.0722458999953,None,1098.0722458999953,None,1098.0722458999953,None,5,3.812077499984298,1098.0722458999953,None,1101.9354671000037,None,1101.9354671000037,None,1102.4590890999534,None,1102.4590890999534,None,1102.4590890999534,None,f,0.45718500000657514,1102.4590890999534,None,sing40,001,2019_Nov_16_1457,ProdFawcett_Revision2019,3.2.3,60.02069513255612,
,,,,78,0,78,0,,,,,,,,,,,,,1106.5405362999882,None,,,,,,,,,,,,,,,,,,,,,,substance,D_new,78,313,1103.4761419999995,None,1103.4761419999995,None,1103.4761419999995,None,1,2.032164600037504,1103.4761419999995,None,1105.560434599989,None,1105.560434599989,None,1106.080550499959,None,1106.080550499959,None,1106.080550499959,None,n,0.4196866000420414,1106.080550499959,None,sing40,001,2019_Nov_16_1457,ProdFawcett_Revision2019,3.2.3,60.02069513255612,
,,,,79,0,79,0,,,,,,,,,,,,,1111.4410108999582,None,,,,,,,,,,,,,,,,,,,,,,produce,B_aloud,79,239,1107.0586607999867,None,1107.0586607999867,None,1107.0586607999867,None,5,3.377823799964972,1107.0586607999867,None,1110.4859961000038,None,1110.4859961000038,None,1111.0078615999664,None,1111.0078615999664,None,1111.0078615999664,None,f,0.39654970000265166,1111.0078615999664,None,sing40,001,2019_Nov_16_1457,ProdFawcett_Revision2019,3.2.3,60.02069513255612,
,,,,80,0,80,0,,,,,,,,,,,,,1115.0084710000083,None,,,,,,,,,,,,,,,,,,,,,,death,D_new,80,86,1111.9586177999736,None,1111.9586177999736,None,1111.9586177999736,None,1,2.0137303000083193,1111.9586177999736,None,1114.019013299956,None,1114.019013299956,None,1114.5403571999632,None,1114.5403571999632,None,1114.5403571999632,None,n,0.42401600000448525,1114.5403571999632,None,sing40,001,2019_Nov_16_1457,ProdFawcett_Revision2019,3.2.3,60.02069513255612,
,,,,81,0,81,0,,,,,,,,,,,,,1118.4911364999716,None,,,,,,,,,,,,,,,,,,,,,,guard,A_silent,81,145,1115.5352292999742,None,1115.5352292999742,None,1115.5352292999742,None,2,1.92523330001859,1115.5352292999742,None,1117.5051886999863,None,1117.5051886999863,None,1118.0297016999684,None,1118.0297016999684,None,1118.0297016999684,None,n,0.4307881999993697,1118.0297016999684,None,sing40,001,2019_Nov_16_1457,ProdFawcett_Revision2019,3.2.3,60.02069513255612,
,,,,82,0,82,0,,,,,,,,,,,,,1122.1914769999566,None,,,,,,,,,,,,,,,,,,,,,,problem,C_sing,82,238,1119.011439999973,None,1119.011439999973,None,1119.011439999973,None,6,2.0809045000351034,1119.011439999973,None,1121.1387773999595,None,1121.1387773999595,None,1121.663488899998,None,1121.663488899998,None,1121.663488899998,None,r,0.48487739998381585,1121.663488899998,None,sing40,001,2019_Nov_16_1457,ProdFawcett_Revision2019,3.2.3,60.02069513255612,
,,,,83,0,83,0,,,,,,,,,,,,,1125.3086476000026,None,,,,,,,,,,,,,,,,,,,,,,mayor,B_aloud,83,183,1122.7097564999713,None,1122.7097564999713,None,1122.7097564999713,None,6,1.5344535000040196,1122.7097564999713,None,1124.2860327999806,None,1124.2860327999806,None,1124.808572000009,None,1124.808572000009,None,1124.808572000009,None,r,0.4678260000073351,1124.808572000009,None,sing40,001,2019_Nov_16_1457,ProdFawcett_Revision2019,3.2.3,60.02069513255612,
,,,,84,0,84,0,,,,,,,,,,,,,1130.6421830999898,None,,,,,,,,,,,,,,,,,,,,,,tough,D_new,84,333,1125.832114299992,None,1125.832114299992,None,1125.832114299992,None,2,3.4926983000477776,1125.832114299992,None,1129.367524100002,None,1129.367524100002,None,1129.8969166000024,None,1129.8969166000024,None,1129.8969166000024,None,n,0.7076239999732934,1129.8969166000024,None,sing40,001,2019_Nov_16_1457,ProdFawcett_Revision2019,3.2.3,60.02069513255612,
,,,,85,0,85,0,,,,,,,,,,,,,1135.1092017999617,None,,,,,,,,,,,,,,,,,,,,,,burden,A_silent,85,36,1131.164889699954,None,1131.164889699954,None,1131.164889699954,None,6,2.8714452999993227,1131.164889699954,None,1134.0897276999895,None,1134.0897276999895,None,1134.6129661999876,None,1134.6129661999876,None,1134.6129661999876,None,r,0.4553588000126183,1134.6129661999876,None,sing40,001,2019_Nov_16_1457,ProdFawcett_Revision2019,3.2.3,60.02069513255612,
,,,,86,0,86,0,,,,,,,,,,,,,1139.5429548999527,None,,,,,,,,,,,,,,,,,,,,,,exchange,D_new,86,121,1135.630165999988,None,1135.630165999988,None,1135.630165999988,None,1,2.9022598000010476,1135.630165999988,None,1138.591779099952,None,1138.591779099952,None,1139.1153350999812,None,1139.1153350999812,None,1139.1153350999812,None,n,0.3938264999887906,1139.1153350999812,None,sing40,001,2019_Nov_16_1457,ProdFawcett_Revision2019,3.2.3,60.02069513255612,
,,,,87,0,87,0,,,,,,,,,,,,,1144.2930349999806,None,,,,,,,,,,,,,,,,,,,,,,accident,D_new,87,0,1140.0615888999891,None,1140.0615888999891,None,1140.0615888999891,None,3,3.238778099999763,1140.0615888999891,None,1143.3541588999797,None,1143.3541588999797,None,1143.8742070999579,None,1143.8742070999579,None,1143.8742070999579,None,f,0.3861344999750145,1143.8742070999579,None,sing40,001,2019_Nov_16_1457,ProdFawcett_Revision2019,3.2.3,60.02069513255612,
,,,,88,0,88,0,,,,,,,,,,,,,1147.826547899982,None,,,,,,,,,,,,,,,,,,,,,,incident,B_aloud,88,158,1144.8097549999948,None,1144.8097549999948,None,1144.8097549999948,None,6,2.0425904000294395,1144.8097549999948,None,1146.9043867999571,None,1146.9043867999571,None,1147.433565699961,None,1147.433565699961,None,1147.433565699961,None,r,0.3627536999993026,1147.433565699961,None,sing40,001,2019_Nov_16_1457,ProdFawcett_Revision2019,3.2.3,60.02069513255612,
,,,,89,0,89,0,,,,,,,,,,,,,1152.6935738999746,None,,,,,,,,,,,,,,,,,,,,,,present,C_sing,89,231,1148.3452940999996,None,1148.3452940999996,None,1148.3452940999996,None,2,3.411283600027673,1148.3452940999996,None,1151.8077853999566,None,1151.8077853999566,None,1152.328165099956,None,1152.328165099956,None,1152.328165099956,None,n,0.3241795000503771,1152.328165099956,None,sing40,001,2019_Nov_16_1457,ProdFawcett_Revision2019,3.2.3,60.02069513255612,
,,,,90,0,90,0,,,,,,,,,,,,,1157.144017499988,None,,,,,,,,,,,,,,,,,,,,,,career,D_new,90,42,1153.2109165999573,None,1153.2109165999573,None,1153.2109165999573,None,3,2.9694508999818936,1153.2109165999573,None,1156.2217533999938,None,1156.2217533999938,None,1156.7435888999607,None,1156.7435888999607,None,1156.7435888999607,None,f,0.364702999999281,1156.7435888999607,None,sing40,001,2019_Nov_16_1457,ProdFawcett_Revision2019,3.2.3,60.02069513255612,
,,,,91,0,91,0,,,,,,,,,,,,,1164.861146499985,None,,,,,,,,,,,,,,,,,,,,,,private,D_new,91,237,1157.6666362999822,None,1157.6666362999822,None,1157.6666362999822,None,3,5.961724599997979,1157.6666362999822,None,1163.6765275999787,None,1163.6765275999787,None,1164.2002374999574,None,1164.2002374999574,None,1164.2002374999574,None,f,0.6200963000301272,1164.2002374999574,None,sing40,001,2019_Nov_16_1457,ProdFawcett_Revision2019,3.2.3,60.02069513255612,
,,,,92,0,92,0,,,,,,,,,,,,,1169.044818800001,None,,,,,,,,,,,,,,,,,,,,,,weight,C_sing,92,353,1165.384892800008,None,1165.384892800008,None,1165.384892800008,None,4,2.707475600007456,1165.384892800008,None,1168.144161299977,None,1168.144161299977,None,1168.6642191999708,None,1168.6642191999708,None,1168.6642191999708,None,f,0.3400899000116624,1168.6642191999708,None,sing40,001,2019_Nov_16_1457,ProdFawcett_Revision2019,3.2.3,60.02069513255612,
,,,,93,0,93,0,,,,,,,,,,,,,1173.3780374999624,None,,,,,,,,,,,,,,,,,,,,,,sleep,D_new,93,290,1169.560828799964,None,1169.560828799964,None,1169.560828799964,None,1,2.3955747000291012,1169.560828799964,None,1172.0081702999887,None,1172.0081702999887,None,1172.5282061999897,None,1172.5282061999897,None,1172.5282061999897,None,n,0.8042367000016384,1172.5282061999897,None,sing40,001,2019_Nov_16_1457,ProdFawcett_Revision2019,3.2.3,60.02069513255612,
,,,,94,0,94,0,,,,,,,,,,,,,1176.2952183999587,None,,,,,,,,,,,,,,,,,,,,,,trash,D_new,94,337,1173.897274899995,None,1173.897274899995,None,1173.897274899995,None,1,1.331335199996829,1173.897274899995,None,1175.2730967999669,None,1175.2730967999669,None,1175.7961905999691,None,1175.7961905999691,None,1175.7961905999691,None,n,0.464180100010708,1175.7961905999691,None,sing40,001,2019_Nov_16_1457,ProdFawcett_Revision2019,3.2.3,60.02069513255612,
,,,,95,0,95,0,,,,,,,,,,,,,1179.3294124999666,None,,,,,,,,,,,,,,,,,,,,,,birth,D_new,95,22,1176.8160614999942,None,1176.8160614999942,None,1176.8160614999942,None,1,1.3803768000216223,1176.8160614999942,None,1178.2364730999689,None,1178.2364730999689,None,1178.7638885999913,None,1178.7638885999913,None,1178.7638885999913,None,n,0.520436700026039,1178.7638885999913,None,sing40,001,2019_Nov_16_1457,ProdFawcett_Revision2019,3.2.3,60.02069513255612,
,,,,96,0,96,0,,,,,,,,,,,,,1182.6289679000038,None,,,,,,,,,,,,,,,,,,,,,,public,D_new,96,244,1179.849959199957,None,1179.849959199957,None,1179.849959199957,None,2,1.7704400999937207,1179.849959199957,None,1181.6795665999525,None,1181.6795665999525,None,1182.2024934999645,None,1182.2024934999645,None,1182.2024934999645,None,f,0.39393609995022416,1182.2024934999645,None,sing40,001,2019_Nov_16_1457,ProdFawcett_Revision2019,3.2.3,60.02069513255612,
,,,,97,0,97,0,,,,,,,,,,,,,1186.512636200001,None,,,,,,,,,,,,,,,,,,,,,,balance,D_new,97,17,1183.1487910999567,None,1183.1487910999567,None,1183.1487910999567,None,3,2.3515590999741107,1183.1487910999567,None,1185.5545277000056,None,1185.5545277000056,None,1186.0846085000085,None,1186.0846085000085,None,1186.0846085000085,None,f,0.383746900013648,1186.0846085000085,None,sing40,001,2019_Nov_16_1457,ProdFawcett_Revision2019,3.2.3,60.02069513255612,
,,,,98,0,98,0,,,,,,,,,,,,,1189.7292751999921,None,,,,,,,,,,,,,,,,,,,,,,light,D_new,98,171,1187.0354679999873,None,1187.0354679999873,None,1187.0354679999873,None,1,1.5527964000357315,1187.0354679999873,None,1188.6405375999748,None,1188.6405375999748,None,1189.165719599987,None,1189.165719599987,None,1189.165719599987,None,n,0.5186366999987513,1189.165719599987,None,sing40,001,2019_Nov_16_1457,ProdFawcett_Revision2019,3.2.3,60.02069513255612,
,,,,99,0,99,0,,,,,,,,,,,,,1193.0298167999717,None,,,,,,,,,,,,,,,,,,,,,,travel,D_new,99,338,1190.2521389999893,None,1190.2521389999893,None,1190.2521389999893,None,2,1.832198000047356,1190.2521389999893,None,1192.144654600008,None,1192.144654600008,None,1192.6680938999634,None,1192.6680938999634,None,1192.6680938999634,None,n,0.3285844999481924,1192.6680938999634,None,sing40,001,2019_Nov_16_1457,ProdFawcett_Revision2019,3.2.3,60.02069513255612,
,,,,100,0,100,0,,,,,,,,,,,,,1196.7299493000028,None,,,,,,,,,,,,,,,,,,,,,,degree,D_new,100,89,1193.5525112999603,None,1193.5525112999603,None,1193.5525112999603,None,1,2.1558712999685667,1193.5525112999603,None,1195.7560177999549,None,1195.7560177999549,None,1196.2848516000086,None,1196.2848516000086,None,1196.2848516000086,None,n,0.4076826000236906,1196.2848516000086,None,sing40,001,2019_Nov_16_1457,ProdFawcett_Revision2019,3.2.3,60.02069513255612,
,,,,101,0,101,0,,,,,,,,,,,,,1199.6785830999725,None,,,,,,,,,,,,,,,,,,,,,,science,D_new,101,275,1197.2469915999682,None,1197.2469915999682,None,1197.2469915999682,None,1,1.3660616000415757,1197.2469915999682,None,1198.6577769999858,None,1198.6577769999858,None,1199.1804317999631,None,1199.1804317999631,None,1199.1804317999631,None,n,0.46396080002887174,1199.1804317999631,None,sing40,001,2019_Nov_16_1457,ProdFawcett_Revision2019,3.2.3,60.02069513255612,
,,,,102,0,102,0,,,,,,,,,,,,,1202.6974868999678,None,,,,,,,,,,,,,,,,,,,,,,prime,D_new,102,235,1200.1981087999884,None,1200.1981087999884,None,1200.1981087999884,None,1,1.3743888999451883,1200.1981087999884,None,1201.6247842999874,None,1201.6247842999874,None,1202.147125199961,None,1202.147125199961,None,1202.147125199961,None,n,0.5134267000248656,1202.147125199961,None,sing40,001,2019_Nov_16_1457,ProdFawcett_Revision2019,3.2.3,60.02069513255612,
,,,,103,0,103,0,,,,,,,,,,,,,1206.5807249000063,None,,,,,,,,,,,,,,,,,,,,,,edition,C_sing,103,107,1203.215254299983,None,1203.215254299983,None,1203.215254299983,None,1,2.22929580003256,1203.215254299983,None,1205.4918643999845,None,1205.4918643999845,None,1206.012136699981,None,1206.012136699981,None,1206.012136699981,None,n,0.5282195000327192,1206.012136699981,None,sing40,001,2019_Nov_16_1457,ProdFawcett_Revision2019,3.2.3,60.02069513255612,
,,,,104,0,104,0,,,,,,,,,,,,,1210.1646662999992,None,,,,,,,,,,,,,,,,,,,,,,match,C_sing,104,181,1207.0997190999915,None,1207.0997190999915,None,1207.0997190999915,None,4,2.056773000047542,1207.0997190999915,None,1209.2086577999871,None,1209.2086577999871,None,1209.731917499972,None,1209.731917499972,None,1209.731917499972,None,f,0.40060880000237375,1209.731917499972,None,sing40,001,2019_Nov_16_1457,ProdFawcett_Revision2019,3.2.3,60.02069513255612,
,,,,105,0,105,0,,,,,,,,,,,,,1213.5311061999528,None,,,,,,,,,,,,,,,,,,,,,,crisis,D_new,105,79,1210.682325700007,None,1210.682325700007,None,1210.682325700007,None,6,1.9060753000085242,1210.682325700007,None,1212.6396631999523,None,1212.6396631999523,None,1213.1657726999838,None,1213.1657726999838,None,1213.1657726999838,None,r,0.3266064000199549,1213.1657726999838,None,sing40,001,2019_Nov_16_1457,ProdFawcett_Revision2019,3.2.3,60.02069513255612,
,,,,106,0,106,0,,,,,,,,,,,,,1218.3314126000041,None,,,,,,,,,,,,,,,,,,,,,,style,C_sing,106,311,1214.0480439999956,None,1214.0480439999956,None,1214.0480439999956,None,5,3.3004611000069417,1214.0480439999956,None,1217.3927279000054,None,1217.3927279000054,None,1217.915760200005,None,1217.915760200005,None,1217.915760200005,None,f,0.3846649000188336,1217.915760200005,None,sing40,001,2019_Nov_16_1457,ProdFawcett_Revision2019,3.2.3,60.02069513255612,
,,,,107,0,107,0,,,,,,,,,,,,,1221.7473332000081,None,,,,,,,,,,,,,,,,,,,,,,front,A_silent,107,134,1218.8501261000056,None,1218.8501261000056,None,1218.8501261000056,None,1,1.8662901000352576,1218.8501261000056,None,1220.7627348999958,None,1220.7627348999958,None,1221.2803641000064,None,1221.2803641000064,None,1221.2803641000064,None,n,0.42798050004057586,1221.2803641000064,None,sing40,001,2019_Nov_16_1457,ProdFawcett_Revision2019,3.2.3,60.02069513255612,
,,,,108,0,108,0,,,,,,,,,,,,,1225.365226999973,None,,,,,,,,,,,,,,,,,,,,,,listen,B_aloud,108,172,1222.2667894999613,None,1222.2667894999613,None,1222.2667894999613,None,4,2.2096278000390157,1222.2667894999613,None,1224.5220412999624,None,1224.5220412999624,None,1225.0487510999665,None,1225.0487510999665,None,1225.0487510999665,None,f,0.2840295999776572,1225.0487510999665,None,sing40,001,2019_Nov_16_1457,ProdFawcett_Revision2019,3.2.3,60.02069513255612,
,,,,109,0,109,0,,,,,,,,,,,,,1228.7551952999784,None,,,,,,,,,,,,,,,,,,,,,,audience,B_aloud,109,14,1225.884077899973,None,1225.884077899973,None,1225.884077899973,None,2,1.824335900018923,1225.884077899973,None,1227.7593971999595,None,1227.7593971999595,None,1228.2831318999524,None,1228.2831318999524,None,1228.2831318999524,None,n,0.4490068999584764,1228.2831318999524,None,sing40,001,2019_Nov_16_1457,ProdFawcett_Revision2019,3.2.3,60.02069513255612,
,,,,110,0,110,0,,,,,,,,,,,,,1231.982158800005,None,,,,,,,,,,,,,,,,,,,,,,master,D_new,110,180,1229.28440579999,None,1229.28440579999,None,1229.28440579999,None,1,1.6804328999714926,1229.28440579999,None,1231.0050405999646,None,1231.0050405999646,None,1231.5322154999594,None,1231.5322154999594,None,1231.5322154999594,None,n,0.4082106000278145,1231.5322154999594,None,sing40,001,2019_Nov_16_1457,ProdFawcett_Revision2019,3.2.3,60.02069513255612,
,,,,111,0,111,0,,,,,,,,,,,,,1235.099332499958,None,,,,,,,,,,,,,,,,,,,,,,disease,D_new,111,97,1232.4990943999728,None,1232.4990943999728,None,1232.4990943999728,None,1,1.513467800046783,1232.4990943999728,None,1234.0685671999818,None,1234.0685671999818,None,1234.5808169000084,None,1234.5808169000084,None,1234.5808169000084,None,n,0.47958469996228814,1234.5808169000084,None,sing40,001,2019_Nov_16_1457,ProdFawcett_Revision2019,3.2.3,60.02069513255612,
,,,,112,0,112,0,,,,,,,,,,,,,1238.849516999966,None,,,,,,,,,,,,,,,,,,,,,,growth,D_new,112,144,1235.6203956999816,None,1235.6203956999816,None,1235.6203956999816,None,2,2.2159567000344396,1235.6203956999816,None,1237.8754717999836,None,1237.8754717999836,None,1238.404412199976,None,1238.404412199976,None,1238.404412199976,None,n,0.4081339000258595,1238.404412199976,None,sing40,001,2019_Nov_16_1457,ProdFawcett_Revision2019,3.2.3,60.02069513255612,
,,,,113,0,113,0,,,,,,,,,,,,,1242.035252199974,None,,,,,,,,,,,,,,,,,,,,,,committee,A_silent,113,62,1239.3675083999988,None,1239.3675083999988,None,1239.3675083999988,None,1,1.5728618000284769,1239.3675083999988,None,1240.991087900009,None,1240.991087900009,None,1241.5173233000096,None,1241.5173233000096,None,1241.5173233000096,None,n,0.47920739999972284,1241.5173233000096,None,sing40,001,2019_Nov_16_1457,ProdFawcett_Revision2019,3.2.3,60.02069513255612,
,,,,114,0,114,0,,,,,,,,,,,,,1246.599613600003,None,,,,,,,,,,,,,,,,,,,,,,session,B_aloud,114,281,1242.5498880000087,None,1242.5498880000087,None,1242.5498880000087,None,3,3.03851109999232,1242.5498880000087,None,1245.6409833999933,None,1245.6409833999933,None,1246.167730199988,None,1246.167730199988,None,1246.167730199988,None,f,0.39661629998590797,1246.167730199988,None,sing40,001,2019_Nov_16_1457,ProdFawcett_Revision2019,3.2.3,60.02069513255612,
,,,,115,0,115,0,,,,,,,,,,,,,1250.0668564999942,None,,,,,,,,,,,,,,,,,,,,,,generation,C_sing,115,136,1247.1227238999563,None,1247.1227238999563,None,1247.1227238999563,None,1,1.9778554000076838,1247.1227238999563,None,1249.1479534999817,None,1249.1479534999817,None,1249.6737381999847,None,1249.6737381999847,None,1249.6737381999847,None,n,0.3546550999744795,1249.6737381999847,None,sing40,001,2019_Nov_16_1457,ProdFawcett_Revision2019,3.2.3,60.02069513255612,
,,,,116,0,116,0,,,,,,,,,,,,,1254.6176460999995,None,,,,,,,,,,,,,,,,,,,,,,meeting,C_sing,116,187,1250.5873198999907,None,1250.5873198999907,None,1250.5873198999907,None,3,3.057159700023476,1250.5873198999907,None,1253.697914499964,None,1253.697914499964,None,1254.2040318999789,None,1254.2040318999789,None,1254.2040318999789,None,f,0.37651929998537526,1254.2040318999789,None,sing40,001,2019_Nov_16_1457,ProdFawcett_Revision2019,3.2.3,60.02069513255612,
,,,,117,0,117,0,,,,,,,,,,,,,1260.4006883999682,None,,,,,,,,,,,,,,,,,,,,,,history,C_sing,117,153,1255.1351640999783,None,1255.1351640999783,None,1255.1351640999783,None,1,4.189255499979481,1255.1351640999783,None,1259.3773266999633,None,1259.3773266999633,None,1259.9032202999806,None,1259.9032202999806,None,1259.9032202999806,None,n,0.4531091999961063,1259.9032202999806,None,sing40,001,2019_Nov_16_1457,ProdFawcett_Revision2019,3.2.3,60.02069513255612,
,,,,118,0,118,0,,,,,,,,,,,,,1264.5511718000052,None,,,,,,,,,,,,,,,,,,,,,,mankind,B_aloud,118,178,1260.9199106000015,None,1260.9199106000015,None,1260.9199106000015,None,5,2.788475099951029,1260.9199106000015,None,1263.7602919999626,None,1263.7602919999626,None,1264.2848271999974,None,1264.2848271999974,None,1264.2848271999974,None,f,0.22363160003442317,1264.2848271999974,None,sing40,001,2019_Nov_16_1457,ProdFawcett_Revision2019,3.2.3,60.02069513255612,
,,,,119,0,119,0,,,,,,,,,,,,,1269.9183292000089,None,,,,,,,,,,,,,,,,,,,,,,community,A_silent,119,63,1265.0701620999607,None,1265.0701620999607,None,1265.0701620999607,None,5,3.870181899983436,1265.0701620999607,None,1268.9965956999804,None,1268.9965956999804,None,1269.5185653999797,None,1269.5185653999797,None,1269.5185653999797,None,f,0.36608210002304986,1269.5185653999797,None,sing40,001,2019_Nov_16_1457,ProdFawcett_Revision2019,3.2.3,60.02069513255612,
,,,,120,0,120,0,,,,,,,,,,,,,1273.0014266999788,None,,,,,,,,,,,,,,,,,,,,,,sight,D_new,120,286,1270.4402514999965,None,1270.4402514999965,None,1270.4402514999965,None,1,1.5243266000179574,1270.4402514999965,None,1272.012035999971,None,1272.012035999971,None,1272.539346799953,None,1272.539346799953,None,1272.539346799953,None,n,0.4169823999982327,1272.539346799953,None,sing40,001,2019_Nov_16_1457,ProdFawcett_Revision2019,3.2.3,60.02069513255612,
,,,,121,0,121,0,,,,,,,,,,,,,1277.3688922000001,None,,,,,,,,,,,,,,,,,,,,,,heavy,D_new,121,151,1273.523863599985,None,1273.523863599985,None,1273.523863599985,None,1,2.8406414999626577,1273.523863599985,None,1276.4205048999866,None,1276.4205048999866,None,1276.940474300005,None,1276.940474300005,None,1276.940474300005,None,n,0.392020599974785,1276.940474300005,None,sing40,001,2019_Nov_16_1457,ProdFawcett_Revision2019,3.2.3,60.02069513255612,
,,,,122,0,122,0,,,,,,,,,,,,,1282.3526418999536,None,,,,,,,,,,,,,,,,,,,,,,welcome,B_aloud,122,354,1277.8888649999863,None,1277.8888649999863,None,1277.8888649999863,None,6,1.7637512999936007,1277.8888649999863,None,1279.7010058999876,None,1279.7010058999876,None,1280.2197605999536,None,1280.2197605999536,None,1280.2197605999536,None,r,2.0968239999492653,1280.2197605999536,None,sing40,001,2019_Nov_16_1457,ProdFawcett_Revision2019,3.2.3,60.02069513255612,
,,,,123,0,123,0,,,,,,,,,,,,,1286.8192776999786,None,,,,,,,,,,,,,,,,,,,,,,right,D_new,123,265,1282.87546869996,None,1282.87546869996,None,1282.87546869996,None,3,2.657086499966681,1282.87546869996,None,1285.578055799997,None,1285.578055799997,None,1286.1056064000004,None,1286.1056064000004,None,1286.1056064000004,None,f,0.6829544000211172,1286.1056064000004,None,sing40,001,2019_Nov_16_1457,ProdFawcett_Revision2019,3.2.3,60.02069513255612,
,,,,124,0,124,0,,,,,,,,,,,,,1290.4855853999616,None,,,,,,,,,,,,,,,,,,,,,,staff,C_sing,124,301,1287.3369825999835,None,1287.3369825999835,None,1287.3369825999835,None,6,2.07535989995813,1287.3369825999835,None,1289.4641477999976,None,1289.4641477999976,None,1289.9843087999616,None,1289.9843087999616,None,1289.9843087999616,None,r,0.4601241999771446,1289.9843087999616,None,sing40,001,2019_Nov_16_1457,ProdFawcett_Revision2019,3.2.3,60.02069513255612,
,,,,125,0,125,0,,,,,,,,,,,,,1294.9700355000095,None,,,,,,,,,,,,,,,,,,,,,,people,C_sing,125,216,1291.0043389999773,None,1291.0043389999773,None,1291.0043389999773,None,5,2.7520393999875523,1291.0043389999773,None,1293.8006464999635,None,1293.8006464999635,None,1294.3209766999935,None,1294.3209766999935,None,1294.3209766999935,None,f,0.6115833999938332,1294.3209766999935,None,sing40,001,2019_Nov_16_1457,ProdFawcett_Revision2019,3.2.3,60.02069513255612,
,,,,126,0,126,0,,,,,,,,,,,,,1298.0034841999877,None,,,,,,,,,,,,,,,,,,,,,,revolution,D_new,126,264,1295.4937586999731,None,1295.4937586999731,None,1295.4937586999731,None,1,1.4146412999834865,1295.4937586999731,None,1296.9691508999676,None,1296.9691508999676,None,1297.4919114999939,None,1297.4919114999939,None,1297.4919114999939,None,n,0.472465300001204,1297.4919114999939,None,sing40,001,2019_Nov_16_1457,ProdFawcett_Revision2019,3.2.3,60.02069513255612,
,,,,127,0,127,0,,,,,,,,,,,,,1303.2084065999952,None,,,,,,,,,,,,,,,,,,,,,,working,D_new,127,357,1298.525705899985,None,1298.525705899985,None,1298.525705899985,None,5,3.726899500004947,1298.525705899985,None,1302.291080199997,None,1302.291080199997,None,1302.8205141999642,None,1302.8205141999642,None,1302.8205141999642,None,f,0.3676755999913439,1302.8205141999642,None,sing40,001,2019_Nov_16_1457,ProdFawcett_Revision2019,3.2.3,60.02069513255612,
,,,,128,0,128,0,,,,,,,,,,,,,1307.204301299993,None,,,,,,,,,,,,,,,,,,,,,,dozen,C_sing,128,102,1303.7440354999853,None,1303.7440354999853,None,1303.7440354999853,None,4,2.5164924999698997,1303.7440354999853,None,1306.3187988999998,None,1306.3187988999998,None,1306.8399919999647,None,1306.8399919999647,None,1306.8399919999647,None,f,0.324374700023327,1306.8399919999647,None,sing40,001,2019_Nov_16_1457,ProdFawcett_Revision2019,3.2.3,60.02069513255612,
,,,,129,0,129,0,,,,,,,,,,,,,1310.5543527999544,None,,,,,,,,,,,,,,,,,,,,,,beginning,D_new,129,19,1307.7296708999784,None,1307.7296708999784,None,1307.7296708999784,None,6,1.834674499987159,1307.7296708999784,None,1309.6231715999893,None,1309.6231715999893,None,1310.142670399975,None,1310.142670399975,None,1310.142670399975,None,r,0.3817694000317715,1310.142670399975,None,sing40,001,2019_Nov_16_1457,ProdFawcett_Revision2019,3.2.3,60.02069513255612,
,,,,130,0,130,0,,,,,,,,,,,,,1313.987537399982,None,,,,,,,,,,,,,,,,,,,,,,measure,D_new,130,184,1311.0713425999857,None,1311.0713425999857,None,1311.0713425999857,None,4,1.9731366999913007,1311.0713425999857,None,1313.0992948999628,None,1313.0992948999628,None,1313.6214298999985,None,1313.6214298999985,None,1313.6214298999985,None,f,0.33497790002729744,1313.6214298999985,None,sing40,001,2019_Nov_16_1457,ProdFawcett_Revision2019,3.2.3,60.02069513255612,
,,,,131,0,131,0,,,,,,,,,,,,,1317.625425199978,None,,,,,,,,,,,,,,,,,,,,,,author,D_new,131,15,1314.5059485000093,None,1314.5059485000093,None,1314.5059485000093,None,2,2.130273799994029,1314.5059485000093,None,1316.660659599991,None,1316.660659599991,None,1317.175490099995,None,1317.175490099995,None,1317.175490099995,None,n,0.42883039999287575,1317.175490099995,None,sing40,001,2019_Nov_16_1457,ProdFawcett_Revision2019,3.2.3,60.02069513255612,
,,,,132,0,132,0,,,,,,,,,,,,,1320.687186199997,None,,,,,,,,,,,,,,,,,,,,,,pancakes,D_new,132,210,1318.141458099999,None,1318.141458099999,None,1318.141458099999,None,1,1.2709718000260182,1318.141458099999,None,1319.465902499971,None,1319.465902499971,None,1319.9872818999575,None,1319.9872818999575,None,1319.9872818999575,None,n,0.657099699950777,1319.9872818999575,None,sing40,001,2019_Nov_16_1457,ProdFawcett_Revision2019,3.2.3,60.02069513255612,
,,,,133,0,133,0,,,,,,,,,,,,,1323.5898348999908,None,,,,,,,,,,,,,,,,,,,,,,smooth,A_silent,133,292,1321.2068124999641,None,1321.2068124999641,None,1321.2068124999641,None,1,1.349700299964752,1321.2068124999641,None,1322.597789499967,None,1322.597789499967,None,1323.130478499981,None,1323.130478499981,None,1323.130478499981,None,n,0.4179256000206806,1323.130478499981,None,sing40,001,2019_Nov_16_1457,ProdFawcett_Revision2019,3.2.3,60.02069513255612,
,,,,134,0,134,0,,,,,,,,,,,,,1330.0393755999976,None,,,,,,,,,,,,,,,,,,,,,,watch,D_new,134,351,1324.1103579999763,None,1324.1103579999763,None,1324.1103579999763,None,2,2.2622597999870777,1324.1103579999763,None,1326.4196453999612,None,1326.4196453999612,None,1326.9398597999825,None,1326.9398597999825,None,1326.9398597999825,None,n,3.0650243000127375,1326.9398597999825,None,sing40,001,2019_Nov_16_1457,ProdFawcett_Revision2019,3.2.3,60.02069513255612,
,,,,135,0,135,0,,,,,,,,,,,,,1333.7727741999552,None,,,,,,,,,,,,,,,,,,,,,,captain,A_silent,135,41,1330.556925199984,None,1330.556925199984,None,1330.556925199984,None,5,2.3755433000042103,1330.556925199984,None,1332.9846693999716,None,1332.9846693999716,None,1333.5042991999653,None,1333.5042991999653,None,1333.5042991999653,None,f,0.22807309997733682,1333.5042991999653,None,sing40,001,2019_Nov_16_1457,ProdFawcett_Revision2019,3.2.3,60.02069513255612,
,,,,136,0,136,0,,,,,,,,,,,,,1336.852417099988,None,,,,,,,,,,,,,,,,,,,,,,marriage,C_sing,136,179,1334.2930653999792,None,1334.2930653999792,None,1334.2930653999792,None,6,1.6553790000034496,1334.2930653999792,None,1336.0038109999732,None,1336.0038109999732,None,1336.527777499985,None,1336.527777499985,None,1336.527777499985,None,r,0.2844209999893792,1336.527777499985,None,sing40,001,2019_Nov_16_1457,ProdFawcett_Revision2019,3.2.3,60.02069513255612,
,,,,137,0,137,0,,,,,,,,,,,,,1342.0895247999579,None,,,,,,,,,,,,,,,,,,,,,,safety,D_new,137,270,1337.3737673999858,None,1337.3737673999858,None,1337.3737673999858,None,3,3.8706387999700382,1337.3737673999858,None,1341.3008126000059,None,1341.3008126000059,None,1341.8211280999822,None,1341.8211280999822,None,1341.8211280999822,None,f,0.2232854000176303,1341.8211280999822,None,sing40,001,2019_Nov_16_1457,ProdFawcett_Revision2019,3.2.3,60.02069513255612,
,,,,138,0,138,0,,,,,,,,,,,,,1344.9905697999639,None,,,,,,,,,,,,,,,,,,,,,,colonel,D_new,138,55,1342.607926799974,None,1342.607926799974,None,1342.607926799974,None,1,1.4044843000010587,1342.607926799974,None,1344.066600799968,None,1344.066600799968,None,1344.59099279996,None,1344.59099279996,None,1344.59099279996,None,n,0.36563290003687143,1344.59099279996,None,sing40,001,2019_Nov_16_1457,ProdFawcett_Revision2019,3.2.3,60.02069513255612,
,,,,139,0,139,0,,,,,,,,,,,,,1349.3903675999609,None,,,,,,,,,,,,,,,,,,,,,,waste,D_new,139,350,1345.5091668000096,None,1345.5091668000096,None,1345.5091668000096,None,2,3.047480799956247,1345.5091668000096,None,1348.6003680999856,None,1348.6003680999856,None,1349.1256277000066,None,1349.1256277000066,None,1349.1256277000066,None,f,0.23124900000402704,1349.1256277000066,None,sing40,001,2019_Nov_16_1457,ProdFawcett_Revision2019,3.2.3,60.02069513255612,
,,,,140,0,140,0,,,,,,,,,,,,,1352.4905322999693,None,,,,,,,,,,,,,,,,,,,,,,goose,D_new,140,138,1349.9122083999682,None,1349.9122083999682,None,1349.9122083999682,None,1,1.6924105999642052,1349.9122083999682,None,1351.6537430000026,None,1351.6537430000026,None,1352.1723568000016,None,1352.1723568000016,None,1352.1723568000016,None,n,0.28014149999944493,1352.1723568000016,None,sing40,001,2019_Nov_16_1457,ProdFawcett_Revision2019,3.2.3,60.02069513255612,
,,,,141,0,141,0,,,,,,,,,,,,,1356.1237111999653,None,,,,,,,,,,,,,,,,,,,,,,permit,D_new,141,218,1353.0076255999738,None,1353.0076255999738,None,1353.0076255999738,None,1,2.1569005000055768,1353.0076255999738,None,1355.2184514999972,None,1355.2184514999972,None,1355.740461499954,None,1355.740461499954,None,1355.740461499954,None,n,0.35211630002595484,1355.740461499954,None,sing40,001,2019_Nov_16_1457,ProdFawcett_Revision2019,3.2.3,60.02069513255612,
,,,,142,0,142,0,,,,,,,,,,,,,1359.0069712999975,None,,,,,,,,,,,,,,,,,,,,,,tennis,C_sing,142,323,1356.6412079999573,None,1356.6412079999573,None,1356.6412079999573,None,6,1.4591543999849819,1356.6412079999573,None,1358.1521353999851,None,1358.1521353999851,None,1358.6753054999863,None,1358.6753054999863,None,1358.6753054999863,None,r,0.2891462999978103,1358.6753054999863,None,sing40,001,2019_Nov_16_1457,ProdFawcett_Revision2019,3.2.3,60.02069513255612,
,,,,143,0,143,0,,,,,,,,,,,,,1361.9911058999714,None,,,,,,,,,,,,,,,,,,,,,,taste,D_new,143,322,1359.5258536000038,None,1359.5258536000038,None,1359.5258536000038,None,1,1.5425966000184417,1359.5258536000038,None,1361.119062499958,None,1361.119062499958,None,1361.6413772999658,None,1361.6413772999658,None,1361.6413772999658,None,n,0.31537560001015663,1361.6413772999658,None,sing40,001,2019_Nov_16_1457,ProdFawcett_Revision2019,3.2.3,60.02069513255612,
,,,,144,0,144,0,,,,,,,,,,,,,1364.9433840999845,None,,,,,,,,,,,,,,,,,,,,,,plane,B_aloud,144,223,1362.5105932999868,None,1362.5105932999868,None,1362.5105932999868,None,6,1.566009900008794,1362.5105932999868,None,1364.1189079000033,None,1364.1189079000033,None,1364.642456099973,None,1364.642456099973,None,1364.642456099973,None,r,0.2579540000297129,1364.642456099973,None,sing40,001,2019_Nov_16_1457,ProdFawcett_Revision2019,3.2.3,60.02069513255612,
,,,,145,0,145,0,,,,,,,,,,,,,1367.7416470999597,None,,,,,,,,,,,,,,,,,,,,,,conference,B_aloud,145,66,1365.4601889000041,None,1365.4601889000041,None,1365.4601889000041,None,6,1.376260099990759,1365.4601889000041,None,1366.8880991999758,None,1366.8880991999758,None,1367.4103893999709,None,1367.4103893999709,None,1367.4103893999709,None,r,0.298306800017599,1367.4103893999709,None,sing40,001,2019_Nov_16_1457,ProdFawcett_Revision2019,3.2.3,60.02069513255612,
,,,,146,0,146,0,,,,,,,,,,,,,1371.8414320999873,None,,,,,,,,,,,,,,,,,,,,,,course,B_aloud,146,74,1368.2604552999837,None,1368.2604552999837,None,1368.2604552999837,None,3,2.695984599995427,1368.2604552999837,None,1371.0030679999618,None,1371.0030679999618,None,1371.5233555999584,None,1371.5233555999584,None,1371.5233555999584,None,f,0.2729900000267662,1371.5233555999584,None,sing40,001,2019_Nov_16_1457,ProdFawcett_Revision2019,3.2.3,60.02069513255612,
,,,,147,0,147,0,,,,,,,,,,,,,1374.8763084999518,None,,,,,,,,,,,,,,,,,,,,,,south,A_silent,147,296,1372.3589128999738,None,1372.3589128999738,None,1372.3589128999738,None,1,1.4296209000167437,1372.3589128999738,None,1373.8314922999707,None,1373.8314922999707,None,1374.360819499998,None,1374.360819499998,None,1374.360819499998,None,n,0.475712499988731,1374.360819499998,None,sing40,001,2019_Nov_16_1457,ProdFawcett_Revision2019,3.2.3,60.02069513255612,
,,,,148,0,148,0,,,,,,,,,,,,,1378.7909198999987,None,,,,,,,,,,,,,,,,,,,,,,sound,C_sing,148,295,1375.3911715999711,None,1375.3911715999711,None,1375.3911715999711,None,2,2.1336800000281073,1375.3911715999711,None,1377.5702459999593,None,1377.5702459999593,None,1378.090018899995,None,1378.090018899995,None,1378.090018899995,None,f,0.658502500038594,1378.090018899995,None,sing40,001,2019_Nov_16_1457,ProdFawcett_Revision2019,3.2.3,60.02069513255612,
,,,,149,0,149,0,,,,,,,,,,,,,1381.6758371999604,None,,,,,,,,,,,,,,,,,,,,,,detective,C_sing,149,92,1379.30070849997,None,1379.30070849997,None,1379.30070849997,None,1,1.4637437999481335,1379.30070849997,None,1380.8217027999926,None,1380.8217027999926,None,1381.34825489996,None,1381.34825489996,None,1381.34825489996,None,n,0.2882212000549771,1381.34825489996,None,sing40,001,2019_Nov_16_1457,ProdFawcett_Revision2019,3.2.3,60.02069513255612,
,,,,150,0,150,0,,,,,,,,,,,,,1384.8761599999852,None,,,,,,,,,,,,,,,,,,,,,,quick,D_new,150,248,1382.196286499966,None,1382.196286499966,None,1382.196286499966,None,1,1.704192699980922,1382.196286499966,None,1383.955515299982,None,1383.955515299982,None,1384.478237000003,None,1384.478237000003,None,1384.478237000003,None,n,0.35823019995586947,1384.478237000003,None,sing40,001,2019_Nov_16_1457,ProdFawcett_Revision2019,3.2.3,60.02069513255612,
,,,,151,0,151,0,,,,,,,,,,,,,1388.8930480999989,None,,,,,,,,,,,,,,,,,,,,,,distance,B_aloud,151,100,1385.3981921999948,None,1385.3981921999948,None,1385.3981921999948,None,4,2.6223294000374153,1385.3981921999948,None,1388.0716156999697,None,1388.0716156999697,None,1388.5922213000013,None,1388.5922213000013,None,1388.5922213000013,None,f,0.26829199999338016,1388.5922213000013,None,sing40,001,2019_Nov_16_1457,ProdFawcett_Revision2019,3.2.3,60.02069513255612,
,,,,152,0,152,0,,,,,,,,,,,,,1391.8432145999977,None,,,,,,,,,,,,,,,,,,,,,,guide,C_sing,152,147,1389.4140498999623,None,1389.4140498999623,None,1389.4140498999623,None,1,1.4863740000291727,1389.4140498999623,None,1390.9558267999673,None,1390.9558267999673,None,1391.4738877000054,None,1391.4738877000054,None,1391.4738877000054,None,n,0.3306600999785587,1391.4738877000054,None,sing40,001,2019_Nov_16_1457,ProdFawcett_Revision2019,3.2.3,60.02069513255612,
,,,,153,0,153,0,,,,,,,,,,,,,1395.4945386999752,None,,,,,,,,,,,,,,,,,,,,,,drama,A_silent,153,103,1392.361307299987,None,1392.361307299987,None,1392.361307299987,None,1,2.355209000001196,1392.361307299987,None,1394.7686625999631,None,1394.7686625999631,None,1395.2939381999895,None,1395.2939381999895,None,1395.2939381999895,None,n,0.15841980004915968,1395.2939381999895,None,sing40,001,2019_Nov_16_1457,ProdFawcett_Revision2019,3.2.3,60.02069513255612,
