StudyTrials.thisRepN,StudyTrials.thisTrialN,StudyTrials.thisN,StudyTrials.thisIndex,TestTrials.thisRepN,TestTrials.thisTrialN,TestTrials.thisN,TestTrials.thisIndex,textWelcome.started,textWelcome.stopped,keyWelcome.keys,keyWelcome.rt,keyWelcome.started,keyWelcome.stopped,textReady.started,textReady.stopped,keyReady.keys,keyReady.rt,keyReady.started,keyReady.stopped,polyback_2.started,polyback_2.stopped,studyPic,studyWord,studyType,studyN,studyOrder,polyback_3.started,polyback_3.stopped,studyPicChoice.started,studyPicChoice.stopped,polyback_4.started,polyback_4.stopped,polyback.started,polyback.stopped,studyWords.started,studyWords.stopped,getResearcher.started,getResearcher.stopped,kPress2.keys,kPress2.rt,kPress2.started,kPress2.stopped,testWord,testType,testN,testOrder,polyback_5.started,polyback_5.stopped,testWords.started,testWords.stopped,textScale.started,textScale.stopped,keyConf.keys,keyConf.rt,keyConf.started,keyConf.stopped,polyback_6.started,polyback_6.stopped,studyWords_2.started,studyWords_2.stopped,polyback_7.started,polyback_7.stopped,testWords_2.started,testWords_2.stopped,textScale_2.started,textScale_2.stopped,keyRKN.keys,keyRKN.rt,keyRKN.started,keyRKN.stopped,participant,session,date,expName,psychopyVersion,frameRate,
,,,,,,,,15.386398581787944,None,space,2.57326211349573,15.386398581787944,None,,,,,,,,,,,,,,,,,,,,,,,,,,,,,,,,,,,,,,,,,,,,,,,,,,,,,,,,,,sing24,001,2019_Nov_07_1309,ProdFawcett_Revision2019,3.2.4,59.94597143601282,
,,,,,,,,,,,,,,17.986324252095073,None,space,13.61250139947515,17.986324252095073,None,,,,,,,,,,,,,,,,,,,,,,,,,,,,,,,,,,,,,,,,,,,,,,,,,,,,sing24,001,2019_Nov_07_1309,ProdFawcett_Revision2019,3.2.4,59.94597143601282,
0,0,0,0,,,,,,,,,,,,,,,,,36.40867263788823,None,materials/singPic.jpg,dozen,C_sing,0,102,32.7572796541499,None,32.7572796541499,None,33.65916309016757,None,33.92767991544679,None,33.92767991544679,None,,,,,,,,,,,,,,,,,,,,,,,,,,,,,,,,,,,sing24,001,2019_Nov_07_1309,ProdFawcett_Revision2019,3.2.4,59.94597143601282,
1,0,1,0,,,,,,,,,,,,,,,,,40.67680008709431,None,materials/speakPic.jpg,article,B_aloud,1,11,36.99684767064173,None,36.99684767064173,None,37.925854948116466,None,38.19250544253737,None,38.19250544253737,None,,,,,,,,,,,,,,,,,,,,,,,,,,,,,,,,,,,sing24,001,2019_Nov_07_1309,ProdFawcett_Revision2019,3.2.4,59.94597143601282,
2,0,2,0,,,,,,,,,,,,,,,,,44.944645456271246,None,materials/singPic.jpg,light,C_sing,2,171,41.29786713945214,None,41.29786713945214,None,42.19388256513048,None,42.46040026121773,None,42.46040026121773,None,,,,,,,,,,,,,,,,,,,,,,,,,,,,,,,,,,,sing24,001,2019_Nov_07_1309,ProdFawcett_Revision2019,3.2.4,59.94597143601282,
3,0,3,0,,,,,,,,,,,,,,,,,49.21276046521962,None,materials/readPic.jpg,benefit,A_silent,3,20,45.52926603227388,None,45.52926603227388,None,46.4631607264746,None,46.728403309127316,None,46.728403309127316,None,,,,,,,,,,,,,,,,,,,,,,,,,,,,,,,,,,,sing24,001,2019_Nov_07_1309,ProdFawcett_Revision2019,3.2.4,59.94597143601282,
4,0,4,0,,,,,,,,,,,,,,,,,53.480691049364395,None,materials/singPic.jpg,department,C_sing,4,90,49.83041550044436,None,49.83041550044436,None,50.729830503230914,None,50.979694594745524,None,50.979694594745524,None,,,,,,,,,,,,,,,,,,,,,,,,,,,,,,,,,,,sing24,001,2019_Nov_07_1309,ProdFawcett_Revision2019,3.2.4,59.94597143601282,
5,0,5,0,,,,,,,,,,,,,,,,,57.74860981525853,None,materials/readPic.jpg,grade,A_silent,5,140,54.05165111646056,None,54.05165111646056,None,54.99794364615809,None,55.264358089189045,None,55.264358089189045,None,,,,,,,,,,,,,,,,,,,,,,,,,,,,,,,,,,,sing24,001,2019_Nov_07_1309,ProdFawcett_Revision2019,3.2.4,59.94597143601282,
6,0,6,0,,,,,,,,,,,,,,,,,61.99993531126529,None,materials/readPic.jpg,threat,A_silent,6,329,58.2904752130853,None,58.2904752130853,None,59.26582198170945,None,59.532359582022764,None,59.532359582022764,None,,,,,,,,,,,,,,,,,,,,,,,,,,,,,,,,,,,sing24,001,2019_Nov_07_1309,ProdFawcett_Revision2019,3.2.4,59.94597143601282,
7,0,7,0,,,,,,,,,,,,,,,,,66.26791316783056,None,materials/speakPic.jpg,entrance,B_aloud,7,115,62.618068669573404,None,62.618068669573404,None,63.51819773588795,None,63.783717422396876,None,63.783717422396876,None,,,,,,,,,,,,,,,,,,,,,,,,,,,,,,,,,,,sing24,001,2019_Nov_07_1309,ProdFawcett_Revision2019,3.2.4,59.94597143601282,
8,0,8,0,,,,,,,,,,,,,,,,,70.53590222052298,None,materials/readPic.jpg,audience,A_silent,8,14,66.87683429743629,None,66.87683429743629,None,67.78555482986849,None,68.05171580519527,None,68.05171580519527,None,,,,,,,,,,,,,,,,,,,,,,,,,,,,,,,,,,,sing24,001,2019_Nov_07_1309,ProdFawcett_Revision2019,3.2.4,59.94597143601282,
9,0,9,0,,,,,,,,,,,,,,,,,74.80393512477167,None,materials/singPic.jpg,management,C_sing,9,177,71.15534707973711,None,71.15534707973711,None,72.05376189586241,None,72.30338309390936,None,72.30338309390936,None,,,,,,,,,,,,,,,,,,,,,,,,,,,,,,,,,,,sing24,001,2019_Nov_07_1309,ProdFawcett_Revision2019,3.2.4,59.94597143601282,
10,0,10,0,,,,,,,,,,,,,,,,,79.07180133112706,None,materials/singPic.jpg,beginning,C_sing,10,19,75.38712975056842,None,75.38712975056842,None,76.32162250415422,None,76.58779467560817,None,76.58779467560817,None,,,,,,,,,,,,,,,,,,,,,,,,,,,,,,,,,,,sing24,001,2019_Nov_07_1309,ProdFawcett_Revision2019,3.2.4,59.94597143601282,
11,0,11,0,,,,,,,,,,,,,,,,,83.33988679479808,None,materials/singPic.jpg,beauty,C_sing,11,18,79.65590937365778,None,79.65590937365778,None,80.58937923738267,None,80.85569229337852,None,80.85569229337852,None,,,,,,,,,,,,,,,,,,,,,,,,,,,,,,,,,,,sing24,001,2019_Nov_07_1309,ProdFawcett_Revision2019,3.2.4,59.94597143601282,
12,0,12,0,,,,,,,,,,,,,,,,,87.60786091932096,None,materials/readPic.jpg,career,A_silent,12,42,83.97723984578624,None,83.97723984578624,None,84.85739783546887,None,85.12366050877608,None,85.12366050877608,None,,,,,,,,,,,,,,,,,,,,,,,,,,,,,,,,,,,sing24,001,2019_Nov_07_1309,ProdFawcett_Revision2019,3.2.4,59.94597143601282,
13,0,13,0,,,,,,,,,,,,,,,,,91.87585277110338,None,materials/speakPic.jpg,couch,B_aloud,13,70,88.19880947936326,None,88.19880947936326,None,89.12540990230627,None,89.39165515953209,None,89.39165515953209,None,,,,,,,,,,,,,,,,,,,,,,,,,,,,,,,,,,,sing24,001,2019_Nov_07_1309,ProdFawcett_Revision2019,3.2.4,59.94597143601282,
14,0,14,0,,,,,,,,,,,,,,,,,96.14363220753148,None,materials/readPic.jpg,commercial,A_silent,14,61,92.47674503945746,None,92.47674503945746,None,93.39363407355268,None,93.65962368599139,None,93.65962368599139,None,,,,,,,,,,,,,,,,,,,,,,,,,,,,,,,,,,,sing24,001,2019_Nov_07_1309,ProdFawcett_Revision2019,3.2.4,59.94597143601282,
15,0,15,0,,,,,,,,,,,,,,,,,100.4116772407433,None,materials/readPic.jpg,carry,A_silent,15,43,96.7305280836299,None,96.7305280836299,None,97.66086645517498,None,97.92764290596824,None,97.92764290596824,None,,,,,,,,,,,,,,,,,,,,,,,,,,,,,,,,,,,sing24,001,2019_Nov_07_1309,ProdFawcett_Revision2019,3.2.4,59.94597143601282,
16,0,16,0,,,,,,,,,,,,,,,,,104.67982179508545,None,materials/readPic.jpg,brilliant,A_silent,16,30,100.95329663495068,None,100.95329663495068,None,101.92953349510208,None,102.19561143254396,None,102.19561143254396,None,,,,,,,,,,,,,,,,,,,,,,,,,,,,,,,,,,,sing24,001,2019_Nov_07_1309,ProdFawcett_Revision2019,3.2.4,59.94597143601282,
17,0,17,0,,,,,,,,,,,,,,,,,108.947795608663,None,materials/speakPic.jpg,space,B_aloud,17,297,105.29783541709185,None,105.29783541709185,None,106.19764912605751,None,106.463610437233,None,106.463610437233,None,,,,,,,,,,,,,,,,,,,,,,,,,,,,,,,,,,,sing24,001,2019_Nov_07_1309,ProdFawcett_Revision2019,3.2.4,59.94597143601282,
18,0,18,0,,,,,,,,,,,,,,,,,113.21579865645617,None,materials/speakPic.jpg,device,B_aloud,18,93,109.48645331838634,None,109.48645331838634,None,110.46636281639803,None,110.73158611683175,None,110.73158611683175,None,,,,,,,,,,,,,,,,,,,,,,,,,,,,,,,,,,,sing24,001,2019_Nov_07_1309,ProdFawcett_Revision2019,3.2.4,59.94597143601282,
19,0,19,0,,,,,,,,,,,,,,,,,117.484014430549,None,materials/speakPic.jpg,industry,B_aloud,19,161,113.79913136782125,None,113.79913136782125,None,114.73285407724325,None,114.99955277726986,None,114.99955277726986,None,,,,,,,,,,,,,,,,,,,,,,,,,,,,,,,,,,,sing24,001,2019_Nov_07_1309,ProdFawcett_Revision2019,3.2.4,59.94597143601282,
20,0,20,0,,,,,,,,,,,,,,,,,121.75176898681093,None,materials/readPic.jpg,judge,A_silent,20,166,118.11818374076393,None,118.11818374076393,None,119.00136996957008,None,119.26757324126083,None,119.26757324126083,None,,,,,,,,,,,,,,,,,,,,,,,,,,,,,,,,,,,sing24,001,2019_Nov_07_1309,ProdFawcett_Revision2019,3.2.4,59.94597143601282,
21,0,21,0,,,,,,,,,,,,,,,,,126.0197468433762,None,materials/speakPic.jpg,sound,B_aloud,21,295,122.34071810659952,None,122.34071810659952,None,123.26940318464767,None,123.5355346146971,None,123.5355346146971,None,,,,,,,,,,,,,,,,,,,,,,,,,,,,,,,,,,,sing24,001,2019_Nov_07_1309,ProdFawcett_Revision2019,3.2.4,59.94597143601282,
22,0,22,0,,,,,,,,,,,,,,,,,130.28784536919557,None,materials/singPic.jpg,surface,C_sing,22,316,126.64532810845412,None,126.64532810845412,None,127.5369627418695,None,127.80352211231366,None,127.80352211231366,None,,,,,,,,,,,,,,,,,,,,,,,,,,,,,,,,,,,sing24,001,2019_Nov_07_1309,ProdFawcett_Revision2019,3.2.4,59.94597143601282,
23,0,23,0,,,,,,,,,,,,,,,,,134.55597686138935,None,materials/singPic.jpg,harmony,C_sing,23,148,130.83845151460264,None,130.83845151460264,None,131.80669061397202,None,132.07152795919683,None,132.07152795919683,None,,,,,,,,,,,,,,,,,,,,,,,,,,,,,,,,,,,sing24,001,2019_Nov_07_1309,ProdFawcett_Revision2019,3.2.4,59.94597143601282,
24,0,24,0,,,,,,,,,,,,,,,,,138.82372364250477,None,materials/singPic.jpg,silence,C_sing,24,288,135.12438203650527,None,135.12438203650527,None,136.0733448404353,None,136.32766934134997,None,136.32766934134997,None,,,,,,,,,,,,,,,,,,,,,,,,,,,,,,,,,,,sing24,001,2019_Nov_07_1309,ProdFawcett_Revision2019,3.2.4,59.94597143601282,
25,0,25,0,,,,,,,,,,,,,,,,,143.09172948938794,None,materials/singPic.jpg,engineer,C_sing,25,114,139.4069661628455,None,139.4069661628455,None,140.34160913107917,None,140.59361230325885,None,140.59361230325885,None,,,,,,,,,,,,,,,,,,,,,,,,,,,,,,,,,,,sing24,001,2019_Nov_07_1309,ProdFawcett_Revision2019,3.2.4,59.94597143601282,
26,0,26,0,,,,,,,,,,,,,,,,,147.35967997764237,None,materials/speakPic.jpg,course,B_aloud,26,74,143.7162776015466,None,143.7162776015466,None,144.6095201219432,None,144.8754805000499,None,144.8754805000499,None,,,,,,,,,,,,,,,,,,,,,,,,,,,,,,,,,,,sing24,001,2019_Nov_07_1309,ProdFawcett_Revision2019,3.2.4,59.94597143601282,
27,0,27,0,,,,,,,,,,,,,,,,,151.62788673257455,None,materials/singPic.jpg,report,C_sing,27,259,148.01142097404227,None,148.01142097404227,None,148.87665515951812,None,149.14351247122977,None,149.14351247122977,None,,,,,,,,,,,,,,,,,,,,,,,,,,,,,,,,,,,sing24,001,2019_Nov_07_1309,ProdFawcett_Revision2019,3.2.4,59.94597143601282,
28,0,28,0,,,,,,,,,,,,,,,,,155.8960362629732,None,materials/readPic.jpg,childhood,A_silent,28,49,152.2462010947056,None,152.2462010947056,None,153.14573832182214,None,153.41145269642584,None,153.41145269642584,None,,,,,,,,,,,,,,,,,,,,,,,,,,,,,,,,,,,sing24,001,2019_Nov_07_1309,ProdFawcett_Revision2019,3.2.4,59.94597143601282,
29,0,29,0,,,,,,,,,,,,,,,,,160.1636872551171,None,materials/readPic.jpg,second,A_silent,29,278,156.48147415567655,None,156.48147415567655,None,157.41353144240566,None,157.67937208432704,None,157.67937208432704,None,,,,,,,,,,,,,,,,,,,,,,,,,,,,,,,,,,,sing24,001,2019_Nov_07_1309,ProdFawcett_Revision2019,3.2.4,59.94597143601282,
30,0,30,0,,,,,,,,,,,,,,,,,164.4316837718943,None,materials/singPic.jpg,owner,C_sing,30,208,160.77264632703736,None,160.77264632703736,None,161.68082073773257,None,161.94744604092557,None,161.94744604092557,None,,,,,,,,,,,,,,,,,,,,,,,,,,,,,,,,,,,sing24,001,2019_Nov_07_1309,ProdFawcett_Revision2019,3.2.4,59.94597143601282,
31,0,31,0,,,,,,,,,,,,,,,,,168.69964607828297,None,materials/speakPic.jpg,research,B_aloud,31,261,165.00570691050962,None,165.00570691050962,None,165.9497679915512,None,166.2154369596392,None,166.2154369596392,None,,,,,,,,,,,,,,,,,,,,,,,,,,,,,,,,,,,sing24,001,2019_Nov_07_1309,ProdFawcett_Revision2019,3.2.4,59.94597143601282,
32,0,32,0,,,,,,,,,,,,,,,,,172.96763264294714,None,materials/singPic.jpg,speech,C_sing,32,298,169.30361914541572,None,169.30361914541572,None,170.21687659388408,None,170.48340051004197,None,170.48340051004197,None,,,,,,,,,,,,,,,,,,,,,,,,,,,,,,,,,,,sing24,001,2019_Nov_07_1309,ProdFawcett_Revision2019,3.2.4,59.94597143601282,
33,0,33,0,,,,,,,,,,,,,,,,,177.2356164085213,None,materials/speakPic.jpg,under,B_aloud,33,343,173.52535765385255,None,173.52535765385255,None,174.48578186228406,None,174.7514020028757,None,174.7514020028757,None,,,,,,,,,,,,,,,,,,,,,,,,,,,,,,,,,,,sing24,001,2019_Nov_07_1309,ProdFawcett_Revision2019,3.2.4,59.94597143601282,
34,0,34,0,,,,,,,,,,,,,,,,,181.50363376247697,None,materials/speakPic.jpg,thing,B_aloud,34,328,177.8091375879012,None,177.8091375879012,None,178.75324096530676,None,179.0193916775752,None,179.0193916775752,None,,,,,,,,,,,,,,,,,,,,,,,,,,,,,,,,,,,sing24,001,2019_Nov_07_1309,ProdFawcett_Revision2019,3.2.4,59.94597143601282,
35,0,35,0,,,,,,,,,,,,,,,,,185.77146886859555,None,materials/speakPic.jpg,rapid,B_aloud,35,252,182.0711494681891,None,182.0711494681891,None,183.02062076260336,None,183.28737326618284,None,183.28737326618284,None,,,,,,,,,,,,,,,,,,,,,,,,,,,,,,,,,,,sing24,001,2019_Nov_07_1309,ProdFawcett_Revision2019,3.2.4,59.94597143601282,
36,0,36,0,,,,,,,,,,,,,,,,,190.03988244081847,None,materials/readPic.jpg,death,A_silent,36,86,186.3562760464847,None,186.3562760464847,None,187.28861541335937,None,187.55543851468246,None,187.55543851468246,None,,,,,,,,,,,,,,,,,,,,,,,,,,,,,,,,,,,sing24,001,2019_Nov_07_1309,ProdFawcett_Revision2019,3.2.4,59.94597143601282,
37,0,37,0,,,,,,,,,,,,,,,,,194.30756702122744,None,materials/speakPic.jpg,birth,B_aloud,37,22,190.64178515889216,None,190.64178515889216,None,191.55727872112766,None,191.8233485724777,None,191.8233485724777,None,,,,,,,,,,,,,,,,,,,,,,,,,,,,,,,,,,,sing24,001,2019_Nov_07_1309,ProdFawcett_Revision2019,3.2.4,59.94597143601282,
38,0,38,0,,,,,,,,,,,,,,,,,198.57557535613887,None,materials/speakPic.jpg,suggestion,B_aloud,38,314,194.87837562977802,None,194.87837562977802,None,195.82489270390943,None,196.0913382471772,None,196.0913382471772,None,,,,,,,,,,,,,,,,,,,,,,,,,,,,,,,,,,,sing24,001,2019_Nov_07_1309,ProdFawcett_Revision2019,3.2.4,59.94597143601282,
39,0,39,0,,,,,,,,,,,,,,,,,202.8435364185134,None,materials/speakPic.jpg,state,B_aloud,39,303,199.14471574302297,None,199.14471574302297,None,200.09321950608864,None,200.34668563783634,None,200.34668563783634,None,,,,,,,,,,,,,,,,,,,,,,,,,,,,,,,,,,,sing24,001,2019_Nov_07_1309,ProdFawcett_Revision2019,3.2.4,59.94597143601282,
40,0,40,0,,,,,,,,,,,,,,,,,207.11154661944602,None,materials/speakPic.jpg,trail,B_aloud,40,336,203.42673011135776,None,203.42673011135776,None,204.36176494369283,None,204.62731852952857,None,204.62731852952857,None,,,,,,,,,,,,,,,,,,,,,,,,,,,,,,,,,,,sing24,001,2019_Nov_07_1309,ProdFawcett_Revision2019,3.2.4,59.94597143601282,
41,0,41,0,,,,,,,,,,,,,,,,,211.37944485910702,None,materials/readPic.jpg,blind,A_silent,41,24,207.71428127144463,None,207.71428127144463,None,208.62857747089583,None,208.88268924551085,None,208.88268924551085,None,,,,,,,,,,,,,,,,,,,,,,,,,,,,,,,,,,,sing24,001,2019_Nov_07_1309,ProdFawcett_Revision2019,3.2.4,59.94597143601282,
42,0,42,0,,,,,,,,,,,,,,,,,215.64741836162284,None,materials/singPic.jpg,finance,C_sing,42,129,211.98561982961837,None,211.98561982961837,None,212.896619083127,None,213.16324158734642,None,213.16324158734642,None,,,,,,,,,,,,,,,,,,,,,,,,,,,,,,,,,,,sing24,001,2019_Nov_07_1309,ProdFawcett_Revision2019,3.2.4,59.94597143601282,
43,0,43,0,,,,,,,,,,,,,,,,,219.91544473473914,None,materials/singPic.jpg,congress,C_sing,43,67,216.21419823355973,None,216.21419823355973,None,217.1650681097526,None,217.41618989862036,None,217.41618989862036,None,,,,,,,,,,,,,,,,,,,,,,,,,,,,,,,,,,,sing24,001,2019_Nov_07_1309,ProdFawcett_Revision2019,3.2.4,59.94597143601282,
44,0,44,0,,,,,,,,,,,,,,,,,224.18348074890673,None,materials/singPic.jpg,heavy,C_sing,44,151,220.50613485102076,None,220.50613485102076,None,221.43260185362305,None,221.6992489270633,None,221.6992489270633,None,,,,,,,,,,,,,,,,,,,,,,,,,,,,,,,,,,,sing24,001,2019_Nov_07_1309,ProdFawcett_Revision2019,3.2.4,59.94597143601282,
45,0,45,0,,,,,,,,,,,,,,,,,228.45132487406954,None,materials/speakPic.jpg,material,B_aloud,45,182,224.77439012250397,None,224.77439012250397,None,225.70052870560903,None,225.96727312309667,None,225.96727312309667,None,,,,,,,,,,,,,,,,,,,,,,,,,,,,,,,,,,,sing24,001,2019_Nov_07_1309,ProdFawcett_Revision2019,3.2.4,59.94597143601282,
46,0,46,0,,,,,,,,,,,,,,,,,232.71956366242375,None,materials/readPic.jpg,majority,A_silent,46,176,229.0699577035848,None,229.0699577035848,None,229.96936648630071,None,230.23546028486453,None,230.23546028486453,None,,,,,,,,,,,,,,,,,,,,,,,,,,,,,,,,,,,sing24,001,2019_Nov_07_1309,ProdFawcett_Revision2019,3.2.4,59.94597143601282,
47,0,47,0,,,,,,,,,,,,,,,,,236.98735584993847,None,materials/singPic.jpg,whole,C_sing,47,355,233.32480220193975,None,233.32480220193975,None,234.23654475342482,None,234.5036785469856,None,234.5036785469856,None,,,,,,,,,,,,,,,,,,,,,,,,,,,,,,,,,,,sing24,001,2019_Nov_07_1309,ProdFawcett_Revision2019,3.2.4,59.94597143601282,
48,0,48,0,,,,,,,,,,,,,,,,,241.25543540460058,None,materials/speakPic.jpg,mankind,B_aloud,48,178,237.57300055981614,None,237.57300055981614,None,238.50495086144656,None,238.76183460850734,None,238.76183460850734,None,,,,,,,,,,,,,,,,,,,,,,,,,,,,,,,,,,,sing24,001,2019_Nov_07_1309,ProdFawcett_Revision2019,3.2.4,59.94597143601282,
49,0,49,0,,,,,,,,,,,,,,,,,245.52355196862482,None,materials/readPic.jpg,count,A_silent,49,72,241.89011165022384,None,241.89011165022384,None,242.77253871993162,None,243.03921564971097,None,243.03921564971097,None,,,,,,,,,,,,,,,,,,,,,,,,,,,,,,,,,,,sing24,001,2019_Nov_07_1309,ProdFawcett_Revision2019,3.2.4,59.94597143601282,
50,0,50,0,,,,,,,,,,,,,,,,,249.79144429927692,None,materials/readPic.jpg,author,A_silent,50,15,246.06361821235623,None,246.06361821235623,None,247.0413223860087,None,247.3071959943045,None,247.3071959943045,None,,,,,,,,,,,,,,,,,,,,,,,,,,,,,,,,,,,sing24,001,2019_Nov_07_1309,ProdFawcett_Revision2019,3.2.4,59.94597143601282,
51,0,51,0,,,,,,,,,,,,,,,,,254.05940940475557,None,materials/readPic.jpg,quiet,A_silent,51,249,250.3745947626885,None,250.3745947626885,None,251.3084745288361,None,251.5620296074776,None,251.5620296074776,None,,,,,,,,,,,,,,,,,,,,,,,,,,,,,,,,,,,sing24,001,2019_Nov_07_1309,ProdFawcett_Revision2019,3.2.4,59.94597143601282,
52,0,52,0,,,,,,,,,,,,,,,,,258.3273869502591,None,materials/singPic.jpg,front,C_sing,52,134,254.71812402817886,None,254.71812402817886,None,255.57650556694716,None,255.84340393112507,None,255.84340393112507,None,,,,,,,,,,,,,,,,,,,,,,,,,,,,,,,,,,,sing24,001,2019_Nov_07_1309,ProdFawcett_Revision2019,3.2.4,59.94597143601282,
53,0,53,0,,,,,,,,,,,,,,,,,262.59541207936127,None,materials/readPic.jpg,business,A_silent,53,38,258.93086490011774,None,258.93086490011774,None,259.84469490579795,None,260.11116004234646,None,260.11116004234646,None,,,,,,,,,,,,,,,,,,,,,,,,,,,,,,,,,,,sing24,001,2019_Nov_07_1309,ProdFawcett_Revision2019,3.2.4,59.94597143601282,
54,0,54,0,,,,,,,,,,,,,,,,,266.8634452945553,None,materials/readPic.jpg,corner,A_silent,54,69,263.1785948871402,None,263.1785948871402,None,264.112806804711,None,264.3791394538712,None,264.3791394538712,None,,,,,,,,,,,,,,,,,,,,,,,,,,,,,,,,,,,sing24,001,2019_Nov_07_1309,ProdFawcett_Revision2019,3.2.4,59.94597143601282,
55,0,55,0,,,,,,,,,,,,,,,,,271.13134913227987,None,materials/readPic.jpg,subject,A_silent,55,312,267.4465515954653,None,267.4465515954653,None,268.38050444738474,None,268.6471179324435,None,268.6471179324435,None,,,,,,,,,,,,,,,,,,,,,,,,,,,,,,,,,,,sing24,001,2019_Nov_07_1309,ProdFawcett_Revision2019,3.2.4,59.94597143601282,
56,0,56,0,,,,,,,,,,,,,,,,,275.3993288548663,None,materials/speakPic.jpg,express,B_aloud,56,124,271.7560278659221,None,271.7560278659221,None,272.6492809604388,None,272.91511102824006,None,272.91511102824006,None,,,,,,,,,,,,,,,,,,,,,,,,,,,,,,,,,,,sing24,001,2019_Nov_07_1309,ProdFawcett_Revision2019,3.2.4,59.94597143601282,
57,0,57,0,,,,,,,,,,,,,,,,,279.6671474777395,None,materials/readPic.jpg,chief,A_silent,57,48,276.00065870501567,None,276.00065870501567,None,276.91666635568254,None,277.1831168750068,None,277.1831168750068,None,,,,,,,,,,,,,,,,,,,,,,,,,,,,,,,,,,,sing24,001,2019_Nov_07_1309,ProdFawcett_Revision2019,3.2.4,59.94597143601282,
58,0,58,0,,,,,,,,,,,,,,,,,283.9356170305982,None,materials/speakPic.jpg,voice,B_aloud,58,348,280.23545748589095,None,280.23545748589095,None,281.1853918641573,None,281.4510950426338,None,281.4510950426338,None,,,,,,,,,,,,,,,,,,,,,,,,,,,,,,,,,,,sing24,001,2019_Nov_07_1309,ProdFawcett_Revision2019,3.2.4,59.94597143601282,
59,0,59,0,,,,,,,,,,,,,,,,,288.20332555822097,None,materials/speakPic.jpg,symbol,B_aloud,59,321,284.5188331155805,None,284.5188331155805,None,285.4530170429498,None,285.71909280342516,None,285.71909280342516,None,,,,,,,,,,,,,,,,,,,,,,,,,,,,,,,,,,,sing24,001,2019_Nov_07_1309,ProdFawcett_Revision2019,3.2.4,59.94597143601282,
60,0,60,0,,,,,,,,,,,,,,,,,292.4711668844102,None,materials/singPic.jpg,measure,C_sing,60,184,288.8648261491908,None,288.8648261491908,None,289.72050040436443,None,289.98707688006107,None,289.98707688006107,None,,,,,,,,,,,,,,,,,,,,,,,,,,,,,,,,,,,sing24,001,2019_Nov_07_1309,ProdFawcett_Revision2019,3.2.4,59.94597143601282,
61,0,61,0,,,,,,,,,,,,,,,,,296.7392607451184,None,materials/readPic.jpg,account,A_silent,61,1,293.0902516016504,None,293.0902516016504,None,293.9897474653553,None,294.2550836598966,None,294.2550836598966,None,,,,,,,,,,,,,,,,,,,,,,,,,,,,,,,,,,,sing24,001,2019_Nov_07_1309,ProdFawcett_Revision2019,3.2.4,59.94597143601282,
62,0,62,0,,,,,,,,,,,,,,,,,301.0073085774202,None,materials/readPic.jpg,welcome,A_silent,62,354,297.2893848355161,None,297.2893848355161,None,298.2564390122425,None,298.5235258443281,None,298.5235258443281,None,,,,,,,,,,,,,,,,,,,,,,,,,,,,,,,,,,,sing24,001,2019_Nov_07_1309,ProdFawcett_Revision2019,3.2.4,59.94597143601282,
63,0,63,0,,,,,,,,,,,,,,,,,305.2752512906445,None,materials/readPic.jpg,force,A_silent,63,131,301.5904985383386,None,301.5904985383386,None,302.5260387510061,None,302.7910934876418,None,302.7910934876418,None,,,,,,,,,,,,,,,,,,,,,,,,,,,,,,,,,,,sing24,001,2019_Nov_07_1309,ProdFawcett_Revision2019,3.2.4,59.94597143601282,
64,0,64,0,,,,,,,,,,,,,,,,,309.54322976921685,None,materials/speakPic.jpg,interior,B_aloud,64,164,305.8949561485788,None,305.8949561485788,None,306.792423337698,None,307.0594373950735,None,307.0594373950735,None,,,,,,,,,,,,,,,,,,,,,,,,,,,,,,,,,,,sing24,001,2019_Nov_07_1309,ProdFawcett_Revision2019,3.2.4,59.94597143601282,
65,0,65,0,,,,,,,,,,,,,,,,,313.81126018532086,None,materials/singPic.jpg,object,C_sing,65,204,310.16099832055625,None,310.16099832055625,None,311.06042047648225,None,311.32726503699087,None,311.32726503699087,None,,,,,,,,,,,,,,,,,,,,,,,,,,,,,,,,,,,sing24,001,2019_Nov_07_1309,ProdFawcett_Revision2019,3.2.4,59.94597143601282,
66,0,66,0,,,,,,,,,,,,,,,,,318.07922840083484,None,materials/singPic.jpg,prime,C_sing,66,235,314.41109504259657,None,314.41109504259657,None,315.3283964670263,None,315.5950255022617,None,315.5950255022617,None,,,,,,,,,,,,,,,,,,,,,,,,,,,,,,,,,,,sing24,001,2019_Nov_07_1309,ProdFawcett_Revision2019,3.2.4,59.94597143601282,
67,0,67,0,,,,,,,,,,,,,,,,,322.3472218075767,None,materials/readPic.jpg,fashion,A_silent,67,125,318.6973095104331,None,318.6973095104331,None,319.59640977799427,None,319.8504979163408,None,319.8504979163408,None,,,,,,,,,,,,,,,,,,,,,,,,,,,,,,,,,,,sing24,001,2019_Nov_07_1309,ProdFawcett_Revision2019,3.2.4,59.94597143601282,
68,0,68,0,,,,,,,,,,,,,,,,,326.6150522485841,None,materials/speakPic.jpg,election,B_aloud,68,109,322.92167288670316,None,322.92167288670316,None,323.86486937862355,None,324.13102071278263,None,324.13102071278263,None,,,,,,,,,,,,,,,,,,,,,,,,,,,,,,,,,,,sing24,001,2019_Nov_07_1309,ProdFawcett_Revision2019,3.2.4,59.94597143601282,
69,0,69,0,,,,,,,,,,,,,,,,,330.88346986379474,None,materials/speakPic.jpg,employment,B_aloud,69,111,327.1869978852337,None,327.1869978852337,None,328.132493935409,None,328.38221061148215,None,328.38221061148215,None,,,,,,,,,,,,,,,,,,,,,,,,,,,,,,,,,,,sing24,001,2019_Nov_07_1309,ProdFawcett_Revision2019,3.2.4,59.94597143601282,
70,0,70,0,,,,,,,,,,,,,,,,,335.1511815015692,None,materials/singPic.jpg,education,C_sing,70,108,331.5009302109247,None,331.5009302109247,None,332.4002183242701,None,332.6669465696905,None,332.6669465696905,None,,,,,,,,,,,,,,,,,,,,,,,,,,,,,,,,,,,sing24,001,2019_Nov_07_1309,ProdFawcett_Revision2019,3.2.4,59.94597143601282,
71,0,71,0,,,,,,,,,,,,,,,,,339.41914754000027,None,materials/speakPic.jpg,household,B_aloud,71,154,335.7429498662241,None,335.7429498662241,None,336.6690144306049,None,336.93494868441485,None,336.93494868441485,None,,,,,,,,,,,,,,,,,,,,,,,,,,,,,,,,,,,sing24,001,2019_Nov_07_1309,ProdFawcett_Revision2019,3.2.4,59.94597143601282,
72,0,72,0,,,,,,,,,,,,,,,,,343.687156185857,None,materials/speakPic.jpg,appeal,B_aloud,72,9,339.98894383281004,None,339.98894383281004,None,340.93637774465606,None,341.20292311999947,None,341.20292311999947,None,,,,,,,,,,,,,,,,,,,,,,,,,,,,,,,,,,,sing24,001,2019_Nov_07_1309,ProdFawcett_Revision2019,3.2.4,59.94597143601282,
73,0,73,0,,,,,,,,,,,,,,,,,347.9551020091167,None,materials/readPic.jpg,center,A_silent,73,44,344.27161286305636,None,344.27161286305636,None,345.20457703550346,None,345.47093083290383,None,345.47093083290383,None,,,,,,,,,,,,,,,,,,,,,,,,,,,,,,,,,,,sing24,001,2019_Nov_07_1309,ProdFawcett_Revision2019,3.2.4,59.94597143601282,
74,0,74,0,,,,,,,,,,,,,,,,,352.2231249611359,None,materials/singPic.jpg,debate,C_sing,74,87,348.57362785341684,None,348.57362785341684,None,349.47238041926175,None,349.7256403558422,None,349.7256403558422,None,,,,,,,,,,,,,,,,,,,,,,,,,,,,,,,,,,,sing24,001,2019_Nov_07_1309,ProdFawcett_Revision2019,3.2.4,59.94597143601282,
75,0,75,0,,,,,,,,,,,,,,,,,356.4911165018566,None,materials/speakPic.jpg,crime,B_aloud,75,78,352.8467832929455,None,352.8467832929455,None,353.74035858677235,None,354.00673291040584,None,354.00673291040584,None,,,,,,,,,,,,,,,,,,,,,,,,,,,,,,,,,,,sing24,001,2019_Nov_07_1309,ProdFawcett_Revision2019,3.2.4,59.94597143601282,
76,0,76,0,,,,,,,,,,,,,,,,,360.75945792126004,None,materials/speakPic.jpg,drama,B_aloud,76,103,357.06018007092644,None,357.06018007092644,None,358.00908440630883,None,358.27489083784167,None,358.27489083784167,None,,,,,,,,,,,,,,,,,,,,,,,,,,,,,,,,,,,sing24,001,2019_Nov_07_1309,ProdFawcett_Revision2019,3.2.4,59.94597143601282,
77,0,77,0,,,,,,,,,,,,,,,,,365.0270507558016,None,materials/singPic.jpg,production,C_sing,77,240,361.3775698202662,None,361.3775698202662,None,362.27633607015014,None,362.54290539282374,None,362.54290539282374,None,,,,,,,,,,,,,,,,,,,,,,,,,,,,,,,,,,,sing24,001,2019_Nov_07_1309,ProdFawcett_Revision2019,3.2.4,59.94597143601282,
78,0,78,0,,,,,,,,,,,,,,,,,369.29506810975727,None,materials/singPic.jpg,mayor,C_sing,78,183,365.5936695279088,None,365.5936695279088,None,366.54454002610873,None,366.8108406419633,None,366.8108406419633,None,,,,,,,,,,,,,,,,,,,,,,,,,,,,,,,,,,,sing24,001,2019_Nov_07_1309,ProdFawcett_Revision2019,3.2.4,59.94597143601282,
79,0,79,0,,,,,,,,,,,,,,,,,373.5630717795575,None,materials/singPic.jpg,accident,C_sing,79,0,369.87833457731176,None,369.87833457731176,None,370.81201374635566,None,371.07888691918924,None,371.07888691918924,None,,,,,,,,,,,,,,,,,,,,,,,,,,,,,,,,,,,sing24,001,2019_Nov_07_1309,ProdFawcett_Revision2019,3.2.4,59.94597143601282,
80,0,80,0,,,,,,,,,,,,,,,,,377.8310487031704,None,materials/singPic.jpg,angle,C_sing,80,7,374.1385892890394,None,374.1385892890394,None,375.08046277286485,None,375.3327918766299,None,375.3327918766299,None,,,,,,,,,,,,,,,,,,,,,,,,,,,,,,,,,,,sing24,001,2019_Nov_07_1309,ProdFawcett_Revision2019,3.2.4,59.94597143601282,
81,0,81,0,,,,,,,,,,,,,,,,,382.09904864092823,None,materials/readPic.jpg,hunger,A_silent,81,155,378.4674171176739,None,378.4674171176739,None,379.3500258133281,None,379.6054366485914,None,379.6054366485914,None,,,,,,,,,,,,,,,,,,,,,,,,,,,,,,,,,,,sing24,001,2019_Nov_07_1309,ProdFawcett_Revision2019,3.2.4,59.94597143601282,
82,0,82,0,,,,,,,,,,,,,,,,,386.3670227654511,None,materials/readPic.jpg,tennis,A_silent,82,323,382.671179946512,None,382.671179946512,None,383.61624619027134,None,383.8828550102189,None,383.8828550102189,None,,,,,,,,,,,,,,,,,,,,,,,,,,,,,,,,,,,sing24,001,2019_Nov_07_1309,ProdFawcett_Revision2019,3.2.4,59.94597143601282,
83,0,83,0,,,,,,,,,,,,,,,,,390.635013373103,None,materials/singPic.jpg,society,C_sing,83,293,386.985138707445,None,386.985138707445,None,387.8845328730531,None,388.1508418859448,None,388.1508418859448,None,,,,,,,,,,,,,,,,,,,,,,,,,,,,,,,,,,,sing24,001,2019_Nov_07_1309,ProdFawcett_Revision2019,3.2.4,59.94597143601282,
84,0,84,0,,,,,,,,,,,,,,,,,394.9029878086876,None,materials/speakPic.jpg,still,B_aloud,84,304,391.21999502391554,None,391.21999502391554,None,392.1524898924399,None,392.40537724702153,None,392.40537724702153,None,,,,,,,,,,,,,,,,,,,,,,,,,,,,,,,,,,,sing24,001,2019_Nov_07_1309,ProdFawcett_Revision2019,3.2.4,59.94597143601282,
85,0,85,0,,,,,,,,,,,,,,,,,399.1709466940956,None,materials/speakPic.jpg,period,B_aloud,85,217,395.4778183118906,None,395.4778183118906,None,396.421151334187,None,396.6868377184728,None,396.6868377184728,None,,,,,,,,,,,,,,,,,,,,,,,,,,,,,,,,,,,sing24,001,2019_Nov_07_1309,ProdFawcett_Revision2019,3.2.4,59.94597143601282,
86,0,86,0,,,,,,,,,,,,,,,,,403.43910648755264,None,materials/singPic.jpg,point,C_sing,86,226,399.78899266035296,None,399.78899266035296,None,400.68904304283205,None,400.9548168190522,None,400.9548168190522,None,,,,,,,,,,,,,,,,,,,,,,,,,,,,,,,,,,,sing24,001,2019_Nov_07_1309,ProdFawcett_Revision2019,3.2.4,59.94597143601282,
87,0,87,0,,,,,,,,,,,,,,,,,407.7069829570828,None,materials/singPic.jpg,character,C_sing,87,46,403.9896470112726,None,403.9896470112726,None,404.95599552150816,None,405.2090393108083,None,405.2090393108083,None,,,,,,,,,,,,,,,,,,,,,,,,,,,,,,,,,,,sing24,001,2019_Nov_07_1309,ProdFawcett_Revision2019,3.2.4,59.94597143601282,
88,0,88,0,,,,,,,,,,,,,,,,,411.97494246438146,None,materials/readPic.jpg,partner,A_silent,88,211,408.32526155374944,None,408.32526155374944,None,409.2259849474067,None,409.49078994838055,None,409.49078994838055,None,,,,,,,,,,,,,,,,,,,,,,,,,,,,,,,,,,,sing24,001,2019_Nov_07_1309,ProdFawcett_Revision2019,3.2.4,59.94597143601282,
89,0,89,0,,,,,,,,,,,,,,,,,416.2429548422806,None,materials/readPic.jpg,century,A_silent,89,45,412.5581476644147,None,412.5581476644147,None,413.4922068794258,None,413.7587684269529,None,413.7587684269529,None,,,,,,,,,,,,,,,,,,,,,,,,,,,,,,,,,,,sing24,001,2019_Nov_07_1309,ProdFawcett_Revision2019,3.2.4,59.94597143601282,
,,,,,,,,,,,,,,,,,,,,,,,,,,,,,,,,,,,,,416.7431333581917,None,k,77.82894103380386,416.7431333581917,None,,,,,,,,,,,,,,,,,,,,,,,,,,,,,sing24,001,2019_Nov_07_1309,ProdFawcett_Revision2019,3.2.4,59.94597143601282,
,,,,,,,,,,,,,,494.60042172053363,None,space,6.859204453648999,494.60042172053363,None,,,,,,,,,,,,,,,,,,,,,,,,,,,,,,,,,,,,,,,,,,,,,,,,,,,,sing24,001,2019_Nov_07_1309,ProdFawcett_Revision2019,3.2.4,59.94597143601282,
,,,,0,0,0,0,,,,,,,,,,,,,506.6893571561668,None,,,,,,,,,,,,,,,,,,,,,,audience,A_silent,0,14,501.9886608198285,None,501.9886608198285,None,501.9886608198285,None,6,2.0076027866452932,501.9886608198285,None,504.053240654408,None,504.053240654408,None,504.57093580893707,None,504.57093580893707,None,504.57093580893707,None,f,2.080464638886042,504.57093580893707,None,sing24,001,2019_Nov_07_1309,ProdFawcett_Revision2019,3.2.4,59.94597143601282,
,,,,1,0,1,0,,,,,,,,,,,,,510.18862505443394,None,,,,,,,,,,,,,,,,,,,,,,hunger,A_silent,1,155,507.2209955215221,None,507.2209955215221,None,507.2209955215221,None,6,1.3910014306893572,507.2209955215221,None,508.6578994836891,None,508.6578994836891,None,509.1716364993481,None,509.1716364993481,None,509.1716364993481,None,f,0.9762657834216952,509.1716364993481,None,sing24,001,2019_Nov_07_1309,ProdFawcett_Revision2019,3.2.4,59.94597143601282,
,,,,2,0,2,0,,,,,,,,,,,,,513.4231936928118,None,,,,,,,,,,,,,,,,,,,,,,course,B_aloud,2,74,510.7087052932475,None,510.7087052932475,None,510.7087052932475,None,5,1.5269288424169645,510.7087052932475,None,512.276654226589,None,512.276654226589,None,512.7771782671334,None,512.7771782671334,None,512.7771782671334,None,f,0.6099903589347377,512.7771782671334,None,sing24,001,2019_Nov_07_1309,ProdFawcett_Revision2019,3.2.4,59.94597143601282,
,,,,3,0,3,0,,,,,,,,,,,,,518.6245574422646,None,,,,,,,,,,,,,,,,,,,,,,front,C_sing,3,134,513.9398252161918,None,513.9398252161918,None,513.9398252161918,None,1,2.846862598787993,513.9398252161918,None,516.8406260496704,None,516.8406260496704,None,517.3575200596824,None,517.3575200596824,None,517.3575200596824,None,n,1.2290259377332404,517.3575200596824,None,sing24,001,2019_Nov_07_1309,ProdFawcett_Revision2019,3.2.4,59.94597143601282,
,,,,4,0,4,0,,,,,,,,,,,,,523.0592666541925,None,,,,,,,,,,,,,,,,,,,,,,substance,D_new,4,313,519.1261339180637,None,519.1261339180637,None,519.1261339180637,None,2,2.356856689671986,519.1261339180637,None,521.5144890216179,None,521.5144890216179,None,522.0422445108416,None,522.0422445108416,None,522.0422445108416,None,n,0.9679800336016342,522.0422445108416,None,sing24,001,2019_Nov_07_1309,ProdFawcett_Revision2019,3.2.4,59.94597143601282,
,,,,5,0,5,0,,,,,,,,,,,,,526.3269027181668,None,,,,,,,,,,,,,,,,,,,,,,beauty,C_sing,5,18,523.5775514710695,None,523.5775514710695,None,523.5775514710695,None,6,1.37643839023076,523.5775514710695,None,524.9813954718411,None,524.9813954718411,None,525.5101984201465,None,525.5101984201465,None,525.5101984201465,None,f,0.7799996890826151,525.5101984201465,None,sing24,001,2019_Nov_07_1309,ProdFawcett_Revision2019,3.2.4,59.94597143601282,
,,,,6,0,6,0,,,,,,,,,,,,,531.3133096970851,None,,,,,,,,,,,,,,,,,,,,,,partner,A_silent,6,211,526.8283311562845,None,526.8283311562845,None,526.8283311562845,None,3,2.3497910058358684,526.8283311562845,None,529.2278808235424,None,529.2278808235424,None,529.7446616283851,None,529.7446616283851,None,529.7446616283851,None,n,1.5452655968256295,529.7446616283851,None,sing24,001,2019_Nov_07_1309,ProdFawcett_Revision2019,3.2.4,59.94597143601282,
,,,,7,0,7,0,,,,,,,,,,,,,535.7968022640562,None,,,,,,,,,,,,,,,,,,,,,,minor,D_new,7,191,531.829982894822,None,531.829982894822,None,531.829982894822,None,1,2.8599673446733505,531.829982894822,None,534.7170572867617,None,534.7170572867617,None,535.2465836288175,None,535.2465836288175,None,535.2465836288175,None,n,0.5076441500568762,535.2465836288175,None,sing24,001,2019_Nov_07_1309,ProdFawcett_Revision2019,3.2.4,59.94597143601282,
,,,,8,0,8,0,,,,,,,,,,,,,539.2142881134059,None,,,,,,,,,,,,,,,,,,,,,,health,D_new,8,149,536.3144451701082,None,536.3144451701082,None,536.3144451701082,None,6,1.3433802948566154,536.3144451701082,None,537.7136527337134,None,537.7136527337134,None,538.2306332027074,None,538.2306332027074,None,538.2306332027074,None,f,0.946774895885028,538.2306332027074,None,sing24,001,2019_Nov_07_1309,ProdFawcett_Revision2019,3.2.4,59.94597143601282,
,,,,9,0,9,0,,,,,,,,,,,,,544.0657342787599,None,,,,,,,,,,,,,,,,,,,,,,trail,B_aloud,9,336,539.7207989675226,None,539.7207989675226,None,539.7207989675226,None,3,3.2964119549142197,539.7207989675226,None,543.0823788641719,None,543.0823788641719,None,543.598840268678,None,543.598840268678,None,543.598840268678,None,f,0.4182711326284334,543.598840268678,None,sing24,001,2019_Nov_07_1309,ProdFawcett_Revision2019,3.2.4,59.94597143601282,
,,,,10,0,10,0,,,,,,,,,,,,,546.466542887385,None,,,,,,,,,,,,,,,,,,,,,,background,D_new,10,16,544.5844967967132,None,544.5844967967132,None,544.5844967967132,None,1,1.1684630217496306,544.5844967967132,None,545.7997241400881,None,545.7997241400881,None,546.3166150401812,None,546.3166150401812,None,546.3166150401812,None,n,0.10872053250204772,546.3166150401812,None,sing24,001,2019_Nov_07_1309,ProdFawcett_Revision2019,3.2.4,59.94597143601282,
,,,,11,0,11,0,,,,,,,,,,,,,548.6841039995197,None,,,,,,,,,,,,,,,,,,,,,,message,D_new,11,189,546.9843434720533,None,546.9843434720533,None,546.9843434720533,None,1,1.0091447409940884,546.9843434720533,None,548.0401346643921,None,548.0401346643921,None,548.5670868321322,None,548.5670868321322,None,548.5670868321322,None,n,0.07460347074083984,548.5670868321322,None,sing24,001,2019_Nov_07_1309,ProdFawcett_Revision2019,3.2.4,59.94597143601282,
,,,,12,0,12,0,,,,,,,,,,,,,551.0011833675671,None,,,,,,,,,,,,,,,,,,,,,,dispute,D_new,12,99,549.2015640356112,None,549.2015640356112,None,549.2015640356112,None,1,1.1031031908933073,549.2015640356112,None,550.3556742551737,None,550.3556742551737,None,550.8698821297148,None,550.8698821297148,None,550.8698821297148,None,n,0.09097997134085745,550.8698821297148,None,sing24,001,2019_Nov_07_1309,ProdFawcett_Revision2019,3.2.4,59.94597143601282,
,,,,13,0,13,0,,,,,,,,,,,,,553.3054568638327,None,,,,,,,,,,,,,,,,,,,,,,resistance,D_new,13,262,551.5076960875886,None,551.5076960875886,None,551.5076960875886,None,1,1.1727722834330052,551.5076960875886,None,552.718635628582,None,552.718635628582,None,553.2364141319413,None,553.2364141319413,None,553.2364141319413,None,n,0.04409622447565198,553.2364141319413,None,sing24,001,2019_Nov_07_1309,ProdFawcett_Revision2019,3.2.4,59.94597143601282,
,,,,14,0,14,0,,,,,,,,,,,,,556.6363158549648,None,,,,,,,,,,,,,,,,,,,,,,account,A_silent,14,1,553.8353523667902,None,553.8353523667902,None,553.8353523667902,None,6,1.3897216521436349,553.8353523667902,None,555.2568212352926,None,555.2568212352926,None,555.78596006718,None,555.78596006718,None,555.78596006718,None,f,0.8144800025038421,555.78596006718,None,sing24,001,2019_Nov_07_1309,ProdFawcett_Revision2019,3.2.4,59.94597143601282,
,,,,15,0,15,0,,,,,,,,,,,,,560.6542719412828,None,,,,,,,,,,,,,,,,,,,,,,business,A_silent,15,38,557.1556409777841,None,557.1556409777841,None,557.1556409777841,None,4,2.548542949487455,557.1556409777841,None,559.7433187161805,None,559.7433187161805,None,560.2705993034178,None,560.2705993034178,None,560.2705993034178,None,f,0.34554860985372216,560.2705993034178,None,sing24,001,2019_Nov_07_1309,ProdFawcett_Revision2019,3.2.4,59.94597143601282,
,,,,16,0,16,0,,,,,,,,,,,,,568.8900074640987,None,,,,,,,,,,,,,,,,,,,,,,division,D_new,16,101,561.172750202124,None,561.172750202124,None,561.172750202124,None,6,4.603018286987208,561.172750202124,None,565.8281936928397,None,565.8281936928397,None,566.355956024141,None,566.355956024141,None,566.355956024141,None,r,2.492384151206352,566.355956024141,None,sing24,001,2019_Nov_07_1309,ProdFawcett_Revision2019,3.2.4,59.94597143601282,
,,,,17,0,17,0,,,,,,,,,,,,,571.4075088636018,None,,,,,,,,,,,,,,,,,,,,,,pancakes,D_new,17,210,569.4095347390976,None,569.4095347390976,None,569.4095347390976,None,1,1.3183193382574245,569.4095347390976,None,570.7612085588044,None,570.7612085588044,None,571.2763494433602,None,571.2763494433602,None,571.2763494433602,None,n,0.08297878957819194,571.2763494433602,None,sing24,001,2019_Nov_07_1309,ProdFawcett_Revision2019,3.2.4,59.94597143601282,
,,,,18,0,18,0,,,,,,,,,,,,,574.525091124,None,,,,,,,,,,,,,,,,,,,,,,symbol,B_aloud,18,321,571.9097589724697,None,571.9097589724697,None,571.9097589724697,None,5,1.7296837096801028,571.9097589724697,None,573.6639186415123,None,573.6639186415123,None,574.1922003483633,None,574.1922003483633,None,574.1922003483633,None,f,0.2951433724956587,574.1922003483633,None,sing24,001,2019_Nov_07_1309,ProdFawcett_Revision2019,3.2.4,59.94597143601282,
,,,,19,0,19,0,,,,,,,,,,,,,577.9449993780581,None,,,,,,,,,,,,,,,,,,,,,,express,B_aloud,19,124,575.0434773279121,None,575.0434773279121,None,575.0434773279121,None,5,2.316059588221833,575.0434773279121,None,577.3966819058405,None,577.3966819058405,None,577.8939329476561,None,577.8939329476561,None,577.8939329476561,None,f,0.025411768350750208,577.8939329476561,None,sing24,001,2019_Nov_07_1309,ProdFawcett_Revision2019,3.2.4,59.94597143601282,
,,,,20,0,20,0,,,,,,,,,,,,,581.99406916718,None,,,,,,,,,,,,,,,,,,,,,,style,D_new,20,311,578.4620747029549,None,578.4620747029549,None,578.4620747029549,None,5,1.8491518939845264,578.4620747029549,None,580.3455022703856,None,580.3455022703856,None,580.846342290286,None,580.846342290286,None,580.846342290286,None,f,1.112807115772739,580.846342290286,None,sing24,001,2019_Nov_07_1309,ProdFawcett_Revision2019,3.2.4,59.94597143601282,
,,,,21,0,21,0,,,,,,,,,,,,,584.6949042109773,None,,,,,,,,,,,,,,,,,,,,,,disease,D_new,21,97,582.4958319338039,None,582.4958319338039,None,582.4958319338039,None,1,1.2152049511205405,582.4958319338039,None,583.7325197487371,None,583.7325197487371,None,584.247702929657,None,584.247702929657,None,584.247702929657,None,n,0.41503358830232173,584.247702929657,None,sing24,001,2019_Nov_07_1309,ProdFawcett_Revision2019,3.2.4,59.94597143601282,
,,,,22,0,22,0,,,,,,,,,,,,,587.6458344218554,None,,,,,,,,,,,,,,,,,,,,,,congress,C_sing,22,67,585.2134854139294,None,585.2134854139294,None,585.2134854139294,None,6,1.313180319732055,585.2134854139294,None,586.5514707346447,None,586.5514707346447,None,587.0790234496817,None,587.0790234496817,None,587.0790234496817,None,r,0.5277987186564133,587.0790234496817,None,sing24,001,2019_Nov_07_1309,ProdFawcett_Revision2019,3.2.4,59.94597143601282,
,,,,23,0,23,0,,,,,,,,,,,,,590.3138231635094,None,,,,,,,,,,,,,,,,,,,,,,charter,D_new,23,47,588.149606580846,None,588.149606580846,None,588.149606580846,None,1,1.200794302392751,588.149606580846,None,589.4131520184455,None,589.4131520184455,None,589.9175586241763,None,589.9175586241763,None,589.9175586241763,None,n,0.35367792507167906,589.9175586241763,None,sing24,001,2019_Nov_07_1309,ProdFawcett_Revision2019,3.2.4,59.94597143601282,
,,,,24,0,24,0,,,,,,,,,,,,,594.3151663867757,None,,,,,,,,,,,,,,,,,,,,,,household,B_aloud,24,154,590.8312020277372,None,590.8312020277372,None,590.8312020277372,None,6,1.3510446600848809,590.8312020277372,None,592.2473950363928,None,592.2473950363928,None,592.7640663681086,None,592.7640663681086,None,592.7640663681086,None,r,1.5063503762939945,592.7640663681086,None,sing24,001,2019_Nov_07_1309,ProdFawcett_Revision2019,3.2.4,59.94597143601282,
,,,,25,0,25,0,,,,,,,,,,,,,597.4171885302057,None,,,,,,,,,,,,,,,,,,,,,,conference,D_new,25,66,594.8324976675212,None,594.8324976675212,None,594.8324976675212,None,1,1.3741786403115839,594.8324976675212,None,596.2386110592633,None,596.2386110592633,None,596.7505678919842,None,596.7505678919842,None,596.7505678919842,None,n,0.6395344280172139,596.7505678919842,None,sing24,001,2019_Nov_07_1309,ProdFawcett_Revision2019,3.2.4,59.94597143601282,
,,,,26,0,26,0,,,,,,,,,,,,,602.952146855765,None,,,,,,,,,,,,,,,,,,,,,,silence,C_sing,26,288,597.9492968216073,None,597.9492968216073,None,597.9492968216073,None,6,4.056792311952449,597.9492968216073,None,602.0393876344897,None,602.0393876344897,None,602.5670519997366,None,602.5670519997366,None,602.5670519997366,None,r,0.3669702059123665,602.5670519997366,None,sing24,001,2019_Nov_07_1309,ProdFawcett_Revision2019,3.2.4,59.94597143601282,
,,,,27,0,27,0,,,,,,,,,,,,,606.7685246004257,None,,,,,,,,,,,,,,,,,,,,,,death,A_silent,27,86,603.4873036014615,None,603.4873036014615,None,603.4873036014615,None,6,1.6390713441651314,603.4873036014615,None,605.1846513652708,None,605.1846513652708,None,605.7015444423305,None,605.7015444423305,None,605.7015444423305,None,f,1.032647260115482,605.7015444423305,None,sing24,001,2019_Nov_07_1309,ProdFawcett_Revision2019,3.2.4,59.94597143601282,
,,,,28,0,28,0,,,,,,,,,,,,,609.5883264912991,None,,,,,,,,,,,,,,,,,,,,,,weight,D_new,28,353,607.2709532250883,None,607.2709532250883,None,607.2709532250883,None,5,1.4311252098996192,607.2709532250883,None,608.752502954565,None,608.752502954565,None,609.2692728743423,None,609.2692728743423,None,609.2692728743423,None,f,0.29579554637894034,609.2692728743423,None,sing24,001,2019_Nov_07_1309,ProdFawcett_Revision2019,3.2.4,59.94597143601282,
,,,,29,0,29,0,,,,,,,,,,,,,612.2368744168198,None,,,,,,,,,,,,,,,,,,,,,,level,D_new,29,170,610.1103875101544,None,610.1103875101544,None,610.1103875101544,None,1,1.0307386327767745,610.1103875101544,None,611.190421098494,None,611.190421098494,None,611.719889904838,None,611.719889904838,None,611.719889904838,None,n,0.4775598681299016,611.719889904838,None,sing24,001,2019_Nov_07_1309,ProdFawcett_Revision2019,3.2.4,59.94597143601282,
,,,,30,0,30,0,,,,,,,,,,,,,616.1550584685756,None,,,,,,,,,,,,,,,,,,,,,,election,B_aloud,30,109,612.7545375381596,None,612.7545375381596,None,612.7545375381596,None,6,1.3146295950282365,612.7545375381596,None,614.1206562169828,None,614.1206562169828,None,614.6376096286112,None,614.6376096286112,None,614.6376096286112,None,f,1.4954773901263252,614.6376096286112,None,sing24,001,2019_Nov_07_1309,ProdFawcett_Revision2019,3.2.4,59.94597143601282,
,,,,31,0,31,0,,,,,,,,,,,,,618.8888010822702,None,,,,,,,,,,,,,,,,,,,,,,brief,D_new,31,28,616.6714209740749,None,616.6714209740749,None,616.6714209740749,None,5,1.413449959596619,616.6714209740749,None,618.1386157242814,None,618.1386157242814,None,618.6554543757811,None,618.6554543757811,None,618.6554543757811,None,f,0.19005193759221584,618.6554543757811,None,sing24,001,2019_Nov_07_1309,ProdFawcett_Revision2019,3.2.4,59.94597143601282,
,,,,32,0,32,0,,,,,,,,,,,,,621.422992473701,None,,,,,,,,,,,,,,,,,,,,,,balance,D_new,32,17,619.4074923804728,None,619.4074923804728,None,619.4074923804728,None,1,1.0452292093541473,619.4074923804728,None,620.5061152578564,None,620.5061152578564,None,621.0227890776005,None,621.0227890776005,None,621.0227890776005,None,n,0.35845462465658784,621.0227890776005,None,sing24,001,2019_Nov_07_1309,ProdFawcett_Revision2019,3.2.4,59.94597143601282,
,,,,33,0,33,0,,,,,,,,,,,,,624.0904382036533,None,,,,,,,,,,,,,,,,,,,,,,build,D_new,33,35,621.939843565342,None,621.939843565342,None,621.939843565342,None,1,1.2092803383711725,621.939843565342,None,623.2068361634156,None,623.2068361634156,None,623.7236732599558,None,623.7236732599558,None,623.7236732599558,None,n,0.32070037943776697,623.7236732599558,None,sing24,001,2019_Nov_07_1309,ProdFawcett_Revision2019,3.2.4,59.94597143601282,
,,,,34,0,34,0,,,,,,,,,,,,,627.5602771039121,None,,,,,,,,,,,,,,,,,,,,,,touch,D_new,34,332,624.6078198668547,None,624.6078198668547,None,624.6078198668547,None,4,1.532910990761593,624.6078198668547,None,626.1911301859654,None,626.1911301859654,None,626.7080528084189,None,626.7080528084189,None,626.7080528084189,None,f,0.8326513030333444,626.7080528084189,None,sing24,001,2019_Nov_07_1309,ProdFawcett_Revision2019,3.2.4,59.94597143601282,
,,,,35,0,35,0,,,,,,,,,,,,,631.4765335572883,None,,,,,,,,,,,,,,,,,,,,,,addition,D_new,35,2,628.0790542389732,None,628.0790542389732,None,628.0790542389732,None,6,1.6295807675924152,628.0790542389732,None,629.7591490950435,None,629.7591490950435,None,630.2757703551324,None,630.2757703551324,None,630.2757703551324,None,r,1.1606941594509408,630.2757703551324,None,sing24,001,2019_Nov_07_1309,ProdFawcett_Revision2019,3.2.4,59.94597143601282,
,,,,36,0,36,0,,,,,,,,,,,,,634.3770858991193,None,,,,,,,,,,,,,,,,,,,,,,speech,C_sing,36,298,631.9934648877243,None,631.9934648877243,None,631.9934648877243,None,5,1.3462228649295866,631.9934648877243,None,633.3638318716548,None,633.3638318716548,None,633.8936530447099,None,633.8936530447099,None,633.8936530447099,None,f,0.43821142008528113,633.8936530447099,None,sing24,001,2019_Nov_07_1309,ProdFawcett_Revision2019,3.2.4,59.94597143601282,
,,,,37,0,37,0,,,,,,,,,,,,,638.1643201467814,None,,,,,,,,,,,,,,,,,,,,,,power,D_new,37,230,634.8945866766153,None,634.8945866766153,None,634.8945866766153,None,1,1.645141506451182,634.8945866766153,None,636.5945167008322,None,636.5945167008322,None,637.0955902842106,None,637.0955902842106,None,637.0955902842106,None,n,1.0442339988658205,637.0955902842106,None,sing24,001,2019_Nov_07_1309,ProdFawcett_Revision2019,3.2.4,59.94597143601282,
,,,,38,0,38,0,,,,,,,,,,,,,641.2124942464288,None,,,,,,,,,,,,,,,,,,,,,,birth,B_aloud,38,22,638.6950497605139,None,638.6950497605139,None,638.6950497605139,None,4,1.6203716489253566,638.6950497605139,None,640.3788318716688,None,640.3788318716688,None,640.8957510730252,None,640.8957510730252,None,640.8957510730252,None,f,0.2837796229869127,640.8957510730252,None,sing24,001,2019_Nov_07_1309,ProdFawcett_Revision2019,3.2.4,59.94597143601282,
,,,,39,0,39,0,,,,,,,,,,,,,645.6304120793939,None,,,,,,,,,,,,,,,,,,,,,,scale,D_new,39,272,641.7201884679962,None,641.7201884679962,None,641.7201884679962,None,1,2.203637183527462,641.7201884679962,None,643.9635883560404,None,643.9635883560404,None,644.4802021521609,None,644.4802021521609,None,644.4802021521609,None,n,1.107497667428106,644.4802021521609,None,sing24,001,2019_Nov_07_1309,ProdFawcett_Revision2019,3.2.4,59.94597143601282,
,,,,40,0,40,0,,,,,,,,,,,,,648.7980717795435,None,,,,,,,,,,,,,,,,,,,,,,brilliant,A_silent,40,30,646.1485364184482,None,646.1485364184482,None,646.1485364184482,None,1,1.662616470712237,646.1485364184482,None,647.8644187347963,None,647.8644187347963,None,648.3812903526705,None,648.3812903526705,None,648.3812903526705,None,n,0.3744277539663017,648.3812903526705,None,sing24,001,2019_Nov_07_1309,ProdFawcett_Revision2019,3.2.4,59.94597143601282,
,,,,41,0,41,0,,,,,,,,,,,,,652.0829321390484,None,,,,,,,,,,,,,,,,,,,,,,south,D_new,41,296,649.3149188281968,None,649.3149188281968,None,649.3149188281968,None,1,1.263932325760834,649.3149188281968,None,650.6324656341458,None,650.6324656341458,None,651.1488922062563,None,651.1488922062563,None,651.1488922062563,None,n,0.8943189027486369,651.1488922062563,None,sing24,001,2019_Nov_07_1309,ProdFawcett_Revision2019,3.2.4,59.94597143601282,
,,,,42,0,42,0,,,,,,,,,,,,,656.4005423897179,None,,,,,,,,,,,,,,,,,,,,,,material,B_aloud,42,182,652.6004686820088,None,652.6004686820088,None,652.6004686820088,None,6,1.0913712135516107,652.6004686820088,None,653.749674068531,None,653.749674068531,None,654.2666794178076,None,654.2666794178076,None,654.2666794178076,None,r,2.0878360390197486,654.2666794178076,None,sing24,001,2019_Nov_07_1309,ProdFawcett_Revision2019,3.2.4,59.94597143601282,
,,,,43,0,43,0,,,,,,,,,,,,,660.0016644896241,None,,,,,,,,,,,,,,,,,,,,,,primary,D_new,43,234,656.9185040740995,None,656.9185040740995,None,656.9185040740995,None,3,1.8518737948033959,656.9185040740995,None,658.823037258233,None,658.823037258233,None,659.3512956397608,None,659.3512956397608,None,659.3512956397608,None,f,0.6030173540348187,659.3512956397608,None,sing24,001,2019_Nov_07_1309,ProdFawcett_Revision2019,3.2.4,59.94597143601282,
,,,,44,0,44,0,,,,,,,,,,,,,663.0191245257156,None,,,,,,,,,,,,,,,,,,,,,,production,C_sing,44,240,660.5203990172595,None,660.5203990172595,None,660.5203990172595,None,6,1.4177934316685423,660.5203990172595,None,662.0022143435199,None,662.0022143435199,None,662.5207585369935,None,662.5207585369935,None,662.5207585369935,None,r,0.4493478260701522,662.5207585369935,None,sing24,001,2019_Nov_07_1309,ProdFawcett_Revision2019,3.2.4,59.94597143601282,
,,,,45,0,45,0,,,,,,,,,,,,,666.070179137867,None,,,,,,,,,,,,,,,,,,,,,,welcome,A_silent,45,354,663.5374933134299,None,663.5374933134299,None,663.5374933134299,None,1,1.5213516203220934,663.5374933134299,None,665.1032502955059,None,665.1032502955059,None,665.6201884680195,None,665.6201884680195,None,665.6201884680195,None,n,0.4139777321834117,665.6201884680195,None,sing24,001,2019_Nov_07_1309,ProdFawcett_Revision2019,3.2.4,59.94597143601282,
,,,,46,0,46,0,,,,,,,,,,,,,668.4713345151395,None,,,,,,,,,,,,,,,,,,,,,,range,D_new,46,251,666.5872700130567,None,666.5872700130567,None,666.5872700130567,None,1,1.1110275549581274,666.5872700130567,None,667.7539512969088,None,667.7539512969088,None,668.270791503368,None,668.270791503368,None,668.270791503368,None,n,0.16318871674593538,668.270791503368,None,sing24,001,2019_Nov_07_1309,ProdFawcett_Revision2019,3.2.4,59.94597143601282,
,,,,47,0,47,0,,,,,,,,,,,,,670.5883053430589,None,,,,,,,,,,,,,,,,,,,,,,bucket,D_new,47,33,668.9884935000446,None,668.9884935000446,None,668.9884935000446,None,1,0.837226472562179,668.9884935000446,None,669.8879343160661,None,669.8879343160661,None,670.4050087081268,None,670.4050087081268,None,670.4050087081268,None,n,0.1493266778998077,670.4050087081268,None,sing24,001,2019_Nov_07_1309,ProdFawcett_Revision2019,3.2.4,59.94597143601282,
,,,,48,0,48,0,,,,,,,,,,,,,673.2057417428587,None,,,,,,,,,,,,,,,,,,,,,,period,B_aloud,48,217,671.1054885862395,None,671.1054885862395,None,671.1054885862395,None,6,1.0484907010104507,671.1054885862395,None,672.1926388629945,None,672.1926388629945,None,672.7069866890088,None,672.7069866890088,None,672.7069866890088,None,r,0.4627635752549395,672.7069866890088,None,sing24,001,2019_Nov_07_1309,ProdFawcett_Revision2019,3.2.4,59.94597143601282,
,,,,49,0,49,0,,,,,,,,,,,,,675.856746594538,None,,,,,,,,,,,,,,,,,,,,,,rapid,B_aloud,49,252,673.72268955654,None,673.72268955654,None,673.72268955654,None,6,1.1111556882970035,673.72268955654,None,674.876440256252,None,674.876440256252,None,675.4063068358228,None,675.4063068358228,None,675.4063068358228,None,r,0.40308639663271606,675.4063068358228,None,sing24,001,2019_Nov_07_1309,ProdFawcett_Revision2019,3.2.4,59.94597143601282,
,,,,50,0,50,0,,,,,,,,,,,,,678.9242140946444,None,,,,,,,,,,,,,,,,,,,,,,treatment,D_new,50,339,676.3763444672804,None,676.3763444672804,None,676.3763444672804,None,1,1.513378739822656,676.3763444672804,None,677.9127834795509,None,677.9127834795509,None,678.4405688249972,None,678.4405688249972,None,678.4405688249972,None,n,0.44917273113969713,678.4405688249972,None,sing24,001,2019_Nov_07_1309,ProdFawcett_Revision2019,3.2.4,59.94597143601282,
,,,,51,0,51,0,,,,,,,,,,,,,681.4249748087022,None,,,,,,,,,,,,,,,,,,,,,,pressure,D_new,51,232,679.4424584810622,None,679.4424584810622,None,679.4424584810622,None,4,1.2074702992103994,679.4424584810622,None,680.6964953038841,None,680.6964953038841,None,681.2247810537228,None,681.2247810537228,None,681.2247810537228,None,f,0.16073241271078587,681.2247810537228,None,sing24,001,2019_Nov_07_1309,ProdFawcett_Revision2019,3.2.4,59.94597143601282,
,,,,52,0,52,0,,,,,,,,,,,,,683.8590654351283,None,,,,,,,,,,,,,,,,,,,,,,point,C_sing,52,226,681.9425797723234,None,681.9425797723234,None,681.9425797723234,None,5,1.0989522299496457,681.9425797723234,None,683.0921126453904,None,683.0921126453904,None,683.611320830998,None,683.611320830998,None,683.611320830998,None,f,0.20643807924352586,683.611320830998,None,sing24,001,2019_Nov_07_1309,ProdFawcett_Revision2019,3.2.4,59.94597143601282,
,,,,53,0,53,0,,,,,,,,,,,,,686.6768414505059,None,,,,,,,,,,,,,,,,,,,,,,capital,D_new,53,40,684.3775875474093,None,684.3775875474093,None,684.3775875474093,None,1,1.615565714892,684.3775875474093,None,686.0263220750494,None,686.0263220750494,None,686.5432586926036,None,686.5432586926036,None,686.5432586926036,None,n,0.09779343160334975,686.5432586926036,None,sing24,001,2019_Nov_07_1309,ProdFawcett_Revision2019,3.2.4,59.94597143601282,
,,,,54,0,54,0,,,,,,,,,,,,,689.0440131865907,None,,,,,,,,,,,,,,,,,,,,,,prime,C_sing,54,235,687.1933171611745,None,687.1933171611745,None,687.1933171611745,None,6,1.0873322137631476,687.1933171611745,None,688.343691298156,None,688.343691298156,None,688.8606453317916,None,688.8606453317916,None,688.8606453317916,None,f,0.14075418293941766,688.8606453317916,None,sing24,001,2019_Nov_07_1309,ProdFawcett_Revision2019,3.2.4,59.94597143601282,
,,,,55,0,55,0,,,,,,,,,,,,,692.511896498152,None,,,,,,,,,,,,,,,,,,,,,,interior,B_aloud,55,164,689.5638906512177,None,689.5638906512177,None,689.5638906512177,None,4,2.2606938482495025,689.5638906512177,None,691.8785317534348,None,691.8785317534348,None,692.3949894258985,None,692.3949894258985,None,692.3949894258985,None,f,0.06942495482508093,692.3949894258985,None,sing24,001,2019_Nov_07_1309,ProdFawcett_Revision2019,3.2.4,59.94597143601282,
,,,,56,0,56,0,,,,,,,,,,,,,695.3959774833638,None,,,,,,,,,,,,,,,,,,,,,,quiet,A_silent,56,249,693.0321956833359,None,693.0321956833359,None,693.0321956833359,None,6,1.3601856689201668,693.0321956833359,None,694.4323474528501,None,694.4323474528501,None,694.948913354543,None,694.948913354543,None,694.948913354543,None,r,0.41157305473461747,694.948913354543,None,sing24,001,2019_Nov_07_1309,ProdFawcett_Revision2019,3.2.4,59.94597143601282,
,,,,57,0,57,0,,,,,,,,,,,,,698.0300242583035,None,,,,,,,,,,,,,,,,,,,,,,debate,C_sing,57,87,695.9143559121294,None,695.9143559121294,None,695.9143559121294,None,1,1.285638800705783,695.9143559121294,None,697.2347536854213,None,697.2347536854213,None,697.7636916091433,None,697.7636916091433,None,697.7636916091433,None,n,0.22840828518383205,697.7636916091433,None,sing24,001,2019_Nov_07_1309,ProdFawcett_Revision2019,3.2.4,59.94597143601282,
,,,,58,0,58,0,,,,,,,,,,,,,700.8310110716848,None,,,,,,,,,,,,,,,,,,,,,,employment,B_aloud,58,111,698.533522112295,None,698.533522112295,None,698.533522112295,None,6,1.314544691122137,698.533522112295,None,699.8973200846231,None,699.8973200846231,None,700.4017039870378,None,700.4017039870378,None,700.4017039870378,None,r,0.38227219006512314,700.4017039870378,None,sing24,001,2019_Nov_07_1309,ProdFawcett_Revision2019,3.2.4,59.94597143601282,
,,,,59,0,59,0,,,,,,,,,,,,,703.1678036947269,None,,,,,,,,,,,,,,,,,,,,,,finish,D_new,59,130,701.3494582322892,None,701.3494582322892,None,701.3494582322892,None,1,1.1707084655063227,701.3494582322892,None,702.5661171238171,None,702.5661171238171,None,703.0819975741906,None,703.0819975741906,None,703.0819975741906,None,n,0.061658580554649234,703.0819975741906,None,sing24,001,2019_Nov_07_1309,ProdFawcett_Revision2019,3.2.4,59.94597143601282,
,,,,60,0,60,0,,,,,,,,,,,,,710.4006257386645,None,,,,,,,,,,,,,,,,,,,,,,trash,D_new,60,337,703.6988349816529,None,703.6988349816529,None,703.6988349816529,None,5,3.90971667598933,703.6988349816529,None,707.666351931286,None,707.666351931286,None,708.1832733097253,None,708.1832733097253,None,708.1832733097253,None,f,2.176754991640337,708.1832733097253,None,sing24,001,2019_Nov_07_1309,ProdFawcett_Revision2019,3.2.4,59.94597143601282,
,,,,61,0,61,0,,,,,,,,,,,,,714.5184515145374,None,,,,,,,,,,,,,,,,,,,,,,direction,D_new,61,94,710.9082639795961,None,710.9082639795961,None,710.9082639795961,None,3,2.219344716053456,710.9082639795961,None,713.1848224170972,None,713.1848224170972,None,713.686487217783,None,713.686487217783,None,713.686487217783,None,n,0.7930938607314602,713.686487217783,None,sing24,001,2019_Nov_07_1309,ProdFawcett_Revision2019,3.2.4,59.94597143601282,
,,,,62,0,62,0,,,,,,,,,,,,,718.5865525284316,None,,,,,,,,,,,,,,,,,,,,,,height,D_new,62,152,715.0197160539683,None,715.0197160539683,None,715.0197160539683,None,3,2.5792784723453224,715.0197160539683,None,717.652704173699,None,717.652704173699,None,718.1696893076878,None,718.1696893076878,None,718.1696893076878,None,n,0.38143714622128755,718.1696893076878,None,sing24,001,2019_Nov_07_1309,ProdFawcett_Revision2019,3.2.4,59.94597143601282,
,,,,63,0,63,0,,,,,,,,,,,,,721.4872037693858,None,,,,,,,,,,,,,,,,,,,,,,century,A_silent,63,45,719.1070949182613,None,719.1070949182613,None,719.1070949182613,None,1,1.5316735088126734,719.1070949182613,None,720.687172668986,None,720.687172668986,None,721.2042591901263,None,721.2042591901263,None,721.2042591901263,None,n,0.24289419665001333,721.2042591901263,None,sing24,001,2019_Nov_07_1309,ProdFawcett_Revision2019,3.2.4,59.94597143601282,
,,,,64,0,64,0,,,,,,,,,,,,,723.9881663245615,None,,,,,,,,,,,,,,,,,,,,,,owner,C_sing,64,208,722.005303228274,None,722.005303228274,None,722.005303228274,None,1,1.32932045776397,722.005303228274,None,723.3780157989822,None,723.3780157989822,None,723.9047987809172,None,723.9047987809172,None,723.9047987809172,None,n,0.03779902961105108,723.9047987809172,None,sing24,001,2019_Nov_07_1309,ProdFawcett_Revision2019,3.2.4,59.94597143601282,
,,,,65,0,65,0,,,,,,,,,,,,,727.0894532562234,None,,,,,,,,,,,,,,,,,,,,,,sunset,D_new,65,315,724.5063593954546,None,724.5063593954546,None,724.5063593954546,None,1,1.7642529701115564,724.5063593954546,None,726.3223091994878,None,726.3223091994878,None,726.8390604590531,None,726.8390604590531,None,726.8390604590531,None,n,0.2159258567262441,726.8390604590531,None,sing24,001,2019_Nov_07_1309,ProdFawcett_Revision2019,3.2.4,59.94597143601282,
,,,,66,0,66,0,,,,,,,,,,,,,730.1566103750374,None,,,,,,,,,,,,,,,,,,,,,,corner,A_silent,66,69,727.6060742053669,None,727.6060742053669,None,727.6060742053669,None,6,1.5523446538718417,727.6060742053669,None,729.2229744355427,None,729.2229744355427,None,729.7399281582329,None,729.7399281582329,None,729.7399281582329,None,r,0.37862723146099597,729.7399281582329,None,sing24,001,2019_Nov_07_1309,ProdFawcett_Revision2019,3.2.4,59.94597143601282,
,,,,67,0,67,0,,,,,,,,,,,,,733.57432947692,None,,,,,,,,,,,,,,,,,,,,,,growth,D_new,67,144,730.6579007277032,None,730.6579007277032,None,730.6579007277032,None,1,2.124814642011188,730.6579007277032,None,732.8130643154727,None,732.8130643154727,None,733.3264567394508,None,733.3264567394508,None,733.3264567394508,None,n,0.20791099092457443,733.3264567394508,None,sing24,001,2019_Nov_07_1309,ProdFawcett_Revision2019,3.2.4,59.94597143601282,
,,,,68,0,68,0,,,,,,,,,,,,,737.0422386017162,None,,,,,,,,,,,,,,,,,,,,,,commercial,A_silent,68,61,734.093141755322,None,734.093141755322,None,734.093141755322,None,1,1.416768675786443,734.093141755322,None,735.5755532748299,None,735.5755532748299,None,736.0923297257395,None,736.0923297257395,None,736.0923297257395,None,n,0.9064110219478607,736.0923297257395,None,sing24,001,2019_Nov_07_1309,ProdFawcett_Revision2019,3.2.4,59.94597143601282,
,,,,69,0,69,0,,,,,,,,,,,,,739.6824796292931,None,,,,,,,,,,,,,,,,,,,,,,sound,B_aloud,69,295,737.5592906015227,None,737.5592906015227,None,737.5592906015227,None,4,1.3268964980961755,737.5592906015227,None,738.9426500591217,None,738.9426500591217,None,739.4596255520592,None,739.4596255520592,None,739.4596255520592,None,f,0.1942361758556217,739.4596255520592,None,sing24,001,2019_Nov_07_1309,ProdFawcett_Revision2019,3.2.4,59.94597143601282,
,,,,70,0,70,0,,,,,,,,,,,,,742.1620376936626,None,,,,,,,,,,,,,,,,,,,,,,object,C_sing,70,204,740.2098398333183,None,740.2098398333183,None,740.2098398333183,None,4,1.3405265285400674,740.2098398333183,None,741.5963677924592,None,741.5963677924592,None,742.110457485891,None,742.110457485891,None,742.110457485891,None,f,0.023932947660796344,742.110457485891,None,sing24,001,2019_Nov_07_1309,ProdFawcett_Revision2019,3.2.4,59.94597143601282,
,,,,71,0,71,0,,,,,,,,,,,,,746.2282428314211,None,,,,,,,,,,,,,,,,,,,,,,territory,D_new,71,324,742.6942874914967,None,742.6942874914967,None,742.6942874914967,None,1,1.824038688908331,742.6942874914967,None,744.56617092737,None,744.56617092737,None,745.0944974187296,None,745.0944974187296,None,745.0944974187296,None,n,1.0952655967557803,745.0944974187296,None,sing24,001,2019_Nov_07_1309,ProdFawcett_Revision2019,3.2.4,59.94597143601282,
,,,,72,0,72,0,,,,,,,,,,,,,749.9631442433456,None,,,,,,,,,,,,,,,,,,,,,,state,B_aloud,72,303,746.7451399514684,None,746.7451399514684,None,746.7451399514684,None,6,1.140935186878778,746.7451399514684,None,747.9455134664895,None,747.9455134664895,None,748.4462272190722,None,748.4462272190722,None,748.4462272190722,None,r,1.4790175405796617,748.4462272190722,None,sing24,001,2019_Nov_07_1309,ProdFawcett_Revision2019,3.2.4,59.94597143601282,
,,,,73,0,73,0,,,,,,,,,,,,,752.6136860110564,None,,,,,,,,,,,,,,,,,,,,,,fellow,D_new,73,126,750.4800534925889,None,750.4800534925889,None,750.4800534925889,None,1,1.4850332773057744,750.4800534925889,None,752.030120047275,None,752.030120047275,None,752.546958387713,None,752.546958387713,None,752.546958387713,None,n,0.026410399936139584,752.546958387713,None,sing24,001,2019_Nov_07_1309,ProdFawcett_Revision2019,3.2.4,59.94597143601282,
,,,,74,0,74,0,,,,,,,,,,,,,757.0487447907217,None,,,,,,,,,,,,,,,,,,,,,,education,C_sing,74,108,753.1328450582223,None,753.1328450582223,None,753.1328450582223,None,1,1.7440377558814362,753.1328450582223,None,754.9309308328666,None,754.9309308328666,None,755.4478316850727,None,755.4478316850727,None,755.4478316850727,None,n,1.5651206693146378,755.4478316850727,None,sing24,001,2019_Nov_07_1309,ProdFawcett_Revision2019,3.2.4,59.94597143601282,
,,,,75,0,75,0,,,,,,,,,,,,,759.5036732599838,None,,,,,,,,,,,,,,,,,,,,,,revolution,D_new,75,264,757.5672687690239,None,757.5672687690239,None,757.5672687690239,None,1,1.2222140324302018,757.5672687690239,None,758.8380795546109,None,758.8380795546109,None,759.3655719350791,None,759.3655719350791,None,759.3655719350791,None,n,0.11134073522407562,759.3655719350791,None,sing24,001,2019_Nov_07_1309,ProdFawcett_Revision2019,3.2.4,59.94597143601282,
,,,,76,0,76,0,,,,,,,,,,,,,763.0689690241124,None,,,,,,,,,,,,,,,,,,,,,,review,D_new,76,263,760.0326889344724,None,760.0326889344724,None,760.0326889344724,None,1,1.1717419294873253,760.0326889344724,None,761.266256453353,None,761.266256453353,None,761.7831454873085,None,761.7831454873085,None,761.7831454873085,None,n,1.2530814206693321,761.7831454873085,None,sing24,001,2019_Nov_07_1309,ProdFawcett_Revision2019,3.2.4,59.94597143601282,
,,,,77,0,77,0,,,,,,,,,,,,,765.8344243329484,None,,,,,,,,,,,,,,,,,,,,,,fashion,A_silent,77,125,763.6003884430975,None,763.6003884430975,None,763.6003884430975,None,6,1.163945076870732,763.6003884430975,None,764.8061491572298,None,764.8061491572298,None,765.3341910804156,None,765.3341910804156,None,765.3341910804156,None,r,0.4622790322173387,765.3341910804156,None,sing24,001,2019_Nov_07_1309,ProdFawcett_Revision2019,3.2.4,59.94597143601282,
,,,,78,0,78,0,,,,,,,,,,,,,768.8020451576449,None,,,,,,,,,,,,,,,,,,,,,,route,D_new,78,267,766.3562776015606,None,766.3562776015606,None,766.3562776015606,None,2,1.712284630164504,766.3562776015606,None,768.1070818561129,None,768.1070818561129,None,768.6351592337014,None,768.6351592337014,None,768.6351592337014,None,n,0.12891739758197218,768.6351592337014,None,sing24,001,2019_Nov_07_1309,ProdFawcett_Revision2019,3.2.4,59.94597143601282,
,,,,79,0,79,0,,,,,,,,,,,,,771.7365192511352,None,,,,,,,,,,,,,,,,,,,,,,order,D_new,79,207,769.3192924675532,None,769.3192924675532,None,769.3192924675532,None,4,1.7574441749602556,769.3192924675532,None,771.136133296066,None,771.136133296066,None,771.6529150338611,None,771.6529150338611,None,771.6529150338611,None,f,0.03917739633470774,771.6529150338611,None,sing24,001,2019_Nov_07_1309,ProdFawcett_Revision2019,3.2.4,59.94597143601282,
,,,,80,0,80,0,,,,,,,,,,,,,775.5223157305736,None,,,,,,,,,,,,,,,,,,,,,,mayor,C_sing,80,183,772.2533019219991,None,772.2533019219991,None,772.2533019219991,None,6,1.4462443242082372,772.2533019219991,None,773.7257296137977,None,773.7257296137977,None,774.2424391988898,None,774.2424391988898,None,774.2424391988898,None,r,1.2570224544033408,774.2424391988898,None,sing24,001,2019_Nov_07_1309,ProdFawcett_Revision2019,3.2.4,59.94597143601282,
,,,,81,0,81,0,,,,,,,,,,,,,779.1384477826068,None,,,,,,,,,,,,,,,,,,,,,,design,D_new,81,91,776.0389550289838,None,776.0389550289838,None,776.0389550289838,None,5,2.4524936244124547,776.0389550289838,None,778.5449788518017,None,778.5449788518017,None,779.0601589226862,None,779.0601589226862,None,779.0601589226862,None,f,0.031148535199463367,779.0601589226862,None,sing24,001,2019_Nov_07_1309,ProdFawcett_Revision2019,3.2.4,59.94597143601282,
,,,,82,0,82,0,,,,,,,,,,,,,781.340418610489,None,,,,,,,,,,,,,,,,,,,,,,testimony,D_new,82,325,779.6552823910024,None,779.6552823910024,None,779.6552823910024,None,1,1.0840274926740676,779.6552823910024,None,780.7604099023156,None,780.7604099023156,None,781.2744890216272,None,781.2744890216272,None,781.2744890216272,None,n,0.048625054419972,781.2744890216272,None,sing24,001,2019_Nov_07_1309,ProdFawcett_Revision2019,3.2.4,59.94597143601282,
,,,,83,0,83,0,,,,,,,,,,,,,784.2575377869653,None,,,,,,,,,,,,,,,,,,,,,,majority,A_silent,83,176,781.843158238451,None,781.843158238451,None,781.843158238451,None,1,1.672820177860558,781.843158238451,None,783.5731818747008,None,783.5731818747008,None,784.0924025004497,None,784.0924025004497,None,784.0924025004497,None,n,0.13486284750979394,784.0924025004497,None,sing24,001,2019_Nov_07_1309,ProdFawcett_Revision2019,3.2.4,59.94597143601282,
,,,,84,0,84,0,,,,,,,,,,,,,787.241081669461,None,,,,,,,,,,,,,,,,,,,,,,colonel,D_new,84,55,784.7754120794125,None,784.7754120794125,None,784.7754120794125,None,1,1.0760207128478214,784.7754120794125,None,785.8960732723353,None,785.8960732723353,None,786.4242367979605,None,786.4242367979605,None,786.4242367979605,None,n,0.7787721590138972,786.4242367979605,None,sing24,001,2019_Nov_07_1309,ProdFawcett_Revision2019,3.2.4,59.94597143601282,
,,,,85,0,85,0,,,,,,,,,,,,,789.8751184922876,None,,,,,,,,,,,,,,,,,,,,,,surface,C_sing,85,316,787.7593500030925,None,787.7593500030925,None,787.7593500030925,None,6,1.1478522112593055,787.7593500030925,None,788.9581657025265,None,788.9581657025265,None,789.4751113392413,None,789.4751113392413,None,789.4751113392413,None,r,0.3517251352313906,789.4751113392413,None,sing24,001,2019_Nov_07_1309,ProdFawcett_Revision2019,3.2.4,59.94597143601282,
,,,,86,0,86,0,,,,,,,,,,,,,792.2259843253996,None,,,,,,,,,,,,,,,,,,,,,,broad,D_new,86,31,790.3918744168477,None,790.3918744168477,None,790.3918744168477,None,1,1.0917472164146602,790.3918744168477,None,791.53281022585,None,791.53281022585,None,792.0592271568021,None,792.0592271568021,None,792.0592271568021,None,n,0.1195574423763901,792.0592271568021,None,sing24,001,2019_Nov_07_1309,ProdFawcett_Revision2019,3.2.4,59.94597143601282,
,,,,87,0,87,0,,,,,,,,,,,,,794.9637000062503,None,,,,,,,,,,,,,,,,,,,,,,still,B_aloud,87,304,792.7432182620978,None,792.7432182620978,None,792.7432182620978,None,6,1.3082586926175281,792.7432182620978,None,794.1096488772891,None,794.1096488772891,None,794.6266679107212,None,794.6266679107212,None,794.6266679107212,None,f,0.3123141755349934,794.6266679107212,None,sing24,001,2019_Nov_07_1309,ProdFawcett_Revision2019,3.2.4,59.94597143601282,
,,,,88,0,88,0,,,,,,,,,,,,,797.3287597188028,None,,,,,,,,,,,,,,,,,,,,,,permit,D_new,88,218,795.4935233563883,None,795.4935233563883,None,795.4935233563883,None,1,1.2287093363702297,795.4935233563883,None,796.7479511102429,None,796.7479511102429,None,797.264690551674,None,797.264690551674,None,797.264690551674,None,n,0.041506189038045704,797.264690551674,None,sing24,001,2019_Nov_07_1309,ProdFawcett_Revision2019,3.2.4,59.94597143601282,
,,,,89,0,89,0,,,,,,,,,,,,,801.0682708217064,None,,,,,,,,,,,,,,,,,,,,,,whole,C_sing,89,355,797.8465310692554,None,797.8465310692554,None,797.8465310692554,None,6,1.3079234310425818,797.8465310692554,None,799.182727809879,None,799.182727809879,None,799.6952509796247,None,799.6952509796247,None,799.6952509796247,None,r,1.3396149778272957,799.6952509796247,None,sing24,001,2019_Nov_07_1309,ProdFawcett_Revision2019,3.2.4,59.94597143601282,
,,,,90,0,90,0,,,,,,,,,,,,,804.1979277849896,None,,,,,,,,,,,,,,,,,,,,,,industry,B_aloud,90,161,801.5961532002548,None,801.5961532002548,None,801.5961532002548,None,3,1.8538144554477185,801.5961532002548,None,803.5026419729693,None,803.5026419729693,None,804.0301443055505,None,804.0301443055505,None,804.0301443055505,None,f,0.14823536726180464,804.0301443055505,None,sing24,001,2019_Nov_07_1309,ProdFawcett_Revision2019,3.2.4,59.94597143601282,
,,,,91,0,91,0,,,,,,,,,,,,,807.9474702992011,None,,,,,,,,,,,,,,,,,,,,,,report,C_sing,91,259,804.7300783728715,None,804.7300783728715,None,804.7300783728715,None,6,2.2249150961870328,804.7300783728715,None,807.0139456988545,None,807.0139456988545,None,807.5306941593299,None,807.5306941593299,None,807.5306941593299,None,r,0.38355352357029915,807.5306941593299,None,sing24,001,2019_Nov_07_1309,ProdFawcett_Revision2019,3.2.4,59.94597143601282,
,,,,92,0,92,0,,,,,,,,,,,,,810.3482076879591,None,,,,,,,,,,,,,,,,,,,,,,couch,B_aloud,92,70,808.464485289529,None,808.464485289529,None,808.464485289529,None,1,0.9611339180264622,808.464485289529,None,809.481291285716,None,809.481291285716,None,809.9981411333429,None,809.9981411333429,None,809.9981411333429,None,n,0.3088667039992288,809.9981411333429,None,sing24,001,2019_Nov_07_1309,ProdFawcett_Revision2019,3.2.4,59.94597143601282,
,,,,93,0,93,0,,,,,,,,,,,,,812.4321453007869,None,,,,,,,,,,,,,,,,,,,,,,benefit,A_silent,93,20,810.8558698762208,None,810.8558698762208,None,810.8558698762208,None,1,0.8897807426983491,810.8558698762208,None,811.786991354078,None,811.786991354078,None,812.3153405486373,None,812.3153405486373,None,812.3153405486373,None,n,0.07857995899394155,812.3153405486373,None,sing24,001,2019_Nov_07_1309,ProdFawcett_Revision2019,3.2.4,59.94597143601282,
,,,,94,0,94,0,,,,,,,,,,,,,815.3500105740968,None,,,,,,,,,,,,,,,,,,,,,,article,B_aloud,94,11,812.9496799776098,None,812.9496799776098,None,812.9496799776098,None,1,0.9797064128797501,812.9496799776098,None,813.9730811096961,None,813.9730811096961,None,814.500235118554,None,814.500235118554,None,814.500235118554,None,n,0.8058751632925123,814.500235118554,None,sing24,001,2019_Nov_07_1309,ProdFawcett_Revision2019,3.2.4,59.94597143601282,
,,,,95,0,95,0,,,,,,,,,,,,,817.7364206630737,None,,,,,,,,,,,,,,,,,,,,,,society,C_sing,95,293,815.868190893787,None,815.868190893787,None,815.868190893787,None,5,1.2609043975826353,815.868190893787,None,817.1562847546302,None,817.1562847546302,None,817.6718056851532,None,817.6718056851532,None,817.6718056851532,None,f,0.033687877003103495,817.6718056851532,None,sing24,001,2019_Nov_07_1309,ProdFawcett_Revision2019,3.2.4,59.94597143601282,
,,,,96,0,96,0,,,,,,,,,,,,,820.6181234060787,None,,,,,,,,,,,,,,,,,,,,,,count,A_silent,96,72,818.2527865895536,None,818.2527865895536,None,818.2527865895536,None,1,1.588981153210625,818.2527865895536,None,819.8848945698701,None,819.8848945698701,None,820.3922669030726,None,820.3922669030726,None,820.3922669030726,None,n,0.19280431675724685,820.3922669030726,None,sing24,001,2019_Nov_07_1309,ProdFawcett_Revision2019,3.2.4,59.94597143601282,
,,,,97,0,97,0,,,,,,,,,,,,,822.7522208745359,None,,,,,,,,,,,,,,,,,,,,,,bicycle,D_new,97,21,821.1361472911667,None,821.1361472911667,None,821.1361472911667,None,1,1.0165932698873803,821.1361472911667,None,822.1894392610993,None,822.1894392610993,None,822.7047418672591,None,822.7047418672591,None,822.7047418672591,None,n,0.02434502705000341,822.7047418672591,None,sing24,001,2019_Nov_07_1309,ProdFawcett_Revision2019,3.2.4,59.94597143601282,
,,,,98,0,98,0,,,,,,,,,,,,,825.3195188778918,None,,,,,,,,,,,,,,,,,,,,,,country,D_new,98,73,823.2544140698155,None,823.2544140698155,None,823.2544140698155,None,1,0.7944843565346673,823.2544140698155,None,824.1024634571513,None,824.1024634571513,None,824.6191801952664,None,824.6191801952664,None,824.6191801952664,None,n,0.6624174286844209,824.6191801952664,None,sing24,001,2019_Nov_07_1309,ProdFawcett_Revision2019,3.2.4,59.94597143601282,
,,,,99,0,99,0,,,,,,,,,,,,,828.5538735460723,None,,,,,,,,,,,,,,,,,,,,,,raise,D_new,99,250,825.8363485103473,None,825.8363485103473,None,825.8363485103473,None,1,1.4121017602737993,825.8363485103473,None,827.2743437830359,None,827.2743437830359,None,827.7880136219319,None,827.7880136219319,None,827.7880136219319,None,n,0.7328002736903727,827.7880136219319,None,sing24,001,2019_Nov_07_1309,ProdFawcett_Revision2019,3.2.4,59.94597143601282,
,,,,100,0,100,0,,,,,,,,,,,,,831.9380724015646,None,,,,,,,,,,,,,,,,,,,,,,smooth,D_new,100,292,829.0556804751977,None,829.0556804751977,None,829.0556804751977,None,4,2.081226596958004,829.0556804751977,None,831.1617839148967,None,831.1617839148967,None,831.6780702245887,None,831.6780702245887,None,831.6780702245887,None,f,0.21889562730211765,831.6780702245887,None,sing24,001,2019_Nov_07_1309,ProdFawcett_Revision2019,3.2.4,59.94597143601282,
,,,,101,0,101,0,,,,,,,,,,,,,834.2889951483812,None,,,,,,,,,,,,,,,,,,,,,,mankind,B_aloud,101,178,832.4553414816037,None,832.4553414816037,None,832.4553414816037,None,1,1.1613761895569041,832.4553414816037,None,833.6723947253777,None,833.6723947253777,None,834.1888328046771,None,834.1888328046771,None,834.1888328046771,None,n,0.059915718040429056,834.1888328046771,None,sing24,001,2019_Nov_07_1309,ProdFawcett_Revision2019,3.2.4,59.94597143601282,
,,,,102,0,102,0,,,,,,,,,,,,,836.5731852957979,None,,,,,,,,,,,,,,,,,,,,,,dozen,C_sing,102,102,834.8109578901203,None,834.8109578901203,None,834.8109578901203,None,1,0.9412427691277117,834.8109578901203,None,835.8060552341631,None,835.8060552341631,None,836.3134188592667,None,836.3134188592667,None,836.3134188592667,None,n,0.21498102881014347,836.3134188592667,None,sing24,001,2019_Nov_07_1309,ProdFawcett_Revision2019,3.2.4,59.94597143601282,
,,,,103,0,103,0,,,,,,,,,,,,,839.4404649499338,None,,,,,,,,,,,,,,,,,,,,,,beginning,C_sing,103,19,837.0960437271278,None,837.0960437271278,None,837.0960437271278,None,1,1.5686371836345643,837.0960437271278,None,838.7236306525301,None,838.7236306525301,None,839.2404739690246,None,839.2404739690246,None,839.2404739690246,None,n,0.1514424333581701,839.2404739690246,None,sing24,001,2019_Nov_07_1309,ProdFawcett_Revision2019,3.2.4,59.94597143601282,
,,,,104,0,104,0,,,,,,,,,,,,,842.9249589475803,None,,,,,,,,,,,,,,,,,,,,,,accident,C_sing,104,0,839.9591565590817,None,839.9591565590817,None,839.9591565590817,None,5,1.6089665360050276,839.9591565590817,None,841.624434596044,None,841.624434596044,None,842.1413973377785,None,842.1413973377785,None,842.1413973377785,None,f,0.7463867636397481,842.1413973377785,None,sing24,001,2019_Nov_07_1309,ProdFawcett_Revision2019,3.2.4,59.94597143601282,
,,,,105,0,105,0,,,,,,,,,,,,,845.475757915061,None,,,,,,,,,,,,,,,,,,,,,,appeal,B_aloud,105,9,843.4434328543721,None,843.4434328543721,None,843.4434328543721,None,5,1.380305094178766,843.4434328543721,None,844.875778441201,None,844.875778441201,None,845.3924012564821,None,845.3924012564821,None,845.3924012564821,None,f,0.047335323761217296,845.3924012564821,None,sing24,001,2019_Nov_07_1309,ProdFawcett_Revision2019,3.2.4,59.94597143601282,
,,,,106,0,106,0,,,,,,,,,,,,,847.8598168190802,None,,,,,,,,,,,,,,,,,,,,,,figure,D_new,106,128,845.9927856565919,None,845.9927856565919,None,845.9927856565919,None,1,1.127409031498246,845.9927856565919,None,847.1761364060221,None,847.1761364060221,None,847.693147042417,None,847.693147042417,None,847.693147042417,None,n,0.13045375375077128,847.693147042417,None,sing24,001,2019_Nov_07_1309,ProdFawcett_Revision2019,3.2.4,59.94597143601282,
,,,,107,0,107,0,,,,,,,,,,,,,850.7273891273653,None,,,,,,,,,,,,,,,,,,,,,,finance,C_sing,107,129,848.3775471169502,None,848.3775471169502,None,848.3775471169502,None,6,1.2377561111934483,848.3775471169502,None,849.6774724762654,None,849.6774724762654,None,850.1945185669465,None,850.1945185669465,None,850.1945185669465,None,r,0.493139578262344,850.1945185669465,None,sing24,001,2019_Nov_07_1309,ProdFawcett_Revision2019,3.2.4,59.94597143601282,
,,,,108,0,108,0,,,,,,,,,,,,,854.1118209243286,None,,,,,,,,,,,,,,,,,,,,,,chief,A_silent,108,48,851.2451579896733,None,851.2451579896733,None,851.2451579896733,None,1,0.9460110717918724,851.2451579896733,None,852.2443820365006,None,852.2443820365006,None,852.7456325807143,None,852.7456325807143,None,852.7456325807143,None,n,1.3334984760731459,852.7456325807143,None,sing24,001,2019_Nov_07_1309,ProdFawcett_Revision2019,3.2.4,59.94597143601282,
,,,,109,0,109,0,,,,,,,,,,,,,857.5627047956223,None,,,,,,,,,,,,,,,,,,,,,,fight,D_new,109,127,854.6291876593605,None,854.6291876593605,None,854.6291876593605,None,5,2.1295300740748644,854.6291876593605,None,856.7835911550792,None,856.7835911550792,None,857.2969468806405,None,857.2969468806405,None,857.2969468806405,None,f,0.23009392293170094,857.2969468806405,None,sing24,001,2019_Nov_07_1309,ProdFawcett_Revision2019,3.2.4,59.94597143601282,
,,,,110,0,110,0,,,,,,,,,,,,,860.496967406827,None,,,,,,,,,,,,,,,,,,,,,,force,A_silent,110,131,858.0801520806272,None,858.0801520806272,None,858.0801520806272,None,5,1.7345621073618531,858.0801520806272,None,859.8802183243679,None,859.8802183243679,None,860.3970877651591,None,860.3970877651591,None,860.3970877651591,None,f,0.06615755427628756,860.3970877651591,None,sing24,001,2019_Nov_07_1309,ProdFawcett_Revision2019,3.2.4,59.94597143601282,
,,,,111,0,111,0,,,,,,,,,,,,,865.4985961311031,None,,,,,,,,,,,,,,,,,,,,,,light,C_sing,111,171,861.0141214156756,None,861.0141214156756,None,861.0141214156756,None,1,1.3044289980316535,861.0141214156756,None,862.3814981029136,None,862.3814981029136,None,862.8982120420551,None,862.8982120420551,None,862.8982120420551,None,f,2.556984823080711,862.8982120420551,None,sing24,001,2019_Nov_07_1309,ProdFawcett_Revision2019,3.2.4,59.94597143601282,
,,,,112,0,112,0,,,,,,,,,,,,,869.5497816756833,None,,,,,,,,,,,,,,,,,,,,,,month,D_new,112,193,866.0166564035462,None,866.0166564035462,None,866.0166564035462,None,1,2.46186259877868,866.0166564035462,None,868.5328089818358,None,868.5328089818358,None,869.0496230639983,None,869.0496230639983,None,869.0496230639983,None,n,0.4609908565180376,869.0496230639983,None,sing24,001,2019_Nov_07_1309,ProdFawcett_Revision2019,3.2.4,59.94597143601282,
,,,,113,0,113,0,,,,,,,,,,,,,873.1676764943404,None,,,,,,,,,,,,,,,,,,,,,,crime,B_aloud,113,78,870.066526715178,None,870.066526715178,None,870.066526715178,None,6,1.6840306026861072,870.066526715178,None,871.8005759781227,None,871.8005759781227,None,872.3172995584318,None,872.3172995584318,None,872.3172995584318,None,r,0.8094361510593444,872.3172995584318,None,sing24,001,2019_Nov_07_1309,ProdFawcett_Revision2019,3.2.4,59.94597143601282,
,,,,114,0,114,0,,,,,,,,,,,,,876.2050108851399,None,,,,,,,,,,,,,,,,,,,,,,military,D_new,114,190,873.6860878895968,None,873.6860878895968,None,873.6860878895968,None,1,1.1517559245694429,873.6860878895968,None,874.9014561173972,None,874.9014561173972,None,875.418435342377,None,875.418435342377,None,875.418435342377,None,n,0.7559429618995637,875.418435342377,None,sing24,001,2019_Nov_07_1309,ProdFawcett_Revision2019,3.2.4,59.94597143601282,
,,,,115,0,115,0,,,,,,,,,,,,,879.1364346581977,None,,,,,,,,,,,,,,,,,,,,,,right,D_new,115,265,876.7354814331047,None,876.7354814331047,None,876.7354814331047,None,1,1.1106232505990192,876.7354814331047,None,877.9026895564748,None,877.9026895564748,None,878.4192865584046,None,878.4192865584046,None,878.4192865584046,None,n,0.6752879890846089,878.4192865584046,None,sing24,001,2019_Nov_07_1309,ProdFawcett_Revision2019,3.2.4,59.94597143601282,
,,,,116,0,116,0,,,,,,,,,,,,,882.6873623810243,None,,,,,,,,,,,,,,,,,,,,,,cover,D_new,116,77,879.6535553897265,None,879.6535553897265,None,879.6535553897265,None,4,1.8162427691277117,879.6535553897265,None,881.5043098836904,None,881.5043098836904,None,882.020432605641,None,882.020432605641,None,882.020432605641,None,f,0.6256562169874087,882.020432605641,None,sing24,001,2019_Nov_07_1309,ProdFawcett_Revision2019,3.2.4,59.94597143601282,
,,,,117,0,117,0,,,,,,,,,,,,,885.2713985817973,None,,,,,,,,,,,,,,,,,,,,,,volume,D_new,117,349,883.1935628537321,None,883.1935628537321,None,883.1935628537321,None,1,1.30775704421103,883.1935628537321,None,884.5543860795442,None,884.5543860795442,None,885.0714023138862,None,885.0714023138862,None,885.0714023138862,None,n,0.16639951476827264,885.0714023138862,None,sing24,001,2019_Nov_07_1309,ProdFawcett_Revision2019,3.2.4,59.94597143601282,
,,,,118,0,118,0,,,,,,,,,,,,,887.58873328357,None,,,,,,,,,,,,,,,,,,,,,,enemy,D_new,118,113,885.7881806307705,None,885.7881806307705,None,885.7881806307705,None,1,1.0335208683973178,885.7881806307705,None,886.8718793928856,None,886.8718793928856,None,887.3886987621663,None,887.3886987621663,None,887.3886987621663,None,n,0.15240187849849463,887.3886987621663,None,sing24,001,2019_Nov_07_1309,ProdFawcett_Revision2019,3.2.4,59.94597143601282,
,,,,119,0,119,0,,,,,,,,,,,,,890.2895247869892,None,,,,,,,,,,,,,,,,,,,,,,error,D_new,119,117,888.1061261428986,None,888.1061261428986,None,888.1061261428986,None,1,1.515144616481848,888.1061261428986,None,889.6598224170739,None,889.6598224170739,None,890.1894955526805,None,890.1894955526805,None,890.1894955526805,None,n,0.0633834048639983,890.1894955526805,None,sing24,001,2019_Nov_07_1309,ProdFawcett_Revision2019,3.2.4,59.94597143601282,
,,,,120,0,120,0,,,,,,,,,,,,,893.1412303290563,None,,,,,,,,,,,,,,,,,,,,,,degree,D_new,120,89,890.8065030789003,None,890.8065030789003,None,890.8065030789003,None,1,1.7022218074416742,890.8065030789003,None,892.573649001657,None,892.573649001657,None,893.0753924861783,None,893.0753924861783,None,893.0753924861783,None,n,0.03326149156782776,893.0753924861783,None,sing24,001,2019_Nov_07_1309,ProdFawcett_Revision2019,3.2.4,59.94597143601282,
,,,,121,0,121,0,,,,,,,,,,,,,896.3080711575458,None,,,,,,,,,,,,,,,,,,,,,,tennis,A_silent,121,323,893.6578105367953,None,893.6578105367953,None,893.6578105367953,None,6,1.2272805871907622,893.6578105367953,None,894.9409526031232,None,894.9409526031232,None,895.4579131678911,None,895.4579131678911,None,895.4579131678911,None,r,0.8026827144203708,895.4579131678911,None,sing24,001,2019_Nov_07_1309,ProdFawcett_Revision2019,3.2.4,59.94597143601282,
,,,,122,0,122,0,,,,,,,,,,,,,899.0923853953136,None,,,,,,,,,,,,,,,,,,,,,,surprise,D_new,122,317,896.8249066990102,None,896.8249066990102,None,896.8249066990102,None,1,1.1875981215853244,896.8249066990102,None,898.075386577053,None,898.075386577053,None,898.5920886981767,None,898.5920886981767,None,898.5920886981767,None,n,0.45248740434180945,898.5920886981767,None,sing24,001,2019_Nov_07_1309,ProdFawcett_Revision2019,3.2.4,59.94597143601282,
,,,,123,0,123,0,,,,,,,,,,,,,902.4932835728396,None,,,,,,,,,,,,,,,,,,,,,,detective,D_new,123,92,899.6108468619641,None,899.6108468619641,None,899.6108468619641,None,1,1.3775611121673137,899.6108468619641,None,901.0312135348795,None,901.0312135348795,None,901.5597073459066,None,901.5597073459066,None,901.5597073459066,None,n,0.9006322696805,901.5597073459066,None,sing24,001,2019_Nov_07_1309,ProdFawcett_Revision2019,3.2.4,59.94597143601282,
,,,,124,0,124,0,,,,,,,,,,,,,905.1607846613042,None,,,,,,,,,,,,,,,,,,,,,,research,B_aloud,124,261,903.0109998756088,None,903.0109998756088,None,903.0109998756088,None,6,1.2255380356218666,903.0109998756088,None,904.2781165640336,None,904.2781165640336,None,904.7941217266489,None,904.7941217266489,None,904.7941217266489,None,r,0.32270790566690266,904.7941217266489,None,sing24,001,2019_Nov_07_1309,ProdFawcett_Revision2019,3.2.4,59.94597143601282,
,,,,125,0,125,0,,,,,,,,,,,,,907.5952655968722,None,,,,,,,,,,,,,,,,,,,,,,entrance,B_aloud,125,115,905.6802422716282,None,905.6802422716282,None,905.6802422716282,None,6,1.0837382596218958,905.6802422716282,None,906.8177032406675,None,906.8177032406675,None,907.3449262921931,None,907.3449262921931,None,907.3449262921931,None,r,0.20302917202934623,907.3449262921931,None,sing24,001,2019_Nov_07_1309,ProdFawcett_Revision2019,3.2.4,59.94597143601282,
,,,,126,0,126,0,,,,,,,,,,,,,910.0628021396697,None,,,,,,,,,,,,,,,,,,,,,,taste,D_new,126,322,908.1120218324941,None,908.1120218324941,None,908.1120218324941,None,1,1.083816010504961,908.1120218324941,None,909.2454102133634,None,909.2454102133634,None,909.7623362567974,None,909.7623362567974,None,909.7623362567974,None,n,0.2581358462339267,909.7623362567974,None,sing24,001,2019_Nov_07_1309,ProdFawcett_Revision2019,3.2.4,59.94597143601282,
,,,,127,0,127,0,,,,,,,,,,,,,913.1633936680155,None,,,,,,,,,,,,,,,,,,,,,,threat,A_silent,127,329,910.5796439012047,None,910.5796439012047,None,910.5796439012047,None,6,1.8567266903119162,910.5796439012047,None,912.486630279338,None,912.486630279338,None,913.0133619456319,None,913.0133619456319,None,913.0133619456319,None,f,0.11067736521363258,913.0133619456319,None,sing24,001,2019_Nov_07_1309,ProdFawcett_Revision2019,3.2.4,59.94597143601282,
,,,,128,0,128,0,,,,,,,,,,,,,916.6144591652555,None,,,,,,,,,,,,,,,,,,,,,,sight,D_new,128,286,913.6802584436955,None,913.6802584436955,None,913.6802584436955,None,1,1.1408714312128723,913.6802584436955,None,914.8804910741746,None,914.8804910741746,None,915.3973207066301,None,915.3973207066301,None,915.3973207066301,None,n,1.1824491509469226,915.3973207066301,None,sing24,001,2019_Nov_07_1309,ProdFawcett_Revision2019,3.2.4,59.94597143601282,
,,,,129,0,129,0,,,,,,,,,,,,,919.4820121913217,None,,,,,,,,,,,,,,,,,,,,,,angle,C_sing,129,7,917.1354086583015,None,917.1354086583015,None,917.1354086583015,None,6,1.2527753934264183,917.1354086583015,None,918.448428189382,None,918.448428189382,None,918.9650503825396,None,918.9650503825396,None,918.9650503825396,None,f,0.47866641788277775,918.9650503825396,None,sing24,001,2019_Nov_07_1309,ProdFawcett_Revision2019,3.2.4,59.94597143601282,
,,,,130,0,130,0,,,,,,,,,,,,,922.1993982086424,None,,,,,,,,,,,,,,,,,,,,,,notice,D_new,130,201,919.998995770351,None,919.998995770351,None,919.998995770351,None,1,1.284182683331892,919.998995770351,None,921.3324917583959,None,921.3324917583959,None,921.8494389500702,None,921.8494389500702,None,921.8494389500702,None,n,0.3063258071197197,921.8494389500702,None,sing24,001,2019_Nov_07_1309,ProdFawcett_Revision2019,3.2.4,59.94597143601282,
,,,,131,0,131,0,,,,,,,,,,,,,925.0072827641852,None,,,,,,,,,,,,,,,,,,,,,,murder,D_new,131,195,922.7162119798595,None,922.7162119798595,None,922.7162119798595,None,1,1.711074516410008,922.7162119798595,None,924.466765876743,None,924.466765876743,None,924.9719058282208,None,924.9719058282208,None,924.9719058282208,None,n,0.007780058542266488,924.9719058282208,None,sing24,001,2019_Nov_07_1309,ProdFawcett_Revision2019,3.2.4,59.94597143601282,
,,,,132,0,132,0,,,,,,,,,,,,,926.9842019655043,None,,,,,,,,,,,,,,,,,,,,,,worker,D_new,132,356,925.5204071033513,None,925.5204071033513,None,925.5204071033513,None,1,0.8663245630450547,925.5204071033513,None,926.4214113330236,None,926.4214113330236,None,926.9407380108023,None,926.9407380108023,None,926.9407380108023,None,n,0.007000062149018049,926.9407380108023,None,sing24,001,2019_Nov_07_1309,ProdFawcett_Revision2019,3.2.4,59.94597143601282,
,,,,133,0,133,0,,,,,,,,,,,,,929.9853237544885,None,,,,,,,,,,,,,,,,,,,,,,drama,B_aloud,133,103,927.5014094669605,None,927.5014094669605,None,927.5014094669605,None,6,1.2058627230580896,927.5014094669605,None,928.7682353672571,None,928.7682353672571,None,929.2849188281689,None,929.2849188281689,None,929.2849188281689,None,r,0.6621536978054792,929.2849188281689,None,sing24,001,2019_Nov_07_1309,ProdFawcett_Revision2019,3.2.4,59.94597143601282,
,,,,134,0,134,0,,,,,,,,,,,,,932.3911550662015,None,,,,,,,,,,,,,,,,,,,,,,turkey,D_new,134,342,930.4918874789728,None,930.4918874789728,None,930.4918874789728,None,1,0.8947089009452611,930.4918874789728,None,931.4523138644872,None,931.4523138644872,None,931.969052994973,None,931.969052994973,None,931.969052994973,None,n,0.3938881631474942,931.969052994973,None,sing24,001,2019_Nov_07_1309,ProdFawcett_Revision2019,3.2.4,59.94597143601282,
,,,,135,0,135,0,,,,,,,,,,,,,934.4531899607973,None,,,,,,,,,,,,,,,,,,,,,,solution,D_new,135,294,932.919564595446,None,932.919564595446,None,932.919564595446,None,1,0.8918063071323559,932.919564595446,None,933.8698354793014,None,933.8698354793014,None,934.3865348012187,None,934.3865348012187,None,934.3865348012187,None,n,0.032472165185026824,934.3865348012187,None,sing24,001,2019_Nov_07_1309,ProdFawcett_Revision2019,3.2.4,59.94597143601282,
,,,,136,0,136,0,,,,,,,,,,,,,936.7722513529006,None,,,,,,,,,,,,,,,,,,,,,,blind,A_silent,136,24,934.9702369845472,None,934.9702369845472,None,934.9702369845472,None,6,1.1680344592314214,934.9702369845472,None,936.1871891522314,None,936.1871891522314,None,936.7040719661163,None,936.7040719661163,None,936.7040719661163,None,r,0.042360203922726214,936.7040719661163,None,sing24,001,2019_Nov_07_1309,ProdFawcett_Revision2019,3.2.4,59.94597143601282,
,,,,137,0,137,0,,,,,,,,,,,,,938.9049483734416,None,,,,,,,,,,,,,,,,,,,,,,quarter,D_new,137,246,937.3044719164027,None,937.3044719164027,None,937.3044719164027,None,1,0.9382216831436381,937.3044719164027,None,938.3043932325672,None,938.3043932325672,None,938.82266343222,None,938.82266343222,None,938.82266343222,None,n,0.035474280128255486,938.82266343222,None,sing24,001,2019_Nov_07_1309,ProdFawcett_Revision2019,3.2.4,59.94597143601282,
,,,,138,0,138,0,,,,,,,,,,,,,941.6555632270174,None,,,,,,,,,,,,,,,,,,,,,,department,C_sing,138,90,939.4224538160488,None,939.4224538160488,None,939.4224538160488,None,5,1.4516853268723935,939.4224538160488,None,940.9272631709464,None,940.9272631709464,None,941.4401150712511,None,941.4401150712511,None,941.4401150712511,None,f,0.1779595073312521,941.4401150712511,None,sing24,001,2019_Nov_07_1309,ProdFawcett_Revision2019,3.2.4,59.94597143601282,
,,,,139,0,139,0,,,,,,,,,,,,,944.339672513539,None,,,,,,,,,,,,,,,,,,,,,,grade,A_silent,139,140,942.1730926168384,None,942.1730926168384,None,942.1730926168384,None,5,1.4053725820267573,942.1730926168384,None,943.6267605896574,None,943.6267605896574,None,944.1562060707947,None,944.1562060707947,None,944.1562060707947,None,f,0.1499925359385088,944.1562060707947,None,sing24,001,2019_Nov_07_1309,ProdFawcett_Revision2019,3.2.4,59.94597143601282,
,,,,140,0,140,0,,,,,,,,,,,,,946.8570159233641,None,,,,,,,,,,,,,,,,,,,,,,staff,D_new,140,301,944.8408655221574,None,944.8408655221574,None,944.8408655221574,None,1,0.9449505504453555,944.8408655221574,None,945.8401303103892,None,945.8401303103892,None,946.357367046061,None,946.357367046061,None,946.357367046061,None,n,0.4607694222358987,946.357367046061,None,sing24,001,2019_Nov_07_1309,ProdFawcett_Revision2019,3.2.4,59.94597143601282,
,,,,141,0,141,0,,,,,,,,,,,,,948.8743963425513,None,,,,,,,,,,,,,,,,,,,,,,short,D_new,141,285,947.3738617278868,None,947.3738617278868,None,947.3738617278868,None,1,0.8116806618636474,947.3738617278868,None,948.2112004727824,None,948.2112004727824,None,948.7302267213818,None,948.7302267213818,None,948.7302267213818,None,n,0.10368010203819722,948.7302267213818,None,sing24,001,2019_Nov_07_1309,ProdFawcett_Revision2019,3.2.4,59.94597143601282,
,,,,142,0,142,0,,,,,,,,,,,,,951.0094003856648,None,,,,,,,,,,,,,,,,,,,,,,hearing,D_new,142,150,949.3760315979598,None,949.3760315979598,None,949.3760315979598,None,1,1.0101838029222563,949.3760315979598,None,950.4248432543827,None,950.4248432543827,None,950.9415966909146,None,950.9415966909146,None,950.9415966909146,None,n,0.043880388140678406,950.9415966909146,None,sing24,001,2019_Nov_07_1309,ProdFawcett_Revision2019,3.2.4,59.94597143601282,
,,,,143,0,143,0,,,,,,,,,,,,,954.109644212178,None,,,,,,,,,,,,,,,,,,,,,,emergency,D_new,143,110,951.5154596628854,None,951.5154596628854,None,951.5154596628854,None,1,1.0298696896061301,951.5154596628854,None,952.5983519934816,None,952.5983519934816,None,953.1256157865282,None,953.1256157865282,None,953.1256157865282,None,n,0.9411090377252549,953.1256157865282,None,sing24,001,2019_Nov_07_1309,ProdFawcett_Revision2019,3.2.4,59.94597143601282,
,,,,144,0,144,0,,,,,,,,,,,,,957.4436642408837,None,,,,,,,,,,,,,,,,,,,,,,device,B_aloud,144,93,954.6115133420099,None,954.6115133420099,None,954.6115133420099,None,4,1.8459768613101915,954.6115133420099,None,956.4984471605858,None,956.4984471605858,None,957.0268274553819,None,957.0268274553819,None,957.0268274553819,None,f,0.38290881377179176,957.0268274553819,None,sing24,001,2019_Nov_07_1309,ProdFawcett_Revision2019,3.2.4,59.94597143601282,
,,,,145,0,145,0,,,,,,,,,,,,,960.3446709584678,None,,,,,,,,,,,,,,,,,,,,,,voice,B_aloud,145,348,957.9605218635406,None,957.9605218635406,None,957.9605218635406,None,6,1.193129315157421,957.9605218635406,None,959.1982502954779,None,959.1982502954779,None,959.7276761833346,None,959.7276761833346,None,959.7276761833346,None,r,0.5778926416533068,959.7276761833346,None,sing24,001,2019_Nov_07_1309,ProdFawcett_Revision2019,3.2.4,59.94597143601282,
,,,,146,0,146,0,,,,,,,,,,,,,963.846936928574,None,,,,,,,,,,,,,,,,,,,,,,suggestion,B_aloud,146,314,960.8640791192884,None,960.8640791192884,None,960.8640791192884,None,5,1.873508428223431,960.8640791192884,None,962.7953993282281,None,962.7953993282281,None,963.3123555389466,None,963.3123555389466,None,963.3123555389466,None,f,0.5050845929654315,963.3123555389466,None,sing24,001,2019_Nov_07_1309,ProdFawcett_Revision2019,3.2.4,59.94597143601282,
,,,,147,0,147,0,,,,,,,,,,,,,967.5300858368864,None,,,,,,,,,,,,,,,,,,,,,,space,B_aloud,147,297,964.3633355103666,None,964.3633355103666,None,964.3633355103666,None,4,2.4776077626738697,964.3633355103666,None,966.8967332213651,None,966.8967332213651,None,967.4134188592434,None,967.4134188592434,None,967.4134188592434,None,f,0.08363936049863696,967.4134188592434,None,sing24,001,2019_Nov_07_1309,ProdFawcett_Revision2019,3.2.4,59.94597143601282,
,,,,148,0,148,0,,,,,,,,,,,,,970.4311236549402,None,,,,,,,,,,,,,,,,,,,,,,career,A_silent,148,42,968.0471938172122,None,968.0471938172122,None,968.0471938172122,None,1,1.6814872176619247,968.0471938172122,None,969.7808984884759,None,969.7808984884759,None,970.2977066617459,None,970.2977066617459,None,970.2977066617459,None,n,0.08659544691909105,970.2977066617459,None,sing24,001,2019_Nov_07_1309,ProdFawcett_Revision2019,3.2.4,59.94597143601282,
,,,,149,0,149,0,,,,,,,,,,,,,972.9176637432538,None,,,,,,,,,,,,,,,,,,,,,,under,B_aloud,149,343,970.9489954593591,None,970.9489954593591,None,970.9489954593591,None,1,1.059661628329195,970.9489954593591,None,972.0649032780202,None,972.0649032780202,None,972.5818479815498,None,972.5818479815498,None,972.5818479815498,None,n,0.30701685638632625,972.5818479815498,None,sing24,001,2019_Nov_07_1309,ProdFawcett_Revision2019,3.2.4,59.94597143601282,
,,,,150,0,150,0,,,,,,,,,,,,,975.7159743733937,None,,,,,,,,,,,,,,,,,,,,,,foundation,D_new,150,132,973.4498603595421,None,973.4498603595421,None,973.4498603595421,None,5,1.66224979783874,973.4498603595421,None,975.1516675996827,None,975.1516675996827,None,975.6504285625415,None,975.6504285625415,None,975.6504285625415,None,f,0.022249797941185534,975.6504285625415,None,sing24,001,2019_Nov_07_1309,ProdFawcett_Revision2019,3.2.4,59.94597143601282,
,,,,151,0,151,0,,,,,,,,,,,,,978.3508163836086,None,,,,,,,,,,,,,,,,,,,,,,stranger,D_new,151,309,976.2184157492593,None,976.2184157492593,None,976.2184157492593,None,1,1.13348168192897,976.2184157492593,None,977.406280711526,None,977.406280711526,None,977.9198208621237,None,977.9198208621237,None,977.9198208621237,None,n,0.3923340797191486,977.9198208621237,None,sing24,001,2019_Nov_07_1309,ProdFawcett_Revision2019,3.2.4,59.94597143601282,
,,,,152,0,152,0,,,,,,,,,,,,,980.9350572245894,None,,,,,,,,,,,,,,,,,,,,,,pattern,D_new,152,214,978.8678708714433,None,978.8678708714433,None,978.8678708714433,None,1,1.4761995397275314,978.8678708714433,None,980.4009578902042,None,980.4009578902042,None,980.902151831775,None,980.902151831775,None,980.902151831775,None,n,0.009842010331340134,980.902151831775,None,sing24,001,2019_Nov_07_1309,ProdFawcett_Revision2019,3.2.4,59.94597143601282,
,,,,153,0,153,0,,,,,,,,,,,,,984.0687046712264,None,,,,,,,,,,,,,,,,,,,,,,childhood,A_silent,153,49,981.4523695341777,None,981.4523695341777,None,981.4523695341777,None,1,1.1478817565366626,981.4523695341777,None,982.6374668781646,None,982.6374668781646,None,983.152274678112,None,983.152274678112,None,983.152274678112,None,n,0.87159824592527,983.152274678112,None,sing24,001,2019_Nov_07_1309,ProdFawcett_Revision2019,3.2.4,59.94597143601282,
,,,,154,0,154,0,,,,,,,,,,,,,986.8715724326903,None,,,,,,,,,,,,,,,,,,,,,,management,C_sing,154,177,984.5725225477945,None,984.5725225477945,None,984.5725225477945,None,4,1.6429392922436818,984.5725225477945,None,986.2591503390577,None,986.2591503390577,None,986.7872753001284,None,986.7872753001284,None,986.7872753001284,None,f,0.05196833983063698,986.7872753001284,None,sing24,001,2019_Nov_07_1309,ProdFawcett_Revision2019,3.2.4,59.94597143601282,
,,,,155,0,155,0,,,,,,,,,,,,,989.5708129626,None,,,,,,,,,,,,,,,,,,,,,,center,A_silent,155,44,987.403272376745,None,987.403272376745,None,987.403272376745,None,5,1.1800936119398102,987.403272376745,None,988.6254235864617,None,988.6254235864617,None,989.153621944366,None,989.153621944366,None,989.153621944366,None,f,0.38195589976385236,989.153621944366,None,sing24,001,2019_Nov_07_1309,ProdFawcett_Revision2019,3.2.4,59.94597143601282,
