StudyTrials.thisRepN,StudyTrials.thisTrialN,StudyTrials.thisN,StudyTrials.thisIndex,TestTrials.thisRepN,TestTrials.thisTrialN,TestTrials.thisN,TestTrials.thisIndex,textWelcome.started,textWelcome.stopped,keyWelcome.keys,keyWelcome.rt,keyWelcome.started,keyWelcome.stopped,textReady.started,textReady.stopped,keyReady.keys,keyReady.rt,keyReady.started,keyReady.stopped,polyback_2.started,polyback_2.stopped,studyPic,studyWord,studyType,studyN,studyOrder,polyback_3.started,polyback_3.stopped,studyPicChoice.started,studyPicChoice.stopped,polyback_4.started,polyback_4.stopped,polyback.started,polyback.stopped,studyWords.started,studyWords.stopped,getResearcher.started,getResearcher.stopped,kPress2.keys,kPress2.rt,kPress2.started,kPress2.stopped,testWord,testType,testN,testOrder,polyback_5.started,polyback_5.stopped,testWords.started,testWords.stopped,textScale.started,textScale.stopped,keyConf.keys,keyConf.rt,keyConf.started,keyConf.stopped,polyback_6.started,polyback_6.stopped,studyWords_2.started,studyWords_2.stopped,polyback_7.started,polyback_7.stopped,testWords_2.started,testWords_2.stopped,textScale_2.started,textScale_2.stopped,keyRKN.keys,keyRKN.rt,keyRKN.started,keyRKN.stopped,participant,session,date,expName,psychopyVersion,frameRate,
,,,,,,,,9.918299605720676,None,space,381.5484109536046,9.918299605720676,None,,,,,,,,,,,,,,,,,,,,,,,,,,,,,,,,,,,,,,,,,,,,,,,,,,,,,,,,,,sing4,001,2019_Oct_22_1625,ProdFawcett_Revision2019,3.2.4,60.04483635894939,
,,,,,,,,,,,,,,391.48366791394074,None,space,6.285917014232837,391.48366791394074,None,,,,,,,,,,,,,,,,,,,,,,,,,,,,,,,,,,,,,,,,,,,,,,,,,,,,sing4,001,2019_Oct_22_1625,ProdFawcett_Revision2019,3.2.4,60.04483635894939,
0,0,0,0,,,,,,,,,,,,,,,,,402.57017234771047,None,materials/readPic.jpg,track,A_silent,0,334,398.9020650186576,None,398.9020650186576,None,399.8205048859818,None,400.0859797743615,None,400.0859797743615,None,,,,,,,,,,,,,,,,,,,,,,,,,,,,,,,,,,,sing4,001,2019_Oct_22_1625,ProdFawcett_Revision2019,3.2.4,60.04483635894939,
1,0,1,0,,,,,,,,,,,,,,,,,406.83815577381756,None,materials/readPic.jpg,guard,A_silent,1,145,403.1563814856345,None,403.1563814856345,None,404.08732920966577,None,404.35394049738534,None,404.35394049738534,None,,,,,,,,,,,,,,,,,,,,,,,,,,,,,,,,,,,sing4,001,2019_Oct_22_1625,ProdFawcett_Revision2019,3.2.4,60.04483635894939,
2,0,2,0,,,,,,,,,,,,,,,,,411.1061267598998,None,materials/singPic.jpg,shape,C_sing,2,282,407.4562581112841,None,407.4562581112841,None,408.35530952573754,None,408.62193480855785,None,408.62193480855785,None,,,,,,,,,,,,,,,,,,,,,,,,,,,,,,,,,,,sing4,001,2019_Oct_22_1625,ProdFawcett_Revision2019,3.2.4,60.04483635894939,
3,0,3,0,,,,,,,,,,,,,,,,,415.37410147790797,None,materials/speakPic.jpg,country,B_aloud,3,73,411.7244427553378,None,411.7244427553378,None,412.6231878333492,None,412.8898908664705,None,412.8898908664705,None,,,,,,,,,,,,,,,,,,,,,,,,,,,,,,,,,,,sing4,001,2019_Oct_22_1625,ProdFawcett_Revision2019,3.2.4,60.04483635894939,
4,0,4,0,,,,,,,,,,,,,,,,,419.64215487940237,None,materials/singPic.jpg,power,C_sing,4,230,415.9777033724822,None,415.9777033724822,None,416.8913286261959,None,417.1578232883476,None,417.1578232883476,None,,,,,,,,,,,,,,,,,,,,,,,,,,,,,,,,,,,sing4,001,2019_Oct_22_1625,ProdFawcett_Revision2019,3.2.4,60.04483635894939,
5,0,5,0,,,,,,,,,,,,,,,,,423.90999431186356,None,materials/readPic.jpg,mechanical,A_silent,5,185,420.24941010796465,None,420.24941010796465,None,421.1610648565693,None,421.42576846131124,None,421.42576846131124,None,,,,,,,,,,,,,,,,,,,,,,,,,,,,,,,,,,,sing4,001,2019_Oct_22_1625,ProdFawcett_Revision2019,3.2.4,60.04483635894939,
6,0,6,0,,,,,,,,,,,,,,,,,428.1779565898469,None,materials/speakPic.jpg,story,B_aloud,6,306,424.51142199512105,None,424.51142199512105,None,425.42714806378353,None,425.6938100446714,None,425.6938100446714,None,,,,,,,,,,,,,,,,,,,,,,,,,,,,,,,,,,,sing4,001,2019_Oct_22_1625,ProdFawcett_Revision2019,3.2.4,60.04483635894939,
7,0,7,0,,,,,,,,,,,,,,,,,432.4459297528956,None,materials/speakPic.jpg,health,B_aloud,7,149,428.74699160514865,None,428.74699160514865,None,429.6951333559118,None,429.96182674798183,None,429.96182674798183,None,,,,,,,,,,,,,,,,,,,,,,,,,,,,,,,,,,,sing4,001,2019_Oct_22_1625,ProdFawcett_Revision2019,3.2.4,60.04483635894939,
8,0,8,0,,,,,,,,,,,,,,,,,436.71389016485773,None,materials/singPic.jpg,council,C_sing,8,71,433.0471251180861,None,433.0471251180861,None,433.9630894139409,None,434.2297106536571,None,434.2297106536571,None,,,,,,,,,,,,,,,,,,,,,,,,,,,,,,,,,,,sing4,001,2019_Oct_22_1625,ProdFawcett_Revision2019,3.2.4,60.04483635894939,
9,0,9,0,,,,,,,,,,,,,,,,,440.98185617488343,None,materials/singPic.jpg,running,C_sing,9,268,437.30107926845085,None,437.30107926845085,None,438.2310719069792,None,438.4976368554635,None,438.4976368554635,None,,,,,,,,,,,,,,,,,,,,,,,,,,,,,,,,,,,sing4,001,2019_Oct_22_1625,ProdFawcett_Revision2019,3.2.4,60.04483635894939,
10,0,10,0,,,,,,,,,,,,,,,,,445.2498346250504,None,materials/singPic.jpg,member,C_sing,10,188,441.5659626319539,None,441.5659626319539,None,442.4990923422156,None,442.76561592752114,None,442.76561592752114,None,,,,,,,,,,,,,,,,,,,,,,,,,,,,,,,,,,,sing4,001,2019_Oct_22_1625,ProdFawcett_Revision2019,3.2.4,60.04483635894939,
11,0,11,0,,,,,,,,,,,,,,,,,449.5177586498903,None,materials/readPic.jpg,tennis,A_silent,11,323,445.8852519687498,None,445.8852519687498,None,446.7670418692287,None,447.0336074397201,None,447.0336074397201,None,,,,,,,,,,,,,,,,,,,,,,,,,,,,,,,,,,,sing4,001,2019_Oct_22_1625,ProdFawcett_Revision2019,3.2.4,60.04483635894939,
12,0,12,0,,,,,,,,,,,,,,,,,453.78576291305944,None,materials/speakPic.jpg,problem,B_aloud,12,238,450.1406827539904,None,450.1406827539904,None,451.0349786451552,None,451.3015572776785,None,451.3015572776785,None,,,,,,,,,,,,,,,,,,,,,,,,,,,,,,,,,,,sing4,001,2019_Oct_22_1625,ProdFawcett_Revision2019,3.2.4,60.04483635894939,
13,0,13,0,,,,,,,,,,,,,,,,,458.0537009330001,None,materials/singPic.jpg,distance,C_sing,13,100,454.3943380318815,None,454.3943380318815,None,455.3029651812976,None,455.5695472348016,None,455.5695472348016,None,,,,,,,,,,,,,,,,,,,,,,,,,,,,,,,,,,,sing4,001,2019_Oct_22_1625,ProdFawcett_Revision2019,3.2.4,60.04483635894939,
14,0,14,0,,,,,,,,,,,,,,,,,462.32168902410194,None,materials/speakPic.jpg,figure,B_aloud,14,128,458.6425159521168,None,458.6425159521168,None,459.5708655699855,None,459.83748774265405,None,459.83748774265405,None,,,,,,,,,,,,,,,,,,,,,,,,,,,,,,,,,,,sing4,001,2019_Oct_22_1625,ProdFawcett_Revision2019,3.2.4,60.04483635894939,
15,0,15,0,,,,,,,,,,,,,,,,,466.58964725909755,None,materials/singPic.jpg,mayor,C_sing,15,183,462.9243227710249,None,462.9243227710249,None,463.8389146174304,None,464.1054462887114,None,464.1054462887114,None,,,,,,,,,,,,,,,,,,,,,,,,,,,,,,,,,,,sing4,001,2019_Oct_22_1625,ProdFawcett_Revision2019,3.2.4,60.04483635894939,
16,0,16,0,,,,,,,,,,,,,,,,,470.85759958508424,None,materials/singPic.jpg,message,C_sing,16,189,467.18946582078934,None,467.18946582078934,None,468.10684113018215,None,468.37351990526076,None,468.37351990526076,None,,,,,,,,,,,,,,,,,,,,,,,,,,,,,,,,,,,sing4,001,2019_Oct_22_1625,ProdFawcett_Revision2019,3.2.4,60.04483635894939,
17,0,17,0,,,,,,,,,,,,,,,,,475.12558114517014,None,materials/speakPic.jpg,recall,B_aloud,17,255,471.44637946097646,None,471.44637946097646,None,472.3747698201332,None,472.64136711263563,None,472.64136711263563,None,,,,,,,,,,,,,,,,,,,,,,,,,,,,,,,,,,,sing4,001,2019_Oct_22_1625,ProdFawcett_Revision2019,3.2.4,60.04483635894939,
18,0,18,0,,,,,,,,,,,,,,,,,479.39352600707207,None,materials/readPic.jpg,expansion,A_silent,18,123,475.71660209761467,None,475.71660209761467,None,476.6427299210336,None,476.9093278356595,None,476.9093278356595,None,,,,,,,,,,,,,,,,,,,,,,,,,,,,,,,,,,,sing4,001,2019_Oct_22_1625,ProdFawcett_Revision2019,3.2.4,60.04483635894939,
19,0,19,0,,,,,,,,,,,,,,,,,483.6614876630483,None,materials/readPic.jpg,executive,A_silent,19,122,479.97671998583246,None,479.97671998583246,None,480.91069406515453,None,481.17733023292385,None,481.17733023292385,None,,,,,,,,,,,,,,,,,,,,,,,,,,,,,,,,,,,sing4,001,2019_Oct_22_1625,ProdFawcett_Revision2019,3.2.4,60.04483635894939,
20,0,20,0,,,,,,,,,,,,,,,,,487.92945087410044,None,materials/speakPic.jpg,primary,B_aloud,20,234,484.2539177631261,None,484.2539177631261,None,485.1787403135095,None,485.44525270268787,None,485.44525270268787,None,,,,,,,,,,,,,,,,,,,,,,,,,,,,,,,,,,,sing4,001,2019_Oct_22_1625,ProdFawcett_Revision2019,3.2.4,60.04483635894939,
21,0,21,0,,,,,,,,,,,,,,,,,492.19742776919156,None,materials/speakPic.jpg,level,B_aloud,21,170,488.49873997760005,None,488.49873997760005,None,489.4466092911316,None,489.713253233931,None,489.713253233931,None,,,,,,,,,,,,,,,,,,,,,,,,,,,,,,,,,,,sing4,001,2019_Oct_22_1625,ProdFawcett_Revision2019,3.2.4,60.04483635894939,
22,0,22,0,,,,,,,,,,,,,,,,,496.46536921011284,None,materials/speakPic.jpg,capital,B_aloud,22,40,492.7638537932653,None,492.7638537932653,None,493.7145871191751,None,493.9811977848876,None,493.9811977848876,None,,,,,,,,,,,,,,,,,,,,,,,,,,,,,,,,,,,sing4,001,2019_Oct_22_1625,ProdFawcett_Revision2019,3.2.4,60.04483635894939,
23,0,23,0,,,,,,,,,,,,,,,,,500.7333445501281,None,materials/singPic.jpg,present,C_sing,23,231,497.0869373478927,None,497.0869373478927,None,497.9826818838483,None,498.2491501107579,None,498.2491501107579,None,,,,,,,,,,,,,,,,,,,,,,,,,,,,,,,,,,,sing4,001,2019_Oct_22_1625,ProdFawcett_Revision2019,3.2.4,60.04483635894939,
24,0,24,0,,,,,,,,,,,,,,,,,505.0013096272014,None,materials/speakPic.jpg,harmony,B_aloud,24,148,501.35163348854985,None,501.35163348854985,None,502.2505636124406,None,502.51710088178515,None,502.51710088178515,None,,,,,,,,,,,,,,,,,,,,,,,,,,,,,,,,,,,sing4,001,2019_Oct_22_1625,ProdFawcett_Revision2019,3.2.4,60.04483635894939,
25,0,25,0,,,,,,,,,,,,,,,,,509.269257910084,None,materials/speakPic.jpg,comfort,B_aloud,25,59,505.57169749890454,None,505.57169749890454,None,506.51856227766257,None,506.7850836858852,None,506.7850836858852,None,,,,,,,,,,,,,,,,,,,,,,,,,,,,,,,,,,,sing4,001,2019_Oct_22_1625,ProdFawcett_Revision2019,3.2.4,60.04483635894939,
26,0,26,0,,,,,,,,,,,,,,,,,513.5372391592246,None,materials/singPic.jpg,court,C_sing,26,75,509.8704961935291,None,509.8704961935291,None,510.78651149361394,None,511.0530384997837,None,511.0530384997837,None,,,,,,,,,,,,,,,,,,,,,,,,,,,,,,,,,,,sing4,001,2019_Oct_22_1625,ProdFawcett_Revision2019,3.2.4,60.04483635894939,
27,0,27,0,,,,,,,,,,,,,,,,,517.8051902411971,None,materials/readPic.jpg,relation,A_silent,27,257,514.1392229130724,None,514.1392229130724,None,515.0544439153746,None,515.3209911368322,None,515.3209911368322,None,,,,,,,,,,,,,,,,,,,,,,,,,,,,,,,,,,,sing4,001,2019_Oct_22_1625,ProdFawcett_Revision2019,3.2.4,60.04483635894939,
28,0,28,0,,,,,,,,,,,,,,,,,522.0731590501964,None,materials/speakPic.jpg,taste,B_aloud,28,322,518.4067249089712,None,518.4067249089712,None,519.322433872614,None,519.5889639888192,None,519.5889639888192,None,,,,,,,,,,,,,,,,,,,,,,,,,,,,,,,,,,,sing4,001,2019_Oct_22_1625,ProdFawcett_Revision2019,3.2.4,60.04483635894939,
29,0,29,0,,,,,,,,,,,,,,,,,526.3411132422043,None,materials/speakPic.jpg,society,B_aloud,29,293,522.640154829016,None,522.640154829016,None,523.5903606964275,None,523.8569408839103,None,523.8569408839103,None,,,,,,,,,,,,,,,,,,,,,,,,,,,,,,,,,,,sing4,001,2019_Oct_22_1625,ProdFawcett_Revision2019,3.2.4,60.04483635894939,
30,0,30,0,,,,,,,,,,,,,,,,,530.6090693002334,None,materials/readPic.jpg,growth,A_silent,30,144,526.9456503180554,None,526.9456503180554,None,527.8584007248282,None,528.1248885449022,None,528.1248885449022,None,,,,,,,,,,,,,,,,,,,,,,,,,,,,,,,,,,,sing4,001,2019_Oct_22_1625,ProdFawcett_Revision2019,3.2.4,60.04483635894939,
31,0,31,0,,,,,,,,,,,,,,,,,534.8770402861992,None,materials/speakPic.jpg,waste,B_aloud,31,350,531.2104786343407,None,531.2104786343407,None,532.126316352631,None,532.3928732150234,None,532.3928732150234,None,,,,,,,,,,,,,,,,,,,,,,,,,,,,,,,,,,,sing4,001,2019_Oct_22_1625,ProdFawcett_Revision2019,3.2.4,60.04483635894939,
32,0,32,0,,,,,,,,,,,,,,,,,539.1450034972513,None,materials/readPic.jpg,force,A_silent,32,131,535.4782776365755,None,535.4782776365755,None,536.394259659457,None,536.6608358040685,None,536.6608358040685,None,,,,,,,,,,,,,,,,,,,,,,,,,,,,,,,,,,,sing4,001,2019_Oct_22_1625,ProdFawcett_Revision2019,3.2.4,60.04483635894939,
33,0,33,0,,,,,,,,,,,,,,,,,543.4129704402294,None,materials/speakPic.jpg,motion,B_aloud,33,194,539.735873925034,None,539.735873925034,None,540.6622757407604,None,540.9287657379173,None,540.9287657379173,None,,,,,,,,,,,,,,,,,,,,,,,,,,,,,,,,,,,sing4,001,2019_Oct_22_1625,ProdFawcett_Revision2019,3.2.4,60.04483635894939,
34,0,34,0,,,,,,,,,,,,,,,,,547.6811249172315,None,materials/readPic.jpg,session,A_silent,34,281,544.0174935210962,None,544.0174935210962,None,544.9302395738196,None,545.1967364129378,None,545.1967364129378,None,,,,,,,,,,,,,,,,,,,,,,,,,,,,,,,,,,,sing4,001,2019_Oct_22_1625,ProdFawcett_Revision2019,3.2.4,60.04483635894939,
35,0,35,0,,,,,,,,,,,,,,,,,551.9489009053214,None,materials/speakPic.jpg,threat,B_aloud,35,329,548.2822932252893,None,548.2822932252893,None,549.1982108708471,None,549.4647232600255,None,549.4647232600255,None,,,,,,,,,,,,,,,,,,,,,,,,,,,,,,,,,,,sing4,001,2019_Oct_22_1625,ProdFawcett_Revision2019,3.2.4,60.04483635894939,
36,0,36,0,,,,,,,,,,,,,,,,,556.2168535422534,None,materials/singPic.jpg,murder,C_sing,36,195,552.552474187687,None,552.552474187687,None,553.466171593871,None,553.7326746530598,None,553.7326746530598,None,,,,,,,,,,,,,,,,,,,,,,,,,,,,,,,,,,,sing4,001,2019_Oct_22_1625,ProdFawcett_Revision2019,3.2.4,60.04483635894939,
37,0,37,0,,,,,,,,,,,,,,,,,560.4848155092914,None,materials/speakPic.jpg,debate,B_aloud,37,87,556.8028166780714,None,556.8028166780714,None,557.734103393741,None,558.0006350650219,None,558.0006350650219,None,,,,,,,,,,,,,,,,,,,,,,,,,,,,,,,,,,,sing4,001,2019_Oct_22_1625,ProdFawcett_Revision2019,3.2.4,60.04483635894939,
38,0,38,0,,,,,,,,,,,,,,,,,564.7527818303788,None,materials/singPic.jpg,worker,C_sing,38,356,561.1026640696218,None,561.1026640696218,None,562.0020700257737,None,562.2685979650123,None,562.2685979650123,None,,,,,,,,,,,,,,,,,,,,,,,,,,,,,,,,,,,sing4,001,2019_Oct_22_1625,ProdFawcett_Revision2019,3.2.4,60.04483635894939,
39,0,39,0,,,,,,,,,,,,,,,,,569.0207913805498,None,materials/singPic.jpg,minute,C_sing,39,192,565.3396577553358,None,565.3396577553358,None,566.2698127367767,None,566.5365453149425,None,566.5365453149425,None,,,,,,,,,,,,,,,,,,,,,,,,,,,,,,,,,,,sing4,001,2019_Oct_22_1625,ProdFawcett_Revision2019,3.2.4,60.04483635894939,
40,0,40,0,,,,,,,,,,,,,,,,,573.288725668448,None,materials/speakPic.jpg,suggestion,B_aloud,40,314,569.6057079964085,None,569.6057079964085,None,570.5380514949793,None,570.8045318510849,None,570.8045318510849,None,,,,,,,,,,,,,,,,,,,,,,,,,,,,,,,,,,,sing4,001,2019_Oct_22_1625,ProdFawcett_Revision2019,3.2.4,60.04483635894939,
41,0,41,0,,,,,,,,,,,,,,,,,577.5566755064065,None,materials/readPic.jpg,majority,A_silent,41,176,573.8899502677377,None,573.8899502677377,None,574.8059506397694,None,575.0754570399877,None,575.0754570399877,None,,,,,,,,,,,,,,,,,,,,,,,,,,,,,,,,,,,sing4,001,2019_Oct_22_1625,ProdFawcett_Revision2019,3.2.4,60.04483635894939,
42,0,42,0,,,,,,,,,,,,,,,,,581.8246446264675,None,materials/speakPic.jpg,color,B_aloud,42,56,578.1581212277524,None,578.1581212277524,None,579.0739816491259,None,579.340463560191,None,579.340463560191,None,,,,,,,,,,,,,,,,,,,,,,,,,,,,,,,,,,,sing4,001,2019_Oct_22_1625,ProdFawcett_Revision2019,3.2.4,60.04483635894939,
43,0,43,0,,,,,,,,,,,,,,,,,586.0926019283943,None,materials/readPic.jpg,match,A_silent,43,181,582.4259199190419,None,582.4259199190419,None,583.3419395730598,None,583.608406867017,None,583.608406867017,None,,,,,,,,,,,,,,,,,,,,,,,,,,,,,,,,,,,sing4,001,2019_Oct_22_1625,ProdFawcett_Revision2019,3.2.4,60.04483635894939,
44,0,44,0,,,,,,,,,,,,,,,,,590.3606522198534,None,materials/readPic.jpg,permit,A_silent,44,218,586.6757772470592,None,586.6757772470592,None,587.6098244116874,None,587.8763563940302,None,587.8763563940302,None,,,,,,,,,,,,,,,,,,,,,,,,,,,,,,,,,,,sing4,001,2019_Oct_22_1625,ProdFawcett_Revision2019,3.2.4,60.04483635894939,
45,0,45,0,,,,,,,,,,,,,,,,,594.6285202644067,None,materials/readPic.jpg,candidate,A_silent,45,39,590.9467534403084,None,590.9467534403084,None,591.87787252618,None,592.144313695957,None,592.144313695957,None,,,,,,,,,,,,,,,,,,,,,,,,,,,,,,,,,,,sing4,001,2019_Oct_22_1625,ProdFawcett_Revision2019,3.2.4,60.04483635894939,
46,0,46,0,,,,,,,,,,,,,,,,,598.8964725903934,None,materials/readPic.jpg,poetry,A_silent,46,225,595.2116884300485,None,595.2116884300485,None,596.1458242300432,None,596.4123089401983,None,596.4123089401983,None,,,,,,,,,,,,,,,,,,,,,,,,,,,,,,,,,,,sing4,001,2019_Oct_22_1625,ProdFawcett_Revision2019,3.2.4,60.04483635894939,
47,0,47,0,,,,,,,,,,,,,,,,,603.1645869481144,None,materials/singPic.jpg,audience,C_sing,47,14,599.5479836376617,None,599.5479836376617,None,600.4137485659448,None,600.6802553570597,None,600.6802553570597,None,,,,,,,,,,,,,,,,,,,,,,,,,,,,,,,,,,,sing4,001,2019_Oct_22_1625,ProdFawcett_Revision2019,3.2.4,60.04483635894939,
48,0,48,0,,,,,,,,,,,,,,,,,607.4324186055455,None,materials/singPic.jpg,corner,C_sing,48,69,603.7475952589884,None,603.7475952589884,None,604.6817018248839,None,604.9482238551136,None,604.9482238551136,None,,,,,,,,,,,,,,,,,,,,,,,,,,,,,,,,,,,sing4,001,2019_Oct_22_1625,ProdFawcett_Revision2019,3.2.4,60.04483635894939,
49,0,49,0,,,,,,,,,,,,,,,,,611.7003544484032,None,materials/singPic.jpg,curve,C_sing,49,82,608.0235717336182,None,608.0235717336182,None,608.9496808969416,None,609.2161904871464,None,609.2161904871464,None,,,,,,,,,,,,,,,,,,,,,,,,,,,,,,,,,,,sing4,001,2019_Oct_22_1625,ProdFawcett_Revision2019,3.2.4,60.04483635894939,
50,0,50,0,,,,,,,,,,,,,,,,,615.9684047398623,None,materials/singPic.jpg,beginning,C_sing,50,19,612.2835235469975,None,612.2835235469975,None,613.2176929352572,None,613.4841602292145,None,613.4841602292145,None,,,,,,,,,,,,,,,,,,,,,,,,,,,,,,,,,,,sing4,001,2019_Oct_22_1625,ProdFawcett_Revision2019,3.2.4,60.04483635894939,
51,0,51,0,,,,,,,,,,,,,,,,,620.2363157025538,None,materials/speakPic.jpg,throw,B_aloud,51,330,616.553443579236,None,616.553443579236,None,617.4856577012688,None,617.7521184642101,None,617.7521184642101,None,,,,,,,,,,,,,,,,,,,,,,,,,,,,,,,,,,,sing4,001,2019_Oct_22_1625,ProdFawcett_Revision2019,3.2.4,60.04483635894939,
52,0,52,0,,,,,,,,,,,,,,,,,624.5044185532024,None,materials/readPic.jpg,search,A_silent,52,276,620.8713225243846,None,620.8713225243846,None,621.7535689750221,None,622.0201186843915,None,622.0201186843915,None,,,,,,,,,,,,,,,,,,,,,,,,,,,,,,,,,,,sing4,001,2019_Oct_22_1625,ProdFawcett_Revision2019,3.2.4,60.04483635894939,
53,0,53,0,,,,,,,,,,,,,,,,,628.7722181775607,None,materials/readPic.jpg,cover,A_silent,53,77,625.0891802903498,None,625.0891802903498,None,626.0216118023964,None,626.2880374222295,None,626.2880374222295,None,,,,,,,,,,,,,,,,,,,,,,,,,,,,,,,,,,,sing4,001,2019_Oct_22_1625,ProdFawcett_Revision2019,3.2.4,60.04483635894939,
54,0,54,0,,,,,,,,,,,,,,,,,633.0401956945425,None,materials/readPic.jpg,fashion,A_silent,54,125,629.3554432564415,None,629.3554432564415,None,630.2895414252998,None,630.5560208483366,None,630.5560208483366,None,,,,,,,,,,,,,,,,,,,,,,,,,,,,,,,,,,,sing4,001,2019_Oct_22_1625,ProdFawcett_Revision2019,3.2.4,60.04483635894939,
55,0,55,0,,,,,,,,,,,,,,,,,637.3081551735522,None,materials/speakPic.jpg,conference,B_aloud,55,66,633.625282117282,None,633.625282117282,None,634.5575357364723,None,634.8239650882315,None,634.8239650882315,None,,,,,,,,,,,,,,,,,,,,,,,,,,,,,,,,,,,sing4,001,2019_Oct_22_1625,ProdFawcett_Revision2019,3.2.4,60.04483635894939,
56,0,56,0,,,,,,,,,,,,,,,,,641.5761112315813,None,materials/readPic.jpg,revolution,A_silent,56,264,637.9426696801092,None,637.9426696801092,None,638.8254902394256,None,639.091952868388,None,639.091952868388,None,,,,,,,,,,,,,,,,,,,,,,,,,,,,,,,,,,,sing4,001,2019_Oct_22_1625,ProdFawcett_Revision2019,3.2.4,60.04483635894939,
57,0,57,0,,,,,,,,,,,,,,,,,645.8440862606512,None,materials/singPic.jpg,position,C_sing,57,229,642.1846272600815,None,642.1846272600815,None,643.0934490964282,None,643.3599098593695,None,643.3599098593695,None,,,,,,,,,,,,,,,,,,,,,,,,,,,,,,,,,,,sing4,001,2019_Oct_22_1625,ProdFawcett_Revision2019,3.2.4,60.04483635894939,
58,0,58,0,,,,,,,,,,,,,,,,,650.1120379646309,None,materials/speakPic.jpg,review,B_aloud,58,263,646.4294196184492,None,646.4294196184492,None,647.3614095083904,None,647.6278444582131,None,647.6278444582131,None,,,,,,,,,,,,,,,,,,,,,,,,,,,,,,,,,,,sing4,001,2019_Oct_22_1625,ProdFawcett_Revision2019,3.2.4,60.04483635894939,
59,0,59,0,,,,,,,,,,,,,,,,,654.3800052186707,None,materials/singPic.jpg,addition,C_sing,59,2,650.7133863425115,None,650.7133863425115,None,651.629425278632,None,651.8959395338316,None,651.8959395338316,None,,,,,,,,,,,,,,,,,,,,,,,,,,,,,,,,,,,sing4,001,2019_Oct_22_1625,ProdFawcett_Revision2019,3.2.4,60.04483635894939,
60,0,60,0,,,,,,,,,,,,,,,,,658.6479618985904,None,materials/singPic.jpg,rapid,C_sing,60,252,654.97160681081,None,654.97160681081,None,655.8971480855253,None,656.1637973154429,None,656.1637973154429,None,,,,,,,,,,,,,,,,,,,,,,,,,,,,,,,,,,,sing4,001,2019_Oct_22_1625,ProdFawcett_Revision2019,3.2.4,60.04483635894939,
61,0,61,0,,,,,,,,,,,,,,,,,662.9159111145418,None,materials/singPic.jpg,rough,C_sing,61,266,659.2330215751426,None,659.2330215751426,None,660.1652975864708,None,660.4317549284315,None,660.4317549284315,None,,,,,,,,,,,,,,,,,,,,,,,,,,,,,,,,,,,sing4,001,2019_Oct_22_1625,ProdFawcett_Revision2019,3.2.4,60.04483635894939,
62,0,62,0,,,,,,,,,,,,,,,,,667.1839060477214,None,materials/readPic.jpg,breath,A_silent,62,27,663.5176414023153,None,663.5176414023153,None,664.4332253432367,None,664.6997084983159,None,664.6997084983159,None,,,,,,,,,,,,,,,,,,,,,,,,,,,,,,,,,,,sing4,001,2019_Oct_22_1625,ProdFawcett_Revision2019,3.2.4,60.04483635894939,
63,0,63,0,,,,,,,,,,,,,,,,,671.4518953828374,None,materials/singPic.jpg,instrument,C_sing,63,163,667.8019859931665,None,667.8019859931665,None,668.7012252524728,None,668.9676804174669,None,668.9676804174669,None,,,,,,,,,,,,,,,,,,,,,,,,,,,,,,,,,,,sing4,001,2019_Oct_22_1625,ProdFawcett_Revision2019,3.2.4,60.04483635894939,
64,0,64,0,,,,,,,,,,,,,,,,,675.7195003202651,None,materials/readPic.jpg,detective,A_silent,64,92,672.0536427756306,None,672.0536427756306,None,672.9691390142543,None,673.235788244172,None,673.235788244172,None,,,,,,,,,,,,,,,,,,,,,,,,,,,,,,,,,,,sing4,001,2019_Oct_22_1625,ProdFawcett_Revision2019,3.2.4,60.04483635894939,
65,0,65,0,,,,,,,,,,,,,,,,,679.987795369816,None,materials/singPic.jpg,master,C_sing,65,180,676.3249887495767,None,676.3249887495767,None,677.2370872972533,None,677.5035987533629,None,677.5035987533629,None,,,,,,,,,,,,,,,,,,,,,,,,,,,,,,,,,,,sing4,001,2019_Oct_22_1625,ProdFawcett_Revision2019,3.2.4,60.04483635894939,
66,0,66,0,,,,,,,,,,,,,,,,,684.255754537764,None,materials/singPic.jpg,literature,C_sing,66,173,680.5709492294118,None,680.5709492294118,None,681.5053795477143,None,681.7715401942842,None,681.7715401942842,None,,,,,,,,,,,,,,,,,,,,,,,,,,,,,,,,,,,sing4,001,2019_Oct_22_1625,ProdFawcett_Revision2019,3.2.4,60.04483635894939,
67,0,67,0,,,,,,,,,,,,,,,,,688.5238455703948,None,materials/speakPic.jpg,title,B_aloud,67,331,684.8576054940931,None,684.8576054940931,None,685.7731773060514,None,686.0395267304266,None,686.0395267304266,None,,,,,,,,,,,,,,,,,,,,,,,,,,,,,,,,,,,sing4,001,2019_Oct_22_1625,ProdFawcett_Revision2019,3.2.4,60.04483635894939,
68,0,68,0,,,,,,,,,,,,,,,,,692.7916809597518,None,materials/speakPic.jpg,agreement,B_aloud,68,5,689.0941289456096,None,689.0941289456096,None,690.0410366425058,None,690.3074865204981,None,690.3074865204981,None,,,,,,,,,,,,,,,,,,,,,,,,,,,,,,,,,,,sing4,001,2019_Oct_22_1625,ProdFawcett_Revision2019,3.2.4,60.04483635894939,
69,0,69,0,,,,,,,,,,,,,,,,,697.0596329747932,None,materials/readPic.jpg,native,A_silent,69,199,693.379248241079,None,693.379248241079,None,694.308896290022,None,694.5754481764743,None,694.5754481764743,None,,,,,,,,,,,,,,,,,,,,,,,,,,,,,,,,,,,sing4,001,2019_Oct_22_1625,ProdFawcett_Revision2019,3.2.4,60.04483635894939,
70,0,70,0,,,,,,,,,,,,,,,,,701.3275961857289,None,materials/readPic.jpg,safety,A_silent,70,270,697.6324046726804,None,697.6324046726804,None,698.576757492614,None,698.8434067224152,None,698.8434067224152,None,,,,,,,,,,,,,,,,,,,,,,,,,,,,,,,,,,,sing4,001,2019_Oct_22_1625,ProdFawcett_Revision2019,3.2.4,60.04483635894939,
71,0,71,0,,,,,,,,,,,,,,,,,705.5955662388587,None,materials/speakPic.jpg,century,B_aloud,71,45,701.9193511017365,None,701.9193511017365,None,702.8449300075881,None,703.1113801965257,None,703.1113801965257,None,,,,,,,,,,,,,,,,,,,,,,,,,,,,,,,,,,,sing4,001,2019_Oct_22_1625,ProdFawcett_Revision2019,3.2.4,60.04483635894939,
72,0,72,0,,,,,,,,,,,,,,,,,709.8637586579425,None,materials/readPic.jpg,passage,A_silent,72,212,706.2134219522122,None,706.2134219522122,None,707.1128204442794,None,707.3793508715462,None,707.3793508715462,None,,,,,,,,,,,,,,,,,,,,,,,,,,,,,,,,,,,sing4,001,2019_Oct_22_1625,ProdFawcett_Revision2019,3.2.4,60.04483635894939,
73,0,73,0,,,,,,,,,,,,,,,,,714.131483330857,None,materials/singPic.jpg,research,C_sing,73,261,710.4685230759205,None,710.4685230759205,None,711.3806748047937,None,711.6472870254656,None,711.6472870254656,None,,,,,,,,,,,,,,,,,,,,,,,,,,,,,,,,,,,sing4,001,2019_Oct_22_1625,ProdFawcett_Revision2019,3.2.4,60.04483635894939,
74,0,74,0,,,,,,,,,,,,,,,,,718.3994527618634,None,materials/singPic.jpg,impact,C_sing,74,157,714.731310911593,None,714.731310911593,None,715.6486632069573,None,715.9152545904508,None,715.9152545904508,None,,,,,,,,,,,,,,,,,,,,,,,,,,,,,,,,,,,sing4,001,2019_Oct_22_1625,ProdFawcett_Revision2019,3.2.4,60.04483635894939,
75,0,75,0,,,,,,,,,,,,,,,,,722.6674134848872,None,materials/speakPic.jpg,clear,B_aloud,75,52,718.9909896657337,None,718.9909896657337,None,719.9165334284771,None,720.1832246435806,None,720.1832246435806,None,,,,,,,,,,,,,,,,,,,,,,,,,,,,,,,,,,,sing4,001,2019_Oct_22_1625,ProdFawcett_Revision2019,3.2.4,60.04483635894939,
76,0,76,0,,,,,,,,,,,,,,,,,726.9353962889872,None,materials/speakPic.jpg,light,B_aloud,76,171,723.2339169483166,None,723.2339169483166,None,724.1847003455041,None,724.4511999835959,None,724.4511999835959,None,,,,,,,,,,,,,,,,,,,,,,,,,,,,,,,,,,,sing4,001,2019_Oct_22_1625,ProdFawcett_Revision2019,3.2.4,60.04483635894939,
77,0,77,0,,,,,,,,,,,,,,,,,731.2033818920609,None,materials/singPic.jpg,public,C_sing,77,244,727.5698118970031,None,727.5698118970031,None,728.4526128632715,None,728.7191485775402,None,728.7191485775402,None,,,,,,,,,,,,,,,,,,,,,,,,,,,,,,,,,,,sing4,001,2019_Oct_22_1625,ProdFawcett_Revision2019,3.2.4,60.04483635894939,
78,0,78,0,,,,,,,,,,,,,,,,,735.4712916108547,None,materials/singPic.jpg,drink,C_sing,78,105,731.7919788991567,None,731.7919788991567,None,732.7205235150177,None,732.9771031396231,None,732.9771031396231,None,,,,,,,,,,,,,,,,,,,,,,,,,,,,,,,,,,,sing4,001,2019_Oct_22_1625,ProdFawcett_Revision2019,3.2.4,60.04483635894939,
79,0,79,0,,,,,,,,,,,,,,,,,739.7392871660413,None,materials/readPic.jpg,dozen,A_silent,79,102,736.0731030699098,None,736.0731030699098,None,736.9885445722612,None,737.2567600054899,None,737.2567600054899,None,,,,,,,,,,,,,,,,,,,,,,,,,,,,,,,,,,,sing4,001,2019_Oct_22_1625,ProdFawcett_Revision2019,3.2.4,60.04483635894939,
80,0,80,0,,,,,,,,,,,,,,,,,744.007243845961,None,materials/speakPic.jpg,pancakes,B_aloud,80,210,740.3240600991994,None,740.3240600991994,None,741.2564138608286,None,741.5230419426225,None,741.5230419426225,None,,,,,,,,,,,,,,,,,,,,,,,,,,,,,,,,,,,sing4,001,2019_Oct_22_1625,ProdFawcett_Revision2019,3.2.4,60.04483635894939,
81,0,81,0,,,,,,,,,,,,,,,,,748.275214521098,None,materials/readPic.jpg,leader,A_silent,81,168,744.6084180631442,None,744.6084180631442,None,745.5245257306378,None,745.7910007996252,None,745.7910007996252,None,,,,,,,,,,,,,,,,,,,,,,,,,,,,,,,,,,,sing4,001,2019_Oct_22_1625,ProdFawcett_Revision2019,3.2.4,60.04483635894939,
82,0,82,0,,,,,,,,,,,,,,,,,752.5432890705997,None,materials/readPic.jpg,place,A_silent,82,222,748.8584203178762,None,748.8584203178762,None,749.7924394924194,None,750.0589627666632,None,750.0589627666632,None,,,,,,,,,,,,,,,,,,,,,,,,,,,,,,,,,,,sing4,001,2019_Oct_22_1625,ProdFawcett_Revision2019,3.2.4,60.04483635894939,
83,0,83,0,,,,,,,,,,,,,,,,,756.8111229049973,None,materials/readPic.jpg,nature,A_silent,83,200,753.1173632425489,None,753.1173632425489,None,754.0603927513584,None,754.3269477477297,None,754.3269477477297,None,,,,,,,,,,,,,,,,,,,,,,,,,,,,,,,,,,,sing4,001,2019_Oct_22_1625,ProdFawcett_Revision2019,3.2.4,60.04483635894939,
84,0,84,0,,,,,,,,,,,,,,,,,761.0791165941628,None,materials/readPic.jpg,notice,A_silent,84,201,757.3811186038656,None,757.3811186038656,None,758.3282757239649,None,758.5949526329059,None,758.5949526329059,None,,,,,,,,,,,,,,,,,,,,,,,,,,,,,,,,,,,sing4,001,2019_Oct_22_1625,ProdFawcett_Revision2019,3.2.4,60.04483635894939,
85,0,85,0,,,,,,,,,,,,,,,,,765.3470623891335,None,materials/singPic.jpg,device,C_sing,85,93,761.7332708428148,None,761.7332708428148,None,762.5961904188152,None,762.8628097925102,None,762.8628097925102,None,,,,,,,,,,,,,,,,,,,,,,,,,,,,,,,,,,,sing4,001,2019_Oct_22_1625,ProdFawcett_Revision2019,3.2.4,60.04483635894939,
86,0,86,0,,,,,,,,,,,,,,,,,769.6150044520618,None,materials/speakPic.jpg,principal,B_aloud,86,236,765.9353048545308,None,765.9353048545308,None,766.8642397772055,None,767.1308013045928,None,767.1308013045928,None,,,,,,,,,,,,,,,,,,,,,,,,,,,,,,,,,,,sing4,001,2019_Oct_22_1625,ProdFawcett_Revision2019,3.2.4,60.04483635894939,
87,0,87,0,,,,,,,,,,,,,,,,,773.8829934761161,None,materials/singPic.jpg,committee,C_sing,87,62,770.2179712814977,None,770.2179712814977,None,771.1322210262297,None,771.3987719796132,None,771.3987719796132,None,,,,,,,,,,,,,,,,,,,,,,,,,,,,,,,,,,,sing4,001,2019_Oct_22_1625,ProdFawcett_Revision2019,3.2.4,60.04483635894939,
88,0,88,0,,,,,,,,,,,,,,,,,778.150934606092,None,materials/readPic.jpg,sound,A_silent,88,295,774.4759995508939,None,774.4759995508939,None,775.4001350990729,None,775.666731458623,None,775.666731458623,None,,,,,,,,,,,,,,,,,,,,,,,,,,,,,,,,,,,sing4,001,2019_Oct_22_1625,ProdFawcett_Revision2019,3.2.4,60.04483635894939,
89,0,89,0,,,,,,,,,,,,,,,,,782.4188971950207,None,materials/speakPic.jpg,atmosphere,B_aloud,89,12,778.7415801797761,None,778.7415801797761,None,779.6679978566244,None,779.9346890716115,None,779.9346890716115,None,,,,,,,,,,,,,,,,,,,,,,,,,,,,,,,,,,,sing4,001,2019_Oct_22_1625,ProdFawcett_Revision2019,3.2.4,60.04483635894939,
,,,,,,,,,,,,,,,,,,,,,,,,,,,,,,,,,,,,,782.9190721333725,None,k,120.78673510358203,782.9190721333725,None,,,,,,,,,,,,,,,,,,,,,,,,,,,,,sing4,001,2019_Oct_22_1625,ProdFawcett_Revision2019,3.2.4,60.04483635894939,
,,,,,,,,,,,,,,903.7224268439459,None,space,3.7186907833674923,903.7224268439459,None,,,,,,,,,,,,,,,,,,,,,,,,,,,,,,,,,,,,,,,,,,,,,,,,,,,,sing4,001,2019_Oct_22_1625,ProdFawcett_Revision2019,3.2.4,60.04483635894939,
,,,,0,0,0,0,,,,,,,,,,,,,919.3282153897453,None,,,,,,,,,,,,,,,,,,,,,,background,D_new,0,16,907.9956167454366,None,907.9956167454366,None,907.9956167454366,None,1,6.389440380851738,907.9956167454366,None,914.4421952473931,None,914.4421952473931,None,914.9614037859719,None,914.9614037859719,None,914.9614037859719,None,n,4.318894986878149,914.9614037859719,None,sing4,001,2019_Oct_22_1625,ProdFawcett_Revision2019,3.2.4,60.04483635894939,
,,,,1,0,1,0,,,,,,,,,,,,,927.3293604970677,None,,,,,,,,,,,,,,,,,,,,,,write,D_new,1,358,919.8440452084178,None,919.8440452084178,None,919.8440452084178,None,1,4.012094846810214,919.8440452084178,None,923.8834416292375,None,923.8834416292375,None,924.3962192797335,None,924.3962192797335,None,924.3962192797335,None,n,2.9001442736480385,924.3962192797335,None,sing4,001,2019_Oct_22_1625,ProdFawcett_Revision2019,3.2.4,60.04483635894939,
,,,,2,0,2,0,,,,,,,,,,,,,933.1646087182453,None,,,,,,,,,,,,,,,,,,,,,,sound,A_silent,2,295,927.8462321707048,None,927.8462321707048,None,927.8462321707048,None,6,2.6421828693710268,927.8462321707048,None,930.547087953426,None,930.547087953426,None,931.0639319479233,None,931.0639319479233,None,931.0639319479233,None,r,2.055473019136116,931.0639319479233,None,sing4,001,2019_Oct_22_1625,ProdFawcett_Revision2019,3.2.4,60.04483635894939,
,,,,3,0,3,0,,,,,,,,,,,,,938.3660679992754,None,,,,,,,,,,,,,,,,,,,,,,place,A_silent,3,222,933.6811861845199,None,933.6811861845199,None,933.6811861845199,None,6,2.853999743121676,933.6811861845199,None,936.5988317541778,None,936.5988317541778,None,937.1157864652341,None,937.1157864652341,None,937.1157864652341,None,r,1.2115938855567947,937.1157864652341,None,sing4,001,2019_Oct_22_1625,ProdFawcett_Revision2019,3.2.4,60.04483635894939,
,,,,4,0,4,0,,,,,,,,,,,,,942.750844913302,None,,,,,,,,,,,,,,,,,,,,,,safety,A_silent,4,270,938.8831032597227,None,938.8831032597227,None,938.8831032597227,None,6,2.092647334560752,938.8831032597227,None,941.0335427513346,None,941.0335427513346,None,941.5503649758175,None,941.5503649758175,None,941.5503649758175,None,r,1.1525639427127317,941.5503649758175,None,sing4,001,2019_Oct_22_1625,ProdFawcett_Revision2019,3.2.4,60.04483635894939,
,,,,5,0,5,0,,,,,,,,,,,,,947.402249286999,None,,,,,,,,,,,,,,,,,,,,,,worker,C_sing,5,356,943.2676630946808,None,943.2676630946808,None,943.2676630946808,None,6,1.9389970639022067,943.2676630946808,None,945.2682561744004,None,945.2682561744004,None,945.7851166520268,None,945.7851166520268,None,945.7851166520268,None,r,1.5816374163841829,945.7851166520268,None,sing4,001,2019_Oct_22_1625,ProdFawcett_Revision2019,3.2.4,60.04483635894939,
,,,,6,0,6,0,,,,,,,,,,,,,952.4871147430968,None,,,,,,,,,,,,,,,,,,,,,,country,B_aloud,6,73,947.9195588506991,None,947.9195588506991,None,947.9195588506991,None,6,1.7752834078855813,947.9195588506991,None,949.7413338666083,None,949.7413338666083,None,950.2696690540761,None,950.2696690540761,None,950.2696690540761,None,r,2.1685739868553355,950.2696690540761,None,sing4,001,2019_Oct_22_1625,ProdFawcett_Revision2019,3.2.4,60.04483635894939,
,,,,7,0,7,0,,,,,,,,,,,,,958.3555605040165,None,,,,,,,,,,,,,,,,,,,,,,payment,D_new,7,215,953.0043779675616,None,953.0043779675616,None,953.0043779675616,None,1,2.4819415448000655,953.0043779675616,None,955.538023815956,None,955.538023815956,None,956.054878384457,None,956.054878384457,None,956.054878384457,None,f,2.2630002497462556,956.054878384457,None,sing4,001,2019_Oct_22_1625,ProdFawcett_Revision2019,3.2.4,60.04483635894939,
,,,,8,0,8,0,,,,,,,,,,,,,965.8745152653428,None,,,,,,,,,,,,,,,,,,,,,,primary,B_aloud,8,234,958.8724894018378,None,958.8724894018378,None,958.8724894018378,None,6,2.9492227918235585,958.8724894018378,None,961.8615800926927,None,961.8615800926927,None,962.3899697053712,None,962.3899697053712,None,962.3899697053712,None,r,3.439329990884289,962.3899697053712,None,sing4,001,2019_Oct_22_1625,ProdFawcett_Revision2019,3.2.4,60.04483635894939,
,,,,9,0,9,0,,,,,,,,,,,,,973.9768742425367,None,,,,,,,,,,,,,,,,,,,,,,childhood,D_new,9,49,966.3926676430274,None,966.3926676430274,None,966.3926676430274,None,1,3.020431551733054,966.3926676430274,None,969.4755619718926,None,969.4755619718926,None,969.9923932153033,None,969.9923932153033,None,969.9923932153033,None,n,3.9410792185226455,969.9923932153033,None,sing4,001,2019_Oct_22_1625,ProdFawcett_Revision2019,3.2.4,60.04483635894939,
,,,,10,0,10,0,,,,,,,,,,,,,979.511916176416,None,,,,,,,,,,,,,,,,,,,,,,story,B_aloud,10,306,974.4937291220995,None,974.4937291220995,None,974.4937291220995,None,6,2.3990661869756877,974.4937291220995,None,976.9444616704714,None,976.9444616704714,None,977.4613740852801,None,977.4613740852801,None,977.4613740852801,None,r,2.015334548894316,977.4613740852801,None,sing4,001,2019_Oct_22_1625,ProdFawcett_Revision2019,3.2.4,60.04483635894939,
,,,,11,0,11,0,,,,,,,,,,,,,985.73044228449,None,,,,,,,,,,,,,,,,,,,,,,pressure,D_new,11,232,980.0297301844694,None,980.0297301844694,None,980.0297301844694,None,1,2.02343862503767,980.0297301844694,None,982.1127713060705,None,982.1127713060705,None,982.6296252525644,None,982.6296252525644,None,982.6296252525644,None,f,3.0544050402240828,982.6296252525644,None,sing4,001,2019_Oct_22_1625,ProdFawcett_Revision2019,3.2.4,60.04483635894939,
,,,,12,0,12,0,,,,,,,,,,,,,989.4482482688036,None,,,,,,,,,,,,,,,,,,,,,,running,C_sing,12,268,986.2472240787465,None,986.2472240787465,None,986.2472240787465,None,6,1.796800976851955,986.2472240787465,None,988.0979281393811,None,988.0979281393811,None,988.6146306282608,None,988.6146306282608,None,988.6146306282608,None,r,0.7897446646820754,988.6146306282608,None,sing4,001,2019_Oct_22_1625,ProdFawcett_Revision2019,3.2.4,60.04483635894939,
,,,,13,0,13,0,,,,,,,,,,,,,999.2680079952115,None,,,,,,,,,,,,,,,,,,,,,,little,D_new,13,174,989.965033172979,None,989.965033172979,None,989.965033172979,None,1,5.622397267608903,989.965033172979,None,995.6381215014262,None,995.6381215014262,None,996.1669402961852,None,996.1669402961852,None,996.1669402961852,None,f,3.0523328374838457,996.1669402961852,None,sing4,001,2019_Oct_22_1625,ProdFawcett_Revision2019,3.2.4,60.04483635894939,
,,,,14,0,14,0,,,,,,,,,,,,,1005.5532687964151,None,,,,,,,,,,,,,,,,,,,,,,generation,D_new,14,136,999.7863155626692,None,999.7863155626692,None,999.7863155626692,None,1,2.9366303427377716,999.7863155626692,None,1002.7759439749643,None,1002.7759439749643,None,1003.3025680324063,None,1003.3025680324063,None,1003.3025680324063,None,f,2.2042085339780897,1003.3025680324063,None,sing4,001,2019_Oct_22_1625,ProdFawcett_Revision2019,3.2.4,60.04483635894939,
,,,,15,0,15,0,,,,,,,,,,,,,1010.1713456318248,None,,,,,,,,,,,,,,,,,,,,,,crowd,D_new,15,81,1006.0699090849375,None,1006.0699090849375,None,1006.0699090849375,None,1,1.7574931913986802,1006.0699090849375,None,1007.876156731043,None,1007.876156731043,None,1008.4043868000153,None,1008.4043868000153,None,1008.4043868000153,None,f,1.718178563984111,1008.4043868000153,None,sing4,001,2019_Oct_22_1625,ProdFawcett_Revision2019,3.2.4,60.04483635894939,
,,,,16,0,16,0,,,,,,,,,,,,,1018.6238906966755,None,,,,,,,,,,,,,,,,,,,,,,personnel,D_new,16,219,1010.6887827061582,None,1010.6887827061582,None,1010.6887827061582,None,1,2.0258510631974787,1010.6887827061582,None,1012.7720337536884,None,1012.7720337536884,None,1013.2888463370036,None,1013.2888463370036,None,1013.2888463370036,None,n,5.297217563260347,1013.2888463370036,None,sing4,001,2019_Oct_22_1625,ProdFawcett_Revision2019,3.2.4,60.04483635894939,
,,,,17,0,17,0,,,,,,,,,,,,,1025.5592876076698,None,,,,,,,,,,,,,,,,,,,,,,territory,D_new,17,324,1019.1410624868004,None,1019.1410624868004,None,1019.1410624868004,None,1,2.9092364012030885,1019.1410624868004,None,1022.0970610673539,None,1022.0970610673539,None,1022.6249051834457,None,1022.6249051834457,None,1022.6249051834457,None,n,2.8885971003910527,1022.6249051834457,None,sing4,001,2019_Oct_22_1625,ProdFawcett_Revision2019,3.2.4,60.04483635894939,
,,,,18,0,18,0,,,,,,,,,,,,,1029.2603004460689,None,,,,,,,,,,,,,,,,,,,,,,council,C_sing,18,71,1026.0770770466188,None,1026.0770770466188,None,1026.0770770466188,None,6,1.7487033571815118,1026.0770770466188,None,1027.8628695047228,None,1027.8628695047228,None,1028.3768535298295,None,1028.3768535298295,None,1028.3768535298295,None,r,0.8412832044996321,1028.3768535298295,None,sing4,001,2019_Oct_22_1625,ProdFawcett_Revision2019,3.2.4,60.04483635894939,
,,,,19,0,19,0,,,,,,,,,,,,,1039.746967969113,None,,,,,,,,,,,,,,,,,,,,,,session,A_silent,19,281,1029.7775331924204,None,1029.7775331924204,None,1029.7775331924204,None,6,8.199244328658096,1029.7775331924204,None,1038.0297208544798,None,1038.0297208544798,None,1038.5465720020002,None,1038.5465720020002,None,1038.5465720020002,None,r,1.1588788272347301,1038.5465720020002,None,sing4,001,2019_Oct_22_1625,ProdFawcett_Revision2019,3.2.4,60.04483635894939,
,,,,20,0,20,0,,,,,,,,,,,,,1043.1313265861245,None,,,,,,,,,,,,,,,,,,,,,,committee,C_sing,20,62,1040.2638847379712,None,1040.2638847379712,None,1040.2638847379712,None,6,1.4331348418490961,1040.2638847379712,None,1041.7474982265849,None,1041.7474982265849,None,1042.2643938473193,None,1042.2643938473193,None,1042.2643938473193,None,r,0.8247995050624013,1042.2643938473193,None,sing4,001,2019_Oct_22_1625,ProdFawcett_Revision2019,3.2.4,60.04483635894939,
,,,,21,0,21,0,,,,,,,,,,,,,1050.2333434616448,None,,,,,,,,,,,,,,,,,,,,,,listen,D_new,21,172,1043.6480505340733,None,1043.6480505340733,None,1043.6480505340733,None,3,4.808911373605952,1043.6480505340733,None,1048.5163078280166,None,1048.5163078280166,None,1049.033024311997,None,1049.033024311997,None,1049.033024311997,None,f,1.1591888957191259,1049.033024311997,None,sing4,001,2019_Oct_22_1625,ProdFawcett_Revision2019,3.2.4,60.04483635894939,
,,,,22,0,22,0,,,,,,,,,,,,,1057.9191539267777,None,,,,,,,,,,,,,,,,,,,,,,motion,B_aloud,22,194,1050.7502701824997,None,1050.7502701824997,None,1050.7502701824997,None,4,4.969356093322858,1050.7502701824997,None,1055.785115096951,None,1055.785115096951,None,1056.301990813692,None,1056.301990813692,None,1056.301990813692,None,f,1.5777051139157265,1056.301990813692,None,sing4,001,2019_Oct_22_1625,ProdFawcett_Revision2019,3.2.4,60.04483635894939,
,,,,23,0,23,0,,,,,,,,,,,,,1064.8878373238258,None,,,,,,,,,,,,,,,,,,,,,,volume,D_new,23,349,1058.4370587472804,None,1058.4370587472804,None,1058.4370587472804,None,2,3.2749125385889784,1058.4370587472804,None,1061.7572008500574,None,1061.7572008500574,None,1062.287012050394,None,1062.287012050394,None,1062.287012050394,None,f,2.568140264134854,1062.287012050394,None,sing4,001,2019_Oct_22_1625,ProdFawcett_Revision2019,3.2.4,60.04483635894939,
,,,,24,0,24,0,,,,,,,,,,,,,1070.8062641292345,None,,,,,,,,,,,,,,,,,,,,,,birth,D_new,24,22,1065.4046203620965,None,1065.4046203620965,None,1065.4046203620965,None,1,2.018281287746504,1065.4046203620965,None,1067.479426164995,None,1067.479426164995,None,1068.0055647491245,None,1068.0055647491245,None,1068.0055647491245,None,n,2.753043382545002,1068.0055647491245,None,sing4,001,2019_Oct_22_1625,ProdFawcett_Revision2019,3.2.4,60.04483635894939,
,,,,25,0,25,0,,,,,,,,,,,,,1075.3410121666966,None,,,,,,,,,,,,,,,,,,,,,,month,D_new,25,193,1071.323117764783,None,1071.323117764783,None,1071.323117764783,None,1,2.299644929706119,1071.323117764783,None,1073.6618561998475,None,1073.6618561998475,None,1074.1907216446707,None,1074.1907216446707,None,1074.1907216446707,None,n,1.1117462451802567,1074.1907216446707,None,sing4,001,2019_Oct_22_1625,ProdFawcett_Revision2019,3.2.4,60.04483635894939,
,,,,26,0,26,0,,,,,,,,,,,,,1079.592303833575,None,,,,,,,,,,,,,,,,,,,,,,enemy,D_new,26,113,1075.857998288935,None,1075.857998288935,None,1075.857998288935,None,1,2.316641781362705,1075.857998288935,None,1078.2252490266692,None,1078.2252490266692,None,1078.7421474464936,None,1078.7421474464936,None,1078.7421474464936,None,n,0.8163897147169337,1078.7421474464936,None,sing4,001,2019_Oct_22_1625,ProdFawcett_Revision2019,3.2.4,60.04483635894939,
,,,,27,0,27,0,,,,,,,,,,,,,1083.3767639613943,None,,,,,,,,,,,,,,,,,,,,,,growth,A_silent,27,144,1080.1091870142845,None,1080.1091870142845,None,1080.1091870142845,None,6,1.7367403750540689,1080.1091870142845,None,1081.8963736919686,None,1081.8963736919686,None,1082.4102989376988,None,1082.4102989376988,None,1082.4102989376988,None,r,0.9244275784585625,1082.4102989376988,None,sing4,001,2019_Oct_22_1625,ProdFawcett_Revision2019,3.2.4,60.04483635894939,
,,,,28,0,28,0,,,,,,,,,,,,,1090.4123599444283,None,,,,,,,,,,,,,,,,,,,,,,figure,B_aloud,28,128,1083.893603912904,None,1083.893603912904,None,1083.893603912904,None,5,3.30395136680454,1083.893603912904,None,1087.250287754112,None,1087.250287754112,None,1087.7781458653044,None,1087.7781458653044,None,1087.7781458653044,None,f,2.5872205146588385,1087.7781458653044,None,sing4,001,2019_Oct_22_1625,ProdFawcett_Revision2019,3.2.4,60.04483635894939,
,,,,29,0,29,0,,,,,,,,,,,,,1099.881886932999,None,,,,,,,,,,,,,,,,,,,,,,portion,D_new,29,228,1090.9297111822525,None,1090.9297111822525,None,1090.9297111822525,None,1,6.715350316721015,1090.9297111822525,None,1097.6978589727078,None,1097.6978589727078,None,1098.2146914601326,None,1098.2146914601326,None,1098.2146914601326,None,n,1.6221693035913631,1098.2146914601326,None,sing4,001,2019_Oct_22_1625,ProdFawcett_Revision2019,3.2.4,60.04483635894939,
,,,,30,0,30,0,,,,,,,,,,,,,1108.851278791437,None,,,,,,,,,,,,,,,,,,,,,,crime,D_new,30,78,1100.3995796504896,None,1100.3995796504896,None,1100.3995796504896,None,5,5.828853098209947,1100.3995796504896,None,1106.271163416095,None,1106.271163416095,None,1106.800548233441,None,1106.800548233441,None,1106.800548233441,None,f,2.0120569044956937,1106.800548233441,None,sing4,001,2019_Oct_22_1625,ProdFawcett_Revision2019,3.2.4,60.04483635894939,
,,,,31,0,31,0,,,,,,,,,,,,,1112.8690606107702,None,,,,,,,,,,,,,,,,,,,,,,present,C_sing,31,231,1109.3680919967592,None,1109.3680919967592,None,1109.3680919967592,None,6,2.516204886487685,1109.3680919967592,None,1111.9354242790723,None,1111.9354242790723,None,1112.4523858322063,None,1112.4523858322063,None,1112.4523858322063,None,r,0.3761926518054679,1112.4523858322063,None,sing4,001,2019_Oct_22_1625,ProdFawcett_Revision2019,3.2.4,60.04483635894939,
,,,,32,0,32,0,,,,,,,,,,,,,1118.9377362639643,None,,,,,,,,,,,,,,,,,,,,,,quantity,D_new,32,245,1113.4027527984,None,1113.4027527984,None,1113.4027527984,None,1,2.920980438357219,1113.4027527984,None,1116.386856891797,None,1116.386856891797,None,1116.9051607270958,None,1116.9051607270958,None,1116.9051607270958,None,f,1.9944728821283206,1116.9051607270958,None,sing4,001,2019_Oct_22_1625,ProdFawcett_Revision2019,3.2.4,60.04483635894939,
,,,,33,0,33,0,,,,,,,,,,,,,1125.1730259726755,None,,,,,,,,,,,,,,,,,,,,,,murder,C_sing,33,195,1119.454398633563,None,1119.454398633563,None,1119.454398633563,None,6,2.7334123484324664,1119.454398633563,None,1122.228040264803,None,1122.228040264803,None,1122.755536681274,None,1122.755536681274,None,1122.755536681274,None,r,2.3760275099193677,1122.755536681274,None,sing4,001,2019_Oct_22_1625,ProdFawcett_Revision2019,3.2.4,60.04483635894939,
,,,,34,0,34,0,,,,,,,,,,,,,1130.4077785819536,None,,,,,,,,,,,,,,,,,,,,,,beginning,C_sing,34,19,1125.6909127550898,None,1125.6909127550898,None,1125.6909127550898,None,6,3.104002308915369,1125.6909127550898,None,1128.857317506685,None,1128.857317506685,None,1129.3741975773592,None,1129.3741975773592,None,1129.3741975773592,None,r,0.9891895892797038,1129.3741975773592,None,sing4,001,2019_Oct_22_1625,ProdFawcett_Revision2019,3.2.4,60.04483635894939,
,,,,35,0,35,0,,,,,,,,,,,,,1137.86011061084,None,,,,,,,,,,,,,,,,,,,,,,plane,D_new,35,223,1130.9244959988864,None,1130.9244959988864,None,1130.9244959988864,None,1,3.8464458286762238,1130.9244959988864,None,1134.8256827492733,None,1134.8256827492733,None,1135.3427043256816,None,1135.3427043256816,None,1135.3427043256816,None,n,2.484154320205562,1135.3427043256816,None,sing4,001,2019_Oct_22_1625,ProdFawcett_Revision2019,3.2.4,60.04483635894939,
,,,,36,0,36,0,,,,,,,,,,,,,1142.6615601264639,None,,,,,,,,,,,,,,,,,,,,,,profession,D_new,36,241,1138.3769110650755,None,1138.3769110650755,None,1138.3769110650755,None,1,2.241864279611036,1138.3769110650755,None,1140.6775751465466,None,1140.6775751465466,None,1141.1945674887393,None,1141.1945674887393,None,1141.1945674887393,None,n,1.424261970212683,1141.1945674887393,None,sing4,001,2019_Oct_22_1625,ProdFawcett_Revision2019,3.2.4,60.04483635894939,
,,,,37,0,37,0,,,,,,,,,,,,,1147.0795834073797,None,,,,,,,,,,,,,,,,,,,,,,pancakes,B_aloud,37,210,1143.17958965851,None,1143.17958965851,None,1143.17958965851,None,6,1.878374793450348,1143.17958965851,None,1145.112169518252,None,1145.112169518252,None,1145.6291372913402,None,1145.6291372913402,None,1145.6291372913402,None,r,1.4045873959548771,1145.6291372913402,None,sing4,001,2019_Oct_22_1625,ProdFawcett_Revision2019,3.2.4,60.04483635894939,
,,,,38,0,38,0,,,,,,,,,,,,,1151.480900933966,None,,,,,,,,,,,,,,,,,,,,,,disease,D_new,38,97,1147.5973560522543,None,1147.5973560522543,None,1147.5973560522543,None,1,2.15702028258238,1147.5973560522543,None,1149.8016140353866,None,1149.8016140353866,None,1150.330421323073,None,1150.330421323073,None,1150.330421323073,None,n,1.1113546943524852,1150.330421323073,None,sing4,001,2019_Oct_22_1625,ProdFawcett_Revision2019,3.2.4,60.04483635894939,
,,,,39,0,39,0,,,,,,,,,,,,,1158.216183645185,None,,,,,,,,,,,,,,,,,,,,,,strength,D_new,39,310,1151.9982888699742,None,1151.9982888699742,None,1151.9982888699742,None,5,5.130784821580164,1151.9982888699742,None,1157.1823952026898,None,1157.1823952026898,None,1157.699463740224,None,1157.699463740224,None,1157.699463740224,None,f,0.46955528971739113,1157.699463740224,None,sing4,001,2019_Oct_22_1625,ProdFawcett_Revision2019,3.2.4,60.04483635894939,
,,,,40,0,40,0,,,,,,,,,,,,,1166.668882344733,None,,,,,,,,,,,,,,,,,,,,,,mechanical,A_silent,40,185,1158.7339805481024,None,1158.7339805481024,None,1158.7339805481024,None,4,5.859530593035743,1158.7339805481024,None,1164.6515045162523,None,1164.6515045162523,None,1165.1684048019815,None,1165.1684048019815,None,1165.1684048019815,None,f,1.4642119735945016,1165.1684048019815,None,sing4,001,2019_Oct_22_1625,ProdFawcett_Revision2019,3.2.4,60.04483635894939,
,,,,41,0,41,0,,,,,,,,,,,,,1174.90469857899,None,,,,,,,,,,,,,,,,,,,,,,medicine,D_new,41,186,1167.1859356432687,None,1167.1859356432687,None,1167.1859356432687,None,3,6.118479426717386,1167.1859356432687,None,1173.3438382369932,None,1173.3438382369932,None,1173.870990374824,None,1173.870990374824,None,1173.870990374824,None,f,0.984990136581473,1173.870990374824,None,sing4,001,2019_Oct_22_1625,ProdFawcett_Revision2019,3.2.4,60.04483635894939,
,,,,42,0,42,0,,,,,,,,,,,,,1180.356242219219,None,,,,,,,,,,,,,,,,,,,,,,sweet,D_new,42,319,1175.4214623351581,None,1175.4214623351581,None,1175.4214623351581,None,1,1.778774399193935,1175.4214623351581,None,1177.2438067947514,None,1177.2438067947514,None,1177.7722520766547,None,1177.7722520766547,None,1177.7722520766547,None,f,2.540084200561978,1177.7722520766547,None,sing4,001,2019_Oct_22_1625,ProdFawcett_Revision2019,3.2.4,60.04483635894939,
,,,,43,0,43,0,,,,,,,,,,,,,1183.8072733290028,None,,,,,,,,,,,,,,,,,,,,,,guard,A_silent,43,145,1180.8730986537412,None,1180.8730986537412,None,1180.8730986537412,None,6,1.6785426719579846,1180.8730986537412,None,1182.6070272645447,None,1182.6070272645447,None,1183.1237319305073,None,1183.1237319305073,None,1183.1237319305073,None,r,0.6440059600863606,1183.1237319305073,None,sing4,001,2019_Oct_22_1625,ProdFawcett_Revision2019,3.2.4,60.04483635894939,
,,,,44,0,44,0,,,,,,,,,,,,,1186.8249777089804,None,,,,,,,,,,,,,,,,,,,,,,health,B_aloud,44,149,1184.324131007539,None,1184.324131007539,None,1184.324131007539,None,6,1.2595773676875979,1184.324131007539,None,1185.6411602967419,None,1185.6411602967419,None,1186.1581212277524,None,1186.1581212277524,None,1186.1581212277524,None,r,0.625874885939993,1186.1581212277524,None,sing4,001,2019_Oct_22_1625,ProdFawcett_Revision2019,3.2.4,60.04483635894939,
,,,,45,0,45,0,,,,,,,,,,,,,1189.8924955037655,None,,,,,,,,,,,,,,,,,,,,,,majority,A_silent,45,176,1187.3468978693709,None,1187.3468978693709,None,1187.3468978693709,None,6,1.1566676069051027,1187.3468978693709,None,1188.5587362020742,None,1188.5587362020742,None,1189.0755717995344,None,1189.0755717995344,None,1189.0755717995344,None,r,0.7719874144531786,1189.0755717995344,None,sing4,001,2019_Oct_22_1625,ProdFawcett_Revision2019,3.2.4,60.04483635894939,
,,,,46,0,46,0,,,,,,,,,,,,,1194.1938080232358,None,,,,,,,,,,,,,,,,,,,,,,symbol,D_new,46,321,1190.4091569404118,None,1190.4091569404118,None,1190.4091569404118,None,1,1.5100629187654704,1190.4091569404118,None,1191.976476160693,None,1191.976476160693,None,1192.4933748914627,None,1192.4933748914627,None,1192.4933748914627,None,f,1.665499581838958,1192.4933748914627,None,sing4,001,2019_Oct_22_1625,ProdFawcett_Revision2019,3.2.4,60.04483635894939,
,,,,47,0,47,0,,,,,,,,,,,,,1199.0286674925592,None,,,,,,,,,,,,,,,,,,,,,,short,D_new,47,285,1194.7106392666465,None,1194.7106392666465,None,1194.7106392666465,None,1,2.6246893485076725,1194.7106392666465,None,1197.3948654903797,None,1197.3948654903797,None,1197.9115552281728,None,1197.9115552281728,None,1197.9115552281728,None,n,1.0790204947115853,1197.9115552281728,None,sing4,001,2019_Oct_22_1625,ProdFawcett_Revision2019,3.2.4,60.04483635894939,
,,,,48,0,48,0,,,,,,,,,,,,,1206.9976584700635,None,,,,,,,,,,,,,,,,,,,,,,minor,D_new,48,191,1199.545395172434,None,1199.545395172434,None,1199.545395172434,None,6,6.268895282410085,1199.545395172434,None,1205.8640547313262,None,1205.8640547313262,None,1206.38090370188,None,1206.38090370188,None,1206.38090370188,None,r,0.5691457318607718,1206.38090370188,None,sing4,001,2019_Oct_22_1625,ProdFawcett_Revision2019,3.2.4,60.04483635894939,
,,,,49,0,49,0,,,,,,,,,,,,,1211.3489850001642,None,,,,,,,,,,,,,,,,,,,,,,quarter,D_new,49,246,1207.517543436843,None,1207.517543436843,None,1207.517543436843,None,2,1.768201282597147,1207.517543436843,None,1209.3485415120376,None,1209.3485415120376,None,1209.866802118253,None,1209.866802118253,None,1209.866802118253,None,n,1.4348207807634026,1209.866802118253,None,sing4,001,2019_Oct_22_1625,ProdFawcett_Revision2019,3.2.4,60.04483635894939,
,,,,50,0,50,0,,,,,,,,,,,,,1215.9004291509045,None,,,,,,,,,,,,,,,,,,,,,,quiet,D_new,50,249,1211.869090466993,None,1211.869090466993,None,1211.869090466993,None,1,3.0407623391365632,1211.869090466993,None,1214.9561976215336,None,1214.9561976215336,None,1215.4836290387902,None,1215.4836290387902,None,1215.4836290387902,None,n,0.37816564505919814,1215.4836290387902,None,sing4,001,2019_Oct_22_1625,ProdFawcett_Revision2019,3.2.4,60.04483635894939,
,,,,51,0,51,0,,,,,,,,,,,,,1219.7684780739946,None,,,,,,,,,,,,,,,,,,,,,,relation,A_silent,51,257,1216.4176998394541,None,1216.4176998394541,None,1216.4176998394541,None,1,2.0034850822994485,1216.4176998394541,None,1218.4731153234607,None,1218.4731153234607,None,1219.0012841250282,None,1219.0012841250282,None,1219.0012841250282,None,n,0.7246607673587278,1219.0012841250282,None,sing4,001,2019_Oct_22_1625,ProdFawcett_Revision2019,3.2.4,60.04483635894939,
,,,,52,0,52,0,,,,,,,,,,,,,1223.4359643331263,None,,,,,,,,,,,,,,,,,,,,,,conference,B_aloud,52,66,1220.288732199464,None,1220.288732199464,None,1220.288732199464,None,6,1.8686056155711412,1220.288732199464,None,1222.2189982084092,None,1222.2189982084092,None,1222.735895384103,None,1222.735895384103,None,1222.735895384103,None,r,0.6530026101972908,1222.735895384103,None,sing4,001,2019_Oct_22_1625,ProdFawcett_Revision2019,3.2.4,60.04483635894939,
,,,,53,0,53,0,,,,,,,,,,,,,1231.3217213682365,None,,,,,,,,,,,,,,,,,,,,,,curve,C_sing,53,82,1223.9528590209084,None,1223.9528590209084,None,1223.9528590209084,None,3,5.819688196177594,1223.9528590209084,None,1229.8213725801324,None,1229.8213725801324,None,1230.338071647915,None,1230.338071647915,None,1230.338071647915,None,f,0.9464216016931459,1230.338071647915,None,sing4,001,2019_Oct_22_1625,ProdFawcett_Revision2019,3.2.4,60.04483635894939,
,,,,54,0,54,0,,,,,,,,,,,,,1234.6560090613784,None,,,,,,,,,,,,,,,,,,,,,,shock,D_new,54,284,1231.8384773493744,None,1231.8384773493744,None,1231.8384773493744,None,1,1.4618894148152322,1231.8384773493744,None,1233.3434177630115,None,1233.3434177630115,None,1233.8724866028642,None,1233.8724866028642,None,1233.8724866028642,None,n,0.747840017080307,1233.8724866028642,None,sing4,001,2019_Oct_22_1625,ProdFawcett_Revision2019,3.2.4,60.04483635894939,
,,,,55,0,55,0,,,,,,,,,,,,,1243.3253631952684,None,,,,,,,,,,,,,,,,,,,,,,weight,D_new,55,353,1235.1729762124596,None,1235.1729762124596,None,1235.1729762124596,None,4,6.175651757977903,1235.1729762124596,None,1241.408062837203,None,1241.408062837203,None,1241.9250287443865,None,1241.9250287443865,None,1241.9250287443865,None,f,1.3670653809094802,1241.9250287443865,None,sing4,001,2019_Oct_22_1625,ProdFawcett_Revision2019,3.2.4,60.04483635894939,
,,,,56,0,56,0,,,,,,,,,,,,,1246.943243788788,None,,,,,,,,,,,,,,,,,,,,,,breath,A_silent,56,27,1243.8422171418788,None,1243.8422171418788,None,1243.8422171418788,None,6,1.8973978196736425,1243.8422171418788,None,1245.792856545304,None,1245.792856545304,None,1246.3097042718437,None,1246.3097042718437,None,1246.3097042718437,None,r,0.5904617718188092,1246.3097042718437,None,sing4,001,2019_Oct_22_1625,ProdFawcett_Revision2019,3.2.4,60.04483635894939,
,,,,57,0,57,0,,,,,,,,,,,,,1251.6279296725988,None,,,,,,,,,,,,,,,,,,,,,,clean,D_new,57,51,1247.4598557761637,None,1247.4598557761637,None,1247.4598557761637,None,6,2.9994436183478683,1247.4598557761637,None,1250.4993231053231,None,1250.4993231053231,None,1251.027869462734,None,1251.027869462734,None,1251.027869462734,None,r,0.5674464199692011,1251.027869462734,None,sing4,001,2019_Oct_22_1625,ProdFawcett_Revision2019,3.2.4,60.04483635894939,
,,,,58,0,58,0,,,,,,,,,,,,,1264.2984071439132,None,,,,,,,,,,,,,,,,,,,,,,range,D_new,58,251,1252.1446383815492,None,1252.1446383815492,None,1252.1446383815492,None,2,9.065960610401817,1252.1446383815492,None,1261.2641391371144,None,1261.2641391371144,None,1261.7810686570592,None,1261.7810686570592,None,1261.7810686570592,None,n,2.4692865844117478,1261.7810686570592,None,sing4,001,2019_Oct_22_1625,ProdFawcett_Revision2019,3.2.4,60.04483635894939,
,,,,59,0,59,0,,,,,,,,,,,,,1267.6826939195162,None,,,,,,,,,,,,,,,,,,,,,,notice,A_silent,59,201,1264.8164491159841,None,1264.8164491159841,None,1264.8164491159841,None,6,1.674524533096701,1264.8164491159841,None,1266.549137453083,None,1266.549137453083,None,1267.0660131697077,None,1267.0660131697077,None,1267.0660131697077,None,r,0.5840050706174225,1267.0660131697077,None,sing4,001,2019_Oct_22_1625,ProdFawcett_Revision2019,3.2.4,60.04483635894939,
,,,,60,0,60,0,,,,,,,,,,,,,1272.984500309336,None,,,,,,,,,,,,,,,,,,,,,,music,D_new,60,196,1268.19963992259,None,1268.19963992259,None,1268.19963992259,None,1,2.3786632472183555,1268.19963992259,None,1270.6337251848308,None,1270.6337251848308,None,1271.1505946815014,None,1271.1505946815014,None,1271.1505946815014,None,f,1.7870890232734382,1271.1505946815014,None,sing4,001,2019_Oct_22_1625,ProdFawcett_Revision2019,3.2.4,60.04483635894939,
,,,,61,0,61,0,,,,,,,,,,,,,1277.8883660263382,None,,,,,,,,,,,,,,,,,,,,,,executive,A_silent,61,122,1273.5033098330023,None,1273.5033098330023,None,1273.5033098330023,None,6,2.866215258371085,1273.5033098330023,None,1276.435553500196,None,1276.435553500196,None,1276.9521972098155,None,1276.9521972098155,None,1276.9521972098155,None,r,0.9055466799763963,1276.9521972098155,None,sing4,001,2019_Oct_22_1625,ProdFawcett_Revision2019,3.2.4,60.04483635894939,
,,,,62,0,62,0,,,,,,,,,,,,,1281.8538212282583,None,,,,,,,,,,,,,,,,,,,,,,audience,C_sing,62,14,1278.4197711091256,None,1278.4197711091256,None,1278.4197711091256,None,6,2.2295759900007397,1278.4197711091256,None,1280.7033677415457,None,1280.7033677415457,None,1281.2203171654837,None,1281.2203171654837,None,1281.2203171654837,None,r,0.5969993334729224,1281.2203171654837,None,sing4,001,2019_Oct_22_1625,ProdFawcett_Revision2019,3.2.4,60.04483635894939,
,,,,63,0,63,0,,,,,,,,,,,,,1284.8379592208657,None,,,,,,,,,,,,,,,,,,,,,,drink,C_sing,63,105,1282.3705513962777,None,1282.3705513962777,None,1282.3705513962777,None,6,1.2465218374272808,1282.3705513962777,None,1283.6710833021207,None,1283.6710833021207,None,1284.1877624657936,None,1284.1877624657936,None,1284.1877624657936,None,r,0.6051550358533859,1284.1877624657936,None,sing4,001,2019_Oct_22_1625,ProdFawcett_Revision2019,3.2.4,60.04483635894939,
,,,,64,0,64,0,,,,,,,,,,,,,1289.2559706837637,None,,,,,,,,,,,,,,,,,,,,,,silence,D_new,64,288,1285.3548682146939,None,1285.3548682146939,None,1285.3548682146939,None,1,2.1504522428149357,1285.3548682146939,None,1287.5555300880224,None,1287.5555300880224,None,1288.0723874556134,None,1288.0723874556134,None,1288.0723874556134,None,n,1.144731059903279,1288.0723874556134,None,sing4,001,2019_Oct_22_1625,ProdFawcett_Revision2019,3.2.4,60.04483635894939,
,,,,65,0,65,0,,,,,,,,,,,,,1293.440663565183,None,,,,,,,,,,,,,,,,,,,,,,testimony,D_new,65,325,1289.773319433676,None,1289.773319433676,None,1289.773319433676,None,1,2.339623234118335,1289.773319433676,None,1292.1735957274213,None,1292.1735957274213,None,1292.690469578025,None,1292.690469578025,None,1292.690469578025,None,n,0.7021654098061845,1292.690469578025,None,sing4,001,2019_Oct_22_1625,ProdFawcett_Revision2019,3.2.4,60.04483635894939,
,,,,66,0,66,0,,,,,,,,,,,,,1296.7750025736168,None,,,,,,,,,,,,,,,,,,,,,,throw,B_aloud,66,330,1293.9573660540627,None,1293.9573660540627,None,1293.9573660540627,None,6,1.8349328656913713,1293.9573660540627,None,1295.8581295314943,None,1295.8581295314943,None,1296.3749016846996,None,1296.3749016846996,None,1296.3749016846996,None,r,0.36170682578813285,1296.3749016846996,None,sing4,001,2019_Oct_22_1625,ProdFawcett_Revision2019,3.2.4,60.04483635894939,
,,,,67,0,67,0,,,,,,,,,,,,,1300.926209616824,None,,,,,,,,,,,,,,,,,,,,,,problem,B_aloud,67,238,1297.2921389094554,None,1297.2921389094554,None,1297.2921389094554,None,6,2.7959469667403027,1297.2921389094554,None,1300.1425748869078,None,1300.1425748869078,None,1300.6595768701518,None,1300.6595768701518,None,1300.6595768701518,None,r,0.22841533250175416,1300.6595768701518,None,sing4,001,2019_Oct_22_1625,ProdFawcett_Revision2019,3.2.4,60.04483635894939,
,,,,68,0,68,0,,,,,,,,,,,,,1304.577295525116,None,,,,,,,,,,,,,,,,,,,,,,engineer,D_new,68,114,1301.4441865896806,None,1301.4441865896806,None,1301.4441865896806,None,1,2.0760342585854232,1301.4441865896806,None,1303.5668436990818,None,1303.5668436990818,None,1304.09392555058,None,1304.09392555058,None,1304.09392555058,None,n,0.44225371559150517,1304.09392555058,None,sing4,001,2019_Oct_22_1625,ProdFawcett_Revision2019,3.2.4,60.04483635894939,
,,,,69,0,69,0,,,,,,,,,,,,,1307.6115203027148,None,,,,,,,,,,,,,,,,,,,,,,defeat,D_new,69,88,1305.0939939710079,None,1305.0939939710079,None,1305.0939939710079,None,1,1.537552337627858,1305.0939939710079,None,1306.6847543042386,None,1306.6847543042386,None,1307.2115354173584,None,1307.2115354173584,None,1307.2115354173584,None,n,0.36412206303793937,1307.2115354173584,None,sing4,001,2019_Oct_22_1625,ProdFawcett_Revision2019,3.2.4,60.04483635894939,
,,,,70,0,70,0,,,,,,,,,,,,,1310.8292014198378,None,,,,,,,,,,,,,,,,,,,,,,cover,A_silent,70,77,1308.1284028614173,None,1308.1284028614173,None,1308.1284028614173,None,6,1.7114167702384293,1308.1284028614173,None,1309.88636068895,None,1309.88636068895,None,1310.4124924310017,None,1310.4124924310017,None,1310.4124924310017,None,r,0.37886228831484914,1310.4124924310017,None,sing4,001,2019_Oct_22_1625,ProdFawcett_Revision2019,3.2.4,60.04483635894939,
,,,,71,0,71,0,,,,,,,,,,,,,1313.8135113961762,None,,,,,,,,,,,,,,,,,,,,,,business,D_new,71,38,1311.3470459060045,None,1311.3470459060045,None,1311.3470459060045,None,1,1.4122184386942536,1311.3470459060045,None,1312.8131951077376,None,1312.8131951077376,None,1313.330078288447,None,1313.330078288447,None,1313.330078288447,None,n,0.4369477197760716,1313.330078288447,None,sing4,001,2019_Oct_22_1625,ProdFawcett_Revision2019,3.2.4,60.04483635894939,
,,,,72,0,72,0,,,,,,,,,,,,,1316.6976478026481,None,,,,,,,,,,,,,,,,,,,,,,title,B_aloud,72,331,1314.3301762539195,None,1314.3301762539195,None,1314.3301762539195,None,6,1.4128808717941865,1314.3301762539195,None,1315.797504462069,None,1315.797504462069,None,1316.3141643437557,None,1316.3141643437557,None,1316.3141643437557,None,r,0.34905559744220227,1316.3141643437557,None,sing4,001,2019_Oct_22_1625,ProdFawcett_Revision2019,3.2.4,60.04483635894939,
,,,,73,0,73,0,,,,,,,,,,,,,1319.2318543866277,None,,,,,,,,,,,,,,,,,,,,,,dozen,A_silent,73,102,1317.216210391256,None,1317.216210391256,None,1317.216210391256,None,6,1.1666762558743358,1317.216210391256,None,1318.4482470247895,None,1318.4482470247895,None,1318.9673498228658,None,1318.9673498228658,None,1318.9673498228658,None,r,0.22383925702888519,1318.9673498228658,None,sing4,001,2019_Oct_22_1625,ProdFawcett_Revision2019,3.2.4,60.04483635894939,
,,,,74,0,74,0,,,,,,,,,,,,,1326.21730480541,None,,,,,,,,,,,,,,,,,,,,,,degree,D_new,74,89,1319.7485923296772,None,1319.7485923296772,None,1319.7485923296772,None,5,5.418306914274581,1319.7485923296772,None,1325.2170221051201,None,1325.2170221051201,None,1325.7336938048247,None,1325.7336938048247,None,1325.7336938048247,None,f,0.441484919982031,1325.7336938048247,None,sing4,001,2019_Oct_22_1625,ProdFawcett_Revision2019,3.2.4,60.04483635894939,
,,,,75,0,75,0,,,,,,,,,,,,,1331.1187950932654,None,,,,,,,,,,,,,,,,,,,,,,answer,D_new,75,8,1326.734098106739,None,1326.734098106739,None,1326.734098106739,None,1,2.464102190104313,1326.734098106739,None,1329.241863657604,None,1329.241863657604,None,1329.7686649858952,None,1329.7686649858952,None,1329.7686649858952,None,n,1.301395867834799,1329.7686649858952,None,sing4,001,2019_Oct_22_1625,ProdFawcett_Revision2019,3.2.4,60.04483635894939,
,,,,76,0,76,0,,,,,,,,,,,,,1336.503636695561,None,,,,,,,,,,,,,,,,,,,,,,season,D_new,76,277,1331.6354730130406,None,1331.6354730130406,None,1331.6354730130406,None,6,3.8507734138984233,1331.6354730130406,None,1335.5368152642623,None,1335.5368152642623,None,1336.0534981599776,None,1336.0534981599776,None,1336.0534981599776,None,r,0.41668255371041596,1336.0534981599776,None,sing4,001,2019_Oct_22_1625,ProdFawcett_Revision2019,3.2.4,60.04483635894939,
,,,,77,0,77,0,,,,,,,,,,,,,1340.1047959845746,None,,,,,,,,,,,,,,,,,,,,,,phrase,D_new,77,220,1337.0205292063765,None,1337.0205292063765,None,1337.0205292063765,None,5,2.1774011412635446,1337.0205292063765,None,1339.2545994783286,None,1339.2545994783286,None,1339.7725836042082,None,1339.7725836042082,None,1339.7725836042082,None,f,0.2971133778337389,1339.7725836042082,None,sing4,001,2019_Oct_22_1625,ProdFawcett_Revision2019,3.2.4,60.04483635894939,
,,,,78,0,78,0,,,,,,,,,,,,,1344.1393927199533,None,,,,,,,,,,,,,,,,,,,,,,beauty,D_new,78,18,1340.6216754333582,None,1340.6216754333582,None,1340.6216754333582,None,1,2.071549928630702,1340.6216754333582,None,1342.7437341759214,None,1342.7437341759214,None,1343.2724462971091,None,1343.2724462971091,None,1343.2724462971091,None,n,0.8207176110008731,1343.2724462971091,None,sing4,001,2019_Oct_22_1625,ProdFawcett_Revision2019,3.2.4,60.04483635894939,
,,,,79,0,79,0,,,,,,,,,,,,,1351.2914861174067,None,,,,,,,,,,,,,,,,,,,,,,character,D_new,79,46,1344.6560641085962,None,1344.6560641085962,None,1344.6560641085962,None,2,3.6612883111229166,1344.6560641085962,None,1348.3740613587433,None,1348.3740613587433,None,1348.8907153314212,None,1348.8907153314212,None,1348.8907153314212,None,f,2.354001142666675,1348.8907153314212,None,sing4,001,2019_Oct_22_1625,ProdFawcett_Revision2019,3.2.4,60.04483635894939,
,,,,80,0,80,0,,,,,,,,,,,,,1358.2769673252478,None,,,,,,,,,,,,,,,,,,,,,,message,C_sing,80,189,1351.8088625464588,None,1351.8088625464588,None,1351.8088625464588,None,6,5.427931165439077,1351.8088625464588,None,1357.2933798052836,None,1357.2933798052836,None,1357.8102359288605,None,1357.8102359288605,None,1357.8102359288605,None,r,0.43405727215576917,1357.8102359288605,None,sing4,001,2019_Oct_22_1625,ProdFawcett_Revision2019,3.2.4,60.04483635894939,
,,,,81,0,81,0,,,,,,,,,,,,,1362.1281910693506,None,,,,,,,,,,,,,,,,,,,,,,principal,B_aloud,81,236,1358.7937167753698,None,1358.7937167753698,None,1358.7937167753698,None,6,2.210833798046224,1358.7937167753698,None,1361.0612047761679,None,1361.0612047761679,None,1361.577925303136,None,1361.577925303136,None,1361.577925303136,None,r,0.5069637892302126,1361.577925303136,None,sing4,001,2019_Oct_22_1625,ProdFawcett_Revision2019,3.2.4,60.04483635894939,
,,,,82,0,82,0,,,,,,,,,,,,,1365.4625857470091,None,,,,,,,,,,,,,,,,,,,,,,century,B_aloud,82,45,1362.6456390287494,None,1362.6456390287494,None,1362.6456390287494,None,6,1.5909074370283633,1362.6456390287494,None,1364.2842173912795,None,1364.2842173912795,None,1364.8122456202982,None,1364.8122456202982,None,1364.8122456202982,None,r,0.6160534599330276,1364.8122456202982,None,sing4,001,2019_Oct_22_1625,ProdFawcett_Revision2019,3.2.4,60.04483635894939,
,,,,83,0,83,0,,,,,,,,,,,,,1368.496824208647,None,,,,,,,,,,,,,,,,,,,,,,tennis,A_silent,83,323,1365.9793146710144,None,1365.9793146710144,None,1365.9793146710144,None,6,1.3124497926328331,1365.9793146710144,None,1367.3464089750778,None,1367.3464089750778,None,1367.8633686620742,None,1367.8633686620742,None,1367.8633686620742,None,r,0.5883653110358864,1367.8633686620742,None,sing4,001,2019_Oct_22_1625,ProdFawcett_Revision2019,3.2.4,60.04483635894939,
,,,,84,0,84,0,,,,,,,,,,,,,1372.3479086240986,None,,,,,,,,,,,,,,,,,,,,,,carry,D_new,84,43,1369.0134439710528,None,1369.0134439710528,None,1369.0134439710528,None,1,1.6142337903147563,1369.0134439710528,None,1370.6702970904298,None,1370.6702970904298,None,1371.1976423601154,None,1371.1976423601154,None,1371.1976423601154,None,n,1.1017739833332598,1371.1976423601154,None,sing4,001,2019_Oct_22_1625,ProdFawcett_Revision2019,3.2.4,60.04483635894939,
,,,,85,0,85,0,,,,,,,,,,,,,1376.7160083957715,None,,,,,,,,,,,,,,,,,,,,,,fellow,D_new,85,126,1372.8647479536012,None,1372.8647479536012,None,1372.8647479536012,None,1,1.9948725189315155,1372.8647479536012,None,1374.9033802438062,None,1374.9033802438062,None,1375.4321464792592,None,1375.4321464792592,None,1375.4321464792592,None,n,1.2349989224458113,1375.4321464792592,None,sing4,001,2019_Oct_22_1625,ProdFawcett_Revision2019,3.2.4,60.04483635894939,
,,,,86,0,86,0,,,,,,,,,,,,,1384.468218294438,None,,,,,,,,,,,,,,,,,,,,,,contract,D_new,86,68,1377.2334594652057,None,1377.2334594652057,None,1377.2334594652057,None,3,4.881480765063316,1377.2334594652057,None,1382.1676111263223,None,1382.1676111263223,None,1382.684479689924,None,1382.684479689924,None,1382.684479689924,None,f,1.7506181930657476,1382.684479689924,None,sing4,001,2019_Oct_22_1625,ProdFawcett_Revision2019,3.2.4,60.04483635894939,
,,,,87,0,87,0,,,,,,,,,,,,,1387.8197531955084,None,,,,,,,,,,,,,,,,,,,,,,public,C_sing,87,244,1384.9852924300358,None,1384.9852924300358,None,1384.9852924300358,None,6,1.8580331209814176,1384.9852924300358,None,1386.9023206618149,None,1386.9023206618149,None,1387.4192623108393,None,1387.4192623108393,None,1387.4192623108393,None,r,0.351162321283482,1387.4192623108393,None,sing4,001,2019_Oct_22_1625,ProdFawcett_Revision2019,3.2.4,60.04483635894939,
,,,,88,0,88,0,,,,,,,,,,,,,1390.520146519062,None,,,,,,,,,,,,,,,,,,,,,,position,C_sing,88,229,1388.336394728045,None,1388.336394728045,None,1388.336394728045,None,6,1.361933856853284,1388.336394728045,None,1389.7532091463218,None,1389.7532091463218,None,1390.2701066330774,None,1390.2701066330774,None,1390.2701066330774,None,r,0.20406609529163688,1390.2701066330774,None,sing4,001,2019_Oct_22_1625,ProdFawcett_Revision2019,3.2.4,60.04483635894939,
,,,,89,0,89,0,,,,,,,,,,,,,1393.7878450677963,None,,,,,,,,,,,,,,,,,,,,,,track,A_silent,89,334,1391.037167473347,None,1391.037167473347,None,1391.037167473347,None,6,1.549360441043973,1391.037167473347,None,1392.6374189491617,None,1392.6374189491617,None,1393.154316124972,None,1393.154316124972,None,1393.154316124972,None,r,0.6001976724946871,1393.154316124972,None,sing4,001,2019_Oct_22_1625,ProdFawcett_Revision2019,3.2.4,60.04483635894939,
,,,,90,0,90,0,,,,,,,,,,,,,1397.1055115989875,None,,,,,,,,,,,,,,,,,,,,,,passage,A_silent,90,212,1394.304932265426,None,1394.304932265426,None,1394.304932265426,None,1,1.7369048948166892,1394.304932265426,None,1396.1051072970731,None,1396.1051072970731,None,1396.6220318409614,None,1396.6220318409614,None,1396.6220318409614,None,n,0.4357338809641078,1396.6220318409614,None,sing4,001,2019_Oct_22_1625,ProdFawcett_Revision2019,3.2.4,60.04483635894939,
,,,,91,0,91,0,,,,,,,,,,,,,1400.5065554443281,None,,,,,,,,,,,,,,,,,,,,,,suggestion,B_aloud,91,314,1397.6243581318995,None,1397.6243581318995,None,1397.6243581318995,None,6,1.3935928724240512,1397.6243581318995,None,1399.0726922369795,None,1399.0726922369795,None,1399.5894774522167,None,1399.5894774522167,None,1399.5894774522167,None,r,0.8681294724810869,1399.5894774522167,None,sing4,001,2019_Oct_22_1625,ProdFawcett_Revision2019,3.2.4,60.04483635894939,
,,,,92,0,92,0,,,,,,,,,,,,,1403.7408197812038,None,,,,,,,,,,,,,,,,,,,,,,candidate,A_silent,92,39,1401.024021441699,None,1401.024021441699,None,1401.024021441699,None,6,1.5063159731216729,1401.024021441699,None,1402.5904561738716,None,1402.5904561738716,None,1403.107331579551,None,1403.107331579551,None,1403.107331579551,None,r,0.5908467917470261,1403.107331579551,None,sing4,001,2019_Oct_22_1625,ProdFawcett_Revision2019,3.2.4,60.04483635894939,
,,,,93,0,93,0,,,,,,,,,,,,,1406.8750019826693,None,,,,,,,,,,,,,,,,,,,,,,crisis,D_new,93,79,1404.2575673653046,None,1404.2575673653046,None,1404.2575673653046,None,1,1.3281065390910953,1404.2575673653046,None,1405.6414489060408,None,1405.6414489060408,None,1406.1581280698301,None,1406.1581280698301,None,1406.1581280698301,None,n,0.6758932506199926,1406.1581280698301,None,sing4,001,2019_Oct_22_1625,ProdFawcett_Revision2019,3.2.4,60.04483635894939,
,,,,94,0,94,0,,,,,,,,,,,,,1409.759253148688,None,,,,,,,,,,,,,,,,,,,,,,nature,A_silent,94,200,1407.3923690816155,None,1407.3923690816155,None,1407.3923690816155,None,1,1.2575247581116855,1407.3923690816155,None,1408.70901614998,None,1408.70901614998,None,1409.2258427285124,None,1409.2258427285124,None,1409.2258427285124,None,n,0.48710852302610874,1409.2258427285124,None,sing4,001,2019_Oct_22_1625,ProdFawcett_Revision2019,3.2.4,60.04483635894939,
,,,,95,0,95,0,,,,,,,,,,,,,1412.793594240793,None,,,,,,,,,,,,,,,,,,,,,,member,C_sing,95,188,1410.2763406573795,None,1410.2763406573795,None,1410.2763406573795,None,6,1.6044720765203238,1410.2763406573795,None,1411.9432904389687,None,1411.9432904389687,None,1412.4600706782658,None,1412.4600706782658,None,1412.4600706782658,None,r,0.30067372240591794,1412.4600706782658,None,sing4,001,2019_Oct_22_1625,ProdFawcett_Revision2019,3.2.4,60.04483635894939,
,,,,96,0,96,0,,,,,,,,,,,,,1415.7610914782854,None,,,,,,,,,,,,,,,,,,,,,,husband,D_new,96,156,1413.3110058129532,None,1413.3110058129532,None,1413.3110058129532,None,1,1.5138244814006612,1413.3110058129532,None,1414.877623102977,None,1414.877623102977,None,1415.3942708555842,None,1415.3942708555842,None,1415.3942708555842,None,n,0.31833207432646304,1415.3942708555842,None,sing4,001,2019_Oct_22_1625,ProdFawcett_Revision2019,3.2.4,60.04483635894939,
,,,,97,0,97,0,,,,,,,,,,,,,1419.012171353097,None,,,,,,,,,,,,,,,,,,,,,,master,C_sing,97,180,1416.278025663225,None,1416.278025663225,None,1416.278025663225,None,6,1.6828599942382425,1416.278025663225,None,1418.0117770032957,None,1418.0117770032957,None,1418.528693772154,None,1418.528693772154,None,1418.528693772154,None,r,0.44781970873009413,1418.528693772154,None,sing4,001,2019_Oct_22_1625,ProdFawcett_Revision2019,3.2.4,60.04483635894939,
,,,,98,0,98,0,,,,,,,,,,,,,1422.1463367604883,None,,,,,,,,,,,,,,,,,,,,,,produce,D_new,98,239,1419.5290231226245,None,1419.5290231226245,None,1419.5290231226245,None,1,1.3997696723090485,1419.5290231226245,None,1420.9794247655664,None,1420.9794247655664,None,1421.4962532100035,None,1421.4962532100035,None,1421.4962532100035,None,n,0.6164711349410936,1421.4962532100035,None,sing4,001,2019_Oct_22_1625,ProdFawcett_Revision2019,3.2.4,60.04483635894939,
,,,,99,0,99,0,,,,,,,,,,,,,1425.1139220114565,None,,,,,,,,,,,,,,,,,,,,,,comfort,B_aloud,99,59,1422.66391098639,None,1422.66391098639,None,1422.66391098639,None,6,1.544582836679183,1422.66391098639,None,1424.2508242316544,None,1424.2508242316544,None,1424.7804939263733,None,1424.7804939263733,None,1424.7804939263733,None,r,0.3000175093766302,1424.7804939263733,None,sing4,001,2019_Oct_22_1625,ProdFawcett_Revision2019,3.2.4,60.04483635894939,
,,,,100,0,100,0,,,,,,,,,,,,,1427.7651189472526,None,,,,,,,,,,,,,,,,,,,,,,sight,D_new,100,286,1425.63079866115,None,1425.63079866115,None,1425.63079866115,None,1,1.1451378498459235,1425.63079866115,None,1426.831134915934,None,1426.831134915934,None,1427.348034579656,None,1427.348034579656,None,1427.348034579656,None,n,0.37255362363066524,1427.348034579656,None,sing4,001,2019_Oct_22_1625,ProdFawcett_Revision2019,3.2.4,60.04483635894939,
,,,,101,0,101,0,,,,,,,,,,,,,1430.448965438176,None,,,,,,,,,,,,,,,,,,,,,,addition,C_sing,101,2,1428.2818702632794,None,1428.2818702632794,None,1428.2818702632794,None,6,1.2858190487604588,1428.2818702632794,None,1429.620566091151,None,1429.620566091151,None,1430.1487675479148,None,1430.1487675479148,None,1430.1487675479148,None,r,0.25946136412676424,1430.1487675479148,None,sing4,001,2019_Oct_22_1625,ProdFawcett_Revision2019,3.2.4,60.04483635894939,
,,,,102,0,102,0,,,,,,,,,,,,,1433.2997261011042,None,,,,,,,,,,,,,,,,,,,,,,clear,B_aloud,102,52,1430.9656645059586,None,1430.9656645059586,None,1430.9656645059586,None,6,1.242534487741068,1430.9656645059586,None,1432.2556895384332,None,1432.2556895384332,None,1432.7830229902174,None,1432.7830229902174,None,1432.7830229902174,None,r,0.47293960757087916,1432.7830229902174,None,sing4,001,2019_Oct_22_1625,ProdFawcett_Revision2019,3.2.4,60.04483635894939,
,,,,103,0,103,0,,,,,,,,,,,,,1435.883853706182,None,,,,,,,,,,,,,,,,,,,,,,shape,C_sing,103,282,1433.8167703804793,None,1433.8167703804793,None,1433.8167703804793,None,6,1.0392850822536275,1433.8167703804793,None,1434.90665042412,None,1434.90665042412,None,1435.4171897970373,None,1435.4171897970373,None,1435.4171897970373,None,r,0.430254346341826,1435.4171897970373,None,sing4,001,2019_Oct_22_1625,ProdFawcett_Revision2019,3.2.4,60.04483635894939,
,,,,104,0,104,0,,,,,,,,,,,,,1442.685993022984,None,,,,,,,,,,,,,,,,,,,,,,smell,D_new,104,291,1436.4007723410614,None,1436.4007723410614,None,1436.4007723410614,None,5,5.49449916172307,1436.4007723410614,None,1441.952398427762,None,1441.952398427762,None,1442.4693018235266,None,1442.4693018235266,None,1442.4693018235266,None,f,0.17797400592826307,1442.4693018235266,None,sing4,001,2019_Oct_22_1625,ProdFawcett_Revision2019,3.2.4,60.04483635894939,
,,,,105,0,105,0,,,,,,,,,,,,,1446.4038039832376,None,,,,,,,,,,,,,,,,,,,,,,fashion,A_silent,105,125,1443.2029828772647,None,1443.2029828772647,None,1443.2029828772647,None,6,1.8677985669346526,1443.2029828772647,None,1445.1085401312448,None,1445.1085401312448,None,1445.6367932142457,None,1445.6367932142457,None,1445.6367932142457,None,r,0.7219926858088002,1445.6367932142457,None,sing4,001,2019_Oct_22_1625,ProdFawcett_Revision2019,3.2.4,60.04483635894939,
,,,,106,0,106,0,,,,,,,,,,,,,1452.18890384119,None,,,,,,,,,,,,,,,,,,,,,,suspect,D_new,106,318,1446.920905175968,None,1446.920905175968,None,1446.920905175968,None,4,3.726210176711902,1446.920905175968,None,1450.7049827721203,None,1450.7049827721203,None,1451.2219723153394,None,1451.2219723153394,None,1451.2219723153394,None,f,0.9202632689848542,1451.2219723153394,None,sing4,001,2019_Oct_22_1625,ProdFawcett_Revision2019,3.2.4,60.04483635894939,
,,,,107,0,107,0,,,,,,,,,,,,,1455.6066204747185,None,,,,,,,,,,,,,,,,,,,,,,detective,A_silent,107,92,1452.7057752037654,None,1452.7057752037654,None,1452.7057752037654,None,6,1.9007451283978298,1452.7057752037654,None,1454.6563729330665,None,1454.6563729330665,None,1455.1730337477056,None,1455.1730337477056,None,1455.1730337477056,None,r,0.3934787347679958,1455.1730337477056,None,sing4,001,2019_Oct_22_1625,ProdFawcett_Revision2019,3.2.4,60.04483635894939,
,,,,108,0,108,0,,,,,,,,,,,,,1458.6740944181802,None,,,,,,,,,,,,,,,,,,,,,,native,A_silent,108,199,1456.1242634319933,None,1456.1242634319933,None,1456.1242634319933,None,6,1.5696374251274392,1456.1242634319933,None,1457.7572543423157,None,1457.7572543423157,None,1458.274288980756,None,1458.274288980756,None,1458.274288980756,None,r,0.36372211517300457,1458.274288980756,None,sing4,001,2019_Oct_22_1625,ProdFawcett_Revision2019,3.2.4,60.04483635894939,
,,,,109,0,109,0,,,,,,,,,,,,,1462.1918045517523,None,,,,,,,,,,,,,,,,,,,,,,south,D_new,109,296,1459.191082095378,None,1459.191082095378,None,1459.191082095378,None,1,1.838604237884283,1459.191082095378,None,1461.0915715806186,None,1461.0915715806186,None,1461.6084214841248,None,1461.6084214841248,None,1461.6084214841248,None,n,0.5497305328026414,1461.6084214841248,None,sing4,001,2019_Oct_22_1625,ProdFawcett_Revision2019,3.2.4,60.04483635894939,
,,,,110,0,110,0,,,,,,,,,,,,,1465.0761104540434,None,,,,,,,,,,,,,,,,,,,,,,mayor,C_sing,110,183,1462.7096272679046,None,1462.7096272679046,None,1462.7096272679046,None,6,1.5198283644858748,1462.7096272679046,None,1464.2924427578691,None,1464.2924427578691,None,1464.8093900048407,None,1464.8093900048407,None,1464.8093900048407,None,r,0.2200198482023552,1464.8093900048407,None,sing4,001,2019_Oct_22_1625,ProdFawcett_Revision2019,3.2.4,60.04483635894939,
,,,,111,0,111,0,,,,,,,,,,,,,1468.8439198748674,None,,,,,,,,,,,,,,,,,,,,,,measure,D_new,111,184,1465.5940864939475,None,1465.5940864939475,None,1465.5940864939475,None,1,2.051165027078241,1465.5940864939475,None,1467.7102001325693,None,1467.7102001325693,None,1468.2270232900046,None,1468.2270232900046,None,1468.2270232900046,None,n,0.5701583526097238,1468.2270232900046,None,sing4,001,2019_Oct_22_1625,ProdFawcett_Revision2019,3.2.4,60.04483635894939,
,,,,112,0,112,0,,,,,,,,,,,,,1472.9283975121798,None,,,,,,,,,,,,,,,,,,,,,,trend,D_new,112,340,1469.3608571698423,None,1469.3608571698423,None,1469.3608571698423,None,1,2.4522141594206914,1469.3608571698423,None,1471.878250081907,None,1471.878250081907,None,1472.3949373316718,None,1472.3949373316718,None,1472.3949373316718,None,n,0.49825543735641986,1472.3949373316718,None,sing4,001,2019_Oct_22_1625,ProdFawcett_Revision2019,3.2.4,60.04483635894939,
,,,,113,0,113,0,,,,,,,,,,,,,1480.3641444551758,None,,,,,,,,,,,,,,,,,,,,,,trash,D_new,113,337,1473.4451911244541,None,1473.4451911244541,None,1473.4451911244541,None,2,5.208187486627139,1473.4451911244541,None,1478.713695477927,None,1478.713695477927,None,1479.2303497615503,None,1479.2303497615503,None,1479.2303497615503,None,f,1.094576476723887,1479.2303497615503,None,sing4,001,2019_Oct_22_1625,ProdFawcett_Revision2019,3.2.4,60.04483635894939,
,,,,114,0,114,0,,,,,,,,,,,,,1484.7487145533087,None,,,,,,,,,,,,,,,,,,,,,,expansion,A_silent,114,123,1480.8818589427974,None,1480.8818589427974,None,1480.8818589427974,None,1,2.618525921483524,1480.8818589427974,None,1483.5543989756843,None,1483.5543989756843,None,1484.0818795311498,None,1484.0818795311498,None,1484.0818795311498,None,n,0.6343605607980862,1484.0818795311498,None,sing4,001,2019_Oct_22_1625,ProdFawcett_Revision2019,3.2.4,60.04483635894939,
,,,,115,0,115,0,,,,,,,,,,,,,1487.9664317466086,None,,,,,,,,,,,,,,,,,,,,,,colonel,D_new,115,55,1485.2660250499612,None,1485.2660250499612,None,1485.2660250499612,None,1,1.5944525426020846,1485.2660250499612,None,1486.9161225955468,None,1486.9161225955468,None,1487.4329501070315,None,1487.4329501070315,None,1487.4329501070315,None,n,0.499529299326241,1487.4329501070315,None,sing4,001,2019_Oct_22_1625,ProdFawcett_Revision2019,3.2.4,60.04483635894939,
,,,,116,0,116,0,,,,,,,,,,,,,1493.9848299708683,None,,,,,,,,,,,,,,,,,,,,,,instrument,C_sing,116,163,1488.4848005812382,None,1488.4848005812382,None,1488.4848005812382,None,6,4.167037017527036,1488.4848005812382,None,1492.7061729746638,None,1492.7061729746638,None,1493.234832536662,None,1493.234832536662,None,1493.234832536662,None,r,0.712895582197234,1493.234832536662,None,sing4,001,2019_Oct_22_1625,ProdFawcett_Revision2019,3.2.4,60.04483635894939,
,,,,117,0,117,0,,,,,,,,,,,,,1497.319136013044,None,,,,,,,,,,,,,,,,,,,,,,individual,D_new,117,160,1494.502404818777,None,1494.502404818777,None,1494.502404818777,None,1,1.5972549767466262,1494.502404818777,None,1496.1522591612302,None,1496.1522591612302,None,1496.6690083004069,None,1496.6690083004069,None,1496.6690083004069,None,n,0.6145438587991521,1496.6690083004069,None,sing4,001,2019_Oct_22_1625,ProdFawcett_Revision2019,3.2.4,60.04483635894939,
,,,,118,0,118,0,,,,,,,,,,,,,1510.106436206377,None,,,,,,,,,,,,,,,,,,,,,,alert,D_new,118,6,1497.8360310118878,None,1497.8360310118878,None,1497.8360310118878,None,5,10.159513581194915,1497.8360310118878,None,1508.0559177513933,None,1508.0559177513933,None,1508.572590073105,None,1508.572590073105,None,1508.572590073105,None,f,1.4861307344399393,1508.572590073105,None,sing4,001,2019_Oct_22_1625,ProdFawcett_Revision2019,3.2.4,60.04483635894939,
,,,,119,0,119,0,,,,,,,,,,,,,1513.1740927076899,None,,,,,,,,,,,,,,,,,,,,,,device,C_sing,119,93,1510.6235414420953,None,1510.6235414420953,None,1510.6235414420953,None,6,1.3078186699422076,1510.6235414420953,None,1511.9902693864424,None,1511.9902693864424,None,1512.5072396474425,None,1512.5072396474425,None,1512.5072396474425,None,r,0.623978088144213,1512.5072396474425,None,sing4,001,2019_Oct_22_1625,ProdFawcett_Revision2019,3.2.4,60.04483635894939,
,,,,120,0,120,0,,,,,,,,,,,,,1526.5781588652171,None,,,,,,,,,,,,,,,,,,,,,,appearance,D_new,120,10,1513.6926245071227,None,1513.6926245071227,None,1513.6926245071227,None,3,11.28532953246031,1513.6926245071227,None,1524.9992560845567,None,1524.9992560845567,None,1525.5121270354139,None,1525.5121270354139,None,1525.5121270354139,None,f,1.025676902383566,1525.5121270354139,None,sing4,001,2019_Oct_22_1625,ProdFawcett_Revision2019,3.2.4,60.04483635894939,
,,,,121,0,121,0,,,,,,,,,,,,,1530.8293301743688,None,,,,,,,,,,,,,,,,,,,,,,color,B_aloud,121,56,1527.095499839983,None,1527.095499839983,None,1527.095499839983,None,6,2.7377673018490896,1527.095499839983,None,1529.8958770226454,None,1529.8958770226454,None,1530.4125138901873,None,1530.4125138901873,None,1530.4125138901873,None,r,0.38093293586280197,1530.4125138901873,None,sing4,001,2019_Oct_22_1625,ProdFawcett_Revision2019,3.2.4,60.04483635894939,
,,,,122,0,122,0,,,,,,,,,,,,,1534.31384743331,None,,,,,,,,,,,,,,,,,,,,,,society,B_aloud,122,293,1531.346510050469,None,1531.346510050469,None,1531.346510050469,None,6,1.2946654852712527,1531.346510050469,None,1532.6966395359486,None,1532.6966395359486,None,1533.2135435537202,None,1533.2135435537202,None,1533.2135435537202,None,r,1.0598988810088485,1533.2135435537202,None,sing4,001,2019_Oct_22_1625,ProdFawcett_Revision2019,3.2.4,60.04483635894939,
,,,,123,0,123,0,,,,,,,,,,,,,1537.9483137346106,None,,,,,,,,,,,,,,,,,,,,,,burden,D_new,123,36,1534.8313787410734,None,1534.8313787410734,None,1534.8313787410734,None,1,1.6660068252822384,1534.8313787410734,None,1536.5356057796162,None,1536.5356057796162,None,1537.0645576828392,None,1537.0645576828392,None,1537.0645576828392,None,n,0.8485261173918843,1537.0645576828392,None,sing4,001,2019_Oct_22_1625,ProdFawcett_Revision2019,3.2.4,60.04483635894939,
,,,,124,0,124,0,,,,,,,,,,,,,1541.349310307647,None,,,,,,,,,,,,,,,,,,,,,,research,C_sing,124,261,1538.465549590881,None,1538.465549590881,None,1538.465549590881,None,6,1.6078635475132614,1538.465549590881,None,1540.132218227256,None,1540.132218227256,None,1540.6491228670347,None,1540.6491228670347,None,1540.6491228670347,None,r,0.6635570666985586,1540.6491228670347,None,sing4,001,2019_Oct_22_1625,ProdFawcett_Revision2019,3.2.4,60.04483635894939,
,,,,125,0,125,0,,,,,,,,,,,,,1546.584193226532,None,,,,,,,,,,,,,,,,,,,,,,agency,D_new,125,4,1541.8663446350256,None,1541.8663446350256,None,1541.8663446350256,None,1,1.83020097843837,1541.8663446350256,None,1543.7363656183006,None,1543.7363656183006,None,1544.2502062717685,None,1544.2502062717685,None,1544.2502062717685,None,n,2.2861250741407275,1544.2502062717685,None,sing4,001,2019_Oct_22_1625,ProdFawcett_Revision2019,3.2.4,60.04483635894939,
,,,,126,0,126,0,,,,,,,,,,,,,1555.553668122273,None,,,,,,,,,,,,,,,,,,,,,,people,D_new,126,216,1547.1010446849978,None,1547.1010446849978,None,1547.1010446849978,None,4,6.106751561746933,1547.1010446849978,None,1553.2695695335278,None,1553.2695695335278,None,1553.7864533362444,None,1553.7864533362444,None,1553.7864533362444,None,f,1.7258148937253281,1553.7864533362444,None,sing4,001,2019_Oct_22_1625,ProdFawcett_Revision2019,3.2.4,60.04483635894939,
,,,,127,0,127,0,,,,,,,,,,,,,1567.3571400804212,None,,,,,,,,,,,,,,,,,,,,,,capital,B_aloud,127,40,1556.0713642607443,None,1556.0713642607443,None,1556.0713642607443,None,5,9.3837776662549,1556.0713642607443,None,1565.5066400367068,None,1565.5066400367068,None,1566.0235054902732,None,1566.0235054902732,None,1566.0235054902732,None,f,1.2873796541243792,1566.0235054902732,None,sing4,001,2019_Oct_22_1625,ProdFawcett_Revision2019,3.2.4,60.04483635894939,
,,,,128,0,128,0,,,,,,,,,,,,,1573.1588365311036,None,,,,,,,,,,,,,,,,,,,,,,vision,D_new,128,347,1567.8740397441434,None,1567.8740397441434,None,1567.8740397441434,None,1,3.2931533962255344,1567.8740397441434,None,1571.2133059486514,None,1571.2133059486514,None,1571.7417624266818,None,1571.7417624266818,None,1571.7417624266818,None,n,1.3772301526041701,1571.7417624266818,None,sing4,001,2019_Oct_22_1625,ProdFawcett_Revision2019,3.2.4,60.04483635894939,
,,,,129,0,129,0,,,,,,,,,,,,,1577.993806716986,None,,,,,,,,,,,,,,,,,,,,,,revolution,A_silent,129,264,1573.6811504192883,None,1573.6811504192883,None,1573.6811504192883,None,1,2.917651789728552,1573.6811504192883,None,1576.6600685634185,None,1576.6600685634185,None,1577.1767234690487,None,1577.1767234690487,None,1577.1767234690487,None,n,0.7817466402193531,1577.1767234690487,None,sing4,001,2019_Oct_22_1625,ProdFawcett_Revision2019,3.2.4,60.04483635894939,
,,,,130,0,130,0,,,,,,,,,,,,,1581.1447441220516,None,,,,,,,,,,,,,,,,,,,,,,recall,B_aloud,130,255,1578.5105511910515,None,1578.5105511910515,None,1578.5105511910515,None,6,1.5760888394434005,1578.5105511910515,None,1580.1310777849285,None,1580.1310777849285,None,1580.6445778917987,None,1580.6445778917987,None,1580.6445778917987,None,r,0.4658892045263201,1580.6445778917987,None,sing4,001,2019_Oct_22_1625,ProdFawcett_Revision2019,3.2.4,60.04483635894939,
,,,,131,0,131,0,,,,,,,,,,,,,1583.8621031971416,None,,,,,,,,,,,,,,,,,,,,,,agreement,B_aloud,131,5,1581.6620962929446,None,1581.6620962929446,None,1581.6620962929446,None,6,1.33578485425096,1581.6620962929446,None,1583.0619362515863,None,1583.0619362515863,None,1583.57871586876,None,1583.57871586876,None,1583.57871586876,None,r,0.25118095031939447,1583.57871586876,None,sing4,001,2019_Oct_22_1625,ProdFawcett_Revision2019,3.2.4,60.04483635894939,
,,,,132,0,132,0,,,,,,,,,,,,,1587.9134725520853,None,,,,,,,,,,,,,,,,,,,,,,court,C_sing,132,75,1584.3792445090367,None,1584.3792445090367,None,1584.3792445090367,None,6,2.5145739949075505,1584.3792445090367,None,1586.9333225312876,None,1586.9333225312876,None,1587.463184113847,None,1587.463184113847,None,1587.463184113847,None,r,0.41456214571371675,1587.463184113847,None,sing4,001,2019_Oct_22_1625,ProdFawcett_Revision2019,3.2.4,60.04483635894939,
,,,,133,0,133,0,,,,,,,,,,,,,1591.8478658613749,None,,,,,,,,,,,,,,,,,,,,,,shear,D_new,133,283,1588.4303314747522,None,1588.4303314747522,None,1588.4303314747522,None,1,2.279227683902718,1588.4303314747522,None,1590.7641896748682,None,1590.7641896748682,None,1591.2811670890078,None,1591.2811670890078,None,1591.2811670890078,None,n,0.5248485500924289,1591.2811670890078,None,sing4,001,2019_Oct_22_1625,ProdFawcett_Revision2019,3.2.4,60.04483635894939,
,,,,134,0,134,0,,,,,,,,,,,,,1596.015832462348,None,,,,,,,,,,,,,,,,,,,,,,review,B_aloud,134,263,1592.3651138467249,None,1592.3651138467249,None,1592.3651138467249,None,6,1.9200402809074149,1592.3651138467249,None,1594.3376925371122,None,1594.3376925371122,None,1594.8655354093062,None,1594.8655354093062,None,1594.8655354093062,None,r,1.1158222303492948,1594.8655354093062,None,sing4,001,2019_Oct_22_1625,ProdFawcett_Revision2019,3.2.4,60.04483635894939,
,,,,135,0,135,0,,,,,,,,,,,,,1600.033677414991,None,,,,,,,,,,,,,,,,,,,,,,state,D_new,135,303,1596.5326624617446,None,1596.5326624617446,None,1596.5326624617446,None,1,2.2323908641701564,1596.5326624617446,None,1598.8067293873755,None,1598.8067293873755,None,1599.3336081550224,None,1599.3336081550224,None,1599.3336081550224,None,n,0.6553348102606833,1599.3336081550224,None,sing4,001,2019_Oct_22_1625,ProdFawcett_Revision2019,3.2.4,60.04483635894939,
,,,,136,0,136,0,,,,,,,,,,,,,1603.6182593932608,None,,,,,,,,,,,,,,,,,,,,,,distance,C_sing,136,100,1600.5517591952812,None,1600.5517591952812,None,1600.5517591952812,None,6,1.8609481377061456,1600.5517591952812,None,1602.4678357626544,None,1602.4678357626544,None,1602.9847173882881,None,1602.9847173882881,None,1602.9847173882881,None,r,0.5878369194688275,1602.9847173882881,None,sing4,001,2019_Oct_22_1625,ProdFawcett_Revision2019,3.2.4,60.04483635894939,
,,,,137,0,137,0,,,,,,,,,,,,,1607.3192660117056,None,,,,,,,,,,,,,,,,,,,,,,staff,D_new,137,301,1604.135220635333,None,1604.135220635333,None,1604.135220635333,None,1,1.6372192861745134,1604.135220635333,None,1605.8254025370115,None,1605.8254025370115,None,1606.3524029061664,None,1606.3524029061664,None,1606.3524029061664,None,n,0.9320695062633604,1606.3524029061664,None,sing4,001,2019_Oct_22_1625,ProdFawcett_Revision2019,3.2.4,60.04483635894939,
,,,,138,0,138,0,,,,,,,,,,,,,1610.9371406962164,None,,,,,,,,,,,,,,,,,,,,,,brilliant,D_new,138,30,1607.8365951684536,None,1607.8365951684536,None,1607.8365951684536,None,1,1.631772095686756,1607.8365951684536,None,1609.5199788892642,None,1609.5199788892642,None,1610.0369842934888,None,1610.0369842934888,None,1610.0369842934888,None,n,0.8555687454063445,1610.0369842934888,None,sing4,001,2019_Oct_22_1625,ProdFawcett_Revision2019,3.2.4,60.04483635894939,
,,,,139,0,139,0,,,,,,,,,,,,,1614.504885677481,None,,,,,,,,,,,,,,,,,,,,,,waste,B_aloud,139,350,1611.454015790834,None,1611.454015790834,None,1611.454015790834,None,6,1.4861745856469497,1611.454015790834,None,1612.9937249235809,None,1612.9937249235809,None,1613.5212204070995,None,1613.5212204070995,None,1613.5212204070995,None,r,0.9389096724335104,1613.5212204070995,None,sing4,001,2019_Oct_22_1625,ProdFawcett_Revision2019,3.2.4,60.04483635894939,
,,,,140,0,140,0,,,,,,,,,,,,,1620.0232075508684,None,,,,,,,,,,,,,,,,,,,,,,permit,A_silent,140,218,1615.0217800542014,None,1615.0217800542014,None,1615.0217800542014,None,6,3.4538354099495336,1615.0217800542014,None,1618.5393443281064,None,1618.5393443281064,None,1619.0561055962462,None,1619.0561055962462,None,1619.0561055962462,None,r,0.9243237039772794,1619.0561055962462,None,sing4,001,2019_Oct_22_1625,ProdFawcett_Revision2019,3.2.4,60.04483635894939,
,,,,141,0,141,0,,,,,,,,,,,,,1629.3260669916635,None,,,,,,,,,,,,,,,,,,,,,,union,D_new,141,344,1620.540056210477,None,1620.540056210477,None,1620.540056210477,None,5,7.143872695975006,1620.540056210477,None,1627.7300121695735,None,1627.7300121695735,None,1628.2589298626408,None,1628.2589298626408,None,1628.2589298626408,None,f,1.0321668809046969,1628.2589298626408,None,sing4,001,2019_Oct_22_1625,ProdFawcett_Revision2019,3.2.4,60.04483635894939,
,,,,142,0,142,0,,,,,,,,,,,,,1638.3453493930865,None,,,,,,,,,,,,,,,,,,,,,,swift,D_new,142,320,1629.8429812724935,None,1629.8429812724935,None,1629.8429812724935,None,3,6.743866973440163,1629.8429812724935,None,1636.6343387906672,None,1636.6343387906672,None,1637.1617773609469,None,1637.1617773609469,None,1637.1617773609469,None,f,1.136584065738134,1637.1617773609469,None,sing4,001,2019_Oct_22_1625,ProdFawcett_Revision2019,3.2.4,60.04483635894939,
,,,,143,0,143,0,,,,,,,,,,,,,1641.7630476774648,None,,,,,,,,,,,,,,,,,,,,,,atmosphere,B_aloud,143,12,1638.8636852615746,None,1638.8636852615746,None,1638.8636852615746,None,6,1.7705026934854686,1638.8636852615746,None,1640.685553267016,None,1640.685553267016,None,1641.2129299478838,None,1641.2129299478838,None,1641.2129299478838,None,r,0.5012858355185017,1641.2129299478838,None,sing4,001,2019_Oct_22_1625,ProdFawcett_Revision2019,3.2.4,60.04483635894939,
,,,,144,0,144,0,,,,,,,,,,,,,1644.8473216088023,None,,,,,,,,,,,,,,,,,,,,,,literature,C_sing,144,173,1642.2816528732656,None,1642.2816528732656,None,1642.2816528732656,None,6,1.2805015458725393,1642.2816528732656,None,1643.6137327670585,None,1643.6137327670585,None,1644.1306818800513,None,1644.1306818800513,None,1644.1306818800513,None,r,0.671262438991107,1644.1306818800513,None,sing4,001,2019_Oct_22_1625,ProdFawcett_Revision2019,3.2.4,60.04483635894939,
,,,,145,0,145,0,,,,,,,,,,,,,1650.9159546548035,None,,,,,,,,,,,,,,,,,,,,,,patient,D_new,145,213,1645.3641114890343,None,1645.3641114890343,None,1645.3641114890343,None,4,4.605509577435441,1645.3641114890343,None,1650.032359079807,None,1650.032359079807,None,1650.5490382435964,None,1650.5490382435964,None,1650.5490382435964,None,f,0.333037156262435,1650.5490382435964,None,sing4,001,2019_Oct_22_1625,ProdFawcett_Revision2019,3.2.4,60.04483635894939,
,,,,146,0,146,0,,,,,,,,,,,,,1654.7004477488808,None,,,,,,,,,,,,,,,,,,,,,,minute,C_sing,146,192,1651.4327037938638,None,1651.4327037938638,None,1651.4327037938638,None,6,1.7287753167329356,1651.4327037938638,None,1653.2166560563492,None,1653.2166560563492,None,1653.733337397105,None,1653.733337397105,None,1653.733337397105,None,r,0.932121132616885,1653.733337397105,None,sing4,001,2019_Oct_22_1625,ProdFawcett_Revision2019,3.2.4,60.04483635894939,
,,,,147,0,147,0,,,,,,,,,,,,,1665.6870830830885,None,,,,,,,,,,,,,,,,,,,,,,guest,D_new,147,146,1655.2172447821358,None,1655.2172447821358,None,1655.2172447821358,None,2,9.423417912330478,1655.2172447821358,None,1664.7034741040552,None,1664.7034741040552,None,1665.2201420717174,None,1665.2201420717174,None,1665.2201420717174,None,f,0.428801036439836,1665.2201420717174,None,sing4,001,2019_Oct_22_1625,ProdFawcett_Revision2019,3.2.4,60.04483635894939,
,,,,148,0,148,0,,,,,,,,,,,,,1668.738119666581,None,,,,,,,,,,,,,,,,,,,,,,power,C_sing,148,230,1666.203711864655,None,1666.203711864655,None,1666.203711864655,None,6,1.4387151410337538,1666.203711864655,None,1667.7043781852117,None,1667.7043781852117,None,1668.221079119132,None,1668.221079119132,None,1668.221079119132,None,r,0.4756331911776215,1668.221079119132,None,sing4,001,2019_Oct_22_1625,ProdFawcett_Revision2019,3.2.4,60.04483635894939,
,,,,149,0,149,0,,,,,,,,,,,,,1672.3724425961263,None,,,,,,,,,,,,,,,,,,,,,,rough,C_sing,149,266,1669.2548097153194,None,1669.2548097153194,None,1669.2548097153194,None,6,2.009799344930798,1669.2548097153194,None,1671.3121394133195,None,1671.3121394133195,None,1671.8389510045527,None,1671.8389510045527,None,1671.8389510045527,None,r,0.4900701899314299,1671.8389510045527,None,sing4,001,2019_Oct_22_1625,ProdFawcett_Revision2019,3.2.4,60.04483635894939,
,,,,150,0,150,0,,,,,,,,,,,,,1677.0905294147087,None,,,,,,,,,,,,,,,,,,,,,,military,D_new,150,190,1672.8904388510855,None,1672.8904388510855,None,1672.8904388510855,None,6,3.1976740822428837,1672.8904388510855,None,1676.1401783096371,None,1676.1401783096371,None,1676.6570011560107,None,1676.6570011560107,None,1676.6570011560107,None,r,0.39174552366603166,1676.6570011560107,None,sing4,001,2019_Oct_22_1625,ProdFawcett_Revision2019,3.2.4,60.04483635894939,
,,,,151,0,151,0,,,,,,,,,,,,,1679.974632855039,None,,,,,,,,,,,,,,,,,,,,,,harmony,B_aloud,151,148,1677.6085353107192,None,1677.6085353107192,None,1677.6085353107192,None,6,1.335197061416693,1677.6085353107192,None,1678.9925201039296,None,1678.9925201039296,None,1679.507951529813,None,1679.507951529813,None,1679.507951529813,None,r,0.41973658790811896,1679.507951529813,None,sing4,001,2019_Oct_22_1625,ProdFawcett_Revision2019,3.2.4,60.04483635894939,
,,,,152,0,152,0,,,,,,,,,,,,,1683.0422470602207,None,,,,,,,,,,,,,,,,,,,,,,taste,B_aloud,152,322,1680.491502040648,None,1680.491502040648,None,1680.491502040648,None,6,1.5249228794127703,1680.491502040648,None,1682.0753833326744,None,1682.0753833326744,None,1682.5921228306834,None,1682.5921228306834,None,1682.5921228306834,None,r,0.4156882819952443,1682.5921228306834,None,sing4,001,2019_Oct_22_1625,ProdFawcett_Revision2019,3.2.4,60.04483635894939,
,,,,153,0,153,0,,,,,,,,,,,,,1686.6099799124058,None,,,,,,,,,,,,,,,,,,,,,,sunset,D_new,153,315,1683.559215455316,None,1683.559215455316,None,1683.559215455316,None,1,1.4802742659812793,1683.559215455316,None,1685.082243091776,None,1685.082243091776,None,1685.609776828438,None,1685.609776828438,None,1685.609776828438,None,n,0.9584666881710291,1685.609776828438,None,sing4,001,2019_Oct_22_1625,ProdFawcett_Revision2019,3.2.4,60.04483635894939,
