StudyTrials.thisRepN,StudyTrials.thisTrialN,StudyTrials.thisN,StudyTrials.thisIndex,TestTrials.thisRepN,TestTrials.thisTrialN,TestTrials.thisN,TestTrials.thisIndex,textWelcome.started,textWelcome.stopped,keyWelcome.keys,keyWelcome.rt,keyWelcome.started,keyWelcome.stopped,textReady.started,textReady.stopped,keyReady.keys,keyReady.rt,keyReady.started,keyReady.stopped,polyback_2.started,polyback_2.stopped,studyPic,studyWord,studyType,studyN,studyOrder,polyback_3.started,polyback_3.stopped,studyPicChoice.started,studyPicChoice.stopped,polyback_4.started,polyback_4.stopped,polyback.started,polyback.stopped,studyWords.started,studyWords.stopped,getResearcher.started,getResearcher.stopped,kPress2.keys,kPress2.rt,kPress2.started,kPress2.stopped,testWord,testType,testN,testOrder,polyback_5.started,polyback_5.stopped,testWords.started,testWords.stopped,textScale.started,textScale.stopped,keyConf.keys,keyConf.rt,keyConf.started,keyConf.stopped,polyback_6.started,polyback_6.stopped,studyWords_2.started,studyWords_2.stopped,polyback_7.started,polyback_7.stopped,testWords_2.started,testWords_2.stopped,textScale_2.started,textScale_2.stopped,keyRKN.keys,keyRKN.rt,keyRKN.started,keyRKN.stopped,participant,session,date,expName,psychopyVersion,frameRate,
,,,,,,,,32.58252345956862,None,space,306.7445875639096,32.58252345956862,None,,,,,,,,,,,,,,,,,,,,,,,,,,,,,,,,,,,,,,,,,,,,,,,,,,,,,,,,,,sing3,001,2019_Oct_22_1549,ProdFawcett_Revision2019,3.2.4,60.03654002614148,
,,,,,,,,,,,,,,339.354042505729,None,space,6.596487736096606,339.354042505729,None,,,,,,,,,,,,,,,,,,,,,,,,,,,,,,,,,,,,,,,,,,,,,,,,,,,,sing3,001,2019_Oct_22_1549,ProdFawcett_Revision2019,3.2.4,60.03654002614148,
0,0,0,0,,,,,,,,,,,,,,,,,350.7575277124997,None,materials/readPic.jpg,track,A_silent,0,334,347.0939494976774,None,347.0939494976774,None,348.00792804919183,None,348.27333047415596,None,348.27333047415596,None,,,,,,,,,,,,,,,,,,,,,,,,,,,,,,,,,,,sing3,001,2019_Oct_22_1549,ProdFawcett_Revision2019,3.2.4,60.03654002614148,
1,0,1,0,,,,,,,,,,,,,,,,,355.02547257440165,None,materials/singPic.jpg,position,C_sing,1,229,351.40884282882325,None,351.40884282882325,None,352.27472842566203,None,352.54128000105266,None,352.54128000105266,None,,,,,,,,,,,,,,,,,,,,,,,,,,,,,,,,,,,sing3,001,2019_Oct_22_1549,ProdFawcett_Revision2019,3.2.4,60.03654002614148,
2,0,2,0,,,,,,,,,,,,,,,,,359.29344946949277,None,materials/singPic.jpg,running,C_sing,2,268,355.6086214579409,None,355.6086214579409,None,356.5426369004417,None,356.80946744419634,None,356.80946744419634,None,,,,,,,,,,,,,,,,,,,,,,,,,,,,,,,,,,,sing3,001,2019_Oct_22_1549,ProdFawcett_Revision2019,3.2.4,60.03654002614148,
3,0,3,0,,,,,,,,,,,,,,,,,363.5614226325415,None,materials/readPic.jpg,employment,A_silent,3,111,359.90221336623654,None,359.90221336623654,None,360.8106035324745,None,361.0772222841624,None,361.0772222841624,None,,,,,,,,,,,,,,,,,,,,,,,,,,,,,,,,,,,sing3,001,2019_Oct_22_1549,ProdFawcett_Revision2019,3.2.4,60.03654002614148,
4,0,4,0,,,,,,,,,,,,,,,,,367.82942347473,None,materials/speakPic.jpg,write,B_aloud,4,358,364.16286244487856,None,364.16286244487856,None,365.0786096616648,None,365.3451770981774,None,365.3451770981774,None,,,,,,,,,,,,,,,,,,,,,,,,,,,,,,,,,,,sing3,001,2019_Oct_22_1549,ProdFawcett_Revision2019,3.2.4,60.03654002614148,
5,0,5,0,,,,,,,,,,,,,,,,,372.09732572955545,None,materials/readPic.jpg,afternoon,A_silent,5,3,368.42267803975847,None,368.42267803975847,None,369.3485110338079,None,369.6131704762811,None,369.6131704762811,None,,,,,,,,,,,,,,,,,,,,,,,,,,,,,,,,,,,sing3,001,2019_Oct_22_1549,ProdFawcett_Revision2019,3.2.4,60.03654002614148,
6,0,6,0,,,,,,,,,,,,,,,,,376.3652998255566,None,materials/singPic.jpg,welcome,C_sing,6,354,372.7039931653999,None,372.7039931653999,None,373.6145696719177,None,373.8811047641793,None,373.8811047641793,None,,,,,,,,,,,,,,,,,,,,,,,,,,,,,,,,,,,sing3,001,2019_Oct_22_1549,ProdFawcett_Revision2019,3.2.4,60.03654002614148,
7,0,7,0,,,,,,,,,,,,,,,,,380.6332670795964,None,materials/speakPic.jpg,nature,B_aloud,7,200,376.96693245880306,None,376.96693245880306,None,377.8825860641664,None,378.14907108526677,None,378.14907108526677,None,,,,,,,,,,,,,,,,,,,,,,,,,,,,,,,,,,,sing3,001,2019_Oct_22_1549,ProdFawcett_Revision2019,3.2.4,60.03654002614148,
8,0,8,0,,,,,,,,,,,,,,,,,384.90123433363624,None,materials/readPic.jpg,scale,A_silent,8,272,381.23449603293557,None,381.23449603293557,None,382.1504519317532,None,382.41702403326053,None,382.41702403326053,None,,,,,,,,,,,,,,,,,,,,,,,,,,,,,,,,,,,sing3,001,2019_Oct_22_1549,ProdFawcett_Revision2019,3.2.4,60.03654002614148,
9,0,9,0,,,,,,,,,,,,,,,,,389.16918075061403,None,materials/speakPic.jpg,season,B_aloud,9,277,385.49045334372204,None,385.49045334372204,None,386.41846925695427,None,386.68498911021743,None,386.68498911021743,None,,,,,,,,,,,,,,,,,,,,,,,,,,,,,,,,,,,sing3,001,2019_Oct_22_1549,ProdFawcett_Revision2019,3.2.4,60.03654002614148,
10,0,10,0,,,,,,,,,,,,,,,,,393.437132765539,None,materials/singPic.jpg,phrase,C_sing,10,220,389.78704828198534,None,389.78704828198534,None,390.6864520610543,None,390.9529479672201,None,390.9529479672201,None,,,,,,,,,,,,,,,,,,,,,,,,,,,,,,,,,,,sing3,001,2019_Oct_22_1549,ProdFawcett_Revision2019,3.2.4,60.03654002614148,
11,0,11,0,,,,,,,,,,,,,,,,,397.7050872684922,None,materials/singPic.jpg,beginning,C_sing,11,19,394.02643854497,None,394.02643854497,None,394.9543409427861,None,395.2209118002793,None,395.2209118002793,None,,,,,,,,,,,,,,,,,,,,,,,,,,,,,,,,,,,sing3,001,2019_Oct_22_1549,ProdFawcett_Revision2019,3.2.4,60.03654002614148,
12,0,12,0,,,,,,,,,,,,,,,,,401.97308095765766,None,materials/readPic.jpg,education,A_silent,12,108,398.2972228502622,None,398.2972228502622,None,399.22310995857697,None,399.4888644372113,None,399.4888644372113,None,,,,,,,,,,,,,,,,,,,,,,,,,,,,,,,,,,,sing3,001,2019_Oct_22_1549,ProdFawcett_Revision2019,3.2.4,60.03654002614148,
13,0,13,0,,,,,,,,,,,,,,,,,406.2410354606109,None,materials/singPic.jpg,rural,C_sing,13,269,402.57480502536055,None,402.57480502536055,None,403.49029784288723,None,403.7568292032229,None,403.7568292032229,None,,,,,,,,,,,,,,,,,,,,,,,,,,,,,,,,,,,sing3,001,2019_Oct_22_1549,ProdFawcett_Revision2019,3.2.4,60.03654002614148,
14,0,14,0,,,,,,,,,,,,,,,,,410.5092798169935,None,materials/singPic.jpg,crime,C_sing,14,78,406.84097997797653,None,406.84097997797653,None,407.7582850010367,None,408.0248023662716,None,408.0248023662716,None,,,,,,,,,,,,,,,,,,,,,,,,,,,,,,,,,,,sing3,001,2019_Oct_22_1549,ProdFawcett_Revision2019,3.2.4,60.03654002614148,
15,0,15,0,,,,,,,,,,,,,,,,,414.7769522416638,None,materials/speakPic.jpg,center,B_aloud,15,44,411.0987333221128,None,411.0987333221128,None,412.02626376214903,None,412.2927661993308,None,412.2927661993308,None,,,,,,,,,,,,,,,,,,,,,,,,,,,,,,,,,,,sing3,001,2019_Oct_22_1549,ProdFawcett_Revision2019,3.2.4,60.03654002614148,
16,0,16,0,,,,,,,,,,,,,,,,,419.04491856263485,None,materials/speakPic.jpg,suggestion,B_aloud,16,314,415.34353687649127,None,415.34353687649127,None,416.294188408996,None,416.56075211346615,None,416.56075211346615,None,,,,,,,,,,,,,,,,,,,,,,,,,,,,,,,,,,,sing3,001,2019_Oct_22_1549,ProdFawcett_Revision2019,3.2.4,60.03654002614148,
17,0,17,0,,,,,,,,,,,,,,,,,423.3128696446074,None,materials/speakPic.jpg,master,B_aloud,17,180,419.61150537454523,None,419.61150537454523,None,420.56217650009785,None,420.8286926213186,None,420.8286926213186,None,,,,,,,,,,,,,,,,,,,,,,,,,,,,,,,,,,,sing3,001,2019_Oct_22_1549,ProdFawcett_Revision2019,3.2.4,60.03654002614148,
18,0,18,0,,,,,,,,,,,,,,,,,427.5808568027569,None,materials/speakPic.jpg,colonel,B_aloud,18,55,423.8960486953147,None,423.8960486953147,None,424.83011514204554,None,425.0966651623603,None,425.0966651623603,None,,,,,,,,,,,,,,,,,,,,,,,,,,,,,,,,,,,sing3,001,2019_Oct_22_1549,ProdFawcett_Revision2019,3.2.4,60.03654002614148,
19,0,19,0,,,,,,,,,,,,,,,,,431.8489493903471,None,materials/readPic.jpg,period,A_silent,19,217,428.1820443929173,None,428.1820443929173,None,429.098062180914,None,429.3646380144637,None,429.3646380144637,None,,,,,,,,,,,,,,,,,,,,,,,,,,,,,,,,,,,sing3,001,2019_Oct_22_1549,ProdFawcett_Revision2019,3.2.4,60.03654002614148,
20,0,20,0,,,,,,,,,,,,,,,,,436.1167564786738,None,materials/speakPic.jpg,substance,B_aloud,20,313,432.467172707431,None,432.467172707431,None,433.36611433839425,None,433.63256639335304,None,433.63256639335304,None,,,,,,,,,,,,,,,,,,,,,,,,,,,,,,,,,,,sing3,001,2019_Oct_22_1549,ProdFawcett_Revision2019,3.2.4,60.03654002614148,
21,0,21,0,,,,,,,,,,,,,,,,,440.38471533567645,None,materials/speakPic.jpg,course,B_aloud,21,74,436.69995139038656,None,436.69995139038656,None,437.6339823829476,None,437.8914471176686,None,437.8914471176686,None,,,,,,,,,,,,,,,,,,,,,,,,,,,,,,,,,,,sing3,001,2019_Oct_22_1549,ProdFawcett_Revision2019,3.2.4,60.03654002614148,
22,0,22,0,,,,,,,,,,,,,,,,,444.652700316743,None,materials/singPic.jpg,election,C_sing,22,109,440.9939553756267,None,440.9939553756267,None,441.9020497794263,None,442.16852267144714,None,442.16852267144714,None,,,,,,,,,,,,,,,,,,,,,,,,,,,,,,,,,,,sing3,001,2019_Oct_22_1549,ProdFawcett_Revision2019,3.2.4,60.03654002614148,
23,0,23,0,,,,,,,,,,,,,,,,,448.9206585517386,None,materials/singPic.jpg,straight,C_sing,23,307,445.2358582193265,None,445.2358582193265,None,446.1699862444075,None,446.43646939937025,None,446.43646939937025,None,,,,,,,,,,,,,,,,,,,,,,,,,,,,,,,,,,,sing3,001,2019_Oct_22_1549,ProdFawcett_Revision2019,3.2.4,60.03654002614148,
24,0,24,0,,,,,,,,,,,,,,,,,453.1886205187766,None,materials/readPic.jpg,benefit,A_silent,24,20,449.52246223576367,None,449.52246223576367,None,450.4379429243272,None,450.70445562456734,None,450.70445562456734,None,,,,,,,,,,,,,,,,,,,,,,,,,,,,,,,,,,,sing3,001,2019_Oct_22_1549,ProdFawcett_Revision2019,3.2.4,60.03654002614148,
25,0,25,0,,,,,,,,,,,,,,,,,457.4565787537722,None,materials/singPic.jpg,surface,C_sing,25,316,453.8066289338749,None,453.8066289338749,None,454.7059496755246,None,454.9723970654886,None,454.9723970654886,None,,,,,,,,,,,,,,,,,,,,,,,,,,,,,,,,,,,sing3,001,2019_Oct_22_1549,ProdFawcett_Revision2019,3.2.4,60.03654002614148,
26,0,26,0,,,,,,,,,,,,,,,,,461.72454725182615,None,materials/singPic.jpg,revolution,C_sing,26,264,458.0437523071887,None,458.0437523071887,None,458.973878676421,None,459.2403618315002,None,459.2403618315002,None,,,,,,,,,,,,,,,,,,,,,,,,,,,,,,,,,,,sing3,001,2019_Oct_22_1549,ProdFawcett_Revision2019,3.2.4,60.03654002614148,
27,0,27,0,,,,,,,,,,,,,,,,,465.9924989558058,None,materials/speakPic.jpg,piece,B_aloud,27,221,462.3094470736105,None,462.3094470736105,None,463.24184219841845,None,463.50838786480017,None,463.50838786480017,None,,,,,,,,,,,,,,,,,,,,,,,,,,,,,,,,,,,sing3,001,2019_Oct_22_1549,ProdFawcett_Revision2019,3.2.4,60.03654002614148,
28,0,28,0,,,,,,,,,,,,,,,,,470.2603648232762,None,materials/singPic.jpg,frank,C_sing,28,133,466.61038856825326,None,466.61038856825326,None,467.5098980878247,None,467.7763028705958,None,467.7763028705958,None,,,,,,,,,,,,,,,,,,,,,,,,,,,,,,,,,,,sing3,001,2019_Oct_22_1549,ProdFawcett_Revision2019,3.2.4,60.03654002614148,
29,0,29,0,,,,,,,,,,,,,,,,,474.52844030584674,None,materials/readPic.jpg,equipment,A_silent,29,116,470.86452589847613,None,470.86452589847613,None,471.7778006535955,None,472.04614079836756,None,472.04614079836756,None,,,,,,,,,,,,,,,,,,,,,,,,,,,,,,,,,,,sing3,001,2019_Oct_22_1549,ProdFawcett_Revision2019,3.2.4,60.03654002614148,
30,0,30,0,,,,,,,,,,,,,,,,,478.79640040686354,None,materials/singPic.jpg,volume,C_sing,30,349,475.1353130027419,None,475.1353130027419,None,476.04550075740553,None,476.3122044125339,None,476.3122044125339,None,,,,,,,,,,,,,,,,,,,,,,,,,,,,,,,,,,,sing3,001,2019_Oct_22_1549,ProdFawcett_Revision2019,3.2.4,60.03654002614148,
31,0,31,0,,,,,,,,,,,,,,,,,483.064357397845,None,materials/singPic.jpg,reach,C_sing,31,253,479.3795757255284,None,479.3795757255284,None,480.31373329565395,None,480.5801589154871,None,480.5801589154871,None,,,,,,,,,,,,,,,,,,,,,,,,,,,,,,,,,,,sing3,001,2019_Oct_22_1549,ProdFawcett_Revision2019,3.2.4,60.03654002614148,
32,0,32,0,,,,,,,,,,,,,,,,,487.3323414459592,None,materials/speakPic.jpg,listen,B_aloud,32,172,483.6659897201462,None,483.6659897201462,None,484.5816803346388,None,484.84814358560834,None,484.84814358560834,None,,,,,,,,,,,,,,,,,,,,,,,,,,,,,,,,,,,sing3,001,2019_Oct_22_1549,ProdFawcett_Revision2019,3.2.4,60.03654002614148,
33,0,33,0,,,,,,,,,,,,,,,,,491.6002794658998,None,materials/singPic.jpg,broke,C_sing,33,32,487.93941162875853,None,487.93941162875853,None,488.8494277106365,None,489.11610275355633,None,489.11610275355633,None,,,,,,,,,,,,,,,,,,,,,,,,,,,,,,,,,,,sing3,001,2019_Oct_22_1549,ProdFawcett_Revision2019,3.2.4,60.03654002614148,
34,0,34,0,,,,,,,,,,,,,,,,,495.8682426768355,None,materials/readPic.jpg,quantity,A_silent,34,245,492.2019783423748,None,492.2019783423748,None,493.11757192446385,None,493.3840566345025,None,493.3840566345025,None,,,,,,,,,,,,,,,,,,,,,,,,,,,,,,,,,,,sing3,001,2019_Oct_22_1549,ProdFawcett_Revision2019,3.2.4,60.03654002614148,
35,0,35,0,,,,,,,,,,,,,,,,,500.1361965578981,None,materials/readPic.jpg,dispute,A_silent,35,99,496.44305454427376,None,496.44305454427376,None,497.3853388936259,None,497.65201518055983,None,497.65201518055983,None,,,,,,,,,,,,,,,,,,,,,,,,,,,,,,,,,,,sing3,001,2019_Oct_22_1549,ProdFawcett_Revision2019,3.2.4,60.03654002614148,
36,0,36,0,,,,,,,,,,,,,,,,,504.404198955046,None,materials/speakPic.jpg,engineer,B_aloud,36,114,500.7376058920054,None,500.7376058920054,None,501.6537570997607,None,501.92000575968996,None,501.92000575968996,None,,,,,,,,,,,,,,,,,,,,,,,,,,,,,,,,,,,sing3,001,2019_Oct_22_1549,ProdFawcett_Revision2019,3.2.4,60.03654002614148,
37,0,37,0,,,,,,,,,,,,,,,,,508.67213790793903,None,materials/readPic.jpg,expansion,A_silent,37,123,505.00532652193215,None,505.00532652193215,None,505.9214886146365,None,506.18796275067143,None,506.18796275067143,None,,,,,,,,,,,,,,,,,,,,,,,,,,,,,,,,,,,sing3,001,2019_Oct_22_1549,ProdFawcett_Revision2019,3.2.4,60.03654002614148,
38,0,38,0,,,,,,,,,,,,,,,,,512.940092721954,None,materials/readPic.jpg,cover,A_silent,38,77,509.2554883204866,None,509.2554883204866,None,510.18945151462685,None,510.45592285168823,None,510.45592285168823,None,,,,,,,,,,,,,,,,,,,,,,,,,,,,,,,,,,,sing3,001,2019_Oct_22_1549,ProdFawcett_Revision2019,3.2.4,60.03654002614148,
39,0,39,0,,,,,,,,,,,,,,,,,517.2080528229708,None,materials/singPic.jpg,skill,C_sing,39,289,513.5601699186955,None,513.5601699186955,None,514.4574268547585,None,514.7238795317244,None,514.7238795317244,None,,,,,,,,,,,,,,,,,,,,,,,,,,,,,,,,,,,sing3,001,2019_Oct_22_1549,ProdFawcett_Revision2019,3.2.4,60.03654002614148,
40,0,40,0,,,,,,,,,,,,,,,,,521.4760222539771,None,materials/speakPic.jpg,estate,B_aloud,40,119,517.8097451684298,None,517.8097451684298,None,518.7254043718567,None,518.9918697997928,None,518.9918697997928,None,,,,,,,,,,,,,,,,,,,,,,,,,,,,,,,,,,,sing3,001,2019_Oct_22_1549,ProdFawcett_Revision2019,3.2.4,60.03654002614148,
41,0,41,0,,,,,,,,,,,,,,,,,525.7439857759746,None,materials/speakPic.jpg,trash,B_aloud,41,337,522.046690337942,None,522.046690337942,None,522.9933691378683,None,523.259767389507,None,523.259767389507,None,,,,,,,,,,,,,,,,,,,,,,,,,,,,,,,,,,,sing3,001,2019_Oct_22_1549,ProdFawcett_Revision2019,3.2.4,60.03654002614148,
42,0,42,0,,,,,,,,,,,,,,,,,530.0119405899895,None,materials/singPic.jpg,swift,C_sing,42,320,526.3461492887,None,526.3461492887,None,527.2614757205592,None,527.527770408662,None,527.527770408662,None,,,,,,,,,,,,,,,,,,,,,,,,,,,,,,,,,,,sing3,001,2019_Oct_22_1549,ProdFawcett_Revision2019,3.2.4,60.03654002614148,
43,0,43,0,,,,,,,,,,,,,,,,,534.2802648736397,None,materials/singPic.jpg,report,C_sing,43,259,530.6034638098208,None,530.6034638098208,None,531.5290753708687,None,531.7957280216506,None,531.7957280216506,None,,,,,,,,,,,,,,,,,,,,,,,,,,,,,,,,,,,sing3,001,2019_Oct_22_1549,ProdFawcett_Revision2019,3.2.4,60.03654002614148,
44,0,44,0,,,,,,,,,,,,,,,,,538.5478810070781,None,materials/readPic.jpg,crowd,A_silent,44,81,534.8815933475271,None,534.8815933475271,None,535.7972466418287,None,536.0637055387488,None,536.0637055387488,None,,,,,,,,,,,,,,,,,,,,,,,,,,,,,,,,,,,sing3,001,2019_Oct_22_1549,ProdFawcett_Revision2019,3.2.4,60.03654002614148,
45,0,45,0,,,,,,,,,,,,,,,,,542.815835199086,None,materials/singPic.jpg,agency,C_sing,45,4,539.150961352163,None,539.150961352163,None,540.0652434410295,None,540.3316476016771,None,540.3316476016771,None,,,,,,,,,,,,,,,,,,,,,,,,,,,,,,,,,,,sing3,001,2019_Oct_22_1549,ProdFawcett_Revision2019,3.2.4,60.03654002614148,
46,0,46,0,,,,,,,,,,,,,,,,,547.0838064961135,None,materials/singPic.jpg,minor,C_sing,46,191,543.3992901080055,None,543.3992901080055,None,544.3329276837176,None,544.5997939925874,None,544.5997939925874,None,,,,,,,,,,,,,,,,,,,,,,,,,,,,,,,,,,,sing3,001,2019_Oct_22_1549,ProdFawcett_Revision2019,3.2.4,60.03654002614148,
47,0,47,0,,,,,,,,,,,,,,,,,551.3520595604787,None,materials/speakPic.jpg,worker,B_aloud,47,356,547.685554199852,None,547.685554199852,None,548.6011549349641,None,548.8675867747515,None,548.8675867747515,None,,,,,,,,,,,,,,,,,,,,,,,,,,,,,,,,,,,sing3,001,2019_Oct_22_1549,ProdFawcett_Revision2019,3.2.4,60.03654002614148,
48,0,48,0,,,,,,,,,,,,,,,,,555.6197158130817,None,materials/readPic.jpg,south,A_silent,48,296,551.9529548092978,None,551.9529548092978,None,552.8692245085258,None,553.1355518518249,None,553.1355518518249,None,,,,,,,,,,,,,,,,,,,,,,,,,,,,,,,,,,,sing3,001,2019_Oct_22_1549,ProdFawcett_Revision2019,3.2.4,60.03654002614148,
49,0,49,0,,,,,,,,,,,,,,,,,559.8877135452349,None,materials/singPic.jpg,count,C_sing,49,72,556.2237854537088,None,556.2237854537088,None,557.1370589649305,None,557.4036618554965,None,557.4036618554965,None,,,,,,,,,,,,,,,,,,,,,,,,,,,,,,,,,,,sing3,001,2019_Oct_22_1549,ProdFawcett_Revision2019,3.2.4,60.03654002614148,
50,0,50,0,,,,,,,,,,,,,,,,,564.15563010599,None,materials/speakPic.jpg,session,B_aloud,50,281,560.4894298379077,None,560.4894298379077,None,561.4050455010729,None,561.6714795178268,None,561.6714795178268,None,,,,,,,,,,,,,,,,,,,,,,,,,,,,,,,,,,,sing3,001,2019_Oct_22_1549,ProdFawcett_Revision2019,3.2.4,60.03654002614148,
51,0,51,0,,,,,,,,,,,,,,,,,568.4236312592402,None,materials/singPic.jpg,heavy,C_sing,51,151,564.7654759767465,None,564.7654759767465,None,565.6727885230212,None,565.9394436618313,None,565.9394436618313,None,,,,,,,,,,,,,,,,,,,,,,,,,,,,,,,,,,,sing3,001,2019_Oct_22_1549,ProdFawcett_Revision2019,3.2.4,60.03654002614148,
52,0,52,0,,,,,,,,,,,,,,,,,572.69159571419,None,materials/readPic.jpg,individual,A_silent,52,160,569.0253021456301,None,569.0253021456301,None,569.9409772100626,None,570.2073969208868,None,570.2073969208868,None,,,,,,,,,,,,,,,,,,,,,,,,,,,,,,,,,,,sing3,001,2019_Oct_22_1549,ProdFawcett_Revision2019,3.2.4,60.03654002614148,
53,0,53,0,,,,,,,,,,,,,,,,,576.9595611022087,None,materials/singPic.jpg,attack,C_sing,53,13,573.2966341244755,None,573.2966341244755,None,574.2086319075897,None,574.4753772369586,None,574.4753772369586,None,,,,,,,,,,,,,,,,,,,,,,,,,,,,,,,,,,,sing3,001,2019_Oct_22_1549,ProdFawcett_Revision2019,3.2.4,60.03654002614148,
54,0,54,0,,,,,,,,,,,,,,,,,581.2275221362943,None,materials/readPic.jpg,property,A_silent,54,242,577.5655782340327,None,577.5655782340327,None,578.4769201151794,None,578.7434685805347,None,578.7434685805347,None,,,,,,,,,,,,,,,,,,,,,,,,,,,,,,,,,,,sing3,001,2019_Oct_22_1549,ProdFawcett_Revision2019,3.2.4,60.03654002614148,
55,0,55,0,,,,,,,,,,,,,,,,,585.4954797492828,None,materials/readPic.jpg,smell,A_silent,55,291,581.8106756848283,None,581.8106756848283,None,582.7445782338036,None,583.0112778458279,None,583.0112778458279,None,,,,,,,,,,,,,,,,,,,,,,,,,,,,,,,,,,,sing3,001,2019_Oct_22_1549,ProdFawcett_Revision2019,3.2.4,60.03654002614148,
56,0,56,0,,,,,,,,,,,,,,,,,589.7634295872413,None,materials/speakPic.jpg,victory,B_aloud,56,346,586.0809315985534,None,586.0809315985534,None,587.0125389567111,None,587.279271224048,None,587.279271224048,None,,,,,,,,,,,,,,,,,,,,,,,,,,,,,,,,,,,sing3,001,2019_Oct_22_1549,ProdFawcett_Revision2019,3.2.4,60.03654002614148,
57,0,57,0,,,,,,,,,,,,,,,,,594.0314929407323,None,materials/singPic.jpg,display,C_sing,57,98,590.36462744046,None,590.36462744046,None,591.2805226938799,None,591.5472204399994,None,591.5472204399994,None,,,,,,,,,,,,,,,,,,,,,,,,,,,,,,,,,,,sing3,001,2019_Oct_22_1549,ProdFawcett_Revision2019,3.2.4,60.03654002614148,
58,0,58,0,,,,,,,,,,,,,,,,,598.2993640953209,None,materials/speakPic.jpg,industry,B_aloud,58,161,594.5851175227435,None,594.5851175227435,None,595.5487228879938,None,595.8151886269916,None,595.8151886269916,None,,,,,,,,,,,,,,,,,,,,,,,,,,,,,,,,,,,sing3,001,2019_Oct_22_1549,ProdFawcett_Revision2019,3.2.4,60.03654002614148,
59,0,59,0,,,,,,,,,,,,,,,,,602.5673133112723,None,materials/readPic.jpg,bicycle,A_silent,59,21,598.9006297468441,None,598.9006297468441,None,599.8164158387808,None,600.0832267893711,None,600.0832267893711,None,,,,,,,,,,,,,,,,,,,,,,,,,,,,,,,,,,,sing3,001,2019_Oct_22_1549,ProdFawcett_Revision2019,3.2.4,60.03654002614148,
60,0,60,0,,,,,,,,,,,,,,,,,606.8352712352062,None,materials/speakPic.jpg,working,B_aloud,60,357,603.1589369844878,None,603.1589369844878,None,604.0843507486861,None,604.3510982549051,None,604.3510982549051,None,,,,,,,,,,,,,,,,,,,,,,,,,,,,,,,,,,,sing3,001,2019_Oct_22_1549,ProdFawcett_Revision2019,3.2.4,60.03654002614148,
61,0,61,0,,,,,,,,,,,,,,,,,611.1032677233452,None,materials/readPic.jpg,present,A_silent,61,231,607.4400328540942,None,607.4400328540942,None,608.3523497248534,None,608.6190546238795,None,608.6190546238795,None,,,,,,,,,,,,,,,,,,,,,,,,,,,,,,,,,,,sing3,001,2019_Oct_22_1549,ProdFawcett_Revision2019,3.2.4,60.03654002614148,
62,0,62,0,,,,,,,,,,,,,,,,,615.3713276558556,None,materials/singPic.jpg,produce,C_sing,62,239,611.7214450122556,None,611.7214450122556,None,612.6205779090524,None,612.8870355620747,None,612.8870355620747,None,,,,,,,,,,,,,,,,,,,,,,,,,,,,,,,,,,,sing3,001,2019_Oct_22_1549,ProdFawcett_Revision2019,3.2.4,60.03654002614148,
63,0,63,0,,,,,,,,,,,,,,,,,619.6391978773754,None,materials/readPic.jpg,problem,A_silent,63,238,615.9632424265146,None,615.9632424265146,None,616.8882612187881,None,617.1550252081361,None,617.1550252081361,None,,,,,,,,,,,,,,,,,,,,,,,,,,,,,,,,,,,sing3,001,2019_Oct_22_1549,ProdFawcett_Revision2019,3.2.4,60.03654002614148,
64,0,64,0,,,,,,,,,,,,,,,,,623.9071579783922,None,materials/singPic.jpg,break,C_sing,64,26,620.2424421202159,None,620.2424421202159,None,621.156256462913,None,621.423050619429,None,621.423050619429,None,,,,,,,,,,,,,,,,,,,,,,,,,,,,,,,,,,,sing3,001,2019_Oct_22_1549,ProdFawcett_Revision2019,3.2.4,60.03654002614148,
65,0,65,0,,,,,,,,,,,,,,,,,628.1751062613912,None,materials/singPic.jpg,damage,C_sing,65,83,624.5069522820413,None,624.5069522820413,None,625.4242059899261,None,625.6908996929415,None,625.6908996929415,None,,,,,,,,,,,,,,,,,,,,,,,,,,,,,,,,,,,sing3,001,2019_Oct_22_1549,ProdFawcett_Revision2019,3.2.4,60.03654002614148,
66,0,66,0,,,,,,,,,,,,,,,,,632.4431043046061,None,materials/readPic.jpg,institute,A_silent,66,162,628.7772032198263,None,628.7772032198263,None,629.69216391386,None,629.9588703679619,None,629.9588703679619,None,,,,,,,,,,,,,,,,,,,,,,,,,,,,,,,,,,,sing3,001,2019_Oct_22_1549,ProdFawcett_Revision2019,3.2.4,60.03654002614148,
67,0,67,0,,,,,,,,,,,,,,,,,636.7110805775737,None,materials/singPic.jpg,strength,C_sing,67,310,633.0503110169666,None,633.0503110169666,None,633.9601041107671,None,634.2268407320371,None,634.2268407320371,None,,,,,,,,,,,,,,,,,,,,,,,,,,,,,,,,,,,sing3,001,2019_Oct_22_1549,ProdFawcett_Revision2019,3.2.4,60.03654002614148,
68,0,68,0,,,,,,,,,,,,,,,,,640.978988119401,None,materials/speakPic.jpg,school,B_aloud,68,274,637.2978964793729,None,637.2978964793729,None,638.2280505277449,None,638.4949980080128,None,638.4949980080128,None,,,,,,,,,,,,,,,,,,,,,,,,,,,,,,,,,,,sing3,001,2019_Oct_22_1549,ProdFawcett_Revision2019,3.2.4,60.03654002614148,
69,0,69,0,,,,,,,,,,,,,,,,,645.2469681245275,None,materials/speakPic.jpg,universal,B_aloud,69,345,641.5621239409084,None,641.5621239409084,None,642.496320075239,None,642.7629136358155,None,642.7629136358155,None,,,,,,,,,,,,,,,,,,,,,,,,,,,,,,,,,,,sing3,001,2019_Oct_22_1549,ProdFawcett_Revision2019,3.2.4,60.03654002614148,
70,0,70,0,,,,,,,,,,,,,,,,,649.514929469442,None,materials/singPic.jpg,sight,C_sing,70,286,645.8518609859748,None,645.8518609859748,None,646.7639875238528,None,647.0307328531053,None,647.0307328531053,None,,,,,,,,,,,,,,,,,,,,,,,,,,,,,,,,,,,sing3,001,2019_Oct_22_1549,ProdFawcett_Revision2019,3.2.4,60.03654002614148,
71,0,71,0,,,,,,,,,,,,,,,,,653.7828852164093,None,materials/readPic.jpg,threat,A_silent,71,329,650.1062265912769,None,650.1062265912769,None,651.0319818350254,None,651.2986805140972,None,651.2986805140972,None,,,,,,,,,,,,,,,,,,,,,,,,,,,,,,,,,,,sing3,001,2019_Oct_22_1549,ProdFawcett_Revision2019,3.2.4,60.03654002614148,
72,0,72,0,,,,,,,,,,,,,,,,,658.050904407748,None,materials/speakPic.jpg,cousin,B_aloud,72,76,654.3924465209711,None,654.3924465209711,None,655.3002837265376,None,655.5666555431671,None,655.5666555431671,None,,,,,,,,,,,,,,,,,,,,,,,,,,,,,,,,,,,sing3,001,2019_Oct_22_1549,ProdFawcett_Revision2019,3.2.4,60.03654002614148,
73,0,73,0,,,,,,,,,,,,,,,,,662.3188203464961,None,materials/readPic.jpg,route,A_silent,73,267,658.6521193659864,None,658.6521193659864,None,659.5678867979441,None,659.8346277731471,None,659.8346277731471,None,,,,,,,,,,,,,,,,,,,,,,,,,,,,,,,,,,,sing3,001,2019_Oct_22_1549,ProdFawcett_Revision2019,3.2.4,60.03654002614148,
74,0,74,0,,,,,,,,,,,,,,,,,666.5867795145605,None,materials/singPic.jpg,angle,C_sing,74,7,662.9240892088274,None,662.9240892088274,None,663.8360210597748,None,664.1026892606169,None,664.1026892606169,None,,,,,,,,,,,,,,,,,,,,,,,,,,,,,,,,,,,sing3,001,2019_Oct_22_1549,ProdFawcett_Revision2019,3.2.4,60.03654002614148,
75,0,75,0,,,,,,,,,,,,,,,,,670.8547389935702,None,materials/speakPic.jpg,enemy,B_aloud,75,113,667.1718441670528,None,667.1718441670528,None,668.1038200620096,None,668.3705591711914,None,668.3705591711914,None,,,,,,,,,,,,,,,,,,,,,,,,,,,,,,,,,,,sing3,001,2019_Oct_22_1549,ProdFawcett_Revision2019,3.2.4,60.03654002614148,
76,0,76,0,,,,,,,,,,,,,,,,,675.122712156619,None,materials/readPic.jpg,grade,A_silent,76,140,671.4563902869122,None,671.4563902869122,None,672.3717972680461,None,672.6385214492911,None,672.6385214492911,None,,,,,,,,,,,,,,,,,,,,,,,,,,,,,,,,,,,sing3,001,2019_Oct_22_1549,ProdFawcett_Revision2019,3.2.4,60.03654002614148,
77,0,77,0,,,,,,,,,,,,,,,,,679.3906980707543,None,materials/readPic.jpg,character,A_silent,77,46,675.7058237199672,None,675.7058237199672,None,676.6397542590275,None,676.9064812392462,None,676.9064812392462,None,,,,,,,,,,,,,,,,,,,,,,,,,,,,,,,,,,,sing3,001,2019_Oct_22_1549,ProdFawcett_Revision2019,3.2.4,60.03654002614148,
78,0,78,0,,,,,,,,,,,,,,,,,683.6586301815696,None,materials/speakPic.jpg,business,B_aloud,78,38,679.9753842344508,None,679.9753842344508,None,680.9076845039381,None,681.1744316992117,None,681.1744316992117,None,,,,,,,,,,,,,,,,,,,,,,,,,,,,,,,,,,,sing3,001,2019_Oct_22_1549,ProdFawcett_Revision2019,3.2.4,60.03654002614148,
79,0,79,0,,,,,,,,,,,,,,,,,687.9265968136024,None,materials/readPic.jpg,taste,A_silent,79,322,684.2492362580961,None,684.2492362580961,None,685.1756844130578,None,685.4424925646745,None,685.4424925646745,None,,,,,,,,,,,,,,,,,,,,,,,,,,,,,,,,,,,sing3,001,2019_Oct_22_1549,ProdFawcett_Revision2019,3.2.4,60.03654002614148,
80,0,80,0,,,,,,,,,,,,,,,,,692.1945562926121,None,materials/readPic.jpg,scene,A_silent,80,273,688.5097180180019,None,688.5097180180019,None,689.443611547933,None,689.7103571882471,None,689.7103571882471,None,,,,,,,,,,,,,,,,,,,,,,,,,,,,,,,,,,,sing3,001,2019_Oct_22_1549,ProdFawcett_Revision2019,3.2.4,60.03654002614148,
81,0,81,0,,,,,,,,,,,,,,,,,696.4625126615865,None,materials/speakPic.jpg,shear,B_aloud,81,283,692.7803331385367,None,692.7803331385367,None,693.7115825340152,None,693.9783191552851,None,693.9783191552851,None,,,,,,,,,,,,,,,,,,,,,,,,,,,,,,,,,,,sing3,001,2019_Oct_22_1549,ProdFawcett_Revision2019,3.2.4,60.03654002614148,
82,0,82,0,,,,,,,,,,,,,,,,,700.7305116377538,None,materials/speakPic.jpg,principal,B_aloud,82,236,697.0290229670936,None,697.0290229670936,None,697.9795445009368,None,698.2462969833286,None,698.2462969833286,None,,,,,,,,,,,,,,,,,,,,,,,,,,,,,,,,,,,sing3,001,2019_Oct_22_1549,ProdFawcett_Revision2019,3.2.4,60.03654002614148,
83,0,83,0,,,,,,,,,,,,,,,,,704.9984502797015,None,materials/readPic.jpg,interview,A_silent,83,165,701.3317701362539,None,701.3317701362539,None,702.2474937168881,None,702.5142406012164,None,702.5142406012164,None,,,,,,,,,,,,,,,,,,,,,,,,,,,,,,,,,,,sing3,001,2019_Oct_22_1549,ProdFawcett_Revision2019,3.2.4,60.03654002614148,
84,0,84,0,,,,,,,,,,,,,,,,,709.2664125576848,None,materials/readPic.jpg,charter,A_silent,84,47,705.5815792591311,None,705.5815792591311,None,706.5159554632846,None,706.782308930764,None,706.782308930764,None,,,,,,,,,,,,,,,,,,,,,,,,,,,,,,,,,,,sing3,001,2019_Oct_22_1549,ProdFawcett_Revision2019,3.2.4,60.03654002614148,
85,0,85,0,,,,,,,,,,,,,,,,,713.5343689266592,None,materials/speakPic.jpg,search,B_aloud,85,276,709.851222811034,None,709.851222811034,None,710.7834241819801,None,711.0501863054233,None,711.0501863054233,None,,,,,,,,,,,,,,,,,,,,,,,,,,,,,,,,,,,sing3,001,2019_Oct_22_1549,ProdFawcett_Revision2019,3.2.4,60.03654002614148,
86,0,86,0,,,,,,,,,,,,,,,,,717.8023280947236,None,materials/speakPic.jpg,travel,B_aloud,86,338,714.1175056811189,None,714.1175056811189,None,715.0512023471529,None,715.3181401863694,None,715.3181401863694,None,,,,,,,,,,,,,,,,,,,,,,,,,,,,,,,,,,,sing3,001,2019_Oct_22_1549,ProdFawcett_Revision2019,3.2.4,60.03654002614148,
87,0,87,0,,,,,,,,,,,,,,,,,722.070253674523,None,materials/readPic.jpg,addition,A_silent,87,2,718.4035809951602,None,718.4035809951602,None,719.3193549580174,None,719.5860940673156,None,719.5860940673156,None,,,,,,,,,,,,,,,,,,,,,,,,,,,,,,,,,,,sing3,001,2019_Oct_22_1549,ProdFawcett_Revision2019,3.2.4,60.03654002614148,
88,0,88,0,,,,,,,,,,,,,,,,,726.3382918369025,None,materials/speakPic.jpg,permit,B_aloud,88,218,722.6589716612361,None,722.6589716612361,None,723.5873187910765,None,723.8540498142829,None,723.8540498142829,None,,,,,,,,,,,,,,,,,,,,,,,,,,,,,,,,,,,sing3,001,2019_Oct_22_1549,ProdFawcett_Revision2019,3.2.4,60.03654002614148,
89,0,89,0,,,,,,,,,,,,,,,,,730.6062432298204,None,materials/speakPic.jpg,exchange,B_aloud,89,121,726.9052493624622,None,726.9052493624622,None,727.8553000402171,None,728.1220696276287,None,728.1220696276287,None,,,,,,,,,,,,,,,,,,,,,,,,,,,,,,,,,,,sing3,001,2019_Oct_22_1549,ProdFawcett_Revision2019,3.2.4,60.03654002614148,
,,,,,,,,,,,,,,,,,,,,,,,,,,,,,,,,,,,,,731.1062859925441,None,k,149.2582736496115,731.1062859925441,None,,,,,,,,,,,,,,,,,,,,,,,,,,,,,sing3,001,2019_Oct_22_1549,ProdFawcett_Revision2019,3.2.4,60.03654002614148,
,,,,,,,,,,,,,,880.3850378441857,None,space,3.4271713888738304,880.3850378441857,None,,,,,,,,,,,,,,,,,,,,,,,,,,,,,,,,,,,,,,,,,,,,,,,,,,,,sing3,001,2019_Oct_22_1549,ProdFawcett_Revision2019,3.2.4,60.03654002614148,
,,,,0,0,0,0,,,,,,,,,,,,,966.1118000483839,None,,,,,,,,,,,,,,,,,,,,,,expansion,A_silent,0,123,884.357905765879,None,884.357905765879,None,884.357905765879,None,1,43.59538554691244,884.357905765879,None,928.0160504742526,None,928.0160504742526,None,928.5353302322328,None,928.5353302322328,None,928.5353302322328,None,n,37.527632946148515,928.5353302322328,None,sing3,001,2019_Oct_22_1549,ProdFawcett_Revision2019,3.2.4,60.03654002614148,
,,,,1,0,1,0,,,,,,,,,,,,,996.0866331883008,None,,,,,,,,,,,,,,,,,,,,,,vision,D_new,1,347,966.6277172585251,None,966.6277172585251,None,966.6277172585251,None,3,22.553904483444057,966.6277172585251,None,989.2243956385646,None,989.2243956385646,None,989.7514762461651,None,989.7514762461651,None,989.7514762461651,None,f,6.301942608435638,989.7514762461651,None,sing3,001,2019_Oct_22_1549,ProdFawcett_Revision2019,3.2.4,60.03654002614148,
,,,,2,0,2,0,,,,,,,,,,,,,1009.8908204498002,None,,,,,,,,,,,,,,,,,,,,,,public,D_new,2,244,996.6044866936281,None,996.6044866936281,None,996.6044866936281,None,1,7.880199128063396,996.6044866936281,None,1004.5295089068823,None,1004.5295089068823,None,1005.0560113626998,None,1005.0560113626998,None,1005.0560113626998,None,n,4.796471937326714,1005.0560113626998,None,sing3,001,2019_Oct_22_1549,ProdFawcett_Revision2019,3.2.4,60.03654002614148,
,,,,3,0,3,0,,,,,,,,,,,,,1040.867072689347,None,,,,,,,,,,,,,,,,,,,,,,solution,D_new,3,294,1010.4085651044734,None,1010.4085651044734,None,1010.4085651044734,None,4,28.17764247825835,1010.4085651044734,None,1038.63713313872,None,1038.63713313872,None,1039.1664933869615,None,1039.1664933869615,None,1039.1664933869615,None,f,1.6599382538115606,1039.1664933869615,None,sing3,001,2019_Oct_22_1549,ProdFawcett_Revision2019,3.2.4,60.03654002614148,
,,,,4,0,4,0,,,,,,,,,,,,,1063.090427095187,None,,,,,,,,,,,,,,,,,,,,,,carry,D_new,4,43,1041.3837045809487,None,1041.3837045809487,None,1041.3837045809487,None,2,18.977212923113257,1041.3837045809487,None,1060.4106083840597,None,1060.4106083840597,None,1060.9396778459195,None,1060.9396778459195,None,1060.9396778459195,None,n,2.117471782141365,1060.9396778459195,None,sing3,001,2019_Oct_22_1549,ProdFawcett_Revision2019,3.2.4,60.03654002614148,
,,,,5,0,5,0,,,,,,,,,,,,,1071.659740767791,None,,,,,,,,,,,,,,,,,,,,,,mayor,D_new,5,183,1063.6072275494225,None,1063.6072275494225,None,1063.6072275494225,None,1,6.001543189282529,1063.6072275494225,None,1069.6487900954671,None,1069.6487900954671,None,1070.1759391232627,None,1070.1759391232627,None,1070.1759391232627,None,n,1.4407714826520532,1070.1759391232627,None,sing3,001,2019_Oct_22_1549,ProdFawcett_Revision2019,3.2.4,60.03654002614148,
,,,,6,0,6,0,,,,,,,,,,,,,1079.9624064546078,None,,,,,,,,,,,,,,,,,,,,,,force,D_new,6,131,1072.1770291833673,None,1072.1770291833673,None,1072.1770291833673,None,5,5.446756705758162,1072.1770291833673,None,1077.6782444216078,None,1077.6782444216078,None,1078.1948959062574,None,1078.1948959062574,None,1078.1948959062574,None,r,1.7255101123591885,1078.1948959062574,None,sing3,001,2019_Oct_22_1549,ProdFawcett_Revision2019,3.2.4,60.03654002614148,
,,,,7,0,7,0,,,,,,,,,,,,,1094.4499631307553,None,,,,,,,,,,,,,,,,,,,,,,portion,D_new,7,228,1080.4806505776942,None,1080.4806505776942,None,1080.4806505776942,None,1,12.734363702009432,1080.4806505776942,None,1093.2661824165843,None,1093.2661824165843,None,1093.783140859683,None,1093.783140859683,None,1093.783140859683,None,n,0.6317176703596488,1093.783140859683,None,sing3,001,2019_Oct_22_1549,ProdFawcett_Revision2019,3.2.4,60.03654002614148,
,,,,8,0,8,0,,,,,,,,,,,,,1112.355375146959,None,,,,,,,,,,,,,,,,,,,,,,service,D_new,8,280,1094.9667530109873,None,1094.9667530109873,None,1094.9667530109873,None,1,16.222906874725595,1094.9667530109873,None,1111.2549443788594,None,1111.2549443788594,None,1111.7719059319934,None,1111.7719059319934,None,1111.7719059319934,None,n,0.5375759737798944,1111.7719059319934,None,sing3,001,2019_Oct_22_1549,ProdFawcett_Revision2019,3.2.4,60.03654002614148,
,,,,9,0,9,0,,,,,,,,,,,,,1119.5409581145504,None,,,,,,,,,,,,,,,,,,,,,,blind,D_new,9,24,1112.8726368164644,None,1112.8726368164644,None,1112.8726368164644,None,6,4.6126411518780515,1112.8726368164644,None,1117.5285336063243,None,1117.5285336063243,None,1118.0570146534592,None,1118.0570146534592,None,1118.0570146534592,None,r,1.4360280884429812,1118.0570146534592,None,sing3,001,2019_Oct_22_1549,ProdFawcett_Revision2019,3.2.4,60.03654002614148,
,,,,10,0,10,0,,,,,,,,,,,,,1130.4774295355892,None,,,,,,,,,,,,,,,,,,,,,,throw,D_new,10,330,1120.0578363192035,None,1120.0578363192035,None,1120.0578363192035,None,1,7.435181231470779,1120.0578363192035,None,1127.543252061354,None,1127.543252061354,None,1128.0601921553025,None,1128.0601921553025,None,1128.0601921553025,None,n,2.384306057705544,1128.0601921553025,None,sing3,001,2019_Oct_22_1549,ProdFawcett_Revision2019,3.2.4,60.03654002614148,
,,,,11,0,11,0,,,,,,,,,,,,,1151.9674546302995,None,,,,,,,,,,,,,,,,,,,,,,stranger,D_new,11,309,1130.9942408748902,None,1130.9942408748902,None,1130.9942408748902,None,1,19.417259772424586,1130.9942408748902,None,1150.4668626389466,None,1150.4668626389466,None,1150.9837738098577,None,1150.9837738098577,None,1150.9837738098577,None,n,0.9471782682230696,1150.9837738098577,None,sing3,001,2019_Oct_22_1549,ProdFawcett_Revision2019,3.2.4,60.03654002614148,
,,,,12,0,12,0,,,,,,,,,,,,,1165.8049656980438,None,,,,,,,,,,,,,,,,,,,,,,medicine,D_new,12,186,1152.4863963295938,None,1152.4863963295938,None,1152.4863963295938,None,3,11.66825692076236,1152.4863963295938,None,1164.2044206368737,None,1164.2044206368737,None,1164.7212963534985,None,1164.7212963534985,None,1164.7212963534985,None,f,1.049058303120546,1164.7212963534985,None,sing3,001,2019_Oct_22_1549,ProdFawcett_Revision2019,3.2.4,60.03654002614148,
,,,,13,0,13,0,,,,,,,,,,,,,1182.16030881193,None,,,,,,,,,,,,,,,,,,,,,,threat,A_silent,13,329,1166.3217589993728,None,1166.3217589993728,None,1166.3217589993728,None,1,14.743572455015965,1166.3217589993728,None,1181.1262529081432,None,1181.1262529081432,None,1181.6431000126759,None,1181.6431000126759,None,1181.6431000126759,None,n,0.4784051470924169,1181.6431000126759,None,sing3,001,2019_Oct_22_1549,ProdFawcett_Revision2019,3.2.4,60.03654002614148,
,,,,14,0,14,0,,,,,,,,,,,,,1207.7177014877088,None,,,,,,,,,,,,,,,,,,,,,,leader,D_new,14,168,1182.676627525012,None,1182.676627525012,None,1182.676627525012,None,1,22.93915660760831,1182.676627525012,None,1205.667039039079,None,1205.667039039079,None,1206.1839197317604,None,1206.1839197317604,None,1206.1839197317604,None,n,1.4956753691658378,1206.1839197317604,None,sing3,001,2019_Oct_22_1549,ProdFawcett_Revision2019,3.2.4,60.03654002614148,
,,,,15,0,15,0,,,,,,,,,,,,,1213.95293241716,None,,,,,,,,,,,,,,,,,,,,,,guest,D_new,15,146,1208.2342951260507,None,1208.2342951260507,None,1208.2342951260507,None,6,3.7256901821820065,1208.2342951260507,None,1212.0189894380746,None,1212.0189894380746,None,1212.5358427625615,None,1212.5358427625615,None,1212.5358427625615,None,r,1.3759366975864395,1212.5358427625615,None,sing3,001,2019_Oct_22_1549,ProdFawcett_Revision2019,3.2.4,60.03654002614148,
,,,,16,0,16,0,,,,,,,,,,,,,1221.7552866359474,None,,,,,,,,,,,,,,,,,,,,,,nature,B_aloud,16,200,1214.4709289830644,None,1214.4709289830644,None,1214.4709289830644,None,6,4.71975285327062,1214.4709289830644,None,1219.2545201729517,None,1219.2545201729517,None,1219.7713688324438,None,1219.7713688324438,None,1219.7713688324438,None,r,1.9399188722018152,1219.7713688324438,None,sing3,001,2019_Oct_22_1549,ProdFawcett_Revision2019,3.2.4,60.03654002614148,
,,,,17,0,17,0,,,,,,,,,,,,,1233.9755571512505,None,,,,,,,,,,,,,,,,,,,,,,fight,D_new,17,127,1222.2719794837758,None,1222.2719794837758,None,1222.2719794837758,None,1,10.421960248495452,1222.2719794837758,None,1232.7482275249204,None,1232.7482275249204,None,1233.2754623891087,None,1233.2754623891087,None,1233.2754623891087,None,n,0.6667868169024587,1233.2754623891087,None,sing3,001,2019_Oct_22_1549,ProdFawcett_Revision2019,3.2.4,60.03654002614148,
,,,,18,0,18,0,,,,,,,,,,,,,1241.0945195633685,None,,,,,,,,,,,,,,,,,,,,,,point,D_new,18,226,1234.49244313105,None,1234.49244313105,None,1234.49244313105,None,4,5.0810379611793905,1234.49244313105,None,1239.6174417703878,None,1239.6174417703878,None,1240.1442219504388,None,1240.1442219504388,None,1240.1442219504388,None,f,0.9172897839453071,1240.1442219504388,None,sing3,001,2019_Oct_22_1549,ProdFawcett_Revision2019,3.2.4,60.03654002614148,
,,,,19,0,19,0,,,,,,,,,,,,,1249.6804702590453,None,,,,,,,,,,,,,,,,,,,,,,silence,D_new,19,288,1241.6117448456353,None,1241.6117448456353,None,1241.6117448456353,None,6,4.913254540064372,1241.6117448456353,None,1246.57943708112,None,1246.57943708112,None,1247.09626490355,None,1247.09626490355,None,1247.09626490355,None,r,2.54126165213529,1247.09626490355,None,sing3,001,2019_Oct_22_1549,ProdFawcett_Revision2019,3.2.4,60.03654002614148,
,,,,20,0,20,0,,,,,,,,,,,,,1255.01541198825,None,,,,,,,,,,,,,,,,,,,,,,benefit,A_silent,20,20,1250.197521380498,None,1250.197521380498,None,1250.197521380498,None,1,3.359797587734647,1250.197521380498,None,1253.6028054197086,None,1253.6028054197086,None,1254.1316829937277,None,1254.1316829937277,None,1254.1316829937277,None,n,0.8488759940955788,1254.1316829937277,None,sing3,001,2019_Oct_22_1549,ProdFawcett_Revision2019,3.2.4,60.03654002614148,
,,,,21,0,21,0,,,,,,,,,,,,,1263.9347699319478,None,,,,,,,,,,,,,,,,,,,,,,surprise,D_new,21,317,1255.5325660512317,None,1255.5325660512317,None,1255.5325660512317,None,1,7.535536737297662,1255.5325660512317,None,1263.1062925235601,None,1263.1062925235601,None,1263.6347207004437,None,1263.6347207004437,None,1263.6347207004437,None,n,0.25792905990965664,1263.6347207004437,None,sing3,001,2019_Oct_22_1549,ProdFawcett_Revision2019,3.2.4,60.03654002614148,
,,,,22,0,22,0,,,,,,,,,,,,,1270.553504224401,None,,,,,,,,,,,,,,,,,,,,,,broke,C_sing,22,32,1264.4516431606608,None,1264.4516431606608,None,1264.4516431606608,None,6,3.3519703031051904,1264.4516431606608,None,1267.8693299379665,None,1267.8693299379665,None,1268.3859916856745,None,1268.3859916856745,None,1268.3859916856745,None,r,2.1213991085533053,1268.3859916856745,None,sing3,001,2019_Oct_22_1549,ProdFawcett_Revision2019,3.2.4,60.03654002614148,
,,,,23,0,23,0,,,,,,,,,,,,,1276.8052577284398,None,,,,,,,,,,,,,,,,,,,,,,shear,B_aloud,23,283,1271.070385228144,None,1271.070385228144,None,1271.070385228144,None,6,3.1649635708890855,1271.070385228144,None,1274.2879099114798,None,1274.2879099114798,None,1274.8046307495097,None,1274.8046307495097,None,1274.8046307495097,None,r,1.959184168605134,1274.8046307495097,None,sing3,001,2019_Oct_22_1549,ProdFawcett_Revision2019,3.2.4,60.03654002614148,
,,,,24,0,24,0,,,,,,,,,,,,,1283.4072694724891,None,,,,,,,,,,,,,,,,,,,,,,working,B_aloud,24,357,1277.3221359330928,None,1277.3221359330928,None,1277.3221359330928,None,5,4.704523422871716,1277.3221359330928,None,1282.0901587008266,None,1282.0901587008266,None,1282.6070390825626,None,1282.6070390825626,None,1282.6070390825626,None,f,0.7637045125011355,1282.6070390825626,None,sing3,001,2019_Oct_22_1549,ProdFawcett_Revision2019,3.2.4,60.03654002614148,
,,,,25,0,25,0,,,,,,,,,,,,,1289.876080535585,None,,,,,,,,,,,,,,,,,,,,,,phrase,C_sing,25,220,1283.9243411200587,None,1283.9243411200587,None,1283.9243411200587,None,6,4.350427735829726,1283.9243411200587,None,1288.3255451311124,None,1288.3255451311124,None,1288.8422047017375,None,1288.8422047017375,None,1288.8422047017375,None,r,0.9928118232637644,1288.8422047017375,None,sing3,001,2019_Oct_22_1549,ProdFawcett_Revision2019,3.2.4,60.03654002614148,
,,,,26,0,26,0,,,,,,,,,,,,,1294.8775422425242,None,,,,,,,,,,,,,,,,,,,,,,count,C_sing,26,72,1290.392762498348,None,1290.392762498348,None,1290.392762498348,None,6,2.858060800121166,1290.392762498348,None,1293.3102600313723,None,1293.3102600313723,None,1293.8271976372926,None,1293.8271976372926,None,1293.8271976372926,None,r,1.0074817620916292,1293.8271976372926,None,sing3,001,2019_Oct_22_1549,ProdFawcett_Revision2019,3.2.4,60.03654002614148,
,,,,27,0,27,0,,,,,,,,,,,,,1301.5795695676934,None,,,,,,,,,,,,,,,,,,,,,,equipment,A_silent,27,116,1295.400600979221,None,1295.400600979221,None,1295.400600979221,None,1,5.048868592246436,1295.400600979221,None,1300.5125042800792,None,1300.5125042800792,None,1301.0328209169675,None,1301.0328209169675,None,1301.0328209169675,None,n,0.5130615948000923,1301.0328209169675,None,sing3,001,2019_Oct_22_1549,ProdFawcett_Revision2019,3.2.4,60.03654002614148,
,,,,28,0,28,0,,,,,,,,,,,,,1306.064125701785,None,,,,,,,,,,,,,,,,,,,,,,front,D_new,28,134,1302.0962403344456,None,1302.0962403344456,None,1302.0962403344456,None,5,2.977228784118779,1302.0962403344456,None,1305.1305179821793,None,1305.1305179821793,None,1305.6474820233416,None,1305.6474820233416,None,1305.6474820233416,None,f,0.3780322253005579,1305.6474820233416,None,sing3,001,2019_Oct_22_1549,ProdFawcett_Revision2019,3.2.4,60.03654002614148,
,,,,29,0,29,0,,,,,,,,,,,,,1311.4991943506757,None,,,,,,,,,,,,,,,,,,,,,,present,A_silent,29,231,1306.58239563799,None,1306.58239563799,None,1306.58239563799,None,1,3.650501536554657,1306.58239563799,None,1310.2822164078243,None,1310.2822164078243,None,1310.7988479883643,None,1310.7988479883643,None,1310.7988479883643,None,n,0.6664524902589619,1310.7988479883643,None,sing3,001,2019_Oct_22_1549,ProdFawcett_Revision2019,3.2.4,60.03654002614148,
,,,,30,0,30,0,,,,,,,,,,,,,1317.1034599222476,None,,,,,,,,,,,,,,,,,,,,,,country,D_new,30,73,1312.0171567064244,None,1312.0171567064244,None,1312.0171567064244,None,1,3.8315712509211153,1312.0171567064244,None,1315.900424174848,None,1315.900424174848,None,1316.4174451291328,None,1316.4174451291328,None,1316.4174451291328,None,n,0.6553077530115843,1316.4174451291328,None,sing3,001,2019_Oct_22_1549,ProdFawcett_Revision2019,3.2.4,60.03654002614148,
,,,,31,0,31,0,,,,,,,,,,,,,1322.7193302023225,None,,,,,,,,,,,,,,,,,,,,,,problem,A_silent,31,238,1317.6342893413967,None,1317.6342893413967,None,1317.6342893413967,None,5,3.6299418520648032,1317.6342893413967,None,1321.3060845257714,None,1321.3060845257714,None,1321.83548085019,None,1321.83548085019,None,1321.83548085019,None,f,0.8365637572715059,1321.83548085019,None,sing3,001,2019_Oct_22_1549,ProdFawcett_Revision2019,3.2.4,60.03654002614148,
,,,,32,0,32,0,,,,,,,,,,,,,1328.5542801730335,None,,,,,,,,,,,,,,,,,,,,,,character,A_silent,32,46,1323.2369613415794,None,1323.2369613415794,None,1323.2369613415794,None,5,3.378895254340023,1323.2369613415794,None,1326.6704672081396,None,1326.6704672081396,None,1327.1873569198651,None,1327.1873569198651,None,1327.1873569198651,None,f,1.3251921444898471,1327.1873569198651,None,sing3,001,2019_Oct_22_1549,ProdFawcett_Revision2019,3.2.4,60.03654002614148,
,,,,33,0,33,0,,,,,,,,,,,,,1335.0563603063347,None,,,,,,,,,,,,,,,,,,,,,,provision,D_new,33,243,1329.0716562911402,None,1329.0716562911402,None,1329.0716562911402,None,1,4.584245785721578,1329.0716562911402,None,1333.6946942217182,None,1333.6946942217182,None,1334.222571926075,None,1334.222571926075,None,1334.222571926075,None,n,0.7847624213900417,1334.222571926075,None,sing3,001,2019_Oct_22_1549,ProdFawcett_Revision2019,3.2.4,60.03654002614148,
,,,,34,0,34,0,,,,,,,,,,,,,1339.8411242826842,None,,,,,,,,,,,,,,,,,,,,,,piece,B_aloud,34,221,1335.5741114921402,None,1335.5741114921402,None,1335.5741114921402,None,6,3.025838934117928,1335.5741114921402,None,1338.6449772175401,None,1338.6449772175401,None,1339.1741872520652,None,1339.1741872520652,None,1339.1741872520652,None,r,0.6171904812799767,1339.1741872520652,None,sing3,001,2019_Oct_22_1549,ProdFawcett_Revision2019,3.2.4,60.03654002614148,
,,,,35,0,35,0,,,,,,,,,,,,,1345.476138879545,None,,,,,,,,,,,,,,,,,,,,,,cover,A_silent,35,77,1340.3582027723314,None,1340.3582027723314,None,1340.3582027723314,None,5,2.792882669484243,1340.3582027723314,None,1343.1991569371894,None,1343.1991569371894,None,1343.725644153892,None,1343.725644153892,None,1343.725644153892,None,f,1.704957891954109,1343.725644153892,None,sing3,001,2019_Oct_22_1549,ProdFawcett_Revision2019,3.2.4,60.03654002614148,
,,,,36,0,36,0,,,,,,,,,,,,,1350.5611078990623,None,,,,,,,,,,,,,,,,,,,,,,exchange,B_aloud,36,121,1345.9940486759879,None,1345.9940486759879,None,1345.9940486759879,None,6,3.596354316570796,1345.9940486759879,None,1349.6440314621432,None,1349.6440314621432,None,1350.1608695476316,None,1350.1608695476316,None,1350.1608695476316,None,r,0.365801470936276,1350.1608695476316,None,sing3,001,2019_Oct_22_1549,ProdFawcett_Revision2019,3.2.4,60.03654002614148,
,,,,37,0,37,0,,,,,,,,,,,,,1355.779351617908,None,,,,,,,,,,,,,,,,,,,,,,comfort,D_new,37,59,1351.079098555958,None,1351.079098555958,None,1351.079098555958,None,6,3.239769684849307,1351.079098555958,None,1354.3790314729558,None,1354.3790314729558,None,1354.8956437713932,None,1354.8956437713932,None,1354.8956437713932,None,r,0.8386347161140293,1354.8956437713932,None,sing3,001,2019_Oct_22_1549,ProdFawcett_Revision2019,3.2.4,60.03654002614148,
,,,,38,0,38,0,,,,,,,,,,,,,1373.2846061430173,None,,,,,,,,,,,,,,,,,,,,,,election,C_sing,38,109,1356.297016034252,None,1356.297016034252,None,1356.297016034252,None,4,15.539910972700454,1356.297016034252,None,1371.9009525662987,None,1371.9009525662987,None,1372.4175592666725,None,1372.4175592666725,None,1372.4175592666725,None,f,0.8192904252791777,1372.4175592666725,None,sing3,001,2019_Oct_22_1549,ProdFawcett_Revision2019,3.2.4,60.03654002614148,
,,,,39,0,39,0,,,,,,,,,,,,,1382.420801145956,None,,,,,,,,,,,,,,,,,,,,,,thing,D_new,39,328,1373.8014380085515,None,1373.8014380085515,None,1373.8014380085515,None,2,7.067120645893738,1373.8014380085515,None,1380.9094021649798,None,1380.9094021649798,None,1381.437119703507,None,1381.437119703507,None,1381.437119703507,None,f,0.9436042394954711,1381.437119703507,None,sing3,001,2019_Oct_22_1549,ProdFawcett_Revision2019,3.2.4,60.03654002614148,
,,,,40,0,40,0,,,,,,,,,,,,,1386.8554732679622,None,,,,,,,,,,,,,,,,,,,,,,spoke,D_new,40,300,1382.9377710960107,None,1382.9377710960107,None,1382.9377710960107,None,1,2.770252337330021,1382.9377710960107,None,1385.7717594503192,None,1385.7717594503192,None,1386.2886255258927,None,1386.2886255258927,None,1386.2886255258927,None,n,0.524218772072345,1386.2886255258927,None,sing3,001,2019_Oct_22_1549,ProdFawcett_Revision2019,3.2.4,60.03654002614148,
,,,,41,0,41,0,,,,,,,,,,,,,1390.7065953145502,None,,,,,,,,,,,,,,,,,,,,,,guide,D_new,41,147,1387.3722435551463,None,1387.3722435551463,None,1387.3722435551463,None,1,2.60837234579958,1387.3722435551463,None,1390.028465030482,None,1390.028465030482,None,1390.5565626127645,None,1390.5565626127645,None,1390.5565626127645,None,n,0.11150366405490786,1390.5565626127645,None,sing3,001,2019_Oct_22_1549,ProdFawcett_Revision2019,3.2.4,60.03654002614148,
,,,,42,0,42,0,,,,,,,,,,,,,1397.2419292788254,None,,,,,,,,,,,,,,,,,,,,,,atmosphere,D_new,42,12,1391.2252039313316,None,1391.2252039313316,None,1391.2252039313316,None,1,4.954277809592895,1391.2252039313316,None,1396.2415999282384,None,1396.2415999282384,None,1396.7584408128168,None,1396.7584408128168,None,1396.7584408128168,None,n,0.444916510139592,1396.7584408128168,None,sing3,001,2019_Oct_22_1549,ProdFawcett_Revision2019,3.2.4,60.03654002614148,
,,,,43,0,43,0,,,,,,,,,,,,,1403.0102080007782,None,,,,,,,,,,,,,,,,,,,,,,trash,B_aloud,43,337,1397.7596282163868,None,1397.7596282163868,None,1397.7596282163868,None,6,3.140249839867465,1397.7596282163868,None,1400.9473723330302,None,1400.9473723330302,None,1401.4765307413181,None,1401.4765307413181,None,1401.4765307413181,None,r,1.4948879135772586,1401.4765307413181,None,sing3,001,2019_Oct_22_1549,ProdFawcett_Revision2019,3.2.4,60.03654002614148,
,,,,44,0,44,0,,,,,,,,,,,,,1407.4452691857005,None,,,,,,,,,,,,,,,,,,,,,,minor,C_sing,44,191,1403.5270877605071,None,1403.5270877605071,None,1403.5270877605071,None,6,2.6603584167314693,1403.5270877605071,None,1406.2315567581682,None,1406.2315567581682,None,1406.761356762494,None,1406.761356762494,None,1406.761356762494,None,r,0.6421592334518209,1406.761356762494,None,sing3,001,2019_Oct_22_1549,ProdFawcett_Revision2019,3.2.4,60.03654002614148,
,,,,45,0,45,0,,,,,,,,,,,,,1413.330016710097,None,,,,,,,,,,,,,,,,,,,,,,audience,D_new,45,14,1407.9637792150024,None,1407.9637792150024,None,1407.9637792150024,None,5,4.334692928008735,1407.9637792150024,None,1412.3511231350712,None,1412.3511231350712,None,1412.879892791505,None,1412.879892791505,None,1412.879892791505,None,f,0.4108500323491171,1412.879892791505,None,sing3,001,2019_Oct_22_1549,ProdFawcett_Revision2019,3.2.4,60.03654002614148,
,,,,46,0,46,0,,,,,,,,,,,,,1419.4818852534518,None,,,,,,,,,,,,,,,,,,,,,,community,D_new,46,63,1413.8468669245485,None,1413.8468669245485,None,1413.8468669245485,None,1,4.707864200579934,1413.8468669245485,None,1418.6150716282427,None,1418.6150716282427,None,1419.1318353844108,None,1419.1318353844108,None,1419.1318353844108,None,n,0.31057849689386785,1419.1318353844108,None,sing3,001,2019_Oct_22_1549,ProdFawcett_Revision2019,3.2.4,60.03654002614148,
,,,,47,0,47,0,,,,,,,,,,,,,1424.833651228575,None,,,,,,,,,,,,,,,,,,,,,,dispute,A_silent,47,99,1420.0004462869838,None,1420.0004462869838,None,1420.0004462869838,None,3,3.17743224138394,1420.0004462869838,None,1423.2331214065198,None,1423.2331214065198,None,1423.7500129842665,None,1423.7500129842665,None,1423.7500129842665,None,f,1.0355222756043077,1423.7500129842665,None,sing3,001,2019_Oct_22_1549,ProdFawcett_Revision2019,3.2.4,60.03654002614148,
,,,,48,0,48,0,,,,,,,,,,,,,1429.7851676561404,None,,,,,,,,,,,,,,,,,,,,,,disease,D_new,48,97,1425.3513420800446,None,1425.3513420800446,None,1425.3513420800446,None,5,3.3141108514973894,1425.3513420800446,None,1428.7182056210004,None,1428.7182056210004,None,1429.23485710565,None,1429.23485710565,None,1429.23485710565,None,f,0.5024670191342011,1429.23485710565,None,sing3,001,2019_Oct_22_1549,ProdFawcett_Revision2019,3.2.4,60.03654002614148,
,,,,49,0,49,0,,,,,,,,,,,,,1435.4700864801416,None,,,,,,,,,,,,,,,,,,,,,,foundation,D_new,49,132,1430.3033019957365,None,1430.3033019957365,None,1430.3033019957365,None,1,3.89792123506777,1430.3033019957365,None,1434.253136838437,None,1434.253136838437,None,1434.7699786559679,None,1434.7699786559679,None,1434.7699786559679,None,n,0.6629876231309026,1434.7699786559679,None,sing3,001,2019_Oct_22_1549,ProdFawcett_Revision2019,3.2.4,60.03654002614148,
,,,,50,0,50,0,,,,,,,,,,,,,1440.7385137053207,None,,,,,,,,,,,,,,,,,,,,,,state,D_new,50,303,1435.9874476700788,None,1435.9874476700788,None,1435.9874476700788,None,5,3.87755996955093,1435.9874476700788,None,1439.9215088296914,None,1439.9215088296914,None,1440.4384563877247,None,1440.4384563877247,None,1440.4384563877247,None,f,0.2587118506198749,1440.4384563877247,None,sing3,001,2019_Oct_22_1549,ProdFawcett_Revision2019,3.2.4,60.03654002614148,
,,,,51,0,51,0,,,,,,,,,,,,,1447.2738231004914,None,,,,,,,,,,,,,,,,,,,,,,engineer,B_aloud,51,114,1441.2574793518288,None,1441.2574793518288,None,1441.2574793518288,None,6,2.759272430674173,1441.2574793518288,None,1444.072856134735,None,1444.072856134735,None,1444.5895104183583,None,1444.5895104183583,None,1444.5895104183583,None,r,2.643474769545719,1444.5895104183583,None,sing3,001,2019_Oct_22_1549,ProdFawcett_Revision2019,3.2.4,60.03654002614148,
,,,,52,0,52,0,,,,,,,,,,,,,1454.1425462745829,None,,,,,,,,,,,,,,,,,,,,,,range,D_new,52,251,1447.79057970352,None,1447.79057970352,None,1447.79057970352,None,5,5.329570734058507,1447.79057970352,None,1453.17561879172,None,1453.17561879172,None,1453.6924497241853,None,1453.6924497241853,None,1453.6924497241853,None,f,0.41133332857862115,1453.6924497241853,None,sing3,001,2019_Oct_22_1549,ProdFawcett_Revision2019,3.2.4,60.03654002614148,
,,,,53,0,53,0,,,,,,,,,,,,,1458.0602419155184,None,,,,,,,,,,,,,,,,,,,,,,color,D_new,53,56,1454.664325240301,None,1454.664325240301,None,1454.664325240301,None,1,2.351818534429185,1454.664325240301,None,1457.0766910937382,None,1457.0766910937382,None,1457.593631498632,None,1457.593631498632,None,1457.593631498632,None,n,0.42235242121387273,1457.593631498632,None,sing3,001,2019_Oct_22_1549,ProdFawcett_Revision2019,3.2.4,60.03654002614148,
,,,,54,0,54,0,,,,,,,,,,,,,1462.0616184079554,None,,,,,,,,,,,,,,,,,,,,,,crisis,D_new,54,79,1458.5772103106137,None,1458.5772103106137,None,1458.5772103106137,None,1,2.542741085984744,1458.5772103106137,None,1461.1779273556313,None,1461.1779273556313,None,1461.6947424269747,None,1461.6947424269747,None,1461.6947424269747,None,n,0.32041329599451274,1461.6947424269747,None,sing3,001,2019_Oct_22_1549,ProdFawcett_Revision2019,3.2.4,60.03654002614148,
,,,,55,0,55,0,,,,,,,,,,,,,1466.5129595862236,None,,,,,,,,,,,,,,,,,,,,,,heavy,C_sing,55,151,1462.5784182403004,None,1462.5784182403004,None,1462.5784182403004,None,3,2.804523764993064,1462.5784182403004,None,1465.4458831025986,None,1465.4458831025986,None,1465.9628418566426,None,1465.9628418566426,None,1465.9628418566426,None,f,0.5165566292125732,1465.9628418566426,None,sing3,001,2019_Oct_22_1549,ProdFawcett_Revision2019,3.2.4,60.03654002614148,
,,,,56,0,56,0,,,,,,,,,,,,,1470.5475768476026,None,,,,,,,,,,,,,,,,,,,,,,south,A_silent,56,296,1467.030032166862,None,1467.030032166862,None,1467.030032166862,None,1,2.4008886555675417,1467.030032166862,None,1469.4805650522467,None,1469.4805650522467,None,1469.997280292213,None,1469.997280292213,None,1469.997280292213,None,n,0.513524986919947,1469.997280292213,None,sing3,001,2019_Oct_22_1549,ProdFawcett_Revision2019,3.2.4,60.03654002614148,
,,,,57,0,57,0,,,,,,,,,,,,,1476.5327022698475,None,,,,,,,,,,,,,,,,,,,,,,education,A_silent,57,108,1471.0670282783685,None,1471.0670282783685,None,1471.0670282783685,None,5,3.7721786802867427,1471.0670282783685,None,1474.8988057232928,None,1474.8988057232928,None,1475.41563914367,None,1475.41563914367,None,1475.41563914367,None,f,1.0705699630780146,1475.41563914367,None,sing3,001,2019_Oct_22_1549,ProdFawcett_Revision2019,3.2.4,60.03654002614148,
,,,,58,0,58,0,,,,,,,,,,,,,1481.717612852226,None,,,,,,,,,,,,,,,,,,,,,,addition,A_silent,58,2,1477.0500619048253,None,1477.0500619048253,None,1477.0500619048253,None,1,3.532105458085425,1477.0500619048253,None,1480.6237420379184,None,1480.6237420379184,None,1481.1506500396645,None,1481.1506500396645,None,1481.1506500396645,None,n,0.5193836324615404,1481.1506500396645,None,sing3,001,2019_Oct_22_1549,ProdFawcett_Revision2019,3.2.4,60.03654002614148,
,,,,59,0,59,0,,,,,,,,,,,,,1487.335844566347,None,,,,,,,,,,,,,,,,,,,,,,session,B_aloud,59,281,1482.2350244245026,None,1482.2350244245026,None,1482.2350244245026,None,6,3.162765101529658,1482.2350244245026,None,1485.4520854046568,None,1485.4520854046568,None,1485.9689116721274,None,1485.9689116721274,None,1485.9689116721274,None,r,1.3330906486371532,1485.9689116721274,None,sing3,001,2019_Oct_22_1549,ProdFawcett_Revision2019,3.2.4,60.03654002614148,
,,,,60,0,60,0,,,,,,,,,,,,,1492.5041862351354,None,,,,,,,,,,,,,,,,,,,,,,column,D_new,60,57,1487.853972685989,None,1487.853972685989,None,1487.853972685989,None,1,2.743716759723611,1487.853972685989,None,1490.6427128158975,None,1490.6427128158975,None,1491.1704356414266,None,1491.1704356414266,None,1491.1704356414266,None,n,1.2989324253285304,1491.1704356414266,None,sing3,001,2019_Oct_22_1549,ProdFawcett_Revision2019,3.2.4,60.03654002614148,
,,,,61,0,61,0,,,,,,,,,,,,,1496.505420910893,None,,,,,,,,,,,,,,,,,,,,,,business,B_aloud,61,38,1493.021561420057,None,1493.021561420057,None,1493.021561420057,None,4,2.4403056025039405,1493.021561420057,None,1495.5218010466779,None,1495.5218010466779,None,1496.0385393007891,None,1496.0385393007891,None,1496.0385393007891,None,f,0.43042788514867425,1496.0385393007891,None,sing3,001,2019_Oct_22_1549,ProdFawcett_Revision2019,3.2.4,60.03654002614148,
,,,,62,0,62,0,,,,,,,,,,,,,1501.790333079407,None,,,,,,,,,,,,,,,,,,,,,,appeal,D_new,62,9,1497.0228498991346,None,1497.0228498991346,None,1497.0228498991346,None,1,3.6859740518266335,1497.0228498991346,None,1500.7734049590072,None,1500.7734049590072,None,1501.290064218687,None,1501.290064218687,None,1501.290064218687,None,n,0.4670672779902816,1501.290064218687,None,sing3,001,2019_Oct_22_1549,ProdFawcett_Revision2019,3.2.4,60.03654002614148,
,,,,63,0,63,0,,,,,,,,,,,,,1505.7081431688275,None,,,,,,,,,,,,,,,,,,,,,,smooth,D_new,63,292,1502.3069690139964,None,1502.3069690139964,None,1502.3069690139964,None,1,2.361894048633985,1502.3069690139964,None,1504.712809745688,None,1504.712809745688,None,1505.241305098869,None,1505.241305098869,None,1505.241305098869,None,n,0.42750540445558727,1505.241305098869,None,sing3,001,2019_Oct_22_1549,ProdFawcett_Revision2019,3.2.4,60.03654002614148,
,,,,64,0,64,0,,,,,,,,,,,,,1509.259213806945,None,,,,,,,,,,,,,,,,,,,,,,bitter,D_new,64,23,1506.2260433243355,None,1506.2260433243355,None,1506.2260433243355,None,1,2.042596625746228,1506.2260433243355,None,1508.313615426072,None,1508.313615426072,None,1508.8424003216205,None,1508.8424003216205,None,1508.8424003216205,None,n,0.36970360623672605,1508.8424003216205,None,sing3,001,2019_Oct_22_1549,ProdFawcett_Revision2019,3.2.4,60.03654002614148,
,,,,65,0,65,0,,,,,,,,,,,,,1512.910409498727,None,,,,,,,,,,,,,,,,,,,,,,trend,D_new,65,340,1509.776027323329,None,1509.776027323329,None,1509.776027323329,None,5,2.1800154194934294,1509.776027323329,None,1511.999300868716,None,1511.999300868716,None,1512.526984508033,None,1512.526984508033,None,1512.526984508033,None,f,0.3417535941116512,1512.526984508033,None,sing3,001,2019_Oct_22_1549,ProdFawcett_Revision2019,3.2.4,60.03654002614148,
,,,,66,0,66,0,,,,,,,,,,,,,1517.5951267937198,None,,,,,,,,,,,,,,,,,,,,,,signal,D_new,66,287,1513.4272702872986,None,1513.4272702872986,None,1513.4272702872986,None,1,3.0883800835581496,1513.4272702872986,None,1516.5782005393412,None,1516.5782005393412,None,1517.0949425253784,None,1517.0949425253784,None,1517.0949425253784,None,n,0.4526162842521444,1517.0949425253784,None,sing3,001,2019_Oct_22_1549,ProdFawcett_Revision2019,3.2.4,60.03654002614148,
,,,,67,0,67,0,,,,,,,,,,,,,1524.0638147003483,None,,,,,,,,,,,,,,,,,,,,,,rural,C_sing,67,269,1518.1118168424582,None,1518.1118168424582,None,1518.1118168424582,None,6,4.315668346825987,1518.1118168424582,None,1522.4694252910558,None,1522.4694252910558,None,1522.9968075699871,None,1522.9968075699871,None,1522.9968075699871,None,r,1.0231714746914804,1522.9968075699871,None,sing3,001,2019_Oct_22_1549,ProdFawcett_Revision2019,3.2.4,60.03654002614148,
,,,,68,0,68,0,,,,,,,,,,,,,1528.8986194333993,None,,,,,,,,,,,,,,,,,,,,,,position,C_sing,68,229,1524.5816691385116,None,1524.5816691385116,None,1524.5816691385116,None,6,2.7335277299862355,1524.5816691385116,None,1527.3647409559926,None,1527.3647409559926,None,1527.8816241367022,None,1527.8816241367022,None,1527.8816241367022,None,r,0.9692540847463533,1527.8816241367022,None,sing3,001,2019_Oct_22_1549,ProdFawcett_Revision2019,3.2.4,60.03654002614148,
,,,,69,0,69,0,,,,,,,,,,,,,1532.7163996355375,None,,,,,,,,,,,,,,,,,,,,,,damage,C_sing,69,83,1529.416646477417,None,1529.416646477417,None,1529.416646477417,None,6,2.178142257616855,1529.416646477417,None,1531.6493853522697,None,1531.6493853522697,None,1532.1662722649053,None,1532.1662722649053,None,1532.1662722649053,None,r,0.516933562932536,1532.1662722649053,None,sing3,001,2019_Oct_22_1549,ProdFawcett_Revision2019,3.2.4,60.03654002614148,
,,,,70,0,70,0,,,,,,,,,,,,,1536.600942209945,None,,,,,,,,,,,,,,,,,,,,,,machinery,D_new,70,175,1533.234487324953,None,1533.234487324953,None,1533.234487324953,None,1,2.0728604887844995,1533.234487324953,None,1535.3672106185695,None,1535.3672106185695,None,1535.8839715756476,None,1535.8839715756476,None,1535.8839715756476,None,n,0.6704102949006483,1535.8839715756476,None,sing3,001,2019_Oct_22_1549,ProdFawcett_Revision2019,3.2.4,60.03654002614148,
,,,,71,0,71,0,,,,,,,,,,,,,1540.06854192249,None,,,,,,,,,,,,,,,,,,,,,,background,D_new,71,16,1537.1195169276325,None,1537.1195169276325,None,1537.1195169276325,None,1,1.8826902497094125,1537.1195169276325,None,1539.0515727498569,None,1539.0515727498569,None,1539.5683878212003,None,1539.5683878212003,None,1539.5683878212003,None,n,0.4667170903412625,1539.5683878212003,None,sing3,001,2019_Oct_22_1549,ProdFawcett_Revision2019,3.2.4,60.03654002614148,
,,,,72,0,72,0,,,,,,,,,,,,,1543.8697933302028,None,,,,,,,,,,,,,,,,,,,,,,curve,D_new,72,82,1540.5853632139042,None,1540.5853632139042,None,1540.5853632139042,None,3,2.4171369267860427,1540.5853632139042,None,1543.052820176701,None,1543.052820176701,None,1543.5697391226422,None,1543.5697391226422,None,1543.5697391226422,None,f,0.2570800259709358,1543.5697391226422,None,sing3,001,2019_Oct_22_1549,ProdFawcett_Revision2019,3.2.4,60.03654002614148,
,,,,73,0,73,0,,,,,,,,,,,,,1551.455477186595,None,,,,,,,,,,,,,,,,,,,,,,break,C_sing,73,26,1544.3865807224065,None,1544.3865807224065,None,1544.3865807224065,None,1,6.335251797689125,1544.3865807224065,None,1550.7603245485807,None,1550.7603245485807,None,1551.2886174398009,None,1551.2886174398009,None,1551.2886174398009,None,n,0.12889610964339226,1551.2886174398009,None,sing3,001,2019_Oct_22_1549,ProdFawcett_Revision2019,3.2.4,60.03654002614148,
,,,,74,0,74,0,,,,,,,,,,,,,1557.9119362048805,None,,,,,,,,,,,,,,,,,,,,,,universal,B_aloud,74,345,1551.9743569967104,None,1551.9743569967104,None,1551.9743569967104,None,6,4.018809057306498,1551.9743569967104,None,1556.0441895752447,None,1556.0441895752447,None,1556.5736655159853,None,1556.5736655159853,None,1556.5736655159853,None,r,1.3080447680549696,1556.5736655159853,None,sing3,001,2019_Oct_22_1549,ProdFawcett_Revision2019,3.2.4,60.03654002614148,
,,,,75,0,75,0,,,,,,,,,,,,,1562.3087485643337,None,,,,,,,,,,,,,,,,,,,,,,shock,D_new,75,284,1558.4408327499405,None,1558.4408327499405,None,1558.4408327499405,None,5,2.6086808593245223,1558.4408327499405,None,1561.1083669032669,None,1561.1083669032669,None,1561.6252267588861,None,1561.6252267588861,None,1561.6252267588861,None,f,0.6403628889238462,1561.6252267588861,None,sing3,001,2019_Oct_22_1549,ProdFawcett_Revision2019,3.2.4,60.03654002614148,
,,,,76,0,76,0,,,,,,,,,,,,,1566.2432525900658,None,,,,,,,,,,,,,,,,,,,,,,crowd,A_silent,76,81,1562.8256158839213,None,1562.8256158839213,None,1562.8256158839213,None,1,2.3113563116639853,1562.8256158839213,None,1565.1928796838038,None,1565.1928796838038,None,1565.7097976965597,None,1565.7097976965597,None,1565.7097976965597,None,n,0.49151323665864766,1565.7097976965597,None,sing3,001,2019_Oct_22_1549,ProdFawcett_Revision2019,3.2.4,60.03654002614148,
,,,,77,0,77,0,,,,,,,,,,,,,1575.9962561643915,None,,,,,,,,,,,,,,,,,,,,,,colonel,B_aloud,77,55,1566.7614441538462,None,1566.7614441538462,None,1566.7614441538462,None,3,7.74333733797539,1566.7614441538462,None,1574.5504249989754,None,1574.5504249989754,None,1575.07917319634,None,1575.07917319634,None,1575.07917319634,None,f,0.8807676386786625,1575.07917319634,None,sing3,001,2019_Oct_22_1549,ProdFawcett_Revision2019,3.2.4,60.03654002614148,
,,,,78,0,78,0,,,,,,,,,,,,,1584.198766941321,None,,,,,,,,,,,,,,,,,,,,,,taste,A_silent,78,322,1576.5132457076106,None,1576.5132457076106,None,1576.5132457076106,None,1,6.7906953962519765,1576.5132457076106,None,1583.3651241097832,None,1583.3651241097832,None,1583.8852535237093,None,1583.8852535237093,None,1583.8852535237093,None,n,0.2660838292213157,1583.8852535237093,None,sing3,001,2019_Oct_22_1549,ProdFawcett_Revision2019,3.2.4,60.03654002614148,
,,,,79,0,79,0,,,,,,,,,,,,,1588.8001333574066,None,,,,,,,,,,,,,,,,,,,,,,hunger,D_new,79,155,1584.7154140719213,None,1584.7154140719213,None,1584.7154140719213,None,1,3.0842381661059335,1584.7154140719213,None,1587.8380148900906,None,1587.8380148900906,None,1588.3665133533068,None,1588.3665133533068,None,1588.3665133533068,None,n,0.3846195472870022,1588.3665133533068,None,sing3,001,2019_Oct_22_1549,ProdFawcett_Revision2019,3.2.4,60.03654002614148,
,,,,80,0,80,0,,,,,,,,,,,,,1594.2017771244282,None,,,,,,,,,,,,,,,,,,,,,,weather,D_new,80,352,1589.3183239882346,None,1589.3183239882346,None,1589.3183239882346,None,1,2.6248815472936258,1589.3183239882346,None,1592.0010020466289,None,1592.0010020466289,None,1592.5179446286056,None,1592.5179446286056,None,1592.5179446286056,None,n,1.6488980130525306,1592.5179446286056,None,sing3,001,2019_Oct_22_1549,ProdFawcett_Revision2019,3.2.4,60.03654002614148,
,,,,81,0,81,0,,,,,,,,,,,,,1602.3541382942349,None,,,,,,,,,,,,,,,,,,,,,,cousin,B_aloud,81,76,1594.7190938412677,None,1594.7190938412677,None,1594.7190938412677,None,6,5.447322106338106,1594.7190938412677,None,1600.220164463739,None,1600.220164463739,None,1600.7371145098004,None,1600.7371145098004,None,1600.7371145098004,None,r,1.581249597715214,1600.7371145098004,None,sing3,001,2019_Oct_22_1549,ProdFawcett_Revision2019,3.2.4,60.03654002614148,
,,,,82,0,82,0,,,,,,,,,,,,,1606.438708920963,None,,,,,,,,,,,,,,,,,,,,,,balance,D_new,82,17,1602.8721746683586,None,1602.8721746683586,None,1602.8721746683586,None,4,2.6857886950019747,1602.8721746683586,None,1605.6217774417019,None,1605.6217774417019,None,1606.1387421047548,None,1606.1387421047548,None,1606.1387421047548,None,f,0.25121329445391893,1606.1387421047548,None,sing3,001,2019_Oct_22_1549,ProdFawcett_Revision2019,3.2.4,60.03654002614148,
,,,,83,0,83,0,,,,,,,,,,,,,1613.4076037990162,None,,,,,,,,,,,,,,,,,,,,,,period,A_silent,83,217,1606.9561615453567,None,1606.9561615453567,None,1606.9561615453567,None,2,3.7618680489249527,1606.9561615453567,None,1610.7734652932268,None,1610.7734652932268,None,1611.2901578301098,None,1611.2901578301098,None,1611.2901578301098,None,f,2.083836352219805,1611.2901578301098,None,sing3,001,2019_Oct_22_1549,ProdFawcett_Revision2019,3.2.4,60.03654002614148,
,,,,84,0,84,0,,,,,,,,,,,,,1617.6754609585041,None,,,,,,,,,,,,,,,,,,,,,,quarter,D_new,84,246,1613.9288220290327,None,1613.9288220290327,None,1613.9288220290327,None,1,2.56454135524109,1613.9288220290327,None,1616.5481876544654,None,1616.5481876544654,None,1617.0774729513796,None,1617.0774729513796,None,1617.0774729513796,None,n,0.5600452071521431,1617.0774729513796,None,sing3,001,2019_Oct_22_1549,ProdFawcett_Revision2019,3.2.4,60.03654002614148,
,,,,85,0,85,0,,,,,,,,,,,,,1621.2600059276447,None,,,,,,,,,,,,,,,,,,,,,,scale,A_silent,85,272,1618.1773890120676,None,1618.1773890120676,None,1618.1773890120676,None,1,2.243948611430824,1618.1773890120676,None,1620.4764113167766,None,1620.4764113167766,None,1620.9932201681659,None,1620.9932201681659,None,1620.9932201681659,None,n,0.21974709979258478,1620.9932201681659,None,sing3,001,2019_Oct_22_1549,ProdFawcett_Revision2019,3.2.4,60.03654002614148,
,,,,86,0,86,0,,,,,,,,,,,,,1626.2781491307542,None,,,,,,,,,,,,,,,,,,,,,,interview,A_silent,86,165,1621.7789305219194,None,1621.7789305219194,None,1621.7789305219194,None,1,3.1387063396396115,1621.7789305219194,None,1624.9776918652933,None,1624.9776918652933,None,1625.4945234197658,None,1625.4945234197658,None,1625.4945234197658,None,n,0.7505043665878475,1625.4945234197658,None,sing3,001,2019_Oct_22_1549,ProdFawcett_Revision2019,3.2.4,60.03654002614148,
,,,,87,0,87,0,,,,,,,,,,,,,1631.3796858200803,None,,,,,,,,,,,,,,,,,,,,,,individual,A_silent,87,160,1626.7968606890645,None,1626.7968606890645,None,1626.7968606890645,None,2,3.4404869162244722,1626.7968606890645,None,1630.2961259480799,None,1630.2961259480799,None,1630.8130175258266,None,1630.8130175258266,None,1630.8130175258266,None,f,0.5193329391768202,1630.8130175258266,None,sing3,001,2019_Oct_22_1549,ProdFawcett_Revision2019,3.2.4,60.03654002614148,
,,,,88,0,88,0,,,,,,,,,,,,,1634.7474099020474,None,,,,,,,,,,,,,,,,,,,,,,running,C_sing,88,268,1631.8979227901436,None,1631.8979227901436,None,1631.8979227901436,None,1,1.9464156925678253,1631.8979227901436,None,1633.8847014961066,None,1633.8847014961066,None,1634.4138322252547,None,1634.4138322252547,None,1634.4138322252547,None,n,0.2863023449899629,1634.4138322252547,None,sing3,001,2019_Oct_22_1549,ProdFawcett_Revision2019,3.2.4,60.03654002614148,
,,,,89,0,89,0,,,,,,,,,,,,,1638.881963128224,None,,,,,,,,,,,,,,,,,,,,,,relation,D_new,89,257,1635.2642579395324,None,1635.2642579395324,None,1635.2642579395324,None,1,2.747637555235997,1635.2642579395324,None,1638.0536210054997,None,1638.0536210054997,None,1638.5819904031232,None,1638.5819904031232,None,1638.5819904031232,None,n,0.2538655148819089,1638.5819904031232,None,sing3,001,2019_Oct_22_1549,ProdFawcett_Revision2019,3.2.4,60.03654002614148,
,,,,90,0,90,0,,,,,,,,,,,,,1642.332930793753,None,,,,,,,,,,,,,,,,,,,,,,property,A_silent,90,242,1639.3992829549825,None,1639.3992829549825,None,1639.3992829549825,None,4,2.0364129837835208,1639.3992829549825,None,1641.4993364783004,None,1641.4993364783004,None,1642.0163135814946,None,1642.0163135814946,None,1642.0163135814946,None,f,0.26737324125133455,1642.0163135814946,None,sing3,001,2019_Oct_22_1549,ProdFawcett_Revision2019,3.2.4,60.03654002614148,
,,,,91,0,91,0,,,,,,,,,,,,,1645.9007696975023,None,,,,,,,,,,,,,,,,,,,,,,answer,D_new,91,8,1642.8498889257899,None,1642.8498889257899,None,1642.8498889257899,None,5,2.097586348769255,1642.8498889257899,None,1645.0005675776629,None,1645.0005675776629,None,1645.517221861286,None,1645.517221861286,None,1645.517221861286,None,f,0.3425565999932587,1645.517221861286,None,sing3,001,2019_Oct_22_1549,ProdFawcett_Revision2019,3.2.4,60.03654002614148,
,,,,92,0,92,0,,,,,,,,,,,,,1649.285181184765,None,,,,,,,,,,,,,,,,,,,,,,interior,D_new,92,164,1646.4183100241935,None,1646.4183100241935,None,1646.4183100241935,None,1,1.9529451683629304,1646.4183100241935,None,1648.434853746905,None,1648.434853746905,None,1648.951752166613,None,1648.951752166613,None,1648.951752166613,None,n,0.29193427052814513,1648.951752166613,None,sing3,001,2019_Oct_22_1549,ProdFawcett_Revision2019,3.2.4,60.03654002614148,
,,,,93,0,93,0,,,,,,,,,,,,,1652.5027195522562,None,,,,,,,,,,,,,,,,,,,,,,worker,B_aloud,93,356,1649.8017390578752,None,1649.8017390578752,None,1649.8017390578752,None,3,1.8899689278332517,1649.8017390578752,None,1651.7525924303336,None,1651.7525924303336,None,1652.2692840341479,None,1652.2692840341479,None,1652.2692840341479,None,f,0.1906028421362862,1652.2692840341479,None,sing3,001,2019_Oct_22_1549,ProdFawcett_Revision2019,3.2.4,60.03654002614148,
,,,,94,0,94,0,,,,,,,,,,,,,1656.620641664369,None,,,,,,,,,,,,,,,,,,,,,,travel,B_aloud,94,338,1653.0194680693094,None,1653.0194680693094,None,1653.0194680693094,None,5,2.5995162683539093,1653.0194680693094,None,1655.6601671507815,None,1655.6601671507815,None,1656.187267973437,None,1656.187267973437,None,1656.187267973437,None,f,0.3999789763474837,1656.187267973437,None,sing3,001,2019_Oct_22_1549,ProdFawcett_Revision2019,3.2.4,60.03654002614148,
,,,,95,0,95,0,,,,,,,,,,,,,1659.9050658716587,None,,,,,,,,,,,,,,,,,,,,,,safety,D_new,95,270,1657.138853132259,None,1657.138853132259,None,1657.138853132259,None,6,1.7837805896997452,1657.138853132259,None,1658.987973884563,None,1658.987973884563,None,1659.5049242415698,None,1659.5049242415698,None,1659.5049242415698,None,r,0.3535788026638329,1659.5049242415698,None,sing3,001,2019_Oct_22_1549,ProdFawcett_Revision2019,3.2.4,60.03654002614148,
,,,,96,0,96,0,,,,,,,,,,,,,1664.4729909227462,None,,,,,,,,,,,,,,,,,,,,,,straight,C_sing,96,307,1660.4236328141997,None,1660.4236328141997,None,1660.4236328141997,None,3,2.930825189454481,1660.4236328141997,None,1663.4060770928627,None,1663.4060770928627,None,1663.9229565415299,None,1663.9229565415299,None,1663.9229565415299,None,f,0.5116760833188891,1663.9229565415299,None,sing3,001,2019_Oct_22_1549,ProdFawcett_Revision2019,3.2.4,60.03654002614148,
,,,,97,0,97,0,,,,,,,,,,,,,1668.4908859466668,None,,,,,,,,,,,,,,,,,,,,,,charter,A_silent,97,47,1664.9897332197288,None,1664.9897332197288,None,1664.9897332197288,None,6,2.5644965710816905,1664.9897332197288,None,1667.6073211608455,None,1667.6073211608455,None,1668.1241950115655,None,1668.1241950115655,None,1668.1241950115655,None,r,0.3337546366965398,1668.1241950115655,None,sing3,001,2019_Oct_22_1549,ProdFawcett_Revision2019,3.2.4,60.03654002614148,
,,,,98,0,98,0,,,,,,,,,,,,,1673.3485788321123,None,,,,,,,,,,,,,,,,,,,,,,commercial,D_new,98,61,1669.0087581120897,None,1669.0087581120897,None,1669.0087581120897,None,1,3.377404002356343,1669.0087581120897,None,1672.433089124621,None,1672.433089124621,None,1672.9588958701352,None,1672.9588958701352,None,1672.9588958701352,None,n,0.35505263844970614,1672.9588958701352,None,sing3,001,2019_Oct_22_1549,ProdFawcett_Revision2019,3.2.4,60.03654002614148,
,,,,99,0,99,0,,,,,,,,,,,,,1677.226849440136,None,,,,,,,,,,,,,,,,,,,,,,subject,D_new,99,312,1673.8927617209265,None,1673.8927617209265,None,1673.8927617209265,None,2,2.30957365129143,1673.8927617209265,None,1676.2598927230574,None,1676.2598927230574,None,1676.7790617644787,None,1676.7790617644787,None,1676.7790617644787,None,f,0.41479010973125696,1676.7790617644787,None,sing3,001,2019_Oct_22_1549,ProdFawcett_Revision2019,3.2.4,60.03654002614148,
,,,,100,0,100,0,,,,,,,,,,,,,1683.0954640747514,None,,,,,,,,,,,,,,,,,,,,,,grade,A_silent,100,140,1677.7437914001057,None,1677.7437914001057,None,1677.7437914001057,None,1,4.529374865349382,1677.7437914001057,None,1682.328520793002,None,1682.328520793002,None,1682.8453859356232,None,1682.8453859356232,None,1682.8453859356232,None,n,0.20363566931337118,1682.8453859356232,None,sing3,001,2019_Oct_22_1549,ProdFawcett_Revision2019,3.2.4,60.03654002614148,
,,,,101,0,101,0,,,,,,,,,,,,,1687.3299529547803,None,,,,,,,,,,,,,,,,,,,,,,sight,C_sing,101,286,1683.6123522315174,None,1683.6123522315174,None,1683.6123522315174,None,1,2.844943069620058,1683.6123522315174,None,1686.5012783714337,None,1686.5012783714337,None,1687.029797671712,None,1687.029797671712,None,1687.029797671712,None,n,0.2671866404125467,1687.029797671712,None,sing3,001,2019_Oct_22_1549,ProdFawcett_Revision2019,3.2.4,60.03654002614148,
,,,,102,0,102,0,,,,,,,,,,,,,1692.598333218717,None,,,,,,,,,,,,,,,,,,,,,,surface,C_sing,102,316,1687.8467083139112,None,1687.8467083139112,None,1687.8467083139112,None,3,3.6979165078373626,1687.8467083139112,None,1691.5979625049513,None,1691.5979625049513,None,1692.1148662117776,None,1692.1148662117776,None,1692.1148662117776,None,f,0.43753768946044147,1692.1148662117776,None,sing3,001,2019_Oct_22_1549,ProdFawcett_Revision2019,3.2.4,60.03654002614148,
,,,,103,0,103,0,,,,,,,,,,,,,1698.0999695529463,None,,,,,,,,,,,,,,,,,,,,,,personnel,D_new,103,219,1693.1161546908552,None,1693.1161546908552,None,1693.1161546908552,None,1,4.028418691363186,1693.1161546908552,None,1697.199764634017,None,1697.199764634017,None,1697.7175665131072,None,1697.7175665131072,None,1697.7175665131072,None,n,0.3466823452617973,1697.7175665131072,None,sing3,001,2019_Oct_22_1549,ProdFawcett_Revision2019,3.2.4,60.03654002614148,
,,,,104,0,104,0,,,,,,,,,,,,,1703.2848997283727,None,,,,,,,,,,,,,,,,,,,,,,match,D_new,104,181,1698.6166776397731,None,1698.6166776397731,None,1698.6166776397731,None,4,2.815449868212454,1698.6166776397731,None,1701.4725486786338,None,1701.4725486786338,None,1702.0010527399136,None,1702.0010527399136,None,1702.0010527399136,None,f,1.2387704370776191,1702.0010527399136,None,sing3,001,2019_Oct_22_1549,ProdFawcett_Revision2019,3.2.4,60.03654002614148,
,,,,105,0,105,0,,,,,,,,,,,,,1707.2526778002502,None,,,,,,,,,,,,,,,,,,,,,,industry,B_aloud,105,161,1703.8023368027061,None,1703.8023368027061,None,1703.8023368027061,None,6,2.509663592791185,1703.8023368027061,None,1706.35784605355,None,1706.35784605355,None,1706.885984688066,None,1706.885984688066,None,1706.885984688066,None,r,0.3214986911043525,1706.885984688066,None,sing3,001,2019_Oct_22_1549,ProdFawcett_Revision2019,3.2.4,60.03654002614148,
,,,,106,0,106,0,,,,,,,,,,,,,1711.187208261108,None,,,,,,,,,,,,,,,,,,,,,,permit,B_aloud,106,218,1707.770401306916,None,1707.770401306916,None,1707.770401306916,None,6,2.509173454483971,1707.770401306916,None,1710.3370503190672,None,1710.3370503190672,None,1710.8537279277807,None,1710.8537279277807,None,1710.8537279277807,None,r,0.29780597798526287,1710.8537279277807,None,sing3,001,2019_Oct_22_1549,ProdFawcett_Revision2019,3.2.4,60.03654002614148,
,,,,107,0,107,0,,,,,,,,,,,,,1714.271456379327,None,,,,,,,,,,,,,,,,,,,,,,victory,B_aloud,107,346,1711.7053108785767,None,1711.7053108785767,None,1711.7053108785767,None,6,1.6379613357130438,1711.7053108785767,None,1713.4045043585356,None,1713.4045043585356,None,1713.921530288877,None,1713.921530288877,None,1713.921530288877,None,r,0.3016415589954704,1713.921530288877,None,sing3,001,2019_Oct_22_1549,ProdFawcett_Revision2019,3.2.4,60.03654002614148,
,,,,108,0,108,0,,,,,,,,,,,,,1718.0727395091671,None,,,,,,,,,,,,,,,,,,,,,,season,B_aloud,108,277,1714.7883386270842,None,1714.7883386270842,None,1714.7883386270842,None,6,2.3865076371002942,1714.7883386270842,None,1717.2390674434137,None,1717.2390674434137,None,1717.7558200034546,None,1717.7558200034546,None,1717.7558200034546,None,r,0.27584585396107286,1717.7558200034546,None,sing3,001,2019_Oct_22_1549,ProdFawcett_Revision2019,3.2.4,60.03654002614148,
,,,,109,0,109,0,,,,,,,,,,,,,1722.924220451503,None,,,,,,,,,,,,,,,,,,,,,,write,B_aloud,109,358,1718.58936269267,None,1718.58936269267,None,1718.58936269267,None,5,3.473971199360676,1718.58936269267,None,1722.1114140956197,None,1722.1114140956197,None,1722.6406446562614,None,1722.6406446562614,None,1722.6406446562614,None,f,0.23784831771627069,1722.6406446562614,None,sing3,001,2019_Oct_22_1549,ProdFawcett_Revision2019,3.2.4,60.03654002614148,
,,,,110,0,110,0,,,,,,,,,,,,,1726.4419346280629,None,,,,,,,,,,,,,,,,,,,,,,turkey,D_new,110,342,1723.442225103383,None,1723.442225103383,None,1723.442225103383,None,1,2.148594942060299,1723.442225103383,None,1725.6415645985398,None,1725.6415645985398,None,1726.1584378271364,None,1726.1584378271364,None,1726.1584378271364,None,n,0.24800593638792634,1726.1584378271364,None,sing3,001,2019_Oct_22_1549,ProdFawcett_Revision2019,3.2.4,60.03654002614148,
,,,,111,0,111,0,,,,,,,,,,,,,1730.1429418685148,None,,,,,,,,,,,,,,,,,,,,,,search,B_aloud,111,276,1726.9586679060012,None,1726.9586679060012,None,1726.9586679060012,None,2,2.2874934807186946,1726.9586679060012,None,1729.3094274804462,None,1729.3094274804462,None,1729.826313149184,None,1729.826313149184,None,1729.826313149184,None,f,0.2837194779422134,1729.826313149184,None,sing3,001,2019_Oct_22_1549,ProdFawcett_Revision2019,3.2.4,60.03654002614148,
,,,,112,0,112,0,,,,,,,,,,,,,1733.533164107008,None,,,,,,,,,,,,,,,,,,,,,,junior,D_new,112,167,1730.6645528933732,None,1730.6645528933732,None,1730.6645528933732,None,1,2.25417496135924,1730.6645528933732,None,1732.9675233615562,None,1732.9675233615562,None,1733.4967492572032,None,1733.4967492572032,None,1733.4967492572032,None,n,0.013442727038636804,1733.4967492572032,None,sing3,001,2019_Oct_22_1549,ProdFawcett_Revision2019,3.2.4,60.03654002614148,
,,,,113,0,113,0,,,,,,,,,,,,,1736.761728409212,None,,,,,,,,,,,,,,,,,,,,,,substance,B_aloud,113,313,1734.0609003056306,None,1734.0609003056306,None,1734.0609003056306,None,6,2.0172779969871044,1734.0609003056306,None,1736.1168690611375,None,1736.1168690611375,None,1736.644983126549,None,1736.644983126549,None,1736.644983126549,None,r,0.0734367745462805,1736.644983126549,None,sing3,001,2019_Oct_22_1549,ProdFawcett_Revision2019,3.2.4,60.03654002614148,
,,,,114,0,114,0,,,,,,,,,,,,,1740.0794247965096,None,,,,,,,,,,,,,,,,,,,,,,welcome,C_sing,114,354,1737.2783556357026,None,1737.2783556357026,None,1737.2783556357026,None,1,1.991930445190519,1737.2783556357026,None,1739.3291446620133,None,1739.3291446620133,None,1739.8460150916362,None,1739.8460150916362,None,1739.8460150916362,None,n,0.19988312560599297,1739.8460150916362,None,sing3,001,2019_Oct_22_1549,ProdFawcett_Revision2019,3.2.4,60.03654002614148,
,,,,115,0,115,0,,,,,,,,,,,,,1743.6137246809667,None,,,,,,,,,,,,,,,,,,,,,,master,B_aloud,115,180,1740.597080504871,None,1740.597080504871,None,1740.597080504871,None,3,2.025058942497708,1740.597080504871,None,1742.6800818182528,None,1742.6800818182528,None,1743.1969342097873,None,1743.1969342097873,None,1743.1969342097873,None,f,0.37661219271831214,1743.1969342097873,None,sing3,001,2019_Oct_22_1549,ProdFawcett_Revision2019,3.2.4,60.03654002614148,
,,,,116,0,116,0,,,,,,,,,,,,,1748.3487501939526,None,,,,,,,,,,,,,,,,,,,,,,passage,D_new,116,212,1744.130632119719,None,1744.130632119719,None,1744.130632119719,None,1,2.986429140320979,1744.130632119719,None,1747.1814317200333,None,1747.1814317200333,None,1747.6984007371357,None,1747.6984007371357,None,1747.6984007371357,None,n,0.6109104286879301,1747.6984007371357,None,sing3,001,2019_Oct_22_1549,ProdFawcett_Revision2019,3.2.4,60.03654002614148,
,,,,117,0,117,0,,,,,,,,,,,,,1752.3332697852748,None,,,,,,,,,,,,,,,,,,,,,,conference,D_new,117,66,1748.8681223193416,None,1748.8681223193416,None,1748.8681223193416,None,1,1.9213757212273777,1748.8681223193416,None,1750.8492930469802,None,1750.8492930469802,None,1751.3661889787763,None,1751.3661889787763,None,1751.3661889787763,None,n,0.9268807580228895,1751.3661889787763,None,sing3,001,2019_Oct_22_1549,ProdFawcett_Revision2019,3.2.4,60.03654002614148,
,,,,118,0,118,0,,,,,,,,,,,,,1756.1009778196458,None,,,,,,,,,,,,,,,,,,,,,,afternoon,A_silent,118,3,1752.8514268279541,None,1752.8514268279541,None,1752.8514268279541,None,1,2.449483566568233,1752.8514268279541,None,1755.350656632916,None,1755.350656632916,None,1755.8674626852153,None,1755.8674626852153,None,1755.8674626852153,None,n,0.19336640101391822,1755.8674626852153,None,sing3,001,2019_Oct_22_1549,ProdFawcett_Revision2019,3.2.4,60.03654002614148,
,,,,119,0,119,0,,,,,,,,,,,,,1759.6520291756606,None,,,,,,,,,,,,,,,,,,,,,,smell,A_silent,119,291,1756.6190207247855,None,1756.6190207247855,None,1756.6190207247855,None,1,2.1133451036876068,1756.6190207247855,None,1758.7723015258089,None,1758.7723015258089,None,1759.301804212737,None,1759.301804212737,None,1759.301804212737,None,n,0.3108105040155351,1759.301804212737,None,sing3,001,2019_Oct_22_1549,ProdFawcett_Revision2019,3.2.4,60.03654002614148,
,,,,120,0,120,0,,,,,,,,,,,,,1767.3708878997713,None,,,,,,,,,,,,,,,,,,,,,,display,C_sing,120,98,1760.1697887583869,None,1760.1697887583869,None,1760.1697887583869,None,2,6.2265443477081135,1760.1697887583869,None,1766.4435191805242,None,1766.4435191805242,None,1766.970919497544,None,1766.970919497544,None,1766.970919497544,None,n,0.35273878776934,1766.970919497544,None,sing3,001,2019_Oct_22_1549,ProdFawcett_Revision2019,3.2.4,60.03654002614148,
,,,,121,0,121,0,,,,,,,,,,,,,1775.6569168745773,None,,,,,,,,,,,,,,,,,,,,,,quantity,A_silent,121,245,1767.8928963845829,None,1767.8928963845829,None,1767.8928963845829,None,3,6.150303273112513,1767.8928963845829,None,1774.096840256243,None,1774.096840256243,None,1774.625341207371,None,1774.625341207371,None,1774.625341207371,None,f,0.9938676732126623,1774.625341207371,None,sing3,001,2019_Oct_22_1549,ProdFawcett_Revision2019,3.2.4,60.03654002614148,
,,,,122,0,122,0,,,,,,,,,,,,,1781.7587642542785,None,,,,,,,,,,,,,,,,,,,,,,school,B_aloud,122,274,1776.173761802027,None,1776.173761802027,None,1776.173761802027,None,3,4.325923930970021,1776.173761802027,None,1780.5465517868288,None,1780.5465517868288,None,1781.0750885031885,None,1781.0750885031885,None,1781.0750885031885,None,f,0.6479158704169095,1781.0750885031885,None,sing3,001,2019_Oct_22_1549,ProdFawcett_Revision2019,3.2.4,60.03654002614148,
,,,,123,0,123,0,,,,,,,,,,,,,1785.3765111172106,None,,,,,,,,,,,,,,,,,,,,,,youth,D_new,123,359,1782.2767866333015,None,1782.2767866333015,None,1782.2767866333015,None,1,2.1662492508767173,1782.2767866333015,None,1784.4929466423346,None,1784.4929466423346,None,1785.0096062129596,None,1785.0096062129596,None,1785.0096062129596,None,n,0.3289866732666269,1785.0096062129596,None,sing3,001,2019_Oct_22_1549,ProdFawcett_Revision2019,3.2.4,60.03654002614148,
,,,,124,0,124,0,,,,,,,,,,,,,1789.4110301020555,None,,,,,,,,,,,,,,,,,,,,,,suggestion,B_aloud,124,314,1785.8947994024493,None,1785.8947994024493,None,1785.8947994024493,None,5,2.6034930439200252,1785.8947994024493,None,1788.5607636205386,None,1788.5607636205386,None,1789.077759383712,None,1789.077759383712,None,1789.077759383712,None,f,0.30046224140096456,1789.077759383712,None,sing3,001,2019_Oct_22_1549,ProdFawcett_Revision2019,3.2.4,60.03654002614148,
,,,,125,0,125,0,,,,,,,,,,,,,1793.3121502982685,None,,,,,,,,,,,,,,,,,,,,,,narrow,D_new,125,197,1789.928480238421,None,1789.928480238421,None,1789.928480238421,None,1,2.6744673089124262,1789.928480238421,None,1792.662019786425,None,1792.662019786425,None,1793.178923804313,None,1793.178923804313,None,1793.178923804313,None,n,0.08705117437057197,1793.178923804313,None,sing3,001,2019_Oct_22_1549,ProdFawcett_Revision2019,3.2.4,60.03654002614148,
,,,,126,0,126,0,,,,,,,,,,,,,1796.8466980508529,None,,,,,,,,,,,,,,,,,,,,,,revolution,C_sing,126,264,1793.8295892385067,None,1793.8295892385067,None,1793.8295892385067,None,6,2.1644152752123773,1793.8295892385067,None,1796.046276706038,None,1796.046276706038,None,1796.5631437146803,None,1796.5631437146803,None,1796.5631437146803,None,r,0.2390543813817203,1796.5631437146803,None,sing3,001,2019_Oct_22_1549,ProdFawcett_Revision2019,3.2.4,60.03654002614148,
,,,,127,0,127,0,,,,,,,,,,,,,1800.4310735240579,None,,,,,,,,,,,,,,,,,,,,,,breath,D_new,127,27,1797.3646585405804,None,1797.3646585405804,None,1797.3646585405804,None,5,2.157549607101828,1797.3646585405804,None,1799.5678544538096,None,1799.5678544538096,None,1800.097516373382,None,1800.097516373382,None,1800.097516373382,None,f,0.28880963881965727,1800.097516373382,None,sing3,001,2019_Oct_22_1549,ProdFawcett_Revision2019,3.2.4,60.03654002614148,
,,,,128,0,128,0,,,,,,,,,,,,,1804.1153911822475,None,,,,,,,,,,,,,,,,,,,,,,principal,B_aloud,128,236,1800.947874600417,None,1800.947874600417,None,1800.947874600417,None,6,2.2937788200797513,1800.947874600417,None,1803.2866351165576,None,1803.2866351165576,None,1803.8152763294056,None,1803.8152763294056,None,1803.8152763294056,None,r,0.2665242071961984,1803.8152763294056,None,sing3,001,2019_Oct_22_1549,ProdFawcett_Revision2019,3.2.4,60.03654002614148,
,,,,129,0,129,0,,,,,,,,,,,,,1807.416531406925,None,,,,,,,,,,,,,,,,,,,,,,chief,D_new,129,48,1804.6374117960222,None,1804.6374117960222,None,1804.6374117960222,None,1,1.8439037026837468,1804.6374117960222,None,1806.521751908469,None,1806.521751908469,None,1807.0497418843443,None,1807.0497418843443,None,1807.0497418843443,None,n,0.31935309211257845,1807.0497418843443,None,sing3,001,2019_Oct_22_1549,ProdFawcett_Revision2019,3.2.4,60.03654002614148,
,,,,130,0,130,0,,,,,,,,,,,,,1811.7010377185652,None,,,,,,,,,,,,,,,,,,,,,,produce,C_sing,130,239,1807.9336008774117,None,1807.9336008774117,None,1807.9336008774117,None,6,2.7794054211117327,1807.9336008774117,None,1810.7557419420918,None,1810.7557419420918,None,1811.284255022416,None,1811.284255022416,None,1811.284255022416,None,r,0.37325057794805616,1811.284255022416,None,sing3,001,2019_Oct_22_1549,ProdFawcett_Revision2019,3.2.4,60.03654002614148,
,,,,131,0,131,0,,,,,,,,,,,,,1814.9354839912849,None,,,,,,,,,,,,,,,,,,,,,,under,D_new,131,343,1812.2179280522978,None,1812.2179280522978,None,1812.2179280522978,None,1,1.8628041944466531,1812.2179280522978,None,1814.1351441289298,None,1814.1351441289298,None,1814.651964487275,None,1814.651964487275,None,1814.651964487275,None,n,0.23660244583152235,1814.651964487275,None,sing3,001,2019_Oct_22_1549,ProdFawcett_Revision2019,3.2.4,60.03654002614148,
,,,,132,0,132,0,,,,,,,,,,,,,1818.2196488233749,None,,,,,,,,,,,,,,,,,,,,,,review,D_new,132,263,1815.4524044921855,None,1815.4524044921855,None,1815.4524044921855,None,2,1.812103803618811,1815.4524044921855,None,1817.3195148127852,None,1817.3195148127852,None,1817.8363289511763,None,1817.8363289511763,None,1817.8363289511763,None,f,0.34833407402038574,1817.8363289511763,None,sing3,001,2019_Oct_22_1549,ProdFawcett_Revision2019,3.2.4,60.03654002614148,
,,,,133,0,133,0,,,,,,,,,,,,,1827.139190568938,None,,,,,,,,,,,,,,,,,,,,,,estate,B_aloud,133,119,1818.7374149371171,None,1818.7374149371171,None,1818.7374149371171,None,3,7.446541492710821,1818.7374149371171,None,1826.2290958036901,None,1826.2290958036901,None,1826.7566671714885,None,1826.7566671714885,None,1826.7566671714885,None,f,0.34743154782336205,1826.7566671714885,None,sing3,001,2019_Oct_22_1549,ProdFawcett_Revision2019,3.2.4,60.03654002614148,
,,,,134,0,134,0,,,,,,,,,,,,,1830.4567339435453,None,,,,,,,,,,,,,,,,,,,,,,crime,C_sing,134,78,1827.6559129618108,None,1827.6559129618108,None,1827.6559129618108,None,1,2.1037264505866915,1827.6559129618108,None,1829.8233738744166,None,1829.8233738744166,None,1830.3400598801672,None,1830.3400598801672,None,1830.3400598801672,None,n,0.07627715077251196,1830.3400598801672,None,sing3,001,2019_Oct_22_1549,ProdFawcett_Revision2019,3.2.4,60.03654002614148,
,,,,135,0,135,0,,,,,,,,,,,,,1835.4082864471711,None,,,,,,,,,,,,,,,,,,,,,,beginning,C_sing,135,19,1830.975457941764,None,1830.975457941764,None,1830.975457941764,None,6,3.5838909330777824,1830.975457941764,None,1834.6246974343667,None,1834.6246974343667,None,1835.141527744825,None,1835.141527744825,None,1835.141527744825,None,r,0.2260327503317967,1835.141527744825,None,sing3,001,2019_Oct_22_1549,ProdFawcett_Revision2019,3.2.4,60.03654002614148,
,,,,136,0,136,0,,,,,,,,,,,,,1838.675896982546,None,,,,,,,,,,,,,,,,,,,,,,route,A_silent,136,267,1835.9263651175424,None,1835.9263651175424,None,1835.9263651175424,None,4,1.816847197827883,1835.9263651175424,None,1837.8090830463916,None,1837.8090830463916,None,1838.3259512989316,None,1838.3259512989316,None,1838.3259512989316,None,f,0.30528369708918035,1838.3259512989316,None,sing3,001,2019_Oct_22_1549,ProdFawcett_Revision2019,3.2.4,60.03654002614148,
,,,,137,0,137,0,,,,,,,,,,,,,1842.9106579888612,None,,,,,,,,,,,,,,,,,,,,,,bicycle,A_silent,137,21,1839.1932388903806,None,1839.1932388903806,None,1839.1932388903806,None,1,2.821636620326899,1839.1932388903806,None,1842.0770101811504,None,1842.0770101811504,None,1842.5938728358597,None,1842.5938728358597,None,1842.5938728358597,None,n,0.27740179433021694,1842.5938728358597,None,sing3,001,2019_Oct_22_1549,ProdFawcett_Revision2019,3.2.4,60.03654002614148,
,,,,138,0,138,0,,,,,,,,,,,,,1846.645129919285,None,,,,,,,,,,,,,,,,,,,,,,course,B_aloud,138,74,1843.4284032655414,None,1843.4284032655414,None,1843.4284032655414,None,6,2.346416750107892,1843.4284032655414,None,1845.8178986937273,None,1845.8178986937273,None,1846.3450688696466,None,1846.3450688696466,None,1846.3450688696466,None,r,0.25350693019572645,1846.3450688696466,None,sing3,001,2019_Oct_22_1549,ProdFawcett_Revision2019,3.2.4,60.03654002614148,
,,,,139,0,139,0,,,,,,,,,,,,,1850.2627890796866,None,,,,,,,,,,,,,,,,,,,,,,escape,D_new,139,118,1847.1622248919448,None,1847.1622248919448,None,1847.1622248919448,None,3,2.260650633717887,1847.1622248919448,None,1849.479350591544,None,1849.479350591544,None,1849.996342311846,None,1849.996342311846,None,1849.996342311846,None,f,0.21798869757913053,1849.996342311846,None,sing3,001,2019_Oct_22_1549,ProdFawcett_Revision2019,3.2.4,60.03654002614148,
,,,,140,0,140,0,,,,,,,,,,,,,1855.2478840238182,None,,,,,,,,,,,,,,,,,,,,,,scene,A_silent,140,273,1850.779664485366,None,1850.779664485366,None,1850.779664485366,None,1,3.5948562225094065,1850.779664485366,None,1854.4307454176014,None,1854.4307454176014,None,1854.9476391723147,None,1854.9476391723147,None,1854.9476391723147,None,n,0.25927756226155907,1854.9476391723147,None,sing3,001,2019_Oct_22_1549,ProdFawcett_Revision2019,3.2.4,60.03654002614148,
,,,,141,0,141,0,,,,,,,,,,,,,1860.866201574332,None,,,,,,,,,,,,,,,,,,,,,,angle,C_sing,141,7,1855.7644701980753,None,1855.7644701980753,None,1855.7644701980753,None,6,4.065464563085698,1855.7644701980753,None,1859.8709773126757,None,1859.8709773126757,None,1860.3826226068195,None,1860.3826226068195,None,1860.3826226068195,None,r,0.43983256921637803,1860.3826226068195,None,sing3,001,2019_Oct_22_1549,ProdFawcett_Revision2019,3.2.4,60.03654002614148,
,,,,142,0,142,0,,,,,,,,,,,,,1863.9839131385088,None,,,,,,,,,,,,,,,,,,,,,,second,D_new,142,278,1861.3840497925412,None,1861.3840497925412,None,1861.3840497925412,None,6,1.7580106979003176,1861.3840497925412,None,1863.1889361852081,None,1863.1889361852081,None,1863.7168938169489,None,1863.7168938169489,None,1863.7168938169489,None,r,0.22542754153255373,1863.7168938169489,None,sing3,001,2019_Oct_22_1549,ProdFawcett_Revision2019,3.2.4,60.03654002614148,
,,,,143,0,143,0,,,,,,,,,,,,,1867.5197475040331,None,,,,,,,,,,,,,,,,,,,,,,story,D_new,143,306,1864.5003183099907,None,1864.5003183099907,None,1864.5003183099907,None,5,2.0810634632362053,1864.5003183099907,None,1866.6343894838355,None,1866.6343894838355,None,1867.1354535754072,None,1867.1354535754072,None,1867.1354535754072,None,f,0.3661121614277363,1867.1354535754072,None,sing3,001,2019_Oct_22_1549,ProdFawcett_Revision2019,3.2.4,60.03654002614148,
,,,,144,0,144,0,,,,,,,,,,,,,1871.2858647659887,None,,,,,,,,,,,,,,,,,,,,,,volume,C_sing,144,349,1868.0369301792234,None,1868.0369301792234,None,1868.0369301792234,None,6,1.9842191640054807,1868.0369301792234,None,1870.0854364547413,None,1870.0854364547413,None,1870.6023830797058,None,1870.6023830797058,None,1870.6023830797058,None,r,0.6508545231772587,1870.6023830797058,None,sing3,001,2019_Oct_22_1549,ProdFawcett_Revision2019,3.2.4,60.03654002614148,
,,,,145,0,145,0,,,,,,,,,,,,,1874.5368849284714,None,,,,,,,,,,,,,,,,,,,,,,sunset,D_new,145,315,1871.8040868078824,None,1871.8040868078824,None,1871.8040868078824,None,1,1.9932002640562132,1871.8040868078824,None,1873.841189904022,None,1873.841189904022,None,1874.3700653009582,None,1874.3700653009582,None,1874.3700653009582,None,n,0.13095027429517359,1874.3700653009582,None,sing3,001,2019_Oct_22_1549,ProdFawcett_Revision2019,3.2.4,60.03654002614148,
,,,,146,0,146,0,,,,,,,,,,,,,1878.038010287215,None,,,,,,,,,,,,,,,,,,,,,,strength,C_sing,146,310,1875.0551480225986,None,1875.0551480225986,None,1875.0551480225986,None,6,2.1262864964082837,1875.0551480225986,None,1877.227627565735,None,1877.227627565735,None,1877.7544571950566,None,1877.7544571950566,None,1877.7544571950566,None,r,0.2504056236939505,1877.7544571950566,None,sing3,001,2019_Oct_22_1549,ProdFawcett_Revision2019,3.2.4,60.03654002614148,
,,,,147,0,147,0,,,,,,,,,,,,,1881.4890445070341,None,,,,,,,,,,,,,,,,,,,,,,husband,D_new,147,156,1878.5550467916764,None,1878.5550467916764,None,1878.5550467916764,None,1,2.0099389845272526,1878.5550467916764,None,1880.6220492569264,None,1880.6220492569264,None,1881.138948920765,None,1881.138948920765,None,1881.138948920765,None,n,0.3061031858669594,1881.138948920765,None,sing3,001,2019_Oct_22_1549,ProdFawcett_Revision2019,3.2.4,60.03654002614148,
,,,,148,0,148,0,,,,,,,,,,,,,1885.2570386626758,None,,,,,,,,,,,,,,,,,,,,,,detective,D_new,148,92,1882.0080117085017,None,1882.0080117085017,None,1882.0080117085017,None,1,2.332422928418964,1882.0080117085017,None,1884.3898580557434,None,1884.3898580557434,None,1884.9066121708602,None,1884.9066121708602,None,1884.9066121708602,None,n,0.3137059275759384,1884.9066121708602,None,sing3,001,2019_Oct_22_1549,ProdFawcett_Revision2019,3.2.4,60.03654002614148,
,,,,149,0,149,0,,,,,,,,,,,,,1890.0749715666752,None,,,,,,,,,,,,,,,,,,,,,,sweet,D_new,149,319,1885.773528737598,None,1885.773528737598,None,1885.773528737598,None,1,3.326618708204478,1885.773528737598,None,1889.1580621374305,None,1889.1580621374305,None,1889.674726684112,None,1889.674726684112,None,1889.674726684112,None,n,0.3530793342506513,1889.674726684112,None,sing3,001,2019_Oct_22_1549,ProdFawcett_Revision2019,3.2.4,60.03654002614148,
,,,,150,0,150,0,,,,,,,,,,,,,1893.59270875738,None,,,,,,,,,,,,,,,,,,,,,,split,D_new,150,299,1890.592001229059,None,1890.592001229059,None,1890.592001229059,None,2,2.115961559000425,1890.592001229059,None,1892.7590214525117,None,1892.7590214525117,None,1893.2758480309276,None,1893.2758480309276,None,1893.2758480309276,None,f,0.27987736591603607,1893.2758480309276,None,sing3,001,2019_Oct_22_1549,ProdFawcett_Revision2019,3.2.4,60.03654002614148,
,,,,151,0,151,0,,,,,,,,,,,,,1900.04462839826,None,,,,,,,,,,,,,,,,,,,,,,prime,D_new,151,235,1894.1098656193353,None,1894.1098656193353,None,1894.1098656193353,None,4,4.142355319811031,1894.1098656193353,None,1898.3106752183521,None,1898.3106752183521,None,1898.8276436134474,None,1898.8276436134474,None,1898.8276436134474,None,f,1.183851622394286,1898.8276436134474,None,sing3,001,2019_Oct_22_1549,ProdFawcett_Revision2019,3.2.4,60.03654002614148,
,,,,152,0,152,0,,,,,,,,,,,,,1903.2623306635069,None,,,,,,,,,,,,,,,,,,,,,,career,D_new,152,42,1900.5616561946226,None,1900.5616561946226,None,1900.5616561946226,None,6,1.9456456530606374,1900.5616561946226,None,1902.5500465101795,None,1902.5500465101795,None,1903.0787981286412,None,1903.0787981286412,None,1903.0787981286412,None,r,0.14096327731385827,1903.0787981286412,None,sing3,001,2019_Oct_22_1549,ProdFawcett_Revision2019,3.2.4,60.03654002614148,
