StudyTrials.thisRepN,StudyTrials.thisTrialN,StudyTrials.thisN,StudyTrials.thisIndex,TestTrials.thisRepN,TestTrials.thisTrialN,TestTrials.thisN,TestTrials.thisIndex,textWelcome.started,textWelcome.stopped,keyWelcome.keys,keyWelcome.rt,keyWelcome.started,keyWelcome.stopped,textReady.started,textReady.stopped,keyReady.keys,keyReady.rt,keyReady.started,keyReady.stopped,polyback_2.started,polyback_2.stopped,studyPic,studyWord,studyType,studyN,studyOrder,polyback_3.started,polyback_3.stopped,studyPicChoice.started,studyPicChoice.stopped,polyback_4.started,polyback_4.stopped,polyback.started,polyback.stopped,studyWords.started,studyWords.stopped,getResearcher.started,getResearcher.stopped,kPress2.keys,kPress2.rt,kPress2.started,kPress2.stopped,testWord,testType,testN,testOrder,polyback_5.started,polyback_5.stopped,testWords.started,testWords.stopped,textScale.started,textScale.stopped,keyConf.keys,keyConf.rt,keyConf.started,keyConf.stopped,polyback_6.started,polyback_6.stopped,studyWords_2.started,studyWords_2.stopped,polyback_7.started,polyback_7.stopped,testWords_2.started,testWords_2.stopped,textScale_2.started,textScale_2.stopped,keyRKN.keys,keyRKN.rt,keyRKN.started,keyRKN.stopped,participant,session,date,expName,psychopyVersion,frameRate,
,,,,,,,,20.904993157921126,None,space,322.04748211731203,20.904993157921126,None,,,,,,,,,,,,,,,,,,,,,,,,,,,,,,,,,,,,,,,,,,,,,,,,,,,,,,,,,,sing8,001,2019_Oct_26_1316,ProdFawcett_Revision2019,3.2.4,59.98175587585188,
,,,,,,,,,,,,,,342.98269795361557,None,space,40.087449461978395,342.98269795361557,None,,,,,,,,,,,,,,,,,,,,,,,,,,,,,,,,,,,,,,,,,,,,,,,,,,,,sing8,001,2019_Oct_26_1316,ProdFawcett_Revision2019,3.2.4,59.98175587585188,
0,0,0,0,,,,,,,,,,,,,,,,,387.8799262922257,None,materials/singPic.jpg,title,C_sing,0,331,384.27859208808513,None,384.27859208808513,None,385.1313342041394,None,385.3957420538645,None,385.3957420538645,None,,,,,,,,,,,,,,,,,,,,,,,,,,,,,,,,,,,sing8,001,2019_Oct_26_1316,ProdFawcett_Revision2019,3.2.4,59.98175587585188,
1,0,1,0,,,,,,,,,,,,,,,,,392.1479016607627,None,materials/speakPic.jpg,motion,B_aloud,1,194,388.4816405423917,None,388.4816405423917,None,389.3988328046398,None,389.65095882315654,None,389.65095882315654,None,,,,,,,,,,,,,,,,,,,,,,,,,,,,,,,,,,,sing8,001,2019_Oct_26_1316,ProdFawcett_Revision2019,3.2.4,59.98175587585188,
2,0,2,0,,,,,,,,,,,,,,,,,396.4159569571493,None,materials/speakPic.jpg,meeting,B_aloud,2,187,392.71997356473,None,392.71997356473,None,393.6652976301557,None,393.93170367606217,None,393.93170367606217,None,,,,,,,,,,,,,,,,,,,,,,,,,,,,,,,,,,,sing8,001,2019_Oct_26_1316,ProdFawcett_Revision2019,3.2.4,59.98175587585188,
3,0,3,0,,,,,,,,,,,,,,,,,400.6839251726051,None,materials/readPic.jpg,candidate,A_silent,3,39,397.0170868321147,None,397.0170868321147,None,397.93330254399916,None,398.1996983268182,None,398.1996983268182,None,,,,,,,,,,,,,,,,,,,,,,,,,,,,,,,,,,,sing8,001,2019_Oct_26_1316,ProdFawcett_Revision2019,3.2.4,59.98175587585188,
4,0,4,0,,,,,,,,,,,,,,,,,404.95195994278765,None,materials/readPic.jpg,heavy,A_silent,4,151,401.27007184177637,None,401.27007184177637,None,402.20129128568806,None,402.46773714001756,None,402.46773714001756,None,,,,,,,,,,,,,,,,,,,,,,,,,,,,,,,,,,,sing8,001,2019_Oct_26_1316,ProdFawcett_Revision2019,3.2.4,59.98175587585188,
5,0,5,0,,,,,,,,,,,,,,,,,409.2199057660182,None,materials/singPic.jpg,thing,C_sing,5,328,405.569856627495,None,405.569856627495,None,406.4723471418838,None,406.735706910491,None,406.735706910491,None,,,,,,,,,,,,,,,,,,,,,,,,,,,,,,,,,,,sing8,001,2019_Oct_26_1316,ProdFawcett_Revision2019,3.2.4,59.98175587585188,
6,0,6,0,,,,,,,,,,,,,,,,,413.48787957953755,None,materials/speakPic.jpg,platform,B_aloud,6,224,409.8107933694264,None,409.8107933694264,None,410.737246065808,None,411.00367325992556,None,411.00367325992556,None,,,,,,,,,,,,,,,,,,,,,,,,,,,,,,,,,,,sing8,001,2019_Oct_26_1316,ProdFawcett_Revision2019,3.2.4,59.98175587585188,
7,0,7,0,,,,,,,,,,,,,,,,,417.7559326988994,None,materials/singPic.jpg,attack,C_sing,7,13,414.1056537289405,None,414.1056537289405,None,415.0052186353132,None,415.27165515953675,None,415.27165515953675,None,,,,,,,,,,,,,,,,,,,,,,,,,,,,,,,,,,,sing8,001,2019_Oct_26_1316,ProdFawcett_Revision2019,3.2.4,59.98175587585188,
8,0,8,0,,,,,,,,,,,,,,,,,422.0238747900876,None,materials/speakPic.jpg,silence,B_aloud,8,288,418.3572995583818,None,418.3572995583818,None,419.27401536356774,None,419.53966411645524,None,419.53966411645524,None,,,,,,,,,,,,,,,,,,,,,,,,,,,,,,,,,,,sing8,001,2019_Oct_26_1316,ProdFawcett_Revision2019,3.2.4,59.98175587585188,
9,0,9,0,,,,,,,,,,,,,,,,,426.29186042171204,None,materials/speakPic.jpg,trend,B_aloud,9,340,422.59688156994525,None,422.59688156994525,None,423.54121571188443,None,423.80770417366875,None,423.80770417366875,None,,,,,,,,,,,,,,,,,,,,,,,,,,,,,,,,,,,sing8,001,2019_Oct_26_1316,ProdFawcett_Revision2019,3.2.4,59.98175587585188,
10,0,10,0,,,,,,,,,,,,,,,,,430.5598864837957,None,materials/speakPic.jpg,business,B_aloud,10,38,426.85837625179556,None,426.85837625179556,None,427.8093982086284,None,428.07565124091343,None,428.07565124091343,None,,,,,,,,,,,,,,,,,,,,,,,,,,,,,,,,,,,sing8,001,2019_Oct_26_1316,ProdFawcett_Revision2019,3.2.4,59.98175587585188,
11,0,11,0,,,,,,,,,,,,,,,,,434.8278310630121,None,materials/singPic.jpg,oxygen,C_sing,11,209,431.2276146047225,None,431.2276146047225,None,432.0772323816782,None,432.343617590348,None,432.343617590348,None,,,,,,,,,,,,,,,,,,,,,,,,,,,,,,,,,,,sing8,001,2019_Oct_26_1316,ProdFawcett_Revision2019,3.2.4,59.98175587585188,
12,0,12,0,,,,,,,,,,,,,,,,,439.0958232257399,None,materials/speakPic.jpg,payment,B_aloud,12,215,435.42927069726284,None,435.42927069726284,None,436.3452177022991,None,436.61156248056795,None,436.61156248056795,None,,,,,,,,,,,,,,,,,,,,,,,,,,,,,,,,,,,sing8,001,2019_Oct_26_1316,ProdFawcett_Revision2019,3.2.4,59.98175587585188,
13,0,13,0,,,,,,,,,,,,,,,,,443.3638172544597,None,materials/speakPic.jpg,community,B_aloud,13,63,439.66898830627906,None,439.66898830627906,None,440.6131722336286,None,440.8795941407152,None,440.8795941407152,None,,,,,,,,,,,,,,,,,,,,,,,,,,,,,,,,,,,sing8,001,2019_Oct_26_1316,ProdFawcett_Revision2019,3.2.4,59.98175587585188,
14,0,14,0,,,,,,,,,,,,,,,,,447.63182092431816,None,materials/readPic.jpg,travel,A_silent,14,338,443.96483268024167,None,443.96483268024167,None,444.88111836786265,None,445.1475741742761,None,445.1475741742761,None,,,,,,,,,,,,,,,,,,,,,,,,,,,,,,,,,,,sing8,001,2019_Oct_26_1316,ProdFawcett_Revision2019,3.2.4,59.98175587585188,
15,0,15,0,,,,,,,,,,,,,,,,,451.8997714125726,None,materials/speakPic.jpg,brilliant,B_aloud,15,30,448.23303539218614,None,448.23303539218614,None,449.1491556260444,None,449.4155591839226,None,449.4155591839226,None,,,,,,,,,,,,,,,,,,,,,,,,,,,,,,,,,,,sing8,001,2019_Oct_26_1316,ProdFawcett_Revision2019,3.2.4,59.98175587585188,
16,0,16,0,,,,,,,,,,,,,,,,,456.1677853455185,None,materials/singPic.jpg,staff,C_sing,16,301,452.51768147043185,None,452.51768147043185,None,453.4171163774445,None,453.68356005474925,None,453.68356005474925,None,,,,,,,,,,,,,,,,,,,,,,,,,,,,,,,,,,,sing8,001,2019_Oct_26_1316,ProdFawcett_Revision2019,3.2.4,59.98175587585188,
17,0,17,0,,,,,,,,,,,,,,,,,460.43575636003516,None,materials/singPic.jpg,primary,C_sing,17,234,456.7509600671765,None,456.7509600671765,None,457.68518815698917,None,457.9515204951167,None,457.9515204951167,None,,,,,,,,,,,,,,,,,,,,,,,,,,,,,,,,,,,sing8,001,2019_Oct_26_1316,ProdFawcett_Revision2019,3.2.4,59.98175587585188,
18,0,18,0,,,,,,,,,,,,,,,,,464.7037590968539,None,materials/singPic.jpg,executive,C_sing,18,122,461.0189712010906,None,461.0189712010906,None,461.95310132487793,None,462.21955775332754,None,462.21955775332754,None,,,,,,,,,,,,,,,,,,,,,,,,,,,,,,,,,,,sing8,001,2019_Oct_26_1316,ProdFawcett_Revision2019,3.2.4,59.98175587585188,
19,0,19,0,,,,,,,,,,,,,,,,,468.9717316663591,None,materials/singPic.jpg,territory,C_sing,19,324,465.2882770417491,None,465.2882770417491,None,466.2211059277179,None,466.4875384089246,None,466.4875384089246,None,,,,,,,,,,,,,,,,,,,,,,,,,,,,,,,,,,,sing8,001,2019_Oct_26_1316,ProdFawcett_Revision2019,3.2.4,59.98175587585188,
20,0,20,0,,,,,,,,,,,,,,,,,473.2397319151496,None,materials/singPic.jpg,height,C_sing,20,152,469.55495117249666,None,469.55495117249666,None,470.4891207936744,None,470.7555927723006,None,470.7555927723006,None,,,,,,,,,,,,,,,,,,,,,,,,,,,,,,,,,,,sing8,001,2019_Oct_26_1316,ProdFawcett_Revision2019,3.2.4,59.98175587585188,
21,0,21,0,,,,,,,,,,,,,,,,,477.50770852770074,None,materials/singPic.jpg,victory,C_sing,21,346,473.8153343285376,None,473.8153343285376,None,474.75712757356814,None,475.0234804378997,None,475.0234804378997,None,,,,,,,,,,,,,,,,,,,,,,,,,,,,,,,,,,,sing8,001,2019_Oct_26_1316,ProdFawcett_Revision2019,3.2.4,59.98175587585188,
22,0,22,0,,,,,,,,,,,,,,,,,481.77571872863336,None,materials/speakPic.jpg,second,B_aloud,22,278,478.1426491260936,None,478.1426491260936,None,479.0251523916086,None,479.29148721776437,None,479.29148721776437,None,,,,,,,,,,,,,,,,,,,,,,,,,,,,,,,,,,,sing8,001,2019_Oct_26_1316,ProdFawcett_Revision2019,3.2.4,59.98175587585188,
23,0,23,0,,,,,,,,,,,,,,,,,486.04367761398316,None,materials/readPic.jpg,voice,A_silent,23,348,482.3800562915858,None,482.3800562915858,None,483.2930083349056,None,483.5594967966608,None,483.5594967966608,None,,,,,,,,,,,,,,,,,,,,,,,,,,,,,,,,,,,sing8,001,2019_Oct_26_1316,ProdFawcett_Revision2019,3.2.4,59.98175587585188,
24,0,24,0,,,,,,,,,,,,,,,,,490.31168159481604,None,materials/speakPic.jpg,testimony,B_aloud,24,325,486.6345347390743,None,486.6345347390743,None,487.56103906201315,None,487.82747807426495,None,487.82747807426495,None,,,,,,,,,,,,,,,,,,,,,,,,,,,,,,,,,,,sing8,001,2019_Oct_26_1316,ProdFawcett_Revision2019,3.2.4,59.98175587585188,
25,0,25,0,,,,,,,,,,,,,,,,,494.5796672264696,None,materials/speakPic.jpg,tough,B_aloud,25,333,490.8798043789284,None,490.8798043789284,None,491.82907041115686,None,492.0954450457066,None,492.0954450457066,None,,,,,,,,,,,,,,,,,,,,,,,,,,,,,,,,,,,sing8,001,2019_Oct_26_1316,ProdFawcett_Revision2019,3.2.4,59.98175587585188,
26,0,26,0,,,,,,,,,,,,,,,,,498.8476537911338,None,materials/readPic.jpg,addition,A_silent,26,2,495.17116595135303,None,495.17116595135303,None,496.097017167398,None,496.3634443615156,None,496.3634443615156,None,,,,,,,,,,,,,,,,,,,,,,,,,,,,,,,,,,,sing8,001,2019_Oct_26_1316,ProdFawcett_Revision2019,3.2.4,59.98175587585188,
27,0,27,0,,,,,,,,,,,,,,,,,503.11564408784034,None,materials/readPic.jpg,junior,A_silent,27,167,499.43085805809824,None,499.43085805809824,None,500.364680599625,None,500.6335958201089,None,500.6335958201089,None,,,,,,,,,,,,,,,,,,,,,,,,,,,,,,,,,,,sing8,001,2019_Oct_26_1316,ProdFawcett_Revision2019,3.2.4,59.98175587585188,
28,0,28,0,,,,,,,,,,,,,,,,,507.3836169683491,None,materials/speakPic.jpg,trail,B_aloud,28,336,503.70222429558635,None,503.70222429558635,None,504.6331778316817,None,504.89940225167084,None,504.89940225167084,None,,,,,,,,,,,,,,,,,,,,,,,,,,,,,,,,,,,sing8,001,2019_Oct_26_1316,ProdFawcett_Revision2019,3.2.4,59.98175587585188,
29,0,29,0,,,,,,,,,,,,,,,,,511.651606954023,None,materials/readPic.jpg,entrance,A_silent,29,115,508.0012940847082,None,508.0012940847082,None,508.90100236362196,None,509.16740094544366,None,509.16740094544366,None,,,,,,,,,,,,,,,,,,,,,,,,,,,,,,,,,,,sing8,001,2019_Oct_26_1316,ProdFawcett_Revision2019,3.2.4,59.98175587585188,
30,0,30,0,,,,,,,,,,,,,,,,,515.9195994277543,None,materials/singPic.jpg,turkey,C_sing,30,342,512.2717618336901,None,512.2717618336901,None,513.1689926603285,None,513.4353949741926,None,513.4353949741926,None,,,,,,,,,,,,,,,,,,,,,,,,,,,,,,,,,,,sing8,001,2019_Oct_26_1316,ProdFawcett_Revision2019,3.2.4,59.98175587585188,
31,0,31,0,,,,,,,,,,,,,,,,,520.1875947005174,None,materials/speakPic.jpg,recall,B_aloud,31,255,516.5108036325255,None,516.5108036325255,None,517.436942526605,None,517.7033865149133,None,517.7033865149133,None,,,,,,,,,,,,,,,,,,,,,,,,,,,,,,,,,,,sing8,001,2019_Oct_26_1316,ProdFawcett_Revision2019,3.2.4,59.98175587585188,
32,0,32,0,,,,,,,,,,,,,,,,,524.4555688250402,None,materials/speakPic.jpg,working,B_aloud,32,357,520.7568367854692,None,520.7568367854692,None,521.7049651676207,None,521.9713702805166,None,521.9713702805166,None,,,,,,,,,,,,,,,,,,,,,,,,,,,,,,,,,,,sing8,001,2019_Oct_26_1316,ProdFawcett_Revision2019,3.2.4,59.98175587585188,
33,0,33,0,,,,,,,,,,,,,,,,,528.7235594327212,None,materials/singPic.jpg,short,C_sing,33,285,525.0734340983909,None,525.0734340983909,None,525.9728941966896,None,526.2393425390474,None,526.2393425390474,None,,,,,,,,,,,,,,,,,,,,,,,,,,,,,,,,,,,sing8,001,2019_Oct_26_1316,ProdFawcett_Revision2019,3.2.4,59.98175587585188,
34,0,34,0,,,,,,,,,,,,,,,,,532.9915687006433,None,materials/singPic.jpg,quick,C_sing,34,248,529.3125209927384,None,529.3125209927384,None,530.240912483685,None,530.5087236424733,None,530.5087236424733,None,,,,,,,,,,,,,,,,,,,,,,,,,,,,,,,,,,,sing8,001,2019_Oct_26_1316,ProdFawcett_Revision2019,3.2.4,59.98175587585188,
35,0,35,0,,,,,,,,,,,,,,,,,537.259527585993,None,materials/singPic.jpg,profession,C_sing,35,241,533.5747931828082,None,533.5747931828082,None,534.5089755551307,None,534.7753312185232,None,534.7753312185232,None,,,,,,,,,,,,,,,,,,,,,,,,,,,,,,,,,,,sing8,001,2019_Oct_26_1316,ProdFawcett_Revision2019,3.2.4,59.98175587585188,
36,0,36,0,,,,,,,,,,,,,,,,,541.5275247247773,None,materials/readPic.jpg,breath,A_silent,36,27,537.8943891895178,None,537.8943891895178,None,538.7768964981078,None,539.043359768606,None,539.043359768606,None,,,,,,,,,,,,,,,,,,,,,,,,,,,,,,,,,,,sing8,001,2019_Oct_26_1316,ProdFawcett_Revision2019,3.2.4,59.98175587585188,
37,0,37,0,,,,,,,,,,,,,,,,,545.7955184424936,None,materials/speakPic.jpg,series,B_aloud,37,279,542.1287752690259,None,542.1287752690259,None,543.0452267214132,None,543.3113009267836,None,543.3113009267836,None,,,,,,,,,,,,,,,,,,,,,,,,,,,,,,,,,,,sing8,001,2019_Oct_26_1316,ProdFawcett_Revision2019,3.2.4,59.98175587585188,
38,0,38,0,,,,,,,,,,,,,,,,,550.063520868338,None,materials/speakPic.jpg,clean,B_aloud,38,51,546.3679025937745,None,546.3679025937745,None,547.3128842445731,None,547.579285314423,None,547.579285314423,None,,,,,,,,,,,,,,,,,,,,,,,,,,,,,,,,,,,sing8,001,2019_Oct_26_1316,ProdFawcett_Revision2019,3.2.4,59.98175587585188,
39,0,39,0,,,,,,,,,,,,,,,,,554.3314965478785,None,materials/readPic.jpg,strain,A_silent,39,308,550.6647247620858,None,550.6647247620858,None,551.5808882254059,None,551.8472725010943,None,551.8472725010943,None,,,,,,,,,,,,,,,,,,,,,,,,,,,,,,,,,,,sing8,001,2019_Oct_26_1316,ProdFawcett_Revision2019,3.2.4,59.98175587585188,
40,0,40,0,,,,,,,,,,,,,,,,,558.5994815574959,None,materials/speakPic.jpg,hearing,B_aloud,40,150,554.9191176836612,None,554.9191176836612,None,555.8488651489606,None,556.1152652858291,None,556.1152652858291,None,,,,,,,,,,,,,,,,,,,,,,,,,,,,,,,,,,,sing8,001,2019_Oct_26_1316,ProdFawcett_Revision2019,3.2.4,59.98175587585188,
41,0,41,0,,,,,,,,,,,,,,,,,562.8674584810506,None,materials/readPic.jpg,novel,A_silent,41,202,559.2049723207019,None,559.2049723207019,None,560.1168520246283,None,560.3832565155171,None,560.3832565155171,None,,,,,,,,,,,,,,,,,,,,,,,,,,,,,,,,,,,sing8,001,2019_Oct_26_1316,ProdFawcett_Revision2019,3.2.4,59.98175587585188,
42,0,42,0,,,,,,,,,,,,,,,,,567.1354745910212,None,materials/speakPic.jpg,theme,B_aloud,42,326,563.4571978602908,None,563.4571978602908,None,564.3848115320143,None,564.6512489892484,None,564.6512489892484,None,,,,,,,,,,,,,,,,,,,,,,,,,,,,,,,,,,,sing8,001,2019_Oct_26_1316,ProdFawcett_Revision2019,3.2.4,59.98175587585188,
43,0,43,0,,,,,,,,,,,,,,,,,571.4034589786606,None,materials/readPic.jpg,personnel,A_silent,43,219,567.7369027181703,None,567.7369027181703,None,568.6528332400485,None,568.919235242909,None,568.919235242909,None,,,,,,,,,,,,,,,,,,,,,,,,,,,,,,,,,,,sing8,001,2019_Oct_26_1316,ProdFawcett_Revision2019,3.2.4,59.98175587585188,
44,0,44,0,,,,,,,,,,,,,,,,,575.6714439883071,None,materials/readPic.jpg,owner,A_silent,44,208,571.9909339428996,None,571.9909339428996,None,572.920793680416,None,573.1872155875026,None,573.1872155875026,None,,,,,,,,,,,,,,,,,,,,,,,,,,,,,,,,,,,sing8,001,2019_Oct_26_1316,ProdFawcett_Revision2019,3.2.4,59.98175587585188,
45,0,45,0,,,,,,,,,,,,,,,,,579.9394302419678,None,materials/readPic.jpg,individual,A_silent,45,160,576.2546634944447,None,576.2546634944447,None,577.1889127324685,None,577.4552273434238,None,577.4552273434238,None,,,,,,,,,,,,,,,,,,,,,,,,,,,,,,,,,,,sing8,001,2019_Oct_26_1316,ProdFawcett_Revision2019,3.2.4,59.98175587585188,
46,0,46,0,,,,,,,,,,,,,,,,,584.2074199166673,None,materials/singPic.jpg,bicycle,C_sing,46,21,580.5907454749104,None,580.5907454749104,None,581.4568635317555,None,581.7233159171592,None,581.7233159171592,None,,,,,,,,,,,,,,,,,,,,,,,,,,,,,,,,,,,sing8,001,2019_Oct_26_1316,ProdFawcett_Revision2019,3.2.4,59.98175587585188,
47,0,47,0,,,,,,,,,,,,,,,,,588.4755203085078,None,materials/singPic.jpg,burden,C_sing,47,36,584.7921194874798,None,584.7921194874798,None,585.7249011009408,None,585.991179946519,None,585.991179946519,None,,,,,,,,,,,,,,,,,,,,,,,,,,,,,,,,,,,sing8,001,2019_Oct_26_1316,ProdFawcett_Revision2019,3.2.4,59.98175587585188,
48,0,48,0,,,,,,,,,,,,,,,,,592.7433874479029,None,materials/readPic.jpg,mayor,A_silent,48,183,589.0804559308453,None,589.0804559308453,None,589.9928043167165,None,590.2591680661717,None,590.2591680661717,None,,,,,,,,,,,,,,,,,,,,,,,,,,,,,,,,,,,sing8,001,2019_Oct_26_1316,ProdFawcett_Revision2019,3.2.4,59.98175587585188,
49,0,49,0,,,,,,,,,,,,,,,,,597.0113898737472,None,materials/singPic.jpg,carry,C_sing,49,43,593.3614268831152,None,593.3614268831152,None,594.2607003794401,None,594.5271409467096,None,594.5271409467096,None,,,,,,,,,,,,,,,,,,,,,,,,,,,,,,,,,,,sing8,001,2019_Oct_26_1316,ProdFawcett_Revision2019,3.2.4,59.98175587585188,
50,0,50,0,,,,,,,,,,,,,,,,,601.2793661752949,None,materials/readPic.jpg,write,A_silent,50,358,597.6129001057416,None,597.6129001057416,None,598.5288029483054,None,598.7951545686519,None,598.7951545686519,None,,,,,,,,,,,,,,,,,,,,,,,,,,,,,,,,,,,sing8,001,2019_Oct_26_1316,ProdFawcett_Revision2019,3.2.4,59.98175587585188,
51,0,51,0,,,,,,,,,,,,,,,,,605.5473570939794,None,materials/readPic.jpg,watch,A_silent,51,351,601.8696681594884,None,601.8696681594884,None,602.796675063757,None,603.0631274491607,None,603.0631274491607,None,,,,,,,,,,,,,,,,,,,,,,,,,,,,,,,,,,,sing8,001,2019_Oct_26_1316,ProdFawcett_Revision2019,3.2.4,59.98175587585188,
52,0,52,0,,,,,,,,,,,,,,,,,609.8154556198278,None,materials/readPic.jpg,cover,A_silent,52,77,606.1305806431628,None,606.1305806431628,None,607.0649558375299,None,607.3311454251525,None,607.3311454251525,None,,,,,,,,,,,,,,,,,,,,,,,,,,,,,,,,,,,sing8,001,2019_Oct_26_1316,ProdFawcett_Revision2019,3.2.4,59.98175587585188,
53,0,53,0,,,,,,,,,,,,,,,,,614.0833529265365,None,materials/singPic.jpg,track,C_sing,53,334,610.4666545375367,None,610.4666545375367,None,611.3327411830542,None,611.5991326117946,None,611.5991326117946,None,,,,,,,,,,,,,,,,,,,,,,,,,,,,,,,,,,,sing8,001,2019_Oct_26_1316,ProdFawcett_Revision2019,3.2.4,59.98175587585188,
54,0,54,0,,,,,,,,,,,,,,,,,618.3513077688694,None,materials/readPic.jpg,minor,A_silent,54,191,614.6849135410739,None,614.6849135410739,None,615.6006960253872,None,615.8670998942689,None,615.8670998942689,None,,,,,,,,,,,,,,,,,,,,,,,,,,,,,,,,,,,sing8,001,2019_Oct_26_1316,ProdFawcett_Revision2019,3.2.4,59.98175587585188,
55,0,55,0,,,,,,,,,,,,,,,,,622.6193201467977,None,materials/speakPic.jpg,signal,B_aloud,55,287,618.9531153200369,None,618.9531153200369,None,619.8687634508824,None,620.1351051191159,None,620.1351051191159,None,,,,,,,,,,,,,,,,,,,,,,,,,,,,,,,,,,,sing8,001,2019_Oct_26_1316,ProdFawcett_Revision2019,3.2.4,59.98175587585188,
56,0,56,0,,,,,,,,,,,,,,,,,626.8872961373418,None,materials/readPic.jpg,express,A_silent,56,124,623.2228857995942,None,623.2228857995942,None,624.136699322029,None,624.4030879517377,None,624.4030879517377,None,,,,,,,,,,,,,,,,,,,,,,,,,,,,,,,,,,,sing8,001,2019_Oct_26_1316,ProdFawcett_Revision2019,3.2.4,59.98175587585188,
57,0,57,0,,,,,,,,,,,,,,,,,631.1552727498929,None,materials/speakPic.jpg,principal,B_aloud,57,236,627.4902998071921,None,627.4902998071921,None,628.4046243080229,None,628.6710692293418,None,628.6710692293418,None,,,,,,,,,,,,,,,,,,,,,,,,,,,,,,,,,,,sing8,001,2019_Oct_26_1316,ProdFawcett_Revision2019,3.2.4,59.98175587585188,
58,0,58,0,,,,,,,,,,,,,,,,,635.42326397961,None,materials/speakPic.jpg,surface,B_aloud,58,316,631.7247294271365,None,631.7247294271365,None,632.6726758723671,None,632.9390853393124,None,632.9390853393124,None,,,,,,,,,,,,,,,,,,,,,,,,,,,,,,,,,,,sing8,001,2019_Oct_26_1316,ProdFawcett_Revision2019,3.2.4,59.98175587585188,
59,0,59,0,,,,,,,,,,,,,,,,,639.6912611183652,None,materials/readPic.jpg,afternoon,A_silent,59,3,636.0270753249933,None,636.0270753249933,None,636.940754182986,None,637.2070681719342,None,637.2070681719342,None,,,,,,,,,,,,,,,,,,,,,,,,,,,,,,,,,,,sing8,001,2019_Oct_26_1316,ProdFawcett_Revision2019,3.2.4,59.98175587585188,
60,0,60,0,,,,,,,,,,,,,,,,,643.9592563911283,None,materials/readPic.jpg,running,A_silent,60,268,640.2744946196326,None,640.2744946196326,None,641.2088029483275,None,641.4750385644147,None,641.4750385644147,None,,,,,,,,,,,,,,,,,,,,,,,,,,,,,,,,,,,sing8,001,2019_Oct_26_1316,ProdFawcett_Revision2019,3.2.4,59.98175587585188,
61,0,61,0,,,,,,,,,,,,,,,,,648.2272466878057,None,materials/speakPic.jpg,master,B_aloud,61,180,644.546210424829,None,644.546210424829,None,645.4766081980488,None,645.7430285501177,None,645.7430285501177,None,,,,,,,,,,,,,,,,,,,,,,,,,,,,,,,,,,,sing8,001,2019_Oct_26_1316,ProdFawcett_Revision2019,3.2.4,59.98175587585188,
62,0,62,0,,,,,,,,,,,,,,,,,652.4953641848697,None,materials/singPic.jpg,alert,C_sing,62,6,648.8494893325842,None,648.8494893325842,None,649.7446143559064,None,650.0109952105558,None,650.0109952105558,None,,,,,,,,,,,,,,,,,,,,,,,,,,,,,,,,,,,sing8,001,2019_Oct_26_1316,ProdFawcett_Revision2019,3.2.4,59.98175587585188,
63,0,63,0,,,,,,,,,,,,,,,,,656.763209865021,None,materials/singPic.jpg,equipment,C_sing,63,116,653.0859818374156,None,653.0859818374156,None,654.0126161597436,None,654.2793882565165,None,654.2793882565165,None,,,,,,,,,,,,,,,,,,,,,,,,,,,,,,,,,,,sing8,001,2019_Oct_26_1316,ProdFawcett_Revision2019,3.2.4,59.98175587585188,
64,0,64,0,,,,,,,,,,,,,,,,,661.0312104248442,None,materials/speakPic.jpg,property,B_aloud,64,242,657.3522665920318,None,657.3522665920318,None,658.2805526528682,None,658.5469876220741,None,658.5469876220741,None,,,,,,,,,,,,,,,,,,,,,,,,,,,,,,,,,,,sing8,001,2019_Oct_26_1316,ProdFawcett_Revision2019,3.2.4,59.98175587585188,
65,0,65,0,,,,,,,,,,,,,,,,,665.2991755302646,None,materials/singPic.jpg,citizen,C_sing,65,50,661.6404916962201,None,661.6404916962201,None,662.5486720159242,None,662.8161858555686,None,662.8161858555686,None,,,,,,,,,,,,,,,,,,,,,,,,,,,,,,,,,,,sing8,001,2019_Oct_26_1316,ProdFawcett_Revision2019,3.2.4,59.98175587585188,
66,0,66,0,,,,,,,,,,,,,,,,,669.5671729800233,None,materials/speakPic.jpg,space,B_aloud,66,297,665.9033084530674,None,665.9033084530674,None,666.816600422957,None,667.0829731915146,None,667.0829731915146,None,,,,,,,,,,,,,,,,,,,,,,,,,,,,,,,,,,,sing8,001,2019_Oct_26_1316,ProdFawcett_Revision2019,3.2.4,59.98175587585188,
67,0,67,0,,,,,,,,,,,,,,,,,673.8352391615335,None,materials/singPic.jpg,graduate,C_sing,67,141,670.1849636126135,None,670.1849636126135,None,671.0845537102723,None,671.3509482490481,None,671.3509482490481,None,,,,,,,,,,,,,,,,,,,,,,,,,,,,,,,,,,,sing8,001,2019_Oct_26_1316,ProdFawcett_Revision2019,3.2.4,59.98175587585188,
68,0,68,0,,,,,,,,,,,,,,,,,678.1031311811821,None,materials/readPic.jpg,season,A_silent,68,277,674.436800398078,None,674.436800398078,None,675.3525041985558,None,675.6189537849277,None,675.6189537849277,None,,,,,,,,,,,,,,,,,,,,,,,,,,,,,,,,,,,sing8,001,2019_Oct_26_1316,ProdFawcett_Revision2019,3.2.4,59.98175587585188,
69,0,69,0,,,,,,,,,,,,,,,,,682.3711507121916,None,materials/readPic.jpg,light,A_silent,69,171,678.6863964048098,None,678.6863964048098,None,679.6205249735794,None,679.886937550531,None,679.886937550531,None,,,,,,,,,,,,,,,,,,,,,,,,,,,,,,,,,,,sing8,001,2019_Oct_26_1316,ProdFawcett_Revision2019,3.2.4,59.98175587585188,
70,0,70,0,,,,,,,,,,,,,,,,,686.6391151956341,None,materials/singPic.jpg,congress,C_sing,70,67,682.9891326118086,None,682.9891326118086,None,683.8885588107223,None,684.1549206941563,None,684.1549206941563,None,,,,,,,,,,,,,,,,,,,,,,,,,,,,,,,,,,,sing8,001,2019_Oct_26_1316,ProdFawcett_Revision2019,3.2.4,59.98175587585188,
71,0,71,0,,,,,,,,,,,,,,,,,690.9072457548173,None,materials/readPic.jpg,agreement,A_silent,71,5,687.2425010885054,None,687.2425010885054,None,688.1565189401153,None,688.4228867326165,None,688.4228867326165,None,,,,,,,,,,,,,,,,,,,,,,,,,,,,,,,,,,,sing8,001,2019_Oct_26_1316,ProdFawcett_Revision2019,3.2.4,59.98175587585188,
72,0,72,0,,,,,,,,,,,,,,,,,695.1752556447173,None,materials/readPic.jpg,crowd,A_silent,72,81,691.4904111463693,None,691.4904111463693,None,692.4244896435994,None,692.6908966225164,None,692.6908966225164,None,,,,,,,,,,,,,,,,,,,,,,,,,,,,,,,,,,,sing8,001,2019_Oct_26_1316,ProdFawcett_Revision2019,3.2.4,59.98175587585188,
73,0,73,0,,,,,,,,,,,,,,,,,699.4430820426787,None,materials/speakPic.jpg,scene,B_aloud,73,273,695.7765397773182,None,695.7765397773182,None,696.6926559681597,None,696.9588819431665,None,696.9588819431665,None,,,,,,,,,,,,,,,,,,,,,,,,,,,,,,,,,,,sing8,001,2019_Oct_26_1316,ProdFawcett_Revision2019,3.2.4,59.98175587585188,
74,0,74,0,,,,,,,,,,,,,,,,,703.7110776264162,None,materials/singPic.jpg,partner,C_sing,74,211,700.0608888474235,None,700.0608888474235,None,700.9604892081989,None,701.2270240094513,None,701.2270240094513,None,,,,,,,,,,,,,,,,,,,,,,,,,,,,,,,,,,,sing8,001,2019_Oct_26_1316,ProdFawcett_Revision2019,3.2.4,59.98175587585188,
75,0,75,0,,,,,,,,,,,,,,,,,707.9790822292853,None,materials/singPic.jpg,material,C_sing,75,182,704.2960424830671,None,704.2960424830671,None,705.2285155812569,None,705.4948087329685,None,705.4948087329685,None,,,,,,,,,,,,,,,,,,,,,,,,,,,,,,,,,,,sing8,001,2019_Oct_26_1316,ProdFawcett_Revision2019,3.2.4,59.98175587585188,
76,0,76,0,,,,,,,,,,,,,,,,,712.2470638178929,None,materials/singPic.jpg,welcome,C_sing,76,354,708.5623203956056,None,708.5623203956056,None,709.4964225290751,None,709.7628593643021,None,709.7628593643021,None,,,,,,,,,,,,,,,,,,,,,,,,,,,,,,,,,,,sing8,001,2019_Oct_26_1316,ProdFawcett_Revision2019,3.2.4,59.98175587585188,
77,0,77,0,,,,,,,,,,,,,,,,,716.5150982770429,None,materials/readPic.jpg,growth,A_silent,77,144,712.8886381165648,None,712.8886381165648,None,713.764481557504,None,714.0308418859204,None,714.0308418859204,None,,,,,,,,,,,,,,,,,,,,,,,,,,,,,,,,,,,sing8,001,2019_Oct_26_1316,ProdFawcett_Revision2019,3.2.4,59.98175587585188,
78,0,78,0,,,,,,,,,,,,,,,,,720.7830674255092,None,materials/readPic.jpg,benefit,A_silent,78,20,717.098300055979,None,717.098300055979,None,718.0325772843207,None,718.2988225415174,None,718.2988225415174,None,,,,,,,,,,,,,,,,,,,,,,,,,,,,,,,,,,,sing8,001,2019_Oct_26_1316,ProdFawcett_Revision2019,3.2.4,59.98175587585188,
79,0,79,0,,,,,,,,,,,,,,,,,725.0510269328952,None,materials/speakPic.jpg,sound,B_aloud,79,295,721.3707793742651,None,721.3707793742651,None,722.300396529201,None,722.5667786278646,None,722.5667786278646,None,,,,,,,,,,,,,,,,,,,,,,,,,,,,,,,,,,,sing8,001,2019_Oct_26_1316,ProdFawcett_Revision2019,3.2.4,59.98175587585188,
80,0,80,0,,,,,,,,,,,,,,,,,729.3189932823298,None,materials/speakPic.jpg,dispute,B_aloud,80,99,725.6344414380728,None,725.6344414380728,None,726.5685193132958,None,726.8347720345773,None,726.8347720345773,None,,,,,,,,,,,,,,,,,,,,,,,,,,,,,,,,,,,sing8,001,2019_Oct_26_1316,ProdFawcett_Revision2019,3.2.4,59.98175587585188,
81,0,81,0,,,,,,,,,,,,,,,,,733.5870134353463,None,materials/readPic.jpg,cross,A_silent,81,80,729.9227539341955,None,729.9227539341955,None,730.8364498973824,None,731.1028578093101,None,731.1028578093101,None,,,,,,,,,,,,,,,,,,,,,,,,,,,,,,,,,,,sing8,001,2019_Oct_26_1316,ProdFawcett_Revision2019,3.2.4,59.98175587585188,
82,0,82,0,,,,,,,,,,,,,,,,,737.8550314113381,None,materials/singPic.jpg,school,C_sing,82,274,734.2050102631038,None,734.2050102631038,None,735.1044557442365,None,735.370764135092,None,735.370764135092,None,,,,,,,,,,,,,,,,,,,,,,,,,,,,,,,,,,,sing8,001,2019_Oct_26_1316,ProdFawcett_Revision2019,3.2.4,59.98175587585188,
83,0,83,0,,,,,,,,,,,,,,,,,742.1229837656429,None,materials/singPic.jpg,department,C_sing,83,90,738.4390324687411,None,738.4390324687411,None,739.3723676681111,None,739.6387712259893,None,739.6387712259893,None,,,,,,,,,,,,,,,,,,,,,,,,,,,,,,,,,,,sing8,001,2019_Oct_26_1316,ProdFawcett_Revision2019,3.2.4,59.98175587585188,
84,0,84,0,,,,,,,,,,,,,,,,,746.3911774584849,None,materials/readPic.jpg,drama,A_silent,84,103,742.7654428686947,None,742.7654428686947,None,743.6404391366523,None,743.9067512595793,None,743.9067512595793,None,,,,,,,,,,,,,,,,,,,,,,,,,,,,,,,,,,,sing8,001,2019_Oct_26_1316,ProdFawcett_Revision2019,3.2.4,59.98175587585188,
85,0,85,0,,,,,,,,,,,,,,,,,750.6589425888087,None,materials/singPic.jpg,speech,C_sing,85,298,747.0089904833003,None,747.0089904833003,None,747.9086287864775,None,748.1747953598388,None,748.1747953598388,None,,,,,,,,,,,,,,,,,,,,,,,,,,,,,,,,,,,sing8,001,2019_Oct_26_1316,ProdFawcett_Revision2019,3.2.4,59.98175587585188,
86,0,86,0,,,,,,,,,,,,,,,,,754.9269428375992,None,materials/speakPic.jpg,session,B_aloud,86,281,751.2173583380063,None,751.2173583380063,None,752.1763674815011,None,752.4427253218892,None,752.4427253218892,None,,,,,,,,,,,,,,,,,,,,,,,,,,,,,,,,,,,sing8,001,2019_Oct_26_1316,ProdFawcett_Revision2019,3.2.4,59.98175587585188,
87,0,87,0,,,,,,,,,,,,,,,,,759.1950780618354,None,materials/readPic.jpg,route,A_silent,87,267,755.5614362132328,None,755.5614362132328,None,756.4448578715092,None,756.7107933694206,None,756.7107933694206,None,,,,,,,,,,,,,,,,,,,,,,,,,,,,,,,,,,,sing8,001,2019_Oct_26_1316,ProdFawcett_Revision2019,3.2.4,59.98175587585188,
88,0,88,0,,,,,,,,,,,,,,,,,763.4629097468569,None,materials/speakPic.jpg,defeat,B_aloud,88,88,759.7963792996306,None,759.7963792996306,None,760.7135239783674,None,760.9787217764533,None,760.9787217764533,None,,,,,,,,,,,,,,,,,,,,,,,,,,,,,,,,,,,sing8,001,2019_Oct_26_1316,ProdFawcett_Revision2019,3.2.4,59.98175587585188,
89,0,89,0,,,,,,,,,,,,,,,,,767.7309364309185,None,materials/singPic.jpg,history,C_sing,89,153,764.085639733792,None,764.085639733792,None,764.9805234185478,None,765.2468252783583,None,765.2468252783583,None,,,,,,,,,,,,,,,,,,,,,,,,,,,,,,,,,,,sing8,001,2019_Oct_26_1316,ProdFawcett_Revision2019,3.2.4,59.98175587585188,
,,,,,,,,,,,,,,,,,,,,,,,,,,,,,,,,,,,,,768.2310567891982,None,k,106.60255738010164,768.2310567891982,None,,,,,,,,,,,,,,,,,,,,,,,,,,,,,sing8,001,2019_Oct_26_1316,ProdFawcett_Revision2019,3.2.4,59.98175587585188,
,,,,,,,,,,,,,,874.8640788082266,None,space,4.057374821190024,874.8640788082266,None,,,,,,,,,,,,,,,,,,,,,,,,,,,,,,,,,,,,,,,,,,,,,,,,,,,,sing8,001,2019_Oct_26_1316,ProdFawcett_Revision2019,3.2.4,59.98175587585188,
,,,,0,0,0,0,,,,,,,,,,,,,906.6587783790601,None,,,,,,,,,,,,,,,,,,,,,,minor,A_silent,0,191,879.4714271941339,None,879.4714271941339,None,879.4714271941339,None,1,6.089799402892822,879.4714271941339,None,885.6172280276078,None,885.6172280276078,None,886.1370324065501,None,886.1370324065501,None,886.1370324065501,None,n,20.479410959756933,886.1370324065501,None,sing8,001,2019_Oct_26_1316,ProdFawcett_Revision2019,3.2.4,59.98175587585188,
,,,,1,0,1,0,,,,,,,,,,,,,915.3431380232796,None,,,,,,,,,,,,,,,,,,,,,,individual,A_silent,1,160,907.1930674255127,None,907.1930674255127,None,907.1930674255127,None,6,3.7911245879367925,907.1930674255127,None,911.0417817378766,None,911.0417817378766,None,911.5592237357632,None,911.5592237357632,None,911.5592237357632,None,r,3.744300553575158,911.5592237357632,None,sing8,001,2019_Oct_26_1316,ProdFawcett_Revision2019,3.2.4,59.98175587585188,
,,,,2,0,2,0,,,,,,,,,,,,,922.5618843689736,None,,,,,,,,,,,,,,,,,,,,,,space,B_aloud,2,297,915.86304316725,None,915.86304316725,None,915.86304316725,None,6,4.08854263855028,915.86304316725,None,920.0111441811314,None,920.0111441811314,None,920.5281187410583,None,920.5281187410583,None,920.5281187410583,None,r,1.9913052808260545,920.5281187410583,None,sing8,001,2019_Oct_26_1316,ProdFawcett_Revision2019,3.2.4,59.98175587585188,
,,,,3,0,3,0,,,,,,,,,,,,,934.7656916713458,None,,,,,,,,,,,,,,,,,,,,,,junior,A_silent,3,167,923.0834589786828,None,923.0834589786828,None,923.0834589786828,None,3,8.059131056797924,923.0834589786828,None,931.1979983827914,None,931.1979983827914,None,931.701246190205,None,931.701246190205,None,931.701246190205,None,f,3.0251629657286685,931.701246190205,None,sing8,001,2019_Oct_26_1316,ProdFawcett_Revision2019,3.2.4,59.98175587585188,
,,,,4,0,4,0,,,,,,,,,,,,,943.43503358835,None,,,,,,,,,,,,,,,,,,,,,,universal,D_new,4,345,935.2838038813206,None,935.2838038813206,None,935.2838038813206,None,2,5.34595353610348,935.2838038813206,None,940.684275673324,None,940.684275673324,None,941.2011423151125,None,941.2011423151125,None,941.2011423151125,None,f,2.196407911920687,941.2011423151125,None,sing8,001,2019_Oct_26_1316,ProdFawcett_Revision2019,3.2.4,59.98175587585188,
,,,,5,0,5,0,,,,,,,,,,,,,950.3371916402248,None,,,,,,,,,,,,,,,,,,,,,,native,D_new,5,199,943.9519754929352,None,943.9519754929352,None,943.9519754929352,None,1,4.149405361706158,943.9519754929352,None,948.153260247549,None,948.153260247549,None,948.6701601667155,None,948.6701601667155,None,948.6701601667155,None,n,1.631177769479109,948.6701601667155,None,sing8,001,2019_Oct_26_1316,ProdFawcett_Revision2019,3.2.4,59.98175587585188,
,,,,6,0,6,0,,,,,,,,,,,,,955.0220958512218,None,,,,,,,,,,,,,,,,,,,,,,attack,C_sing,6,13,950.8551041861065,None,950.8551041861065,None,950.8551041861065,None,6,1.9019145362835843,950.8551041861065,None,952.8214315481891,None,952.8214315481891,None,953.3381025689014,None,953.3381025689014,None,953.3381025689014,None,r,1.643501275102608,953.3381025689014,None,sing8,001,2019_Oct_26_1316,ProdFawcett_Revision2019,3.2.4,59.98175587585188,
,,,,7,0,7,0,,,,,,,,,,,,,962.9579081918346,None,,,,,,,,,,,,,,,,,,,,,,minute,D_new,7,192,955.5399206941656,None,955.5399206941656,None,955.5399206941656,None,2,4.080905019596685,955.5399206941656,None,959.6735277104017,None,959.6735277104017,None,960.1904092803306,None,960.1904092803306,None,960.1904092803306,None,f,2.726346022274811,960.1904092803306,None,sing8,001,2019_Oct_26_1316,ProdFawcett_Revision2019,3.2.4,59.98175587585188,
,,,,8,0,8,0,,,,,,,,,,,,,968.526289108675,None,,,,,,,,,,,,,,,,,,,,,,personnel,A_silent,8,219,963.4769969521731,None,963.4769969521731,None,963.4769969521731,None,1,3.2476777383708395,963.4769969521731,None,966.7756450208544,None,966.7756450208544,None,967.2924958014628,None,967.2924958014628,None,967.2924958014628,None,n,1.1923570939688943,967.2924958014628,None,sing8,001,2019_Oct_26_1316,ProdFawcett_Revision2019,3.2.4,59.98175587585188,
,,,,9,0,9,0,,,,,,,,,,,,,973.7445913416741,None,,,,,,,,,,,,,,,,,,,,,,marriage,D_new,9,179,969.0439786651696,None,969.0439786651696,None,969.0439786651696,None,1,2.735922124760691,969.0439786651696,None,971.8438673260098,None,971.8438673260098,None,972.360697580385,None,972.360697580385,None,972.360697580385,None,n,1.3472065683745313,972.360697580385,None,sing8,001,2019_Oct_26_1316,ProdFawcett_Revision2019,3.2.4,59.98175587585188,
,,,,10,0,10,0,,,,,,,,,,,,,978.679420600849,None,,,,,,,,,,,,,,,,,,,,,,produce,D_new,10,239,974.26294706724,None,974.26294706724,None,974.26294706724,None,1,2.6048684456036426,974.26294706724,None,976.9288527088356,None,976.9288527088356,None,977.4457498289412,None,977.4457498289412,None,977.4457498289412,None,n,1.1903738259570673,977.4457498289412,None,sing8,001,2019_Oct_26_1316,ProdFawcett_Revision2019,3.2.4,59.98175587585188,
,,,,11,0,11,0,,,,,,,,,,,,,983.5808114075917,None,,,,,,,,,,,,,,,,,,,,,,drove,D_new,11,106,979.1981184300676,None,979.1981184300676,None,979.1981184300676,None,1,2.2612772905267775,979.1981184300676,None,981.5137547428021,None,981.5137547428021,None,982.0304982272792,None,982.0304982272792,None,982.0304982272792,None,n,1.5171176214353181,982.0304982272792,None,sing8,001,2019_Oct_26_1316,ProdFawcett_Revision2019,3.2.4,59.98175587585188,
,,,,12,0,12,0,,,,,,,,,,,,,989.8995583753276,None,,,,,,,,,,,,,,,,,,,,,,running,A_silent,12,268,984.0989136654825,None,984.0989136654825,None,984.0989136654825,None,5,3.9521294395672157,984.0989136654825,None,988.1156901163049,None,988.1156901163049,None,988.6324911364063,None,988.6324911364063,None,988.6324911364063,None,f,1.2266299682669342,988.6324911364063,None,sing8,001,2019_Oct_26_1316,ProdFawcett_Revision2019,3.2.4,59.98175587585188,
,,,,13,0,13,0,,,,,,,,,,,,,996.0514816197101,None,,,,,,,,,,,,,,,,,,,,,,benefit,A_silent,13,20,990.4175716862665,None,990.4175716862665,None,990.4175716862665,None,3,3.7773906823422294,990.4175716862665,None,994.2381700566038,None,994.2381700566038,None,994.7676379299664,None,994.7676379299664,None,994.7676379299664,None,f,1.2511370280699339,994.7676379299664,None,sing8,001,2019_Oct_26_1316,ProdFawcett_Revision2019,3.2.4,59.98175587585188,
,,,,14,0,14,0,,,,,,,,,,,,,1004.2040122535254,None,,,,,,,,,,,,,,,,,,,,,,dream,D_new,14,104,996.5681616595248,None,996.5681616595248,None,996.5681616595248,None,4,5.274649499275256,996.5681616595248,None,1001.903205199982,None,1001.903205199982,None,1002.4202239223814,None,1002.4202239223814,None,1002.4202239223814,None,f,1.7424830503296107,1002.4202239223814,None,sing8,001,2019_Oct_26_1316,ProdFawcett_Revision2019,3.2.4,59.98175587585188,
,,,,15,0,15,0,,,,,,,,,,,,,1009.0720551097766,None,,,,,,,,,,,,,,,,,,,,,,payment,B_aloud,15,215,1004.7228519002383,None,1004.7228519002383,None,1004.7228519002383,None,2,2.511046215076931,1004.7228519002383,None,1007.2882198171283,None,1007.2882198171283,None,1007.8052932761202,None,1007.8052932761202,None,1007.8052932761202,None,n,1.2204518878133968,1007.8052932761202,None,sing8,001,2019_Oct_26_1316,ProdFawcett_Revision2019,3.2.4,59.98175587585188,
,,,,16,0,16,0,,,,,,,,,,,,,1013.2568283883738,None,,,,,,,,,,,,,,,,,,,,,,broad,D_new,16,31,1009.5889049574034,None,1009.5889049574034,None,1009.5889049574034,None,1,1.9967378864239436,1009.5889049574034,None,1011.629598183732,None,1011.629598183732,None,1012.1564900167868,None,1012.1564900167868,None,1012.1564900167868,None,n,1.0613335821544752,1012.1564900167868,None,sing8,001,2019_Oct_26_1316,ProdFawcett_Revision2019,3.2.4,59.98175587585188,
,,,,17,0,17,0,,,,,,,,,,,,,1020.2423474528769,None,,,,,,,,,,,,,,,,,,,,,,author,D_new,17,15,1013.7749975119659,None,1013.7749975119659,None,1013.7749975119659,None,2,3.2665208061225712,1013.7749975119659,None,1017.0912539653073,None,1017.0912539653073,None,1017.6081865397864,None,1017.6081865397864,None,1017.6081865397864,None,f,2.5934645767265465,1017.6081865397864,None,sing8,001,2019_Oct_26_1316,ProdFawcett_Revision2019,3.2.4,59.98175587585188,
,,,,18,0,18,0,,,,,,,,,,,,,1024.1934312993835,None,,,,,,,,,,,,,,,,,,,,,,prime,D_new,18,235,1020.7600230142416,None,1020.7600230142416,None,1020.7600230142416,None,1,1.7850223922287114,1020.7600230142416,None,1022.6096516763209,None,1022.6096516763209,None,1023.1265310692252,None,1023.1265310692252,None,1023.1265310692252,None,n,1.0267248242744245,1023.1265310692252,None,sing8,001,2019_Oct_26_1316,ProdFawcett_Revision2019,3.2.4,59.98175587585188,
,,,,19,0,19,0,,,,,,,,,,,,,1028.644905455003,None,,,,,,,,,,,,,,,,,,,,,,series,B_aloud,19,279,1024.71188281395,None,1024.71188281395,None,1024.71188281395,None,6,2.265276481921319,1024.71188281395,None,1027.0276892455004,None,1027.0276892455004,None,1027.5445111028093,None,1027.5445111028093,None,1027.5445111028093,None,r,1.064285314438166,1027.5445111028093,None,sing8,001,2019_Oct_26_1316,ProdFawcett_Revision2019,3.2.4,59.98175587585188,
,,,,20,0,20,0,,,,,,,,,,,,,1033.5297816756938,None,,,,,,,,,,,,,,,,,,,,,,bicycle,C_sing,20,21,1029.1629019717511,None,1029.1629019717511,None,1029.1629019717511,None,6,2.421722647268325,1029.1629019717511,None,1031.6457852833264,None,1031.6457852833264,None,1032.1626786713896,None,1032.1626786713896,None,1032.1626786713896,None,r,1.3339012253563851,1032.1626786713896,None,sing8,001,2019_Oct_26_1316,ProdFawcett_Revision2019,3.2.4,59.98175587585188,
,,,,21,0,21,0,,,,,,,,,,,,,1037.0974395098747,None,,,,,,,,,,,,,,,,,,,,,,graduate,C_sing,21,141,1034.0489600049914,None,1034.0489600049914,None,1034.0489600049914,None,6,1.447675250354223,1034.0489600049914,None,1035.5375023325323,None,1035.5375023325323,None,1036.0641064875235,None,1036.0641064875235,None,1036.0641064875235,None,r,0.9924970454885624,1036.0641064875235,None,sing8,001,2019_Oct_26_1316,ProdFawcett_Revision2019,3.2.4,59.98175587585188,
,,,,22,0,22,0,,,,,,,,,,,,,1041.0987982832594,None,,,,,,,,,,,,,,,,,,,,,,write,A_silent,22,358,1037.6148420103418,None,1037.6148420103418,None,1037.6148420103418,None,3,1.9614676245546434,1037.6148420103418,None,1039.619639236189,None,1039.619639236189,None,1040.148380605824,None,1040.148380605824,None,1040.148380605824,None,f,0.9160319089132827,1040.148380605824,None,sing8,001,2019_Oct_26_1316,ProdFawcett_Revision2019,3.2.4,59.98175587585188,
,,,,23,0,23,0,,,,,,,,,,,,,1047.1674435528985,None,,,,,,,,,,,,,,,,,,,,,,light,A_silent,23,171,1041.6169154693198,None,1041.6169154693198,None,1041.6169154693198,None,5,3.830919636733597,1041.6169154693198,None,1045.5000746407895,None,1045.5000746407895,None,1046.0172292716452,None,1046.0172292716452,None,1046.0172292716452,None,f,1.1023163525678683,1046.0172292716452,None,sing8,001,2019_Oct_26_1316,ProdFawcett_Revision2019,3.2.4,59.98175587585188,
,,,,24,0,24,0,,,,,,,,,,,,,1054.102660011209,None,,,,,,,,,,,,,,,,,,,,,,emergency,D_new,24,110,1047.6854699259857,None,1047.6854699259857,None,1047.6854699259857,None,2,2.417970392474672,1047.6854699259857,None,1050.1682938359154,None,1050.1682938359154,None,1050.6849502394616,None,1050.6849502394616,None,1050.6849502394616,None,f,3.378533308452461,1050.6849502394616,None,sing8,001,2019_Oct_26_1316,ProdFawcett_Revision2019,3.2.4,59.98175587585188,
,,,,25,0,25,0,,,,,,,,,,,,,1060.004567705415,None,,,,,,,,,,,,,,,,,,,,,,judge,D_new,25,166,1054.6246550973447,None,1054.6246550973447,None,1054.6246550973447,None,2,2.230338682566071,1054.6246550973447,None,1056.920224855392,None,1056.920224855392,None,1057.4374625241035,None,1057.4374625241035,None,1057.4374625241035,None,f,2.5293755053717177,1057.4374625241035,None,sing8,001,2019_Oct_26_1316,ProdFawcett_Revision2019,3.2.4,59.98175587585188,
,,,,26,0,26,0,,,,,,,,,,,,,1065.5229781675735,None,,,,,,,,,,,,,,,,,,,,,,community,B_aloud,26,63,1060.5234014430607,None,1060.5234014430607,None,1060.5234014430607,None,5,1.995337749569444,1060.5234014430607,None,1062.572050755727,None,1062.572050755727,None,1063.0890362007776,None,1063.0890362007776,None,1063.0890362007776,None,r,2.3975673322274815,1063.0890362007776,None,sing8,001,2019_Oct_26_1316,ProdFawcett_Revision2019,3.2.4,59.98175587585188,
,,,,27,0,27,0,,,,,,,,,,,,,1072.8086996952188,None,,,,,,,,,,,,,,,,,,,,,,escape,D_new,27,118,1066.0436601978145,None,1066.0436601978145,None,1066.0436601978145,None,5,5.290832244820194,1066.0436601978145,None,1071.3914346582023,None,1071.3914346582023,None,1071.9083140511357,None,1071.9083140511357,None,1071.9083140511357,None,f,0.8584512035595253,1071.9083140511357,None,sing8,001,2019_Oct_26_1316,ProdFawcett_Revision2019,3.2.4,59.98175587585188,
,,,,28,0,28,0,,,,,,,,,,,,,1076.8096955277724,None,,,,,,,,,,,,,,,,,,,,,,tennis,D_new,28,323,1073.325513466436,None,1073.325513466436,None,1073.325513466436,None,2,2.0964387012645602,1073.325513466436,None,1075.465389998135,None,1075.465389998135,None,1075.9929156559228,None,1075.9929156559228,None,1075.9929156559228,None,f,0.7810984636307694,1075.9929156559228,None,sing8,001,2019_Oct_26_1316,ProdFawcett_Revision2019,3.2.4,59.98175587585188,
,,,,29,0,29,0,,,,,,,,,,,,,1081.5112847546116,None,,,,,,,,,,,,,,,,,,,,,,beauty,D_new,29,18,1077.3278606083186,None,1077.3278606083186,None,1077.3278606083186,None,1,2.622185731161153,1077.3278606083186,None,1079.9987214654393,None,1079.9987214654393,None,1080.5275132176466,None,1080.5275132176466,None,1080.5275132176466,None,n,0.9427439821010921,1080.5275132176466,None,sing8,001,2019_Oct_26_1316,ProdFawcett_Revision2019,3.2.4,59.98175587585188,
,,,,30,0,30,0,,,,,,,,,,,,,1084.9623213286104,None,,,,,,,,,,,,,,,,,,,,,,smooth,D_new,30,292,1082.0296140449063,None,1082.0296140449063,None,1082.0296140449063,None,1,1.53584219692857,1082.0296140449063,None,1083.6285625427554,None,1083.6285625427554,None,1084.1454758350446,None,1084.1454758350446,None,1084.1454758350446,None,n,0.7720314735197462,1084.1454758350446,None,sing8,001,2019_Oct_26_1316,ProdFawcett_Revision2019,3.2.4,59.98175587585188,
,,,,31,0,31,0,,,,,,,,,,,,,1091.5310431050602,None,,,,,,,,,,,,,,,,,,,,,,empty,D_new,31,112,1085.4798105990048,None,1085.4798105990048,None,1085.4798105990048,None,5,3.965388443117263,1085.4798105990048,None,1089.4970140573569,None,1089.4970140573569,None,1090.0139733781107,None,1090.0139733781107,None,1090.0139733781107,None,f,1.4710073396854568,1090.0139733781107,None,sing8,001,2019_Oct_26_1316,ProdFawcett_Revision2019,3.2.4,59.98175587585188,
,,,,32,0,32,0,,,,,,,,,,,,,1097.6162897306785,None,,,,,,,,,,,,,,,,,,,,,,thing,C_sing,32,328,1092.0479088138381,None,1092.0479088138381,None,1092.0479088138381,None,5,3.693500964116538,1092.0479088138381,None,1095.7988959382928,None,1095.7988959382928,None,1096.3157485849515,None,1096.3157485849515,None,1096.3157485849515,None,f,1.265067487693159,1096.3157485849515,None,sing8,001,2019_Oct_26_1316,ProdFawcett_Revision2019,3.2.4,59.98175587585188,
,,,,33,0,33,0,,,,,,,,,,,,,1103.2180098899116,None,,,,,,,,,,,,,,,,,,,,,,grade,D_new,33,140,1098.1337762020412,None,1098.1337762020412,None,1098.1337762020412,None,3,3.03887603408657,1098.1337762020412,None,1101.2340156745631,None,1101.2340156745631,None,1101.7509028425848,None,1101.7509028425848,None,1101.7509028425848,None,f,1.4213817876589019,1101.7509028425848,None,sing8,001,2019_Oct_26_1316,ProdFawcett_Revision2019,3.2.4,59.98175587585188,
,,,,34,0,34,0,,,,,,,,,,,,,1108.3862956397352,None,,,,,,,,,,,,,,,,,,,,,,recall,B_aloud,34,255,1103.7358272687707,None,1103.7358272687707,None,1103.7358272687707,None,6,2.0283463954692706,1103.7358272687707,None,1105.818754120788,None,1105.818754120788,None,1106.3356773651903,None,1106.3356773651903,None,1106.3356773651903,None,r,2.0043161037610844,1106.3356773651903,None,sing8,001,2019_Oct_26_1316,ProdFawcett_Revision2019,3.2.4,59.98175587585188,
,,,,35,0,35,0,,,,,,,,,,,,,1111.887381663255,None,,,,,,,,,,,,,,,,,,,,,,travel,A_silent,35,338,1108.9047627044783,None,1108.9047627044783,None,1108.9047627044783,None,6,1.4272538408986293,1108.9047627044783,None,1110.3868308764067,None,1110.3868308764067,None,1110.9037273745053,None,1110.9037273745053,None,1110.9037273745053,None,r,0.9407352117996197,1110.9037273745053,None,sing8,001,2019_Oct_26_1316,ProdFawcett_Revision2019,3.2.4,59.98175587585188,
,,,,36,0,36,0,,,,,,,,,,,,,1115.088208310015,None,,,,,,,,,,,,,,,,,,,,,,turkey,C_sing,36,342,1112.39077719723,None,1112.39077719723,None,1112.39077719723,None,6,1.26951265783282,1112.39077719723,None,1113.7211734154553,None,1113.7211734154553,None,1114.2380863967119,None,1114.2380863967119,None,1114.2380863967119,None,r,0.8060176027938724,1114.2380863967119,None,sing8,001,2019_Oct_26_1316,ProdFawcett_Revision2019,3.2.4,59.98175587585188,
,,,,37,0,37,0,,,,,,,,,,,,,1118.4225919014716,None,,,,,,,,,,,,,,,,,,,,,,track,C_sing,37,334,1115.6058362878684,None,1115.6058362878684,None,1115.6058362878684,None,6,1.325873919238802,1115.6058362878684,None,1116.9888760340982,None,1116.9888760340982,None,1117.505779685278,None,1117.505779685278,None,1117.505779685278,None,r,0.8742613671929576,1117.505779685278,None,sing8,001,2019_Oct_26_1316,ProdFawcett_Revision2019,3.2.4,59.98175587585188,
,,,,38,0,38,0,,,,,,,,,,,,,1124.9080814206682,None,,,,,,,,,,,,,,,,,,,,,,signal,B_aloud,38,287,1118.9407762642368,None,1118.9407762642368,None,1118.9407762642368,None,4,4.607080923073227,1118.9407762642368,None,1123.6075359208917,None,1123.6075359208917,None,1124.1244632083108,None,1124.1244632083108,None,1124.1244632083108,None,f,0.7430042918422259,1124.1244632083108,None,sing8,001,2019_Oct_26_1316,ProdFawcett_Revision2019,3.2.4,59.98175587585188,
,,,,39,0,39,0,,,,,,,,,,,,,1130.1930419232522,None,,,,,,,,,,,,,,,,,,,,,,command,D_new,39,60,1125.4258247807447,None,1125.4258247807447,None,1125.4258247807447,None,2,1.9690617030428257,1125.4258247807447,None,1127.458802637324,None,1127.458802637324,None,1127.9756767431682,None,1127.9756767431682,None,1127.9756767431682,None,n,2.179246439016424,1127.9756767431682,None,sing8,001,2019_Oct_26_1316,ProdFawcett_Revision2019,3.2.4,59.98175587585188,
,,,,40,0,40,0,,,,,,,,,,,,,1136.6783588356047,None,,,,,,,,,,,,,,,,,,,,,,executive,C_sing,40,122,1130.711821235309,None,1130.711821235309,None,1130.711821235309,None,5,4.162657212174963,1130.711821235309,None,1134.927761398285,None,1134.927761398285,None,1135.4448746656708,None,1135.4448746656708,None,1135.4448746656708,None,r,1.19764819307602,1135.4448746656708,None,sing8,001,2019_Oct_26_1316,ProdFawcett_Revision2019,3.2.4,59.98175587585188,
,,,,41,0,41,0,,,,,,,,,,,,,1143.8472581949318,None,,,,,,,,,,,,,,,,,,,,,,commercial,D_new,41,61,1137.1986844560597,None,1137.1986844560597,None,1137.1986844560597,None,2,4.788050320348702,1137.1986844560597,None,1142.0355909062782,None,1142.0355909062782,None,1142.5638054363371,None,1142.5638054363371,None,1142.5638054363371,None,n,1.246187721611932,1142.5638054363371,None,sing8,001,2019_Oct_26_1316,ProdFawcett_Revision2019,3.2.4,59.98175587585188,
,,,,42,0,42,0,,,,,,,,,,,,,1148.148437830445,None,,,,,,,,,,,,,,,,,,,,,,strain,A_silent,42,308,1144.3661979846947,None,1144.3661979846947,None,1144.3661979846947,None,1,2.172248242830392,1144.3661979846947,None,1146.5980092679092,None,1146.5980092679092,None,1147.1149350003107,None,1147.1149350003107,None,1147.1149350003107,None,n,0.9991201716475189,1147.1149350003107,None,sing8,001,2019_Oct_26_1316,ProdFawcett_Revision2019,3.2.4,59.98175587585188,
,,,,43,0,43,0,,,,,,,,,,,,,1156.2677405610448,None,,,,,,,,,,,,,,,,,,,,,,ground,D_new,43,142,1148.666760900669,None,1148.666760900669,None,1148.666760900669,None,3,1.8074357777950354,1148.666760900669,None,1150.5215064999647,None,1150.5215064999647,None,1151.0494517011975,None,1151.0494517011975,None,1151.0494517011975,None,f,5.184196367481491,1151.0494517011975,None,sing8,001,2019_Oct_26_1316,ProdFawcett_Revision2019,3.2.4,59.98175587585188,
,,,,44,0,44,0,,,,,,,,,,,,,1161.4526873794966,None,,,,,,,,,,,,,,,,,,,,,,country,D_new,44,73,1156.785871742235,None,1156.785871742235,None,1156.785871742235,None,3,2.399570193461841,1156.785871742235,None,1159.2234882129706,None,1159.2234882129706,None,1159.7520146793686,None,1159.7520146793686,None,1159.7520146793686,None,f,1.6576015425671358,1159.7520146793686,None,sing8,001,2019_Oct_26_1316,ProdFawcett_Revision2019,3.2.4,59.98175587585188,
,,,,45,0,45,0,,,,,,,,,,,,,1165.8705713130475,None,,,,,,,,,,,,,,,,,,,,,,session,B_aloud,45,281,1161.9707510729786,None,1161.9707510729786,None,1161.9707510729786,None,6,1.6221524538123049,1161.9707510729786,None,1163.6365842508094,None,1163.6365842508094,None,1164.153575604898,None,1164.153575604898,None,1164.153575604898,None,r,1.6793108166893944,1164.153575604898,None,sing8,001,2019_Oct_26_1316,ProdFawcett_Revision2019,3.2.4,59.98175587585188,
,,,,46,0,46,0,,,,,,,,,,,,,1172.1726422840147,None,,,,,,,,,,,,,,,,,,,,,,afternoon,A_silent,46,3,1166.388407041115,None,1166.388407041115,None,1166.388407041115,None,3,4.532059774850495,1166.388407041115,None,1170.9722158984805,None,1170.9722158984805,None,1171.4890237606596,None,1171.4890237606596,None,1171.4890237606596,None,f,0.6395008396939375,1171.4890237606596,None,sing8,001,2019_Oct_26_1316,ProdFawcett_Revision2019,3.2.4,59.98175587585188,
,,,,47,0,47,0,,,,,,,,,,,,,1177.891139516083,None,,,,,,,,,,,,,,,,,,,,,,crisis,D_new,47,79,1172.673773713992,None,1172.673773713992,None,1172.673773713992,None,2,3.2384782608714886,1172.673773713992,None,1175.9624538160278,None,1175.9624538160278,None,1176.490562604973,None,1176.490562604973,None,1176.490562604973,None,f,1.3654733470175415,1176.490562604973,None,sing8,001,2019_Oct_26_1316,ProdFawcett_Revision2019,3.2.4,59.98175587585188,
,,,,48,0,48,0,,,,,,,,,,,,,1182.2424898924073,None,,,,,,,,,,,,,,,,,,,,,,piece,D_new,48,221,1178.4088782111066,None,1178.4088782111066,None,1178.4088782111066,None,1,2.5112536542874295,1178.4088782111066,None,1180.975374136964,None,1180.975374136964,None,1181.492254462908,None,1181.492254462908,None,1181.492254462908,None,n,0.715970330289565,1181.492254462908,None,sing8,001,2019_Oct_26_1316,ProdFawcett_Revision2019,3.2.4,59.98175587585188,
,,,,49,0,49,0,,,,,,,,,,,,,1185.726862909738,None,,,,,,,,,,,,,,,,,,,,,,range,D_new,49,251,1182.75976457051,None,1182.75976457051,None,1182.75976457051,None,1,1.632316041563172,1182.75976457051,None,1184.4430357031815,None,1184.4430357031815,None,1184.959877153713,None,1184.959877153713,None,1184.959877153713,None,n,0.7196482552681118,1184.959877153713,None,sing8,001,2019_Oct_26_1316,ProdFawcett_Revision2019,3.2.4,59.98175587585188,
,,,,50,0,50,0,,,,,,,,,,,,,1190.6951253343432,None,,,,,,,,,,,,,,,,,,,,,,company,D_new,50,64,1186.2447172980173,None,1186.2447172980173,None,1186.2447172980173,None,3,2.570619518548483,1186.2447172980173,None,1188.877859986329,None,1188.877859986329,None,1189.3945726814854,None,1189.3945726814854,None,1189.3945726814854,None,f,1.2609709522803314,1189.3945726814854,None,sing8,001,2019_Oct_26_1316,ProdFawcett_Revision2019,3.2.4,59.98175587585188,
,,,,51,0,51,0,,,,,,,,,,,,,1196.163484169927,None,,,,,,,,,,,,,,,,,,,,,,little,D_new,51,174,1191.213746656722,None,1191.213746656722,None,1191.213746656722,None,2,2.0817357094201725,1191.213746656722,None,1193.345923990797,None,1193.345923990797,None,1193.8626055856294,None,1193.8626055856294,None,1193.8626055856294,None,f,2.2644317969679832,1193.8626055856294,None,sing8,001,2019_Oct_26_1316,ProdFawcett_Revision2019,3.2.4,59.98175587585188,
,,,,52,0,52,0,,,,,,,,,,,,,1200.6315192510956,None,,,,,,,,,,,,,,,,,,,,,,staff,C_sing,52,301,1196.6806322697084,None,1196.6806322697084,None,1196.6806322697084,None,3,2.4381072339310776,1196.6806322697084,None,1199.1809572681377,None,1199.1809572681377,None,1199.6978842445824,None,1199.6978842445824,None,1199.6978842445824,None,f,0.8847676805453375,1199.6978842445824,None,sing8,001,2019_Oct_26_1316,ProdFawcett_Revision2019,3.2.4,59.98175587585188,
,,,,53,0,53,0,,,,,,,,,,,,,1206.6665603035362,None,,,,,,,,,,,,,,,,,,,,,,express,A_silent,53,124,1201.1496239970147,None,1201.1496239970147,None,1201.1496239970147,None,5,1.825201219151495,1201.1496239970147,None,1203.0202780369436,None,1203.0202780369436,None,1203.5489345027017,None,1203.5489345027017,None,1203.5489345027017,None,f,3.0815655906044412,1203.5489345027017,None,sing8,001,2019_Oct_26_1316,ProdFawcett_Revision2019,3.2.4,59.98175587585188,
,,,,54,0,54,0,,,,,,,,,,,,,1210.2344887105864,None,,,,,,,,,,,,,,,,,,,,,,territory,C_sing,54,324,1207.18394849787,None,1207.18394849787,None,1207.18394849787,None,6,1.5424821173073724,1207.18394849787,None,1208.7839376127522,None,1208.7839376127522,None,1209.3016663556627,None,1209.3016663556627,None,1209.3016663556627,None,r,0.8891192386508919,1209.3016663556627,None,sing8,001,2019_Oct_26_1316,ProdFawcett_Revision2019,3.2.4,59.98175587585188,
,,,,55,0,55,0,,,,,,,,,,,,,1213.635427629546,None,,,,,,,,,,,,,,,,,,,,,,concern,D_new,55,65,1210.7526205137838,None,1210.7526205137838,None,1210.7526205137838,None,2,1.6374662561283913,1210.7526205137838,None,1212.4404080363165,None,1212.4404080363165,None,1212.9685311314242,None,1212.9685311314242,None,1212.9685311314242,None,f,0.6214915718301199,1212.9685311314242,None,sing8,001,2019_Oct_26_1316,ProdFawcett_Revision2019,3.2.4,59.98175587585188,
,,,,56,0,56,0,,,,,,,,,,,,,1217.920067487721,None,,,,,,,,,,,,,,,,,,,,,,symbol,D_new,56,321,1214.1536169683386,None,1214.1536169683386,None,1214.1536169683386,None,4,2.1248497854103334,1214.1536169683386,None,1216.3364194190362,None,1216.3364194190362,None,1216.85320831,None,1216.85320831,None,1216.85320831,None,f,1.0329001057543792,1216.85320831,None,sing8,001,2019_Oct_26_1316,ProdFawcett_Revision2019,3.2.4,59.98175587585188,
,,,,57,0,57,0,,,,,,,,,,,,,1220.9377984076564,None,,,,,,,,,,,,,,,,,,,,,,bucket,D_new,57,33,1218.4373259936692,None,1218.4373259936692,None,1218.4373259936692,None,1,1.4325688872195315,1218.4373259936692,None,1219.9095751694986,None,1219.9095751694986,None,1220.4375141506607,None,1220.4375141506607,None,1220.4375141506607,None,n,0.4563696585246362,1220.4375141506607,None,sing8,001,2019_Oct_26_1316,ProdFawcett_Revision2019,3.2.4,59.98175587585188,
,,,,58,0,58,0,,,,,,,,,,,,,1225.6726855134766,None,,,,,,,,,,,,,,,,,,,,,,profession,C_sing,58,241,1221.4566386763763,None,1221.4566386763763,None,1221.4566386763763,None,6,2.876978602958843,1221.4566386763763,None,1224.3782546494913,None,1224.3782546494913,None,1224.9056779872044,None,1224.9056779872044,None,1224.9056779872044,None,r,0.7242004105064552,1224.9056779872044,None,sing8,001,2019_Oct_26_1316,ProdFawcett_Revision2019,3.2.4,59.98175587585188,
,,,,59,0,59,0,,,,,,,,,,,,,1229.3903492567188,None,,,,,,,,,,,,,,,,,,,,,,figure,D_new,59,128,1226.1906503078935,None,1226.1906503078935,None,1226.1906503078935,None,3,2.214777632645564,1226.1906503078935,None,1228.4567593456595,None,1228.4567593456595,None,1228.973615413328,None,1228.973615413328,None,1228.973615413328,None,f,0.37581389560364187,1228.973615413328,None,sing8,001,2019_Oct_26_1316,ProdFawcett_Revision2019,3.2.4,59.98175587585188,
,,,,60,0,60,0,,,,,,,,,,,,,1232.7274199166568,None,,,,,,,,,,,,,,,,,,,,,,trial,D_new,60,341,1229.9076721403399,None,1229.9076721403399,None,1229.9076721403399,None,6,1.521276357525494,1229.9076721403399,None,1231.4909899235063,None,1231.4909899235063,None,1232.0079545313201,None,1232.0079545313201,None,1232.0079545313201,None,r,0.7007277476950549,1232.0079545313201,None,sing8,001,2019_Oct_26_1316,ProdFawcett_Revision2019,3.2.4,59.98175587585188,
,,,,61,0,61,0,,,,,,,,,,,,,1238.093083286687,None,,,,,,,,,,,,,,,,,,,,,,still,D_new,61,304,1233.2582530944783,None,1233.2582530944783,None,1233.2582530944783,None,2,1.642987497674767,1233.2582530944783,None,1234.9587171114108,None,1234.9587171114108,None,1235.4755032033427,None,1235.4755032033427,None,1235.4755032033427,None,f,2.5850006219989154,1235.4755032033427,None,sing8,001,2019_Oct_26_1316,ProdFawcett_Revision2019,3.2.4,59.98175587585188,
,,,,62,0,62,0,,,,,,,,,,,,,1242.4444725384237,None,,,,,,,,,,,,,,,,,,,,,,candidate,A_silent,62,39,1238.612592523481,None,1238.612592523481,None,1238.612592523481,None,6,1.8481031908886507,1238.612592523481,None,1240.510511911416,None,1240.510511911416,None,1241.0277203458536,None,1241.0277203458536,None,1241.0277203458536,None,r,1.3768299433868378,1241.0277203458536,None,sing8,001,2019_Oct_26_1316,ProdFawcett_Revision2019,3.2.4,59.98175587585188,
,,,,63,0,63,0,,,,,,,,,,,,,1246.8956751881633,None,,,,,,,,,,,,,,,,,,,,,,title,C_sing,63,331,1242.961658580578,None,1242.961658580578,None,1242.961658580578,None,4,2.059121104684891,1242.961658580578,None,1245.0786154133384,None,1245.0786154133384,None,1245.5954696149856,None,1245.5954696149856,None,1245.5954696149856,None,f,1.257178267085692,1245.5954696149856,None,sing8,001,2019_Oct_26_1316,ProdFawcett_Revision2019,3.2.4,59.98175587585188,
,,,,64,0,64,0,,,,,,,,,,,,,1253.297709149716,None,,,,,,,,,,,,,,,,,,,,,,hearing,B_aloud,64,150,1247.4127470921085,None,1247.4127470921085,None,1247.4127470921085,None,5,4.511323008016916,1247.4127470921085,None,1251.9806761211657,None,1251.9806761211657,None,1252.4975838153914,None,1252.4975838153914,None,1252.4975838153914,None,f,0.7621714250126388,1252.4975838153914,None,sing8,001,2019_Oct_26_1316,ProdFawcett_Revision2019,3.2.4,59.98175587585188,
,,,,65,0,65,0,,,,,,,,,,,,,1256.9821453007462,None,,,,,,,,,,,,,,,,,,,,,,season,A_silent,65,277,1253.8148647135822,None,1253.8148647135822,None,1253.8148647135822,None,3,2.028873857052531,1253.8148647135822,None,1255.8984639547125,None,1255.8984639547125,None,1256.4153187783959,None,1256.4153187783959,None,1256.4153187783959,None,f,0.5325343658623751,1256.4153187783959,None,sing8,001,2019_Oct_26_1316,ProdFawcett_Revision2019,3.2.4,59.98175587585188,
,,,,66,0,66,0,,,,,,,,,,,,,1260.4500643776846,None,,,,,,,,,,,,,,,,,,,,,,sound,B_aloud,66,295,1257.4996712695283,None,1257.4996712695283,None,1257.4996712695283,None,2,1.7758114075986668,1257.4996712695283,None,1259.3228976177052,None,1259.3228976177052,None,1259.8498640915495,None,1259.8498640915495,None,1259.8498640915495,None,f,0.5533068980439566,1259.8498640915495,None,sing8,001,2019_Oct_26_1316,ProdFawcett_Revision2019,3.2.4,59.98175587585188,
,,,,67,0,67,0,,,,,,,,,,,,,1264.0843537351466,None,,,,,,,,,,,,,,,,,,,,,,equipment,C_sing,67,116,1260.9724693661847,None,1260.9724693661847,None,1260.9724693661847,None,6,1.3192212477442808,1260.9724693661847,None,1262.3506913603342,None,1262.3506913603342,None,1262.8728686944232,None,1262.8728686944232,None,1262.8728686944232,None,r,1.1784907010151073,1262.8728686944232,None,sing8,001,2019_Oct_26_1316,ProdFawcett_Revision2019,3.2.4,59.98175587585188,
,,,,68,0,68,0,,,,,,,,,,,,,1267.252153697831,None,,,,,,,,,,,,,,,,,,,,,,route,A_silent,68,267,1264.6012318840658,None,1264.6012318840658,None,1264.6012318840658,None,6,1.4340551719942596,1264.6012318840658,None,1266.0750905019522,None,1266.0750905019522,None,1266.6019176463305,None,1266.6019176463305,None,1266.6019176463305,None,r,0.6008851153892465,1266.6019176463305,None,sing8,001,2019_Oct_26_1316,ProdFawcett_Revision2019,3.2.4,59.98175587585188,
,,,,69,0,69,0,,,,,,,,,,,,,1270.604969832697,None,,,,,,,,,,,,,,,,,,,,,,guard,D_new,69,145,1267.76953442808,None,1267.76953442808,None,1267.76953442808,None,6,1.625696647388395,1267.76953442808,None,1269.4406823412282,None,1269.4406823412282,None,1269.9562524102803,None,1269.9562524102803,None,1269.9562524102803,None,r,0.6225380979012698,1269.9562524102803,None,sing8,001,2019_Oct_26_1316,ProdFawcett_Revision2019,3.2.4,59.98175587585188,
,,,,70,0,70,0,,,,,,,,,,,,,1274.3043465820665,None,,,,,,,,,,,,,,,,,,,,,,strength,D_new,70,310,1271.12212415252,None,1271.12212415252,None,1271.12212415252,None,3,1.6890060334699228,1271.12212415252,None,1272.8595742364996,None,1272.8595742364996,None,1273.387269391067,None,1273.387269391067,None,1273.387269391067,None,f,0.8711220998957288,1273.387269391067,None,sing8,001,2019_Oct_26_1316,ProdFawcett_Revision2019,3.2.4,59.98175587585188,
,,,,71,0,71,0,,,,,,,,,,,,,1278.038687255088,None,,,,,,,,,,,,,,,,,,,,,,clean,B_aloud,71,51,1274.8215015239257,None,1274.8215015239257,None,1274.8215015239257,None,6,2.0610670523019508,1274.8215015239257,None,1276.938389313931,None,1276.938389313931,None,1277.4552668408433,None,1277.4552668408433,None,1277.4552668408433,None,r,0.5471412577026058,1277.4552668408433,None,sing8,001,2019_Oct_26_1316,ProdFawcett_Revision2019,3.2.4,59.98175587585188,
,,,,72,0,72,0,,,,,,,,,,,,,1282.9234984760988,None,,,,,,,,,,,,,,,,,,,,,,population,D_new,72,227,1278.5585056291602,None,1278.5585056291602,None,1278.5585056291602,None,1,1.5079887416795827,1278.5585056291602,None,1280.1227131927735,None,1280.1227131927735,None,1280.6397521303734,None,1280.6397521303734,None,1280.6397521303734,None,n,2.250637245742837,1280.6397521303734,None,sing8,001,2019_Oct_26_1316,ProdFawcett_Revision2019,3.2.4,59.98175587585188,
,,,,73,0,73,0,,,,,,,,,,,,,1287.9752229893638,None,,,,,,,,,,,,,,,,,,,,,,agreement,A_silent,73,5,1283.4412468122318,None,1283.4412468122318,None,1283.4412468122318,None,3,3.6484742178290617,1283.4412468122318,None,1287.1415714996692,None,1287.1415714996692,None,1287.6586514897062,None,1287.6586514897062,None,1287.6586514897062,None,f,0.2789649810292758,1287.6586514897062,None,sing8,001,2019_Oct_26_1316,ProdFawcett_Revision2019,3.2.4,59.98175587585188,
,,,,74,0,74,0,,,,,,,,,,,,,1290.9093086396751,None,,,,,,,,,,,,,,,,,,,,,,voice,A_silent,74,348,1288.4922927163134,None,1288.4922927163134,None,1288.4922927163134,None,1,1.4292025875474792,1288.4922927163134,None,1289.975750450947,None,1289.975750450947,None,1290.4925744852808,None,1290.4925744852808,None,1290.4925744852808,None,n,0.3732562045333907,1290.4925744852808,None,sing8,001,2019_Oct_26_1316,ProdFawcett_Revision2019,3.2.4,59.98175587585188,
,,,,75,0,75,0,,,,,,,,,,,,,1294.960575978097,None,,,,,,,,,,,,,,,,,,,,,,solution,D_new,75,294,1291.427534987888,None,1291.427534987888,None,1291.427534987888,None,2,2.509999689005781,1291.427534987888,None,1293.9936490016698,None,1293.9936490016698,None,1294.5103971511999,None,1294.5103971511999,None,1294.5103971511999,None,f,0.4028015176882036,1294.5103971511999,None,sing8,001,2019_Oct_26_1316,ProdFawcett_Revision2019,3.2.4,59.98175587585188,
,,,,76,0,76,0,,,,,,,,,,,,,1298.4784515145875,None,,,,,,,,,,,,,,,,,,,,,,theme,B_aloud,76,326,1295.4775642221794,None,1295.4775642221794,None,1295.4775642221794,None,5,1.6514775766409002,1295.4775642221794,None,1297.1839991913876,None,1297.1839991913876,None,1297.7114290601457,None,1297.7114290601457,None,1297.7114290601457,None,r,0.7295866766362451,1297.7114290601457,None,sing8,001,2019_Oct_26_1316,ProdFawcett_Revision2019,3.2.4,59.98175587585188,
,,,,77,0,77,0,,,,,,,,,,,,,1304.6802842570178,None,,,,,,,,,,,,,,,,,,,,,,motion,B_aloud,77,194,1298.9965923368873,None,1298.9965923368873,None,1298.9965923368873,None,3,4.812282142200274,1298.9965923368873,None,1303.8497527523723,None,1303.8497527523723,None,1304.3675110406184,None,1304.3675110406184,None,1304.3675110406184,None,f,0.2650942339969333,1304.3675110406184,None,sing8,001,2019_Oct_26_1316,ProdFawcett_Revision2019,3.2.4,59.98175587585188,
,,,,78,0,78,0,,,,,,,,,,,,,1307.748025440087,None,,,,,,,,,,,,,,,,,,,,,,course,D_new,78,74,1305.198508428206,None,1305.198508428206,None,1305.198508428206,None,1,1.753960626985645,1305.198508428206,None,1307.0142902904772,None,1307.0142902904772,None,1307.531185233558,None,1307.531185233558,None,1307.531185233558,None,n,0.18141444300999865,1307.531185233558,None,sing8,001,2019_Oct_26_1316,ProdFawcett_Revision2019,3.2.4,59.98175587585188,
,,,,79,0,79,0,,,,,,,,,,,,,1310.5489848852449,None,,,,,,,,,,,,,,,,,,,,,,quick,C_sing,79,248,1308.2692971325596,None,1308.2692971325596,None,1308.2692971325596,None,6,1.3233622566331178,1308.2692971325596,None,1309.6486197673657,None,1309.6486197673657,None,1310.1679548423272,None,1310.1679548423272,None,1310.1679548423272,None,r,0.3366430304304231,1310.1679548423272,None,sing8,001,2019_Oct_26_1316,ProdFawcett_Revision2019,3.2.4,59.98175587585188,
,,,,80,0,80,0,,,,,,,,,,,,,1313.183057784423,None,,,,,,,,,,,,,,,,,,,,,,business,B_aloud,80,38,1311.0673583380121,None,1311.0673583380121,None,1311.0673583380121,None,6,1.1735109162109438,1311.0673583380121,None,1312.2993500031007,None,1312.2993500031007,None,1312.8162353051011,None,1312.8162353051011,None,1312.8162353051011,None,r,0.31988399574765936,1312.8162353051011,None,sing8,001,2019_Oct_26_1316,ProdFawcett_Revision2019,3.2.4,59.98175587585188,
,,,,81,0,81,0,,,,,,,,,,,,,1317.5677206568362,None,,,,,,,,,,,,,,,,,,,,,,surface,B_aloud,81,316,1313.7014551844331,None,1313.7014551844331,None,1313.7014551844331,None,2,2.994509547803318,1313.7014551844331,None,1316.7410328419646,None,1316.7410328419646,None,1317.2676226907934,None,1317.2676226907934,None,1317.2676226907934,None,f,0.26060054736444727,1317.2676226907934,None,sing8,001,2019_Oct_26_1316,ProdFawcett_Revision2019,3.2.4,59.98175587585188,
,,,,82,0,82,0,,,,,,,,,,,,,1321.1021521428193,None,,,,,,,,,,,,,,,,,,,,,,dispute,B_aloud,82,99,1318.0852618647914,None,1318.0852618647914,None,1318.0852618647914,None,6,1.9625524040602613,1318.0852618647914,None,1320.1017649437126,None,1320.1017649437126,None,1320.6187248864735,None,1320.6187248864735,None,1320.6187248864735,None,r,0.43693692854139954,1320.6187248864735,None,sing8,001,2019_Oct_26_1316,ProdFawcett_Revision2019,3.2.4,59.98175587585188,
,,,,83,0,83,0,,,,,,,,,,,,,1324.103905890399,None,,,,,,,,,,,,,,,,,,,,,,court,D_new,83,75,1321.6195558873005,None,1321.6195558873005,None,1321.6195558873005,None,6,1.6121145114011597,1321.6195558873005,None,1323.2860860235232,None,1323.2860860235232,None,1323.8029887416924,None,1323.8029887416924,None,1323.8029887416924,None,r,0.26083722087787464,1323.8029887416924,None,sing8,001,2019_Oct_26_1316,ProdFawcett_Revision2019,3.2.4,59.98175587585188,
,,,,84,0,84,0,,,,,,,,,,,,,1328.2375723082805,None,,,,,,,,,,,,,,,,,,,,,,position,D_new,84,229,1324.6214243950963,None,1324.6214243950963,None,1324.6214243950963,None,4,2.7225318778364453,1324.6214243950963,None,1327.3932403433428,None,1327.3932403433428,None,1327.9207255707006,None,1327.9207255707006,None,1327.9207255707006,None,f,0.27881538844667375,1327.9207255707006,None,sing8,001,2019_Oct_26_1316,ProdFawcett_Revision2019,3.2.4,59.98175587585188,
,,,,85,0,85,0,,,,,,,,,,,,,1331.5887093363272,None,,,,,,,,,,,,,,,,,,,,,,material,C_sing,85,182,1328.7556154755293,None,1328.7556154755293,None,1328.7556154755293,None,4,1.9319160913000815,1328.7556154755293,None,1330.7384415624838,None,1330.7384415624838,None,1331.2551545686438,None,1331.2551545686438,None,1331.2551545686438,None,f,0.29594513901975006,1331.2551545686438,None,sing8,001,2019_Oct_26_1316,ProdFawcett_Revision2019,3.2.4,59.98175587585188,
,,,,86,0,86,0,,,,,,,,,,,,,1335.7733815388347,None,,,,,,,,,,,,,,,,,,,,,,report,D_new,86,259,1332.1064806866925,None,1332.1064806866925,None,1332.1064806866925,None,2,1.9885877340275329,1332.1064806866925,None,1334.1445428251463,None,1334.1445428251463,None,1334.6728662063833,None,1334.6728662063833,None,1334.6728662063833,None,f,1.0539652920269873,1334.6728662063833,None,sing8,001,2019_Oct_26_1316,ProdFawcett_Revision2019,3.2.4,59.98175587585188,
,,,,87,0,87,0,,,,,,,,,,,,,1338.707575418317,None,,,,,,,,,,,,,,,,,,,,,,alert,C_sing,87,6,1336.2906195185788,None,1336.2906195185788,None,1336.2906195185788,None,6,1.4681249611312523,1336.2906195185788,None,1337.8238642159558,None,1337.8238642159558,None,1338.3407243266702,None,1338.3407243266702,None,1338.3407243266702,None,r,0.3220292965124827,1338.3407243266702,None,sing8,001,2019_Oct_26_1316,ProdFawcett_Revision2019,3.2.4,59.98175587585188,
,,,,88,0,88,0,,,,,,,,,,,,,1341.4918031971029,None,,,,,,,,,,,,,,,,,,,,,,heavy,A_silent,88,151,1339.2246902407205,None,1339.2246902407205,None,1339.2246902407205,None,6,1.366252410254674,1339.2246902407205,None,1340.6415410213522,None,1340.6415410213522,None,1341.158232879272,None,1341.158232879272,None,1341.158232879272,None,r,0.28826180257601663,1341.158232879272,None,sing8,001,2019_Oct_26_1316,ProdFawcett_Revision2019,3.2.4,59.98175587585188,
,,,,89,0,89,0,,,,,,,,,,,,,1345.6597900727647,None,,,,,,,,,,,,,,,,,,,,,,front,D_new,89,134,1342.0107171736017,None,1342.0107171736017,None,1342.0107171736017,None,2,2.356290663679829,1342.0107171736017,None,1344.4260729613889,None,1344.4260729613889,None,1344.9428755364788,None,1344.9428755364788,None,1344.9428755364788,None,f,0.6713606394187082,1344.9428755364788,None,sing8,001,2019_Oct_26_1316,ProdFawcett_Revision2019,3.2.4,59.98175587585188,
,,,,90,0,90,0,,,,,,,,,,,,,1348.3105793991417,None,,,,,,,,,,,,,,,,,,,,,,defeat,B_aloud,90,88,1346.1773421658436,None,1346.1773421658436,None,1346.1773421658436,None,6,1.228817565483041,1346.1773421658436,None,1347.4602730608894,None,1347.4602730608894,None,1347.9770914971596,None,1347.9770914971596,None,1347.9770914971596,None,r,0.2932338122918736,1347.9770914971596,None,sing8,001,2019_Oct_26_1316,ProdFawcett_Revision2019,3.2.4,59.98175587585188,
,,,,91,0,91,0,,,,,,,,,,,,,1351.1780322821578,None,,,,,,,,,,,,,,,,,,,,,,second,B_aloud,91,278,1348.8284163712233,None,1348.8284163712233,None,1348.8284163712233,None,6,1.4496771785779856,1348.8284163712233,None,1350.327870249428,None,1350.327870249428,None,1350.8445751694962,None,1350.8445751694962,None,1350.8445751694962,None,r,0.29755178204504773,1350.8445751694962,None,sing8,001,2019_Oct_26_1316,ProdFawcett_Revision2019,3.2.4,59.98175587585188,
,,,,92,0,92,0,,,,,,,,,,,,,1354.712430490763,None,,,,,,,,,,,,,,,,,,,,,,worker,D_new,92,356,1351.6963923617732,None,1351.6963923617732,None,1351.6963923617732,None,5,2.1494638303120155,1351.6963923617732,None,1353.8844355290057,None,1353.8844355290057,None,1354.4125163276622,None,1354.4125163276622,None,1354.4125163276622,None,f,0.2578988617169671,1354.4125163276622,None,sing8,001,2019_Oct_26_1316,ProdFawcett_Revision2019,3.2.4,59.98175587585188,
,,,,93,0,93,0,,,,,,,,,,,,,1357.3466875038866,None,,,,,,,,,,,,,,,,,,,,,,congress,C_sing,93,67,1355.2292706972803,None,1355.2292706972803,None,1355.2292706972803,None,6,1.192844747158233,1355.2292706972803,None,1356.4797717235924,None,1356.4797717235924,None,1356.9966884368914,None,1356.9966884368914,None,1356.9966884368914,None,r,0.30488088575657457,1356.9966884368914,None,sing8,001,2019_Oct_26_1316,ProdFawcett_Revision2019,3.2.4,59.98175587585188,
,,,,94,0,94,0,,,,,,,,,,,,,1360.39769577657,None,,,,,,,,,,,,,,,,,,,,,,birth,D_new,94,22,1357.8643842134625,None,1357.8643842134625,None,1357.8643842134625,None,2,1.6612645394052379,1357.8643842134625,None,1359.5806210735755,None,1359.5806210735755,None,1360.097546183999,None,1360.097546183999,None,1360.097546183999,None,f,0.2519179573573638,1360.097546183999,None,sing8,001,2019_Oct_26_1316,ProdFawcett_Revision2019,3.2.4,59.98175587585188,
,,,,95,0,95,0,,,,,,,,,,,,,1363.0151536356425,None,,,,,,,,,,,,,,,,,,,,,,close,D_new,95,53,1360.9154092803365,None,1360.9154092803365,None,1360.9154092803365,None,1,1.2018884120334405,1360.9154092803365,None,1362.1813833426568,None,1362.1813833426568,None,1362.6982537164877,None,1362.6982537164877,None,1362.6982537164877,None,n,0.2756602599984035,1362.6982537164877,None,sing8,001,2019_Oct_26_1316,ProdFawcett_Revision2019,3.2.4,59.98175587585188,
,,,,96,0,96,0,,,,,,,,,,,,,1365.7159286558453,None,,,,,,,,,,,,,,,,,,,,,,bureau,D_new,96,37,1363.5333040990226,None,1363.5333040990226,None,1363.5333040990226,None,1,1.3198305031983182,1363.5333040990226,None,1364.9156537289382,None,1364.9156537289382,None,1365.432568576216,None,1365.432568576216,None,1365.432568576216,None,n,0.24480468992260285,1365.432568576216,None,sing8,001,2019_Oct_26_1316,ProdFawcett_Revision2019,3.2.4,59.98175587585188,
,,,,97,0,97,0,,,,,,,,,,,,,1369.8839251726167,None,,,,,,,,,,,,,,,,,,,,,,order,D_new,97,207,1366.234354979155,None,1366.234354979155,None,1366.234354979155,None,1,2.8269216893822886,1366.234354979155,None,1369.1170118803275,None,1369.1170118803275,None,1369.6338564408943,None,1369.6338564408943,None,1369.6338564408943,None,n,0.211308079859009,1369.6338564408943,None,sing8,001,2019_Oct_26_1316,ProdFawcett_Revision2019,3.2.4,59.98175587585188,
,,,,98,0,98,0,,,,,,,,,,,,,1376.2190840952971,None,,,,,,,,,,,,,,,,,,,,,,distance,D_new,98,100,1370.4023570939898,None,1370.4023570939898,None,1370.4023570939898,None,2,5.0502637308090925,1370.4023570939898,None,1375.502182932134,None,1375.502182932134,None,1376.0190408658236,None,1376.0190408658236,None,1376.0190408658236,None,f,0.1615550164715387,1376.0190408658236,None,sing8,001,2019_Oct_26_1316,ProdFawcett_Revision2019,3.2.4,59.98175587585188,
,,,,99,0,99,0,,,,,,,,,,,,,1379.936892766069,None,,,,,,,,,,,,,,,,,,,,,,mayor,A_silent,99,183,1376.7361703054048,None,1376.7361703054048,None,1376.7361703054048,None,1,2.5005594949470833,1376.7361703054048,None,1379.2867898239638,None,1379.2867898239638,None,1379.8036670398724,None,1379.8036670398724,None,1379.8036670398724,None,n,0.09667257571709342,1379.8036670398724,None,sing8,001,2019_Oct_26_1316,ProdFawcett_Revision2019,3.2.4,59.98175587585188,
,,,,100,0,100,0,,,,,,,,,,,,,1382.9711737264588,None,,,,,,,,,,,,,,,,,,,,,,scene,B_aloud,100,273,1380.4539167755283,None,1380.4539167755283,None,1380.4539167755283,None,6,1.5430652484938037,1380.4539167755283,None,1382.0542697642522,None,1382.0542697642522,None,1382.5712206879398,None,1382.5712206879398,None,1382.5712206879398,None,r,0.3612225539400242,1382.5712206879398,None,sing8,001,2019_Oct_26_1316,ProdFawcett_Revision2019,3.2.4,59.98175587585188,
,,,,101,0,101,0,,,,,,,,,,,,,1387.2058487279864,None,,,,,,,,,,,,,,,,,,,,,,debate,D_new,101,87,1383.4893344529555,None,1383.4893344529555,None,1383.4893344529555,None,5,2.954650743311504,1383.4893344529555,None,1386.5058468619827,None,1386.5058468619827,None,1387.0224192946334,None,1387.0224192946334,None,1387.0224192946334,None,f,0.14983236920670606,1387.0224192946334,None,sing8,001,2019_Oct_26_1316,ProdFawcett_Revision2019,3.2.4,59.98175587585188,
,,,,102,0,102,0,,,,,,,,,,,,,1389.7566389873682,None,,,,,,,,,,,,,,,,,,,,,,trend,B_aloud,102,340,1387.7232916588837,None,1387.7232916588837,None,1387.7232916588837,None,6,1.216688436892582,1387.7232916588837,None,1388.979011320509,None,1388.979011320509,None,1389.5065615475469,None,1389.5065615475469,None,1389.5065615475469,None,r,0.20951701188459992,1389.5065615475469,None,sing8,001,2019_Oct_26_1316,ProdFawcett_Revision2019,3.2.4,59.98175587585188,
,,,,103,0,103,0,,,,,,,,,,,,,1393.374479691498,None,,,,,,,,,,,,,,,,,,,,,,center,D_new,103,44,1390.2800441624713,None,1390.2800441624713,None,1390.2800441624713,None,3,1.6755828202003613,1390.2800441624713,None,1392.007374510169,None,1392.007374510169,None,1392.5243360079767,None,1392.5243360079767,None,1392.5243360079767,None,f,0.8153302855207585,1392.5243360079767,None,sing8,001,2019_Oct_26_1316,ProdFawcett_Revision2019,3.2.4,59.98175587585188,
,,,,104,0,104,0,,,,,,,,,,,,,1396.6588810101384,None,,,,,,,,,,,,,,,,,,,,,,suspect,D_new,104,318,1393.8923294146953,None,1393.8923294146953,None,1393.8923294146953,None,2,1.9670333395479247,1393.8923294146953,None,1395.9085821359768,None,1395.9085821359768,None,1396.4255495428224,None,1396.4255495428224,None,1396.4255495428224,None,f,0.1857274367066566,1396.4255495428224,None,sing8,001,2019_Oct_26_1316,ProdFawcett_Revision2019,3.2.4,59.98175587585188,
,,,,105,0,105,0,,,,,,,,,,,,,1399.2763631274574,None,,,,,,,,,,,,,,,,,,,,,,century,D_new,105,45,1397.1773602040194,None,1397.1773602040194,None,1397.1773602040194,None,1,1.3541770852752961,1397.1773602040194,None,1398.5814197300642,None,1398.5814197300642,None,1399.109505504748,None,1399.109505504748,None,1399.109505504748,None,n,0.1263236300146673,1399.109505504748,None,sing8,001,2019_Oct_26_1316,ProdFawcett_Revision2019,3.2.4,59.98175587585188,
,,,,106,0,106,0,,,,,,,,,,,,,1403.2275667102076,None,,,,,,,,,,,,,,,,,,,,,,drink,D_new,106,105,1399.7934104621527,None,1399.7934104621527,None,1399.7934104621527,None,5,1.713614169304492,1399.7934104621527,None,1401.550412390381,None,1401.550412390381,None,1402.0771309945849,None,1402.0771309945849,None,1402.0771309945849,None,r,1.110004665068118,1402.0771309945849,None,sing8,001,2019_Oct_26_1316,ProdFawcett_Revision2019,3.2.4,59.98175587585188,
,,,,107,0,107,0,,,,,,,,,,,,,1407.8623225726187,None,,,,,,,,,,,,,,,,,,,,,,state,D_new,107,303,1403.7445552652935,None,1403.7445552652935,None,1403.7445552652935,None,2,3.2504696149844676,1403.7445552652935,None,1407.0454335385875,None,1407.0454335385875,None,1407.562244510802,None,1407.562244510802,None,1407.562244510802,None,f,0.25709056414780207,1407.562244510802,None,sing8,001,2019_Oct_26_1316,ProdFawcett_Revision2019,3.2.4,59.98175587585188,
,,,,108,0,108,0,,,,,,,,,,,,,1412.6304857871437,None,,,,,,,,,,,,,,,,,,,,,,hunger,D_new,108,155,1408.3803598308295,None,1408.3803598308295,None,1408.3803598308295,None,1,3.0621337936026976,1408.3803598308295,None,1411.4968143932347,None,1411.4968143932347,None,1412.0135525906517,None,1412.0135525906517,None,1412.0135525906517,None,n,0.5810011196299456,1412.0135525906517,None,sing8,001,2019_Oct_26_1316,ProdFawcett_Revision2019,3.2.4,59.98175587585188,
,,,,109,0,109,0,,,,,,,,,,,,,1415.7646871306933,None,,,,,,,,,,,,,,,,,,,,,,finish,D_new,109,130,1413.1483286682924,None,1413.1483286682924,None,1413.1483286682924,None,1,1.8942106736358255,1413.1483286682924,None,1415.0978211109177,None,1415.0978211109177,None,1415.614640791202,None,1415.614640791202,None,1415.614640791202,None,n,0.10822230516350828,1415.614640791202,None,sing8,001,2019_Oct_26_1316,ProdFawcett_Revision2019,3.2.4,59.98175587585188,
,,,,110,0,110,0,,,,,,,,,,,,,1418.4989873732557,None,,,,,,,,,,,,,,,,,,,,,,childhood,D_new,110,49,1416.284316725767,None,1416.284316725767,None,1416.284316725767,None,1,1.4301788269076496,1416.284316725767,None,1417.765412079374,None,1417.765412079374,None,1418.2820656838885,None,1418.2820656838885,None,1418.2820656838885,None,n,0.1679856316477526,1418.2820656838885,None,sing8,001,2019_Oct_26_1316,ProdFawcett_Revision2019,3.2.4,59.98175587585188,
,,,,111,0,111,0,,,,,,,,,,,,,1423.583868259011,None,,,,,,,,,,,,,,,,,,,,,,cover,A_silent,111,77,1419.0163052808493,None,1419.0163052808493,None,1419.0163052808493,None,1,3.8816053990158252,1419.0163052808493,None,1422.9382372333203,None,1422.9382372333203,None,1423.4670659948897,None,1423.4670659948897,None,1423.4670659948897,None,n,0.07065528392558917,1423.4670659948897,None,sing8,001,2019_Oct_26_1316,ProdFawcett_Revision2019,3.2.4,59.98175587585188,
,,,,112,0,112,0,,,,,,,,,,,,,1427.8352074392023,None,,,,,,,,,,,,,,,,,,,,,,owner,A_silent,112,208,1424.101896809123,None,1424.101896809123,None,1424.101896809123,None,2,2.9797260060731787,1424.101896809123,None,1427.134952416498,None,1427.134952416498,None,1427.6518706848437,None,1427.6518706848437,None,1427.6518706848437,None,f,0.14209025315358303,1427.6518706848437,None,sing8,001,2019_Oct_26_1316,ProdFawcett_Revision2019,3.2.4,59.98175587585188,
,,,,113,0,113,0,,,,,,,,,,,,,1432.0530549853866,None,,,,,,,,,,,,,,,,,,,,,,instrument,D_new,113,163,1428.3542753623333,None,1428.3542753623333,None,1428.3542753623333,None,2,2.9830241960589774,1428.3542753623333,None,1431.3862098028185,None,1431.3862098028185,None,1431.9029990047857,None,1431.9029990047857,None,1431.9029990047857,None,f,0.11439820862142369,1431.9029990047857,None,sing8,001,2019_Oct_26_1316,ProdFawcett_Revision2019,3.2.4,59.98175587585188,
,,,,114,0,114,0,,,,,,,,,,,,,1435.220799278468,None,,,,,,,,,,,,,,,,,,,,,,crowd,A_silent,114,81,1432.570306649257,None,1432.570306649257,None,1432.570306649257,None,5,1.9270547987835016,1432.570306649257,None,1434.543957827962,None,1434.543957827962,None,1435.0707743982202,None,1435.0707743982202,None,1435.0707743982202,None,f,0.11445947625907138,1435.0707743982202,None,sing8,001,2019_Oct_26_1316,ProdFawcett_Revision2019,3.2.4,59.98175587585188,
,,,,115,0,115,0,,,,,,,,,,,,,1438.1217335323745,None,,,,,,,,,,,,,,,,,,,,,,beginning,D_new,115,19,1435.740403371281,None,1435.740403371281,None,1435.740403371281,None,1,1.724859115522122,1435.740403371281,None,1437.5214707345876,None,1437.5214707345876,None,1438.0383491945104,None,1438.0383491945104,None,1438.0383491945104,None,n,0.03452665300574154,1438.0383491945104,None,sing8,001,2019_Oct_26_1316,ProdFawcett_Revision2019,3.2.4,59.98175587585188,
,,,,116,0,116,0,,,,,,,,,,,,,1442.3061923866335,None,,,,,,,,,,,,,,,,,,,,,,tough,B_aloud,116,333,1438.639342850045,None,1438.639342850045,None,1438.639342850045,None,6,2.690010574122425,1438.639342850045,None,1441.3893313429144,None,1441.3893313429144,None,1441.9062175778963,None,1441.9062175778963,None,1441.9062175778963,None,r,0.3591481619805563,1441.9062175778963,None,sing8,001,2019_Oct_26_1316,ProdFawcett_Revision2019,3.2.4,59.98175587585188,
,,,,117,0,117,0,,,,,,,,,,,,,1447.3411849225522,None,,,,,,,,,,,,,,,,,,,,,,silence,B_aloud,117,288,1442.8230640044785,None,1442.8230640044785,None,1442.8230640044785,None,6,2.5854360266239382,1442.8230640044785,None,1445.457155252836,None,1445.457155252836,None,1445.9740601480298,None,1445.9740601480298,None,1445.9740601480298,None,r,1.3228531442582607,1445.9740601480298,None,sing8,001,2019_Oct_26_1316,ProdFawcett_Revision2019,3.2.4,59.98175587585188,
,,,,118,0,118,0,,,,,,,,,,,,,1451.4924056105083,None,,,,,,,,,,,,,,,,,,,,,,rapid,D_new,118,252,1447.8582729987102,None,1447.8582729987102,None,1447.8582729987102,None,3,2.7341207936697174,1447.8582729987102,None,1450.6422230515745,None,1450.6422230515745,None,1451.1589690240799,None,1451.1589690240799,None,1451.1589690240799,None,f,0.2896084468520712,1451.1589690240799,None,sing8,001,2019_Oct_26_1316,ProdFawcett_Revision2019,3.2.4,59.98175587585188,
,,,,119,0,119,0,,,,,,,,,,,,,1454.1433296012983,None,,,,,,,,,,,,,,,,,,,,,,entrance,A_silent,119,115,1452.0113606394152,None,1452.0113606394152,None,1452.0113606394152,None,1,1.3326432170288172,1452.0113606394152,None,1453.4097776326525,None,1453.4097776326525,None,1453.926599800965,None,1453.926599800965,None,1453.926599800965,None,n,0.16935995520907454,1453.926599800965,None,sing8,001,2019_Oct_26_1316,ProdFawcett_Revision2019,3.2.4,59.98175587585188,
,,,,120,0,120,0,,,,,,,,,,,,,1456.9608851153753,None,,,,,,,,,,,,,,,,,,,,,,fashion,D_new,120,125,1454.6612810225924,None,1454.6612810225924,None,1454.6612810225924,None,1,1.4752774149237666,1454.6612810225924,None,1456.1816340113292,None,1456.1816340113292,None,1456.7106969583838,None,1456.7106969583838,None,1456.7106969583838,None,n,0.20935062514035963,1456.7106969583838,None,sing8,001,2019_Oct_26_1316,ProdFawcett_Revision2019,3.2.4,59.98175587585188,
,,,,121,0,121,0,,,,,,,,,,,,,1460.278448093566,None,,,,,,,,,,,,,,,,,,,,,,literature,D_new,121,173,1457.4802954531333,None,1457.4802954531333,None,1457.4802954531333,None,1,1.967372022132622,1457.4802954531333,None,1459.511561858555,None,1459.511561858555,None,1460.029352802143,None,1460.029352802143,None,1460.029352802143,None,n,0.2022476208221633,1460.029352802143,None,sing8,001,2019_Oct_26_1316,ProdFawcett_Revision2019,3.2.4,59.98175587585188,
,,,,122,0,122,0,,,,,,,,,,,,,1466.080368538911,None,,,,,,,,,,,,,,,,,,,,,,burden,C_sing,122,36,1460.797798096668,None,1460.797798096668,None,1460.797798096668,None,5,1.8420103253156412,1460.797798096668,None,1462.6842038315663,None,1462.6842038315663,None,1463.2126503700856,None,1463.2126503700856,None,1463.2126503700856,None,f,2.827228338603163,1463.2126503700856,None,sing8,001,2019_Oct_26_1316,ProdFawcett_Revision2019,3.2.4,59.98175587585188,
,,,,123,0,123,0,,,,,,,,,,,,,1471.2486521117098,None,,,,,,,,,,,,,,,,,,,,,,place,D_new,123,222,1466.597419294645,None,1466.597419294645,None,1466.597419294645,None,4,3.321616284112679,1466.597419294645,None,1469.9718013310921,None,1469.9718013310921,None,1470.4984238352918,None,1470.4984238352918,None,1470.4984238352918,None,f,0.7092943335301243,1470.4984238352918,None,sing8,001,2019_Oct_26_1316,ProdFawcett_Revision2019,3.2.4,59.98175587585188,
,,,,124,0,124,0,,,,,,,,,,,,,1474.8163929837756,None,,,,,,,,,,,,,,,,,,,,,,partner,C_sing,124,211,1471.7681796977122,None,1471.7681796977122,None,1471.7681796977122,None,5,2.11861448030686,1471.7681796977122,None,1473.9494184238429,None,1473.9494184238429,None,1474.4662206879293,None,1474.4662206879293,None,1474.4662206879293,None,f,0.31696896185167134,1474.4662206879293,None,sing8,001,2019_Oct_26_1316,ProdFawcett_Revision2019,3.2.4,59.98175587585188,
,,,,125,0,125,0,,,,,,,,,,,,,1480.88482957019,None,,,,,,,,,,,,,,,,,,,,,,cross,A_silent,125,80,1475.333332089329,None,1475.333332089329,None,1475.333332089329,None,4,3.9131859177723527,1475.333332089329,None,1479.301143248129,None,1479.301143248129,None,1479.8179644834308,None,1479.8179644834308,None,1479.8179644834308,None,f,1.028522423323011,1479.8179644834308,None,sing8,001,2019_Oct_26_1316,ProdFawcett_Revision2019,3.2.4,59.98175587585188,
,,,,126,0,126,0,,,,,,,,,,,,,1485.1029399141553,None,,,,,,,,,,,,,,,,,,,,,,health,D_new,126,149,1481.4016993220139,None,1481.4016993220139,None,1481.4016993220139,None,2,1.660974062338937,1481.4016993220139,None,1483.1189743111318,None,1483.1189743111318,None,1483.6357818622782,None,1483.6357818622782,None,1483.6357818622782,None,f,1.4343481370888185,1483.6357818622782,None,sing8,001,2019_Oct_26_1316,ProdFawcett_Revision2019,3.2.4,59.98175587585188,
,,,,127,0,127,0,,,,,,,,,,,,,1488.220588107244,None,,,,,,,,,,,,,,,,,,,,,,principal,B_aloud,127,236,1485.6223070224514,None,1485.6223070224514,None,1485.6223070224514,None,6,1.3201763388642576,1485.6223070224514,None,1487.003379672824,None,1487.003379672824,None,1487.5202329414606,None,1487.5202329414606,None,1487.5202329414606,None,r,0.6620653728896286,1487.5202329414606,None,sing8,001,2019_Oct_26_1316,ProdFawcett_Revision2019,3.2.4,59.98175587585188,
,,,,128,0,128,0,,,,,,,,,,,,,1491.1714085339336,None,,,,,,,,,,,,,,,,,,,,,,trail,B_aloud,128,336,1488.7383799838426,None,1488.7383799838426,None,1488.7383799838426,None,6,1.5561544442316517,1488.7383799838426,None,1490.3430086458975,None,1490.3430086458975,None,1490.874417179817,None,1490.874417179817,None,1490.874417179817,None,r,0.251398270833306,1490.874417179817,None,sing8,001,2019_Oct_26_1316,ProdFawcett_Revision2019,3.2.4,59.98175587585188,
,,,,129,0,129,0,,,,,,,,,,,,,1493.6721337936178,None,,,,,,,,,,,,,,,,,,,,,,breath,A_silent,129,27,1491.688358213607,None,1491.688358213607,None,1491.688358213607,None,6,1.1173972134129144,1491.688358213607,None,1492.8552012191503,None,1492.8552012191503,None,1493.3721415687178,None,1493.3721415687178,None,1493.3721415687178,None,r,0.25819369286182337,1493.3721415687178,None,sing8,001,2019_Oct_26_1316,ProdFawcett_Revision2019,3.2.4,59.98175587585188,
,,,,130,0,130,0,,,,,,,,,,,,,1496.4562993717846,None,,,,,,,,,,,,,,,,,,,,,,chief,D_new,130,48,1494.1892445730045,None,1494.1892445730045,None,1494.1892445730045,None,1,1.576670398702845,1494.1892445730045,None,1495.8228463021806,None,1495.8228463021806,None,1496.3396208869817,None,1496.3396208869817,None,1496.3396208869817,None,n,0.07456770542194135,1496.3396208869817,None,sing8,001,2019_Oct_26_1316,ProdFawcett_Revision2019,3.2.4,59.98175587585188,
,,,,131,0,131,0,,,,,,,,,,,,,1499.307197549293,None,,,,,,,,,,,,,,,,,,,,,,cousin,D_new,131,76,1496.974349381111,None,1496.974349381111,None,1496.974349381111,None,1,1.5754994713061024,1496.974349381111,None,1498.596236549114,None,1498.596236549114,None,1499.1237597188447,None,1499.1237597188447,None,1499.1237597188447,None,n,0.1375931454822421,1499.1237597188447,None,sing8,001,2019_Oct_26_1316,ProdFawcett_Revision2019,3.2.4,59.98175587585188,
,,,,132,0,132,0,,,,,,,,,,,,,1502.2747838527139,None,,,,,,,,,,,,,,,,,,,,,,height,C_sing,132,152,1499.825197487109,None,1499.825197487109,None,1499.825197487109,None,5,1.5567070971010253,1499.825197487109,None,1501.4412524102663,None,1501.4412524102663,None,1501.9581737886474,None,1501.9581737886474,None,1501.9581737886474,None,r,0.2790144305326976,1501.9581737886474,None,sing8,001,2019_Oct_26_1316,ProdFawcett_Revision2019,3.2.4,59.98175587585188,
,,,,133,0,133,0,,,,,,,,,,,,,1506.3428618523467,None,,,,,,,,,,,,,,,,,,,,,,display,D_new,133,98,1502.7932335012883,None,1502.7932335012883,None,1502.7932335012883,None,4,2.195772532199044,1502.7932335012883,None,1505.0423885053315,None,1505.0423885053315,None,1505.5592918455077,None,1505.5592918455077,None,1505.5592918455077,None,r,0.7500382534053642,1505.5592918455077,None,sing8,001,2019_Oct_26_1316,ProdFawcett_Revision2019,3.2.4,59.98175587585188,
,,,,134,0,134,0,,,,,,,,,,,,,1509.1769434596063,None,,,,,,,,,,,,,,,,,,,,,,victory,C_sing,134,346,1506.861167506373,None,1506.861167506373,None,1506.861167506373,None,6,1.3117282453167718,1506.861167506373,None,1508.2267338433885,None,1508.2267338433885,None,1508.7435535236727,None,1508.7435535236727,None,1508.7435535236727,None,r,0.3974000124144368,1508.7435535236727,None,sing8,001,2019_Oct_26_1316,ProdFawcett_Revision2019,3.2.4,59.98175587585188,
,,,,135,0,135,0,,,,,,,,,,,,,1513.461609442049,None,,,,,,,,,,,,,,,,,,,,,,society,D_new,135,293,1509.6952746159222,None,1509.6952746159222,None,1509.6952746159222,None,3,2.877622068801429,1509.6952746159222,None,1512.6281019468734,None,1512.6281019468734,None,1513.1451887790172,None,1513.1451887790172,None,1513.1451887790172,None,f,0.26735491695581004,1513.1451887790172,None,sing8,001,2019_Oct_26_1316,ProdFawcett_Revision2019,3.2.4,59.98175587585188,
,,,,136,0,136,0,,,,,,,,,,,,,1516.612567332224,None,,,,,,,,,,,,,,,,,,,,,,clear,D_new,136,52,1513.9783939789922,None,1513.9783939789922,None,1513.9783939789922,None,5,1.7379890526935924,1513.9783939789922,None,1515.779025004682,None,1515.779025004682,None,1516.2959199477627,None,1516.2959199477627,None,1516.2959199477627,None,f,0.2767425514757633,1516.2959199477627,None,sing8,001,2019_Oct_26_1316,ProdFawcett_Revision2019,3.2.4,59.98175587585188,
,,,,137,0,137,0,,,,,,,,,,,,,1520.8973231946293,None,,,,,,,,,,,,,,,,,,,,,,death,D_new,137,86,1517.1294140697864,None,1517.1294140697864,None,1517.1294140697864,None,2,2.267163649928989,1517.1294140697864,None,1519.4468672637886,None,1519.4468672637886,None,1519.963753187796,None,1519.963753187796,None,1519.963753187796,None,f,0.8884185482456814,1519.963753187796,None,sing8,001,2019_Oct_26_1316,ProdFawcett_Revision2019,3.2.4,59.98175587585188,
,,,,138,0,138,0,,,,,,,,,,,,,1523.8316137961228,None,,,,,,,,,,,,,,,,,,,,,,oxygen,C_sing,138,209,1521.4151505256013,None,1521.4151505256013,None,1521.4151505256013,None,6,1.3969776699668728,1521.4151505256013,None,1522.8645614853594,None,1522.8645614853594,None,1523.3814607824897,None,1523.3814607824897,None,1523.3814607824897,None,r,0.40714685575221665,1523.3814607824897,None,sing8,001,2019_Oct_26_1316,ProdFawcett_Revision2019,3.2.4,59.98175587585188,
,,,,139,0,139,0,,,,,,,,,,,,,1526.7658418859355,None,,,,,,,,,,,,,,,,,,,,,,school,C_sing,139,274,1524.3500889469578,None,1524.3500889469578,None,1524.3500889469578,None,6,1.5497092119185254,1524.3500889469578,None,1525.953895005281,None,1525.953895005281,None,1526.4822541518952,None,1526.4822541518952,None,1526.4822541518952,None,r,0.24221185545320623,1526.4822541518952,None,sing8,001,2019_Oct_26_1316,ProdFawcett_Revision2019,3.2.4,59.98175587585188,
,,,,140,0,140,0,,,,,,,,,,,,,1530.0000506935467,None,,,,,,,,,,,,,,,,,,,,,,broke,D_new,140,32,1527.2841602911067,None,1527.2841602911067,None,1527.2841602911067,None,3,2.02410835356568,1527.2841602911067,None,1529.3666448964505,None,1529.3666448964505,None,1529.8834739068407,None,1529.8834739068407,None,1529.8834739068407,None,f,0.07219630529289134,1529.8834739068407,None,sing8,001,2019_Oct_26_1316,ProdFawcett_Revision2019,3.2.4,59.98175587585188,
,,,,141,0,141,0,,,,,,,,,,,,,1533.5345014617196,None,,,,,,,,,,,,,,,,,,,,,,pancakes,D_new,141,210,1530.5181274491479,None,1530.5181274491479,None,1530.5181274491479,None,2,1.485319089377299,1530.5181274491479,None,1532.067407476512,None,1532.067407476512,None,1532.584739068232,None,1532.584739068232,None,1532.584739068232,None,f,0.9072768551413901,1532.584739068232,None,sing8,001,2019_Oct_26_1316,ProdFawcett_Revision2019,3.2.4,59.98175587585188,
,,,,142,0,142,0,,,,,,,,,,,,,1537.2856599490042,None,,,,,,,,,,,,,,,,,,,,,,expansion,D_new,142,123,1534.0512505442603,None,1534.0512505442603,None,1534.0512505442603,None,1,2.487939914164599,1534.0512505442603,None,1536.602229271637,None,1536.602229271637,None,1537.1192367979093,None,1537.1192367979093,None,1537.1192367979093,None,n,0.13229800335830078,1537.1192367979093,None,sing8,001,2019_Oct_26_1316,ProdFawcett_Revision2019,3.2.4,59.98175587585188,
,,,,143,0,143,0,,,,,,,,,,,,,1539.8198895938403,None,,,,,,,,,,,,,,,,,,,,,,machinery,D_new,143,175,1537.8050992100616,None,1537.8050992100616,None,1537.8050992100616,None,1,1.2703890651173424,1537.8050992100616,None,1539.1363391802006,None,1539.1363391802006,None,1539.6533053430321,None,1539.6533053430321,None,1539.6533053430321,None,n,0.11771910183597356,1539.6533053430321,None,sing8,001,2019_Oct_26_1316,ProdFawcett_Revision2019,3.2.4,59.98175587585188,
,,,,144,0,144,0,,,,,,,,,,,,,1543.3209140386898,None,,,,,,,,,,,,,,,,,,,,,,religion,D_new,144,258,1540.3378183118766,None,1540.3378183118766,None,1540.3378183118766,None,1,2.305297008162597,1540.3378183118766,None,1542.6941030664893,None,1542.6941030664893,None,1543.2211780804791,None,1543.2211780804791,None,1543.2211780804791,None,n,0.05372239844291471,1543.2211780804791,None,sing8,001,2019_Oct_26_1316,ProdFawcett_Revision2019,3.2.4,59.98175587585188,
,,,,145,0,145,0,,,,,,,,,,,,,1547.2056195185578,None,,,,,,,,,,,,,,,,,,,,,,carry,C_sing,145,43,1543.8381955588702,None,1543.8381955588702,None,1543.8381955588702,None,4,2.5645708154479507,1543.8381955588702,None,1546.455308204284,None,1546.455308204284,None,1546.971977358975,None,1546.971977358975,None,1546.971977358975,None,f,0.19905237294733524,1546.971977358975,None,sing8,001,2019_Oct_26_1316,ProdFawcett_Revision2019,3.2.4,59.98175587585188,
,,,,146,0,146,0,,,,,,,,,,,,,1549.8562110468338,None,,,,,,,,,,,,,,,,,,,,,,drama,A_silent,146,103,1547.7231532624282,None,1547.7231532624282,None,1547.7231532624282,None,4,1.335301673214417,1547.7231532624282,None,1549.1107501399529,None,1549.1107501399529,None,1549.6394765814475,None,1549.6394765814475,None,1549.6394765814475,None,f,0.17899234933429398,1549.6394765814475,None,sing8,001,2019_Oct_26_1316,ProdFawcett_Revision2019,3.2.4,59.98175587585188,
,,,,147,0,147,0,,,,,,,,,,,,,1553.3906064564362,None,,,,,,,,,,,,,,,,,,,,,,novel,A_silent,147,202,1550.3733003669768,None,1550.3733003669768,None,1550.3733003669768,None,2,2.036939727549907,1550.3733003669768,None,1552.4737227094593,None,1552.4737227094593,None,1552.9906294706743,None,1552.9906294706743,None,1552.9906294706743,None,f,0.3637021832400933,1552.9906294706743,None,sing8,001,2019_Oct_26_1316,ProdFawcett_Revision2019,3.2.4,59.98175587585188,
,,,,148,0,148,0,,,,,,,,,,,,,1556.5917630776821,None,,,,,,,,,,,,,,,,,,,,,,taste,D_new,148,322,1553.9074777632777,None,1553.9074777632777,None,1553.9074777632777,None,2,1.8466228151810355,1553.9074777632777,None,1555.7977931206115,None,1555.7977931206115,None,1556.3249869378633,None,1556.3249869378633,None,1556.3249869378633,None,f,0.22106363126658835,1556.3249869378633,None,sing8,001,2019_Oct_26_1316,ProdFawcett_Revision2019,3.2.4,59.98175587585188,
,,,,149,0,149,0,,,,,,,,,,,,,1560.059522609954,None,,,,,,,,,,,,,,,,,,,,,,watch,A_silent,149,351,1557.109003234451,None,1557.109003234451,None,1557.109003234451,None,3,2.077184176130686,1557.109003234451,None,1559.2424168066354,None,1559.2424168066354,None,1559.7594013186463,None,1559.7594013186463,None,1559.7594013186463,None,f,0.25911301860469393,1559.7594013186463,None,sing8,001,2019_Oct_26_1316,ProdFawcett_Revision2019,3.2.4,59.98175587585188,
,,,,150,0,150,0,,,,,,,,,,,,,1562.860300740198,None,,,,,,,,,,,,,,,,,,,,,,property,B_aloud,150,242,1560.5780319711484,None,1560.5780319711484,None,1560.5780319711484,None,5,1.407914100913331,1560.5780319711484,None,1562.0433700317226,None,1562.0433700317226,None,1562.5602820799977,None,1562.5602820799977,None,1562.5602820799977,None,f,0.26584188593551517,1562.5602820799977,None,sing8,001,2019_Oct_26_1316,ProdFawcett_Revision2019,3.2.4,59.98175587585188,
,,,,151,0,151,0,,,,,,,,,,,,,1565.5944924426149,None,,,,,,,,,,,,,,,,,,,,,,testimony,B_aloud,151,325,1563.3790299807151,None,1563.3790299807151,None,1563.3790299807151,None,6,1.3825620451534633,1563.3790299807151,None,1564.797012813331,None,1564.797012813331,None,1565.3112891086785,None,1565.3112891086785,None,1565.3112891086785,None,r,0.23422746782307513,1565.3112891086785,None,sing8,001,2019_Oct_26_1316,ProdFawcett_Revision2019,3.2.4,59.98175587585188,
,,,,152,0,152,0,,,,,,,,,,,,,1568.1785342414805,None,,,,,,,,,,,,,,,,,,,,,,citizen,C_sing,152,50,1566.1156779871962,None,1566.1156779871962,None,1566.1156779871962,None,6,1.3099079430103302,1566.1156779871962,None,1567.4783992660232,None,1567.4783992660232,None,1568.0000083970954,None,1568.0000083970954,None,1568.0000083970954,None,r,0.1455116004217416,1568.0000083970954,None,sing8,001,2019_Oct_26_1316,ProdFawcett_Revision2019,3.2.4,59.98175587585188,
,,,,153,0,153,0,,,,,,,,,,,,,1571.179460409272,None,,,,,,,,,,,,,,,,,,,,,,music,D_new,153,196,1568.69534117062,None,1568.69534117062,None,1568.69534117062,None,1,1.8502550226985477,1568.69534117062,None,1570.5866010449827,None,1570.5866010449827,None,1571.1129078808299,None,1571.1129078808299,None,1571.1129078808299,None,n,0.03267089629662223,1571.1129078808299,None,sing8,001,2019_Oct_26_1316,ProdFawcett_Revision2019,3.2.4,59.98175587585188,
