trials_fam.thisRepN,trials_fam.thisTrialN,trials_fam.thisN,trials_fam.thisIndex,trials_prc.thisRepN,trials_prc.thisTrialN,trials_prc.thisN,trials_prc.thisIndex,StudyLoop.thisRepN,StudyLoop.thisTrialN,StudyLoop.thisN,StudyLoop.thisIndex,TestLoop.thisRepN,TestLoop.thisTrialN,TestLoop.thisN,TestLoop.thisIndex,text_colortest.started,text_colortest.stopped,key_colortest.keys,key_colortest.rt,key_colortest.started,key_colortest.stopped,textCondition.started,textCondition.stopped,keyCondition.keys,keyCondition.rt,keyCondition.started,keyCondition.stopped,Condition_between,Condition_counterbal,keyWelcome.keys,keyWelcome.rt,keyWelcome.started,keyWelcome.stopped,welcome_a.started,welcome_a.stopped,welcome_b.started,welcome_b.stopped,welcome_c.started,welcome_c.stopped,welcome_d.started,welcome_d.stopped,welcome_e.started,welcome_e.stopped,welcome_f.started,welcome_f.stopped,key_resp_fam_inst.keys,key_resp_fam_inst.rt,key_resp_fam_inst.started,key_resp_fam_inst.stopped,fam_a.started,fam_a.stopped,fam_b.started,fam_b.stopped,fam_c.started,fam_c.stopped,fam_d.started,fam_d.stopped,fam_e.started,fam_e.stopped,fam_f.started,fam_f.stopped,text_famil.started,text_famil.stopped,textBlank500.started,textBlank500.stopped,key_resp_prc_inst.keys,key_resp_prc_inst.rt,key_resp_prc_inst.started,key_resp_prc_inst.stopped,prac_a.started,prac_a.stopped,prac_b.started,prac_b.stopped,prac_c.started,prac_c.stopped,prac_d.started,prac_d.stopped,prac_e.started,prac_e.stopped,prac_f.started,prac_f.stopped,text_prc_trial.started,text_prc_trial.stopped,key_resp_study_inst.keys,key_resp_study_inst.rt,key_resp_study_inst.started,key_resp_study_inst.stopped,crit_a.started,crit_a.stopped,crit_b.started,crit_b.stopped,crit_c.started,crit_c.stopped,crit_d.started,crit_d.stopped,crit_e.started,crit_e.stopped,crit_f.started,crit_f.stopped,study_word,study_num,study_order,study_type,word_color,textStudy.started,textStudy.stopped,keyStudy.keys,keyStudy.started,keyStudy.stopped,post_study.started,post_study.stopped,key_resp_post_study.keys,key_resp_post_study.rt,key_resp_post_study.started,key_resp_post_study.stopped,test_inst.started,test_inst.stopped,key_resp_test_inst.keys,key_resp_test_inst.rt,key_resp_test_inst.started,key_resp_test_inst.stopped,test_word,test_num,test_order,test_condition,old_new_test,word_color_test,textConf.started,textConf.stopped,Participant Response,textInput.started,textInput.stopped,keyResp.keys,keyResp.rt,keyResp.started,keyResp.stopped,textEnd.started,textEnd.stopped,participant,session,date,expName,psychopyVersion,frameRate,
,,,,,,,,,,,,,,,,21.560291399946436,None,y,1.0074744999874383,21.560291399946436,None,,,,,,,,,,,,,,,,,,,,,,,,,,,,,,,,,,,,,,,,,,,,,,,,,,,,,,,,,,,,,,,,,,,,,,,,,,,,,,,,,,,,,,,,,,,,,,,,,,,,,,,,,,,,,,,,,,,,,,100,001,2023_Sep_13_1255,ExactRep-v3-final,2021.2.3,59.496646448411724,
,,,,,,,,,,,,,,,,,,,,,,22.596142699941993,None,a,0.9161243999842554,22.596142699941993,None,,,,,,,,,,,,,,,,,,,,,,,,,,,,,,,,,,,,,,,,,,,,,,,,,,,,,,,,,,,,,,,,,,,,,,,,,,,,,,,,,,,,,,,,,,,,,,,,,,,,,,,,,,,,,,,,100,001,2023_Sep_13_1255,ExactRep-v3-final,2021.2.3,59.496646448411724,
,,,,,,,,,,,,,,,,,,,,,,,,,,,,colorfoils,a,space,260.89664509985596,33.6869643998798,None,,,,,,,,,,,,,,,,,,,,,,,,,,,,,,,,,,,,,,,,,,,,,,,,,,,,,,,,,,,,,,,,,,,,,,,,,,,,,,,,,,,,,,,,,,,,,,,,,,,,,,,,,,100,001,2023_Sep_13_1255,ExactRep-v3-final,2021.2.3,59.496646448411724,
,,,,,,,,,,,,,,,,,,,,,,,,,,,,,,,,,,23.716053099837154,None,23.716053099837154,None,23.716053099837154,None,23.716053099837154,None,23.716053099837154,None,23.716053099837154,None,space,17.801502499962226,304.7582685998641,None,,,,,,,,,,,,,,,,,,,,,,,,,,,,,,,,,,,,,,,,,,,,,,,,,,,,,,,,,,,,,,,,,,,,,,,,,,,,,,,,,,,,,,,,,,100,001,2023_Sep_13_1255,ExactRep-v3-final,2021.2.3,59.496646448411724,
0,0,0,0,,,,,,,,,,,,,,,,,,,,,,,,,,,,,,,,,,,,,,,,,,,,,,,294.76174909994006,None,294.76174909994006,None,294.76174909994006,None,294.76174909994006,None,294.76174909994006,None,294.76174909994006,None,322.6434012998361,None,324.63221569987945,None,,,,,,,,,,,,,,,,,,,,,,,,,,,,,,,,,,,,,,,,,,,,,,,,,,,,,,,,,,,,,,,,,,,,,,,,,,100,001,2023_Sep_13_1255,ExactRep-v3-final,2021.2.3,59.496646448411724,
1,0,1,0,,,,,,,,,,,,,,,,,,,,,,,,,,,,,,,,,,,,,,,,,,,,,,,,,,,,,,,,,,,325.1670654998161,None,327.1504528999794,None,,,,,,,,,,,,,,,,,,,,,,,,,,,,,,,,,,,,,,,,,,,,,,,,,,,,,,,,,,,,,,,,,,,,,,,,,,100,001,2023_Sep_13_1255,ExactRep-v3-final,2021.2.3,59.496646448411724,
2,0,2,0,,,,,,,,,,,,,,,,,,,,,,,,,,,,,,,,,,,,,,,,,,,,,,,,,,,,,,,,,,,327.65729309991,None,329.66946509992704,None,,,,,,,,,,,,,,,,,,,,,,,,,,,,,,,,,,,,,,,,,,,,,,,,,,,,,,,,,,,,,,,,,,,,,,,,,,100,001,2023_Sep_13_1255,ExactRep-v3-final,2021.2.3,59.496646448411724,
3,0,3,0,,,,,,,,,,,,,,,,,,,,,,,,,,,,,,,,,,,,,,,,,,,,,,,,,,,,,,,,,,,330.1702311998233,None,332.1721665998921,None,,,,,,,,,,,,,,,,,,,,,,,,,,,,,,,,,,,,,,,,,,,,,,,,,,,,,,,,,,,,,,,,,,,,,,,,,,100,001,2023_Sep_13_1255,ExactRep-v3-final,2021.2.3,59.496646448411724,
4,0,4,0,,,,,,,,,,,,,,,,,,,,,,,,,,,,,,,,,,,,,,,,,,,,,,,,,,,,,,,,,,,332.6725387999322,None,334.67444109986536,None,,,,,,,,,,,,,,,,,,,,,,,,,,,,,,,,,,,,,,,,,,,,,,,,,,,,,,,,,,,,,,,,,,,,,,,,,,100,001,2023_Sep_13_1255,ExactRep-v3-final,2021.2.3,59.496646448411724,
5,0,5,0,,,,,,,,,,,,,,,,,,,,,,,,,,,,,,,,,,,,,,,,,,,,,,,,,,,,,,,,,,,335.17915159999393,None,337.1939636999741,None,,,,,,,,,,,,,,,,,,,,,,,,,,,,,,,,,,,,,,,,,,,,,,,,,,,,,,,,,,,,,,,,,,,,,,,,,,100,001,2023_Sep_13_1255,ExactRep-v3-final,2021.2.3,59.496646448411724,
6,0,6,0,,,,,,,,,,,,,,,,,,,,,,,,,,,,,,,,,,,,,,,,,,,,,,,,,,,,,,,,,,,337.6946865997743,None,339.6961773999501,None,,,,,,,,,,,,,,,,,,,,,,,,,,,,,,,,,,,,,,,,,,,,,,,,,,,,,,,,,,,,,,,,,,,,,,,,,,100,001,2023_Sep_13_1255,ExactRep-v3-final,2021.2.3,59.496646448411724,
7,0,7,0,,,,,,,,,,,,,,,,,,,,,,,,,,,,,,,,,,,,,,,,,,,,,,,,,,,,,,,,,,,340.20087339985184,None,342.21565499994904,None,,,,,,,,,,,,,,,,,,,,,,,,,,,,,,,,,,,,,,,,,,,,,,,,,,,,,,,,,,,,,,,,,,,,,,,,,,100,001,2023_Sep_13_1255,ExactRep-v3-final,2021.2.3,59.496646448411724,
8,0,8,0,,,,,,,,,,,,,,,,,,,,,,,,,,,,,,,,,,,,,,,,,,,,,,,,,,,,,,,,,,,342.72353419987485,None,344.7349021998234,None,,,,,,,,,,,,,,,,,,,,,,,,,,,,,,,,,,,,,,,,,,,,,,,,,,,,,,,,,,,,,,,,,,,,,,,,,,100,001,2023_Sep_13_1255,ExactRep-v3-final,2021.2.3,59.496646448411724,
9,0,9,0,,,,,,,,,,,,,,,,,,,,,,,,,,,,,,,,,,,,,,,,,,,,,,,,,,,,,,,,,,,345.2369097999763,None,347.237000499852,None,,,,,,,,,,,,,,,,,,,,,,,,,,,,,,,,,,,,,,,,,,,,,,,,,,,,,,,,,,,,,,,,,,,,,,,,,,100,001,2023_Sep_13_1255,ExactRep-v3-final,2021.2.3,59.496646448411724,
10,0,10,0,,,,,,,,,,,,,,,,,,,,,,,,,,,,,,,,,,,,,,,,,,,,,,,,,,,,,,,,,,,347.7493032999337,None,349.75651529990137,None,,,,,,,,,,,,,,,,,,,,,,,,,,,,,,,,,,,,,,,,,,,,,,,,,,,,,,,,,,,,,,,,,,,,,,,,,,100,001,2023_Sep_13_1255,ExactRep-v3-final,2021.2.3,59.496646448411724,
11,0,11,0,,,,,,,,,,,,,,,,,,,,,,,,,,,,,,,,,,,,,,,,,,,,,,,,,,,,,,,,,,,350.25693059992045,None,352.2586825999897,None,,,,,,,,,,,,,,,,,,,,,,,,,,,,,,,,,,,,,,,,,,,,,,,,,,,,,,,,,,,,,,,,,,,,,,,,,,100,001,2023_Sep_13_1255,ExactRep-v3-final,2021.2.3,59.496646448411724,
12,0,12,0,,,,,,,,,,,,,,,,,,,,,,,,,,,,,,,,,,,,,,,,,,,,,,,,,,,,,,,,,,,352.7594905998558,None,354.76133439992554,None,,,,,,,,,,,,,,,,,,,,,,,,,,,,,,,,,,,,,,,,,,,,,,,,,,,,,,,,,,,,,,,,,,,,,,,,,,100,001,2023_Sep_13_1255,ExactRep-v3-final,2021.2.3,59.496646448411724,
13,0,13,0,,,,,,,,,,,,,,,,,,,,,,,,,,,,,,,,,,,,,,,,,,,,,,,,,,,,,,,,,,,355.26170249981806,None,357.2640792999882,None,,,,,,,,,,,,,,,,,,,,,,,,,,,,,,,,,,,,,,,,,,,,,,,,,,,,,,,,,,,,,,,,,,,,,,,,,,100,001,2023_Sep_13_1255,ExactRep-v3-final,2021.2.3,59.496646448411724,
14,0,14,0,,,,,,,,,,,,,,,,,,,,,,,,,,,,,,,,,,,,,,,,,,,,,,,,,,,,,,,,,,,357.76865809992887,None,359.7833076999523,None,,,,,,,,,,,,,,,,,,,,,,,,,,,,,,,,,,,,,,,,,,,,,,,,,,,,,,,,,,,,,,,,,,,,,,,,,,100,001,2023_Sep_13_1255,ExactRep-v3-final,2021.2.3,59.496646448411724,
,,,,,,,,,,,,,,,,,,,,,,,,,,,,,,,,,,,,,,,,,,,,,,,,,,,,,,,,,,,,,,,,,,space,16.801195100182667,370.4067277999129,None,,,,,,,,,,,,,,,,,,,,,,,,,,,,,,,,,,,,,,,,,,,,,,,,,,,,,,,,,,,,,,,,,,,,,,100,001,2023_Sep_13_1255,ExactRep-v3-final,2021.2.3,59.496646448411724,
,,,,0,0,0,0,,,,,,,,,,,,,,,,,,,,,,,,,,,,,,,,,,,,,,,,,,,,,,,,,,,,,,,,,389.27900669979863,None,,,,,360.4312219999265,None,360.4312219999265,None,360.4312219999265,None,360.4312219999265,None,360.4312219999265,None,360.4312219999265,None,387.2716780998744,None,,,,,,,,,,,,,,,,,,,,,,,,,,,,,,,,,,,,,,,,,,,,,,,,,,,,,,,,100,001,2023_Sep_13_1255,ExactRep-v3-final,2021.2.3,59.496646448411724,
,,,,1,0,1,0,,,,,,,,,,,,,,,,,,,,,,,,,,,,,,,,,,,,,,,,,,,,,,,,,,,,,,,,,391.7817761998158,None,,,,,,,,,,,,,,,,,389.77959139994346,None,,,,,,,,,,,,,,,,,,,,,,,,,,,,,,,,,,,,,,,,,,,,,,,,,,,,,,,,100,001,2023_Sep_13_1255,ExactRep-v3-final,2021.2.3,59.496646448411724,
,,,,2,0,2,0,,,,,,,,,,,,,,,,,,,,,,,,,,,,,,,,,,,,,,,,,,,,,,,,,,,,,,,,,394.2839986998588,None,,,,,,,,,,,,,,,,,392.28218129999004,None,,,,,,,,,,,,,,,,,,,,,,,,,,,,,,,,,,,,,,,,,,,,,,,,,,,,,,,,100,001,2023_Sep_13_1255,ExactRep-v3-final,2021.2.3,59.496646448411724,
,,,,3,0,3,0,,,,,,,,,,,,,,,,,,,,,,,,,,,,,,,,,,,,,,,,,,,,,,,,,,,,,,,,,396.78652449999936,None,,,,,,,,,,,,,,,,,394.7848257999867,None,,,,,,,,,,,,,,,,,,,,,,,,,,,,,,,,,,,,,,,,,,,,,,,,,,,,,,,,100,001,2023_Sep_13_1255,ExactRep-v3-final,2021.2.3,59.496646448411724,
,,,,4,0,4,0,,,,,,,,,,,,,,,,,,,,,,,,,,,,,,,,,,,,,,,,,,,,,,,,,,,,,,,,,399.28915959992446,None,,,,,,,,,,,,,,,,,397.2873322998639,None,,,,,,,,,,,,,,,,,,,,,,,,,,,,,,,,,,,,,,,,,,,,,,,,,,,,,,,,100,001,2023_Sep_13_1255,ExactRep-v3-final,2021.2.3,59.496646448411724,
,,,,5,0,5,0,,,,,,,,,,,,,,,,,,,,,,,,,,,,,,,,,,,,,,,,,,,,,,,,,,,,,,,,,401.79175929981284,None,,,,,,,,,,,,,,,,,399.789545299951,None,,,,,,,,,,,,,,,,,,,,,,,,,,,,,,,,,,,,,,,,,,,,,,,,,,,,,,,,100,001,2023_Sep_13_1255,ExactRep-v3-final,2021.2.3,59.496646448411724,
,,,,6,0,6,0,,,,,,,,,,,,,,,,,,,,,,,,,,,,,,,,,,,,,,,,,,,,,,,,,,,,,,,,,404.2940089998301,None,,,,,,,,,,,,,,,,,402.29219289985485,None,,,,,,,,,,,,,,,,,,,,,,,,,,,,,,,,,,,,,,,,,,,,,,,,,,,,,,,,100,001,2023_Sep_13_1255,ExactRep-v3-final,2021.2.3,59.496646448411724,
,,,,7,0,7,0,,,,,,,,,,,,,,,,,,,,,,,,,,,,,,,,,,,,,,,,,,,,,,,,,,,,,,,,,406.79683079989627,None,,,,,,,,,,,,,,,,,404.7946084998548,None,,,,,,,,,,,,,,,,,,,,,,,,,,,,,,,,,,,,,,,,,,,,,,,,,,,,,,,,100,001,2023_Sep_13_1255,ExactRep-v3-final,2021.2.3,59.496646448411724,
,,,,8,0,8,0,,,,,,,,,,,,,,,,,,,,,,,,,,,,,,,,,,,,,,,,,,,,,,,,,,,,,,,,,409.2993496998679,None,,,,,,,,,,,,,,,,,407.2972210999578,None,,,,,,,,,,,,,,,,,,,,,,,,,,,,,,,,,,,,,,,,,,,,,,,,,,,,,,,,100,001,2023_Sep_13_1255,ExactRep-v3-final,2021.2.3,59.496646448411724,
,,,,9,0,9,0,,,,,,,,,,,,,,,,,,,,,,,,,,,,,,,,,,,,,,,,,,,,,,,,,,,,,,,,,411.80182459997013,None,,,,,,,,,,,,,,,,,409.7997889998369,None,,,,,,,,,,,,,,,,,,,,,,,,,,,,,,,,,,,,,,,,,,,,,,,,,,,,,,,,100,001,2023_Sep_13_1255,ExactRep-v3-final,2021.2.3,59.496646448411724,
,,,,10,0,10,0,,,,,,,,,,,,,,,,,,,,,,,,,,,,,,,,,,,,,,,,,,,,,,,,,,,,,,,,,414.30423189979047,None,,,,,,,,,,,,,,,,,412.3024892997928,None,,,,,,,,,,,,,,,,,,,,,,,,,,,,,,,,,,,,,,,,,,,,,,,,,,,,,,,,100,001,2023_Sep_13_1255,ExactRep-v3-final,2021.2.3,59.496646448411724,
,,,,11,0,11,0,,,,,,,,,,,,,,,,,,,,,,,,,,,,,,,,,,,,,,,,,,,,,,,,,,,,,,,,,416.807579399785,None,,,,,,,,,,,,,,,,,414.8048636999447,None,,,,,,,,,,,,,,,,,,,,,,,,,,,,,,,,,,,,,,,,,,,,,,,,,,,,,,,,100,001,2023_Sep_13_1255,ExactRep-v3-final,2021.2.3,59.496646448411724,
,,,,12,0,12,0,,,,,,,,,,,,,,,,,,,,,,,,,,,,,,,,,,,,,,,,,,,,,,,,,,,,,,,,,419.30944839981385,None,,,,,,,,,,,,,,,,,417.30743939988315,None,,,,,,,,,,,,,,,,,,,,,,,,,,,,,,,,,,,,,,,,,,,,,,,,,,,,,,,,100,001,2023_Sep_13_1255,ExactRep-v3-final,2021.2.3,59.496646448411724,
,,,,13,0,13,0,,,,,,,,,,,,,,,,,,,,,,,,,,,,,,,,,,,,,,,,,,,,,,,,,,,,,,,,,421.8114836998284,None,,,,,,,,,,,,,,,,,419.8098676998634,None,,,,,,,,,,,,,,,,,,,,,,,,,,,,,,,,,,,,,,,,,,,,,,,,,,,,,,,,100,001,2023_Sep_13_1255,ExactRep-v3-final,2021.2.3,59.496646448411724,
,,,,14,0,14,0,,,,,,,,,,,,,,,,,,,,,,,,,,,,,,,,,,,,,,,,,,,,,,,,,,,,,,,,,424.31402939977124,None,,,,,,,,,,,,,,,,,422.3118603997864,None,,,,,,,,,,,,,,,,,,,,,,,,,,,,,,,,,,,,,,,,,,,,,,,,,,,,,,,,100,001,2023_Sep_13_1255,ExactRep-v3-final,2021.2.3,59.496646448411724,
,,,,,,,,,,,,,,,,,,,,,,,,,,,,,,,,,,,,,,,,,,,,,,,,,,,,,,,,,,,,,,,,,,,,,,,,,,,,,,,,,,,,space,19.974330199882388,434.9297681997996,None,,,,,,,,,,,,,,,,,,,,,,,,,,,,,,,,,,,,,,,,,,,,,,,,,,,,100,001,2023_Sep_13_1255,ExactRep-v3-final,2021.2.3,59.496646448411724,
,,,,,,,,0,0,0,0,,,,,,,,,,,,,,,,,,,,,,,,,,,,,,,,,,,,,,,,,,,,,,,,,,,,,456.98361060000025,None,,,,,,,,,,,,,,,,,,,,,,,424.96858789981343,None,424.96858789981343,None,424.96858789981343,None,424.96858789981343,None,424.96858789981343,None,424.96858789981343,None,meeting,91,1,aloud,red,454.9710910997819,None,None,454.9710910997819,None,,,,,,,,,,,,,,,,,,,,,,,,,,,,,,100,001,2023_Sep_13_1255,ExactRep-v3-final,2021.2.3,59.496646448411724,
,,,,,,,,1,0,1,0,,,,,,,,,,,,,,,,,,,,,,,,,,,,,,,,,,,,,,,,,,,,,,,,,,,,,459.49945309991017,None,,,,,,,,,,,,,,,,,,,,,,,,,,,,,,,,,,,string,87,2,aloud,red,457.486284899991,None,None,457.486284899991,None,,,,,,,,,,,,,,,,,,,,,,,,,,,,,,100,001,2023_Sep_13_1255,ExactRep-v3-final,2021.2.3,59.496646448411724,
,,,,,,,,2,0,2,0,,,,,,,,,,,,,,,,,,,,,,,,,,,,,,,,,,,,,,,,,,,,,,,,,,,,,462.0185166997835,None,,,,,,,,,,,,,,,,,,,,,,,,,,,,,,,,,,,pole,37,3,sing,white,460.00377129996195,None,None,460.00377129996195,None,,,,,,,,,,,,,,,,,,,,,,,,,,,,,,100,001,2023_Sep_13_1255,ExactRep-v3-final,2021.2.3,59.496646448411724,
,,,,,,,,3,0,3,0,,,,,,,,,,,,,,,,,,,,,,,,,,,,,,,,,,,,,,,,,,,,,,,,,,,,,464.52098099980503,None,,,,,,,,,,,,,,,,,,,,,,,,,,,,,,,,,,,bar,16,4,sing,white,462.5188209998887,None,None,462.5188209998887,None,,,,,,,,,,,,,,,,,,,,,,,,,,,,,,100,001,2023_Sep_13_1255,ExactRep-v3-final,2021.2.3,59.496646448411724,
,,,,,,,,4,0,4,0,,,,,,,,,,,,,,,,,,,,,,,,,,,,,,,,,,,,,,,,,,,,,,,,,,,,,467.0402085999958,None,,,,,,,,,,,,,,,,,,,,,,,,,,,,,,,,,,,grief,72,5,silent,blue,465.0273350998759,None,None,465.0273350998759,None,,,,,,,,,,,,,,,,,,,,,,,,,,,,,,100,001,2023_Sep_13_1255,ExactRep-v3-final,2021.2.3,59.496646448411724,
,,,,,,,,5,0,5,0,,,,,,,,,,,,,,,,,,,,,,,,,,,,,,,,,,,,,,,,,,,,,,,,,,,,,469.5426507999655,None,,,,,,,,,,,,,,,,,,,,,,,,,,,,,,,,,,,cabin,78,6,silent,blue,467.5424390998669,None,None,467.5424390998669,None,,,,,,,,,,,,,,,,,,,,,,,,,,,,,,100,001,2023_Sep_13_1255,ExactRep-v3-final,2021.2.3,59.496646448411724,
,,,,,,,,6,0,6,0,,,,,,,,,,,,,,,,,,,,,,,,,,,,,,,,,,,,,,,,,,,,,,,,,,,,,472.06148089980707,None,,,,,,,,,,,,,,,,,,,,,,,,,,,,,,,,,,,forest,103,7,aloud,red,470.0468873998616,None,None,470.0468873998616,None,,,,,,,,,,,,,,,,,,,,,,,,,,,,,,100,001,2023_Sep_13_1255,ExactRep-v3-final,2021.2.3,59.496646448411724,
,,,,,,,,7,0,7,0,,,,,,,,,,,,,,,,,,,,,,,,,,,,,,,,,,,,,,,,,,,,,,,,,,,,,474.5642604997847,None,,,,,,,,,,,,,,,,,,,,,,,,,,,,,,,,,,,duty,3,8,sing,white,472.56218729983084,None,None,472.56218729983084,None,,,,,,,,,,,,,,,,,,,,,,,,,,,,,,100,001,2023_Sep_13_1255,ExactRep-v3-final,2021.2.3,59.496646448411724,
,,,,,,,,8,0,8,0,,,,,,,,,,,,,,,,,,,,,,,,,,,,,,,,,,,,,,,,,,,,,,,,,,,,,477.0663800998591,None,,,,,,,,,,,,,,,,,,,,,,,,,,,,,,,,,,,camp,55,9,silent,blue,475.06469669984654,None,None,475.06469669984654,None,,,,,,,,,,,,,,,,,,,,,,,,,,,,,,100,001,2023_Sep_13_1255,ExactRep-v3-final,2021.2.3,59.496646448411724,
,,,,,,,,9,0,9,0,,,,,,,,,,,,,,,,,,,,,,,,,,,,,,,,,,,,,,,,,,,,,,,,,,,,,479.5903548998758,None,,,,,,,,,,,,,,,,,,,,,,,,,,,,,,,,,,,chair,19,10,sing,white,477.5868708998896,None,None,477.5868708998896,None,,,,,,,,,,,,,,,,,,,,,,,,,,,,,,100,001,2023_Sep_13_1255,ExactRep-v3-final,2021.2.3,59.496646448411724,
,,,,,,,,10,0,10,0,,,,,,,,,,,,,,,,,,,,,,,,,,,,,,,,,,,,,,,,,,,,,,,,,,,,,482.0880842998158,None,,,,,,,,,,,,,,,,,,,,,,,,,,,,,,,,,,,picture,75,11,silent,blue,480.08594089979306,None,None,480.08594089979306,None,,,,,,,,,,,,,,,,,,,,,,,,,,,,,,100,001,2023_Sep_13_1255,ExactRep-v3-final,2021.2.3,59.496646448411724,
,,,,,,,,11,0,11,0,,,,,,,,,,,,,,,,,,,,,,,,,,,,,,,,,,,,,,,,,,,,,,,,,,,,,484.60782269993797,None,,,,,,,,,,,,,,,,,,,,,,,,,,,,,,,,,,,animal,82,12,aloud,red,482.6014001998119,None,None,482.6014001998119,None,,,,,,,,,,,,,,,,,,,,,,,,,,,,,,100,001,2023_Sep_13_1255,ExactRep-v3-final,2021.2.3,59.496646448411724,
,,,,,,,,12,0,12,0,,,,,,,,,,,,,,,,,,,,,,,,,,,,,,,,,,,,,,,,,,,,,,,,,,,,,487.11045419983566,None,,,,,,,,,,,,,,,,,,,,,,,,,,,,,,,,,,,vision,70,13,silent,blue,485.10790969990194,None,None,485.10790969990194,None,,,,,,,,,,,,,,,,,,,,,,,,,,,,,,100,001,2023_Sep_13_1255,ExactRep-v3-final,2021.2.3,59.496646448411724,
,,,,,,,,13,0,13,0,,,,,,,,,,,,,,,,,,,,,,,,,,,,,,,,,,,,,,,,,,,,,,,,,,,,,489.6132400999777,None,,,,,,,,,,,,,,,,,,,,,,,,,,,,,,,,,,,dawn,40,14,silent,blue,487.6121151999105,None,None,487.6121151999105,None,,,,,,,,,,,,,,,,,,,,,,,,,,,,,,100,001,2023_Sep_13_1255,ExactRep-v3-final,2021.2.3,59.496646448411724,
,,,,,,,,14,0,14,0,,,,,,,,,,,,,,,,,,,,,,,,,,,,,,,,,,,,,,,,,,,,,,,,,,,,,492.1322833998129,None,,,,,,,,,,,,,,,,,,,,,,,,,,,,,,,,,,,market,111,15,aloud,red,490.12267419998534,None,None,490.12267419998534,None,,,,,,,,,,,,,,,,,,,,,,,,,,,,,,100,001,2023_Sep_13_1255,ExactRep-v3-final,2021.2.3,59.496646448411724,
,,,,,,,,15,0,15,0,,,,,,,,,,,,,,,,,,,,,,,,,,,,,,,,,,,,,,,,,,,,,,,,,,,,,494.6341507998295,None,,,,,,,,,,,,,,,,,,,,,,,,,,,,,,,,,,,army,30,16,sing,white,492.6326235998422,None,None,492.6326235998422,None,,,,,,,,,,,,,,,,,,,,,,,,,,,,,,100,001,2023_Sep_13_1255,ExactRep-v3-final,2021.2.3,59.496646448411724,
,,,,,,,,16,0,16,0,,,,,,,,,,,,,,,,,,,,,,,,,,,,,,,,,,,,,,,,,,,,,,,,,,,,,497.15309939999133,None,,,,,,,,,,,,,,,,,,,,,,,,,,,,,,,,,,,sugar,53,17,silent,blue,495.1683960999362,None,None,495.1683960999362,None,,,,,,,,,,,,,,,,,,,,,,,,,,,,,,100,001,2023_Sep_13_1255,ExactRep-v3-final,2021.2.3,59.496646448411724,
,,,,,,,,17,0,17,0,,,,,,,,,,,,,,,,,,,,,,,,,,,,,,,,,,,,,,,,,,,,,,,,,,,,,499.6556251998991,None,,,,,,,,,,,,,,,,,,,,,,,,,,,,,,,,,,,humour,116,18,aloud,red,497.65362889994867,None,None,497.65362889994867,None,,,,,,,,,,,,,,,,,,,,,,,,,,,,,,100,001,2023_Sep_13_1255,ExactRep-v3-final,2021.2.3,59.496646448411724,
,,,,,,,,18,0,18,0,,,,,,,,,,,,,,,,,,,,,,,,,,,,,,,,,,,,,,,,,,,,,,,,,,,,,502.1584164998494,None,,,,,,,,,,,,,,,,,,,,,,,,,,,,,,,,,,,village,9,19,sing,white,500.15621359995566,None,None,500.15621359995566,None,,,,,,,,,,,,,,,,,,,,,,,,,,,,,,100,001,2023_Sep_13_1255,ExactRep-v3-final,2021.2.3,59.496646448411724,
,,,,,,,,19,0,19,0,,,,,,,,,,,,,,,,,,,,,,,,,,,,,,,,,,,,,,,,,,,,,,,,,,,,,504.66090639983304,None,,,,,,,,,,,,,,,,,,,,,,,,,,,,,,,,,,,fur,94,20,aloud,red,502.65877079986967,None,None,502.65877079986967,None,,,,,,,,,,,,,,,,,,,,,,,,,,,,,,100,001,2023_Sep_13_1255,ExactRep-v3-final,2021.2.3,59.496646448411724,
,,,,,,,,20,0,20,0,,,,,,,,,,,,,,,,,,,,,,,,,,,,,,,,,,,,,,,,,,,,,,,,,,,,,507.16327729984187,None,,,,,,,,,,,,,,,,,,,,,,,,,,,,,,,,,,,fortune,58,21,silent,blue,505.1611157997977,None,None,505.1611157997977,None,,,,,,,,,,,,,,,,,,,,,,,,,,,,,,100,001,2023_Sep_13_1255,ExactRep-v3-final,2021.2.3,59.496646448411724,
,,,,,,,,21,0,21,0,,,,,,,,,,,,,,,,,,,,,,,,,,,,,,,,,,,,,,,,,,,,,,,,,,,,,509.6656036998611,None,,,,,,,,,,,,,,,,,,,,,,,,,,,,,,,,,,,boulder,80,22,aloud,red,507.6641201998573,None,None,507.6641201998573,None,,,,,,,,,,,,,,,,,,,,,,,,,,,,,,100,001,2023_Sep_13_1255,ExactRep-v3-final,2021.2.3,59.496646448411724,
,,,,,,,,22,0,22,0,,,,,,,,,,,,,,,,,,,,,,,,,,,,,,,,,,,,,,,,,,,,,,,,,,,,,512.1849603999872,None,,,,,,,,,,,,,,,,,,,,,,,,,,,,,,,,,,,chance,43,23,silent,blue,510.1756694999058,None,None,510.1756694999058,None,,,,,,,,,,,,,,,,,,,,,,,,,,,,,,100,001,2023_Sep_13_1255,ExactRep-v3-final,2021.2.3,59.496646448411724,
,,,,,,,,23,0,23,0,,,,,,,,,,,,,,,,,,,,,,,,,,,,,,,,,,,,,,,,,,,,,,,,,,,,,514.687751499936,None,,,,,,,,,,,,,,,,,,,,,,,,,,,,,,,,,,,dollar,110,24,aloud,red,512.6852704999037,None,None,512.6852704999037,None,,,,,,,,,,,,,,,,,,,,,,,,,,,,,,100,001,2023_Sep_13_1255,ExactRep-v3-final,2021.2.3,59.496646448411724,
,,,,,,,,24,0,24,0,,,,,,,,,,,,,,,,,,,,,,,,,,,,,,,,,,,,,,,,,,,,,,,,,,,,,517.189969399944,None,,,,,,,,,,,,,,,,,,,,,,,,,,,,,,,,,,,charm,71,25,silent,blue,515.187792299781,None,None,515.187792299781,None,,,,,,,,,,,,,,,,,,,,,,,,,,,,,,100,001,2023_Sep_13_1255,ExactRep-v3-final,2021.2.3,59.496646448411724,
,,,,,,,,25,0,25,0,,,,,,,,,,,,,,,,,,,,,,,,,,,,,,,,,,,,,,,,,,,,,,,,,,,,,519.7095146998763,None,,,,,,,,,,,,,,,,,,,,,,,,,,,,,,,,,,,hope,114,26,aloud,red,517.693833099911,None,None,517.693833099911,None,,,,,,,,,,,,,,,,,,,,,,,,,,,,,,100,001,2023_Sep_13_1255,ExactRep-v3-final,2021.2.3,59.496646448411724,
,,,,,,,,26,0,26,0,,,,,,,,,,,,,,,,,,,,,,,,,,,,,,,,,,,,,,,,,,,,,,,,,,,,,522.2286580998916,None,,,,,,,,,,,,,,,,,,,,,,,,,,,,,,,,,,,plain,88,27,aloud,red,520.2141512997914,None,None,520.2141512997914,None,,,,,,,,,,,,,,,,,,,,,,,,,,,,,,100,001,2023_Sep_13_1255,ExactRep-v3-final,2021.2.3,59.496646448411724,
,,,,,,,,27,0,27,0,,,,,,,,,,,,,,,,,,,,,,,,,,,,,,,,,,,,,,,,,,,,,,,,,,,,,524.7312801999506,None,,,,,,,,,,,,,,,,,,,,,,,,,,,,,,,,,,,table,64,28,silent,blue,522.7310537998565,None,None,522.7310537998565,None,,,,,,,,,,,,,,,,,,,,,,,,,,,,,,100,001,2023_Sep_13_1255,ExactRep-v3-final,2021.2.3,59.496646448411724,
,,,,,,,,28,0,28,0,,,,,,,,,,,,,,,,,,,,,,,,,,,,,,,,,,,,,,,,,,,,,,,,,,,,,527.2504085998517,None,,,,,,,,,,,,,,,,,,,,,,,,,,,,,,,,,,,volume,63,29,silent,blue,525.235982199898,None,None,525.235982199898,None,,,,,,,,,,,,,,,,,,,,,,,,,,,,,,100,001,2023_Sep_13_1255,ExactRep-v3-final,2021.2.3,59.496646448411724,
,,,,,,,,29,0,29,0,,,,,,,,,,,,,,,,,,,,,,,,,,,,,,,,,,,,,,,,,,,,,,,,,,,,,529.7529417998157,None,,,,,,,,,,,,,,,,,,,,,,,,,,,,,,,,,,,amount,21,30,sing,white,527.7535889998544,None,None,527.7535889998544,None,,,,,,,,,,,,,,,,,,,,,,,,,,,,,,100,001,2023_Sep_13_1255,ExactRep-v3-final,2021.2.3,59.496646448411724,
,,,,,,,,30,0,30,0,,,,,,,,,,,,,,,,,,,,,,,,,,,,,,,,,,,,,,,,,,,,,,,,,,,,,532.2716452998575,None,,,,,,,,,,,,,,,,,,,,,,,,,,,,,,,,,,,lip,67,31,silent,blue,530.2560564999003,None,None,530.2560564999003,None,,,,,,,,,,,,,,,,,,,,,,,,,,,,,,100,001,2023_Sep_13_1255,ExactRep-v3-final,2021.2.3,59.496646448411724,
,,,,,,,,31,0,31,0,,,,,,,,,,,,,,,,,,,,,,,,,,,,,,,,,,,,,,,,,,,,,,,,,,,,,534.773992799921,None,,,,,,,,,,,,,,,,,,,,,,,,,,,,,,,,,,,pride,34,32,sing,white,532.7718991998117,None,None,532.7718991998117,None,,,,,,,,,,,,,,,,,,,,,,,,,,,,,,100,001,2023_Sep_13_1255,ExactRep-v3-final,2021.2.3,59.496646448411724,
,,,,,,,,32,0,32,0,,,,,,,,,,,,,,,,,,,,,,,,,,,,,,,,,,,,,,,,,,,,,,,,,,,,,537.2772394998465,None,,,,,,,,,,,,,,,,,,,,,,,,,,,,,,,,,,,honour,14,33,sing,white,535.2745280999225,None,None,535.2745280999225,None,,,,,,,,,,,,,,,,,,,,,,,,,,,,,,100,001,2023_Sep_13_1255,ExactRep-v3-final,2021.2.3,59.496646448411724,
,,,,,,,,33,0,33,0,,,,,,,,,,,,,,,,,,,,,,,,,,,,,,,,,,,,,,,,,,,,,,,,,,,,,539.7793737999164,None,,,,,,,,,,,,,,,,,,,,,,,,,,,,,,,,,,,paper,20,34,sing,white,537.7789961998351,None,None,537.7789961998351,None,,,,,,,,,,,,,,,,,,,,,,,,,,,,,,100,001,2023_Sep_13_1255,ExactRep-v3-final,2021.2.3,59.496646448411724,
,,,,,,,,34,0,34,0,,,,,,,,,,,,,,,,,,,,,,,,,,,,,,,,,,,,,,,,,,,,,,,,,,,,,542.2815706999972,None,,,,,,,,,,,,,,,,,,,,,,,,,,,,,,,,,,,doctor,93,35,aloud,red,540.2803107998334,None,None,540.2803107998334,None,,,,,,,,,,,,,,,,,,,,,,,,,,,,,,100,001,2023_Sep_13_1255,ExactRep-v3-final,2021.2.3,59.496646448411724,
,,,,,,,,35,0,35,0,,,,,,,,,,,,,,,,,,,,,,,,,,,,,,,,,,,,,,,,,,,,,,,,,,,,,544.7842830999289,None,,,,,,,,,,,,,,,,,,,,,,,,,,,,,,,,,,,effort,109,36,aloud,red,542.7827200999018,None,None,542.7827200999018,None,,,,,,,,,,,,,,,,,,,,,,,,,,,,,,100,001,2023_Sep_13_1255,ExactRep-v3-final,2021.2.3,59.496646448411724,
,,,,,,,,36,0,36,0,,,,,,,,,,,,,,,,,,,,,,,,,,,,,,,,,,,,,,,,,,,,,,,,,,,,,547.3034381999169,None,,,,,,,,,,,,,,,,,,,,,,,,,,,,,,,,,,,moment,96,37,aloud,red,545.2965972998645,None,None,545.2965972998645,None,,,,,,,,,,,,,,,,,,,,,,,,,,,,,,100,001,2023_Sep_13_1255,ExactRep-v3-final,2021.2.3,59.496646448411724,
,,,,,,,,37,0,37,0,,,,,,,,,,,,,,,,,,,,,,,,,,,,,,,,,,,,,,,,,,,,,,,,,,,,,549.8059848998673,None,,,,,,,,,,,,,,,,,,,,,,,,,,,,,,,,,,,blood,79,38,sing,white,547.8059202998411,None,None,547.8059202998411,None,,,,,,,,,,,,,,,,,,,,,,,,,,,,,,100,001,2023_Sep_13_1255,ExactRep-v3-final,2021.2.3,59.496646448411724,
,,,,,,,,38,0,38,0,,,,,,,,,,,,,,,,,,,,,,,,,,,,,,,,,,,,,,,,,,,,,,,,,,,,,552.3312058998272,None,,,,,,,,,,,,,,,,,,,,,,,,,,,,,,,,,,,door,11,39,sing,white,550.3095272998326,None,None,550.3095272998326,None,,,,,,,,,,,,,,,,,,,,,,,,,,,,,,100,001,2023_Sep_13_1255,ExactRep-v3-final,2021.2.3,59.496646448411724,
,,,,,,,,39,0,39,0,,,,,,,,,,,,,,,,,,,,,,,,,,,,,,,,,,,,,,,,,,,,,,,,,,,,,554.8442826999817,None,,,,,,,,,,,,,,,,,,,,,,,,,,,,,,,,,,,mind,28,40,sing,white,552.8455278999172,None,None,552.8455278999172,None,,,,,,,,,,,,,,,,,,,,,,,,,,,,,,100,001,2023_Sep_13_1255,ExactRep-v3-final,2021.2.3,59.496646448411724,
,,,,,,,,40,0,40,0,,,,,,,,,,,,,,,,,,,,,,,,,,,,,,,,,,,,,,,,,,,,,,,,,,,,,557.3634338998236,None,,,,,,,,,,,,,,,,,,,,,,,,,,,,,,,,,,,style,117,41,aloud,red,555.3638216999825,None,None,555.3638216999825,None,,,,,,,,,,,,,,,,,,,,,,,,,,,,,,100,001,2023_Sep_13_1255,ExactRep-v3-final,2021.2.3,59.496646448411724,
,,,,,,,,41,0,41,0,,,,,,,,,,,,,,,,,,,,,,,,,,,,,,,,,,,,,,,,,,,,,,,,,,,,,559.8660253998823,None,,,,,,,,,,,,,,,,,,,,,,,,,,,,,,,,,,,king,22,42,sing,white,557.8638128999155,None,None,557.8638128999155,None,,,,,,,,,,,,,,,,,,,,,,,,,,,,,,100,001,2023_Sep_13_1255,ExactRep-v3-final,2021.2.3,59.496646448411724,
,,,,,,,,42,0,42,0,,,,,,,,,,,,,,,,,,,,,,,,,,,,,,,,,,,,,,,,,,,,,,,,,,,,,562.3684811999556,None,,,,,,,,,,,,,,,,,,,,,,,,,,,,,,,,,,,weapon,54,43,silent,blue,560.3664180999622,None,None,560.3664180999622,None,,,,,,,,,,,,,,,,,,,,,,,,,,,,,,100,001,2023_Sep_13_1255,ExactRep-v3-final,2021.2.3,59.496646448411724,
,,,,,,,,43,0,43,0,,,,,,,,,,,,,,,,,,,,,,,,,,,,,,,,,,,,,,,,,,,,,,,,,,,,,564.8714934999589,None,,,,,,,,,,,,,,,,,,,,,,,,,,,,,,,,,,,body,77,44,silent,blue,562.8688310999423,None,None,562.8688310999423,None,,,,,,,,,,,,,,,,,,,,,,,,,,,,,,100,001,2023_Sep_13_1255,ExactRep-v3-final,2021.2.3,59.496646448411724,
,,,,,,,,44,0,44,0,,,,,,,,,,,,,,,,,,,,,,,,,,,,,,,,,,,,,,,,,,,,,,,,,,,,,567.3734870997723,None,,,,,,,,,,,,,,,,,,,,,,,,,,,,,,,,,,,chief,59,45,silent,blue,565.3714420998003,None,None,565.3714420998003,None,,,,,,,,,,,,,,,,,,,,,,,,,,,,,,100,001,2023_Sep_13_1255,ExactRep-v3-final,2021.2.3,59.496646448411724,
,,,,,,,,45,0,45,0,,,,,,,,,,,,,,,,,,,,,,,,,,,,,,,,,,,,,,,,,,,,,,,,,,,,,569.8763880999759,None,,,,,,,,,,,,,,,,,,,,,,,,,,,,,,,,,,,child,2,46,sing,white,567.8748582999688,None,None,567.8748582999688,None,,,,,,,,,,,,,,,,,,,,,,,,,,,,,,100,001,2023_Sep_13_1255,ExactRep-v3-final,2021.2.3,59.496646448411724,
,,,,,,,,46,0,46,0,,,,,,,,,,,,,,,,,,,,,,,,,,,,,,,,,,,,,,,,,,,,,,,,,,,,,572.3955490998924,None,,,,,,,,,,,,,,,,,,,,,,,,,,,,,,,,,,,troops,57,47,silent,blue,570.3806052999571,None,None,570.3806052999571,None,,,,,,,,,,,,,,,,,,,,,,,,,,,,,,100,001,2023_Sep_13_1255,ExactRep-v3-final,2021.2.3,59.496646448411724,
,,,,,,,,47,0,47,0,,,,,,,,,,,,,,,,,,,,,,,,,,,,,,,,,,,,,,,,,,,,,,,,,,,,,574.8980800998397,None,,,,,,,,,,,,,,,,,,,,,,,,,,,,,,,,,,,flag,10,48,sing,white,572.8988478998654,None,None,572.8988478998654,None,,,,,,,,,,,,,,,,,,,,,,,,,,,,,,100,001,2023_Sep_13_1255,ExactRep-v3-final,2021.2.3,59.496646448411724,
,,,,,,,,48,0,48,0,,,,,,,,,,,,,,,,,,,,,,,,,,,,,,,,,,,,,,,,,,,,,,,,,,,,,577.4000055999495,None,,,,,,,,,,,,,,,,,,,,,,,,,,,,,,,,,,,science,48,49,silent,blue,575.3983571999706,None,None,575.3983571999706,None,,,,,,,,,,,,,,,,,,,,,,,,,,,,,,100,001,2023_Sep_13_1255,ExactRep-v3-final,2021.2.3,59.496646448411724,
,,,,,,,,49,0,49,0,,,,,,,,,,,,,,,,,,,,,,,,,,,,,,,,,,,,,,,,,,,,,,,,,,,,,579.9023258998059,None,,,,,,,,,,,,,,,,,,,,,,,,,,,,,,,,,,,lake,31,50,sing,white,577.9006124997977,None,None,577.9006124997977,None,,,,,,,,,,,,,,,,,,,,,,,,,,,,,,100,001,2023_Sep_13_1255,ExactRep-v3-final,2021.2.3,59.496646448411724,
,,,,,,,,50,0,50,0,,,,,,,,,,,,,,,,,,,,,,,,,,,,,,,,,,,,,,,,,,,,,,,,,,,,,582.4052956998348,None,,,,,,,,,,,,,,,,,,,,,,,,,,,,,,,,,,,cost,86,51,aloud,red,580.4033536999486,None,None,580.4033536999486,None,,,,,,,,,,,,,,,,,,,,,,,,,,,,,,100,001,2023_Sep_13_1255,ExactRep-v3-final,2021.2.3,59.496646448411724,
,,,,,,,,51,0,51,0,,,,,,,,,,,,,,,,,,,,,,,,,,,,,,,,,,,,,,,,,,,,,,,,,,,,,584.907844599802,None,,,,,,,,,,,,,,,,,,,,,,,,,,,,,,,,,,,stone,13,52,sing,white,582.9060707997996,None,None,582.9060707997996,None,,,,,,,,,,,,,,,,,,,,,,,,,,,,,,100,001,2023_Sep_13_1255,ExactRep-v3-final,2021.2.3,59.496646448411724,
,,,,,,,,52,0,52,0,,,,,,,,,,,,,,,,,,,,,,,,,,,,,,,,,,,,,,,,,,,,,,,,,,,,,587.4268082999624,None,,,,,,,,,,,,,,,,,,,,,,,,,,,,,,,,,,,shock,85,53,aloud,red,585.4133985999506,None,None,585.4133985999506,None,,,,,,,,,,,,,,,,,,,,,,,,,,,,,,100,001,2023_Sep_13_1255,ExactRep-v3-final,2021.2.3,59.496646448411724,
,,,,,,,,53,0,53,0,,,,,,,,,,,,,,,,,,,,,,,,,,,,,,,,,,,,,,,,,,,,,,,,,,,,,589.9293725998141,None,,,,,,,,,,,,,,,,,,,,,,,,,,,,,,,,,,,dust,33,54,sing,white,587.927678299835,None,None,587.927678299835,None,,,,,,,,,,,,,,,,,,,,,,,,,,,,,,100,001,2023_Sep_13_1255,ExactRep-v3-final,2021.2.3,59.496646448411724,
,,,,,,,,54,0,54,0,,,,,,,,,,,,,,,,,,,,,,,,,,,,,,,,,,,,,,,,,,,,,,,,,,,,,592.431844699895,None,,,,,,,,,,,,,,,,,,,,,,,,,,,,,,,,,,,metal,95,55,aloud,red,590.4316223999485,None,None,590.4316223999485,None,,,,,,,,,,,,,,,,,,,,,,,,,,,,,,100,001,2023_Sep_13_1255,ExactRep-v3-final,2021.2.3,59.496646448411724,
,,,,,,,,55,0,55,0,,,,,,,,,,,,,,,,,,,,,,,,,,,,,,,,,,,,,,,,,,,,,,,,,,,,,594.9348133997992,None,,,,,,,,,,,,,,,,,,,,,,,,,,,,,,,,,,,glory,106,56,aloud,red,592.934507599799,None,None,592.934507599799,None,,,,,,,,,,,,,,,,,,,,,,,,,,,,,,100,001,2023_Sep_13_1255,ExactRep-v3-final,2021.2.3,59.496646448411724,
,,,,,,,,56,0,56,0,,,,,,,,,,,,,,,,,,,,,,,,,,,,,,,,,,,,,,,,,,,,,,,,,,,,,597.4368634999264,None,,,,,,,,,,,,,,,,,,,,,,,,,,,,,,,,,,,product,60,57,silent,blue,595.4362371999305,None,None,595.4362371999305,None,,,,,,,,,,,,,,,,,,,,,,,,,,,,,,100,001,2023_Sep_13_1255,ExactRep-v3-final,2021.2.3,59.496646448411724,
,,,,,,,,57,0,57,0,,,,,,,,,,,,,,,,,,,,,,,,,,,,,,,,,,,,,,,,,,,,,,,,,,,,,599.9560765998904,None,,,,,,,,,,,,,,,,,,,,,,,,,,,,,,,,,,,winter,51,58,silent,blue,597.9421682998072,None,None,597.9421682998072,None,,,,,,,,,,,,,,,,,,,,,,,,,,,,,,100,001,2023_Sep_13_1255,ExactRep-v3-final,2021.2.3,59.496646448411724,
,,,,,,,,58,0,58,0,,,,,,,,,,,,,,,,,,,,,,,,,,,,,,,,,,,,,,,,,,,,,,,,,,,,,602.4751820999663,None,,,,,,,,,,,,,,,,,,,,,,,,,,,,,,,,,,,love,0,59,sing,white,600.4602561998181,None,None,600.4602561998181,None,,,,,,,,,,,,,,,,,,,,,,,,,,,,,,100,001,2023_Sep_13_1255,ExactRep-v3-final,2021.2.3,59.496646448411724,
,,,,,,,,59,0,59,0,,,,,,,,,,,,,,,,,,,,,,,,,,,,,,,,,,,,,,,,,,,,,,,,,,,,,604.977683799807,None,,,,,,,,,,,,,,,,,,,,,,,,,,,,,,,,,,,speech,74,60,silent,blue,602.9757328999694,None,None,602.9757328999694,None,,,,,,,,,,,,,,,,,,,,,,,,,,,,,,100,001,2023_Sep_13_1255,ExactRep-v3-final,2021.2.3,59.496646448411724,
,,,,,,,,60,0,60,0,,,,,,,,,,,,,,,,,,,,,,,,,,,,,,,,,,,,,,,,,,,,,,,,,,,,,607.4802843998186,None,,,,,,,,,,,,,,,,,,,,,,,,,,,,,,,,,,,pupil,66,61,silent,blue,605.4804192997981,None,None,605.4804192997981,None,,,,,,,,,,,,,,,,,,,,,,,,,,,,,,100,001,2023_Sep_13_1255,ExactRep-v3-final,2021.2.3,59.496646448411724,
,,,,,,,,61,0,61,0,,,,,,,,,,,,,,,,,,,,,,,,,,,,,,,,,,,,,,,,,,,,,,,,,,,,,609.9828235998284,None,,,,,,,,,,,,,,,,,,,,,,,,,,,,,,,,,,,board,115,62,aloud,red,607.9835401999298,None,None,607.9835401999298,None,,,,,,,,,,,,,,,,,,,,,,,,,,,,,,100,001,2023_Sep_13_1255,ExactRep-v3-final,2021.2.3,59.496646448411724,
,,,,,,,,62,0,62,0,,,,,,,,,,,,,,,,,,,,,,,,,,,,,,,,,,,,,,,,,,,,,,,,,,,,,612.4852957997937,None,,,,,,,,,,,,,,,,,,,,,,,,,,,,,,,,,,,letter,1,63,sing,white,610.4853546998929,None,None,610.4853546998929,None,,,,,,,,,,,,,,,,,,,,,,,,,,,,,,100,001,2023_Sep_13_1255,ExactRep-v3-final,2021.2.3,59.496646448411724,
,,,,,,,,63,0,63,0,,,,,,,,,,,,,,,,,,,,,,,,,,,,,,,,,,,,,,,,,,,,,,,,,,,,,614.9876576999668,None,,,,,,,,,,,,,,,,,,,,,,,,,,,,,,,,,,,prison,113,64,aloud,red,612.9882805999368,None,None,612.9882805999368,None,,,,,,,,,,,,,,,,,,,,,,,,,,,,,,100,001,2023_Sep_13_1255,ExactRep-v3-final,2021.2.3,59.496646448411724,
,,,,,,,,64,0,64,0,,,,,,,,,,,,,,,,,,,,,,,,,,,,,,,,,,,,,,,,,,,,,,,,,,,,,617.4901860998943,None,,,,,,,,,,,,,,,,,,,,,,,,,,,,,,,,,,,car,46,65,silent,blue,615.4879406997934,None,None,615.4879406997934,None,,,,,,,,,,,,,,,,,,,,,,,,,,,,,,100,001,2023_Sep_13_1255,ExactRep-v3-final,2021.2.3,59.496646448411724,
,,,,,,,,65,0,65,0,,,,,,,,,,,,,,,,,,,,,,,,,,,,,,,,,,,,,,,,,,,,,,,,,,,,,619.9928386998363,None,,,,,,,,,,,,,,,,,,,,,,,,,,,,,,,,,,,journal,81,66,aloud,red,617.9926120999735,None,None,617.9926120999735,None,,,,,,,,,,,,,,,,,,,,,,,,,,,,,,100,001,2023_Sep_13_1255,ExactRep-v3-final,2021.2.3,59.496646448411724,
,,,,,,,,66,0,66,0,,,,,,,,,,,,,,,,,,,,,,,,,,,,,,,,,,,,,,,,,,,,,,,,,,,,,622.4952485999092,None,,,,,,,,,,,,,,,,,,,,,,,,,,,,,,,,,,,fire,104,67,aloud,red,620.493573699845,None,None,620.493573699845,None,,,,,,,,,,,,,,,,,,,,,,,,,,,,,,100,001,2023_Sep_13_1255,ExactRep-v3-final,2021.2.3,59.496646448411724,
,,,,,,,,67,0,67,0,,,,,,,,,,,,,,,,,,,,,,,,,,,,,,,,,,,,,,,,,,,,,,,,,,,,,624.9977242997847,None,,,,,,,,,,,,,,,,,,,,,,,,,,,,,,,,,,,meadow,108,68,aloud,red,622.996264499845,None,None,622.996264499845,None,,,,,,,,,,,,,,,,,,,,,,,,,,,,,,100,001,2023_Sep_13_1255,ExactRep-v3-final,2021.2.3,59.496646448411724,
,,,,,,,,68,0,68,0,,,,,,,,,,,,,,,,,,,,,,,,,,,,,,,,,,,,,,,,,,,,,,,,,,,,,627.5001983998809,None,,,,,,,,,,,,,,,,,,,,,,,,,,,,,,,,,,,flesh,89,69,aloud,red,625.4982138997875,None,None,625.4982138997875,None,,,,,,,,,,,,,,,,,,,,,,,,,,,,,,100,001,2023_Sep_13_1255,ExactRep-v3-final,2021.2.3,59.496646448411724,
,,,,,,,,69,0,69,0,,,,,,,,,,,,,,,,,,,,,,,,,,,,,,,,,,,,,,,,,,,,,,,,,,,,,630.0198797998019,None,,,,,,,,,,,,,,,,,,,,,,,,,,,,,,,,,,,gift,12,70,sing,white,628.0045106997713,None,None,628.0045106997713,None,,,,,,,,,,,,,,,,,,,,,,,,,,,,,,100,001,2023_Sep_13_1255,ExactRep-v3-final,2021.2.3,59.496646448411724,
,,,,,,,,70,0,70,0,,,,,,,,,,,,,,,,,,,,,,,,,,,,,,,,,,,,,,,,,,,,,,,,,,,,,632.5386021998711,None,,,,,,,,,,,,,,,,,,,,,,,,,,,,,,,,,,,seat,119,71,aloud,red,630.5234271998052,None,None,630.5234271998052,None,,,,,,,,,,,,,,,,,,,,,,,,,,,,,,100,001,2023_Sep_13_1255,ExactRep-v3-final,2021.2.3,59.496646448411724,
,,,,,,,,71,0,71,0,,,,,,,,,,,,,,,,,,,,,,,,,,,,,,,,,,,,,,,,,,,,,,,,,,,,,635.0413052998483,None,,,,,,,,,,,,,,,,,,,,,,,,,,,,,,,,,,,iron,90,72,aloud,red,633.039241099963,None,None,633.039241099963,None,,,,,,,,,,,,,,,,,,,,,,,,,,,,,,100,001,2023_Sep_13_1255,ExactRep-v3-final,2021.2.3,59.496646448411724,
,,,,,,,,72,0,72,0,,,,,,,,,,,,,,,,,,,,,,,,,,,,,,,,,,,,,,,,,,,,,,,,,,,,,637.543704399839,None,,,,,,,,,,,,,,,,,,,,,,,,,,,,,,,,,,,mercy,29,73,sing,white,635.5436321999878,None,None,635.5436321999878,None,,,,,,,,,,,,,,,,,,,,,,,,,,,,,,100,001,2023_Sep_13_1255,ExactRep-v3-final,2021.2.3,59.496646448411724,
,,,,,,,,73,0,73,0,,,,,,,,,,,,,,,,,,,,,,,,,,,,,,,,,,,,,,,,,,,,,,,,,,,,,640.0627683999483,None,,,,,,,,,,,,,,,,,,,,,,,,,,,,,,,,,,,queen,56,74,silent,blue,638.0505604997743,None,None,638.0505604997743,None,,,,,,,,,,,,,,,,,,,,,,,,,,,,,,100,001,2023_Sep_13_1255,ExactRep-v3-final,2021.2.3,59.496646448411724,
,,,,,,,,74,0,74,0,,,,,,,,,,,,,,,,,,,,,,,,,,,,,,,,,,,,,,,,,,,,,,,,,,,,,642.5710671998095,None,,,,,,,,,,,,,,,,,,,,,,,,,,,,,,,,,,,potato,45,75,silent,blue,640.5635977999773,None,None,640.5635977999773,None,,,,,,,,,,,,,,,,,,,,,,,,,,,,,,100,001,2023_Sep_13_1255,ExactRep-v3-final,2021.2.3,59.496646448411724,
,,,,,,,,75,0,75,0,,,,,,,,,,,,,,,,,,,,,,,,,,,,,,,,,,,,,,,,,,,,,,,,,,,,,645.10125409998,None,,,,,,,,,,,,,,,,,,,,,,,,,,,,,,,,,,,quality,52,76,silent,blue,643.0979863998946,None,None,643.0979863998946,None,,,,,,,,,,,,,,,,,,,,,,,,,,,,,,100,001,2023_Sep_13_1255,ExactRep-v3-final,2021.2.3,59.496646448411724,
,,,,,,,,76,0,76,0,,,,,,,,,,,,,,,,,,,,,,,,,,,,,,,,,,,,,,,,,,,,,,,,,,,,,647.6206902998965,None,,,,,,,,,,,,,,,,,,,,,,,,,,,,,,,,,,,power,97,77,aloud,red,645.6133496998809,None,None,645.6133496998809,None,,,,,,,,,,,,,,,,,,,,,,,,,,,,,,100,001,2023_Sep_13_1255,ExactRep-v3-final,2021.2.3,59.496646448411724,
,,,,,,,,77,0,77,0,,,,,,,,,,,,,,,,,,,,,,,,,,,,,,,,,,,,,,,,,,,,,,,,,,,,,650.1232710999902,None,,,,,,,,,,,,,,,,,,,,,,,,,,,,,,,,,,,butter,73,78,silent,blue,648.1239534998313,None,None,648.1239534998313,None,,,,,,,,,,,,,,,,,,,,,,,,,,,,,,100,001,2023_Sep_13_1255,ExactRep-v3-final,2021.2.3,59.496646448411724,
,,,,,,,,78,0,78,0,,,,,,,,,,,,,,,,,,,,,,,,,,,,,,,,,,,,,,,,,,,,,,,,,,,,,652.642021099804,None,,,,,,,,,,,,,,,,,,,,,,,,,,,,,,,,,,,teacher,44,79,silent,blue,650.6274876999669,None,None,650.6274876999669,None,,,,,,,,,,,,,,,,,,,,,,,,,,,,,,100,001,2023_Sep_13_1255,ExactRep-v3-final,2021.2.3,59.496646448411724,
,,,,,,,,79,0,79,0,,,,,,,,,,,,,,,,,,,,,,,,,,,,,,,,,,,,,,,,,,,,,,,,,,,,,655.1446708999574,None,,,,,,,,,,,,,,,,,,,,,,,,,,,,,,,,,,,devil,17,80,sing,white,653.1424837999512,None,None,653.1424837999512,None,,,,,,,,,,,,,,,,,,,,,,,,,,,,,,100,001,2023_Sep_13_1255,ExactRep-v3-final,2021.2.3,59.496646448411724,
,,,,,,,,80,0,80,0,,,,,,,,,,,,,,,,,,,,,,,,,,,,,,,,,,,,,,,,,,,,,,,,,,,,,657.6497256997973,None,,,,,,,,,,,,,,,,,,,,,,,,,,,,,,,,,,,ability,32,81,sing,white,655.6487602998968,None,None,655.6487602998968,None,,,,,,,,,,,,,,,,,,,,,,,,,,,,,,100,001,2023_Sep_13_1255,ExactRep-v3-final,2021.2.3,59.496646448411724,
,,,,,,,,81,0,81,0,,,,,,,,,,,,,,,,,,,,,,,,,,,,,,,,,,,,,,,,,,,,,,,,,,,,,660.1663358998485,None,,,,,,,,,,,,,,,,,,,,,,,,,,,,,,,,,,,ticket,76,82,silent,blue,658.1665880999062,None,None,658.1665880999062,None,,,,,,,,,,,,,,,,,,,,,,,,,,,,,,100,001,2023_Sep_13_1255,ExactRep-v3-final,2021.2.3,59.496646448411724,
,,,,,,,,82,0,82,0,,,,,,,,,,,,,,,,,,,,,,,,,,,,,,,,,,,,,,,,,,,,,,,,,,,,,662.6686830997933,None,,,,,,,,,,,,,,,,,,,,,,,,,,,,,,,,,,,fate,47,83,silent,blue,660.6690121998545,None,None,660.6690121998545,None,,,,,,,,,,,,,,,,,,,,,,,,,,,,,,100,001,2023_Sep_13_1255,ExactRep-v3-final,2021.2.3,59.496646448411724,
,,,,,,,,83,0,83,0,,,,,,,,,,,,,,,,,,,,,,,,,,,,,,,,,,,,,,,,,,,,,,,,,,,,,665.1717007998377,None,,,,,,,,,,,,,,,,,,,,,,,,,,,,,,,,,,,earth,36,84,sing,white,663.1696135997772,None,None,663.1696135997772,None,,,,,,,,,,,,,,,,,,,,,,,,,,,,,,100,001,2023_Sep_13_1255,ExactRep-v3-final,2021.2.3,59.496646448411724,
,,,,,,,,84,0,84,0,,,,,,,,,,,,,,,,,,,,,,,,,,,,,,,,,,,,,,,,,,,,,,,,,,,,,667.6742720999755,None,,,,,,,,,,,,,,,,,,,,,,,,,,,,,,,,,,,soil,23,85,sing,white,665.6742034999188,None,None,665.6742034999188,None,,,,,,,,,,,,,,,,,,,,,,,,,,,,,,100,001,2023_Sep_13_1255,ExactRep-v3-final,2021.2.3,59.496646448411724,
,,,,,,,,85,0,85,0,,,,,,,,,,,,,,,,,,,,,,,,,,,,,,,,,,,,,,,,,,,,,,,,,,,,,670.1930083998013,None,,,,,,,,,,,,,,,,,,,,,,,,,,,,,,,,,,,judge,38,86,sing,white,668.1800245998893,None,None,668.1800245998893,None,,,,,,,,,,,,,,,,,,,,,,,,,,,,,,100,001,2023_Sep_13_1255,ExactRep-v3-final,2021.2.3,59.496646448411724,
,,,,,,,,86,0,86,0,,,,,,,,,,,,,,,,,,,,,,,,,,,,,,,,,,,,,,,,,,,,,,,,,,,,,672.6961091998965,None,,,,,,,,,,,,,,,,,,,,,,,,,,,,,,,,,,,series,83,87,aloud,red,670.6940748998895,None,None,670.6940748998895,None,,,,,,,,,,,,,,,,,,,,,,,,,,,,,,100,001,2023_Sep_13_1255,ExactRep-v3-final,2021.2.3,59.496646448411724,
,,,,,,,,87,0,87,0,,,,,,,,,,,,,,,,,,,,,,,,,,,,,,,,,,,,,,,,,,,,,,,,,,,,,675.1980071999133,None,,,,,,,,,,,,,,,,,,,,,,,,,,,,,,,,,,,vessel,41,88,silent,blue,673.1980210999027,None,None,673.1980210999027,None,,,,,,,,,,,,,,,,,,,,,,,,,,,,,,100,001,2023_Sep_13_1255,ExactRep-v3-final,2021.2.3,59.496646448411724,
,,,,,,,,88,0,88,0,,,,,,,,,,,,,,,,,,,,,,,,,,,,,,,,,,,,,,,,,,,,,,,,,,,,,677.7005255999975,None,,,,,,,,,,,,,,,,,,,,,,,,,,,,,,,,,,,shame,100,89,aloud,red,675.6994203999639,None,None,675.6994203999639,None,,,,,,,,,,,,,,,,,,,,,,,,,,,,,,100,001,2023_Sep_13_1255,ExactRep-v3-final,2021.2.3,59.496646448411724,
,,,,,,,,89,0,89,0,,,,,,,,,,,,,,,,,,,,,,,,,,,,,,,,,,,,,,,,,,,,,,,,,,,,,680.2028210998978,None,,,,,,,,,,,,,,,,,,,,,,,,,,,,,,,,,,,safety,35,90,sing,white,678.2035435999278,None,None,678.2035435999278,None,,,,,,,,,,,,,,,,,,,,,,,,,,,,,,100,001,2023_Sep_13_1255,ExactRep-v3-final,2021.2.3,59.496646448411724,
,,,,,,,,90,0,90,0,,,,,,,,,,,,,,,,,,,,,,,,,,,,,,,,,,,,,,,,,,,,,,,,,,,,,682.7221569998655,None,,,,,,,,,,,,,,,,,,,,,,,,,,,,,,,,,,,avenue,42,91,silent,blue,680.7084605998825,None,None,680.7084605998825,None,,,,,,,,,,,,,,,,,,,,,,,,,,,,,,100,001,2023_Sep_13_1255,ExactRep-v3-final,2021.2.3,59.496646448411724,
,,,,,,,,91,0,91,0,,,,,,,,,,,,,,,,,,,,,,,,,,,,,,,,,,,,,,,,,,,,,,,,,,,,,685.2250898999628,None,,,,,,,,,,,,,,,,,,,,,,,,,,,,,,,,,,,coffee,118,92,aloud,red,683.2232283998746,None,None,683.2232283998746,None,,,,,,,,,,,,,,,,,,,,,,,,,,,,,,100,001,2023_Sep_13_1255,ExactRep-v3-final,2021.2.3,59.496646448411724,
,,,,,,,,92,0,92,0,,,,,,,,,,,,,,,,,,,,,,,,,,,,,,,,,,,,,,,,,,,,,,,,,,,,,687.7436558997724,None,,,,,,,,,,,,,,,,,,,,,,,,,,,,,,,,,,,justice,105,93,aloud,red,685.7308970999438,None,None,685.7308970999438,None,,,,,,,,,,,,,,,,,,,,,,,,,,,,,,100,001,2023_Sep_13_1255,ExactRep-v3-final,2021.2.3,59.496646448411724,
,,,,,,,,93,0,93,0,,,,,,,,,,,,,,,,,,,,,,,,,,,,,,,,,,,,,,,,,,,,,,,,,,,,,690.2467865999788,None,,,,,,,,,,,,,,,,,,,,,,,,,,,,,,,,,,,engine,69,94,silent,blue,688.2449883997906,None,None,688.2449883997906,None,,,,,,,,,,,,,,,,,,,,,,,,,,,,,,100,001,2023_Sep_13_1255,ExactRep-v3-final,2021.2.3,59.496646448411724,
,,,,,,,,94,0,94,0,,,,,,,,,,,,,,,,,,,,,,,,,,,,,,,,,,,,,,,,,,,,,,,,,,,,,692.765384499915,None,,,,,,,,,,,,,,,,,,,,,,,,,,,,,,,,,,,cat,27,95,sing,white,690.7512141999323,None,None,690.7512141999323,None,,,,,,,,,,,,,,,,,,,,,,,,,,,,,,100,001,2023_Sep_13_1255,ExactRep-v3-final,2021.2.3,59.496646448411724,
,,,,,,,,95,0,95,0,,,,,,,,,,,,,,,,,,,,,,,,,,,,,,,,,,,,,,,,,,,,,,,,,,,,,695.2678842998575,None,,,,,,,,,,,,,,,,,,,,,,,,,,,,,,,,,,,spirit,39,96,silent,blue,693.2659066999331,None,None,693.2659066999331,None,,,,,,,,,,,,,,,,,,,,,,,,,,,,,,100,001,2023_Sep_13_1255,ExactRep-v3-final,2021.2.3,59.496646448411724,
,,,,,,,,96,0,96,0,,,,,,,,,,,,,,,,,,,,,,,,,,,,,,,,,,,,,,,,,,,,,,,,,,,,,697.7704147999175,None,,,,,,,,,,,,,,,,,,,,,,,,,,,,,,,,,,,boy,62,97,silent,blue,695.7694250999484,None,None,695.7694250999484,None,,,,,,,,,,,,,,,,,,,,,,,,,,,,,,100,001,2023_Sep_13_1255,ExactRep-v3-final,2021.2.3,59.496646448411724,
,,,,,,,,97,0,97,0,,,,,,,,,,,,,,,,,,,,,,,,,,,,,,,,,,,,,,,,,,,,,,,,,,,,,700.2895983997732,None,,,,,,,,,,,,,,,,,,,,,,,,,,,,,,,,,,,idea,101,98,aloud,red,698.2814440999646,None,None,698.2814440999646,None,,,,,,,,,,,,,,,,,,,,,,,,,,,,,,100,001,2023_Sep_13_1255,ExactRep-v3-final,2021.2.3,59.496646448411724,
,,,,,,,,98,0,98,0,,,,,,,,,,,,,,,,,,,,,,,,,,,,,,,,,,,,,,,,,,,,,,,,,,,,,702.7923686997965,None,,,,,,,,,,,,,,,,,,,,,,,,,,,,,,,,,,,form,112,99,aloud,red,700.7902346998453,None,None,700.7902346998453,None,,,,,,,,,,,,,,,,,,,,,,,,,,,,,,100,001,2023_Sep_13_1255,ExactRep-v3-final,2021.2.3,59.496646448411724,
,,,,,,,,99,0,99,0,,,,,,,,,,,,,,,,,,,,,,,,,,,,,,,,,,,,,,,,,,,,,,,,,,,,,705.311054199934,None,,,,,,,,,,,,,,,,,,,,,,,,,,,,,,,,,,,meat,4,100,sing,white,703.2967004999518,None,None,703.2967004999518,None,,,,,,,,,,,,,,,,,,,,,,,,,,,,,,100,001,2023_Sep_13_1255,ExactRep-v3-final,2021.2.3,59.496646448411724,
,,,,,,,,100,0,100,0,,,,,,,,,,,,,,,,,,,,,,,,,,,,,,,,,,,,,,,,,,,,,,,,,,,,,707.8306494997814,None,,,,,,,,,,,,,,,,,,,,,,,,,,,,,,,,,,,cattle,49,101,silent,blue,705.8248099999037,None,None,705.8248099999037,None,,,,,,,,,,,,,,,,,,,,,,,,,,,,,,100,001,2023_Sep_13_1255,ExactRep-v3-final,2021.2.3,59.496646448411724,
,,,,,,,,101,0,101,0,,,,,,,,,,,,,,,,,,,,,,,,,,,,,,,,,,,,,,,,,,,,,,,,,,,,,710.3331479998305,None,,,,,,,,,,,,,,,,,,,,,,,,,,,,,,,,,,,history,107,102,aloud,red,708.3337722998112,None,None,708.3337722998112,None,,,,,,,,,,,,,,,,,,,,,,,,,,,,,,100,001,2023_Sep_13_1255,ExactRep-v3-final,2021.2.3,59.496646448411724,
,,,,,,,,102,0,102,0,,,,,,,,,,,,,,,,,,,,,,,,,,,,,,,,,,,,,,,,,,,,,,,,,,,,,712.8357731997967,None,,,,,,,,,,,,,,,,,,,,,,,,,,,,,,,,,,,murder,7,103,sing,white,710.8338363999501,None,None,710.8338363999501,None,,,,,,,,,,,,,,,,,,,,,,,,,,,,,,100,001,2023_Sep_13_1255,ExactRep-v3-final,2021.2.3,59.496646448411724,
,,,,,,,,103,0,103,0,,,,,,,,,,,,,,,,,,,,,,,,,,,,,,,,,,,,,,,,,,,,,,,,,,,,,715.3545259998646,None,,,,,,,,,,,,,,,,,,,,,,,,,,,,,,,,,,,apple,102,104,aloud,red,713.3408992998302,None,None,713.3408992998302,None,,,,,,,,,,,,,,,,,,,,,,,,,,,,,,100,001,2023_Sep_13_1255,ExactRep-v3-final,2021.2.3,59.496646448411724,
,,,,,,,,104,0,104,0,,,,,,,,,,,,,,,,,,,,,,,,,,,,,,,,,,,,,,,,,,,,,,,,,,,,,717.8574480998795,None,,,,,,,,,,,,,,,,,,,,,,,,,,,,,,,,,,,leader,15,105,sing,white,715.8552620999981,None,None,715.8552620999981,None,,,,,,,,,,,,,,,,,,,,,,,,,,,,,,100,001,2023_Sep_13_1255,ExactRep-v3-final,2021.2.3,59.496646448411724,
,,,,,,,,105,0,105,0,,,,,,,,,,,,,,,,,,,,,,,,,,,,,,,,,,,,,,,,,,,,,,,,,,,,,720.3766443999484,None,,,,,,,,,,,,,,,,,,,,,,,,,,,,,,,,,,,author,99,106,aloud,red,718.3611149999779,None,None,718.3611149999779,None,,,,,,,,,,,,,,,,,,,,,,,,,,,,,,100,001,2023_Sep_13_1255,ExactRep-v3-final,2021.2.3,59.496646448411724,
,,,,,,,,106,0,106,0,,,,,,,,,,,,,,,,,,,,,,,,,,,,,,,,,,,,,,,,,,,,,,,,,,,,,722.8955042997841,None,,,,,,,,,,,,,,,,,,,,,,,,,,,,,,,,,,,garden,6,107,sing,white,720.8800638997927,None,None,720.8800638997927,None,,,,,,,,,,,,,,,,,,,,,,,,,,,,,,100,001,2023_Sep_13_1255,ExactRep-v3-final,2021.2.3,59.496646448411724,
,,,,,,,,107,0,107,0,,,,,,,,,,,,,,,,,,,,,,,,,,,,,,,,,,,,,,,,,,,,,,,,,,,,,725.3983441998716,None,,,,,,,,,,,,,,,,,,,,,,,,,,,,,,,,,,,dream,68,108,silent,blue,723.3966436998453,None,None,723.3966436998453,None,,,,,,,,,,,,,,,,,,,,,,,,,,,,,,100,001,2023_Sep_13_1255,ExactRep-v3-final,2021.2.3,59.496646448411724,
,,,,,,,,108,0,108,0,,,,,,,,,,,,,,,,,,,,,,,,,,,,,,,,,,,,,,,,,,,,,,,,,,,,,727.917323899921,None,,,,,,,,,,,,,,,,,,,,,,,,,,,,,,,,,,,person,26,109,sing,white,725.902856899891,None,None,725.902856899891,None,,,,,,,,,,,,,,,,,,,,,,,,,,,,,,100,001,2023_Sep_13_1255,ExactRep-v3-final,2021.2.3,59.496646448411724,
,,,,,,,,109,0,109,0,,,,,,,,,,,,,,,,,,,,,,,,,,,,,,,,,,,,,,,,,,,,,,,,,,,,,730.4198994999751,None,,,,,,,,,,,,,,,,,,,,,,,,,,,,,,,,,,,bowl,24,110,sing,white,728.4197900998406,None,None,728.4197900998406,None,,,,,,,,,,,,,,,,,,,,,,,,,,,,,,100,001,2023_Sep_13_1255,ExactRep-v3-final,2021.2.3,59.496646448411724,
,,,,,,,,110,0,110,0,,,,,,,,,,,,,,,,,,,,,,,,,,,,,,,,,,,,,,,,,,,,,,,,,,,,,732.9225521998014,None,,,,,,,,,,,,,,,,,,,,,,,,,,,,,,,,,,,shoes,50,111,silent,blue,730.9225384998135,None,None,730.9225384998135,None,,,,,,,,,,,,,,,,,,,,,,,,,,,,,,100,001,2023_Sep_13_1255,ExactRep-v3-final,2021.2.3,59.496646448411724,
,,,,,,,,111,0,111,0,,,,,,,,,,,,,,,,,,,,,,,,,,,,,,,,,,,,,,,,,,,,,,,,,,,,,735.4416898998898,None,,,,,,,,,,,,,,,,,,,,,,,,,,,,,,,,,,,moral,65,112,silent,blue,733.4264853999484,None,None,733.4264853999484,None,,,,,,,,,,,,,,,,,,,,,,,,,,,,,,100,001,2023_Sep_13_1255,ExactRep-v3-final,2021.2.3,59.496646448411724,
,,,,,,,,112,0,112,0,,,,,,,,,,,,,,,,,,,,,,,,,,,,,,,,,,,,,,,,,,,,,,,,,,,,,737.9437333999667,None,,,,,,,,,,,,,,,,,,,,,,,,,,,,,,,,,,,master,98,113,aloud,red,735.941750299884,None,None,735.941750299884,None,,,,,,,,,,,,,,,,,,,,,,,,,,,,,,100,001,2023_Sep_13_1255,ExactRep-v3-final,2021.2.3,59.496646448411724,
,,,,,,,,113,0,113,0,,,,,,,,,,,,,,,,,,,,,,,,,,,,,,,,,,,,,,,,,,,,,,,,,,,,,740.4629164999351,None,,,,,,,,,,,,,,,,,,,,,,,,,,,,,,,,,,,hide,84,114,aloud,red,738.4574704999104,None,None,738.4574704999104,None,,,,,,,,,,,,,,,,,,,,,,,,,,,,,,100,001,2023_Sep_13_1255,ExactRep-v3-final,2021.2.3,59.496646448411724,
,,,,,,,,114,0,114,0,,,,,,,,,,,,,,,,,,,,,,,,,,,,,,,,,,,,,,,,,,,,,,,,,,,,,742.9822926998604,None,,,,,,,,,,,,,,,,,,,,,,,,,,,,,,,,,,,excuse,61,115,silent,blue,740.9735023998655,None,None,740.9735023998655,None,,,,,,,,,,,,,,,,,,,,,,,,,,,,,,100,001,2023_Sep_13_1255,ExactRep-v3-final,2021.2.3,59.496646448411724,
,,,,,,,,115,0,115,0,,,,,,,,,,,,,,,,,,,,,,,,,,,,,,,,,,,,,,,,,,,,,,,,,,,,,745.5013932997826,None,,,,,,,,,,,,,,,,,,,,,,,,,,,,,,,,,,,circle,92,116,aloud,red,743.487008899916,None,None,743.487008899916,None,,,,,,,,,,,,,,,,,,,,,,,,,,,,,,100,001,2023_Sep_13_1255,ExactRep-v3-final,2021.2.3,59.496646448411724,
,,,,,,,,116,0,116,0,,,,,,,,,,,,,,,,,,,,,,,,,,,,,,,,,,,,,,,,,,,,,,,,,,,,,748.0060293998104,None,,,,,,,,,,,,,,,,,,,,,,,,,,,,,,,,,,,money,8,117,sing,white,746.0041518998332,None,None,746.0041518998332,None,,,,,,,,,,,,,,,,,,,,,,,,,,,,,,100,001,2023_Sep_13_1255,ExactRep-v3-final,2021.2.3,59.496646448411724,
,,,,,,,,117,0,117,0,,,,,,,,,,,,,,,,,,,,,,,,,,,,,,,,,,,,,,,,,,,,,,,,,,,,,750.5231137999799,None,,,,,,,,,,,,,,,,,,,,,,,,,,,,,,,,,,,blossom,25,118,sing,white,748.5212026999798,None,None,748.5212026999798,None,,,,,,,,,,,,,,,,,,,,,,,,,,,,,,100,001,2023_Sep_13_1255,ExactRep-v3-final,2021.2.3,59.496646448411724,
,,,,,,,,118,0,118,0,,,,,,,,,,,,,,,,,,,,,,,,,,,,,,,,,,,,,,,,,,,,,,,,,,,,,753.0423152998555,None,,,,,,,,,,,,,,,,,,,,,,,,,,,,,,,,,,,insect,18,119,sing,white,751.0363741999026,None,None,751.0363741999026,None,,,,,,,,,,,,,,,,,,,,,,,,,,,,,,100,001,2023_Sep_13_1255,ExactRep-v3-final,2021.2.3,59.496646448411724,
,,,,,,,,119,0,119,0,,,,,,,,,,,,,,,,,,,,,,,,,,,,,,,,,,,,,,,,,,,,,,,,,,,,,755.5451384999324,None,,,,,,,,,,,,,,,,,,,,,,,,,,,,,,,,,,,heaven,5,120,sing,white,753.5430456998292,None,None,753.5430456998292,None,,,,,,,,,,,,,,,,,,,,,,,,,,,,,,100,001,2023_Sep_13_1255,ExactRep-v3-final,2021.2.3,59.496646448411724,
,,,,,,,,,,,,,,,,,,,,,,,,,,,,,,,,,,,,,,,,,,,,,,,,,,,,,,,,,,,,,,,,,,,,,,,,,,,,,,,,,,,,,,,,,,,,,,,,,,,,,,,,,,,,,,756.0455238998402,None,space,1.0897521001752466,766.0221325999591,None,,,,,,,,,,,,,,,,,,,,,,,,100,001,2023_Sep_13_1255,ExactRep-v3-final,2021.2.3,59.496646448411724,
,,,,,,,,,,,,,,,,,,,,,,,,,,,,,,,,,,,,,,,,,,,,,,,,,,,,,,,,,,,,,,,,,,,,,,,,,,,,,,,,,,,,,,,,,,,,,,,,,,,,,,,,,,,,,,,,,,,,767.1410416997969,None,space,46.570265899877995,777.1175319999456,None,,,,,,,,,,,,,,,,,,100,001,2023_Sep_13_1255,ExactRep-v3-final,2021.2.3,59.496646448411724,
,,,,,,,,,,,,0,0,0,0,,,,,,,,,,,,,,,,,,,,,,,,,,,,,,,,,,,,,,,,,,,,,,,,,832.4400311999489,None,,,,,,,,,,,,,,,,,,,,,,,,,,,,,,,,,,,,,,,,,,,,,,,,,,,,,,,,,wife,157,1,silent,new,blue,824.2381625999697,None,y,824.2381625999697,None,"['y', 'return']","[4.377450699917972, 8.153182199923322]",824.2381625999697,None,,,100,001,2023_Sep_13_1255,ExactRep-v3-final,2021.2.3,59.496646448411724,
,,,,,,,,,,,,1,0,1,0,,,,,,,,,,,,,,,,,,,,,,,,,,,,,,,,,,,,,,,,,,,,,,,,,835.1764541999437,None,,,,,,,,,,,,,,,,,,,,,,,,,,,,,,,,,,,,,,,,,,,,,,,,,,,,,,,,,idea,101,2,aloud,old,red,832.9565685999114,None,y,832.9565685999114,None,"['y', 'return']","[1.6348898999858648, 2.170848400099203]",832.9565685999114,None,,,100,001,2023_Sep_13_1255,ExactRep-v3-final,2021.2.3,59.496646448411724,
,,,,,,,,,,,,2,0,2,0,,,,,,,,,,,,,,,,,,,,,,,,,,,,,,,,,,,,,,,,,,,,,,,,,841.3155085998587,None,,,,,,,,,,,,,,,,,,,,,,,,,,,,,,,,,,,,,,,,,,,,,,,,,,,,,,,,,cash,213,3,sing,new,white,835.692193399882,None,n,835.692193399882,None,"['n', 'return']","[4.955189100001007, 5.579189600190148]",835.692193399882,None,,,100,001,2023_Sep_13_1255,ExactRep-v3-final,2021.2.3,59.496646448411724,
,,,,,,,,,,,,3,0,3,0,,,,,,,,,,,,,,,,,,,,,,,,,,,,,,,,,,,,,,,,,,,,,,,,,845.2527356999926,None,,,,,,,,,,,,,,,,,,,,,,,,,,,,,,,,,,,,,,,,,,,,,,,,,,,,,,,,,steam,197,4,sing,new,white,841.830575699918,None,n,841.830575699918,None,"['n', 'return']","[2.856804700102657, 3.3854482001625]",841.830575699918,None,,,100,001,2023_Sep_13_1255,ExactRep-v3-final,2021.2.3,59.496646448411724,
,,,,,,,,,,,,4,0,4,0,,,,,,,,,,,,,,,,,,,,,,,,,,,,,,,,,,,,,,,,,,,,,,,,,849.1905995998532,None,,,,,,,,,,,,,,,,,,,,,,,,,,,,,,,,,,,,,,,,,,,,,,,,,,,,,,,,,lad,126,5,silent,new,blue,845.7708039998543,None,n,845.7708039998543,None,"['n', 'return']","[2.892671999987215, 3.3806483999360353]",845.7708039998543,None,,,100,001,2023_Sep_13_1255,ExactRep-v3-final,2021.2.3,59.496646448411724,
,,,,,,,,,,,,5,0,5,0,,,,,,,,,,,,,,,,,,,,,,,,,,,,,,,,,,,,,,,,,,,,,,,,,851.8581769999582,None,,,,,,,,,,,,,,,,,,,,,,,,,,,,,,,,,,,,,,,,,,,,,,,,,,,,,,,,,boy,62,6,silent,old,blue,849.7073976998217,None,y,849.7073976998217,None,"['y', 'return']","[1.540088300127536, 2.1080179000273347]",849.7073976998217,None,,,100,001,2023_Sep_13_1255,ExactRep-v3-final,2021.2.3,59.496646448411724,
,,,,,,,,,,,,6,0,6,0,,,,,,,,,,,,,,,,,,,,,,,,,,,,,,,,,,,,,,,,,,,,,,,,,854.5618241999764,None,,,,,,,,,,,,,,,,,,,,,,,,,,,,,,,,,,,,,,,,,,,,,,,,,,,,,,,,,seat,119,7,aloud,old,red,852.3757057997864,None,y,852.3757057997864,None,"['y', 'return']","[1.6557481999043375, 2.1517556998878717]",852.3757057997864,None,,,100,001,2023_Sep_13_1255,ExactRep-v3-final,2021.2.3,59.496646448411724,
,,,,,,,,,,,,7,0,7,0,,,,,,,,,,,,,,,,,,,,,,,,,,,,,,,,,,,,,,,,,,,,,,,,,856.7645212998614,None,,,,,,,,,,,,,,,,,,,,,,,,,,,,,,,,,,,,,,,,,,,,,,,,,,,,,,,,,hide,84,8,aloud,old,red,855.079326499952,None,y,855.079326499952,None,"['y', 'return']","[1.2080281998496503, 1.6483233999460936]",855.079326499952,None,,,100,001,2023_Sep_13_1255,ExactRep-v3-final,2021.2.3,59.496646448411724,
,,,,,,,,,,,,8,0,8,0,,,,,,,,,,,,,,,,,,,,,,,,,,,,,,,,,,,,,,,,,,,,,,,,,860.3003848998342,None,,,,,,,,,,,,,,,,,,,,,,,,,,,,,,,,,,,,,,,,,,,,,,,,,,,,,,,,,truth,146,9,silent,new,blue,857.2816343999002,None,y,857.2816343999002,None,"['y', 'return']","[2.550006999867037, 2.9823088999837637]",857.2816343999002,None,,,100,001,2023_Sep_13_1255,ExactRep-v3-final,2021.2.3,59.496646448411724,
,,,,,,,,,,,,9,0,9,0,,,,,,,,,,,,,,,,,,,,,,,,,,,,,,,,,,,,,,,,,,,,,,,,,863.2523183999583,None,,,,,,,,,,,,,,,,,,,,,,,,,,,,,,,,,,,,,,,,,,,,,,,,,,,,,,,,,storm,201,10,sing,new,white,860.8020283998922,None,n,860.8020283998922,None,"['n', 'return']","[1.997585899895057, 2.4134678000118583]",860.8020283998922,None,,,100,001,2023_Sep_13_1255,ExactRep-v3-final,2021.2.3,59.496646448411724,
,,,,,,,,,,,,10,0,10,0,,,,,,,,,,,,,,,,,,,,,,,,,,,,,,,,,,,,,,,,,,,,,,,,,865.4729538999964,None,,,,,,,,,,,,,,,,,,,,,,,,,,,,,,,,,,,,,,,,,,,,,,,,,,,,,,,,,green,167,11,sing,new,white,863.7635363999289,None,n,863.7635363999289,None,"['n', 'return']","[1.2438632999546826, 1.6679020000156015]",863.7635363999289,None,,,100,001,2023_Sep_13_1255,ExactRep-v3-final,2021.2.3,59.496646448411724,
,,,,,,,,,,,,11,0,11,0,,,,,,,,,,,,,,,,,,,,,,,,,,,,,,,,,,,,,,,,,,,,,,,,,867.4575387998484,None,,,,,,,,,,,,,,,,,,,,,,,,,,,,,,,,,,,,,,,,,,,,,,,,,,,,,,,,,hotel,189,12,sing,new,white,865.9888075999916,None,n,865.9888075999916,None,"['n', 'return']","[1.0265881000086665, 1.434620400192216]",865.9888075999916,None,,,100,001,2023_Sep_13_1255,ExactRep-v3-final,2021.2.3,59.496646448411724,
,,,,,,,,,,,,12,0,12,0,,,,,,,,,,,,,,,,,,,,,,,,,,,,,,,,,,,,,,,,,,,,,,,,,875.8323676998261,None,,,,,,,,,,,,,,,,,,,,,,,,,,,,,,,,,,,,,,,,,,,,,,,,,,,,,,,,,meeting,91,13,aloud,old,red,867.959679099964,None,y,867.959679099964,None,"['y', 'return']","[7.520125999813899, 7.831892299931496]",867.959679099964,None,,,100,001,2023_Sep_13_1255,ExactRep-v3-final,2021.2.3,59.496646448411724,
,,,,,,,,,,,,13,0,13,0,,,,,,,,,,,,,,,,,,,,,,,,,,,,,,,,,,,,,,,,,,,,,,,,,878.7201069998555,None,,,,,,,,,,,,,,,,,,,,,,,,,,,,,,,,,,,,,,,,,,,,,,,,,,,,,,,,,soil,23,14,sing,old,white,876.3474390998017,None,y,876.3474390998017,None,"['return', 'y', 'return']","[1.6200856999494135, 2.036167499842122, 2.3238729999866337]",876.3474390998017,None,,,100,001,2023_Sep_13_1255,ExactRep-v3-final,2021.2.3,59.496646448411724,
,,,,,,,,,,,,14,0,14,0,,,,,,,,,,,,,,,,,,,,,,,,,,,,,,,,,,,,,,,,,,,,,,,,,882.2572195997927,None,,,,,,,,,,,,,,,,,,,,,,,,,,,,,,,,,,,,,,,,,,,,,,,,,,,,,,,,,plant,123,15,silent,new,blue,879.2366356998682,None,y,879.2366356998682,None,"['y', 'return']","[2.690740199992433, 2.9707635000813752]",879.2366356998682,None,,,100,001,2023_Sep_13_1255,ExactRep-v3-final,2021.2.3,59.496646448411724,
,,,,,,,,,,,,15,0,15,0,,,,,,,,,,,,,,,,,,,,,,,,,,,,,,,,,,,,,,,,,,,,,,,,,886.2093549999408,None,,,,,,,,,,,,,,,,,,,,,,,,,,,,,,,,,,,,,,,,,,,,,,,,,,,,,,,,,flood,229,16,sing,new,white,882.7816349999048,None,n,882.7816349999048,None,"['n', 'return']","[3.153765499824658, 3.393974599894136]",882.7816349999048,None,,,100,001,2023_Sep_13_1255,ExactRep-v3-final,2021.2.3,59.496646448411724,
,,,,,,,,,,,,16,0,16,0,,,,,,,,,,,,,,,,,,,,,,,,,,,,,,,,,,,,,,,,,,,,,,,,,888.9958431997802,None,,,,,,,,,,,,,,,,,,,,,,,,,,,,,,,,,,,,,,,,,,,,,,,,,,,,,,,,,teacher,44,17,silent,old,blue,886.7111273999326,None,y,886.7111273999326,None,"['y', 'return']","[1.9602794998791069, 2.248476499924436]",886.7111273999326,None,,,100,001,2023_Sep_13_1255,ExactRep-v3-final,2021.2.3,59.496646448411724,
,,,,,,,,,,,,17,0,17,0,,,,,,,,,,,,,,,,,,,,,,,,,,,,,,,,,,,,,,,,,,,,,,,,,891.882805199828,None,,,,,,,,,,,,,,,,,,,,,,,,,,,,,,,,,,,,,,,,,,,,,,,,,,,,,,,,,apple,102,18,aloud,old,red,889.4975643998478,None,y,889.4975643998478,None,"['y', 'return']","[1.9178183001931757, 2.3419045000337064]",889.4975643998478,None,,,100,001,2023_Sep_13_1255,ExactRep-v3-final,2021.2.3,59.496646448411724,
,,,,,,,,,,,,18,0,18,0,,,,,,,,,,,,,,,,,,,,,,,,,,,,,,,,,,,,,,,,,,,,,,,,,899.0056379998568,None,,,,,,,,,,,,,,,,,,,,,,,,,,,,,,,,,,,,,,,,,,,,,,,,,,,,,,,,,door,11,19,sing,old,white,892.3989287998993,None,y,892.3989287998993,None,"['y', 'return']","[6.304610300110653, 6.560495800105855]",892.3989287998993,None,,,100,001,2023_Sep_13_1255,ExactRep-v3-final,2021.2.3,59.496646448411724,
,,,,,,,,,,,,19,0,19,0,,,,,,,,,,,,,,,,,,,,,,,,,,,,,,,,,,,,,,,,,,,,,,,,,901.041639899835,None,,,,,,,,,,,,,,,,,,,,,,,,,,,,,,,,,,,,,,,,,,,,,,,,,,,,,,,,,dress,169,20,sing,new,white,899.5107099998277,None,n,899.5107099998277,None,"['n', 'return']","[1.2486741999164224, 1.496678699972108]",899.5107099998277,None,,,100,001,2023_Sep_13_1255,ExactRep-v3-final,2021.2.3,59.496646448411724,
,,,,,,,,,,,,20,0,20,0,,,,,,,,,,,,,,,,,,,,,,,,,,,,,,,,,,,,,,,,,,,,,,,,,903.9932269998826,None,,,,,,,,,,,,,,,,,,,,,,,,,,,,,,,,,,,,,,,,,,,,,,,,,,,,,,,,,library,132,21,silent,new,blue,901.559256499866,None,n,901.559256499866,None,"['n', 'return']","[2.136137700174004, 2.392032900126651]",901.559256499866,None,,,100,001,2023_Sep_13_1255,ExactRep-v3-final,2021.2.3,59.496646448411724,
,,,,,,,,,,,,21,0,21,0,,,,,,,,,,,,,,,,,,,,,,,,,,,,,,,,,,,,,,,,,,,,,,,,,906.580610399833,None,,,,,,,,,,,,,,,,,,,,,,,,,,,,,,,,,,,,,,,,,,,,,,,,,,,,,,,,,disease,193,22,sing,new,white,904.4954516999424,None,n,904.4954516999424,None,"['n', 'return']","[1.608001499902457, 2.048300900030881]",904.4954516999424,None,,,100,001,2023_Sep_13_1255,ExactRep-v3-final,2021.2.3,59.496646448411724,
,,,,,,,,,,,,22,0,22,0,,,,,,,,,,,,,,,,,,,,,,,,,,,,,,,,,,,,,,,,,,,,,,,,,912.519542099908,None,,,,,,,,,,,,,,,,,,,,,,,,,,,,,,,,,,,,,,,,,,,,,,,,,,,,,,,,,house,222,23,aloud,new,red,907.0981899998151,None,n,907.0981899998151,None,"['n', 'return']","[5.141268499894068, 5.381223399890587]",907.0981899998151,None,,,100,001,2023_Sep_13_1255,ExactRep-v3-final,2021.2.3,59.496646448411724,
,,,,,,,,,,,,23,0,23,0,,,,,,,,,,,,,,,,,,,,,,,,,,,,,,,,,,,,,,,,,,,,,,,,,914.3054152999539,None,,,,,,,,,,,,,,,,,,,,,,,,,,,,,,,,,,,,,,,,,,,,,,,,,,,,,,,,,metal,95,24,aloud,old,red,913.0271109999157,None,y,913.0271109999157,None,"['y', 'return']","[0.9722927000839263, 1.2283612999599427]",913.0271109999157,None,,,100,001,2023_Sep_13_1255,ExactRep-v3-final,2021.2.3,59.496646448411724,
,,,,,,,,,,,,24,0,24,0,,,,,,,,,,,,,,,,,,,,,,,,,,,,,,,,,,,,,,,,,,,,,,,,,916.3405058998615,None,,,,,,,,,,,,,,,,,,,,,,,,,,,,,,,,,,,,,,,,,,,,,,,,,,,,,,,,,hour,163,25,sing,new,white,914.8216966998298,None,y,914.8216966998298,None,"['y', 'return']","[0.9296651999466121, 1.4736564001068473]",914.8216966998298,None,,,100,001,2023_Sep_13_1255,ExactRep-v3-final,2021.2.3,59.496646448411724,
,,,,,,,,,,,,25,0,25,0,,,,,,,,,,,,,,,,,,,,,,,,,,,,,,,,,,,,,,,,,,,,,,,,,917.9417987999041,None,,,,,,,,,,,,,,,,,,,,,,,,,,,,,,,,,,,,,,,,,,,,,,,,,,,,,,,,,shame,100,26,aloud,old,red,916.857356299879,None,y,916.857356299879,None,"['y', 'return']","[0.8142107999883592, 1.046060600085184]",916.857356299879,None,,,100,001,2023_Sep_13_1255,ExactRep-v3-final,2021.2.3,59.496646448411724,
,,,,,,,,,,,,26,0,26,0,,,,,,,,,,,,,,,,,,,,,,,,,,,,,,,,,,,,,,,,,,,,,,,,,930.8046982998494,None,,,,,,,,,,,,,,,,,,,,,,,,,,,,,,,,,,,,,,,,,,,,,,,,,,,,,,,,,colony,212,27,aloud,new,red,918.4510525998194,None,y,918.4510525998194,None,"['y', 'backspace', 'y', 'return']","[3.6765284000430256, 5.188394299941137, 12.06028200010769, 12.316649399930611]",918.4510525998194,None,,,100,001,2023_Sep_13_1255,ExactRep-v3-final,2021.2.3,59.496646448411724,
,,,,,,,,,,,,27,0,27,0,,,,,,,,,,,,,,,,,,,,,,,,,,,,,,,,,,,,,,,,,,,,,,,,,933.7075850998517,None,,,,,,,,,,,,,,,,,,,,,,,,,,,,,,,,,,,,,,,,,,,,,,,,,,,,,,,,,bowl,24,28,sing,old,white,931.3216785998084,None,y,931.3216785998084,None,"['y', 'return']","[2.117693099891767, 2.349722599843517]",931.3216785998084,None,,,100,001,2023_Sep_13_1255,ExactRep-v3-final,2021.2.3,59.496646448411724,
,,,,,,,,,,,,28,0,28,0,,,,,,,,,,,,,,,,,,,,,,,,,,,,,,,,,,,,,,,,,,,,,,,,,936.0766557999887,None,,,,,,,,,,,,,,,,,,,,,,,,,,,,,,,,,,,,,,,,,,,,,,,,,,,,,,,,,home,202,29,aloud,new,red,934.2103841998614,None,y,934.2103841998614,None,"['y', 'return']","[1.4769978001713753, 1.8296301001682878]",934.2103841998614,None,,,100,001,2023_Sep_13_1255,ExactRep-v3-final,2021.2.3,59.496646448411724,
,,,,,,,,,,,,29,0,29,0,,,,,,,,,,,,,,,,,,,,,,,,,,,,,,,,,,,,,,,,,,,,,,,,,937.5779522999655,None,,,,,,,,,,,,,,,,,,,,,,,,,,,,,,,,,,,,,,,,,,,,,,,,,,,,,,,,,dream,68,30,silent,old,blue,936.5905796999577,None,y,936.5905796999577,None,"['y', 'return']","[0.7528003000188619, 0.9448832999914885]",936.5905796999577,None,,,100,001,2023_Sep_13_1255,ExactRep-v3-final,2021.2.3,59.496646448411724,
,,,,,,,,,,,,30,0,30,0,,,,,,,,,,,,,,,,,,,,,,,,,,,,,,,,,,,,,,,,,,,,,,,,,941.9479034999385,None,,,,,,,,,,,,,,,,,,,,,,,,,,,,,,,,,,,,,,,,,,,,,,,,,,,,,,,,,party,174,31,aloud,new,red,938.0952138998546,None,n,938.0952138998546,None,"['y', 'backspace', 'n', 'return']","[0.7521611000411212, 3.0961622002068907, 3.464178000111133, 3.8161901000421494]",938.0952138998546,None,,,100,001,2023_Sep_13_1255,ExactRep-v3-final,2021.2.3,59.496646448411724,
,,,,,,,,,,,,31,0,31,0,,,,,,,,,,,,,,,,,,,,,,,,,,,,,,,,,,,,,,,,,,,,,,,,,944.0183730998542,None,,,,,,,,,,,,,,,,,,,,,,,,,,,,,,,,,,,,,,,,,,,,,,,,,,,,,,,,,plain,88,32,aloud,old,red,942.4591726998333,None,y,942.4591726998333,None,"['y', 'return']","[1.2762542001437396, 1.5163021001499146]",942.4591726998333,None,,,100,001,2023_Sep_13_1255,ExactRep-v3-final,2021.2.3,59.496646448411724,
,,,,,,,,,,,,32,0,32,0,,,,,,,,,,,,,,,,,,,,,,,,,,,,,,,,,,,,,,,,,,,,,,,,,946.1862936997786,None,,,,,,,,,,,,,,,,,,,,,,,,,,,,,,,,,,,,,,,,,,,,,,,,,,,,,,,,,origin,156,33,silent,new,blue,944.5419678997714,None,y,944.5419678997714,None,"['y', 'return']","[1.4414647000376135, 1.6014116001315415]",944.5419678997714,None,,,100,001,2023_Sep_13_1255,ExactRep-v3-final,2021.2.3,59.496646448411724,
,,,,,,,,,,,,33,0,33,0,,,,,,,,,,,,,,,,,,,,,,,,,,,,,,,,,,,,,,,,,,,,,,,,,947.938577799825,None,,,,,,,,,,,,,,,,,,,,,,,,,,,,,,,,,,,,,,,,,,,,,,,,,,,,,,,,,season,145,34,silent,new,blue,946.6872334999498,None,y,946.6872334999498,None,"['y', 'return']","[1.0721042999066412, 1.2162014998029917]",946.6872334999498,None,,,100,001,2023_Sep_13_1255,ExactRep-v3-final,2021.2.3,59.496646448411724,
,,,,,,,,,,,,34,0,34,0,,,,,,,,,,,,,,,,,,,,,,,,,,,,,,,,,,,,,,,,,,,,,,,,,949.7902699999977,None,,,,,,,,,,,,,,,,,,,,,,,,,,,,,,,,,,,,,,,,,,,,,,,,,,,,,,,,,sky,158,35,silent,new,blue,948.4695838999469,None,n,948.4695838999469,None,"['n', 'return']","[1.0737948999740183, 1.281788099789992]",948.4695838999469,None,,,100,001,2023_Sep_13_1255,ExactRep-v3-final,2021.2.3,59.496646448411724,
,,,,,,,,,,,,35,0,35,0,,,,,,,,,,,,,,,,,,,,,,,,,,,,,,,,,,,,,,,,,,,,,,,,,951.5756204999052,None,,,,,,,,,,,,,,,,,,,,,,,,,,,,,,,,,,,,,,,,,,,,,,,,,,,,,,,,,gift,12,36,sing,old,white,950.3032624998596,None,y,950.3032624998596,None,"['y', 'return', 'y']","[1.0320697000715882, 1.224168400047347, 1.248157100053504]",950.3032624998596,None,,,100,001,2023_Sep_13_1255,ExactRep-v3-final,2021.2.3,59.496646448411724,
,,,,,,,,,,,,36,0,36,0,,,,,,,,,,,,,,,,,,,,,,,,,,,,,,,,,,,,,,,,,,,,,,,,,955.2785139998887,None,,,,,,,,,,,,,,,,,,,,,,,,,,,,,,,,,,,,,,,,,,,,,,,,,,,,,,,,,shock,85,37,aloud,old,red,952.0863130998332,None,y,952.0863130998332,None,"['y', 'return']","[2.977032999973744, 3.1531416000798345]",952.0863130998332,None,,,100,001,2023_Sep_13_1255,ExactRep-v3-final,2021.2.3,59.496646448411724,
,,,,,,,,,,,,37,0,37,0,,,,,,,,,,,,,,,,,,,,,,,,,,,,,,,,,,,,,,,,,,,,,,,,,959.0163914998993,None,,,,,,,,,,,,,,,,,,,,,,,,,,,,,,,,,,,,,,,,,,,,,,,,,,,,,,,,,doll,227,38,sing,new,white,955.7974002999254,None,y,955.7974002999254,None,"['y', 'return']","[2.9779310000594705, 3.1780336999800056]",955.7974002999254,None,,,100,001,2023_Sep_13_1255,ExactRep-v3-final,2021.2.3,59.496646448411724,
,,,,,,,,,,,,38,0,38,0,,,,,,,,,,,,,,,,,,,,,,,,,,,,,,,,,,,,,,,,,,,,,,,,,961.4852032999042,None,,,,,,,,,,,,,,,,,,,,,,,,,,,,,,,,,,,,,,,,,,,,,,,,,,,,,,,,,prayer,195,39,sing,new,white,959.533234299859,None,n,959.533234299859,None,"['n', 'return']","[1.6984111000783741, 1.9060690999031067]",959.533234299859,None,,,100,001,2023_Sep_13_1255,ExactRep-v3-final,2021.2.3,59.496646448411724,
,,,,,,,,,,,,39,0,39,0,,,,,,,,,,,,,,,,,,,,,,,,,,,,,,,,,,,,,,,,,,,,,,,,,963.7542571998201,None,,,,,,,,,,,,,,,,,,,,,,,,,,,,,,,,,,,,,,,,,,,,,,,,,,,,,,,,,skin,217,40,sing,new,white,961.9924232999329,None,n,961.9924232999329,None,"['n', 'return']","[1.535009799990803, 1.718944599851966]",961.9924232999329,None,,,100,001,2023_Sep_13_1255,ExactRep-v3-final,2021.2.3,59.496646448411724,
,,,,,,,,,,,,40,0,40,0,,,,,,,,,,,,,,,,,,,,,,,,,,,,,,,,,,,,,,,,,,,,,,,,,965.5078703998588,None,,,,,,,,,,,,,,,,,,,,,,,,,,,,,,,,,,,,,,,,,,,,,,,,,,,,,,,,,square,231,41,sing,new,white,964.2623760998249,None,n,964.2623760998249,None,"['n', 'return']","[1.000967400148511, 1.2091846000403166]",964.2623760998249,None,,,100,001,2023_Sep_13_1255,ExactRep-v3-final,2021.2.3,59.496646448411724,
,,,,,,,,,,,,41,0,41,0,,,,,,,,,,,,,,,,,,,,,,,,,,,,,,,,,,,,,,,,,,,,,,,,,967.8083575998899,None,,,,,,,,,,,,,,,,,,,,,,,,,,,,,,,,,,,,,,,,,,,,,,,,,,,,,,,,,sugar,53,42,silent,old,blue,966.023401599843,None,y,966.023401599843,None,"['y', 'return']","[1.5679421001113951, 1.7441771999001503]",966.023401599843,None,,,100,001,2023_Sep_13_1255,ExactRep-v3-final,2021.2.3,59.496646448411724,
,,,,,,,,,,,,42,0,42,0,,,,,,,,,,,,,,,,,,,,,,,,,,,,,,,,,,,,,,,,,,,,,,,,,970.4780421999749,None,,,,,,,,,,,,,,,,,,,,,,,,,,,,,,,,,,,,,,,,,,,,,,,,,,,,,,,,,bar,16,43,sing,old,white,968.3165779998526,None,n,968.3165779998526,None,"['n', 'return']","[1.8590026998426765, 2.1227858997881413]",968.3165779998526,None,,,100,001,2023_Sep_13_1255,ExactRep-v3-final,2021.2.3,59.496646448411724,
,,,,,,,,,,,,43,0,43,0,,,,,,,,,,,,,,,,,,,,,,,,,,,,,,,,,,,,,,,,,,,,,,,,,972.0626275998075,None,,,,,,,,,,,,,,,,,,,,,,,,,,,,,,,,,,,,,,,,,,,,,,,,,,,,,,,,,wine,235,44,sing,new,white,970.9825730999,None,n,970.9825730999,None,"['n', 'return']","[0.8807590000797063, 1.0409929999150336]",970.9825730999,None,,,100,001,2023_Sep_13_1255,ExactRep-v3-final,2021.2.3,59.496646448411724,
,,,,,,,,,,,,44,0,44,0,,,,,,,,,,,,,,,,,,,,,,,,,,,,,,,,,,,,,,,,,,,,,,,,,973.7966177999042,None,,,,,,,,,,,,,,,,,,,,,,,,,,,,,,,,,,,,,,,,,,,,,,,,,,,,,,,,,king,22,45,sing,old,white,972.579041399993,None,n,972.579041399993,None,"['n', 'return']","[0.9563619000837207, 1.1723118000663817]",972.579041399993,None,,,100,001,2023_Sep_13_1255,ExactRep-v3-final,2021.2.3,59.496646448411724,
,,,,,,,,,,,,45,0,45,0,,,,,,,,,,,,,,,,,,,,,,,,,,,,,,,,,,,,,,,,,,,,,,,,,978.8864531998988,None,,,,,,,,,,,,,,,,,,,,,,,,,,,,,,,,,,,,,,,,,,,,,,,,,,,,,,,,,fact,140,46,silent,new,blue,974.3027036997955,None,y,974.3027036997955,None,"['y', 'return']","[3.8006536001339555, 4.544778400100768]",974.3027036997955,None,,,100,001,2023_Sep_13_1255,ExactRep-v3-final,2021.2.3,59.496646448411724,
,,,,,,,,,,,,46,0,46,0,,,,,,,,,,,,,,,,,,,,,,,,,,,,,,,,,,,,,,,,,,,,,,,,,980.9881114999298,None,,,,,,,,,,,,,,,,,,,,,,,,,,,,,,,,,,,,,,,,,,,,,,,,,,,,,,,,,victory,214,47,aloud,new,red,979.4033418998588,None,y,979.4033418998588,None,"['y', 'return']","[1.3719526000786573, 1.5401516000274569]",979.4033418998588,None,,,100,001,2023_Sep_13_1255,ExactRep-v3-final,2021.2.3,59.496646448411724,
,,,,,,,,,,,,47,0,47,0,,,,,,,,,,,,,,,,,,,,,,,,,,,,,,,,,,,,,,,,,,,,,,,,,983.8900463997852,None,,,,,,,,,,,,,,,,,,,,,,,,,,,,,,,,,,,,,,,,,,,,,,,,,,,,,,,,,girl,141,48,silent,new,blue,981.4894576999359,None,n,981.4894576999359,None,"['n', 'return']","[2.117907000007108, 2.358037200057879]",981.4894576999359,None,,,100,001,2023_Sep_13_1255,ExactRep-v3-final,2021.2.3,59.496646448411724,
,,,,,,,,,,,,48,0,48,0,,,,,,,,,,,,,,,,,,,,,,,,,,,,,,,,,,,,,,,,,,,,,,,,,986.543934199959,None,,,,,,,,,,,,,,,,,,,,,,,,,,,,,,,,,,,,,,,,,,,,,,,,,,,,,,,,,breast,147,49,silent,new,blue,984.3919037999585,None,n,984.3919037999585,None,"['n', 'n', 'return']","[1.471441000001505, 1.671470200177282, 2.1034180000424385]",984.3919037999585,None,,,100,001,2023_Sep_13_1255,ExactRep-v3-final,2021.2.3,59.496646448411724,
,,,,,,,,,,,,49,0,49,0,,,,,,,,,,,,,,,,,,,,,,,,,,,,,,,,,,,,,,,,,,,,,,,,,990.497233199887,None,,,,,,,,,,,,,,,,,,,,,,,,,,,,,,,,,,,,,,,,,,,,,,,,,,,,,,,,,coffee,118,50,aloud,old,red,987.0612371999305,None,n,987.0612371999305,None,"['n', 'return']","[3.002126900013536, 3.394117800053209]",987.0612371999305,None,,,100,001,2023_Sep_13_1255,ExactRep-v3-final,2021.2.3,59.496646448411724,
,,,,,,,,,,,,50,0,50,0,,,,,,,,,,,,,,,,,,,,,,,,,,,,,,,,,,,,,,,,,,,,,,,,,992.1995955999009,None,,,,,,,,,,,,,,,,,,,,,,,,,,,,,,,,,,,,,,,,,,,,,,,,,,,,,,,,,boulder,80,51,aloud,old,red,990.9992681997828,None,n,990.9992681997828,None,"['n', 'return']","[0.9600889999419451, 1.1601756000891328]",990.9992681997828,None,,,100,001,2023_Sep_13_1255,ExactRep-v3-final,2021.2.3,59.496646448411724,
,,,,,,,,,,,,51,0,51,0,,,,,,,,,,,,,,,,,,,,,,,,,,,,,,,,,,,,,,,,,,,,,,,,,996.9378859999124,None,,,,,,,,,,,,,,,,,,,,,,,,,,,,,,,,,,,,,,,,,,,,,,,,,,,,,,,,,theory,143,52,silent,new,blue,992.7154466998763,None,y,992.7154466998763,None,"['y', 'return']","[3.987900499952957, 4.187891199951991]",992.7154466998763,None,,,100,001,2023_Sep_13_1255,ExactRep-v3-final,2021.2.3,59.496646448411724,
,,,,,,,,,,,,52,0,52,0,,,,,,,,,,,,,,,,,,,,,,,,,,,,,,,,,,,,,,,,,,,,,,,,,999.0395121998154,None,,,,,,,,,,,,,,,,,,,,,,,,,,,,,,,,,,,,,,,,,,,,,,,,,,,,,,,,,moment,96,53,aloud,old,red,997.4535211999901,None,n,997.4535211999901,None,"['n', 'return']","[1.3938082000240684, 1.5458843999076635]",997.4535211999901,None,,,100,001,2023_Sep_13_1255,ExactRep-v3-final,2021.2.3,59.496646448411724,
,,,,,,,,,,,,53,0,53,0,,,,,,,,,,,,,,,,,,,,,,,,,,,,,,,,,,,,,,,,,,,,,,,,,1009.2993268999271,None,,,,,,,,,,,,,,,,,,,,,,,,,,,,,,,,,,,,,,,,,,,,,,,,,,,,,,,,,death,159,54,silent,new,blue,999.5572903999127,None,n,999.5572903999127,None,"['n', 'return']","[9.522723600035533, 9.698100900044665]",999.5572903999127,None,,,100,001,2023_Sep_13_1255,ExactRep-v3-final,2021.2.3,59.496646448411724,
,,,,,,,,,,,,54,0,54,0,,,,,,,,,,,,,,,,,,,,,,,,,,,,,,,,,,,,,,,,,,,,,,,,,1014.1883125999011,None,,,,,,,,,,,,,,,,,,,,,,,,,,,,,,,,,,,,,,,,,,,,,,,,,,,,,,,,,student,225,55,sing,new,white,1009.8006669997703,None,n,1009.8006669997703,None,"['n', 'return']","[4.0388553000520915, 4.350959500065073]",1009.8006669997703,None,,,100,001,2023_Sep_13_1255,ExactRep-v3-final,2021.2.3,59.496646448411724,
,,,,,,,,,,,,55,0,55,0,,,,,,,,,,,,,,,,,,,,,,,,,,,,,,,,,,,,,,,,,,,,,,,,,1026.817223199876,None,,,,,,,,,,,,,,,,,,,,,,,,,,,,,,,,,,,,,,,,,,,,,,,,,,,,,,,,,cost,86,56,aloud,old,red,1014.6980365999043,None,n,1014.6980365999043,None,"['n', 'return']","[11.901250900002196, 12.077530300011858]",1014.6980365999043,None,,,100,001,2023_Sep_13_1255,ExactRep-v3-final,2021.2.3,59.496646448411724,
,,,,,,,,,,,,56,0,56,0,,,,,,,,,,,,,,,,,,,,,,,,,,,,,,,,,,,,,,,,,,,,,,,,,1029.6034660998266,None,,,,,,,,,,,,,,,,,,,,,,,,,,,,,,,,,,,,,,,,,,,,,,,,,,,,,,,,,flower,221,57,sing,new,white,1027.3253244999796,None,n,1027.3253244999796,None,"['n', 'return']","[2.009944099932909, 2.2340759998187423]",1027.3253244999796,None,,,100,001,2023_Sep_13_1255,ExactRep-v3-final,2021.2.3,59.496646448411724,
,,,,,,,,,,,,57,0,57,0,,,,,,,,,,,,,,,,,,,,,,,,,,,,,,,,,,,,,,,,,,,,,,,,,1040.798307399964,None,,,,,,,,,,,,,,,,,,,,,,,,,,,,,,,,,,,,,,,,,,,,,,,,,,,,,,,,,potato,45,58,silent,old,blue,1030.1196199997794,None,y,1030.1196199997794,None,"['y', 'return']","[3.2316722001414746, 10.639793700072914]",1030.1196199997794,None,,,100,001,2023_Sep_13_1255,ExactRep-v3-final,2021.2.3,59.496646448411724,
,,,,,,,,,,,,58,0,58,0,,,,,,,,,,,,,,,,,,,,,,,,,,,,,,,,,,,,,,,,,,,,,,,,,1043.2002248999197,None,,,,,,,,,,,,,,,,,,,,,,,,,,,,,,,,,,,,,,,,,,,,,,,,,,,,,,,,,vision,70,59,silent,old,blue,1041.3150764999446,None,y,1041.3150764999446,None,"['y', 'return']","[1.5485767999198288, 1.836240799864754]",1041.3150764999446,None,,,100,001,2023_Sep_13_1255,ExactRep-v3-final,2021.2.3,59.496646448411724,
,,,,,,,,,,,,59,0,59,0,,,,,,,,,,,,,,,,,,,,,,,,,,,,,,,,,,,,,,,,,,,,,,,,,1045.753161399858,None,,,,,,,,,,,,,,,,,,,,,,,,,,,,,,,,,,,,,,,,,,,,,,,,,,,,,,,,,officer,230,60,aloud,new,red,1043.7175238998607,None,n,1043.7175238998607,None,"['n', 'return']","[1.8178147000726312, 1.9938405000139028]",1043.7175238998607,None,,,100,001,2023_Sep_13_1255,ExactRep-v3-final,2021.2.3,59.496646448411724,
,,,,,,,,,,,,60,0,60,0,,,,,,,,,,,,,,,,,,,,,,,,,,,,,,,,,,,,,,,,,,,,,,,,,1057.0143416998908,None,,,,,,,,,,,,,,,,,,,,,,,,,,,,,,,,,,,,,,,,,,,,,,,,,,,,,,,,,freedom,215,61,sing,new,white,1046.2797856999096,None,y,1046.2797856999096,None,"['y', 'return']","[10.471498799975961, 10.687549700029194]",1046.2797856999096,None,,,100,001,2023_Sep_13_1255,ExactRep-v3-final,2021.2.3,59.496646448411724,
,,,,,,,,,,,,61,0,61,0,,,,,,,,,,,,,,,,,,,,,,,,,,,,,,,,,,,,,,,,,,,,,,,,,1059.4992540997919,None,,,,,,,,,,,,,,,,,,,,,,,,,,,,,,,,,,,,,,,,,,,,,,,,,,,,,,,,,fortune,58,62,silent,old,blue,1057.530017899815,None,y,1057.530017899815,None,"['y', 'return']","[1.7333230001386255, 1.9333508000709116]",1057.530017899815,None,,,100,001,2023_Sep_13_1255,ExactRep-v3-final,2021.2.3,59.496646448411724,
,,,,,,,,,,,,62,0,62,0,,,,,,,,,,,,,,,,,,,,,,,,,,,,,,,,,,,,,,,,,,,,,,,,,1062.1526200999506,None,,,,,,,,,,,,,,,,,,,,,,,,,,,,,,,,,,,,,,,,,,,,,,,,,,,,,,,,,memory,207,63,sing,new,white,1060.000935799908,None,n,1060.000935799908,None,"['n', 'return']","[1.942375399870798, 2.102576599922031]",1060.000935799908,None,,,100,001,2023_Sep_13_1255,ExactRep-v3-final,2021.2.3,59.496646448411724,
,,,,,,,,,,,,63,0,63,0,,,,,,,,,,,,,,,,,,,,,,,,,,,,,,,,,,,,,,,,,,,,,,,,,1064.9552098999266,None,,,,,,,,,,,,,,,,,,,,,,,,,,,,,,,,,,,,,,,,,,,,,,,,,,,,,,,,,lake,31,64,sing,old,white,1062.657206099946,None,n,1062.657206099946,None,"['n', 'return']","[2.0221098999027163, 2.254178300034255]",1062.657206099946,None,,,100,001,2023_Sep_13_1255,ExactRep-v3-final,2021.2.3,59.496646448411724,
,,,,,,,,,,,,64,0,64,0,,,,,,,,,,,,,,,,,,,,,,,,,,,,,,,,,,,,,,,,,,,,,,,,,1066.6062277997844,None,,,,,,,,,,,,,,,,,,,,,,,,,,,,,,,,,,,,,,,,,,,,,,,,,,,,,,,,,person,26,65,sing,old,white,1065.4619440999813,None,y,1065.4619440999813,None,"['y', 'return']","[0.9773499998264015, 1.0974864999298006]",1065.4619440999813,None,,,100,001,2023_Sep_13_1255,ExactRep-v3-final,2021.2.3,59.496646448411724,
,,,,,,,,,,,,65,0,65,0,,,,,,,,,,,,,,,,,,,,,,,,,,,,,,,,,,,,,,,,,,,,,,,,,1070.294206299819,None,,,,,,,,,,,,,,,,,,,,,,,,,,,,,,,,,,,,,,,,,,,,,,,,,,,,,,,,,rock,137,66,silent,new,blue,1067.1084507999476,None,n,1067.1084507999476,None,"['n', 'return']","[2.8108606999740005, 3.1388942999765277]",1067.1084507999476,None,,,100,001,2023_Sep_13_1255,ExactRep-v3-final,2021.2.3,59.496646448411724,
,,,,,,,,,,,,66,0,66,0,,,,,,,,,,,,,,,,,,,,,,,,,,,,,,,,,,,,,,,,,,,,,,,,,1075.081824499881,None,,,,,,,,,,,,,,,,,,,,,,,,,,,,,,,,,,,,,,,,,,,,,,,,,,,,,,,,,salary,185,67,sing,new,white,1070.8007033998147,None,n,1070.8007033998147,None,"['n', 'return']","[4.086582500021905, 4.246832699980587]",1070.8007033998147,None,,,100,001,2023_Sep_13_1255,ExactRep-v3-final,2021.2.3,59.496646448411724,
,,,,,,,,,,,,67,0,67,0,,,,,,,,,,,,,,,,,,,,,,,,,,,,,,,,,,,,,,,,,,,,,,,,,1076.6837496999651,None,,,,,,,,,,,,,,,,,,,,,,,,,,,,,,,,,,,,,,,,,,,,,,,,,,,,,,,,,cotton,209,68,sing,new,white,1075.5832499999087,None,n,1075.5832499999087,None,"['n', 'return']","[0.8642671001143754, 1.056232700124383]",1075.5832499999087,None,,,100,001,2023_Sep_13_1255,ExactRep-v3-final,2021.2.3,59.496646448411724,
,,,,,,,,,,,,68,0,68,0,,,,,,,,,,,,,,,,,,,,,,,,,,,,,,,,,,,,,,,,,,,,,,,,,1078.752528899815,None,,,,,,,,,,,,,,,,,,,,,,,,,,,,,,,,,,,,,,,,,,,,,,,,,,,,,,,,,heaven,5,69,sing,old,white,1077.184816399822,None,y,1077.184816399822,None,"['y', 'return']","[1.366484500002116, 1.5344897999893874]",1077.184816399822,None,,,100,001,2023_Sep_13_1255,ExactRep-v3-final,2021.2.3,59.496646448411724,
,,,,,,,,,,,,69,0,69,0,,,,,,,,,,,,,,,,,,,,,,,,,,,,,,,,,,,,,,,,,,,,,,,,,1080.9046455998905,None,,,,,,,,,,,,,,,,,,,,,,,,,,,,,,,,,,,,,,,,,,,,,,,,,,,,,,,,,mind,28,70,sing,old,white,1079.256062899949,None,n,1079.256062899949,None,"['n', 'return']","[1.4553999002091587, 1.6154728999827057]",1079.256062899949,None,,,100,001,2023_Sep_13_1255,ExactRep-v3-final,2021.2.3,59.496646448411724,
,,,,,,,,,,,,70,0,70,0,,,,,,,,,,,,,,,,,,,,,,,,,,,,,,,,,,,,,,,,,,,,,,,,,1082.7722903999966,None,,,,,,,,,,,,,,,,,,,,,,,,,,,,,,,,,,,,,,,,,,,,,,,,,,,,,,,,,flag,10,71,sing,old,white,1081.411334299948,None,n,1081.411334299948,None,"['n', 'return']","[1.0121289999224246, 1.3159382999874651]",1081.411334299948,None,,,100,001,2023_Sep_13_1255,ExactRep-v3-final,2021.2.3,59.496646448411724,
,,,,,,,,,,,,71,0,71,0,,,,,,,,,,,,,,,,,,,,,,,,,,,,,,,,,,,,,,,,,,,,,,,,,1084.692136499798,None,,,,,,,,,,,,,,,,,,,,,,,,,,,,,,,,,,,,,,,,,,,,,,,,,,,,,,,,,iron,90,72,aloud,old,red,1083.2808473999612,None,y,1083.2808473999612,None,"['y', 'return']","[0.7424659999087453, 1.3665728999767452]",1083.2808473999612,None,,,100,001,2023_Sep_13_1255,ExactRep-v3-final,2021.2.3,59.496646448411724,
,,,,,,,,,,,,72,0,72,0,,,,,,,,,,,,,,,,,,,,,,,,,,,,,,,,,,,,,,,,,,,,,,,,,1088.2666213999037,None,,,,,,,,,,,,,,,,,,,,,,,,,,,,,,,,,,,,,,,,,,,,,,,,,,,,,,,,,meat,4,73,sing,old,white,1085.215372499777,None,n,1085.215372499777,None,"['n', 'return']","[2.816088000079617, 2.9998556000646204]",1085.215372499777,None,,,100,001,2023_Sep_13_1255,ExactRep-v3-final,2021.2.3,59.496646448411724,
,,,,,,,,,,,,73,0,73,0,,,,,,,,,,,,,,,,,,,,,,,,,,,,,,,,,,,,,,,,,,,,,,,,,1092.0159686999395,None,,,,,,,,,,,,,,,,,,,,,,,,,,,,,,,,,,,,,,,,,,,,,,,,,,,,,,,,,humour,116,74,aloud,old,red,1088.77753439988,None,n,1088.77753439988,None,"['n', 'return']","[2.957813800079748, 3.1978084000293165]",1088.77753439988,None,,,100,001,2023_Sep_13_1255,ExactRep-v3-final,2021.2.3,59.496646448411724,
,,,,,,,,,,,,74,0,74,0,,,,,,,,,,,,,,,,,,,,,,,,,,,,,,,,,,,,,,,,,,,,,,,,,1094.1845749998465,None,,,,,,,,,,,,,,,,,,,,,,,,,,,,,,,,,,,,,,,,,,,,,,,,,,,,,,,,,meadow,108,75,aloud,old,red,1092.5322142997757,None,y,1092.5322142997757,None,"['y', 'return']","[1.5630912999622524, 1.6031762000638992]",1092.5322142997757,None,,,100,001,2023_Sep_13_1255,ExactRep-v3-final,2021.2.3,59.496646448411724,
,,,,,,,,,,,,75,0,75,0,,,,,,,,,,,,,,,,,,,,,,,,,,,,,,,,,,,,,,,,,,,,,,,,,1096.9212525999174,None,,,,,,,,,,,,,,,,,,,,,,,,,,,,,,,,,,,,,,,,,,,,,,,,,,,,,,,,,passion,153,76,silent,new,blue,1094.6926217,None,y,1094.6926217,None,"['y', 'return']","[1.9466866001021117, 2.1786643001250923]",1094.6926217,None,,,100,001,2023_Sep_13_1255,ExactRep-v3-final,2021.2.3,59.496646448411724,
,,,,,,,,,,,,76,0,76,0,,,,,,,,,,,,,,,,,,,,,,,,,,,,,,,,,,,,,,,,,,,,,,,,,1099.189800299937,None,,,,,,,,,,,,,,,,,,,,,,,,,,,,,,,,,,,,,,,,,,,,,,,,,,,,,,,,,virtue,237,77,sing,new,white,1097.439981599804,None,n,1097.439981599804,None,"['n', 'return']","[1.4553132001310587, 1.7112980999518186]",1097.439981599804,None,,,100,001,2023_Sep_13_1255,ExactRep-v3-final,2021.2.3,59.496646448411724,
,,,,,,,,,,,,77,0,77,0,,,,,,,,,,,,,,,,,,,,,,,,,,,,,,,,,,,,,,,,,,,,,,,,,1102.392205499811,None,,,,,,,,,,,,,,,,,,,,,,,,,,,,,,,,,,,,,,,,,,,,,,,,,,,,,,,,,quality,52,78,silent,old,blue,1099.7073804999236,None,y,1099.7073804999236,None,"['y', 'return']","[2.227920199977234, 2.6439316000323743]",1099.7073804999236,None,,,100,001,2023_Sep_13_1255,ExactRep-v3-final,2021.2.3,59.496646448411724,
,,,,,,,,,,,,78,0,78,0,,,,,,,,,,,,,,,,,,,,,,,,,,,,,,,,,,,,,,,,,,,,,,,,,1104.3279846999794,None,,,,,,,,,,,,,,,,,,,,,,,,,,,,,,,,,,,,,,,,,,,,,,,,,,,,,,,,,valley,205,79,sing,new,white,1102.8931987998076,None,n,1102.8931987998076,None,"['n', 'return']","[1.0981191999744624, 1.3861372999381274]",1102.8931987998076,None,,,100,001,2023_Sep_13_1255,ExactRep-v3-final,2021.2.3,59.496646448411724,
,,,,,,,,,,,,79,0,79,0,,,,,,,,,,,,,,,,,,,,,,,,,,,,,,,,,,,,,,,,,,,,,,,,,1107.2641820998397,None,,,,,,,,,,,,,,,,,,,,,,,,,,,,,,,,,,,,,,,,,,,,,,,,,,,,,,,,,effort,109,80,aloud,old,red,1104.8360262999777,None,y,1104.8360262999777,None,"['y', 'return']","[2.1473594000563025, 2.3793226999696344]",1104.8360262999777,None,,,100,001,2023_Sep_13_1255,ExactRep-v3-final,2021.2.3,59.496646448411724,
,,,,,,,,,,,,80,0,80,0,,,,,,,,,,,,,,,,,,,,,,,,,,,,,,,,,,,,,,,,,,,,,,,,,1109.0327932999935,None,,,,,,,,,,,,,,,,,,,,,,,,,,,,,,,,,,,,,,,,,,,,,,,,,,,,,,,,,cottage,206,81,aloud,new,red,1107.770627199905,None,y,1107.770627199905,None,"['y', 'return']","[1.0046624999959022, 1.2206949000246823]",1107.770627199905,None,,,100,001,2023_Sep_13_1255,ExactRep-v3-final,2021.2.3,59.496646448411724,
,,,,,,,,,,,,81,0,81,0,,,,,,,,,,,,,,,,,,,,,,,,,,,,,,,,,,,,,,,,,,,,,,,,,1112.0185658999253,None,,,,,,,,,,,,,,,,,,,,,,,,,,,,,,,,,,,,,,,,,,,,,,,,,,,,,,,,,mercy,29,82,sing,old,white,1109.5518713998608,None,y,1109.5518713998608,None,"['y', 'return']","[2.0393772998359054, 2.4234009999781847]",1109.5518713998608,None,,,100,001,2023_Sep_13_1255,ExactRep-v3-final,2021.2.3,59.496646448411724,
,,,,,,,,,,,,82,0,82,0,,,,,,,,,,,,,,,,,,,,,,,,,,,,,,,,,,,,,,,,,,,,,,,,,1114.5211535999551,None,,,,,,,,,,,,,,,,,,,,,,,,,,,,,,,,,,,,,,,,,,,,,,,,,,,,,,,,,child,2,83,sing,old,white,1112.5253207997885,None,n,1112.5253207997885,None,"['n', 'return']","[1.729879500111565, 1.9620815999805927]",1112.5253207997885,None,,,100,001,2023_Sep_13_1255,ExactRep-v3-final,2021.2.3,59.496646448411724,
,,,,,,,,,,,,83,0,83,0,,,,,,,,,,,,,,,,,,,,,,,,,,,,,,,,,,,,,,,,,,,,,,,,,1117.3412319999188,None,,,,,,,,,,,,,,,,,,,,,,,,,,,,,,,,,,,,,,,,,,,,,,,,,,,,,,,,,bottle,122,84,silent,new,blue,1115.0408604999539,None,n,1115.0408604999539,None,"['n', 'return']","[2.046616100007668, 2.2624719000887126]",1115.0408604999539,None,,,100,001,2023_Sep_13_1255,ExactRep-v3-final,2021.2.3,59.496646448411724,
,,,,,,,,,,,,84,0,84,0,,,,,,,,,,,,,,,,,,,,,,,,,,,,,,,,,,,,,,,,,,,,,,,,,1119.77564469981,None,,,,,,,,,,,,,,,,,,,,,,,,,,,,,,,,,,,,,,,,,,,,,,,,,,,,,,,,,street,139,85,silent,new,blue,1117.8584636999294,None,y,1117.8584636999294,None,"['y', 'return']","[1.6128736999817193, 1.884840700076893]",1117.8584636999294,None,,,100,001,2023_Sep_13_1255,ExactRep-v3-final,2021.2.3,59.496646448411724,
,,,,,,,,,,,,85,0,85,0,,,,,,,,,,,,,,,,,,,,,,,,,,,,,,,,,,,,,,,,,,,,,,,,,1121.744915699819,None,,,,,,,,,,,,,,,,,,,,,,,,,,,,,,,,,,,,,,,,,,,,,,,,,,,,,,,,,mother,149,86,silent,new,blue,1120.2784571999218,None,y,1120.2784571999218,None,"['y', 'return']","[0.7848347998224199, 1.424897399963811]",1120.2784571999218,None,,,100,001,2023_Sep_13_1255,ExactRep-v3-final,2021.2.3,59.496646448411724,
,,,,,,,,,,,,86,0,86,0,,,,,,,,,,,,,,,,,,,,,,,,,,,,,,,,,,,,,,,,,,,,,,,,,1124.8650407998357,None,,,,,,,,,,,,,,,,,,,,,,,,,,,,,,,,,,,,,,,,,,,,,,,,,,,,,,,,,trouble,168,87,aloud,new,red,1122.2462866997812,None,y,1122.2462866997812,None,"['y', 'return']","[2.377008799929172, 2.585036600008607]",1122.2462866997812,None,,,100,001,2023_Sep_13_1255,ExactRep-v3-final,2021.2.3,59.496646448411724,
,,,,,,,,,,,,87,0,87,0,,,,,,,,,,,,,,,,,,,,,,,,,,,,,,,,,,,,,,,,,,,,,,,,,1127.2511460999958,None,,,,,,,,,,,,,,,,,,,,,,,,,,,,,,,,,,,,,,,,,,,,,,,,,,,,,,,,,method,173,88,sing,new,white,1125.3679665999953,None,n,1125.3679665999953,None,"['n', 'return']","[1.5513224999886006, 1.8393835998140275]",1125.3679665999953,None,,,100,001,2023_Sep_13_1255,ExactRep-v3-final,2021.2.3,59.496646448411724,
,,,,,,,,,,,,88,0,88,0,,,,,,,,,,,,,,,,,,,,,,,,,,,,,,,,,,,,,,,,,,,,,,,,,1156.2628869998734,None,,,,,,,,,,,,,,,,,,,,,,,,,,,,,,,,,,,,,,,,,,,,,,,,,,,,,,,,,lip,67,89,silent,old,blue,1127.7576565998606,None,y,1127.7576565998606,None,"['backspace', 'backspace', 'backspace', 'backspace', 'backspace', 'backspace', 'backspace', 'y', 'return']","[0.3776722999755293, 0.9376938999630511, 4.697638500016183, 9.049667499959469, 9.20175509992987, 15.713668399956077, 16.777589299948886, 28.169868299970403, 28.45763699989766]",1127.7576565998606,None,,,100,001,2023_Sep_13_1255,ExactRep-v3-final,2021.2.3,59.496646448411724,
,,,,,,,,,,,,89,0,89,0,,,,,,,,,,,,,,,,,,,,,,,,,,,,,,,,,,,,,,,,,,,,,,,,,1158.9314300999977,None,,,,,,,,,,,,,,,,,,,,,,,,,,,,,,,,,,,,,,,,,,,,,,,,,,,,,,,,,paper,20,90,sing,old,white,1156.7774489999283,None,y,1156.7774489999283,None,"['y', 'return']","[1.8860617999453098, 2.1099396999925375]",1156.7774489999283,None,,,100,001,2023_Sep_13_1255,ExactRep-v3-final,2021.2.3,59.496646448411724,
,,,,,,,,,,,,90,0,90,0,,,,,,,,,,,,,,,,,,,,,,,,,,,,,,,,,,,,,,,,,,,,,,,,,1161.9355729999952,None,,,,,,,,,,,,,,,,,,,,,,,,,,,,,,,,,,,,,,,,,,,,,,,,,,,,,,,,,chair,19,91,sing,old,white,1159.4328496998642,None,n,1159.4328496998642,None,"['n', 'return']","[2.166571900015697, 2.4544510000851005]",1159.4328496998642,None,,,100,001,2023_Sep_13_1255,ExactRep-v3-final,2021.2.3,59.496646448411724,
,,,,,,,,,,,,91,0,91,0,,,,,,,,,,,,,,,,,,,,,,,,,,,,,,,,,,,,,,,,,,,,,,,,,1163.9038295999635,None,,,,,,,,,,,,,,,,,,,,,,,,,,,,,,,,,,,,,,,,,,,,,,,,,,,,,,,,,money,8,92,sing,old,white,1162.4529976998456,None,n,1162.4529976998456,None,"['n', 'return']","[1.1462753000669181, 1.4184196998830885]",1162.4529976998456,None,,,100,001,2023_Sep_13_1255,ExactRep-v3-final,2021.2.3,59.496646448411724,
,,,,,,,,,,,,92,0,92,0,,,,,,,,,,,,,,,,,,,,,,,,,,,,,,,,,,,,,,,,,,,,,,,,,1166.1232156998012,None,,,,,,,,,,,,,,,,,,,,,,,,,,,,,,,,,,,,,,,,,,,,,,,,,,,,,,,,,woman,131,93,silent,new,blue,1164.4046558998525,None,y,1164.4046558998525,None,"['y', 'return']","[1.41065669991076, 1.6749454999808222]",1164.4046558998525,None,,,100,001,2023_Sep_13_1255,ExactRep-v3-final,2021.2.3,59.496646448411724,
,,,,,,,,,,,,93,0,93,0,,,,,,,,,,,,,,,,,,,,,,,,,,,,,,,,,,,,,,,,,,,,,,,,,1169.7255668998696,None,,,,,,,,,,,,,,,,,,,,,,,,,,,,,,,,,,,,,,,,,,,,,,,,,,,,,,,,,volume,63,94,silent,old,blue,1166.6389771997929,None,n,1166.6389771997929,None,"['n', 'return']","[2.800617099972442, 3.048293799860403]",1166.6389771997929,None,,,100,001,2023_Sep_13_1255,ExactRep-v3-final,2021.2.3,59.496646448411724,
,,,,,,,,,,,,94,0,94,0,,,,,,,,,,,,,,,,,,,,,,,,,,,,,,,,,,,,,,,,,,,,,,,,,1171.5773506998084,None,,,,,,,,,,,,,,,,,,,,,,,,,,,,,,,,,,,,,,,,,,,,,,,,,,,,,,,,,cat,27,95,sing,old,white,1170.226785699837,None,n,1170.226785699837,None,"['n', 'return']","[1.044545500073582, 1.3165531000122428]",1170.226785699837,None,,,100,001,2023_Sep_13_1255,ExactRep-v3-final,2021.2.3,59.496646448411724,
,,,,,,,,,,,,95,0,95,0,,,,,,,,,,,,,,,,,,,,,,,,,,,,,,,,,,,,,,,,,,,,,,,,,1173.6132070999593,None,,,,,,,,,,,,,,,,,,,,,,,,,,,,,,,,,,,,,,,,,,,,,,,,,,,,,,,,,glory,106,96,aloud,old,red,1172.0785759999417,None,y,1172.0785759999417,None,"['y', 'return']","[1.1927220998331904, 1.4967106999829412]",1172.0785759999417,None,,,100,001,2023_Sep_13_1255,ExactRep-v3-final,2021.2.3,59.496646448411724,
,,,,,,,,,,,,96,0,96,0,,,,,,,,,,,,,,,,,,,,,,,,,,,,,,,,,,,,,,,,,,,,,,,,,1176.7171254998539,None,,,,,,,,,,,,,,,,,,,,,,,,,,,,,,,,,,,,,,,,,,,,,,,,,,,,,,,,,leader,15,97,sing,old,white,1174.1144932999741,None,n,1174.1144932999741,None,"['n', 'return']","[2.3247865000739694, 2.556693200021982]",1174.1144932999741,None,,,100,001,2023_Sep_13_1255,ExactRep-v3-final,2021.2.3,59.496646448411724,
,,,,,,,,,,,,97,0,97,0,,,,,,,,,,,,,,,,,,,,,,,,,,,,,,,,,,,,,,,,,,,,,,,,,1179.9404261999298,None,,,,,,,,,,,,,,,,,,,,,,,,,,,,,,,,,,,,,,,,,,,,,,,,,,,,,,,,,pipe,133,98,silent,new,blue,1177.2178581999615,None,n,1177.2178581999615,None,"['n', 'return']","[2.4695188999176025, 2.669661199906841]",1177.2178581999615,None,,,100,001,2023_Sep_13_1255,ExactRep-v3-final,2021.2.3,59.496646448411724,
,,,,,,,,,,,,98,0,98,0,,,,,,,,,,,,,,,,,,,,,,,,,,,,,,,,,,,,,,,,,,,,,,,,,1184.7585820998065,None,,,,,,,,,,,,,,,,,,,,,,,,,,,,,,,,,,,,,,,,,,,,,,,,,,,,,,,,,pride,34,99,sing,old,white,1180.460654699942,None,y,1180.460654699942,None,"['y', 'return']","[4.050528099993244, 4.25864200014621]",1180.460654699942,None,,,100,001,2023_Sep_13_1255,ExactRep-v3-final,2021.2.3,59.496646448411724,
,,,,,,,,,,,,99,0,99,0,,,,,,,,,,,,,,,,,,,,,,,,,,,,,,,,,,,,,,,,,,,,,,,,,1186.5932375998236,None,,,,,,,,,,,,,,,,,,,,,,,,,,,,,,,,,,,,,,,,,,,,,,,,,,,,,,,,,pole,37,100,sing,old,white,1185.2796423998661,None,n,1185.2796423998661,None,"['n', 'return']","[1.0796301998198032, 1.2716379999183118]",1185.2796423998661,None,,,100,001,2023_Sep_13_1255,ExactRep-v3-final,2021.2.3,59.496646448411724,
,,,,,,,,,,,,100,0,100,0,,,,,,,,,,,,,,,,,,,,,,,,,,,,,,,,,,,,,,,,,,,,,,,,,1190.1464310998563,None,,,,,,,,,,,,,,,,,,,,,,,,,,,,,,,,,,,,,,,,,,,,,,,,,,,,,,,,,law,134,101,silent,new,blue,1187.0939576998353,None,y,1187.0939576998353,None,"['y', 'return']","[2.7854150999337435, 3.017639300087467]",1187.0939576998353,None,,,100,001,2023_Sep_13_1255,ExactRep-v3-final,2021.2.3,59.496646448411724,
,,,,,,,,,,,,101,0,101,0,,,,,,,,,,,,,,,,,,,,,,,,,,,,,,,,,,,,,,,,,,,,,,,,,1191.832189799985,None,,,,,,,,,,,,,,,,,,,,,,,,,,,,,,,,,,,,,,,,,,,,,,,,,,,,,,,,,prison,113,102,aloud,old,red,1190.6469917998184,None,y,1190.6469917998184,None,"['y', 'return']","[0.91231709998101, 1.1362707999069244]",1190.6469917998184,None,,,100,001,2023_Sep_13_1255,ExactRep-v3-final,2021.2.3,59.496646448411724,
,,,,,,,,,,,,102,0,102,0,,,,,,,,,,,,,,,,,,,,,,,,,,,,,,,,,,,,,,,,,,,,,,,,,1195.1172025999986,None,,,,,,,,,,,,,,,,,,,,,,,,,,,,,,,,,,,,,,,,,,,,,,,,,,,,,,,,,answer,150,103,silent,new,blue,1192.3479505998548,None,n,1192.3479505998548,None,"['n', 'n', 'return']","[2.291426399955526, 2.459312899969518, 2.7315647997893393]",1192.3479505998548,None,,,100,001,2023_Sep_13_1255,ExactRep-v3-final,2021.2.3,59.496646448411724,
,,,,,,,,,,,,103,0,103,0,,,,,,,,,,,,,,,,,,,,,,,,,,,,,,,,,,,,,,,,,,,,,,,,,1197.2533257999457,None,,,,,,,,,,,,,,,,,,,,,,,,,,,,,,,,,,,,,,,,,,,,,,,,,,,,,,,,,advice,142,104,silent,new,blue,1195.6183429998346,None,y,1195.6183429998346,None,"['y', 'return']","[1.4449346999172121, 1.5969704000744969]",1195.6183429998346,None,,,100,001,2023_Sep_13_1255,ExactRep-v3-final,2021.2.3,59.496646448411724,
,,,,,,,,,,,,104,0,104,0,,,,,,,,,,,,,,,,,,,,,,,,,,,,,,,,,,,,,,,,,,,,,,,,,1200.8234781997744,None,,,,,,,,,,,,,,,,,,,,,,,,,,,,,,,,,,,,,,,,,,,,,,,,,,,,,,,,,judge,38,105,sing,old,white,1197.7560411999002,None,y,1197.7560411999002,None,"['y', 'return']","[2.859211100032553, 3.035461400169879]",1197.7560411999002,None,,,100,001,2023_Sep_13_1255,ExactRep-v3-final,2021.2.3,59.496646448411724,
,,,,,,,,,,,,105,0,105,0,,,,,,,,,,,,,,,,,,,,,,,,,,,,,,,,,,,,,,,,,,,,,,,,,1204.543502099812,None,,,,,,,,,,,,,,,,,,,,,,,,,,,,,,,,,,,,,,,,,,,,,,,,,,,,,,,,,honour,14,106,sing,old,white,1201.3259885997977,None,y,1201.3259885997977,None,"['y', 'return']","[3.017326300032437, 3.1852357999887317]",1201.3259885997977,None,,,100,001,2023_Sep_13_1255,ExactRep-v3-final,2021.2.3,59.496646448411724,
,,,,,,,,,,,,106,0,106,0,,,,,,,,,,,,,,,,,,,,,,,,,,,,,,,,,,,,,,,,,,,,,,,,,1207.6634195998777,None,,,,,,,,,,,,,,,,,,,,,,,,,,,,,,,,,,,,,,,,,,,,,,,,,,,,,,,,,master,98,107,aloud,old,red,1205.0449004999828,None,y,1205.0449004999828,None,"['y', 'return']","[2.4347190000116825, 2.578409100184217]",1205.0449004999828,None,,,100,001,2023_Sep_13_1255,ExactRep-v3-final,2021.2.3,59.496646448411724,
,,,,,,,,,,,,107,0,107,0,,,,,,,,,,,,,,,,,,,,,,,,,,,,,,,,,,,,,,,,,,,,,,,,,1213.5705396998674,None,,,,,,,,,,,,,,,,,,,,,,,,,,,,,,,,,,,,,,,,,,,,,,,,,,,,,,,,,journal,81,108,aloud,old,red,1208.1653732999694,None,n,1208.1653732999694,None,"['n', 'return']","[5.186172700021416, 5.370158100035042]",1208.1653732999694,None,,,100,001,2023_Sep_13_1255,ExactRep-v3-final,2021.2.3,59.496646448411724,
,,,,,,,,,,,,108,0,108,0,,,,,,,,,,,,,,,,,,,,,,,,,,,,,,,,,,,,,,,,,,,,,,,,,1217.421364299953,None,,,,,,,,,,,,,,,,,,,,,,,,,,,,,,,,,,,,,,,,,,,,,,,,,,,,,,,,,amount,21,109,sing,old,white,1214.0763185999822,None,n,1214.0763185999822,None,"['n', 'return']","[3.034879900049418, 3.282974800094962]",1214.0763185999822,None,,,100,001,2023_Sep_13_1255,ExactRep-v3-final,2021.2.3,59.496646448411724,
,,,,,,,,,,,,109,0,109,0,,,,,,,,,,,,,,,,,,,,,,,,,,,,,,,,,,,,,,,,,,,,,,,,,1222.9453518998343,None,,,,,,,,,,,,,,,,,,,,,,,,,,,,,,,,,,,,,,,,,,,,,,,,,,,,,,,,,priest,196,110,aloud,new,red,1217.9282624998596,None,n,1217.9282624998596,None,"['n', 'return']","[4.6950165999587625, 4.975053400034085]",1217.9282624998596,None,,,100,001,2023_Sep_13_1255,ExactRep-v3-final,2021.2.3,59.496646448411724,
,,,,,,,,,,,,110,0,110,0,,,,,,,,,,,,,,,,,,,,,,,,,,,,,,,,,,,,,,,,,,,,,,,,,1226.0830005998723,None,,,,,,,,,,,,,,,,,,,,,,,,,,,,,,,,,,,,,,,,,,,,,,,,,,,,,,,,,insect,18,111,sing,old,white,1223.4473125999793,None,n,1223.4473125999793,None,"['n', 'return']","[2.4001923999749124, 2.6002545999363065]",1223.4473125999793,None,,,100,001,2023_Sep_13_1255,ExactRep-v3-final,2021.2.3,59.496646448411724,
,,,,,,,,,,,,111,0,111,0,,,,,,,,,,,,,,,,,,,,,,,,,,,,,,,,,,,,,,,,,,,,,,,,,1228.48429329996,None,,,,,,,,,,,,,,,,,,,,,,,,,,,,,,,,,,,,,,,,,,,,,,,,,,,,,,,,,blossom,25,112,sing,old,white,1226.5865644998848,None,n,1226.5865644998848,None,"['n', 'return']","[1.6450690999627113, 1.8606630999129266]",1226.5865644998848,None,,,100,001,2023_Sep_13_1255,ExactRep-v3-final,2021.2.3,59.496646448411724,
,,,,,,,,,,,,112,0,112,0,,,,,,,,,,,,,,,,,,,,,,,,,,,,,,,,,,,,,,,,,,,,,,,,,1230.6375176999718,None,,,,,,,,,,,,,,,,,,,,,,,,,,,,,,,,,,,,,,,,,,,,,,,,,,,,,,,,,circle,92,113,aloud,old,red,1228.9864784998354,None,n,1228.9864784998354,None,"['n', 'return']","[1.4127680999226868, 1.6048141000792384]",1228.9864784998354,None,,,100,001,2023_Sep_13_1255,ExactRep-v3-final,2021.2.3,59.496646448411724,
,,,,,,,,,,,,113,0,113,0,,,,,,,,,,,,,,,,,,,,,,,,,,,,,,,,,,,,,,,,,,,,,,,,,1235.2410567998886,None,,,,,,,,,,,,,,,,,,,,,,,,,,,,,,,,,,,,,,,,,,,,,,,,,,,,,,,,,spirit,39,114,silent,old,blue,1231.1460601999424,None,y,1231.1460601999424,None,"['y', 'return']","[3.9411935000680387, 4.0612862999551]",1231.1460601999424,None,,,100,001,2023_Sep_13_1255,ExactRep-v3-final,2021.2.3,59.496646448411724,
,,,,,,,,,,,,114,0,114,0,,,,,,,,,,,,,,,,,,,,,,,,,,,,,,,,,,,,,,,,,,,,,,,,,1237.142387099797,None,,,,,,,,,,,,,,,,,,,,,,,,,,,,,,,,,,,,,,,,,,,,,,,,,,,,,,,,,custom,160,115,aloud,new,red,1235.7430103998631,None,n,1235.7430103998631,None,"['n', 'return']","[1.1362470001913607, 1.352261200081557]",1235.7430103998631,None,,,100,001,2023_Sep_13_1255,ExactRep-v3-final,2021.2.3,59.496646448411724,
,,,,,,,,,,,,115,0,115,0,,,,,,,,,,,,,,,,,,,,,,,,,,,,,,,,,,,,,,,,,,,,,,,,,1239.6463005999103,None,,,,,,,,,,,,,,,,,,,,,,,,,,,,,,,,,,,,,,,,,,,,,,,,,,,,,,,,,murder,7,116,sing,old,white,1237.6450971998274,None,y,1237.6450971998274,None,"['y', 'return']","[1.8500768998637795, 1.9621677999384701]",1237.6450971998274,None,,,100,001,2023_Sep_13_1255,ExactRep-v3-final,2021.2.3,59.496646448411724,
,,,,,,,,,,,,116,0,116,0,,,,,,,,,,,,,,,,,,,,,,,,,,,,,,,,,,,,,,,,,,,,,,,,,1241.7622647997923,None,,,,,,,,,,,,,,,,,,,,,,,,,,,,,,,,,,,,,,,,,,,,,,,,,,,,,,,,,air,172,117,aloud,new,red,1240.1472340999171,None,n,1240.1472340999171,None,"['n', 'return']","[1.3000016999430954, 1.5559974000789225]",1240.1472340999171,None,,,100,001,2023_Sep_13_1255,ExactRep-v3-final,2021.2.3,59.496646448411724,
,,,,,,,,,,,,117,0,117,0,,,,,,,,,,,,,,,,,,,,,,,,,,,,,,,,,,,,,,,,,,,,,,,,,1245.3504464998841,None,,,,,,,,,,,,,,,,,,,,,,,,,,,,,,,,,,,,,,,,,,,,,,,,,,,,,,,,,garden,6,118,sing,old,white,1242.2868068998214,None,n,1242.2868068998214,None,"['n', 'return']","[2.784503099974245, 3.0323229001369327]",1242.2868068998214,None,,,100,001,2023_Sep_13_1255,ExactRep-v3-final,2021.2.3,59.496646448411724,
,,,,,,,,,,,,118,0,118,0,,,,,,,,,,,,,,,,,,,,,,,,,,,,,,,,,,,,,,,,,,,,,,,,,1247.354101299774,None,,,,,,,,,,,,,,,,,,,,,,,,,,,,,,,,,,,,,,,,,,,,,,,,,,,,,,,,,table,64,119,silent,old,blue,1245.8632409998681,None,y,1245.8632409998681,None,"['y', 'return']","[1.2723321001976728, 1.4560697001870722]",1245.8632409998681,None,,,100,001,2023_Sep_13_1255,ExactRep-v3-final,2021.2.3,59.496646448411724,
,,,,,,,,,,,,119,0,119,0,,,,,,,,,,,,,,,,,,,,,,,,,,,,,,,,,,,,,,,,,,,,,,,,,1250.5562580998521,None,,,,,,,,,,,,,,,,,,,,,,,,,,,,,,,,,,,,,,,,,,,,,,,,,,,,,,,,,ability,32,120,sing,old,white,1247.8559095999226,None,n,1247.8559095999226,None,"['n', 'return']","[2.471415599808097, 2.655332699883729]",1247.8559095999226,None,,,100,001,2023_Sep_13_1255,ExactRep-v3-final,2021.2.3,59.496646448411724,
,,,,,,,,,,,,120,0,120,0,,,,,,,,,,,,,,,,,,,,,,,,,,,,,,,,,,,,,,,,,,,,,,,,,1253.6292069999035,None,,,,,,,,,,,,,,,,,,,,,,,,,,,,,,,,,,,,,,,,,,,,,,,,,,,,,,,,,car,46,121,silent,old,blue,1251.0703141998965,None,n,1251.0703141998965,None,"['n', 'return']","[2.2891750999260694, 2.5128657000605017]",1251.0703141998965,None,,,100,001,2023_Sep_13_1255,ExactRep-v3-final,2021.2.3,59.496646448411724,
,,,,,,,,,,,,121,0,121,0,,,,,,,,,,,,,,,,,,,,,,,,,,,,,,,,,,,,,,,,,,,,,,,,,1255.9115519998595,None,,,,,,,,,,,,,,,,,,,,,,,,,,,,,,,,,,,,,,,,,,,,,,,,,,,,,,,,,charm,71,122,silent,old,blue,1254.148588199867,None,y,1254.148588199867,None,"['y', 'return']","[1.6185912999790162, 1.7226319001056254]",1254.148588199867,None,,,100,001,2023_Sep_13_1255,ExactRep-v3-final,2021.2.3,59.496646448411724,
,,,,,,,,,,,,122,0,122,0,,,,,,,,,,,,,,,,,,,,,,,,,,,,,,,,,,,,,,,,,,,,,,,,,1258.983384899795,None,,,,,,,,,,,,,,,,,,,,,,,,,,,,,,,,,,,,,,,,,,,,,,,,,,,,,,,,,hall,177,123,sing,new,white,1256.413489999948,None,n,1256.413489999948,None,"['n', 'return']","[2.3219300999771804, 2.5298021000344306]",1256.413489999948,None,,,100,001,2023_Sep_13_1255,ExactRep-v3-final,2021.2.3,59.496646448411724,
,,,,,,,,,,,,123,0,123,0,,,,,,,,,,,,,,,,,,,,,,,,,,,,,,,,,,,,,,,,,,,,,,,,,1261.4506380998064,None,,,,,,,,,,,,,,,,,,,,,,,,,,,,,,,,,,,,,,,,,,,,,,,,,,,,,,,,,shoes,50,124,silent,old,blue,1259.5000642999075,None,n,1259.5000642999075,None,"['n', 'return']","[1.7313713999465108, 1.9074187001679093]",1259.5000642999075,None,,,100,001,2023_Sep_13_1255,ExactRep-v3-final,2021.2.3,59.496646448411724,
,,,,,,,,,,,,124,0,124,0,,,,,,,,,,,,,,,,,,,,,,,,,,,,,,,,,,,,,,,,,,,,,,,,,1263.3037739999127,None,,,,,,,,,,,,,,,,,,,,,,,,,,,,,,,,,,,,,,,,,,,,,,,,,,,,,,,,,ocean,152,125,silent,new,blue,1261.9519920998719,None,n,1261.9519920998719,None,"['n', 'return']","[1.071159099927172, 1.3113158999476582]",1261.9519920998719,None,,,100,001,2023_Sep_13_1255,ExactRep-v3-final,2021.2.3,59.496646448411724,
,,,,,,,,,,,,125,0,125,0,,,,,,,,,,,,,,,,,,,,,,,,,,,,,,,,,,,,,,,,,,,,,,,,,1264.887950599892,None,,,,,,,,,,,,,,,,,,,,,,,,,,,,,,,,,,,,,,,,,,,,,,,,,,,,,,,,,dawn,40,126,silent,old,blue,1263.8203731998801,None,n,1263.8203731998801,None,"['n', 'return']","[0.8508318001404405, 1.0350142000243068]",1263.8203731998801,None,,,100,001,2023_Sep_13_1255,ExactRep-v3-final,2021.2.3,59.496646448411724,
,,,,,,,,,,,,126,0,126,0,,,,,,,,,,,,,,,,,,,,,,,,,,,,,,,,,,,,,,,,,,,,,,,,,1267.139553999994,None,,,,,,,,,,,,,,,,,,,,,,,,,,,,,,,,,,,,,,,,,,,,,,,,,,,,,,,,,rod,233,127,sing,new,white,1265.3905320998747,None,n,1265.3905320998747,None,"['n', 'return']","[1.4809308999683708, 1.7046614999417216]",1265.3905320998747,None,,,100,001,2023_Sep_13_1255,ExactRep-v3-final,2021.2.3,59.496646448411724,
,,,,,,,,,,,,127,0,127,0,,,,,,,,,,,,,,,,,,,,,,,,,,,,,,,,,,,,,,,,,,,,,,,,,1269.0418247999623,None,,,,,,,,,,,,,,,,,,,,,,,,,,,,,,,,,,,,,,,,,,,,,,,,,,,,,,,,,hope,114,128,aloud,old,red,1267.658624699805,None,y,1267.658624699805,None,"['y', 'return']","[1.0925855999812484, 1.3486862001009285]",1267.658624699805,None,,,100,001,2023_Sep_13_1255,ExactRep-v3-final,2021.2.3,59.496646448411724,
,,,,,,,,,,,,128,0,128,0,,,,,,,,,,,,,,,,,,,,,,,,,,,,,,,,,,,,,,,,,,,,,,,,,1271.5443160999566,None,,,,,,,,,,,,,,,,,,,,,,,,,,,,,,,,,,,,,,,,,,,,,,,,,,,,,,,,,coast,218,129,aloud,new,red,1269.5434143999591,None,n,1269.5434143999591,None,"['n', 'return']","[1.7520207001361996, 1.9599196000490338]",1269.5434143999591,None,,,100,001,2023_Sep_13_1255,ExactRep-v3-final,2021.2.3,59.496646448411724,
,,,,,,,,,,,,129,0,129,0,,,,,,,,,,,,,,,,,,,,,,,,,,,,,,,,,,,,,,,,,,,,,,,,,1273.696547199972,None,,,,,,,,,,,,,,,,,,,,,,,,,,,,,,,,,,,,,,,,,,,,,,,,,,,,,,,,,factory,204,130,aloud,new,red,1272.0446975999512,None,n,1272.0446975999512,None,"['n', 'return']","[1.4026430998928845, 1.6026472998782992]",1272.0446975999512,None,,,100,001,2023_Sep_13_1255,ExactRep-v3-final,2021.2.3,59.496646448411724,
,,,,,,,,,,,,130,0,130,0,,,,,,,,,,,,,,,,,,,,,,,,,,,,,,,,,,,,,,,,,,,,,,,,,1276.0648943998385,None,,,,,,,,,,,,,,,,,,,,,,,,,,,,,,,,,,,,,,,,,,,,,,,,,,,,,,,,,cattle,49,131,silent,old,blue,1274.1980307998601,None,n,1274.1980307998601,None,"['n', 'return']","[1.6332300000358373, 1.8253153001423925]",1274.1980307998601,None,,,100,001,2023_Sep_13_1255,ExactRep-v3-final,2021.2.3,59.496646448411724,
