trials_fam.thisRepN,trials_fam.thisTrialN,trials_fam.thisN,trials_fam.thisIndex,trials_prc.thisRepN,trials_prc.thisTrialN,trials_prc.thisN,trials_prc.thisIndex,StudyLoop.thisRepN,StudyLoop.thisTrialN,StudyLoop.thisN,StudyLoop.thisIndex,TestLoop.thisRepN,TestLoop.thisTrialN,TestLoop.thisN,TestLoop.thisIndex,text_colortest.started,text_colortest.stopped,key_colortest.keys,key_colortest.rt,key_colortest.started,key_colortest.stopped,textCondition.started,textCondition.stopped,keyCondition.keys,keyCondition.rt,keyCondition.started,keyCondition.stopped,Condition_between,Condition_counterbal,keyWelcome.keys,keyWelcome.rt,keyWelcome.started,keyWelcome.stopped,welcome_a.started,welcome_a.stopped,welcome_b.started,welcome_b.stopped,welcome_c.started,welcome_c.stopped,welcome_d.started,welcome_d.stopped,welcome_e.started,welcome_e.stopped,welcome_f.started,welcome_f.stopped,key_resp_fam_inst.keys,key_resp_fam_inst.rt,key_resp_fam_inst.started,key_resp_fam_inst.stopped,fam_a.started,fam_a.stopped,fam_b.started,fam_b.stopped,fam_c.started,fam_c.stopped,fam_d.started,fam_d.stopped,fam_e.started,fam_e.stopped,fam_f.started,fam_f.stopped,text_famil.started,text_famil.stopped,textBlank500.started,textBlank500.stopped,key_resp_prc_inst.keys,key_resp_prc_inst.rt,key_resp_prc_inst.started,key_resp_prc_inst.stopped,prac_a.started,prac_a.stopped,prac_b.started,prac_b.stopped,prac_c.started,prac_c.stopped,prac_d.started,prac_d.stopped,prac_e.started,prac_e.stopped,prac_f.started,prac_f.stopped,text_prc_trial.started,text_prc_trial.stopped,key_resp_study_inst.keys,key_resp_study_inst.rt,key_resp_study_inst.started,key_resp_study_inst.stopped,crit_a.started,crit_a.stopped,crit_b.started,crit_b.stopped,crit_c.started,crit_c.stopped,crit_d.started,crit_d.stopped,crit_e.started,crit_e.stopped,crit_f.started,crit_f.stopped,study_word,study_num,study_order,study_type,word_color,textStudy.started,textStudy.stopped,keyStudy.keys,keyStudy.started,keyStudy.stopped,post_study.started,post_study.stopped,key_resp_post_study.keys,key_resp_post_study.rt,key_resp_post_study.started,key_resp_post_study.stopped,test_inst.started,test_inst.stopped,key_resp_test_inst.keys,key_resp_test_inst.rt,key_resp_test_inst.started,key_resp_test_inst.stopped,test_word,test_num,test_order,test_condition,old_new_test,word_color_test,textConf.started,textConf.stopped,Participant Response,textInput.started,textInput.stopped,keyResp.keys,keyResp.rt,keyResp.started,keyResp.stopped,textEnd.started,textEnd.stopped,participant,session,date,expName,psychopyVersion,frameRate,
,,,,,,,,,,,,,,,,16.179102699970827,None,y,0.43214459996670485,16.179102699970827,None,,,,,,,,,,,,,,,,,,,,,,,,,,,,,,,,,,,,,,,,,,,,,,,,,,,,,,,,,,,,,,,,,,,,,,,,,,,,,,,,,,,,,,,,,,,,,,,,,,,,,,,,,,,,,,,,,,,,,,101YB,001,2023_Sep_14_1418,ExactRep-v3-final,2021.2.3,59.739654550362204,
,,,,,,,,,,,,,,,,,,,,,,16.629684099927545,None,b,0.22968610003590584,16.629684099927545,None,,,,,,,,,,,,,,,,,,,,,,,,,,,,,,,,,,,,,,,,,,,,,,,,,,,,,,,,,,,,,,,,,,,,,,,,,,,,,,,,,,,,,,,,,,,,,,,,,,,,,,,,,,,,,,,,101YB,001,2023_Sep_14_1418,ExactRep-v3-final,2021.2.3,59.739654550362204,
,,,,,,,,,,,,,,,,,,,,,,,,,,,,colorfoils,b,space,493.5937338001095,27.03368250001222,None,,,,,,,,,,,,,,,,,,,,,,,,,,,,,,,,,,,,,,,,,,,,,,,,,,,,,,,,,,,,,,,,,,,,,,,,,,,,,,,,,,,,,,,,,,,,,,,,,,,,,,,,,,101YB,001,2023_Sep_14_1418,ExactRep-v3-final,2021.2.3,59.739654550362204,
,,,,,,,,,,,,,,,,,,,,,,,,,,,,,,,,,,17.077534900046885,None,17.077534900046885,None,17.077534900046885,None,17.077534900046885,None,17.077534900046885,None,17.077534900046885,None,space,17.645015699788928,530.7900616000406,None,,,,,,,,,,,,,,,,,,,,,,,,,,,,,,,,,,,,,,,,,,,,,,,,,,,,,,,,,,,,,,,,,,,,,,,,,,,,,,,,,,,,,,,,,,101YB,001,2023_Sep_14_1418,ExactRep-v3-final,2021.2.3,59.739654550362204,
0,0,0,0,,,,,,,,,,,,,,,,,,,,,,,,,,,,,,,,,,,,,,,,,,,,,,,520.8006704999134,None,520.8006704999134,None,520.8006704999134,None,520.8006704999134,None,520.8006704999134,None,520.8006704999134,None,548.5186459999532,None,550.5128013000358,None,,,,,,,,,,,,,,,,,,,,,,,,,,,,,,,,,,,,,,,,,,,,,,,,,,,,,,,,,,,,,,,,,,,,,,,,,,101YB,001,2023_Sep_14_1418,ExactRep-v3-final,2021.2.3,59.739654550362204,
1,0,1,0,,,,,,,,,,,,,,,,,,,,,,,,,,,,,,,,,,,,,,,,,,,,,,,,,,,,,,,,,,,551.0138766998425,None,553.0155123998411,None,,,,,,,,,,,,,,,,,,,,,,,,,,,,,,,,,,,,,,,,,,,,,,,,,,,,,,,,,,,,,,,,,,,,,,,,,,101YB,001,2023_Sep_14_1418,ExactRep-v3-final,2021.2.3,59.739654550362204,
2,0,2,0,,,,,,,,,,,,,,,,,,,,,,,,,,,,,,,,,,,,,,,,,,,,,,,,,,,,,,,,,,,553.5161263998598,None,555.5181203000247,None,,,,,,,,,,,,,,,,,,,,,,,,,,,,,,,,,,,,,,,,,,,,,,,,,,,,,,,,,,,,,,,,,,,,,,,,,,101YB,001,2023_Sep_14_1418,ExactRep-v3-final,2021.2.3,59.739654550362204,
3,0,3,0,,,,,,,,,,,,,,,,,,,,,,,,,,,,,,,,,,,,,,,,,,,,,,,,,,,,,,,,,,,556.0243183998391,None,558.0375724998303,None,,,,,,,,,,,,,,,,,,,,,,,,,,,,,,,,,,,,,,,,,,,,,,,,,,,,,,,,,,,,,,,,,,,,,,,,,,101YB,001,2023_Sep_14_1418,ExactRep-v3-final,2021.2.3,59.739654550362204,
4,0,4,0,,,,,,,,,,,,,,,,,,,,,,,,,,,,,,,,,,,,,,,,,,,,,,,,,,,,,,,,,,,558.5455113998614,None,560.5564867998473,None,,,,,,,,,,,,,,,,,,,,,,,,,,,,,,,,,,,,,,,,,,,,,,,,,,,,,,,,,,,,,,,,,,,,,,,,,,101YB,001,2023_Sep_14_1418,ExactRep-v3-final,2021.2.3,59.739654550362204,
5,0,5,0,,,,,,,,,,,,,,,,,,,,,,,,,,,,,,,,,,,,,,,,,,,,,,,,,,,,,,,,,,,561.0645335000008,None,563.0757752000354,None,,,,,,,,,,,,,,,,,,,,,,,,,,,,,,,,,,,,,,,,,,,,,,,,,,,,,,,,,,,,,,,,,,,,,,,,,,101YB,001,2023_Sep_14_1418,ExactRep-v3-final,2021.2.3,59.739654550362204,
6,0,6,0,,,,,,,,,,,,,,,,,,,,,,,,,,,,,,,,,,,,,,,,,,,,,,,,,,,,,,,,,,,563.5867298999801,None,565.5946775998455,None,,,,,,,,,,,,,,,,,,,,,,,,,,,,,,,,,,,,,,,,,,,,,,,,,,,,,,,,,,,,,,,,,,,,,,,,,,101YB,001,2023_Sep_14_1418,ExactRep-v3-final,2021.2.3,59.739654550362204,
7,0,7,0,,,,,,,,,,,,,,,,,,,,,,,,,,,,,,,,,,,,,,,,,,,,,,,,,,,,,,,,,,,566.0951606999151,None,568.0974075999111,None,,,,,,,,,,,,,,,,,,,,,,,,,,,,,,,,,,,,,,,,,,,,,,,,,,,,,,,,,,,,,,,,,,,,,,,,,,101YB,001,2023_Sep_14_1418,ExactRep-v3-final,2021.2.3,59.739654550362204,
8,0,8,0,,,,,,,,,,,,,,,,,,,,,,,,,,,,,,,,,,,,,,,,,,,,,,,,,,,,,,,,,,,568.6016501998529,None,570.6165825000498,None,,,,,,,,,,,,,,,,,,,,,,,,,,,,,,,,,,,,,,,,,,,,,,,,,,,,,,,,,,,,,,,,,,,,,,,,,,101YB,001,2023_Sep_14_1418,ExactRep-v3-final,2021.2.3,59.739654550362204,
9,0,9,0,,,,,,,,,,,,,,,,,,,,,,,,,,,,,,,,,,,,,,,,,,,,,,,,,,,,,,,,,,,571.117074499838,None,573.1192001998425,None,,,,,,,,,,,,,,,,,,,,,,,,,,,,,,,,,,,,,,,,,,,,,,,,,,,,,,,,,,,,,,,,,,,,,,,,,,101YB,001,2023_Sep_14_1418,ExactRep-v3-final,2021.2.3,59.739654550362204,
10,0,10,0,,,,,,,,,,,,,,,,,,,,,,,,,,,,,,,,,,,,,,,,,,,,,,,,,,,,,,,,,,,573.6236215999816,None,575.6379507998936,None,,,,,,,,,,,,,,,,,,,,,,,,,,,,,,,,,,,,,,,,,,,,,,,,,,,,,,,,,,,,,,,,,,,,,,,,,,101YB,001,2023_Sep_14_1418,ExactRep-v3-final,2021.2.3,59.739654550362204,
11,0,11,0,,,,,,,,,,,,,,,,,,,,,,,,,,,,,,,,,,,,,,,,,,,,,,,,,,,,,,,,,,,576.1383682999294,None,578.1407621998806,None,,,,,,,,,,,,,,,,,,,,,,,,,,,,,,,,,,,,,,,,,,,,,,,,,,,,,,,,,,,,,,,,,,,,,,,,,,101YB,001,2023_Sep_14_1418,ExactRep-v3-final,2021.2.3,59.739654550362204,
12,0,12,0,,,,,,,,,,,,,,,,,,,,,,,,,,,,,,,,,,,,,,,,,,,,,,,,,,,,,,,,,,,578.6412178999744,None,580.642950899899,None,,,,,,,,,,,,,,,,,,,,,,,,,,,,,,,,,,,,,,,,,,,,,,,,,,,,,,,,,,,,,,,,,,,,,,,,,,101YB,001,2023_Sep_14_1418,ExactRep-v3-final,2021.2.3,59.739654550362204,
13,0,13,0,,,,,,,,,,,,,,,,,,,,,,,,,,,,,,,,,,,,,,,,,,,,,,,,,,,,,,,,,,,581.1435489000287,None,583.14543829998,None,,,,,,,,,,,,,,,,,,,,,,,,,,,,,,,,,,,,,,,,,,,,,,,,,,,,,,,,,,,,,,,,,,,,,,,,,,101YB,001,2023_Sep_14_1418,ExactRep-v3-final,2021.2.3,59.739654550362204,
14,0,14,0,,,,,,,,,,,,,,,,,,,,,,,,,,,,,,,,,,,,,,,,,,,,,,,,,,,,,,,,,,,583.6457944998983,None,585.6485019999091,None,,,,,,,,,,,,,,,,,,,,,,,,,,,,,,,,,,,,,,,,,,,,,,,,,,,,,,,,,,,,,,,,,,,,,,,,,,101YB,001,2023_Sep_14_1418,ExactRep-v3-final,2021.2.3,59.739654550362204,
,,,,,,,,,,,,,,,,,,,,,,,,,,,,,,,,,,,,,,,,,,,,,,,,,,,,,,,,,,,,,,,,,,space,19.221491599921137,596.3172781998292,None,,,,,,,,,,,,,,,,,,,,,,,,,,,,,,,,,,,,,,,,,,,,,,,,,,,,,,,,,,,,,,,,,,,,,,101YB,001,2023_Sep_14_1418,ExactRep-v3-final,2021.2.3,59.739654550362204,
,,,,0,0,0,0,,,,,,,,,,,,,,,,,,,,,,,,,,,,,,,,,,,,,,,,,,,,,,,,,,,,,,,,,617.663730399916,None,,,,,586.3206245000474,None,586.3206245000474,None,586.3206245000474,None,586.3206245000474,None,586.3206245000474,None,586.3206245000474,None,615.6504518999718,None,,,,,,,,,,,,,,,,,,,,,,,,,,,,,,,,,,,,,,,,,,,,,,,,,,,,,,,,101YB,001,2023_Sep_14_1418,ExactRep-v3-final,2021.2.3,59.739654550362204,
,,,,1,0,1,0,,,,,,,,,,,,,,,,,,,,,,,,,,,,,,,,,,,,,,,,,,,,,,,,,,,,,,,,,620.1661582998931,None,,,,,,,,,,,,,,,,,618.1640592999756,None,,,,,,,,,,,,,,,,,,,,,,,,,,,,,,,,,,,,,,,,,,,,,,,,,,,,,,,,101YB,001,2023_Sep_14_1418,ExactRep-v3-final,2021.2.3,59.739654550362204,
,,,,2,0,2,0,,,,,,,,,,,,,,,,,,,,,,,,,,,,,,,,,,,,,,,,,,,,,,,,,,,,,,,,,622.6694141000044,None,,,,,,,,,,,,,,,,,620.6666251998395,None,,,,,,,,,,,,,,,,,,,,,,,,,,,,,,,,,,,,,,,,,,,,,,,,,,,,,,,,101YB,001,2023_Sep_14_1418,ExactRep-v3-final,2021.2.3,59.739654550362204,
,,,,3,0,3,0,,,,,,,,,,,,,,,,,,,,,,,,,,,,,,,,,,,,,,,,,,,,,,,,,,,,,,,,,625.1710568999406,None,,,,,,,,,,,,,,,,,623.1691471999511,None,,,,,,,,,,,,,,,,,,,,,,,,,,,,,,,,,,,,,,,,,,,,,,,,,,,,,,,,101YB,001,2023_Sep_14_1418,ExactRep-v3-final,2021.2.3,59.739654550362204,
,,,,4,0,4,0,,,,,,,,,,,,,,,,,,,,,,,,,,,,,,,,,,,,,,,,,,,,,,,,,,,,,,,,,627.6731807000469,None,,,,,,,,,,,,,,,,,625.6716775998939,None,,,,,,,,,,,,,,,,,,,,,,,,,,,,,,,,,,,,,,,,,,,,,,,,,,,,,,,,101YB,001,2023_Sep_14_1418,ExactRep-v3-final,2021.2.3,59.739654550362204,
,,,,5,0,5,0,,,,,,,,,,,,,,,,,,,,,,,,,,,,,,,,,,,,,,,,,,,,,,,,,,,,,,,,,630.1757831999566,None,,,,,,,,,,,,,,,,,628.1736628999934,None,,,,,,,,,,,,,,,,,,,,,,,,,,,,,,,,,,,,,,,,,,,,,,,,,,,,,,,,101YB,001,2023_Sep_14_1418,ExactRep-v3-final,2021.2.3,59.739654550362204,
,,,,6,0,6,0,,,,,,,,,,,,,,,,,,,,,,,,,,,,,,,,,,,,,,,,,,,,,,,,,,,,,,,,,632.6794698999729,None,,,,,,,,,,,,,,,,,630.6761535999831,None,,,,,,,,,,,,,,,,,,,,,,,,,,,,,,,,,,,,,,,,,,,,,,,,,,,,,,,,101YB,001,2023_Sep_14_1418,ExactRep-v3-final,2021.2.3,59.739654550362204,
,,,,7,0,7,0,,,,,,,,,,,,,,,,,,,,,,,,,,,,,,,,,,,,,,,,,,,,,,,,,,,,,,,,,635.1807144999038,None,,,,,,,,,,,,,,,,,633.1794058999512,None,,,,,,,,,,,,,,,,,,,,,,,,,,,,,,,,,,,,,,,,,,,,,,,,,,,,,,,,101YB,001,2023_Sep_14_1418,ExactRep-v3-final,2021.2.3,59.739654550362204,
,,,,8,0,8,0,,,,,,,,,,,,,,,,,,,,,,,,,,,,,,,,,,,,,,,,,,,,,,,,,,,,,,,,,637.6831824998371,None,,,,,,,,,,,,,,,,,635.6814768998884,None,,,,,,,,,,,,,,,,,,,,,,,,,,,,,,,,,,,,,,,,,,,,,,,,,,,,,,,,101YB,001,2023_Sep_14_1418,ExactRep-v3-final,2021.2.3,59.739654550362204,
,,,,9,0,9,0,,,,,,,,,,,,,,,,,,,,,,,,,,,,,,,,,,,,,,,,,,,,,,,,,,,,,,,,,640.1861353998538,None,,,,,,,,,,,,,,,,,638.1836865998339,None,,,,,,,,,,,,,,,,,,,,,,,,,,,,,,,,,,,,,,,,,,,,,,,,,,,,,,,,101YB,001,2023_Sep_14_1418,ExactRep-v3-final,2021.2.3,59.739654550362204,
,,,,10,0,10,0,,,,,,,,,,,,,,,,,,,,,,,,,,,,,,,,,,,,,,,,,,,,,,,,,,,,,,,,,642.6889667999931,None,,,,,,,,,,,,,,,,,640.6865240000188,None,,,,,,,,,,,,,,,,,,,,,,,,,,,,,,,,,,,,,,,,,,,,,,,,,,,,,,,,101YB,001,2023_Sep_14_1418,ExactRep-v3-final,2021.2.3,59.739654550362204,
,,,,11,0,11,0,,,,,,,,,,,,,,,,,,,,,,,,,,,,,,,,,,,,,,,,,,,,,,,,,,,,,,,,,645.1907373999711,None,,,,,,,,,,,,,,,,,643.191531599965,None,,,,,,,,,,,,,,,,,,,,,,,,,,,,,,,,,,,,,,,,,,,,,,,,,,,,,,,,101YB,001,2023_Sep_14_1418,ExactRep-v3-final,2021.2.3,59.739654550362204,
,,,,12,0,12,0,,,,,,,,,,,,,,,,,,,,,,,,,,,,,,,,,,,,,,,,,,,,,,,,,,,,,,,,,647.6934378000442,None,,,,,,,,,,,,,,,,,645.69134270004,None,,,,,,,,,,,,,,,,,,,,,,,,,,,,,,,,,,,,,,,,,,,,,,,,,,,,,,,,101YB,001,2023_Sep_14_1418,ExactRep-v3-final,2021.2.3,59.739654550362204,
,,,,13,0,13,0,,,,,,,,,,,,,,,,,,,,,,,,,,,,,,,,,,,,,,,,,,,,,,,,,,,,,,,,,650.2124405000359,None,,,,,,,,,,,,,,,,,648.1971384999342,None,,,,,,,,,,,,,,,,,,,,,,,,,,,,,,,,,,,,,,,,,,,,,,,,,,,,,,,,101YB,001,2023_Sep_14_1418,ExactRep-v3-final,2021.2.3,59.739654550362204,
,,,,14,0,14,0,,,,,,,,,,,,,,,,,,,,,,,,,,,,,,,,,,,,,,,,,,,,,,,,,,,,,,,,,652.7151321999263,None,,,,,,,,,,,,,,,,,650.7134082999546,None,,,,,,,,,,,,,,,,,,,,,,,,,,,,,,,,,,,,,,,,,,,,,,,,,,,,,,,,101YB,001,2023_Sep_14_1418,ExactRep-v3-final,2021.2.3,59.739654550362204,
,,,,,,,,,,,,,,,,,,,,,,,,,,,,,,,,,,,,,,,,,,,,,,,,,,,,,,,,,,,,,,,,,,,,,,,,,,,,,,,,,,,,space,18.368489500135183,663.3622423999477,None,,,,,,,,,,,,,,,,,,,,,,,,,,,,,,,,,,,,,,,,,,,,,,,,,,,,101YB,001,2023_Sep_14_1418,ExactRep-v3-final,2021.2.3,59.739654550362204,
,,,,,,,,0,0,0,0,,,,,,,,,,,,,,,,,,,,,,,,,,,,,,,,,,,,,,,,,,,,,,,,,,,,,683.8464106998872,None,,,,,,,,,,,,,,,,,,,,,,,653.389005899895,None,653.389005899895,None,653.389005899895,None,653.389005899895,None,653.389005899895,None,653.389005899895,None,pole,4,1,sing,blue,681.8472335999832,None,None,681.8472335999832,None,,,,,,,,,,,,,,,,,,,,,,,,,,,,,,101YB,001,2023_Sep_14_1418,ExactRep-v3-final,2021.2.3,59.739654550362204,
,,,,,,,,1,0,1,0,,,,,,,,,,,,,,,,,,,,,,,,,,,,,,,,,,,,,,,,,,,,,,,,,,,,,686.3655209999997,None,,,,,,,,,,,,,,,,,,,,,,,,,,,,,,,,,,,child,14,2,sing,blue,684.3557636998594,None,None,684.3557636998594,None,,,,,,,,,,,,,,,,,,,,,,,,,,,,,,101YB,001,2023_Sep_14_1418,ExactRep-v3-final,2021.2.3,59.739654550362204,
,,,,,,,,2,0,2,0,,,,,,,,,,,,,,,,,,,,,,,,,,,,,,,,,,,,,,,,,,,,,,,,,,,,,688.884521199856,None,,,,,,,,,,,,,,,,,,,,,,,,,,,,,,,,,,,health,77,3,silent,white,686.8702421998605,None,None,686.8702421998605,None,,,,,,,,,,,,,,,,,,,,,,,,,,,,,,101YB,001,2023_Sep_14_1418,ExactRep-v3-final,2021.2.3,59.739654550362204,
,,,,,,,,3,0,3,0,,,,,,,,,,,,,,,,,,,,,,,,,,,,,,,,,,,,,,,,,,,,,,,,,,,,,691.4033935999032,None,,,,,,,,,,,,,,,,,,,,,,,,,,,,,,,,,,,fate,93,4,aloud,red,689.3905084000435,None,None,689.3905084000435,None,,,,,,,,,,,,,,,,,,,,,,,,,,,,,,101YB,001,2023_Sep_14_1418,ExactRep-v3-final,2021.2.3,59.739654550362204,
,,,,,,,,4,0,4,0,,,,,,,,,,,,,,,,,,,,,,,,,,,,,,,,,,,,,,,,,,,,,,,,,,,,,693.9060223000124,None,,,,,,,,,,,,,,,,,,,,,,,,,,,,,,,,,,,dawn,2,5,sing,blue,691.9053078999277,None,None,691.9053078999277,None,,,,,,,,,,,,,,,,,,,,,,,,,,,,,,101YB,001,2023_Sep_14_1418,ExactRep-v3-final,2021.2.3,59.739654550362204,
,,,,,,,,5,0,5,0,,,,,,,,,,,,,,,,,,,,,,,,,,,,,,,,,,,,,,,,,,,,,,,,,,,,,696.425479499856,None,,,,,,,,,,,,,,,,,,,,,,,,,,,,,,,,,,,form,72,6,silent,white,694.4177423999645,None,None,694.4177423999645,None,,,,,,,,,,,,,,,,,,,,,,,,,,,,,,101YB,001,2023_Sep_14_1418,ExactRep-v3-final,2021.2.3,59.739654550362204,
,,,,,,,,6,0,6,0,,,,,,,,,,,,,,,,,,,,,,,,,,,,,,,,,,,,,,,,,,,,,,,,,,,,,698.9280040999874,None,,,,,,,,,,,,,,,,,,,,,,,,,,,,,,,,,,,murder,97,7,aloud,red,696.9262361000292,None,None,696.9262361000292,None,,,,,,,,,,,,,,,,,,,,,,,,,,,,,,101YB,001,2023_Sep_14_1418,ExactRep-v3-final,2021.2.3,59.739654550362204,
,,,,,,,,7,0,7,0,,,,,,,,,,,,,,,,,,,,,,,,,,,,,,,,,,,,,,,,,,,,,,,,,,,,,701.4304952998646,None,,,,,,,,,,,,,,,,,,,,,,,,,,,,,,,,,,,fault,109,8,aloud,red,699.4299361999147,None,None,699.4299361999147,None,,,,,,,,,,,,,,,,,,,,,,,,,,,,,,101YB,001,2023_Sep_14_1418,ExactRep-v3-final,2021.2.3,59.739654550362204,
,,,,,,,,8,0,8,0,,,,,,,,,,,,,,,,,,,,,,,,,,,,,,,,,,,,,,,,,,,,,,,,,,,,,703.9331238998566,None,,,,,,,,,,,,,,,,,,,,,,,,,,,,,,,,,,,fun,99,9,aloud,red,701.9327775998972,None,None,701.9327775998972,None,,,,,,,,,,,,,,,,,,,,,,,,,,,,,,101YB,001,2023_Sep_14_1418,ExactRep-v3-final,2021.2.3,59.739654550362204,
,,,,,,,,9,0,9,0,,,,,,,,,,,,,,,,,,,,,,,,,,,,,,,,,,,,,,,,,,,,,,,,,,,,,706.4351810000371,None,,,,,,,,,,,,,,,,,,,,,,,,,,,,,,,,,,,method,119,10,aloud,red,704.4354494998697,None,None,704.4354494998697,None,,,,,,,,,,,,,,,,,,,,,,,,,,,,,,101YB,001,2023_Sep_14_1418,ExactRep-v3-final,2021.2.3,59.739654550362204,
,,,,,,,,10,0,10,0,,,,,,,,,,,,,,,,,,,,,,,,,,,,,,,,,,,,,,,,,,,,,,,,,,,,,708.9545056999195,None,,,,,,,,,,,,,,,,,,,,,,,,,,,,,,,,,,,meeting,57,11,silent,white,706.9511293000542,None,None,706.9511293000542,None,,,,,,,,,,,,,,,,,,,,,,,,,,,,,,101YB,001,2023_Sep_14_1418,ExactRep-v3-final,2021.2.3,59.739654550362204,
,,,,,,,,11,0,11,0,,,,,,,,,,,,,,,,,,,,,,,,,,,,,,,,,,,,,,,,,,,,,,,,,,,,,711.4572813999839,None,,,,,,,,,,,,,,,,,,,,,,,,,,,,,,,,,,,meat,115,12,aloud,red,709.4547629998997,None,None,709.4547629998997,None,,,,,,,,,,,,,,,,,,,,,,,,,,,,,,101YB,001,2023_Sep_14_1418,ExactRep-v3-final,2021.2.3,59.739654550362204,
,,,,,,,,12,0,12,0,,,,,,,,,,,,,,,,,,,,,,,,,,,,,,,,,,,,,,,,,,,,,,,,,,,,,713.9761581998318,None,,,,,,,,,,,,,,,,,,,,,,,,,,,,,,,,,,,vision,43,13,silent,white,711.9795400998555,None,None,711.9795400998555,None,,,,,,,,,,,,,,,,,,,,,,,,,,,,,,101YB,001,2023_Sep_14_1418,ExactRep-v3-final,2021.2.3,59.739654550362204,
,,,,,,,,13,0,13,0,,,,,,,,,,,,,,,,,,,,,,,,,,,,,,,,,,,,,,,,,,,,,,,,,,,,,716.478678500047,None,,,,,,,,,,,,,,,,,,,,,,,,,,,,,,,,,,,body,64,14,silent,white,714.4768240000121,None,None,714.4768240000121,None,,,,,,,,,,,,,,,,,,,,,,,,,,,,,,101YB,001,2023_Sep_14_1418,ExactRep-v3-final,2021.2.3,59.739654550362204,
,,,,,,,,14,0,14,0,,,,,,,,,,,,,,,,,,,,,,,,,,,,,,,,,,,,,,,,,,,,,,,,,,,,,718.997713800054,None,,,,,,,,,,,,,,,,,,,,,,,,,,,,,,,,,,,village,113,15,aloud,red,716.9938159000594,None,None,716.9938159000594,None,,,,,,,,,,,,,,,,,,,,,,,,,,,,,,101YB,001,2023_Sep_14_1418,ExactRep-v3-final,2021.2.3,59.739654550362204,
,,,,,,,,15,0,15,0,,,,,,,,,,,,,,,,,,,,,,,,,,,,,,,,,,,,,,,,,,,,,,,,,,,,,721.5007119998336,None,,,,,,,,,,,,,,,,,,,,,,,,,,,,,,,,,,,paper,114,16,aloud,red,719.500178599963,None,None,719.500178599963,None,,,,,,,,,,,,,,,,,,,,,,,,,,,,,,101YB,001,2023_Sep_14_1418,ExactRep-v3-final,2021.2.3,59.739654550362204,
,,,,,,,,16,0,16,0,,,,,,,,,,,,,,,,,,,,,,,,,,,,,,,,,,,,,,,,,,,,,,,,,,,,,724.0195603999309,None,,,,,,,,,,,,,,,,,,,,,,,,,,,,,,,,,,,series,110,17,aloud,red,722.0093642999418,None,None,722.0093642999418,None,,,,,,,,,,,,,,,,,,,,,,,,,,,,,,101YB,001,2023_Sep_14_1418,ExactRep-v3-final,2021.2.3,59.739654550362204,
,,,,,,,,17,0,17,0,,,,,,,,,,,,,,,,,,,,,,,,,,,,,,,,,,,,,,,,,,,,,,,,,,,,,726.5389984999783,None,,,,,,,,,,,,,,,,,,,,,,,,,,,,,,,,,,,fur,8,18,sing,blue,724.5232674998697,None,None,724.5232674998697,None,,,,,,,,,,,,,,,,,,,,,,,,,,,,,,101YB,001,2023_Sep_14_1418,ExactRep-v3-final,2021.2.3,59.739654550362204,
,,,,,,,,18,0,18,0,,,,,,,,,,,,,,,,,,,,,,,,,,,,,,,,,,,,,,,,,,,,,,,,,,,,,729.0415447000414,None,,,,,,,,,,,,,,,,,,,,,,,,,,,,,,,,,,,plain,107,19,aloud,red,727.0422928000335,None,None,727.0422928000335,None,,,,,,,,,,,,,,,,,,,,,,,,,,,,,,101YB,001,2023_Sep_14_1418,ExactRep-v3-final,2021.2.3,59.739654550362204,
,,,,,,,,19,0,19,0,,,,,,,,,,,,,,,,,,,,,,,,,,,,,,,,,,,,,,,,,,,,,,,,,,,,,731.5603209000546,None,,,,,,,,,,,,,,,,,,,,,,,,,,,,,,,,,,,opinion,42,20,silent,white,729.544825799996,None,None,729.544825799996,None,,,,,,,,,,,,,,,,,,,,,,,,,,,,,,101YB,001,2023_Sep_14_1418,ExactRep-v3-final,2021.2.3,59.739654550362204,
,,,,,,,,20,0,20,0,,,,,,,,,,,,,,,,,,,,,,,,,,,,,,,,,,,,,,,,,,,,,,,,,,,,,734.0625948000234,None,,,,,,,,,,,,,,,,,,,,,,,,,,,,,,,,,,,green,112,21,aloud,red,732.060958399903,None,None,732.060958399903,None,,,,,,,,,,,,,,,,,,,,,,,,,,,,,,101YB,001,2023_Sep_14_1418,ExactRep-v3-final,2021.2.3,59.739654550362204,
,,,,,,,,21,0,21,0,,,,,,,,,,,,,,,,,,,,,,,,,,,,,,,,,,,,,,,,,,,,,,,,,,,,,736.5657780000474,None,,,,,,,,,,,,,,,,,,,,,,,,,,,,,,,,,,,cottage,58,22,silent,white,734.563901099842,None,None,734.563901099842,None,,,,,,,,,,,,,,,,,,,,,,,,,,,,,,101YB,001,2023_Sep_14_1418,ExactRep-v3-final,2021.2.3,59.739654550362204,
,,,,,,,,22,0,22,0,,,,,,,,,,,,,,,,,,,,,,,,,,,,,,,,,,,,,,,,,,,,,,,,,,,,,739.0679856999777,None,,,,,,,,,,,,,,,,,,,,,,,,,,,,,,,,,,,diamond,9,23,sing,blue,737.0682263998315,None,None,737.0682263998315,None,,,,,,,,,,,,,,,,,,,,,,,,,,,,,,101YB,001,2023_Sep_14_1418,ExactRep-v3-final,2021.2.3,59.739654550362204,
,,,,,,,,23,0,23,0,,,,,,,,,,,,,,,,,,,,,,,,,,,,,,,,,,,,,,,,,,,,,,,,,,,,,741.5752725000493,None,,,,,,,,,,,,,,,,,,,,,,,,,,,,,,,,,,,leader,31,24,sing,blue,739.5709263999015,None,None,739.5709263999015,None,,,,,,,,,,,,,,,,,,,,,,,,,,,,,,101YB,001,2023_Sep_14_1418,ExactRep-v3-final,2021.2.3,59.739654550362204,
,,,,,,,,24,0,24,0,,,,,,,,,,,,,,,,,,,,,,,,,,,,,,,,,,,,,,,,,,,,,,,,,,,,,744.1065060999244,None,,,,,,,,,,,,,,,,,,,,,,,,,,,,,,,,,,,prayer,116,25,aloud,red,742.1004371000454,None,None,742.1004371000454,None,,,,,,,,,,,,,,,,,,,,,,,,,,,,,,101YB,001,2023_Sep_14_1418,ExactRep-v3-final,2021.2.3,59.739654550362204,
,,,,,,,,25,0,25,0,,,,,,,,,,,,,,,,,,,,,,,,,,,,,,,,,,,,,,,,,,,,,,,,,,,,,746.6255932999775,None,,,,,,,,,,,,,,,,,,,,,,,,,,,,,,,,,,,machine,88,26,aloud,red,744.6145810999442,None,None,744.6145810999442,None,,,,,,,,,,,,,,,,,,,,,,,,,,,,,,101YB,001,2023_Sep_14_1418,ExactRep-v3-final,2021.2.3,59.739654550362204,
,,,,,,,,26,0,26,0,,,,,,,,,,,,,,,,,,,,,,,,,,,,,,,,,,,,,,,,,,,,,,,,,,,,,749.1281421999447,None,,,,,,,,,,,,,,,,,,,,,,,,,,,,,,,,,,,dust,45,27,silent,white,747.1275923999492,None,None,747.1275923999492,None,,,,,,,,,,,,,,,,,,,,,,,,,,,,,,101YB,001,2023_Sep_14_1418,ExactRep-v3-final,2021.2.3,59.739654550362204,
,,,,,,,,27,0,27,0,,,,,,,,,,,,,,,,,,,,,,,,,,,,,,,,,,,,,,,,,,,,,,,,,,,,,751.6470296999905,None,,,,,,,,,,,,,,,,,,,,,,,,,,,,,,,,,,,friend,34,28,sing,blue,749.632070499938,None,None,749.632070499938,None,,,,,,,,,,,,,,,,,,,,,,,,,,,,,,101YB,001,2023_Sep_14_1418,ExactRep-v3-final,2021.2.3,59.739654550362204,
,,,,,,,,28,0,28,0,,,,,,,,,,,,,,,,,,,,,,,,,,,,,,,,,,,,,,,,,,,,,,,,,,,,,754.1495554998983,None,,,,,,,,,,,,,,,,,,,,,,,,,,,,,,,,,,,soil,117,29,aloud,red,752.147546299966,None,None,752.147546299966,None,,,,,,,,,,,,,,,,,,,,,,,,,,,,,,101YB,001,2023_Sep_14_1418,ExactRep-v3-final,2021.2.3,59.739654550362204,
,,,,,,,,29,0,29,0,,,,,,,,,,,,,,,,,,,,,,,,,,,,,,,,,,,,,,,,,,,,,,,,,,,,,756.6520640999079,None,,,,,,,,,,,,,,,,,,,,,,,,,,,,,,,,,,,square,11,30,sing,blue,754.6532315998338,None,None,754.6532315998338,None,,,,,,,,,,,,,,,,,,,,,,,,,,,,,,101YB,001,2023_Sep_14_1418,ExactRep-v3-final,2021.2.3,59.739654550362204,
,,,,,,,,30,0,30,0,,,,,,,,,,,,,,,,,,,,,,,,,,,,,,,,,,,,,,,,,,,,,,,,,,,,,759.1719026998617,None,,,,,,,,,,,,,,,,,,,,,,,,,,,,,,,,,,,deed,51,31,silent,white,757.1571547999047,None,None,757.1571547999047,None,,,,,,,,,,,,,,,,,,,,,,,,,,,,,,101YB,001,2023_Sep_14_1418,ExactRep-v3-final,2021.2.3,59.739654550362204,
,,,,,,,,31,0,31,0,,,,,,,,,,,,,,,,,,,,,,,,,,,,,,,,,,,,,,,,,,,,,,,,,,,,,761.6737583999056,None,,,,,,,,,,,,,,,,,,,,,,,,,,,,,,,,,,,tree,78,32,silent,white,759.6720167000312,None,None,759.6720167000312,None,,,,,,,,,,,,,,,,,,,,,,,,,,,,,,101YB,001,2023_Sep_14_1418,ExactRep-v3-final,2021.2.3,59.739654550362204,
,,,,,,,,32,0,32,0,,,,,,,,,,,,,,,,,,,,,,,,,,,,,,,,,,,,,,,,,,,,,,,,,,,,,764.1763738999143,None,,,,,,,,,,,,,,,,,,,,,,,,,,,,,,,,,,,victory,53,33,silent,white,762.1738219999243,None,None,762.1738219999243,None,,,,,,,,,,,,,,,,,,,,,,,,,,,,,,101YB,001,2023_Sep_14_1418,ExactRep-v3-final,2021.2.3,59.739654550362204,
,,,,,,,,33,0,33,0,,,,,,,,,,,,,,,,,,,,,,,,,,,,,,,,,,,,,,,,,,,,,,,,,,,,,766.6958379000425,None,,,,,,,,,,,,,,,,,,,,,,,,,,,,,,,,,,,colony,79,34,sing,blue,764.680786699988,None,None,764.680786699988,None,,,,,,,,,,,,,,,,,,,,,,,,,,,,,,101YB,001,2023_Sep_14_1418,ExactRep-v3-final,2021.2.3,59.739654550362204,
,,,,,,,,34,0,34,0,,,,,,,,,,,,,,,,,,,,,,,,,,,,,,,,,,,,,,,,,,,,,,,,,,,,,769.1984282999765,None,,,,,,,,,,,,,,,,,,,,,,,,,,,,,,,,,,,animal,7,35,sing,blue,767.1973013998941,None,None,767.1973013998941,None,,,,,,,,,,,,,,,,,,,,,,,,,,,,,,101YB,001,2023_Sep_14_1418,ExactRep-v3-final,2021.2.3,59.739654550362204,
,,,,,,,,35,0,35,0,,,,,,,,,,,,,,,,,,,,,,,,,,,,,,,,,,,,,,,,,,,,,,,,,,,,,771.7170744000468,None,,,,,,,,,,,,,,,,,,,,,,,,,,,,,,,,,,,world,63,36,silent,white,769.7036684998311,None,None,769.7036684998311,None,,,,,,,,,,,,,,,,,,,,,,,,,,,,,,101YB,001,2023_Sep_14_1418,ExactRep-v3-final,2021.2.3,59.739654550362204,
,,,,,,,,36,0,36,0,,,,,,,,,,,,,,,,,,,,,,,,,,,,,,,,,,,,,,,,,,,,,,,,,,,,,774.2197436999995,None,,,,,,,,,,,,,,,,,,,,,,,,,,,,,,,,,,,cash,23,37,sing,blue,772.2205578999128,None,None,772.2205578999128,None,,,,,,,,,,,,,,,,,,,,,,,,,,,,,,101YB,001,2023_Sep_14_1418,ExactRep-v3-final,2021.2.3,59.739654550362204,
,,,,,,,,37,0,37,0,,,,,,,,,,,,,,,,,,,,,,,,,,,,,,,,,,,,,,,,,,,,,,,,,,,,,776.7400187000167,None,,,,,,,,,,,,,,,,,,,,,,,,,,,,,,,,,,,toy,56,38,silent,white,774.7232892999891,None,None,774.7232892999891,None,,,,,,,,,,,,,,,,,,,,,,,,,,,,,,101YB,001,2023_Sep_14_1418,ExactRep-v3-final,2021.2.3,59.739654550362204,
,,,,,,,,38,0,38,0,,,,,,,,,,,,,,,,,,,,,,,,,,,,,,,,,,,,,,,,,,,,,,,,,,,,,779.2413087999448,None,,,,,,,,,,,,,,,,,,,,,,,,,,,,,,,,,,,charm,118,39,aloud,red,777.2410338998307,None,None,777.2410338998307,None,,,,,,,,,,,,,,,,,,,,,,,,,,,,,,101YB,001,2023_Sep_14_1418,ExactRep-v3-final,2021.2.3,59.739654550362204,
,,,,,,,,39,0,39,0,,,,,,,,,,,,,,,,,,,,,,,,,,,,,,,,,,,,,,,,,,,,,,,,,,,,,781.7639049999416,None,,,,,,,,,,,,,,,,,,,,,,,,,,,,,,,,,,,disease,40,40,silent,white,779.7537885999773,None,None,779.7537885999773,None,,,,,,,,,,,,,,,,,,,,,,,,,,,,,,101YB,001,2023_Sep_14_1418,ExactRep-v3-final,2021.2.3,59.739654550362204,
,,,,,,,,40,0,40,0,,,,,,,,,,,,,,,,,,,,,,,,,,,,,,,,,,,,,,,,,,,,,,,,,,,,,784.2629469998647,None,,,,,,,,,,,,,,,,,,,,,,,,,,,,,,,,,,,iron,24,41,sing,blue,782.2606885000132,None,None,782.2606885000132,None,,,,,,,,,,,,,,,,,,,,,,,,,,,,,,101YB,001,2023_Sep_14_1418,ExactRep-v3-final,2021.2.3,59.739654550362204,
,,,,,,,,41,0,41,0,,,,,,,,,,,,,,,,,,,,,,,,,,,,,,,,,,,,,,,,,,,,,,,,,,,,,786.7669979999773,None,,,,,,,,,,,,,,,,,,,,,,,,,,,,,,,,,,,wine,35,42,sing,blue,784.7636573000345,None,None,784.7636573000345,None,,,,,,,,,,,,,,,,,,,,,,,,,,,,,,101YB,001,2023_Sep_14_1418,ExactRep-v3-final,2021.2.3,59.739654550362204,
,,,,,,,,42,0,42,0,,,,,,,,,,,,,,,,,,,,,,,,,,,,,,,,,,,,,,,,,,,,,,,,,,,,,789.2847912998404,None,,,,,,,,,,,,,,,,,,,,,,,,,,,,,,,,,,,valley,27,43,sing,blue,787.276569499867,None,None,787.276569499867,None,,,,,,,,,,,,,,,,,,,,,,,,,,,,,,101YB,001,2023_Sep_14_1418,ExactRep-v3-final,2021.2.3,59.739654550362204,
,,,,,,,,43,0,43,0,,,,,,,,,,,,,,,,,,,,,,,,,,,,,,,,,,,,,,,,,,,,,,,,,,,,,791.8041556999087,None,,,,,,,,,,,,,,,,,,,,,,,,,,,,,,,,,,,letter,59,44,silent,white,789.7920718998648,None,None,789.7920718998648,None,,,,,,,,,,,,,,,,,,,,,,,,,,,,,,101YB,001,2023_Sep_14_1418,ExactRep-v3-final,2021.2.3,59.739654550362204,
,,,,,,,,44,0,44,0,,,,,,,,,,,,,,,,,,,,,,,,,,,,,,,,,,,,,,,,,,,,,,,,,,,,,794.3064625000115,None,,,,,,,,,,,,,,,,,,,,,,,,,,,,,,,,,,,virtue,19,45,sing,blue,792.3062310998794,None,None,792.3062310998794,None,,,,,,,,,,,,,,,,,,,,,,,,,,,,,,101YB,001,2023_Sep_14_1418,ExactRep-v3-final,2021.2.3,59.739654550362204,
,,,,,,,,45,0,45,0,,,,,,,,,,,,,,,,,,,,,,,,,,,,,,,,,,,,,,,,,,,,,,,,,,,,,796.8090462998953,None,,,,,,,,,,,,,,,,,,,,,,,,,,,,,,,,,,,priest,21,46,sing,blue,794.8094074998517,None,None,794.8094074998517,None,,,,,,,,,,,,,,,,,,,,,,,,,,,,,,101YB,001,2023_Sep_14_1418,ExactRep-v3-final,2021.2.3,59.739654550362204,
,,,,,,,,46,0,46,0,,,,,,,,,,,,,,,,,,,,,,,,,,,,,,,,,,,,,,,,,,,,,,,,,,,,,799.3111661998555,None,,,,,,,,,,,,,,,,,,,,,,,,,,,,,,,,,,,hotel,48,47,silent,white,797.3098869000096,None,None,797.3098869000096,None,,,,,,,,,,,,,,,,,,,,,,,,,,,,,,101YB,001,2023_Sep_14_1418,ExactRep-v3-final,2021.2.3,59.739654550362204,
,,,,,,,,47,0,47,0,,,,,,,,,,,,,,,,,,,,,,,,,,,,,,,,,,,,,,,,,,,,,,,,,,,,,801.813879000023,None,,,,,,,,,,,,,,,,,,,,,,,,,,,,,,,,,,,justice,18,48,sing,blue,799.8139334998559,None,None,799.8139334998559,None,,,,,,,,,,,,,,,,,,,,,,,,,,,,,,101YB,001,2023_Sep_14_1418,ExactRep-v3-final,2021.2.3,59.739654550362204,
,,,,,,,,48,0,48,0,,,,,,,,,,,,,,,,,,,,,,,,,,,,,,,,,,,,,,,,,,,,,,,,,,,,,804.316320899874,None,,,,,,,,,,,,,,,,,,,,,,,,,,,,,,,,,,,science,81,49,aloud,red,802.3145375999156,None,None,802.3145375999156,None,,,,,,,,,,,,,,,,,,,,,,,,,,,,,,101YB,001,2023_Sep_14_1418,ExactRep-v3-final,2021.2.3,59.739654550362204,
,,,,,,,,49,0,49,0,,,,,,,,,,,,,,,,,,,,,,,,,,,,,,,,,,,,,,,,,,,,,,,,,,,,,806.8358988999389,None,,,,,,,,,,,,,,,,,,,,,,,,,,,,,,,,,,,moral,36,50,sing,blue,804.8285248999018,None,None,804.8285248999018,None,,,,,,,,,,,,,,,,,,,,,,,,,,,,,,101YB,001,2023_Sep_14_1418,ExactRep-v3-final,2021.2.3,59.739654550362204,
,,,,,,,,50,0,50,0,,,,,,,,,,,,,,,,,,,,,,,,,,,,,,,,,,,,,,,,,,,,,,,,,,,,,809.3379716000054,None,,,,,,,,,,,,,,,,,,,,,,,,,,,,,,,,,,,excuse,80,51,aloud,red,807.3379949999508,None,None,807.3379949999508,None,,,,,,,,,,,,,,,,,,,,,,,,,,,,,,101YB,001,2023_Sep_14_1418,ExactRep-v3-final,2021.2.3,59.739654550362204,
,,,,,,,,51,0,51,0,,,,,,,,,,,,,,,,,,,,,,,,,,,,,,,,,,,,,,,,,,,,,,,,,,,,,811.8408009000123,None,,,,,,,,,,,,,,,,,,,,,,,,,,,,,,,,,,,blossom,69,52,silent,white,809.8390124998987,None,None,809.8390124998987,None,,,,,,,,,,,,,,,,,,,,,,,,,,,,,,101YB,001,2023_Sep_14_1418,ExactRep-v3-final,2021.2.3,59.739654550362204,
,,,,,,,,52,0,52,0,,,,,,,,,,,,,,,,,,,,,,,,,,,,,,,,,,,,,,,,,,,,,,,,,,,,,814.3599964999594,None,,,,,,,,,,,,,,,,,,,,,,,,,,,,,,,,,,,wife,90,53,aloud,red,812.3446018998511,None,None,812.3446018998511,None,,,,,,,,,,,,,,,,,,,,,,,,,,,,,,101YB,001,2023_Sep_14_1418,ExactRep-v3-final,2021.2.3,59.739654550362204,
,,,,,,,,53,0,53,0,,,,,,,,,,,,,,,,,,,,,,,,,,,,,,,,,,,,,,,,,,,,,,,,,,,,,816.8623869998846,None,,,,,,,,,,,,,,,,,,,,,,,,,,,,,,,,,,,home,41,54,silent,white,814.8625731999055,None,None,814.8625731999055,None,,,,,,,,,,,,,,,,,,,,,,,,,,,,,,101YB,001,2023_Sep_14_1418,ExactRep-v3-final,2021.2.3,59.739654550362204,
,,,,,,,,54,0,54,0,,,,,,,,,,,,,,,,,,,,,,,,,,,,,,,,,,,,,,,,,,,,,,,,,,,,,819.364679499995,None,,,,,,,,,,,,,,,,,,,,,,,,,,,,,,,,,,,bottle,111,55,aloud,red,817.3647302000318,None,None,817.3647302000318,None,,,,,,,,,,,,,,,,,,,,,,,,,,,,,,101YB,001,2023_Sep_14_1418,ExactRep-v3-final,2021.2.3,59.739654550362204,
,,,,,,,,55,0,55,0,,,,,,,,,,,,,,,,,,,,,,,,,,,,,,,,,,,,,,,,,,,,,,,,,,,,,821.8672937999945,None,,,,,,,,,,,,,,,,,,,,,,,,,,,,,,,,,,,origin,87,56,aloud,red,819.8656066998374,None,None,819.8656066998374,None,,,,,,,,,,,,,,,,,,,,,,,,,,,,,,101YB,001,2023_Sep_14_1418,ExactRep-v3-final,2021.2.3,59.739654550362204,
,,,,,,,,56,0,56,0,,,,,,,,,,,,,,,,,,,,,,,,,,,,,,,,,,,,,,,,,,,,,,,,,,,,,824.3700065999292,None,,,,,,,,,,,,,,,,,,,,,,,,,,,,,,,,,,,person,28,57,sing,blue,822.3674258999527,None,None,822.3674258999527,None,,,,,,,,,,,,,,,,,,,,,,,,,,,,,,101YB,001,2023_Sep_14_1418,ExactRep-v3-final,2021.2.3,59.739654550362204,
,,,,,,,,57,0,57,0,,,,,,,,,,,,,,,,,,,,,,,,,,,,,,,,,,,,,,,,,,,,,,,,,,,,,826.8723710998893,None,,,,,,,,,,,,,,,,,,,,,,,,,,,,,,,,,,,custom,65,58,silent,white,824.8726870999672,None,None,824.8726870999672,None,,,,,,,,,,,,,,,,,,,,,,,,,,,,,,101YB,001,2023_Sep_14_1418,ExactRep-v3-final,2021.2.3,59.739654550362204,
,,,,,,,,58,0,58,0,,,,,,,,,,,,,,,,,,,,,,,,,,,,,,,,,,,,,,,,,,,,,,,,,,,,,829.3745468000416,None,,,,,,,,,,,,,,,,,,,,,,,,,,,,,,,,,,,garden,82,59,aloud,red,827.3730830999557,None,None,827.3730830999557,None,,,,,,,,,,,,,,,,,,,,,,,,,,,,,,101YB,001,2023_Sep_14_1418,ExactRep-v3-final,2021.2.3,59.739654550362204,
,,,,,,,,59,0,59,0,,,,,,,,,,,,,,,,,,,,,,,,,,,,,,,,,,,,,,,,,,,,,,,,,,,,,831.8942541000433,None,,,,,,,,,,,,,,,,,,,,,,,,,,,,,,,,,,,duty,89,60,aloud,red,829.8802487999201,None,None,829.8802487999201,None,,,,,,,,,,,,,,,,,,,,,,,,,,,,,,101YB,001,2023_Sep_14_1418,ExactRep-v3-final,2021.2.3,59.739654550362204,
,,,,,,,,60,0,60,0,,,,,,,,,,,,,,,,,,,,,,,,,,,,,,,,,,,,,,,,,,,,,,,,,,,,,834.4134364998899,None,,,,,,,,,,,,,,,,,,,,,,,,,,,,,,,,,,,bar,20,61,sing,blue,832.4075732999481,None,None,832.4075732999481,None,,,,,,,,,,,,,,,,,,,,,,,,,,,,,,101YB,001,2023_Sep_14_1418,ExactRep-v3-final,2021.2.3,59.739654550362204,
,,,,,,,,61,0,61,0,,,,,,,,,,,,,,,,,,,,,,,,,,,,,,,,,,,,,,,,,,,,,,,,,,,,,836.9322180999443,None,,,,,,,,,,,,,,,,,,,,,,,,,,,,,,,,,,,volume,3,62,sing,blue,834.9187280000187,None,None,834.9187280000187,None,,,,,,,,,,,,,,,,,,,,,,,,,,,,,,101YB,001,2023_Sep_14_1418,ExactRep-v3-final,2021.2.3,59.739654550362204,
,,,,,,,,62,0,62,0,,,,,,,,,,,,,,,,,,,,,,,,,,,,,,,,,,,,,,,,,,,,,,,,,,,,,839.4517292999662,None,,,,,,,,,,,,,,,,,,,,,,,,,,,,,,,,,,,heaven,29,63,sing,blue,837.4371181000024,None,None,837.4371181000024,None,,,,,,,,,,,,,,,,,,,,,,,,,,,,,,101YB,001,2023_Sep_14_1418,ExactRep-v3-final,2021.2.3,59.739654550362204,
,,,,,,,,63,0,63,0,,,,,,,,,,,,,,,,,,,,,,,,,,,,,,,,,,,,,,,,,,,,,,,,,,,,,841.9749214998446,None,,,,,,,,,,,,,,,,,,,,,,,,,,,,,,,,,,,ticket,46,64,silent,white,839.9681418000255,None,None,839.9681418000255,None,,,,,,,,,,,,,,,,,,,,,,,,,,,,,,101YB,001,2023_Sep_14_1418,ExactRep-v3-final,2021.2.3,59.739654550362204,
,,,,,,,,64,0,64,0,,,,,,,,,,,,,,,,,,,,,,,,,,,,,,,,,,,,,,,,,,,,,,,,,,,,,844.4899180999491,None,,,,,,,,,,,,,,,,,,,,,,,,,,,,,,,,,,,woods,68,65,silent,white,842.4844323999714,None,None,842.4844323999714,None,,,,,,,,,,,,,,,,,,,,,,,,,,,,,,101YB,001,2023_Sep_14_1418,ExactRep-v3-final,2021.2.3,59.739654550362204,
,,,,,,,,65,0,65,0,,,,,,,,,,,,,,,,,,,,,,,,,,,,,,,,,,,,,,,,,,,,,,,,,,,,,846.9921517998446,None,,,,,,,,,,,,,,,,,,,,,,,,,,,,,,,,,,,king,25,66,sing,blue,844.99307950004,None,None,844.99307950004,None,,,,,,,,,,,,,,,,,,,,,,,,,,,,,,101YB,001,2023_Sep_14_1418,ExactRep-v3-final,2021.2.3,59.739654550362204,
,,,,,,,,66,0,66,0,,,,,,,,,,,,,,,,,,,,,,,,,,,,,,,,,,,,,,,,,,,,,,,,,,,,,849.4948529000394,None,,,,,,,,,,,,,,,,,,,,,,,,,,,,,,,,,,,death,16,67,sing,blue,847.4932265998796,None,None,847.4932265998796,None,,,,,,,,,,,,,,,,,,,,,,,,,,,,,,101YB,001,2023_Sep_14_1418,ExactRep-v3-final,2021.2.3,59.739654550362204,
,,,,,,,,67,0,67,0,,,,,,,,,,,,,,,,,,,,,,,,,,,,,,,,,,,,,,,,,,,,,,,,,,,,,852.0142985000275,None,,,,,,,,,,,,,,,,,,,,,,,,,,,,,,,,,,,shock,108,68,aloud,red,850.0000310998876,None,None,850.0000310998876,None,,,,,,,,,,,,,,,,,,,,,,,,,,,,,,101YB,001,2023_Sep_14_1418,ExactRep-v3-final,2021.2.3,59.739654550362204,
,,,,,,,,68,0,68,0,,,,,,,,,,,,,,,,,,,,,,,,,,,,,,,,,,,,,,,,,,,,,,,,,,,,,854.5334566000383,None,,,,,,,,,,,,,,,,,,,,,,,,,,,,,,,,,,,butter,61,69,silent,white,852.5299299999606,None,None,852.5299299999606,None,,,,,,,,,,,,,,,,,,,,,,,,,,,,,,101YB,001,2023_Sep_14_1418,ExactRep-v3-final,2021.2.3,59.739654550362204,
,,,,,,,,69,0,69,0,,,,,,,,,,,,,,,,,,,,,,,,,,,,,,,,,,,,,,,,,,,,,,,,,,,,,857.0360882000532,None,,,,,,,,,,,,,,,,,,,,,,,,,,,,,,,,,,,weapon,74,70,silent,white,855.0362882998306,None,None,855.0362882998306,None,,,,,,,,,,,,,,,,,,,,,,,,,,,,,,101YB,001,2023_Sep_14_1418,ExactRep-v3-final,2021.2.3,59.739654550362204,
,,,,,,,,70,0,70,0,,,,,,,,,,,,,,,,,,,,,,,,,,,,,,,,,,,,,,,,,,,,,,,,,,,,,859.5382317998447,None,,,,,,,,,,,,,,,,,,,,,,,,,,,,,,,,,,,quality,44,71,silent,white,857.5381622998975,None,None,857.5381622998975,None,,,,,,,,,,,,,,,,,,,,,,,,,,,,,,101YB,001,2023_Sep_14_1418,ExactRep-v3-final,2021.2.3,59.739654550362204,
,,,,,,,,71,0,71,0,,,,,,,,,,,,,,,,,,,,,,,,,,,,,,,,,,,,,,,,,,,,,,,,,,,,,862.0427975999191,None,,,,,,,,,,,,,,,,,,,,,,,,,,,,,,,,,,,freedom,67,72,silent,white,860.0391653999686,None,None,860.0391653999686,None,,,,,,,,,,,,,,,,,,,,,,,,,,,,,,101YB,001,2023_Sep_14_1418,ExactRep-v3-final,2021.2.3,59.739654550362204,
,,,,,,,,72,0,72,0,,,,,,,,,,,,,,,,,,,,,,,,,,,,,,,,,,,,,,,,,,,,,,,,,,,,,864.5599755998701,None,,,,,,,,,,,,,,,,,,,,,,,,,,,,,,,,,,,artist,12,73,sing,blue,862.5599487000145,None,None,862.5599487000145,None,,,,,,,,,,,,,,,,,,,,,,,,,,,,,,101YB,001,2023_Sep_14_1418,ExactRep-v3-final,2021.2.3,59.739654550362204,
,,,,,,,,73,0,73,0,,,,,,,,,,,,,,,,,,,,,,,,,,,,,,,,,,,,,,,,,,,,,,,,,,,,,867.0624593000393,None,,,,,,,,,,,,,,,,,,,,,,,,,,,,,,,,,,,hope,70,74,silent,white,865.0621271999553,None,None,865.0621271999553,None,,,,,,,,,,,,,,,,,,,,,,,,,,,,,,101YB,001,2023_Sep_14_1418,ExactRep-v3-final,2021.2.3,59.739654550362204,
,,,,,,,,74,0,74,0,,,,,,,,,,,,,,,,,,,,,,,,,,,,,,,,,,,,,,,,,,,,,,,,,,,,,869.5816545998678,None,,,,,,,,,,,,,,,,,,,,,,,,,,,,,,,,,,,cat,101,75,aloud,red,867.5783309999388,None,None,867.5783309999388,None,,,,,,,,,,,,,,,,,,,,,,,,,,,,,,101YB,001,2023_Sep_14_1418,ExactRep-v3-final,2021.2.3,59.739654550362204,
,,,,,,,,75,0,75,0,,,,,,,,,,,,,,,,,,,,,,,,,,,,,,,,,,,,,,,,,,,,,,,,,,,,,872.0841891998425,None,,,,,,,,,,,,,,,,,,,,,,,,,,,,,,,,,,,length,5,76,sing,blue,870.0842033999506,None,None,870.0842033999506,None,,,,,,,,,,,,,,,,,,,,,,,,,,,,,,101YB,001,2023_Sep_14_1418,ExactRep-v3-final,2021.2.3,59.739654550362204,
,,,,,,,,76,0,76,0,,,,,,,,,,,,,,,,,,,,,,,,,,,,,,,,,,,,,,,,,,,,,,,,,,,,,874.603117399849,None,,,,,,,,,,,,,,,,,,,,,,,,,,,,,,,,,,,journal,10,77,sing,blue,872.5905158000533,None,None,872.5905158000533,None,,,,,,,,,,,,,,,,,,,,,,,,,,,,,,101YB,001,2023_Sep_14_1418,ExactRep-v3-final,2021.2.3,59.739654550362204,
,,,,,,,,77,0,77,0,,,,,,,,,,,,,,,,,,,,,,,,,,,,,,,,,,,,,,,,,,,,,,,,,,,,,877.1224547999445,None,,,,,,,,,,,,,,,,,,,,,,,,,,,,,,,,,,,flesh,104,78,aloud,red,875.1160194999538,None,None,875.1160194999538,None,,,,,,,,,,,,,,,,,,,,,,,,,,,,,,101YB,001,2023_Sep_14_1418,ExactRep-v3-final,2021.2.3,59.739654550362204,
,,,,,,,,78,0,78,0,,,,,,,,,,,,,,,,,,,,,,,,,,,,,,,,,,,,,,,,,,,,,,,,,,,,,879.624806100037,None,,,,,,,,,,,,,,,,,,,,,,,,,,,,,,,,,,,car,47,79,silent,white,877.6234097999986,None,None,877.6234097999986,None,,,,,,,,,,,,,,,,,,,,,,,,,,,,,,101YB,001,2023_Sep_14_1418,ExactRep-v3-final,2021.2.3,59.739654550362204,
,,,,,,,,79,0,79,0,,,,,,,,,,,,,,,,,,,,,,,,,,,,,,,,,,,,,,,,,,,,,,,,,,,,,882.1275859000161,None,,,,,,,,,,,,,,,,,,,,,,,,,,,,,,,,,,,coin,26,80,sing,blue,880.1261904998682,None,None,880.1261904998682,None,,,,,,,,,,,,,,,,,,,,,,,,,,,,,,101YB,001,2023_Sep_14_1418,ExactRep-v3-final,2021.2.3,59.739654550362204,
,,,,,,,,80,0,80,0,,,,,,,,,,,,,,,,,,,,,,,,,,,,,,,,,,,,,,,,,,,,,,,,,,,,,884.6299419000279,None,,,,,,,,,,,,,,,,,,,,,,,,,,,,,,,,,,,sugar,22,81,sing,blue,882.628772799857,None,None,882.628772799857,None,,,,,,,,,,,,,,,,,,,,,,,,,,,,,,101YB,001,2023_Sep_14_1418,ExactRep-v3-final,2021.2.3,59.739654550362204,
,,,,,,,,81,0,81,0,,,,,,,,,,,,,,,,,,,,,,,,,,,,,,,,,,,,,,,,,,,,,,,,,,,,,887.1489861998707,None,,,,,,,,,,,,,,,,,,,,,,,,,,,,,,,,,,,forest,6,82,sing,blue,885.134771999903,None,None,885.134771999903,None,,,,,,,,,,,,,,,,,,,,,,,,,,,,,,101YB,001,2023_Sep_14_1418,ExactRep-v3-final,2021.2.3,59.739654550362204,
,,,,,,,,82,0,82,0,,,,,,,,,,,,,,,,,,,,,,,,,,,,,,,,,,,,,,,,,,,,,,,,,,,,,889.6517508998513,None,,,,,,,,,,,,,,,,,,,,,,,,,,,,,,,,,,,humour,54,83,silent,white,887.6524061998352,None,None,887.6524061998352,None,,,,,,,,,,,,,,,,,,,,,,,,,,,,,,101YB,001,2023_Sep_14_1418,ExactRep-v3-final,2021.2.3,59.739654550362204,
,,,,,,,,83,0,83,0,,,,,,,,,,,,,,,,,,,,,,,,,,,,,,,,,,,,,,,,,,,,,,,,,,,,,892.170878799865,None,,,,,,,,,,,,,,,,,,,,,,,,,,,,,,,,,,,speech,73,84,silent,white,890.1564356000163,None,None,890.1564356000163,None,,,,,,,,,,,,,,,,,,,,,,,,,,,,,,101YB,001,2023_Sep_14_1418,ExactRep-v3-final,2021.2.3,59.739654550362204,
,,,,,,,,84,0,84,0,,,,,,,,,,,,,,,,,,,,,,,,,,,,,,,,,,,,,,,,,,,,,,,,,,,,,894.6897527999245,None,,,,,,,,,,,,,,,,,,,,,,,,,,,,,,,,,,,dress,66,85,silent,white,892.6763595999219,None,None,892.6763595999219,None,,,,,,,,,,,,,,,,,,,,,,,,,,,,,,101YB,001,2023_Sep_14_1418,ExactRep-v3-final,2021.2.3,59.739654550362204,
,,,,,,,,85,0,85,0,,,,,,,,,,,,,,,,,,,,,,,,,,,,,,,,,,,,,,,,,,,,,,,,,,,,,897.1923970000353,None,,,,,,,,,,,,,,,,,,,,,,,,,,,,,,,,,,,girl,50,86,silent,white,895.1903967999388,None,None,895.1903967999388,None,,,,,,,,,,,,,,,,,,,,,,,,,,,,,,101YB,001,2023_Sep_14_1418,ExactRep-v3-final,2021.2.3,59.739654550362204,
,,,,,,,,86,0,86,0,,,,,,,,,,,,,,,,,,,,,,,,,,,,,,,,,,,,,,,,,,,,,,,,,,,,,899.6953030999284,None,,,,,,,,,,,,,,,,,,,,,,,,,,,,,,,,,,,boy,103,87,aloud,red,897.6936738998629,None,None,897.6936738998629,None,,,,,,,,,,,,,,,,,,,,,,,,,,,,,,101YB,001,2023_Sep_14_1418,ExactRep-v3-final,2021.2.3,59.739654550362204,
,,,,,,,,87,0,87,0,,,,,,,,,,,,,,,,,,,,,,,,,,,,,,,,,,,,,,,,,,,,,,,,,,,,,902.2140120000113,None,,,,,,,,,,,,,,,,,,,,,,,,,,,,,,,,,,,engine,102,88,aloud,red,900.1999174999073,None,None,900.1999174999073,None,,,,,,,,,,,,,,,,,,,,,,,,,,,,,,101YB,001,2023_Sep_14_1418,ExactRep-v3-final,2021.2.3,59.739654550362204,
,,,,,,,,88,0,88,0,,,,,,,,,,,,,,,,,,,,,,,,,,,,,,,,,,,,,,,,,,,,,,,,,,,,,904.7172071998939,None,,,,,,,,,,,,,,,,,,,,,,,,,,,,,,,,,,,chance,85,89,aloud,red,902.7147067999467,None,None,902.7147067999467,None,,,,,,,,,,,,,,,,,,,,,,,,,,,,,,101YB,001,2023_Sep_14_1418,ExactRep-v3-final,2021.2.3,59.739654550362204,
,,,,,,,,89,0,89,0,,,,,,,,,,,,,,,,,,,,,,,,,,,,,,,,,,,,,,,,,,,,,,,,,,,,,907.219290799927,None,,,,,,,,,,,,,,,,,,,,,,,,,,,,,,,,,,,chief,95,90,aloud,red,905.219429000048,None,None,905.219429000048,None,,,,,,,,,,,,,,,,,,,,,,,,,,,,,,101YB,001,2023_Sep_14_1418,ExactRep-v3-final,2021.2.3,59.739654550362204,
,,,,,,,,90,0,90,0,,,,,,,,,,,,,,,,,,,,,,,,,,,,,,,,,,,,,,,,,,,,,,,,,,,,,909.7383657000028,None,,,,,,,,,,,,,,,,,,,,,,,,,,,,,,,,,,,glory,17,91,sing,blue,907.7312459000386,None,None,907.7312459000386,None,,,,,,,,,,,,,,,,,,,,,,,,,,,,,,101YB,001,2023_Sep_14_1418,ExactRep-v3-final,2021.2.3,59.739654550362204,
,,,,,,,,91,0,91,0,,,,,,,,,,,,,,,,,,,,,,,,,,,,,,,,,,,,,,,,,,,,,,,,,,,,,912.240904700011,None,,,,,,,,,,,,,,,,,,,,,,,,,,,,,,,,,,,gold,55,92,silent,white,910.2391502000391,None,None,910.2391502000391,None,,,,,,,,,,,,,,,,,,,,,,,,,,,,,,101YB,001,2023_Sep_14_1418,ExactRep-v3-final,2021.2.3,59.739654550362204,
,,,,,,,,92,0,92,0,,,,,,,,,,,,,,,,,,,,,,,,,,,,,,,,,,,,,,,,,,,,,,,,,,,,,914.7432369999588,None,,,,,,,,,,,,,,,,,,,,,,,,,,,,,,,,,,,grass,106,93,aloud,red,912.741841699928,None,None,912.741841699928,None,,,,,,,,,,,,,,,,,,,,,,,,,,,,,,101YB,001,2023_Sep_14_1418,ExactRep-v3-final,2021.2.3,59.739654550362204,
,,,,,,,,93,0,93,0,,,,,,,,,,,,,,,,,,,,,,,,,,,,,,,,,,,,,,,,,,,,,,,,,,,,,917.2669891999103,None,,,,,,,,,,,,,,,,,,,,,,,,,,,,,,,,,,,coast,75,94,silent,white,915.24868780002,None,None,915.24868780002,None,,,,,,,,,,,,,,,,,,,,,,,,,,,,,,101YB,001,2023_Sep_14_1418,ExactRep-v3-final,2021.2.3,59.739654550362204,
,,,,,,,,94,0,94,0,,,,,,,,,,,,,,,,,,,,,,,,,,,,,,,,,,,,,,,,,,,,,,,,,,,,,919.7652214998379,None,,,,,,,,,,,,,,,,,,,,,,,,,,,,,,,,,,,gift,100,95,aloud,red,917.7658651999664,None,None,917.7658651999664,None,,,,,,,,,,,,,,,,,,,,,,,,,,,,,,101YB,001,2023_Sep_14_1418,ExactRep-v3-final,2021.2.3,59.739654550362204,
,,,,,,,,95,0,95,0,,,,,,,,,,,,,,,,,,,,,,,,,,,,,,,,,,,,,,,,,,,,,,,,,,,,,922.2841463999357,None,,,,,,,,,,,,,,,,,,,,,,,,,,,,,,,,,,,queen,52,96,silent,white,920.270423399983,None,None,920.270423399983,None,,,,,,,,,,,,,,,,,,,,,,,,,,,,,,101YB,001,2023_Sep_14_1418,ExactRep-v3-final,2021.2.3,59.739654550362204,
,,,,,,,,96,0,96,0,,,,,,,,,,,,,,,,,,,,,,,,,,,,,,,,,,,,,,,,,,,,,,,,,,,,,924.7866302998737,None,,,,,,,,,,,,,,,,,,,,,,,,,,,,,,,,,,,dollar,39,97,silent,white,922.7851070999168,None,None,922.7851070999168,None,,,,,,,,,,,,,,,,,,,,,,,,,,,,,,101YB,001,2023_Sep_14_1418,ExactRep-v3-final,2021.2.3,59.739654550362204,
,,,,,,,,97,0,97,0,,,,,,,,,,,,,,,,,,,,,,,,,,,,,,,,,,,,,,,,,,,,,,,,,,,,,927.2889439000282,None,,,,,,,,,,,,,,,,,,,,,,,,,,,,,,,,,,,teacher,62,98,silent,white,925.2881980999373,None,None,925.2881980999373,None,,,,,,,,,,,,,,,,,,,,,,,,,,,,,,101YB,001,2023_Sep_14_1418,ExactRep-v3-final,2021.2.3,59.739654550362204,
,,,,,,,,98,0,98,0,,,,,,,,,,,,,,,,,,,,,,,,,,,,,,,,,,,,,,,,,,,,,,,,,,,,,929.7916047000326,None,,,,,,,,,,,,,,,,,,,,,,,,,,,,,,,,,,,cotton,98,99,aloud,red,927.7905526999384,None,None,927.7905526999384,None,,,,,,,,,,,,,,,,,,,,,,,,,,,,,,101YB,001,2023_Sep_14_1418,ExactRep-v3-final,2021.2.3,59.739654550362204,
,,,,,,,,99,0,99,0,,,,,,,,,,,,,,,,,,,,,,,,,,,,,,,,,,,,,,,,,,,,,,,,,,,,,932.2940189000219,None,,,,,,,,,,,,,,,,,,,,,,,,,,,,,,,,,,,army,0,100,sing,blue,930.2923377000261,None,None,930.2923377000261,None,,,,,,,,,,,,,,,,,,,,,,,,,,,,,,101YB,001,2023_Sep_14_1418,ExactRep-v3-final,2021.2.3,59.739654550362204,
,,,,,,,,100,0,100,0,,,,,,,,,,,,,,,,,,,,,,,,,,,,,,,,,,,,,,,,,,,,,,,,,,,,,934.8139386000112,None,,,,,,,,,,,,,,,,,,,,,,,,,,,,,,,,,,,breast,94,101,aloud,red,932.798905499978,None,None,932.798905499978,None,,,,,,,,,,,,,,,,,,,,,,,,,,,,,,101YB,001,2023_Sep_14_1418,ExactRep-v3-final,2021.2.3,59.739654550362204,
,,,,,,,,101,0,101,0,,,,,,,,,,,,,,,,,,,,,,,,,,,,,,,,,,,,,,,,,,,,,,,,,,,,,937.3324996998999,None,,,,,,,,,,,,,,,,,,,,,,,,,,,,,,,,,,,moment,1,102,sing,blue,935.3294861998875,None,None,935.3294861998875,None,,,,,,,,,,,,,,,,,,,,,,,,,,,,,,101YB,001,2023_Sep_14_1418,ExactRep-v3-final,2021.2.3,59.739654550362204,
,,,,,,,,102,0,102,0,,,,,,,,,,,,,,,,,,,,,,,,,,,,,,,,,,,,,,,,,,,,,,,,,,,,,939.8352681999095,None,,,,,,,,,,,,,,,,,,,,,,,,,,,,,,,,,,,fact,96,103,aloud,red,937.8352893998381,None,None,937.8352893998381,None,,,,,,,,,,,,,,,,,,,,,,,,,,,,,,101YB,001,2023_Sep_14_1418,ExactRep-v3-final,2021.2.3,59.739654550362204,
,,,,,,,,103,0,103,0,,,,,,,,,,,,,,,,,,,,,,,,,,,,,,,,,,,,,,,,,,,,,,,,,,,,,942.3539668999147,None,,,,,,,,,,,,,,,,,,,,,,,,,,,,,,,,,,,flag,76,104,silent,white,940.3476118999533,None,None,940.3476118999533,None,,,,,,,,,,,,,,,,,,,,,,,,,,,,,,101YB,001,2023_Sep_14_1418,ExactRep-v3-final,2021.2.3,59.739654550362204,
,,,,,,,,104,0,104,0,,,,,,,,,,,,,,,,,,,,,,,,,,,,,,,,,,,,,,,,,,,,,,,,,,,,,944.8568676998839,None,,,,,,,,,,,,,,,,,,,,,,,,,,,,,,,,,,,skin,37,105,sing,blue,942.8552335000131,None,None,942.8552335000131,None,,,,,,,,,,,,,,,,,,,,,,,,,,,,,,101YB,001,2023_Sep_14_1418,ExactRep-v3-final,2021.2.3,59.739654550362204,
,,,,,,,,105,0,105,0,,,,,,,,,,,,,,,,,,,,,,,,,,,,,,,,,,,,,,,,,,,,,,,,,,,,,947.3758127999026,None,,,,,,,,,,,,,,,,,,,,,,,,,,,,,,,,,,,cattle,30,106,sing,blue,945.3615677000489,None,None,945.3615677000489,None,,,,,,,,,,,,,,,,,,,,,,,,,,,,,,101YB,001,2023_Sep_14_1418,ExactRep-v3-final,2021.2.3,59.739654550362204,
,,,,,,,,106,0,106,0,,,,,,,,,,,,,,,,,,,,,,,,,,,,,,,,,,,,,,,,,,,,,,,,,,,,,949.8954721998889,None,,,,,,,,,,,,,,,,,,,,,,,,,,,,,,,,,,,product,33,107,sing,blue,947.879894200014,None,None,947.879894200014,None,,,,,,,,,,,,,,,,,,,,,,,,,,,,,,101YB,001,2023_Sep_14_1418,ExactRep-v3-final,2021.2.3,59.739654550362204,
,,,,,,,,107,0,107,0,,,,,,,,,,,,,,,,,,,,,,,,,,,,,,,,,,,,,,,,,,,,,,,,,,,,,952.4145853000227,None,,,,,,,,,,,,,,,,,,,,,,,,,,,,,,,,,,,student,71,108,silent,white,950.3990541999228,None,None,950.3990541999228,None,,,,,,,,,,,,,,,,,,,,,,,,,,,,,,101YB,001,2023_Sep_14_1418,ExactRep-v3-final,2021.2.3,59.739654550362204,
,,,,,,,,108,0,108,0,,,,,,,,,,,,,,,,,,,,,,,,,,,,,,,,,,,,,,,,,,,,,,,,,,,,,954.9336584999692,None,,,,,,,,,,,,,,,,,,,,,,,,,,,,,,,,,,,month,15,109,sing,blue,952.9185682998504,None,None,952.9185682998504,None,,,,,,,,,,,,,,,,,,,,,,,,,,,,,,101YB,001,2023_Sep_14_1418,ExactRep-v3-final,2021.2.3,59.739654550362204,
,,,,,,,,109,0,109,0,,,,,,,,,,,,,,,,,,,,,,,,,,,,,,,,,,,,,,,,,,,,,,,,,,,,,957.4528479999863,None,,,,,,,,,,,,,,,,,,,,,,,,,,,,,,,,,,,house,13,110,sing,blue,955.4384419999551,None,None,955.4384419999551,None,,,,,,,,,,,,,,,,,,,,,,,,,,,,,,101YB,001,2023_Sep_14_1418,ExactRep-v3-final,2021.2.3,59.739654550362204,
,,,,,,,,110,0,110,0,,,,,,,,,,,,,,,,,,,,,,,,,,,,,,,,,,,,,,,,,,,,,,,,,,,,,959.9718007999472,None,,,,,,,,,,,,,,,,,,,,,,,,,,,,,,,,,,,camp,32,111,sing,blue,957.956086799968,None,None,957.956086799968,None,,,,,,,,,,,,,,,,,,,,,,,,,,,,,,101YB,001,2023_Sep_14_1418,ExactRep-v3-final,2021.2.3,59.739654550362204,
,,,,,,,,111,0,111,0,,,,,,,,,,,,,,,,,,,,,,,,,,,,,,,,,,,,,,,,,,,,,,,,,,,,,962.4742705998942,None,,,,,,,,,,,,,,,,,,,,,,,,,,,,,,,,,,,life,38,112,sing,blue,960.4723359998316,None,None,960.4723359998316,None,,,,,,,,,,,,,,,,,,,,,,,,,,,,,,101YB,001,2023_Sep_14_1418,ExactRep-v3-final,2021.2.3,59.739654550362204,
,,,,,,,,112,0,112,0,,,,,,,,,,,,,,,,,,,,,,,,,,,,,,,,,,,,,,,,,,,,,,,,,,,,,964.9934411998838,None,,,,,,,,,,,,,,,,,,,,,,,,,,,,,,,,,,,fire,49,113,silent,white,962.9795657000504,None,None,962.9795657000504,None,,,,,,,,,,,,,,,,,,,,,,,,,,,,,,101YB,001,2023_Sep_14_1418,ExactRep-v3-final,2021.2.3,59.739654550362204,
,,,,,,,,113,0,113,0,,,,,,,,,,,,,,,,,,,,,,,,,,,,,,,,,,,,,,,,,,,,,,,,,,,,,967.4962770000566,None,,,,,,,,,,,,,,,,,,,,,,,,,,,,,,,,,,,insect,86,114,aloud,red,965.4964799999725,None,None,965.4964799999725,None,,,,,,,,,,,,,,,,,,,,,,,,,,,,,,101YB,001,2023_Sep_14_1418,ExactRep-v3-final,2021.2.3,59.739654550362204,
,,,,,,,,114,0,114,0,,,,,,,,,,,,,,,,,,,,,,,,,,,,,,,,,,,,,,,,,,,,,,,,,,,,,969.9984329000581,None,,,,,,,,,,,,,,,,,,,,,,,,,,,,,,,,,,,mind,60,115,silent,white,967.9969394998625,None,None,967.9969394998625,None,,,,,,,,,,,,,,,,,,,,,,,,,,,,,,101YB,001,2023_Sep_14_1418,ExactRep-v3-final,2021.2.3,59.739654550362204,
,,,,,,,,115,0,115,0,,,,,,,,,,,,,,,,,,,,,,,,,,,,,,,,,,,,,,,,,,,,,,,,,,,,,972.5177106000483,None,,,,,,,,,,,,,,,,,,,,,,,,,,,,,,,,,,,shore,91,116,aloud,red,970.5067477000412,None,None,970.5067477000412,None,,,,,,,,,,,,,,,,,,,,,,,,,,,,,,101YB,001,2023_Sep_14_1418,ExactRep-v3-final,2021.2.3,59.739654550362204,
,,,,,,,,116,0,116,0,,,,,,,,,,,,,,,,,,,,,,,,,,,,,,,,,,,,,,,,,,,,,,,,,,,,,975.0200767000206,None,,,,,,,,,,,,,,,,,,,,,,,,,,,,,,,,,,,bird,83,117,aloud,red,973.0182280000299,None,None,973.0182280000299,None,,,,,,,,,,,,,,,,,,,,,,,,,,,,,,101YB,001,2023_Sep_14_1418,ExactRep-v3-final,2021.2.3,59.739654550362204,
,,,,,,,,117,0,117,0,,,,,,,,,,,,,,,,,,,,,,,,,,,,,,,,,,,,,,,,,,,,,,,,,,,,,977.5394355000462,None,,,,,,,,,,,,,,,,,,,,,,,,,,,,,,,,,,,beast,105,118,aloud,red,975.5246929000132,None,None,975.5246929000132,None,,,,,,,,,,,,,,,,,,,,,,,,,,,,,,101YB,001,2023_Sep_14_1418,ExactRep-v3-final,2021.2.3,59.739654550362204,
,,,,,,,,118,0,118,0,,,,,,,,,,,,,,,,,,,,,,,,,,,,,,,,,,,,,,,,,,,,,,,,,,,,,980.0419451999478,None,,,,,,,,,,,,,,,,,,,,,,,,,,,,,,,,,,,owner,84,119,aloud,red,978.0398401999846,None,None,978.0398401999846,None,,,,,,,,,,,,,,,,,,,,,,,,,,,,,,101YB,001,2023_Sep_14_1418,ExactRep-v3-final,2021.2.3,59.739654550362204,
,,,,,,,,119,0,119,0,,,,,,,,,,,,,,,,,,,,,,,,,,,,,,,,,,,,,,,,,,,,,,,,,,,,,982.5611632999498,None,,,,,,,,,,,,,,,,,,,,,,,,,,,,,,,,,,,air,92,120,aloud,red,980.5579498999286,None,None,980.5579498999286,None,,,,,,,,,,,,,,,,,,,,,,,,,,,,,,101YB,001,2023_Sep_14_1418,ExactRep-v3-final,2021.2.3,59.739654550362204,
,,,,,,,,,,,,,,,,,,,,,,,,,,,,,,,,,,,,,,,,,,,,,,,,,,,,,,,,,,,,,,,,,,,,,,,,,,,,,,,,,,,,,,,,,,,,,,,,,,,,,,,,,,,,,,983.0616565998644,None,space,6.291410699952394,993.0393840998877,None,,,,,,,,,,,,,,,,,,,,,,,,101YB,001,2023_Sep_14_1418,ExactRep-v3-final,2021.2.3,59.739654550362204,
,,,,,,,,,,,,,,,,,,,,,,,,,,,,,,,,,,,,,,,,,,,,,,,,,,,,,,,,,,,,,,,,,,,,,,,,,,,,,,,,,,,,,,,,,,,,,,,,,,,,,,,,,,,,,,,,,,,,999.3613241000567,None,space,28.183470299933106,1009.3393846999388,None,,,,,,,,,,,,,,,,,,101YB,001,2023_Sep_14_1418,ExactRep-v3-final,2021.2.3,59.739654550362204,
,,,,,,,,,,,,0,0,0,0,,,,,,,,,,,,,,,,,,,,,,,,,,,,,,,,,,,,,,,,,,,,,,,,,1042.1388538999017,None,,,,,,,,,,,,,,,,,,,,,,,,,,,,,,,,,,,,,,,,,,,,,,,,,,,,,,,,,month,15,1,sing,old,blue,1038.0611536998767,None,y,1038.0611536998767,None,"['y', 'return']","[2.7814431998413056, 4.029444699874148]",1038.0611536998767,None,,,101YB,001,2023_Sep_14_1418,ExactRep-v3-final,2021.2.3,59.739654550362204,
,,,,,,,,,,,,1,0,1,0,,,,,,,,,,,,,,,,,,,,,,,,,,,,,,,,,,,,,,,,,,,,,,,,,1051.797251699958,None,,,,,,,,,,,,,,,,,,,,,,,,,,,,,,,,,,,,,,,,,,,,,,,,,,,,,,,,,tool,186,2,aloud,new,red,1042.663590299897,None,n,1042.663590299897,None,"['n', 'return']","[8.123004399938509, 9.09103999985382]",1042.663590299897,None,,,101YB,001,2023_Sep_14_1418,ExactRep-v3-final,2021.2.3,59.739654550362204,
,,,,,,,,,,,,2,0,2,0,,,,,,,,,,,,,,,,,,,,,,,,,,,,,,,,,,,,,,,,,,,,,,,,,1055.6191052999347,None,,,,,,,,,,,,,,,,,,,,,,,,,,,,,,,,,,,,,,,,,,,,,,,,,,,,,,,,,rock,185,3,sing,new,blue,1052.3024334998336,None,y,1052.3024334998336,None,"['y', 'return']","[2.8761630000080913, 3.2761657000519335]",1052.3024334998336,None,,,101YB,001,2023_Sep_14_1418,ExactRep-v3-final,2021.2.3,59.739654550362204,
,,,,,,,,,,,,3,0,3,0,,,,,,,,,,,,,,,,,,,,,,,,,,,,,,,,,,,,,,,,,,,,,,,,,1058.270993999904,None,,,,,,,,,,,,,,,,,,,,,,,,,,,,,,,,,,,,,,,,,,,,,,,,,,,,,,,,,child,14,4,sing,old,blue,1056.129360199906,None,y,1056.129360199906,None,"['y', 'return']","[1.6092148998286575, 2.097243799827993]",1056.129360199906,None,,,101YB,001,2023_Sep_14_1418,ExactRep-v3-final,2021.2.3,59.739654550362204,
,,,,,,,,,,,,4,0,4,0,,,,,,,,,,,,,,,,,,,,,,,,,,,,,,,,,,,,,,,,,,,,,,,,,1060.3569775999058,None,,,,,,,,,,,,,,,,,,,,,,,,,,,,,,,,,,,,,,,,,,,,,,,,,,,,,,,,,master,178,5,aloud,new,red,1058.7881481999066,None,n,1058.7881481999066,None,"['n', 'return']","[1.1584600999485701, 1.5266161998733878]",1058.7881481999066,None,,,101YB,001,2023_Sep_14_1418,ExactRep-v3-final,2021.2.3,59.739654550362204,
,,,,,,,,,,,,5,0,5,0,,,,,,,,,,,,,,,,,,,,,,,,,,,,,,,,,,,,,,,,,,,,,,,,,1062.9914021999575,None,,,,,,,,,,,,,,,,,,,,,,,,,,,,,,,,,,,,,,,,,,,,,,,,,,,,,,,,,wife,90,6,aloud,old,red,1060.8725767000578,None,y,1060.8725767000578,None,"['y', 'return']","[1.6980647000018507, 2.073959199944511]",1060.8725767000578,None,,,101YB,001,2023_Sep_14_1418,ExactRep-v3-final,2021.2.3,59.739654550362204,
,,,,,,,,,,,,6,0,6,0,,,,,,,,,,,,,,,,,,,,,,,,,,,,,,,,,,,,,,,,,,,,,,,,,1065.2445222998504,None,,,,,,,,,,,,,,,,,,,,,,,,,,,,,,,,,,,,,,,,,,,,,,,,,,,,,,,,,cost,192,7,aloud,new,red,1063.4936815998517,None,n,1063.4936815998517,None,"['n', 'return']","[1.3811714998446405, 1.7169064998161048]",1063.4936815998517,None,,,101YB,001,2023_Sep_14_1418,ExactRep-v3-final,2021.2.3,59.739654550362204,
,,,,,,,,,,,,7,0,7,0,,,,,,,,,,,,,,,,,,,,,,,,,,,,,,,,,,,,,,,,,,,,,,,,,1067.447273900034,None,,,,,,,,,,,,,,,,,,,,,,,,,,,,,,,,,,,,,,,,,,,,,,,,,,,,,,,,,glory,17,8,sing,old,blue,1065.7463187999092,None,y,1065.7463187999092,None,"['y', 'return']","[1.3041910000611097, 1.6646016999147832]",1065.7463187999092,None,,,101YB,001,2023_Sep_14_1418,ExactRep-v3-final,2021.2.3,59.739654550362204,
,,,,,,,,,,,,8,0,8,0,,,,,,,,,,,,,,,,,,,,,,,,,,,,,,,,,,,,,,,,,,,,,,,,,1069.6161805999,None,,,,,,,,,,,,,,,,,,,,,,,,,,,,,,,,,,,,,,,,,,,,,,,,,,,,,,,,,potato,180,9,aloud,new,red,1067.965062199859,None,n,1067.965062199859,None,"['n', 'return']","[0.9656356000341475, 1.6136040999554098]",1067.965062199859,None,,,101YB,001,2023_Sep_14_1418,ExactRep-v3-final,2021.2.3,59.739654550362204,
,,,,,,,,,,,,9,0,9,0,,,,,,,,,,,,,,,,,,,,,,,,,,,,,,,,,,,,,,,,,,,,,,,,,1072.7523320999462,None,,,,,,,,,,,,,,,,,,,,,,,,,,,,,,,,,,,,,,,,,,,,,,,,,,,,,,,,,chief,95,10,aloud,old,red,1070.1331290998496,None,y,1070.1331290998496,None,"['y', 'return']","[1.58950290014036, 2.573439700063318]",1070.1331290998496,None,,,101YB,001,2023_Sep_14_1418,ExactRep-v3-final,2021.2.3,59.739654550362204,
,,,,,,,,,,,,10,0,10,0,,,,,,,,,,,,,,,,,,,,,,,,,,,,,,,,,,,,,,,,,,,,,,,,,1075.7555439998396,None,,,,,,,,,,,,,,,,,,,,,,,,,,,,,,,,,,,,,,,,,,,,,,,,,,,,,,,,,home,41,11,silent,old,white,1073.269790200051,None,y,1073.269790200051,None,"['y', 'return']","[2.1008160999044776, 2.4448468999471515]",1073.269790200051,None,,,101YB,001,2023_Sep_14_1418,ExactRep-v3-final,2021.2.3,59.739654550362204,
,,,,,,,,,,,,11,0,11,0,,,,,,,,,,,,,,,,,,,,,,,,,,,,,,,,,,,,,,,,,,,,,,,,,1078.0913122999482,None,,,,,,,,,,,,,,,,,,,,,,,,,,,,,,,,,,,,,,,,,,,,,,,,,,,,,,,,,fur,8,12,sing,old,blue,1076.2626683998387,None,y,1076.2626683998387,None,"['y', 'return']","[1.4439797999802977, 1.788028199924156]",1076.2626683998387,None,,,101YB,001,2023_Sep_14_1418,ExactRep-v3-final,2021.2.3,59.739654550362204,
,,,,,,,,,,,,12,0,12,0,,,,,,,,,,,,,,,,,,,,,,,,,,,,,,,,,,,,,,,,,,,,,,,,,1083.0960856999736,None,,,,,,,,,,,,,,,,,,,,,,,,,,,,,,,,,,,,,,,,,,,,,,,,,,,,,,,,,chance,85,13,aloud,old,red,1078.608917400008,None,n,1078.608917400008,None,"['n', 'return']","[4.137792699970305, 4.441644500009716]",1078.608917400008,None,,,101YB,001,2023_Sep_14_1418,ExactRep-v3-final,2021.2.3,59.739654550362204,
,,,,,,,,,,,,13,0,13,0,,,,,,,,,,,,,,,,,,,,,,,,,,,,,,,,,,,,,,,,,,,,,,,,,1085.1319800999481,None,,,,,,,,,,,,,,,,,,,,,,,,,,,,,,,,,,,,,,,,,,,,,,,,,,,,,,,,,cabin,134,14,silent,new,white,1083.6086734998971,None,n,1083.6086734998971,None,"['n', 'return']","[1.1700932001695037, 1.4818943000864238]",1083.6086734998971,None,,,101YB,001,2023_Sep_14_1418,ExactRep-v3-final,2021.2.3,59.739654550362204,
,,,,,,,,,,,,14,0,14,0,,,,,,,,,,,,,,,,,,,,,,,,,,,,,,,,,,,,,,,,,,,,,,,,,1086.9842602999415,None,,,,,,,,,,,,,,,,,,,,,,,,,,,,,,,,,,,,,,,,,,,,,,,,,,,,,,,,,cat,101,15,aloud,old,red,1085.6451295998413,None,y,1085.6451295998413,None,"['y', 'return']","[0.9894751000683755, 1.301648800028488]",1085.6451295998413,None,,,101YB,001,2023_Sep_14_1418,ExactRep-v3-final,2021.2.3,59.739654550362204,
,,,,,,,,,,,,15,0,15,0,,,,,,,,,,,,,,,,,,,,,,,,,,,,,,,,,,,,,,,,,,,,,,,,,1090.536665200023,None,,,,,,,,,,,,,,,,,,,,,,,,,,,,,,,,,,,,,,,,,,,,,,,,,,,,,,,,,ticket,46,16,silent,old,white,1087.5125667999964,None,n,1087.5125667999964,None,"['n', 'return']","[2.6739843001123518, 2.9780812999233603]",1087.5125667999964,None,,,101YB,001,2023_Sep_14_1418,ExactRep-v3-final,2021.2.3,59.739654550362204,
,,,,,,,,,,,,16,0,16,0,,,,,,,,,,,,,,,,,,,,,,,,,,,,,,,,,,,,,,,,,,,,,,,,,1092.9061948000453,None,,,,,,,,,,,,,,,,,,,,,,,,,,,,,,,,,,,,,,,,,,,,,,,,,,,,,,,,,mind,60,17,silent,old,white,1091.0612349999137,None,n,1091.0612349999137,None,"['n', 'return']","[1.5012791999615729, 1.7973792999982834]",1091.0612349999137,None,,,101YB,001,2023_Sep_14_1418,ExactRep-v3-final,2021.2.3,59.739654550362204,
,,,,,,,,,,,,17,0,17,0,,,,,,,,,,,,,,,,,,,,,,,,,,,,,,,,,,,,,,,,,,,,,,,,,1097.343972499948,None,,,,,,,,,,,,,,,,,,,,,,,,,,,,,,,,,,,,,,,,,,,,,,,,,,,,,,,,,truth,184,18,aloud,new,red,1093.4238904998638,None,y,1093.4238904998638,None,"['y', 'return']","[3.6106836998369545, 3.87467319983989]",1093.4238904998638,None,,,101YB,001,2023_Sep_14_1418,ExactRep-v3-final,2021.2.3,59.739654550362204,
,,,,,,,,,,,,18,0,18,0,,,,,,,,,,,,,,,,,,,,,,,,,,,,,,,,,,,,,,,,,,,,,,,,,1099.4959298998583,None,,,,,,,,,,,,,,,,,,,,,,,,,,,,,,,,,,,,,,,,,,,,,,,,,,,,,,,,,air,92,19,aloud,old,red,1097.8606604000088,None,y,1097.8606604000088,None,"['y', 'return']","[1.2939243998844177, 1.589895399985835]",1097.8606604000088,None,,,101YB,001,2023_Sep_14_1418,ExactRep-v3-final,2021.2.3,59.739654550362204,
,,,,,,,,,,,,19,0,19,0,,,,,,,,,,,,,,,,,,,,,,,,,,,,,,,,,,,,,,,,,,,,,,,,,1101.5644511999562,None,,,,,,,,,,,,,,,,,,,,,,,,,,,,,,,,,,,,,,,,,,,,,,,,,,,,,,,,,diamond,9,20,sing,old,blue,1100.013172699837,None,y,1100.013172699837,None,"['y', 'return']","[1.2133351999800652, 1.5094415000639856]",1100.013172699837,None,,,101YB,001,2023_Sep_14_1418,ExactRep-v3-final,2021.2.3,59.739654550362204,
,,,,,,,,,,,,20,0,20,0,,,,,,,,,,,,,,,,,,,,,,,,,,,,,,,,,,,,,,,,,,,,,,,,,1103.3653772999533,None,,,,,,,,,,,,,,,,,,,,,,,,,,,,,,,,,,,,,,,,,,,,,,,,,,,,,,,,,death,16,21,sing,old,blue,1102.0658172999974,None,y,1102.0658172999974,None,"['y', 'return']","[0.9447920999955386, 1.2568336999975145]",1102.0658172999974,None,,,101YB,001,2023_Sep_14_1418,ExactRep-v3-final,2021.2.3,59.739654550362204,
,,,,,,,,,,,,21,0,21,0,,,,,,,,,,,,,,,,,,,,,,,,,,,,,,,,,,,,,,,,,,,,,,,,,1105.6519337999634,None,,,,,,,,,,,,,,,,,,,,,,,,,,,,,,,,,,,,,,,,,,,,,,,,,,,,,,,,,valley,27,22,sing,old,blue,1103.8676612998825,None,n,1103.8676612998825,None,"['n', 'return']","[1.4709483000915498, 1.7429160999599844]",1103.8676612998825,None,,,101YB,001,2023_Sep_14_1418,ExactRep-v3-final,2021.2.3,59.739654550362204,
,,,,,,,,,,,,22,0,22,0,,,,,,,,,,,,,,,,,,,,,,,,,,,,,,,,,,,,,,,,,,,,,,,,,1107.5032438000198,None,,,,,,,,,,,,,,,,,,,,,,,,,,,,,,,,,,,,,,,,,,,,,,,,,,,,,,,,,owner,84,23,aloud,old,red,1106.153236599872,None,y,1106.153236599872,None,"['y', 'return']","[0.9934574000071734, 1.305265499977395]",1106.153236599872,None,,,101YB,001,2023_Sep_14_1418,ExactRep-v3-final,2021.2.3,59.739654550362204,
,,,,,,,,,,,,23,0,23,0,,,,,,,,,,,,,,,,,,,,,,,,,,,,,,,,,,,,,,,,,,,,,,,,,1109.5223546000198,None,,,,,,,,,,,,,,,,,,,,,,,,,,,,,,,,,,,,,,,,,,,,,,,,,,,,,,,,,advice,234,24,aloud,new,red,1108.0047354998533,None,n,1108.0047354998533,None,"['n', 'return']","[1.1418332001194358, 1.4778694999404252]",1108.0047354998533,None,,,101YB,001,2023_Sep_14_1418,ExactRep-v3-final,2021.2.3,59.739654550362204,
,,,,,,,,,,,,24,0,24,0,,,,,,,,,,,,,,,,,,,,,,,,,,,,,,,,,,,,,,,,,,,,,,,,,1111.3748399999458,None,,,,,,,,,,,,,,,,,,,,,,,,,,,,,,,,,,,,,,,,,,,,,,,,,,,,,,,,,doll,125,25,silent,new,white,1110.0240436999593,None,n,1110.0240436999593,None,"['n', 'return']","[1.018533900147304, 1.314746499992907]",1110.0240436999593,None,,,101YB,001,2023_Sep_14_1418,ExactRep-v3-final,2021.2.3,59.739654550362204,
,,,,,,,,,,,,25,0,25,0,,,,,,,,,,,,,,,,,,,,,,,,,,,,,,,,,,,,,,,,,,,,,,,,,1113.1428016000427,None,,,,,,,,,,,,,,,,,,,,,,,,,,,,,,,,,,,,,,,,,,,,,,,,,,,,,,,,,meat,115,26,aloud,old,red,1111.8919362998568,None,y,1111.8919362998568,None,"['y', 'return']","[0.9266918001230806, 1.2146557001397014]",1111.8919362998568,None,,,101YB,001,2023_Sep_14_1418,ExactRep-v3-final,2021.2.3,59.739654550362204,
,,,,,,,,,,,,26,0,26,0,,,,,,,,,,,,,,,,,,,,,,,,,,,,,,,,,,,,,,,,,,,,,,,,,1115.044793699868,None,,,,,,,,,,,,,,,,,,,,,,,,,,,,,,,,,,,,,,,,,,,,,,,,,,,,,,,,,person,28,27,sing,old,blue,1113.6437041999307,None,y,1113.6437041999307,None,"['y', 'return']","[1.1108975000679493, 1.3668629999738187]",1113.6437041999307,None,,,101YB,001,2023_Sep_14_1418,ExactRep-v3-final,2021.2.3,59.739654550362204,
,,,,,,,,,,,,27,0,27,0,,,,,,,,,,,,,,,,,,,,,,,,,,,,,,,,,,,,,,,,,,,,,,,,,1116.8800508000422,None,,,,,,,,,,,,,,,,,,,,,,,,,,,,,,,,,,,,,,,,,,,,,,,,,,,,,,,,,garden,82,28,aloud,old,red,1115.5615823999979,None,y,1115.5615823999979,None,"['y', 'return']","[1.008996200049296, 1.281328200129792]",1115.5615823999979,None,,,101YB,001,2023_Sep_14_1418,ExactRep-v3-final,2021.2.3,59.739654550362204,
,,,,,,,,,,,,28,0,28,0,,,,,,,,,,,,,,,,,,,,,,,,,,,,,,,,,,,,,,,,,,,,,,,,,1118.597280099988,None,,,,,,,,,,,,,,,,,,,,,,,,,,,,,,,,,,,,,,,,,,,,,,,,,,,,,,,,,village,113,29,aloud,old,red,1117.3976681998465,None,y,1117.3976681998465,None,"['y', 'return']","[0.8449335000477731, 1.1570210000500083]",1117.3976681998465,None,,,101YB,001,2023_Sep_14_1418,ExactRep-v3-final,2021.2.3,59.739654550362204,
,,,,,,,,,,,,29,0,29,0,,,,,,,,,,,,,,,,,,,,,,,,,,,,,,,,,,,,,,,,,,,,,,,,,1120.4320256998762,None,,,,,,,,,,,,,,,,,,,,,,,,,,,,,,,,,,,,,,,,,,,,,,,,,,,,,,,,,river,145,30,silent,new,white,1119.106457100017,None,n,1119.106457100017,None,"['n', 'return']","[0.9360821000300348, 1.2801067000254989]",1119.106457100017,None,,,101YB,001,2023_Sep_14_1418,ExactRep-v3-final,2021.2.3,59.739654550362204,
,,,,,,,,,,,,30,0,30,0,,,,,,,,,,,,,,,,,,,,,,,,,,,,,,,,,,,,,,,,,,,,,,,,,1122.335167599842,None,,,,,,,,,,,,,,,,,,,,,,,,,,,,,,,,,,,,,,,,,,,,,,,,,,,,,,,,,shore,91,31,aloud,old,red,1120.9402878999244,None,y,1120.9402878999244,None,"['y', 'return']","[1.0862785000354052, 1.3584192001726478]",1120.9402878999244,None,,,101YB,001,2023_Sep_14_1418,ExactRep-v3-final,2021.2.3,59.739654550362204,
,,,,,,,,,,,,31,0,31,0,,,,,,,,,,,,,,,,,,,,,,,,,,,,,,,,,,,,,,,,,,,,,,,,,1124.4708589999937,None,,,,,,,,,,,,,,,,,,,,,,,,,,,,,,,,,,,,,,,,,,,,,,,,,,,,,,,,,poet,162,32,aloud,new,red,1122.8359478998464,None,n,1122.8359478998464,None,"['n', 'return']","[1.2866075998172164, 1.5907315998338163]",1122.8359478998464,None,,,101YB,001,2023_Sep_14_1418,ExactRep-v3-final,2021.2.3,59.739654550362204,
,,,,,,,,,,,,32,0,32,0,,,,,,,,,,,,,,,,,,,,,,,,,,,,,,,,,,,,,,,,,,,,,,,,,1126.273000099929,None,,,,,,,,,,,,,,,,,,,,,,,,,,,,,,,,,,,,,,,,,,,,,,,,,,,,,,,,,history,143,33,silent,new,white,1124.9739067000337,None,n,1124.9739067000337,None,"['n', 'return']","[0.9726434000767767, 1.2606159001588821]",1124.9739067000337,None,,,101YB,001,2023_Sep_14_1418,ExactRep-v3-final,2021.2.3,59.739654550362204,
,,,,,,,,,,,,33,0,33,0,,,,,,,,,,,,,,,,,,,,,,,,,,,,,,,,,,,,,,,,,,,,,,,,,1130.4924247998279,None,,,,,,,,,,,,,,,,,,,,,,,,,,,,,,,,,,,,,,,,,,,,,,,,,,,,,,,,,tree,78,34,silent,old,white,1126.7906450000592,None,n,1126.7906450000592,None,"['n', 'return']","[3.3559520000126213, 3.659997700015083]",1126.7906450000592,None,,,101YB,001,2023_Sep_14_1418,ExactRep-v3-final,2021.2.3,59.739654550362204,
,,,,,,,,,,,,34,0,34,0,,,,,,,,,,,,,,,,,,,,,,,,,,,,,,,,,,,,,,,,,,,,,,,,,1132.2789830998518,None,,,,,,,,,,,,,,,,,,,,,,,,,,,,,,,,,,,,,,,,,,,,,,,,,,,,,,,,,humour,54,35,silent,old,white,1130.9944247000385,None,n,1130.9944247000385,None,"['n', 'return']","[0.9521559001877904, 1.2482198001816869]",1130.9944247000385,None,,,101YB,001,2023_Sep_14_1418,ExactRep-v3-final,2021.2.3,59.739654550362204,
,,,,,,,,,,,,35,0,35,0,,,,,,,,,,,,,,,,,,,,,,,,,,,,,,,,,,,,,,,,,,,,,,,,,1134.1474784999155,None,,,,,,,,,,,,,,,,,,,,,,,,,,,,,,,,,,,,,,,,,,,,,,,,,,,,,,,,,silence,222,36,aloud,new,red,1132.788210199913,None,y,1132.788210199913,None,"['y', 'return']","[1.0225918001960963, 1.3183516000863165]",1132.788210199913,None,,,101YB,001,2023_Sep_14_1418,ExactRep-v3-final,2021.2.3,59.739654550362204,
,,,,,,,,,,,,36,0,36,0,,,,,,,,,,,,,,,,,,,,,,,,,,,,,,,,,,,,,,,,,,,,,,,,,1136.2828148999251,None,,,,,,,,,,,,,,,,,,,,,,,,,,,,,,,,,,,,,,,,,,,,,,,,,,,,,,,,,arm,175,37,sing,new,blue,1134.665636099875,None,n,1134.665636099875,None,"['n', 'return']","[1.1450521000660956, 1.5769859999418259]",1134.665636099875,None,,,101YB,001,2023_Sep_14_1418,ExactRep-v3-final,2021.2.3,59.739654550362204,
,,,,,,,,,,,,37,0,37,0,,,,,,,,,,,,,,,,,,,,,,,,,,,,,,,,,,,,,,,,,,,,,,,,,1138.3837921000086,None,,,,,,,,,,,,,,,,,,,,,,,,,,,,,,,,,,,,,,,,,,,,,,,,,,,,,,,,,mother,194,38,aloud,new,red,1136.798843999859,None,n,1136.798843999859,None,"['n', 'return']","[1.2517309000249952, 1.5396428001113236]",1136.798843999859,None,,,101YB,001,2023_Sep_14_1418,ExactRep-v3-final,2021.2.3,59.739654550362204,
,,,,,,,,,,,,38,0,38,0,,,,,,,,,,,,,,,,,,,,,,,,,,,,,,,,,,,,,,,,,,,,,,,,,1140.3203149000183,None,,,,,,,,,,,,,,,,,,,,,,,,,,,,,,,,,,,,,,,,,,,,,,,,,,,,,,,,,body,64,39,silent,old,white,1138.8861873999704,None,y,1138.8861873999704,None,"['y', 'return']","[1.108395499875769, 1.3968079998157918]",1138.8861873999704,None,,,101YB,001,2023_Sep_14_1418,ExactRep-v3-final,2021.2.3,59.739654550362204,
,,,,,,,,,,,,39,0,39,0,,,,,,,,,,,,,,,,,,,,,,,,,,,,,,,,,,,,,,,,,,,,,,,,,1142.5543565000407,None,,,,,,,,,,,,,,,,,,,,,,,,,,,,,,,,,,,,,,,,,,,,,,,,,,,,,,,,,hope,70,40,silent,old,white,1140.836931800004,None,n,1140.836931800004,None,"['n', 'return']","[1.3335915000643581, 1.6776074999943376]",1140.836931800004,None,,,101YB,001,2023_Sep_14_1418,ExactRep-v3-final,2021.2.3,59.739654550362204,
,,,,,,,,,,,,40,0,40,0,,,,,,,,,,,,,,,,,,,,,,,,,,,,,,,,,,,,,,,,,,,,,,,,,1144.5570864998735,None,,,,,,,,,,,,,,,,,,,,,,,,,,,,,,,,,,,,,,,,,,,,,,,,,,,,,,,,,pupil,177,41,sing,new,blue,1143.0562837999314,None,n,1143.0562837999314,None,"['n', 'return']","[1.1222147000953555, 1.4582998000551015]",1143.0562837999314,None,,,101YB,001,2023_Sep_14_1418,ExactRep-v3-final,2021.2.3,59.739654550362204,
,,,,,,,,,,,,41,0,41,0,,,,,,,,,,,,,,,,,,,,,,,,,,,,,,,,,,,,,,,,,,,,,,,,,1147.8443227000535,None,,,,,,,,,,,,,,,,,,,,,,,,,,,,,,,,,,,,,,,,,,,,,,,,,,,,,,,,,storm,130,42,silent,new,white,1145.064660999924,None,n,1145.064660999924,None,"['n', 'return']","[2.1539050000719726, 2.7379541001282632]",1145.064660999924,None,,,101YB,001,2023_Sep_14_1418,ExactRep-v3-final,2021.2.3,59.739654550362204,
,,,,,,,,,,,,42,0,42,0,,,,,,,,,,,,,,,,,,,,,,,,,,,,,,,,,,,,,,,,,,,,,,,,,1149.9131493999157,None,,,,,,,,,,,,,,,,,,,,,,,,,,,,,,,,,,,,,,,,,,,,,,,,,,,,,,,,,hour,202,43,aloud,new,red,1148.3514959998429,None,y,1148.3514959998429,None,"['y', 'return']","[1.2110472000204027, 1.5149709000252187]",1148.3514959998429,None,,,101YB,001,2023_Sep_14_1418,ExactRep-v3-final,2021.2.3,59.739654550362204,
,,,,,,,,,,,,43,0,43,0,,,,,,,,,,,,,,,,,,,,,,,,,,,,,,,,,,,,,,,,,,,,,,,,,1152.0648733999114,None,,,,,,,,,,,,,,,,,,,,,,,,,,,,,,,,,,,,,,,,,,,,,,,,,,,,,,,,,effort,170,44,aloud,new,red,1150.4294665998314,None,n,1150.4294665998314,None,"['n', 'return']","[1.2451881000306457, 1.5891205999068916]",1150.4294665998314,None,,,101YB,001,2023_Sep_14_1418,ExactRep-v3-final,2021.2.3,59.739654550362204,
,,,,,,,,,,,,44,0,44,0,,,,,,,,,,,,,,,,,,,,,,,,,,,,,,,,,,,,,,,,,,,,,,,,,1154.0838112998754,None,,,,,,,,,,,,,,,,,,,,,,,,,,,,,,,,,,,,,,,,,,,,,,,,,,,,,,,,,volume,3,45,sing,old,blue,1152.5662420999724,None,y,1152.5662420999724,None,"['y', 'return']","[1.1643658000975847, 1.4763499000109732]",1152.5662420999724,None,,,101YB,001,2023_Sep_14_1418,ExactRep-v3-final,2021.2.3,59.739654550362204,
,,,,,,,,,,,,45,0,45,0,,,,,,,,,,,,,,,,,,,,,,,,,,,,,,,,,,,,,,,,,,,,,,,,,1156.0358194999862,None,,,,,,,,,,,,,,,,,,,,,,,,,,,,,,,,,,,,,,,,,,,,,,,,,,,,,,,,,book,146,46,silent,new,white,1154.588012199849,None,n,1154.588012199849,None,"['n', 'return']","[1.094643000047654, 1.4145778000820428]",1154.588012199849,None,,,101YB,001,2023_Sep_14_1418,ExactRep-v3-final,2021.2.3,59.739654550362204,
,,,,,,,,,,,,46,0,46,0,,,,,,,,,,,,,,,,,,,,,,,,,,,,,,,,,,,,,,,,,,,,,,,,,1157.9232117000502,None,,,,,,,,,,,,,,,,,,,,,,,,,,,,,,,,,,,,,,,,,,,,,,,,,,,,,,,,,coast,75,47,silent,old,white,1156.544614000013,None,y,1156.544614000013,None,"['y', 'return']","[1.0100696999579668, 1.3299730001017451]",1156.544614000013,None,,,101YB,001,2023_Sep_14_1418,ExactRep-v3-final,2021.2.3,59.739654550362204,
,,,,,,,,,,,,47,0,47,0,,,,,,,,,,,,,,,,,,,,,,,,,,,,,,,,,,,,,,,,,,,,,,,,,1160.1064110998996,None,,,,,,,,,,,,,,,,,,,,,,,,,,,,,,,,,,,,,,,,,,,,,,,,,,,,,,,,,bar,20,48,sing,old,blue,1158.4378347999882,None,y,1158.4378347999882,None,"['y', 'return']","[1.324771200073883, 1.6287422000896186]",1158.4378347999882,None,,,101YB,001,2023_Sep_14_1418,ExactRep-v3-final,2021.2.3,59.739654550362204,
,,,,,,,,,,,,48,0,48,0,,,,,,,,,,,,,,,,,,,,,,,,,,,,,,,,,,,,,,,,,,,,,,,,,1162.1250966999214,None,,,,,,,,,,,,,,,,,,,,,,,,,,,,,,,,,,,,,,,,,,,,,,,,,,,,,,,,,life,38,49,sing,old,blue,1160.6071231998503,None,y,1160.6071231998503,None,"['y', 'return']","[1.2034233000595123, 1.4834259001072496]",1160.6071231998503,None,,,101YB,001,2023_Sep_14_1418,ExactRep-v3-final,2021.2.3,59.739654550362204,
,,,,,,,,,,,,49,0,49,0,,,,,,,,,,,,,,,,,,,,,,,,,,,,,,,,,,,,,,,,,,,,,,,,,1163.9427050000522,None,,,,,,,,,,,,,,,,,,,,,,,,,,,,,,,,,,,,,,,,,,,,,,,,,,,,,,,,,dust,45,50,silent,old,white,1162.626256099902,None,n,1162.626256099902,None,"['n', 'return']","[0.9282989001367241, 1.2805985000450164]",1162.626256099902,None,,,101YB,001,2023_Sep_14_1418,ExactRep-v3-final,2021.2.3,59.739654550362204,
,,,,,,,,,,,,50,0,50,0,,,,,,,,,,,,,,,,,,,,,,,,,,,,,,,,,,,,,,,,,,,,,,,,,1168.1979540998582,None,,,,,,,,,,,,,,,,,,,,,,,,,,,,,,,,,,,,,,,,,,,,,,,,,,,,,,,,,dawn,2,51,sing,old,blue,1164.4489304998424,None,y,1164.4489304998424,None,"['y', 'return']","[3.4176109000109136, 3.713790399953723]",1164.4489304998424,None,,,101YB,001,2023_Sep_14_1418,ExactRep-v3-final,2021.2.3,59.739654550362204,
,,,,,,,,,,,,51,0,51,0,,,,,,,,,,,,,,,,,,,,,,,,,,,,,,,,,,,,,,,,,,,,,,,,,1170.199879999971,None,,,,,,,,,,,,,,,,,,,,,,,,,,,,,,,,,,,,,,,,,,,,,,,,,,,,,,,,,corn,217,52,sing,new,blue,1168.7076848000288,None,n,1168.7076848000288,None,"['n', 'return']","[1.1428718999959528, 1.4467954998835921]",1168.7076848000288,None,,,101YB,001,2023_Sep_14_1418,ExactRep-v3-final,2021.2.3,59.739654550362204,
,,,,,,,,,,,,52,0,52,0,,,,,,,,,,,,,,,,,,,,,,,,,,,,,,,,,,,,,,,,,,,,,,,,,1172.167681099847,None,,,,,,,,,,,,,,,,,,,,,,,,,,,,,,,,,,,,,,,,,,,,,,,,,,,,,,,,,factory,205,53,sing,new,blue,1170.730951800011,None,n,1170.730951800011,None,"['n', 'return']","[1.0876950998790562, 1.399607399944216]",1170.730951800011,None,,,101YB,001,2023_Sep_14_1418,ExactRep-v3-final,2021.2.3,59.739654550362204,
,,,,,,,,,,,,53,0,53,0,,,,,,,,,,,,,,,,,,,,,,,,,,,,,,,,,,,,,,,,,,,,,,,,,1174.8878991999663,None,,,,,,,,,,,,,,,,,,,,,,,,,,,,,,,,,,,,,,,,,,,,,,,,,,,,,,,,,kiss,158,54,silent,new,white,1172.669247899903,None,y,1172.669247899903,None,"['y', 'return']","[1.9092225001659244, 2.181525900028646]",1172.669247899903,None,,,101YB,001,2023_Sep_14_1418,ExactRep-v3-final,2021.2.3,59.739654550362204,
,,,,,,,,,,,,54,0,54,0,,,,,,,,,,,,,,,,,,,,,,,,,,,,,,,,,,,,,,,,,,,,,,,,,1177.1055381998885,None,,,,,,,,,,,,,,,,,,,,,,,,,,,,,,,,,,,,,,,,,,,,,,,,,,,,,,,,,animal,7,55,sing,old,blue,1175.4053462999873,None,y,1175.4053462999873,None,"['y', 'return']","[1.389273300068453, 1.6531943001318723]",1175.4053462999873,None,,,101YB,001,2023_Sep_14_1418,ExactRep-v3-final,2021.2.3,59.739654550362204,
,,,,,,,,,,,,55,0,55,0,,,,,,,,,,,,,,,,,,,,,,,,,,,,,,,,,,,,,,,,,,,,,,,,,1178.8084100999404,None,,,,,,,,,,,,,,,,,,,,,,,,,,,,,,,,,,,,,,,,,,,,,,,,,,,,,,,,,temple,152,56,silent,new,white,1177.6081162998453,None,n,1177.6081162998453,None,"['n', 'return']","[0.8504367999266833, 1.1543519999831915]",1177.6081162998453,None,,,101YB,001,2023_Sep_14_1418,ExactRep-v3-final,2021.2.3,59.739654550362204,
,,,,,,,,,,,,56,0,56,0,,,,,,,,,,,,,,,,,,,,,,,,,,,,,,,,,,,,,,,,,,,,,,,,,1180.843708399916,None,,,,,,,,,,,,,,,,,,,,,,,,,,,,,,,,,,,,,,,,,,,,,,,,,,,,,,,,,colony,79,57,sing,old,blue,1179.3265626998618,None,y,1179.3265626998618,None,"['y', 'return']","[1.1719891000539064, 1.4679107000119984]",1179.3265626998618,None,,,101YB,001,2023_Sep_14_1418,ExactRep-v3-final,2021.2.3,59.739654550362204,
,,,,,,,,,,,,57,0,57,0,,,,,,,,,,,,,,,,,,,,,,,,,,,,,,,,,,,,,,,,,,,,,,,,,1182.661884299945,None,,,,,,,,,,,,,,,,,,,,,,,,,,,,,,,,,,,,,,,,,,,,,,,,,,,,,,,,,artist,12,58,sing,old,blue,1181.3450098000467,None,n,1181.3450098000467,None,"['n', 'return']","[0.9695325999055058, 1.2818829999305308]",1181.3450098000467,None,,,101YB,001,2023_Sep_14_1418,ExactRep-v3-final,2021.2.3,59.739654550362204,
,,,,,,,,,,,,58,0,58,0,,,,,,,,,,,,,,,,,,,,,,,,,,,,,,,,,,,,,,,,,,,,,,,,,1184.6650542998686,None,,,,,,,,,,,,,,,,,,,,,,,,,,,,,,,,,,,,,,,,,,,,,,,,,,,,,,,,,rod,139,59,silent,new,white,1183.1638090999331,None,n,1183.1638090999331,None,"['n', 'return']","[1.1667486999649554, 1.4546635998412967]",1183.1638090999331,None,,,101YB,001,2023_Sep_14_1418,ExactRep-v3-final,2021.2.3,59.739654550362204,
,,,,,,,,,,,,59,0,59,0,,,,,,,,,,,,,,,,,,,,,,,,,,,,,,,,,,,,,,,,,,,,,,,,,1186.6998141999356,None,,,,,,,,,,,,,,,,,,,,,,,,,,,,,,,,,,,,,,,,,,,,,,,,,,,,,,,,,world,63,60,silent,old,white,1185.1820066999644,None,n,1185.1820066999644,None,"['n', 'return']","[1.1967595000751317, 1.4845793000422418]",1185.1820066999644,None,,,101YB,001,2023_Sep_14_1418,ExactRep-v3-final,2021.2.3,59.739654550362204,
,,,,,,,,,,,,60,0,60,0,,,,,,,,,,,,,,,,,,,,,,,,,,,,,,,,,,,,,,,,,,,,,,,,,1188.8691284998786,None,,,,,,,,,,,,,,,,,,,,,,,,,,,,,,,,,,,,,,,,,,,,,,,,,,,,,,,,,anger,122,61,silent,new,white,1187.2061810998712,None,y,1187.2061810998712,None,"['y', 'return']","[1.34836639999412, 1.6282432000152767]",1187.2061810998712,None,,,101YB,001,2023_Sep_14_1418,ExactRep-v3-final,2021.2.3,59.739654550362204,
,,,,,,,,,,,,61,0,61,0,,,,,,,,,,,,,,,,,,,,,,,,,,,,,,,,,,,,,,,,,,,,,,,,,1191.9721375999507,None,,,,,,,,,,,,,,,,,,,,,,,,,,,,,,,,,,,,,,,,,,,,,,,,,,,,,,,,,nail,188,62,aloud,new,red,1189.3846916998737,None,n,1189.3846916998737,None,"['n', 'return']","[2.241876899963245, 2.537882700096816]",1189.3846916998737,None,,,101YB,001,2023_Sep_14_1418,ExactRep-v3-final,2021.2.3,59.739654550362204,
,,,,,,,,,,,,62,0,62,0,,,,,,,,,,,,,,,,,,,,,,,,,,,,,,,,,,,,,,,,,,,,,,,,,1193.7610555000138,None,,,,,,,,,,,,,,,,,,,,,,,,,,,,,,,,,,,,,,,,,,,,,,,,,,,,,,,,,bottle,111,63,aloud,old,red,1192.4958875998855,None,y,1192.4958875998855,None,"['y', 'return']","[0.9226325999479741, 1.2185812999960035]",1192.4958875998855,None,,,101YB,001,2023_Sep_14_1418,ExactRep-v3-final,2021.2.3,59.739654550362204,
,,,,,,,,,,,,63,0,63,0,,,,,,,,,,,,,,,,,,,,,,,,,,,,,,,,,,,,,,,,,,,,,,,,,1195.776000799844,None,,,,,,,,,,,,,,,,,,,,,,,,,,,,,,,,,,,,,,,,,,,,,,,,,,,,,,,,,honour,219,64,sing,new,blue,1194.2728784999344,None,n,1194.2728784999344,None,"['n', 'return']","[1.1616694000549614, 1.4577668001875281]",1194.2728784999344,None,,,101YB,001,2023_Sep_14_1418,ExactRep-v3-final,2021.2.3,59.739654550362204,
,,,,,,,,,,,,64,0,64,0,,,,,,,,,,,,,,,,,,,,,,,,,,,,,,,,,,,,,,,,,,,,,,,,,1197.9609115000349,None,,,,,,,,,,,,,,,,,,,,,,,,,,,,,,,,,,,,,,,,,,,,,,,,,,,,,,,,,window,137,65,silent,new,white,1196.298895899905,None,n,1196.298895899905,None,"['n', 'return']","[1.3437095999252051, 1.6235624998807907]",1196.298895899905,None,,,101YB,001,2023_Sep_14_1418,ExactRep-v3-final,2021.2.3,59.739654550362204,
,,,,,,,,,,,,65,0,65,0,,,,,,,,,,,,,,,,,,,,,,,,,,,,,,,,,,,,,,,,,,,,,,,,,1199.7129344998393,None,,,,,,,,,,,,,,,,,,,,,,,,,,,,,,,,,,,,,,,,,,,,,,,,,,,,,,,,,shock,108,66,aloud,old,red,1198.469001099933,None,y,1198.469001099933,None,"['y', 'return']","[0.925586799858138, 1.2054973000194877]",1198.469001099933,None,,,101YB,001,2023_Sep_14_1418,ExactRep-v3-final,2021.2.3,59.739654550362204,
,,,,,,,,,,,,66,0,66,0,,,,,,,,,,,,,,,,,,,,,,,,,,,,,,,,,,,,,,,,,,,,,,,,,1201.7818086999469,None,,,,,,,,,,,,,,,,,,,,,,,,,,,,,,,,,,,,,,,,,,,,,,,,,,,,,,,,,car,47,67,silent,old,white,1200.230032299878,None,y,1200.230032299878,None,"['y', 'return']","[1.2445145000237972, 1.5086337998509407]",1200.230032299878,None,,,101YB,001,2023_Sep_14_1418,ExactRep-v3-final,2021.2.3,59.739654550362204,
,,,,,,,,,,,,67,0,67,0,,,,,,,,,,,,,,,,,,,,,,,,,,,,,,,,,,,,,,,,,,,,,,,,,1204.6844283998944,None,,,,,,,,,,,,,,,,,,,,,,,,,,,,,,,,,,,,,,,,,,,,,,,,,,,,,,,,,pride,173,68,sing,new,blue,1202.2998869998846,None,n,1202.2998869998846,None,"['n', 'return']","[2.0469786999747157, 2.342655999818817]",1202.2998869998846,None,,,101YB,001,2023_Sep_14_1418,ExactRep-v3-final,2021.2.3,59.739654550362204,
,,,,,,,,,,,,68,0,68,0,,,,,,,,,,,,,,,,,,,,,,,,,,,,,,,,,,,,,,,,,,,,,,,,,1207.1367625999264,None,,,,,,,,,,,,,,,,,,,,,,,,,,,,,,,,,,,,,,,,,,,,,,,,,,,,,,,,,earth,179,69,sing,new,blue,1205.1921015998814,None,n,1205.1921015998814,None,"['n', 'return']","[1.594408700009808, 1.898352700052783]",1205.1921015998814,None,,,101YB,001,2023_Sep_14_1418,ExactRep-v3-final,2021.2.3,59.739654550362204,
,,,,,,,,,,,,69,0,69,0,,,,,,,,,,,,,,,,,,,,,,,,,,,,,,,,,,,,,,,,,,,,,,,,,1209.272309700027,None,,,,,,,,,,,,,,,,,,,,,,,,,,,,,,,,,,,,,,,,,,,,,,,,,,,,,,,,,blossom,69,70,silent,old,white,1207.6547218998894,None,n,1207.6547218998894,None,"['n', 'return']","[1.1878031000960618, 1.5717849999200553]",1207.6547218998894,None,,,101YB,001,2023_Sep_14_1418,ExactRep-v3-final,2021.2.3,59.739654550362204,
,,,,,,,,,,,,70,0,70,0,,,,,,,,,,,,,,,,,,,,,,,,,,,,,,,,,,,,,,,,,,,,,,,,,1212.5259279999882,None,,,,,,,,,,,,,,,,,,,,,,,,,,,,,,,,,,,,,,,,,,,,,,,,,,,,,,,,,square,11,71,sing,old,blue,1209.7802724000067,None,n,1209.7802724000067,None,"['n', 'return']","[2.398281699977815, 2.7023454001173377]",1209.7802724000067,None,,,101YB,001,2023_Sep_14_1418,ExactRep-v3-final,2021.2.3,59.739654550362204,
,,,,,,,,,,,,71,0,71,0,,,,,,,,,,,,,,,,,,,,,,,,,,,,,,,,,,,,,,,,,,,,,,,,,1214.660683499882,None,,,,,,,,,,,,,,,,,,,,,,,,,,,,,,,,,,,,,,,,,,,,,,,,,,,,,,,,,city,223,72,sing,new,blue,1213.0434355998877,None,y,1213.0434355998877,None,"['y', 'return']","[1.2790166002232581, 1.583082800032571]",1213.0434355998877,None,,,101YB,001,2023_Sep_14_1418,ExactRep-v3-final,2021.2.3,59.739654550362204,
,,,,,,,,,,,,72,0,72,0,,,,,,,,,,,,,,,,,,,,,,,,,,,,,,,,,,,,,,,,,,,,,,,,,1216.5799030999187,None,,,,,,,,,,,,,,,,,,,,,,,,,,,,,,,,,,,,,,,,,,,,,,,,,,,,,,,,,author,183,73,sing,new,blue,1215.167496399954,None,n,1215.167496399954,None,"['n', 'return']","[1.0270022000186145, 1.3629482998512685]",1215.167496399954,None,,,101YB,001,2023_Sep_14_1418,ExactRep-v3-final,2021.2.3,59.739654550362204,
,,,,,,,,,,,,73,0,73,0,,,,,,,,,,,,,,,,,,,,,,,,,,,,,,,,,,,,,,,,,,,,,,,,,1218.8648025000002,None,,,,,,,,,,,,,,,,,,,,,,,,,,,,,,,,,,,,,,,,,,,,,,,,,,,,,,,,,apple,126,74,silent,new,white,1217.0967635998968,None,n,1217.0967635998968,None,"['n', 'return']","[1.4177610999904573, 1.7298435000702739]",1217.0967635998968,None,,,101YB,001,2023_Sep_14_1418,ExactRep-v3-final,2021.2.3,59.739654550362204,
,,,,,,,,,,,,74,0,74,0,,,,,,,,,,,,,,,,,,,,,,,,,,,,,,,,,,,,,,,,,,,,,,,,,1221.049393599853,None,,,,,,,,,,,,,,,,,,,,,,,,,,,,,,,,,,,,,,,,,,,,,,,,,,,,,,,,,insect,86,75,aloud,old,red,1219.384394600056,None,y,1219.384394600056,None,"['y', 'return']","[1.3142557998653501, 1.6180587999988347]",1219.384394600056,None,,,101YB,001,2023_Sep_14_1418,ExactRep-v3-final,2021.2.3,59.739654550362204,
,,,,,,,,,,,,75,0,75,0,,,,,,,,,,,,,,,,,,,,,,,,,,,,,,,,,,,,,,,,,,,,,,,,,1222.9026673999615,None,,,,,,,,,,,,,,,,,,,,,,,,,,,,,,,,,,,,,,,,,,,,,,,,,,,,,,,,,amount,136,76,silent,new,white,1221.5516838999465,None,n,1221.5516838999465,None,"['n', 'return']","[1.0028456000145525, 1.315425100037828]",1221.5516838999465,None,,,101YB,001,2023_Sep_14_1418,ExactRep-v3-final,2021.2.3,59.739654550362204,
,,,,,,,,,,,,76,0,76,0,,,,,,,,,,,,,,,,,,,,,,,,,,,,,,,,,,,,,,,,,,,,,,,,,1224.7376870999578,None,,,,,,,,,,,,,,,,,,,,,,,,,,,,,,,,,,,,,,,,,,,,,,,,,,,,,,,,,fault,109,77,aloud,old,red,1223.4196907998994,None,y,1223.4196907998994,None,"['y', 'return']","[0.9911213999148458, 1.2708685998804867]",1223.4196907998994,None,,,101YB,001,2023_Sep_14_1418,ExactRep-v3-final,2021.2.3,59.739654550362204,
,,,,,,,,,,,,77,0,77,0,,,,,,,,,,,,,,,,,,,,,,,,,,,,,,,,,,,,,,,,,,,,,,,,,1226.6063232999295,None,,,,,,,,,,,,,,,,,,,,,,,,,,,,,,,,,,,,,,,,,,,,,,,,,,,,,,,,,time,156,78,silent,new,white,1225.2543903000187,None,y,1225.2543903000187,None,"['y', 'return']","[1.0361349999438971, 1.3163806998636574]",1225.2543903000187,None,,,101YB,001,2023_Sep_14_1418,ExactRep-v3-final,2021.2.3,59.739654550362204,
,,,,,,,,,,,,78,0,78,0,,,,,,,,,,,,,,,,,,,,,,,,,,,,,,,,,,,,,,,,,,,,,,,,,1228.524575300049,None,,,,,,,,,,,,,,,,,,,,,,,,,,,,,,,,,,,,,,,,,,,,,,,,,,,,,,,,,party,216,79,aloud,new,red,1227.1226309998892,None,n,1227.1226309998892,None,"['n', 'return']","[1.0398311000317335, 1.3679680000059307]",1227.1226309998892,None,,,101YB,001,2023_Sep_14_1418,ExactRep-v3-final,2021.2.3,59.739654550362204,
,,,,,,,,,,,,79,0,79,0,,,,,,,,,,,,,,,,,,,,,,,,,,,,,,,,,,,,,,,,,,,,,,,,,1231.2104903999716,None,,,,,,,,,,,,,,,,,,,,,,,,,,,,,,,,,,,,,,,,,,,,,,,,,,,,,,,,,soul,229,80,sing,new,blue,1229.0348242998589,None,n,1229.0348242998589,None,"['n', 'return']","[1.847681200131774, 2.1358074001036584]",1229.0348242998589,None,,,101YB,001,2023_Sep_14_1418,ExactRep-v3-final,2021.2.3,59.739654550362204,
,,,,,,,,,,,,80,0,80,0,,,,,,,,,,,,,,,,,,,,,,,,,,,,,,,,,,,,,,,,,,,,,,,,,1233.7141124999616,None,,,,,,,,,,,,,,,,,,,,,,,,,,,,,,,,,,,,,,,,,,,,,,,,,,,,,,,,,money,236,81,aloud,new,red,1231.7204119998496,None,y,1231.7204119998496,None,"['y', 'return']","[1.6660270998254418, 1.9541813000105321]",1231.7204119998496,None,,,101YB,001,2023_Sep_14_1418,ExactRep-v3-final,2021.2.3,59.739654550362204,
,,,,,,,,,,,,81,0,81,0,,,,,,,,,,,,,,,,,,,,,,,,,,,,,,,,,,,,,,,,,,,,,,,,,1235.8151465998963,None,,,,,,,,,,,,,,,,,,,,,,,,,,,,,,,,,,,,,,,,,,,,,,,,,,,,,,,,,flag,76,82,silent,old,white,1234.230103999842,None,y,1234.230103999842,None,"['y', 'return']","[1.1964765000157058, 1.548628899967298]",1234.230103999842,None,,,101YB,001,2023_Sep_14_1418,ExactRep-v3-final,2021.2.3,59.739654550362204,
,,,,,,,,,,,,82,0,82,0,,,,,,,,,,,,,,,,,,,,,,,,,,,,,,,,,,,,,,,,,,,,,,,,,1237.684120999882,None,,,,,,,,,,,,,,,,,,,,,,,,,,,,,,,,,,,,,,,,,,,,,,,,,,,,,,,,,season,218,83,aloud,new,red,1236.3206323999912,None,n,1236.3206323999912,None,"['n', 'return']","[0.9941336000338197, 1.3219772998709232]",1236.3206323999912,None,,,101YB,001,2023_Sep_14_1418,ExactRep-v3-final,2021.2.3,59.739654550362204,
,,,,,,,,,,,,83,0,83,0,,,,,,,,,,,,,,,,,,,,,,,,,,,,,,,,,,,,,,,,,,,,,,,,,1239.802774899872,None,,,,,,,,,,,,,,,,,,,,,,,,,,,,,,,,,,,,,,,,,,,,,,,,,,,,,,,,,weapon,74,84,silent,old,white,1238.192049499834,None,y,1238.192049499834,None,"['y', 'return']","[1.2906212001107633, 1.5705562001094222]",1238.192049499834,None,,,101YB,001,2023_Sep_14_1418,ExactRep-v3-final,2021.2.3,59.739654550362204,
,,,,,,,,,,,,84,0,84,0,,,,,,,,,,,,,,,,,,,,,,,,,,,,,,,,,,,,,,,,,,,,,,,,,1242.0391563000157,None,,,,,,,,,,,,,,,,,,,,,,,,,,,,,,,,,,,,,,,,,,,,,,,,,,,,,,,,,series,110,85,aloud,old,red,1240.3199459000025,None,n,1240.3199459000025,None,"['n', 'return']","[1.354613599833101, 1.6746892998926342]",1240.3199459000025,None,,,101YB,001,2023_Sep_14_1418,ExactRep-v3-final,2021.2.3,59.739654550362204,
,,,,,,,,,,,,85,0,85,0,,,,,,,,,,,,,,,,,,,,,,,,,,,,,,,,,,,,,,,,,,,,,,,,,1244.590842399979,None,,,,,,,,,,,,,,,,,,,,,,,,,,,,,,,,,,,,,,,,,,,,,,,,,,,,,,,,,table,161,86,sing,new,blue,1242.5560057000257,None,y,1242.5560057000257,None,"['y', 'return']","[1.6065606002230197, 1.9905510002281517]",1242.5560057000257,None,,,101YB,001,2023_Sep_14_1418,ExactRep-v3-final,2021.2.3,59.739654550362204,
,,,,,,,,,,,,86,0,86,0,,,,,,,,,,,,,,,,,,,,,,,,,,,,,,,,,,,,,,,,,,,,,,,,,1247.1101458000485,None,,,,,,,,,,,,,,,,,,,,,,,,,,,,,,,,,,,,,,,,,,,,,,,,,,,,,,,,,length,5,87,sing,old,blue,1245.1082431999967,None,y,1245.1082431999967,None,"['y', 'return']","[1.614514600019902, 1.9583318999502808]",1245.1082431999967,None,,,101YB,001,2023_Sep_14_1418,ExactRep-v3-final,2021.2.3,59.739654550362204,
,,,,,,,,,,,,87,0,87,0,,,,,,,,,,,,,,,,,,,,,,,,,,,,,,,,,,,,,,,,,,,,,,,,,1249.1288574000355,None,,,,,,,,,,,,,,,,,,,,,,,,,,,,,,,,,,,,,,,,,,,,,,,,,,,,,,,,,lake,123,88,silent,new,white,1247.6213630998973,None,n,1247.6213630998973,None,"['n', 'return']","[1.1411085000727326, 1.4610834000632167]",1247.6213630998973,None,,,101YB,001,2023_Sep_14_1418,ExactRep-v3-final,2021.2.3,59.739654550362204,
,,,,,,,,,,,,88,0,88,0,,,,,,,,,,,,,,,,,,,,,,,,,,,,,,,,,,,,,,,,,,,,,,,,,1252.2817752999254,None,,,,,,,,,,,,,,,,,,,,,,,,,,,,,,,,,,,,,,,,,,,,,,,,,,,,,,,,,paper,114,89,aloud,old,red,1249.6410987998825,None,y,1249.6410987998825,None,"['y', 'return']","[2.305487399920821, 2.5934826999437064]",1249.6410987998825,None,,,101YB,001,2023_Sep_14_1418,ExactRep-v3-final,2021.2.3,59.739654550362204,
,,,,,,,,,,,,89,0,89,0,,,,,,,,,,,,,,,,,,,,,,,,,,,,,,,,,,,,,,,,,,,,,,,,,1254.49983049999,None,,,,,,,,,,,,,,,,,,,,,,,,,,,,,,,,,,,,,,,,,,,,,,,,,,,,,,,,,avenue,233,90,sing,new,blue,1252.798444399843,None,n,1252.798444399843,None,"['n', 'return']","[1.3482586001046002, 1.6680266000330448]",1252.798444399843,None,,,101YB,001,2023_Sep_14_1418,ExactRep-v3-final,2021.2.3,59.739654550362204,
,,,,,,,,,,,,90,0,90,0,,,,,,,,,,,,,,,,,,,,,,,,,,,,,,,,,,,,,,,,,,,,,,,,,1256.4535707000177,None,,,,,,,,,,,,,,,,,,,,,,,,,,,,,,,,,,,,,,,,,,,,,,,,,,,,,,,,,ship,150,91,silent,new,white,1255.0093661998399,None,n,1255.0093661998399,None,"['n', 'return']","[1.0895263000857085, 1.4091933001764119]",1255.0093661998399,None,,,101YB,001,2023_Sep_14_1418,ExactRep-v3-final,2021.2.3,59.739654550362204,
,,,,,,,,,,,,91,0,91,0,,,,,,,,,,,,,,,,,,,,,,,,,,,,,,,,,,,,,,,,,,,,,,,,,1258.371239400003,None,,,,,,,,,,,,,,,,,,,,,,,,,,,,,,,,,,,,,,,,,,,,,,,,,,,,,,,,,dollar,39,92,silent,old,white,1256.9703442999162,None,n,1256.9703442999162,None,"['n', 'return']","[1.0160771999508142, 1.35225969995372]",1256.9703442999162,None,,,101YB,001,2023_Sep_14_1418,ExactRep-v3-final,2021.2.3,59.739654550362204,
,,,,,,,,,,,,92,0,92,0,,,,,,,,,,,,,,,,,,,,,,,,,,,,,,,,,,,,,,,,,,,,,,,,,1260.8064363999292,None,,,,,,,,,,,,,,,,,,,,,,,,,,,,,,,,,,,,,,,,,,,,,,,,,,,,,,,,,hall,197,93,sing,new,blue,1258.8886363999918,None,n,1258.8886363999918,None,"['n', 'return']","[1.2660395000129938, 1.8819383000954986]",1258.8886363999918,None,,,101YB,001,2023_Sep_14_1418,ExactRep-v3-final,2021.2.3,59.739654550362204,
,,,,,,,,,,,,93,0,93,0,,,,,,,,,,,,,,,,,,,,,,,,,,,,,,,,,,,,,,,,,,,,,,,,,1262.7257468998432,None,,,,,,,,,,,,,,,,,,,,,,,,,,,,,,,,,,,,,,,,,,,,,,,,,,,,,,,,,beast,105,94,aloud,old,red,1261.3090077999514,None,y,1261.3090077999514,None,"['y', 'return']","[1.0374598000198603, 1.3736021998338401]",1261.3090077999514,None,,,101YB,001,2023_Sep_14_1418,ExactRep-v3-final,2021.2.3,59.739654550362204,
,,,,,,,,,,,,94,0,94,0,,,,,,,,,,,,,,,,,,,,,,,,,,,,,,,,,,,,,,,,,,,,,,,,,1264.7270901000593,None,,,,,,,,,,,,,,,,,,,,,,,,,,,,,,,,,,,,,,,,,,,,,,,,,,,,,,,,,slave,124,95,silent,new,white,1263.2310240999795,None,n,1263.2310240999795,None,"['n', 'return']","[1.1074768998660147, 1.4514289000071585]",1263.2310240999795,None,,,101YB,001,2023_Sep_14_1418,ExactRep-v3-final,2021.2.3,59.739654550362204,
,,,,,,,,,,,,95,0,95,0,,,,,,,,,,,,,,,,,,,,,,,,,,,,,,,,,,,,,,,,,,,,,,,,,1266.8296757000498,None,,,,,,,,,,,,,,,,,,,,,,,,,,,,,,,,,,,,,,,,,,,,,,,,,,,,,,,,,fire,49,96,silent,old,white,1265.2282729998697,None,n,1265.2282729998697,None,"['n', 'return']","[1.2222724999301136, 1.5583832000847906]",1265.2282729998697,None,,,101YB,001,2023_Sep_14_1418,ExactRep-v3-final,2021.2.3,59.739654550362204,
,,,,,,,,,,,,96,0,96,0,,,,,,,,,,,,,,,,,,,,,,,,,,,,,,,,,,,,,,,,,,,,,,,,,1268.9319780999795,None,,,,,,,,,,,,,,,,,,,,,,,,,,,,,,,,,,,,,,,,,,,,,,,,,,,,,,,,,science,81,97,aloud,old,red,1267.3463611998595,None,y,1267.3463611998595,None,"['y', 'return']","[1.2322871999349445, 1.5442796000279486]",1267.3463611998595,None,,,101YB,001,2023_Sep_14_1418,ExactRep-v3-final,2021.2.3,59.739654550362204,
,,,,,,,,,,,,97,0,97,0,,,,,,,,,,,,,,,,,,,,,,,,,,,,,,,,,,,,,,,,,,,,,,,,,1270.9343822998926,None,,,,,,,,,,,,,,,,,,,,,,,,,,,,,,,,,,,,,,,,,,,,,,,,,,,,,,,,,meadow,224,98,aloud,new,red,1269.468378199963,None,n,1269.468378199963,None,"['n', 'return']","[1.0222427998669446, 1.430332699790597]",1269.468378199963,None,,,101YB,001,2023_Sep_14_1418,ExactRep-v3-final,2021.2.3,59.739654550362204,
,,,,,,,,,,,,98,0,98,0,,,,,,,,,,,,,,,,,,,,,,,,,,,,,,,,,,,,,,,,,,,,,,,,,1273.9202064999845,None,,,,,,,,,,,,,,,,,,,,,,,,,,,,,,,,,,,,,,,,,,,,,,,,,,,,,,,,,street,154,99,silent,new,white,1271.465437100036,None,y,1271.465437100036,None,"['y', 'return']","[2.1130850000772625, 2.4171384000219405]",1271.465437100036,None,,,101YB,001,2023_Sep_14_1418,ExactRep-v3-final,2021.2.3,59.739654550362204,
,,,,,,,,,,,,99,0,99,0,,,,,,,,,,,,,,,,,,,,,,,,,,,,,,,,,,,,,,,,,,,,,,,,,1275.9060451998375,None,,,,,,,,,,,,,,,,,,,,,,,,,,,,,,,,,,,,,,,,,,,,,,,,,,,,,,,,,health,77,100,silent,old,white,1274.4483511999715,None,n,1274.4483511999715,None,"['n', 'return']","[1.0501709000673145, 1.4182245000265539]",1274.4483511999715,None,,,101YB,001,2023_Sep_14_1418,ExactRep-v3-final,2021.2.3,59.739654550362204,
,,,,,,,,,,,,100,0,100,0,,,,,,,,,,,,,,,,,,,,,,,,,,,,,,,,,,,,,,,,,,,,,,,,,1278.8583775998559,None,,,,,,,,,,,,,,,,,,,,,,,,,,,,,,,,,,,,,,,,,,,,,,,,,,,,,,,,,woman,144,101,silent,new,white,1276.4280985000078,None,y,1276.4280985000078,None,"['y', 'return']","[2.086448200047016, 2.3904906001407653]",1276.4280985000078,None,,,101YB,001,2023_Sep_14_1418,ExactRep-v3-final,2021.2.3,59.739654550362204,
,,,,,,,,,,,,101,0,101,0,,,,,,,,,,,,,,,,,,,,,,,,,,,,,,,,,,,,,,,,,,,,,,,,,1280.6268276998308,None,,,,,,,,,,,,,,,,,,,,,,,,,,,,,,,,,,,,,,,,,,,,,,,,,,,,,,,,,student,71,102,silent,old,white,1279.3674180998933,None,y,1279.3674180998933,None,"['y', 'return']","[0.9073206998873502, 1.219081399962306]",1279.3674180998933,None,,,101YB,001,2023_Sep_14_1418,ExactRep-v3-final,2021.2.3,59.739654550362204,
,,,,,,,,,,,,102,0,102,0,,,,,,,,,,,,,,,,,,,,,,,,,,,,,,,,,,,,,,,,,,,,,,,,,1282.5621825000271,None,,,,,,,,,,,,,,,,,,,,,,,,,,,,,,,,,,,,,,,,,,,,,,,,,,,,,,,,,vessel,200,103,aloud,new,red,1281.1282092998736,None,n,1281.1282092998736,None,"['n', 'return']","[1.0983642998617142, 1.3863244999665767]",1281.1282092998736,None,,,101YB,001,2023_Sep_14_1418,ExactRep-v3-final,2021.2.3,59.739654550362204,
,,,,,,,,,,,,103,0,103,0,,,,,,,,,,,,,,,,,,,,,,,,,,,,,,,,,,,,,,,,,,,,,,,,,1284.563055699924,None,,,,,,,,,,,,,,,,,,,,,,,,,,,,,,,,,,,,,,,,,,,,,,,,,,,,,,,,,gold,55,104,silent,old,white,1283.0687845000066,None,n,1283.0687845000066,None,"['n', 'return']","[1.1581562000792474, 1.4537757001817226]",1283.0687845000066,None,,,101YB,001,2023_Sep_14_1418,ExactRep-v3-final,2021.2.3,59.739654550362204,
,,,,,,,,,,,,104,0,104,0,,,,,,,,,,,,,,,,,,,,,,,,,,,,,,,,,,,,,,,,,,,,,,,,,1286.516253599897,None,,,,,,,,,,,,,,,,,,,,,,,,,,,,,,,,,,,,,,,,,,,,,,,,,,,,,,,,,vision,43,105,silent,old,white,1285.0726207999978,None,n,1285.0726207999978,None,"['n', 'return']","[1.0739543999079615, 1.393914699787274]",1285.0726207999978,None,,,101YB,001,2023_Sep_14_1418,ExactRep-v3-final,2021.2.3,59.739654550362204,
,,,,,,,,,,,,105,0,105,0,,,,,,,,,,,,,,,,,,,,,,,,,,,,,,,,,,,,,,,,,,,,,,,,,1288.718182799872,None,,,,,,,,,,,,,,,,,,,,,,,,,,,,,,,,,,,,,,,,,,,,,,,,,,,,,,,,,cottage,58,106,silent,old,white,1287.0342143999878,None,y,1287.0342143999878,None,"['y', 'return']","[1.2882196998689324, 1.6403651000000536]",1287.0342143999878,None,,,101YB,001,2023_Sep_14_1418,ExactRep-v3-final,2021.2.3,59.739654550362204,
,,,,,,,,,,,,106,0,106,0,,,,,,,,,,,,,,,,,,,,,,,,,,,,,,,,,,,,,,,,,,,,,,,,,1290.820442999946,None,,,,,,,,,,,,,,,,,,,,,,,,,,,,,,,,,,,,,,,,,,,,,,,,,,,,,,,,,ocean,131,107,silent,new,white,1289.2482642999385,None,y,1289.2482642999385,None,"['y', 'return']","[1.242313499795273, 1.5382820998784155]",1289.2482642999385,None,,,101YB,001,2023_Sep_14_1418,ExactRep-v3-final,2021.2.3,59.739654550362204,
,,,,,,,,,,,,107,0,107,0,,,,,,,,,,,,,,,,,,,,,,,,,,,,,,,,,,,,,,,,,,,,,,,,,1293.3399380999617,None,,,,,,,,,,,,,,,,,,,,,,,,,,,,,,,,,,,,,,,,,,,,,,,,,,,,,,,,,corner,167,108,sing,new,blue,1291.3281954999547,None,y,1291.3281954999547,None,"['y', 'return']","[1.2183566000312567, 1.970441099954769]",1291.3281954999547,None,,,101YB,001,2023_Sep_14_1418,ExactRep-v3-final,2021.2.3,59.739654550362204,
,,,,,,,,,,,,108,0,108,0,,,,,,,,,,,,,,,,,,,,,,,,,,,,,,,,,,,,,,,,,,,,,,,,,1295.3750177999027,None,,,,,,,,,,,,,,,,,,,,,,,,,,,,,,,,,,,,,,,,,,,,,,,,,,,,,,,,,shame,203,109,sing,new,blue,1293.8560923999175,None,n,1293.8560923999175,None,"['n', 'return']","[1.1864002998918295, 1.4744641999714077]",1293.8560923999175,None,,,101YB,001,2023_Sep_14_1418,ExactRep-v3-final,2021.2.3,59.739654550362204,
,,,,,,,,,,,,109,0,109,0,,,,,,,,,,,,,,,,,,,,,,,,,,,,,,,,,,,,,,,,,,,,,,,,,1297.1256957000587,None,,,,,,,,,,,,,,,,,,,,,,,,,,,,,,,,,,,,,,,,,,,,,,,,,,,,,,,,,plant,171,110,sing,new,blue,1295.882831200026,None,n,1295.882831200026,None,"['n', 'return']","[0.9517171999905258, 1.1838605999946594]",1295.882831200026,None,,,101YB,001,2023_Sep_14_1418,ExactRep-v3-final,2021.2.3,59.739654550362204,
,,,,,,,,,,,,110,0,110,0,,,,,,,,,,,,,,,,,,,,,,,,,,,,,,,,,,,,,,,,,,,,,,,,,1299.7783254999667,None,,,,,,,,,,,,,,,,,,,,,,,,,,,,,,,,,,,,,,,,,,,,,,,,,,,,,,,,,sky,166,111,aloud,new,red,1297.6298372000456,None,n,1297.6298372000456,None,"['n', 'return']","[1.7645464001689106, 2.1086873000022024]",1297.6298372000456,None,,,101YB,001,2023_Sep_14_1418,ExactRep-v3-final,2021.2.3,59.739654550362204,
,,,,,,,,,,,,111,0,111,0,,,,,,,,,,,,,,,,,,,,,,,,,,,,,,,,,,,,,,,,,,,,,,,,,1301.6812550998293,None,,,,,,,,,,,,,,,,,,,,,,,,,,,,,,,,,,,,,,,,,,,,,,,,,,,,,,,,,army,0,112,sing,old,blue,1300.28098089993,None,y,1300.28098089993,None,"['y', 'return']","[1.0895644000265747, 1.3535587000660598]",1300.28098089993,None,,,101YB,001,2023_Sep_14_1418,ExactRep-v3-final,2021.2.3,59.739654550362204,
,,,,,,,,,,,,112,0,112,0,,,,,,,,,,,,,,,,,,,,,,,,,,,,,,,,,,,,,,,,,,,,,,,,,1303.4829836999997,None,,,,,,,,,,,,,,,,,,,,,,,,,,,,,,,,,,,,,,,,,,,,,,,,,,,,,,,,,sea,155,113,silent,new,white,1302.1965415999293,None,n,1302.1965415999293,None,"['n', 'return']","[0.9742620999459177, 1.2461991999298334]",1302.1965415999293,None,,,101YB,001,2023_Sep_14_1418,ExactRep-v3-final,2021.2.3,59.739654550362204,
,,,,,,,,,,,,113,0,113,0,,,,,,,,,,,,,,,,,,,,,,,,,,,,,,,,,,,,,,,,,,,,,,,,,1305.4842796998564,None,,,,,,,,,,,,,,,,,,,,,,,,,,,,,,,,,,,,,,,,,,,,,,,,,,,,,,,,,door,164,114,aloud,new,red,1303.9903686000034,None,y,1303.9903686000034,None,"['y', 'return']","[1.1881520999595523, 1.4600959999952465]",1303.9903686000034,None,,,101YB,001,2023_Sep_14_1418,ExactRep-v3-final,2021.2.3,59.739654550362204,
,,,,,,,,,,,,114,0,114,0,,,,,,,,,,,,,,,,,,,,,,,,,,,,,,,,,,,,,,,,,,,,,,,,,1307.8878720998764,None,,,,,,,,,,,,,,,,,,,,,,,,,,,,,,,,,,,,,,,,,,,,,,,,,,,,,,,,,grass,106,115,aloud,old,red,1305.9892730000429,None,y,1305.9892730000429,None,"['y', 'return']","[1.5972386000212282, 1.8615393000654876]",1305.9892730000429,None,,,101YB,001,2023_Sep_14_1418,ExactRep-v3-final,2021.2.3,59.739654550362204,
,,,,,,,,,,,,115,0,115,0,,,,,,,,,,,,,,,,,,,,,,,,,,,,,,,,,,,,,,,,,,,,,,,,,1309.6228265999816,None,,,,,,,,,,,,,,,,,,,,,,,,,,,,,,,,,,,,,,,,,,,,,,,,,,,,,,,,,meeting,57,116,silent,old,white,1308.4147626999766,None,n,1308.4147626999766,None,"['n', 'return']","[0.8917205000761896, 1.1718721000943333]",1308.4147626999766,None,,,101YB,001,2023_Sep_14_1418,ExactRep-v3-final,2021.2.3,59.739654550362204,
,,,,,,,,,,,,116,0,116,0,,,,,,,,,,,,,,,,,,,,,,,,,,,,,,,,,,,,,,,,,,,,,,,,,1311.2242206998635,None,,,,,,,,,,,,,,,,,,,,,,,,,,,,,,,,,,,,,,,,,,,,,,,,,,,,,,,,,shoes,160,117,aloud,new,red,1310.139994799858,None,n,1310.139994799858,None,"['n', 'return']","[0.7825225999113172, 1.0384549999143928]",1310.139994799858,None,,,101YB,001,2023_Sep_14_1418,ExactRep-v3-final,2021.2.3,59.739654550362204,
,,,,,,,,,,,,117,0,117,0,,,,,,,,,,,,,,,,,,,,,,,,,,,,,,,,,,,,,,,,,,,,,,,,,1313.2426658999175,None,,,,,,,,,,,,,,,,,,,,,,,,,,,,,,,,,,,,,,,,,,,,,,,,,,,,,,,,,letter,59,118,silent,old,white,1311.7282020999119,None,n,1311.7282020999119,None,"['n', 'return']","[1.1946531001012772, 1.4664388000965118]",1311.7282020999119,None,,,101YB,001,2023_Sep_14_1418,ExactRep-v3-final,2021.2.3,59.739654550362204,
,,,,,,,,,,,,118,0,118,0,,,,,,,,,,,,,,,,,,,,,,,,,,,,,,,,,,,,,,,,,,,,,,,,,1316.4460199000314,None,,,,,,,,,,,,,,,,,,,,,,,,,,,,,,,,,,,,,,,,,,,,,,,,,,,,,,,,,king,25,119,sing,old,blue,1313.7592585999519,None,y,1313.7592585999519,None,"['y', 'return']","[2.2994670001789927, 2.6514769999776036]",1313.7592585999519,None,,,101YB,001,2023_Sep_14_1418,ExactRep-v3-final,2021.2.3,59.739654550362204,
,,,,,,,,,,,,119,0,119,0,,,,,,,,,,,,,,,,,,,,,,,,,,,,,,,,,,,,,,,,,,,,,,,,,1320.099936899962,None,,,,,,,,,,,,,,,,,,,,,,,,,,,,,,,,,,,,,,,,,,,,,,,,,,,,,,,,,lip,193,120,sing,new,blue,1316.96266989992,None,n,1316.96266989992,None,"['n', 'return']","[2.8160826000384986, 3.103860800154507]",1316.96266989992,None,,,101YB,001,2023_Sep_14_1418,ExactRep-v3-final,2021.2.3,59.739654550362204,
,,,,,,,,,,,,120,0,120,0,,,,,,,,,,,,,,,,,,,,,,,,,,,,,,,,,,,,,,,,,,,,,,,,,1322.0518952999264,None,,,,,,,,,,,,,,,,,,,,,,,,,,,,,,,,,,,,,,,,,,,,,,,,,,,,,,,,,steam,142,121,silent,new,white,1320.6160480000544,None,n,1320.6160480000544,None,"['n', 'return']","[1.1064387999940664, 1.394467500038445]",1320.6160480000544,None,,,101YB,001,2023_Sep_14_1418,ExactRep-v3-final,2021.2.3,59.739654550362204,
,,,,,,,,,,,,121,0,121,0,,,,,,,,,,,,,,,,,,,,,,,,,,,,,,,,,,,,,,,,,,,,,,,,,1323.83526349999,None,,,,,,,,,,,,,,,,,,,,,,,,,,,,,,,,,,,,,,,,,,,,,,,,,,,,,,,,,maiden,141,122,silent,new,white,1322.577150600031,None,n,1322.577150600031,None,"['n', 'return']","[0.8895388999953866, 1.2173314997926354]",1322.577150600031,None,,,101YB,001,2023_Sep_14_1418,ExactRep-v3-final,2021.2.3,59.739654550362204,
,,,,,,,,,,,,122,0,122,0,,,,,,,,,,,,,,,,,,,,,,,,,,,,,,,,,,,,,,,,,,,,,,,,,1326.5561085999943,None,,,,,,,,,,,,,,,,,,,,,,,,,,,,,,,,,,,,,,,,,,,,,,,,,,,,,,,,,product,33,123,sing,old,blue,1324.3378313998692,None,y,1324.3378313998692,None,"['y', 'return']","[1.8966309998650104, 2.18475339980796]",1324.3378313998692,None,,,101YB,001,2023_Sep_14_1418,ExactRep-v3-final,2021.2.3,59.739654550362204,
,,,,,,,,,,,,123,0,123,0,,,,,,,,,,,,,,,,,,,,,,,,,,,,,,,,,,,,,,,,,,,,,,,,,1328.341320999898,None,,,,,,,,,,,,,,,,,,,,,,,,,,,,,,,,,,,,,,,,,,,,,,,,,,,,,,,,,power,157,124,silent,new,white,1327.0740828998387,None,n,1327.0740828998387,None,"['n', 'return']","[0.9523988999426365, 1.2245694999583066]",1327.0740828998387,None,,,101YB,001,2023_Sep_14_1418,ExactRep-v3-final,2021.2.3,59.739654550362204,
,,,,,,,,,,,,124,0,124,0,,,,,,,,,,,,,,,,,,,,,,,,,,,,,,,,,,,,,,,,,,,,,,,,,1330.0599018000066,None,,,,,,,,,,,,,,,,,,,,,,,,,,,,,,,,,,,,,,,,,,,,,,,,,,,,,,,,,speech,73,125,silent,old,white,1328.850559100043,None,n,1328.850559100043,None,"['n', 'return']","[0.824072299990803, 1.1759212999604642]",1328.850559100043,None,,,101YB,001,2023_Sep_14_1418,ExactRep-v3-final,2021.2.3,59.739654550362204,
,,,,,,,,,,,,125,0,125,0,,,,,,,,,,,,,,,,,,,,,,,,,,,,,,,,,,,,,,,,,,,,,,,,,1332.1286561999004,None,,,,,,,,,,,,,,,,,,,,,,,,,,,,,,,,,,,,,,,,,,,,,,,,,,,,,,,,,gift,100,126,aloud,old,red,1330.5768319999333,None,y,1330.5768319999333,None,"['y', 'return']","[1.2176694001536816, 1.5137325001414865]",1330.5768319999333,None,,,101YB,001,2023_Sep_14_1418,ExactRep-v3-final,2021.2.3,59.739654550362204,
,,,,,,,,,,,,126,0,126,0,,,,,,,,,,,,,,,,,,,,,,,,,,,,,,,,,,,,,,,,,,,,,,,,,1334.1632272999268,None,,,,,,,,,,,,,,,,,,,,,,,,,,,,,,,,,,,,,,,,,,,,,,,,,,,,,,,,,crime,153,127,silent,new,white,1332.6596851998474,None,n,1332.6596851998474,None,"['n', 'return']","[1.1908928998745978, 1.4548860997892916]",1332.6596851998474,None,,,101YB,001,2023_Sep_14_1418,ExactRep-v3-final,2021.2.3,59.739654550362204,
,,,,,,,,,,,,127,0,127,0,,,,,,,,,,,,,,,,,,,,,,,,,,,,,,,,,,,,,,,,,,,,,,,,,1336.883191499859,None,,,,,,,,,,,,,,,,,,,,,,,,,,,,,,,,,,,,,,,,,,,,,,,,,,,,,,,,,priest,21,128,sing,old,blue,1334.6646958999336,None,n,1334.6646958999336,None,"['n', 'return']","[1.9218290999997407, 2.1698200998362154]",1334.6646958999336,None,,,101YB,001,2023_Sep_14_1418,ExactRep-v3-final,2021.2.3,59.739654550362204,
,,,,,,,,,,,,128,0,128,0,,,,,,,,,,,,,,,,,,,,,,,,,,,,,,,,,,,,,,,,,,,,,,,,,1339.0017416998744,None,,,,,,,,,,,,,,,,,,,,,,,,,,,,,,,,,,,,,,,,,,,,,,,,,,,,,,,,,method,119,129,aloud,old,red,1337.4003621998709,None,y,1337.4003621998709,None,"['y', 'return']","[1.2742393999360502, 1.5541528000030667]",1337.4003621998709,None,,,101YB,001,2023_Sep_14_1418,ExactRep-v3-final,2021.2.3,59.739654550362204,
,,,,,,,,,,,,129,0,129,0,,,,,,,,,,,,,,,,,,,,,,,,,,,,,,,,,,,,,,,,,,,,,,,,,1340.8539549999405,None,,,,,,,,,,,,,,,,,,,,,,,,,,,,,,,,,,,,,,,,,,,,,,,,,,,,,,,,,woods,68,130,silent,old,white,1339.5215316000395,None,n,1339.5215316000395,None,"['n', 'return']","[1.0250908001326025, 1.2890369000378996]",1339.5215316000395,None,,,101YB,001,2023_Sep_14_1418,ExactRep-v3-final,2021.2.3,59.739654550362204,
