trials_fam.thisRepN,trials_fam.thisTrialN,trials_fam.thisN,trials_fam.thisIndex,trials_prc.thisRepN,trials_prc.thisTrialN,trials_prc.thisN,trials_prc.thisIndex,StudyLoop.thisRepN,StudyLoop.thisTrialN,StudyLoop.thisN,StudyLoop.thisIndex,TestLoop.thisRepN,TestLoop.thisTrialN,TestLoop.thisN,TestLoop.thisIndex,text_colortest.started,text_colortest.stopped,key_colortest.keys,key_colortest.rt,key_colortest.started,key_colortest.stopped,textCondition.started,textCondition.stopped,keyCondition.keys,keyCondition.rt,keyCondition.started,keyCondition.stopped,Condition_between,Condition_counterbal,keyWelcome.keys,keyWelcome.rt,keyWelcome.started,keyWelcome.stopped,welcome_a.started,welcome_a.stopped,welcome_b.started,welcome_b.stopped,welcome_c.started,welcome_c.stopped,welcome_d.started,welcome_d.stopped,welcome_e.started,welcome_e.stopped,welcome_f.started,welcome_f.stopped,key_resp_fam_inst.keys,key_resp_fam_inst.rt,key_resp_fam_inst.started,key_resp_fam_inst.stopped,fam_a.started,fam_a.stopped,fam_b.started,fam_b.stopped,fam_c.started,fam_c.stopped,fam_d.started,fam_d.stopped,fam_e.started,fam_e.stopped,fam_f.started,fam_f.stopped,text_famil.started,text_famil.stopped,textBlank500.started,textBlank500.stopped,key_resp_prc_inst.keys,key_resp_prc_inst.rt,key_resp_prc_inst.started,key_resp_prc_inst.stopped,prac_a.started,prac_a.stopped,prac_b.started,prac_b.stopped,prac_c.started,prac_c.stopped,prac_d.started,prac_d.stopped,prac_e.started,prac_e.stopped,prac_f.started,prac_f.stopped,text_prc_trial.started,text_prc_trial.stopped,key_resp_study_inst.keys,key_resp_study_inst.rt,key_resp_study_inst.started,key_resp_study_inst.stopped,crit_a.started,crit_a.stopped,crit_b.started,crit_b.stopped,crit_c.started,crit_c.stopped,crit_d.started,crit_d.stopped,crit_e.started,crit_e.stopped,crit_f.started,crit_f.stopped,study_word,study_num,study_order,study_type,word_color,textStudy.started,textStudy.stopped,keyStudy.keys,keyStudy.started,keyStudy.stopped,post_study.started,post_study.stopped,key_resp_post_study.keys,key_resp_post_study.rt,key_resp_post_study.started,key_resp_post_study.stopped,test_inst.started,test_inst.stopped,key_resp_test_inst.keys,key_resp_test_inst.rt,key_resp_test_inst.started,key_resp_test_inst.stopped,test_word,test_num,test_order,test_condition,old_new_test,word_color_test,textConf.started,textConf.stopped,Participant Response,textInput.started,textInput.stopped,keyResp.keys,keyResp.rt,keyResp.started,keyResp.stopped,textEnd.started,textEnd.stopped,participant,session,date,expName,psychopyVersion,frameRate,
,,,,,,,,,,,,,,,,33.556842999999986,None,y,11.158295100000004,33.556842999999986,None,,,,,,,,,,,,,,,,,,,,,,,,,,,,,,,,,,,,,,,,,,,,,,,,,,,,,,,,,,,,,,,,,,,,,,,,,,,,,,,,,,,,,,,,,,,,,,,,,,,,,,,,,,,,,,,,,,,,,,102YC,001,2023_Sep_18_1550,ExactRep-v3-final,2021.2.3,59.92254411947802,
,,,,,,,,,,,,,,,,,,,,,,44.7456071,None,c,1.1374606999999912,44.7456071,None,,,,,,,,,,,,,,,,,,,,,,,,,,,,,,,,,,,,,,,,,,,,,,,,,,,,,,,,,,,,,,,,,,,,,,,,,,,,,,,,,,,,,,,,,,,,,,,,,,,,,,,,,,,,,,,,102YC,001,2023_Sep_18_1550,ExactRep-v3-final,2021.2.3,59.92254411947802,
,,,,,,,,,,,,,,,,,,,,,,,,,,,,colorfoils,c,space,371.4898889,56.0490801,None,,,,,,,,,,,,,,,,,,,,,,,,,,,,,,,,,,,,,,,,,,,,,,,,,,,,,,,,,,,,,,,,,,,,,,,,,,,,,,,,,,,,,,,,,,,,,,,,,,,,,,,,,,102YC,001,2023_Sep_18_1550,ExactRep-v3-final,2021.2.3,59.92254411947802,
,,,,,,,,,,,,,,,,,,,,,,,,,,,,,,,,,,46.13642439999998,None,46.13642439999998,None,46.13642439999998,None,46.13642439999998,None,46.13642439999998,None,46.13642439999998,None,space,43.572191299999986,437.7269554999999,None,,,,,,,,,,,,,,,,,,,,,,,,,,,,,,,,,,,,,,,,,,,,,,,,,,,,,,,,,,,,,,,,,,,,,,,,,,,,,,,,,,,,,,,,,,102YC,001,2023_Sep_18_1550,ExactRep-v3-final,2021.2.3,59.92254411947802,
0,0,0,0,,,,,,,,,,,,,,,,,,,,,,,,,,,,,,,,,,,,,,,,,,,,,,,427.7660735999999,None,427.7660735999999,None,427.7660735999999,None,427.7660735999999,None,427.7660735999999,None,427.7660735999999,None,481.41147349999994,None,483.40043749999995,None,,,,,,,,,,,,,,,,,,,,,,,,,,,,,,,,,,,,,,,,,,,,,,,,,,,,,,,,,,,,,,,,,,,,,,,,,,102YC,001,2023_Sep_18_1550,ExactRep-v3-final,2021.2.3,59.92254411947802,
1,0,1,0,,,,,,,,,,,,,,,,,,,,,,,,,,,,,,,,,,,,,,,,,,,,,,,,,,,,,,,,,,,483.9273129999999,None,485.9196194,None,,,,,,,,,,,,,,,,,,,,,,,,,,,,,,,,,,,,,,,,,,,,,,,,,,,,,,,,,,,,,,,,,,,,,,,,,,102YC,001,2023_Sep_18_1550,ExactRep-v3-final,2021.2.3,59.92254411947802,
2,0,2,0,,,,,,,,,,,,,,,,,,,,,,,,,,,,,,,,,,,,,,,,,,,,,,,,,,,,,,,,,,,486.44236939999996,None,488.4387514,None,,,,,,,,,,,,,,,,,,,,,,,,,,,,,,,,,,,,,,,,,,,,,,,,,,,,,,,,,,,,,,,,,,,,,,,,,,102YC,001,2023_Sep_18_1550,ExactRep-v3-final,2021.2.3,59.92254411947802,
3,0,3,0,,,,,,,,,,,,,,,,,,,,,,,,,,,,,,,,,,,,,,,,,,,,,,,,,,,,,,,,,,,488.93932099999995,None,490.9412592,None,,,,,,,,,,,,,,,,,,,,,,,,,,,,,,,,,,,,,,,,,,,,,,,,,,,,,,,,,,,,,,,,,,,,,,,,,,102YC,001,2023_Sep_18_1550,ExactRep-v3-final,2021.2.3,59.92254411947802,
4,0,4,0,,,,,,,,,,,,,,,,,,,,,,,,,,,,,,,,,,,,,,,,,,,,,,,,,,,,,,,,,,,491.4451007,None,493.4605302,None,,,,,,,,,,,,,,,,,,,,,,,,,,,,,,,,,,,,,,,,,,,,,,,,,,,,,,,,,,,,,,,,,,,,,,,,,,102YC,001,2023_Sep_18_1550,ExactRep-v3-final,2021.2.3,59.92254411947802,
5,0,5,0,,,,,,,,,,,,,,,,,,,,,,,,,,,,,,,,,,,,,,,,,,,,,,,,,,,,,,,,,,,493.9674911999999,None,495.9794058,None,,,,,,,,,,,,,,,,,,,,,,,,,,,,,,,,,,,,,,,,,,,,,,,,,,,,,,,,,,,,,,,,,,,,,,,,,,102YC,001,2023_Sep_18_1550,ExactRep-v3-final,2021.2.3,59.92254411947802,
6,0,6,0,,,,,,,,,,,,,,,,,,,,,,,,,,,,,,,,,,,,,,,,,,,,,,,,,,,,,,,,,,,496.48013889999993,None,498.48204809999993,None,,,,,,,,,,,,,,,,,,,,,,,,,,,,,,,,,,,,,,,,,,,,,,,,,,,,,,,,,,,,,,,,,,,,,,,,,,102YC,001,2023_Sep_18_1550,ExactRep-v3-final,2021.2.3,59.92254411947802,
7,0,7,0,,,,,,,,,,,,,,,,,,,,,,,,,,,,,,,,,,,,,,,,,,,,,,,,,,,,,,,,,,,498.98409549999997,None,500.98464809999996,None,,,,,,,,,,,,,,,,,,,,,,,,,,,,,,,,,,,,,,,,,,,,,,,,,,,,,,,,,,,,,,,,,,,,,,,,,,102YC,001,2023_Sep_18_1550,ExactRep-v3-final,2021.2.3,59.92254411947802,
8,0,8,0,,,,,,,,,,,,,,,,,,,,,,,,,,,,,,,,,,,,,,,,,,,,,,,,,,,,,,,,,,,501.4850472999999,None,503.4870754,None,,,,,,,,,,,,,,,,,,,,,,,,,,,,,,,,,,,,,,,,,,,,,,,,,,,,,,,,,,,,,,,,,,,,,,,,,,102YC,001,2023_Sep_18_1550,ExactRep-v3-final,2021.2.3,59.92254411947802,
9,0,9,0,,,,,,,,,,,,,,,,,,,,,,,,,,,,,,,,,,,,,,,,,,,,,,,,,,,,,,,,,,,503.98776,None,505.9896096,None,,,,,,,,,,,,,,,,,,,,,,,,,,,,,,,,,,,,,,,,,,,,,,,,,,,,,,,,,,,,,,,,,,,,,,,,,,102YC,001,2023_Sep_18_1550,ExactRep-v3-final,2021.2.3,59.92254411947802,
10,0,10,0,,,,,,,,,,,,,,,,,,,,,,,,,,,,,,,,,,,,,,,,,,,,,,,,,,,,,,,,,,,506.48990789999993,None,508.4920611,None,,,,,,,,,,,,,,,,,,,,,,,,,,,,,,,,,,,,,,,,,,,,,,,,,,,,,,,,,,,,,,,,,,,,,,,,,,102YC,001,2023_Sep_18_1550,ExactRep-v3-final,2021.2.3,59.92254411947802,
11,0,11,0,,,,,,,,,,,,,,,,,,,,,,,,,,,,,,,,,,,,,,,,,,,,,,,,,,,,,,,,,,,508.99504649999994,None,510.9947271,None,,,,,,,,,,,,,,,,,,,,,,,,,,,,,,,,,,,,,,,,,,,,,,,,,,,,,,,,,,,,,,,,,,,,,,,,,,102YC,001,2023_Sep_18_1550,ExactRep-v3-final,2021.2.3,59.92254411947802,
12,0,12,0,,,,,,,,,,,,,,,,,,,,,,,,,,,,,,,,,,,,,,,,,,,,,,,,,,,,,,,,,,,511.49487869999996,None,513.497116,None,,,,,,,,,,,,,,,,,,,,,,,,,,,,,,,,,,,,,,,,,,,,,,,,,,,,,,,,,,,,,,,,,,,,,,,,,,102YC,001,2023_Sep_18_1550,ExactRep-v3-final,2021.2.3,59.92254411947802,
13,0,13,0,,,,,,,,,,,,,,,,,,,,,,,,,,,,,,,,,,,,,,,,,,,,,,,,,,,,,,,,,,,513.9976948999999,None,515.9993175999999,None,,,,,,,,,,,,,,,,,,,,,,,,,,,,,,,,,,,,,,,,,,,,,,,,,,,,,,,,,,,,,,,,,,,,,,,,,,102YC,001,2023_Sep_18_1550,ExactRep-v3-final,2021.2.3,59.92254411947802,
14,0,14,0,,,,,,,,,,,,,,,,,,,,,,,,,,,,,,,,,,,,,,,,,,,,,,,,,,,,,,,,,,,516.5007052999999,None,518.5021241,None,,,,,,,,,,,,,,,,,,,,,,,,,,,,,,,,,,,,,,,,,,,,,,,,,,,,,,,,,,,,,,,,,,,,,,,,,,102YC,001,2023_Sep_18_1550,ExactRep-v3-final,2021.2.3,59.92254411947802,
,,,,,,,,,,,,,,,,,,,,,,,,,,,,,,,,,,,,,,,,,,,,,,,,,,,,,,,,,,,,,,,,,,space,19.422120800000016,529.1007781999999,None,,,,,,,,,,,,,,,,,,,,,,,,,,,,,,,,,,,,,,,,,,,,,,,,,,,,,,,,,,,,,,,,,,,,,,102YC,001,2023_Sep_18_1550,ExactRep-v3-final,2021.2.3,59.92254411947802,
,,,,0,0,0,0,,,,,,,,,,,,,,,,,,,,,,,,,,,,,,,,,,,,,,,,,,,,,,,,,,,,,,,,,550.6340121,None,,,,,519.1603716999999,None,519.1603716999999,None,519.1603716999999,None,519.1603716999999,None,519.1603716999999,None,519.1603716999999,None,548.6326478,None,,,,,,,,,,,,,,,,,,,,,,,,,,,,,,,,,,,,,,,,,,,,,,,,,,,,,,,,102YC,001,2023_Sep_18_1550,ExactRep-v3-final,2021.2.3,59.92254411947802,
,,,,1,0,1,0,,,,,,,,,,,,,,,,,,,,,,,,,,,,,,,,,,,,,,,,,,,,,,,,,,,,,,,,,553.1366723,None,,,,,,,,,,,,,,,,,551.1347243,None,,,,,,,,,,,,,,,,,,,,,,,,,,,,,,,,,,,,,,,,,,,,,,,,,,,,,,,,102YC,001,2023_Sep_18_1550,ExactRep-v3-final,2021.2.3,59.92254411947802,
,,,,2,0,2,0,,,,,,,,,,,,,,,,,,,,,,,,,,,,,,,,,,,,,,,,,,,,,,,,,,,,,,,,,555.6390269999999,None,,,,,,,,,,,,,,,,,553.6370320999999,None,,,,,,,,,,,,,,,,,,,,,,,,,,,,,,,,,,,,,,,,,,,,,,,,,,,,,,,,102YC,001,2023_Sep_18_1550,ExactRep-v3-final,2021.2.3,59.92254411947802,
,,,,3,0,3,0,,,,,,,,,,,,,,,,,,,,,,,,,,,,,,,,,,,,,,,,,,,,,,,,,,,,,,,,,558.1416795,None,,,,,,,,,,,,,,,,,556.1396642999999,None,,,,,,,,,,,,,,,,,,,,,,,,,,,,,,,,,,,,,,,,,,,,,,,,,,,,,,,,102YC,001,2023_Sep_18_1550,ExactRep-v3-final,2021.2.3,59.92254411947802,
,,,,4,0,4,0,,,,,,,,,,,,,,,,,,,,,,,,,,,,,,,,,,,,,,,,,,,,,,,,,,,,,,,,,560.6441252999999,None,,,,,,,,,,,,,,,,,558.6422091,None,,,,,,,,,,,,,,,,,,,,,,,,,,,,,,,,,,,,,,,,,,,,,,,,,,,,,,,,102YC,001,2023_Sep_18_1550,ExactRep-v3-final,2021.2.3,59.92254411947802,
,,,,5,0,5,0,,,,,,,,,,,,,,,,,,,,,,,,,,,,,,,,,,,,,,,,,,,,,,,,,,,,,,,,,563.1464522,None,,,,,,,,,,,,,,,,,561.1447581,None,,,,,,,,,,,,,,,,,,,,,,,,,,,,,,,,,,,,,,,,,,,,,,,,,,,,,,,,102YC,001,2023_Sep_18_1550,ExactRep-v3-final,2021.2.3,59.92254411947802,
,,,,6,0,6,0,,,,,,,,,,,,,,,,,,,,,,,,,,,,,,,,,,,,,,,,,,,,,,,,,,,,,,,,,565.6492241999999,None,,,,,,,,,,,,,,,,,563.6472977999999,None,,,,,,,,,,,,,,,,,,,,,,,,,,,,,,,,,,,,,,,,,,,,,,,,,,,,,,,,102YC,001,2023_Sep_18_1550,ExactRep-v3-final,2021.2.3,59.92254411947802,
,,,,7,0,7,0,,,,,,,,,,,,,,,,,,,,,,,,,,,,,,,,,,,,,,,,,,,,,,,,,,,,,,,,,568.1516823999999,None,,,,,,,,,,,,,,,,,566.1497224999999,None,,,,,,,,,,,,,,,,,,,,,,,,,,,,,,,,,,,,,,,,,,,,,,,,,,,,,,,,102YC,001,2023_Sep_18_1550,ExactRep-v3-final,2021.2.3,59.92254411947802,
,,,,8,0,8,0,,,,,,,,,,,,,,,,,,,,,,,,,,,,,,,,,,,,,,,,,,,,,,,,,,,,,,,,,570.6541452,None,,,,,,,,,,,,,,,,,568.6521733,None,,,,,,,,,,,,,,,,,,,,,,,,,,,,,,,,,,,,,,,,,,,,,,,,,,,,,,,,102YC,001,2023_Sep_18_1550,ExactRep-v3-final,2021.2.3,59.92254411947802,
,,,,9,0,9,0,,,,,,,,,,,,,,,,,,,,,,,,,,,,,,,,,,,,,,,,,,,,,,,,,,,,,,,,,573.156628,None,,,,,,,,,,,,,,,,,571.1547449,None,,,,,,,,,,,,,,,,,,,,,,,,,,,,,,,,,,,,,,,,,,,,,,,,,,,,,,,,102YC,001,2023_Sep_18_1550,ExactRep-v3-final,2021.2.3,59.92254411947802,
,,,,10,0,10,0,,,,,,,,,,,,,,,,,,,,,,,,,,,,,,,,,,,,,,,,,,,,,,,,,,,,,,,,,575.6591659,None,,,,,,,,,,,,,,,,,573.6573288,None,,,,,,,,,,,,,,,,,,,,,,,,,,,,,,,,,,,,,,,,,,,,,,,,,,,,,,,,102YC,001,2023_Sep_18_1550,ExactRep-v3-final,2021.2.3,59.92254411947802,
,,,,11,0,11,0,,,,,,,,,,,,,,,,,,,,,,,,,,,,,,,,,,,,,,,,,,,,,,,,,,,,,,,,,578.1617716,None,,,,,,,,,,,,,,,,,576.1597413,None,,,,,,,,,,,,,,,,,,,,,,,,,,,,,,,,,,,,,,,,,,,,,,,,,,,,,,,,102YC,001,2023_Sep_18_1550,ExactRep-v3-final,2021.2.3,59.92254411947802,
,,,,12,0,12,0,,,,,,,,,,,,,,,,,,,,,,,,,,,,,,,,,,,,,,,,,,,,,,,,,,,,,,,,,580.6641963,None,,,,,,,,,,,,,,,,,578.6622659,None,,,,,,,,,,,,,,,,,,,,,,,,,,,,,,,,,,,,,,,,,,,,,,,,,,,,,,,,102YC,001,2023_Sep_18_1550,ExactRep-v3-final,2021.2.3,59.92254411947802,
,,,,13,0,13,0,,,,,,,,,,,,,,,,,,,,,,,,,,,,,,,,,,,,,,,,,,,,,,,,,,,,,,,,,583.1666799999999,None,,,,,,,,,,,,,,,,,581.1643475,None,,,,,,,,,,,,,,,,,,,,,,,,,,,,,,,,,,,,,,,,,,,,,,,,,,,,,,,,102YC,001,2023_Sep_18_1550,ExactRep-v3-final,2021.2.3,59.92254411947802,
,,,,14,0,14,0,,,,,,,,,,,,,,,,,,,,,,,,,,,,,,,,,,,,,,,,,,,,,,,,,,,,,,,,,585.669276,None,,,,,,,,,,,,,,,,,583.6672510999999,None,,,,,,,,,,,,,,,,,,,,,,,,,,,,,,,,,,,,,,,,,,,,,,,,,,,,,,,,102YC,001,2023_Sep_18_1550,ExactRep-v3-final,2021.2.3,59.92254411947802,
,,,,,,,,,,,,,,,,,,,,,,,,,,,,,,,,,,,,,,,,,,,,,,,,,,,,,,,,,,,,,,,,,,,,,,,,,,,,,,,,,,,,space,18.56335999999999,596.3195896999999,None,,,,,,,,,,,,,,,,,,,,,,,,,,,,,,,,,,,,,,,,,,,,,,,,,,,,102YC,001,2023_Sep_18_1550,ExactRep-v3-final,2021.2.3,59.92254411947802,
,,,,,,,,0,0,0,0,,,,,,,,,,,,,,,,,,,,,,,,,,,,,,,,,,,,,,,,,,,,,,,,,,,,,616.9672787,None,,,,,,,,,,,,,,,,,,,,,,,586.3212172,None,586.3212172,None,586.3212172,None,586.3212172,None,586.3212172,None,586.3212172,None,truth,52,1,silent,red,614.9657480999999,None,None,614.9657480999999,None,,,,,,,,,,,,,,,,,,,,,,,,,,,,,,102YC,001,2023_Sep_18_1550,ExactRep-v3-final,2021.2.3,59.92254411947802,
,,,,,,,,1,0,1,0,,,,,,,,,,,,,,,,,,,,,,,,,,,,,,,,,,,,,,,,,,,,,,,,,,,,,619.4863871,None,,,,,,,,,,,,,,,,,,,,,,,,,,,,,,,,,,,insect,75,2,silent,red,617.4758959999999,None,None,617.4758959999999,None,,,,,,,,,,,,,,,,,,,,,,,,,,,,,,102YC,001,2023_Sep_18_1550,ExactRep-v3-final,2021.2.3,59.92254411947802,
,,,,,,,,2,0,2,0,,,,,,,,,,,,,,,,,,,,,,,,,,,,,,,,,,,,,,,,,,,,,,,,,,,,,621.9887602,None,,,,,,,,,,,,,,,,,,,,,,,,,,,,,,,,,,,humour,78,3,silent,red,619.9893745999999,None,None,619.9893745999999,None,,,,,,,,,,,,,,,,,,,,,,,,,,,,,,102YC,001,2023_Sep_18_1550,ExactRep-v3-final,2021.2.3,59.92254411947802,
,,,,,,,,3,0,3,0,,,,,,,,,,,,,,,,,,,,,,,,,,,,,,,,,,,,,,,,,,,,,,,,,,,,,624.5079966999999,None,,,,,,,,,,,,,,,,,,,,,,,,,,,,,,,,,,,cottage,56,4,silent,red,622.4926597,None,None,622.4926597,None,,,,,,,,,,,,,,,,,,,,,,,,,,,,,,102YC,001,2023_Sep_18_1550,ExactRep-v3-final,2021.2.3,59.92254411947802,
,,,,,,,,4,0,4,0,,,,,,,,,,,,,,,,,,,,,,,,,,,,,,,,,,,,,,,,,,,,,,,,,,,,,627.0269571,None,,,,,,,,,,,,,,,,,,,,,,,,,,,,,,,,,,,meadow,61,5,silent,red,625.0153948999999,None,None,625.0153948999999,None,,,,,,,,,,,,,,,,,,,,,,,,,,,,,,102YC,001,2023_Sep_18_1550,ExactRep-v3-final,2021.2.3,59.92254411947802,
,,,,,,,,5,0,5,0,,,,,,,,,,,,,,,,,,,,,,,,,,,,,,,,,,,,,,,,,,,,,,,,,,,,,629.5309734,None,,,,,,,,,,,,,,,,,,,,,,,,,,,,,,,,,,,river,70,6,silent,red,627.5285316,None,None,627.5285316,None,,,,,,,,,,,,,,,,,,,,,,,,,,,,,,102YC,001,2023_Sep_18_1550,ExactRep-v3-final,2021.2.3,59.92254411947802,
,,,,,,,,6,0,6,0,,,,,,,,,,,,,,,,,,,,,,,,,,,,,,,,,,,,,,,,,,,,,,,,,,,,,632.0321300999999,None,,,,,,,,,,,,,,,,,,,,,,,,,,,,,,,,,,,journal,82,7,aloud,blue,630.0331291,None,None,630.0331291,None,,,,,,,,,,,,,,,,,,,,,,,,,,,,,,102YC,001,2023_Sep_18_1550,ExactRep-v3-final,2021.2.3,59.92254411947802,
,,,,,,,,7,0,7,0,,,,,,,,,,,,,,,,,,,,,,,,,,,,,,,,,,,,,,,,,,,,,,,,,,,,,634.5514161,None,,,,,,,,,,,,,,,,,,,,,,,,,,,,,,,,,,,hide,76,8,silent,red,632.5383716,None,None,632.5383716,None,,,,,,,,,,,,,,,,,,,,,,,,,,,,,,102YC,001,2023_Sep_18_1550,ExactRep-v3-final,2021.2.3,59.92254411947802,
,,,,,,,,8,0,8,0,,,,,,,,,,,,,,,,,,,,,,,,,,,,,,,,,,,,,,,,,,,,,,,,,,,,,637.0703269999999,None,,,,,,,,,,,,,,,,,,,,,,,,,,,,,,,,,,,cost,29,9,sing,white,635.056194,None,None,635.056194,None,,,,,,,,,,,,,,,,,,,,,,,,,,,,,,102YC,001,2023_Sep_18_1550,ExactRep-v3-final,2021.2.3,59.92254411947802,
,,,,,,,,9,0,9,0,,,,,,,,,,,,,,,,,,,,,,,,,,,,,,,,,,,,,,,,,,,,,,,,,,,,,639.5730696999999,None,,,,,,,,,,,,,,,,,,,,,,,,,,,,,,,,,,,lad,27,10,sing,white,637.5720104999999,None,None,637.5720104999999,None,,,,,,,,,,,,,,,,,,,,,,,,,,,,,,102YC,001,2023_Sep_18_1550,ExactRep-v3-final,2021.2.3,59.92254411947802,
,,,,,,,,10,0,10,0,,,,,,,,,,,,,,,,,,,,,,,,,,,,,,,,,,,,,,,,,,,,,,,,,,,,,642.0922731999999,None,,,,,,,,,,,,,,,,,,,,,,,,,,,,,,,,,,,paper,18,11,sing,white,640.0789097999999,None,None,640.0789097999999,None,,,,,,,,,,,,,,,,,,,,,,,,,,,,,,102YC,001,2023_Sep_18_1550,ExactRep-v3-final,2021.2.3,59.92254411947802,
,,,,,,,,11,0,11,0,,,,,,,,,,,,,,,,,,,,,,,,,,,,,,,,,,,,,,,,,,,,,,,,,,,,,644.5947242999999,None,,,,,,,,,,,,,,,,,,,,,,,,,,,,,,,,,,,board,84,12,aloud,blue,642.5926849,None,None,642.5926849,None,,,,,,,,,,,,,,,,,,,,,,,,,,,,,,102YC,001,2023_Sep_18_1550,ExactRep-v3-final,2021.2.3,59.92254411947802,
,,,,,,,,12,0,12,0,,,,,,,,,,,,,,,,,,,,,,,,,,,,,,,,,,,,,,,,,,,,,,,,,,,,,647.1138775999999,None,,,,,,,,,,,,,,,,,,,,,,,,,,,,,,,,,,,toy,1,13,sing,white,645.1038494,None,None,645.1038494,None,,,,,,,,,,,,,,,,,,,,,,,,,,,,,,102YC,001,2023_Sep_18_1550,ExactRep-v3-final,2021.2.3,59.92254411947802,
,,,,,,,,13,0,13,0,,,,,,,,,,,,,,,,,,,,,,,,,,,,,,,,,,,,,,,,,,,,,,,,,,,,,649.6177154,None,,,,,,,,,,,,,,,,,,,,,,,,,,,,,,,,,,,potato,20,14,sing,white,647.6143467999999,None,None,647.6143467999999,None,,,,,,,,,,,,,,,,,,,,,,,,,,,,,,102YC,001,2023_Sep_18_1550,ExactRep-v3-final,2021.2.3,59.92254411947802,
,,,,,,,,14,0,14,0,,,,,,,,,,,,,,,,,,,,,,,,,,,,,,,,,,,,,,,,,,,,,,,,,,,,,652.1188678999999,None,,,,,,,,,,,,,,,,,,,,,,,,,,,,,,,,,,,dawn,55,15,silent,red,650.1187269999999,None,None,650.1187269999999,None,,,,,,,,,,,,,,,,,,,,,,,,,,,,,,102YC,001,2023_Sep_18_1550,ExactRep-v3-final,2021.2.3,59.92254411947802,
,,,,,,,,15,0,15,0,,,,,,,,,,,,,,,,,,,,,,,,,,,,,,,,,,,,,,,,,,,,,,,,,,,,,654.6380178999999,None,,,,,,,,,,,,,,,,,,,,,,,,,,,,,,,,,,,present,10,16,sing,white,652.6230102,None,None,652.6230102,None,,,,,,,,,,,,,,,,,,,,,,,,,,,,,,102YC,001,2023_Sep_18_1550,ExactRep-v3-final,2021.2.3,59.92254411947802,
,,,,,,,,16,0,16,0,,,,,,,,,,,,,,,,,,,,,,,,,,,,,,,,,,,,,,,,,,,,,,,,,,,,,657.1572041999999,None,,,,,,,,,,,,,,,,,,,,,,,,,,,,,,,,,,,wine,15,17,sing,white,655.1453707999999,None,None,655.1453707999999,None,,,,,,,,,,,,,,,,,,,,,,,,,,,,,,102YC,001,2023_Sep_18_1550,ExactRep-v3-final,2021.2.3,59.92254411947802,
,,,,,,,,17,0,17,0,,,,,,,,,,,,,,,,,,,,,,,,,,,,,,,,,,,,,,,,,,,,,,,,,,,,,659.6597049,None,,,,,,,,,,,,,,,,,,,,,,,,,,,,,,,,,,,honour,85,18,aloud,blue,657.6577021999999,None,None,657.6577021999999,None,,,,,,,,,,,,,,,,,,,,,,,,,,,,,,102YC,001,2023_Sep_18_1550,ExactRep-v3-final,2021.2.3,59.92254411947802,
,,,,,,,,18,0,18,0,,,,,,,,,,,,,,,,,,,,,,,,,,,,,,,,,,,,,,,,,,,,,,,,,,,,,662.1622725,None,,,,,,,,,,,,,,,,,,,,,,,,,,,,,,,,,,,coin,21,19,sing,white,660.1619932,None,None,660.1619932,None,,,,,,,,,,,,,,,,,,,,,,,,,,,,,,102YC,001,2023_Sep_18_1550,ExactRep-v3-final,2021.2.3,59.92254411947802,
,,,,,,,,19,0,19,0,,,,,,,,,,,,,,,,,,,,,,,,,,,,,,,,,,,,,,,,,,,,,,,,,,,,,664.6647279,None,,,,,,,,,,,,,,,,,,,,,,,,,,,,,,,,,,,volume,63,20,silent,red,662.6624078,None,None,662.6624078,None,,,,,,,,,,,,,,,,,,,,,,,,,,,,,,102YC,001,2023_Sep_18_1550,ExactRep-v3-final,2021.2.3,59.92254411947802,
,,,,,,,,20,0,20,0,,,,,,,,,,,,,,,,,,,,,,,,,,,,,,,,,,,,,,,,,,,,,,,,,,,,,667.1673463999999,None,,,,,,,,,,,,,,,,,,,,,,,,,,,,,,,,,,,letter,86,21,aloud,blue,665.1668045,None,None,665.1668045,None,,,,,,,,,,,,,,,,,,,,,,,,,,,,,,102YC,001,2023_Sep_18_1550,ExactRep-v3-final,2021.2.3,59.92254411947802,
,,,,,,,,21,0,21,0,,,,,,,,,,,,,,,,,,,,,,,,,,,,,,,,,,,,,,,,,,,,,,,,,,,,,669.6863844999999,None,,,,,,,,,,,,,,,,,,,,,,,,,,,,,,,,,,,power,8,22,sing,white,667.6740021999999,None,None,667.6740021999999,None,,,,,,,,,,,,,,,,,,,,,,,,,,,,,,102YC,001,2023_Sep_18_1550,ExactRep-v3-final,2021.2.3,59.92254411947802,
,,,,,,,,22,0,22,0,,,,,,,,,,,,,,,,,,,,,,,,,,,,,,,,,,,,,,,,,,,,,,,,,,,,,672.2056265,None,,,,,,,,,,,,,,,,,,,,,,,,,,,,,,,,,,,disease,101,23,aloud,blue,670.1935497,None,None,670.1935497,None,,,,,,,,,,,,,,,,,,,,,,,,,,,,,,102YC,001,2023_Sep_18_1550,ExactRep-v3-final,2021.2.3,59.92254411947802,
,,,,,,,,23,0,23,0,,,,,,,,,,,,,,,,,,,,,,,,,,,,,,,,,,,,,,,,,,,,,,,,,,,,,674.7081035,None,,,,,,,,,,,,,,,,,,,,,,,,,,,,,,,,,,,seat,53,24,silent,red,672.7069316,None,None,672.7069316,None,,,,,,,,,,,,,,,,,,,,,,,,,,,,,,102YC,001,2023_Sep_18_1550,ExactRep-v3-final,2021.2.3,59.92254411947802,
,,,,,,,,24,0,24,0,,,,,,,,,,,,,,,,,,,,,,,,,,,,,,,,,,,,,,,,,,,,,,,,,,,,,677.2272340999999,None,,,,,,,,,,,,,,,,,,,,,,,,,,,,,,,,,,,rod,4,25,sing,white,675.2125864,None,None,675.2125864,None,,,,,,,,,,,,,,,,,,,,,,,,,,,,,,102YC,001,2023_Sep_18_1550,ExactRep-v3-final,2021.2.3,59.92254411947802,
,,,,,,,,25,0,25,0,,,,,,,,,,,,,,,,,,,,,,,,,,,,,,,,,,,,,,,,,,,,,,,,,,,,,679.7297695,None,,,,,,,,,,,,,,,,,,,,,,,,,,,,,,,,,,,flood,109,26,aloud,blue,677.730112,None,None,677.730112,None,,,,,,,,,,,,,,,,,,,,,,,,,,,,,,102YC,001,2023_Sep_18_1550,ExactRep-v3-final,2021.2.3,59.92254411947802,
,,,,,,,,26,0,26,0,,,,,,,,,,,,,,,,,,,,,,,,,,,,,,,,,,,,,,,,,,,,,,,,,,,,,682.2322975,None,,,,,,,,,,,,,,,,,,,,,,,,,,,,,,,,,,,deed,112,27,aloud,blue,680.2327213,None,None,680.2327213,None,,,,,,,,,,,,,,,,,,,,,,,,,,,,,,102YC,001,2023_Sep_18_1550,ExactRep-v3-final,2021.2.3,59.92254411947802,
,,,,,,,,27,0,27,0,,,,,,,,,,,,,,,,,,,,,,,,,,,,,,,,,,,,,,,,,,,,,,,,,,,,,684.7347659,None,,,,,,,,,,,,,,,,,,,,,,,,,,,,,,,,,,,garden,110,28,aloud,blue,682.7356897999999,None,None,682.7356897999999,None,,,,,,,,,,,,,,,,,,,,,,,,,,,,,,102YC,001,2023_Sep_18_1550,ExactRep-v3-final,2021.2.3,59.92254411947802,
,,,,,,,,28,0,28,0,,,,,,,,,,,,,,,,,,,,,,,,,,,,,,,,,,,,,,,,,,,,,,,,,,,,,687.2539187,None,,,,,,,,,,,,,,,,,,,,,,,,,,,,,,,,,,,hope,77,29,silent,red,685.2383064999999,None,None,685.2383064999999,None,,,,,,,,,,,,,,,,,,,,,,,,,,,,,,102YC,001,2023_Sep_18_1550,ExactRep-v3-final,2021.2.3,59.92254411947802,
,,,,,,,,29,0,29,0,,,,,,,,,,,,,,,,,,,,,,,,,,,,,,,,,,,,,,,,,,,,,,,,,,,,,689.7564467,None,,,,,,,,,,,,,,,,,,,,,,,,,,,,,,,,,,,ocean,45,30,silent,red,687.7544201999999,None,None,687.7544201999999,None,,,,,,,,,,,,,,,,,,,,,,,,,,,,,,102YC,001,2023_Sep_18_1550,ExactRep-v3-final,2021.2.3,59.92254411947802,
,,,,,,,,30,0,30,0,,,,,,,,,,,,,,,,,,,,,,,,,,,,,,,,,,,,,,,,,,,,,,,,,,,,,692.2755998,None,,,,,,,,,,,,,,,,,,,,,,,,,,,,,,,,,,,shoes,3,31,sing,white,690.2683048,None,None,690.2683048,None,,,,,,,,,,,,,,,,,,,,,,,,,,,,,,102YC,001,2023_Sep_18_1550,ExactRep-v3-final,2021.2.3,59.92254411947802,
,,,,,,,,31,0,31,0,,,,,,,,,,,,,,,,,,,,,,,,,,,,,,,,,,,,,,,,,,,,,,,,,,,,,694.7812153,None,,,,,,,,,,,,,,,,,,,,,,,,,,,,,,,,,,,dust,108,32,aloud,blue,692.7791218,None,None,692.7791218,None,,,,,,,,,,,,,,,,,,,,,,,,,,,,,,102YC,001,2023_Sep_18_1550,ExactRep-v3-final,2021.2.3,59.92254411947802,
,,,,,,,,32,0,32,0,,,,,,,,,,,,,,,,,,,,,,,,,,,,,,,,,,,,,,,,,,,,,,,,,,,,,697.2973449,None,,,,,,,,,,,,,,,,,,,,,,,,,,,,,,,,,,,hall,5,33,sing,white,695.2952829,None,None,695.2952829,None,,,,,,,,,,,,,,,,,,,,,,,,,,,,,,102YC,001,2023_Sep_18_1550,ExactRep-v3-final,2021.2.3,59.92254411947802,
,,,,,,,,33,0,33,0,,,,,,,,,,,,,,,,,,,,,,,,,,,,,,,,,,,,,,,,,,,,,,,,,,,,,699.8164754,None,,,,,,,,,,,,,,,,,,,,,,,,,,,,,,,,,,,flesh,50,34,silent,red,697.8016874,None,None,697.8016874,None,,,,,,,,,,,,,,,,,,,,,,,,,,,,,,102YC,001,2023_Sep_18_1550,ExactRep-v3-final,2021.2.3,59.92254411947802,
,,,,,,,,34,0,34,0,,,,,,,,,,,,,,,,,,,,,,,,,,,,,,,,,,,,,,,,,,,,,,,,,,,,,702.3357264,None,,,,,,,,,,,,,,,,,,,,,,,,,,,,,,,,,,,troops,32,35,sing,white,700.3232077,None,None,700.3232077,None,,,,,,,,,,,,,,,,,,,,,,,,,,,,,,102YC,001,2023_Sep_18_1550,ExactRep-v3-final,2021.2.3,59.92254411947802,
,,,,,,,,35,0,35,0,,,,,,,,,,,,,,,,,,,,,,,,,,,,,,,,,,,,,,,,,,,,,,,,,,,,,704.8381488,None,,,,,,,,,,,,,,,,,,,,,,,,,,,,,,,,,,,death,92,36,aloud,blue,702.8382181,None,None,702.8382181,None,,,,,,,,,,,,,,,,,,,,,,,,,,,,,,102YC,001,2023_Sep_18_1550,ExactRep-v3-final,2021.2.3,59.92254411947802,
,,,,,,,,36,0,36,0,,,,,,,,,,,,,,,,,,,,,,,,,,,,,,,,,,,,,,,,,,,,,,,,,,,,,707.3574135,None,,,,,,,,,,,,,,,,,,,,,,,,,,,,,,,,,,,leader,49,37,silent,red,705.3475082,None,None,705.3475082,None,,,,,,,,,,,,,,,,,,,,,,,,,,,,,,102YC,001,2023_Sep_18_1550,ExactRep-v3-final,2021.2.3,59.92254411947802,
,,,,,,,,37,0,37,0,,,,,,,,,,,,,,,,,,,,,,,,,,,,,,,,,,,,,,,,,,,,,,,,,,,,,709.8598993999999,None,,,,,,,,,,,,,,,,,,,,,,,,,,,,,,,,,,,science,91,38,aloud,blue,707.8578643,None,None,707.8578643,None,,,,,,,,,,,,,,,,,,,,,,,,,,,,,,102YC,001,2023_Sep_18_1550,ExactRep-v3-final,2021.2.3,59.92254411947802,
,,,,,,,,38,0,38,0,,,,,,,,,,,,,,,,,,,,,,,,,,,,,,,,,,,,,,,,,,,,,,,,,,,,,712.3624282999999,None,,,,,,,,,,,,,,,,,,,,,,,,,,,,,,,,,,,air,35,39,sing,white,710.3632495999999,None,None,710.3632495999999,None,,,,,,,,,,,,,,,,,,,,,,,,,,,,,,102YC,001,2023_Sep_18_1550,ExactRep-v3-final,2021.2.3,59.92254411947802,
,,,,,,,,39,0,39,0,,,,,,,,,,,,,,,,,,,,,,,,,,,,,,,,,,,,,,,,,,,,,,,,,,,,,714.8656255,None,,,,,,,,,,,,,,,,,,,,,,,,,,,,,,,,,,,bar,59,40,silent,red,712.8658062999999,None,None,712.8658062999999,None,,,,,,,,,,,,,,,,,,,,,,,,,,,,,,102YC,001,2023_Sep_18_1550,ExactRep-v3-final,2021.2.3,59.92254411947802,
,,,,,,,,40,0,40,0,,,,,,,,,,,,,,,,,,,,,,,,,,,,,,,,,,,,,,,,,,,,,,,,,,,,,717.3673248,None,,,,,,,,,,,,,,,,,,,,,,,,,,,,,,,,,,,virtue,65,41,silent,red,715.3675019,None,None,715.3675019,None,,,,,,,,,,,,,,,,,,,,,,,,,,,,,,102YC,001,2023_Sep_18_1550,ExactRep-v3-final,2021.2.3,59.92254411947802,
,,,,,,,,41,0,41,0,,,,,,,,,,,,,,,,,,,,,,,,,,,,,,,,,,,,,,,,,,,,,,,,,,,,,719.8865304999999,None,,,,,,,,,,,,,,,,,,,,,,,,,,,,,,,,,,,month,97,42,aloud,blue,717.8737775999999,None,None,717.8737775999999,None,,,,,,,,,,,,,,,,,,,,,,,,,,,,,,102YC,001,2023_Sep_18_1550,ExactRep-v3-final,2021.2.3,59.92254411947802,
,,,,,,,,42,0,42,0,,,,,,,,,,,,,,,,,,,,,,,,,,,,,,,,,,,,,,,,,,,,,,,,,,,,,722.4057137,None,,,,,,,,,,,,,,,,,,,,,,,,,,,,,,,,,,,justice,105,43,aloud,blue,720.3917335,None,None,720.3917335,None,,,,,,,,,,,,,,,,,,,,,,,,,,,,,,102YC,001,2023_Sep_18_1550,ExactRep-v3-final,2021.2.3,59.92254411947802,
,,,,,,,,43,0,43,0,,,,,,,,,,,,,,,,,,,,,,,,,,,,,,,,,,,,,,,,,,,,,,,,,,,,,724.9248620999999,None,,,,,,,,,,,,,,,,,,,,,,,,,,,,,,,,,,,coast,115,44,aloud,blue,722.9136126999999,None,None,722.9136126999999,None,,,,,,,,,,,,,,,,,,,,,,,,,,,,,,102YC,001,2023_Sep_18_1550,ExactRep-v3-final,2021.2.3,59.92254411947802,
,,,,,,,,44,0,44,0,,,,,,,,,,,,,,,,,,,,,,,,,,,,,,,,,,,,,,,,,,,,,,,,,,,,,727.4273496,None,,,,,,,,,,,,,,,,,,,,,,,,,,,,,,,,,,,car,22,45,sing,white,725.4253981999999,None,None,725.4253981999999,None,,,,,,,,,,,,,,,,,,,,,,,,,,,,,,102YC,001,2023_Sep_18_1550,ExactRep-v3-final,2021.2.3,59.92254411947802,
,,,,,,,,45,0,45,0,,,,,,,,,,,,,,,,,,,,,,,,,,,,,,,,,,,,,,,,,,,,,,,,,,,,,729.9466878999999,None,,,,,,,,,,,,,,,,,,,,,,,,,,,,,,,,,,,salary,33,46,sing,white,727.9318012,None,None,727.9318012,None,,,,,,,,,,,,,,,,,,,,,,,,,,,,,,102YC,001,2023_Sep_18_1550,ExactRep-v3-final,2021.2.3,59.92254411947802,
,,,,,,,,46,0,46,0,,,,,,,,,,,,,,,,,,,,,,,,,,,,,,,,,,,,,,,,,,,,,,,,,,,,,732.4491197,None,,,,,,,,,,,,,,,,,,,,,,,,,,,,,,,,,,,shock,80,47,aloud,blue,730.4492793999999,None,None,730.4492793999999,None,,,,,,,,,,,,,,,,,,,,,,,,,,,,,,102YC,001,2023_Sep_18_1550,ExactRep-v3-final,2021.2.3,59.92254411947802,
,,,,,,,,47,0,47,0,,,,,,,,,,,,,,,,,,,,,,,,,,,,,,,,,,,,,,,,,,,,,,,,,,,,,734.9683259999999,None,,,,,,,,,,,,,,,,,,,,,,,,,,,,,,,,,,,window,116,48,aloud,blue,732.9554744,None,None,732.9554744,None,,,,,,,,,,,,,,,,,,,,,,,,,,,,,,102YC,001,2023_Sep_18_1550,ExactRep-v3-final,2021.2.3,59.92254411947802,
,,,,,,,,48,0,48,0,,,,,,,,,,,,,,,,,,,,,,,,,,,,,,,,,,,,,,,,,,,,,,,,,,,,,737.4708221999999,None,,,,,,,,,,,,,,,,,,,,,,,,,,,,,,,,,,,street,118,49,aloud,blue,735.4697199999999,None,None,735.4697199999999,None,,,,,,,,,,,,,,,,,,,,,,,,,,,,,,102YC,001,2023_Sep_18_1550,ExactRep-v3-final,2021.2.3,59.92254411947802,
,,,,,,,,49,0,49,0,,,,,,,,,,,,,,,,,,,,,,,,,,,,,,,,,,,,,,,,,,,,,,,,,,,,,739.973308,None,,,,,,,,,,,,,,,,,,,,,,,,,,,,,,,,,,,stone,38,50,sing,white,737.9743184,None,None,737.9743184,None,,,,,,,,,,,,,,,,,,,,,,,,,,,,,,102YC,001,2023_Sep_18_1550,ExactRep-v3-final,2021.2.3,59.92254411947802,
,,,,,,,,50,0,50,0,,,,,,,,,,,,,,,,,,,,,,,,,,,,,,,,,,,,,,,,,,,,,,,,,,,,,742.4924279999999,None,,,,,,,,,,,,,,,,,,,,,,,,,,,,,,,,,,,engine,44,51,silent,red,740.4768402,None,None,740.4768402,None,,,,,,,,,,,,,,,,,,,,,,,,,,,,,,102YC,001,2023_Sep_18_1550,ExactRep-v3-final,2021.2.3,59.92254411947802,
,,,,,,,,51,0,51,0,,,,,,,,,,,,,,,,,,,,,,,,,,,,,,,,,,,,,,,,,,,,,,,,,,,,,744.9949954,None,,,,,,,,,,,,,,,,,,,,,,,,,,,,,,,,,,,grass,73,52,silent,red,742.992986,None,None,742.992986,None,,,,,,,,,,,,,,,,,,,,,,,,,,,,,,102YC,001,2023_Sep_18_1550,ExactRep-v3-final,2021.2.3,59.92254411947802,
,,,,,,,,52,0,52,0,,,,,,,,,,,,,,,,,,,,,,,,,,,,,,,,,,,,,,,,,,,,,,,,,,,,,747.4975218,None,,,,,,,,,,,,,,,,,,,,,,,,,,,,,,,,,,,friend,69,53,silent,red,745.4983649999999,None,None,745.4983649999999,None,,,,,,,,,,,,,,,,,,,,,,,,,,,,,,102YC,001,2023_Sep_18_1550,ExactRep-v3-final,2021.2.3,59.92254411947802,
,,,,,,,,53,0,53,0,,,,,,,,,,,,,,,,,,,,,,,,,,,,,,,,,,,,,,,,,,,,,,,,,,,,,750.0166737,None,,,,,,,,,,,,,,,,,,,,,,,,,,,,,,,,,,,blood,94,54,aloud,blue,748.0028977,None,None,748.0028977,None,,,,,,,,,,,,,,,,,,,,,,,,,,,,,,102YC,001,2023_Sep_18_1550,ExactRep-v3-final,2021.2.3,59.92254411947802,
,,,,,,,,54,0,54,0,,,,,,,,,,,,,,,,,,,,,,,,,,,,,,,,,,,,,,,,,,,,,,,,,,,,,752.5191911999999,None,,,,,,,,,,,,,,,,,,,,,,,,,,,,,,,,,,,prayer,74,55,silent,red,750.5172881,None,None,750.5172881,None,,,,,,,,,,,,,,,,,,,,,,,,,,,,,,102YC,001,2023_Sep_18_1550,ExactRep-v3-final,2021.2.3,59.92254411947802,
,,,,,,,,55,0,55,0,,,,,,,,,,,,,,,,,,,,,,,,,,,,,,,,,,,,,,,,,,,,,,,,,,,,,755.0216747,None,,,,,,,,,,,,,,,,,,,,,,,,,,,,,,,,,,,ability,2,56,sing,white,753.0215443999999,None,None,753.0215443999999,None,,,,,,,,,,,,,,,,,,,,,,,,,,,,,,102YC,001,2023_Sep_18_1550,ExactRep-v3-final,2021.2.3,59.92254411947802,
,,,,,,,,56,0,56,0,,,,,,,,,,,,,,,,,,,,,,,,,,,,,,,,,,,,,,,,,,,,,,,,,,,,,757.5241206999999,None,,,,,,,,,,,,,,,,,,,,,,,,,,,,,,,,,,,nail,99,57,aloud,blue,755.5241642,None,None,755.5241642,None,,,,,,,,,,,,,,,,,,,,,,,,,,,,,,102YC,001,2023_Sep_18_1550,ExactRep-v3-final,2021.2.3,59.92254411947802,
,,,,,,,,57,0,57,0,,,,,,,,,,,,,,,,,,,,,,,,,,,,,,,,,,,,,,,,,,,,,,,,,,,,,760.0266143,None,,,,,,,,,,,,,,,,,,,,,,,,,,,,,,,,,,,college,113,58,aloud,blue,758.0261974,None,None,758.0261974,None,,,,,,,,,,,,,,,,,,,,,,,,,,,,,,102YC,001,2023_Sep_18_1550,ExactRep-v3-final,2021.2.3,59.92254411947802,
,,,,,,,,58,0,58,0,,,,,,,,,,,,,,,,,,,,,,,,,,,,,,,,,,,,,,,,,,,,,,,,,,,,,762.5457862999999,None,,,,,,,,,,,,,,,,,,,,,,,,,,,,,,,,,,,quality,25,59,sing,white,760.5304719999999,None,None,760.5304719999999,None,,,,,,,,,,,,,,,,,,,,,,,,,,,,,,102YC,001,2023_Sep_18_1550,ExactRep-v3-final,2021.2.3,59.92254411947802,
,,,,,,,,59,0,59,0,,,,,,,,,,,,,,,,,,,,,,,,,,,,,,,,,,,,,,,,,,,,,,,,,,,,,765.0483529999999,None,,,,,,,,,,,,,,,,,,,,,,,,,,,,,,,,,,,flower,93,60,aloud,blue,763.046077,None,None,763.046077,None,,,,,,,,,,,,,,,,,,,,,,,,,,,,,,102YC,001,2023_Sep_18_1550,ExactRep-v3-final,2021.2.3,59.92254411947802,
,,,,,,,,60,0,60,0,,,,,,,,,,,,,,,,,,,,,,,,,,,,,,,,,,,,,,,,,,,,,,,,,,,,,767.5506762,None,,,,,,,,,,,,,,,,,,,,,,,,,,,,,,,,,,,storm,83,61,aloud,blue,765.5485421999999,None,None,765.5485421999999,None,,,,,,,,,,,,,,,,,,,,,,,,,,,,,,102YC,001,2023_Sep_18_1550,ExactRep-v3-final,2021.2.3,59.92254411947802,
,,,,,,,,61,0,61,0,,,,,,,,,,,,,,,,,,,,,,,,,,,,,,,,,,,,,,,,,,,,,,,,,,,,,770.0530152,None,,,,,,,,,,,,,,,,,,,,,,,,,,,,,,,,,,,string,47,62,silent,red,768.0511111,None,None,768.0511111,None,,,,,,,,,,,,,,,,,,,,,,,,,,,,,,102YC,001,2023_Sep_18_1550,ExactRep-v3-final,2021.2.3,59.92254411947802,
,,,,,,,,62,0,62,0,,,,,,,,,,,,,,,,,,,,,,,,,,,,,,,,,,,,,,,,,,,,,,,,,,,,,772.5555547,None,,,,,,,,,,,,,,,,,,,,,,,,,,,,,,,,,,,colony,95,63,aloud,blue,770.5535768999999,None,None,770.5535768999999,None,,,,,,,,,,,,,,,,,,,,,,,,,,,,,,102YC,001,2023_Sep_18_1550,ExactRep-v3-final,2021.2.3,59.92254411947802,
,,,,,,,,63,0,63,0,,,,,,,,,,,,,,,,,,,,,,,,,,,,,,,,,,,,,,,,,,,,,,,,,,,,,775.0580272,None,,,,,,,,,,,,,,,,,,,,,,,,,,,,,,,,,,,plain,111,64,aloud,blue,773.0560178,None,None,773.0560178,None,,,,,,,,,,,,,,,,,,,,,,,,,,,,,,102YC,001,2023_Sep_18_1550,ExactRep-v3-final,2021.2.3,59.92254411947802,
,,,,,,,,64,0,64,0,,,,,,,,,,,,,,,,,,,,,,,,,,,,,,,,,,,,,,,,,,,,,,,,,,,,,777.5605876999999,None,,,,,,,,,,,,,,,,,,,,,,,,,,,,,,,,,,,grief,72,65,silent,red,775.5586121,None,None,775.5586121,None,,,,,,,,,,,,,,,,,,,,,,,,,,,,,,102YC,001,2023_Sep_18_1550,ExactRep-v3-final,2021.2.3,59.92254411947802,
,,,,,,,,65,0,65,0,,,,,,,,,,,,,,,,,,,,,,,,,,,,,,,,,,,,,,,,,,,,,,,,,,,,,780.0631652,None,,,,,,,,,,,,,,,,,,,,,,,,,,,,,,,,,,,army,100,66,aloud,blue,778.0610337999999,None,None,778.0610337999999,None,,,,,,,,,,,,,,,,,,,,,,,,,,,,,,102YC,001,2023_Sep_18_1550,ExactRep-v3-final,2021.2.3,59.92254411947802,
,,,,,,,,66,0,66,0,,,,,,,,,,,,,,,,,,,,,,,,,,,,,,,,,,,,,,,,,,,,,,,,,,,,,782.5655653,None,,,,,,,,,,,,,,,,,,,,,,,,,,,,,,,,,,,origin,81,67,aloud,blue,780.5635611,None,None,780.5635611,None,,,,,,,,,,,,,,,,,,,,,,,,,,,,,,102YC,001,2023_Sep_18_1550,ExactRep-v3-final,2021.2.3,59.92254411947802,
,,,,,,,,67,0,67,0,,,,,,,,,,,,,,,,,,,,,,,,,,,,,,,,,,,,,,,,,,,,,,,,,,,,,785.0679891,None,,,,,,,,,,,,,,,,,,,,,,,,,,,,,,,,,,,earth,36,68,sing,white,783.0660465,None,None,783.0660465,None,,,,,,,,,,,,,,,,,,,,,,,,,,,,,,102YC,001,2023_Sep_18_1550,ExactRep-v3-final,2021.2.3,59.92254411947802,
,,,,,,,,68,0,68,0,,,,,,,,,,,,,,,,,,,,,,,,,,,,,,,,,,,,,,,,,,,,,,,,,,,,,787.5705611,None,,,,,,,,,,,,,,,,,,,,,,,,,,,,,,,,,,,event,114,69,aloud,blue,785.5686333,None,None,785.5686333,None,,,,,,,,,,,,,,,,,,,,,,,,,,,,,,102YC,001,2023_Sep_18_1550,ExactRep-v3-final,2021.2.3,59.92254411947802,
,,,,,,,,69,0,69,0,,,,,,,,,,,,,,,,,,,,,,,,,,,,,,,,,,,,,,,,,,,,,,,,,,,,,790.0729582,None,,,,,,,,,,,,,,,,,,,,,,,,,,,,,,,,,,,shadow,60,70,silent,red,788.0712578,None,None,788.0712578,None,,,,,,,,,,,,,,,,,,,,,,,,,,,,,,102YC,001,2023_Sep_18_1550,ExactRep-v3-final,2021.2.3,59.92254411947802,
,,,,,,,,70,0,70,0,,,,,,,,,,,,,,,,,,,,,,,,,,,,,,,,,,,,,,,,,,,,,,,,,,,,,792.5756183999999,None,,,,,,,,,,,,,,,,,,,,,,,,,,,,,,,,,,,clock,68,71,silent,red,790.5734564999999,None,None,790.5734564999999,None,,,,,,,,,,,,,,,,,,,,,,,,,,,,,,102YC,001,2023_Sep_18_1550,ExactRep-v3-final,2021.2.3,59.92254411947802,
,,,,,,,,71,0,71,0,,,,,,,,,,,,,,,,,,,,,,,,,,,,,,,,,,,,,,,,,,,,,,,,,,,,,795.0783005999999,None,,,,,,,,,,,,,,,,,,,,,,,,,,,,,,,,,,,effort,13,72,sing,white,793.0781854999999,None,None,793.0781854999999,None,,,,,,,,,,,,,,,,,,,,,,,,,,,,,,102YC,001,2023_Sep_18_1550,ExactRep-v3-final,2021.2.3,59.92254411947802,
,,,,,,,,72,0,72,0,,,,,,,,,,,,,,,,,,,,,,,,,,,,,,,,,,,,,,,,,,,,,,,,,,,,,797.5808177,None,,,,,,,,,,,,,,,,,,,,,,,,,,,,,,,,,,,pupil,106,73,aloud,blue,795.5805117,None,None,795.5805117,None,,,,,,,,,,,,,,,,,,,,,,,,,,,,,,102YC,001,2023_Sep_18_1550,ExactRep-v3-final,2021.2.3,59.92254411947802,
,,,,,,,,73,0,73,0,,,,,,,,,,,,,,,,,,,,,,,,,,,,,,,,,,,,,,,,,,,,,,,,,,,,,800.0832803,None,,,,,,,,,,,,,,,,,,,,,,,,,,,,,,,,,,,teacher,57,74,silent,red,798.0840453,None,None,798.0840453,None,,,,,,,,,,,,,,,,,,,,,,,,,,,,,,102YC,001,2023_Sep_18_1550,ExactRep-v3-final,2021.2.3,59.92254411947802,
,,,,,,,,74,0,74,0,,,,,,,,,,,,,,,,,,,,,,,,,,,,,,,,,,,,,,,,,,,,,,,,,,,,,802.6025003999999,None,,,,,,,,,,,,,,,,,,,,,,,,,,,,,,,,,,,beast,16,75,sing,white,800.5911212,None,None,800.5911212,None,,,,,,,,,,,,,,,,,,,,,,,,,,,,,,102YC,001,2023_Sep_18_1550,ExactRep-v3-final,2021.2.3,59.92254411947802,
,,,,,,,,75,0,75,0,,,,,,,,,,,,,,,,,,,,,,,,,,,,,,,,,,,,,,,,,,,,,,,,,,,,,805.1215827999999,None,,,,,,,,,,,,,,,,,,,,,,,,,,,,,,,,,,,flag,62,76,silent,red,803.1120803,None,None,803.1120803,None,,,,,,,,,,,,,,,,,,,,,,,,,,,,,,102YC,001,2023_Sep_18_1550,ExactRep-v3-final,2021.2.3,59.92254411947802,
,,,,,,,,76,0,76,0,,,,,,,,,,,,,,,,,,,,,,,,,,,,,,,,,,,,,,,,,,,,,,,,,,,,,807.6408047,None,,,,,,,,,,,,,,,,,,,,,,,,,,,,,,,,,,,party,11,77,sing,white,805.6316108,None,None,805.6316108,None,,,,,,,,,,,,,,,,,,,,,,,,,,,,,,102YC,001,2023_Sep_18_1550,ExactRep-v3-final,2021.2.3,59.92254411947802,
,,,,,,,,77,0,77,0,,,,,,,,,,,,,,,,,,,,,,,,,,,,,,,,,,,,,,,,,,,,,,,,,,,,,810.1600142,None,,,,,,,,,,,,,,,,,,,,,,,,,,,,,,,,,,,moment,48,78,silent,red,808.1511452999999,None,None,808.1511452999999,None,,,,,,,,,,,,,,,,,,,,,,,,,,,,,,102YC,001,2023_Sep_18_1550,ExactRep-v3-final,2021.2.3,59.92254411947802,
,,,,,,,,78,0,78,0,,,,,,,,,,,,,,,,,,,,,,,,,,,,,,,,,,,,,,,,,,,,,,,,,,,,,812.6789784,None,,,,,,,,,,,,,,,,,,,,,,,,,,,,,,,,,,,vessel,6,79,sing,white,810.6636113,None,None,810.6636113,None,,,,,,,,,,,,,,,,,,,,,,,,,,,,,,102YC,001,2023_Sep_18_1550,ExactRep-v3-final,2021.2.3,59.92254411947802,
,,,,,,,,79,0,79,0,,,,,,,,,,,,,,,,,,,,,,,,,,,,,,,,,,,,,,,,,,,,,,,,,,,,,815.1815723,None,,,,,,,,,,,,,,,,,,,,,,,,,,,,,,,,,,,idea,119,80,aloud,blue,813.1795108,None,None,813.1795108,None,,,,,,,,,,,,,,,,,,,,,,,,,,,,,,102YC,001,2023_Sep_18_1550,ExactRep-v3-final,2021.2.3,59.92254411947802,
,,,,,,,,80,0,80,0,,,,,,,,,,,,,,,,,,,,,,,,,,,,,,,,,,,,,,,,,,,,,,,,,,,,,817.6842674,None,,,,,,,,,,,,,,,,,,,,,,,,,,,,,,,,,,,length,51,81,silent,red,815.6820915999999,None,None,815.6820915999999,None,,,,,,,,,,,,,,,,,,,,,,,,,,,,,,102YC,001,2023_Sep_18_1550,ExactRep-v3-final,2021.2.3,59.92254411947802,
,,,,,,,,81,0,81,0,,,,,,,,,,,,,,,,,,,,,,,,,,,,,,,,,,,,,,,,,,,,,,,,,,,,,820.1866582,None,,,,,,,,,,,,,,,,,,,,,,,,,,,,,,,,,,,hotel,9,82,sing,white,818.1876022,None,None,818.1876022,None,,,,,,,,,,,,,,,,,,,,,,,,,,,,,,102YC,001,2023_Sep_18_1550,ExactRep-v3-final,2021.2.3,59.92254411947802,
,,,,,,,,82,0,82,0,,,,,,,,,,,,,,,,,,,,,,,,,,,,,,,,,,,,,,,,,,,,,,,,,,,,,822.6892007,None,,,,,,,,,,,,,,,,,,,,,,,,,,,,,,,,,,,fate,96,83,aloud,blue,820.6872711999999,None,None,820.6872711999999,None,,,,,,,,,,,,,,,,,,,,,,,,,,,,,,102YC,001,2023_Sep_18_1550,ExactRep-v3-final,2021.2.3,59.92254411947802,
,,,,,,,,83,0,83,0,,,,,,,,,,,,,,,,,,,,,,,,,,,,,,,,,,,,,,,,,,,,,,,,,,,,,825.1916871999999,None,,,,,,,,,,,,,,,,,,,,,,,,,,,,,,,,,,,iron,0,84,sing,white,823.1926430999999,None,None,823.1926430999999,None,,,,,,,,,,,,,,,,,,,,,,,,,,,,,,102YC,001,2023_Sep_18_1550,ExactRep-v3-final,2021.2.3,59.92254411947802,
,,,,,,,,84,0,84,0,,,,,,,,,,,,,,,,,,,,,,,,,,,,,,,,,,,,,,,,,,,,,,,,,,,,,827.6941972,None,,,,,,,,,,,,,,,,,,,,,,,,,,,,,,,,,,,fact,64,85,silent,red,825.6947657999999,None,None,825.6947657999999,None,,,,,,,,,,,,,,,,,,,,,,,,,,,,,,102YC,001,2023_Sep_18_1550,ExactRep-v3-final,2021.2.3,59.92254411947802,
,,,,,,,,85,0,85,0,,,,,,,,,,,,,,,,,,,,,,,,,,,,,,,,,,,,,,,,,,,,,,,,,,,,,830.1966728,None,,,,,,,,,,,,,,,,,,,,,,,,,,,,,,,,,,,green,19,86,sing,white,828.1963145,None,None,828.1963145,None,,,,,,,,,,,,,,,,,,,,,,,,,,,,,,102YC,001,2023_Sep_18_1550,ExactRep-v3-final,2021.2.3,59.92254411947802,
,,,,,,,,86,0,86,0,,,,,,,,,,,,,,,,,,,,,,,,,,,,,,,,,,,,,,,,,,,,,,,,,,,,,832.7021376,None,,,,,,,,,,,,,,,,,,,,,,,,,,,,,,,,,,,maiden,7,87,sing,white,830.6986713,None,None,830.6986713,None,,,,,,,,,,,,,,,,,,,,,,,,,,,,,,102YC,001,2023_Sep_18_1550,ExactRep-v3-final,2021.2.3,59.92254411947802,
,,,,,,,,87,0,87,0,,,,,,,,,,,,,,,,,,,,,,,,,,,,,,,,,,,,,,,,,,,,,,,,,,,,,835.2184245,None,,,,,,,,,,,,,,,,,,,,,,,,,,,,,,,,,,,owner,37,88,sing,white,833.2174279,None,None,833.2174279,None,,,,,,,,,,,,,,,,,,,,,,,,,,,,,,102YC,001,2023_Sep_18_1550,ExactRep-v3-final,2021.2.3,59.92254411947802,
,,,,,,,,88,0,88,0,,,,,,,,,,,,,,,,,,,,,,,,,,,,,,,,,,,,,,,,,,,,,,,,,,,,,837.7209389,None,,,,,,,,,,,,,,,,,,,,,,,,,,,,,,,,,,,market,12,89,sing,white,835.7217949,None,None,835.7217949,None,,,,,,,,,,,,,,,,,,,,,,,,,,,,,,102YC,001,2023_Sep_18_1550,ExactRep-v3-final,2021.2.3,59.92254411947802,
,,,,,,,,89,0,89,0,,,,,,,,,,,,,,,,,,,,,,,,,,,,,,,,,,,,,,,,,,,,,,,,,,,,,840.2401341,None,,,,,,,,,,,,,,,,,,,,,,,,,,,,,,,,,,,wife,24,90,sing,white,838.2264758,None,None,838.2264758,None,,,,,,,,,,,,,,,,,,,,,,,,,,,,,,102YC,001,2023_Sep_18_1550,ExactRep-v3-final,2021.2.3,59.92254411947802,
,,,,,,,,90,0,90,0,,,,,,,,,,,,,,,,,,,,,,,,,,,,,,,,,,,,,,,,,,,,,,,,,,,,,842.759275,None,,,,,,,,,,,,,,,,,,,,,,,,,,,,,,,,,,,square,107,91,aloud,blue,840.7441411,None,None,840.7441411,None,,,,,,,,,,,,,,,,,,,,,,,,,,,,,,102YC,001,2023_Sep_18_1550,ExactRep-v3-final,2021.2.3,59.92254411947802,
,,,,,,,,91,0,91,0,,,,,,,,,,,,,,,,,,,,,,,,,,,,,,,,,,,,,,,,,,,,,,,,,,,,,845.2784418,None,,,,,,,,,,,,,,,,,,,,,,,,,,,,,,,,,,,woods,79,92,sing,white,843.268301,None,None,843.268301,None,,,,,,,,,,,,,,,,,,,,,,,,,,,,,,102YC,001,2023_Sep_18_1550,ExactRep-v3-final,2021.2.3,59.92254411947802,
,,,,,,,,92,0,92,0,,,,,,,,,,,,,,,,,,,,,,,,,,,,,,,,,,,,,,,,,,,,,,,,,,,,,847.7810587,None,,,,,,,,,,,,,,,,,,,,,,,,,,,,,,,,,,,opinion,31,93,sing,white,845.7789907,None,None,845.7789907,None,,,,,,,,,,,,,,,,,,,,,,,,,,,,,,102YC,001,2023_Sep_18_1550,ExactRep-v3-final,2021.2.3,59.92254411947802,
,,,,,,,,93,0,93,0,,,,,,,,,,,,,,,,,,,,,,,,,,,,,,,,,,,,,,,,,,,,,,,,,,,,,850.3001736,None,,,,,,,,,,,,,,,,,,,,,,,,,,,,,,,,,,,wheat,58,94,silent,red,848.2933204999999,None,None,848.2933204999999,None,,,,,,,,,,,,,,,,,,,,,,,,,,,,,,102YC,001,2023_Sep_18_1550,ExactRep-v3-final,2021.2.3,59.92254411947802,
,,,,,,,,94,0,94,0,,,,,,,,,,,,,,,,,,,,,,,,,,,,,,,,,,,,,,,,,,,,,,,,,,,,,852.8026059,None,,,,,,,,,,,,,,,,,,,,,,,,,,,,,,,,,,,freedom,88,95,aloud,blue,850.8016318,None,None,850.8016318,None,,,,,,,,,,,,,,,,,,,,,,,,,,,,,,102YC,001,2023_Sep_18_1550,ExactRep-v3-final,2021.2.3,59.92254411947802,
,,,,,,,,95,0,95,0,,,,,,,,,,,,,,,,,,,,,,,,,,,,,,,,,,,,,,,,,,,,,,,,,,,,,855.3052008,None,,,,,,,,,,,,,,,,,,,,,,,,,,,,,,,,,,,metal,89,96,aloud,blue,853.3045609999999,None,None,853.3045609999999,None,,,,,,,,,,,,,,,,,,,,,,,,,,,,,,102YC,001,2023_Sep_18_1550,ExactRep-v3-final,2021.2.3,59.92254411947802,
,,,,,,,,96,0,96,0,,,,,,,,,,,,,,,,,,,,,,,,,,,,,,,,,,,,,,,,,,,,,,,,,,,,,857.8243620999999,None,,,,,,,,,,,,,,,,,,,,,,,,,,,,,,,,,,,sea,43,97,silent,red,855.814446,None,None,855.814446,None,,,,,,,,,,,,,,,,,,,,,,,,,,,,,,102YC,001,2023_Sep_18_1550,ExactRep-v3-final,2021.2.3,59.92254411947802,
,,,,,,,,97,0,97,0,,,,,,,,,,,,,,,,,,,,,,,,,,,,,,,,,,,,,,,,,,,,,,,,,,,,,860.3434512,None,,,,,,,,,,,,,,,,,,,,,,,,,,,,,,,,,,,dollar,46,98,silent,red,858.3281767999999,None,None,858.3281767999999,None,,,,,,,,,,,,,,,,,,,,,,,,,,,,,,102YC,001,2023_Sep_18_1550,ExactRep-v3-final,2021.2.3,59.92254411947802,
,,,,,,,,98,0,98,0,,,,,,,,,,,,,,,,,,,,,,,,,,,,,,,,,,,,,,,,,,,,,,,,,,,,,862.8626800999999,None,,,,,,,,,,,,,,,,,,,,,,,,,,,,,,,,,,,coffee,41,99,silent,red,860.8474329,None,None,860.8474329,None,,,,,,,,,,,,,,,,,,,,,,,,,,,,,,102YC,001,2023_Sep_18_1550,ExactRep-v3-final,2021.2.3,59.92254411947802,
,,,,,,,,99,0,99,0,,,,,,,,,,,,,,,,,,,,,,,,,,,,,,,,,,,,,,,,,,,,,,,,,,,,,865.3651897,None,,,,,,,,,,,,,,,,,,,,,,,,,,,,,,,,,,,slave,23,100,sing,white,863.3631836999999,None,None,863.3631836999999,None,,,,,,,,,,,,,,,,,,,,,,,,,,,,,,102YC,001,2023_Sep_18_1550,ExactRep-v3-final,2021.2.3,59.92254411947802,
,,,,,,,,100,0,100,0,,,,,,,,,,,,,,,,,,,,,,,,,,,,,,,,,,,,,,,,,,,,,,,,,,,,,867.8677528999999,None,,,,,,,,,,,,,,,,,,,,,,,,,,,,,,,,,,,library,30,101,sing,white,865.8656454999999,None,None,865.8656454999999,None,,,,,,,,,,,,,,,,,,,,,,,,,,,,,,102YC,001,2023_Sep_18_1550,ExactRep-v3-final,2021.2.3,59.92254411947802,
,,,,,,,,101,0,101,0,,,,,,,,,,,,,,,,,,,,,,,,,,,,,,,,,,,,,,,,,,,,,,,,,,,,,870.3742658,None,,,,,,,,,,,,,,,,,,,,,,,,,,,,,,,,,,,home,54,102,silent,red,868.3696887,None,None,868.3696887,None,,,,,,,,,,,,,,,,,,,,,,,,,,,,,,102YC,001,2023_Sep_18_1550,ExactRep-v3-final,2021.2.3,59.92254411947802,
,,,,,,,,102,0,102,0,,,,,,,,,,,,,,,,,,,,,,,,,,,,,,,,,,,,,,,,,,,,,,,,,,,,,872.9059497,None,,,,,,,,,,,,,,,,,,,,,,,,,,,,,,,,,,,spirit,28,103,sing,white,870.8953794999999,None,None,870.8953794999999,None,,,,,,,,,,,,,,,,,,,,,,,,,,,,,,102YC,001,2023_Sep_18_1550,ExactRep-v3-final,2021.2.3,59.92254411947802,
,,,,,,,,103,0,103,0,,,,,,,,,,,,,,,,,,,,,,,,,,,,,,,,,,,,,,,,,,,,,,,,,,,,,875.4116720000001,None,,,,,,,,,,,,,,,,,,,,,,,,,,,,,,,,,,,church,104,104,aloud,blue,873.4073313999999,None,None,873.4073313999999,None,,,,,,,,,,,,,,,,,,,,,,,,,,,,,,102YC,001,2023_Sep_18_1550,ExactRep-v3-final,2021.2.3,59.92254411947802,
,,,,,,,,104,0,104,0,,,,,,,,,,,,,,,,,,,,,,,,,,,,,,,,,,,,,,,,,,,,,,,,,,,,,877.9443771,None,,,,,,,,,,,,,,,,,,,,,,,,,,,,,,,,,,,silence,71,105,silent,red,875.9329575999999,None,None,875.9329575999999,None,,,,,,,,,,,,,,,,,,,,,,,,,,,,,,102YC,001,2023_Sep_18_1550,ExactRep-v3-final,2021.2.3,59.92254411947802,
,,,,,,,,105,0,105,0,,,,,,,,,,,,,,,,,,,,,,,,,,,,,,,,,,,,,,,,,,,,,,,,,,,,,880.4469108,None,,,,,,,,,,,,,,,,,,,,,,,,,,,,,,,,,,,plant,67,106,silent,red,878.4448951999999,None,None,878.4448951999999,None,,,,,,,,,,,,,,,,,,,,,,,,,,,,,,102YC,001,2023_Sep_18_1550,ExactRep-v3-final,2021.2.3,59.92254411947802,
,,,,,,,,106,0,106,0,,,,,,,,,,,,,,,,,,,,,,,,,,,,,,,,,,,,,,,,,,,,,,,,,,,,,882.9494731999999,None,,,,,,,,,,,,,,,,,,,,,,,,,,,,,,,,,,,murder,117,107,aloud,blue,880.9473222999999,None,None,880.9473222999999,None,,,,,,,,,,,,,,,,,,,,,,,,,,,,,,102YC,001,2023_Sep_18_1550,ExactRep-v3-final,2021.2.3,59.92254411947802,
,,,,,,,,107,0,107,0,,,,,,,,,,,,,,,,,,,,,,,,,,,,,,,,,,,,,,,,,,,,,,,,,,,,,885.4518671,None,,,,,,,,,,,,,,,,,,,,,,,,,,,,,,,,,,,chief,14,108,sing,white,883.4514396999999,None,None,883.4514396999999,None,,,,,,,,,,,,,,,,,,,,,,,,,,,,,,102YC,001,2023_Sep_18_1550,ExactRep-v3-final,2021.2.3,59.92254411947802,
,,,,,,,,108,0,108,0,,,,,,,,,,,,,,,,,,,,,,,,,,,,,,,,,,,,,,,,,,,,,,,,,,,,,887.9543620000001,None,,,,,,,,,,,,,,,,,,,,,,,,,,,,,,,,,,,moral,26,109,sing,white,885.9550029999999,None,None,885.9550029999999,None,,,,,,,,,,,,,,,,,,,,,,,,,,,,,,102YC,001,2023_Sep_18_1550,ExactRep-v3-final,2021.2.3,59.92254411947802,
,,,,,,,,109,0,109,0,,,,,,,,,,,,,,,,,,,,,,,,,,,,,,,,,,,,,,,,,,,,,,,,,,,,,890.4736311999999,None,,,,,,,,,,,,,,,,,,,,,,,,,,,,,,,,,,,cabin,66,110,silent,red,888.4666541,None,None,888.4666541,None,,,,,,,,,,,,,,,,,,,,,,,,,,,,,,102YC,001,2023_Sep_18_1550,ExactRep-v3-final,2021.2.3,59.92254411947802,
,,,,,,,,110,0,110,0,,,,,,,,,,,,,,,,,,,,,,,,,,,,,,,,,,,,,,,,,,,,,,,,,,,,,892.9946804,None,,,,,,,,,,,,,,,,,,,,,,,,,,,,,,,,,,,cat,87,111,aloud,blue,890.9826832,None,None,890.9826832,None,,,,,,,,,,,,,,,,,,,,,,,,,,,,,,102YC,001,2023_Sep_18_1550,ExactRep-v3-final,2021.2.3,59.92254411947802,
,,,,,,,,111,0,111,0,,,,,,,,,,,,,,,,,,,,,,,,,,,,,,,,,,,,,,,,,,,,,,,,,,,,,895.4952586999999,None,,,,,,,,,,,,,,,,,,,,,,,,,,,,,,,,,,,sky,40,112,silent,red,893.4930315,None,None,893.4930315,None,,,,,,,,,,,,,,,,,,,,,,,,,,,,,,102YC,001,2023_Sep_18_1550,ExactRep-v3-final,2021.2.3,59.92254411947802,
,,,,,,,,112,0,112,0,,,,,,,,,,,,,,,,,,,,,,,,,,,,,,,,,,,,,,,,,,,,,,,,,,,,,897.9978884999999,None,,,,,,,,,,,,,,,,,,,,,,,,,,,,,,,,,,,person,42,113,silent,red,895.9981162,None,None,895.9981162,None,,,,,,,,,,,,,,,,,,,,,,,,,,,,,,102YC,001,2023_Sep_18_1550,ExactRep-v3-final,2021.2.3,59.92254411947802,
,,,,,,,,113,0,113,0,,,,,,,,,,,,,,,,,,,,,,,,,,,,,,,,,,,,,,,,,,,,,,,,,,,,,900.5169156999999,None,,,,,,,,,,,,,,,,,,,,,,,,,,,,,,,,,,,anger,34,114,sing,white,898.506291,None,None,898.506291,None,,,,,,,,,,,,,,,,,,,,,,,,,,,,,,102YC,001,2023_Sep_18_1550,ExactRep-v3-final,2021.2.3,59.92254411947802,
,,,,,,,,114,0,114,0,,,,,,,,,,,,,,,,,,,,,,,,,,,,,,,,,,,,,,,,,,,,,,,,,,,,,903.0193677999999,None,,,,,,,,,,,,,,,,,,,,,,,,,,,,,,,,,,,crime,103,115,aloud,blue,901.0175009999999,None,None,901.0175009999999,None,,,,,,,,,,,,,,,,,,,,,,,,,,,,,,102YC,001,2023_Sep_18_1550,ExactRep-v3-final,2021.2.3,59.92254411947802,
,,,,,,,,115,0,115,0,,,,,,,,,,,,,,,,,,,,,,,,,,,,,,,,,,,,,,,,,,,,,,,,,,,,,905.5219060000001,None,,,,,,,,,,,,,,,,,,,,,,,,,,,,,,,,,,,passion,39,116,silent,red,903.5215024999999,None,None,903.5215024999999,None,,,,,,,,,,,,,,,,,,,,,,,,,,,,,,102YC,001,2023_Sep_18_1550,ExactRep-v3-final,2021.2.3,59.92254411947802,
,,,,,,,,116,0,116,0,,,,,,,,,,,,,,,,,,,,,,,,,,,,,,,,,,,,,,,,,,,,,,,,,,,,,908.0246076,None,,,,,,,,,,,,,,,,,,,,,,,,,,,,,,,,,,,table,102,117,aloud,blue,906.0223548999999,None,None,906.0223548999999,None,,,,,,,,,,,,,,,,,,,,,,,,,,,,,,102YC,001,2023_Sep_18_1550,ExactRep-v3-final,2021.2.3,59.92254411947802,
,,,,,,,,117,0,117,0,,,,,,,,,,,,,,,,,,,,,,,,,,,,,,,,,,,,,,,,,,,,,,,,,,,,,910.5436002999999,None,,,,,,,,,,,,,,,,,,,,,,,,,,,,,,,,,,,victory,90,118,aloud,blue,908.5343775,None,None,908.5343775,None,,,,,,,,,,,,,,,,,,,,,,,,,,,,,,102YC,001,2023_Sep_18_1550,ExactRep-v3-final,2021.2.3,59.92254411947802,
,,,,,,,,118,0,118,0,,,,,,,,,,,,,,,,,,,,,,,,,,,,,,,,,,,,,,,,,,,,,,,,,,,,,913.0628132,None,,,,,,,,,,,,,,,,,,,,,,,,,,,,,,,,,,,trouble,17,119,sing,white,911.0529487999999,None,None,911.0529487999999,None,,,,,,,,,,,,,,,,,,,,,,,,,,,,,,102YC,001,2023_Sep_18_1550,ExactRep-v3-final,2021.2.3,59.92254411947802,
,,,,,,,,119,0,119,0,,,,,,,,,,,,,,,,,,,,,,,,,,,,,,,,,,,,,,,,,,,,,,,,,,,,,915.5819898999999,None,,,,,,,,,,,,,,,,,,,,,,,,,,,,,,,,,,,pole,98,120,aloud,blue,913.5722342999999,None,None,913.5722342999999,None,,,,,,,,,,,,,,,,,,,,,,,,,,,,,,102YC,001,2023_Sep_18_1550,ExactRep-v3-final,2021.2.3,59.92254411947802,
,,,,,,,,,,,,,,,,,,,,,,,,,,,,,,,,,,,,,,,,,,,,,,,,,,,,,,,,,,,,,,,,,,,,,,,,,,,,,,,,,,,,,,,,,,,,,,,,,,,,,,,,,,,,,,916.0838977,None,space,5.862877400000116,926.0603929,None,,,,,,,,,,,,,,,,,,,,,,,,102YC,001,2023_Sep_18_1550,ExactRep-v3-final,2021.2.3,59.92254411947802,
,,,,,,,,,,,,,,,,,,,,,,,,,,,,,,,,,,,,,,,,,,,,,,,,,,,,,,,,,,,,,,,,,,,,,,,,,,,,,,,,,,,,,,,,,,,,,,,,,,,,,,,,,,,,,,,,,,,,931.9500755999999,None,space,26.62869999999998,941.9263350999998,None,,,,,,,,,,,,,,,,,,102YC,001,2023_Sep_18_1550,ExactRep-v3-final,2021.2.3,59.92254411947802,
,,,,,,,,,,,,0,0,0,0,,,,,,,,,,,,,,,,,,,,,,,,,,,,,,,,,,,,,,,,,,,,,,,,,978.8618438,None,,,,,,,,,,,,,,,,,,,,,,,,,,,,,,,,,,,,,,,,,,,,,,,,,,,,,,,,,excuse,187,1,sing,new,white,969.1072585999999,None,n,969.1072585999999,None,"['n', 'return']","[3.7116611999999805, 9.719597600000043]",969.1072585999999,None,,,102YC,001,2023_Sep_18_1550,ExactRep-v3-final,2021.2.3,59.92254411947802,
,,,,,,,,,,,,1,0,1,0,,,,,,,,,,,,,,,,,,,,,,,,,,,,,,,,,,,,,,,,,,,,,,,,,983.7164506,None,,,,,,,,,,,,,,,,,,,,,,,,,,,,,,,,,,,,,,,,,,,,,,,,,,,,,,,,,law,195,2,sing,new,white,979.3700399,None,n,979.3700399,None,"['n', 'return']","[2.8650325999999495, 4.3128377999998975]",979.3700399,None,,,102YC,001,2023_Sep_18_1550,ExactRep-v3-final,2021.2.3,59.92254411947802,
,,,,,,,,,,,,2,0,2,0,,,,,,,,,,,,,,,,,,,,,,,,,,,,,,,,,,,,,,,,,,,,,,,,,990.2076745,None,,,,,,,,,,,,,,,,,,,,,,,,,,,,,,,,,,,,,,,,,,,,,,,,,,,,,,,,,origin,81,3,aloud,old,blue,984.2248629,None,y,984.2248629,None,"['y', 'return']","[4.77817489999984, 5.946111399999836]",984.2248629,None,,,102YC,001,2023_Sep_18_1550,ExactRep-v3-final,2021.2.3,59.92254411947802,
,,,,,,,,,,,,3,0,3,0,,,,,,,,,,,,,,,,,,,,,,,,,,,,,,,,,,,,,,,,,,,,,,,,,999.9328781999999,None,,,,,,,,,,,,,,,,,,,,,,,,,,,,,,,,,,,,,,,,,,,,,,,,,,,,,,,,,winter,144,4,silent,new,red,990.7141335,None,y,990.7141335,None,"['y', 'return']","[8.392822300000034, 9.184767400000055]",990.7141335,None,,,102YC,001,2023_Sep_18_1550,ExactRep-v3-final,2021.2.3,59.92254411947802,
,,,,,,,,,,,,4,0,4,0,,,,,,,,,,,,,,,,,,,,,,,,,,,,,,,,,,,,,,,,,,,,,,,,,1005.8220516,None,,,,,,,,,,,,,,,,,,,,,,,,,,,,,,,,,,,,,,,,,,,,,,,,,,,,,,,,,pipe,130,5,silent,new,red,1000.4395816999998,None,n,1000.4395816999998,None,"['n', 'return']","[3.315317999999934, 5.339342999999872]",1000.4395816999998,None,,,102YC,001,2023_Sep_18_1550,ExactRep-v3-final,2021.2.3,59.92254411947802,
,,,,,,,,,,,,5,0,5,0,,,,,,,,,,,,,,,,,,,,,,,,,,,,,,,,,,,,,,,,,,,,,,,,,1025.1747129,None,,,,,,,,,,,,,,,,,,,,,,,,,,,,,,,,,,,,,,,,,,,,,,,,,,,,,,,,,tool,170,6,aloud,new,blue,1006.3334022,None,y,1006.3334022,None,"['y', 'backspace', 'n', 'y', 'backspace', 'y', 'return']","[10.085582400000021, 13.45348880000006, 14.613585700000158, 16.34150680000016, 17.26950880000004, 18.16562820000013, 18.805355899999995]",1006.3334022,None,,,102YC,001,2023_Sep_18_1550,ExactRep-v3-final,2021.2.3,59.92254411947802,
,,,,,,,,,,,,6,0,6,0,,,,,,,,,,,,,,,,,,,,,,,,,,,,,,,,,,,,,,,,,,,,,,,,,1030.7303609,None,,,,,,,,,,,,,,,,,,,,,,,,,,,,,,,,,,,,,,,,,,,,,,,,,,,,,,,,,fun,225,7,sing,new,white,1025.6774952,None,n,1025.6774952,None,"['n', 'return']","[4.165662699999984, 5.013486499999999]",1025.6774952,None,,,102YC,001,2023_Sep_18_1550,ExactRep-v3-final,2021.2.3,59.92254411947802,
,,,,,,,,,,,,7,0,7,0,,,,,,,,,,,,,,,,,,,,,,,,,,,,,,,,,,,,,,,,,,,,,,,,,1033.8167604,None,,,,,,,,,,,,,,,,,,,,,,,,,,,,,,,,,,,,,,,,,,,,,,,,,,,,,,,,,series,138,8,silent,new,red,1031.2413906000002,None,y,1031.2413906000002,None,"['y', 'return']","[2.041622800000141, 2.5375349000000824]",1031.2413906000002,None,,,102YC,001,2023_Sep_18_1550,ExactRep-v3-final,2021.2.3,59.92254411947802,
,,,,,,,,,,,,8,0,8,0,,,,,,,,,,,,,,,,,,,,,,,,,,,,,,,,,,,,,,,,,,,,,,,,,1037.1710994,None,,,,,,,,,,,,,,,,,,,,,,,,,,,,,,,,,,,,,,,,,,,,,,,,,,,,,,,,,iron,0,9,sing,old,white,1034.3317481000001,None,y,1034.3317481000001,None,"['y', 'return']","[2.223261099999945, 2.7991707000001043]",1034.3317481000001,None,,,102YC,001,2023_Sep_18_1550,ExactRep-v3-final,2021.2.3,59.92254411947802,
,,,,,,,,,,,,9,0,9,0,,,,,,,,,,,,,,,,,,,,,,,,,,,,,,,,,,,,,,,,,,,,,,,,,1040.3900212,None,,,,,,,,,,,,,,,,,,,,,,,,,,,,,,,,,,,,,,,,,,,,,,,,,,,,,,,,,skin,198,10,aloud,new,blue,1037.6829280000002,None,n,1037.6829280000002,None,"['n', 'return']","[2.0719770999999128, 2.671974500000033]",1037.6829280000002,None,,,102YC,001,2023_Sep_18_1550,ExactRep-v3-final,2021.2.3,59.92254411947802,
,,,,,,,,,,,,10,0,10,0,,,,,,,,,,,,,,,,,,,,,,,,,,,,,,,,,,,,,,,,,,,,,,,,,1042.7767702,None,,,,,,,,,,,,,,,,,,,,,,,,,,,,,,,,,,,,,,,,,,,,,,,,,,,,,,,,,lip,230,11,aloud,new,blue,1040.8987011000002,None,n,1040.8987011000002,None,"['n', 'return']","[1.3441696999998385, 1.832176299999901]",1040.8987011000002,None,,,102YC,001,2023_Sep_18_1550,ExactRep-v3-final,2021.2.3,59.92254411947802,
,,,,,,,,,,,,11,0,11,0,,,,,,,,,,,,,,,,,,,,,,,,,,,,,,,,,,,,,,,,,,,,,,,,,1046.6295235,None,,,,,,,,,,,,,,,,,,,,,,,,,,,,,,,,,,,,,,,,,,,,,,,,,,,,,,,,,leader,49,12,silent,old,red,1043.2829739000001,None,y,1043.2829739000001,None,"['y', 'return']","[2.7919985000000906, 3.3038956000000326]",1043.2829739000001,None,,,102YC,001,2023_Sep_18_1550,ExactRep-v3-final,2021.2.3,59.92254411947802,
,,,,,,,,,,,,12,0,12,0,,,,,,,,,,,,,,,,,,,,,,,,,,,,,,,,,,,,,,,,,,,,,,,,,1050.5501659000001,None,,,,,,,,,,,,,,,,,,,,,,,,,,,,,,,,,,,,,,,,,,,,,,,,,,,,,,,,,form,175,13,sing,new,white,1047.1395288,None,n,1047.1395288,None,"['n', 'return']","[2.9834740999999667, 3.367412300000069]",1047.1395288,None,,,102YC,001,2023_Sep_18_1550,ExactRep-v3-final,2021.2.3,59.92254411947802,
,,,,,,,,,,,,13,0,13,0,,,,,,,,,,,,,,,,,,,,,,,,,,,,,,,,,,,,,,,,,,,,,,,,,1058.0576114,None,,,,,,,,,,,,,,,,,,,,,,,,,,,,,,,,,,,,,,,,,,,,,,,,,,,,,,,,,fortune,164,14,aloud,new,blue,1051.0517942000001,None,y,1051.0517942000001,None,"['y', 'return']","[6.519101200000023, 6.9591751999998905]",1051.0517942000001,None,,,102YC,001,2023_Sep_18_1550,ExactRep-v3-final,2021.2.3,59.92254411947802,
,,,,,,,,,,,,14,0,14,0,,,,,,,,,,,,,,,,,,,,,,,,,,,,,,,,,,,,,,,,,,,,,,,,,1064.8811469,None,,,,,,,,,,,,,,,,,,,,,,,,,,,,,,,,,,,,,,,,,,,,,,,,,,,,,,,,,student,124,15,silent,new,red,1058.5673561,None,y,1058.5673561,None,"['y', 'return']","[5.787539400000014, 6.275616500000069]",1058.5673561,None,,,102YC,001,2023_Sep_18_1550,ExactRep-v3-final,2021.2.3,59.92254411947802,
,,,,,,,,,,,,15,0,15,0,,,,,,,,,,,,,,,,,,,,,,,,,,,,,,,,,,,,,,,,,,,,,,,,,1068.0509714,None,,,,,,,,,,,,,,,,,,,,,,,,,,,,,,,,,,,,,,,,,,,,,,,,,,,,,,,,,valley,127,16,silent,new,red,1065.3892659,None,y,1065.3892659,None,"['y', 'return']","[2.085673199999974, 2.629767099999981]",1065.3892659,None,,,102YC,001,2023_Sep_18_1550,ExactRep-v3-final,2021.2.3,59.92254411947802,
,,,,,,,,,,,,16,0,16,0,,,,,,,,,,,,,,,,,,,,,,,,,,,,,,,,,,,,,,,,,,,,,,,,,1073.1071918,None,,,,,,,,,,,,,,,,,,,,,,,,,,,,,,,,,,,,,,,,,,,,,,,,,,,,,,,,,heaven,161,17,sing,new,white,1068.5661783,None,n,1068.5661783,None,"['n', 'return']","[3.7886945999998716, 4.49274790000004]",1068.5661783,None,,,102YC,001,2023_Sep_18_1550,ExactRep-v3-final,2021.2.3,59.92254411947802,
,,,,,,,,,,,,17,0,17,0,,,,,,,,,,,,,,,,,,,,,,,,,,,,,,,,,,,,,,,,,,,,,,,,,1076.9598114,None,,,,,,,,,,,,,,,,,,,,,,,,,,,,,,,,,,,,,,,,,,,,,,,,,,,,,,,,,grass,73,18,silent,old,red,1073.6171473000002,None,y,1073.6171473000002,None,"['y', 'y', 'return']","[2.6257424000000356, 2.8017671000000064, 3.305769199999986]",1073.6171473000002,None,,,102YC,001,2023_Sep_18_1550,ExactRep-v3-final,2021.2.3,59.92254411947802,
,,,,,,,,,,,,18,0,18,0,,,,,,,,,,,,,,,,,,,,,,,,,,,,,,,,,,,,,,,,,,,,,,,,,1083.6664755000002,None,,,,,,,,,,,,,,,,,,,,,,,,,,,,,,,,,,,,,,,,,,,,,,,,,,,,,,,,,time,191,19,sing,new,white,1077.4679622,None,n,1077.4679622,None,"['n', 'return']","[5.63100170000007, 6.150945299999876]",1077.4679622,None,,,102YC,001,2023_Sep_18_1550,ExactRep-v3-final,2021.2.3,59.92254411947802,
,,,,,,,,,,,,19,0,19,0,,,,,,,,,,,,,,,,,,,,,,,,,,,,,,,,,,,,,,,,,,,,,,,,,1086.7362548,None,,,,,,,,,,,,,,,,,,,,,,,,,,,,,,,,,,,,,,,,,,,,,,,,,,,,,,,,,chance,237,20,sing,new,white,1084.1724715,None,n,1084.1724715,None,"['n', 'return']","[2.134617599999956, 2.5265533999997842]",1084.1724715,None,,,102YC,001,2023_Sep_18_1550,ExactRep-v3-final,2021.2.3,59.92254411947802,
,,,,,,,,,,,,20,0,20,0,,,,,,,,,,,,,,,,,,,,,,,,,,,,,,,,,,,,,,,,,,,,,,,,,1089.2564876000001,None,,,,,,,,,,,,,,,,,,,,,,,,,,,,,,,,,,,,,,,,,,,,,,,,,,,,,,,,,insect,75,21,silent,old,red,1087.2421925,None,y,1087.2421925,None,"['y', 'return']","[1.552716799999871, 1.968662199999926]",1087.2421925,None,,,102YC,001,2023_Sep_18_1550,ExactRep-v3-final,2021.2.3,59.92254411947802,
,,,,,,,,,,,,21,0,21,0,,,,,,,,,,,,,,,,,,,,,,,,,,,,,,,,,,,,,,,,,,,,,,,,,1093.3939715000001,None,,,,,,,,,,,,,,,,,,,,,,,,,,,,,,,,,,,,,,,,,,,,,,,,,,,,,,,,,colony,95,22,aloud,old,blue,1089.7671032,None,y,1089.7671032,None,"['y', 'return']","[2.7637919000001148, 3.5798601999999846]",1089.7671032,None,,,102YC,001,2023_Sep_18_1550,ExactRep-v3-final,2021.2.3,59.92254411947802,
,,,,,,,,,,,,22,0,22,0,,,,,,,,,,,,,,,,,,,,,,,,,,,,,,,,,,,,,,,,,,,,,,,,,1099.6001594000002,None,,,,,,,,,,,,,,,,,,,,,,,,,,,,,,,,,,,,,,,,,,,,,,,,,,,,,,,,,board,84,23,aloud,old,blue,1093.9049142000001,None,n,1093.9049142000001,None,"['n', 'return']","[3.898117700000057, 5.657993499999975]",1093.9049142000001,None,,,102YC,001,2023_Sep_18_1550,ExactRep-v3-final,2021.2.3,59.92254411947802,
,,,,,,,,,,,,23,0,23,0,,,,,,,,,,,,,,,,,,,,,,,,,,,,,,,,,,,,,,,,,,,,,,,,,1102.6354599000001,None,,,,,,,,,,,,,,,,,,,,,,,,,,,,,,,,,,,,,,,,,,,,,,,,,,,,,,,,,death,92,24,aloud,old,blue,1100.1077888,None,y,1100.1077888,None,"['y', 'return']","[1.7751878999999917, 2.4870882000000165]",1100.1077888,None,,,102YC,001,2023_Sep_18_1550,ExactRep-v3-final,2021.2.3,59.92254411947802,
,,,,,,,,,,,,24,0,24,0,,,,,,,,,,,,,,,,,,,,,,,,,,,,,,,,,,,,,,,,,,,,,,,,,1105.5393959,None,,,,,,,,,,,,,,,,,,,,,,,,,,,,,,,,,,,,,,,,,,,,,,,,,,,,,,,,,corner,157,25,silent,new,red,1103.1521779,None,y,1103.1521779,None,"['y', 'return']","[1.9067745999998351, 2.3387215999998716]",1103.1521779,None,,,102YC,001,2023_Sep_18_1550,ExactRep-v3-final,2021.2.3,59.92254411947802,
,,,,,,,,,,,,25,0,25,0,,,,,,,,,,,,,,,,,,,,,,,,,,,,,,,,,,,,,,,,,,,,,,,,,1108.8926104,None,,,,,,,,,,,,,,,,,,,,,,,,,,,,,,,,,,,,,,,,,,,,,,,,,,,,,,,,,shoes,3,26,sing,old,white,1106.0523674,None,y,1106.0523674,None,"['y', 'return']","[2.3587998000000425, 2.8066327000001365]",1106.0523674,None,,,102YC,001,2023_Sep_18_1550,ExactRep-v3-final,2021.2.3,59.92254411947802,
,,,,,,,,,,,,26,0,26,0,,,,,,,,,,,,,,,,,,,,,,,,,,,,,,,,,,,,,,,,,,,,,,,,,1111.078271,None,,,,,,,,,,,,,,,,,,,,,,,,,,,,,,,,,,,,,,,,,,,,,,,,,,,,,,,,,cat,87,27,aloud,old,blue,1109.4009027,None,y,1109.4009027,None,"['y', 'return']","[1.1779765999999654, 1.6340875000000779]",1109.4009027,None,,,102YC,001,2023_Sep_18_1550,ExactRep-v3-final,2021.2.3,59.92254411947802,
,,,,,,,,,,,,27,0,27,0,,,,,,,,,,,,,,,,,,,,,,,,,,,,,,,,,,,,,,,,,,,,,,,,,1115.0656533000001,None,,,,,,,,,,,,,,,,,,,,,,,,,,,,,,,,,,,,,,,,,,,,,,,,,,,,,,,,,market,12,28,sing,old,white,1111.5902540000002,None,y,1111.5902540000002,None,"['y', 'return']","[3.060532700000067, 3.428642600000103]",1111.5902540000002,None,,,102YC,001,2023_Sep_18_1550,ExactRep-v3-final,2021.2.3,59.92254411947802,
,,,,,,,,,,,,28,0,28,0,,,,,,,,,,,,,,,,,,,,,,,,,,,,,,,,,,,,,,,,,,,,,,,,,1118.4512617,None,,,,,,,,,,,,,,,,,,,,,,,,,,,,,,,,,,,,,,,,,,,,,,,,,,,,,,,,,woman,146,29,silent,new,red,1115.5699861,None,y,1115.5699861,None,"['y', 'return']","[2.4408785000000535, 2.84091310000008]",1115.5699861,None,,,102YC,001,2023_Sep_18_1550,ExactRep-v3-final,2021.2.3,59.92254411947802,
,,,,,,,,,,,,29,0,29,0,,,,,,,,,,,,,,,,,,,,,,,,,,,,,,,,,,,,,,,,,,,,,,,,,1122.2383366000001,None,,,,,,,,,,,,,,,,,,,,,,,,,,,,,,,,,,,,,,,,,,,,,,,,,,,,,,,,,silence,71,30,silent,old,red,1118.9590341,None,y,1118.9590341,None,"['y', 'return']","[2.859842800000024, 3.2358621999999286]",1118.9590341,None,,,102YC,001,2023_Sep_18_1550,ExactRep-v3-final,2021.2.3,59.92254411947802,
,,,,,,,,,,,,30,0,30,0,,,,,,,,,,,,,,,,,,,,,,,,,,,,,,,,,,,,,,,,,,,,,,,,,1124.6749919000001,None,,,,,,,,,,,,,,,,,,,,,,,,,,,,,,,,,,,,,,,,,,,,,,,,,,,,,,,,,body,156,31,silent,new,red,1122.7454858,None,n,1122.7454858,None,"['n', 'return']","[1.489401799999996, 1.881409000000076]",1122.7454858,None,,,102YC,001,2023_Sep_18_1550,ExactRep-v3-final,2021.2.3,59.92254411947802,
,,,,,,,,,,,,31,0,31,0,,,,,,,,,,,,,,,,,,,,,,,,,,,,,,,,,,,,,,,,,,,,,,,,,1129.1119321,None,,,,,,,,,,,,,,,,,,,,,,,,,,,,,,,,,,,,,,,,,,,,,,,,,,,,,,,,,present,10,32,sing,old,white,1125.1862707,None,y,1125.1862707,None,"['y', 'return']","[3.504718199999843, 3.8887106999998196]",1125.1862707,None,,,102YC,001,2023_Sep_18_1550,ExactRep-v3-final,2021.2.3,59.92254411947802,
,,,,,,,,,,,,32,0,32,0,,,,,,,,,,,,,,,,,,,,,,,,,,,,,,,,,,,,,,,,,,,,,,,,,1131.9146622,None,,,,,,,,,,,,,,,,,,,,,,,,,,,,,,,,,,,,,,,,,,,,,,,,,,,,,,,,,humour,78,33,silent,old,red,1129.6205997000002,None,y,1129.6205997000002,None,"['y', 'return']","[1.8942767999999433, 2.2624080000000504]",1129.6205997000002,None,,,102YC,001,2023_Sep_18_1550,ExactRep-v3-final,2021.2.3,59.92254411947802,
,,,,,,,,,,,,33,0,33,0,,,,,,,,,,,,,,,,,,,,,,,,,,,,,,,,,,,,,,,,,,,,,,,,,1135.8186128,None,,,,,,,,,,,,,,,,,,,,,,,,,,,,,,,,,,,,,,,,,,,,,,,,,,,,,,,,,advice,224,34,aloud,new,blue,1132.4241694,None,n,1132.4241694,None,"['n', 'return']","[2.266678700000057, 3.346699499999886]",1132.4241694,None,,,102YC,001,2023_Sep_18_1550,ExactRep-v3-final,2021.2.3,59.92254411947802,
,,,,,,,,,,,,34,0,34,0,,,,,,,,,,,,,,,,,,,,,,,,,,,,,,,,,,,,,,,,,,,,,,,,,1141.8079509000002,None,,,,,,,,,,,,,,,,,,,,,,,,,,,,,,,,,,,,,,,,,,,,,,,,,,,,,,,,,person,42,35,silent,old,red,1136.3254033,None,y,1136.3254033,None,"['y', 'backspace', 'y', 'return']","[1.3496849999999085, 3.3095002000000022, 5.077504999999974, 5.437511699999959]",1136.3254033,None,,,102YC,001,2023_Sep_18_1550,ExactRep-v3-final,2021.2.3,59.92254411947802,
,,,,,,,,,,,,35,0,35,0,,,,,,,,,,,,,,,,,,,,,,,,,,,,,,,,,,,,,,,,,,,,,,,,,1162.6287015,None,,,,,,,,,,,,,,,,,,,,,,,,,,,,,,,,,,,,,,,,,,,,,,,,,,,,,,,,,history,197,36,sing,new,white,1142.3173996,None,n,1142.3173996,None,"['n', 'return']","[19.90946680000002, 20.277458600000045]",1142.3173996,None,,,102YC,001,2023_Sep_18_1550,ExactRep-v3-final,2021.2.3,59.92254411947802,
,,,,,,,,,,,,36,0,36,0,,,,,,,,,,,,,,,,,,,,,,,,,,,,,,,,,,,,,,,,,,,,,,,,,1167.0674769,None,,,,,,,,,,,,,,,,,,,,,,,,,,,,,,,,,,,,,,,,,,,,,,,,,,,,,,,,,animal,214,37,aloud,new,blue,1163.1368200000002,None,y,1163.1368200000002,None,"['y', 'return']","[3.4583001000000877, 3.8820408000001407]",1163.1368200000002,None,,,102YC,001,2023_Sep_18_1550,ExactRep-v3-final,2021.2.3,59.92254411947802,
,,,,,,,,,,,,37,0,37,0,,,,,,,,,,,,,,,,,,,,,,,,,,,,,,,,,,,,,,,,,,,,,,,,,1169.418897,None,,,,,,,,,,,,,,,,,,,,,,,,,,,,,,,,,,,,,,,,,,,,,,,,,,,,,,,,,murder,117,38,aloud,old,blue,1167.5762523,None,y,1167.5762523,None,"['y', 'return']","[1.4026409999999032, 1.7947484999999688]",1167.5762523,None,,,102YC,001,2023_Sep_18_1550,ExactRep-v3-final,2021.2.3,59.92254411947802,
,,,,,,,,,,,,38,0,38,0,,,,,,,,,,,,,,,,,,,,,,,,,,,,,,,,,,,,,,,,,,,,,,,,,1172.6553709,None,,,,,,,,,,,,,,,,,,,,,,,,,,,,,,,,,,,,,,,,,,,,,,,,,,,,,,,,,gold,176,39,aloud,new,blue,1169.9351324000002,None,y,1169.9351324000002,None,"['y', 'return']","[2.355834400000049, 2.675754099999949]",1169.9351324000002,None,,,102YC,001,2023_Sep_18_1550,ExactRep-v3-final,2021.2.3,59.92254411947802,
,,,,,,,,,,,,39,0,39,0,,,,,,,,,,,,,,,,,,,,,,,,,,,,,,,,,,,,,,,,,,,,,,,,,1174.9743945,None,,,,,,,,,,,,,,,,,,,,,,,,,,,,,,,,,,,,,,,,,,,,,,,,,,,,,,,,,home,54,40,silent,old,red,1173.1638638000002,None,y,1173.1638638000002,None,"['y', 'return']","[1.4230090999999447, 1.7669452999998612]",1173.1638638000002,None,,,102YC,001,2023_Sep_18_1550,ExactRep-v3-final,2021.2.3,59.92254411947802,
,,,,,,,,,,,,40,0,40,0,,,,,,,,,,,,,,,,,,,,,,,,,,,,,,,,,,,,,,,,,,,,,,,,,1176.9764822,None,,,,,,,,,,,,,,,,,,,,,,,,,,,,,,,,,,,,,,,,,,,,,,,,,,,,,,,,,hope,77,41,silent,old,red,1175.4891362,None,y,1175.4891362,None,"['y', 'return']","[1.1217440999998871, 1.4417378000000554]",1175.4891362,None,,,102YC,001,2023_Sep_18_1550,ExactRep-v3-final,2021.2.3,59.92254411947802,
,,,,,,,,,,,,41,0,41,0,,,,,,,,,,,,,,,,,,,,,,,,,,,,,,,,,,,,,,,,,,,,,,,,,1180.1973303,None,,,,,,,,,,,,,,,,,,,,,,,,,,,,,,,,,,,,,,,,,,,,,,,,,,,,,,,,,truth,52,42,silent,old,red,1177.4858289000001,None,y,1177.4858289000001,None,"['y', 'return']","[2.0930126999999175, 2.6769961999998486]",1177.4858289000001,None,,,102YC,001,2023_Sep_18_1550,ExactRep-v3-final,2021.2.3,59.92254411947802,
,,,,,,,,,,,,42,0,42,0,,,,,,,,,,,,,,,,,,,,,,,,,,,,,,,,,,,,,,,,,,,,,,,,,1182.6319857,None,,,,,,,,,,,,,,,,,,,,,,,,,,,,,,,,,,,,,,,,,,,,,,,,,,,,,,,,,boy,140,43,silent,new,red,1180.7048078,None,n,1180.7048078,None,"['n', 'return']","[1.3781843000001572, 1.8901810000002115]",1180.7048078,None,,,102YC,001,2023_Sep_18_1550,ExactRep-v3-final,2021.2.3,59.92254411947802,
,,,,,,,,,,,,43,0,43,0,,,,,,,,,,,,,,,,,,,,,,,,,,,,,,,,,,,,,,,,,,,,,,,,,1185.7352819,None,,,,,,,,,,,,,,,,,,,,,,,,,,,,,,,,,,,,,,,,,,,,,,,,,,,,,,,,,garden,110,44,aloud,old,blue,1183.1413923,None,y,1183.1413923,None,"['y', 'return']","[2.093391200000042, 2.5575830000000224]",1183.1413923,None,,,102YC,001,2023_Sep_18_1550,ExactRep-v3-final,2021.2.3,59.92254411947802,
,,,,,,,,,,,,44,0,44,0,,,,,,,,,,,,,,,,,,,,,,,,,,,,,,,,,,,,,,,,,,,,,,,,,1188.7548159,None,,,,,,,,,,,,,,,,,,,,,,,,,,,,,,,,,,,,,,,,,,,,,,,,,,,,,,,,,effort,13,45,sing,old,white,1186.2512011000001,None,y,1186.2512011000001,None,"['y', 'return']","[1.9596910000000207, 2.4558355000001484]",1186.2512011000001,None,,,102YC,001,2023_Sep_18_1550,ExactRep-v3-final,2021.2.3,59.92254411947802,
,,,,,,,,,,,,45,0,45,0,,,,,,,,,,,,,,,,,,,,,,,,,,,,,,,,,,,,,,,,,,,,,,,,,1191.8746110000002,None,,,,,,,,,,,,,,,,,,,,,,,,,,,,,,,,,,,,,,,,,,,,,,,,,,,,,,,,,arm,233,46,sing,new,white,1189.2663707000002,None,n,1189.2663707000002,None,"['n', 'return']","[2.1205442999998922, 2.5765475000000606]",1189.2663707000002,None,,,102YC,001,2023_Sep_18_1550,ExactRep-v3-final,2021.2.3,59.92254411947802,
,,,,,,,,,,,,46,0,46,0,,,,,,,,,,,,,,,,,,,,,,,,,,,,,,,,,,,,,,,,,,,,,,,,,1194.2770024000001,None,,,,,,,,,,,,,,,,,,,,,,,,,,,,,,,,,,,,,,,,,,,,,,,,,,,,,,,,,air,35,47,sing,old,white,1192.3821976000002,None,y,1192.3821976000002,None,"['y', 'return']","[1.468612000000121, 1.8526670000001104]",1192.3821976000002,None,,,102YC,001,2023_Sep_18_1550,ExactRep-v3-final,2021.2.3,59.92254411947802,
,,,,,,,,,,,,47,0,47,0,,,,,,,,,,,,,,,,,,,,,,,,,,,,,,,,,,,,,,,,,,,,,,,,,1196.7794792,None,,,,,,,,,,,,,,,,,,,,,,,,,,,,,,,,,,,,,,,,,,,,,,,,,,,,,,,,,chief,14,48,sing,old,white,1194.7867201000001,None,y,1194.7867201000001,None,"['y', 'return']","[1.4881419000000733, 1.9521518999999898]",1194.7867201000001,None,,,102YC,001,2023_Sep_18_1550,ExactRep-v3-final,2021.2.3,59.92254411947802,
,,,,,,,,,,,,48,0,48,0,,,,,,,,,,,,,,,,,,,,,,,,,,,,,,,,,,,,,,,,,,,,,,,,,1199.2485899,None,,,,,,,,,,,,,,,,,,,,,,,,,,,,,,,,,,,,,,,,,,,,,,,,,,,,,,,,,artist,207,49,sing,new,white,1197.2932037,None,n,1197.2932037,None,"['n', 'return']","[1.4937102999999752, 1.9097681999999168]",1197.2932037,None,,,102YC,001,2023_Sep_18_1550,ExactRep-v3-final,2021.2.3,59.92254411947802,
,,,,,,,,,,,,49,0,49,0,,,,,,,,,,,,,,,,,,,,,,,,,,,,,,,,,,,,,,,,,,,,,,,,,1201.5345259,None,,,,,,,,,,,,,,,,,,,,,,,,,,,,,,,,,,,,,,,,,,,,,,,,,,,,,,,,,journal,82,50,aloud,old,blue,1199.7565801,None,y,1199.7565801,None,"['y', 'return']","[1.310372599999937, 1.7343095000001085]",1199.7565801,None,,,102YC,001,2023_Sep_18_1550,ExactRep-v3-final,2021.2.3,59.92254411947802,
,,,,,,,,,,,,50,0,50,0,,,,,,,,,,,,,,,,,,,,,,,,,,,,,,,,,,,,,,,,,,,,,,,,,1203.819896,None,,,,,,,,,,,,,,,,,,,,,,,,,,,,,,,,,,,,,,,,,,,,,,,,,,,,,,,,,wheat,58,51,silent,old,red,1202.0473222,None,y,1202.0473222,None,"['y', 'return']","[1.3076194000000214, 1.7396351999998387]",1202.0473222,None,,,102YC,001,2023_Sep_18_1550,ExactRep-v3-final,2021.2.3,59.92254411947802,
,,,,,,,,,,,,51,0,51,0,,,,,,,,,,,,,,,,,,,,,,,,,,,,,,,,,,,,,,,,,,,,,,,,,1206.4392011,None,,,,,,,,,,,,,,,,,,,,,,,,,,,,,,,,,,,,,,,,,,,,,,,,,,,,,,,,,string,47,52,silent,old,red,1204.3291646,None,y,1204.3291646,None,"['y', 'return']","[1.5537844999998924, 2.0737108999999236]",1204.3291646,None,,,102YC,001,2023_Sep_18_1550,ExactRep-v3-final,2021.2.3,59.92254411947802,
,,,,,,,,,,,,52,0,52,0,,,,,,,,,,,,,,,,,,,,,,,,,,,,,,,,,,,,,,,,,,,,,,,,,1208.4745228000002,None,,,,,,,,,,,,,,,,,,,,,,,,,,,,,,,,,,,,,,,,,,,,,,,,,,,,,,,,,honour,85,53,aloud,old,blue,1206.9503411,None,y,1206.9503411,None,"['y', 'return']","[1.0765499000001455, 1.4846284000000196]",1206.9503411,None,,,102YC,001,2023_Sep_18_1550,ExactRep-v3-final,2021.2.3,59.92254411947802,
,,,,,,,,,,,,53,0,53,0,,,,,,,,,,,,,,,,,,,,,,,,,,,,,,,,,,,,,,,,,,,,,,,,,1211.7611447000002,None,,,,,,,,,,,,,,,,,,,,,,,,,,,,,,,,,,,,,,,,,,,,,,,,,,,,,,,,,weapon,159,54,silent,new,red,1208.9915645,None,y,1208.9915645,None,"['y', 'return']","[1.28322930000013, 2.7234101000001374]",1208.9915645,None,,,102YC,001,2023_Sep_18_1550,ExactRep-v3-final,2021.2.3,59.92254411947802,
,,,,,,,,,,,,54,0,54,0,,,,,,,,,,,,,,,,,,,,,,,,,,,,,,,,,,,,,,,,,,,,,,,,,1215.8652648,None,,,,,,,,,,,,,,,,,,,,,,,,,,,,,,,,,,,,,,,,,,,,,,,,,,,,,,,,,opinion,31,55,sing,old,white,1212.2714403,None,y,1212.2714403,None,"['n', 'backspace', 'y', 'return']","[1.2194660000000113, 2.6515997999999854, 3.1075964000001477, 3.5475278999999773]",1212.2714403,None,,,102YC,001,2023_Sep_18_1550,ExactRep-v3-final,2021.2.3,59.92254411947802,
,,,,,,,,,,,,55,0,55,0,,,,,,,,,,,,,,,,,,,,,,,,,,,,,,,,,,,,,,,,,,,,,,,,,1219.8859464,None,,,,,,,,,,,,,,,,,,,,,,,,,,,,,,,,,,,,,,,,,,,,,,,,,,,,,,,,,diamond,200,56,aloud,new,blue,1216.3759662,None,y,1216.3759662,None,"['y', 'return']","[3.0588705999998638, 3.475029199999881]",1216.3759662,None,,,102YC,001,2023_Sep_18_1550,ExactRep-v3-final,2021.2.3,59.92254411947802,
,,,,,,,,,,,,56,0,56,0,,,,,,,,,,,,,,,,,,,,,,,,,,,,,,,,,,,,,,,,,,,,,,,,,1222.3216893000001,None,,,,,,,,,,,,,,,,,,,,,,,,,,,,,,,,,,,,,,,,,,,,,,,,,,,,,,,,,length,51,57,silent,old,red,1220.396629,None,y,1220.396629,None,"['y', 'return']","[1.4064462000001186, 1.8863662000001113]",1220.396629,None,,,102YC,001,2023_Sep_18_1550,ExactRep-v3-final,2021.2.3,59.92254411947802,
,,,,,,,,,,,,57,0,57,0,,,,,,,,,,,,,,,,,,,,,,,,,,,,,,,,,,,,,,,,,,,,,,,,,1242.6086195,None,,,,,,,,,,,,,,,,,,,,,,,,,,,,,,,,,,,,,,,,,,,,,,,,,,,,,,,,,book,234,58,aloud,new,blue,1222.8312269,None,n,1222.8312269,None,"['y', 'y', 'n', 'backspace', 'n', 'return']","[15.099636000000146, 17.595676400000002, 18.0116716, 18.907801300000074, 19.33971200000019, 19.731708100000105]",1222.8312269,None,,,102YC,001,2023_Sep_18_1550,ExactRep-v3-final,2021.2.3,59.92254411947802,
,,,,,,,,,,,,58,0,58,0,,,,,,,,,,,,,,,,,,,,,,,,,,,,,,,,,,,,,,,,,,,,,,,,,1245.5124176000002,None,,,,,,,,,,,,,,,,,,,,,,,,,,,,,,,,,,,,,,,,,,,,,,,,,,,,,,,,,dress,179,59,sing,new,white,1243.1195007000001,None,n,1243.1195007000001,None,"['n', 'return']","[1.9715181999999913, 2.347401600000012]",1243.1195007000001,None,,,102YC,001,2023_Sep_18_1550,ExactRep-v3-final,2021.2.3,59.92254411947802,
,,,,,,,,,,,,59,0,59,0,,,,,,,,,,,,,,,,,,,,,,,,,,,,,,,,,,,,,,,,,,,,,,,,,1249.1318215000001,None,,,,,,,,,,,,,,,,,,,,,,,,,,,,,,,,,,,,,,,,,,,,,,,,,,,,,,,,,glory,129,60,silent,new,red,1246.0212418,None,y,1246.0212418,None,"['y', 'return']","[2.5576078000001417, 3.077755199999956]",1246.0212418,None,,,102YC,001,2023_Sep_18_1550,ExactRep-v3-final,2021.2.3,59.92254411947802,
,,,,,,,,,,,,60,0,60,0,,,,,,,,,,,,,,,,,,,,,,,,,,,,,,,,,,,,,,,,,,,,,,,,,1253.9367589,None,,,,,,,,,,,,,,,,,,,,,,,,,,,,,,,,,,,,,,,,,,,,,,,,,,,,,,,,,bar,59,61,silent,old,red,1249.6456358,None,y,1249.6456358,None,"['y', 'return']","[1.5253278000000137, 4.253243800000064]",1249.6456358,None,,,102YC,001,2023_Sep_18_1550,ExactRep-v3-final,2021.2.3,59.92254411947802,
,,,,,,,,,,,,61,0,61,0,,,,,,,,,,,,,,,,,,,,,,,,,,,,,,,,,,,,,,,,,,,,,,,,,1258.1251351,None,,,,,,,,,,,,,,,,,,,,,,,,,,,,,,,,,,,,,,,,,,,,,,,,,,,,,,,,,officer,178,62,aloud,new,blue,1254.4453544,None,n,1254.4453544,None,"['n', 'return']","[3.317547099999956, 3.645615499999849]",1254.4453544,None,,,102YC,001,2023_Sep_18_1550,ExactRep-v3-final,2021.2.3,59.92254411947802,
,,,,,,,,,,,,62,0,62,0,,,,,,,,,,,,,,,,,,,,,,,,,,,,,,,,,,,,,,,,,,,,,,,,,1260.7768006000001,None,,,,,,,,,,,,,,,,,,,,,,,,,,,,,,,,,,,,,,,,,,,,,,,,,,,,,,,,,health,181,63,sing,new,white,1258.6339978,None,n,1258.6339978,None,"['n', 'return']","[1.7451364000000922, 2.096992999999884]",1258.6339978,None,,,102YC,001,2023_Sep_18_1550,ExactRep-v3-final,2021.2.3,59.92254411947802,
,,,,,,,,,,,,63,0,63,0,,,,,,,,,,,,,,,,,,,,,,,,,,,,,,,,,,,,,,,,,,,,,,,,,1263.5648031,None,,,,,,,,,,,,,,,,,,,,,,,,,,,,,,,,,,,,,,,,,,,,,,,,,,,,,,,,,victory,90,64,aloud,old,blue,1261.2873743,None,y,1261.2873743,None,"['y', 'return']","[1.8675267999999505, 2.243515200000047]",1261.2873743,None,,,102YC,001,2023_Sep_18_1550,ExactRep-v3-final,2021.2.3,59.92254411947802,
,,,,,,,,,,,,64,0,64,0,,,,,,,,,,,,,,,,,,,,,,,,,,,,,,,,,,,,,,,,,,,,,,,,,1266.6083079,None,,,,,,,,,,,,,,,,,,,,,,,,,,,,,,,,,,,,,,,,,,,,,,,,,,,,,,,,,meadow,61,65,silent,old,red,1264.0871345,None,y,1264.0871345,None,"['y', 'return']","[1.5957240000000183, 2.4757280000001174]",1264.0871345,None,,,102YC,001,2023_Sep_18_1550,ExactRep-v3-final,2021.2.3,59.92254411947802,
,,,,,,,,,,,,65,0,65,0,,,,,,,,,,,,,,,,,,,,,,,,,,,,,,,,,,,,,,,,,,,,,,,,,1270.3874146,None,,,,,,,,,,,,,,,,,,,,,,,,,,,,,,,,,,,,,,,,,,,,,,,,,,,,,,,,,circle,239,66,sing,new,white,1267.1266594,None,y,1267.1266594,None,"['y', 'return']","[2.8522060999998757, 3.2122301999997944]",1267.1266594,None,,,102YC,001,2023_Sep_18_1550,ExactRep-v3-final,2021.2.3,59.92254411947802,
,,,,,,,,,,,,66,0,66,0,,,,,,,,,,,,,,,,,,,,,,,,,,,,,,,,,,,,,,,,,,,,,,,,,1272.2882582,None,,,,,,,,,,,,,,,,,,,,,,,,,,,,,,,,,,,,,,,,,,,,,,,,,,,,,,,,,toy,1,67,sing,old,white,1270.8961852,None,y,1270.8961852,None,"['y', 'return']","[1.0106829000001198, 1.3547115999999733]",1270.8961852,None,,,102YC,001,2023_Sep_18_1550,ExactRep-v3-final,2021.2.3,59.92254411947802,
,,,,,,,,,,,,67,0,67,0,,,,,,,,,,,,,,,,,,,,,,,,,,,,,,,,,,,,,,,,,,,,,,,,,1275.0577033000002,None,,,,,,,,,,,,,,,,,,,,,,,,,,,,,,,,,,,,,,,,,,,,,,,,,,,,,,,,,pride,142,68,silent,new,red,1272.8074984,None,y,1272.8074984,None,"['y', 'return']","[1.8516111000001274, 2.2034249000000727]",1272.8074984,None,,,102YC,001,2023_Sep_18_1550,ExactRep-v3-final,2021.2.3,59.92254411947802,
,,,,,,,,,,,,68,0,68,0,,,,,,,,,,,,,,,,,,,,,,,,,,,,,,,,,,,,,,,,,,,,,,,,,1278.0773676000001,None,,,,,,,,,,,,,,,,,,,,,,,,,,,,,,,,,,,,,,,,,,,,,,,,,,,,,,,,,safety,166,69,aloud,new,blue,1275.5699184,None,y,1275.5699184,None,"['y', 'return']","[2.145014299999957, 2.464955400000008]",1275.5699184,None,,,102YC,001,2023_Sep_18_1550,ExactRep-v3-final,2021.2.3,59.92254411947802,
,,,,,,,,,,,,69,0,69,0,,,,,,,,,,,,,,,,,,,,,,,,,,,,,,,,,,,,,,,,,,,,,,,,,1280.0460115,None,,,,,,,,,,,,,,,,,,,,,,,,,,,,,,,,,,,,,,,,,,,,,,,,,,,,,,,,,lake,204,70,aloud,new,blue,1278.5904399,None,n,1278.5904399,None,"['n', 'return']","[1.084543100000019, 1.4204011000001628]",1278.5904399,None,,,102YC,001,2023_Sep_18_1550,ExactRep-v3-final,2021.2.3,59.92254411947802,
,,,,,,,,,,,,70,0,70,0,,,,,,,,,,,,,,,,,,,,,,,,,,,,,,,,,,,,,,,,,,,,,,,,,1282.1314631,None,,,,,,,,,,,,,,,,,,,,,,,,,,,,,,,,,,,,,,,,,,,,,,,,,,,,,,,,,queen,123,71,silent,new,red,1280.5576693,None,n,1280.5576693,None,"['n', 'return']","[1.1652100999999675, 1.5332267999999658]",1280.5576693,None,,,102YC,001,2023_Sep_18_1550,ExactRep-v3-final,2021.2.3,59.92254411947802,
,,,,,,,,,,,,71,0,71,0,,,,,,,,,,,,,,,,,,,,,,,,,,,,,,,,,,,,,,,,,,,,,,,,,1285.684929,None,,,,,,,,,,,,,,,,,,,,,,,,,,,,,,,,,,,,,,,,,,,,,,,,,,,,,,,,,pole,98,72,aloud,old,blue,1282.6409723000002,None,n,1282.6409723000002,None,"['n', 'return']","[2.5458227000001443, 3.0020209000001614]",1282.6409723000002,None,,,102YC,001,2023_Sep_18_1550,ExactRep-v3-final,2021.2.3,59.92254411947802,
,,,,,,,,,,,,72,0,72,0,,,,,,,,,,,,,,,,,,,,,,,,,,,,,,,,,,,,,,,,,,,,,,,,,1288.0873323,None,,,,,,,,,,,,,,,,,,,,,,,,,,,,,,,,,,,,,,,,,,,,,,,,,,,,,,,,,party,11,73,sing,old,white,1286.19371,None,y,1286.19371,None,"['y', 'return']","[1.3531847000001562, 1.857174200000145]",1286.19371,None,,,102YC,001,2023_Sep_18_1550,ExactRep-v3-final,2021.2.3,59.92254411947802,
,,,,,,,,,,,,73,0,73,0,,,,,,,,,,,,,,,,,,,,,,,,,,,,,,,,,,,,,,,,,,,,,,,,,1289.9726868,None,,,,,,,,,,,,,,,,,,,,,,,,,,,,,,,,,,,,,,,,,,,,,,,,,,,,,,,,,moral,26,74,sing,old,white,1288.5968745,None,y,1288.5968745,None,"['y', 'return']","[0.9660071000000698, 1.341962599999988]",1288.5968745,None,,,102YC,001,2023_Sep_18_1550,ExactRep-v3-final,2021.2.3,59.92254411947802,
,,,,,,,,,,,,74,0,74,0,,,,,,,,,,,,,,,,,,,,,,,,,,,,,,,,,,,,,,,,,,,,,,,,,1295.0443136000001,None,,,,,,,,,,,,,,,,,,,,,,,,,,,,,,,,,,,,,,,,,,,,,,,,,,,,,,,,,village,182,75,aloud,new,blue,1290.4823165,None,y,1290.4823165,None,"['n', 'backspace', 'y', 'return']","[2.5685025999998743, 3.7845082999999704, 4.152718299999833, 4.520670699999982]",1290.4823165,None,,,102YC,001,2023_Sep_18_1550,ExactRep-v3-final,2021.2.3,59.92254411947802,
,,,,,,,,,,,,75,0,75,0,,,,,,,,,,,,,,,,,,,,,,,,,,,,,,,,,,,,,,,,,,,,,,,,,1297.2632221000001,None,,,,,,,,,,,,,,,,,,,,,,,,,,,,,,,,,,,,,,,,,,,,,,,,,,,,,,,,,poet,152,76,silent,new,red,1295.5506052,None,y,1295.5506052,None,"['y', 'return']","[1.3001363000000765, 1.6681785000000673]",1295.5506052,None,,,102YC,001,2023_Sep_18_1550,ExactRep-v3-final,2021.2.3,59.92254411947802,
,,,,,,,,,,,,76,0,76,0,,,,,,,,,,,,,,,,,,,,,,,,,,,,,,,,,,,,,,,,,,,,,,,,,1299.965922,None,,,,,,,,,,,,,,,,,,,,,,,,,,,,,,,,,,,,,,,,,,,,,,,,,,,,,,,,,fur,184,77,aloud,new,blue,1297.7727676000002,None,n,1297.7727676000002,None,"['n', 'return']","[1.7740499999999884, 2.150063799999998]",1297.7727676000002,None,,,102YC,001,2023_Sep_18_1550,ExactRep-v3-final,2021.2.3,59.92254411947802,
,,,,,,,,,,,,77,0,77,0,,,,,,,,,,,,,,,,,,,,,,,,,,,,,,,,,,,,,,,,,,,,,,,,,1302.4181432,None,,,,,,,,,,,,,,,,,,,,,,,,,,,,,,,,,,,,,,,,,,,,,,,,,,,,,,,,,potato,20,78,sing,old,white,1300.4782852,None,y,1300.4782852,None,"['y', 'return']","[1.5325585000000501, 1.900673500000039]",1300.4782852,None,,,102YC,001,2023_Sep_18_1550,ExactRep-v3-final,2021.2.3,59.92254411947802,
,,,,,,,,,,,,78,0,78,0,,,,,,,,,,,,,,,,,,,,,,,,,,,,,,,,,,,,,,,,,,,,,,,,,1306.0552823,None,,,,,,,,,,,,,,,,,,,,,,,,,,,,,,,,,,,,,,,,,,,,,,,,,,,,,,,,,fate,96,79,aloud,old,blue,1302.9272556,None,y,1302.9272556,None,"['y', 'return']","[2.419878499999868, 3.091751499999873]",1302.9272556,None,,,102YC,001,2023_Sep_18_1550,ExactRep-v3-final,2021.2.3,59.92254411947802,
,,,,,,,,,,,,79,0,79,0,,,,,,,,,,,,,,,,,,,,,,,,,,,,,,,,,,,,,,,,,,,,,,,,,1309.0082379,None,,,,,,,,,,,,,,,,,,,,,,,,,,,,,,,,,,,,,,,,,,,,,,,,,,,,,,,,,mind,205,80,sing,new,white,1306.5638817000001,None,n,1306.5638817000001,None,"['n', 'return']","[2.0391062999999576, 2.3990632999998525]",1306.5638817000001,None,,,102YC,001,2023_Sep_18_1550,ExactRep-v3-final,2021.2.3,59.92254411947802,
,,,,,,,,,,,,80,0,80,0,,,,,,,,,,,,,,,,,,,,,,,,,,,,,,,,,,,,,,,,,,,,,,,,,1310.8933112,None,,,,,,,,,,,,,,,,,,,,,,,,,,,,,,,,,,,,,,,,,,,,,,,,,,,,,,,,,freedom,88,81,aloud,old,blue,1309.5246447000002,None,y,1309.5246447000002,None,"['y', 'return']","[1.0142190999999912, 1.3341772000001129]",1309.5246447000002,None,,,102YC,001,2023_Sep_18_1550,ExactRep-v3-final,2021.2.3,59.92254411947802,
,,,,,,,,,,,,81,0,81,0,,,,,,,,,,,,,,,,,,,,,,,,,,,,,,,,,,,,,,,,,,,,,,,,,1314.9139671,None,,,,,,,,,,,,,,,,,,,,,,,,,,,,,,,,,,,,,,,,,,,,,,,,,,,,,,,,,door,192,82,aloud,new,blue,1311.4048805,None,y,1311.4048805,None,"['y', 'return']","[2.1579755999998724, 3.461972199999991]",1311.4048805,None,,,102YC,001,2023_Sep_18_1550,ExactRep-v3-final,2021.2.3,59.92254411947802,
,,,,,,,,,,,,82,0,82,0,,,,,,,,,,,,,,,,,,,,,,,,,,,,,,,,,,,,,,,,,,,,,,,,,1317.0830449,None,,,,,,,,,,,,,,,,,,,,,,,,,,,,,,,,,,,,,,,,,,,,,,,,,,,,,,,,,event,114,83,aloud,old,blue,1315.429991,None,n,1315.429991,None,"['n', 'return']","[1.2528308000000834, 1.6049809000001005]",1315.429991,None,,,102YC,001,2023_Sep_18_1550,ExactRep-v3-final,2021.2.3,59.92254411947802,
,,,,,,,,,,,,83,0,83,0,,,,,,,,,,,,,,,,,,,,,,,,,,,,,,,,,,,,,,,,,,,,,,,,,1319.6689113,None,,,,,,,,,,,,,,,,,,,,,,,,,,,,,,,,,,,,,,,,,,,,,,,,,,,,,,,,,house,137,84,silent,new,red,1317.5927439000002,None,y,1317.5927439000002,None,"['y', 'return']","[1.6903818000000683, 2.034192200000007]",1317.5927439000002,None,,,102YC,001,2023_Sep_18_1550,ExactRep-v3-final,2021.2.3,59.92254411947802,
,,,,,,,,,,,,84,0,84,0,,,,,,,,,,,,,,,,,,,,,,,,,,,,,,,,,,,,,,,,,,,,,,,,,1322.1547768,None,,,,,,,,,,,,,,,,,,,,,,,,,,,,,,,,,,,,,,,,,,,,,,,,,,,,,,,,,spirit,28,85,sing,old,white,1320.1787317,None,y,1320.1787317,None,"['y', 'return']","[1.5920717999999852, 1.9283152000000428]",1320.1787317,None,,,102YC,001,2023_Sep_18_1550,ExactRep-v3-final,2021.2.3,59.92254411947802,
,,,,,,,,,,,,85,0,85,0,,,,,,,,,,,,,,,,,,,,,,,,,,,,,,,,,,,,,,,,,,,,,,,,,1326.208813,None,,,,,,,,,,,,,,,,,,,,,,,,,,,,,,,,,,,,,,,,,,,,,,,,,,,,,,,,,style,231,86,sing,new,white,1322.6618271,None,n,1322.6618271,None,"['n', 'return']","[3.189171700000088, 3.5012592000000495]",1322.6618271,None,,,102YC,001,2023_Sep_18_1550,ExactRep-v3-final,2021.2.3,59.92254411947802,
,,,,,,,,,,,,86,0,86,0,,,,,,,,,,,,,,,,,,,,,,,,,,,,,,,,,,,,,,,,,,,,,,,,,1328.0940772000001,None,,,,,,,,,,,,,,,,,,,,,,,,,,,,,,,,,,,,,,,,,,,,,,,,,,,,,,,,,science,91,87,aloud,old,blue,1326.7174133,None,y,1326.7174133,None,"['y', 'return']","[0.9814719999999397, 1.3334282000000712]",1326.7174133,None,,,102YC,001,2023_Sep_18_1550,ExactRep-v3-final,2021.2.3,59.92254411947802,
,,,,,,,,,,,,87,0,87,0,,,,,,,,,,,,,,,,,,,,,,,,,,,,,,,,,,,,,,,,,,,,,,,,,1336.8695173,None,,,,,,,,,,,,,,,,,,,,,,,,,,,,,,,,,,,,,,,,,,,,,,,,,,,,,,,,,flood,109,88,aloud,old,blue,1328.6036956,None,y,1328.6036956,None,"['y', 'return']","[7.463109799999984, 8.231151599999976]",1328.6036956,None,,,102YC,001,2023_Sep_18_1550,ExactRep-v3-final,2021.2.3,59.92254411947802,
,,,,,,,,,,,,88,0,88,0,,,,,,,,,,,,,,,,,,,,,,,,,,,,,,,,,,,,,,,,,,,,,,,,,1344.3602796,None,,,,,,,,,,,,,,,,,,,,,,,,,,,,,,,,,,,,,,,,,,,,,,,,,,,,,,,,,soil,126,89,silent,new,red,1337.3782381,None,y,1337.3782381,None,"['y', 'return']","[3.176638000000139, 6.936678100000108]",1337.3782381,None,,,102YC,001,2023_Sep_18_1550,ExactRep-v3-final,2021.2.3,59.92254411947802,
,,,,,,,,,,,,89,0,89,0,,,,,,,,,,,,,,,,,,,,,,,,,,,,,,,,,,,,,,,,,,,,,,,,,1347.0295985,None,,,,,,,,,,,,,,,,,,,,,,,,,,,,,,,,,,,,,,,,,,,,,,,,,,,,,,,,,sky,40,90,silent,old,red,1344.8715892,None,n,1344.8715892,None,"['n', 'return']","[1.7313455999999405, 2.1232265999999527]",1344.8715892,None,,,102YC,001,2023_Sep_18_1550,ExactRep-v3-final,2021.2.3,59.92254411947802,
,,,,,,,,,,,,90,0,90,0,,,,,,,,,,,,,,,,,,,,,,,,,,,,,,,,,,,,,,,,,,,,,,,,,1350.2994773,None,,,,,,,,,,,,,,,,,,,,,,,,,,,,,,,,,,,,,,,,,,,,,,,,,,,,,,,,,mercy,218,91,aloud,new,blue,1347.5396635,None,n,1347.5396635,None,"['n', 'return']","[1.7992724000000635, 2.7191923000000315]",1347.5396635,None,,,102YC,001,2023_Sep_18_1550,ExactRep-v3-final,2021.2.3,59.92254411947802,
,,,,,,,,,,,,91,0,91,0,,,,,,,,,,,,,,,,,,,,,,,,,,,,,,,,,,,,,,,,,,,,,,,,,1352.5851332,None,,,,,,,,,,,,,,,,,,,,,,,,,,,,,,,,,,,,,,,,,,,,,,,,,,,,,,,,,coin,21,92,sing,old,white,1350.8086500000002,None,y,1350.8086500000002,None,"['y', 'return']","[1.3785038999999415, 1.7382959999999912]",1350.8086500000002,None,,,102YC,001,2023_Sep_18_1550,ExactRep-v3-final,2021.2.3,59.92254411947802,
,,,,,,,,,,,,92,0,92,0,,,,,,,,,,,,,,,,,,,,,,,,,,,,,,,,,,,,,,,,,,,,,,,,,1356.9071254,None,,,,,,,,,,,,,,,,,,,,,,,,,,,,,,,,,,,,,,,,,,,,,,,,,,,,,,,,,dream,158,93,silent,new,red,1353.0959525,None,y,1353.0959525,None,"['y', 'return']","[3.4508791000000656, 3.762899500000003]",1353.0959525,None,,,102YC,001,2023_Sep_18_1550,ExactRep-v3-final,2021.2.3,59.92254411947802,
,,,,,,,,,,,,93,0,93,0,,,,,,,,,,,,,,,,,,,,,,,,,,,,,,,,,,,,,,,,,,,,,,,,,1360.6432353,None,,,,,,,,,,,,,,,,,,,,,,,,,,,,,,,,,,,,,,,,,,,,,,,,,,,,,,,,,anger,34,94,sing,old,white,1357.4192203,None,y,1357.4192203,None,"['y', 'return']","[2.8157635999998547, 3.183682099999942]",1357.4192203,None,,,102YC,001,2023_Sep_18_1550,ExactRep-v3-final,2021.2.3,59.92254411947802,
,,,,,,,,,,,,94,0,94,0,,,,,,,,,,,,,,,,,,,,,,,,,,,,,,,,,,,,,,,,,,,,,,,,,1363.329217,None,,,,,,,,,,,,,,,,,,,,,,,,,,,,,,,,,,,,,,,,,,,,,,,,,,,,,,,,,paper,18,95,sing,old,white,1361.1556436,None,n,1361.1556436,None,"['n', 'return']","[1.7834219000001212, 2.1272963999999774]",1361.1556436,None,,,102YC,001,2023_Sep_18_1550,ExactRep-v3-final,2021.2.3,59.92254411947802,
,,,,,,,,,,,,95,0,95,0,,,,,,,,,,,,,,,,,,,,,,,,,,,,,,,,,,,,,,,,,,,,,,,,,1366.1820457000001,None,,,,,,,,,,,,,,,,,,,,,,,,,,,,,,,,,,,,,,,,,,,,,,,,,,,,,,,,,bowl,151,96,silent,new,red,1363.8367189,None,n,1363.8367189,None,"['n', 'return']","[1.998297999999977, 2.3021470999999565]",1363.8367189,None,,,102YC,001,2023_Sep_18_1550,ExactRep-v3-final,2021.2.3,59.92254411947802,
,,,,,,,,,,,,96,0,96,0,,,,,,,,,,,,,,,,,,,,,,,,,,,,,,,,,,,,,,,,,,,,,,,,,1368.6345035000002,None,,,,,,,,,,,,,,,,,,,,,,,,,,,,,,,,,,,,,,,,,,,,,,,,,,,,,,,,,vessel,6,97,sing,old,white,1366.6913514,None,y,1366.6913514,None,"['y', 'return']","[1.59964570000011, 1.9035903000001326]",1366.6913514,None,,,102YC,001,2023_Sep_18_1550,ExactRep-v3-final,2021.2.3,59.92254411947802,
,,,,,,,,,,,,97,0,97,0,,,,,,,,,,,,,,,,,,,,,,,,,,,,,,,,,,,,,,,,,,,,,,,,,1378.0772477,None,,,,,,,,,,,,,,,,,,,,,,,,,,,,,,,,,,,,,,,,,,,,,,,,,,,,,,,,,flag,62,98,silent,old,red,1369.1456519,None,y,1369.1456519,None,"['y', 'return']","[8.401269100000036, 8.889223399999992]",1369.1456519,None,,,102YC,001,2023_Sep_18_1550,ExactRep-v3-final,2021.2.3,59.92254411947802,
,,,,,,,,,,,,98,0,98,0,,,,,,,,,,,,,,,,,,,,,,,,,,,,,,,,,,,,,,,,,,,,,,,,,1380.7466106000002,None,,,,,,,,,,,,,,,,,,,,,,,,,,,,,,,,,,,,,,,,,,,,,,,,,,,,,,,,,volume,63,99,silent,old,red,1378.5897253,None,y,1378.5897253,None,"['y', 'return']","[1.5651417999999921, 2.1171818999998777]",1378.5897253,None,,,102YC,001,2023_Sep_18_1550,ExactRep-v3-final,2021.2.3,59.92254411947802,
,,,,,,,,,,,,99,0,99,0,,,,,,,,,,,,,,,,,,,,,,,,,,,,,,,,,,,,,,,,,,,,,,,,,1383.4326858000002,None,,,,,,,,,,,,,,,,,,,,,,,,,,,,,,,,,,,,,,,,,,,,,,,,,,,,,,,,,deed,112,100,aloud,old,blue,1381.2544696,None,y,1381.2544696,None,"['y', 'return']","[1.5004299000001993, 2.1324667000001227]",1381.2544696,None,,,102YC,001,2023_Sep_18_1550,ExactRep-v3-final,2021.2.3,59.92254411947802,
,,,,,,,,,,,,100,0,100,0,,,,,,,,,,,,,,,,,,,,,,,,,,,,,,,,,,,,,,,,,,,,,,,,,1385.7349096,None,,,,,,,,,,,,,,,,,,,,,,,,,,,,,,,,,,,,,,,,,,,,,,,,,,,,,,,,,sugar,136,101,silent,new,red,1383.9501181,None,n,1383.9501181,None,"['n', 'return']","[1.2688024999999925, 1.7406917999999223]",1383.9501181,None,,,102YC,001,2023_Sep_18_1550,ExactRep-v3-final,2021.2.3,59.92254411947802,
,,,,,,,,,,,,101,0,101,0,,,,,,,,,,,,,,,,,,,,,,,,,,,,,,,,,,,,,,,,,,,,,,,,,1387.9371088,None,,,,,,,,,,,,,,,,,,,,,,,,,,,,,,,,,,,,,,,,,,,,,,,,,,,,,,,,,ability,2,102,sing,old,white,1386.2446857,None,y,1386.2446857,None,"['y', 'return']","[1.1900708999999097, 1.6541896999999608]",1386.2446857,None,,,102YC,001,2023_Sep_18_1550,ExactRep-v3-final,2021.2.3,59.92254411947802,
,,,,,,,,,,,,102,0,102,0,,,,,,,,,,,,,,,,,,,,,,,,,,,,,,,,,,,,,,,,,,,,,,,,,1390.1560104,None,,,,,,,,,,,,,,,,,,,,,,,,,,,,,,,,,,,,,,,,,,,,,,,,,,,,,,,,,memory,155,103,silent,new,red,1388.4540118,None,y,1388.4540118,None,"['y', 'return']","[1.2370017999999163, 1.6609599000000799]",1388.4540118,None,,,102YC,001,2023_Sep_18_1550,ExactRep-v3-final,2021.2.3,59.92254411947802,
,,,,,,,,,,,,103,0,103,0,,,,,,,,,,,,,,,,,,,,,,,,,,,,,,,,,,,,,,,,,,,,,,,,,1392.6918506000002,None,,,,,,,,,,,,,,,,,,,,,,,,,,,,,,,,,,,,,,,,,,,,,,,,,,,,,,,,,hall,5,104,sing,old,white,1390.6696505,None,y,1390.6696505,None,"['y', 'return']","[1.533240400000068, 1.9814516999999796]",1390.6696505,None,,,102YC,001,2023_Sep_18_1550,ExactRep-v3-final,2021.2.3,59.92254411947802,
,,,,,,,,,,,,104,0,104,0,,,,,,,,,,,,,,,,,,,,,,,,,,,,,,,,,,,,,,,,,,,,,,,,,1398.3975706,None,,,,,,,,,,,,,,,,,,,,,,,,,,,,,,,,,,,,,,,,,,,,,,,,,,,,,,,,,cash,148,105,silent,new,red,1393.2029905000002,None,n,1393.2029905000002,None,"['n', 'return']","[4.728141299999834, 5.159824999999955]",1393.2029905000002,None,,,102YC,001,2023_Sep_18_1550,ExactRep-v3-final,2021.2.3,59.92254411947802,
,,,,,,,,,,,,105,0,105,0,,,,,,,,,,,,,,,,,,,,,,,,,,,,,,,,,,,,,,,,,,,,,,,,,1401.1169291,None,,,,,,,,,,,,,,,,,,,,,,,,,,,,,,,,,,,,,,,,,,,,,,,,,,,,,,,,,meeting,228,106,aloud,new,blue,1398.915035,None,y,1398.915035,None,"['y', 'return']","[1.7119225999999799, 2.15978640000003]",1398.915035,None,,,102YC,001,2023_Sep_18_1550,ExactRep-v3-final,2021.2.3,59.92254411947802,
,,,,,,,,,,,,106,0,106,0,,,,,,,,,,,,,,,,,,,,,,,,,,,,,,,,,,,,,,,,,,,,,,,,,1407.1062763,None,,,,,,,,,,,,,,,,,,,,,,,,,,,,,,,,,,,,,,,,,,,,,,,,,,,,,,,,,maiden,7,107,sing,old,white,1401.6274008,None,n,1401.6274008,None,"['y', 'backspace', 'n', 'return']","[3.3754169999999704, 4.423733999999968, 4.991727000000083, 5.439558199999965]",1401.6274008,None,,,102YC,001,2023_Sep_18_1550,ExactRep-v3-final,2021.2.3,59.92254411947802,
,,,,,,,,,,,,107,0,107,0,,,,,,,,,,,,,,,,,,,,,,,,,,,,,,,,,,,,,,,,,,,,,,,,,1410.3595134,None,,,,,,,,,,,,,,,,,,,,,,,,,,,,,,,,,,,,,,,,,,,,,,,,,,,,,,,,,month,97,108,aloud,old,blue,1407.6176897,None,n,1407.6176897,None,"['n', 'return']","[2.2253973999997925, 2.6972615999998197]",1407.6176897,None,,,102YC,001,2023_Sep_18_1550,ExactRep-v3-final,2021.2.3,59.92254411947802,
,,,,,,,,,,,,108,0,108,0,,,,,,,,,,,,,,,,,,,,,,,,,,,,,,,,,,,,,,,,,,,,,,,,,1414.2800949,None,,,,,,,,,,,,,,,,,,,,,,,,,,,,,,,,,,,,,,,,,,,,,,,,,,,,,,,,,blossom,177,109,sing,new,white,1410.8684383,None,n,1410.8684383,None,"['n', 'return']","[2.8384992999999668, 3.366490899999917]",1410.8684383,None,,,102YC,001,2023_Sep_18_1550,ExactRep-v3-final,2021.2.3,59.92254411947802,
,,,,,,,,,,,,109,0,109,0,,,,,,,,,,,,,,,,,,,,,,,,,,,,,,,,,,,,,,,,,,,,,,,,,1416.5990772,None,,,,,,,,,,,,,,,,,,,,,,,,,,,,,,,,,,,,,,,,,,,,,,,,,,,,,,,,,meat,229,110,sing,new,white,1414.7859306,None,n,1414.7859306,None,"['n', 'return']","[1.3530461999998806, 1.7688894000000346]",1414.7859306,None,,,102YC,001,2023_Sep_18_1550,ExactRep-v3-final,2021.2.3,59.92254411947802,
,,,,,,,,,,,,110,0,110,0,,,,,,,,,,,,,,,,,,,,,,,,,,,,,,,,,,,,,,,,,,,,,,,,,1419.4852501,None,,,,,,,,,,,,,,,,,,,,,,,,,,,,,,,,,,,,,,,,,,,,,,,,,,,,,,,,,seat,53,111,silent,old,red,1417.0995683,None,n,1417.0995683,None,"['n', 'return']","[1.9113038000000415, 2.3512713000000076]",1417.0995683,None,,,102YC,001,2023_Sep_18_1550,ExactRep-v3-final,2021.2.3,59.92254411947802,
,,,,,,,,,,,,111,0,111,0,,,,,,,,,,,,,,,,,,,,,,,,,,,,,,,,,,,,,,,,,,,,,,,,,1422.6885152,None,,,,,,,,,,,,,,,,,,,,,,,,,,,,,,,,,,,,,,,,,,,,,,,,,,,,,,,,,passion,39,112,silent,old,red,1419.9934316000001,None,y,1419.9934316000001,None,"['y', 'return']","[1.3055424000001494, 2.6574273000001085]",1419.9934316000001,None,,,102YC,001,2023_Sep_18_1550,ExactRep-v3-final,2021.2.3,59.92254411947802,
,,,,,,,,,,,,112,0,112,0,,,,,,,,,,,,,,,,,,,,,,,,,,,,,,,,,,,,,,,,,,,,,,,,,1424.9073405000001,None,,,,,,,,,,,,,,,,,,,,,,,,,,,,,,,,,,,,,,,,,,,,,,,,,,,,,,,,,flesh,50,113,silent,old,red,1423.1963076000002,None,n,1423.1963076000002,None,"['n', 'return']","[1.2704447999999502, 1.6705865999999787]",1423.1963076000002,None,,,102YC,001,2023_Sep_18_1550,ExactRep-v3-final,2021.2.3,59.92254411947802,
,,,,,,,,,,,,113,0,113,0,,,,,,,,,,,,,,,,,,,,,,,,,,,,,,,,,,,,,,,,,,,,,,,,,1428.0938941000002,None,,,,,,,,,,,,,,,,,,,,,,,,,,,,,,,,,,,,,,,,,,,,,,,,,,,,,,,,,quality,25,114,sing,old,white,1425.4165438,None,y,1425.4165438,None,"['y', 'return']","[1.66630310000005, 2.642390199999909]",1425.4165438,None,,,102YC,001,2023_Sep_18_1550,ExactRep-v3-final,2021.2.3,59.92254411947802,
,,,,,,,,,,,,114,0,114,0,,,,,,,,,,,,,,,,,,,,,,,,,,,,,,,,,,,,,,,,,,,,,,,,,1431.5139777000002,None,,,,,,,,,,,,,,,,,,,,,,,,,,,,,,,,,,,,,,,,,,,,,,,,,,,,,,,,,king,208,115,aloud,new,blue,1428.6044658,None,y,1428.6044658,None,"['y', 'return']","[2.3825369999999566, 2.8624873999999636]",1428.6044658,None,,,102YC,001,2023_Sep_18_1550,ExactRep-v3-final,2021.2.3,59.92254411947802,
,,,,,,,,,,,,115,0,115,0,,,,,,,,,,,,,,,,,,,,,,,,,,,,,,,,,,,,,,,,,,,,,,,,,1433.94973,None,,,,,,,,,,,,,,,,,,,,,,,,,,,,,,,,,,,,,,,,,,,,,,,,,,,,,,,,,blood,94,116,aloud,old,blue,1432.0259516,None,y,1432.0259516,None,"['y', 'return']","[1.1769216000000142, 1.8808938000001945]",1432.0259516,None,,,102YC,001,2023_Sep_18_1550,ExactRep-v3-final,2021.2.3,59.92254411947802,
,,,,,,,,,,,,116,0,116,0,,,,,,,,,,,,,,,,,,,,,,,,,,,,,,,,,,,,,,,,,,,,,,,,,1436.151883,None,,,,,,,,,,,,,,,,,,,,,,,,,,,,,,,,,,,,,,,,,,,,,,,,,,,,,,,,,teacher,57,117,silent,old,red,1434.4625715,None,n,1434.4625715,None,"['n', 'return']","[1.2843657000000803, 1.6523089000002074]",1434.4625715,None,,,102YC,001,2023_Sep_18_1550,ExactRep-v3-final,2021.2.3,59.92254411947802,
,,,,,,,,,,,,117,0,117,0,,,,,,,,,,,,,,,,,,,,,,,,,,,,,,,,,,,,,,,,,,,,,,,,,1438.4542505000002,None,,,,,,,,,,,,,,,,,,,,,,,,,,,,,,,,,,,,,,,,,,,,,,,,,,,,,,,,,cotton,199,118,sing,new,white,1436.6641529,None,n,1436.6641529,None,"['n', 'return']","[1.2746970000000601, 1.7467584999999417]",1436.6641529,None,,,102YC,001,2023_Sep_18_1550,ExactRep-v3-final,2021.2.3,59.92254411947802,
,,,,,,,,,,,,118,0,118,0,,,,,,,,,,,,,,,,,,,,,,,,,,,,,,,,,,,,,,,,,,,,,,,,,1440.4729922000001,None,,,,,,,,,,,,,,,,,,,,,,,,,,,,,,,,,,,,,,,,,,,,,,,,,,,,,,,,,camp,169,119,sing,new,white,1438.9570256000002,None,n,1438.9570256000002,None,"['n', 'return']","[1.0700600000000122, 1.4699212000000443]",1438.9570256000002,None,,,102YC,001,2023_Sep_18_1550,ExactRep-v3-final,2021.2.3,59.92254411947802,
,,,,,,,,,,,,119,0,119,0,,,,,,,,,,,,,,,,,,,,,,,,,,,,,,,,,,,,,,,,,,,,,,,,,1442.8586051,None,,,,,,,,,,,,,,,,,,,,,,,,,,,,,,,,,,,,,,,,,,,,,,,,,,,,,,,,,justice,105,120,aloud,old,blue,1440.9858100000001,None,y,1440.9858100000001,None,"['y', 'return']","[1.2570894999998927, 1.8330298999999286]",1440.9858100000001,None,,,102YC,001,2023_Sep_18_1550,ExactRep-v3-final,2021.2.3,59.92254411947802,
,,,,,,,,,,,,120,0,120,0,,,,,,,,,,,,,,,,,,,,,,,,,,,,,,,,,,,,,,,,,,,,,,,,,1445.2115879,None,,,,,,,,,,,,,,,,,,,,,,,,,,,,,,,,,,,,,,,,,,,,,,,,,,,,,,,,,car,22,121,sing,old,white,1443.3675271,None,y,1443.3675271,None,"['y', 'return']","[1.3952997000001233, 1.803425500000003]",1443.3675271,None,,,102YC,001,2023_Sep_18_1550,ExactRep-v3-final,2021.2.3,59.92254411947802,
,,,,,,,,,,,,121,0,121,0,,,,,,,,,,,,,,,,,,,,,,,,,,,,,,,,,,,,,,,,,,,,,,,,,1447.4299093,None,,,,,,,,,,,,,,,,,,,,,,,,,,,,,,,,,,,,,,,,,,,,,,,,,,,,,,,,,salary,33,122,sing,old,white,1445.7216658,None,y,1445.7216658,None,"['y', 'return']","[1.2491757000000234, 1.6731916999999612]",1445.7216658,None,,,102YC,001,2023_Sep_18_1550,ExactRep-v3-final,2021.2.3,59.92254411947802,
,,,,,,,,,,,,122,0,122,0,,,,,,,,,,,,,,,,,,,,,,,,,,,,,,,,,,,,,,,,,,,,,,,,,1449.381845,None,,,,,,,,,,,,,,,,,,,,,,,,,,,,,,,,,,,,,,,,,,,,,,,,,,,,,,,,,temple,167,123,sing,new,white,1447.9301139000002,None,n,1447.9301139000002,None,"['n', 'return']","[1.0406444000000192, 1.408746100000144]",1447.9301139000002,None,,,102YC,001,2023_Sep_18_1550,ExactRep-v3-final,2021.2.3,59.92254411947802,
,,,,,,,,,,,,123,0,123,0,,,,,,,,,,,,,,,,,,,,,,,,,,,,,,,,,,,,,,,,,,,,,,,,,1451.3670649,None,,,,,,,,,,,,,,,,,,,,,,,,,,,,,,,,,,,,,,,,,,,,,,,,,,,,,,,,,earth,36,124,sing,old,white,1449.8912956000001,None,y,1449.8912956000001,None,"['y', 'return']","[1.0877192000000377, 1.439770499999895]",1449.8912956000001,None,,,102YC,001,2023_Sep_18_1550,ExactRep-v3-final,2021.2.3,59.92254411947802,
,,,,,,,,,,,,124,0,124,0,,,,,,,,,,,,,,,,,,,,,,,,,,,,,,,,,,,,,,,,,,,,,,,,,1453.6360733000001,None,,,,,,,,,,,,,,,,,,,,,,,,,,,,,,,,,,,,,,,,,,,,,,,,,,,,,,,,,cost,29,125,sing,old,white,1451.8744066000002,None,n,1451.8744066000002,None,"['n', 'return']","[1.3604189000000133, 1.7205260999999155]",1451.8744066000002,None,,,102YC,001,2023_Sep_18_1550,ExactRep-v3-final,2021.2.3,59.92254411947802,
,,,,,,,,,,,,125,0,125,0,,,,,,,,,,,,,,,,,,,,,,,,,,,,,,,,,,,,,,,,,,,,,,,,,1458.2406349,None,,,,,,,,,,,,,,,,,,,,,,,,,,,,,,,,,,,,,,,,,,,,,,,,,,,,,,,,,shock,80,126,aloud,old,blue,1454.1491183,None,y,1454.1491183,None,"['y', 'return']","[3.693819000000076, 4.053851699999996]",1454.1491183,None,,,102YC,001,2023_Sep_18_1550,ExactRep-v3-final,2021.2.3,59.92254411947802,
,,,,,,,,,,,,126,0,126,0,,,,,,,,,,,,,,,,,,,,,,,,,,,,,,,,,,,,,,,,,,,,,,,,,1460.3595032,None,,,,,,,,,,,,,,,,,,,,,,,,,,,,,,,,,,,,,,,,,,,,,,,,,,,,,,,,,beast,16,127,sing,old,white,1458.7530245,None,y,1458.7530245,None,"['y', 'return']","[1.2018883999999161, 1.5617766999998821]",1458.7530245,None,,,102YC,001,2023_Sep_18_1550,ExactRep-v3-final,2021.2.3,59.92254411947802,
,,,,,,,,,,,,127,0,127,0,,,,,,,,,,,,,,,,,,,,,,,,,,,,,,,,,,,,,,,,,,,,,,,,,1462.5950280000002,None,,,,,,,,,,,,,,,,,,,,,,,,,,,,,,,,,,,,,,,,,,,,,,,,,,,,,,,,,coffee,41,128,silent,old,red,1460.8692274,None,n,1460.8692274,None,"['n', 'return']","[1.357542199999898, 1.6936181999999462]",1460.8692274,None,,,102YC,001,2023_Sep_18_1550,ExactRep-v3-final,2021.2.3,59.92254411947802,
,,,,,,,,,,,,128,0,128,0,,,,,,,,,,,,,,,,,,,,,,,,,,,,,,,,,,,,,,,,,,,,,,,,,1464.9975812,None,,,,,,,,,,,,,,,,,,,,,,,,,,,,,,,,,,,,,,,,,,,,,,,,,,,,,,,,,ticket,227,129,sing,new,white,1463.1073575,None,n,1463.1073575,None,"['n', 'return']","[1.527485100000149, 1.847506199999998]",1463.1073575,None,,,102YC,001,2023_Sep_18_1550,ExactRep-v3-final,2021.2.3,59.92254411947802,
,,,,,,,,,,,,129,0,129,0,,,,,,,,,,,,,,,,,,,,,,,,,,,,,,,,,,,,,,,,,,,,,,,,,1470.8867118,None,,,,,,,,,,,,,,,,,,,,,,,,,,,,,,,,,,,,,,,,,,,,,,,,,,,,,,,,,chair,238,130,aloud,new,blue,1465.5018631,None,y,1465.5018631,None,"['y', 'return']","[4.949075499999935, 5.349017899999808]",1465.5018631,None,,,102YC,001,2023_Sep_18_1550,ExactRep-v3-final,2021.2.3,59.92254411947802,
,,,,,,,,,,,,130,0,130,0,,,,,,,,,,,,,,,,,,,,,,,,,,,,,,,,,,,,,,,,,,,,,,,,,1474.6236948,None,,,,,,,,,,,,,,,,,,,,,,,,,,,,,,,,,,,,,,,,,,,,,,,,,,,,,,,,,troops,32,131,sing,old,white,1471.3948307,None,y,1471.3948307,None,"['n', 'backspace', 'y', 'return']","[1.3759992999998758, 2.208158499999854, 2.703998499999898, 3.192089699999997]",1471.3948307,None,,,102YC,001,2023_Sep_18_1550,ExactRep-v3-final,2021.2.3,59.92254411947802,
,,,,,,,,,,,,131,0,131,0,,,,,,,,,,,,,,,,,,,,,,,,,,,,,,,,,,,,,,,,,,,,,,,,,1476.9427127000001,None,,,,,,,,,,,,,,,,,,,,,,,,,,,,,,,,,,,,,,,,,,,,,,,,,,,,,,,,,machine,216,132,aloud,new,blue,1475.1334905,None,n,1475.1334905,None,"['n', 'return']","[1.4134010000000217, 1.7733746999999767]",1475.1334905,None,,,102YC,001,2023_Sep_18_1550,ExactRep-v3-final,2021.2.3,59.92254411947802,
,,,,,,,,,,,,132,0,132,0,,,,,,,,,,,,,,,,,,,,,,,,,,,,,,,,,,,,,,,,,,,,,,,,,1479.0614915,None,,,,,,,,,,,,,,,,,,,,,,,,,,,,,,,,,,,,,,,,,,,,,,,,,,,,,,,,,lad,27,133,sing,old,white,1477.4552445000002,None,y,1477.4552445000002,None,"['y', 'return']","[1.1155876000000262, 1.563611999999921]",1477.4552445000002,None,,,102YC,001,2023_Sep_18_1550,ExactRep-v3-final,2021.2.3,59.92254411947802,
,,,,,,,,,,,,133,0,133,0,,,,,,,,,,,,,,,,,,,,,,,,,,,,,,,,,,,,,,,,,,,,,,,,,1481.0135715000001,None,,,,,,,,,,,,,,,,,,,,,,,,,,,,,,,,,,,,,,,,,,,,,,,,,,,,,,,,,wine,15,134,sing,old,white,1479.5694603000002,None,y,1479.5694603000002,None,"['y', 'return']","[1.0173635000001013, 1.4093681000001652]",1479.5694603000002,None,,,102YC,001,2023_Sep_18_1550,ExactRep-v3-final,2021.2.3,59.92254411947802,
,,,,,,,,,,,,134,0,134,0,,,,,,,,,,,,,,,,,,,,,,,,,,,,,,,,,,,,,,,,,,,,,,,,,1483.4992260000001,None,,,,,,,,,,,,,,,,,,,,,,,,,,,,,,,,,,,,,,,,,,,,,,,,,,,,,,,,,boulder,236,135,aloud,new,blue,1481.5255463,None,n,1481.5255463,None,"['n', 'return']","[1.517312400000037, 1.9254762000000483]",1481.5255463,None,,,102YC,001,2023_Sep_18_1550,ExactRep-v3-final,2021.2.3,59.92254411947802,
,,,,,,,,,,,,135,0,135,0,,,,,,,,,,,,,,,,,,,,,,,,,,,,,,,,,,,,,,,,,,,,,,,,,1486.9527424,None,,,,,,,,,,,,,,,,,,,,,,,,,,,,,,,,,,,,,,,,,,,,,,,,,,,,,,,,,dollar,46,136,silent,old,red,1484.0091441000002,None,n,1484.0091441000002,None,"['n', 'return']","[2.5297107000001233, 2.9057252000000062]",1484.0091441000002,None,,,102YC,001,2023_Sep_18_1550,ExactRep-v3-final,2021.2.3,59.92254411947802,
,,,,,,,,,,,,136,0,136,0,,,,,,,,,,,,,,,,,,,,,,,,,,,,,,,,,,,,,,,,,,,,,,,,,1489.7221499,None,,,,,,,,,,,,,,,,,,,,,,,,,,,,,,,,,,,,,,,,,,,,,,,,,,,,,,,,,avenue,206,137,aloud,new,blue,1487.4622483,None,y,1487.4622483,None,"['y', 'return']","[1.8366734000001088, 2.2206441999999242]",1487.4622483,None,,,102YC,001,2023_Sep_18_1550,ExactRep-v3-final,2021.2.3,59.92254411947802,
,,,,,,,,,,,,137,0,137,0,,,,,,,,,,,,,,,,,,,,,,,,,,,,,,,,,,,,,,,,,,,,,,,,,1491.8743163000001,None,,,,,,,,,,,,,,,,,,,,,,,,,,,,,,,,,,,,,,,,,,,,,,,,,,,,,,,,,square,107,138,aloud,old,blue,1490.2266639000002,None,y,1490.2266639000002,None,"['y', 'return']","[1.2003784999999425, 1.6002063999999336]",1490.2266639000002,None,,,102YC,001,2023_Sep_18_1550,ExactRep-v3-final,2021.2.3,59.92254411947802,
,,,,,,,,,,,,138,0,138,0,,,,,,,,,,,,,,,,,,,,,,,,,,,,,,,,,,,,,,,,,,,,,,,,,1497.8969453,None,,,,,,,,,,,,,,,,,,,,,,,,,,,,,,,,,,,,,,,,,,,,,,,,,,,,,,,,,master,141,139,silent,new,red,1492.385044,None,y,1492.385044,None,"['y', 'return']","[5.113784900000155, 5.465840800000024]",1492.385044,None,,,102YC,001,2023_Sep_18_1550,ExactRep-v3-final,2021.2.3,59.92254411947802,
