trials_fam.thisRepN,trials_fam.thisTrialN,trials_fam.thisN,trials_fam.thisIndex,trials_prc.thisRepN,trials_prc.thisTrialN,trials_prc.thisN,trials_prc.thisIndex,StudyLoop.thisRepN,StudyLoop.thisTrialN,StudyLoop.thisN,StudyLoop.thisIndex,TestLoop.thisRepN,TestLoop.thisTrialN,TestLoop.thisN,TestLoop.thisIndex,text_colortest.started,text_colortest.stopped,key_colortest.keys,key_colortest.rt,key_colortest.started,key_colortest.stopped,textCondition.started,textCondition.stopped,keyCondition.keys,keyCondition.rt,keyCondition.started,keyCondition.stopped,Condition_between,Condition_counterbal,keyWelcome.keys,keyWelcome.rt,keyWelcome.started,keyWelcome.stopped,welcome_a.started,welcome_a.stopped,welcome_b.started,welcome_b.stopped,welcome_c.started,welcome_c.stopped,welcome_d.started,welcome_d.stopped,welcome_e.started,welcome_e.stopped,welcome_f.started,welcome_f.stopped,key_resp_fam_inst.keys,key_resp_fam_inst.rt,key_resp_fam_inst.started,key_resp_fam_inst.stopped,fam_a.started,fam_a.stopped,fam_b.started,fam_b.stopped,fam_c.started,fam_c.stopped,fam_d.started,fam_d.stopped,fam_e.started,fam_e.stopped,fam_f.started,fam_f.stopped,text_famil.started,text_famil.stopped,textBlank500.started,textBlank500.stopped,key_resp_prc_inst.keys,key_resp_prc_inst.rt,key_resp_prc_inst.started,key_resp_prc_inst.stopped,prac_a.started,prac_a.stopped,prac_b.started,prac_b.stopped,prac_c.started,prac_c.stopped,prac_d.started,prac_d.stopped,prac_e.started,prac_e.stopped,prac_f.started,prac_f.stopped,text_prc_trial.started,text_prc_trial.stopped,key_resp_study_inst.keys,key_resp_study_inst.rt,key_resp_study_inst.started,key_resp_study_inst.stopped,crit_a.started,crit_a.stopped,crit_b.started,crit_b.stopped,crit_c.started,crit_c.stopped,crit_d.started,crit_d.stopped,crit_e.started,crit_e.stopped,crit_f.started,crit_f.stopped,study_word,study_num,study_order,study_type,word_color,textStudy.started,textStudy.stopped,keyStudy.keys,keyStudy.started,keyStudy.stopped,post_study.started,post_study.stopped,key_resp_post_study.keys,key_resp_post_study.rt,key_resp_post_study.started,key_resp_post_study.stopped,test_inst.started,test_inst.stopped,key_resp_test_inst.keys,key_resp_test_inst.rt,key_resp_test_inst.started,key_resp_test_inst.stopped,test_word,test_num,test_order,test_condition,old_new_test,word_color_test,textConf.started,textConf.stopped,Participant Response,textInput.started,textInput.stopped,keyResp.keys,keyResp.rt,keyResp.started,keyResp.stopped,textEnd.started,textEnd.stopped,participant,session,date,expName,psychopyVersion,frameRate,
,,,,,,,,,,,,,,,,20.189484199989238,None,n,1.3856823999958578,20.189484199989238,None,,,,,,,,,,,,,,,,,,,,,,,,,,,,,,,,,,,,,,,,,,,,,,,,,,,,,,,,,,,,,,,,,,,,,,,,,,,,,,,,,,,,,,,,,,,,,,,,,,,,,,,,,,,,,,,,,,,,,,10,001,2023_Feb_15_0945,ExactRep-v3-final,2021.2.3,59.91292256139037,
,,,,,,,,,,,,,,,,,,,,,,21.591718899988336,None,d,1.3995610999991186,21.591718899988336,None,,,,,,,,,,,,,,,,,,,,,,,,,,,,,,,,,,,,,,,,,,,,,,,,,,,,,,,,,,,,,,,,,,,,,,,,,,,,,,,,,,,,,,,,,,,,,,,,,,,,,,,,,,,,,,,,10,001,2023_Feb_15_0945,ExactRep-v3-final,2021.2.3,59.91292256139037,
,,,,,,,,,,,,,,,,,,,,,,,,,,,,whitefoils,d,space,682.6393219999882,33.12057439998898,None,,,,,,,,,,,,,,,,,,,,,,,,,,,,,,,,,,,,,,,,,,,,,,,,,,,,,,,,,,,,,,,,,,,,,,,,,,,,,,,,,,,,,,,,,,,,,,,,,,,,,,,,,,10,001,2023_Feb_15_0945,ExactRep-v3-final,2021.2.3,59.91292256139037,
,,,,,,,,,,,,,,,,,,,,,,,,,,,,,,,,,,23.184452599991346,None,23.184452599991346,None,23.184452599991346,None,23.184452599991346,None,23.184452599991346,None,23.184452599991346,None,space,20.23008490000211,725.8740399999951,None,,,,,,,,,,,,,,,,,,,,,,,,,,,,,,,,,,,,,,,,,,,,,,,,,,,,,,,,,,,,,,,,,,,,,,,,,,,,,,,,,,,,,,,,,,10,001,2023_Feb_15_0945,ExactRep-v3-final,2021.2.3,59.91292256139037,
0,0,0,0,,,,,,,,,,,,,,,,,,,,,,,,,,,,,,,,,,,,,,,,,,,,,,,715.903407699996,None,715.903407699996,None,715.903407699996,None,715.903407699996,None,715.903407699996,None,715.903407699996,None,746.1860180999938,None,748.1848503999936,None,,,,,,,,,,,,,,,,,,,,,,,,,,,,,,,,,,,,,,,,,,,,,,,,,,,,,,,,,,,,,,,,,,,,,,,,,,10,001,2023_Feb_15_0945,ExactRep-v3-final,2021.2.3,59.91292256139037,
1,0,1,0,,,,,,,,,,,,,,,,,,,,,,,,,,,,,,,,,,,,,,,,,,,,,,,,,,,,,,,,,,,748.7114648999996,None,750.7037492999953,None,,,,,,,,,,,,,,,,,,,,,,,,,,,,,,,,,,,,,,,,,,,,,,,,,,,,,,,,,,,,,,,,,,,,,,,,,,10,001,2023_Feb_15_0945,ExactRep-v3-final,2021.2.3,59.91292256139037,
2,0,2,0,,,,,,,,,,,,,,,,,,,,,,,,,,,,,,,,,,,,,,,,,,,,,,,,,,,,,,,,,,,751.2045481999958,None,753.2063721999875,None,,,,,,,,,,,,,,,,,,,,,,,,,,,,,,,,,,,,,,,,,,,,,,,,,,,,,,,,,,,,,,,,,,,,,,,,,,10,001,2023_Feb_15_0945,ExactRep-v3-final,2021.2.3,59.91292256139037,
3,0,3,0,,,,,,,,,,,,,,,,,,,,,,,,,,,,,,,,,,,,,,,,,,,,,,,,,,,,,,,,,,,753.7071363999858,None,755.7092382999981,None,,,,,,,,,,,,,,,,,,,,,,,,,,,,,,,,,,,,,,,,,,,,,,,,,,,,,,,,,,,,,,,,,,,,,,,,,,10,001,2023_Feb_15_0945,ExactRep-v3-final,2021.2.3,59.91292256139037,
4,0,4,0,,,,,,,,,,,,,,,,,,,,,,,,,,,,,,,,,,,,,,,,,,,,,,,,,,,,,,,,,,,756.2096087999962,None,758.2113029999891,None,,,,,,,,,,,,,,,,,,,,,,,,,,,,,,,,,,,,,,,,,,,,,,,,,,,,,,,,,,,,,,,,,,,,,,,,,,10,001,2023_Feb_15_0945,ExactRep-v3-final,2021.2.3,59.91292256139037,
5,0,5,0,,,,,,,,,,,,,,,,,,,,,,,,,,,,,,,,,,,,,,,,,,,,,,,,,,,,,,,,,,,758.7407378999924,None,760.730490099988,None,,,,,,,,,,,,,,,,,,,,,,,,,,,,,,,,,,,,,,,,,,,,,,,,,,,,,,,,,,,,,,,,,,,,,,,,,,10,001,2023_Feb_15_0945,ExactRep-v3-final,2021.2.3,59.91292256139037,
6,0,6,0,,,,,,,,,,,,,,,,,,,,,,,,,,,,,,,,,,,,,,,,,,,,,,,,,,,,,,,,,,,761.2312747999968,None,763.2330460999947,None,,,,,,,,,,,,,,,,,,,,,,,,,,,,,,,,,,,,,,,,,,,,,,,,,,,,,,,,,,,,,,,,,,,,,,,,,,10,001,2023_Feb_15_0945,ExactRep-v3-final,2021.2.3,59.91292256139037,
7,0,7,0,,,,,,,,,,,,,,,,,,,,,,,,,,,,,,,,,,,,,,,,,,,,,,,,,,,,,,,,,,,763.7337933999952,None,765.7356049999944,None,,,,,,,,,,,,,,,,,,,,,,,,,,,,,,,,,,,,,,,,,,,,,,,,,,,,,,,,,,,,,,,,,,,,,,,,,,10,001,2023_Feb_15_0945,ExactRep-v3-final,2021.2.3,59.91292256139037,
8,0,8,0,,,,,,,,,,,,,,,,,,,,,,,,,,,,,,,,,,,,,,,,,,,,,,,,,,,,,,,,,,,766.2384389999934,None,768.2382985999866,None,,,,,,,,,,,,,,,,,,,,,,,,,,,,,,,,,,,,,,,,,,,,,,,,,,,,,,,,,,,,,,,,,,,,,,,,,,10,001,2023_Feb_15_0945,ExactRep-v3-final,2021.2.3,59.91292256139037,
9,0,9,0,,,,,,,,,,,,,,,,,,,,,,,,,,,,,,,,,,,,,,,,,,,,,,,,,,,,,,,,,,,768.7419788999978,None,770.7571229999885,None,,,,,,,,,,,,,,,,,,,,,,,,,,,,,,,,,,,,,,,,,,,,,,,,,,,,,,,,,,,,,,,,,,,,,,,,,,10,001,2023_Feb_15_0945,ExactRep-v3-final,2021.2.3,59.91292256139037,
10,0,10,0,,,,,,,,,,,,,,,,,,,,,,,,,,,,,,,,,,,,,,,,,,,,,,,,,,,,,,,,,,,771.2579673999862,None,773.2597603999893,None,,,,,,,,,,,,,,,,,,,,,,,,,,,,,,,,,,,,,,,,,,,,,,,,,,,,,,,,,,,,,,,,,,,,,,,,,,10,001,2023_Feb_15_0945,ExactRep-v3-final,2021.2.3,59.91292256139037,
11,0,11,0,,,,,,,,,,,,,,,,,,,,,,,,,,,,,,,,,,,,,,,,,,,,,,,,,,,,,,,,,,,773.7601399999985,None,775.7624683999893,None,,,,,,,,,,,,,,,,,,,,,,,,,,,,,,,,,,,,,,,,,,,,,,,,,,,,,,,,,,,,,,,,,,,,,,,,,,10,001,2023_Feb_15_0945,ExactRep-v3-final,2021.2.3,59.91292256139037,
12,0,12,0,,,,,,,,,,,,,,,,,,,,,,,,,,,,,,,,,,,,,,,,,,,,,,,,,,,,,,,,,,,776.2638380999997,None,778.265015099998,None,,,,,,,,,,,,,,,,,,,,,,,,,,,,,,,,,,,,,,,,,,,,,,,,,,,,,,,,,,,,,,,,,,,,,,,,,,10,001,2023_Feb_15_0945,ExactRep-v3-final,2021.2.3,59.91292256139037,
13,0,13,0,,,,,,,,,,,,,,,,,,,,,,,,,,,,,,,,,,,,,,,,,,,,,,,,,,,,,,,,,,,778.7655977999966,None,780.7673055999912,None,,,,,,,,,,,,,,,,,,,,,,,,,,,,,,,,,,,,,,,,,,,,,,,,,,,,,,,,,,,,,,,,,,,,,,,,,,10,001,2023_Feb_15_0945,ExactRep-v3-final,2021.2.3,59.91292256139037,
14,0,14,0,,,,,,,,,,,,,,,,,,,,,,,,,,,,,,,,,,,,,,,,,,,,,,,,,,,,,,,,,,,781.2680809999874,None,783.2701330999989,None,,,,,,,,,,,,,,,,,,,,,,,,,,,,,,,,,,,,,,,,,,,,,,,,,,,,,,,,,,,,,,,,,,,,,,,,,,10,001,2023_Feb_15_0945,ExactRep-v3-final,2021.2.3,59.91292256139037,
,,,,,,,,,,,,,,,,,,,,,,,,,,,,,,,,,,,,,,,,,,,,,,,,,,,,,,,,,,,,,,,,,,space,5.675168300003861,793.9007118999871,None,,,,,,,,,,,,,,,,,,,,,,,,,,,,,,,,,,,,,,,,,,,,,,,,,,,,,,,,,,,,,,,,,,,,,,10,001,2023_Feb_15_0945,ExactRep-v3-final,2021.2.3,59.91292256139037,
,,,,0,0,0,0,,,,,,,,,,,,,,,,,,,,,,,,,,,,,,,,,,,,,,,,,,,,,,,,,,,,,,,,,801.6883529999905,None,,,,,783.9535380999878,None,783.9535380999878,None,783.9535380999878,None,783.9535380999878,None,783.9535380999878,None,783.9535380999878,None,799.681566299987,None,,,,,,,,,,,,,,,,,,,,,,,,,,,,,,,,,,,,,,,,,,,,,,,,,,,,,,,,10,001,2023_Feb_15_0945,ExactRep-v3-final,2021.2.3,59.91292256139037,
,,,,1,0,1,0,,,,,,,,,,,,,,,,,,,,,,,,,,,,,,,,,,,,,,,,,,,,,,,,,,,,,,,,,804.1909214999905,None,,,,,,,,,,,,,,,,,802.1890396999952,None,,,,,,,,,,,,,,,,,,,,,,,,,,,,,,,,,,,,,,,,,,,,,,,,,,,,,,,,10,001,2023_Feb_15_0945,ExactRep-v3-final,2021.2.3,59.91292256139037,
,,,,2,0,2,0,,,,,,,,,,,,,,,,,,,,,,,,,,,,,,,,,,,,,,,,,,,,,,,,,,,,,,,,,806.6931874999864,None,,,,,,,,,,,,,,,,,804.6914251999988,None,,,,,,,,,,,,,,,,,,,,,,,,,,,,,,,,,,,,,,,,,,,,,,,,,,,,,,,,10,001,2023_Feb_15_0945,ExactRep-v3-final,2021.2.3,59.91292256139037,
,,,,3,0,3,0,,,,,,,,,,,,,,,,,,,,,,,,,,,,,,,,,,,,,,,,,,,,,,,,,,,,,,,,,809.1958645999985,None,,,,,,,,,,,,,,,,,807.1936966999929,None,,,,,,,,,,,,,,,,,,,,,,,,,,,,,,,,,,,,,,,,,,,,,,,,,,,,,,,,10,001,2023_Feb_15_0945,ExactRep-v3-final,2021.2.3,59.91292256139037,
,,,,4,0,4,0,,,,,,,,,,,,,,,,,,,,,,,,,,,,,,,,,,,,,,,,,,,,,,,,,,,,,,,,,811.69834789999,None,,,,,,,,,,,,,,,,,809.6961666999996,None,,,,,,,,,,,,,,,,,,,,,,,,,,,,,,,,,,,,,,,,,,,,,,,,,,,,,,,,10,001,2023_Feb_15_0945,ExactRep-v3-final,2021.2.3,59.91292256139037,
,,,,5,0,5,0,,,,,,,,,,,,,,,,,,,,,,,,,,,,,,,,,,,,,,,,,,,,,,,,,,,,,,,,,814.2009239999898,None,,,,,,,,,,,,,,,,,812.1988814999931,None,,,,,,,,,,,,,,,,,,,,,,,,,,,,,,,,,,,,,,,,,,,,,,,,,,,,,,,,10,001,2023_Feb_15_0945,ExactRep-v3-final,2021.2.3,59.91292256139037,
,,,,6,0,6,0,,,,,,,,,,,,,,,,,,,,,,,,,,,,,,,,,,,,,,,,,,,,,,,,,,,,,,,,,816.703208699997,None,,,,,,,,,,,,,,,,,814.7015852999903,None,,,,,,,,,,,,,,,,,,,,,,,,,,,,,,,,,,,,,,,,,,,,,,,,,,,,,,,,10,001,2023_Feb_15_0945,ExactRep-v3-final,2021.2.3,59.91292256139037,
,,,,7,0,7,0,,,,,,,,,,,,,,,,,,,,,,,,,,,,,,,,,,,,,,,,,,,,,,,,,,,,,,,,,819.2057199999981,None,,,,,,,,,,,,,,,,,817.2039350999985,None,,,,,,,,,,,,,,,,,,,,,,,,,,,,,,,,,,,,,,,,,,,,,,,,,,,,,,,,10,001,2023_Feb_15_0945,ExactRep-v3-final,2021.2.3,59.91292256139037,
,,,,8,0,8,0,,,,,,,,,,,,,,,,,,,,,,,,,,,,,,,,,,,,,,,,,,,,,,,,,,,,,,,,,821.7082813999878,None,,,,,,,,,,,,,,,,,819.706042299993,None,,,,,,,,,,,,,,,,,,,,,,,,,,,,,,,,,,,,,,,,,,,,,,,,,,,,,,,,10,001,2023_Feb_15_0945,ExactRep-v3-final,2021.2.3,59.91292256139037,
,,,,9,0,9,0,,,,,,,,,,,,,,,,,,,,,,,,,,,,,,,,,,,,,,,,,,,,,,,,,,,,,,,,,824.2110469999898,None,,,,,,,,,,,,,,,,,822.2087018999882,None,,,,,,,,,,,,,,,,,,,,,,,,,,,,,,,,,,,,,,,,,,,,,,,,,,,,,,,,10,001,2023_Feb_15_0945,ExactRep-v3-final,2021.2.3,59.91292256139037,
,,,,10,0,10,0,,,,,,,,,,,,,,,,,,,,,,,,,,,,,,,,,,,,,,,,,,,,,,,,,,,,,,,,,826.7133744999883,None,,,,,,,,,,,,,,,,,824.7115190999903,None,,,,,,,,,,,,,,,,,,,,,,,,,,,,,,,,,,,,,,,,,,,,,,,,,,,,,,,,10,001,2023_Feb_15_0945,ExactRep-v3-final,2021.2.3,59.91292256139037,
,,,,11,0,11,0,,,,,,,,,,,,,,,,,,,,,,,,,,,,,,,,,,,,,,,,,,,,,,,,,,,,,,,,,829.2160342999996,None,,,,,,,,,,,,,,,,,827.2137019999936,None,,,,,,,,,,,,,,,,,,,,,,,,,,,,,,,,,,,,,,,,,,,,,,,,,,,,,,,,10,001,2023_Feb_15_0945,ExactRep-v3-final,2021.2.3,59.91292256139037,
,,,,12,0,12,0,,,,,,,,,,,,,,,,,,,,,,,,,,,,,,,,,,,,,,,,,,,,,,,,,,,,,,,,,831.718381499988,None,,,,,,,,,,,,,,,,,829.7164313999965,None,,,,,,,,,,,,,,,,,,,,,,,,,,,,,,,,,,,,,,,,,,,,,,,,,,,,,,,,10,001,2023_Feb_15_0945,ExactRep-v3-final,2021.2.3,59.91292256139037,
,,,,13,0,13,0,,,,,,,,,,,,,,,,,,,,,,,,,,,,,,,,,,,,,,,,,,,,,,,,,,,,,,,,,834.2208849999879,None,,,,,,,,,,,,,,,,,832.2189030999871,None,,,,,,,,,,,,,,,,,,,,,,,,,,,,,,,,,,,,,,,,,,,,,,,,,,,,,,,,10,001,2023_Feb_15_0945,ExactRep-v3-final,2021.2.3,59.91292256139037,
,,,,14,0,14,0,,,,,,,,,,,,,,,,,,,,,,,,,,,,,,,,,,,,,,,,,,,,,,,,,,,,,,,,,836.7234186999995,None,,,,,,,,,,,,,,,,,834.7212457999995,None,,,,,,,,,,,,,,,,,,,,,,,,,,,,,,,,,,,,,,,,,,,,,,,,,,,,,,,,10,001,2023_Feb_15_0945,ExactRep-v3-final,2021.2.3,59.91292256139037,
,,,,,,,,,,,,,,,,,,,,,,,,,,,,,,,,,,,,,,,,,,,,,,,,,,,,,,,,,,,,,,,,,,,,,,,,,,,,,,,,,,,,space,23.36555750000116,847.3464451999898,None,,,,,,,,,,,,,,,,,,,,,,,,,,,,,,,,,,,,,,,,,,,,,,,,,,,,10,001,2023_Feb_15_0945,ExactRep-v3-final,2021.2.3,59.91292256139037,
,,,,,,,,0,0,0,0,,,,,,,,,,,,,,,,,,,,,,,,,,,,,,,,,,,,,,,,,,,,,,,,,,,,,872.776146499993,None,,,,,,,,,,,,,,,,,,,,,,,837.3575711999874,None,837.3575711999874,None,837.3575711999874,None,837.3575711999874,None,837.3575711999874,None,837.3575711999874,None,fortune,101,1,aloud,blue,870.7701708999957,None,None,870.7701708999957,None,,,,,,,,,,,,,,,,,,,,,,,,,,,,,,10,001,2023_Feb_15_0945,ExactRep-v3-final,2021.2.3,59.91292256139037,
,,,,,,,,1,0,1,0,,,,,,,,,,,,,,,,,,,,,,,,,,,,,,,,,,,,,,,,,,,,,,,,,,,,,875.2950691999868,None,,,,,,,,,,,,,,,,,,,,,,,,,,,,,,,,,,,child,12,2,sing,red,873.2887079999928,None,None,873.2887079999928,None,,,,,,,,,,,,,,,,,,,,,,,,,,,,,,10,001,2023_Feb_15_0945,ExactRep-v3-final,2021.2.3,59.91292256139037,
,,,,,,,,2,0,2,0,,,,,,,,,,,,,,,,,,,,,,,,,,,,,,,,,,,,,,,,,,,,,,,,,,,,,877.8143520999874,None,,,,,,,,,,,,,,,,,,,,,,,,,,,,,,,,,,,weapon,80,3,aloud,blue,875.8031154999917,None,None,875.8031154999917,None,,,,,,,,,,,,,,,,,,,,,,,,,,,,,,10,001,2023_Feb_15_0945,ExactRep-v3-final,2021.2.3,59.91292256139037,
,,,,,,,,3,0,3,0,,,,,,,,,,,,,,,,,,,,,,,,,,,,,,,,,,,,,,,,,,,,,,,,,,,,,880.3334901999915,None,,,,,,,,,,,,,,,,,,,,,,,,,,,,,,,,,,,dress,8,4,sing,red,878.3213854999922,None,None,878.3213854999922,None,,,,,,,,,,,,,,,,,,,,,,,,,,,,,,10,001,2023_Feb_15_0945,ExactRep-v3-final,2021.2.3,59.91292256139037,
,,,,,,,,4,0,4,0,,,,,,,,,,,,,,,,,,,,,,,,,,,,,,,,,,,,,,,,,,,,,,,,,,,,,882.8526864999876,None,,,,,,,,,,,,,,,,,,,,,,,,,,,,,,,,,,,ocean,5,5,sing,red,880.843755799986,None,None,880.843755799986,None,,,,,,,,,,,,,,,,,,,,,,,,,,,,,,10,001,2023_Feb_15_0945,ExactRep-v3-final,2021.2.3,59.91292256139037,
,,,,,,,,5,0,5,0,,,,,,,,,,,,,,,,,,,,,,,,,,,,,,,,,,,,,,,,,,,,,,,,,,,,,885.3551995999878,None,,,,,,,,,,,,,,,,,,,,,,,,,,,,,,,,,,,quality,37,6,sing,red,883.3557994999865,None,None,883.3557994999865,None,,,,,,,,,,,,,,,,,,,,,,,,,,,,,,10,001,2023_Feb_15_0945,ExactRep-v3-final,2021.2.3,59.91292256139037,
,,,,,,,,6,0,6,0,,,,,,,,,,,,,,,,,,,,,,,,,,,,,,,,,,,,,,,,,,,,,,,,,,,,,887.8576723999868,None,,,,,,,,,,,,,,,,,,,,,,,,,,,,,,,,,,,girl,45,7,silent,white,885.8556066999881,None,None,885.8556066999881,None,,,,,,,,,,,,,,,,,,,,,,,,,,,,,,10,001,2023_Feb_15_0945,ExactRep-v3-final,2021.2.3,59.91292256139037,
,,,,,,,,7,0,7,0,,,,,,,,,,,,,,,,,,,,,,,,,,,,,,,,,,,,,,,,,,,,,,,,,,,,,890.3601557999937,None,,,,,,,,,,,,,,,,,,,,,,,,,,,,,,,,,,,dollar,88,8,aloud,blue,888.3612283999973,None,None,888.3612283999973,None,,,,,,,,,,,,,,,,,,,,,,,,,,,,,,10,001,2023_Feb_15_0945,ExactRep-v3-final,2021.2.3,59.91292256139037,
,,,,,,,,8,0,8,0,,,,,,,,,,,,,,,,,,,,,,,,,,,,,,,,,,,,,,,,,,,,,,,,,,,,,892.862888299991,None,,,,,,,,,,,,,,,,,,,,,,,,,,,,,,,,,,,owner,0,9,sing,red,890.8625974999886,None,None,890.8625974999886,None,,,,,,,,,,,,,,,,,,,,,,,,,,,,,,10,001,2023_Feb_15_0945,ExactRep-v3-final,2021.2.3,59.91292256139037,
,,,,,,,,9,0,9,0,,,,,,,,,,,,,,,,,,,,,,,,,,,,,,,,,,,,,,,,,,,,,,,,,,,,,895.3821338999987,None,,,,,,,,,,,,,,,,,,,,,,,,,,,,,,,,,,,moment,43,10,silent,white,893.370215899995,None,None,893.370215899995,None,,,,,,,,,,,,,,,,,,,,,,,,,,,,,,10,001,2023_Feb_15_0945,ExactRep-v3-final,2021.2.3,59.91292256139037,
,,,,,,,,10,0,10,0,,,,,,,,,,,,,,,,,,,,,,,,,,,,,,,,,,,,,,,,,,,,,,,,,,,,,897.8845399999991,None,,,,,,,,,,,,,,,,,,,,,,,,,,,,,,,,,,,answer,19,11,sing,red,895.8848283999978,None,None,895.8848283999978,None,,,,,,,,,,,,,,,,,,,,,,,,,,,,,,10,001,2023_Feb_15_0945,ExactRep-v3-final,2021.2.3,59.91292256139037,
,,,,,,,,11,0,11,0,,,,,,,,,,,,,,,,,,,,,,,,,,,,,,,,,,,,,,,,,,,,,,,,,,,,,900.3868435999902,None,,,,,,,,,,,,,,,,,,,,,,,,,,,,,,,,,,,doll,31,12,sing,red,898.3878695999883,None,None,898.3878695999883,None,,,,,,,,,,,,,,,,,,,,,,,,,,,,,,10,001,2023_Feb_15_0945,ExactRep-v3-final,2021.2.3,59.91292256139037,
,,,,,,,,12,0,12,0,,,,,,,,,,,,,,,,,,,,,,,,,,,,,,,,,,,,,,,,,,,,,,,,,,,,,902.8896275999869,None,,,,,,,,,,,,,,,,,,,,,,,,,,,,,,,,,,,spirit,114,13,aloud,blue,900.8905419999937,None,None,900.8905419999937,None,,,,,,,,,,,,,,,,,,,,,,,,,,,,,,10,001,2023_Feb_15_0945,ExactRep-v3-final,2021.2.3,59.91292256139037,
,,,,,,,,13,0,13,0,,,,,,,,,,,,,,,,,,,,,,,,,,,,,,,,,,,,,,,,,,,,,,,,,,,,,905.4088185999863,None,,,,,,,,,,,,,,,,,,,,,,,,,,,,,,,,,,,officer,55,14,silent,white,903.4001358999958,None,None,903.4001358999958,None,,,,,,,,,,,,,,,,,,,,,,,,,,,,,,10,001,2023_Feb_15_0945,ExactRep-v3-final,2021.2.3,59.91292256139037,
,,,,,,,,14,0,14,0,,,,,,,,,,,,,,,,,,,,,,,,,,,,,,,,,,,,,,,,,,,,,,,,,,,,,907.911021699998,None,,,,,,,,,,,,,,,,,,,,,,,,,,,,,,,,,,,window,50,15,silent,white,905.910029599996,None,None,905.910029599996,None,,,,,,,,,,,,,,,,,,,,,,,,,,,,,,10,001,2023_Feb_15_0945,ExactRep-v3-final,2021.2.3,59.91292256139037,
,,,,,,,,15,0,15,0,,,,,,,,,,,,,,,,,,,,,,,,,,,,,,,,,,,,,,,,,,,,,,,,,,,,,910.4136675999907,None,,,,,,,,,,,,,,,,,,,,,,,,,,,,,,,,,,,king,56,16,silent,white,908.4114252999861,None,None,908.4114252999861,None,,,,,,,,,,,,,,,,,,,,,,,,,,,,,,10,001,2023_Feb_15_0945,ExactRep-v3-final,2021.2.3,59.91292256139037,
,,,,,,,,16,0,16,0,,,,,,,,,,,,,,,,,,,,,,,,,,,,,,,,,,,,,,,,,,,,,,,,,,,,,912.9327683999873,None,,,,,,,,,,,,,,,,,,,,,,,,,,,,,,,,,,,safety,62,17,silent,white,910.9182061999891,None,None,910.9182061999891,None,,,,,,,,,,,,,,,,,,,,,,,,,,,,,,10,001,2023_Feb_15_0945,ExactRep-v3-final,2021.2.3,59.91292256139037,
,,,,,,,,17,0,17,0,,,,,,,,,,,,,,,,,,,,,,,,,,,,,,,,,,,,,,,,,,,,,,,,,,,,,915.4352969999891,None,,,,,,,,,,,,,,,,,,,,,,,,,,,,,,,,,,,fire,3,18,sing,red,913.4333099999931,None,None,913.4333099999931,None,,,,,,,,,,,,,,,,,,,,,,,,,,,,,,10,001,2023_Feb_15_0945,ExactRep-v3-final,2021.2.3,59.91292256139037,
,,,,,,,,18,0,18,0,,,,,,,,,,,,,,,,,,,,,,,,,,,,,,,,,,,,,,,,,,,,,,,,,,,,,917.9546672999859,None,,,,,,,,,,,,,,,,,,,,,,,,,,,,,,,,,,,lip,75,19,silent,white,915.9395498999947,None,None,915.9395498999947,None,,,,,,,,,,,,,,,,,,,,,,,,,,,,,,10,001,2023_Feb_15_0945,ExactRep-v3-final,2021.2.3,59.91292256139037,
,,,,,,,,19,0,19,0,,,,,,,,,,,,,,,,,,,,,,,,,,,,,,,,,,,,,,,,,,,,,,,,,,,,,920.4774007999949,None,,,,,,,,,,,,,,,,,,,,,,,,,,,,,,,,,,,excuse,94,20,aloud,blue,918.4635681999935,None,None,918.4635681999935,None,,,,,,,,,,,,,,,,,,,,,,,,,,,,,,10,001,2023_Feb_15_0945,ExactRep-v3-final,2021.2.3,59.91292256139037,
,,,,,,,,20,0,20,0,,,,,,,,,,,,,,,,,,,,,,,,,,,,,,,,,,,,,,,,,,,,,,,,,,,,,922.9763343999948,None,,,,,,,,,,,,,,,,,,,,,,,,,,,,,,,,,,,engine,66,21,silent,white,920.975389299987,None,None,920.975389299987,None,,,,,,,,,,,,,,,,,,,,,,,,,,,,,,10,001,2023_Feb_15_0945,ExactRep-v3-final,2021.2.3,59.91292256139037,
,,,,,,,,21,0,21,0,,,,,,,,,,,,,,,,,,,,,,,,,,,,,,,,,,,,,,,,,,,,,,,,,,,,,925.478964199996,None,,,,,,,,,,,,,,,,,,,,,,,,,,,,,,,,,,,green,10,22,sing,red,923.4787356999877,None,None,923.4787356999877,None,,,,,,,,,,,,,,,,,,,,,,,,,,,,,,10,001,2023_Feb_15_0945,ExactRep-v3-final,2021.2.3,59.91292256139037,
,,,,,,,,22,0,22,0,,,,,,,,,,,,,,,,,,,,,,,,,,,,,,,,,,,,,,,,,,,,,,,,,,,,,927.9813486999919,None,,,,,,,,,,,,,,,,,,,,,,,,,,,,,,,,,,,sugar,104,23,aloud,blue,925.9792703999992,None,None,925.9792703999992,None,,,,,,,,,,,,,,,,,,,,,,,,,,,,,,10,001,2023_Feb_15_0945,ExactRep-v3-final,2021.2.3,59.91292256139037,
,,,,,,,,23,0,23,0,,,,,,,,,,,,,,,,,,,,,,,,,,,,,,,,,,,,,,,,,,,,,,,,,,,,,930.500524499992,None,,,,,,,,,,,,,,,,,,,,,,,,,,,,,,,,,,,kiss,115,24,aloud,blue,928.4855640999886,None,None,928.4855640999886,None,,,,,,,,,,,,,,,,,,,,,,,,,,,,,,10,001,2023_Feb_15_0945,ExactRep-v3-final,2021.2.3,59.91292256139037,
,,,,,,,,24,0,24,0,,,,,,,,,,,,,,,,,,,,,,,,,,,,,,,,,,,,,,,,,,,,,,,,,,,,,933.019672399998,None,,,,,,,,,,,,,,,,,,,,,,,,,,,,,,,,,,,water,16,25,sing,red,931.0039643999917,None,None,931.0039643999917,None,,,,,,,,,,,,,,,,,,,,,,,,,,,,,,10,001,2023_Feb_15_0945,ExactRep-v3-final,2021.2.3,59.91292256139037,
,,,,,,,,25,0,25,0,,,,,,,,,,,,,,,,,,,,,,,,,,,,,,,,,,,,,,,,,,,,,,,,,,,,,935.5222055999911,None,,,,,,,,,,,,,,,,,,,,,,,,,,,,,,,,,,,board,112,26,aloud,blue,933.5201511999912,None,None,933.5201511999912,None,,,,,,,,,,,,,,,,,,,,,,,,,,,,,,10,001,2023_Feb_15_0945,ExactRep-v3-final,2021.2.3,59.91292256139037,
,,,,,,,,26,0,26,0,,,,,,,,,,,,,,,,,,,,,,,,,,,,,,,,,,,,,,,,,,,,,,,,,,,,,938.0413995999988,None,,,,,,,,,,,,,,,,,,,,,,,,,,,,,,,,,,,temple,15,27,sing,red,936.0325610999862,None,None,936.0325610999862,None,,,,,,,,,,,,,,,,,,,,,,,,,,,,,,10,001,2023_Feb_15_0945,ExactRep-v3-final,2021.2.3,59.91292256139037,
,,,,,,,,27,0,27,0,,,,,,,,,,,,,,,,,,,,,,,,,,,,,,,,,,,,,,,,,,,,,,,,,,,,,940.5604032999981,None,,,,,,,,,,,,,,,,,,,,,,,,,,,,,,,,,,,book,49,28,silent,white,938.5497626999859,None,None,938.5497626999859,None,,,,,,,,,,,,,,,,,,,,,,,,,,,,,,10,001,2023_Feb_15_0945,ExactRep-v3-final,2021.2.3,59.91292256139037,
,,,,,,,,28,0,28,0,,,,,,,,,,,,,,,,,,,,,,,,,,,,,,,,,,,,,,,,,,,,,,,,,,,,,943.0796469999914,None,,,,,,,,,,,,,,,,,,,,,,,,,,,,,,,,,,,slave,68,29,silent,white,941.0778868999914,None,None,941.0778868999914,None,,,,,,,,,,,,,,,,,,,,,,,,,,,,,,10,001,2023_Feb_15_0945,ExactRep-v3-final,2021.2.3,59.91292256139037,
,,,,,,,,29,0,29,0,,,,,,,,,,,,,,,,,,,,,,,,,,,,,,,,,,,,,,,,,,,,,,,,,,,,,945.5823200999876,None,,,,,,,,,,,,,,,,,,,,,,,,,,,,,,,,,,,person,117,30,aloud,blue,943.5802087999909,None,None,943.5802087999909,None,,,,,,,,,,,,,,,,,,,,,,,,,,,,,,10,001,2023_Feb_15_0945,ExactRep-v3-final,2021.2.3,59.91292256139037,
,,,,,,,,30,0,30,0,,,,,,,,,,,,,,,,,,,,,,,,,,,,,,,,,,,,,,,,,,,,,,,,,,,,,948.0848427999881,None,,,,,,,,,,,,,,,,,,,,,,,,,,,,,,,,,,,money,9,31,sing,red,946.0852397999988,None,None,946.0852397999988,None,,,,,,,,,,,,,,,,,,,,,,,,,,,,,,10,001,2023_Feb_15_0945,ExactRep-v3-final,2021.2.3,59.91292256139037,
,,,,,,,,31,0,31,0,,,,,,,,,,,,,,,,,,,,,,,,,,,,,,,,,,,,,,,,,,,,,,,,,,,,,950.6039298999967,None,,,,,,,,,,,,,,,,,,,,,,,,,,,,,,,,,,,prison,109,32,aloud,blue,948.5887091999903,None,None,948.5887091999903,None,,,,,,,,,,,,,,,,,,,,,,,,,,,,,,10,001,2023_Feb_15_0945,ExactRep-v3-final,2021.2.3,59.91292256139037,
,,,,,,,,32,0,32,0,,,,,,,,,,,,,,,,,,,,,,,,,,,,,,,,,,,,,,,,,,,,,,,,,,,,,953.1064372999972,None,,,,,,,,,,,,,,,,,,,,,,,,,,,,,,,,,,,honour,53,33,silent,white,951.1044522999873,None,None,951.1044522999873,None,,,,,,,,,,,,,,,,,,,,,,,,,,,,,,10,001,2023_Feb_15_0945,ExactRep-v3-final,2021.2.3,59.91292256139037,
,,,,,,,,33,0,33,0,,,,,,,,,,,,,,,,,,,,,,,,,,,,,,,,,,,,,,,,,,,,,,,,,,,,,955.6089527999866,None,,,,,,,,,,,,,,,,,,,,,,,,,,,,,,,,,,,amount,25,34,sing,red,953.6086940999958,None,None,953.6086940999958,None,,,,,,,,,,,,,,,,,,,,,,,,,,,,,,10,001,2023_Feb_15_0945,ExactRep-v3-final,2021.2.3,59.91292256139037,
,,,,,,,,34,0,34,0,,,,,,,,,,,,,,,,,,,,,,,,,,,,,,,,,,,,,,,,,,,,,,,,,,,,,958.1113359999872,None,,,,,,,,,,,,,,,,,,,,,,,,,,,,,,,,,,,mind,103,35,aloud,blue,956.1112311999896,None,None,956.1112311999896,None,,,,,,,,,,,,,,,,,,,,,,,,,,,,,,10,001,2023_Feb_15_0945,ExactRep-v3-final,2021.2.3,59.91292256139037,
,,,,,,,,35,0,35,0,,,,,,,,,,,,,,,,,,,,,,,,,,,,,,,,,,,,,,,,,,,,,,,,,,,,,960.6306979999936,None,,,,,,,,,,,,,,,,,,,,,,,,,,,,,,,,,,,artist,21,36,sing,red,958.6151144999894,None,None,958.6151144999894,None,,,,,,,,,,,,,,,,,,,,,,,,,,,,,,10,001,2023_Feb_15_0945,ExactRep-v3-final,2021.2.3,59.91292256139037,
,,,,,,,,36,0,36,0,,,,,,,,,,,,,,,,,,,,,,,,,,,,,,,,,,,,,,,,,,,,,,,,,,,,,963.132989699996,None,,,,,,,,,,,,,,,,,,,,,,,,,,,,,,,,,,,shoes,93,37,aloud,blue,961.1329359999945,None,None,961.1329359999945,None,,,,,,,,,,,,,,,,,,,,,,,,,,,,,,10,001,2023_Feb_15_0945,ExactRep-v3-final,2021.2.3,59.91292256139037,
,,,,,,,,37,0,37,0,,,,,,,,,,,,,,,,,,,,,,,,,,,,,,,,,,,,,,,,,,,,,,,,,,,,,965.6357553999987,None,,,,,,,,,,,,,,,,,,,,,,,,,,,,,,,,,,,fault,20,38,sing,red,963.6363887999905,None,None,963.6363887999905,None,,,,,,,,,,,,,,,,,,,,,,,,,,,,,,10,001,2023_Feb_15_0945,ExactRep-v3-final,2021.2.3,59.91292256139037,
,,,,,,,,38,0,38,0,,,,,,,,,,,,,,,,,,,,,,,,,,,,,,,,,,,,,,,,,,,,,,,,,,,,,968.1546306999953,None,,,,,,,,,,,,,,,,,,,,,,,,,,,,,,,,,,,product,84,39,aloud,blue,966.1391946999938,None,None,966.1391946999938,None,,,,,,,,,,,,,,,,,,,,,,,,,,,,,,10,001,2023_Feb_15_0945,ExactRep-v3-final,2021.2.3,59.91292256139037,
,,,,,,,,39,0,39,0,,,,,,,,,,,,,,,,,,,,,,,,,,,,,,,,,,,,,,,,,,,,,,,,,,,,,970.6571395999927,None,,,,,,,,,,,,,,,,,,,,,,,,,,,,,,,,,,,tool,110,40,aloud,blue,968.6550743999978,None,None,968.6550743999978,None,,,,,,,,,,,,,,,,,,,,,,,,,,,,,,10,001,2023_Feb_15_0945,ExactRep-v3-final,2021.2.3,59.91292256139037,
,,,,,,,,40,0,40,0,,,,,,,,,,,,,,,,,,,,,,,,,,,,,,,,,,,,,,,,,,,,,,,,,,,,,973.159880399995,None,,,,,,,,,,,,,,,,,,,,,,,,,,,,,,,,,,,method,107,41,aloud,blue,971.1607509999885,None,None,971.1607509999885,None,,,,,,,,,,,,,,,,,,,,,,,,,,,,,,10,001,2023_Feb_15_0945,ExactRep-v3-final,2021.2.3,59.91292256139037,
,,,,,,,,41,0,41,0,,,,,,,,,,,,,,,,,,,,,,,,,,,,,,,,,,,,,,,,,,,,,,,,,,,,,975.6624098999891,None,,,,,,,,,,,,,,,,,,,,,,,,,,,,,,,,,,,corn,74,42,silent,white,973.6623998999858,None,None,973.6623998999858,None,,,,,,,,,,,,,,,,,,,,,,,,,,,,,,10,001,2023_Feb_15_0945,ExactRep-v3-final,2021.2.3,59.91292256139037,
,,,,,,,,42,0,42,0,,,,,,,,,,,,,,,,,,,,,,,,,,,,,,,,,,,,,,,,,,,,,,,,,,,,,978.1649551999872,None,,,,,,,,,,,,,,,,,,,,,,,,,,,,,,,,,,,corner,118,43,aloud,blue,976.1642610999988,None,None,976.1642610999988,None,,,,,,,,,,,,,,,,,,,,,,,,,,,,,,10,001,2023_Feb_15_0945,ExactRep-v3-final,2021.2.3,59.91292256139037,
,,,,,,,,43,0,43,0,,,,,,,,,,,,,,,,,,,,,,,,,,,,,,,,,,,,,,,,,,,,,,,,,,,,,980.6673330999911,None,,,,,,,,,,,,,,,,,,,,,,,,,,,,,,,,,,,murder,40,44,silent,white,978.668308399996,None,None,978.668308399996,None,,,,,,,,,,,,,,,,,,,,,,,,,,,,,,10,001,2023_Feb_15_0945,ExactRep-v3-final,2021.2.3,59.91292256139037,
,,,,,,,,44,0,44,0,,,,,,,,,,,,,,,,,,,,,,,,,,,,,,,,,,,,,,,,,,,,,,,,,,,,,983.1698434999998,None,,,,,,,,,,,,,,,,,,,,,,,,,,,,,,,,,,,love,58,45,silent,white,981.1708489999874,None,None,981.1708489999874,None,,,,,,,,,,,,,,,,,,,,,,,,,,,,,,10,001,2023_Feb_15_0945,ExactRep-v3-final,2021.2.3,59.91292256139037,
,,,,,,,,45,0,45,0,,,,,,,,,,,,,,,,,,,,,,,,,,,,,,,,,,,,,,,,,,,,,,,,,,,,,985.6723515999911,None,,,,,,,,,,,,,,,,,,,,,,,,,,,,,,,,,,,grief,70,46,silent,white,983.6704243999993,None,None,983.6704243999993,None,,,,,,,,,,,,,,,,,,,,,,,,,,,,,,10,001,2023_Feb_15_0945,ExactRep-v3-final,2021.2.3,59.91292256139037,
,,,,,,,,46,0,46,0,,,,,,,,,,,,,,,,,,,,,,,,,,,,,,,,,,,,,,,,,,,,,,,,,,,,,988.1748320999905,None,,,,,,,,,,,,,,,,,,,,,,,,,,,,,,,,,,,flesh,78,47,silent,white,986.1734425999894,None,None,986.1734425999894,None,,,,,,,,,,,,,,,,,,,,,,,,,,,,,,10,001,2023_Feb_15_0945,ExactRep-v3-final,2021.2.3,59.91292256139037,
,,,,,,,,47,0,47,0,,,,,,,,,,,,,,,,,,,,,,,,,,,,,,,,,,,,,,,,,,,,,,,,,,,,,990.6774193999881,None,,,,,,,,,,,,,,,,,,,,,,,,,,,,,,,,,,,star,4,48,sing,red,988.6759659999952,None,None,988.6759659999952,None,,,,,,,,,,,,,,,,,,,,,,,,,,,,,,10,001,2023_Feb_15_0945,ExactRep-v3-final,2021.2.3,59.91292256139037,
,,,,,,,,48,0,48,0,,,,,,,,,,,,,,,,,,,,,,,,,,,,,,,,,,,,,,,,,,,,,,,,,,,,,993.1798666999966,None,,,,,,,,,,,,,,,,,,,,,,,,,,,,,,,,,,,forest,97,49,aloud,blue,991.1805203999975,None,None,991.1805203999975,None,,,,,,,,,,,,,,,,,,,,,,,,,,,,,,10,001,2023_Feb_15_0945,ExactRep-v3-final,2021.2.3,59.91292256139037,
,,,,,,,,49,0,49,0,,,,,,,,,,,,,,,,,,,,,,,,,,,,,,,,,,,,,,,,,,,,,,,,,,,,,995.6988230999996,None,,,,,,,,,,,,,,,,,,,,,,,,,,,,,,,,,,,army,26,50,sing,red,993.684869299992,None,None,993.684869299992,None,,,,,,,,,,,,,,,,,,,,,,,,,,,,,,10,001,2023_Feb_15_0945,ExactRep-v3-final,2021.2.3,59.91292256139037,
,,,,,,,,50,0,50,0,,,,,,,,,,,,,,,,,,,,,,,,,,,,,,,,,,,,,,,,,,,,,,,,,,,,,998.2180352999858,None,,,,,,,,,,,,,,,,,,,,,,,,,,,,,,,,,,,apple,82,51,aloud,blue,996.2043684999953,None,None,996.2043684999953,None,,,,,,,,,,,,,,,,,,,,,,,,,,,,,,10,001,2023_Feb_15_0945,ExactRep-v3-final,2021.2.3,59.91292256139037,
,,,,,,,,51,0,51,0,,,,,,,,,,,,,,,,,,,,,,,,,,,,,,,,,,,,,,,,,,,,,,,,,,,,,1000.7374206999957,None,,,,,,,,,,,,,,,,,,,,,,,,,,,,,,,,,,,thought,108,52,aloud,blue,998.7270740999957,None,None,998.7270740999957,None,,,,,,,,,,,,,,,,,,,,,,,,,,,,,,10,001,2023_Feb_15_0945,ExactRep-v3-final,2021.2.3,59.91292256139037,
,,,,,,,,52,0,52,0,,,,,,,,,,,,,,,,,,,,,,,,,,,,,,,,,,,,,,,,,,,,,,,,,,,,,1003.239875299987,None,,,,,,,,,,,,,,,,,,,,,,,,,,,,,,,,,,,street,90,53,aloud,blue,1001.2387716999947,None,None,1001.2387716999947,None,,,,,,,,,,,,,,,,,,,,,,,,,,,,,,10,001,2023_Feb_15_0945,ExactRep-v3-final,2021.2.3,59.91292256139037,
,,,,,,,,53,0,53,0,,,,,,,,,,,,,,,,,,,,,,,,,,,,,,,,,,,,,,,,,,,,,,,,,,,,,1005.742442399991,None,,,,,,,,,,,,,,,,,,,,,,,,,,,,,,,,,,,author,83,54,aloud,blue,1003.7406728999922,None,None,1003.7406728999922,None,,,,,,,,,,,,,,,,,,,,,,,,,,,,,,10,001,2023_Feb_15_0945,ExactRep-v3-final,2021.2.3,59.91292256139037,
,,,,,,,,54,0,54,0,,,,,,,,,,,,,,,,,,,,,,,,,,,,,,,,,,,,,,,,,,,,,,,,,,,,,1008.2616009999911,None,,,,,,,,,,,,,,,,,,,,,,,,,,,,,,,,,,,cabin,65,55,silent,white,1006.2459082999994,None,None,1006.2459082999994,None,,,,,,,,,,,,,,,,,,,,,,,,,,,,,,10,001,2023_Feb_15_0945,ExactRep-v3-final,2021.2.3,59.91292256139037,
,,,,,,,,55,0,55,0,,,,,,,,,,,,,,,,,,,,,,,,,,,,,,,,,,,,,,,,,,,,,,,,,,,,,1010.7640854999918,None,,,,,,,,,,,,,,,,,,,,,,,,,,,,,,,,,,,volume,30,56,sing,red,1008.7638163999945,None,None,1008.7638163999945,None,,,,,,,,,,,,,,,,,,,,,,,,,,,,,,10,001,2023_Feb_15_0945,ExactRep-v3-final,2021.2.3,59.91292256139037,
,,,,,,,,56,0,56,0,,,,,,,,,,,,,,,,,,,,,,,,,,,,,,,,,,,,,,,,,,,,,,,,,,,,,1013.2665759999945,None,,,,,,,,,,,,,,,,,,,,,,,,,,,,,,,,,,,flower,100,57,aloud,blue,1011.2644315999933,None,None,1011.2644315999933,None,,,,,,,,,,,,,,,,,,,,,,,,,,,,,,10,001,2023_Feb_15_0945,ExactRep-v3-final,2021.2.3,59.91292256139037,
,,,,,,,,57,0,57,0,,,,,,,,,,,,,,,,,,,,,,,,,,,,,,,,,,,,,,,,,,,,,,,,,,,,,1015.7690963999921,None,,,,,,,,,,,,,,,,,,,,,,,,,,,,,,,,,,,leader,35,58,sing,red,1013.767518099994,None,None,1013.767518099994,None,,,,,,,,,,,,,,,,,,,,,,,,,,,,,,10,001,2023_Feb_15_0945,ExactRep-v3-final,2021.2.3,59.91292256139037,
,,,,,,,,58,0,58,0,,,,,,,,,,,,,,,,,,,,,,,,,,,,,,,,,,,,,,,,,,,,,,,,,,,,,1018.2714706999977,None,,,,,,,,,,,,,,,,,,,,,,,,,,,,,,,,,,,shadow,28,59,sing,red,1016.2697141999961,None,None,1016.2697141999961,None,,,,,,,,,,,,,,,,,,,,,,,,,,,,,,10,001,2023_Feb_15_0945,ExactRep-v3-final,2021.2.3,59.91292256139037,
,,,,,,,,59,0,59,0,,,,,,,,,,,,,,,,,,,,,,,,,,,,,,,,,,,,,,,,,,,,,,,,,,,,,1020.7907900999999,None,,,,,,,,,,,,,,,,,,,,,,,,,,,,,,,,,,,beast,23,60,sing,red,1018.7765222999878,None,None,1018.7765222999878,None,,,,,,,,,,,,,,,,,,,,,,,,,,,,,,10,001,2023_Feb_15_0945,ExactRep-v3-final,2021.2.3,59.91292256139037,
,,,,,,,,60,0,60,0,,,,,,,,,,,,,,,,,,,,,,,,,,,,,,,,,,,,,,,,,,,,,,,,,,,,,1023.2933548999863,None,,,,,,,,,,,,,,,,,,,,,,,,,,,,,,,,,,,world,57,61,silent,white,1021.2926874999976,None,None,1021.2926874999976,None,,,,,,,,,,,,,,,,,,,,,,,,,,,,,,10,001,2023_Feb_15_0945,ExactRep-v3-final,2021.2.3,59.91292256139037,
,,,,,,,,61,0,61,0,,,,,,,,,,,,,,,,,,,,,,,,,,,,,,,,,,,,,,,,,,,,,,,,,,,,,1025.812469899989,None,,,,,,,,,,,,,,,,,,,,,,,,,,,,,,,,,,,hope,46,62,silent,white,1023.8004541999981,None,None,1023.8004541999981,None,,,,,,,,,,,,,,,,,,,,,,,,,,,,,,10,001,2023_Feb_15_0945,ExactRep-v3-final,2021.2.3,59.91292256139037,
,,,,,,,,62,0,62,0,,,,,,,,,,,,,,,,,,,,,,,,,,,,,,,,,,,,,,,,,,,,,,,,,,,,,1028.3316989999876,None,,,,,,,,,,,,,,,,,,,,,,,,,,,,,,,,,,,ship,18,63,sing,red,1026.323115399995,None,None,1026.323115399995,None,,,,,,,,,,,,,,,,,,,,,,,,,,,,,,10,001,2023_Feb_15_0945,ExactRep-v3-final,2021.2.3,59.91292256139037,
,,,,,,,,63,0,63,0,,,,,,,,,,,,,,,,,,,,,,,,,,,,,,,,,,,,,,,,,,,,,,,,,,,,,1030.8341991999914,None,,,,,,,,,,,,,,,,,,,,,,,,,,,,,,,,,,,garden,119,64,aloud,blue,1028.8342273999879,None,None,1028.8342273999879,None,,,,,,,,,,,,,,,,,,,,,,,,,,,,,,10,001,2023_Feb_15_0945,ExactRep-v3-final,2021.2.3,59.91292256139037,
,,,,,,,,64,0,64,0,,,,,,,,,,,,,,,,,,,,,,,,,,,,,,,,,,,,,,,,,,,,,,,,,,,,,1033.3365671999927,None,,,,,,,,,,,,,,,,,,,,,,,,,,,,,,,,,,,camp,39,65,silent,white,1031.336993399993,None,None,1031.336993399993,None,,,,,,,,,,,,,,,,,,,,,,,,,,,,,,10,001,2023_Feb_15_0945,ExactRep-v3-final,2021.2.3,59.91292256139037,
,,,,,,,,65,0,65,0,,,,,,,,,,,,,,,,,,,,,,,,,,,,,,,,,,,,,,,,,,,,,,,,,,,,,1035.8389712999924,None,,,,,,,,,,,,,,,,,,,,,,,,,,,,,,,,,,,woods,52,66,silent,white,1033.839087699991,None,None,1033.839087699991,None,,,,,,,,,,,,,,,,,,,,,,,,,,,,,,10,001,2023_Feb_15_0945,ExactRep-v3-final,2021.2.3,59.91292256139037,
,,,,,,,,66,0,66,0,,,,,,,,,,,,,,,,,,,,,,,,,,,,,,,,,,,,,,,,,,,,,,,,,,,,,1038.3416817999969,None,,,,,,,,,,,,,,,,,,,,,,,,,,,,,,,,,,,dream,13,67,sing,red,1036.339580999993,None,None,1036.339580999993,None,,,,,,,,,,,,,,,,,,,,,,,,,,,,,,10,001,2023_Feb_15_0945,ExactRep-v3-final,2021.2.3,59.91292256139037,
,,,,,,,,67,0,67,0,,,,,,,,,,,,,,,,,,,,,,,,,,,,,,,,,,,,,,,,,,,,,,,,,,,,,1040.8442849999992,None,,,,,,,,,,,,,,,,,,,,,,,,,,,,,,,,,,,string,7,68,sing,red,1038.8448859999917,None,None,1038.8448859999917,None,,,,,,,,,,,,,,,,,,,,,,,,,,,,,,10,001,2023_Feb_15_0945,ExactRep-v3-final,2021.2.3,59.91292256139037,
,,,,,,,,68,0,68,0,,,,,,,,,,,,,,,,,,,,,,,,,,,,,,,,,,,,,,,,,,,,,,,,,,,,,1043.363451399986,None,,,,,,,,,,,,,,,,,,,,,,,,,,,,,,,,,,,victory,32,69,sing,red,1041.3571737999882,None,None,1041.3571737999882,None,,,,,,,,,,,,,,,,,,,,,,,,,,,,,,10,001,2023_Feb_15_0945,ExactRep-v3-final,2021.2.3,59.91292256139037,
,,,,,,,,69,0,69,0,,,,,,,,,,,,,,,,,,,,,,,,,,,,,,,,,,,,,,,,,,,,,,,,,,,,,1045.8659576999926,None,,,,,,,,,,,,,,,,,,,,,,,,,,,,,,,,,,,soil,73,70,silent,white,1043.866477699994,None,None,1043.866477699994,None,,,,,,,,,,,,,,,,,,,,,,,,,,,,,,10,001,2023_Feb_15_0945,ExactRep-v3-final,2021.2.3,59.91292256139037,
,,,,,,,,70,0,70,0,,,,,,,,,,,,,,,,,,,,,,,,,,,,,,,,,,,,,,,,,,,,,,,,,,,,,1048.38503759999,None,,,,,,,,,,,,,,,,,,,,,,,,,,,,,,,,,,,clock,67,71,silent,white,1046.3694991999946,None,None,1046.3694991999946,None,,,,,,,,,,,,,,,,,,,,,,,,,,,,,,10,001,2023_Feb_15_0945,ExactRep-v3-final,2021.2.3,59.91292256139037,
,,,,,,,,71,0,71,0,,,,,,,,,,,,,,,,,,,,,,,,,,,,,,,,,,,,,,,,,,,,,,,,,,,,,1050.8875750999869,None,,,,,,,,,,,,,,,,,,,,,,,,,,,,,,,,,,,iron,95,72,aloud,blue,1048.8855889999977,None,None,1048.8855889999977,None,,,,,,,,,,,,,,,,,,,,,,,,,,,,,,10,001,2023_Feb_15_0945,ExactRep-v3-final,2021.2.3,59.91292256139037,
,,,,,,,,72,0,72,0,,,,,,,,,,,,,,,,,,,,,,,,,,,,,,,,,,,,,,,,,,,,,,,,,,,,,1053.3901589999878,None,,,,,,,,,,,,,,,,,,,,,,,,,,,,,,,,,,,opinion,77,73,silent,white,1051.3895402999915,None,None,1051.3895402999915,None,,,,,,,,,,,,,,,,,,,,,,,,,,,,,,10,001,2023_Feb_15_0945,ExactRep-v3-final,2021.2.3,59.91292256139037,
,,,,,,,,73,0,73,0,,,,,,,,,,,,,,,,,,,,,,,,,,,,,,,,,,,,,,,,,,,,,,,,,,,,,1055.909268599993,None,,,,,,,,,,,,,,,,,,,,,,,,,,,,,,,,,,,fact,44,74,silent,white,1053.8989707,None,None,1053.8989707,None,,,,,,,,,,,,,,,,,,,,,,,,,,,,,,10,001,2023_Feb_15_0945,ExactRep-v3-final,2021.2.3,59.91292256139037,
,,,,,,,,74,0,74,0,,,,,,,,,,,,,,,,,,,,,,,,,,,,,,,,,,,,,,,,,,,,,,,,,,,,,1058.428644899992,None,,,,,,,,,,,,,,,,,,,,,,,,,,,,,,,,,,,village,11,75,sing,red,1056.413431199995,None,None,1056.413431199995,None,,,,,,,,,,,,,,,,,,,,,,,,,,,,,,10,001,2023_Feb_15_0945,ExactRep-v3-final,2021.2.3,59.91292256139037,
,,,,,,,,75,0,75,0,,,,,,,,,,,,,,,,,,,,,,,,,,,,,,,,,,,,,,,,,,,,,,,,,,,,,1060.9309666999907,None,,,,,,,,,,,,,,,,,,,,,,,,,,,,,,,,,,,hide,91,76,aloud,blue,1058.928968799999,None,None,1058.928968799999,None,,,,,,,,,,,,,,,,,,,,,,,,,,,,,,10,001,2023_Feb_15_0945,ExactRep-v3-final,2021.2.3,59.91292256139037,
,,,,,,,,76,0,76,0,,,,,,,,,,,,,,,,,,,,,,,,,,,,,,,,,,,,,,,,,,,,,,,,,,,,,1063.4334787999978,None,,,,,,,,,,,,,,,,,,,,,,,,,,,,,,,,,,,devil,29,77,sing,red,1061.434114699994,None,None,1061.434114699994,None,,,,,,,,,,,,,,,,,,,,,,,,,,,,,,10,001,2023_Feb_15_0945,ExactRep-v3-final,2021.2.3,59.91292256139037,
,,,,,,,,77,0,77,0,,,,,,,,,,,,,,,,,,,,,,,,,,,,,,,,,,,,,,,,,,,,,,,,,,,,,1065.952356599999,None,,,,,,,,,,,,,,,,,,,,,,,,,,,,,,,,,,,fate,96,78,aloud,blue,1063.9372288999875,None,None,1063.9372288999875,None,,,,,,,,,,,,,,,,,,,,,,,,,,,,,,10,001,2023_Feb_15_0945,ExactRep-v3-final,2021.2.3,59.91292256139037,
,,,,,,,,78,0,78,0,,,,,,,,,,,,,,,,,,,,,,,,,,,,,,,,,,,,,,,,,,,,,,,,,,,,,1068.4552141999884,None,,,,,,,,,,,,,,,,,,,,,,,,,,,,,,,,,,,cat,113,79,aloud,blue,1066.4557532999897,None,None,1066.4557532999897,None,,,,,,,,,,,,,,,,,,,,,,,,,,,,,,10,001,2023_Feb_15_0945,ExactRep-v3-final,2021.2.3,59.91292256139037,
,,,,,,,,79,0,79,0,,,,,,,,,,,,,,,,,,,,,,,,,,,,,,,,,,,,,,,,,,,,,,,,,,,,,1070.9743628999859,None,,,,,,,,,,,,,,,,,,,,,,,,,,,,,,,,,,,arm,63,80,silent,white,1068.9644249999983,None,None,1068.9644249999983,None,,,,,,,,,,,,,,,,,,,,,,,,,,,,,,10,001,2023_Feb_15_0945,ExactRep-v3-final,2021.2.3,59.91292256139037,
,,,,,,,,80,0,80,0,,,,,,,,,,,,,,,,,,,,,,,,,,,,,,,,,,,,,,,,,,,,,,,,,,,,,1073.4935220999905,None,,,,,,,,,,,,,,,,,,,,,,,,,,,,,,,,,,,palace,47,81,silent,white,1071.479966999992,None,None,1071.479966999992,None,,,,,,,,,,,,,,,,,,,,,,,,,,,,,,10,001,2023_Feb_15_0945,ExactRep-v3-final,2021.2.3,59.91292256139037,
,,,,,,,,81,0,81,0,,,,,,,,,,,,,,,,,,,,,,,,,,,,,,,,,,,,,,,,,,,,,,,,,,,,,1076.0126964999945,None,,,,,,,,,,,,,,,,,,,,,,,,,,,,,,,,,,,paper,17,82,sing,red,1074.00051659999,None,None,1074.00051659999,None,,,,,,,,,,,,,,,,,,,,,,,,,,,,,,10,001,2023_Feb_15_0945,ExactRep-v3-final,2021.2.3,59.91292256139037,
,,,,,,,,82,0,82,0,,,,,,,,,,,,,,,,,,,,,,,,,,,,,,,,,,,,,,,,,,,,,,,,,,,,,1078.5317269999941,None,,,,,,,,,,,,,,,,,,,,,,,,,,,,,,,,,,,sky,38,83,sing,red,1076.5237856999884,None,None,1076.5237856999884,None,,,,,,,,,,,,,,,,,,,,,,,,,,,,,,10,001,2023_Feb_15_0945,ExactRep-v3-final,2021.2.3,59.91292256139037,
,,,,,,,,83,0,83,0,,,,,,,,,,,,,,,,,,,,,,,,,,,,,,,,,,,,,,,,,,,,,,,,,,,,,1081.0343279999943,None,,,,,,,,,,,,,,,,,,,,,,,,,,,,,,,,,,,pole,92,84,aloud,blue,1079.0323878999916,None,None,1079.0323878999916,None,,,,,,,,,,,,,,,,,,,,,,,,,,,,,,10,001,2023_Feb_15_0945,ExactRep-v3-final,2021.2.3,59.91292256139037,
,,,,,,,,84,0,84,0,,,,,,,,,,,,,,,,,,,,,,,,,,,,,,,,,,,,,,,,,,,,,,,,,,,,,1083.5536417999974,None,,,,,,,,,,,,,,,,,,,,,,,,,,,,,,,,,,,silence,61,85,silent,white,1081.5407033999945,None,None,1081.5407033999945,None,,,,,,,,,,,,,,,,,,,,,,,,,,,,,,10,001,2023_Feb_15_0945,ExactRep-v3-final,2021.2.3,59.91292256139037,
,,,,,,,,85,0,85,0,,,,,,,,,,,,,,,,,,,,,,,,,,,,,,,,,,,,,,,,,,,,,,,,,,,,,1086.072735499998,None,,,,,,,,,,,,,,,,,,,,,,,,,,,,,,,,,,,chance,98,86,aloud,blue,1084.061575499989,None,None,1084.061575499989,None,,,,,,,,,,,,,,,,,,,,,,,,,,,,,,10,001,2023_Feb_15_0945,ExactRep-v3-final,2021.2.3,59.91292256139037,
,,,,,,,,86,0,86,0,,,,,,,,,,,,,,,,,,,,,,,,,,,,,,,,,,,,,,,,,,,,,,,,,,,,,1088.5752554999926,None,,,,,,,,,,,,,,,,,,,,,,,,,,,,,,,,,,,science,87,87,aloud,blue,1086.5735377999954,None,None,1086.5735377999954,None,,,,,,,,,,,,,,,,,,,,,,,,,,,,,,10,001,2023_Feb_15_0945,ExactRep-v3-final,2021.2.3,59.91292256139037,
,,,,,,,,87,0,87,0,,,,,,,,,,,,,,,,,,,,,,,,,,,,,,,,,,,,,,,,,,,,,,,,,,,,,1091.0778061999881,None,,,,,,,,,,,,,,,,,,,,,,,,,,,,,,,,,,,advice,14,88,sing,red,1089.0786458999937,None,None,1089.0786458999937,None,,,,,,,,,,,,,,,,,,,,,,,,,,,,,,10,001,2023_Feb_15_0945,ExactRep-v3-final,2021.2.3,59.91292256139037,
,,,,,,,,88,0,88,0,,,,,,,,,,,,,,,,,,,,,,,,,,,,,,,,,,,,,,,,,,,,,,,,,,,,,1093.5969607999868,None,,,,,,,,,,,,,,,,,,,,,,,,,,,,,,,,,,,skin,48,89,silent,white,1091.581800199987,None,None,1091.581800199987,None,,,,,,,,,,,,,,,,,,,,,,,,,,,,,,10,001,2023_Feb_15_0945,ExactRep-v3-final,2021.2.3,59.91292256139037,
,,,,,,,,89,0,89,0,,,,,,,,,,,,,,,,,,,,,,,,,,,,,,,,,,,,,,,,,,,,,,,,,,,,,1096.0990995999891,None,,,,,,,,,,,,,,,,,,,,,,,,,,,,,,,,,,,ticket,89,90,aloud,blue,1094.0989625999937,None,None,1094.0989625999937,None,,,,,,,,,,,,,,,,,,,,,,,,,,,,,,10,001,2023_Feb_15_0945,ExactRep-v3-final,2021.2.3,59.91292256139037,
,,,,,,,,90,0,90,0,,,,,,,,,,,,,,,,,,,,,,,,,,,,,,,,,,,,,,,,,,,,,,,,,,,,,1098.6184565999865,None,,,,,,,,,,,,,,,,,,,,,,,,,,,,,,,,,,,truth,106,91,aloud,blue,1096.6105366999982,None,None,1096.6105366999982,None,,,,,,,,,,,,,,,,,,,,,,,,,,,,,,10,001,2023_Feb_15_0945,ExactRep-v3-final,2021.2.3,59.91292256139037,
,,,,,,,,91,0,91,0,,,,,,,,,,,,,,,,,,,,,,,,,,,,,,,,,,,,,,,,,,,,,,,,,,,,,1101.1378005999868,None,,,,,,,,,,,,,,,,,,,,,,,,,,,,,,,,,,,series,1,92,sing,red,1099.1243656999868,None,None,1099.1243656999868,None,,,,,,,,,,,,,,,,,,,,,,,,,,,,,,10,001,2023_Feb_15_0945,ExactRep-v3-final,2021.2.3,59.91292256139037,
,,,,,,,,92,0,92,0,,,,,,,,,,,,,,,,,,,,,,,,,,,,,,,,,,,,,,,,,,,,,,,,,,,,,1103.6403288999863,None,,,,,,,,,,,,,,,,,,,,,,,,,,,,,,,,,,,chair,24,93,sing,red,1101.638582399988,None,None,1101.638582399988,None,,,,,,,,,,,,,,,,,,,,,,,,,,,,,,10,001,2023_Feb_15_0945,ExactRep-v3-final,2021.2.3,59.91292256139037,
,,,,,,,,93,0,93,0,,,,,,,,,,,,,,,,,,,,,,,,,,,,,,,,,,,,,,,,,,,,,,,,,,,,,1106.1428248999873,None,,,,,,,,,,,,,,,,,,,,,,,,,,,,,,,,,,,humour,33,94,sing,red,1104.1406100999884,None,None,1104.1406100999884,None,,,,,,,,,,,,,,,,,,,,,,,,,,,,,,10,001,2023_Feb_15_0945,ExactRep-v3-final,2021.2.3,59.91292256139037,
,,,,,,,,94,0,94,0,,,,,,,,,,,,,,,,,,,,,,,,,,,,,,,,,,,,,,,,,,,,,,,,,,,,,1108.6619922999962,None,,,,,,,,,,,,,,,,,,,,,,,,,,,,,,,,,,,house,116,95,aloud,blue,1106.6474857999856,None,None,1106.6474857999856,None,,,,,,,,,,,,,,,,,,,,,,,,,,,,,,10,001,2023_Feb_15_0945,ExactRep-v3-final,2021.2.3,59.91292256139037,
,,,,,,,,95,0,95,0,,,,,,,,,,,,,,,,,,,,,,,,,,,,,,,,,,,,,,,,,,,,,,,,,,,,,1111.164603799989,None,,,,,,,,,,,,,,,,,,,,,,,,,,,,,,,,,,,market,64,96,silent,white,1109.1657040999999,None,None,1109.1657040999999,None,,,,,,,,,,,,,,,,,,,,,,,,,,,,,,10,001,2023_Feb_15_0945,ExactRep-v3-final,2021.2.3,59.91292256139037,
,,,,,,,,96,0,96,0,,,,,,,,,,,,,,,,,,,,,,,,,,,,,,,,,,,,,,,,,,,,,,,,,,,,,1113.6843407999986,None,,,,,,,,,,,,,,,,,,,,,,,,,,,,,,,,,,,maiden,111,97,aloud,blue,1111.6714361999911,None,None,1111.6714361999911,None,,,,,,,,,,,,,,,,,,,,,,,,,,,,,,10,001,2023_Feb_15_0945,ExactRep-v3-final,2021.2.3,59.91292256139037,
,,,,,,,,97,0,97,0,,,,,,,,,,,,,,,,,,,,,,,,,,,,,,,,,,,,,,,,,,,,,,,,,,,,,1116.1861977999943,None,,,,,,,,,,,,,,,,,,,,,,,,,,,,,,,,,,,priest,72,98,silent,white,1114.1851386999915,None,None,1114.1851386999915,None,,,,,,,,,,,,,,,,,,,,,,,,,,,,,,10,001,2023_Feb_15_0945,ExactRep-v3-final,2021.2.3,59.91292256139037,
,,,,,,,,98,0,98,0,,,,,,,,,,,,,,,,,,,,,,,,,,,,,,,,,,,,,,,,,,,,,,,,,,,,,1118.6887563999917,None,,,,,,,,,,,,,,,,,,,,,,,,,,,,,,,,,,,grass,102,99,aloud,blue,1116.6893649999984,None,None,1116.6893649999984,None,,,,,,,,,,,,,,,,,,,,,,,,,,,,,,10,001,2023_Feb_15_0945,ExactRep-v3-final,2021.2.3,59.91292256139037,
,,,,,,,,99,0,99,0,,,,,,,,,,,,,,,,,,,,,,,,,,,,,,,,,,,,,,,,,,,,,,,,,,,,,1121.1910749999952,None,,,,,,,,,,,,,,,,,,,,,,,,,,,,,,,,,,,cost,6,100,sing,red,1119.1890512999962,None,None,1119.1890512999962,None,,,,,,,,,,,,,,,,,,,,,,,,,,,,,,10,001,2023_Feb_15_0945,ExactRep-v3-final,2021.2.3,59.91292256139037,
,,,,,,,,100,0,100,0,,,,,,,,,,,,,,,,,,,,,,,,,,,,,,,,,,,,,,,,,,,,,,,,,,,,,1123.6935239999875,None,,,,,,,,,,,,,,,,,,,,,,,,,,,,,,,,,,,plant,27,101,sing,red,1121.6932144999882,None,None,1121.6932144999882,None,,,,,,,,,,,,,,,,,,,,,,,,,,,,,,10,001,2023_Feb_15_0945,ExactRep-v3-final,2021.2.3,59.91292256139037,
,,,,,,,,101,0,101,0,,,,,,,,,,,,,,,,,,,,,,,,,,,,,,,,,,,,,,,,,,,,,,,,,,,,,1126.2033529999899,None,,,,,,,,,,,,,,,,,,,,,,,,,,,,,,,,,,,meeting,71,102,silent,white,1124.1940085999959,None,None,1124.1940085999959,None,,,,,,,,,,,,,,,,,,,,,,,,,,,,,,10,001,2023_Feb_15_0945,ExactRep-v3-final,2021.2.3,59.91292256139037,
,,,,,,,,102,0,102,0,,,,,,,,,,,,,,,,,,,,,,,,,,,,,,,,,,,,,,,,,,,,,,,,,,,,,1128.7320365999913,None,,,,,,,,,,,,,,,,,,,,,,,,,,,,,,,,,,,master,99,103,aloud,blue,1126.7214967999898,None,None,1126.7214967999898,None,,,,,,,,,,,,,,,,,,,,,,,,,,,,,,10,001,2023_Feb_15_0945,ExactRep-v3-final,2021.2.3,59.91292256139037,
,,,,,,,,103,0,103,0,,,,,,,,,,,,,,,,,,,,,,,,,,,,,,,,,,,,,,,,,,,,,,,,,,,,,1131.2511764999945,None,,,,,,,,,,,,,,,,,,,,,,,,,,,,,,,,,,,woman,34,104,sing,red,1129.2375677999953,None,None,1129.2375677999953,None,,,,,,,,,,,,,,,,,,,,,,,,,,,,,,10,001,2023_Feb_15_0945,ExactRep-v3-final,2021.2.3,59.91292256139037,
,,,,,,,,104,0,104,0,,,,,,,,,,,,,,,,,,,,,,,,,,,,,,,,,,,,,,,,,,,,,,,,,,,,,1133.7704427999997,None,,,,,,,,,,,,,,,,,,,,,,,,,,,,,,,,,,,judge,54,105,silent,white,1131.7573238999903,None,None,1131.7573238999903,None,,,,,,,,,,,,,,,,,,,,,,,,,,,,,,10,001,2023_Feb_15_0945,ExactRep-v3-final,2021.2.3,59.91292256139037,
,,,,,,,,105,0,105,0,,,,,,,,,,,,,,,,,,,,,,,,,,,,,,,,,,,,,,,,,,,,,,,,,,,,,1136.2729329999856,None,,,,,,,,,,,,,,,,,,,,,,,,,,,,,,,,,,,butter,69,106,silent,white,1134.270970499987,None,None,1134.270970499987,None,,,,,,,,,,,,,,,,,,,,,,,,,,,,,,10,001,2023_Feb_15_0945,ExactRep-v3-final,2021.2.3,59.91292256139037,
,,,,,,,,106,0,106,0,,,,,,,,,,,,,,,,,,,,,,,,,,,,,,,,,,,,,,,,,,,,,,,,,,,,,1138.775430099995,None,,,,,,,,,,,,,,,,,,,,,,,,,,,,,,,,,,,history,79,107,sing,red,1136.773546499986,None,None,1136.773546499986,None,,,,,,,,,,,,,,,,,,,,,,,,,,,,,,10,001,2023_Feb_15_0945,ExactRep-v3-final,2021.2.3,59.91292256139037,
,,,,,,,,107,0,107,0,,,,,,,,,,,,,,,,,,,,,,,,,,,,,,,,,,,,,,,,,,,,,,,,,,,,,1141.2946403999958,None,,,,,,,,,,,,,,,,,,,,,,,,,,,,,,,,,,,lake,85,108,aloud,blue,1139.286076999997,None,None,1139.286076999997,None,,,,,,,,,,,,,,,,,,,,,,,,,,,,,,10,001,2023_Feb_15_0945,ExactRep-v3-final,2021.2.3,59.91292256139037,
,,,,,,,,108,0,108,0,,,,,,,,,,,,,,,,,,,,,,,,,,,,,,,,,,,,,,,,,,,,,,,,,,,,,1143.8138164999982,None,,,,,,,,,,,,,,,,,,,,,,,,,,,,,,,,,,,lord,86,109,aloud,blue,1141.8005272999872,None,None,1141.8005272999872,None,,,,,,,,,,,,,,,,,,,,,,,,,,,,,,10,001,2023_Feb_15_0945,ExactRep-v3-final,2021.2.3,59.91292256139037,
,,,,,,,,109,0,109,0,,,,,,,,,,,,,,,,,,,,,,,,,,,,,,,,,,,,,,,,,,,,,,,,,,,,,1146.3163717999996,None,,,,,,,,,,,,,,,,,,,,,,,,,,,,,,,,,,,winter,42,110,silent,white,1144.3141484999942,None,None,1144.3141484999942,None,,,,,,,,,,,,,,,,,,,,,,,,,,,,,,10,001,2023_Feb_15_0945,ExactRep-v3-final,2021.2.3,59.91292256139037,
,,,,,,,,110,0,110,0,,,,,,,,,,,,,,,,,,,,,,,,,,,,,,,,,,,,,,,,,,,,,,,,,,,,,1148.8353489,None,,,,,,,,,,,,,,,,,,,,,,,,,,,,,,,,,,,library,76,111,silent,white,1146.8215531999886,None,None,1146.8215531999886,None,,,,,,,,,,,,,,,,,,,,,,,,,,,,,,10,001,2023_Feb_15_0945,ExactRep-v3-final,2021.2.3,59.91292256139037,
,,,,,,,,111,0,111,0,,,,,,,,,,,,,,,,,,,,,,,,,,,,,,,,,,,,,,,,,,,,,,,,,,,,,1151.3380457999883,None,,,,,,,,,,,,,,,,,,,,,,,,,,,,,,,,,,,flag,41,112,silent,white,1149.3358527999953,None,None,1149.3358527999953,None,,,,,,,,,,,,,,,,,,,,,,,,,,,,,,10,001,2023_Feb_15_0945,ExactRep-v3-final,2021.2.3,59.91292256139037,
,,,,,,,,112,0,112,0,,,,,,,,,,,,,,,,,,,,,,,,,,,,,,,,,,,,,,,,,,,,,,,,,,,,,1153.8571932999912,None,,,,,,,,,,,,,,,,,,,,,,,,,,,,,,,,,,,cottage,36,113,sing,red,1151.8426804999908,None,None,1151.8426804999908,None,,,,,,,,,,,,,,,,,,,,,,,,,,,,,,10,001,2023_Feb_15_0945,ExactRep-v3-final,2021.2.3,59.91292256139037,
,,,,,,,,113,0,113,0,,,,,,,,,,,,,,,,,,,,,,,,,,,,,,,,,,,,,,,,,,,,,,,,,,,,,1156.3607591999898,None,,,,,,,,,,,,,,,,,,,,,,,,,,,,,,,,,,,fur,60,114,silent,white,1154.357502199986,None,None,1154.357502199986,None,,,,,,,,,,,,,,,,,,,,,,,,,,,,,,10,001,2023_Feb_15_0945,ExactRep-v3-final,2021.2.3,59.91292256139037,
,,,,,,,,114,0,114,0,,,,,,,,,,,,,,,,,,,,,,,,,,,,,,,,,,,,,,,,,,,,,,,,,,,,,1158.8793001999875,None,,,,,,,,,,,,,,,,,,,,,,,,,,,,,,,,,,,nail,59,115,silent,white,1156.864664599998,None,None,1156.864664599998,None,,,,,,,,,,,,,,,,,,,,,,,,,,,,,,10,001,2023_Feb_15_0945,ExactRep-v3-final,2021.2.3,59.91292256139037,
,,,,,,,,115,0,115,0,,,,,,,,,,,,,,,,,,,,,,,,,,,,,,,,,,,,,,,,,,,,,,,,,,,,,1161.3813844999968,None,,,,,,,,,,,,,,,,,,,,,,,,,,,,,,,,,,,event,81,116,aloud,blue,1159.3809398999874,None,None,1159.3809398999874,None,,,,,,,,,,,,,,,,,,,,,,,,,,,,,,10,001,2023_Feb_15_0945,ExactRep-v3-final,2021.2.3,59.91292256139037,
,,,,,,,,116,0,116,0,,,,,,,,,,,,,,,,,,,,,,,,,,,,,,,,,,,,,,,,,,,,,,,,,,,,,1163.900373899989,None,,,,,,,,,,,,,,,,,,,,,,,,,,,,,,,,,,,valley,105,117,aloud,blue,1161.885057099993,None,None,1161.885057099993,None,,,,,,,,,,,,,,,,,,,,,,,,,,,,,,10,001,2023_Feb_15_0945,ExactRep-v3-final,2021.2.3,59.91292256139037,
,,,,,,,,117,0,117,0,,,,,,,,,,,,,,,,,,,,,,,,,,,,,,,,,,,,,,,,,,,,,,,,,,,,,1166.4197926999914,None,,,,,,,,,,,,,,,,,,,,,,,,,,,,,,,,,,,factory,2,118,sing,red,1164.4098829999857,None,None,1164.4098829999857,None,,,,,,,,,,,,,,,,,,,,,,,,,,,,,,10,001,2023_Feb_15_0945,ExactRep-v3-final,2021.2.3,59.91292256139037,
,,,,,,,,118,0,118,0,,,,,,,,,,,,,,,,,,,,,,,,,,,,,,,,,,,,,,,,,,,,,,,,,,,,,1168.922295299999,None,,,,,,,,,,,,,,,,,,,,,,,,,,,,,,,,,,,church,51,119,silent,white,1166.9211858999915,None,None,1166.9211858999915,None,,,,,,,,,,,,,,,,,,,,,,,,,,,,,,10,001,2023_Feb_15_0945,ExactRep-v3-final,2021.2.3,59.91292256139037,
,,,,,,,,119,0,119,0,,,,,,,,,,,,,,,,,,,,,,,,,,,,,,,,,,,,,,,,,,,,,,,,,,,,,1171.4414655999863,None,,,,,,,,,,,,,,,,,,,,,,,,,,,,,,,,,,,passion,22,120,sing,red,1169.4269335999998,None,None,1169.4269335999998,None,,,,,,,,,,,,,,,,,,,,,,,,,,,,,,10,001,2023_Feb_15_0945,ExactRep-v3-final,2021.2.3,59.91292256139037,
,,,,,,,,,,,,,,,,,,,,,,,,,,,,,,,,,,,,,,,,,,,,,,,,,,,,,,,,,,,,,,,,,,,,,,,,,,,,,,,,,,,,,,,,,,,,,,,,,,,,,,,,,,,,,,1171.9432694999996,None,space,7.168987500001094,1181.9197191999992,None,,,,,,,,,,,,,,,,,,,,,,,,10,001,2023_Feb_15_0945,ExactRep-v3-final,2021.2.3,59.91292256139037,
,,,,,,,,,,,,,,,,,,,,,,,,,,,,,,,,,,,,,,,,,,,,,,,,,,,,,,,,,,,,,,,,,,,,,,,,,,,,,,,,,,,,,,,,,,,,,,,,,,,,,,,,,,,,,,,,,,,,1189.1108911999909,None,space,31.2814975999936,1199.0871853999997,None,,,,,,,,,,,,,,,,,,10,001,2023_Feb_15_0945,ExactRep-v3-final,2021.2.3,59.91292256139037,
,,,,,,,,,,,,0,0,0,0,,,,,,,,,,,,,,,,,,,,,,,,,,,,,,,,,,,,,,,,,,,,,,,,,1233.7202639999887,None,,,,,,,,,,,,,,,,,,,,,,,,,,,,,,,,,,,,,,,,,,,,,,,,,,,,,,,,,pride,147,1,silent,new,yellow,1230.896395399992,None,n,1230.896395399992,None,"['n', 'return']","[1.9440481000056025, 2.7919716000033077]",1230.896395399992,None,,,10,001,2023_Feb_15_0945,ExactRep-v3-final,2021.2.3,59.91292256139037,
,,,,,,,,,,,,1,0,1,0,,,,,,,,,,,,,,,,,,,,,,,,,,,,,,,,,,,,,,,,,,,,,,,,,1238.3748756999994,None,,,,,,,,,,,,,,,,,,,,,,,,,,,,,,,,,,,,,,,,,,,,,,,,,,,,,,,,,custom,150,2,silent,new,yellow,1234.2376195999968,None,n,1234.2376195999968,None,"['n', 'return']","[3.3147853999980725, 4.09080879999965]",1234.2376195999968,None,,,10,001,2023_Feb_15_0945,ExactRep-v3-final,2021.2.3,59.91292256139037,
,,,,,,,,,,,,2,0,2,0,,,,,,,,,,,,,,,,,,,,,,,,,,,,,,,,,,,,,,,,,,,,,,,,,1241.2278697999864,None,,,,,,,,,,,,,,,,,,,,,,,,,,,,,,,,,,,,,,,,,,,,,,,,,,,,,,,,,hour,198,3,aloud,new,yellow,1238.877762499993,None,n,1238.877762499993,None,"['n', 'return']","[1.8268664000061108, 2.3066306999971857]",1238.877762499993,None,,,10,001,2023_Feb_15_0945,ExactRep-v3-final,2021.2.3,59.91292256139037,
,,,,,,,,,,,,3,0,3,0,,,,,,,,,,,,,,,,,,,,,,,,,,,,,,,,,,,,,,,,,,,,,,,,,1243.7135112999968,None,,,,,,,,,,,,,,,,,,,,,,,,,,,,,,,,,,,,,,,,,,,,,,,,,,,,,,,,,cattle,191,4,sing,new,yellow,1241.7374249999993,None,n,1241.7374249999993,None,"['n', 'return']","[1.57492449998972, 1.9349551999912364]",1241.7374249999993,None,,,10,001,2023_Feb_15_0945,ExactRep-v3-final,2021.2.3,59.91292256139037,
,,,,,,,,,,,,4,0,4,0,,,,,,,,,,,,,,,,,,,,,,,,,,,,,,,,,,,,,,,,,,,,,,,,,1245.648859199995,None,,,,,,,,,,,,,,,,,,,,,,,,,,,,,,,,,,,,,,,,,,,,,,,,,,,,,,,,,answer,19,5,sing,old,yellow,1244.22468259999,None,y,1244.22468259999,None,"['y', 'return']","[1.1118267999991076, 1.391771399998106]",1244.22468259999,None,,,10,001,2023_Feb_15_0945,ExactRep-v3-final,2021.2.3,59.91292256139037,
,,,,,,,,,,,,5,0,5,0,,,,,,,,,,,,,,,,,,,,,,,,,,,,,,,,,,,,,,,,,,,,,,,,,1247.2502410999878,None,,,,,,,,,,,,,,,,,,,,,,,,,,,,,,,,,,,,,,,,,,,,,,,,,,,,,,,,,advice,14,6,sing,old,yellow,1246.162235699987,None,y,1246.162235699987,None,"['y', 'return']","[0.7981147999962559, 1.0540441000048304]",1246.162235699987,None,,,10,001,2023_Feb_15_0945,ExactRep-v3-final,2021.2.3,59.91292256139037,
,,,,,,,,,,,,6,0,6,0,,,,,,,,,,,,,,,,,,,,,,,,,,,,,,,,,,,,,,,,,,,,,,,,,1248.952172899997,None,,,,,,,,,,,,,,,,,,,,,,,,,,,,,,,,,,,,,,,,,,,,,,,,,,,,,,,,,slave,68,7,silent,old,yellow,1247.7682324999914,None,y,1247.7682324999914,None,"['y', 'return']","[0.8563123999920208, 1.1521471000014571]",1247.7682324999914,None,,,10,001,2023_Feb_15_0945,ExactRep-v3-final,2021.2.3,59.91292256139037,
,,,,,,,,,,,,7,0,7,0,,,,,,,,,,,,,,,,,,,,,,,,,,,,,,,,,,,,,,,,,,,,,,,,,1250.7038561999943,None,,,,,,,,,,,,,,,,,,,,,,,,,,,,,,,,,,,,,,,,,,,,,,,,,,,,,,,,,king,56,8,silent,old,yellow,1249.4612427999964,None,y,1249.4612427999964,None,"['y', 'return']","[0.8990760000015143, 1.1951131999958307]",1249.4612427999964,None,,,10,001,2023_Feb_15_0945,ExactRep-v3-final,2021.2.3,59.91292256139037,
,,,,,,,,,,,,8,0,8,0,,,,,,,,,,,,,,,,,,,,,,,,,,,,,,,,,,,,,,,,,,,,,,,,,1260.0299326999957,None,,,,,,,,,,,,,,,,,,,,,,,,,,,,,,,,,,,,,,,,,,,,,,,,,,,,,,,,,love,58,9,silent,old,yellow,1251.2043242999935,None,n,1251.2043242999935,None,"['n', 'return']","[4.396051600007922, 8.780118600014248]",1251.2043242999935,None,,,10,001,2023_Feb_15_0945,ExactRep-v3-final,2021.2.3,59.91292256139037,
,,,,,,,,,,,,9,0,9,0,,,,,,,,,,,,,,,,,,,,,,,,,,,,,,,,,,,,,,,,,,,,,,,,,1261.9317298999958,None,,,,,,,,,,,,,,,,,,,,,,,,,,,,,,,,,,,,,,,,,,,,,,,,,,,,,,,,,market,64,10,silent,old,yellow,1260.5415713999973,None,y,1260.5415713999973,None,"['y', 'return']","[1.0508377999940421, 1.3467740999913076]",1260.5415713999973,None,,,10,001,2023_Feb_15_0945,ExactRep-v3-final,2021.2.3,59.91292256139037,
,,,,,,,,,,,,10,0,10,0,,,,,,,,,,,,,,,,,,,,,,,,,,,,,,,,,,,,,,,,,,,,,,,,,1263.7835785999923,None,,,,,,,,,,,,,,,,,,,,,,,,,,,,,,,,,,,,,,,,,,,,,,,,,,,,,,,,,origin,141,11,silent,new,yellow,1262.4534211999999,None,n,1262.4534211999999,None,"['n', 'return']","[1.034971900007804, 1.2909676999988733]",1262.4534211999999,None,,,10,001,2023_Feb_15_0945,ExactRep-v3-final,2021.2.3,59.91292256139037,
,,,,,,,,,,,,11,0,11,0,,,,,,,,,,,,,,,,,,,,,,,,,,,,,,,,,,,,,,,,,,,,,,,,,1265.502209399987,None,,,,,,,,,,,,,,,,,,,,,,,,,,,,,,,,,,,,,,,,,,,,,,,,,,,,,,,,,law,216,12,aloud,new,yellow,1264.2937635999988,None,n,1264.2937635999988,None,"['n', 'return']","[0.9229085999977542, 1.170758799999021]",1264.2937635999988,None,,,10,001,2023_Feb_15_0945,ExactRep-v3-final,2021.2.3,59.91292256139037,
,,,,,,,,,,,,12,0,12,0,,,,,,,,,,,,,,,,,,,,,,,,,,,,,,,,,,,,,,,,,,,,,,,,,1267.4038846999902,None,,,,,,,,,,,,,,,,,,,,,,,,,,,,,,,,,,,,,,,,,,,,,,,,,,,,,,,,,shock,188,13,aloud,new,yellow,1266.0217182999913,None,n,1266.0217182999913,None,"['n', 'return']","[0.8986950999969849, 1.3468359999969834]",1266.0217182999913,None,,,10,001,2023_Feb_15_0945,ExactRep-v3-final,2021.2.3,59.91292256139037,
,,,,,,,,,,,,13,0,13,0,,,,,,,,,,,,,,,,,,,,,,,,,,,,,,,,,,,,,,,,,,,,,,,,,1269.1558133999933,None,,,,,,,,,,,,,,,,,,,,,,,,,,,,,,,,,,,,,,,,,,,,,,,,,,,,,,,,,opinion,77,14,silent,old,yellow,1267.9147192999953,None,y,1267.9147192999953,None,"['y', 'return']","[0.9499050000013085, 1.1976556000008713]",1267.9147192999953,None,,,10,001,2023_Feb_15_0945,ExactRep-v3-final,2021.2.3,59.91292256139037,
,,,,,,,,,,,,14,0,14,0,,,,,,,,,,,,,,,,,,,,,,,,,,,,,,,,,,,,,,,,,,,,,,,,,1271.4746173999883,None,,,,,,,,,,,,,,,,,,,,,,,,,,,,,,,,,,,,,,,,,,,,,,,,,,,,,,,,,table,235,15,sing,new,yellow,1269.6567919999943,None,y,1269.6567919999943,None,"['y', 'return']","[1.1835833999939496, 1.7755641999974614]",1269.6567919999943,None,,,10,001,2023_Feb_15_0945,ExactRep-v3-final,2021.2.3,59.91292256139037,
,,,,,,,,,,,,15,0,15,0,,,,,,,,,,,,,,,,,,,,,,,,,,,,,,,,,,,,,,,,,,,,,,,,,1273.3099416999903,None,,,,,,,,,,,,,,,,,,,,,,,,,,,,,,,,,,,,,,,,,,,,,,,,,,,,,,,,,wine,131,16,silent,new,yellow,1271.9839823999937,None,n,1271.9839823999937,None,"['n', 'return']","[1.0243817000009585, 1.288537800006452]",1271.9839823999937,None,,,10,001,2023_Feb_15_0945,ExactRep-v3-final,2021.2.3,59.91292256139037,
,,,,,,,,,,,,16,0,16,0,,,,,,,,,,,,,,,,,,,,,,,,,,,,,,,,,,,,,,,,,,,,,,,,,1275.1282964999991,None,,,,,,,,,,,,,,,,,,,,,,,,,,,,,,,,,,,,,,,,,,,,,,,,,,,,,,,,,avenue,173,17,sing,new,yellow,1273.812843599997,None,n,1273.812843599997,None,"['n', 'return']","[1.0036225999938324, 1.2837081000034232]",1273.812843599997,None,,,10,001,2023_Feb_15_0945,ExactRep-v3-final,2021.2.3,59.91292256139037,
,,,,,,,,,,,,17,0,17,0,,,,,,,,,,,,,,,,,,,,,,,,,,,,,,,,,,,,,,,,,,,,,,,,,1276.9135479999968,None,,,,,,,,,,,,,,,,,,,,,,,,,,,,,,,,,,,,,,,,,,,,,,,,,,,,,,,,,rod,179,18,sing,new,yellow,1275.6360190999985,None,n,1275.6360190999985,None,"['n', 'return']","[0.9725237999955425, 1.236509099995601]",1275.6360190999985,None,,,10,001,2023_Feb_15_0945,ExactRep-v3-final,2021.2.3,59.91292256139037,
,,,,,,,,,,,,18,0,18,0,,,,,,,,,,,,,,,,,,,,,,,,,,,,,,,,,,,,,,,,,,,,,,,,,1278.6984511999908,None,,,,,,,,,,,,,,,,,,,,,,,,,,,,,,,,,,,,,,,,,,,,,,,,,,,,,,,,,air,172,19,aloud,new,yellow,1277.413958899997,None,n,1277.413958899997,None,"['n', 'return']","[0.9784493999904953, 1.2505139999993844]",1277.413958899997,None,,,10,001,2023_Feb_15_0945,ExactRep-v3-final,2021.2.3,59.91292256139037,
,,,,,,,,,,,,19,0,19,0,,,,,,,,,,,,,,,,,,,,,,,,,,,,,,,,,,,,,,,,,,,,,,,,,1280.2501398999884,None,,,,,,,,,,,,,,,,,,,,,,,,,,,,,,,,,,,,,,,,,,,,,,,,,,,,,,,,,dream,13,20,sing,old,yellow,1279.2080930999946,None,y,1279.2080930999946,None,"['y', 'return']","[0.7683131000085268, 1.000414499998442]",1279.2080930999946,None,,,10,001,2023_Feb_15_0945,ExactRep-v3-final,2021.2.3,59.91292256139037,
,,,,,,,,,,,,20,0,20,0,,,,,,,,,,,,,,,,,,,,,,,,,,,,,,,,,,,,,,,,,,,,,,,,,1282.0687441999908,None,,,,,,,,,,,,,,,,,,,,,,,,,,,,,,,,,,,,,,,,,,,,,,,,,,,,,,,,,circle,142,21,silent,new,yellow,1280.7540443999897,None,n,1280.7540443999897,None,"['n', 'return']","[0.9665358000056585, 1.2703486000100384]",1280.7540443999897,None,,,10,001,2023_Feb_15_0945,ExactRep-v3-final,2021.2.3,59.91292256139037,
,,,,,,,,,,,,21,0,21,0,,,,,,,,,,,,,,,,,,,,,,,,,,,,,,,,,,,,,,,,,,,,,,,,,1284.0205981999898,None,,,,,,,,,,,,,,,,,,,,,,,,,,,,,,,,,,,,,,,,,,,,,,,,,,,,,,,,,queen,225,22,sing,new,yellow,1282.5785654999927,None,n,1282.5785654999927,None,"['n', 'return']","[1.1338786999986041, 1.4057532000006177]",1282.5785654999927,None,,,10,001,2023_Feb_15_0945,ExactRep-v3-final,2021.2.3,59.91292256139037,
,,,,,,,,,,,,22,0,22,0,,,,,,,,,,,,,,,,,,,,,,,,,,,,,,,,,,,,,,,,,,,,,,,,,1285.8891952999984,None,,,,,,,,,,,,,,,,,,,,,,,,,,,,,,,,,,,,,,,,,,,,,,,,,,,,,,,,,woman,34,23,sing,old,yellow,1284.528688899998,None,y,1284.528688899998,None,"['y', 'return']","[1.023694700008491, 1.3277827999991132]",1284.528688899998,None,,,10,001,2023_Feb_15_0945,ExactRep-v3-final,2021.2.3,59.91292256139037,
,,,,,,,,,,,,23,0,23,0,,,,,,,,,,,,,,,,,,,,,,,,,,,,,,,,,,,,,,,,,,,,,,,,,1287.7909301999898,None,,,,,,,,,,,,,,,,,,,,,,,,,,,,,,,,,,,,,,,,,,,,,,,,,,,,,,,,,dress,8,24,sing,old,yellow,1286.4024409999984,None,y,1286.4024409999984,None,"['y', 'return']","[1.117949099992984, 1.3500479000067571]",1286.4024409999984,None,,,10,001,2023_Feb_15_0945,ExactRep-v3-final,2021.2.3,59.91292256139037,
,,,,,,,,,,,,24,0,24,0,,,,,,,,,,,,,,,,,,,,,,,,,,,,,,,,,,,,,,,,,,,,,,,,,1289.4094358999864,None,,,,,,,,,,,,,,,,,,,,,,,,,,,,,,,,,,,,,,,,,,,,,,,,,,,,,,,,,body,215,25,sing,new,yellow,1288.3002369999886,None,n,1288.3002369999886,None,"['n', 'return']","[0.8842233000032138, 1.0760702999978093]",1288.3002369999886,None,,,10,001,2023_Feb_15_0945,ExactRep-v3-final,2021.2.3,59.91292256139037,
,,,,,,,,,,,,25,0,25,0,,,,,,,,,,,,,,,,,,,,,,,,,,,,,,,,,,,,,,,,,,,,,,,,,1291.3946388999902,None,,,,,,,,,,,,,,,,,,,,,,,,,,,,,,,,,,,,,,,,,,,,,,,,,,,,,,,,,effort,154,26,silent,new,yellow,1289.9164686999866,None,y,1289.9164686999866,None,"['y', 'return']","[0.8759464000031585, 1.4440056000021286]",1289.9164686999866,None,,,10,001,2023_Feb_15_0945,ExactRep-v3-final,2021.2.3,59.91292256139037,
,,,,,,,,,,,,26,0,26,0,,,,,,,,,,,,,,,,,,,,,,,,,,,,,,,,,,,,,,,,,,,,,,,,,1293.4132133999956,None,,,,,,,,,,,,,,,,,,,,,,,,,,,,,,,,,,,,,,,,,,,,,,,,,,,,,,,,,ship,18,27,sing,old,yellow,1291.9028290999995,None,n,1291.9028290999995,None,"['n', 'return']","[0.9056873000081396, 1.4656501999998]",1291.9028290999995,None,,,10,001,2023_Feb_15_0945,ExactRep-v3-final,2021.2.3,59.91292256139037,
,,,,,,,,,,,,27,0,27,0,,,,,,,,,,,,,,,,,,,,,,,,,,,,,,,,,,,,,,,,,,,,,,,,,1294.797980999996,None,,,,,,,,,,,,,,,,,,,,,,,,,,,,,,,,,,,,,,,,,,,,,,,,,,,,,,,,,doll,31,28,sing,old,yellow,1293.9231195999891,None,y,1293.9231195999891,None,"['y', 'return']","[0.5414217000070494, 0.8293268999987049]",1293.9231195999891,None,,,10,001,2023_Feb_15_0945,ExactRep-v3-final,2021.2.3,59.91292256139037,
,,,,,,,,,,,,28,0,28,0,,,,,,,,,,,,,,,,,,,,,,,,,,,,,,,,,,,,,,,,,,,,,,,,,1296.2179966999975,None,,,,,,,,,,,,,,,,,,,,,,,,,,,,,,,,,,,,,,,,,,,,,,,,,,,,,,,,,child,12,29,sing,old,yellow,1295.2991533999884,None,n,1295.2991533999884,None,"['n', 'return']","[0.6213194000010844, 0.877320100000361]",1295.2991533999884,None,,,10,001,2023_Feb_15_0945,ExactRep-v3-final,2021.2.3,59.91292256139037,
,,,,,,,,,,,,29,0,29,0,,,,,,,,,,,,,,,,,,,,,,,,,,,,,,,,,,,,,,,,,,,,,,,,,1297.784593599994,None,,,,,,,,,,,,,,,,,,,,,,,,,,,,,,,,,,,,,,,,,,,,,,,,,,,,,,,,,amount,25,30,sing,old,yellow,1296.734721899993,None,y,1296.734721899993,None,"['y', 'return']","[0.7295793000084814, 1.0097314000013284]",1296.734721899993,None,,,10,001,2023_Feb_15_0945,ExactRep-v3-final,2021.2.3,59.91292256139037,
,,,,,,,,,,,,30,0,30,0,,,,,,,,,,,,,,,,,,,,,,,,,,,,,,,,,,,,,,,,,,,,,,,,,1299.5861078999878,None,,,,,,,,,,,,,,,,,,,,,,,,,,,,,,,,,,,,,,,,,,,,,,,,,,,,,,,,,board,112,31,aloud,old,yellow,1298.2869270999945,None,y,1298.2869270999945,None,"['y', 'return']","[0.969509200003813, 1.257600299999467]",1298.2869270999945,None,,,10,001,2023_Feb_15_0945,ExactRep-v3-final,2021.2.3,59.91292256139037,
,,,,,,,,,,,,31,0,31,0,,,,,,,,,,,,,,,,,,,,,,,,,,,,,,,,,,,,,,,,,,,,,,,,,1301.5382930999913,None,,,,,,,,,,,,,,,,,,,,,,,,,,,,,,,,,,,,,,,,,,,,,,,,,,,,,,,,,street,90,32,aloud,old,yellow,1300.1007344999962,None,n,1300.1007344999962,None,"['n', 'return']","[0.8117016000032891, 1.4036482999945292]",1300.1007344999962,None,,,10,001,2023_Feb_15_0945,ExactRep-v3-final,2021.2.3,59.91292256139037,
,,,,,,,,,,,,32,0,32,0,,,,,,,,,,,,,,,,,,,,,,,,,,,,,,,,,,,,,,,,,,,,,,,,,1302.872684099988,None,,,,,,,,,,,,,,,,,,,,,,,,,,,,,,,,,,,,,,,,,,,,,,,,,,,,,,,,,village,11,33,sing,old,yellow,1302.0448498999904,None,y,1302.0448498999904,None,"['y', 'return']","[0.5635904999944614, 0.7876091999933124]",1302.0448498999904,None,,,10,001,2023_Feb_15_0945,ExactRep-v3-final,2021.2.3,59.91292256139037,
,,,,,,,,,,,,33,0,33,0,,,,,,,,,,,,,,,,,,,,,,,,,,,,,,,,,,,,,,,,,,,,,,,,,1304.557696399992,None,,,,,,,,,,,,,,,,,,,,,,,,,,,,,,,,,,,,,,,,,,,,,,,,,,,,,,,,,mind,103,34,aloud,old,yellow,1303.3757662999997,None,n,1303.3757662999997,None,"['n', 'return']","[0.8246603000006871, 1.1366889999917476]",1303.3757662999997,None,,,10,001,2023_Feb_15_0945,ExactRep-v3-final,2021.2.3,59.91292256139037,
,,,,,,,,,,,,34,0,34,0,,,,,,,,,,,,,,,,,,,,,,,,,,,,,,,,,,,,,,,,,,,,,,,,,1306.4095877999935,None,,,,,,,,,,,,,,,,,,,,,,,,,,,,,,,,,,,,,,,,,,,,,,,,,,,,,,,,,corner,118,35,aloud,old,yellow,1305.069326599987,None,n,1305.069326599987,None,"['n', 'return']","[0.795071900007315, 1.2992378000053577]",1305.069326599987,None,,,10,001,2023_Feb_15_0945,ExactRep-v3-final,2021.2.3,59.91292256139037,
,,,,,,,,,,,,35,0,35,0,,,,,,,,,,,,,,,,,,,,,,,,,,,,,,,,,,,,,,,,,,,,,,,,,1307.9778697999864,None,,,,,,,,,,,,,,,,,,,,,,,,,,,,,,,,,,,,,,,,,,,,,,,,,,,,,,,,,flood,184,36,aloud,new,yellow,1306.92215079999,None,n,1306.92215079999,None,"['n', 'return']","[0.6941398000053596, 1.0223719000059646]",1306.92215079999,None,,,10,001,2023_Feb_15_0945,ExactRep-v3-final,2021.2.3,59.91292256139037,
,,,,,,,,,,,,36,0,36,0,,,,,,,,,,,,,,,,,,,,,,,,,,,,,,,,,,,,,,,,,,,,,,,,,1309.863085799996,None,,,,,,,,,,,,,,,,,,,,,,,,,,,,,,,,,,,,,,,,,,,,,,,,,,,,,,,,,clock,67,37,silent,old,yellow,1308.4882860999933,None,y,1308.4882860999933,None,"['y', 'return']","[1.0883231000043452, 1.3282595000055153]",1308.4882860999933,None,,,10,001,2023_Feb_15_0945,ExactRep-v3-final,2021.2.3,59.91292256139037,
,,,,,,,,,,,,37,0,37,0,,,,,,,,,,,,,,,,,,,,,,,,,,,,,,,,,,,,,,,,,,,,,,,,,1311.4478885999997,None,,,,,,,,,,,,,,,,,,,,,,,,,,,,,,,,,,,,,,,,,,,,,,,,,,,,,,,,,vessel,194,38,aloud,new,yellow,1310.374602099997,None,n,1310.374602099997,None,"['n', 'return']","[0.6978111000062199, 1.0259146000025794]",1310.374602099997,None,,,10,001,2023_Feb_15_0945,ExactRep-v3-final,2021.2.3,59.91292256139037,
,,,,,,,,,,,,38,0,38,0,,,,,,,,,,,,,,,,,,,,,,,,,,,,,,,,,,,,,,,,,,,,,,,,,1315.4854624999862,None,,,,,,,,,,,,,,,,,,,,,,,,,,,,,,,,,,,,,,,,,,,,,,,,,,,,,,,,,book,49,39,silent,old,yellow,1311.9672125999932,None,n,1311.9672125999932,None,"['y', 'backspace', 'n', 'return']","[0.8014839999959804, 2.137289000005694, 2.5773002000059932, 3.4733171999978367]",1311.9672125999932,None,,,10,001,2023_Feb_15_0945,ExactRep-v3-final,2021.2.3,59.91292256139037,
,,,,,,,,,,,,39,0,39,0,,,,,,,,,,,,,,,,,,,,,,,,,,,,,,,,,,,,,,,,,,,,,,,,,1316.8533214999916,None,,,,,,,,,,,,,,,,,,,,,,,,,,,,,,,,,,,,,,,,,,,,,,,,,,,,,,,,,master,99,40,aloud,old,yellow,1315.9943602999992,None,y,1315.9943602999992,None,"['y', 'return']","[0.5821758000092814, 0.8221710000070743]",1315.9943602999992,None,,,10,001,2023_Feb_15_0945,ExactRep-v3-final,2021.2.3,59.91292256139037,
,,,,,,,,,,,,40,0,40,0,,,,,,,,,,,,,,,,,,,,,,,,,,,,,,,,,,,,,,,,,,,,,,,,,1318.771875499995,None,,,,,,,,,,,,,,,,,,,,,,,,,,,,,,,,,,,,,,,,,,,,,,,,,,,,,,,,,water,16,41,sing,old,yellow,1317.367760699999,None,n,1317.367760699999,None,"['n', 'return']","[1.0887749999965308, 1.3606540000037057]",1317.367760699999,None,,,10,001,2023_Feb_15_0945,ExactRep-v3-final,2021.2.3,59.91292256139037,
,,,,,,,,,,,,41,0,41,0,,,,,,,,,,,,,,,,,,,,,,,,,,,,,,,,,,,,,,,,,,,,,,,,,1320.2402289999882,None,,,,,,,,,,,,,,,,,,,,,,,,,,,,,,,,,,,,,,,,,,,,,,,,,,,,,,,,,paper,17,42,sing,old,yellow,1319.2818647999957,None,y,1319.2818647999957,None,"['y', 'return']","[0.6706867000029888, 0.9266662000009092]",1319.2818647999957,None,,,10,001,2023_Feb_15_0945,ExactRep-v3-final,2021.2.3,59.91292256139037,
,,,,,,,,,,,,42,0,42,0,,,,,,,,,,,,,,,,,,,,,,,,,,,,,,,,,,,,,,,,,,,,,,,,,1321.7081806999922,None,,,,,,,,,,,,,,,,,,,,,,,,,,,,,,,,,,,,,,,,,,,,,,,,,,,,,,,,,fortune,101,43,aloud,old,yellow,1320.757270099988,None,y,1320.757270099988,None,"['y', 'return']","[0.6511363000026904, 0.9071376999927452]",1320.757270099988,None,,,10,001,2023_Feb_15_0945,ExactRep-v3-final,2021.2.3,59.91292256139037,
,,,,,,,,,,,,43,0,43,0,,,,,,,,,,,,,,,,,,,,,,,,,,,,,,,,,,,,,,,,,,,,,,,,,1323.29313559999,None,,,,,,,,,,,,,,,,,,,,,,,,,,,,,,,,,,,,,,,,,,,,,,,,,,,,,,,,,moral,183,44,sing,new,yellow,1322.2171609999932,None,n,1322.2171609999932,None,"['n', 'return']","[0.7594141000008676, 1.0312124999909429]",1322.2171609999932,None,,,10,001,2023_Feb_15_0945,ExactRep-v3-final,2021.2.3,59.91292256139037,
,,,,,,,,,,,,44,0,44,0,,,,,,,,,,,,,,,,,,,,,,,,,,,,,,,,,,,,,,,,,,,,,,,,,1324.7945893999859,None,,,,,,,,,,,,,,,,,,,,,,,,,,,,,,,,,,,,,,,,,,,,,,,,,,,,,,,,,garden,119,45,aloud,old,yellow,1323.8031480999925,None,n,1323.8031480999925,None,"['n', 'return']","[0.6053625000058673, 0.9494316000054823]",1323.8031480999925,None,,,10,001,2023_Feb_15_0945,ExactRep-v3-final,2021.2.3,59.91292256139037,
,,,,,,,,,,,,45,0,45,0,,,,,,,,,,,,,,,,,,,,,,,,,,,,,,,,,,,,,,,,,,,,,,,,,1326.3795920999983,None,,,,,,,,,,,,,,,,,,,,,,,,,,,,,,,,,,,,,,,,,,,,,,,,,,,,,,,,,palace,47,46,silent,old,yellow,1325.3018794999953,None,n,1325.3018794999953,None,"['n', 'return']","[0.7305695000104606, 1.042509600010817]",1325.3018794999953,None,,,10,001,2023_Feb_15_0945,ExactRep-v3-final,2021.2.3,59.91292256139037,
,,,,,,,,,,,,46,0,46,0,,,,,,,,,,,,,,,,,,,,,,,,,,,,,,,,,,,,,,,,,,,,,,,,,1328.2648211999913,None,,,,,,,,,,,,,,,,,,,,,,,,,,,,,,,,,,,,,,,,,,,,,,,,,,,,,,,,,speech,227,47,sing,new,yellow,1326.8842222999956,None,n,1326.8842222999956,None,"['n', 'return']","[1.0442212000052677, 1.3402700000006007]",1326.8842222999956,None,,,10,001,2023_Feb_15_0945,ExactRep-v3-final,2021.2.3,59.91292256139037,
,,,,,,,,,,,,47,0,47,0,,,,,,,,,,,,,,,,,,,,,,,,,,,,,,,,,,,,,,,,,,,,,,,,,1330.216875699989,None,,,,,,,,,,,,,,,,,,,,,,,,,,,,,,,,,,,,,,,,,,,,,,,,,,,,,,,,,flag,41,48,silent,old,yellow,1328.7773839999863,None,y,1328.7773839999863,None,"['y', 'return']","[1.0313110999995843, 1.4071284000092419]",1328.7773839999863,None,,,10,001,2023_Feb_15_0945,ExactRep-v3-final,2021.2.3,59.91292256139037,
,,,,,,,,,,,,48,0,48,0,,,,,,,,,,,,,,,,,,,,,,,,,,,,,,,,,,,,,,,,,,,,,,,,,1331.8516638,None,,,,,,,,,,,,,,,,,,,,,,,,,,,,,,,,,,,,,,,,,,,,,,,,,,,,,,,,,square,239,49,sing,new,yellow,1330.7245517999982,None,n,1330.7245517999982,None,"['n', 'return']","[0.7959540000010747, 1.0920641999982763]",1330.7245517999982,None,,,10,001,2023_Feb_15_0945,ExactRep-v3-final,2021.2.3,59.91292256139037,
,,,,,,,,,,,,49,0,49,0,,,,,,,,,,,,,,,,,,,,,,,,,,,,,,,,,,,,,,,,,,,,,,,,,1333.4699353999895,None,,,,,,,,,,,,,,,,,,,,,,,,,,,,,,,,,,,,,,,,,,,,,,,,,,,,,,,,,colony,182,50,aloud,new,yellow,1332.3643631999876,None,n,1332.3643631999876,None,"['n', 'return']","[0.8360702999925707, 1.0679728999966756]",1332.3643631999876,None,,,10,001,2023_Feb_15_0945,ExactRep-v3-final,2021.2.3,59.91292256139037,
,,,,,,,,,,,,50,0,50,0,,,,,,,,,,,,,,,,,,,,,,,,,,,,,,,,,,,,,,,,,,,,,,,,,1335.238594399998,None,,,,,,,,,,,,,,,,,,,,,,,,,,,,,,,,,,,,,,,,,,,,,,,,,,,,,,,,,fate,96,51,aloud,old,yellow,1333.9736600999895,None,n,1333.9736600999895,None,"['n', 'return']","[0.9148190000123577, 1.2268395999999484]",1333.9736600999895,None,,,10,001,2023_Feb_15_0945,ExactRep-v3-final,2021.2.3,59.91292256139037,
,,,,,,,,,,,,51,0,51,0,,,,,,,,,,,,,,,,,,,,,,,,,,,,,,,,,,,,,,,,,,,,,,,,,1336.923580799994,None,,,,,,,,,,,,,,,,,,,,,,,,,,,,,,,,,,,,,,,,,,,,,,,,,,,,,,,,,shore,144,52,silent,new,yellow,1335.7499258999887,None,n,1335.7499258999887,None,"['n', 'return']","[0.8426600999955554, 1.1305450000072597]",1335.7499258999887,None,,,10,001,2023_Feb_15_0945,ExactRep-v3-final,2021.2.3,59.91292256139037,
,,,,,,,,,,,,52,0,52,0,,,,,,,,,,,,,,,,,,,,,,,,,,,,,,,,,,,,,,,,,,,,,,,,,1338.4260025999974,None,,,,,,,,,,,,,,,,,,,,,,,,,,,,,,,,,,,,,,,,,,,,,,,,,,,,,,,,,weapon,80,53,aloud,old,yellow,1337.433625199992,None,y,1337.433625199992,None,"['y', 'return']","[0.7109408999967854, 0.9508595999941463]",1337.433625199992,None,,,10,001,2023_Feb_15_0945,ExactRep-v3-final,2021.2.3,59.91292256139037,
,,,,,,,,,,,,53,0,53,0,,,,,,,,,,,,,,,,,,,,,,,,,,,,,,,,,,,,,,,,,,,,,,,,,1339.9430644999957,None,,,,,,,,,,,,,,,,,,,,,,,,,,,,,,,,,,,,,,,,,,,,,,,,,,,,,,,,,city,178,54,aloud,new,yellow,1338.937546599991,None,n,1338.937546599991,None,"['n', 'return']","[0.6868901999987429, 0.9669556000008015]",1338.937546599991,None,,,10,001,2023_Feb_15_0945,ExactRep-v3-final,2021.2.3,59.91292256139037,
,,,,,,,,,,,,54,0,54,0,,,,,,,,,,,,,,,,,,,,,,,,,,,,,,,,,,,,,,,,,,,,,,,,,1341.9951848999917,None,,,,,,,,,,,,,,,,,,,,,,,,,,,,,,,,,,,,,,,,,,,,,,,,,,,,,,,,,picture,236,55,aloud,new,yellow,1340.4505670999933,None,n,1340.4505670999933,None,"['n', 'return']","[1.245919299995876, 1.5020489000016823]",1340.4505670999933,None,,,10,001,2023_Feb_15_0945,ExactRep-v3-final,2021.2.3,59.91292256139037,
,,,,,,,,,,,,55,0,55,0,,,,,,,,,,,,,,,,,,,,,,,,,,,,,,,,,,,,,,,,,,,,,,,,,1346.4161942999926,None,,,,,,,,,,,,,,,,,,,,,,,,,,,,,,,,,,,,,,,,,,,,,,,,,,,,,,,,,anger,223,56,sing,new,yellow,1342.5051639999874,None,n,1342.5051639999874,None,"['n', 'backspace', 'n', 'return']","[0.8553219999885187, 1.895379999987199, 2.951331799995387, 3.871416699999827]",1342.5051639999874,None,,,10,001,2023_Feb_15_0945,ExactRep-v3-final,2021.2.3,59.91292256139037,
,,,,,,,,,,,,56,0,56,0,,,,,,,,,,,,,,,,,,,,,,,,,,,,,,,,,,,,,,,,,,,,,,,,,1348.9521057999955,None,,,,,,,,,,,,,,,,,,,,,,,,,,,,,,,,,,,,,,,,,,,,,,,,,,,,,,,,,officer,55,57,silent,old,yellow,1346.9231890999945,None,y,1346.9231890999945,None,"['y', 'return']","[0.7333147000026656, 1.9973170000012033]",1346.9231890999945,None,,,10,001,2023_Feb_15_0945,ExactRep-v3-final,2021.2.3,59.91292256139037,
,,,,,,,,,,,,57,0,57,0,,,,,,,,,,,,,,,,,,,,,,,,,,,,,,,,,,,,,,,,,,,,,,,,,1350.3201975999982,None,,,,,,,,,,,,,,,,,,,,,,,,,,,,,,,,,,,,,,,,,,,,,,,,,,,,,,,,,arm,63,58,silent,old,yellow,1349.4678256999905,None,y,1349.4678256999905,None,"['y', 'return']","[0.5406977999955416, 0.8127493999927538]",1349.4678256999905,None,,,10,001,2023_Feb_15_0945,ExactRep-v3-final,2021.2.3,59.91292256139037,
,,,,,,,,,,,,58,0,58,0,,,,,,,,,,,,,,,,,,,,,,,,,,,,,,,,,,,,,,,,,,,,,,,,,1351.8717043999932,None,,,,,,,,,,,,,,,,,,,,,,,,,,,,,,,,,,,,,,,,,,,,,,,,,,,,,,,,,gold,156,59,silent,new,yellow,1350.8382077999995,None,n,1350.8382077999995,None,"['n', 'return']","[0.682263900001999, 0.9863703000009991]",1350.8382077999995,None,,,10,001,2023_Feb_15_0945,ExactRep-v3-final,2021.2.3,59.91292256139037,
,,,,,,,,,,,,59,0,59,0,,,,,,,,,,,,,,,,,,,,,,,,,,,,,,,,,,,,,,,,,,,,,,,,,1353.7070820999943,None,,,,,,,,,,,,,,,,,,,,,,,,,,,,,,,,,,,,,,,,,,,,,,,,,,,,,,,,,teacher,226,60,aloud,new,yellow,1352.376413399994,None,n,1352.376413399994,None,"['n', 'return']","[0.8080564999982016, 1.2881944999971893]",1352.376413399994,None,,,10,001,2023_Feb_15_0945,ExactRep-v3-final,2021.2.3,59.91292256139037,
,,,,,,,,,,,,60,0,60,0,,,,,,,,,,,,,,,,,,,,,,,,,,,,,,,,,,,,,,,,,,,,,,,,,1355.276325999992,None,,,,,,,,,,,,,,,,,,,,,,,,,,,,,,,,,,,,,,,,,,,,,,,,,,,,,,,,,product,84,61,aloud,old,yellow,1354.2075264999876,None,y,1354.2075264999876,None,"['y', 'return']","[0.729154100001324, 1.0249870999978157]",1354.2075264999876,None,,,10,001,2023_Feb_15_0945,ExactRep-v3-final,2021.2.3,59.91292256139037,
,,,,,,,,,,,,61,0,61,0,,,,,,,,,,,,,,,,,,,,,,,,,,,,,,,,,,,,,,,,,,,,,,,,,1357.7442254999914,None,,,,,,,,,,,,,,,,,,,,,,,,,,,,,,,,,,,,,,,,,,,,,,,,,,,,,,,,,corn,74,62,silent,old,yellow,1355.7787183999899,None,y,1355.7787183999899,None,"['n', 'backspace', 'y', 'return']","[0.6137709000031464, 1.4377364999963902, 1.6377512000035495, 1.9257084999990184]",1355.7787183999899,None,,,10,001,2023_Feb_15_0945,ExactRep-v3-final,2021.2.3,59.91292256139037,
,,,,,,,,,,,,62,0,62,0,,,,,,,,,,,,,,,,,,,,,,,,,,,,,,,,,,,,,,,,,,,,,,,,,1359.312446699987,None,,,,,,,,,,,,,,,,,,,,,,,,,,,,,,,,,,,,,,,,,,,,,,,,,,,,,,,,,theory,152,63,silent,new,yellow,1358.2545147999917,None,n,1358.2545147999917,None,"['n', 'return']","[0.7779459000012139, 1.01003320000018]",1358.2545147999917,None,,,10,001,2023_Feb_15_0945,ExactRep-v3-final,2021.2.3,59.91292256139037,
,,,,,,,,,,,,63,0,63,0,,,,,,,,,,,,,,,,,,,,,,,,,,,,,,,,,,,,,,,,,,,,,,,,,1361.0310046999948,None,,,,,,,,,,,,,,,,,,,,,,,,,,,,,,,,,,,,,,,,,,,,,,,,,,,,,,,,,coin,187,64,sing,new,yellow,1359.8197250999947,None,n,1359.8197250999947,None,"['n', 'return']","[0.9326655999902869, 1.1647573999944143]",1359.8197250999947,None,,,10,001,2023_Feb_15_0945,ExactRep-v3-final,2021.2.3,59.91292256139037,
,,,,,,,,,,,,64,0,64,0,,,,,,,,,,,,,,,,,,,,,,,,,,,,,,,,,,,,,,,,,,,,,,,,,1362.3656712999946,None,,,,,,,,,,,,,,,,,,,,,,,,,,,,,,,,,,,,,,,,,,,,,,,,,,,,,,,,,thought,108,65,aloud,old,yellow,1361.5376655,None,y,1361.5376655,None,"['y', 'return']","[0.534758800000418, 0.7827972999948543]",1361.5376655,None,,,10,001,2023_Feb_15_0945,ExactRep-v3-final,2021.2.3,59.91292256139037,
,,,,,,,,,,,,65,0,65,0,,,,,,,,,,,,,,,,,,,,,,,,,,,,,,,,,,,,,,,,,,,,,,,,,1366.0026369999978,None,,,,,,,,,,,,,,,,,,,,,,,,,,,,,,,,,,,,,,,,,,,,,,,,,,,,,,,,,time,200,66,aloud,new,yellow,1362.8761527999886,None,y,1362.8761527999886,None,"['n', 'backspace', 'n', 'y', 'backspace', 'y', 'return']","[0.6523538000037661, 1.3643467999936547, 1.5324337999918498, 1.644387899999856, 2.3883246000041254, 2.596483100001933, 3.092335399996955]",1362.8761527999886,None,,,10,001,2023_Feb_15_0945,ExactRep-v3-final,2021.2.3,59.91292256139037,
,,,,,,,,,,,,66,0,66,0,,,,,,,,,,,,,,,,,,,,,,,,,,,,,,,,,,,,,,,,,,,,,,,,,1368.822129999986,None,,,,,,,,,,,,,,,,,,,,,,,,,,,,,,,,,,,,,,,,,,,,,,,,,,,,,,,,,cash,234,67,aloud,new,yellow,1366.5127253999963,None,n,1366.5127253999963,None,"['n', 'return']","[1.9597147000022233, 2.271869100004551]",1366.5127253999963,None,,,10,001,2023_Feb_15_0945,ExactRep-v3-final,2021.2.3,59.91292256139037,
,,,,,,,,,,,,67,0,67,0,,,,,,,,,,,,,,,,,,,,,,,,,,,,,,,,,,,,,,,,,,,,,,,,,1370.4404355999868,None,,,,,,,,,,,,,,,,,,,,,,,,,,,,,,,,,,,,,,,,,,,,,,,,,,,,,,,,,victory,32,68,sing,old,yellow,1369.3296712999872,None,y,1369.3296712999872,None,"['y', 'return']","[0.8308258000033675, 1.078927200011094]",1369.3296712999872,None,,,10,001,2023_Feb_15_0945,ExactRep-v3-final,2021.2.3,59.91292256139037,
,,,,,,,,,,,,68,0,68,0,,,,,,,,,,,,,,,,,,,,,,,,,,,,,,,,,,,,,,,,,,,,,,,,,1372.3087834999897,None,,,,,,,,,,,,,,,,,,,,,,,,,,,,,,,,,,,,,,,,,,,,,,,,,,,,,,,,,engine,66,69,silent,old,yellow,1370.9512350999867,None,y,1370.9512350999867,None,"['y', 'return']","[1.041265600011684, 1.3212910000002012]",1370.9512350999867,None,,,10,001,2023_Feb_15_0945,ExactRep-v3-final,2021.2.3,59.91292256139037,
,,,,,,,,,,,,69,0,69,0,,,,,,,,,,,,,,,,,,,,,,,,,,,,,,,,,,,,,,,,,,,,,,,,,1373.7603947999887,None,,,,,,,,,,,,,,,,,,,,,,,,,,,,,,,,,,,,,,,,,,,,,,,,,,,,,,,,,dust,217,70,sing,new,yellow,1372.8179269999964,None,n,1372.8179269999964,None,"['n', 'return']","[0.6307755000016186, 0.8946770000038669]",1372.8179269999964,None,,,10,001,2023_Feb_15_0945,ExactRep-v3-final,2021.2.3,59.91292256139037,
,,,,,,,,,,,,70,0,70,0,,,,,,,,,,,,,,,,,,,,,,,,,,,,,,,,,,,,,,,,,,,,,,,,,1376.5464259999862,None,,,,,,,,,,,,,,,,,,,,,,,,,,,,,,,,,,,,,,,,,,,,,,,,,,,,,,,,,grass,102,71,aloud,old,yellow,1374.2700815999997,None,n,1374.2700815999997,None,"['return', 'n', 'return']","[0.9705790000007255, 1.8343955000018468, 2.2423869999911403]",1374.2700815999997,None,,,10,001,2023_Feb_15_0945,ExactRep-v3-final,2021.2.3,59.91292256139037,
,,,,,,,,,,,,71,0,71,0,,,,,,,,,,,,,,,,,,,,,,,,,,,,,,,,,,,,,,,,,,,,,,,,,1378.631815899993,None,,,,,,,,,,,,,,,,,,,,,,,,,,,,,,,,,,,,,,,,,,,,,,,,,,,,,,,,,journal,145,72,silent,new,yellow,1377.0578383999964,None,n,1377.0578383999964,None,"['n', 'return']","[1.1906190000008792, 1.5267885999928694]",1377.0578383999964,None,,,10,001,2023_Feb_15_0945,ExactRep-v3-final,2021.2.3,59.91292256139037,
,,,,,,,,,,,,72,0,72,0,,,,,,,,,,,,,,,,,,,,,,,,,,,,,,,,,,,,,,,,,,,,,,,,,1380.300199899997,None,,,,,,,,,,,,,,,,,,,,,,,,,,,,,,,,,,,,,,,,,,,,,,,,,,,,,,,,,salary,203,73,sing,new,yellow,1379.141784899999,None,n,1379.141784899999,None,"['n', 'return']","[0.7627748000086285, 1.1229009999951813]",1379.141784899999,None,,,10,001,2023_Feb_15_0945,ExactRep-v3-final,2021.2.3,59.91292256139037,
,,,,,,,,,,,,73,0,73,0,,,,,,,,,,,,,,,,,,,,,,,,,,,,,,,,,,,,,,,,,,,,,,,,,1382.1186111999996,None,,,,,,,,,,,,,,,,,,,,,,,,,,,,,,,,,,,,,,,,,,,,,,,,,,,,,,,,,pupil,176,74,aloud,new,yellow,1380.8153574999887,None,n,1380.8153574999887,None,"['n', 'return']","[0.881313300007605, 1.2653075000125682]",1380.8153574999887,None,,,10,001,2023_Feb_15_0945,ExactRep-v3-final,2021.2.3,59.91292256139037,
,,,,,,,,,,,,74,0,74,0,,,,,,,,,,,,,,,,,,,,,,,,,,,,,,,,,,,,,,,,,,,,,,,,,1384.6544746,None,,,,,,,,,,,,,,,,,,,,,,,,,,,,,,,,,,,,,,,,,,,,,,,,,,,,,,,,,machine,132,75,silent,new,yellow,1382.6285529999877,None,y,1382.6285529999877,None,"['y', 'return']","[1.6039474999997765, 1.9879776999878231]",1382.6285529999877,None,,,10,001,2023_Feb_15_0945,ExactRep-v3-final,2021.2.3,59.91292256139037,
,,,,,,,,,,,,75,0,75,0,,,,,,,,,,,,,,,,,,,,,,,,,,,,,,,,,,,,,,,,,,,,,,,,,1386.1893233999872,None,,,,,,,,,,,,,,,,,,,,,,,,,,,,,,,,,,,,,,,,,,,,,,,,,,,,,,,,,wife,148,76,silent,new,yellow,1385.1642811999918,None,n,1385.1642811999918,None,"['n', 'return']","[0.7162256999872625, 0.9882505999994464]",1385.1642811999918,None,,,10,001,2023_Feb_15_0945,ExactRep-v3-final,2021.2.3,59.91292256139037,
,,,,,,,,,,,,76,0,76,0,,,,,,,,,,,,,,,,,,,,,,,,,,,,,,,,,,,,,,,,,,,,,,,,,1389.0922748999874,None,,,,,,,,,,,,,,,,,,,,,,,,,,,,,,,,,,,,,,,,,,,,,,,,,,,,,,,,,method,107,77,aloud,old,yellow,1386.6981308999966,None,y,1386.6981308999966,None,"['n', 'backspace', 'y', 'return']","[1.1903915000002598, 1.8383818000002066, 2.0544175000104588, 2.3503275999973994]",1386.6981308999966,None,,,10,001,2023_Feb_15_0945,ExactRep-v3-final,2021.2.3,59.91292256139037,
,,,,,,,,,,,,77,0,77,0,,,,,,,,,,,,,,,,,,,,,,,,,,,,,,,,,,,,,,,,,,,,,,,,,1390.6271973999974,None,,,,,,,,,,,,,,,,,,,,,,,,,,,,,,,,,,,,,,,,,,,,,,,,,,,,,,,,,life,120,78,silent,new,yellow,1389.6036869999953,None,n,1389.6036869999953,None,"['n', 'return']","[0.6688151000125799, 0.9888093000045046]",1389.6036869999953,None,,,10,001,2023_Feb_15_0945,ExactRep-v3-final,2021.2.3,59.91292256139037,
,,,,,,,,,,,,78,0,78,0,,,,,,,,,,,,,,,,,,,,,,,,,,,,,,,,,,,,,,,,,,,,,,,,,1392.0618748999987,None,,,,,,,,,,,,,,,,,,,,,,,,,,,,,,,,,,,,,,,,,,,,,,,,,,,,,,,,,event,81,79,aloud,old,yellow,1391.1423385999951,None,y,1391.1423385999951,None,"['y', 'return']","[0.6508078000042588, 0.8822577000100864]",1391.1423385999951,None,,,10,001,2023_Feb_15_0945,ExactRep-v3-final,2021.2.3,59.91292256139037,
,,,,,,,,,,,,79,0,79,0,,,,,,,,,,,,,,,,,,,,,,,,,,,,,,,,,,,,,,,,,,,,,,,,,1394.4141955999949,None,,,,,,,,,,,,,,,,,,,,,,,,,,,,,,,,,,,,,,,,,,,,,,,,,,,,,,,,,soil,73,80,silent,old,yellow,1392.572053099997,None,y,1392.572053099997,None,"['n', 'backspace', 'y', 'return']","[0.5726632000005338, 1.2925227000087034, 1.4685723000002326, 1.8046237000089604]",1392.572053099997,None,,,10,001,2023_Feb_15_0945,ExactRep-v3-final,2021.2.3,59.91292256139037,
,,,,,,,,,,,,80,0,80,0,,,,,,,,,,,,,,,,,,,,,,,,,,,,,,,,,,,,,,,,,,,,,,,,,1396.2827599999873,None,,,,,,,,,,,,,,,,,,,,,,,,,,,,,,,,,,,,,,,,,,,,,,,,,,,,,,,,,home,199,81,sing,new,yellow,1394.9232504999964,None,n,1394.9232504999964,None,"['n', 'return']","[1.0532948000036413, 1.3252425999962725]",1394.9232504999964,None,,,10,001,2023_Feb_15_0945,ExactRep-v3-final,2021.2.3,59.91292256139037,
,,,,,,,,,,,,81,0,81,0,,,,,,,,,,,,,,,,,,,,,,,,,,,,,,,,,,,,,,,,,,,,,,,,,1397.8854767999874,None,,,,,,,,,,,,,,,,,,,,,,,,,,,,,,,,,,,,,,,,,,,,,,,,,,,,,,,,,fire,3,82,sing,old,yellow,1396.79025369999,None,y,1396.79025369999,None,"['y', 'return']","[0.6822658000019146, 1.050261500000488]",1396.79025369999,None,,,10,001,2023_Feb_15_0945,ExactRep-v3-final,2021.2.3,59.91292256139037,
,,,,,,,,,,,,82,0,82,0,,,,,,,,,,,,,,,,,,,,,,,,,,,,,,,,,,,,,,,,,,,,,,,,,1399.5194587999868,None,,,,,,,,,,,,,,,,,,,,,,,,,,,,,,,,,,,,,,,,,,,,,,,,,,,,,,,,,quality,37,83,sing,old,yellow,1398.3863764999987,None,y,1398.3863764999987,None,"['y', 'return']","[0.8060828000016045, 1.0862463999947067]",1398.3863764999987,None,,,10,001,2023_Feb_15_0945,ExactRep-v3-final,2021.2.3,59.91292256139037,
,,,,,,,,,,,,83,0,83,0,,,,,,,,,,,,,,,,,,,,,,,,,,,,,,,,,,,,,,,,,,,,,,,,,1401.0877899999905,None,,,,,,,,,,,,,,,,,,,,,,,,,,,,,,,,,,,,,,,,,,,,,,,,,,,,,,,,,season,137,84,silent,new,yellow,1400.0285863999889,None,n,1400.0285863999889,None,"['n', 'return']","[0.7400800999894273, 1.0200512000010349]",1400.0285863999889,None,,,10,001,2023_Feb_15_0945,ExactRep-v3-final,2021.2.3,59.91292256139037,
,,,,,,,,,,,,84,0,84,0,,,,,,,,,,,,,,,,,,,,,,,,,,,,,,,,,,,,,,,,,,,,,,,,,1402.5224377999984,None,,,,,,,,,,,,,,,,,,,,,,,,,,,,,,,,,,,,,,,,,,,,,,,,,,,,,,,,,money,9,85,sing,old,yellow,1401.5995508999913,None,y,1401.5995508999913,None,"['y', 'return']","[0.6010184999904595, 0.8889900999929523]",1401.5995508999913,None,,,10,001,2023_Feb_15_0945,ExactRep-v3-final,2021.2.3,59.91292256139037,
,,,,,,,,,,,,85,0,85,0,,,,,,,,,,,,,,,,,,,,,,,,,,,,,,,,,,,,,,,,,,,,,,,,,1404.557744299993,None,,,,,,,,,,,,,,,,,,,,,,,,,,,,,,,,,,,,,,,,,,,,,,,,,,,,,,,,,world,57,86,silent,old,yellow,1403.034829199998,None,n,1403.034829199998,None,"['n', 'return']","[1.2057870999997249, 1.4776997000008123]",1403.034829199998,None,,,10,001,2023_Feb_15_0945,ExactRep-v3-final,2021.2.3,59.91292256139037,
,,,,,,,,,,,,86,0,86,0,,,,,,,,,,,,,,,,,,,,,,,,,,,,,,,,,,,,,,,,,,,,,,,,,1406.1794653999968,None,,,,,,,,,,,,,,,,,,,,,,,,,,,,,,,,,,,,,,,,,,,,,,,,,,,,,,,,,boulder,167,87,sing,new,yellow,1405.0648494999914,None,n,1405.0648494999914,None,"['n', 'return']","[0.8477301999955671, 1.0795639999996638]",1405.0648494999914,None,,,10,001,2023_Feb_15_0945,ExactRep-v3-final,2021.2.3,59.91292256139037,
,,,,,,,,,,,,87,0,87,0,,,,,,,,,,,,,,,,,,,,,,,,,,,,,,,,,,,,,,,,,,,,,,,,,1408.4284284999885,None,,,,,,,,,,,,,,,,,,,,,,,,,,,,,,,,,,,,,,,,,,,,,,,,,,,,,,,,,girl,45,88,silent,old,yellow,1406.709723699998,None,n,1406.709723699998,None,"['n', 'return']","[1.4348635000060312, 1.6828726999956416]",1406.709723699998,None,,,10,001,2023_Feb_15_0945,ExactRep-v3-final,2021.2.3,59.91292256139037,
,,,,,,,,,,,,88,0,88,0,,,,,,,,,,,,,,,,,,,,,,,,,,,,,,,,,,,,,,,,,,,,,,,,,1410.6824365999928,None,,,,,,,,,,,,,,,,,,,,,,,,,,,,,,,,,,,,,,,,,,,,,,,,,,,,,,,,,college,190,89,aloud,new,yellow,1408.9390887999907,None,n,1408.9390887999907,None,"['y', 'backspace', 'n', 'return']","[0.5414427000068827, 1.2134269000089262, 1.3814513999968767, 1.6935948000027565]",1408.9390887999907,None,,,10,001,2023_Feb_15_0945,ExactRep-v3-final,2021.2.3,59.91292256139037,
,,,,,,,,,,,,89,0,89,0,,,,,,,,,,,,,,,,,,,,,,,,,,,,,,,,,,,,,,,,,,,,,,,,,1412.1986723999871,None,,,,,,,,,,,,,,,,,,,,,,,,,,,,,,,,,,,,,,,,,,,,,,,,,,,,,,,,,volume,30,90,sing,old,yellow,1411.203061999986,None,y,1411.203061999986,None,"['y', 'return']","[0.6696819000062533, 0.95750340000086]",1411.203061999986,None,,,10,001,2023_Feb_15_0945,ExactRep-v3-final,2021.2.3,59.91292256139037,
,,,,,,,,,,,,90,0,90,0,,,,,,,,,,,,,,,,,,,,,,,,,,,,,,,,,,,,,,,,,,,,,,,,,1413.7337069999921,None,,,,,,,,,,,,,,,,,,,,,,,,,,,,,,,,,,,,,,,,,,,,,,,,,,,,,,,,,grief,70,91,silent,old,yellow,1412.708284399996,None,y,1412.708284399996,None,"['y', 'return']","[0.7804405000060797, 0.9884327000036137]",1412.708284399996,None,,,10,001,2023_Feb_15_0945,ExactRep-v3-final,2021.2.3,59.91292256139037,
,,,,,,,,,,,,91,0,91,0,,,,,,,,,,,,,,,,,,,,,,,,,,,,,,,,,,,,,,,,,,,,,,,,,1415.2017993999907,None,,,,,,,,,,,,,,,,,,,,,,,,,,,,,,,,,,,,,,,,,,,,,,,,,,,,,,,,,fact,44,92,silent,old,yellow,1414.2442132999859,None,n,1414.2442132999859,None,"['n', 'return']","[0.6924351999914506, 0.9164291999913985]",1414.2442132999859,None,,,10,001,2023_Feb_15_0945,ExactRep-v3-final,2021.2.3,59.91292256139037,
,,,,,,,,,,,,92,0,92,0,,,,,,,,,,,,,,,,,,,,,,,,,,,,,,,,,,,,,,,,,,,,,,,,,1417.7375458999886,None,,,,,,,,,,,,,,,,,,,,,,,,,,,,,,,,,,,,,,,,,,,,,,,,,,,,,,,,,skin,48,93,silent,old,yellow,1415.7084019999893,None,n,1415.7084019999893,None,"['y', 'backspace', 'n', 'return']","[0.5801186000026064, 1.3561401000042679, 1.636229199997615, 1.9960986000078265]",1415.7084019999893,None,,,10,001,2023_Feb_15_0945,ExactRep-v3-final,2021.2.3,59.91292256139037,
,,,,,,,,,,,,93,0,93,0,,,,,,,,,,,,,,,,,,,,,,,,,,,,,,,,,,,,,,,,,,,,,,,,,1419.4392617999983,None,,,,,,,,,,,,,,,,,,,,,,,,,,,,,,,,,,,,,,,,,,,,,,,,,,,,,,,,,butter,69,94,silent,old,yellow,1418.2474151999922,None,y,1418.2474151999922,None,"['y', 'return']","[0.7772278999909759, 1.1451874999911524]",1418.2474151999922,None,,,10,001,2023_Feb_15_0945,ExactRep-v3-final,2021.2.3,59.91292256139037,
,,,,,,,,,,,,94,0,94,0,,,,,,,,,,,,,,,,,,,,,,,,,,,,,,,,,,,,,,,,,,,,,,,,,1421.224390999996,None,,,,,,,,,,,,,,,,,,,,,,,,,,,,,,,,,,,,,,,,,,,,,,,,,,,,,,,,,cottage,36,95,sing,old,yellow,1419.9505980999966,None,y,1419.9505980999966,None,"['y', 'return']","[0.9140951999870595, 1.225999199989019]",1419.9505980999966,None,,,10,001,2023_Feb_15_0945,ExactRep-v3-final,2021.2.3,59.91292256139037,
,,,,,,,,,,,,95,0,95,0,,,,,,,,,,,,,,,,,,,,,,,,,,,,,,,,,,,,,,,,,,,,,,,,,1422.6591466999962,None,,,,,,,,,,,,,,,,,,,,,,,,,,,,,,,,,,,,,,,,,,,,,,,,,,,,,,,,,diamond,180,96,aloud,new,yellow,1421.7340702999936,None,n,1421.7340702999936,None,"['n', 'return']","[0.6106868000060786, 0.8904623999987962]",1421.7340702999936,None,,,10,001,2023_Feb_15_0945,ExactRep-v3-final,2021.2.3,59.91292256139037,
,,,,,,,,,,,,96,0,96,0,,,,,,,,,,,,,,,,,,,,,,,,,,,,,,,,,,,,,,,,,,,,,,,,,1424.160661499991,None,,,,,,,,,,,,,,,,,,,,,,,,,,,,,,,,,,,,,,,,,,,,,,,,,,,,,,,,,fault,20,97,sing,old,yellow,1423.1732280999859,None,y,1423.1732280999859,None,"['y', 'return']","[0.6592323000077158, 0.9393715000041993]",1423.1732280999859,None,,,10,001,2023_Feb_15_0945,ExactRep-v3-final,2021.2.3,59.91292256139037,
,,,,,,,,,,,,97,0,97,0,,,,,,,,,,,,,,,,,,,,,,,,,,,,,,,,,,,,,,,,,,,,,,,,,1425.628785599998,None,,,,,,,,,,,,,,,,,,,,,,,,,,,,,,,,,,,,,,,,,,,,,,,,,,,,,,,,,flesh,78,98,silent,old,yellow,1424.6702761999913,None,y,1424.6702761999913,None,"['y', 'return']","[0.61843349999981, 0.9142272000026423]",1424.6702761999913,None,,,10,001,2023_Feb_15_0945,ExactRep-v3-final,2021.2.3,59.91292256139037,
,,,,,,,,,,,,98,0,98,0,,,,,,,,,,,,,,,,,,,,,,,,,,,,,,,,,,,,,,,,,,,,,,,,,1428.0533230999863,None,,,,,,,,,,,,,,,,,,,,,,,,,,,,,,,,,,,,,,,,,,,,,,,,,,,,,,,,,boy,133,99,silent,new,yellow,1426.1445383999962,None,n,1426.1445383999962,None,"['n', 'return']","[0.6161005000030855, 1.8560896999988472]",1426.1445383999962,None,,,10,001,2023_Feb_15_0945,ExactRep-v3-final,2021.2.3,59.91292256139037,
,,,,,,,,,,,,99,0,99,0,,,,,,,,,,,,,,,,,,,,,,,,,,,,,,,,,,,,,,,,,,,,,,,,,1429.8498834999918,None,,,,,,,,,,,,,,,,,,,,,,,,,,,,,,,,,,,,,,,,,,,,,,,,,,,,,,,,,soul,143,100,silent,new,yellow,1428.5746809999982,None,y,1428.5746809999982,None,"['y', 'return']","[0.962123099991004, 1.2339212999941083]",1428.5746809999982,None,,,10,001,2023_Feb_15_0945,ExactRep-v3-final,2021.2.3,59.91292256139037,
,,,,,,,,,,,,100,0,100,0,,,,,,,,,,,,,,,,,,,,,,,,,,,,,,,,,,,,,,,,,,,,,,,,,1431.3344667999918,None,,,,,,,,,,,,,,,,,,,,,,,,,,,,,,,,,,,,,,,,,,,,,,,,,,,,,,,,,string,7,101,sing,old,yellow,1430.3522097999958,None,n,1430.3522097999958,None,"['n', 'return']","[0.6322661000012886, 0.9364783000055468]",1430.3522097999958,None,,,10,001,2023_Feb_15_0945,ExactRep-v3-final,2021.2.3,59.91292256139037,
,,,,,,,,,,,,101,0,101,0,,,,,,,,,,,,,,,,,,,,,,,,,,,,,,,,,,,,,,,,,,,,,,,,,1433.0697524999996,None,,,,,,,,,,,,,,,,,,,,,,,,,,,,,,,,,,,,,,,,,,,,,,,,,,,,,,,,,cost,6,102,sing,old,yellow,1431.8457520999946,None,y,1431.8457520999946,None,"['y', 'return']","[0.850944999998319, 1.178836399994907]",1431.8457520999946,None,,,10,001,2023_Feb_15_0945,ExactRep-v3-final,2021.2.3,59.91292256139037,
,,,,,,,,,,,,102,0,102,0,,,,,,,,,,,,,,,,,,,,,,,,,,,,,,,,,,,,,,,,,,,,,,,,,1434.5544061999972,None,,,,,,,,,,,,,,,,,,,,,,,,,,,,,,,,,,,,,,,,,,,,,,,,,,,,,,,,,murder,40,103,silent,old,yellow,1433.5808477999963,None,y,1433.5808477999963,None,"['y', 'return']","[0.6277601000037976, 0.9318418000038946]",1433.5808477999963,None,,,10,001,2023_Feb_15_0945,ExactRep-v3-final,2021.2.3,59.91292256139037,
,,,,,,,,,,,,103,0,103,0,,,,,,,,,,,,,,,,,,,,,,,,,,,,,,,,,,,,,,,,,,,,,,,,,1436.0393482999934,None,,,,,,,,,,,,,,,,,,,,,,,,,,,,,,,,,,,,,,,,,,,,,,,,,,,,,,,,,animal,186,104,aloud,new,yellow,1435.0650706999877,None,n,1435.0650706999877,None,"['n', 'return']","[0.6875309000024572, 0.9275041000073543]",1435.0650706999877,None,,,10,001,2023_Feb_15_0945,ExactRep-v3-final,2021.2.3,59.91292256139037,
,,,,,,,,,,,,104,0,104,0,,,,,,,,,,,,,,,,,,,,,,,,,,,,,,,,,,,,,,,,,,,,,,,,,1437.590981699992,None,,,,,,,,,,,,,,,,,,,,,,,,,,,,,,,,,,,,,,,,,,,,,,,,,,,,,,,,,science,87,105,aloud,old,yellow,1436.5489723999926,None,y,1436.5489723999926,None,"['y', 'return']","[0.7635034999984782, 1.0034884000051534]",1436.5489723999926,None,,,10,001,2023_Feb_15_0945,ExactRep-v3-final,2021.2.3,59.91292256139037,
,,,,,,,,,,,,105,0,105,0,,,,,,,,,,,,,,,,,,,,,,,,,,,,,,,,,,,,,,,,,,,,,,,,,1439.0757917999872,None,,,,,,,,,,,,,,,,,,,,,,,,,,,,,,,,,,,,,,,,,,,,,,,,,,,,,,,,,prayer,208,106,aloud,new,yellow,1438.1025931999902,None,n,1438.1025931999902,None,"['n', 'return']","[0.6980483000079403, 0.9299451999977464]",1438.1025931999902,None,,,10,001,2023_Feb_15_0945,ExactRep-v3-final,2021.2.3,59.91292256139037,
,,,,,,,,,,,,106,0,106,0,,,,,,,,,,,,,,,,,,,,,,,,,,,,,,,,,,,,,,,,,,,,,,,,,1441.2443714999972,None,,,,,,,,,,,,,,,,,,,,,,,,,,,,,,,,,,,,,,,,,,,,,,,,,,,,,,,,,hide,91,107,aloud,old,yellow,1439.5831139999937,None,n,1439.5831139999937,None,"['n', 'return']","[0.8576045000081649, 1.6174468000099296]",1439.5831139999937,None,,,10,001,2023_Feb_15_0945,ExactRep-v3-final,2021.2.3,59.91292256139037,
,,,,,,,,,,,,107,0,107,0,,,,,,,,,,,,,,,,,,,,,,,,,,,,,,,,,,,,,,,,,,,,,,,,,1442.762565699988,None,,,,,,,,,,,,,,,,,,,,,,,,,,,,,,,,,,,,,,,,,,,,,,,,,,,,,,,,,moment,43,108,silent,old,yellow,1441.75608739999,None,y,1441.75608739999,None,"['y', 'return']","[0.6847691000002669, 0.9725461999914842]",1441.75608739999,None,,,10,001,2023_Feb_15_0945,ExactRep-v3-final,2021.2.3,59.91292256139037,
,,,,,,,,,,,,108,0,108,0,,,,,,,,,,,,,,,,,,,,,,,,,,,,,,,,,,,,,,,,,,,,,,,,,1444.147382799987,None,,,,,,,,,,,,,,,,,,,,,,,,,,,,,,,,,,,,,,,,,,,,,,,,,,,,,,,,,brain,165,109,sing,new,yellow,1443.2761164999974,None,n,1443.2761164999974,None,"['n', 'return']","[0.5725014000054216, 0.8284131999971578]",1443.2761164999974,None,,,10,001,2023_Feb_15_0945,ExactRep-v3-final,2021.2.3,59.91292256139037,
,,,,,,,,,,,,109,0,109,0,,,,,,,,,,,,,,,,,,,,,,,,,,,,,,,,,,,,,,,,,,,,,,,,,1445.7657344999898,None,,,,,,,,,,,,,,,,,,,,,,,,,,,,,,,,,,,,,,,,,,,,,,,,,,,,,,,,,hall,220,110,aloud,new,yellow,1444.656500099998,None,n,1444.656500099998,None,"['n', 'return']","[0.8240963999996893, 1.07213590000174]",1444.656500099998,None,,,10,001,2023_Feb_15_0945,ExactRep-v3-final,2021.2.3,59.91292256139037,
,,,,,,,,,,,,110,0,110,0,,,,,,,,,,,,,,,,,,,,,,,,,,,,,,,,,,,,,,,,,,,,,,,,,1447.484089999998,None,,,,,,,,,,,,,,,,,,,,,,,,,,,,,,,,,,,,,,,,,,,,,,,,,,,,,,,,,excuse,94,111,aloud,old,yellow,1446.2746980999946,None,y,1446.2746980999946,None,"['y', 'return']","[0.917916399994283, 1.1658582999953069]",1446.2746980999946,None,,,10,001,2023_Feb_15_0945,ExactRep-v3-final,2021.2.3,59.91292256139037,
,,,,,,,,,,,,111,0,111,0,,,,,,,,,,,,,,,,,,,,,,,,,,,,,,,,,,,,,,,,,,,,,,,,,1449.3526563999912,None,,,,,,,,,,,,,,,,,,,,,,,,,,,,,,,,,,,,,,,,,,,,,,,,,,,,,,,,,wheat,197,112,sing,new,yellow,1447.994505499999,None,n,1447.994505499999,None,"['n', 'return']","[0.6140580999926897, 1.3100862999999663]",1447.994505499999,None,,,10,001,2023_Feb_15_0945,ExactRep-v3-final,2021.2.3,59.91292256139037,
,,,,,,,,,,,,112,0,112,0,,,,,,,,,,,,,,,,,,,,,,,,,,,,,,,,,,,,,,,,,,,,,,,,,1451.004222699994,None,,,,,,,,,,,,,,,,,,,,,,,,,,,,,,,,,,,,,,,,,,,,,,,,,,,,,,,,,history,79,113,sing,old,yellow,1449.862112399991,None,y,1449.862112399991,None,"['y', 'return']","[0.7944559999887133, 1.1064572999894153]",1449.862112399991,None,,,10,001,2023_Feb_15_0945,ExactRep-v3-final,2021.2.3,59.91292256139037,
,,,,,,,,,,,,113,0,113,0,,,,,,,,,,,,,,,,,,,,,,,,,,,,,,,,,,,,,,,,,,,,,,,,,1452.4222863999894,None,,,,,,,,,,,,,,,,,,,,,,,,,,,,,,,,,,,,,,,,,,,,,,,,,,,,,,,,,potato,195,114,sing,new,yellow,1451.513508499993,None,n,1451.513508499993,None,"['n', 'return']","[0.6629927000030875, 0.871100899996236]",1451.513508499993,None,,,10,001,2023_Feb_15_0945,ExactRep-v3-final,2021.2.3,59.91292256139037,
,,,,,,,,,,,,114,0,114,0,,,,,,,,,,,,,,,,,,,,,,,,,,,,,,,,,,,,,,,,,,,,,,,,,1454.5577392999985,None,,,,,,,,,,,,,,,,,,,,,,,,,,,,,,,,,,,,,,,,,,,,,,,,,,,,,,,,,lip,75,115,silent,old,yellow,1452.9312068,None,n,1452.9312068,None,"['n', 'return']","[1.293423499999335, 1.5814085000019986]",1452.9312068,None,,,10,001,2023_Feb_15_0945,ExactRep-v3-final,2021.2.3,59.91292256139037,
,,,,,,,,,,,,115,0,115,0,,,,,,,,,,,,,,,,,,,,,,,,,,,,,,,,,,,,,,,,,,,,,,,,,1456.026069799991,None,,,,,,,,,,,,,,,,,,,,,,,,,,,,,,,,,,,,,,,,,,,,,,,,,,,,,,,,,ocean,5,116,sing,old,yellow,1455.067339599991,None,y,1455.067339599991,None,"['y', 'return']","[0.6453506000107154, 0.9253593000030378]",1455.067339599991,None,,,10,001,2023_Feb_15_0945,ExactRep-v3-final,2021.2.3,59.91292256139037,
,,,,,,,,,,,,116,0,116,0,,,,,,,,,,,,,,,,,,,,,,,,,,,,,,,,,,,,,,,,,,,,,,,,,1457.8609647999983,None,,,,,,,,,,,,,,,,,,,,,,,,,,,,,,,,,,,,,,,,,,,,,,,,,,,,,,,,,breast,127,117,silent,new,yellow,1456.5469622999954,None,n,1456.5469622999954,None,"['n', 'return']","[0.9256786000041757, 1.27769360000093]",1456.5469622999954,None,,,10,001,2023_Feb_15_0945,ExactRep-v3-final,2021.2.3,59.91292256139037,
,,,,,,,,,,,,117,0,117,0,,,,,,,,,,,,,,,,,,,,,,,,,,,,,,,,,,,,,,,,,,,,,,,,,1459.5794269999897,None,,,,,,,,,,,,,,,,,,,,,,,,,,,,,,,,,,,,,,,,,,,,,,,,,,,,,,,,,duty,237,118,sing,new,yellow,1458.369116499991,None,n,1458.369116499991,None,"['n', 'return']","[0.943511600009515, 1.1675820000091335]",1458.369116499991,None,,,10,001,2023_Feb_15_0945,ExactRep-v3-final,2021.2.3,59.91292256139037,
,,,,,,,,,,,,118,0,118,0,,,,,,,,,,,,,,,,,,,,,,,,,,,,,,,,,,,,,,,,,,,,,,,,,1461.0475999999908,None,,,,,,,,,,,,,,,,,,,,,,,,,,,,,,,,,,,,,,,,,,,,,,,,,,,,,,,,,library,76,119,silent,old,yellow,1460.0933442999958,None,y,1460.0933442999958,None,"['y', 'return']","[0.635315499996068, 0.915268600001582]",1460.0933442999958,None,,,10,001,2023_Feb_15_0945,ExactRep-v3-final,2021.2.3,59.91292256139037,
,,,,,,,,,,,,119,0,119,0,,,,,,,,,,,,,,,,,,,,,,,,,,,,,,,,,,,,,,,,,,,,,,,,,1462.4991721999977,None,,,,,,,,,,,,,,,,,,,,,,,,,,,,,,,,,,,,,,,,,,,,,,,,,,,,,,,,,forest,97,120,aloud,old,yellow,1461.5573064999917,None,y,1461.5573064999917,None,"['y', 'return']","[0.6993244999903254, 0.9072302999993553]",1461.5573064999917,None,,,10,001,2023_Feb_15_0945,ExactRep-v3-final,2021.2.3,59.91292256139037,
,,,,,,,,,,,,120,0,120,0,,,,,,,,,,,,,,,,,,,,,,,,,,,,,,,,,,,,,,,,,,,,,,,,,1463.900505499987,None,,,,,,,,,,,,,,,,,,,,,,,,,,,,,,,,,,,,,,,,,,,,,,,,,,,,,,,,,church,51,121,silent,old,yellow,1463.0061624999944,None,n,1463.0061624999944,None,"['n', 'return']","[0.6263827000075253, 0.8584416000085184]",1463.0061624999944,None,,,10,001,2023_Feb_15_0945,ExactRep-v3-final,2021.2.3,59.91292256139037,
,,,,,,,,,,,,121,0,121,0,,,,,,,,,,,,,,,,,,,,,,,,,,,,,,,,,,,,,,,,,,,,,,,,,1466.085975799986,None,,,,,,,,,,,,,,,,,,,,,,,,,,,,,,,,,,,,,,,,,,,,,,,,,,,,,,,,,poet,155,122,silent,new,yellow,1464.425304999997,None,n,1464.425304999997,None,"['n', 'return']","[1.4553614000033122, 1.6233473000029335]",1464.425304999997,None,,,10,001,2023_Feb_15_0945,ExactRep-v3-final,2021.2.3,59.91292256139037,
,,,,,,,,,,,,122,0,122,0,,,,,,,,,,,,,,,,,,,,,,,,,,,,,,,,,,,,,,,,,,,,,,,,,1467.6041495999962,None,,,,,,,,,,,,,,,,,,,,,,,,,,,,,,,,,,,,,,,,,,,,,,,,,,,,,,,,,length,125,123,silent,new,yellow,1466.5900176999858,None,n,1466.5900176999858,None,"['n', 'return']","[0.7946521999983815, 0.9705470999906538]",1466.5900176999858,None,,,10,001,2023_Feb_15_0945,ExactRep-v3-final,2021.2.3,59.91292256139037,
,,,,,,,,,,,,123,0,123,0,,,,,,,,,,,,,,,,,,,,,,,,,,,,,,,,,,,,,,,,,,,,,,,,,1469.1890813999926,None,,,,,,,,,,,,,,,,,,,,,,,,,,,,,,,,,,,,,,,,,,,,,,,,,,,,,,,,,month,211,124,sing,new,yellow,1468.1138793999999,None,n,1468.1138793999999,None,"['n', 'return']","[0.8230561999953352, 1.0387918000051286]",1468.1138793999999,None,,,10,001,2023_Feb_15_0945,ExactRep-v3-final,2021.2.3,59.91292256139037,
,,,,,,,,,,,,124,0,124,0,,,,,,,,,,,,,,,,,,,,,,,,,,,,,,,,,,,,,,,,,,,,,,,,,1470.7071958999877,None,,,,,,,,,,,,,,,,,,,,,,,,,,,,,,,,,,,,,,,,,,,,,,,,,,,,,,,,,deed,157,125,silent,new,yellow,1469.6977969,None,n,1469.6977969,None,"['n', 'return']","[0.7349176999996416, 0.9667852000129642]",1469.6977969,None,,,10,001,2023_Feb_15_0945,ExactRep-v3-final,2021.2.3,59.91292256139037,
,,,,,,,,,,,,125,0,125,0,,,,,,,,,,,,,,,,,,,,,,,,,,,,,,,,,,,,,,,,,,,,,,,,,1472.2754102999897,None,,,,,,,,,,,,,,,,,,,,,,,,,,,,,,,,,,,,,,,,,,,,,,,,,,,,,,,,,letter,222,126,aloud,new,yellow,1471.217691999991,None,y,1471.217691999991,None,"['y', 'return']","[0.7829571000038413, 1.0149385999975493]",1471.217691999991,None,,,10,001,2023_Feb_15_0945,ExactRep-v3-final,2021.2.3,59.91292256139037,
,,,,,,,,,,,,126,0,126,0,,,,,,,,,,,,,,,,,,,,,,,,,,,,,,,,,,,,,,,,,,,,,,,,,1474.1608564999915,None,,,,,,,,,,,,,,,,,,,,,,,,,,,,,,,,,,,,,,,,,,,,,,,,,,,,,,,,,steam,205,127,sing,new,yellow,1472.7827114999964,None,n,1472.7827114999964,None,"['n', 'return']","[0.9458712000050582, 1.3299122000025818]",1472.7827114999964,None,,,10,001,2023_Feb_15_0945,ExactRep-v3-final,2021.2.3,59.91292256139037,
,,,,,,,,,,,,127,0,127,0,,,,,,,,,,,,,,,,,,,,,,,,,,,,,,,,,,,,,,,,,,,,,,,,,1475.628767199989,None,,,,,,,,,,,,,,,,,,,,,,,,,,,,,,,,,,,,,,,,,,,,,,,,,,,,,,,,,artist,21,128,sing,old,yellow,1474.6677842999925,None,y,1474.6677842999925,None,"['y', 'return']","[0.709223199999542, 0.9168365999939851]",1474.6677842999925,None,,,10,001,2023_Feb_15_0945,ExactRep-v3-final,2021.2.3,59.91292256139037,
,,,,,,,,,,,,128,0,128,0,,,,,,,,,,,,,,,,,,,,,,,,,,,,,,,,,,,,,,,,,,,,,,,,,1478.4651446999924,None,,,,,,,,,,,,,,,,,,,,,,,,,,,,,,,,,,,,,,,,,,,,,,,,,,,,,,,,,glory,181,129,sing,new,yellow,1476.1402743999934,None,n,1476.1402743999934,None,"['y', 'backspace', 'n', 'return']","[1.0284049000038067, 1.780335000003106, 2.0123943999933545, 2.292449200002011]",1476.1402743999934,None,,,10,001,2023_Feb_15_0945,ExactRep-v3-final,2021.2.3,59.91292256139037,
,,,,,,,,,,,,129,0,129,0,,,,,,,,,,,,,,,,,,,,,,,,,,,,,,,,,,,,,,,,,,,,,,,,,1480.350155799999,None,,,,,,,,,,,,,,,,,,,,,,,,,,,,,,,,,,,,,,,,,,,,,,,,,,,,,,,,,beast,23,130,sing,old,yellow,1478.9750950999878,None,y,1478.9750950999878,None,"['y', 'return']","[1.0255071999999927, 1.3295535999932326]",1478.9750950999878,None,,,10,001,2023_Feb_15_0945,ExactRep-v3-final,2021.2.3,59.91292256139037,
