trials_fam.thisRepN,trials_fam.thisTrialN,trials_fam.thisN,trials_fam.thisIndex,trials_prc.thisRepN,trials_prc.thisTrialN,trials_prc.thisN,trials_prc.thisIndex,StudyLoop.thisRepN,StudyLoop.thisTrialN,StudyLoop.thisN,StudyLoop.thisIndex,TestLoop.thisRepN,TestLoop.thisTrialN,TestLoop.thisN,TestLoop.thisIndex,text_colortest.started,text_colortest.stopped,key_colortest.keys,key_colortest.rt,key_colortest.started,key_colortest.stopped,textCondition.started,textCondition.stopped,keyCondition.keys,keyCondition.rt,keyCondition.started,keyCondition.stopped,Condition_between,Condition_counterbal,keyWelcome.keys,keyWelcome.rt,keyWelcome.started,keyWelcome.stopped,welcome_a.started,welcome_a.stopped,welcome_b.started,welcome_b.stopped,welcome_c.started,welcome_c.stopped,welcome_d.started,welcome_d.stopped,welcome_e.started,welcome_e.stopped,welcome_f.started,welcome_f.stopped,key_resp_fam_inst.keys,key_resp_fam_inst.rt,key_resp_fam_inst.started,key_resp_fam_inst.stopped,fam_a.started,fam_a.stopped,fam_b.started,fam_b.stopped,fam_c.started,fam_c.stopped,fam_d.started,fam_d.stopped,fam_e.started,fam_e.stopped,fam_f.started,fam_f.stopped,text_famil.started,text_famil.stopped,textBlank500.started,textBlank500.stopped,key_resp_prc_inst.keys,key_resp_prc_inst.rt,key_resp_prc_inst.started,key_resp_prc_inst.stopped,prac_a.started,prac_a.stopped,prac_b.started,prac_b.stopped,prac_c.started,prac_c.stopped,prac_d.started,prac_d.stopped,prac_e.started,prac_e.stopped,prac_f.started,prac_f.stopped,text_prc_trial.started,text_prc_trial.stopped,key_resp_study_inst.keys,key_resp_study_inst.rt,key_resp_study_inst.started,key_resp_study_inst.stopped,crit_a.started,crit_a.stopped,crit_b.started,crit_b.stopped,crit_c.started,crit_c.stopped,crit_d.started,crit_d.stopped,crit_e.started,crit_e.stopped,crit_f.started,crit_f.stopped,study_word,study_num,study_order,study_type,word_color,textStudy.started,textStudy.stopped,keyStudy.keys,keyStudy.started,keyStudy.stopped,post_study.started,post_study.stopped,key_resp_post_study.keys,key_resp_post_study.rt,key_resp_post_study.started,key_resp_post_study.stopped,test_inst.started,test_inst.stopped,key_resp_test_inst.keys,key_resp_test_inst.rt,key_resp_test_inst.started,key_resp_test_inst.stopped,test_word,test_num,test_order,test_condition,old_new_test,word_color_test,textConf.started,textConf.stopped,Participant Response,textInput.started,textInput.stopped,keyResp.keys,keyResp.rt,keyResp.started,keyResp.stopped,textEnd.started,textEnd.stopped,participant,session,date,expName,psychopyVersion,frameRate,
,,,,,,,,,,,,,,,,13.104079800003092,None,n,0.9060590000008233,13.104079800003092,None,,,,,,,,,,,,,,,,,,,,,,,,,,,,,,,,,,,,,,,,,,,,,,,,,,,,,,,,,,,,,,,,,,,,,,,,,,,,,,,,,,,,,,,,,,,,,,,,,,,,,,,,,,,,,,,,,,,,,,11,001,2023_Feb_15_1014,ExactRep-v3-final,2021.2.3,59.78991021293257,
,,,,,,,,,,,,,,,,,,,,,,14.038157100003446,None,e,2.612105399995926,14.038157100003446,None,,,,,,,,,,,,,,,,,,,,,,,,,,,,,,,,,,,,,,,,,,,,,,,,,,,,,,,,,,,,,,,,,,,,,,,,,,,,,,,,,,,,,,,,,,,,,,,,,,,,,,,,,,,,,,,,11,001,2023_Feb_15_1014,ExactRep-v3-final,2021.2.3,59.78991021293257,
,,,,,,,,,,,,,,,,,,,,,,,,,,,,whitefoils,e,space,793.6676616000041,26.783077300002333,None,,,,,,,,,,,,,,,,,,,,,,,,,,,,,,,,,,,,,,,,,,,,,,,,,,,,,,,,,,,,,,,,,,,,,,,,,,,,,,,,,,,,,,,,,,,,,,,,,,,,,,,,,,11,001,2023_Feb_15_1014,ExactRep-v3-final,2021.2.3,59.78991021293257,
,,,,,,,,,,,,,,,,,,,,,,,,,,,,,,,,,,16.824618099999498,None,16.824618099999498,None,16.824618099999498,None,16.824618099999498,None,16.824618099999498,None,16.824618099999498,None,space,17.13909810000041,830.5996207999997,None,,,,,,,,,,,,,,,,,,,,,,,,,,,,,,,,,,,,,,,,,,,,,,,,,,,,,,,,,,,,,,,,,,,,,,,,,,,,,,,,,,,,,,,,,,11,001,2023_Feb_15_1014,ExactRep-v3-final,2021.2.3,59.78991021293257,
0,0,0,0,,,,,,,,,,,,,,,,,,,,,,,,,,,,,,,,,,,,,,,,,,,,,,,820.6352329000074,None,820.6352329000074,None,820.6352329000074,None,820.6352329000074,None,820.6352329000074,None,820.6352329000074,None,847.8659347000066,None,849.8571945000003,None,,,,,,,,,,,,,,,,,,,,,,,,,,,,,,,,,,,,,,,,,,,,,,,,,,,,,,,,,,,,,,,,,,,,,,,,,,11,001,2023_Feb_15_1014,ExactRep-v3-final,2021.2.3,59.78991021293257,
1,0,1,0,,,,,,,,,,,,,,,,,,,,,,,,,,,,,,,,,,,,,,,,,,,,,,,,,,,,,,,,,,,850.3647932000022,None,852.3762180000049,None,,,,,,,,,,,,,,,,,,,,,,,,,,,,,,,,,,,,,,,,,,,,,,,,,,,,,,,,,,,,,,,,,,,,,,,,,,11,001,2023_Feb_15_1014,ExactRep-v3-final,2021.2.3,59.78991021293257,
2,0,2,0,,,,,,,,,,,,,,,,,,,,,,,,,,,,,,,,,,,,,,,,,,,,,,,,,,,,,,,,,,,852.8766962000082,None,854.8787050999963,None,,,,,,,,,,,,,,,,,,,,,,,,,,,,,,,,,,,,,,,,,,,,,,,,,,,,,,,,,,,,,,,,,,,,,,,,,,11,001,2023_Feb_15_1014,ExactRep-v3-final,2021.2.3,59.78991021293257,
3,0,3,0,,,,,,,,,,,,,,,,,,,,,,,,,,,,,,,,,,,,,,,,,,,,,,,,,,,,,,,,,,,855.3794736999989,None,857.3814564000058,None,,,,,,,,,,,,,,,,,,,,,,,,,,,,,,,,,,,,,,,,,,,,,,,,,,,,,,,,,,,,,,,,,,,,,,,,,,11,001,2023_Feb_15_1014,ExactRep-v3-final,2021.2.3,59.78991021293257,
4,0,4,0,,,,,,,,,,,,,,,,,,,,,,,,,,,,,,,,,,,,,,,,,,,,,,,,,,,,,,,,,,,857.8819676999992,None,859.8839125999948,None,,,,,,,,,,,,,,,,,,,,,,,,,,,,,,,,,,,,,,,,,,,,,,,,,,,,,,,,,,,,,,,,,,,,,,,,,,11,001,2023_Feb_15_1014,ExactRep-v3-final,2021.2.3,59.78991021293257,
5,0,5,0,,,,,,,,,,,,,,,,,,,,,,,,,,,,,,,,,,,,,,,,,,,,,,,,,,,,,,,,,,,860.4044828000042,None,862.4029869000078,None,,,,,,,,,,,,,,,,,,,,,,,,,,,,,,,,,,,,,,,,,,,,,,,,,,,,,,,,,,,,,,,,,,,,,,,,,,11,001,2023_Feb_15_1014,ExactRep-v3-final,2021.2.3,59.78991021293257,
6,0,6,0,,,,,,,,,,,,,,,,,,,,,,,,,,,,,,,,,,,,,,,,,,,,,,,,,,,,,,,,,,,862.9035856999981,None,864.9057279999979,None,,,,,,,,,,,,,,,,,,,,,,,,,,,,,,,,,,,,,,,,,,,,,,,,,,,,,,,,,,,,,,,,,,,,,,,,,,11,001,2023_Feb_15_1014,ExactRep-v3-final,2021.2.3,59.78991021293257,
7,0,7,0,,,,,,,,,,,,,,,,,,,,,,,,,,,,,,,,,,,,,,,,,,,,,,,,,,,,,,,,,,,865.4061187000043,None,867.408110000004,None,,,,,,,,,,,,,,,,,,,,,,,,,,,,,,,,,,,,,,,,,,,,,,,,,,,,,,,,,,,,,,,,,,,,,,,,,,11,001,2023_Feb_15_1014,ExactRep-v3-final,2021.2.3,59.78991021293257,
8,0,8,0,,,,,,,,,,,,,,,,,,,,,,,,,,,,,,,,,,,,,,,,,,,,,,,,,,,,,,,,,,,867.9088618999958,None,869.9103512000002,None,,,,,,,,,,,,,,,,,,,,,,,,,,,,,,,,,,,,,,,,,,,,,,,,,,,,,,,,,,,,,,,,,,,,,,,,,,11,001,2023_Feb_15_1014,ExactRep-v3-final,2021.2.3,59.78991021293257,
9,0,9,0,,,,,,,,,,,,,,,,,,,,,,,,,,,,,,,,,,,,,,,,,,,,,,,,,,,,,,,,,,,870.4171958999941,None,872.4297782000067,None,,,,,,,,,,,,,,,,,,,,,,,,,,,,,,,,,,,,,,,,,,,,,,,,,,,,,,,,,,,,,,,,,,,,,,,,,,11,001,2023_Feb_15_1014,ExactRep-v3-final,2021.2.3,59.78991021293257,
10,0,10,0,,,,,,,,,,,,,,,,,,,,,,,,,,,,,,,,,,,,,,,,,,,,,,,,,,,,,,,,,,,872.9303150000051,None,874.9320512999984,None,,,,,,,,,,,,,,,,,,,,,,,,,,,,,,,,,,,,,,,,,,,,,,,,,,,,,,,,,,,,,,,,,,,,,,,,,,11,001,2023_Feb_15_1014,ExactRep-v3-final,2021.2.3,59.78991021293257,
11,0,11,0,,,,,,,,,,,,,,,,,,,,,,,,,,,,,,,,,,,,,,,,,,,,,,,,,,,,,,,,,,,875.4325564000028,None,877.4348936000024,None,,,,,,,,,,,,,,,,,,,,,,,,,,,,,,,,,,,,,,,,,,,,,,,,,,,,,,,,,,,,,,,,,,,,,,,,,,11,001,2023_Feb_15_1014,ExactRep-v3-final,2021.2.3,59.78991021293257,
12,0,12,0,,,,,,,,,,,,,,,,,,,,,,,,,,,,,,,,,,,,,,,,,,,,,,,,,,,,,,,,,,,877.9448000999982,None,879.9539623000019,None,,,,,,,,,,,,,,,,,,,,,,,,,,,,,,,,,,,,,,,,,,,,,,,,,,,,,,,,,,,,,,,,,,,,,,,,,,11,001,2023_Feb_15_1014,ExactRep-v3-final,2021.2.3,59.78991021293257,
13,0,13,0,,,,,,,,,,,,,,,,,,,,,,,,,,,,,,,,,,,,,,,,,,,,,,,,,,,,,,,,,,,880.455549899998,None,882.4564899999968,None,,,,,,,,,,,,,,,,,,,,,,,,,,,,,,,,,,,,,,,,,,,,,,,,,,,,,,,,,,,,,,,,,,,,,,,,,,11,001,2023_Feb_15_1014,ExactRep-v3-final,2021.2.3,59.78991021293257,
14,0,14,0,,,,,,,,,,,,,,,,,,,,,,,,,,,,,,,,,,,,,,,,,,,,,,,,,,,,,,,,,,,882.9577258000063,None,884.958973700006,None,,,,,,,,,,,,,,,,,,,,,,,,,,,,,,,,,,,,,,,,,,,,,,,,,,,,,,,,,,,,,,,,,,,,,,,,,,11,001,2023_Feb_15_1014,ExactRep-v3-final,2021.2.3,59.78991021293257,
,,,,,,,,,,,,,,,,,,,,,,,,,,,,,,,,,,,,,,,,,,,,,,,,,,,,,,,,,,,,,,,,,,space,20.181386099997326,895.5494304000022,None,,,,,,,,,,,,,,,,,,,,,,,,,,,,,,,,,,,,,,,,,,,,,,,,,,,,,,,,,,,,,,,,,,,,,,11,001,2023_Feb_15_1014,ExactRep-v3-final,2021.2.3,59.78991021293257,
,,,,0,0,0,0,,,,,,,,,,,,,,,,,,,,,,,,,,,,,,,,,,,,,,,,,,,,,,,,,,,,,,,,,917.8418154999963,None,,,,,885.6247833999951,None,885.6247833999951,None,885.6247833999951,None,885.6247833999951,None,885.6247833999951,None,885.6247833999951,None,915.8337532000005,None,,,,,,,,,,,,,,,,,,,,,,,,,,,,,,,,,,,,,,,,,,,,,,,,,,,,,,,,11,001,2023_Feb_15_1014,ExactRep-v3-final,2021.2.3,59.78991021293257,
,,,,1,0,1,0,,,,,,,,,,,,,,,,,,,,,,,,,,,,,,,,,,,,,,,,,,,,,,,,,,,,,,,,,920.3443191999977,None,,,,,,,,,,,,,,,,,918.3422745999997,None,,,,,,,,,,,,,,,,,,,,,,,,,,,,,,,,,,,,,,,,,,,,,,,,,,,,,,,,11,001,2023_Feb_15_1014,ExactRep-v3-final,2021.2.3,59.78991021293257,
,,,,2,0,2,0,,,,,,,,,,,,,,,,,,,,,,,,,,,,,,,,,,,,,,,,,,,,,,,,,,,,,,,,,922.8470239000017,None,,,,,,,,,,,,,,,,,920.8448561999976,None,,,,,,,,,,,,,,,,,,,,,,,,,,,,,,,,,,,,,,,,,,,,,,,,,,,,,,,,11,001,2023_Feb_15_1014,ExactRep-v3-final,2021.2.3,59.78991021293257,
,,,,3,0,3,0,,,,,,,,,,,,,,,,,,,,,,,,,,,,,,,,,,,,,,,,,,,,,,,,,,,,,,,,,925.349366399998,None,,,,,,,,,,,,,,,,,923.3475357999996,None,,,,,,,,,,,,,,,,,,,,,,,,,,,,,,,,,,,,,,,,,,,,,,,,,,,,,,,,11,001,2023_Feb_15_1014,ExactRep-v3-final,2021.2.3,59.78991021293257,
,,,,4,0,4,0,,,,,,,,,,,,,,,,,,,,,,,,,,,,,,,,,,,,,,,,,,,,,,,,,,,,,,,,,927.8519050000032,None,,,,,,,,,,,,,,,,,925.849901900001,None,,,,,,,,,,,,,,,,,,,,,,,,,,,,,,,,,,,,,,,,,,,,,,,,,,,,,,,,11,001,2023_Feb_15_1014,ExactRep-v3-final,2021.2.3,59.78991021293257,
,,,,5,0,5,0,,,,,,,,,,,,,,,,,,,,,,,,,,,,,,,,,,,,,,,,,,,,,,,,,,,,,,,,,930.3541772000026,None,,,,,,,,,,,,,,,,,928.3523266999982,None,,,,,,,,,,,,,,,,,,,,,,,,,,,,,,,,,,,,,,,,,,,,,,,,,,,,,,,,11,001,2023_Feb_15_1014,ExactRep-v3-final,2021.2.3,59.78991021293257,
,,,,6,0,6,0,,,,,,,,,,,,,,,,,,,,,,,,,,,,,,,,,,,,,,,,,,,,,,,,,,,,,,,,,932.8570091000001,None,,,,,,,,,,,,,,,,,930.8544913000078,None,,,,,,,,,,,,,,,,,,,,,,,,,,,,,,,,,,,,,,,,,,,,,,,,,,,,,,,,11,001,2023_Feb_15_1014,ExactRep-v3-final,2021.2.3,59.78991021293257,
,,,,7,0,7,0,,,,,,,,,,,,,,,,,,,,,,,,,,,,,,,,,,,,,,,,,,,,,,,,,,,,,,,,,935.3594127999968,None,,,,,,,,,,,,,,,,,933.3574885999988,None,,,,,,,,,,,,,,,,,,,,,,,,,,,,,,,,,,,,,,,,,,,,,,,,,,,,,,,,11,001,2023_Feb_15_1014,ExactRep-v3-final,2021.2.3,59.78991021293257,
,,,,8,0,8,0,,,,,,,,,,,,,,,,,,,,,,,,,,,,,,,,,,,,,,,,,,,,,,,,,,,,,,,,,937.8618299999944,None,,,,,,,,,,,,,,,,,935.8600112999993,None,,,,,,,,,,,,,,,,,,,,,,,,,,,,,,,,,,,,,,,,,,,,,,,,,,,,,,,,11,001,2023_Feb_15_1014,ExactRep-v3-final,2021.2.3,59.78991021293257,
,,,,9,0,9,0,,,,,,,,,,,,,,,,,,,,,,,,,,,,,,,,,,,,,,,,,,,,,,,,,,,,,,,,,940.3642210999969,None,,,,,,,,,,,,,,,,,938.3622021000047,None,,,,,,,,,,,,,,,,,,,,,,,,,,,,,,,,,,,,,,,,,,,,,,,,,,,,,,,,11,001,2023_Feb_15_1014,ExactRep-v3-final,2021.2.3,59.78991021293257,
,,,,10,0,10,0,,,,,,,,,,,,,,,,,,,,,,,,,,,,,,,,,,,,,,,,,,,,,,,,,,,,,,,,,942.8668384000048,None,,,,,,,,,,,,,,,,,940.8646641999949,None,,,,,,,,,,,,,,,,,,,,,,,,,,,,,,,,,,,,,,,,,,,,,,,,,,,,,,,,11,001,2023_Feb_15_1014,ExactRep-v3-final,2021.2.3,59.78991021293257,
,,,,11,0,11,0,,,,,,,,,,,,,,,,,,,,,,,,,,,,,,,,,,,,,,,,,,,,,,,,,,,,,,,,,945.369357100004,None,,,,,,,,,,,,,,,,,943.3673407000024,None,,,,,,,,,,,,,,,,,,,,,,,,,,,,,,,,,,,,,,,,,,,,,,,,,,,,,,,,11,001,2023_Feb_15_1014,ExactRep-v3-final,2021.2.3,59.78991021293257,
,,,,12,0,12,0,,,,,,,,,,,,,,,,,,,,,,,,,,,,,,,,,,,,,,,,,,,,,,,,,,,,,,,,,947.8718439999939,None,,,,,,,,,,,,,,,,,945.8698803000007,None,,,,,,,,,,,,,,,,,,,,,,,,,,,,,,,,,,,,,,,,,,,,,,,,,,,,,,,,11,001,2023_Feb_15_1014,ExactRep-v3-final,2021.2.3,59.78991021293257,
,,,,13,0,13,0,,,,,,,,,,,,,,,,,,,,,,,,,,,,,,,,,,,,,,,,,,,,,,,,,,,,,,,,,950.3742192000063,None,,,,,,,,,,,,,,,,,948.3723797999992,None,,,,,,,,,,,,,,,,,,,,,,,,,,,,,,,,,,,,,,,,,,,,,,,,,,,,,,,,11,001,2023_Feb_15_1014,ExactRep-v3-final,2021.2.3,59.78991021293257,
,,,,14,0,14,0,,,,,,,,,,,,,,,,,,,,,,,,,,,,,,,,,,,,,,,,,,,,,,,,,,,,,,,,,952.8769098000048,None,,,,,,,,,,,,,,,,,950.8758691999974,None,,,,,,,,,,,,,,,,,,,,,,,,,,,,,,,,,,,,,,,,,,,,,,,,,,,,,,,,11,001,2023_Feb_15_1014,ExactRep-v3-final,2021.2.3,59.78991021293257,
,,,,,,,,,,,,,,,,,,,,,,,,,,,,,,,,,,,,,,,,,,,,,,,,,,,,,,,,,,,,,,,,,,,,,,,,,,,,,,,,,,,,space,25.734046400000807,963.4929590999964,None,,,,,,,,,,,,,,,,,,,,,,,,,,,,,,,,,,,,,,,,,,,,,,,,,,,,11,001,2023_Feb_15_1014,ExactRep-v3-final,2021.2.3,59.78991021293257,
,,,,,,,,0,0,0,0,,,,,,,,,,,,,,,,,,,,,,,,,,,,,,,,,,,,,,,,,,,,,,,,,,,,,991.3152774000046,None,,,,,,,,,,,,,,,,,,,,,,,953.5430824000068,None,953.5430824000068,None,953.5430824000068,None,953.5430824000068,None,953.5430824000068,None,953.5430824000068,None,grief,109,1,aloud,white,989.2999157000013,None,None,989.2999157000013,None,,,,,,,,,,,,,,,,,,,,,,,,,,,,,,11,001,2023_Feb_15_1014,ExactRep-v3-final,2021.2.3,59.78991021293257,
,,,,,,,,1,0,1,0,,,,,,,,,,,,,,,,,,,,,,,,,,,,,,,,,,,,,,,,,,,,,,,,,,,,,993.8345157000003,None,,,,,,,,,,,,,,,,,,,,,,,,,,,,,,,,,,,seat,97,2,aloud,white,991.8194730999967,None,None,991.8194730999967,None,,,,,,,,,,,,,,,,,,,,,,,,,,,,,,11,001,2023_Feb_15_1014,ExactRep-v3-final,2021.2.3,59.78991021293257,
,,,,,,,,2,0,2,0,,,,,,,,,,,,,,,,,,,,,,,,,,,,,,,,,,,,,,,,,,,,,,,,,,,,,996.3536542000074,None,,,,,,,,,,,,,,,,,,,,,,,,,,,,,,,,,,,house,107,3,aloud,white,994.3391163000051,None,None,994.3391163000051,None,,,,,,,,,,,,,,,,,,,,,,,,,,,,,,11,001,2023_Feb_15_1014,ExactRep-v3-final,2021.2.3,59.78991021293257,
,,,,,,,,3,0,3,0,,,,,,,,,,,,,,,,,,,,,,,,,,,,,,,,,,,,,,,,,,,,,,,,,,,,,998.8561733999959,None,,,,,,,,,,,,,,,,,,,,,,,,,,,,,,,,,,,soil,113,4,aloud,white,996.854156100002,None,None,996.854156100002,None,,,,,,,,,,,,,,,,,,,,,,,,,,,,,,11,001,2023_Feb_15_1014,ExactRep-v3-final,2021.2.3,59.78991021293257,
,,,,,,,,4,0,4,0,,,,,,,,,,,,,,,,,,,,,,,,,,,,,,,,,,,,,,,,,,,,,,,,,,,,,1001.3587056999968,None,,,,,,,,,,,,,,,,,,,,,,,,,,,,,,,,,,,salary,65,5,silent,red,999.3564654000074,None,None,999.3564654000074,None,,,,,,,,,,,,,,,,,,,,,,,,,,,,,,11,001,2023_Feb_15_1014,ExactRep-v3-final,2021.2.3,59.78991021293257,
,,,,,,,,5,0,5,0,,,,,,,,,,,,,,,,,,,,,,,,,,,,,,,,,,,,,,,,,,,,,,,,,,,,,1003.8779237999988,None,,,,,,,,,,,,,,,,,,,,,,,,,,,,,,,,,,,village,33,6,sing,blue,1001.8709873000043,None,None,1001.8709873000043,None,,,,,,,,,,,,,,,,,,,,,,,,,,,,,,11,001,2023_Feb_15_1014,ExactRep-v3-final,2021.2.3,59.78991021293257,
,,,,,,,,6,0,6,0,,,,,,,,,,,,,,,,,,,,,,,,,,,,,,,,,,,,,,,,,,,,,,,,,,,,,1006.3804313,None,,,,,,,,,,,,,,,,,,,,,,,,,,,,,,,,,,,author,6,7,sing,blue,1004.3803425000078,None,None,1004.3803425000078,None,,,,,,,,,,,,,,,,,,,,,,,,,,,,,,11,001,2023_Feb_15_1014,ExactRep-v3-final,2021.2.3,59.78991021293257,
,,,,,,,,7,0,7,0,,,,,,,,,,,,,,,,,,,,,,,,,,,,,,,,,,,,,,,,,,,,,,,,,,,,,1008.8993685000023,None,,,,,,,,,,,,,,,,,,,,,,,,,,,,,,,,,,,pupil,112,8,aloud,white,1006.8890720000054,None,None,1006.8890720000054,None,,,,,,,,,,,,,,,,,,,,,,,,,,,,,,11,001,2023_Feb_15_1014,ExactRep-v3-final,2021.2.3,59.78991021293257,
,,,,,,,,8,0,8,0,,,,,,,,,,,,,,,,,,,,,,,,,,,,,,,,,,,,,,,,,,,,,,,,,,,,,1011.4020869999949,None,,,,,,,,,,,,,,,,,,,,,,,,,,,,,,,,,,,silence,75,9,silent,red,1009.3999202999985,None,None,1009.3999202999985,None,,,,,,,,,,,,,,,,,,,,,,,,,,,,,,11,001,2023_Feb_15_1014,ExactRep-v3-final,2021.2.3,59.78991021293257,
,,,,,,,,9,0,9,0,,,,,,,,,,,,,,,,,,,,,,,,,,,,,,,,,,,,,,,,,,,,,,,,,,,,,1013.9045980999945,None,,,,,,,,,,,,,,,,,,,,,,,,,,,,,,,,,,,college,66,10,silent,red,1011.9053376999946,None,None,1011.9053376999946,None,,,,,,,,,,,,,,,,,,,,,,,,,,,,,,11,001,2023_Feb_15_1014,ExactRep-v3-final,2021.2.3,59.78991021293257,
,,,,,,,,10,0,10,0,,,,,,,,,,,,,,,,,,,,,,,,,,,,,,,,,,,,,,,,,,,,,,,,,,,,,1016.4069813999959,None,,,,,,,,,,,,,,,,,,,,,,,,,,,,,,,,,,,fortune,117,11,aloud,white,1014.4080854000058,None,None,1014.4080854000058,None,,,,,,,,,,,,,,,,,,,,,,,,,,,,,,11,001,2023_Feb_15_1014,ExactRep-v3-final,2021.2.3,59.78991021293257,
,,,,,,,,11,0,11,0,,,,,,,,,,,,,,,,,,,,,,,,,,,,,,,,,,,,,,,,,,,,,,,,,,,,,1018.9262856999994,None,,,,,,,,,,,,,,,,,,,,,,,,,,,,,,,,,,,metal,83,12,aloud,white,1016.9186906999967,None,None,1016.9186906999967,None,,,,,,,,,,,,,,,,,,,,,,,,,,,,,,11,001,2023_Feb_15_1014,ExactRep-v3-final,2021.2.3,59.78991021293257,
,,,,,,,,12,0,12,0,,,,,,,,,,,,,,,,,,,,,,,,,,,,,,,,,,,,,,,,,,,,,,,,,,,,,1021.4454267999972,None,,,,,,,,,,,,,,,,,,,,,,,,,,,,,,,,,,,form,40,13,silent,red,1019.4301059999998,None,None,1019.4301059999998,None,,,,,,,,,,,,,,,,,,,,,,,,,,,,,,11,001,2023_Feb_15_1014,ExactRep-v3-final,2021.2.3,59.78991021293257,
,,,,,,,,13,0,13,0,,,,,,,,,,,,,,,,,,,,,,,,,,,,,,,,,,,,,,,,,,,,,,,,,,,,,1023.9478954000078,None,,,,,,,,,,,,,,,,,,,,,,,,,,,,,,,,,,,product,74,14,silent,red,1021.9480044000084,None,None,1021.9480044000084,None,,,,,,,,,,,,,,,,,,,,,,,,,,,,,,11,001,2023_Feb_15_1014,ExactRep-v3-final,2021.2.3,59.78991021293257,
,,,,,,,,14,0,14,0,,,,,,,,,,,,,,,,,,,,,,,,,,,,,,,,,,,,,,,,,,,,,,,,,,,,,1026.4502880000073,None,,,,,,,,,,,,,,,,,,,,,,,,,,,,,,,,,,,mind,44,15,silent,red,1024.4484383999952,None,None,1024.4484383999952,None,,,,,,,,,,,,,,,,,,,,,,,,,,,,,,11,001,2023_Feb_15_1014,ExactRep-v3-final,2021.2.3,59.78991021293257,
,,,,,,,,15,0,15,0,,,,,,,,,,,,,,,,,,,,,,,,,,,,,,,,,,,,,,,,,,,,,,,,,,,,,1028.9696048000042,None,,,,,,,,,,,,,,,,,,,,,,,,,,,,,,,,,,,glory,26,16,sing,blue,1026.9623722999968,None,None,1026.9623722999968,None,,,,,,,,,,,,,,,,,,,,,,,,,,,,,,11,001,2023_Feb_15_1014,ExactRep-v3-final,2021.2.3,59.78991021293257,
,,,,,,,,16,0,16,0,,,,,,,,,,,,,,,,,,,,,,,,,,,,,,,,,,,,,,,,,,,,,,,,,,,,,1031.472162399994,None,,,,,,,,,,,,,,,,,,,,,,,,,,,,,,,,,,,library,45,17,silent,red,1029.470113000003,None,None,1029.470113000003,None,,,,,,,,,,,,,,,,,,,,,,,,,,,,,,11,001,2023_Feb_15_1014,ExactRep-v3-final,2021.2.3,59.78991021293257,
,,,,,,,,17,0,17,0,,,,,,,,,,,,,,,,,,,,,,,,,,,,,,,,,,,,,,,,,,,,,,,,,,,,,1033.9913390000002,None,,,,,,,,,,,,,,,,,,,,,,,,,,,,,,,,,,,star,88,18,aloud,white,1031.9796057000058,None,None,1031.9796057000058,None,,,,,,,,,,,,,,,,,,,,,,,,,,,,,,11,001,2023_Feb_15_1014,ExactRep-v3-final,2021.2.3,59.78991021293257,
,,,,,,,,18,0,18,0,,,,,,,,,,,,,,,,,,,,,,,,,,,,,,,,,,,,,,,,,,,,,,,,,,,,,1036.4938092999946,None,,,,,,,,,,,,,,,,,,,,,,,,,,,,,,,,,,,teacher,110,19,aloud,white,1034.4945088999957,None,None,1034.4945088999957,None,,,,,,,,,,,,,,,,,,,,,,,,,,,,,,11,001,2023_Feb_15_1014,ExactRep-v3-final,2021.2.3,59.78991021293257,
,,,,,,,,19,0,19,0,,,,,,,,,,,,,,,,,,,,,,,,,,,,,,,,,,,,,,,,,,,,,,,,,,,,,1039.0130254999967,None,,,,,,,,,,,,,,,,,,,,,,,,,,,,,,,,,,,wine,22,20,sing,blue,1036.9994385000027,None,None,1036.9994385000027,None,,,,,,,,,,,,,,,,,,,,,,,,,,,,,,11,001,2023_Feb_15_1014,ExactRep-v3-final,2021.2.3,59.78991021293257,
,,,,,,,,20,0,20,0,,,,,,,,,,,,,,,,,,,,,,,,,,,,,,,,,,,,,,,,,,,,,,,,,,,,,1041.5155427999998,None,,,,,,,,,,,,,,,,,,,,,,,,,,,,,,,,,,,garden,95,21,aloud,white,1039.5164970000042,None,None,1039.5164970000042,None,,,,,,,,,,,,,,,,,,,,,,,,,,,,,,11,001,2023_Feb_15_1014,ExactRep-v3-final,2021.2.3,59.78991021293257,
,,,,,,,,21,0,21,0,,,,,,,,,,,,,,,,,,,,,,,,,,,,,,,,,,,,,,,,,,,,,,,,,,,,,1044.0178737999959,None,,,,,,,,,,,,,,,,,,,,,,,,,,,,,,,,,,,iron,2,22,sing,blue,1042.0180454000074,None,None,1042.0180454000074,None,,,,,,,,,,,,,,,,,,,,,,,,,,,,,,11,001,2023_Feb_15_1014,ExactRep-v3-final,2021.2.3,59.78991021293257,
,,,,,,,,22,0,22,0,,,,,,,,,,,,,,,,,,,,,,,,,,,,,,,,,,,,,,,,,,,,,,,,,,,,,1046.537020799995,None,,,,,,,,,,,,,,,,,,,,,,,,,,,,,,,,,,,temple,64,23,silent,red,1044.5264371999947,None,None,1044.5264371999947,None,,,,,,,,,,,,,,,,,,,,,,,,,,,,,,11,001,2023_Feb_15_1014,ExactRep-v3-final,2021.2.3,59.78991021293257,
,,,,,,,,23,0,23,0,,,,,,,,,,,,,,,,,,,,,,,,,,,,,,,,,,,,,,,,,,,,,,,,,,,,,1049.0396304000024,None,,,,,,,,,,,,,,,,,,,,,,,,,,,,,,,,,,,coffee,67,24,silent,red,1047.0375124999991,None,None,1047.0375124999991,None,,,,,,,,,,,,,,,,,,,,,,,,,,,,,,11,001,2023_Feb_15_1014,ExactRep-v3-final,2021.2.3,59.78991021293257,
,,,,,,,,24,0,24,0,,,,,,,,,,,,,,,,,,,,,,,,,,,,,,,,,,,,,,,,,,,,,,,,,,,,,1051.542219199997,None,,,,,,,,,,,,,,,,,,,,,,,,,,,,,,,,,,,thought,119,25,aloud,white,1049.5427734999976,None,None,1049.5427734999976,None,,,,,,,,,,,,,,,,,,,,,,,,,,,,,,11,001,2023_Feb_15_1014,ExactRep-v3-final,2021.2.3,59.78991021293257,
,,,,,,,,25,0,25,0,,,,,,,,,,,,,,,,,,,,,,,,,,,,,,,,,,,,,,,,,,,,,,,,,,,,,1054.0613849000074,None,,,,,,,,,,,,,,,,,,,,,,,,,,,,,,,,,,,animal,23,26,sing,blue,1052.0508677000034,None,None,1052.0508677000034,None,,,,,,,,,,,,,,,,,,,,,,,,,,,,,,11,001,2023_Feb_15_1014,ExactRep-v3-final,2021.2.3,59.78991021293257,
,,,,,,,,26,0,26,0,,,,,,,,,,,,,,,,,,,,,,,,,,,,,,,,,,,,,,,,,,,,,,,,,,,,,1056.5638707000035,None,,,,,,,,,,,,,,,,,,,,,,,,,,,,,,,,,,,cost,84,27,aloud,white,1054.5624656,None,None,1054.5624656,None,,,,,,,,,,,,,,,,,,,,,,,,,,,,,,11,001,2023_Feb_15_1014,ExactRep-v3-final,2021.2.3,59.78991021293257,
,,,,,,,,27,0,27,0,,,,,,,,,,,,,,,,,,,,,,,,,,,,,,,,,,,,,,,,,,,,,,,,,,,,,1059.0830622000067,None,,,,,,,,,,,,,,,,,,,,,,,,,,,,,,,,,,,volume,63,28,silent,red,1057.0711987999966,None,None,1057.0711987999966,None,,,,,,,,,,,,,,,,,,,,,,,,,,,,,,11,001,2023_Feb_15_1014,ExactRep-v3-final,2021.2.3,59.78991021293257,
,,,,,,,,28,0,28,0,,,,,,,,,,,,,,,,,,,,,,,,,,,,,,,,,,,,,,,,,,,,,,,,,,,,,1061.5857271999994,None,,,,,,,,,,,,,,,,,,,,,,,,,,,,,,,,,,,city,86,29,aloud,white,1059.5835942999984,None,None,1059.5835942999984,None,,,,,,,,,,,,,,,,,,,,,,,,,,,,,,11,001,2023_Feb_15_1014,ExactRep-v3-final,2021.2.3,59.78991021293257,
,,,,,,,,29,0,29,0,,,,,,,,,,,,,,,,,,,,,,,,,,,,,,,,,,,,,,,,,,,,,,,,,,,,,1064.104866900001,None,,,,,,,,,,,,,,,,,,,,,,,,,,,,,,,,,,,money,41,30,silent,red,1062.0946597000002,None,None,1062.0946597000002,None,,,,,,,,,,,,,,,,,,,,,,,,,,,,,,11,001,2023_Feb_15_1014,ExactRep-v3-final,2021.2.3,59.78991021293257,
,,,,,,,,30,0,30,0,,,,,,,,,,,,,,,,,,,,,,,,,,,,,,,,,,,,,,,,,,,,,,,,,,,,,1066.624005100006,None,,,,,,,,,,,,,,,,,,,,,,,,,,,,,,,,,,,lake,99,31,aloud,white,1064.610251200007,None,None,1064.610251200007,None,,,,,,,,,,,,,,,,,,,,,,,,,,,,,,11,001,2023_Feb_15_1014,ExactRep-v3-final,2021.2.3,59.78991021293257,
,,,,,,,,31,0,31,0,,,,,,,,,,,,,,,,,,,,,,,,,,,,,,,,,,,,,,,,,,,,,,,,,,,,,1069.1430049000046,None,,,,,,,,,,,,,,,,,,,,,,,,,,,,,,,,,,,green,17,32,sing,blue,1067.1408035000059,None,None,1067.1408035000059,None,,,,,,,,,,,,,,,,,,,,,,,,,,,,,,11,001,2023_Feb_15_1014,ExactRep-v3-final,2021.2.3,59.78991021293257,
,,,,,,,,32,0,32,0,,,,,,,,,,,,,,,,,,,,,,,,,,,,,,,,,,,,,,,,,,,,,,,,,,,,,1071.6623222000053,None,,,,,,,,,,,,,,,,,,,,,,,,,,,,,,,,,,,style,106,33,aloud,white,1069.6530970000022,None,None,1069.6530970000022,None,,,,,,,,,,,,,,,,,,,,,,,,,,,,,,11,001,2023_Feb_15_1014,ExactRep-v3-final,2021.2.3,59.78991021293257,
,,,,,,,,33,0,33,0,,,,,,,,,,,,,,,,,,,,,,,,,,,,,,,,,,,,,,,,,,,,,,,,,,,,,1074.1813694000011,None,,,,,,,,,,,,,,,,,,,,,,,,,,,,,,,,,,,disease,12,34,sing,blue,1072.169233499997,None,None,1072.169233499997,None,,,,,,,,,,,,,,,,,,,,,,,,,,,,,,11,001,2023_Feb_15_1014,ExactRep-v3-final,2021.2.3,59.78991021293257,
,,,,,,,,34,0,34,0,,,,,,,,,,,,,,,,,,,,,,,,,,,,,,,,,,,,,,,,,,,,,,,,,,,,,1076.7004752000066,None,,,,,,,,,,,,,,,,,,,,,,,,,,,,,,,,,,,history,56,35,silent,red,1074.6904192000075,None,None,1074.6904192000075,None,,,,,,,,,,,,,,,,,,,,,,,,,,,,,,11,001,2023_Feb_15_1014,ExactRep-v3-final,2021.2.3,59.78991021293257,
,,,,,,,,35,0,35,0,,,,,,,,,,,,,,,,,,,,,,,,,,,,,,,,,,,,,,,,,,,,,,,,,,,,,1079.2198817000026,None,,,,,,,,,,,,,,,,,,,,,,,,,,,,,,,,,,,anger,91,36,aloud,white,1077.2086361999973,None,None,1077.2086361999973,None,,,,,,,,,,,,,,,,,,,,,,,,,,,,,,11,001,2023_Feb_15_1014,ExactRep-v3-final,2021.2.3,59.78991021293257,
,,,,,,,,36,0,36,0,,,,,,,,,,,,,,,,,,,,,,,,,,,,,,,,,,,,,,,,,,,,,,,,,,,,,1081.7391901000083,None,,,,,,,,,,,,,,,,,,,,,,,,,,,,,,,,,,,picture,42,37,silent,red,1079.7249742999993,None,None,1079.7249742999993,None,,,,,,,,,,,,,,,,,,,,,,,,,,,,,,11,001,2023_Feb_15_1014,ExactRep-v3-final,2021.2.3,59.78991021293257,
,,,,,,,,37,0,37,0,,,,,,,,,,,,,,,,,,,,,,,,,,,,,,,,,,,,,,,,,,,,,,,,,,,,,1084.2415388999943,None,,,,,,,,,,,,,,,,,,,,,,,,,,,,,,,,,,,hotel,19,38,sing,blue,1082.2408154000004,None,None,1082.2408154000004,None,,,,,,,,,,,,,,,,,,,,,,,,,,,,,,11,001,2023_Feb_15_1014,ExactRep-v3-final,2021.2.3,59.78991021293257,
,,,,,,,,38,0,38,0,,,,,,,,,,,,,,,,,,,,,,,,,,,,,,,,,,,,,,,,,,,,,,,,,,,,,1086.7440650000062,None,,,,,,,,,,,,,,,,,,,,,,,,,,,,,,,,,,,justice,54,39,silent,red,1084.7422054000053,None,None,1084.7422054000053,None,,,,,,,,,,,,,,,,,,,,,,,,,,,,,,11,001,2023_Feb_15_1014,ExactRep-v3-final,2021.2.3,59.78991021293257,
,,,,,,,,39,0,39,0,,,,,,,,,,,,,,,,,,,,,,,,,,,,,,,,,,,,,,,,,,,,,,,,,,,,,1089.2632448000077,None,,,,,,,,,,,,,,,,,,,,,,,,,,,,,,,,,,,answer,47,40,silent,red,1087.2539861999976,None,None,1087.2539861999976,None,,,,,,,,,,,,,,,,,,,,,,,,,,,,,,11,001,2023_Feb_15_1014,ExactRep-v3-final,2021.2.3,59.78991021293257,
,,,,,,,,40,0,40,0,,,,,,,,,,,,,,,,,,,,,,,,,,,,,,,,,,,,,,,,,,,,,,,,,,,,,1091.7655786999967,None,,,,,,,,,,,,,,,,,,,,,,,,,,,,,,,,,,,street,5,41,sing,blue,1089.763619499994,None,None,1089.763619499994,None,,,,,,,,,,,,,,,,,,,,,,,,,,,,,,11,001,2023_Feb_15_1014,ExactRep-v3-final,2021.2.3,59.78991021293257,
,,,,,,,,41,0,41,0,,,,,,,,,,,,,,,,,,,,,,,,,,,,,,,,,,,,,,,,,,,,,,,,,,,,,1094.268332000007,None,,,,,,,,,,,,,,,,,,,,,,,,,,,,,,,,,,,party,35,42,sing,blue,1092.2661299000029,None,None,1092.2661299000029,None,,,,,,,,,,,,,,,,,,,,,,,,,,,,,,11,001,2023_Feb_15_1014,ExactRep-v3-final,2021.2.3,59.78991021293257,
,,,,,,,,42,0,42,0,,,,,,,,,,,,,,,,,,,,,,,,,,,,,,,,,,,,,,,,,,,,,,,,,,,,,1096.7707452000031,None,,,,,,,,,,,,,,,,,,,,,,,,,,,,,,,,,,,meadow,69,43,silent,red,1094.7715767000045,None,None,1094.7715767000045,None,,,,,,,,,,,,,,,,,,,,,,,,,,,,,,11,001,2023_Feb_15_1014,ExactRep-v3-final,2021.2.3,59.78991021293257,
,,,,,,,,43,0,43,0,,,,,,,,,,,,,,,,,,,,,,,,,,,,,,,,,,,,,,,,,,,,,,,,,,,,,1099.2897521999985,None,,,,,,,,,,,,,,,,,,,,,,,,,,,,,,,,,,,pride,118,44,aloud,white,1097.2808149000048,None,None,1097.2808149000048,None,,,,,,,,,,,,,,,,,,,,,,,,,,,,,,11,001,2023_Feb_15_1014,ExactRep-v3-final,2021.2.3,59.78991021293257,
,,,,,,,,44,0,44,0,,,,,,,,,,,,,,,,,,,,,,,,,,,,,,,,,,,,,,,,,,,,,,,,,,,,,1101.7922416000074,None,,,,,,,,,,,,,,,,,,,,,,,,,,,,,,,,,,,child,62,45,silent,red,1099.792317200001,None,None,1099.792317200001,None,,,,,,,,,,,,,,,,,,,,,,,,,,,,,,11,001,2023_Feb_15_1014,ExactRep-v3-final,2021.2.3,59.78991021293257,
,,,,,,,,45,0,45,0,,,,,,,,,,,,,,,,,,,,,,,,,,,,,,,,,,,,,,,,,,,,,,,,,,,,,1104.3114955000055,None,,,,,,,,,,,,,,,,,,,,,,,,,,,,,,,,,,,shore,11,46,sing,blue,1102.2979501999944,None,None,1102.2979501999944,None,,,,,,,,,,,,,,,,,,,,,,,,,,,,,,11,001,2023_Feb_15_1014,ExactRep-v3-final,2021.2.3,59.78991021293257,
,,,,,,,,46,0,46,0,,,,,,,,,,,,,,,,,,,,,,,,,,,,,,,,,,,,,,,,,,,,,,,,,,,,,1106.8307341000036,None,,,,,,,,,,,,,,,,,,,,,,,,,,,,,,,,,,,ability,36,47,sing,blue,1104.8173071000056,None,None,1104.8173071000056,None,,,,,,,,,,,,,,,,,,,,,,,,,,,,,,11,001,2023_Feb_15_1014,ExactRep-v3-final,2021.2.3,59.78991021293257,
,,,,,,,,47,0,47,0,,,,,,,,,,,,,,,,,,,,,,,,,,,,,,,,,,,,,,,,,,,,,,,,,,,,,1109.333890199996,None,,,,,,,,,,,,,,,,,,,,,,,,,,,,,,,,,,,coast,72,48,silent,red,1107.3344216999976,None,None,1107.3344216999976,None,,,,,,,,,,,,,,,,,,,,,,,,,,,,,,11,001,2023_Feb_15_1014,ExactRep-v3-final,2021.2.3,59.78991021293257,
,,,,,,,,48,0,48,0,,,,,,,,,,,,,,,,,,,,,,,,,,,,,,,,,,,,,,,,,,,,,,,,,,,,,1111.8525137999968,None,,,,,,,,,,,,,,,,,,,,,,,,,,,,,,,,,,,leader,13,49,sing,blue,1109.8432508999977,None,None,1109.8432508999977,None,,,,,,,,,,,,,,,,,,,,,,,,,,,,,,11,001,2023_Feb_15_1014,ExactRep-v3-final,2021.2.3,59.78991021293257,
,,,,,,,,49,0,49,0,,,,,,,,,,,,,,,,,,,,,,,,,,,,,,,,,,,,,,,,,,,,,,,,,,,,,1114.3548333000072,None,,,,,,,,,,,,,,,,,,,,,,,,,,,,,,,,,,,meat,49,50,silent,red,1112.3528513000056,None,None,1112.3528513000056,None,,,,,,,,,,,,,,,,,,,,,,,,,,,,,,11,001,2023_Feb_15_1014,ExactRep-v3-final,2021.2.3,59.78991021293257,
,,,,,,,,50,0,50,0,,,,,,,,,,,,,,,,,,,,,,,,,,,,,,,,,,,,,,,,,,,,,,,,,,,,,1116.8574741000048,None,,,,,,,,,,,,,,,,,,,,,,,,,,,,,,,,,,,square,18,51,sing,blue,1114.8584594999993,None,None,1114.8584594999993,None,,,,,,,,,,,,,,,,,,,,,,,,,,,,,,11,001,2023_Feb_15_1014,ExactRep-v3-final,2021.2.3,59.78991021293257,
,,,,,,,,51,0,51,0,,,,,,,,,,,,,,,,,,,,,,,,,,,,,,,,,,,,,,,,,,,,,,,,,,,,,1119.3767060999962,None,,,,,,,,,,,,,,,,,,,,,,,,,,,,,,,,,,,pipe,94,52,aloud,white,1117.3663789999991,None,None,1117.3663789999991,None,,,,,,,,,,,,,,,,,,,,,,,,,,,,,,11,001,2023_Feb_15_1014,ExactRep-v3-final,2021.2.3,59.78991021293257,
,,,,,,,,52,0,52,0,,,,,,,,,,,,,,,,,,,,,,,,,,,,,,,,,,,,,,,,,,,,,,,,,,,,,1121.8791749000084,None,,,,,,,,,,,,,,,,,,,,,,,,,,,,,,,,,,,murder,73,53,silent,red,1119.8770471000025,None,None,1119.8770471000025,None,,,,,,,,,,,,,,,,,,,,,,,,,,,,,,11,001,2023_Feb_15_1014,ExactRep-v3-final,2021.2.3,59.78991021293257,
,,,,,,,,53,0,53,0,,,,,,,,,,,,,,,,,,,,,,,,,,,,,,,,,,,,,,,,,,,,,,,,,,,,,1124.381692199997,None,,,,,,,,,,,,,,,,,,,,,,,,,,,,,,,,,,,nail,51,54,silent,red,1122.3803191000043,None,None,1122.3803191000043,None,,,,,,,,,,,,,,,,,,,,,,,,,,,,,,11,001,2023_Feb_15_1014,ExactRep-v3-final,2021.2.3,59.78991021293257,
,,,,,,,,54,0,54,0,,,,,,,,,,,,,,,,,,,,,,,,,,,,,,,,,,,,,,,,,,,,,,,,,,,,,1126.8842344000004,None,,,,,,,,,,,,,,,,,,,,,,,,,,,,,,,,,,,present,61,55,silent,red,1124.8840009999985,None,None,1124.8840009999985,None,,,,,,,,,,,,,,,,,,,,,,,,,,,,,,11,001,2023_Feb_15_1014,ExactRep-v3-final,2021.2.3,59.78991021293257,
,,,,,,,,55,0,55,0,,,,,,,,,,,,,,,,,,,,,,,,,,,,,,,,,,,,,,,,,,,,,,,,,,,,,1129.4032008000067,None,,,,,,,,,,,,,,,,,,,,,,,,,,,,,,,,,,,body,90,56,aloud,white,1127.3931900000025,None,None,1127.3931900000025,None,,,,,,,,,,,,,,,,,,,,,,,,,,,,,,11,001,2023_Feb_15_1014,ExactRep-v3-final,2021.2.3,59.78991021293257,
,,,,,,,,56,0,56,0,,,,,,,,,,,,,,,,,,,,,,,,,,,,,,,,,,,,,,,,,,,,,,,,,,,,,1131.9059032000077,None,,,,,,,,,,,,,,,,,,,,,,,,,,,,,,,,,,,time,101,57,aloud,white,1129.9036978000076,None,None,1129.9036978000076,None,,,,,,,,,,,,,,,,,,,,,,,,,,,,,,11,001,2023_Feb_15_1014,ExactRep-v3-final,2021.2.3,59.78991021293257,
,,,,,,,,57,0,57,0,,,,,,,,,,,,,,,,,,,,,,,,,,,,,,,,,,,,,,,,,,,,,,,,,,,,,1134.4249396999949,None,,,,,,,,,,,,,,,,,,,,,,,,,,,,,,,,,,,devil,53,58,silent,red,1132.4133860000002,None,None,1132.4133860000002,None,,,,,,,,,,,,,,,,,,,,,,,,,,,,,,11,001,2023_Feb_15_1014,ExactRep-v3-final,2021.2.3,59.78991021293257,
,,,,,,,,58,0,58,0,,,,,,,,,,,,,,,,,,,,,,,,,,,,,,,,,,,,,,,,,,,,,,,,,,,,,1136.9276597999997,None,,,,,,,,,,,,,,,,,,,,,,,,,,,,,,,,,,,cattle,93,59,aloud,white,1134.9254102999985,None,None,1134.9254102999985,None,,,,,,,,,,,,,,,,,,,,,,,,,,,,,,11,001,2023_Feb_15_1014,ExactRep-v3-final,2021.2.3,59.78991021293257,
,,,,,,,,59,0,59,0,,,,,,,,,,,,,,,,,,,,,,,,,,,,,,,,,,,,,,,,,,,,,,,,,,,,,1139.4301618000027,None,,,,,,,,,,,,,,,,,,,,,,,,,,,,,,,,,,,shoes,82,60,aloud,white,1137.429754900004,None,None,1137.429754900004,None,,,,,,,,,,,,,,,,,,,,,,,,,,,,,,11,001,2023_Feb_15_1014,ExactRep-v3-final,2021.2.3,59.78991021293257,
,,,,,,,,60,0,60,0,,,,,,,,,,,,,,,,,,,,,,,,,,,,,,,,,,,,,,,,,,,,,,,,,,,,,1141.932371899995,None,,,,,,,,,,,,,,,,,,,,,,,,,,,,,,,,,,,truth,34,61,sing,blue,1139.9321906999976,None,None,1139.9321906999976,None,,,,,,,,,,,,,,,,,,,,,,,,,,,,,,11,001,2023_Feb_15_1014,ExactRep-v3-final,2021.2.3,59.78991021293257,
,,,,,,,,61,0,61,0,,,,,,,,,,,,,,,,,,,,,,,,,,,,,,,,,,,,,,,,,,,,,,,,,,,,,1144.4517737999995,None,,,,,,,,,,,,,,,,,,,,,,,,,,,,,,,,,,,toy,24,62,sing,blue,1142.439209300006,None,None,1142.439209300006,None,,,,,,,,,,,,,,,,,,,,,,,,,,,,,,11,001,2023_Feb_15_1014,ExactRep-v3-final,2021.2.3,59.78991021293257,
,,,,,,,,62,0,62,0,,,,,,,,,,,,,,,,,,,,,,,,,,,,,,,,,,,,,,,,,,,,,,,,,,,,,1146.9542513000051,None,,,,,,,,,,,,,,,,,,,,,,,,,,,,,,,,,,,slave,48,63,silent,red,1144.952242200001,None,None,1144.952242200001,None,,,,,,,,,,,,,,,,,,,,,,,,,,,,,,11,001,2023_Feb_15_1014,ExactRep-v3-final,2021.2.3,59.78991021293257,
,,,,,,,,63,0,63,0,,,,,,,,,,,,,,,,,,,,,,,,,,,,,,,,,,,,,,,,,,,,,,,,,,,,,1149.4742498999985,None,,,,,,,,,,,,,,,,,,,,,,,,,,,,,,,,,,,book,37,64,sing,blue,1147.4653789000004,None,None,1147.4653789000004,None,,,,,,,,,,,,,,,,,,,,,,,,,,,,,,11,001,2023_Feb_15_1014,ExactRep-v3-final,2021.2.3,59.78991021293257,
,,,,,,,,64,0,64,0,,,,,,,,,,,,,,,,,,,,,,,,,,,,,,,,,,,,,,,,,,,,,,,,,,,,,1151.9760439999955,None,,,,,,,,,,,,,,,,,,,,,,,,,,,,,,,,,,,crime,32,65,sing,blue,1149.9739466000028,None,None,1149.9739466000028,None,,,,,,,,,,,,,,,,,,,,,,,,,,,,,,11,001,2023_Feb_15_1014,ExactRep-v3-final,2021.2.3,59.78991021293257,
,,,,,,,,65,0,65,0,,,,,,,,,,,,,,,,,,,,,,,,,,,,,,,,,,,,,,,,,,,,,,,,,,,,,1154.4951871999947,None,,,,,,,,,,,,,,,,,,,,,,,,,,,,,,,,,,,power,78,66,silent,red,1152.4842937000067,None,None,1152.4842937000067,None,,,,,,,,,,,,,,,,,,,,,,,,,,,,,,11,001,2023_Feb_15_1014,ExactRep-v3-final,2021.2.3,59.78991021293257,
,,,,,,,,66,0,66,0,,,,,,,,,,,,,,,,,,,,,,,,,,,,,,,,,,,,,,,,,,,,,,,,,,,,,1157.0142128000007,None,,,,,,,,,,,,,,,,,,,,,,,,,,,,,,,,,,,flower,76,67,silent,red,1154.9998333999974,None,None,1154.9998333999974,None,,,,,,,,,,,,,,,,,,,,,,,,,,,,,,11,001,2023_Feb_15_1014,ExactRep-v3-final,2021.2.3,59.78991021293257,
,,,,,,,,67,0,67,0,,,,,,,,,,,,,,,,,,,,,,,,,,,,,,,,,,,,,,,,,,,,,,,,,,,,,1159.5335498000059,None,,,,,,,,,,,,,,,,,,,,,,,,,,,,,,,,,,,woman,114,68,aloud,white,1157.5233239999943,None,None,1157.5233239999943,None,,,,,,,,,,,,,,,,,,,,,,,,,,,,,,11,001,2023_Feb_15_1014,ExactRep-v3-final,2021.2.3,59.78991021293257,
,,,,,,,,68,0,68,0,,,,,,,,,,,,,,,,,,,,,,,,,,,,,,,,,,,,,,,,,,,,,,,,,,,,,1162.0377927000081,None,,,,,,,,,,,,,,,,,,,,,,,,,,,,,,,,,,,cotton,89,69,aloud,white,1160.0349838999973,None,None,1160.0349838999973,None,,,,,,,,,,,,,,,,,,,,,,,,,,,,,,11,001,2023_Feb_15_1014,ExactRep-v3-final,2021.2.3,59.78991021293257,
,,,,,,,,69,0,69,0,,,,,,,,,,,,,,,,,,,,,,,,,,,,,,,,,,,,,,,,,,,,,,,,,,,,,1164.5716291999997,None,,,,,,,,,,,,,,,,,,,,,,,,,,,,,,,,,,,flesh,29,70,sing,blue,1162.5615309999994,None,None,1162.5615309999994,None,,,,,,,,,,,,,,,,,,,,,,,,,,,,,,11,001,2023_Feb_15_1014,ExactRep-v3-final,2021.2.3,59.78991021293257,
,,,,,,,,70,0,70,0,,,,,,,,,,,,,,,,,,,,,,,,,,,,,,,,,,,,,,,,,,,,,,,,,,,,,1167.0743587000034,None,,,,,,,,,,,,,,,,,,,,,,,,,,,,,,,,,,,origin,16,71,sing,blue,1165.0723388000042,None,None,1165.0723388000042,None,,,,,,,,,,,,,,,,,,,,,,,,,,,,,,11,001,2023_Feb_15_1014,ExactRep-v3-final,2021.2.3,59.78991021293257,
,,,,,,,,71,0,71,0,,,,,,,,,,,,,,,,,,,,,,,,,,,,,,,,,,,,,,,,,,,,,,,,,,,,,1169.576868899996,None,,,,,,,,,,,,,,,,,,,,,,,,,,,,,,,,,,,circle,52,72,silent,red,1167.574970600006,None,None,1167.574970600006,None,,,,,,,,,,,,,,,,,,,,,,,,,,,,,,11,001,2023_Feb_15_1014,ExactRep-v3-final,2021.2.3,59.78991021293257,
,,,,,,,,72,0,72,0,,,,,,,,,,,,,,,,,,,,,,,,,,,,,,,,,,,,,,,,,,,,,,,,,,,,,1172.096093500004,None,,,,,,,,,,,,,,,,,,,,,,,,,,,,,,,,,,,winter,111,73,aloud,white,1170.086894299995,None,None,1170.086894299995,None,,,,,,,,,,,,,,,,,,,,,,,,,,,,,,11,001,2023_Feb_15_1014,ExactRep-v3-final,2021.2.3,59.78991021293257,
,,,,,,,,73,0,73,0,,,,,,,,,,,,,,,,,,,,,,,,,,,,,,,,,,,,,,,,,,,,,,,,,,,,,1174.598567299996,None,,,,,,,,,,,,,,,,,,,,,,,,,,,,,,,,,,,weapon,70,74,silent,red,1172.5988269000081,None,None,1172.5988269000081,None,,,,,,,,,,,,,,,,,,,,,,,,,,,,,,11,001,2023_Feb_15_1014,ExactRep-v3-final,2021.2.3,59.78991021293257,
,,,,,,,,74,0,74,0,,,,,,,,,,,,,,,,,,,,,,,,,,,,,,,,,,,,,,,,,,,,,,,,,,,,,1177.1177399000007,None,,,,,,,,,,,,,,,,,,,,,,,,,,,,,,,,,,,corner,116,75,aloud,white,1175.1079035000002,None,None,1175.1079035000002,None,,,,,,,,,,,,,,,,,,,,,,,,,,,,,,11,001,2023_Feb_15_1014,ExactRep-v3-final,2021.2.3,59.78991021293257,
,,,,,,,,75,0,75,0,,,,,,,,,,,,,,,,,,,,,,,,,,,,,,,,,,,,,,,,,,,,,,,,,,,,,1179.620357599997,None,,,,,,,,,,,,,,,,,,,,,,,,,,,,,,,,,,,effort,27,76,sing,blue,1177.6189755999949,None,None,1177.6189755999949,None,,,,,,,,,,,,,,,,,,,,,,,,,,,,,,11,001,2023_Feb_15_1014,ExactRep-v3-final,2021.2.3,59.78991021293257,
,,,,,,,,76,0,76,0,,,,,,,,,,,,,,,,,,,,,,,,,,,,,,,,,,,,,,,,,,,,,,,,,,,,,1182.1396209999948,None,,,,,,,,,,,,,,,,,,,,,,,,,,,,,,,,,,,palace,68,77,silent,red,1180.1302850000066,None,None,1180.1302850000066,None,,,,,,,,,,,,,,,,,,,,,,,,,,,,,,11,001,2023_Feb_15_1014,ExactRep-v3-final,2021.2.3,59.78991021293257,
,,,,,,,,77,0,77,0,,,,,,,,,,,,,,,,,,,,,,,,,,,,,,,,,,,,,,,,,,,,,,,,,,,,,1184.6585649000044,None,,,,,,,,,,,,,,,,,,,,,,,,,,,,,,,,,,,colony,14,78,sing,blue,1182.6477711000043,None,None,1182.6477711000043,None,,,,,,,,,,,,,,,,,,,,,,,,,,,,,,11,001,2023_Feb_15_1014,ExactRep-v3-final,2021.2.3,59.78991021293257,
,,,,,,,,78,0,78,0,,,,,,,,,,,,,,,,,,,,,,,,,,,,,,,,,,,,,,,,,,,,,,,,,,,,,1187.1612788000057,None,,,,,,,,,,,,,,,,,,,,,,,,,,,,,,,,,,,fault,9,79,sing,blue,1185.1590423000016,None,None,1185.1590423000016,None,,,,,,,,,,,,,,,,,,,,,,,,,,,,,,11,001,2023_Feb_15_1014,ExactRep-v3-final,2021.2.3,59.78991021293257,
,,,,,,,,79,0,79,0,,,,,,,,,,,,,,,,,,,,,,,,,,,,,,,,,,,,,,,,,,,,,,,,,,,,,1189.6636563000066,None,,,,,,,,,,,,,,,,,,,,,,,,,,,,,,,,,,,memory,20,80,sing,blue,1187.6634513000026,None,None,1187.6634513000026,None,,,,,,,,,,,,,,,,,,,,,,,,,,,,,,11,001,2023_Feb_15_1014,ExactRep-v3-final,2021.2.3,59.78991021293257,
,,,,,,,,80,0,80,0,,,,,,,,,,,,,,,,,,,,,,,,,,,,,,,,,,,,,,,,,,,,,,,,,,,,,1192.1661425000057,None,,,,,,,,,,,,,,,,,,,,,,,,,,,,,,,,,,,chance,0,81,sing,blue,1190.165677900004,None,None,1190.165677900004,None,,,,,,,,,,,,,,,,,,,,,,,,,,,,,,11,001,2023_Feb_15_1014,ExactRep-v3-final,2021.2.3,59.78991021293257,
,,,,,,,,81,0,81,0,,,,,,,,,,,,,,,,,,,,,,,,,,,,,,,,,,,,,,,,,,,,,,,,,,,,,1194.6866218000068,None,,,,,,,,,,,,,,,,,,,,,,,,,,,,,,,,,,,corn,79,82,sing,blue,1192.6788685000065,None,None,1192.6788685000065,None,,,,,,,,,,,,,,,,,,,,,,,,,,,,,,11,001,2023_Feb_15_1014,ExactRep-v3-final,2021.2.3,59.78991021293257,
,,,,,,,,82,0,82,0,,,,,,,,,,,,,,,,,,,,,,,,,,,,,,,,,,,,,,,,,,,,,,,,,,,,,1197.1876983999973,None,,,,,,,,,,,,,,,,,,,,,,,,,,,,,,,,,,,machine,105,83,aloud,white,1195.1879749000072,None,None,1195.1879749000072,None,,,,,,,,,,,,,,,,,,,,,,,,,,,,,,11,001,2023_Feb_15_1014,ExactRep-v3-final,2021.2.3,59.78991021293257,
,,,,,,,,83,0,83,0,,,,,,,,,,,,,,,,,,,,,,,,,,,,,,,,,,,,,,,,,,,,,,,,,,,,,1199.6901663000026,None,,,,,,,,,,,,,,,,,,,,,,,,,,,,,,,,,,,gold,100,84,aloud,white,1197.688221000004,None,None,1197.688221000004,None,,,,,,,,,,,,,,,,,,,,,,,,,,,,,,11,001,2023_Feb_15_1014,ExactRep-v3-final,2021.2.3,59.78991021293257,
,,,,,,,,84,0,84,0,,,,,,,,,,,,,,,,,,,,,,,,,,,,,,,,,,,,,,,,,,,,,,,,,,,,,1202.2095663000073,None,,,,,,,,,,,,,,,,,,,,,,,,,,,,,,,,,,,king,46,85,silent,red,1200.2015238000022,None,None,1200.2015238000022,None,,,,,,,,,,,,,,,,,,,,,,,,,,,,,,11,001,2023_Feb_15_1014,ExactRep-v3-final,2021.2.3,59.78991021293257,
,,,,,,,,85,0,85,0,,,,,,,,,,,,,,,,,,,,,,,,,,,,,,,,,,,,,,,,,,,,,,,,,,,,,1204.728530399996,None,,,,,,,,,,,,,,,,,,,,,,,,,,,,,,,,,,,method,10,86,sing,blue,1202.7156608000078,None,None,1202.7156608000078,None,,,,,,,,,,,,,,,,,,,,,,,,,,,,,,11,001,2023_Feb_15_1014,ExactRep-v3-final,2021.2.3,59.78991021293257,
,,,,,,,,86,0,86,0,,,,,,,,,,,,,,,,,,,,,,,,,,,,,,,,,,,,,,,,,,,,,,,,,,,,,1207.2477605000022,None,,,,,,,,,,,,,,,,,,,,,,,,,,,,,,,,,,,honour,57,87,silent,red,1205.2385528000013,None,None,1205.2385528000013,None,,,,,,,,,,,,,,,,,,,,,,,,,,,,,,11,001,2023_Feb_15_1014,ExactRep-v3-final,2021.2.3,59.78991021293257,
,,,,,,,,87,0,87,0,,,,,,,,,,,,,,,,,,,,,,,,,,,,,,,,,,,,,,,,,,,,,,,,,,,,,1209.7504064999957,None,,,,,,,,,,,,,,,,,,,,,,,,,,,,,,,,,,,hope,25,88,sing,blue,1207.7484283999947,None,None,1207.7484283999947,None,,,,,,,,,,,,,,,,,,,,,,,,,,,,,,11,001,2023_Feb_15_1014,ExactRep-v3-final,2021.2.3,59.78991021293257,
,,,,,,,,88,0,88,0,,,,,,,,,,,,,,,,,,,,,,,,,,,,,,,,,,,,,,,,,,,,,,,,,,,,,1212.2696078000008,None,,,,,,,,,,,,,,,,,,,,,,,,,,,,,,,,,,,air,50,89,silent,red,1210.2542975999968,None,None,1210.2542975999968,None,,,,,,,,,,,,,,,,,,,,,,,,,,,,,,11,001,2023_Feb_15_1014,ExactRep-v3-final,2021.2.3,59.78991021293257,
,,,,,,,,89,0,89,0,,,,,,,,,,,,,,,,,,,,,,,,,,,,,,,,,,,,,,,,,,,,,,,,,,,,,1214.7721036000003,None,,,,,,,,,,,,,,,,,,,,,,,,,,,,,,,,,,,maiden,21,90,sing,blue,1212.7711031000072,None,None,1212.7711031000072,None,,,,,,,,,,,,,,,,,,,,,,,,,,,,,,11,001,2023_Feb_15_1014,ExactRep-v3-final,2021.2.3,59.78991021293257,
,,,,,,,,90,0,90,0,,,,,,,,,,,,,,,,,,,,,,,,,,,,,,,,,,,,,,,,,,,,,,,,,,,,,1217.2744280000043,None,,,,,,,,,,,,,,,,,,,,,,,,,,,,,,,,,,,steam,103,91,aloud,white,1215.2752590000018,None,None,1215.2752590000018,None,,,,,,,,,,,,,,,,,,,,,,,,,,,,,,11,001,2023_Feb_15_1014,ExactRep-v3-final,2021.2.3,59.78991021293257,
,,,,,,,,91,0,91,0,,,,,,,,,,,,,,,,,,,,,,,,,,,,,,,,,,,,,,,,,,,,,,,,,,,,,1219.7936913000012,None,,,,,,,,,,,,,,,,,,,,,,,,,,,,,,,,,,,arm,31,92,sing,blue,1217.783917599998,None,None,1217.783917599998,None,,,,,,,,,,,,,,,,,,,,,,,,,,,,,,11,001,2023_Feb_15_1014,ExactRep-v3-final,2021.2.3,59.78991021293257,
,,,,,,,,92,0,92,0,,,,,,,,,,,,,,,,,,,,,,,,,,,,,,,,,,,,,,,,,,,,,,,,,,,,,1222.2962633999996,None,,,,,,,,,,,,,,,,,,,,,,,,,,,,,,,,,,,sugar,87,93,aloud,white,1220.294114599994,None,None,1220.294114599994,None,,,,,,,,,,,,,,,,,,,,,,,,,,,,,,11,001,2023_Feb_15_1014,ExactRep-v3-final,2021.2.3,59.78991021293257,
,,,,,,,,93,0,93,0,,,,,,,,,,,,,,,,,,,,,,,,,,,,,,,,,,,,,,,,,,,,,,,,,,,,,1224.8204934999958,None,,,,,,,,,,,,,,,,,,,,,,,,,,,,,,,,,,,mother,98,94,aloud,white,1222.800098199994,None,None,1222.800098199994,None,,,,,,,,,,,,,,,,,,,,,,,,,,,,,,11,001,2023_Feb_15_1014,ExactRep-v3-final,2021.2.3,59.78991021293257,
,,,,,,,,94,0,94,0,,,,,,,,,,,,,,,,,,,,,,,,,,,,,,,,,,,,,,,,,,,,,,,,,,,,,1227.3345248999976,None,,,,,,,,,,,,,,,,,,,,,,,,,,,,,,,,,,,excuse,15,95,sing,blue,1225.3247789000015,None,None,1225.3247789000015,None,,,,,,,,,,,,,,,,,,,,,,,,,,,,,,11,001,2023_Feb_15_1014,ExactRep-v3-final,2021.2.3,59.78991021293257,
,,,,,,,,95,0,95,0,,,,,,,,,,,,,,,,,,,,,,,,,,,,,,,,,,,,,,,,,,,,,,,,,,,,,1229.837207500008,None,,,,,,,,,,,,,,,,,,,,,,,,,,,,,,,,,,,moral,85,96,aloud,white,1227.8360489000042,None,None,1227.8360489000042,None,,,,,,,,,,,,,,,,,,,,,,,,,,,,,,11,001,2023_Feb_15_1014,ExactRep-v3-final,2021.2.3,59.78991021293257,
,,,,,,,,96,0,96,0,,,,,,,,,,,,,,,,,,,,,,,,,,,,,,,,,,,,,,,,,,,,,,,,,,,,,1232.3562176999985,None,,,,,,,,,,,,,,,,,,,,,,,,,,,,,,,,,,,door,71,97,silent,red,1230.3411578999949,None,None,1230.3411578999949,None,,,,,,,,,,,,,,,,,,,,,,,,,,,,,,11,001,2023_Feb_15_1014,ExactRep-v3-final,2021.2.3,59.78991021293257,
,,,,,,,,97,0,97,0,,,,,,,,,,,,,,,,,,,,,,,,,,,,,,,,,,,,,,,,,,,,,,,,,,,,,1234.8588472999982,None,,,,,,,,,,,,,,,,,,,,,,,,,,,,,,,,,,,theory,104,98,aloud,white,1232.856520500005,None,None,1232.856520500005,None,,,,,,,,,,,,,,,,,,,,,,,,,,,,,,11,001,2023_Feb_15_1014,ExactRep-v3-final,2021.2.3,59.78991021293257,
,,,,,,,,98,0,98,0,,,,,,,,,,,,,,,,,,,,,,,,,,,,,,,,,,,,,,,,,,,,,,,,,,,,,1237.3778873999981,None,,,,,,,,,,,,,,,,,,,,,,,,,,,,,,,,,,,person,60,99,silent,red,1235.3653903999948,None,None,1235.3653903999948,None,,,,,,,,,,,,,,,,,,,,,,,,,,,,,,11,001,2023_Feb_15_1014,ExactRep-v3-final,2021.2.3,59.78991021293257,
,,,,,,,,99,0,99,0,,,,,,,,,,,,,,,,,,,,,,,,,,,,,,,,,,,,,,,,,,,,,,,,,,,,,1239.8805774000066,None,,,,,,,,,,,,,,,,,,,,,,,,,,,,,,,,,,,event,4,100,sing,blue,1237.8783912000072,None,None,1237.8783912000072,None,,,,,,,,,,,,,,,,,,,,,,,,,,,,,,11,001,2023_Feb_15_1014,ExactRep-v3-final,2021.2.3,59.78991021293257,
,,,,,,,,100,0,100,0,,,,,,,,,,,,,,,,,,,,,,,,,,,,,,,,,,,,,,,,,,,,,,,,,,,,,1242.399761099994,None,,,,,,,,,,,,,,,,,,,,,,,,,,,,,,,,,,,charm,59,101,silent,red,1240.3844151999947,None,None,1240.3844151999947,None,,,,,,,,,,,,,,,,,,,,,,,,,,,,,,11,001,2023_Feb_15_1014,ExactRep-v3-final,2021.2.3,59.78991021293257,
,,,,,,,,101,0,101,0,,,,,,,,,,,,,,,,,,,,,,,,,,,,,,,,,,,,,,,,,,,,,,,,,,,,,1244.902212999994,None,,,,,,,,,,,,,,,,,,,,,,,,,,,,,,,,,,,earth,7,102,sing,blue,1242.9023312000063,None,None,1242.9023312000063,None,,,,,,,,,,,,,,,,,,,,,,,,,,,,,,11,001,2023_Feb_15_1014,ExactRep-v3-final,2021.2.3,59.78991021293257,
,,,,,,,,102,0,102,0,,,,,,,,,,,,,,,,,,,,,,,,,,,,,,,,,,,,,,,,,,,,,,,,,,,,,1247.4047482000024,None,,,,,,,,,,,,,,,,,,,,,,,,,,,,,,,,,,,dream,55,103,silent,red,1245.4025184000056,None,None,1245.4025184000056,None,,,,,,,,,,,,,,,,,,,,,,,,,,,,,,11,001,2023_Feb_15_1014,ExactRep-v3-final,2021.2.3,59.78991021293257,
,,,,,,,,103,0,103,0,,,,,,,,,,,,,,,,,,,,,,,,,,,,,,,,,,,,,,,,,,,,,,,,,,,,,1249.9237432000082,None,,,,,,,,,,,,,,,,,,,,,,,,,,,,,,,,,,,shock,80,104,aloud,white,1247.914368800004,None,None,1247.914368800004,None,,,,,,,,,,,,,,,,,,,,,,,,,,,,,,11,001,2023_Feb_15_1014,ExactRep-v3-final,2021.2.3,59.78991021293257,
,,,,,,,,104,0,104,0,,,,,,,,,,,,,,,,,,,,,,,,,,,,,,,,,,,,,,,,,,,,,,,,,,,,,1252.4432241000031,None,,,,,,,,,,,,,,,,,,,,,,,,,,,,,,,,,,,fate,115,105,aloud,white,1250.4331772000005,None,None,1250.4331772000005,None,,,,,,,,,,,,,,,,,,,,,,,,,,,,,,11,001,2023_Feb_15_1014,ExactRep-v3-final,2021.2.3,59.78991021293257,
,,,,,,,,105,0,105,0,,,,,,,,,,,,,,,,,,,,,,,,,,,,,,,,,,,,,,,,,,,,,,,,,,,,,1254.9622391000012,None,,,,,,,,,,,,,,,,,,,,,,,,,,,,,,,,,,,bowl,77,106,silent,red,1252.9475433000043,None,None,1252.9475433000043,None,,,,,,,,,,,,,,,,,,,,,,,,,,,,,,11,001,2023_Feb_15_1014,ExactRep-v3-final,2021.2.3,59.78991021293257,
,,,,,,,,106,0,106,0,,,,,,,,,,,,,,,,,,,,,,,,,,,,,,,,,,,,,,,,,,,,,,,,,,,,,1257.4649074000044,None,,,,,,,,,,,,,,,,,,,,,,,,,,,,,,,,,,,officer,96,107,aloud,white,1255.4627916000027,None,None,1255.4627916000027,None,,,,,,,,,,,,,,,,,,,,,,,,,,,,,,11,001,2023_Feb_15_1014,ExactRep-v3-final,2021.2.3,59.78991021293257,
,,,,,,,,107,0,107,0,,,,,,,,,,,,,,,,,,,,,,,,,,,,,,,,,,,,,,,,,,,,,,,,,,,,,1259.9671118999977,None,,,,,,,,,,,,,,,,,,,,,,,,,,,,,,,,,,,prayer,58,108,silent,red,1257.9659868000017,None,None,1257.9659868000017,None,,,,,,,,,,,,,,,,,,,,,,,,,,,,,,11,001,2023_Feb_15_1014,ExactRep-v3-final,2021.2.3,59.78991021293257,
,,,,,,,,108,0,108,0,,,,,,,,,,,,,,,,,,,,,,,,,,,,,,,,,,,,,,,,,,,,,,,,,,,,,1262.4697719999967,None,,,,,,,,,,,,,,,,,,,,,,,,,,,,,,,,,,,prison,43,109,silent,red,1260.4677768999973,None,None,1260.4677768999973,None,,,,,,,,,,,,,,,,,,,,,,,,,,,,,,11,001,2023_Feb_15_1014,ExactRep-v3-final,2021.2.3,59.78991021293257,
,,,,,,,,109,0,109,0,,,,,,,,,,,,,,,,,,,,,,,,,,,,,,,,,,,,,,,,,,,,,,,,,,,,,1264.9724414000084,None,,,,,,,,,,,,,,,,,,,,,,,,,,,,,,,,,,,friend,92,110,aloud,white,1262.9699655000004,None,None,1262.9699655000004,None,,,,,,,,,,,,,,,,,,,,,,,,,,,,,,11,001,2023_Feb_15_1014,ExactRep-v3-final,2021.2.3,59.78991021293257,
,,,,,,,,110,0,110,0,,,,,,,,,,,,,,,,,,,,,,,,,,,,,,,,,,,,,,,,,,,,,,,,,,,,,1267.4745715000026,None,,,,,,,,,,,,,,,,,,,,,,,,,,,,,,,,,,,horse,102,111,aloud,white,1265.473580699996,None,None,1265.473580699996,None,,,,,,,,,,,,,,,,,,,,,,,,,,,,,,11,001,2023_Feb_15_1014,ExactRep-v3-final,2021.2.3,59.78991021293257,
,,,,,,,,111,0,111,0,,,,,,,,,,,,,,,,,,,,,,,,,,,,,,,,,,,,,,,,,,,,,,,,,,,,,1269.9771146999992,None,,,,,,,,,,,,,,,,,,,,,,,,,,,,,,,,,,,heaven,30,112,sing,blue,1267.975196200001,None,None,1267.975196200001,None,,,,,,,,,,,,,,,,,,,,,,,,,,,,,,11,001,2023_Feb_15_1014,ExactRep-v3-final,2021.2.3,59.78991021293257,
,,,,,,,,112,0,112,0,,,,,,,,,,,,,,,,,,,,,,,,,,,,,,,,,,,,,,,,,,,,,,,,,,,,,1272.496535600003,None,,,,,,,,,,,,,,,,,,,,,,,,,,,,,,,,,,,cat,8,113,sing,blue,1270.4863998000073,None,None,1270.4863998000073,None,,,,,,,,,,,,,,,,,,,,,,,,,,,,,,11,001,2023_Feb_15_1014,ExactRep-v3-final,2021.2.3,59.78991021293257,
,,,,,,,,113,0,113,0,,,,,,,,,,,,,,,,,,,,,,,,,,,,,,,,,,,,,,,,,,,,,,,,,,,,,1274.9989784000063,None,,,,,,,,,,,,,,,,,,,,,,,,,,,,,,,,,,,world,3,114,sing,blue,1272.9994707000005,None,None,1272.9994707000005,None,,,,,,,,,,,,,,,,,,,,,,,,,,,,,,11,001,2023_Feb_15_1014,ExactRep-v3-final,2021.2.3,59.78991021293257,
,,,,,,,,114,0,114,0,,,,,,,,,,,,,,,,,,,,,,,,,,,,,,,,,,,,,,,,,,,,,,,,,,,,,1277.5181619000068,None,,,,,,,,,,,,,,,,,,,,,,,,,,,,,,,,,,,lord,108,115,aloud,white,1275.507825599998,None,None,1275.507825599998,None,,,,,,,,,,,,,,,,,,,,,,,,,,,,,,11,001,2023_Feb_15_1014,ExactRep-v3-final,2021.2.3,59.78991021293257,
,,,,,,,,115,0,115,0,,,,,,,,,,,,,,,,,,,,,,,,,,,,,,,,,,,,,,,,,,,,,,,,,,,,,1280.037428800002,None,,,,,,,,,,,,,,,,,,,,,,,,,,,,,,,,,,,blood,39,116,silent,red,1278.0219873000024,None,None,1278.0219873000024,None,,,,,,,,,,,,,,,,,,,,,,,,,,,,,,11,001,2023_Feb_15_1014,ExactRep-v3-final,2021.2.3,59.78991021293257,
,,,,,,,,116,0,116,0,,,,,,,,,,,,,,,,,,,,,,,,,,,,,,,,,,,,,,,,,,,,,,,,,,,,,1282.539728200005,None,,,,,,,,,,,,,,,,,,,,,,,,,,,,,,,,,,,chair,28,117,sing,blue,1280.5376958999987,None,None,1280.5376958999987,None,,,,,,,,,,,,,,,,,,,,,,,,,,,,,,11,001,2023_Feb_15_1014,ExactRep-v3-final,2021.2.3,59.78991021293257,
,,,,,,,,117,0,117,0,,,,,,,,,,,,,,,,,,,,,,,,,,,,,,,,,,,,,,,,,,,,,,,,,,,,,1285.0590486,None,,,,,,,,,,,,,,,,,,,,,,,,,,,,,,,,,,,bar,38,118,sing,blue,1283.0436443000071,None,None,1283.0436443000071,None,,,,,,,,,,,,,,,,,,,,,,,,,,,,,,11,001,2023_Feb_15_1014,ExactRep-v3-final,2021.2.3,59.78991021293257,
,,,,,,,,118,0,118,0,,,,,,,,,,,,,,,,,,,,,,,,,,,,,,,,,,,,,,,,,,,,,,,,,,,,,1287.5614139999961,None,,,,,,,,,,,,,,,,,,,,,,,,,,,,,,,,,,,cabin,1,119,sing,blue,1285.5595010999969,None,None,1285.5595010999969,None,,,,,,,,,,,,,,,,,,,,,,,,,,,,,,11,001,2023_Feb_15_1014,ExactRep-v3-final,2021.2.3,59.78991021293257,
,,,,,,,,119,0,119,0,,,,,,,,,,,,,,,,,,,,,,,,,,,,,,,,,,,,,,,,,,,,,,,,,,,,,1290.0807101999962,None,,,,,,,,,,,,,,,,,,,,,,,,,,,,,,,,,,,doll,81,120,aloud,white,1288.070504400006,None,None,1288.070504400006,None,,,,,,,,,,,,,,,,,,,,,,,,,,,,,,11,001,2023_Feb_15_1014,ExactRep-v3-final,2021.2.3,59.78991021293257,
,,,,,,,,,,,,,,,,,,,,,,,,,,,,,,,,,,,,,,,,,,,,,,,,,,,,,,,,,,,,,,,,,,,,,,,,,,,,,,,,,,,,,,,,,,,,,,,,,,,,,,,,,,,,,,1290.5826449000015,None,space,2.5962878999998793,1300.5591361999977,None,,,,,,,,,,,,,,,,,,,,,,,,11,001,2023_Feb_15_1014,ExactRep-v3-final,2021.2.3,59.78991021293257,
,,,,,,,,,,,,,,,,,,,,,,,,,,,,,,,,,,,,,,,,,,,,,,,,,,,,,,,,,,,,,,,,,,,,,,,,,,,,,,,,,,,,,,,,,,,,,,,,,,,,,,,,,,,,,,,,,,,,1303.178767999998,None,space,34.52043109999795,1313.1551469999977,None,,,,,,,,,,,,,,,,,,11,001,2023_Feb_15_1014,ExactRep-v3-final,2021.2.3,59.78991021293257,
,,,,,,,,,,,,0,0,0,0,,,,,,,,,,,,,,,,,,,,,,,,,,,,,,,,,,,,,,,,,,,,,,,,,1362.5196457999991,None,,,,,,,,,,,,,,,,,,,,,,,,,,,,,,,,,,,,,,,,,,,,,,,,,,,,,,,,,bowl,77,1,silent,old,yellow,1348.223786100003,None,n,1348.223786100003,None,"['n', 'return']","[9.403804999994463, 14.251480399994762]",1348.223786100003,None,,,11,001,2023_Feb_15_1014,ExactRep-v3-final,2021.2.3,59.78991021293257,
,,,,,,,,,,,,1,0,1,0,,,,,,,,,,,,,,,,,,,,,,,,,,,,,,,,,,,,,,,,,,,,,,,,,1365.105542499994,None,,,,,,,,,,,,,,,,,,,,,,,,,,,,,,,,,,,,,,,,,,,,,,,,,,,,,,,,,poet,145,2,silent,new,yellow,1363.0260423,None,n,1363.0260423,None,"['n', 'return']","[1.5212879000027897, 2.04143660000409]",1363.0260423,None,,,11,001,2023_Feb_15_1014,ExactRep-v3-final,2021.2.3,59.78991021293257,
,,,,,,,,,,,,2,0,2,0,,,,,,,,,,,,,,,,,,,,,,,,,,,,,,,,,,,,,,,,,,,,,,,,,1366.924111500004,None,,,,,,,,,,,,,,,,,,,,,,,,,,,,,,,,,,,,,,,,,,,,,,,,,,,,,,,,,deed,202,3,aloud,new,yellow,1365.6111316000024,None,n,1365.6111316000024,None,"['n', 'return']","[0.9681608000100823, 1.2800458999990951]",1365.6111316000024,None,,,11,001,2023_Feb_15_1014,ExactRep-v3-final,2021.2.3,59.78991021293257,
,,,,,,,,,,,,3,0,3,0,,,,,,,,,,,,,,,,,,,,,,,,,,,,,,,,,,,,,,,,,,,,,,,,,1369.1430867000017,None,,,,,,,,,,,,,,,,,,,,,,,,,,,,,,,,,,,,,,,,,,,,,,,,,,,,,,,,,style,106,4,aloud,old,yellow,1367.433686400007,None,y,1367.433686400007,None,"['y', 'return']","[0.9698634999949718, 1.6738108999998076]",1367.433686400007,None,,,11,001,2023_Feb_15_1014,ExactRep-v3-final,2021.2.3,59.78991021293257,
,,,,,,,,,,,,4,0,4,0,,,,,,,,,,,,,,,,,,,,,,,,,,,,,,,,,,,,,,,,,,,,,,,,,1371.3451178999967,None,,,,,,,,,,,,,,,,,,,,,,,,,,,,,,,,,,,,,,,,,,,,,,,,,,,,,,,,,month,163,5,sing,new,yellow,1369.652859599999,None,n,1369.652859599999,None,"['n', 'return']","[1.3745905999967363, 1.6545536999910837]",1369.652859599999,None,,,11,001,2023_Feb_15_1014,ExactRep-v3-final,2021.2.3,59.78991021293257,
,,,,,,,,,,,,5,0,5,0,,,,,,,,,,,,,,,,,,,,,,,,,,,,,,,,,,,,,,,,,,,,,,,,,1373.0968385000015,None,,,,,,,,,,,,,,,,,,,,,,,,,,,,,,,,,,,,,,,,,,,,,,,,,,,,,,,,,charm,59,6,silent,old,yellow,1371.8547303999949,None,y,1371.8547303999949,None,"['y', 'return']","[0.8845832000079099, 1.196611200008192]",1371.8547303999949,None,,,11,001,2023_Feb_15_1014,ExactRep-v3-final,2021.2.3,59.78991021293257,
,,,,,,,,,,,,6,0,6,0,,,,,,,,,,,,,,,,,,,,,,,,,,,,,,,,,,,,,,,,,,,,,,,,,1374.8987840000045,None,,,,,,,,,,,,,,,,,,,,,,,,,,,,,,,,,,,,,,,,,,,,,,,,,,,,,,,,,iron,2,7,sing,old,yellow,1373.600891199996,None,n,1373.600891199996,None,"['n', 'return']","[1.0024257999903057, 1.2585169999947539]",1373.600891199996,None,,,11,001,2023_Feb_15_1014,ExactRep-v3-final,2021.2.3,59.78991021293257,
,,,,,,,,,,,,7,0,7,0,,,,,,,,,,,,,,,,,,,,,,,,,,,,,,,,,,,,,,,,,,,,,,,,,1376.667221399999,None,,,,,,,,,,,,,,,,,,,,,,,,,,,,,,,,,,,,,,,,,,,,,,,,,,,,,,,,,machine,105,8,aloud,old,yellow,1375.409453500004,None,y,1375.409453500004,None,"['y', 'return']","[0.9300239000003785, 1.22595029999502]",1375.409453500004,None,,,11,001,2023_Feb_15_1014,ExactRep-v3-final,2021.2.3,59.78991021293257,
,,,,,,,,,,,,8,0,8,0,,,,,,,,,,,,,,,,,,,,,,,,,,,,,,,,,,,,,,,,,,,,,,,,,1378.602476400003,None,,,,,,,,,,,,,,,,,,,,,,,,,,,,,,,,,,,,,,,,,,,,,,,,,,,,,,,,,city,86,9,aloud,old,yellow,1377.182081100007,None,y,1377.182081100007,None,"['y', 'return']","[1.1172432000021217, 1.3812816999998176]",1377.182081100007,None,,,11,001,2023_Feb_15_1014,ExactRep-v3-final,2021.2.3,59.78991021293257,
,,,,,,,,,,,,9,0,9,0,,,,,,,,,,,,,,,,,,,,,,,,,,,,,,,,,,,,,,,,,,,,,,,,,1380.020717899999,None,,,,,,,,,,,,,,,,,,,,,,,,,,,,,,,,,,,,,,,,,,,,,,,,,,,,,,,,,corn,79,10,sing,old,yellow,1379.1106028000067,None,y,1379.1106028000067,None,"['y', 'return']","[0.6367654000059702, 0.8688353000034112]",1379.1106028000067,None,,,11,001,2023_Feb_15_1014,ExactRep-v3-final,2021.2.3,59.78991021293257,
,,,,,,,,,,,,10,0,10,0,,,,,,,,,,,,,,,,,,,,,,,,,,,,,,,,,,,,,,,,,,,,,,,,,1381.6220562999952,None,,,,,,,,,,,,,,,,,,,,,,,,,,,,,,,,,,,,,,,,,,,,,,,,,,,,,,,,,journal,234,11,aloud,new,yellow,1380.5402120000072,None,n,1380.5402120000072,None,"['n', 'return']","[0.7911452000116697, 1.0390718000126071]",1380.5402120000072,None,,,11,001,2023_Feb_15_1014,ExactRep-v3-final,2021.2.3,59.78991021293257,
,,,,,,,,,,,,11,0,11,0,,,,,,,,,,,,,,,,,,,,,,,,,,,,,,,,,,,,,,,,,,,,,,,,,1383.3073093999992,None,,,,,,,,,,,,,,,,,,,,,,,,,,,,,,,,,,,,,,,,,,,,,,,,,,,,,,,,,speech,181,12,sing,new,yellow,1382.1331009999994,None,y,1382.1331009999994,None,"['y', 'return']","[0.8783987000060733, 1.1342738999956055]",1382.1331009999994,None,,,11,001,2023_Feb_15_1014,ExactRep-v3-final,2021.2.3,59.78991021293257,
,,,,,,,,,,,,12,0,12,0,,,,,,,,,,,,,,,,,,,,,,,,,,,,,,,,,,,,,,,,,,,,,,,,,1385.2423507000058,None,,,,,,,,,,,,,,,,,,,,,,,,,,,,,,,,,,,,,,,,,,,,,,,,,,,,,,,,,heaven,30,13,sing,old,yellow,1383.8174491999962,None,y,1383.8174491999962,None,"['y', 'return']","[1.1778557999932673, 1.385961199994199]",1383.8174491999962,None,,,11,001,2023_Feb_15_1014,ExactRep-v3-final,2021.2.3,59.78991021293257,
,,,,,,,,,,,,13,0,13,0,,,,,,,,,,,,,,,,,,,,,,,,,,,,,,,,,,,,,,,,,,,,,,,,,1386.693805700008,None,,,,,,,,,,,,,,,,,,,,,,,,,,,,,,,,,,,,,,,,,,,,,,,,,,,,,,,,,gold,100,14,aloud,old,yellow,1385.7513366000057,None,y,1385.7513366000057,None,"['y', 'return']","[0.7078957999910926, 0.9079512000025716]",1385.7513366000057,None,,,11,001,2023_Feb_15_1014,ExactRep-v3-final,2021.2.3,59.78991021293257,
,,,,,,,,,,,,14,0,14,0,,,,,,,,,,,,,,,,,,,,,,,,,,,,,,,,,,,,,,,,,,,,,,,,,1388.1952899000025,None,,,,,,,,,,,,,,,,,,,,,,,,,,,,,,,,,,,,,,,,,,,,,,,,,,,,,,,,,water,195,15,sing,new,yellow,1387.2036770999985,None,n,1387.2036770999985,None,"['n', 'return']","[0.7356519000022672, 0.9438222000026144]",1387.2036770999985,None,,,11,001,2023_Feb_15_1014,ExactRep-v3-final,2021.2.3,59.78991021293257,
,,,,,,,,,,,,15,0,15,0,,,,,,,,,,,,,,,,,,,,,,,,,,,,,,,,,,,,,,,,,,,,,,,,,1389.9639697999955,None,,,,,,,,,,,,,,,,,,,,,,,,,,,,,,,,,,,,,,,,,,,,,,,,,,,,,,,,,lip,137,16,silent,new,yellow,1388.6984633999964,None,n,1388.6984633999964,None,"['n', 'return']","[1.0329427999968175, 1.2249122999928659]",1388.6984633999964,None,,,11,001,2023_Feb_15_1014,ExactRep-v3-final,2021.2.3,59.78991021293257,
,,,,,,,,,,,,16,0,16,0,,,,,,,,,,,,,,,,,,,,,,,,,,,,,,,,,,,,,,,,,,,,,,,,,1391.5153687999991,None,,,,,,,,,,,,,,,,,,,,,,,,,,,,,,,,,,,,,,,,,,,,,,,,,,,,,,,,,soil,113,17,aloud,old,yellow,1390.4752025000053,None,y,1390.4752025000053,None,"['y', 'return']","[0.7441367999999784, 0.9921361000015168]",1390.4752025000053,None,,,11,001,2023_Feb_15_1014,ExactRep-v3-final,2021.2.3,59.78991021293257,
,,,,,,,,,,,,17,0,17,0,,,,,,,,,,,,,,,,,,,,,,,,,,,,,,,,,,,,,,,,,,,,,,,,,1393.8177070999955,None,,,,,,,,,,,,,,,,,,,,,,,,,,,,,,,,,,,,,,,,,,,,,,,,,,,,,,,,,grief,109,18,aloud,old,yellow,1392.025297900007,None,y,1392.025297900007,None,"['y', 'return']","[1.1619998999958625, 1.754164399986621]",1392.025297900007,None,,,11,001,2023_Feb_15_1014,ExactRep-v3-final,2021.2.3,59.78991021293257,
,,,,,,,,,,,,18,0,18,0,,,,,,,,,,,,,,,,,,,,,,,,,,,,,,,,,,,,,,,,,,,,,,,,,1395.352455900007,None,,,,,,,,,,,,,,,,,,,,,,,,,,,,,,,,,,,,,,,,,,,,,,,,,,,,,,,,,lad,239,19,sing,new,yellow,1394.3262802999961,None,n,1394.3262802999961,None,"['n', 'return']","[0.789052600011928, 0.9810210000141524]",1394.3262802999961,None,,,11,001,2023_Feb_15_1014,ExactRep-v3-final,2021.2.3,59.78991021293257,
,,,,,,,,,,,,19,0,19,0,,,,,,,,,,,,,,,,,,,,,,,,,,,,,,,,,,,,,,,,,,,,,,,,,1398.6557792999956,None,,,,,,,,,,,,,,,,,,,,,,,,,,,,,,,,,,,,,,,,,,,,,,,,,,,,,,,,,army,153,20,silent,new,yellow,1395.8582278999966,None,n,1395.8582278999966,None,"['return', 'n', 'return']","[1.217111499994644, 2.5692091999953846, 2.761227399998461]",1395.8582278999966,None,,,11,001,2023_Feb_15_1014,ExactRep-v3-final,2021.2.3,59.78991021293257,
,,,,,,,,,,,,20,0,20,0,,,,,,,,,,,,,,,,,,,,,,,,,,,,,,,,,,,,,,,,,,,,,,,,,1401.2750187000056,None,,,,,,,,,,,,,,,,,,,,,,,,,,,,,,,,,,,,,,,,,,,,,,,,,,,,,,,,,library,45,21,silent,old,yellow,1399.1729950000008,None,n,1399.1729950000008,None,"['n', 'return']","[1.8464629000081914, 2.05444069999794]",1399.1729950000008,None,,,11,001,2023_Feb_15_1014,ExactRep-v3-final,2021.2.3,59.78991021293257,
,,,,,,,,,,,,21,0,21,0,,,,,,,,,,,,,,,,,,,,,,,,,,,,,,,,,,,,,,,,,,,,,,,,,1402.8778008999943,None,,,,,,,,,,,,,,,,,,,,,,,,,,,,,,,,,,,,,,,,,,,,,,,,,,,,,,,,,chair,28,22,sing,old,yellow,1401.7846356999944,None,y,1401.7846356999944,None,"['y', 'return']","[0.8826678999903379, 1.0587644999905024]",1401.7846356999944,None,,,11,001,2023_Feb_15_1014,ExactRep-v3-final,2021.2.3,59.78991021293257,
,,,,,,,,,,,,22,0,22,0,,,,,,,,,,,,,,,,,,,,,,,,,,,,,,,,,,,,,,,,,,,,,,,,,1404.5783557999966,None,,,,,,,,,,,,,,,,,,,,,,,,,,,,,,,,,,,,,,,,,,,,,,,,,,,,,,,,,valley,139,23,silent,new,yellow,1403.3849186000007,None,n,1403.3849186000007,None,"['n', 'return']","[0.9784322999912547, 1.15460379999422]",1403.3849186000007,None,,,11,001,2023_Feb_15_1014,ExactRep-v3-final,2021.2.3,59.78991021293257,
,,,,,,,,,,,,23,0,23,0,,,,,,,,,,,,,,,,,,,,,,,,,,,,,,,,,,,,,,,,,,,,,,,,,1407.1142418999952,None,,,,,,,,,,,,,,,,,,,,,,,,,,,,,,,,,,,,,,,,,,,,,,,,,,,,,,,,,plant,208,24,aloud,new,yellow,1405.0866857000074,None,n,1405.0866857000074,None,"['return', 'n', 'return']","[1.2766362000111258, 1.7967104999988806, 1.9888265000045067]",1405.0866857000074,None,,,11,001,2023_Feb_15_1014,ExactRep-v3-final,2021.2.3,59.78991021293257,
,,,,,,,,,,,,24,0,24,0,,,,,,,,,,,,,,,,,,,,,,,,,,,,,,,,,,,,,,,,,,,,,,,,,1410.050490900001,None,,,,,,,,,,,,,,,,,,,,,,,,,,,,,,,,,,,,,,,,,,,,,,,,,,,,,,,,,effort,27,25,sing,old,yellow,1407.6251486999972,None,n,1407.6251486999972,None,"['n', 'return']","[2.0822865999944042, 2.3862721999903442]",1407.6251486999972,None,,,11,001,2023_Feb_15_1014,ExactRep-v3-final,2021.2.3,59.78991021293257,
,,,,,,,,,,,,25,0,25,0,,,,,,,,,,,,,,,,,,,,,,,,,,,,,,,,,,,,,,,,,,,,,,,,,1411.8190602999966,None,,,,,,,,,,,,,,,,,,,,,,,,,,,,,,,,,,,,,,,,,,,,,,,,,,,,,,,,,product,74,26,silent,old,yellow,1410.5619208999997,None,n,1410.5619208999997,None,"['n', 'return']","[0.9694539000047371, 1.217465900001116]",1410.5619208999997,None,,,11,001,2023_Feb_15_1014,ExactRep-v3-final,2021.2.3,59.78991021293257,
,,,,,,,,,,,,26,0,26,0,,,,,,,,,,,,,,,,,,,,,,,,,,,,,,,,,,,,,,,,,,,,,,,,,1413.7709224999999,None,,,,,,,,,,,,,,,,,,,,,,,,,,,,,,,,,,,,,,,,,,,,,,,,,,,,,,,,,diamond,228,27,aloud,new,yellow,1412.3287294000038,None,y,1412.3287294000038,None,"['y', 'return']","[1.0506190000014612, 1.4027003000082914]",1412.3287294000038,None,,,11,001,2023_Feb_15_1014,ExactRep-v3-final,2021.2.3,59.78991021293257,
,,,,,,,,,,,,27,0,27,0,,,,,,,,,,,,,,,,,,,,,,,,,,,,,,,,,,,,,,,,,,,,,,,,,1415.1391502000042,None,,,,,,,,,,,,,,,,,,,,,,,,,,,,,,,,,,,,,,,,,,,,,,,,,,,,,,,,,arm,31,28,sing,old,yellow,1414.2819381000008,None,y,1414.2819381000008,None,"['y', 'return']","[0.5853140999970492, 0.8175733999960357]",1414.2819381000008,None,,,11,001,2023_Feb_15_1014,ExactRep-v3-final,2021.2.3,59.78991021293257,
,,,,,,,,,,,,28,0,28,0,,,,,,,,,,,,,,,,,,,,,,,,,,,,,,,,,,,,,,,,,,,,,,,,,1416.4568734000059,None,,,,,,,,,,,,,,,,,,,,,,,,,,,,,,,,,,,,,,,,,,,,,,,,,,,,,,,,,health,143,29,silent,new,yellow,1415.6432807999954,None,y,1415.6432807999954,None,"['y', 'return']","[0.5761821999913082, 0.7762056999927154]",1415.6432807999954,None,,,11,001,2023_Feb_15_1014,ExactRep-v3-final,2021.2.3,59.78991021293257,
,,,,,,,,,,,,29,0,29,0,,,,,,,,,,,,,,,,,,,,,,,,,,,,,,,,,,,,,,,,,,,,,,,,,1417.875112099995,None,,,,,,,,,,,,,,,,,,,,,,,,,,,,,,,,,,,,,,,,,,,,,,,,,,,,,,,,,body,90,30,aloud,old,yellow,1416.964937800003,None,y,1416.964937800003,None,"['y', 'return']","[0.6784916000033263, 0.8624417999963043]",1416.964937800003,None,,,11,001,2023_Feb_15_1014,ExactRep-v3-final,2021.2.3,59.78991021293257,
,,,,,,,,,,,,30,0,30,0,,,,,,,,,,,,,,,,,,,,,,,,,,,,,,,,,,,,,,,,,,,,,,,,,1419.1929642000032,None,,,,,,,,,,,,,,,,,,,,,,,,,,,,,,,,,,,,,,,,,,,,,,,,,,,,,,,,,seat,97,31,aloud,old,yellow,1418.3798601000017,None,y,1418.3798601000017,None,"['y', 'return']","[0.5355177000019467, 0.7675388000061503]",1418.3798601000017,None,,,11,001,2023_Feb_15_1014,ExactRep-v3-final,2021.2.3,59.78991021293257,
,,,,,,,,,,,,31,0,31,0,,,,,,,,,,,,,,,,,,,,,,,,,,,,,,,,,,,,,,,,,,,,,,,,,1420.9781493000046,None,,,,,,,,,,,,,,,,,,,,,,,,,,,,,,,,,,,,,,,,,,,,,,,,,,,,,,,,,factory,196,32,aloud,new,yellow,1419.6984478999948,None,n,1419.6984478999948,None,"['n', 'return']","[0.9690240000054473, 1.2330306000076234]",1419.6984478999948,None,,,11,001,2023_Feb_15_1014,ExactRep-v3-final,2021.2.3,59.78991021293257,
,,,,,,,,,,,,32,0,32,0,,,,,,,,,,,,,,,,,,,,,,,,,,,,,,,,,,,,,,,,,,,,,,,,,1423.5973745000083,None,,,,,,,,,,,,,,,,,,,,,,,,,,,,,,,,,,,,,,,,,,,,,,,,,,,,,,,,,murder,73,33,silent,old,yellow,1421.486403899995,None,y,1421.486403899995,None,"['y', 'return']","[1.8529412000061711, 2.0690583000105107]",1421.486403899995,None,,,11,001,2023_Feb_15_1014,ExactRep-v3-final,2021.2.3,59.78991021293257,
,,,,,,,,,,,,33,0,33,0,,,,,,,,,,,,,,,,,,,,,,,,,,,,,,,,,,,,,,,,,,,,,,,,,1425.6661193000036,None,,,,,,,,,,,,,,,,,,,,,,,,,,,,,,,,,,,,,,,,,,,,,,,,,,,,,,,,,author,6,34,sing,old,yellow,1424.1136658000032,None,y,1424.1136658000032,None,"['y', 'return']","[1.2577787999907741, 1.5138335999945411]",1424.1136658000032,None,,,11,001,2023_Feb_15_1014,ExactRep-v3-final,2021.2.3,59.78991021293257,
,,,,,,,,,,,,34,0,34,0,,,,,,,,,,,,,,,,,,,,,,,,,,,,,,,,,,,,,,,,,,,,,,,,,1427.5680151999986,None,,,,,,,,,,,,,,,,,,,,,,,,,,,,,,,,,,,,,,,,,,,,,,,,,,,,,,,,,animal,23,35,sing,old,yellow,1426.1666364999983,None,y,1426.1666364999983,None,"['y', 'return']","[1.1648936999990838, 1.3648480999981984]",1426.1666364999983,None,,,11,001,2023_Feb_15_1014,ExactRep-v3-final,2021.2.3,59.78991021293257,
,,,,,,,,,,,,35,0,35,0,,,,,,,,,,,,,,,,,,,,,,,,,,,,,,,,,,,,,,,,,,,,,,,,,1429.0194757999998,None,,,,,,,,,,,,,,,,,,,,,,,,,,,,,,,,,,,,,,,,,,,,,,,,,,,,,,,,,cabin,1,36,sing,old,yellow,1428.0777598999994,None,y,1428.0777598999994,None,"['y', 'return']","[0.6936032000085106, 0.9096908000065014]",1428.0777598999994,None,,,11,001,2023_Feb_15_1014,ExactRep-v3-final,2021.2.3,59.78991021293257,
,,,,,,,,,,,,36,0,36,0,,,,,,,,,,,,,,,,,,,,,,,,,,,,,,,,,,,,,,,,,,,,,,,,,1430.5710938999982,None,,,,,,,,,,,,,,,,,,,,,,,,,,,,,,,,,,,,,,,,,,,,,,,,,,,,,,,,,kiss,193,37,sing,new,yellow,1429.5304589000007,None,n,1429.5304589000007,None,"['n', 'return']","[0.7128320000047097, 0.9929389000026276]",1429.5304589000007,None,,,11,001,2023_Feb_15_1014,ExactRep-v3-final,2021.2.3,59.78991021293257,
,,,,,,,,,,,,37,0,37,0,,,,,,,,,,,,,,,,,,,,,,,,,,,,,,,,,,,,,,,,,,,,,,,,,1432.3562136999972,None,,,,,,,,,,,,,,,,,,,,,,,,,,,,,,,,,,,,,,,,,,,,,,,,,,,,,,,,,wheat,154,38,silent,new,yellow,1431.0834340000001,None,n,1431.0834340000001,None,"['n', 'return']","[1.0159793000057107, 1.231984400001238]",1431.0834340000001,None,,,11,001,2023_Feb_15_1014,ExactRep-v3-final,2021.2.3,59.78991021293257,
,,,,,,,,,,,,38,0,38,0,,,,,,,,,,,,,,,,,,,,,,,,,,,,,,,,,,,,,,,,,,,,,,,,,1433.9911320999963,None,,,,,,,,,,,,,,,,,,,,,,,,,,,,,,,,,,,,,,,,,,,,,,,,,,,,,,,,,truth,34,39,sing,old,yellow,1432.8711583999975,None,y,1432.8711583999975,None,"['y', 'return']","[0.8604266000038479, 1.084230899999966]",1432.8711583999975,None,,,11,001,2023_Feb_15_1014,ExactRep-v3-final,2021.2.3,59.78991021293257,
,,,,,,,,,,,,39,0,39,0,,,,,,,,,,,,,,,,,,,,,,,,,,,,,,,,,,,,,,,,,,,,,,,,,1436.7104869000032,None,,,,,,,,,,,,,,,,,,,,,,,,,,,,,,,,,,,,,,,,,,,,,,,,,,,,,,,,,butter,121,40,silent,new,yellow,1434.501703899994,None,y,1434.501703899994,None,"['y', 'return']","[1.9416029999993043, 2.1737718999938807]",1434.501703899994,None,,,11,001,2023_Feb_15_1014,ExactRep-v3-final,2021.2.3,59.78991021293257,
,,,,,,,,,,,,40,0,40,0,,,,,,,,,,,,,,,,,,,,,,,,,,,,,,,,,,,,,,,,,,,,,,,,,1439.6300850999978,None,,,,,,,,,,,,,,,,,,,,,,,,,,,,,,,,,,,,,,,,,,,,,,,,,,,,,,,,,circle,52,41,silent,old,yellow,1437.2195612000069,None,n,1437.2195612000069,None,"['n', 'return']","[2.151923600002192, 2.375903799998923]",1437.2195612000069,None,,,11,001,2023_Feb_15_1014,ExactRep-v3-final,2021.2.3,59.78991021293257,
,,,,,,,,,,,,41,0,41,0,,,,,,,,,,,,,,,,,,,,,,,,,,,,,,,,,,,,,,,,,,,,,,,,,1441.3985809000005,None,,,,,,,,,,,,,,,,,,,,,,,,,,,,,,,,,,,,,,,,,,,,,,,,,,,,,,,,,cash,225,42,sing,new,yellow,1440.1390906000015,None,n,1440.1390906000015,None,"['n', 'return']","[0.9922433000028832, 1.2243100000050617]",1440.1390906000015,None,,,11,001,2023_Feb_15_1014,ExactRep-v3-final,2021.2.3,59.78991021293257,
,,,,,,,,,,,,42,0,42,0,,,,,,,,,,,,,,,,,,,,,,,,,,,,,,,,,,,,,,,,,,,,,,,,,1442.883292700004,None,,,,,,,,,,,,,,,,,,,,,,,,,,,,,,,,,,,,,,,,,,,,,,,,,,,,,,,,,village,33,43,sing,old,yellow,1441.9093788000027,None,y,1441.9093788000027,None,"['y', 'return']","[0.6939918999996735, 0.9420132999948692]",1441.9093788000027,None,,,11,001,2023_Feb_15_1014,ExactRep-v3-final,2021.2.3,59.78991021293257,
,,,,,,,,,,,,43,0,43,0,,,,,,,,,,,,,,,,,,,,,,,,,,,,,,,,,,,,,,,,,,,,,,,,,1444.268028999999,None,,,,,,,,,,,,,,,,,,,,,,,,,,,,,,,,,,,,,,,,,,,,,,,,,,,,,,,,,moral,85,44,aloud,old,yellow,1443.3906622000068,None,y,1443.3906622000068,None,"['y', 'return']","[0.5887846999976318, 0.8446318000060273]",1443.3906622000068,None,,,11,001,2023_Feb_15_1014,ExactRep-v3-final,2021.2.3,59.78991021293257,
,,,,,,,,,,,,44,0,44,0,,,,,,,,,,,,,,,,,,,,,,,,,,,,,,,,,,,,,,,,,,,,,,,,,1445.8864026000083,None,,,,,,,,,,,,,,,,,,,,,,,,,,,,,,,,,,,,,,,,,,,,,,,,,,,,,,,,,doctor,122,45,silent,new,yellow,1444.7754325999995,None,y,1444.7754325999995,None,"['y', 'return']","[0.771852999998373, 1.075884199992288]",1444.7754325999995,None,,,11,001,2023_Feb_15_1014,ExactRep-v3-final,2021.2.3,59.78991021293257,
,,,,,,,,,,,,45,0,45,0,,,,,,,,,,,,,,,,,,,,,,,,,,,,,,,,,,,,,,,,,,,,,,,,,1447.3712362000078,None,,,,,,,,,,,,,,,,,,,,,,,,,,,,,,,,,,,,,,,,,,,,,,,,,,,,,,,,,king,46,46,silent,old,yellow,1446.393788100002,None,y,1446.393788100002,None,"['y', 'return']","[0.689591999995173, 0.9376424999936717]",1446.393788100002,None,,,11,001,2023_Feb_15_1014,ExactRep-v3-final,2021.2.3,59.78991021293257,
,,,,,,,,,,,,46,0,46,0,,,,,,,,,,,,,,,,,,,,,,,,,,,,,,,,,,,,,,,,,,,,,,,,,1448.9393969999946,None,,,,,,,,,,,,,,,,,,,,,,,,,,,,,,,,,,,,,,,,,,,,,,,,,,,,,,,,,memory,20,47,sing,old,yellow,1447.881283099996,None,y,1447.881283099996,None,"['y', 'return']","[0.7302073000028031, 1.010246999998344]",1447.881283099996,None,,,11,001,2023_Feb_15_1014,ExactRep-v3-final,2021.2.3,59.78991021293257,
,,,,,,,,,,,,47,0,47,0,,,,,,,,,,,,,,,,,,,,,,,,,,,,,,,,,,,,,,,,,,,,,,,,,1450.390846299997,None,,,,,,,,,,,,,,,,,,,,,,,,,,,,,,,,,,,,,,,,,,,,,,,,,,,,,,,,,potato,173,48,sing,new,yellow,1449.4503873000067,None,n,1449.4503873000067,None,"['n', 'return']","[0.664965799995116, 0.8969267999927979]",1449.4503873000067,None,,,11,001,2023_Feb_15_1014,ExactRep-v3-final,2021.2.3,59.78991021293257,
,,,,,,,,,,,,48,0,48,0,,,,,,,,,,,,,,,,,,,,,,,,,,,,,,,,,,,,,,,,,,,,,,,,,1451.8923714999983,None,,,,,,,,,,,,,,,,,,,,,,,,,,,,,,,,,,,,,,,,,,,,,,,,,,,,,,,,,prayer,58,49,silent,old,yellow,1450.8980852999957,None,n,1450.8980852999957,None,"['n', 'return']","[0.737344099994516, 0.9533203000028152]",1450.8980852999957,None,,,11,001,2023_Feb_15_1014,ExactRep-v3-final,2021.2.3,59.78991021293257,
,,,,,,,,,,,,49,0,49,0,,,,,,,,,,,,,,,,,,,,,,,,,,,,,,,,,,,,,,,,,,,,,,,,,1454.211397799998,None,,,,,,,,,,,,,,,,,,,,,,,,,,,,,,,,,,,,,,,,,,,,,,,,,,,,,,,,,insect,186,50,aloud,new,yellow,1452.4004136000003,None,n,1452.4004136000003,None,"['n', 'return']","[1.5551173999992898, 1.7710770999983652]",1452.4004136000003,None,,,11,001,2023_Feb_15_1014,ExactRep-v3-final,2021.2.3,59.78991021293257,
,,,,,,,,,,,,50,0,50,0,,,,,,,,,,,,,,,,,,,,,,,,,,,,,,,,,,,,,,,,,,,,,,,,,1455.8297732000065,None,,,,,,,,,,,,,,,,,,,,,,,,,,,,,,,,,,,,,,,,,,,,,,,,,,,,,,,,,bar,38,51,sing,old,yellow,1454.7235286000068,None,y,1454.7235286000068,None,"['y', 'return']","[0.7758923999936087, 1.063922299988917]",1454.7235286000068,None,,,11,001,2023_Feb_15_1014,ExactRep-v3-final,2021.2.3,59.78991021293257,
,,,,,,,,,,,,51,0,51,0,,,,,,,,,,,,,,,,,,,,,,,,,,,,,,,,,,,,,,,,,,,,,,,,,1457.4814190000034,None,,,,,,,,,,,,,,,,,,,,,,,,,,,,,,,,,,,,,,,,,,,,,,,,,,,,,,,,,avenue,159,52,silent,new,yellow,1456.340767600006,None,n,1456.340767600006,None,"['n', 'return']","[0.8548083000059705, 1.0946939999994356]",1456.340767600006,None,,,11,001,2023_Feb_15_1014,ExactRep-v3-final,2021.2.3,59.78991021293257,
,,,,,,,,,,,,52,0,52,0,,,,,,,,,,,,,,,,,,,,,,,,,,,,,,,,,,,,,,,,,,,,,,,,,1459.0829360000062,None,,,,,,,,,,,,,,,,,,,,,,,,,,,,,,,,,,,,,,,,,,,,,,,,,,,,,,,,,doll,81,53,aloud,old,yellow,1457.9927736999962,None,y,1457.9927736999962,None,"['y', 'return']","[0.6906539000046905, 1.0586975000042003]",1457.9927736999962,None,,,11,001,2023_Feb_15_1014,ExactRep-v3-final,2021.2.3,59.78991021293257,
,,,,,,,,,,,,53,0,53,0,,,,,,,,,,,,,,,,,,,,,,,,,,,,,,,,,,,,,,,,,,,,,,,,,1460.584391299999,None,,,,,,,,,,,,,,,,,,,,,,,,,,,,,,,,,,,,,,,,,,,,,,,,,,,,,,,,,fire,144,54,silent,new,yellow,1459.5930132000067,None,y,1459.5930132000067,None,"['y', 'return']","[0.658433899996453, 0.9463568000064697]",1459.5930132000067,None,,,11,001,2023_Feb_15_1014,ExactRep-v3-final,2021.2.3,59.78991021293257,
,,,,,,,,,,,,54,0,54,0,,,,,,,,,,,,,,,,,,,,,,,,,,,,,,,,,,,,,,,,,,,,,,,,,1462.002395500007,None,,,,,,,,,,,,,,,,,,,,,,,,,,,,,,,,,,,,,,,,,,,,,,,,,,,,,,,,,leader,13,55,sing,old,yellow,1461.0942294999986,None,y,1461.0942294999986,None,"['y', 'return']","[0.5733519000059459, 0.8611758000042755]",1461.0942294999986,None,,,11,001,2023_Feb_15_1014,ExactRep-v3-final,2021.2.3,59.78991021293257,
,,,,,,,,,,,,55,0,55,0,,,,,,,,,,,,,,,,,,,,,,,,,,,,,,,,,,,,,,,,,,,,,,,,,1465.1722824000026,None,,,,,,,,,,,,,,,,,,,,,,,,,,,,,,,,,,,,,,,,,,,,,,,,,,,,,,,,,colony,14,56,sing,old,yellow,1462.511873800002,None,y,1462.511873800002,None,"['y', 'return']","[2.3957057999941753, 2.627438700001221]",1462.511873800002,None,,,11,001,2023_Feb_15_1014,ExactRep-v3-final,2021.2.3,59.78991021293257,
,,,,,,,,,,,,56,0,56,0,,,,,,,,,,,,,,,,,,,,,,,,,,,,,,,,,,,,,,,,,,,,,,,,,1466.6404449999973,None,,,,,,,,,,,,,,,,,,,,,,,,,,,,,,,,,,,,,,,,,,,,,,,,,,,,,,,,,stone,126,57,silent,new,yellow,1465.6822477999958,None,n,1465.6822477999958,None,"['n', 'return']","[0.6892613000090932, 0.9131735000119079]",1465.6822477999958,None,,,11,001,2023_Feb_15_1014,ExactRep-v3-final,2021.2.3,59.78991021293257,
,,,,,,,,,,,,57,0,57,0,,,,,,,,,,,,,,,,,,,,,,,,,,,,,,,,,,,,,,,,,,,,,,,,,1468.3422078000003,None,,,,,,,,,,,,,,,,,,,,,,,,,,,,,,,,,,,,,,,,,,,,,,,,,,,,,,,,,chance,0,58,sing,old,yellow,1467.1501802999992,None,y,1467.1501802999992,None,"['y', 'return']","[0.8452556000120239, 1.149258200006443]",1467.1501802999992,None,,,11,001,2023_Feb_15_1014,ExactRep-v3-final,2021.2.3,59.78991021293257,
,,,,,,,,,,,,58,0,58,0,,,,,,,,,,,,,,,,,,,,,,,,,,,,,,,,,,,,,,,,,,,,,,,,,1469.9603976000071,None,,,,,,,,,,,,,,,,,,,,,,,,,,,,,,,,,,,,,,,,,,,,,,,,,,,,,,,,,prison,43,59,silent,old,yellow,1468.8507595999981,None,n,1468.8507595999981,None,"['n', 'return']","[0.7925857999944128, 1.0726392999931704]",1468.8507595999981,None,,,11,001,2023_Feb_15_1014,ExactRep-v3-final,2021.2.3,59.78991021293257,
,,,,,,,,,,,,59,0,59,0,,,,,,,,,,,,,,,,,,,,,,,,,,,,,,,,,,,,,,,,,,,,,,,,,1471.5787249999994,None,,,,,,,,,,,,,,,,,,,,,,,,,,,,,,,,,,,,,,,,,,,,,,,,,,,,,,,,,pipe,94,60,aloud,old,yellow,1470.4692263000034,None,y,1470.4692263000034,None,"['y', 'return']","[0.7582129000074929, 1.0702500000043074]",1470.4692263000034,None,,,11,001,2023_Feb_15_1014,ExactRep-v3-final,2021.2.3,59.78991021293257,
,,,,,,,,,,,,60,0,60,0,,,,,,,,,,,,,,,,,,,,,,,,,,,,,,,,,,,,,,,,,,,,,,,,,1473.0970487000013,None,,,,,,,,,,,,,,,,,,,,,,,,,,,,,,,,,,,,,,,,,,,,,,,,,,,,,,,,,vision,235,61,sing,new,yellow,1472.088393500002,None,y,1472.088393500002,None,"['y', 'return']","[0.6750803000031738, 0.9711038000095868]",1472.088393500002,None,,,11,001,2023_Feb_15_1014,ExactRep-v3-final,2021.2.3,59.78991021293257,
,,,,,,,,,,,,61,0,61,0,,,,,,,,,,,,,,,,,,,,,,,,,,,,,,,,,,,,,,,,,,,,,,,,,1474.6484992000042,None,,,,,,,,,,,,,,,,,,,,,,,,,,,,,,,,,,,,,,,,,,,,,,,,,,,,,,,,,mother,98,62,aloud,old,yellow,1473.6096853000054,None,y,1473.6096853000054,None,"['y', 'return']","[0.6897145000111777, 0.9937913000030676]",1473.6096853000054,None,,,11,001,2023_Feb_15_1014,ExactRep-v3-final,2021.2.3,59.78991021293257,
,,,,,,,,,,,,62,0,62,0,,,,,,,,,,,,,,,,,,,,,,,,,,,,,,,,,,,,,,,,,,,,,,,,,1476.350213800004,None,,,,,,,,,,,,,,,,,,,,,,,,,,,,,,,,,,,,,,,,,,,,,,,,,,,,,,,,,shadow,223,63,sing,new,yellow,1475.152273300002,None,y,1475.152273300002,None,"['y', 'return']","[0.867125799995847, 1.1630279999953927]",1475.152273300002,None,,,11,001,2023_Feb_15_1014,ExactRep-v3-final,2021.2.3,59.78991021293257,
,,,,,,,,,,,,63,0,63,0,,,,,,,,,,,,,,,,,,,,,,,,,,,,,,,,,,,,,,,,,,,,,,,,,1478.1186298999964,None,,,,,,,,,,,,,,,,,,,,,,,,,,,,,,,,,,,,,,,,,,,,,,,,,,,,,,,,,plain,165,64,sing,new,yellow,1476.8635682000022,None,n,1476.8635682000022,None,"['n', 'return']","[0.940010300007998, 1.2118259999988368]",1476.8635682000022,None,,,11,001,2023_Feb_15_1014,ExactRep-v3-final,2021.2.3,59.78991021293257,
,,,,,,,,,,,,64,0,64,0,,,,,,,,,,,,,,,,,,,,,,,,,,,,,,,,,,,,,,,,,,,,,,,,,1479.7538058000064,None,,,,,,,,,,,,,,,,,,,,,,,,,,,,,,,,,,,,,,,,,,,,,,,,,,,,,,,,,cottage,164,65,aloud,new,yellow,1478.6210852000077,None,y,1478.6210852000077,None,"['y', 'return']","[0.8063243000069633, 1.0863359000068158]",1478.6210852000077,None,,,11,001,2023_Feb_15_1014,ExactRep-v3-final,2021.2.3,59.78991021293257,
,,,,,,,,,,,,65,0,65,0,,,,,,,,,,,,,,,,,,,,,,,,,,,,,,,,,,,,,,,,,,,,,,,,,1481.939278699996,None,,,,,,,,,,,,,,,,,,,,,,,,,,,,,,,,,,,,,,,,,,,,,,,,,,,,,,,,,humour,192,66,aloud,new,yellow,1480.2573140000022,None,n,1480.2573140000022,None,"['n', 'return']","[1.354133799992269, 1.6421374999918044]",1480.2573140000022,None,,,11,001,2023_Feb_15_1014,ExactRep-v3-final,2021.2.3,59.78991021293257,
,,,,,,,,,,,,66,0,66,0,,,,,,,,,,,,,,,,,,,,,,,,,,,,,,,,,,,,,,,,,,,,,,,,,1485.792902000001,None,,,,,,,,,,,,,,,,,,,,,,,,,,,,,,,,,,,,,,,,,,,,,,,,,,,,,,,,,coffee,67,67,silent,old,yellow,1482.452548900008,None,n,1482.452548900008,None,"['y', 'n', 'backspace', 'n', 'return']","[0.5988428999989992, 1.4867954999936046, 2.4470478000002913, 2.631006299998262, 3.302982900000643]",1482.452548900008,None,,,11,001,2023_Feb_15_1014,ExactRep-v3-final,2021.2.3,59.78991021293257,
,,,,,,,,,,,,67,0,67,0,,,,,,,,,,,,,,,,,,,,,,,,,,,,,,,,,,,,,,,,,,,,,,,,,1487.7283906999946,None,,,,,,,,,,,,,,,,,,,,,,,,,,,,,,,,,,,,,,,,,,,,,,,,,,,,,,,,,flood,213,68,sing,new,yellow,1486.3039495999983,None,n,1486.3039495999983,None,"['n', 'return']","[1.0757056000002194, 1.387553000007756]",1486.3039495999983,None,,,11,001,2023_Feb_15_1014,ExactRep-v3-final,2021.2.3,59.78991021293257,
,,,,,,,,,,,,68,0,68,0,,,,,,,,,,,,,,,,,,,,,,,,,,,,,,,,,,,,,,,,,,,,,,,,,1489.2965557999996,None,,,,,,,,,,,,,,,,,,,,,,,,,,,,,,,,,,,,,,,,,,,,,,,,,,,,,,,,,fun,211,69,sing,new,yellow,1488.238737000007,None,n,1488.238737000007,None,"['n', 'return']","[0.780663800003822, 1.012774899994838]",1488.238737000007,None,,,11,001,2023_Feb_15_1014,ExactRep-v3-final,2021.2.3,59.78991021293257,
,,,,,,,,,,,,69,0,69,0,,,,,,,,,,,,,,,,,,,,,,,,,,,,,,,,,,,,,,,,,,,,,,,,,1492.5496544000052,None,,,,,,,,,,,,,,,,,,,,,,,,,,,,,,,,,,,,,,,,,,,,,,,,,,,,,,,,,cost,84,70,aloud,old,yellow,1489.804409599994,None,y,1489.804409599994,None,"['n', 'y', 'y', 'backspace', 'y', 'return']","[0.5911277999985032, 0.6711599999980535, 1.2792084999964572, 1.9110442999954103, 2.07109529999434, 2.703221299991128]",1489.804409599994,None,,,11,001,2023_Feb_15_1014,ExactRep-v3-final,2021.2.3,59.78991021293257,
,,,,,,,,,,,,70,0,70,0,,,,,,,,,,,,,,,,,,,,,,,,,,,,,,,,,,,,,,,,,,,,,,,,,1494.2680598000006,None,,,,,,,,,,,,,,,,,,,,,,,,,,,,,,,,,,,,,,,,,,,,,,,,,,,,,,,,,season,128,71,silent,new,yellow,1493.0570972999994,None,y,1493.0570972999994,None,"['y', 'return']","[0.8745137999940198, 1.1704552999872249]",1493.0570972999994,None,,,11,001,2023_Feb_15_1014,ExactRep-v3-final,2021.2.3,59.78991021293257,
,,,,,,,,,,,,71,0,71,0,,,,,,,,,,,,,,,,,,,,,,,,,,,,,,,,,,,,,,,,,,,,,,,,,1496.1199773999979,None,,,,,,,,,,,,,,,,,,,,,,,,,,,,,,,,,,,,,,,,,,,,,,,,,,,,,,,,,volume,63,72,silent,old,yellow,1494.7820001000073,None,y,1494.7820001000073,None,"['y', 'return']","[0.9893982000066899, 1.293342200006009]",1494.7820001000073,None,,,11,001,2023_Feb_15_1014,ExactRep-v3-final,2021.2.3,59.78991021293257,
,,,,,,,,,,,,72,0,72,0,,,,,,,,,,,,,,,,,,,,,,,,,,,,,,,,,,,,,,,,,,,,,,,,,1498.5723328000022,None,,,,,,,,,,,,,,,,,,,,,,,,,,,,,,,,,,,,,,,,,,,,,,,,,,,,,,,,,green,17,73,sing,old,yellow,1496.6227911000024,None,n,1496.6227911000024,None,"['n', 'return']","[1.6767657000018517, 1.9167554000014206]",1496.6227911000024,None,,,11,001,2023_Feb_15_1014,ExactRep-v3-final,2021.2.3,59.78991021293257,
,,,,,,,,,,,,73,0,73,0,,,,,,,,,,,,,,,,,,,,,,,,,,,,,,,,,,,,,,,,,,,,,,,,,1500.124119900007,None,,,,,,,,,,,,,,,,,,,,,,,,,,,,,,,,,,,,,,,,,,,,,,,,,,,,,,,,,home,142,74,silent,new,yellow,1499.0806706000003,None,n,1499.0806706000003,None,"['n', 'return']","[0.7707704999920679, 1.0029024999967078]",1499.0806706000003,None,,,11,001,2023_Feb_15_1014,ExactRep-v3-final,2021.2.3,59.78991021293257,
,,,,,,,,,,,,74,0,74,0,,,,,,,,,,,,,,,,,,,,,,,,,,,,,,,,,,,,,,,,,,,,,,,,,1501.6087195,None,,,,,,,,,,,,,,,,,,,,,,,,,,,,,,,,,,,,,,,,,,,,,,,,,,,,,,,,,college,66,75,silent,old,yellow,1500.6278114000015,None,y,1500.6278114000015,None,"['y', 'return']","[0.6476611000107368, 0.9356014000077266]",1500.6278114000015,None,,,11,001,2023_Feb_15_1014,ExactRep-v3-final,2021.2.3,59.78991021293257,
,,,,,,,,,,,,75,0,75,0,,,,,,,,,,,,,,,,,,,,,,,,,,,,,,,,,,,,,,,,,,,,,,,,,1503.4272087999998,None,,,,,,,,,,,,,,,,,,,,,,,,,,,,,,,,,,,,,,,,,,,,,,,,,,,,,,,,,meadow,69,76,silent,old,yellow,1502.1197460999974,None,n,1502.1197460999974,None,"['return', 'n', 'return']","[0.5956142999930307, 1.0597325999988243, 1.275777199989534]",1502.1197460999974,None,,,11,001,2023_Feb_15_1014,ExactRep-v3-final,2021.2.3,59.78991021293257,
,,,,,,,,,,,,76,0,76,0,,,,,,,,,,,,,,,,,,,,,,,,,,,,,,,,,,,,,,,,,,,,,,,,,1505.0788518000045,None,,,,,,,,,,,,,,,,,,,,,,,,,,,,,,,,,,,,,,,,,,,,,,,,,,,,,,,,,forest,168,77,aloud,new,yellow,1503.9465217999968,None,n,1503.9465217999968,None,"['n', 'return']","[0.8971259000099963, 1.0890656000119634]",1503.9465217999968,None,,,11,001,2023_Feb_15_1014,ExactRep-v3-final,2021.2.3,59.78991021293257,
,,,,,,,,,,,,77,0,77,0,,,,,,,,,,,,,,,,,,,,,,,,,,,,,,,,,,,,,,,,,,,,,,,,,1506.997667500007,None,,,,,,,,,,,,,,,,,,,,,,,,,,,,,,,,,,,,,,,,,,,,,,,,,,,,,,,,,paper,212,78,aloud,new,yellow,1505.5889051999984,None,n,1505.5889051999984,None,"['n', 'return']","[1.1985322999971686, 1.3747428000060609]",1505.5889051999984,None,,,11,001,2023_Feb_15_1014,ExactRep-v3-final,2021.2.3,59.78991021293257,
,,,,,,,,,,,,78,0,78,0,,,,,,,,,,,,,,,,,,,,,,,,,,,,,,,,,,,,,,,,,,,,,,,,,1509.399848400004,None,,,,,,,,,,,,,,,,,,,,,,,,,,,,,,,,,,,,,,,,,,,,,,,,,,,,,,,,,church,124,79,silent,new,yellow,1507.5038364000065,None,n,1507.5038364000065,None,"['n', 'return']","[1.6197877999948105, 1.8516388999996707]",1507.5038364000065,None,,,11,001,2023_Feb_15_1014,ExactRep-v3-final,2021.2.3,59.78991021293257,
,,,,,,,,,,,,79,0,79,0,,,,,,,,,,,,,,,,,,,,,,,,,,,,,,,,,,,,,,,,,,,,,,,,,1511.3185868,None,,,,,,,,,,,,,,,,,,,,,,,,,,,,,,,,,,,,,,,,,,,,,,,,,,,,,,,,,devil,53,80,silent,old,yellow,1509.9056580000033,None,y,1509.9056580000033,None,"['y', 'return']","[1.0259082000120543, 1.3777813000051538]",1509.9056580000033,None,,,11,001,2023_Feb_15_1014,ExactRep-v3-final,2021.2.3,59.78991021293257,
,,,,,,,,,,,,80,0,80,0,,,,,,,,,,,,,,,,,,,,,,,,,,,,,,,,,,,,,,,,,,,,,,,,,1513.203653500008,None,,,,,,,,,,,,,,,,,,,,,,,,,,,,,,,,,,,,,,,,,,,,,,,,,,,,,,,,,owner,185,81,sing,new,yellow,1511.8225798000058,None,n,1511.8225798000058,None,"['n', 'return']","[0.9649594999937108, 1.3410245999984909]",1511.8225798000058,None,,,11,001,2023_Feb_15_1014,ExactRep-v3-final,2021.2.3,59.78991021293257,
,,,,,,,,,,,,81,0,81,0,,,,,,,,,,,,,,,,,,,,,,,,,,,,,,,,,,,,,,,,,,,,,,,,,1515.022122399998,None,,,,,,,,,,,,,,,,,,,,,,,,,,,,,,,,,,,,,,,,,,,,,,,,,,,,,,,,,salary,65,82,silent,old,yellow,1513.7120296000066,None,n,1513.7120296000066,None,"['n', 'return']","[1.027343399997335, 1.2675271999905817]",1513.7120296000066,None,,,11,001,2023_Feb_15_1014,ExactRep-v3-final,2021.2.3,59.78991021293257,
,,,,,,,,,,,,82,0,82,0,,,,,,,,,,,,,,,,,,,,,,,,,,,,,,,,,,,,,,,,,,,,,,,,,1516.540569100005,None,,,,,,,,,,,,,,,,,,,,,,,,,,,,,,,,,,,,,,,,,,,,,,,,,,,,,,,,,law,166,83,aloud,new,yellow,1515.5309935999976,None,y,1515.5309935999976,None,"['y', 'return']","[0.6965188000031048, 0.9684764000121504]",1515.5309935999976,None,,,11,001,2023_Feb_15_1014,ExactRep-v3-final,2021.2.3,59.78991021293257,
,,,,,,,,,,,,83,0,83,0,,,,,,,,,,,,,,,,,,,,,,,,,,,,,,,,,,,,,,,,,,,,,,,,,1518.4755886000057,None,,,,,,,,,,,,,,,,,,,,,,,,,,,,,,,,,,,,,,,,,,,,,,,,,,,,,,,,,river,179,84,sing,new,yellow,1517.0511508000054,None,y,1517.0511508000054,None,"['y', 'return']","[1.1363796000077855, 1.3844223000050988]",1517.0511508000054,None,,,11,001,2023_Feb_15_1014,ExactRep-v3-final,2021.2.3,59.78991021293257,
,,,,,,,,,,,,84,0,84,0,,,,,,,,,,,,,,,,,,,,,,,,,,,,,,,,,,,,,,,,,,,,,,,,,1519.9108995999995,None,,,,,,,,,,,,,,,,,,,,,,,,,,,,,,,,,,,,,,,,,,,,,,,,,,,,,,,,,wine,22,85,sing,old,yellow,1518.9847880000016,None,y,1518.9847880000016,None,"['y', 'return']","[0.5706602999998722, 0.882614599991939]",1518.9847880000016,None,,,11,001,2023_Feb_15_1014,ExactRep-v3-final,2021.2.3,59.78991021293257,
,,,,,,,,,,,,85,0,85,0,,,,,,,,,,,,,,,,,,,,,,,,,,,,,,,,,,,,,,,,,,,,,,,,,1521.4952309000073,None,,,,,,,,,,,,,,,,,,,,,,,,,,,,,,,,,,,,,,,,,,,,,,,,,,,,,,,,,lord,108,86,aloud,old,yellow,1520.4183680999995,None,y,1520.4183680999995,None,"['y', 'return']","[0.7210677999973996, 1.0412328999955207]",1520.4183680999995,None,,,11,001,2023_Feb_15_1014,ExactRep-v3-final,2021.2.3,59.78991021293257,
,,,,,,,,,,,,86,0,86,0,,,,,,,,,,,,,,,,,,,,,,,,,,,,,,,,,,,,,,,,,,,,,,,,,1523.3972605000017,None,,,,,,,,,,,,,,,,,,,,,,,,,,,,,,,,,,,,,,,,,,,,,,,,,,,,,,,,,hall,160,87,aloud,new,yellow,1522.0041863000079,None,y,1522.0041863000079,None,"['y', 'return']","[1.1431756999954814, 1.3592560999968555]",1522.0041863000079,None,,,11,001,2023_Feb_15_1014,ExactRep-v3-final,2021.2.3,59.78991021293257,
,,,,,,,,,,,,87,0,87,0,,,,,,,,,,,,,,,,,,,,,,,,,,,,,,,,,,,,,,,,,,,,,,,,,1525.032349800007,None,,,,,,,,,,,,,,,,,,,,,,,,,,,,,,,,,,,,,,,,,,,,,,,,,,,,,,,,,apple,210,88,aloud,new,yellow,1523.9112516000023,None,n,1523.9112516000023,None,"['n', 'return']","[0.8761773000005633, 1.08423490000132]",1523.9112516000023,None,,,11,001,2023_Feb_15_1014,ExactRep-v3-final,2021.2.3,59.78991021293257,
,,,,,,,,,,,,88,0,88,0,,,,,,,,,,,,,,,,,,,,,,,,,,,,,,,,,,,,,,,,,,,,,,,,,1526.7839055000077,None,,,,,,,,,,,,,,,,,,,,,,,,,,,,,,,,,,,,,,,,,,,,,,,,,,,,,,,,,victory,238,89,aloud,new,yellow,1525.5363756000006,None,n,1525.5363756000006,None,"['n', 'return']","[1.0192630999954417, 1.203080899998895]",1525.5363756000006,None,,,11,001,2023_Feb_15_1014,ExactRep-v3-final,2021.2.3,59.78991021293257,
,,,,,,,,,,,,89,0,89,0,,,,,,,,,,,,,,,,,,,,,,,,,,,,,,,,,,,,,,,,,,,,,,,,,1528.2354984999984,None,,,,,,,,,,,,,,,,,,,,,,,,,,,,,,,,,,,,,,,,,,,,,,,,,,,,,,,,,grass,226,90,aloud,new,yellow,1527.293862999999,None,n,1527.293862999999,None,"['n', 'return']","[0.6858953000046313, 0.8936656000005314]",1527.293862999999,None,,,11,001,2023_Feb_15_1014,ExactRep-v3-final,2021.2.3,59.78991021293257,
,,,,,,,,,,,,90,0,90,0,,,,,,,,,,,,,,,,,,,,,,,,,,,,,,,,,,,,,,,,,,,,,,,,,1529.7701806999976,None,,,,,,,,,,,,,,,,,,,,,,,,,,,,,,,,,,,,,,,,,,,,,,,,,,,,,,,,,book,37,91,sing,old,yellow,1528.7420854999946,None,y,1528.7420854999946,None,"['y', 'return']","[0.6853662999928929, 0.9893846999912057]",1528.7420854999946,None,,,11,001,2023_Feb_15_1014,ExactRep-v3-final,2021.2.3,59.78991021293257,
,,,,,,,,,,,,91,0,91,0,,,,,,,,,,,,,,,,,,,,,,,,,,,,,,,,,,,,,,,,,,,,,,,,,1531.8723113000015,None,,,,,,,,,,,,,,,,,,,,,,,,,,,,,,,,,,,,,,,,,,,,,,,,,,,,,,,,,teacher,110,92,aloud,old,yellow,1530.2795081999939,None,y,1530.2795081999939,None,"['y', 'return']","[1.2840144999936456, 1.5559905999980401]",1530.2795081999939,None,,,11,001,2023_Feb_15_1014,ExactRep-v3-final,2021.2.3,59.78991021293257,
,,,,,,,,,,,,92,0,92,0,,,,,,,,,,,,,,,,,,,,,,,,,,,,,,,,,,,,,,,,,,,,,,,,,1533.7408623999945,None,,,,,,,,,,,,,,,,,,,,,,,,,,,,,,,,,,,,,,,,,,,,,,,,,,,,,,,,,coin,175,93,sing,new,yellow,1532.3756454999966,None,n,1532.3756454999966,None,"['n', 'return']","[1.0998967999912566, 1.323904799995944]",1532.3756454999966,None,,,11,001,2023_Feb_15_1014,ExactRep-v3-final,2021.2.3,59.78991021293257,
,,,,,,,,,,,,93,0,93,0,,,,,,,,,,,,,,,,,,,,,,,,,,,,,,,,,,,,,,,,,,,,,,,,,1535.2923630000005,None,,,,,,,,,,,,,,,,,,,,,,,,,,,,,,,,,,,,,,,,,,,,,,,,,,,,,,,,,corner,116,94,aloud,old,yellow,1534.2523765000078,None,y,1534.2523765000078,None,"['y', 'return']","[0.7910129999945639, 1.0071999999927357]",1534.2523765000078,None,,,11,001,2023_Feb_15_1014,ExactRep-v3-final,2021.2.3,59.78991021293257,
,,,,,,,,,,,,94,0,94,0,,,,,,,,,,,,,,,,,,,,,,,,,,,,,,,,,,,,,,,,,,,,,,,,,1536.9107003999961,None,,,,,,,,,,,,,,,,,,,,,,,,,,,,,,,,,,,,,,,,,,,,,,,,,,,,,,,,,virtue,158,95,silent,new,yellow,1535.8063557999994,None,n,1535.8063557999994,None,"['n', 'return']","[0.8690399000042817, 1.0611151000048267]",1535.8063557999994,None,,,11,001,2023_Feb_15_1014,ExactRep-v3-final,2021.2.3,59.78991021293257,
,,,,,,,,,,,,95,0,95,0,,,,,,,,,,,,,,,,,,,,,,,,,,,,,,,,,,,,,,,,,,,,,,,,,1538.462348800007,None,,,,,,,,,,,,,,,,,,,,,,,,,,,,,,,,,,,,,,,,,,,,,,,,,,,,,,,,,mercy,150,96,silent,new,yellow,1537.4191968999949,None,n,1537.4191968999949,None,"['n', 'return']","[0.8082174000010127, 1.0002390000008745]",1537.4191968999949,None,,,11,001,2023_Feb_15_1014,ExactRep-v3-final,2021.2.3,59.78991021293257,
,,,,,,,,,,,,96,0,96,0,,,,,,,,,,,,,,,,,,,,,,,,,,,,,,,,,,,,,,,,,,,,,,,,,1540.6811331000063,None,,,,,,,,,,,,,,,,,,,,,,,,,,,,,,,,,,,,,,,,,,,,,,,,,,,,,,,,,ticket,125,97,silent,new,yellow,1538.9735577999963,None,n,1538.9735577999963,None,"['n', 'return']","[1.4621410999970976, 1.6619937999930698]",1538.9735577999963,None,,,11,001,2023_Feb_15_1014,ExactRep-v3-final,2021.2.3,59.78991021293257,
,,,,,,,,,,,,97,0,97,0,,,,,,,,,,,,,,,,,,,,,,,,,,,,,,,,,,,,,,,,,,,,,,,,,1542.9669088999945,None,,,,,,,,,,,,,,,,,,,,,,,,,,,,,,,,,,,,,,,,,,,,,,,,,,,,,,,,,hide,209,98,sing,new,yellow,1541.190134599994,None,n,1541.190134599994,None,"['return', 'n', 'return']","[1.1015556999918772, 1.5252957999909995, 1.7333252999960678]",1541.190134599994,None,,,11,001,2023_Feb_15_1014,ExactRep-v3-final,2021.2.3,59.78991021293257,
,,,,,,,,,,,,98,0,98,0,,,,,,,,,,,,,,,,,,,,,,,,,,,,,,,,,,,,,,,,,,,,,,,,,1544.3681707000069,None,,,,,,,,,,,,,,,,,,,,,,,,,,,,,,,,,,,,,,,,,,,,,,,,,,,,,,,,,weapon,70,99,silent,old,yellow,1543.4755332000059,None,n,1543.4755332000059,None,"['n', 'return']","[0.6720092000032309, 0.8562010000023292]",1543.4755332000059,None,,,11,001,2023_Feb_15_1014,ExactRep-v3-final,2021.2.3,59.78991021293257,
,,,,,,,,,,,,99,0,99,0,,,,,,,,,,,,,,,,,,,,,,,,,,,,,,,,,,,,,,,,,,,,,,,,,1545.852931100002,None,,,,,,,,,,,,,,,,,,,,,,,,,,,,,,,,,,,,,,,,,,,,,,,,,,,,,,,,,party,35,100,sing,old,yellow,1544.8764433000033,None,y,1544.8764433000033,None,"['y', 'return']","[0.7032065999956103, 0.9430404000013368]",1544.8764433000033,None,,,11,001,2023_Feb_15_1014,ExactRep-v3-final,2021.2.3,59.78991021293257,
,,,,,,,,,,,,100,0,100,0,,,,,,,,,,,,,,,,,,,,,,,,,,,,,,,,,,,,,,,,,,,,,,,,,1547.1542712000082,None,,,,,,,,,,,,,,,,,,,,,,,,,,,,,,,,,,,,,,,,,,,,,,,,,,,,,,,,,event,4,101,sing,old,yellow,1546.3628410999954,None,y,1546.3628410999954,None,"['y', 'return']","[0.52064160000009, 0.7446908999991138]",1546.3628410999954,None,,,11,001,2023_Feb_15_1014,ExactRep-v3-final,2021.2.3,59.78991021293257,
,,,,,,,,,,,,101,0,101,0,,,,,,,,,,,,,,,,,,,,,,,,,,,,,,,,,,,,,,,,,,,,,,,,,1549.0227593000018,None,,,,,,,,,,,,,,,,,,,,,,,,,,,,,,,,,,,,,,,,,,,,,,,,,,,,,,,,,slave,48,102,silent,old,yellow,1547.6656205000036,None,n,1547.6656205000036,None,"['n', 'return']","[1.113926200006972, 1.3139827999984846]",1547.6656205000036,None,,,11,001,2023_Feb_15_1014,ExactRep-v3-final,2021.2.3,59.78991021293257,
,,,,,,,,,,,,102,0,102,0,,,,,,,,,,,,,,,,,,,,,,,,,,,,,,,,,,,,,,,,,,,,,,,,,1550.6077308999957,None,,,,,,,,,,,,,,,,,,,,,,,,,,,,,,,,,,,,,,,,,,,,,,,,,,,,,,,,,breast,236,103,aloud,new,yellow,1549.5313401000021,None,n,1549.5313401000021,None,"['n', 'return']","[0.8401249000016833, 1.0402341000008164]",1549.5313401000021,None,,,11,001,2023_Feb_15_1014,ExactRep-v3-final,2021.2.3,59.78991021293257,
,,,,,,,,,,,,103,0,103,0,,,,,,,,,,,,,,,,,,,,,,,,,,,,,,,,,,,,,,,,,,,,,,,,,1551.9923965000053,None,,,,,,,,,,,,,,,,,,,,,,,,,,,,,,,,,,,,,,,,,,,,,,,,,,,,,,,,,door,71,104,silent,old,yellow,1551.1215401999943,None,y,1551.1215401999943,None,"['y', 'return']","[0.5781279999937396, 0.825983399990946]",1551.1215401999943,None,,,11,001,2023_Feb_15_1014,ExactRep-v3-final,2021.2.3,59.78991021293257,
,,,,,,,,,,,,104,0,104,0,,,,,,,,,,,,,,,,,,,,,,,,,,,,,,,,,,,,,,,,,,,,,,,,,1553.977723300006,None,,,,,,,,,,,,,,,,,,,,,,,,,,,,,,,,,,,,,,,,,,,,,,,,,,,,,,,,,fate,115,105,aloud,old,yellow,1552.5042996999982,None,y,1552.5042996999982,None,"['y', 'return']","[1.267180599999847, 1.4352125999866985]",1552.5042996999982,None,,,11,001,2023_Feb_15_1014,ExactRep-v3-final,2021.2.3,59.78991021293257,
,,,,,,,,,,,,105,0,105,0,,,,,,,,,,,,,,,,,,,,,,,,,,,,,,,,,,,,,,,,,,,,,,,,,1555.495962400004,None,,,,,,,,,,,,,,,,,,,,,,,,,,,,,,,,,,,,,,,,,,,,,,,,,,,,,,,,,boy,152,106,silent,new,yellow,1554.4846655000001,None,n,1554.4846655000001,None,"['n', 'return']","[0.7748535999999149, 0.9751312000007601]",1554.4846655000001,None,,,11,001,2023_Feb_15_1014,ExactRep-v3-final,2021.2.3,59.78991021293257,
,,,,,,,,,,,,106,0,106,0,,,,,,,,,,,,,,,,,,,,,,,,,,,,,,,,,,,,,,,,,,,,,,,,,1557.1476679000043,None,,,,,,,,,,,,,,,,,,,,,,,,,,,,,,,,,,,,,,,,,,,,,,,,,,,,,,,,,priest,170,107,aloud,new,yellow,1556.012881200004,None,n,1556.012881200004,None,"['n', 'return']","[0.702636000001803, 1.1026190999982646]",1556.012881200004,None,,,11,001,2023_Feb_15_1014,ExactRep-v3-final,2021.2.3,59.78991021293257,
,,,,,,,,,,,,107,0,107,0,,,,,,,,,,,,,,,,,,,,,,,,,,,,,,,,,,,,,,,,,,,,,,,,,1558.699219400005,None,,,,,,,,,,,,,,,,,,,,,,,,,,,,,,,,,,,,,,,,,,,,,,,,,,,,,,,,,shame,147,108,silent,new,yellow,1557.6574393000046,None,y,1557.6574393000046,None,"['y', 'return']","[0.7540355999954045, 1.0102221999986796]",1557.6574393000046,None,,,11,001,2023_Feb_15_1014,ExactRep-v3-final,2021.2.3,59.78991021293257,
,,,,,,,,,,,,108,0,108,0,,,,,,,,,,,,,,,,,,,,,,,,,,,,,,,,,,,,,,,,,,,,,,,,,1560.0839762999967,None,,,,,,,,,,,,,,,,,,,,,,,,,,,,,,,,,,,,,,,,,,,,,,,,,,,,,,,,,square,18,109,sing,old,yellow,1559.2072168000013,None,y,1559.2072168000013,None,"['y', 'return']","[0.6203490999905625, 0.8364017999992939]",1559.2072168000013,None,,,11,001,2023_Feb_15_1014,ExactRep-v3-final,2021.2.3,59.78991021293257,
,,,,,,,,,,,,109,0,109,0,,,,,,,,,,,,,,,,,,,,,,,,,,,,,,,,,,,,,,,,,,,,,,,,,1561.8024060000025,None,,,,,,,,,,,,,,,,,,,,,,,,,,,,,,,,,,,,,,,,,,,,,,,,,,,,,,,,,clock,129,110,silent,new,yellow,1560.592769099996,None,y,1560.592769099996,None,"['y', 'return']","[0.9867980000126408, 1.1628020000061952]",1560.592769099996,None,,,11,001,2023_Feb_15_1014,ExactRep-v3-final,2021.2.3,59.78991021293257,
,,,,,,,,,,,,110,0,110,0,,,,,,,,,,,,,,,,,,,,,,,,,,,,,,,,,,,,,,,,,,,,,,,,,1563.1369167999947,None,,,,,,,,,,,,,,,,,,,,,,,,,,,,,,,,,,,,,,,,,,,,,,,,,,,,,,,,,dress,206,111,aloud,new,yellow,1562.3121800999943,None,n,1562.3121800999943,None,"['n', 'return']","[0.5794492999993963, 0.7874583999946481]",1562.3121800999943,None,,,11,001,2023_Feb_15_1014,ExactRep-v3-final,2021.2.3,59.78991021293257,
,,,,,,,,,,,,111,0,111,0,,,,,,,,,,,,,,,,,,,,,,,,,,,,,,,,,,,,,,,,,,,,,,,,,1564.7051792999991,None,,,,,,,,,,,,,,,,,,,,,,,,,,,,,,,,,,,,,,,,,,,,,,,,,,,,,,,,,string,216,112,aloud,new,yellow,1563.6530118999945,None,n,1563.6530118999945,None,"['n', 'return']","[0.870514499998535, 1.0065459000034025]",1563.6530118999945,None,,,11,001,2023_Feb_15_1014,ExactRep-v3-final,2021.2.3,59.78991021293257,
,,,,,,,,,,,,112,0,112,0,,,,,,,,,,,,,,,,,,,,,,,,,,,,,,,,,,,,,,,,,,,,,,,,,1566.4069890999963,None,,,,,,,,,,,,,,,,,,,,,,,,,,,,,,,,,,,,,,,,,,,,,,,,,,,,,,,,,spirit,130,113,silent,new,yellow,1565.2150312000012,None,n,1565.2150312000012,None,"['n', 'return']","[0.972543100011535, 1.1566347000043606]",1565.2150312000012,None,,,11,001,2023_Feb_15_1014,ExactRep-v3-final,2021.2.3,59.78991021293257,
,,,,,,,,,,,,113,0,113,0,,,,,,,,,,,,,,,,,,,,,,,,,,,,,,,,,,,,,,,,,,,,,,,,,1568.0751967999968,None,,,,,,,,,,,,,,,,,,,,,,,,,,,,,,,,,,,,,,,,,,,,,,,,,,,,,,,,,storm,140,114,silent,new,yellow,1566.9137196999945,None,n,1566.9137196999945,None,"['n', 'return']","[0.7617654000059702, 1.1298539999988861]",1566.9137196999945,None,,,11,001,2023_Feb_15_1014,ExactRep-v3-final,2021.2.3,59.78991021293257,
,,,,,,,,,,,,114,0,114,0,,,,,,,,,,,,,,,,,,,,,,,,,,,,,,,,,,,,,,,,,,,,,,,,,1569.6775188000029,None,,,,,,,,,,,,,,,,,,,,,,,,,,,,,,,,,,,,,,,,,,,,,,,,,,,,,,,,,tree,135,115,silent,new,yellow,1568.5847112000047,None,y,1568.5847112000047,None,"['y', 'return']","[0.8429965999966953, 1.05091910000192]",1568.5847112000047,None,,,11,001,2023_Feb_15_1014,ExactRep-v3-final,2021.2.3,59.78991021293257,
,,,,,,,,,,,,115,0,115,0,,,,,,,,,,,,,,,,,,,,,,,,,,,,,,,,,,,,,,,,,,,,,,,,,1571.4952551000024,None,,,,,,,,,,,,,,,,,,,,,,,,,,,,,,,,,,,,,,,,,,,,,,,,,,,,,,,,,letter,131,116,silent,new,yellow,1570.1870854000008,None,n,1570.1870854000008,None,"['return', 'n', 'return']","[0.7204135000065435, 1.1044135999982245, 1.2726542000018526]",1570.1870854000008,None,,,11,001,2023_Feb_15_1014,ExactRep-v3-final,2021.2.3,59.78991021293257,
,,,,,,,,,,,,116,0,116,0,,,,,,,,,,,,,,,,,,,,,,,,,,,,,,,,,,,,,,,,,,,,,,,,,1573.096964700002,None,,,,,,,,,,,,,,,,,,,,,,,,,,,,,,,,,,,,,,,,,,,,,,,,,,,,,,,,,safety,194,117,aloud,new,yellow,1572.0045492000063,None,n,1572.0045492000063,None,"['n', 'return']","[0.8630429999902844, 1.0549947999970755]",1572.0045492000063,None,,,11,001,2023_Feb_15_1014,ExactRep-v3-final,2021.2.3,59.78991021293257,
,,,,,,,,,,,,117,0,117,0,,,,,,,,,,,,,,,,,,,,,,,,,,,,,,,,,,,,,,,,,,,,,,,,,1574.715194999997,None,,,,,,,,,,,,,,,,,,,,,,,,,,,,,,,,,,,,,,,,,,,,,,,,,,,,,,,,,beast,167,118,sing,new,yellow,1573.6068558999978,None,n,1573.6068558999978,None,"['n', 'return']","[0.9168718000000808, 1.0607978999905754]",1573.6068558999978,None,,,11,001,2023_Feb_15_1014,ExactRep-v3-final,2021.2.3,59.78991021293257,
,,,,,,,,,,,,118,0,118,0,,,,,,,,,,,,,,,,,,,,,,,,,,,,,,,,,,,,,,,,,,,,,,,,,1576.2667303000053,None,,,,,,,,,,,,,,,,,,,,,,,,,,,,,,,,,,,,,,,,,,,,,,,,,,,,,,,,,dollar,162,119,aloud,new,yellow,1575.2235134000075,None,n,1575.2235134000075,None,"['n', 'return']","[0.8201179999887245, 0.9962206999916816]",1575.2235134000075,None,,,11,001,2023_Feb_15_1014,ExactRep-v3-final,2021.2.3,59.78991021293257,
,,,,,,,,,,,,119,0,119,0,,,,,,,,,,,,,,,,,,,,,,,,,,,,,,,,,,,,,,,,,,,,,,,,,1577.8015793999948,None,,,,,,,,,,,,,,,,,,,,,,,,,,,,,,,,,,,,,,,,,,,,,,,,,,,,,,,,,blood,39,120,silent,old,yellow,1576.7809164000064,None,n,1576.7809164000064,None,"['n', 'return']","[0.7426178000023356, 0.98270500000217]",1576.7809164000064,None,,,11,001,2023_Feb_15_1014,ExactRep-v3-final,2021.2.3,59.78991021293257,
,,,,,,,,,,,,120,0,120,0,,,,,,,,,,,,,,,,,,,,,,,,,,,,,,,,,,,,,,,,,,,,,,,,,1579.8869715000037,None,,,,,,,,,,,,,,,,,,,,,,,,,,,,,,,,,,,,,,,,,,,,,,,,,,,,,,,,,lake,99,121,aloud,old,yellow,1578.317152100004,None,y,1578.317152100004,None,"['y', 'return']","[1.262404900000547, 1.5344928999984404]",1578.317152100004,None,,,11,001,2023_Feb_15_1014,ExactRep-v3-final,2021.2.3,59.78991021293257,
,,,,,,,,,,,,121,0,121,0,,,,,,,,,,,,,,,,,,,,,,,,,,,,,,,,,,,,,,,,,,,,,,,,,1581.2549988999963,None,,,,,,,,,,,,,,,,,,,,,,,,,,,,,,,,,,,,,,,,,,,,,,,,,,,,,,,,,cotton,89,122,aloud,old,yellow,1580.3935403000069,None,y,1580.3935403000069,None,"['y', 'return']","[0.6181230999936815, 0.8179501999984495]",1580.3935403000069,None,,,11,001,2023_Feb_15_1014,ExactRep-v3-final,2021.2.3,59.78991021293257,
,,,,,,,,,,,,122,0,122,0,,,,,,,,,,,,,,,,,,,,,,,,,,,,,,,,,,,,,,,,,,,,,,,,,1582.556343999997,None,,,,,,,,,,,,,,,,,,,,,,,,,,,,,,,,,,,,,,,,,,,,,,,,,,,,,,,,,toy,24,123,sing,old,yellow,1581.7656884000025,None,y,1581.7656884000025,None,"['y', 'return']","[0.5739322000008542, 0.7578033000027062]",1581.7656884000025,None,,,11,001,2023_Feb_15_1014,ExactRep-v3-final,2021.2.3,59.78991021293257,
,,,,,,,,,,,,123,0,123,0,,,,,,,,,,,,,,,,,,,,,,,,,,,,,,,,,,,,,,,,,,,,,,,,,1583.8576506999962,None,,,,,,,,,,,,,,,,,,,,,,,,,,,,,,,,,,,,,,,,,,,,,,,,,,,,,,,,,shore,11,124,sing,old,yellow,1583.0704838999955,None,y,1583.0704838999955,None,"['y', 'return']","[0.5650749999913387, 0.7410985999886179]",1583.0704838999955,None,,,11,001,2023_Feb_15_1014,ExactRep-v3-final,2021.2.3,59.78991021293257,
,,,,,,,,,,,,124,0,124,0,,,,,,,,,,,,,,,,,,,,,,,,,,,,,,,,,,,,,,,,,,,,,,,,,1586.6104269000061,None,,,,,,,,,,,,,,,,,,,,,,,,,,,,,,,,,,,,,,,,,,,,,,,,,,,,,,,,,mind,44,125,silent,old,yellow,1584.3702769000083,None,y,1584.3702769000083,None,"['y', 'return']","[1.9851777000003494, 2.193115799993393]",1584.3702769000083,None,,,11,001,2023_Feb_15_1014,ExactRep-v3-final,2021.2.3,59.78991021293257,
,,,,,,,,,,,,125,0,125,0,,,,,,,,,,,,,,,,,,,,,,,,,,,,,,,,,,,,,,,,,,,,,,,,,1588.2620860000025,None,,,,,,,,,,,,,,,,,,,,,,,,,,,,,,,,,,,,,,,,,,,,,,,,,,,,,,,,,time,101,126,aloud,old,yellow,1587.1194283000077,None,y,1587.1194283000077,None,"['y', 'return']","[0.724075999998604, 1.099990799993975]",1587.1194283000077,None,,,11,001,2023_Feb_15_1014,ExactRep-v3-final,2021.2.3,59.78991021293257,
,,,,,,,,,,,,126,0,126,0,,,,,,,,,,,,,,,,,,,,,,,,,,,,,,,,,,,,,,,,,,,,,,,,,1589.613521399995,None,,,,,,,,,,,,,,,,,,,,,,,,,,,,,,,,,,,,,,,,,,,,,,,,,,,,,,,,,flag,141,127,silent,new,yellow,1588.7627804000076,None,n,1588.7627804000076,None,"['n', 'return']","[0.6167410000052769, 0.8167645000066841]",1588.7627804000076,None,,,11,001,2023_Feb_15_1014,ExactRep-v3-final,2021.2.3,59.78991021293257,
,,,,,,,,,,,,127,0,127,0,,,,,,,,,,,,,,,,,,,,,,,,,,,,,,,,,,,,,,,,,,,,,,,,,1590.8824998000055,None,,,,,,,,,,,,,,,,,,,,,,,,,,,,,,,,,,,,,,,,,,,,,,,,,,,,,,,,,troops,182,128,aloud,new,yellow,1590.1243489000044,None,n,1590.1243489000044,None,"['n', 'return']","[0.519345799999428, 0.7112996999931056]",1590.1243489000044,None,,,11,001,2023_Feb_15_1014,ExactRep-v3-final,2021.2.3,59.78991021293257,
,,,,,,,,,,,,128,0,128,0,,,,,,,,,,,,,,,,,,,,,,,,,,,,,,,,,,,,,,,,,,,,,,,,,1592.349461699996,None,,,,,,,,,,,,,,,,,,,,,,,,,,,,,,,,,,,,,,,,,,,,,,,,,,,,,,,,,winter,111,129,aloud,old,yellow,1591.393746200003,None,y,1591.393746200003,None,"['y', 'return']","[0.6738111000013305, 0.913831099998788]",1591.393746200003,None,,,11,001,2023_Feb_15_1014,ExactRep-v3-final,2021.2.3,59.78991021293257,
,,,,,,,,,,,,129,0,129,0,,,,,,,,,,,,,,,,,,,,,,,,,,,,,,,,,,,,,,,,,,,,,,,,,1593.767727700004,None,,,,,,,,,,,,,,,,,,,,,,,,,,,,,,,,,,,,,,,,,,,,,,,,,,,,,,,,,woman,114,130,aloud,old,yellow,1592.8593862999987,None,y,1592.8593862999987,None,"['y', 'return']","[0.720226300007198, 0.8722285000112606]",1592.8593862999987,None,,,11,001,2023_Feb_15_1014,ExactRep-v3-final,2021.2.3,59.78991021293257,
