trials_fam.thisRepN,trials_fam.thisTrialN,trials_fam.thisN,trials_fam.thisIndex,trials_prc.thisRepN,trials_prc.thisTrialN,trials_prc.thisN,trials_prc.thisIndex,StudyLoop.thisRepN,StudyLoop.thisTrialN,StudyLoop.thisN,StudyLoop.thisIndex,TestLoop.thisRepN,TestLoop.thisTrialN,TestLoop.thisN,TestLoop.thisIndex,text_colortest.started,text_colortest.stopped,key_colortest.keys,key_colortest.rt,key_colortest.started,key_colortest.stopped,textCondition.started,textCondition.stopped,keyCondition.keys,keyCondition.rt,keyCondition.started,keyCondition.stopped,Condition_between,Condition_counterbal,keyWelcome.keys,keyWelcome.rt,keyWelcome.started,keyWelcome.stopped,welcome_a.started,welcome_a.stopped,welcome_b.started,welcome_b.stopped,welcome_c.started,welcome_c.stopped,welcome_d.started,welcome_d.stopped,welcome_e.started,welcome_e.stopped,welcome_f.started,welcome_f.stopped,key_resp_fam_inst.keys,key_resp_fam_inst.rt,key_resp_fam_inst.started,key_resp_fam_inst.stopped,fam_a.started,fam_a.stopped,fam_b.started,fam_b.stopped,fam_c.started,fam_c.stopped,fam_d.started,fam_d.stopped,fam_e.started,fam_e.stopped,fam_f.started,fam_f.stopped,text_famil.started,text_famil.stopped,textBlank500.started,textBlank500.stopped,key_resp_prc_inst.keys,key_resp_prc_inst.rt,key_resp_prc_inst.started,key_resp_prc_inst.stopped,prac_a.started,prac_a.stopped,prac_b.started,prac_b.stopped,prac_c.started,prac_c.stopped,prac_d.started,prac_d.stopped,prac_e.started,prac_e.stopped,prac_f.started,prac_f.stopped,text_prc_trial.started,text_prc_trial.stopped,key_resp_study_inst.keys,key_resp_study_inst.rt,key_resp_study_inst.started,key_resp_study_inst.stopped,crit_a.started,crit_a.stopped,crit_b.started,crit_b.stopped,crit_c.started,crit_c.stopped,crit_d.started,crit_d.stopped,crit_e.started,crit_e.stopped,crit_f.started,crit_f.stopped,study_word,study_num,study_order,study_type,word_color,textStudy.started,textStudy.stopped,keyStudy.keys,keyStudy.started,keyStudy.stopped,post_study.started,post_study.stopped,key_resp_post_study.keys,key_resp_post_study.rt,key_resp_post_study.started,key_resp_post_study.stopped,test_inst.started,test_inst.stopped,key_resp_test_inst.keys,key_resp_test_inst.rt,key_resp_test_inst.started,key_resp_test_inst.stopped,test_word,test_num,test_order,test_condition,old_new_test,word_color_test,textConf.started,textConf.stopped,Participant Response,textInput.started,textInput.stopped,keyResp.keys,keyResp.rt,keyResp.started,keyResp.stopped,textEnd.started,textEnd.stopped,participant,session,date,expName,psychopyVersion,frameRate,
,,,,,,,,,,,,,,,,32.07405709999148,None,n,0.4589407999883406,32.07405709999148,None,,,,,,,,,,,,,,,,,,,,,,,,,,,,,,,,,,,,,,,,,,,,,,,,,,,,,,,,,,,,,,,,,,,,,,,,,,,,,,,,,,,,,,,,,,,,,,,,,,,,,,,,,,,,,,,,,,,,,,12,001,2023_Feb_15_1119,ExactRep-v3-final,2021.2.3,59.94326968850518,
,,,,,,,,,,,,,,,,,,,,,,32.55098669999279,None,f,1.0540561999951024,32.55098669999279,None,,,,,,,,,,,,,,,,,,,,,,,,,,,,,,,,,,,,,,,,,,,,,,,,,,,,,,,,,,,,,,,,,,,,,,,,,,,,,,,,,,,,,,,,,,,,,,,,,,,,,,,,,,,,,,,,12,001,2023_Feb_15_1119,ExactRep-v3-final,2021.2.3,59.94326968850518,
,,,,,,,,,,,,,,,,,,,,,,,,,,,,whitefoils,f,space,737.1257444000075,43.783696400001645,None,,,,,,,,,,,,,,,,,,,,,,,,,,,,,,,,,,,,,,,,,,,,,,,,,,,,,,,,,,,,,,,,,,,,,,,,,,,,,,,,,,,,,,,,,,,,,,,,,,,,,,,,,,12,001,2023_Feb_15_1119,ExactRep-v3-final,2021.2.3,59.94326968850518,
,,,,,,,,,,,,,,,,,,,,,,,,,,,,,,,,,,33.81150060000073,None,33.81150060000073,None,33.81150060000073,None,33.81150060000073,None,33.81150060000073,None,33.81150060000073,None,space,26.040071700001135,791.0294882000017,None,,,,,,,,,,,,,,,,,,,,,,,,,,,,,,,,,,,,,,,,,,,,,,,,,,,,,,,,,,,,,,,,,,,,,,,,,,,,,,,,,,,,,,,,,,12,001,2023_Feb_15_1119,ExactRep-v3-final,2021.2.3,59.94326968850518,
0,0,0,0,,,,,,,,,,,,,,,,,,,,,,,,,,,,,,,,,,,,,,,,,,,,,,,781.0576411999937,None,781.0576411999937,None,781.0576411999937,None,781.0576411999937,None,781.0576411999937,None,781.0576411999937,None,817.1945594999997,None,819.1874305999954,None,,,,,,,,,,,,,,,,,,,,,,,,,,,,,,,,,,,,,,,,,,,,,,,,,,,,,,,,,,,,,,,,,,,,,,,,,,12,001,2023_Feb_15_1119,ExactRep-v3-final,2021.2.3,59.94326968850518,
1,0,1,0,,,,,,,,,,,,,,,,,,,,,,,,,,,,,,,,,,,,,,,,,,,,,,,,,,,,,,,,,,,819.7111116000015,None,821.7068053999974,None,,,,,,,,,,,,,,,,,,,,,,,,,,,,,,,,,,,,,,,,,,,,,,,,,,,,,,,,,,,,,,,,,,,,,,,,,,12,001,2023_Feb_15_1119,ExactRep-v3-final,2021.2.3,59.94326968850518,
2,0,2,0,,,,,,,,,,,,,,,,,,,,,,,,,,,,,,,,,,,,,,,,,,,,,,,,,,,,,,,,,,,822.2072780000017,None,824.2091403999948,None,,,,,,,,,,,,,,,,,,,,,,,,,,,,,,,,,,,,,,,,,,,,,,,,,,,,,,,,,,,,,,,,,,,,,,,,,,12,001,2023_Feb_15_1119,ExactRep-v3-final,2021.2.3,59.94326968850518,
3,0,3,0,,,,,,,,,,,,,,,,,,,,,,,,,,,,,,,,,,,,,,,,,,,,,,,,,,,,,,,,,,,824.7203351999924,None,826.7282760999951,None,,,,,,,,,,,,,,,,,,,,,,,,,,,,,,,,,,,,,,,,,,,,,,,,,,,,,,,,,,,,,,,,,,,,,,,,,,12,001,2023_Feb_15_1119,ExactRep-v3-final,2021.2.3,59.94326968850518,
4,0,4,0,,,,,,,,,,,,,,,,,,,,,,,,,,,,,,,,,,,,,,,,,,,,,,,,,,,,,,,,,,,827.2288052999938,None,829.2307811999926,None,,,,,,,,,,,,,,,,,,,,,,,,,,,,,,,,,,,,,,,,,,,,,,,,,,,,,,,,,,,,,,,,,,,,,,,,,,12,001,2023_Feb_15_1119,ExactRep-v3-final,2021.2.3,59.94326968850518,
5,0,5,0,,,,,,,,,,,,,,,,,,,,,,,,,,,,,,,,,,,,,,,,,,,,,,,,,,,,,,,,,,,829.7313442000013,None,831.7333202000009,None,,,,,,,,,,,,,,,,,,,,,,,,,,,,,,,,,,,,,,,,,,,,,,,,,,,,,,,,,,,,,,,,,,,,,,,,,,12,001,2023_Feb_15_1119,ExactRep-v3-final,2021.2.3,59.94326968850518,
6,0,6,0,,,,,,,,,,,,,,,,,,,,,,,,,,,,,,,,,,,,,,,,,,,,,,,,,,,,,,,,,,,832.2356779999973,None,834.2358315999882,None,,,,,,,,,,,,,,,,,,,,,,,,,,,,,,,,,,,,,,,,,,,,,,,,,,,,,,,,,,,,,,,,,,,,,,,,,,12,001,2023_Feb_15_1119,ExactRep-v3-final,2021.2.3,59.94326968850518,
7,0,7,0,,,,,,,,,,,,,,,,,,,,,,,,,,,,,,,,,,,,,,,,,,,,,,,,,,,,,,,,,,,834.7383636000013,None,836.7384520999913,None,,,,,,,,,,,,,,,,,,,,,,,,,,,,,,,,,,,,,,,,,,,,,,,,,,,,,,,,,,,,,,,,,,,,,,,,,,12,001,2023_Feb_15_1119,ExactRep-v3-final,2021.2.3,59.94326968850518,
8,0,8,0,,,,,,,,,,,,,,,,,,,,,,,,,,,,,,,,,,,,,,,,,,,,,,,,,,,,,,,,,,,837.2417743999977,None,839.2408374999941,None,,,,,,,,,,,,,,,,,,,,,,,,,,,,,,,,,,,,,,,,,,,,,,,,,,,,,,,,,,,,,,,,,,,,,,,,,,12,001,2023_Feb_15_1119,ExactRep-v3-final,2021.2.3,59.94326968850518,
9,0,9,0,,,,,,,,,,,,,,,,,,,,,,,,,,,,,,,,,,,,,,,,,,,,,,,,,,,,,,,,,,,839.743424100001,None,841.743475700001,None,,,,,,,,,,,,,,,,,,,,,,,,,,,,,,,,,,,,,,,,,,,,,,,,,,,,,,,,,,,,,,,,,,,,,,,,,,12,001,2023_Feb_15_1119,ExactRep-v3-final,2021.2.3,59.94326968850518,
10,0,10,0,,,,,,,,,,,,,,,,,,,,,,,,,,,,,,,,,,,,,,,,,,,,,,,,,,,,,,,,,,,842.2459022999974,None,844.245834699992,None,,,,,,,,,,,,,,,,,,,,,,,,,,,,,,,,,,,,,,,,,,,,,,,,,,,,,,,,,,,,,,,,,,,,,,,,,,12,001,2023_Feb_15_1119,ExactRep-v3-final,2021.2.3,59.94326968850518,
11,0,11,0,,,,,,,,,,,,,,,,,,,,,,,,,,,,,,,,,,,,,,,,,,,,,,,,,,,,,,,,,,,844.7493204999919,None,846.7483553999919,None,,,,,,,,,,,,,,,,,,,,,,,,,,,,,,,,,,,,,,,,,,,,,,,,,,,,,,,,,,,,,,,,,,,,,,,,,,12,001,2023_Feb_15_1119,ExactRep-v3-final,2021.2.3,59.94326968850518,
12,0,12,0,,,,,,,,,,,,,,,,,,,,,,,,,,,,,,,,,,,,,,,,,,,,,,,,,,,,,,,,,,,847.2489290999947,None,849.2508510999905,None,,,,,,,,,,,,,,,,,,,,,,,,,,,,,,,,,,,,,,,,,,,,,,,,,,,,,,,,,,,,,,,,,,,,,,,,,,12,001,2023_Feb_15_1119,ExactRep-v3-final,2021.2.3,59.94326968850518,
13,0,13,0,,,,,,,,,,,,,,,,,,,,,,,,,,,,,,,,,,,,,,,,,,,,,,,,,,,,,,,,,,,849.756361599997,None,851.7700215999939,None,,,,,,,,,,,,,,,,,,,,,,,,,,,,,,,,,,,,,,,,,,,,,,,,,,,,,,,,,,,,,,,,,,,,,,,,,,12,001,2023_Feb_15_1119,ExactRep-v3-final,2021.2.3,59.94326968850518,
14,0,14,0,,,,,,,,,,,,,,,,,,,,,,,,,,,,,,,,,,,,,,,,,,,,,,,,,,,,,,,,,,,852.2703448999964,None,854.2725195999956,None,,,,,,,,,,,,,,,,,,,,,,,,,,,,,,,,,,,,,,,,,,,,,,,,,,,,,,,,,,,,,,,,,,,,,,,,,,12,001,2023_Feb_15_1119,ExactRep-v3-final,2021.2.3,59.94326968850518,
,,,,,,,,,,,,,,,,,,,,,,,,,,,,,,,,,,,,,,,,,,,,,,,,,,,,,,,,,,,,,,,,,,space,20.91029549999803,864.8872053999949,None,,,,,,,,,,,,,,,,,,,,,,,,,,,,,,,,,,,,,,,,,,,,,,,,,,,,,,,,,,,,,,,,,,,,,,12,001,2023_Feb_15_1119,ExactRep-v3-final,2021.2.3,59.94326968850518,
,,,,0,0,0,0,,,,,,,,,,,,,,,,,,,,,,,,,,,,,,,,,,,,,,,,,,,,,,,,,,,,,,,,,887.9061298999877,None,,,,,854.9361568999884,None,854.9361568999884,None,854.9361568999884,None,854.9361568999884,None,854.9361568999884,None,854.9361568999884,None,885.8946772999916,None,,,,,,,,,,,,,,,,,,,,,,,,,,,,,,,,,,,,,,,,,,,,,,,,,,,,,,,,12,001,2023_Feb_15_1119,ExactRep-v3-final,2021.2.3,59.94326968850518,
,,,,1,0,1,0,,,,,,,,,,,,,,,,,,,,,,,,,,,,,,,,,,,,,,,,,,,,,,,,,,,,,,,,,890.4084894999978,None,,,,,,,,,,,,,,,,,888.4063872999977,None,,,,,,,,,,,,,,,,,,,,,,,,,,,,,,,,,,,,,,,,,,,,,,,,,,,,,,,,12,001,2023_Feb_15_1119,ExactRep-v3-final,2021.2.3,59.94326968850518,
,,,,2,0,2,0,,,,,,,,,,,,,,,,,,,,,,,,,,,,,,,,,,,,,,,,,,,,,,,,,,,,,,,,,892.9111355999921,None,,,,,,,,,,,,,,,,,890.9093173000001,None,,,,,,,,,,,,,,,,,,,,,,,,,,,,,,,,,,,,,,,,,,,,,,,,,,,,,,,,12,001,2023_Feb_15_1119,ExactRep-v3-final,2021.2.3,59.94326968850518,
,,,,3,0,3,0,,,,,,,,,,,,,,,,,,,,,,,,,,,,,,,,,,,,,,,,,,,,,,,,,,,,,,,,,895.4136511999968,None,,,,,,,,,,,,,,,,,893.4115127999976,None,,,,,,,,,,,,,,,,,,,,,,,,,,,,,,,,,,,,,,,,,,,,,,,,,,,,,,,,12,001,2023_Feb_15_1119,ExactRep-v3-final,2021.2.3,59.94326968850518,
,,,,4,0,4,0,,,,,,,,,,,,,,,,,,,,,,,,,,,,,,,,,,,,,,,,,,,,,,,,,,,,,,,,,897.9161368999921,None,,,,,,,,,,,,,,,,,895.9143190999894,None,,,,,,,,,,,,,,,,,,,,,,,,,,,,,,,,,,,,,,,,,,,,,,,,,,,,,,,,12,001,2023_Feb_15_1119,ExactRep-v3-final,2021.2.3,59.94326968850518,
,,,,5,0,5,0,,,,,,,,,,,,,,,,,,,,,,,,,,,,,,,,,,,,,,,,,,,,,,,,,,,,,,,,,900.418720799993,None,,,,,,,,,,,,,,,,,898.4166912999935,None,,,,,,,,,,,,,,,,,,,,,,,,,,,,,,,,,,,,,,,,,,,,,,,,,,,,,,,,12,001,2023_Feb_15_1119,ExactRep-v3-final,2021.2.3,59.94326968850518,
,,,,6,0,6,0,,,,,,,,,,,,,,,,,,,,,,,,,,,,,,,,,,,,,,,,,,,,,,,,,,,,,,,,,902.921282299998,None,,,,,,,,,,,,,,,,,900.9192616999935,None,,,,,,,,,,,,,,,,,,,,,,,,,,,,,,,,,,,,,,,,,,,,,,,,,,,,,,,,12,001,2023_Feb_15_1119,ExactRep-v3-final,2021.2.3,59.94326968850518,
,,,,7,0,7,0,,,,,,,,,,,,,,,,,,,,,,,,,,,,,,,,,,,,,,,,,,,,,,,,,,,,,,,,,905.42363569999,None,,,,,,,,,,,,,,,,,903.4218876999948,None,,,,,,,,,,,,,,,,,,,,,,,,,,,,,,,,,,,,,,,,,,,,,,,,,,,,,,,,12,001,2023_Feb_15_1119,ExactRep-v3-final,2021.2.3,59.94326968850518,
,,,,8,0,8,0,,,,,,,,,,,,,,,,,,,,,,,,,,,,,,,,,,,,,,,,,,,,,,,,,,,,,,,,,907.9262536999886,None,,,,,,,,,,,,,,,,,905.9241158999939,None,,,,,,,,,,,,,,,,,,,,,,,,,,,,,,,,,,,,,,,,,,,,,,,,,,,,,,,,12,001,2023_Feb_15_1119,ExactRep-v3-final,2021.2.3,59.94326968850518,
,,,,9,0,9,0,,,,,,,,,,,,,,,,,,,,,,,,,,,,,,,,,,,,,,,,,,,,,,,,,,,,,,,,,910.4288450999884,None,,,,,,,,,,,,,,,,,908.4265522999922,None,,,,,,,,,,,,,,,,,,,,,,,,,,,,,,,,,,,,,,,,,,,,,,,,,,,,,,,,12,001,2023_Feb_15_1119,ExactRep-v3-final,2021.2.3,59.94326968850518,
,,,,10,0,10,0,,,,,,,,,,,,,,,,,,,,,,,,,,,,,,,,,,,,,,,,,,,,,,,,,,,,,,,,,912.9312513999903,None,,,,,,,,,,,,,,,,,910.9293715999956,None,,,,,,,,,,,,,,,,,,,,,,,,,,,,,,,,,,,,,,,,,,,,,,,,,,,,,,,,12,001,2023_Feb_15_1119,ExactRep-v3-final,2021.2.3,59.94326968850518,
,,,,11,0,11,0,,,,,,,,,,,,,,,,,,,,,,,,,,,,,,,,,,,,,,,,,,,,,,,,,,,,,,,,,915.4335583999928,None,,,,,,,,,,,,,,,,,913.4316970999935,None,,,,,,,,,,,,,,,,,,,,,,,,,,,,,,,,,,,,,,,,,,,,,,,,,,,,,,,,12,001,2023_Feb_15_1119,ExactRep-v3-final,2021.2.3,59.94326968850518,
,,,,12,0,12,0,,,,,,,,,,,,,,,,,,,,,,,,,,,,,,,,,,,,,,,,,,,,,,,,,,,,,,,,,917.9361933999899,None,,,,,,,,,,,,,,,,,915.9343518999958,None,,,,,,,,,,,,,,,,,,,,,,,,,,,,,,,,,,,,,,,,,,,,,,,,,,,,,,,,12,001,2023_Feb_15_1119,ExactRep-v3-final,2021.2.3,59.94326968850518,
,,,,13,0,13,0,,,,,,,,,,,,,,,,,,,,,,,,,,,,,,,,,,,,,,,,,,,,,,,,,,,,,,,,,920.4386720999901,None,,,,,,,,,,,,,,,,,918.4367415000015,None,,,,,,,,,,,,,,,,,,,,,,,,,,,,,,,,,,,,,,,,,,,,,,,,,,,,,,,,12,001,2023_Feb_15_1119,ExactRep-v3-final,2021.2.3,59.94326968850518,
,,,,14,0,14,0,,,,,,,,,,,,,,,,,,,,,,,,,,,,,,,,,,,,,,,,,,,,,,,,,,,,,,,,,922.9411962000013,None,,,,,,,,,,,,,,,,,920.9392852999881,None,,,,,,,,,,,,,,,,,,,,,,,,,,,,,,,,,,,,,,,,,,,,,,,,,,,,,,,,12,001,2023_Feb_15_1119,ExactRep-v3-final,2021.2.3,59.94326968850518,
,,,,,,,,,,,,,,,,,,,,,,,,,,,,,,,,,,,,,,,,,,,,,,,,,,,,,,,,,,,,,,,,,,,,,,,,,,,,,,,,,,,,space,24.34026040000026,933.5854127999919,None,,,,,,,,,,,,,,,,,,,,,,,,,,,,,,,,,,,,,,,,,,,,,,,,,,,,12,001,2023_Feb_15_1119,ExactRep-v3-final,2021.2.3,59.94326968850518,
,,,,,,,,0,0,0,0,,,,,,,,,,,,,,,,,,,,,,,,,,,,,,,,,,,,,,,,,,,,,,,,,,,,,960.0450189999974,None,,,,,,,,,,,,,,,,,,,,,,,923.6182621999906,None,923.6182621999906,None,923.6182621999906,None,923.6182621999906,None,923.6182621999906,None,923.6182621999906,None,woods,76,1,silent,blue,958.03783809999,None,None,958.03783809999,None,,,,,,,,,,,,,,,,,,,,,,,,,,,,,,12,001,2023_Feb_15_1119,ExactRep-v3-final,2021.2.3,59.94326968850518,
,,,,,,,,1,0,1,0,,,,,,,,,,,,,,,,,,,,,,,,,,,,,,,,,,,,,,,,,,,,,,,,,,,,,962.564177799999,None,,,,,,,,,,,,,,,,,,,,,,,,,,,,,,,,,,,hour,21,2,sing,red,960.5543002999912,None,None,960.5543002999912,None,,,,,,,,,,,,,,,,,,,,,,,,,,,,,,12,001,2023_Feb_15_1119,ExactRep-v3-final,2021.2.3,59.94326968850518,
,,,,,,,,2,0,2,0,,,,,,,,,,,,,,,,,,,,,,,,,,,,,,,,,,,,,,,,,,,,,,,,,,,,,965.0668917000003,None,,,,,,,,,,,,,,,,,,,,,,,,,,,,,,,,,,,sea,39,3,silent,blue,963.0655441999988,None,None,963.0655441999988,None,,,,,,,,,,,,,,,,,,,,,,,,,,,,,,12,001,2023_Feb_15_1119,ExactRep-v3-final,2021.2.3,59.94326968850518,
,,,,,,,,3,0,3,0,,,,,,,,,,,,,,,,,,,,,,,,,,,,,,,,,,,,,,,,,,,,,,,,,,,,,967.5692644999945,None,,,,,,,,,,,,,,,,,,,,,,,,,,,,,,,,,,,gift,103,4,aloud,white,965.5701398999954,None,None,965.5701398999954,None,,,,,,,,,,,,,,,,,,,,,,,,,,,,,,12,001,2023_Feb_15_1119,ExactRep-v3-final,2021.2.3,59.94326968850518,
,,,,,,,,4,0,4,0,,,,,,,,,,,,,,,,,,,,,,,,,,,,,,,,,,,,,,,,,,,,,,,,,,,,,970.0714479000017,None,,,,,,,,,,,,,,,,,,,,,,,,,,,,,,,,,,,ship,91,5,aloud,white,968.0721081999945,None,None,968.0721081999945,None,,,,,,,,,,,,,,,,,,,,,,,,,,,,,,12,001,2023_Feb_15_1119,ExactRep-v3-final,2021.2.3,59.94326968850518,
,,,,,,,,5,0,5,0,,,,,,,,,,,,,,,,,,,,,,,,,,,,,,,,,,,,,,,,,,,,,,,,,,,,,972.5908301000018,None,,,,,,,,,,,,,,,,,,,,,,,,,,,,,,,,,,,cat,77,6,silent,blue,970.5811008000019,None,None,970.5811008000019,None,,,,,,,,,,,,,,,,,,,,,,,,,,,,,,12,001,2023_Feb_15_1119,ExactRep-v3-final,2021.2.3,59.94326968850518,
,,,,,,,,6,0,6,0,,,,,,,,,,,,,,,,,,,,,,,,,,,,,,,,,,,,,,,,,,,,,,,,,,,,,975.0933229999937,None,,,,,,,,,,,,,,,,,,,,,,,,,,,,,,,,,,,coast,118,7,aloud,white,973.0913338999962,None,None,973.0913338999962,None,,,,,,,,,,,,,,,,,,,,,,,,,,,,,,12,001,2023_Feb_15_1119,ExactRep-v3-final,2021.2.3,59.94326968850518,
,,,,,,,,7,0,7,0,,,,,,,,,,,,,,,,,,,,,,,,,,,,,,,,,,,,,,,,,,,,,,,,,,,,,977.5958320999925,None,,,,,,,,,,,,,,,,,,,,,,,,,,,,,,,,,,,honour,85,8,aloud,white,975.5956134000007,None,None,975.5956134000007,None,,,,,,,,,,,,,,,,,,,,,,,,,,,,,,12,001,2023_Feb_15_1119,ExactRep-v3-final,2021.2.3,59.94326968850518,
,,,,,,,,8,0,8,0,,,,,,,,,,,,,,,,,,,,,,,,,,,,,,,,,,,,,,,,,,,,,,,,,,,,,980.114865399999,None,,,,,,,,,,,,,,,,,,,,,,,,,,,,,,,,,,,judge,2,9,sing,red,978.1008403999876,None,None,978.1008403999876,None,,,,,,,,,,,,,,,,,,,,,,,,,,,,,,12,001,2023_Feb_15_1119,ExactRep-v3-final,2021.2.3,59.94326968850518,
,,,,,,,,9,0,9,0,,,,,,,,,,,,,,,,,,,,,,,,,,,,,,,,,,,,,,,,,,,,,,,,,,,,,982.634235999998,None,,,,,,,,,,,,,,,,,,,,,,,,,,,,,,,,,,,ticket,71,10,silent,blue,980.6197371999879,None,None,980.6197371999879,None,,,,,,,,,,,,,,,,,,,,,,,,,,,,,,12,001,2023_Feb_15_1119,ExactRep-v3-final,2021.2.3,59.94326968850518,
,,,,,,,,10,0,10,0,,,,,,,,,,,,,,,,,,,,,,,,,,,,,,,,,,,,,,,,,,,,,,,,,,,,,985.136732599989,None,,,,,,,,,,,,,,,,,,,,,,,,,,,,,,,,,,,picture,113,11,aloud,white,983.1358023999928,None,None,983.1358023999928,None,,,,,,,,,,,,,,,,,,,,,,,,,,,,,,12,001,2023_Feb_15_1119,ExactRep-v3-final,2021.2.3,59.94326968850518,
,,,,,,,,11,0,11,0,,,,,,,,,,,,,,,,,,,,,,,,,,,,,,,,,,,,,,,,,,,,,,,,,,,,,987.6391008999926,None,,,,,,,,,,,,,,,,,,,,,,,,,,,,,,,,,,,city,47,12,silent,blue,985.6394989999972,None,None,985.6394989999972,None,,,,,,,,,,,,,,,,,,,,,,,,,,,,,,12,001,2023_Feb_15_1119,ExactRep-v3-final,2021.2.3,59.94326968850518,
,,,,,,,,12,0,12,0,,,,,,,,,,,,,,,,,,,,,,,,,,,,,,,,,,,,,,,,,,,,,,,,,,,,,990.1584040999878,None,,,,,,,,,,,,,,,,,,,,,,,,,,,,,,,,,,,apple,64,13,silent,blue,988.1430197000009,None,None,988.1430197000009,None,,,,,,,,,,,,,,,,,,,,,,,,,,,,,,12,001,2023_Feb_15_1119,ExactRep-v3-final,2021.2.3,59.94326968850518,
,,,,,,,,13,0,13,0,,,,,,,,,,,,,,,,,,,,,,,,,,,,,,,,,,,,,,,,,,,,,,,,,,,,,992.6776641999895,None,,,,,,,,,,,,,,,,,,,,,,,,,,,,,,,,,,,maiden,41,14,silent,blue,990.6625026999973,None,None,990.6625026999973,None,,,,,,,,,,,,,,,,,,,,,,,,,,,,,,12,001,2023_Feb_15_1119,ExactRep-v3-final,2021.2.3,59.94326968850518,
,,,,,,,,14,0,14,0,,,,,,,,,,,,,,,,,,,,,,,,,,,,,,,,,,,,,,,,,,,,,,,,,,,,,995.1966586999915,None,,,,,,,,,,,,,,,,,,,,,,,,,,,,,,,,,,,home,70,15,silent,blue,993.1848890999972,None,None,993.1848890999972,None,,,,,,,,,,,,,,,,,,,,,,,,,,,,,,12,001,2023_Feb_15_1119,ExactRep-v3-final,2021.2.3,59.94326968850518,
,,,,,,,,15,0,15,0,,,,,,,,,,,,,,,,,,,,,,,,,,,,,,,,,,,,,,,,,,,,,,,,,,,,,997.6993054999912,None,,,,,,,,,,,,,,,,,,,,,,,,,,,,,,,,,,,car,109,16,aloud,white,995.6972905000002,None,None,995.6972905000002,None,,,,,,,,,,,,,,,,,,,,,,,,,,,,,,12,001,2023_Feb_15_1119,ExactRep-v3-final,2021.2.3,59.94326968850518,
,,,,,,,,16,0,16,0,,,,,,,,,,,,,,,,,,,,,,,,,,,,,,,,,,,,,,,,,,,,,,,,,,,,,1000.2185096999892,None,,,,,,,,,,,,,,,,,,,,,,,,,,,,,,,,,,,dollar,8,17,sing,red,998.2100165000011,None,None,998.2100165000011,None,,,,,,,,,,,,,,,,,,,,,,,,,,,,,,12,001,2023_Feb_15_1119,ExactRep-v3-final,2021.2.3,59.94326968850518,
,,,,,,,,17,0,17,0,,,,,,,,,,,,,,,,,,,,,,,,,,,,,,,,,,,,,,,,,,,,,,,,,,,,,1002.7210163999989,None,,,,,,,,,,,,,,,,,,,,,,,,,,,,,,,,,,,cottage,116,18,aloud,white,1000.7186175999959,None,None,1000.7186175999959,None,,,,,,,,,,,,,,,,,,,,,,,,,,,,,,12,001,2023_Feb_15_1119,ExactRep-v3-final,2021.2.3,59.94326968850518,
,,,,,,,,18,0,18,0,,,,,,,,,,,,,,,,,,,,,,,,,,,,,,,,,,,,,,,,,,,,,,,,,,,,,1005.2400136999931,None,,,,,,,,,,,,,,,,,,,,,,,,,,,,,,,,,,,style,72,19,silent,blue,1003.2265891999996,None,None,1003.2265891999996,None,,,,,,,,,,,,,,,,,,,,,,,,,,,,,,12,001,2023_Feb_15_1119,ExactRep-v3-final,2021.2.3,59.94326968850518,
,,,,,,,,19,0,19,0,,,,,,,,,,,,,,,,,,,,,,,,,,,,,,,,,,,,,,,,,,,,,,,,,,,,,1007.7425053999905,None,,,,,,,,,,,,,,,,,,,,,,,,,,,,,,,,,,,grief,60,20,silent,blue,1005.7404561000003,None,None,1005.7404561000003,None,,,,,,,,,,,,,,,,,,,,,,,,,,,,,,12,001,2023_Feb_15_1119,ExactRep-v3-final,2021.2.3,59.94326968850518,
,,,,,,,,20,0,20,0,,,,,,,,,,,,,,,,,,,,,,,,,,,,,,,,,,,,,,,,,,,,,,,,,,,,,1010.2449603999994,None,,,,,,,,,,,,,,,,,,,,,,,,,,,,,,,,,,,brain,12,21,sing,red,1008.2430452999979,None,None,1008.2430452999979,None,,,,,,,,,,,,,,,,,,,,,,,,,,,,,,12,001,2023_Feb_15_1119,ExactRep-v3-final,2021.2.3,59.94326968850518,
,,,,,,,,21,0,21,0,,,,,,,,,,,,,,,,,,,,,,,,,,,,,,,,,,,,,,,,,,,,,,,,,,,,,1012.7643894999928,None,,,,,,,,,,,,,,,,,,,,,,,,,,,,,,,,,,,shock,13,22,sing,red,1010.7541865999956,None,None,1010.7541865999956,None,,,,,,,,,,,,,,,,,,,,,,,,,,,,,,12,001,2023_Feb_15_1119,ExactRep-v3-final,2021.2.3,59.94326968850518,
,,,,,,,,22,0,22,0,,,,,,,,,,,,,,,,,,,,,,,,,,,,,,,,,,,,,,,,,,,,,,,,,,,,,1015.2668470999924,None,,,,,,,,,,,,,,,,,,,,,,,,,,,,,,,,,,,skin,104,23,aloud,white,1013.2646685999935,None,None,1013.2646685999935,None,,,,,,,,,,,,,,,,,,,,,,,,,,,,,,12,001,2023_Feb_15_1119,ExactRep-v3-final,2021.2.3,59.94326968850518,
,,,,,,,,23,0,23,0,,,,,,,,,,,,,,,,,,,,,,,,,,,,,,,,,,,,,,,,,,,,,,,,,,,,,1017.7693144999939,None,,,,,,,,,,,,,,,,,,,,,,,,,,,,,,,,,,,grass,100,24,aloud,white,1015.7675978999905,None,None,1015.7675978999905,None,,,,,,,,,,,,,,,,,,,,,,,,,,,,,,12,001,2023_Feb_15_1119,ExactRep-v3-final,2021.2.3,59.94326968850518,
,,,,,,,,24,0,24,0,,,,,,,,,,,,,,,,,,,,,,,,,,,,,,,,,,,,,,,,,,,,,,,,,,,,,1020.2719340999902,None,,,,,,,,,,,,,,,,,,,,,,,,,,,,,,,,,,,party,44,25,silent,blue,1018.2700779000006,None,None,1018.2700779000006,None,,,,,,,,,,,,,,,,,,,,,,,,,,,,,,12,001,2023_Feb_15_1119,ExactRep-v3-final,2021.2.3,59.94326968850518,
,,,,,,,,25,0,25,0,,,,,,,,,,,,,,,,,,,,,,,,,,,,,,,,,,,,,,,,,,,,,,,,,,,,,1022.7910016999958,None,,,,,,,,,,,,,,,,,,,,,,,,,,,,,,,,,,,boy,14,26,sing,red,1020.7769631999981,None,None,1020.7769631999981,None,,,,,,,,,,,,,,,,,,,,,,,,,,,,,,12,001,2023_Feb_15_1119,ExactRep-v3-final,2021.2.3,59.94326968850518,
,,,,,,,,26,0,26,0,,,,,,,,,,,,,,,,,,,,,,,,,,,,,,,,,,,,,,,,,,,,,,,,,,,,,1025.2935317999945,None,,,,,,,,,,,,,,,,,,,,,,,,,,,,,,,,,,,mind,22,27,sing,red,1023.2914017000003,None,None,1023.2914017000003,None,,,,,,,,,,,,,,,,,,,,,,,,,,,,,,12,001,2023_Feb_15_1119,ExactRep-v3-final,2021.2.3,59.94326968850518,
,,,,,,,,27,0,27,0,,,,,,,,,,,,,,,,,,,,,,,,,,,,,,,,,,,,,,,,,,,,,,,,,,,,,1027.7960892999981,None,,,,,,,,,,,,,,,,,,,,,,,,,,,,,,,,,,,bar,3,28,sing,red,1025.7957009999955,None,None,1025.7957009999955,None,,,,,,,,,,,,,,,,,,,,,,,,,,,,,,12,001,2023_Feb_15_1119,ExactRep-v3-final,2021.2.3,59.94326968850518,
,,,,,,,,28,0,28,0,,,,,,,,,,,,,,,,,,,,,,,,,,,,,,,,,,,,,,,,,,,,,,,,,,,,,1030.3151375999878,None,,,,,,,,,,,,,,,,,,,,,,,,,,,,,,,,,,,beast,32,29,sing,red,1028.3021915999998,None,None,1028.3021915999998,None,,,,,,,,,,,,,,,,,,,,,,,,,,,,,,12,001,2023_Feb_15_1119,ExactRep-v3-final,2021.2.3,59.94326968850518,
,,,,,,,,29,0,29,0,,,,,,,,,,,,,,,,,,,,,,,,,,,,,,,,,,,,,,,,,,,,,,,,,,,,,1032.8344479999942,None,,,,,,,,,,,,,,,,,,,,,,,,,,,,,,,,,,,speech,15,30,sing,red,1030.827871699992,None,None,1030.827871699992,None,,,,,,,,,,,,,,,,,,,,,,,,,,,,,,12,001,2023_Feb_15_1119,ExactRep-v3-final,2021.2.3,59.94326968850518,
,,,,,,,,30,0,30,0,,,,,,,,,,,,,,,,,,,,,,,,,,,,,,,,,,,,,,,,,,,,,,,,,,,,,1035.3369123000011,None,,,,,,,,,,,,,,,,,,,,,,,,,,,,,,,,,,,murder,49,31,silent,blue,1033.3359503999964,None,None,1033.3359503999964,None,,,,,,,,,,,,,,,,,,,,,,,,,,,,,,12,001,2023_Feb_15_1119,ExactRep-v3-final,2021.2.3,59.94326968850518,
,,,,,,,,31,0,31,0,,,,,,,,,,,,,,,,,,,,,,,,,,,,,,,,,,,,,,,,,,,,,,,,,,,,,1037.8560958000016,None,,,,,,,,,,,,,,,,,,,,,,,,,,,,,,,,,,,volume,11,32,sing,red,1035.8456271999894,None,None,1035.8456271999894,None,,,,,,,,,,,,,,,,,,,,,,,,,,,,,,12,001,2023_Feb_15_1119,ExactRep-v3-final,2021.2.3,59.94326968850518,
,,,,,,,,32,0,32,0,,,,,,,,,,,,,,,,,,,,,,,,,,,,,,,,,,,,,,,,,,,,,,,,,,,,,1040.3586215999967,None,,,,,,,,,,,,,,,,,,,,,,,,,,,,,,,,,,,pole,6,33,sing,red,1038.3589253999962,None,None,1038.3589253999962,None,,,,,,,,,,,,,,,,,,,,,,,,,,,,,,12,001,2023_Feb_15_1119,ExactRep-v3-final,2021.2.3,59.94326968850518,
,,,,,,,,33,0,33,0,,,,,,,,,,,,,,,,,,,,,,,,,,,,,,,,,,,,,,,,,,,,,,,,,,,,,1042.8778344999882,None,,,,,,,,,,,,,,,,,,,,,,,,,,,,,,,,,,,love,31,34,sing,red,1040.8625901999912,None,None,1040.8625901999912,None,,,,,,,,,,,,,,,,,,,,,,,,,,,,,,12,001,2023_Feb_15_1119,ExactRep-v3-final,2021.2.3,59.94326968850518,
,,,,,,,,34,0,34,0,,,,,,,,,,,,,,,,,,,,,,,,,,,,,,,,,,,,,,,,,,,,,,,,,,,,,1045.396943499989,None,,,,,,,,,,,,,,,,,,,,,,,,,,,,,,,,,,,plain,4,35,sing,red,1043.3826453999936,None,None,1043.3826453999936,None,,,,,,,,,,,,,,,,,,,,,,,,,,,,,,12,001,2023_Feb_15_1119,ExactRep-v3-final,2021.2.3,59.94326968850518,
,,,,,,,,35,0,35,0,,,,,,,,,,,,,,,,,,,,,,,,,,,,,,,,,,,,,,,,,,,,,,,,,,,,,1047.8994826999988,None,,,,,,,,,,,,,,,,,,,,,,,,,,,,,,,,,,,cabin,1,36,sing,red,1045.8975109999883,None,None,1045.8975109999883,None,,,,,,,,,,,,,,,,,,,,,,,,,,,,,,12,001,2023_Feb_15_1119,ExactRep-v3-final,2021.2.3,59.94326968850518,
,,,,,,,,36,0,36,0,,,,,,,,,,,,,,,,,,,,,,,,,,,,,,,,,,,,,,,,,,,,,,,,,,,,,1050.402049899989,None,,,,,,,,,,,,,,,,,,,,,,,,,,,,,,,,,,,palace,30,37,sing,red,1048.4017697999952,None,None,1048.4017697999952,None,,,,,,,,,,,,,,,,,,,,,,,,,,,,,,12,001,2023_Feb_15_1119,ExactRep-v3-final,2021.2.3,59.94326968850518,
,,,,,,,,37,0,37,0,,,,,,,,,,,,,,,,,,,,,,,,,,,,,,,,,,,,,,,,,,,,,,,,,,,,,1052.904464799998,None,,,,,,,,,,,,,,,,,,,,,,,,,,,,,,,,,,,fire,16,38,sing,red,1050.9042098999926,None,None,1050.9042098999926,None,,,,,,,,,,,,,,,,,,,,,,,,,,,,,,12,001,2023_Feb_15_1119,ExactRep-v3-final,2021.2.3,59.94326968850518,
,,,,,,,,38,0,38,0,,,,,,,,,,,,,,,,,,,,,,,,,,,,,,,,,,,,,,,,,,,,,,,,,,,,,1055.4069856999995,None,,,,,,,,,,,,,,,,,,,,,,,,,,,,,,,,,,,amount,79,39,sing,red,1053.4066562999942,None,None,1053.4066562999942,None,,,,,,,,,,,,,,,,,,,,,,,,,,,,,,12,001,2023_Feb_15_1119,ExactRep-v3-final,2021.2.3,59.94326968850518,
,,,,,,,,39,0,39,0,,,,,,,,,,,,,,,,,,,,,,,,,,,,,,,,,,,,,,,,,,,,,,,,,,,,,1057.9094826999935,None,,,,,,,,,,,,,,,,,,,,,,,,,,,,,,,,,,,winter,67,40,silent,blue,1055.9091303999885,None,None,1055.9091303999885,None,,,,,,,,,,,,,,,,,,,,,,,,,,,,,,12,001,2023_Feb_15_1119,ExactRep-v3-final,2021.2.3,59.94326968850518,
,,,,,,,,40,0,40,0,,,,,,,,,,,,,,,,,,,,,,,,,,,,,,,,,,,,,,,,,,,,,,,,,,,,,1060.411957599994,None,,,,,,,,,,,,,,,,,,,,,,,,,,,,,,,,,,,month,5,41,sing,red,1058.4129800999945,None,None,1058.4129800999945,None,,,,,,,,,,,,,,,,,,,,,,,,,,,,,,12,001,2023_Feb_15_1119,ExactRep-v3-final,2021.2.3,59.94326968850518,
,,,,,,,,41,0,41,0,,,,,,,,,,,,,,,,,,,,,,,,,,,,,,,,,,,,,,,,,,,,,,,,,,,,,1062.9143167000002,None,,,,,,,,,,,,,,,,,,,,,,,,,,,,,,,,,,,truth,105,42,aloud,white,1060.9128186999878,None,None,1060.9128186999878,None,,,,,,,,,,,,,,,,,,,,,,,,,,,,,,12,001,2023_Feb_15_1119,ExactRep-v3-final,2021.2.3,59.94326968850518,
,,,,,,,,42,0,42,0,,,,,,,,,,,,,,,,,,,,,,,,,,,,,,,,,,,,,,,,,,,,,,,,,,,,,1065.4334463999985,None,,,,,,,,,,,,,,,,,,,,,,,,,,,,,,,,,,,meat,62,43,silent,blue,1063.4226251999935,None,None,1063.4226251999935,None,,,,,,,,,,,,,,,,,,,,,,,,,,,,,,12,001,2023_Feb_15_1119,ExactRep-v3-final,2021.2.3,59.94326968850518,
,,,,,,,,43,0,43,0,,,,,,,,,,,,,,,,,,,,,,,,,,,,,,,,,,,,,,,,,,,,,,,,,,,,,1067.936300699992,None,,,,,,,,,,,,,,,,,,,,,,,,,,,,,,,,,,,devil,74,44,silent,blue,1065.9339923999942,None,None,1065.9339923999942,None,,,,,,,,,,,,,,,,,,,,,,,,,,,,,,12,001,2023_Feb_15_1119,ExactRep-v3-final,2021.2.3,59.94326968850518,
,,,,,,,,44,0,44,0,,,,,,,,,,,,,,,,,,,,,,,,,,,,,,,,,,,,,,,,,,,,,,,,,,,,,1070.4554347999947,None,,,,,,,,,,,,,,,,,,,,,,,,,,,,,,,,,,,nail,108,45,aloud,white,1068.4427804000006,None,None,1068.4427804000006,None,,,,,,,,,,,,,,,,,,,,,,,,,,,,,,12,001,2023_Feb_15_1119,ExactRep-v3-final,2021.2.3,59.94326968850518,
,,,,,,,,45,0,45,0,,,,,,,,,,,,,,,,,,,,,,,,,,,,,,,,,,,,,,,,,,,,,,,,,,,,,1072.9745168999943,None,,,,,,,,,,,,,,,,,,,,,,,,,,,,,,,,,,,coffee,29,46,sing,red,1070.9601748999994,None,None,1070.9601748999994,None,,,,,,,,,,,,,,,,,,,,,,,,,,,,,,12,001,2023_Feb_15_1119,ExactRep-v3-final,2021.2.3,59.94326968850518,
,,,,,,,,46,0,46,0,,,,,,,,,,,,,,,,,,,,,,,,,,,,,,,,,,,,,,,,,,,,,,,,,,,,,1075.4770209999988,None,,,,,,,,,,,,,,,,,,,,,,,,,,,,,,,,,,,animal,82,47,aloud,white,1073.4750501999952,None,None,1073.4750501999952,None,,,,,,,,,,,,,,,,,,,,,,,,,,,,,,12,001,2023_Feb_15_1119,ExactRep-v3-final,2021.2.3,59.94326968850518,
,,,,,,,,47,0,47,0,,,,,,,,,,,,,,,,,,,,,,,,,,,,,,,,,,,,,,,,,,,,,,,,,,,,,1077.9963983999914,None,,,,,,,,,,,,,,,,,,,,,,,,,,,,,,,,,,,lad,33,48,sing,red,1075.9856006999908,None,None,1075.9856006999908,None,,,,,,,,,,,,,,,,,,,,,,,,,,,,,,12,001,2023_Feb_15_1119,ExactRep-v3-final,2021.2.3,59.94326968850518,
,,,,,,,,48,0,48,0,,,,,,,,,,,,,,,,,,,,,,,,,,,,,,,,,,,,,,,,,,,,,,,,,,,,,1080.4987130999943,None,,,,,,,,,,,,,,,,,,,,,,,,,,,,,,,,,,,idea,26,49,sing,red,1078.4966694999894,None,None,1078.4966694999894,None,,,,,,,,,,,,,,,,,,,,,,,,,,,,,,12,001,2023_Feb_15_1119,ExactRep-v3-final,2021.2.3,59.94326968850518,
,,,,,,,,49,0,49,0,,,,,,,,,,,,,,,,,,,,,,,,,,,,,,,,,,,,,,,,,,,,,,,,,,,,,1083.001229299989,None,,,,,,,,,,,,,,,,,,,,,,,,,,,,,,,,,,,law,102,50,aloud,white,1081.0010173999908,None,None,1081.0010173999908,None,,,,,,,,,,,,,,,,,,,,,,,,,,,,,,12,001,2023_Feb_15_1119,ExactRep-v3-final,2021.2.3,59.94326968850518,
,,,,,,,,50,0,50,0,,,,,,,,,,,,,,,,,,,,,,,,,,,,,,,,,,,,,,,,,,,,,,,,,,,,,1085.5037611000007,None,,,,,,,,,,,,,,,,,,,,,,,,,,,,,,,,,,,engine,53,51,silent,blue,1083.5033712000004,None,None,1083.5033712000004,None,,,,,,,,,,,,,,,,,,,,,,,,,,,,,,12,001,2023_Feb_15_1119,ExactRep-v3-final,2021.2.3,59.94326968850518,
,,,,,,,,51,0,51,0,,,,,,,,,,,,,,,,,,,,,,,,,,,,,,,,,,,,,,,,,,,,,,,,,,,,,1088.0061053999962,None,,,,,,,,,,,,,,,,,,,,,,,,,,,,,,,,,,,string,112,52,aloud,white,1086.004173399997,None,None,1086.004173399997,None,,,,,,,,,,,,,,,,,,,,,,,,,,,,,,12,001,2023_Feb_15_1119,ExactRep-v3-final,2021.2.3,59.94326968850518,
,,,,,,,,52,0,52,0,,,,,,,,,,,,,,,,,,,,,,,,,,,,,,,,,,,,,,,,,,,,,,,,,,,,,1090.5254438999982,None,,,,,,,,,,,,,,,,,,,,,,,,,,,,,,,,,,,prison,97,53,aloud,white,1088.5153363999998,None,None,1088.5153363999998,None,,,,,,,,,,,,,,,,,,,,,,,,,,,,,,12,001,2023_Feb_15_1119,ExactRep-v3-final,2021.2.3,59.94326968850518,
,,,,,,,,53,0,53,0,,,,,,,,,,,,,,,,,,,,,,,,,,,,,,,,,,,,,,,,,,,,,,,,,,,,,1093.0279636999912,None,,,,,,,,,,,,,,,,,,,,,,,,,,,,,,,,,,,opinion,10,54,sing,red,1091.0257814999932,None,None,1091.0257814999932,None,,,,,,,,,,,,,,,,,,,,,,,,,,,,,,12,001,2023_Feb_15_1119,ExactRep-v3-final,2021.2.3,59.94326968850518,
,,,,,,,,54,0,54,0,,,,,,,,,,,,,,,,,,,,,,,,,,,,,,,,,,,,,,,,,,,,,,,,,,,,,1095.547128399994,None,,,,,,,,,,,,,,,,,,,,,,,,,,,,,,,,,,,fault,19,55,sing,red,1093.532725500001,None,None,1093.532725500001,None,,,,,,,,,,,,,,,,,,,,,,,,,,,,,,12,001,2023_Feb_15_1119,ExactRep-v3-final,2021.2.3,59.94326968850518,
,,,,,,,,55,0,55,0,,,,,,,,,,,,,,,,,,,,,,,,,,,,,,,,,,,,,,,,,,,,,,,,,,,,,1098.0668535000004,None,,,,,,,,,,,,,,,,,,,,,,,,,,,,,,,,,,,library,59,56,silent,blue,1096.0512792999943,None,None,1096.0512792999943,None,,,,,,,,,,,,,,,,,,,,,,,,,,,,,,12,001,2023_Feb_15_1119,ExactRep-v3-final,2021.2.3,59.94326968850518,
,,,,,,,,56,0,56,0,,,,,,,,,,,,,,,,,,,,,,,,,,,,,,,,,,,,,,,,,,,,,,,,,,,,,1100.568796499996,None,,,,,,,,,,,,,,,,,,,,,,,,,,,,,,,,,,,journal,115,57,aloud,white,1098.5668085999932,None,None,1098.5668085999932,None,,,,,,,,,,,,,,,,,,,,,,,,,,,,,,12,001,2023_Feb_15_1119,ExactRep-v3-final,2021.2.3,59.94326968850518,
,,,,,,,,57,0,57,0,,,,,,,,,,,,,,,,,,,,,,,,,,,,,,,,,,,,,,,,,,,,,,,,,,,,,1103.0712818999891,None,,,,,,,,,,,,,,,,,,,,,,,,,,,,,,,,,,,passion,84,58,aloud,white,1101.0711374999955,None,None,1101.0711374999955,None,,,,,,,,,,,,,,,,,,,,,,,,,,,,,,12,001,2023_Feb_15_1119,ExactRep-v3-final,2021.2.3,59.94326968850518,
,,,,,,,,58,0,58,0,,,,,,,,,,,,,,,,,,,,,,,,,,,,,,,,,,,,,,,,,,,,,,,,,,,,,1105.5737702999904,None,,,,,,,,,,,,,,,,,,,,,,,,,,,,,,,,,,,shame,98,59,aloud,white,1103.5716645999928,None,None,1103.5716645999928,None,,,,,,,,,,,,,,,,,,,,,,,,,,,,,,12,001,2023_Feb_15_1119,ExactRep-v3-final,2021.2.3,59.94326968850518,
,,,,,,,,59,0,59,0,,,,,,,,,,,,,,,,,,,,,,,,,,,,,,,,,,,,,,,,,,,,,,,,,,,,,1108.076310599994,None,,,,,,,,,,,,,,,,,,,,,,,,,,,,,,,,,,,death,50,60,silent,blue,1106.0744187999953,None,None,1106.0744187999953,None,,,,,,,,,,,,,,,,,,,,,,,,,,,,,,12,001,2023_Feb_15_1119,ExactRep-v3-final,2021.2.3,59.94326968850518,
,,,,,,,,60,0,60,0,,,,,,,,,,,,,,,,,,,,,,,,,,,,,,,,,,,,,,,,,,,,,,,,,,,,,1110.578760599994,None,,,,,,,,,,,,,,,,,,,,,,,,,,,,,,,,,,,dream,0,61,sing,red,1108.5795144000003,None,None,1108.5795144000003,None,,,,,,,,,,,,,,,,,,,,,,,,,,,,,,12,001,2023_Feb_15_1119,ExactRep-v3-final,2021.2.3,59.94326968850518,
,,,,,,,,61,0,61,0,,,,,,,,,,,,,,,,,,,,,,,,,,,,,,,,,,,,,,,,,,,,,,,,,,,,,1113.098003799998,None,,,,,,,,,,,,,,,,,,,,,,,,,,,,,,,,,,,slave,106,62,aloud,white,1111.0855336999957,None,None,1111.0855336999957,None,,,,,,,,,,,,,,,,,,,,,,,,,,,,,,12,001,2023_Feb_15_1119,ExactRep-v3-final,2021.2.3,59.94326968850518,
,,,,,,,,62,0,62,0,,,,,,,,,,,,,,,,,,,,,,,,,,,,,,,,,,,,,,,,,,,,,,,,,,,,,1115.618631999998,None,,,,,,,,,,,,,,,,,,,,,,,,,,,,,,,,,,,heaven,107,63,aloud,white,1113.6107015999878,None,None,1113.6107015999878,None,,,,,,,,,,,,,,,,,,,,,,,,,,,,,,12,001,2023_Feb_15_1119,ExactRep-v3-final,2021.2.3,59.94326968850518,
,,,,,,,,63,0,63,0,,,,,,,,,,,,,,,,,,,,,,,,,,,,,,,,,,,,,,,,,,,,,,,,,,,,,1118.1197185999918,None,,,,,,,,,,,,,,,,,,,,,,,,,,,,,,,,,,,door,45,64,silent,blue,1116.1176945999905,None,None,1116.1176945999905,None,,,,,,,,,,,,,,,,,,,,,,,,,,,,,,12,001,2023_Feb_15_1119,ExactRep-v3-final,2021.2.3,59.94326968850518,
,,,,,,,,64,0,64,0,,,,,,,,,,,,,,,,,,,,,,,,,,,,,,,,,,,,,,,,,,,,,,,,,,,,,1120.6220533000014,None,,,,,,,,,,,,,,,,,,,,,,,,,,,,,,,,,,,power,46,65,silent,blue,1118.6199811999977,None,None,1118.6199811999977,None,,,,,,,,,,,,,,,,,,,,,,,,,,,,,,12,001,2023_Feb_15_1119,ExactRep-v3-final,2021.2.3,59.94326968850518,
,,,,,,,,65,0,65,0,,,,,,,,,,,,,,,,,,,,,,,,,,,,,,,,,,,,,,,,,,,,,,,,,,,,,1123.1246892999916,None,,,,,,,,,,,,,,,,,,,,,,,,,,,,,,,,,,,book,63,66,silent,blue,1121.1224128999893,None,None,1121.1224128999893,None,,,,,,,,,,,,,,,,,,,,,,,,,,,,,,12,001,2023_Feb_15_1119,ExactRep-v3-final,2021.2.3,59.94326968850518,
,,,,,,,,66,0,66,0,,,,,,,,,,,,,,,,,,,,,,,,,,,,,,,,,,,,,,,,,,,,,,,,,,,,,1125.6439125999896,None,,,,,,,,,,,,,,,,,,,,,,,,,,,,,,,,,,,corn,7,67,sing,red,1123.6329759999935,None,None,1123.6329759999935,None,,,,,,,,,,,,,,,,,,,,,,,,,,,,,,12,001,2023_Feb_15_1119,ExactRep-v3-final,2021.2.3,59.94326968850518,
,,,,,,,,67,0,67,0,,,,,,,,,,,,,,,,,,,,,,,,,,,,,,,,,,,,,,,,,,,,,,,,,,,,,1128.1465079999907,None,,,,,,,,,,,,,,,,,,,,,,,,,,,,,,,,,,,event,99,68,aloud,white,1126.1455683999957,None,None,1126.1455683999957,None,,,,,,,,,,,,,,,,,,,,,,,,,,,,,,12,001,2023_Feb_15_1119,ExactRep-v3-final,2021.2.3,59.94326968850518,
,,,,,,,,68,0,68,0,,,,,,,,,,,,,,,,,,,,,,,,,,,,,,,,,,,,,,,,,,,,,,,,,,,,,1130.6489086999936,None,,,,,,,,,,,,,,,,,,,,,,,,,,,,,,,,,,,hall,88,69,aloud,white,1128.649131699989,None,None,1128.649131699989,None,,,,,,,,,,,,,,,,,,,,,,,,,,,,,,12,001,2023_Feb_15_1119,ExactRep-v3-final,2021.2.3,59.94326968850518,
,,,,,,,,69,0,69,0,,,,,,,,,,,,,,,,,,,,,,,,,,,,,,,,,,,,,,,,,,,,,,,,,,,,,1133.1678956999967,None,,,,,,,,,,,,,,,,,,,,,,,,,,,,,,,,,,,village,42,70,silent,blue,1131.153289199996,None,None,1131.153289199996,None,,,,,,,,,,,,,,,,,,,,,,,,,,,,,,12,001,2023_Feb_15_1119,ExactRep-v3-final,2021.2.3,59.94326968850518,
,,,,,,,,70,0,70,0,,,,,,,,,,,,,,,,,,,,,,,,,,,,,,,,,,,,,,,,,,,,,,,,,,,,,1135.6704256999947,None,,,,,,,,,,,,,,,,,,,,,,,,,,,,,,,,,,,pride,35,71,sing,red,1133.6684229999955,None,None,1133.6684229999955,None,,,,,,,,,,,,,,,,,,,,,,,,,,,,,,12,001,2023_Feb_15_1119,ExactRep-v3-final,2021.2.3,59.94326968850518,
,,,,,,,,71,0,71,0,,,,,,,,,,,,,,,,,,,,,,,,,,,,,,,,,,,,,,,,,,,,,,,,,,,,,1138.1729167000012,None,,,,,,,,,,,,,,,,,,,,,,,,,,,,,,,,,,,table,28,72,sing,red,1136.1710175999906,None,None,1136.1710175999906,None,,,,,,,,,,,,,,,,,,,,,,,,,,,,,,12,001,2023_Feb_15_1119,ExactRep-v3-final,2021.2.3,59.94326968850518,
,,,,,,,,72,0,72,0,,,,,,,,,,,,,,,,,,,,,,,,,,,,,,,,,,,,,,,,,,,,,,,,,,,,,1140.6922520999942,None,,,,,,,,,,,,,,,,,,,,,,,,,,,,,,,,,,,chief,92,73,aloud,white,1138.6840648999932,None,None,1138.6840648999932,None,,,,,,,,,,,,,,,,,,,,,,,,,,,,,,12,001,2023_Feb_15_1119,ExactRep-v3-final,2021.2.3,59.94326968850518,
,,,,,,,,73,0,73,0,,,,,,,,,,,,,,,,,,,,,,,,,,,,,,,,,,,,,,,,,,,,,,,,,,,,,1143.2119020999962,None,,,,,,,,,,,,,,,,,,,,,,,,,,,,,,,,,,,letter,36,74,sing,red,1141.1980956999905,None,None,1141.1980956999905,None,,,,,,,,,,,,,,,,,,,,,,,,,,,,,,12,001,2023_Feb_15_1119,ExactRep-v3-final,2021.2.3,59.94326968850518,
,,,,,,,,74,0,74,0,,,,,,,,,,,,,,,,,,,,,,,,,,,,,,,,,,,,,,,,,,,,,,,,,,,,,1145.7139690999902,None,,,,,,,,,,,,,,,,,,,,,,,,,,,,,,,,,,,lake,111,75,aloud,white,1143.7117186999967,None,None,1143.7117186999967,None,,,,,,,,,,,,,,,,,,,,,,,,,,,,,,12,001,2023_Feb_15_1119,ExactRep-v3-final,2021.2.3,59.94326968850518,
,,,,,,,,75,0,75,0,,,,,,,,,,,,,,,,,,,,,,,,,,,,,,,,,,,,,,,,,,,,,,,,,,,,,1148.2161397000018,None,,,,,,,,,,,,,,,,,,,,,,,,,,,,,,,,,,,blossom,54,76,silent,blue,1146.217211899988,None,None,1146.217211899988,None,,,,,,,,,,,,,,,,,,,,,,,,,,,,,,12,001,2023_Feb_15_1119,ExactRep-v3-final,2021.2.3,59.94326968850518,
,,,,,,,,76,0,76,0,,,,,,,,,,,,,,,,,,,,,,,,,,,,,,,,,,,,,,,,,,,,,,,,,,,,,1150.7354370999965,None,,,,,,,,,,,,,,,,,,,,,,,,,,,,,,,,,,,wife,66,77,silent,blue,1148.7241832,None,None,1148.7241832,None,,,,,,,,,,,,,,,,,,,,,,,,,,,,,,12,001,2023_Feb_15_1119,ExactRep-v3-final,2021.2.3,59.94326968850518,
,,,,,,,,77,0,77,0,,,,,,,,,,,,,,,,,,,,,,,,,,,,,,,,,,,,,,,,,,,,,,,,,,,,,1153.2548322999937,None,,,,,,,,,,,,,,,,,,,,,,,,,,,,,,,,,,,disease,110,78,aloud,white,1151.2437079999945,None,None,1151.2437079999945,None,,,,,,,,,,,,,,,,,,,,,,,,,,,,,,12,001,2023_Feb_15_1119,ExactRep-v3-final,2021.2.3,59.94326968850518,
,,,,,,,,78,0,78,0,,,,,,,,,,,,,,,,,,,,,,,,,,,,,,,,,,,,,,,,,,,,,,,,,,,,,1155.7571454999998,None,,,,,,,,,,,,,,,,,,,,,,,,,,,,,,,,,,,colony,78,79,silent,blue,1153.7553304999892,None,None,1153.7553304999892,None,,,,,,,,,,,,,,,,,,,,,,,,,,,,,,12,001,2023_Feb_15_1119,ExactRep-v3-final,2021.2.3,59.94326968850518,
,,,,,,,,79,0,79,0,,,,,,,,,,,,,,,,,,,,,,,,,,,,,,,,,,,,,,,,,,,,,,,,,,,,,1158.2597544000018,None,,,,,,,,,,,,,,,,,,,,,,,,,,,,,,,,,,,glory,61,80,silent,blue,1156.2580929999967,None,None,1156.2580929999967,None,,,,,,,,,,,,,,,,,,,,,,,,,,,,,,12,001,2023_Feb_15_1119,ExactRep-v3-final,2021.2.3,59.94326968850518,
,,,,,,,,80,0,80,0,,,,,,,,,,,,,,,,,,,,,,,,,,,,,,,,,,,,,,,,,,,,,,,,,,,,,1160.7623565999966,None,,,,,,,,,,,,,,,,,,,,,,,,,,,,,,,,,,,fact,25,81,sing,red,1158.760341199988,None,None,1158.760341199988,None,,,,,,,,,,,,,,,,,,,,,,,,,,,,,,12,001,2023_Feb_15_1119,ExactRep-v3-final,2021.2.3,59.94326968850518,
,,,,,,,,81,0,81,0,,,,,,,,,,,,,,,,,,,,,,,,,,,,,,,,,,,,,,,,,,,,,,,,,,,,,1163.2647096,None,,,,,,,,,,,,,,,,,,,,,,,,,,,,,,,,,,,theory,94,82,aloud,white,1161.2658120999986,None,None,1161.2658120999986,None,,,,,,,,,,,,,,,,,,,,,,,,,,,,,,12,001,2023_Feb_15_1119,ExactRep-v3-final,2021.2.3,59.94326968850518,
,,,,,,,,82,0,82,0,,,,,,,,,,,,,,,,,,,,,,,,,,,,,,,,,,,,,,,,,,,,,,,,,,,,,1165.7673210999928,None,,,,,,,,,,,,,,,,,,,,,,,,,,,,,,,,,,,master,81,83,aloud,white,1163.765598699989,None,None,1163.765598699989,None,,,,,,,,,,,,,,,,,,,,,,,,,,,,,,12,001,2023_Feb_15_1119,ExactRep-v3-final,2021.2.3,59.94326968850518,
,,,,,,,,83,0,83,0,,,,,,,,,,,,,,,,,,,,,,,,,,,,,,,,,,,,,,,,,,,,,,,,,,,,,1168.2698523,None,,,,,,,,,,,,,,,,,,,,,,,,,,,,,,,,,,,cash,114,84,aloud,white,1166.2692630999954,None,None,1166.2692630999954,None,,,,,,,,,,,,,,,,,,,,,,,,,,,,,,12,001,2023_Feb_15_1119,ExactRep-v3-final,2021.2.3,59.94326968850518,
,,,,,,,,84,0,84,0,,,,,,,,,,,,,,,,,,,,,,,,,,,,,,,,,,,,,,,,,,,,,,,,,,,,,1170.772260999991,None,,,,,,,,,,,,,,,,,,,,,,,,,,,,,,,,,,,justice,17,85,sing,red,1168.7701666999928,None,None,1168.7701666999928,None,,,,,,,,,,,,,,,,,,,,,,,,,,,,,,12,001,2023_Feb_15_1119,ExactRep-v3-final,2021.2.3,59.94326968850518,
,,,,,,,,85,0,85,0,,,,,,,,,,,,,,,,,,,,,,,,,,,,,,,,,,,,,,,,,,,,,,,,,,,,,1173.2915833000006,None,,,,,,,,,,,,,,,,,,,,,,,,,,,,,,,,,,,wine,20,86,sing,red,1171.2814610999922,None,None,1171.2814610999922,None,,,,,,,,,,,,,,,,,,,,,,,,,,,,,,12,001,2023_Feb_15_1119,ExactRep-v3-final,2021.2.3,59.94326968850518,
,,,,,,,,86,0,86,0,,,,,,,,,,,,,,,,,,,,,,,,,,,,,,,,,,,,,,,,,,,,,,,,,,,,,1175.8106259999913,None,,,,,,,,,,,,,,,,,,,,,,,,,,,,,,,,,,,toy,101,87,aloud,white,1173.796579499991,None,None,1173.796579499991,None,,,,,,,,,,,,,,,,,,,,,,,,,,,,,,12,001,2023_Feb_15_1119,ExactRep-v3-final,2021.2.3,59.94326968850518,
,,,,,,,,87,0,87,0,,,,,,,,,,,,,,,,,,,,,,,,,,,,,,,,,,,,,,,,,,,,,,,,,,,,,1178.3130214999983,None,,,,,,,,,,,,,,,,,,,,,,,,,,,,,,,,,,,time,73,88,silent,blue,1176.3138708999904,None,None,1176.3138708999904,None,,,,,,,,,,,,,,,,,,,,,,,,,,,,,,12,001,2023_Feb_15_1119,ExactRep-v3-final,2021.2.3,59.94326968850518,
,,,,,,,,88,0,88,0,,,,,,,,,,,,,,,,,,,,,,,,,,,,,,,,,,,,,,,,,,,,,,,,,,,,,1180.8157868999988,None,,,,,,,,,,,,,,,,,,,,,,,,,,,,,,,,,,,history,23,89,sing,red,1178.8136012999894,None,None,1178.8136012999894,None,,,,,,,,,,,,,,,,,,,,,,,,,,,,,,12,001,2023_Feb_15_1119,ExactRep-v3-final,2021.2.3,59.94326968850518,
,,,,,,,,89,0,89,0,,,,,,,,,,,,,,,,,,,,,,,,,,,,,,,,,,,,,,,,,,,,,,,,,,,,,1183.318249399992,None,,,,,,,,,,,,,,,,,,,,,,,,,,,,,,,,,,,soil,57,90,silent,blue,1181.3177090999961,None,None,1181.3177090999961,None,,,,,,,,,,,,,,,,,,,,,,,,,,,,,,12,001,2023_Feb_15_1119,ExactRep-v3-final,2021.2.3,59.94326968850518,
,,,,,,,,90,0,90,0,,,,,,,,,,,,,,,,,,,,,,,,,,,,,,,,,,,,,,,,,,,,,,,,,,,,,1185.8373951999965,None,,,,,,,,,,,,,,,,,,,,,,,,,,,,,,,,,,,virtue,89,91,aloud,white,1183.822046199988,None,None,1183.822046199988,None,,,,,,,,,,,,,,,,,,,,,,,,,,,,,,12,001,2023_Feb_15_1119,ExactRep-v3-final,2021.2.3,59.94326968850518,
,,,,,,,,91,0,91,0,,,,,,,,,,,,,,,,,,,,,,,,,,,,,,,,,,,,,,,,,,,,,,,,,,,,,1188.356636899989,None,,,,,,,,,,,,,,,,,,,,,,,,,,,,,,,,,,,arm,65,92,silent,blue,1186.3432114999887,None,None,1186.3432114999887,None,,,,,,,,,,,,,,,,,,,,,,,,,,,,,,12,001,2023_Feb_15_1119,ExactRep-v3-final,2021.2.3,59.94326968850518,
,,,,,,,,92,0,92,0,,,,,,,,,,,,,,,,,,,,,,,,,,,,,,,,,,,,,,,,,,,,,,,,,,,,,1190.8591073999996,None,,,,,,,,,,,,,,,,,,,,,,,,,,,,,,,,,,,soul,75,93,silent,blue,1188.8570962999947,None,None,1188.8570962999947,None,,,,,,,,,,,,,,,,,,,,,,,,,,,,,,12,001,2023_Feb_15_1119,ExactRep-v3-final,2021.2.3,59.94326968850518,
,,,,,,,,93,0,93,0,,,,,,,,,,,,,,,,,,,,,,,,,,,,,,,,,,,,,,,,,,,,,,,,,,,,,1193.3614276000008,None,,,,,,,,,,,,,,,,,,,,,,,,,,,,,,,,,,,lip,56,94,silent,blue,1191.3615417999972,None,None,1191.3615417999972,None,,,,,,,,,,,,,,,,,,,,,,,,,,,,,,12,001,2023_Feb_15_1119,ExactRep-v3-final,2021.2.3,59.94326968850518,
,,,,,,,,94,0,94,0,,,,,,,,,,,,,,,,,,,,,,,,,,,,,,,,,,,,,,,,,,,,,,,,,,,,,1195.8641338999878,None,,,,,,,,,,,,,,,,,,,,,,,,,,,,,,,,,,,metal,69,95,silent,blue,1193.8620429000002,None,None,1193.8620429000002,None,,,,,,,,,,,,,,,,,,,,,,,,,,,,,,12,001,2023_Feb_15_1119,ExactRep-v3-final,2021.2.3,59.94326968850518,
,,,,,,,,95,0,95,0,,,,,,,,,,,,,,,,,,,,,,,,,,,,,,,,,,,,,,,,,,,,,,,,,,,,,1198.3665843999916,None,,,,,,,,,,,,,,,,,,,,,,,,,,,,,,,,,,,fur,58,96,silent,blue,1196.3665495999885,None,None,1196.3665495999885,None,,,,,,,,,,,,,,,,,,,,,,,,,,,,,,12,001,2023_Feb_15_1119,ExactRep-v3-final,2021.2.3,59.94326968850518,
,,,,,,,,96,0,96,0,,,,,,,,,,,,,,,,,,,,,,,,,,,,,,,,,,,,,,,,,,,,,,,,,,,,,1200.8689619999932,None,,,,,,,,,,,,,,,,,,,,,,,,,,,,,,,,,,,forest,9,97,sing,red,1198.8698002999881,None,None,1198.8698002999881,None,,,,,,,,,,,,,,,,,,,,,,,,,,,,,,12,001,2023_Feb_15_1119,ExactRep-v3-final,2021.2.3,59.94326968850518,
,,,,,,,,97,0,97,0,,,,,,,,,,,,,,,,,,,,,,,,,,,,,,,,,,,,,,,,,,,,,,,,,,,,,1203.3885157999903,None,,,,,,,,,,,,,,,,,,,,,,,,,,,,,,,,,,,vessel,18,98,sing,red,1201.3811158999888,None,None,1201.3811158999888,None,,,,,,,,,,,,,,,,,,,,,,,,,,,,,,12,001,2023_Feb_15_1119,ExactRep-v3-final,2021.2.3,59.94326968850518,
,,,,,,,,98,0,98,0,,,,,,,,,,,,,,,,,,,,,,,,,,,,,,,,,,,,,,,,,,,,,,,,,,,,,1205.8906216999894,None,,,,,,,,,,,,,,,,,,,,,,,,,,,,,,,,,,,plant,27,99,sing,red,1203.8886695999972,None,None,1203.8886695999972,None,,,,,,,,,,,,,,,,,,,,,,,,,,,,,,12,001,2023_Feb_15_1119,ExactRep-v3-final,2021.2.3,59.94326968850518,
,,,,,,,,99,0,99,0,,,,,,,,,,,,,,,,,,,,,,,,,,,,,,,,,,,,,,,,,,,,,,,,,,,,,1208.4099875999964,None,,,,,,,,,,,,,,,,,,,,,,,,,,,,,,,,,,,market,68,100,silent,blue,1206.4006160999998,None,None,1206.4006160999998,None,,,,,,,,,,,,,,,,,,,,,,,,,,,,,,12,001,2023_Feb_15_1119,ExactRep-v3-final,2021.2.3,59.94326968850518,
,,,,,,,,100,0,100,0,,,,,,,,,,,,,,,,,,,,,,,,,,,,,,,,,,,,,,,,,,,,,,,,,,,,,1210.9125182999996,None,,,,,,,,,,,,,,,,,,,,,,,,,,,,,,,,,,,pipe,43,101,silent,blue,1208.9103648000018,None,None,1208.9103648000018,None,,,,,,,,,,,,,,,,,,,,,,,,,,,,,,12,001,2023_Feb_15_1119,ExactRep-v3-final,2021.2.3,59.94326968850518,
,,,,,,,,101,0,101,0,,,,,,,,,,,,,,,,,,,,,,,,,,,,,,,,,,,,,,,,,,,,,,,,,,,,,1213.4316734999884,None,,,,,,,,,,,,,,,,,,,,,,,,,,,,,,,,,,,bottle,80,102,aloud,white,1211.4162534999923,None,None,1211.4162534999923,None,,,,,,,,,,,,,,,,,,,,,,,,,,,,,,12,001,2023_Feb_15_1119,ExactRep-v3-final,2021.2.3,59.94326968850518,
,,,,,,,,102,0,102,0,,,,,,,,,,,,,,,,,,,,,,,,,,,,,,,,,,,,,,,,,,,,,,,,,,,,,1215.9509490999917,None,,,,,,,,,,,,,,,,,,,,,,,,,,,,,,,,,,,leader,34,103,sing,red,1213.9355434999889,None,None,1213.9355434999889,None,,,,,,,,,,,,,,,,,,,,,,,,,,,,,,12,001,2023_Feb_15_1119,ExactRep-v3-final,2021.2.3,59.94326968850518,
,,,,,,,,103,0,103,0,,,,,,,,,,,,,,,,,,,,,,,,,,,,,,,,,,,,,,,,,,,,,,,,,,,,,1218.4700166999974,None,,,,,,,,,,,,,,,,,,,,,,,,,,,,,,,,,,,advice,52,104,silent,blue,1216.4544632999896,None,None,1216.4544632999896,None,,,,,,,,,,,,,,,,,,,,,,,,,,,,,,12,001,2023_Feb_15_1119,ExactRep-v3-final,2021.2.3,59.94326968850518,
,,,,,,,,104,0,104,0,,,,,,,,,,,,,,,,,,,,,,,,,,,,,,,,,,,,,,,,,,,,,,,,,,,,,1220.9890744000004,None,,,,,,,,,,,,,,,,,,,,,,,,,,,,,,,,,,,square,96,105,aloud,white,1218.9786767999904,None,None,1218.9786767999904,None,,,,,,,,,,,,,,,,,,,,,,,,,,,,,,12,001,2023_Feb_15_1119,ExactRep-v3-final,2021.2.3,59.94326968850518,
,,,,,,,,105,0,105,0,,,,,,,,,,,,,,,,,,,,,,,,,,,,,,,,,,,,,,,,,,,,,,,,,,,,,1223.4917466999905,None,,,,,,,,,,,,,,,,,,,,,,,,,,,,,,,,,,,flag,93,106,aloud,white,1221.4896021999884,None,None,1221.4896021999884,None,,,,,,,,,,,,,,,,,,,,,,,,,,,,,,12,001,2023_Feb_15_1119,ExactRep-v3-final,2021.2.3,59.94326968850518,
,,,,,,,,106,0,106,0,,,,,,,,,,,,,,,,,,,,,,,,,,,,,,,,,,,,,,,,,,,,,,,,,,,,,1226.0109470999887,None,,,,,,,,,,,,,,,,,,,,,,,,,,,,,,,,,,,machine,95,107,aloud,white,1223.995588699996,None,None,1223.995588699996,None,,,,,,,,,,,,,,,,,,,,,,,,,,,,,,12,001,2023_Feb_15_1119,ExactRep-v3-final,2021.2.3,59.94326968850518,
,,,,,,,,107,0,107,0,,,,,,,,,,,,,,,,,,,,,,,,,,,,,,,,,,,,,,,,,,,,,,,,,,,,,1228.5134334999893,None,,,,,,,,,,,,,,,,,,,,,,,,,,,,,,,,,,,rod,55,108,silent,blue,1226.5130196999962,None,None,1226.5130196999962,None,,,,,,,,,,,,,,,,,,,,,,,,,,,,,,12,001,2023_Feb_15_1119,ExactRep-v3-final,2021.2.3,59.94326968850518,
,,,,,,,,108,0,108,0,,,,,,,,,,,,,,,,,,,,,,,,,,,,,,,,,,,,,,,,,,,,,,,,,,,,,1231.0324804999982,None,,,,,,,,,,,,,,,,,,,,,,,,,,,,,,,,,,,college,37,109,sing,red,1229.0186115999968,None,None,1229.0186115999968,None,,,,,,,,,,,,,,,,,,,,,,,,,,,,,,12,001,2023_Feb_15_1119,ExactRep-v3-final,2021.2.3,59.94326968850518,
,,,,,,,,109,0,109,0,,,,,,,,,,,,,,,,,,,,,,,,,,,,,,,,,,,,,,,,,,,,,,,,,,,,,1233.5517906999885,None,,,,,,,,,,,,,,,,,,,,,,,,,,,,,,,,,,,butter,48,110,silent,blue,1231.5395114999992,None,None,1231.5395114999992,None,,,,,,,,,,,,,,,,,,,,,,,,,,,,,,12,001,2023_Feb_15_1119,ExactRep-v3-final,2021.2.3,59.94326968850518,
,,,,,,,,110,0,110,0,,,,,,,,,,,,,,,,,,,,,,,,,,,,,,,,,,,,,,,,,,,,,,,,,,,,,1236.0543707999896,None,,,,,,,,,,,,,,,,,,,,,,,,,,,,,,,,,,,present,38,111,sing,red,1234.0522318000003,None,None,1234.0522318000003,None,,,,,,,,,,,,,,,,,,,,,,,,,,,,,,12,001,2023_Feb_15_1119,ExactRep-v3-final,2021.2.3,59.94326968850518,
,,,,,,,,111,0,111,0,,,,,,,,,,,,,,,,,,,,,,,,,,,,,,,,,,,,,,,,,,,,,,,,,,,,,1238.556815399992,None,,,,,,,,,,,,,,,,,,,,,,,,,,,,,,,,,,,cotton,86,112,aloud,white,1236.5574984999985,None,None,1236.5574984999985,None,,,,,,,,,,,,,,,,,,,,,,,,,,,,,,12,001,2023_Feb_15_1119,ExactRep-v3-final,2021.2.3,59.94326968850518,
,,,,,,,,112,0,112,0,,,,,,,,,,,,,,,,,,,,,,,,,,,,,,,,,,,,,,,,,,,,,,,,,,,,,1241.0593396999902,None,,,,,,,,,,,,,,,,,,,,,,,,,,,,,,,,,,,bird,87,113,aloud,white,1239.0582884999894,None,None,1239.0582884999894,None,,,,,,,,,,,,,,,,,,,,,,,,,,,,,,12,001,2023_Feb_15_1119,ExactRep-v3-final,2021.2.3,59.94326968850518,
,,,,,,,,113,0,113,0,,,,,,,,,,,,,,,,,,,,,,,,,,,,,,,,,,,,,,,,,,,,,,,,,,,,,1243.561876599997,None,,,,,,,,,,,,,,,,,,,,,,,,,,,,,,,,,,,coin,40,114,silent,blue,1241.5595139999932,None,None,1241.5595139999932,None,,,,,,,,,,,,,,,,,,,,,,,,,,,,,,12,001,2023_Feb_15_1119,ExactRep-v3-final,2021.2.3,59.94326968850518,
,,,,,,,,114,0,114,0,,,,,,,,,,,,,,,,,,,,,,,,,,,,,,,,,,,,,,,,,,,,,,,,,,,,,1246.0644143999962,None,,,,,,,,,,,,,,,,,,,,,,,,,,,,,,,,,,,ability,119,115,aloud,white,1244.0637164999935,None,None,1244.0637164999935,None,,,,,,,,,,,,,,,,,,,,,,,,,,,,,,12,001,2023_Feb_15_1119,ExactRep-v3-final,2021.2.3,59.94326968850518,
,,,,,,,,115,0,115,0,,,,,,,,,,,,,,,,,,,,,,,,,,,,,,,,,,,,,,,,,,,,,,,,,,,,,1248.5833465999895,None,,,,,,,,,,,,,,,,,,,,,,,,,,,,,,,,,,,ocean,51,116,silent,blue,1246.5728713999997,None,None,1246.5728713999997,None,,,,,,,,,,,,,,,,,,,,,,,,,,,,,,12,001,2023_Feb_15_1119,ExactRep-v3-final,2021.2.3,59.94326968850518,
,,,,,,,,116,0,116,0,,,,,,,,,,,,,,,,,,,,,,,,,,,,,,,,,,,,,,,,,,,,,,,,,,,,,1251.0860023999994,None,,,,,,,,,,,,,,,,,,,,,,,,,,,,,,,,,,,owner,117,117,aloud,white,1249.083827399998,None,None,1249.083827399998,None,,,,,,,,,,,,,,,,,,,,,,,,,,,,,,12,001,2023_Feb_15_1119,ExactRep-v3-final,2021.2.3,59.94326968850518,
,,,,,,,,117,0,117,0,,,,,,,,,,,,,,,,,,,,,,,,,,,,,,,,,,,,,,,,,,,,,,,,,,,,,1253.5885211999994,None,,,,,,,,,,,,,,,,,,,,,,,,,,,,,,,,,,,humour,83,118,aloud,white,1251.5891893999942,None,None,1251.5891893999942,None,,,,,,,,,,,,,,,,,,,,,,,,,,,,,,12,001,2023_Feb_15_1119,ExactRep-v3-final,2021.2.3,59.94326968850518,
,,,,,,,,118,0,118,0,,,,,,,,,,,,,,,,,,,,,,,,,,,,,,,,,,,,,,,,,,,,,,,,,,,,,1256.0911840999906,None,,,,,,,,,,,,,,,,,,,,,,,,,,,,,,,,,,,water,24,119,sing,red,1254.0907036999997,None,None,1254.0907036999997,None,,,,,,,,,,,,,,,,,,,,,,,,,,,,,,12,001,2023_Feb_15_1119,ExactRep-v3-final,2021.2.3,59.94326968850518,
,,,,,,,,119,0,119,0,,,,,,,,,,,,,,,,,,,,,,,,,,,,,,,,,,,,,,,,,,,,,,,,,,,,,1258.6107451999997,None,,,,,,,,,,,,,,,,,,,,,,,,,,,,,,,,,,,woman,90,120,aloud,white,1256.603814099988,None,None,1256.603814099988,None,,,,,,,,,,,,,,,,,,,,,,,,,,,,,,12,001,2023_Feb_15_1119,ExactRep-v3-final,2021.2.3,59.94326968850518,
,,,,,,,,,,,,,,,,,,,,,,,,,,,,,,,,,,,,,,,,,,,,,,,,,,,,,,,,,,,,,,,,,,,,,,,,,,,,,,,,,,,,,,,,,,,,,,,,,,,,,,,,,,,,,,1259.1122156999918,None,space,0.5816436000022804,1269.0886358999996,None,,,,,,,,,,,,,,,,,,,,,,,,12,001,2023_Feb_15_1119,ExactRep-v3-final,2021.2.3,59.94326968850518,
,,,,,,,,,,,,,,,,,,,,,,,,,,,,,,,,,,,,,,,,,,,,,,,,,,,,,,,,,,,,,,,,,,,,,,,,,,,,,,,,,,,,,,,,,,,,,,,,,,,,,,,,,,,,,,,,,,,,1269.6896101999882,None,space,34.11644339999475,1279.666003499995,None,,,,,,,,,,,,,,,,,,12,001,2023_Feb_15_1119,ExactRep-v3-final,2021.2.3,59.94326968850518,
,,,,,,,,,,,,0,0,0,0,,,,,,,,,,,,,,,,,,,,,,,,,,,,,,,,,,,,,,,,,,,,,,,,,1318.3363195999991,None,,,,,,,,,,,,,,,,,,,,,,,,,,,,,,,,,,,,,,,,,,,,,,,,,,,,,,,,,kiss,219,1,sing,new,yellow,1314.3050180999999,None,n,1314.3050180999999,None,"['n', 'return']","[2.964926899992861, 3.989025100003346]",1314.3050180999999,None,,,12,001,2023_Feb_15_1119,ExactRep-v3-final,2021.2.3,59.94326968850518,
,,,,,,,,,,,,1,0,1,0,,,,,,,,,,,,,,,,,,,,,,,,,,,,,,,,,,,,,,,,,,,,,,,,,1322.7574991000001,None,,,,,,,,,,,,,,,,,,,,,,,,,,,,,,,,,,,,,,,,,,,,,,,,,,,,,,,,,lip,56,2,silent,old,yellow,1318.8464883999986,None,n,1318.8464883999986,None,"['n', 'return']","[3.1274309000000358, 3.8794684000022244]",1318.8464883999986,None,,,12,001,2023_Feb_15_1119,ExactRep-v3-final,2021.2.3,59.94326968850518,
,,,,,,,,,,,,2,0,2,0,,,,,,,,,,,,,,,,,,,,,,,,,,,,,,,,,,,,,,,,,,,,,,,,,1325.4770655999891,None,,,,,,,,,,,,,,,,,,,,,,,,,,,,,,,,,,,,,,,,,,,,,,,,,,,,,,,,,horse,227,3,sing,new,yellow,1323.265792899998,None,n,1323.265792899998,None,"['n', 'return']","[1.596466099988902, 2.164294799993513]",1323.265792899998,None,,,12,001,2023_Feb_15_1119,ExactRep-v3-final,2021.2.3,59.94326968850518,
,,,,,,,,,,,,3,0,3,0,,,,,,,,,,,,,,,,,,,,,,,,,,,,,,,,,,,,,,,,,,,,,,,,,1328.529983299988,None,,,,,,,,,,,,,,,,,,,,,,,,,,,,,,,,,,,,,,,,,,,,,,,,,,,,,,,,,colony,78,4,silent,old,yellow,1325.9854982999968,None,y,1325.9854982999968,None,"['y', 'return']","[1.9247647000011057, 2.508498100010911]",1325.9854982999968,None,,,12,001,2023_Feb_15_1119,ExactRep-v3-final,2021.2.3,59.94326968850518,
,,,,,,,,,,,,4,0,4,0,,,,,,,,,,,,,,,,,,,,,,,,,,,,,,,,,,,,,,,,,,,,,,,,,1330.882313299997,None,,,,,,,,,,,,,,,,,,,,,,,,,,,,,,,,,,,,,,,,,,,,,,,,,,,,,,,,,insect,176,5,aloud,new,yellow,1329.0406124,None,n,1329.0406124,None,"['n', 'return']","[1.2933535000047414, 1.797299199999543]",1329.0406124,None,,,12,001,2023_Feb_15_1119,ExactRep-v3-final,2021.2.3,59.94326968850518,
,,,,,,,,,,,,5,0,5,0,,,,,,,,,,,,,,,,,,,,,,,,,,,,,,,,,,,,,,,,,,,,,,,,,1333.3015435999987,None,,,,,,,,,,,,,,,,,,,,,,,,,,,,,,,,,,,,,,,,,,,,,,,,,,,,,,,,,amount,79,6,sing,old,yellow,1331.3962213999912,None,n,1331.3962213999912,None,"['n', 'return']","[1.4098804000095697, 1.8657506000017747]",1331.3962213999912,None,,,12,001,2023_Feb_15_1119,ExactRep-v3-final,2021.2.3,59.94326968850518,
,,,,,,,,,,,,6,0,6,0,,,,,,,,,,,,,,,,,,,,,,,,,,,,,,,,,,,,,,,,,,,,,,,,,1335.286728799998,None,,,,,,,,,,,,,,,,,,,,,,,,,,,,,,,,,,,,,,,,,,,,,,,,,,,,,,,,,butter,48,7,silent,old,yellow,1333.8114541999967,None,n,1333.8114541999967,None,"['n', 'return']","[1.0667906000016956, 1.4344860999990487]",1333.8114541999967,None,,,12,001,2023_Feb_15_1119,ExactRep-v3-final,2021.2.3,59.94326968850518,
,,,,,,,,,,,,7,0,7,0,,,,,,,,,,,,,,,,,,,,,,,,,,,,,,,,,,,,,,,,,,,,,,,,,1337.6892690999957,None,,,,,,,,,,,,,,,,,,,,,,,,,,,,,,,,,,,,,,,,,,,,,,,,,,,,,,,,,victory,169,8,sing,new,yellow,1335.7966936000012,None,n,1335.7966936000012,None,"['n', 'return']","[1.3692659000080312, 1.8572506000055]",1335.7966936000012,None,,,12,001,2023_Feb_15_1119,ExactRep-v3-final,2021.2.3,59.94326968850518,
,,,,,,,,,,,,8,0,8,0,,,,,,,,,,,,,,,,,,,,,,,,,,,,,,,,,,,,,,,,,,,,,,,,,1339.5911774999986,None,,,,,,,,,,,,,,,,,,,,,,,,,,,,,,,,,,,,,,,,,,,,,,,,,,,,,,,,,thought,128,9,silent,new,yellow,1338.196563999998,None,n,1338.196563999998,None,"['n', 'return']","[0.9295391000050586, 1.3613602000114042]",1338.196563999998,None,,,12,001,2023_Feb_15_1119,ExactRep-v3-final,2021.2.3,59.94326968850518,
,,,,,,,,,,,,9,0,9,0,,,,,,,,,,,,,,,,,,,,,,,,,,,,,,,,,,,,,,,,,,,,,,,,,1342.1770887999883,None,,,,,,,,,,,,,,,,,,,,,,,,,,,,,,,,,,,,,,,,,,,,,,,,,,,,,,,,,college,37,10,sing,old,yellow,1340.1007300999918,None,y,1340.1007300999918,None,"['y', 'return']","[1.4736949000071036, 2.0332322000031127]",1340.1007300999918,None,,,12,001,2023_Feb_15_1119,ExactRep-v3-final,2021.2.3,59.94326968850518,
,,,,,,,,,,,,10,0,10,0,,,,,,,,,,,,,,,,,,,,,,,,,,,,,,,,,,,,,,,,,,,,,,,,,1344.3791462999943,None,,,,,,,,,,,,,,,,,,,,,,,,,,,,,,,,,,,,,,,,,,,,,,,,,,,,,,,,,cotton,86,11,aloud,old,yellow,1342.6883571999933,None,y,1342.6883571999933,None,"['y', 'return']","[1.1176391000044532, 1.6455869000055827]",1342.6883571999933,None,,,12,001,2023_Feb_15_1119,ExactRep-v3-final,2021.2.3,59.94326968850518,
,,,,,,,,,,,,11,0,11,0,,,,,,,,,,,,,,,,,,,,,,,,,,,,,,,,,,,,,,,,,,,,,,,,,1346.3644597999955,None,,,,,,,,,,,,,,,,,,,,,,,,,,,,,,,,,,,,,,,,,,,,,,,,,,,,,,,,,ability,119,12,aloud,old,yellow,1344.8871082999976,None,y,1344.8871082999976,None,"['y', 'return']","[0.990907800005516, 1.43096680000599]",1344.8871082999976,None,,,12,001,2023_Feb_15_1119,ExactRep-v3-final,2021.2.3,59.94326968850518,
,,,,,,,,,,,,12,0,12,0,,,,,,,,,,,,,,,,,,,,,,,,,,,,,,,,,,,,,,,,,,,,,,,,,1349.2173653999926,None,,,,,,,,,,,,,,,,,,,,,,,,,,,,,,,,,,,,,,,,,,,,,,,,,,,,,,,,,custom,193,13,sing,new,yellow,1346.8783726999973,None,n,1346.8783726999973,None,"['n', 'return']","[1.72769060000428, 2.295641400007298]",1346.8783726999973,None,,,12,001,2023_Feb_15_1119,ExactRep-v3-final,2021.2.3,59.94326968850518,
,,,,,,,,,,,,13,0,13,0,,,,,,,,,,,,,,,,,,,,,,,,,,,,,,,,,,,,,,,,,,,,,,,,,1351.2603248999949,None,,,,,,,,,,,,,,,,,,,,,,,,,,,,,,,,,,,,,,,,,,,,,,,,,,,,,,,,,flag,93,14,aloud,old,yellow,1349.7257492999925,None,n,1349.7257492999925,None,"['n', 'return']","[1.1442324000090593, 1.480266099999426]",1349.7257492999925,None,,,12,001,2023_Feb_15_1119,ExactRep-v3-final,2021.2.3,59.94326968850518,
,,,,,,,,,,,,14,0,14,0,,,,,,,,,,,,,,,,,,,,,,,,,,,,,,,,,,,,,,,,,,,,,,,,,1353.8387360999914,None,,,,,,,,,,,,,,,,,,,,,,,,,,,,,,,,,,,,,,,,,,,,,,,,,,,,,,,,,library,59,15,silent,old,yellow,1351.7773435999989,None,n,1351.7773435999989,None,"['n', 'return']","[1.436626900002011, 2.0286058000056073]",1351.7773435999989,None,,,12,001,2023_Feb_15_1119,ExactRep-v3-final,2021.2.3,59.94326968850518,
,,,,,,,,,,,,15,0,15,0,,,,,,,,,,,,,,,,,,,,,,,,,,,,,,,,,,,,,,,,,,,,,,,,,1355.6737446999905,None,,,,,,,,,,,,,,,,,,,,,,,,,,,,,,,,,,,,,,,,,,,,,,,,,,,,,,,,,stone,204,16,aloud,new,yellow,1354.3523821999988,None,n,1354.3523821999988,None,"['n', 'return']","[1.0777003000112018, 1.2856815999984974]",1354.3523821999988,None,,,12,001,2023_Feb_15_1119,ExactRep-v3-final,2021.2.3,59.94326968850518,
,,,,,,,,,,,,16,0,16,0,,,,,,,,,,,,,,,,,,,,,,,,,,,,,,,,,,,,,,,,,,,,,,,,,1358.1433388000005,None,,,,,,,,,,,,,,,,,,,,,,,,,,,,,,,,,,,,,,,,,,,,,,,,,,,,,,,,,journal,115,17,aloud,old,yellow,1356.1902171999973,None,y,1356.1902171999973,None,"['y', 'return']","[1.095805000004475, 1.9038899000006495]",1356.1902171999973,None,,,12,001,2023_Feb_15_1119,ExactRep-v3-final,2021.2.3,59.94326968850518,
,,,,,,,,,,,,17,0,17,0,,,,,,,,,,,,,,,,,,,,,,,,,,,,,,,,,,,,,,,,,,,,,,,,,1360.0615052999929,None,,,,,,,,,,,,,,,,,,,,,,,,,,,,,,,,,,,,,,,,,,,,,,,,,,,,,,,,,picture,113,18,aloud,old,yellow,1358.6635164999898,None,n,1358.6635164999898,None,"['n', 'return']","[1.1423596999957226, 1.3585082000063267]",1358.6635164999898,None,,,12,001,2023_Feb_15_1119,ExactRep-v3-final,2021.2.3,59.94326968850518,
,,,,,,,,,,,,18,0,18,0,,,,,,,,,,,,,,,,,,,,,,,,,,,,,,,,,,,,,,,,,,,,,,,,,1362.0848321999947,None,,,,,,,,,,,,,,,,,,,,,,,,,,,,,,,,,,,,,,,,,,,,,,,,,,,,,,,,,party,44,19,silent,old,yellow,1360.5723132999992,None,n,1360.5723132999992,None,"['n', 'return']","[1.0816835000005085, 1.4735622000007425]",1360.5723132999992,None,,,12,001,2023_Feb_15_1119,ExactRep-v3-final,2021.2.3,59.94326968850518,
,,,,,,,,,,,,19,0,19,0,,,,,,,,,,,,,,,,,,,,,,,,,,,,,,,,,,,,,,,,,,,,,,,,,1363.6317213000002,None,,,,,,,,,,,,,,,,,,,,,,,,,,,,,,,,,,,,,,,,,,,,,,,,,,,,,,,,,seat,214,20,aloud,new,yellow,1362.6123877999926,None,n,1362.6123877999926,None,"['n', 'return']","[0.8255970000027446, 0.97771659999853]",1362.6123877999926,None,,,12,001,2023_Feb_15_1119,ExactRep-v3-final,2021.2.3,59.94326968850518,
,,,,,,,,,,,,20,0,20,0,,,,,,,,,,,,,,,,,,,,,,,,,,,,,,,,,,,,,,,,,,,,,,,,,1365.4837703999947,None,,,,,,,,,,,,,,,,,,,,,,,,,,,,,,,,,,,,,,,,,,,,,,,,,,,,,,,,,judge,2,21,sing,old,yellow,1364.1414772999997,None,y,1364.1414772999997,None,"['y', 'return']","[0.9767285999987507, 1.2965667999960715]",1364.1414772999997,None,,,12,001,2023_Feb_15_1119,ExactRep-v3-final,2021.2.3,59.94326968850518,
,,,,,,,,,,,,21,0,21,0,,,,,,,,,,,,,,,,,,,,,,,,,,,,,,,,,,,,,,,,,,,,,,,,,1367.3353533999907,None,,,,,,,,,,,,,,,,,,,,,,,,,,,,,,,,,,,,,,,,,,,,,,,,,,,,,,,,,death,50,22,silent,old,yellow,1365.9864768999978,None,n,1365.9864768999978,None,"['n', 'return']","[1.0275017000094522, 1.3154758000018774]",1365.9864768999978,None,,,12,001,2023_Feb_15_1119,ExactRep-v3-final,2021.2.3,59.94326968850518,
,,,,,,,,,,,,22,0,22,0,,,,,,,,,,,,,,,,,,,,,,,,,,,,,,,,,,,,,,,,,,,,,,,,,1369.3207598000008,None,,,,,,,,,,,,,,,,,,,,,,,,,,,,,,,,,,,,,,,,,,,,,,,,,,,,,,,,,plain,4,23,sing,old,yellow,1367.8478079999913,None,y,1367.8478079999913,None,"['y', 'return']","[1.0862656999961473, 1.43807740000193]",1367.8478079999913,None,,,12,001,2023_Feb_15_1119,ExactRep-v3-final,2021.2.3,59.94326968850518,
,,,,,,,,,,,,23,0,23,0,,,,,,,,,,,,,,,,,,,,,,,,,,,,,,,,,,,,,,,,,,,,,,,,,1372.8576239999966,None,,,,,,,,,,,,,,,,,,,,,,,,,,,,,,,,,,,,,,,,,,,,,,,,,,,,,,,,,board,155,24,silent,new,yellow,1369.8301089000015,None,n,1369.8301089000015,None,"['n', 'return']","[1.8961745999986306, 2.983857999992324]",1369.8301089000015,None,,,12,001,2023_Feb_15_1119,ExactRep-v3-final,2021.2.3,59.94326968850518,
,,,,,,,,,,,,24,0,24,0,,,,,,,,,,,,,,,,,,,,,,,,,,,,,,,,,,,,,,,,,,,,,,,,,1375.3266824999882,None,,,,,,,,,,,,,,,,,,,,,,,,,,,,,,,,,,,,,,,,,,,,,,,,,,,,,,,,,ocean,51,25,silent,old,yellow,1373.3716633000004,None,n,1373.3716633000004,None,"['n', 'return']","[1.642526600000565, 1.9222613999882014]",1373.3716633000004,None,,,12,001,2023_Feb_15_1119,ExactRep-v3-final,2021.2.3,59.94326968850518,
,,,,,,,,,,,,25,0,25,0,,,,,,,,,,,,,,,,,,,,,,,,,,,,,,,,,,,,,,,,,,,,,,,,,1377.0453062999877,None,,,,,,,,,,,,,,,,,,,,,,,,,,,,,,,,,,,,,,,,,,,,,,,,,,,,,,,,,crime,136,26,silent,new,yellow,1375.8380847999942,None,n,1375.8380847999942,None,"['n', 'return']","[0.9520727000053739, 1.168069800012745]",1375.8380847999942,None,,,12,001,2023_Feb_15_1119,ExactRep-v3-final,2021.2.3,59.94326968850518,
,,,,,,,,,,,,26,0,26,0,,,,,,,,,,,,,,,,,,,,,,,,,,,,,,,,,,,,,,,,,,,,,,,,,1378.580025999996,None,,,,,,,,,,,,,,,,,,,,,,,,,,,,,,,,,,,,,,,,,,,,,,,,,,,,,,,,,doll,230,27,aloud,new,yellow,1377.5534642999992,None,n,1377.5534642999992,None,"['n', 'return']","[0.7727224999980535, 0.9886568999936571]",1377.5534642999992,None,,,12,001,2023_Feb_15_1119,ExactRep-v3-final,2021.2.3,59.94326968850518,
,,,,,,,,,,,,27,0,27,0,,,,,,,,,,,,,,,,,,,,,,,,,,,,,,,,,,,,,,,,,,,,,,,,,1380.41525559999,None,,,,,,,,,,,,,,,,,,,,,,,,,,,,,,,,,,,,,,,,,,,,,,,,,,,,,,,,,power,46,28,silent,old,yellow,1379.0902101999964,None,y,1379.0902101999964,None,"['y', 'return']","[0.9560808999958681, 1.2840220000070985]",1379.0902101999964,None,,,12,001,2023_Feb_15_1119,ExactRep-v3-final,2021.2.3,59.94326968850518,
,,,,,,,,,,,,28,0,28,0,,,,,,,,,,,,,,,,,,,,,,,,,,,,,,,,,,,,,,,,,,,,,,,,,1382.033600099996,None,,,,,,,,,,,,,,,,,,,,,,,,,,,,,,,,,,,,,,,,,,,,,,,,,,,,,,,,,form,217,29,sing,new,yellow,1380.9226142999978,None,n,1380.9226142999978,None,"['n', 'return']","[0.9075345000019297, 1.0755958999943687]",1380.9226142999978,None,,,12,001,2023_Feb_15_1119,ExactRep-v3-final,2021.2.3,59.94326968850518,
,,,,,,,,,,,,29,0,29,0,,,,,,,,,,,,,,,,,,,,,,,,,,,,,,,,,,,,,,,,,,,,,,,,,1384.0187578999903,None,,,,,,,,,,,,,,,,,,,,,,,,,,,,,,,,,,,,,,,,,,,,,,,,,,,,,,,,,rod,55,30,silent,old,yellow,1382.5453597000014,None,y,1382.5453597000014,None,"['y', 'return']","[1.1086436999903526, 1.428606999994372]",1382.5453597000014,None,,,12,001,2023_Feb_15_1119,ExactRep-v3-final,2021.2.3,59.94326968850518,
,,,,,,,,,,,,30,0,30,0,,,,,,,,,,,,,,,,,,,,,,,,,,,,,,,,,,,,,,,,,,,,,,,,,1385.6871242999914,None,,,,,,,,,,,,,,,,,,,,,,,,,,,,,,,,,,,,,,,,,,,,,,,,,,,,,,,,,cat,77,31,silent,old,yellow,1384.530355099996,None,n,1384.530355099996,None,"['n', 'return']","[0.8516694999998435, 1.1237285999959568]",1384.530355099996,None,,,12,001,2023_Feb_15_1119,ExactRep-v3-final,2021.2.3,59.94326968850518,
,,,,,,,,,,,,31,0,31,0,,,,,,,,,,,,,,,,,,,,,,,,,,,,,,,,,,,,,,,,,,,,,,,,,1389.7077926999918,None,,,,,,,,,,,,,,,,,,,,,,,,,,,,,,,,,,,,,,,,,,,,,,,,,,,,,,,,,freedom,213,32,sing,new,yellow,1386.1970226999983,None,y,1386.1970226999983,None,"['n', 'backspace', 'y', 'return']","[0.8330338999949163, 2.4010822999989614, 3.1693781999929342, 3.473062100005336]",1386.1970226999983,None,,,12,001,2023_Feb_15_1119,ExactRep-v3-final,2021.2.3,59.94326968850518,
,,,,,,,,,,,,32,0,32,0,,,,,,,,,,,,,,,,,,,,,,,,,,,,,,,,,,,,,,,,,,,,,,,,,1391.359252299997,None,,,,,,,,,,,,,,,,,,,,,,,,,,,,,,,,,,,,,,,,,,,,,,,,,,,,,,,,,steam,209,33,sing,new,yellow,1390.2087245000002,None,n,1390.2087245000002,None,"['n', 'return']","[0.9014899000030709, 1.117377899994608]",1390.2087245000002,None,,,12,001,2023_Feb_15_1119,ExactRep-v3-final,2021.2.3,59.94326968850518,
,,,,,,,,,,,,33,0,33,0,,,,,,,,,,,,,,,,,,,,,,,,,,,,,,,,,,,,,,,,,,,,,,,,,1393.0613015999988,None,,,,,,,,,,,,,,,,,,,,,,,,,,,,,,,,,,,,,,,,,,,,,,,,,,,,,,,,,fact,25,34,sing,old,yellow,1391.861579599994,None,n,1391.861579599994,None,"['n', 'return']","[0.9284444000077201, 1.152366099995561]",1391.861579599994,None,,,12,001,2023_Feb_15_1119,ExactRep-v3-final,2021.2.3,59.94326968850518,
,,,,,,,,,,,,34,0,34,0,,,,,,,,,,,,,,,,,,,,,,,,,,,,,,,,,,,,,,,,,,,,,,,,,1394.829576499993,None,,,,,,,,,,,,,,,,,,,,,,,,,,,,,,,,,,,,,,,,,,,,,,,,,,,,,,,,,girl,175,35,sing,new,yellow,1393.5616775999952,None,y,1393.5616775999952,None,"['y', 'return']","[0.9403488999960246, 1.2364342999935616]",1393.5616775999952,None,,,12,001,2023_Feb_15_1119,ExactRep-v3-final,2021.2.3,59.94326968850518,
,,,,,,,,,,,,35,0,35,0,,,,,,,,,,,,,,,,,,,,,,,,,,,,,,,,,,,,,,,,,,,,,,,,,1397.015273500001,None,,,,,,,,,,,,,,,,,,,,,,,,,,,,,,,,,,,,,,,,,,,,,,,,,,,,,,,,,glory,61,36,silent,old,yellow,1395.341893299992,None,n,1395.341893299992,None,"['n', 'return']","[0.9522428999916883, 1.640358099990408]",1395.341893299992,None,,,12,001,2023_Feb_15_1119,ExactRep-v3-final,2021.2.3,59.94326968850518,
,,,,,,,,,,,,36,0,36,0,,,,,,,,,,,,,,,,,,,,,,,,,,,,,,,,,,,,,,,,,,,,,,,,,1398.7001448999945,None,,,,,,,,,,,,,,,,,,,,,,,,,,,,,,,,,,,,,,,,,,,,,,,,,,,,,,,,,passion,84,37,aloud,old,yellow,1397.5279728999885,None,y,1397.5279728999885,None,"['y', 'return']","[0.878206900000805, 1.1341107999905944]",1397.5279728999885,None,,,12,001,2023_Feb_15_1119,ExactRep-v3-final,2021.2.3,59.94326968850518,
,,,,,,,,,,,,37,0,37,0,,,,,,,,,,,,,,,,,,,,,,,,,,,,,,,,,,,,,,,,,,,,,,,,,1400.3853014999913,None,,,,,,,,,,,,,,,,,,,,,,,,,,,,,,,,,,,,,,,,,,,,,,,,,,,,,,,,,hope,140,38,silent,new,yellow,1399.2034176000016,None,n,1399.2034176000016,None,"['n', 'return']","[0.8907616000069538, 1.1466404999955557]",1399.2034176000016,None,,,12,001,2023_Feb_15_1119,ExactRep-v3-final,2021.2.3,59.94326968850518,
,,,,,,,,,,,,38,0,38,0,,,,,,,,,,,,,,,,,,,,,,,,,,,,,,,,,,,,,,,,,,,,,,,,,1402.220273999992,None,,,,,,,,,,,,,,,,,,,,,,,,,,,,,,,,,,,,,,,,,,,,,,,,,,,,,,,,,coast,118,39,aloud,old,yellow,1400.8951627999922,None,y,1400.8951627999922,None,"['y', 'return']","[0.9829098000045633, 1.2789150000025984]",1400.8951627999922,None,,,12,001,2023_Feb_15_1119,ExactRep-v3-final,2021.2.3,59.94326968850518,
,,,,,,,,,,,,39,0,39,0,,,,,,,,,,,,,,,,,,,,,,,,,,,,,,,,,,,,,,,,,,,,,,,,,1404.1054230000009,None,,,,,,,,,,,,,,,,,,,,,,,,,,,,,,,,,,,,,,,,,,,,,,,,,,,,,,,,,chief,92,40,aloud,old,yellow,1402.7354855000012,None,y,1402.7354855000012,None,"['y', 'return']","[1.0625462000025436, 1.3346218000078807]",1402.7354855000012,None,,,12,001,2023_Feb_15_1119,ExactRep-v3-final,2021.2.3,59.94326968850518,
,,,,,,,,,,,,40,0,40,0,,,,,,,,,,,,,,,,,,,,,,,,,,,,,,,,,,,,,,,,,,,,,,,,,1407.0590539999976,None,,,,,,,,,,,,,,,,,,,,,,,,,,,,,,,,,,,,,,,,,,,,,,,,,,,,,,,,,speech,15,41,sing,old,yellow,1404.6154824999976,None,y,1404.6154824999976,None,"['y', 'return']","[1.918660399998771, 2.4066192000027513]",1404.6154824999976,None,,,12,001,2023_Feb_15_1119,ExactRep-v3-final,2021.2.3,59.94326968850518,
,,,,,,,,,,,,41,0,41,0,,,,,,,,,,,,,,,,,,,,,,,,,,,,,,,,,,,,,,,,,,,,,,,,,1409.1772323999903,None,,,,,,,,,,,,,,,,,,,,,,,,,,,,,,,,,,,,,,,,,,,,,,,,,,,,,,,,,truth,105,42,aloud,old,yellow,1407.569368299999,None,n,1407.569368299999,None,"['n', 'return']","[1.3168225999979768, 1.5728008000005502]",1407.569368299999,None,,,12,001,2023_Feb_15_1119,ExactRep-v3-final,2021.2.3,59.94326968850518,
,,,,,,,,,,,,42,0,42,0,,,,,,,,,,,,,,,,,,,,,,,,,,,,,,,,,,,,,,,,,,,,,,,,,1411.0136089000007,None,,,,,,,,,,,,,,,,,,,,,,,,,,,,,,,,,,,,,,,,,,,,,,,,,,,,,,,,,army,152,43,silent,new,yellow,1409.687903500002,None,n,1409.687903500002,None,"['n', 'return']","[1.0783316000015475, 1.2861512000090443]",1409.687903500002,None,,,12,001,2023_Feb_15_1119,ExactRep-v3-final,2021.2.3,59.94326968850518,
,,,,,,,,,,,,43,0,43,0,,,,,,,,,,,,,,,,,,,,,,,,,,,,,,,,,,,,,,,,,,,,,,,,,1412.8142414999893,None,,,,,,,,,,,,,,,,,,,,,,,,,,,,,,,,,,,,,,,,,,,,,,,,,,,,,,,,,palace,30,44,sing,old,yellow,1411.5198604999896,None,y,1411.5198604999896,None,"['y', 'return']","[0.9661023000080604, 1.262269800005015]",1411.5198604999896,None,,,12,001,2023_Feb_15_1119,ExactRep-v3-final,2021.2.3,59.94326968850518,
,,,,,,,,,,,,44,0,44,0,,,,,,,,,,,,,,,,,,,,,,,,,,,,,,,,,,,,,,,,,,,,,,,,,1415.7840492999967,None,,,,,,,,,,,,,,,,,,,,,,,,,,,,,,,,,,,,,,,,,,,,,,,,,,,,,,,,,coin,40,45,silent,old,yellow,1413.3230858999887,None,n,1413.3230858999887,None,"['n', 'return']","[2.131072000003769, 2.4269844999944326]",1413.3230858999887,None,,,12,001,2023_Feb_15_1119,ExactRep-v3-final,2021.2.3,59.94326968850518,
,,,,,,,,,,,,45,0,45,0,,,,,,,,,,,,,,,,,,,,,,,,,,,,,,,,,,,,,,,,,,,,,,,,,1417.7026251999923,None,,,,,,,,,,,,,,,,,,,,,,,,,,,,,,,,,,,,,,,,,,,,,,,,,,,,,,,,,lad,33,46,sing,old,yellow,1416.2954730999918,None,y,1416.2954730999918,None,"['y', 'return']","[1.0147465000045486, 1.3666340000054333]",1416.2954730999918,None,,,12,001,2023_Feb_15_1119,ExactRep-v3-final,2021.2.3,59.94326968850518,
,,,,,,,,,,,,46,0,46,0,,,,,,,,,,,,,,,,,,,,,,,,,,,,,,,,,,,,,,,,,,,,,,,,,1420.5596231999953,None,,,,,,,,,,,,,,,,,,,,,,,,,,,,,,,,,,,,,,,,,,,,,,,,,,,,,,,,,maiden,41,47,silent,old,yellow,1418.2137481999962,None,y,1418.2137481999962,None,"['y', 'return']","[1.728334100000211, 2.2802243000041926]",1418.2137481999962,None,,,12,001,2023_Feb_15_1119,ExactRep-v3-final,2021.2.3,59.94326968850518,
,,,,,,,,,,,,47,0,47,0,,,,,,,,,,,,,,,,,,,,,,,,,,,,,,,,,,,,,,,,,,,,,,,,,1424.1922092999885,None,,,,,,,,,,,,,,,,,,,,,,,,,,,,,,,,,,,,,,,,,,,,,,,,,,,,,,,,,fur,58,48,silent,old,yellow,1421.0759714000014,None,n,1421.0759714000014,None,"['n', 'return']","[1.97026879999612, 3.0740744000067934]",1421.0759714000014,None,,,12,001,2023_Feb_15_1119,ExactRep-v3-final,2021.2.3,59.94326968850518,
,,,,,,,,,,,,48,0,48,0,,,,,,,,,,,,,,,,,,,,,,,,,,,,,,,,,,,,,,,,,,,,,,,,,1425.9784927,None,,,,,,,,,,,,,,,,,,,,,,,,,,,,,,,,,,,,,,,,,,,,,,,,,,,,,,,,,skin,104,49,aloud,old,yellow,1424.6938958999963,None,n,1424.6938958999963,None,"['n', 'return']","[1.0241420999955153, 1.2483829999982845]",1424.6938958999963,None,,,12,001,2023_Feb_15_1119,ExactRep-v3-final,2021.2.3,59.94326968850518,
,,,,,,,,,,,,49,0,49,0,,,,,,,,,,,,,,,,,,,,,,,,,,,,,,,,,,,,,,,,,,,,,,,,,1428.0962422000011,None,,,,,,,,,,,,,,,,,,,,,,,,,,,,,,,,,,,,,,,,,,,,,,,,,,,,,,,,,house,144,50,silent,new,yellow,1426.4974513999914,None,n,1426.4974513999914,None,"['n', 'return']","[1.3007612000074005, 1.564616700008628]",1426.4974513999914,None,,,12,001,2023_Feb_15_1119,ExactRep-v3-final,2021.2.3,59.94326968850518,
,,,,,,,,,,,,50,0,50,0,,,,,,,,,,,,,,,,,,,,,,,,,,,,,,,,,,,,,,,,,,,,,,,,,1429.5477739999915,None,,,,,,,,,,,,,,,,,,,,,,,,,,,,,,,,,,,,,,,,,,,,,,,,,,,,,,,,,sugar,163,51,sing,new,yellow,1428.6071082999988,None,n,1428.6071082999988,None,"['n', 'return']","[0.7110785000113538, 0.9031239000032656]",1428.6071082999988,None,,,12,001,2023_Feb_15_1119,ExactRep-v3-final,2021.2.3,59.94326968850518,
,,,,,,,,,,,,51,0,51,0,,,,,,,,,,,,,,,,,,,,,,,,,,,,,,,,,,,,,,,,,,,,,,,,,1431.1493230999913,None,,,,,,,,,,,,,,,,,,,,,,,,,,,,,,,,,,,,,,,,,,,,,,,,,,,,,,,,,valley,172,52,aloud,new,yellow,1430.0630038999952,None,n,1430.0630038999952,None,"['n', 'return']","[0.8390836000035051, 1.0471491000062088]",1430.0630038999952,None,,,12,001,2023_Feb_15_1119,ExactRep-v3-final,2021.2.3,59.94326968850518,
,,,,,,,,,,,,52,0,52,0,,,,,,,,,,,,,,,,,,,,,,,,,,,,,,,,,,,,,,,,,,,,,,,,,1433.4680584999878,None,,,,,,,,,,,,,,,,,,,,,,,,,,,,,,,,,,,,,,,,,,,,,,,,,,,,,,,,,life,232,53,aloud,new,yellow,1431.6574409999885,None,n,1431.6574409999885,None,"['n', 'return']","[1.412858600000618, 1.7727059000026202]",1431.6574409999885,None,,,12,001,2023_Feb_15_1119,ExactRep-v3-final,2021.2.3,59.94326968850518,
,,,,,,,,,,,,53,0,53,0,,,,,,,,,,,,,,,,,,,,,,,,,,,,,,,,,,,,,,,,,,,,,,,,,1435.2865657999937,None,,,,,,,,,,,,,,,,,,,,,,,,,,,,,,,,,,,,,,,,,,,,,,,,,,,,,,,,,chance,212,54,aloud,new,yellow,1433.9801526999945,None,n,1433.9801526999945,None,"['n', 'return']","[1.065893999999389, 1.2738931000058074]",1433.9801526999945,None,,,12,001,2023_Feb_15_1119,ExactRep-v3-final,2021.2.3,59.94326968850518,
,,,,,,,,,,,,54,0,54,0,,,,,,,,,,,,,,,,,,,,,,,,,,,,,,,,,,,,,,,,,,,,,,,,,1436.7715382999886,None,,,,,,,,,,,,,,,,,,,,,,,,,,,,,,,,,,,,,,,,,,,,,,,,,,,,,,,,,salary,174,55,aloud,new,yellow,1435.7966650999879,None,n,1435.7966650999879,None,"['n', 'return']","[0.6495487000065623, 0.9375644000101602]",1435.7966650999879,None,,,12,001,2023_Feb_15_1119,ExactRep-v3-final,2021.2.3,59.94326968850518,
,,,,,,,,,,,,55,0,55,0,,,,,,,,,,,,,,,,,,,,,,,,,,,,,,,,,,,,,,,,,,,,,,,,,1441.7264996000013,None,,,,,,,,,,,,,,,,,,,,,,,,,,,,,,,,,,,,,,,,,,,,,,,,,,,,,,,,,virtue,89,56,aloud,old,yellow,1437.283742899992,None,y,1437.283742899992,None,"['n', 'backspace', 'y', 'return']","[1.130411499994807, 3.2104361999954563, 4.026370599996881, 4.402475900002173]",1437.283742899992,None,,,12,001,2023_Feb_15_1119,ExactRep-v3-final,2021.2.3,59.94326968850518,
,,,,,,,,,,,,56,0,56,0,,,,,,,,,,,,,,,,,,,,,,,,,,,,,,,,,,,,,,,,,,,,,,,,,1443.5136112999899,None,,,,,,,,,,,,,,,,,,,,,,,,,,,,,,,,,,,,,,,,,,,,,,,,,,,,,,,,,beast,32,57,sing,old,yellow,1442.2343389999878,None,y,1442.2343389999878,None,"['y', 'return']","[0.9159056000062265, 1.2438500999996904]",1442.2343389999878,None,,,12,001,2023_Feb_15_1119,ExactRep-v3-final,2021.2.3,59.94326968850518,
,,,,,,,,,,,,57,0,57,0,,,,,,,,,,,,,,,,,,,,,,,,,,,,,,,,,,,,,,,,,,,,,,,,,1445.2468478999945,None,,,,,,,,,,,,,,,,,,,,,,,,,,,,,,,,,,,,,,,,,,,,,,,,,,,,,,,,,fire,16,58,sing,old,yellow,1444.03473639999,None,y,1444.03473639999,None,"['y', 'return']","[0.8753235000040149, 1.1713701000116998]",1444.03473639999,None,,,12,001,2023_Feb_15_1119,ExactRep-v3-final,2021.2.3,59.94326968850518,
,,,,,,,,,,,,58,0,58,0,,,,,,,,,,,,,,,,,,,,,,,,,,,,,,,,,,,,,,,,,,,,,,,,,1447.8324549999961,None,,,,,,,,,,,,,,,,,,,,,,,,,,,,,,,,,,,,,,,,,,,,,,,,,,,,,,,,,law,102,59,aloud,old,yellow,1445.758547999998,None,y,1445.758547999998,None,"['y', 'return']","[1.7035097999905702, 2.0315675999881933]",1445.758547999998,None,,,12,001,2023_Feb_15_1119,ExactRep-v3-final,2021.2.3,59.94326968850518,
,,,,,,,,,,,,59,0,59,0,,,,,,,,,,,,,,,,,,,,,,,,,,,,,,,,,,,,,,,,,,,,,,,,,1449.6510773999908,None,,,,,,,,,,,,,,,,,,,,,,,,,,,,,,,,,,,,,,,,,,,,,,,,,,,,,,,,,dawn,222,60,aloud,new,yellow,1448.342577599993,None,n,1448.342577599993,None,"['n', 'return']","[1.0155725000076927, 1.2716061000101035]",1448.342577599993,None,,,12,001,2023_Feb_15_1119,ExactRep-v3-final,2021.2.3,59.94326968850518,
,,,,,,,,,,,,60,0,60,0,,,,,,,,,,,,,,,,,,,,,,,,,,,,,,,,,,,,,,,,,,,,,,,,,1451.3027170999994,None,,,,,,,,,,,,,,,,,,,,,,,,,,,,,,,,,,,,,,,,,,,,,,,,,,,,,,,,,event,99,61,aloud,old,yellow,1450.1624015999987,None,n,1450.1624015999987,None,"['n', 'return']","[0.8516897999943467, 1.1076689000037732]",1450.1624015999987,None,,,12,001,2023_Feb_15_1119,ExactRep-v3-final,2021.2.3,59.94326968850518,
,,,,,,,,,,,,61,0,61,0,,,,,,,,,,,,,,,,,,,,,,,,,,,,,,,,,,,,,,,,,,,,,,,,,1453.3381171999936,None,,,,,,,,,,,,,,,,,,,,,,,,,,,,,,,,,,,,,,,,,,,,,,,,,,,,,,,,,plant,27,62,sing,old,yellow,1451.8113193999889,None,y,1451.8113193999889,None,"['y', 'return']","[1.1947882000094978, 1.4827210000075866]",1451.8113193999889,None,,,12,001,2023_Feb_15_1119,ExactRep-v3-final,2021.2.3,59.94326968850518,
,,,,,,,,,,,,62,0,62,0,,,,,,,,,,,,,,,,,,,,,,,,,,,,,,,,,,,,,,,,,,,,,,,,,1455.2567848999897,None,,,,,,,,,,,,,,,,,,,,,,,,,,,,,,,,,,,,,,,,,,,,,,,,,,,,,,,,,effort,183,63,sing,new,yellow,1453.8500126,None,n,1453.8500126,None,"['n', 'return']","[0.8361793000076432, 1.3720321000000695]",1453.8500126,None,,,12,001,2023_Feb_15_1119,ExactRep-v3-final,2021.2.3,59.94326968850518,
,,,,,,,,,,,,63,0,63,0,,,,,,,,,,,,,,,,,,,,,,,,,,,,,,,,,,,,,,,,,,,,,,,,,1456.874910499988,None,,,,,,,,,,,,,,,,,,,,,,,,,,,,,,,,,,,,,,,,,,,,,,,,,,,,,,,,,person,207,64,sing,new,yellow,1455.7680934999953,None,n,1455.7680934999953,None,"['n', 'return']","[0.8300667000003159, 1.0620698000129778]",1455.7680934999953,None,,,12,001,2023_Feb_15_1119,ExactRep-v3-final,2021.2.3,59.94326968850518,
,,,,,,,,,,,,64,0,64,0,,,,,,,,,,,,,,,,,,,,,,,,,,,,,,,,,,,,,,,,,,,,,,,,,1458.2929953999992,None,,,,,,,,,,,,,,,,,,,,,,,,,,,,,,,,,,,,,,,,,,,,,,,,,,,,,,,,,world,125,65,silent,new,yellow,1457.378789399998,None,n,1457.378789399998,None,"['n', 'return']","[0.6673502000048757, 0.8754124999977648]",1457.378789399998,None,,,12,001,2023_Feb_15_1119,ExactRep-v3-final,2021.2.3,59.94326968850518,
,,,,,,,,,,,,65,0,65,0,,,,,,,,,,,,,,,,,,,,,,,,,,,,,,,,,,,,,,,,,,,,,,,,,1459.7444451999909,None,,,,,,,,,,,,,,,,,,,,,,,,,,,,,,,,,,,,,,,,,,,,,,,,,,,,,,,,,book,63,66,silent,old,yellow,1458.8025430999987,None,n,1458.8025430999987,None,"['n', 'return']","[0.5955160000012256, 0.8996471999998903]",1458.8025430999987,None,,,12,001,2023_Feb_15_1119,ExactRep-v3-final,2021.2.3,59.94326968850518,
,,,,,,,,,,,,66,0,66,0,,,,,,,,,,,,,,,,,,,,,,,,,,,,,,,,,,,,,,,,,,,,,,,,,1461.296094099991,None,,,,,,,,,,,,,,,,,,,,,,,,,,,,,,,,,,,,,,,,,,,,,,,,,,,,,,,,,street,134,67,silent,new,yellow,1460.2542666999943,None,n,1460.2542666999943,None,"['n', 'return']","[0.7678513999999268, 0.999842000004719]",1460.2542666999943,None,,,12,001,2023_Feb_15_1119,ExactRep-v3-final,2021.2.3,59.94326968850518,
,,,,,,,,,,,,67,0,67,0,,,,,,,,,,,,,,,,,,,,,,,,,,,,,,,,,,,,,,,,,,,,,,,,,1462.881062200002,None,,,,,,,,,,,,,,,,,,,,,,,,,,,,,,,,,,,,,,,,,,,,,,,,,,,,,,,,,meeting,148,68,silent,new,yellow,1461.8058764000016,None,n,1461.8058764000016,None,"['n', 'return']","[0.8242810999945505, 1.040256499996758]",1461.8058764000016,None,,,12,001,2023_Feb_15_1119,ExactRep-v3-final,2021.2.3,59.94326968850518,
,,,,,,,,,,,,68,0,68,0,,,,,,,,,,,,,,,,,,,,,,,,,,,,,,,,,,,,,,,,,,,,,,,,,1464.6826978999889,None,,,,,,,,,,,,,,,,,,,,,,,,,,,,,,,,,,,,,,,,,,,,,,,,,,,,,,,,,cabin,1,69,sing,old,yellow,1463.393802999999,None,y,1463.393802999999,None,"['y', 'return']","[0.9484486000001198, 1.2443037000048207]",1463.393802999999,None,,,12,001,2023_Feb_15_1119,ExactRep-v3-final,2021.2.3,59.94326968850518,
,,,,,,,,,,,,69,0,69,0,,,,,,,,,,,,,,,,,,,,,,,,,,,,,,,,,,,,,,,,,,,,,,,,,1466.5679228999943,None,,,,,,,,,,,,,,,,,,,,,,,,,,,,,,,,,,,,,,,,,,,,,,,,,,,,,,,,,pole,6,70,sing,old,yellow,1465.1936736999924,None,y,1465.1936736999924,None,"['y', 'return']","[0.8684431000001496, 1.3324602999928175]",1465.1936736999924,None,,,12,001,2023_Feb_15_1119,ExactRep-v3-final,2021.2.3,59.94326968850518,
,,,,,,,,,,,,70,0,70,0,,,,,,,,,,,,,,,,,,,,,,,,,,,,,,,,,,,,,,,,,,,,,,,,,1468.670124700002,None,,,,,,,,,,,,,,,,,,,,,,,,,,,,,,,,,,,,,,,,,,,,,,,,,,,,,,,,,gold,146,71,silent,new,yellow,1467.0768308999977,None,n,1467.0768308999977,None,"['n', 'return']","[0.8333738999936031, 1.5611798999889288]",1467.0768308999977,None,,,12,001,2023_Feb_15_1119,ExactRep-v3-final,2021.2.3,59.94326968850518,
,,,,,,,,,,,,71,0,71,0,,,,,,,,,,,,,,,,,,,,,,,,,,,,,,,,,,,,,,,,,,,,,,,,,1470.1234266999963,None,,,,,,,,,,,,,,,,,,,,,,,,,,,,,,,,,,,,,,,,,,,,,,,,,,,,,,,,,lake,111,72,aloud,old,yellow,1469.1758425000007,None,n,1469.1758425000007,None,"['n', 'return']","[0.558331599997473, 0.9022047000034945]",1469.1758425000007,None,,,12,001,2023_Feb_15_1119,ExactRep-v3-final,2021.2.3,59.94326968850518,
,,,,,,,,,,,,72,0,72,0,,,,,,,,,,,,,,,,,,,,,,,,,,,,,,,,,,,,,,,,,,,,,,,,,1472.290313599995,None,,,,,,,,,,,,,,,,,,,,,,,,,,,,,,,,,,,,,,,,,,,,,,,,,,,,,,,,,author,182,73,aloud,new,yellow,1470.6454969999904,None,n,1470.6454969999904,None,"['n', 'return']","[1.384608100008336, 1.6005692000035197]",1470.6454969999904,None,,,12,001,2023_Feb_15_1119,ExactRep-v3-final,2021.2.3,59.94326968850518,
,,,,,,,,,,,,73,0,73,0,,,,,,,,,,,,,,,,,,,,,,,,,,,,,,,,,,,,,,,,,,,,,,,,,1473.7250857999898,None,,,,,,,,,,,,,,,,,,,,,,,,,,,,,,,,,,,,,,,,,,,,,,,,,,,,,,,,,hotel,129,74,silent,new,yellow,1472.8004884999973,None,n,1472.8004884999973,None,"['n', 'return']","[0.6695878000027733, 0.8777178000018466]",1472.8004884999973,None,,,12,001,2023_Feb_15_1119,ExactRep-v3-final,2021.2.3,59.94326968850518,
,,,,,,,,,,,,74,0,74,0,,,,,,,,,,,,,,,,,,,,,,,,,,,,,,,,,,,,,,,,,,,,,,,,,1475.2600490999903,None,,,,,,,,,,,,,,,,,,,,,,,,,,,,,,,,,,,,,,,,,,,,,,,,,,,,,,,,,dress,133,75,silent,new,yellow,1474.226245999991,None,n,1474.226245999991,None,"['n', 'return']","[0.7158304000040516, 0.9879474000044866]",1474.226245999991,None,,,12,001,2023_Feb_15_1119,ExactRep-v3-final,2021.2.3,59.94326968850518,
,,,,,,,,,,,,75,0,75,0,,,,,,,,,,,,,,,,,,,,,,,,,,,,,,,,,,,,,,,,,,,,,,,,,1476.9784320999897,None,,,,,,,,,,,,,,,,,,,,,,,,,,,,,,,,,,,,,,,,,,,,,,,,,,,,,,,,,cost,145,76,silent,new,yellow,1475.7628340999945,None,n,1475.7628340999945,None,"['n', 'return']","[0.9155160999944201, 1.1793310999928508]",1475.7628340999945,None,,,12,001,2023_Feb_15_1119,ExactRep-v3-final,2021.2.3,59.94326968850518,
,,,,,,,,,,,,76,0,76,0,,,,,,,,,,,,,,,,,,,,,,,,,,,,,,,,,,,,,,,,,,,,,,,,,1478.446674699997,None,,,,,,,,,,,,,,,,,,,,,,,,,,,,,,,,,,,,,,,,,,,,,,,,,,,,,,,,,river,154,77,silent,new,yellow,1477.4841076000012,None,n,1477.4841076000012,None,"['n', 'return']","[0.6903189000004204, 0.929949299999862]",1477.4841076000012,None,,,12,001,2023_Feb_15_1119,ExactRep-v3-final,2021.2.3,59.94326968850518,
,,,,,,,,,,,,77,0,77,0,,,,,,,,,,,,,,,,,,,,,,,,,,,,,,,,,,,,,,,,,,,,,,,,,1480.3651267999958,None,,,,,,,,,,,,,,,,,,,,,,,,,,,,,,,,,,,,,,,,,,,,,,,,,,,,,,,,,master,81,78,aloud,old,yellow,1478.9559632000019,None,y,1478.9559632000019,None,"['y', 'return']","[1.074084199994104, 1.3622044999938225]",1478.9559632000019,None,,,12,001,2023_Feb_15_1119,ExactRep-v3-final,2021.2.3,59.94326968850518,
,,,,,,,,,,,,78,0,78,0,,,,,,,,,,,,,,,,,,,,,,,,,,,,,,,,,,,,,,,,,,,,,,,,,1482.5695976999996,None,,,,,,,,,,,,,,,,,,,,,,,,,,,,,,,,,,,,,,,,,,,,,,,,,,,,,,,,,meadow,186,79,aloud,new,yellow,1480.8719586999941,None,n,1480.8719586999941,None,"['n', 'return']","[0.9822259999928065, 1.654033900005743]",1480.8719586999941,None,,,12,001,2023_Feb_15_1119,ExactRep-v3-final,2021.2.3,59.94326968850518,
,,,,,,,,,,,,79,0,79,0,,,,,,,,,,,,,,,,,,,,,,,,,,,,,,,,,,,,,,,,,,,,,,,,,1484.3859903999983,None,,,,,,,,,,,,,,,,,,,,,,,,,,,,,,,,,,,,,,,,,,,,,,,,,,,,,,,,,owner,117,80,aloud,old,yellow,1483.0939013999887,None,y,1483.0939013999887,None,"['y', 'return']","[0.9442953999969177, 1.2565058000036515]",1483.0939013999887,None,,,12,001,2023_Feb_15_1119,ExactRep-v3-final,2021.2.3,59.94326968850518,
,,,,,,,,,,,,80,0,80,0,,,,,,,,,,,,,,,,,,,,,,,,,,,,,,,,,,,,,,,,,,,,,,,,,1486.220991299997,None,,,,,,,,,,,,,,,,,,,,,,,,,,,,,,,,,,,,,,,,,,,,,,,,,,,,,,,,,wine,20,81,sing,old,yellow,1484.8942852999899,None,y,1484.8942852999899,None,"['y', 'return']","[0.943784200004302, 1.279947999995784]",1484.8942852999899,None,,,12,001,2023_Feb_15_1119,ExactRep-v3-final,2021.2.3,59.94326968850518,
,,,,,,,,,,,,81,0,81,0,,,,,,,,,,,,,,,,,,,,,,,,,,,,,,,,,,,,,,,,,,,,,,,,,1488.1561700999882,None,,,,,,,,,,,,,,,,,,,,,,,,,,,,,,,,,,,,,,,,,,,,,,,,,,,,,,,,,hour,21,82,sing,old,yellow,1486.7253330999956,None,y,1486.7253330999956,None,"['y', 'return']","[1.0728277000016533, 1.3928924999927403]",1486.7253330999956,None,,,12,001,2023_Feb_15_1119,ExactRep-v3-final,2021.2.3,59.94326968850518,
,,,,,,,,,,,,82,0,82,0,,,,,,,,,,,,,,,,,,,,,,,,,,,,,,,,,,,,,,,,,,,,,,,,,1489.9580422,None,,,,,,,,,,,,,,,,,,,,,,,,,,,,,,,,,,,,,,,,,,,,,,,,,,,,,,,,,spirit,196,83,aloud,new,yellow,1488.6645050999941,None,n,1488.6645050999941,None,"['n', 'return']","[0.9657543000066653, 1.2536086000036448]",1488.6645050999941,None,,,12,001,2023_Feb_15_1119,ExactRep-v3-final,2021.2.3,59.94326968850518,
,,,,,,,,,,,,83,0,83,0,,,,,,,,,,,,,,,,,,,,,,,,,,,,,,,,,,,,,,,,,,,,,,,,,1492.493953199999,None,,,,,,,,,,,,,,,,,,,,,,,,,,,,,,,,,,,,,,,,,,,,,,,,,,,,,,,,,table,28,84,sing,old,yellow,1490.468135099989,None,n,1490.468135099989,None,"['n', 'return']","[1.714017000005697, 1.9860960000078194]",1490.468135099989,None,,,12,001,2023_Feb_15_1119,ExactRep-v3-final,2021.2.3,59.94326968850518,
,,,,,,,,,,,,84,0,84,0,,,,,,,,,,,,,,,,,,,,,,,,,,,,,,,,,,,,,,,,,,,,,,,,,1494.3134448999917,None,,,,,,,,,,,,,,,,,,,,,,,,,,,,,,,,,,,,,,,,,,,,,,,,,,,,,,,,,devil,74,85,silent,old,yellow,1493.0055042999884,None,n,1493.0055042999884,None,"['n', 'return']","[0.9446079000044847, 1.2647024000034435]",1493.0055042999884,None,,,12,001,2023_Feb_15_1119,ExactRep-v3-final,2021.2.3,59.94326968850518,
,,,,,,,,,,,,85,0,85,0,,,,,,,,,,,,,,,,,,,,,,,,,,,,,,,,,,,,,,,,,,,,,,,,,1496.080868399993,None,,,,,,,,,,,,,,,,,,,,,,,,,,,,,,,,,,,,,,,,,,,,,,,,,,,,,,,,,leader,34,86,sing,old,yellow,1494.823116399988,None,y,1494.823116399988,None,"['y', 'return']","[0.9030023000086658, 1.2151117000030354]",1494.823116399988,None,,,12,001,2023_Feb_15_1119,ExactRep-v3-final,2021.2.3,59.94326968850518,
,,,,,,,,,,,,86,0,86,0,,,,,,,,,,,,,,,,,,,,,,,,,,,,,,,,,,,,,,,,,,,,,,,,,1497.6656495999923,None,,,,,,,,,,,,,,,,,,,,,,,,,,,,,,,,,,,,,,,,,,,,,,,,,,,,,,,,,style,72,87,silent,old,yellow,1496.5906010999897,None,n,1496.5906010999897,None,"['n', 'return']","[0.7835032000002684, 1.0396717999974499]",1496.5906010999897,None,,,12,001,2023_Feb_15_1119,ExactRep-v3-final,2021.2.3,59.94326968850518,
,,,,,,,,,,,,87,0,87,0,,,,,,,,,,,,,,,,,,,,,,,,,,,,,,,,,,,,,,,,,,,,,,,,,1499.2172366000013,None,,,,,,,,,,,,,,,,,,,,,,,,,,,,,,,,,,,,,,,,,,,,,,,,,,,,,,,,,troops,179,88,sing,new,yellow,1498.175628699988,None,n,1498.175628699988,None,"['n', 'return']","[0.7826066999987233, 1.006556599997566]",1498.175628699988,None,,,12,001,2023_Feb_15_1119,ExactRep-v3-final,2021.2.3,59.94326968850518,
,,,,,,,,,,,,88,0,88,0,,,,,,,,,,,,,,,,,,,,,,,,,,,,,,,,,,,,,,,,,,,,,,,,,1501.6198138999898,None,,,,,,,,,,,,,,,,,,,,,,,,,,,,,,,,,,,,,,,,,,,,,,,,,,,,,,,,,student,194,89,aloud,new,yellow,1499.7278859999933,None,y,1499.7278859999933,None,"['y', 'y', 'return']","[1.1342258000076981, 1.494228399998974, 1.8543342000048142]",1499.7278859999933,None,,,12,001,2023_Feb_15_1119,ExactRep-v3-final,2021.2.3,59.94326968850518,
,,,,,,,,,,,,89,0,89,0,,,,,,,,,,,,,,,,,,,,,,,,,,,,,,,,,,,,,,,,,,,,,,,,,1503.1379548999976,None,,,,,,,,,,,,,,,,,,,,,,,,,,,,,,,,,,,,,,,,,,,,,,,,,,,,,,,,,lord,161,90,sing,new,yellow,1502.1297883999941,None,n,1502.1297883999941,None,"['n', 'return']","[0.7482268999883672, 0.9722789999941597]",1502.1297883999941,None,,,12,001,2023_Feb_15_1119,ExactRep-v3-final,2021.2.3,59.94326968850518,
,,,,,,,,,,,,90,0,90,0,,,,,,,,,,,,,,,,,,,,,,,,,,,,,,,,,,,,,,,,,,,,,,,,,1504.7561455999967,None,,,,,,,,,,,,,,,,,,,,,,,,,,,,,,,,,,,,,,,,,,,,,,,,,,,,,,,,,breast,225,91,sing,new,yellow,1503.6382275999931,None,n,1503.6382275999931,None,"['n', 'return']","[0.8559290999983205, 1.0719506000023102]",1503.6382275999931,None,,,12,001,2023_Feb_15_1119,ExactRep-v3-final,2021.2.3,59.94326968850518,
,,,,,,,,,,,,91,0,91,0,,,,,,,,,,,,,,,,,,,,,,,,,,,,,,,,,,,,,,,,,,,,,,,,,1507.291991799997,None,,,,,,,,,,,,,,,,,,,,,,,,,,,,,,,,,,,,,,,,,,,,,,,,,,,,,,,,,soul,75,92,silent,old,yellow,1505.257255199991,None,n,1505.257255199991,None,"['n', 'return']","[1.2690314000064973, 1.9889584000047762]",1505.257255199991,None,,,12,001,2023_Feb_15_1119,ExactRep-v3-final,2021.2.3,59.94326968850518,
,,,,,,,,,,,,92,0,92,0,,,,,,,,,,,,,,,,,,,,,,,,,,,,,,,,,,,,,,,,,,,,,,,,,1512.2470162999962,None,,,,,,,,,,,,,,,,,,,,,,,,,,,,,,,,,,,,,,,,,,,,,,,,,,,,,,,,,string,112,93,aloud,old,yellow,1507.804426799994,None,y,1507.804426799994,None,"['n', 'backspace', 'y', 'return']","[2.8258236999972723, 3.6736038999952143, 4.089839799999027, 4.409718499999144]",1507.804426799994,None,,,12,001,2023_Feb_15_1119,ExactRep-v3-final,2021.2.3,59.94326968850518,
,,,,,,,,,,,,93,0,93,0,,,,,,,,,,,,,,,,,,,,,,,,,,,,,,,,,,,,,,,,,,,,,,,,,1514.599335299994,None,,,,,,,,,,,,,,,,,,,,,,,,,,,,,,,,,,,,,,,,,,,,,,,,,,,,,,,,,pride,35,94,sing,old,yellow,1512.7584012000007,None,y,1512.7584012000007,None,"['y', 'return']","[1.5037150999996811, 1.799840599996969]",1512.7584012000007,None,,,12,001,2023_Feb_15_1119,ExactRep-v3-final,2021.2.3,59.94326968850518,
,,,,,,,,,,,,94,0,94,0,,,,,,,,,,,,,,,,,,,,,,,,,,,,,,,,,,,,,,,,,,,,,,,,,1516.2344120999915,None,,,,,,,,,,,,,,,,,,,,,,,,,,,,,,,,,,,,,,,,,,,,,,,,,,,,,,,,,winter,67,95,silent,old,yellow,1515.111018399999,None,n,1515.111018399999,None,"['n', 'return']","[0.8233087000116939, 1.0791500000050291]",1515.111018399999,None,,,12,001,2023_Feb_15_1119,ExactRep-v3-final,2021.2.3,59.94326968850518,
,,,,,,,,,,,,95,0,95,0,,,,,,,,,,,,,,,,,,,,,,,,,,,,,,,,,,,,,,,,,,,,,,,,,1518.6535091999976,None,,,,,,,,,,,,,,,,,,,,,,,,,,,,,,,,,,,,,,,,,,,,,,,,,,,,,,,,,honour,85,96,aloud,old,yellow,1516.7422533999925,None,y,1516.7422533999925,None,"['y', 'return']","[1.3440090999938548, 1.8640056000003824]",1516.7422533999925,None,,,12,001,2023_Feb_15_1119,ExactRep-v3-final,2021.2.3,59.94326968850518,
,,,,,,,,,,,,96,0,96,0,,,,,,,,,,,,,,,,,,,,,,,,,,,,,,,,,,,,,,,,,,,,,,,,,1520.188447099994,None,,,,,,,,,,,,,,,,,,,,,,,,,,,,,,,,,,,,,,,,,,,,,,,,,,,,,,,,,fun,195,97,sing,new,yellow,1519.1687181000016,None,n,1519.1687181000016,None,"['n', 'return']","[0.7493745999963721, 0.9735165000020061]",1519.1687181000016,None,,,12,001,2023_Feb_15_1119,ExactRep-v3-final,2021.2.3,59.94326968850518,
,,,,,,,,,,,,97,0,97,0,,,,,,,,,,,,,,,,,,,,,,,,,,,,,,,,,,,,,,,,,,,,,,,,,1521.856620599996,None,,,,,,,,,,,,,,,,,,,,,,,,,,,,,,,,,,,,,,,,,,,,,,,,,,,,,,,,,mind,22,98,sing,old,yellow,1520.692359099994,None,n,1520.692359099994,None,"['n', 'return']","[0.9058364000084111, 1.1218166000035126]",1520.692359099994,None,,,12,001,2023_Feb_15_1119,ExactRep-v3-final,2021.2.3,59.94326968850518,
,,,,,,,,,,,,98,0,98,0,,,,,,,,,,,,,,,,,,,,,,,,,,,,,,,,,,,,,,,,,,,,,,,,,1523.5582769999892,None,,,,,,,,,,,,,,,,,,,,,,,,,,,,,,,,,,,,,,,,,,,,,,,,,,,,,,,,,priest,236,99,aloud,new,yellow,1522.362777199989,None,n,1522.362777199989,None,"['n', 'return']","[0.9314728999888757, 1.163462599986815]",1522.362777199989,None,,,12,001,2023_Feb_15_1119,ExactRep-v3-final,2021.2.3,59.94326968850518,
,,,,,,,,,,,,99,0,99,0,,,,,,,,,,,,,,,,,,,,,,,,,,,,,,,,,,,,,,,,,,,,,,,,,1524.976418499995,None,,,,,,,,,,,,,,,,,,,,,,,,,,,,,,,,,,,,,,,,,,,,,,,,,,,,,,,,,season,173,100,sing,new,yellow,1524.0683958000009,None,n,1524.0683958000009,None,"['n', 'return']","[0.6819154999975581, 0.8656647999887355]",1524.0683958000009,None,,,12,001,2023_Feb_15_1119,ExactRep-v3-final,2021.2.3,59.94326968850518,
,,,,,,,,,,,,100,0,100,0,,,,,,,,,,,,,,,,,,,,,,,,,,,,,,,,,,,,,,,,,,,,,,,,,1529.614293199993,None,,,,,,,,,,,,,,,,,,,,,,,,,,,,,,,,,,,,,,,,,,,,,,,,,,,,,,,,,dream,0,101,sing,old,yellow,1525.4854571999895,None,y,1525.4854571999895,None,"['n', 'backspace', 'y', 'return']","[0.9608283999987179, 3.3526988999947207, 3.7528495000005933, 4.096810300005018]",1525.4854571999895,None,,,12,001,2023_Feb_15_1119,ExactRep-v3-final,2021.2.3,59.94326968850518,
,,,,,,,,,,,,101,0,101,0,,,,,,,,,,,,,,,,,,,,,,,,,,,,,,,,,,,,,,,,,,,,,,,,,1531.3329037999938,None,,,,,,,,,,,,,,,,,,,,,,,,,,,,,,,,,,,,,,,,,,,,,,,,,,,,,,,,,blossom,54,102,silent,old,yellow,1530.1246796999912,None,n,1530.1246796999912,None,"['n', 'return']","[0.9695088000007672, 1.161602699998184]",1530.1246796999912,None,,,12,001,2023_Feb_15_1119,ExactRep-v3-final,2021.2.3,59.94326968850518,
,,,,,,,,,,,,102,0,102,0,,,,,,,,,,,,,,,,,,,,,,,,,,,,,,,,,,,,,,,,,,,,,,,,,1534.6861411999998,None,,,,,,,,,,,,,,,,,,,,,,,,,,,,,,,,,,,,,,,,,,,,,,,,,,,,,,,,,earth,130,103,silent,new,yellow,1531.84376589999,None,n,1531.84376589999,None,"['n', 'return']","[0.8584081000008155, 2.810439299995778]",1531.84376589999,None,,,12,001,2023_Feb_15_1119,ExactRep-v3-final,2021.2.3,59.94326968850518,
,,,,,,,,,,,,103,0,103,0,,,,,,,,,,,,,,,,,,,,,,,,,,,,,,,,,,,,,,,,,,,,,,,,,1536.7381414999982,None,,,,,,,,,,,,,,,,,,,,,,,,,,,,,,,,,,,,,,,,,,,,,,,,,,,,,,,,,silence,135,104,silent,new,yellow,1535.2009714000014,None,n,1535.2009714000014,None,"['n', 'return']","[1.1972042999987025, 1.4931388000113657]",1535.2009714000014,None,,,12,001,2023_Feb_15_1119,ExactRep-v3-final,2021.2.3,59.94326968850518,
,,,,,,,,,,,,104,0,104,0,,,,,,,,,,,,,,,,,,,,,,,,,,,,,,,,,,,,,,,,,,,,,,,,,1539.2071894999972,None,,,,,,,,,,,,,,,,,,,,,,,,,,,,,,,,,,,,,,,,,,,,,,,,,,,,,,,,,theory,94,105,aloud,old,yellow,1537.2480934999912,None,y,1537.2480934999912,None,"['y', 'return']","[1.654206700011855, 1.9260773000132758]",1537.2480934999912,None,,,12,001,2023_Feb_15_1119,ExactRep-v3-final,2021.2.3,59.94326968850518,
,,,,,,,,,,,,105,0,105,0,,,,,,,,,,,,,,,,,,,,,,,,,,,,,,,,,,,,,,,,,,,,,,,,,1541.075790399991,None,,,,,,,,,,,,,,,,,,,,,,,,,,,,,,,,,,,,,,,,,,,,,,,,,,,,,,,,,window,150,106,silent,new,yellow,1539.7187841999985,None,n,1539.7187841999985,None,"['n', 'return']","[1.0553432000015164, 1.31946230000176]",1539.7187841999985,None,,,12,001,2023_Feb_15_1119,ExactRep-v3-final,2021.2.3,59.94326968850518,
,,,,,,,,,,,,106,0,106,0,,,,,,,,,,,,,,,,,,,,,,,,,,,,,,,,,,,,,,,,,,,,,,,,,1543.1279189999914,None,,,,,,,,,,,,,,,,,,,,,,,,,,,,,,,,,,,,,,,,,,,,,,,,,,,,,,,,,boy,14,107,sing,old,yellow,1541.5908313999971,None,n,1541.5908313999971,None,"['n', 'n', 'return']","[0.7754790000035428, 1.0154819000017596, 1.495357400010107]",1541.5908313999971,None,,,12,001,2023_Feb_15_1119,ExactRep-v3-final,2021.2.3,59.94326968850518,
,,,,,,,,,,,,107,0,107,0,,,,,,,,,,,,,,,,,,,,,,,,,,,,,,,,,,,,,,,,,,,,,,,,,1545.063166299995,None,,,,,,,,,,,,,,,,,,,,,,,,,,,,,,,,,,,,,,,,,,,,,,,,,,,,,,,,,sky,162,108,aloud,new,yellow,1543.6379518999893,None,n,1543.6379518999893,None,"['n', 'return']","[0.8562122000003001, 1.3922601000085706]",1543.6379518999893,None,,,12,001,2023_Feb_15_1119,ExactRep-v3-final,2021.2.3,59.94326968850518,
,,,,,,,,,,,,108,0,108,0,,,,,,,,,,,,,,,,,,,,,,,,,,,,,,,,,,,,,,,,,,,,,,,,,1546.7147370999883,None,,,,,,,,,,,,,,,,,,,,,,,,,,,,,,,,,,,,,,,,,,,,,,,,,,,,,,,,,brain,12,109,sing,old,yellow,1545.5730810999958,None,n,1545.5730810999958,None,"['n', 'return']","[0.7773298999964027, 1.1052480999933323]",1545.5730810999958,None,,,12,001,2023_Feb_15_1119,ExactRep-v3-final,2021.2.3,59.94326968850518,
,,,,,,,,,,,,109,0,109,0,,,,,,,,,,,,,,,,,,,,,,,,,,,,,,,,,,,,,,,,,,,,,,,,,1549.1004960999999,None,,,,,,,,,,,,,,,,,,,,,,,,,,,,,,,,,,,,,,,,,,,,,,,,,,,,,,,,,moment,147,110,silent,new,yellow,1547.224694599994,None,y,1547.224694599994,None,"['y', 'return']","[1.573792900002445, 1.8375223000039114]",1547.224694599994,None,,,12,001,2023_Feb_15_1119,ExactRep-v3-final,2021.2.3,59.94326968850518,
,,,,,,,,,,,,110,0,110,0,,,,,,,,,,,,,,,,,,,,,,,,,,,,,,,,,,,,,,,,,,,,,,,,,1550.6520975000021,None,,,,,,,,,,,,,,,,,,,,,,,,,,,,,,,,,,,,,,,,,,,,,,,,,,,,,,,,,flower,156,111,silent,new,yellow,1549.6099864999996,None,n,1549.6099864999996,None,"['n', 'return']","[0.8122256999922683, 0.9963052999955835]",1549.6099864999996,None,,,12,001,2023_Feb_15_1119,ExactRep-v3-final,2021.2.3,59.94326968850518,
,,,,,,,,,,,,111,0,111,0,,,,,,,,,,,,,,,,,,,,,,,,,,,,,,,,,,,,,,,,,,,,,,,,,1552.6706943999889,None,,,,,,,,,,,,,,,,,,,,,,,,,,,,,,,,,,,,,,,,,,,,,,,,,,,,,,,,,friend,159,112,silent,new,yellow,1551.1617689999985,None,n,1551.1617689999985,None,"['n', 'return']","[0.6603234000067459, 1.4684475000103703]",1551.1617689999985,None,,,12,001,2023_Feb_15_1119,ExactRep-v3-final,2021.2.3,59.94326968850518,
,,,,,,,,,,,,112,0,112,0,,,,,,,,,,,,,,,,,,,,,,,,,,,,,,,,,,,,,,,,,,,,,,,,,1554.405823299996,None,,,,,,,,,,,,,,,,,,,,,,,,,,,,,,,,,,,,,,,,,,,,,,,,,,,,,,,,,chair,160,113,aloud,new,yellow,1553.1815444999957,None,n,1553.1815444999957,None,"['n', 'return']","[0.9366746999876341, 1.1927423999877647]",1553.1815444999957,None,,,12,001,2023_Feb_15_1119,ExactRep-v3-final,2021.2.3,59.94326968850518,
,,,,,,,,,,,,113,0,113,0,,,,,,,,,,,,,,,,,,,,,,,,,,,,,,,,,,,,,,,,,,,,,,,,,1556.040909999996,None,,,,,,,,,,,,,,,,,,,,,,,,,,,,,,,,,,,,,,,,,,,,,,,,,,,,,,,,,cattle,123,114,silent,new,yellow,1554.9221783999965,None,n,1554.9221783999965,None,"['n', 'return']","[0.8761405999975977, 1.076001699999324]",1554.9221783999965,None,,,12,001,2023_Feb_15_1119,ExactRep-v3-final,2021.2.3,59.94326968850518,
,,,,,,,,,,,,114,0,114,0,,,,,,,,,,,,,,,,,,,,,,,,,,,,,,,,,,,,,,,,,,,,,,,,,1558.0594287999993,None,,,,,,,,,,,,,,,,,,,,,,,,,,,,,,,,,,,,,,,,,,,,,,,,,,,,,,,,,heaven,107,115,aloud,old,yellow,1556.5549228000018,None,y,1556.5549228000018,None,"['y', 'return']","[1.07550849999825, 1.4673651000048267]",1556.5549228000018,None,,,12,001,2023_Feb_15_1119,ExactRep-v3-final,2021.2.3,59.94326968850518,
,,,,,,,,,,,,115,0,115,0,,,,,,,,,,,,,,,,,,,,,,,,,,,,,,,,,,,,,,,,,,,,,,,,,1559.76109,None,,,,,,,,,,,,,,,,,,,,,,,,,,,,,,,,,,,,,,,,,,,,,,,,,,,,,,,,,length,190,116,aloud,new,yellow,1558.5698932999949,None,n,1558.5698932999949,None,"['n', 'return']","[0.9482331999897724, 1.148292699988815]",1558.5698932999949,None,,,12,001,2023_Feb_15_1119,ExactRep-v3-final,2021.2.3,59.94326968850518,
,,,,,,,,,,,,116,0,116,0,,,,,,,,,,,,,,,,,,,,,,,,,,,,,,,,,,,,,,,,,,,,,,,,,1561.2794563999923,None,,,,,,,,,,,,,,,,,,,,,,,,,,,,,,,,,,,,,,,,,,,,,,,,,,,,,,,,,apple,64,117,silent,old,yellow,1560.271018799991,None,n,1560.271018799991,None,"['n', 'return']","[0.7353227999992669, 0.9753940000082366]",1560.271018799991,None,,,12,001,2023_Feb_15_1119,ExactRep-v3-final,2021.2.3,59.94326968850518,
,,,,,,,,,,,,117,0,117,0,,,,,,,,,,,,,,,,,,,,,,,,,,,,,,,,,,,,,,,,,,,,,,,,,1562.8642421999975,None,,,,,,,,,,,,,,,,,,,,,,,,,,,,,,,,,,,,,,,,,,,,,,,,,,,,,,,,,disease,110,118,aloud,old,yellow,1561.7919250999985,None,n,1561.7919250999985,None,"['n', 'return']","[0.8225411000021268, 1.030238500010455]",1561.7919250999985,None,,,12,001,2023_Feb_15_1119,ExactRep-v3-final,2021.2.3,59.94326968850518,
,,,,,,,,,,,,118,0,118,0,,,,,,,,,,,,,,,,,,,,,,,,,,,,,,,,,,,,,,,,,,,,,,,,,1564.5659079999896,None,,,,,,,,,,,,,,,,,,,,,,,,,,,,,,,,,,,,,,,,,,,,,,,,,,,,,,,,,mercy,151,119,silent,new,yellow,1563.3724223999889,None,n,1563.3724223999889,None,"['n', 'return']","[0.9300469000008889, 1.1457460000092397]",1563.3724223999889,None,,,12,001,2023_Feb_15_1119,ExactRep-v3-final,2021.2.3,59.94326968850518,
,,,,,,,,,,,,119,0,119,0,,,,,,,,,,,,,,,,,,,,,,,,,,,,,,,,,,,,,,,,,,,,,,,,,1566.96850979999,None,,,,,,,,,,,,,,,,,,,,,,,,,,,,,,,,,,,,,,,,,,,,,,,,,,,,,,,,,bird,87,120,aloud,old,yellow,1565.078956199999,None,y,1565.078956199999,None,"['y', 'return']","[1.5833136000001105, 1.8472137999924598]",1565.078956199999,None,,,12,001,2023_Feb_15_1119,ExactRep-v3-final,2021.2.3,59.94326968850518,
,,,,,,,,,,,,120,0,120,0,,,,,,,,,,,,,,,,,,,,,,,,,,,,,,,,,,,,,,,,,,,,,,,,,1568.4864687999943,None,,,,,,,,,,,,,,,,,,,,,,,,,,,,,,,,,,,,,,,,,,,,,,,,,,,,,,,,,charm,218,121,aloud,new,yellow,1567.4787039999937,None,n,1567.4787039999937,None,"['n', 'return']","[0.7595040000014706, 0.9754104000021471]",1567.4787039999937,None,,,12,001,2023_Feb_15_1119,ExactRep-v3-final,2021.2.3,59.94326968850518,
,,,,,,,,,,,,121,0,121,0,,,,,,,,,,,,,,,,,,,,,,,,,,,,,,,,,,,,,,,,,,,,,,,,,1570.0578582000016,None,,,,,,,,,,,,,,,,,,,,,,,,,,,,,,,,,,,,,,,,,,,,,,,,,,,,,,,,,queen,166,122,aloud,new,yellow,1568.9956945000013,None,n,1568.9956945000013,None,"['n', 'return']","[0.7866363999928581, 1.0184547999961069]",1568.9956945000013,None,,,12,001,2023_Feb_15_1119,ExactRep-v3-final,2021.2.3,59.94326968850518,
,,,,,,,,,,,,122,0,122,0,,,,,,,,,,,,,,,,,,,,,,,,,,,,,,,,,,,,,,,,,,,,,,,,,1571.4894835000014,None,,,,,,,,,,,,,,,,,,,,,,,,,,,,,,,,,,,,,,,,,,,,,,,,,,,,,,,,,engine,53,123,silent,old,yellow,1570.5848623999918,None,n,1570.5848623999918,None,"['n', 'return']","[0.6533450000133598, 0.8613245000015013]",1570.5848623999918,None,,,12,001,2023_Feb_15_1119,ExactRep-v3-final,2021.2.3,59.94326968850518,
,,,,,,,,,,,,123,0,123,0,,,,,,,,,,,,,,,,,,,,,,,,,,,,,,,,,,,,,,,,,,,,,,,,,1573.725089200001,None,,,,,,,,,,,,,,,,,,,,,,,,,,,,,,,,,,,,,,,,,,,,,,,,,,,,,,,,,ship,91,124,aloud,old,yellow,1571.9912929999991,None,y,1571.9912929999991,None,"['y', 'return']","[0.9908880000002682, 1.6869220000080531]",1571.9912929999991,None,,,12,001,2023_Feb_15_1119,ExactRep-v3-final,2021.2.3,59.94326968850518,
,,,,,,,,,,,,124,0,124,0,,,,,,,,,,,,,,,,,,,,,,,,,,,,,,,,,,,,,,,,,,,,,,,,,1575.2935287,None,,,,,,,,,,,,,,,,,,,,,,,,,,,,,,,,,,,,,,,,,,,,,,,,,,,,,,,,,rock,167,125,sing,new,yellow,1574.2332539999916,None,n,1574.2332539999916,None,"['n', 'return']","[0.8211147999973036, 1.0210140999988653]",1574.2332539999916,None,,,12,001,2023_Feb_15_1119,ExactRep-v3-final,2021.2.3,59.94326968850518,
,,,,,,,,,,,,125,0,125,0,,,,,,,,,,,,,,,,,,,,,,,,,,,,,,,,,,,,,,,,,,,,,,,,,1576.9450816999888,None,,,,,,,,,,,,,,,,,,,,,,,,,,,,,,,,,,,,,,,,,,,,,,,,,,,,,,,,,toy,101,126,aloud,old,yellow,1575.799267399998,None,n,1575.799267399998,None,"['n', 'return']","[0.863056799993501, 1.102963199999067]",1575.799267399998,None,,,12,001,2023_Feb_15_1119,ExactRep-v3-final,2021.2.3,59.94326968850518,
,,,,,,,,,,,,126,0,126,0,,,,,,,,,,,,,,,,,,,,,,,,,,,,,,,,,,,,,,,,,,,,,,,,,1579.714442299999,None,,,,,,,,,,,,,,,,,,,,,,,,,,,,,,,,,,,,,,,,,,,,,,,,,,,,,,,,,bottle,80,127,aloud,old,yellow,1577.4548339999892,None,y,1577.4548339999892,None,"['n', 'backspace', 'y', 'return']","[0.7837182999937795, 1.5593803999945521, 1.983428699997603, 2.22343600000022]",1577.4548339999892,None,,,12,001,2023_Feb_15_1119,ExactRep-v3-final,2021.2.3,59.94326968850518,
,,,,,,,,,,,,127,0,127,0,,,,,,,,,,,,,,,,,,,,,,,,,,,,,,,,,,,,,,,,,,,,,,,,,1581.282685699989,None,,,,,,,,,,,,,,,,,,,,,,,,,,,,,,,,,,,,,,,,,,,,,,,,,,,,,,,,,health,201,128,sing,new,yellow,1580.226783399994,None,n,1580.226783399994,None,"['n', 'return']","[0.827658900001552, 1.0195277000020724]",1580.226783399994,None,,,12,001,2023_Feb_15_1119,ExactRep-v3-final,2021.2.3,59.94326968850518,
,,,,,,,,,,,,128,0,128,0,,,,,,,,,,,,,,,,,,,,,,,,,,,,,,,,,,,,,,,,,,,,,,,,,1582.717465499998,None,,,,,,,,,,,,,,,,,,,,,,,,,,,,,,,,,,,,,,,,,,,,,,,,,,,,,,,,,series,149,129,silent,new,yellow,1581.792757099989,None,n,1581.792757099989,None,"['n', 'return']","[0.6934527999983402, 0.8775197000068147]",1581.792757099989,None,,,12,001,2023_Feb_15_1119,ExactRep-v3-final,2021.2.3,59.94326968850518,
,,,,,,,,,,,,129,0,129,0,,,,,,,,,,,,,,,,,,,,,,,,,,,,,,,,,,,,,,,,,,,,,,,,,1585.1532321999985,None,,,,,,,,,,,,,,,,,,,,,,,,,,,,,,,,,,,,,,,,,,,,,,,,,,,,,,,,,machine,95,130,aloud,old,yellow,1583.2266885999998,None,n,1583.2266885999998,None,"['n', 'return']","[1.6675220000033733, 1.883517900001607]",1583.2266885999998,None,,,12,001,2023_Feb_15_1119,ExactRep-v3-final,2021.2.3,59.94326968850518,
,,,,,,,,,,,,130,0,130,0,,,,,,,,,,,,,,,,,,,,,,,,,,,,,,,,,,,,,,,,,,,,,,,,,1587.1719595999893,None,,,,,,,,,,,,,,,,,,,,,,,,,,,,,,,,,,,,,,,,,,,,,,,,,,,,,,,,,forest,9,131,sing,old,yellow,1585.665213100001,None,y,1585.665213100001,None,"['y', 'return']","[1.1889551999920513, 1.4691220999957295]",1585.665213100001,None,,,12,001,2023_Feb_15_1119,ExactRep-v3-final,2021.2.3,59.94326968850518,
