trials_fam.thisRepN,trials_fam.thisTrialN,trials_fam.thisN,trials_fam.thisIndex,trials_prc.thisRepN,trials_prc.thisTrialN,trials_prc.thisN,trials_prc.thisIndex,StudyLoop.thisRepN,StudyLoop.thisTrialN,StudyLoop.thisN,StudyLoop.thisIndex,TestLoop.thisRepN,TestLoop.thisTrialN,TestLoop.thisN,TestLoop.thisIndex,text_colortest.started,text_colortest.stopped,key_colortest.keys,key_colortest.rt,key_colortest.started,key_colortest.stopped,textCondition.started,textCondition.stopped,keyCondition.keys,keyCondition.rt,keyCondition.started,keyCondition.stopped,Condition_between,Condition_counterbal,keyWelcome.keys,keyWelcome.rt,keyWelcome.started,keyWelcome.stopped,welcome_a.started,welcome_a.stopped,welcome_b.started,welcome_b.stopped,welcome_c.started,welcome_c.stopped,welcome_d.started,welcome_d.stopped,welcome_e.started,welcome_e.stopped,welcome_f.started,welcome_f.stopped,key_resp_fam_inst.keys,key_resp_fam_inst.rt,key_resp_fam_inst.started,key_resp_fam_inst.stopped,fam_a.started,fam_a.stopped,fam_b.started,fam_b.stopped,fam_c.started,fam_c.stopped,fam_d.started,fam_d.stopped,fam_e.started,fam_e.stopped,fam_f.started,fam_f.stopped,text_famil.started,text_famil.stopped,textBlank500.started,textBlank500.stopped,key_resp_prc_inst.keys,key_resp_prc_inst.rt,key_resp_prc_inst.started,key_resp_prc_inst.stopped,prac_a.started,prac_a.stopped,prac_b.started,prac_b.stopped,prac_c.started,prac_c.stopped,prac_d.started,prac_d.stopped,prac_e.started,prac_e.stopped,prac_f.started,prac_f.stopped,text_prc_trial.started,text_prc_trial.stopped,key_resp_study_inst.keys,key_resp_study_inst.rt,key_resp_study_inst.started,key_resp_study_inst.stopped,crit_a.started,crit_a.stopped,crit_b.started,crit_b.stopped,crit_c.started,crit_c.stopped,crit_d.started,crit_d.stopped,crit_e.started,crit_e.stopped,crit_f.started,crit_f.stopped,study_word,study_num,study_order,study_type,word_color,textStudy.started,textStudy.stopped,keyStudy.keys,keyStudy.started,keyStudy.stopped,post_study.started,post_study.stopped,key_resp_post_study.keys,key_resp_post_study.rt,key_resp_post_study.started,key_resp_post_study.stopped,test_inst.started,test_inst.stopped,key_resp_test_inst.keys,key_resp_test_inst.rt,key_resp_test_inst.started,key_resp_test_inst.stopped,test_word,test_num,test_order,test_condition,old_new_test,word_color_test,textConf.started,textConf.stopped,Participant Response,textInput.started,textInput.stopped,keyResp.keys,keyResp.rt,keyResp.started,keyResp.stopped,textEnd.started,textEnd.stopped,participant,session,date,expName,psychopyVersion,frameRate,
,,,,,,,,,,,,,,,,19.077356499969028,None,y,5.694665100076236,19.077356499969028,None,,,,,,,,,,,,,,,,,,,,,,,,,,,,,,,,,,,,,,,,,,,,,,,,,,,,,,,,,,,,,,,,,,,,,,,,,,,,,,,,,,,,,,,,,,,,,,,,,,,,,,,,,,,,,,,,,,,,,,13,001,2023_Feb_22_1021,ExactRep-v3-final,2021.2.3,59.95980292125099,
,,,,,,,,,,,,,,,,,,,,,,24.789022600045428,None,a,0.5028617000207305,24.789022600045428,None,,,,,,,,,,,,,,,,,,,,,,,,,,,,,,,,,,,,,,,,,,,,,,,,,,,,,,,,,,,,,,,,,,,,,,,,,,,,,,,,,,,,,,,,,,,,,,,,,,,,,,,,,,,,,,,,13,001,2023_Feb_22_1021,ExactRep-v3-final,2021.2.3,59.95980292125099,
,,,,,,,,,,,,,,,,,,,,,,,,,,,,colorfoils,a,space,1341.0905187000753,35.442984999972396,None,,,,,,,,,,,,,,,,,,,,,,,,,,,,,,,,,,,,,,,,,,,,,,,,,,,,,,,,,,,,,,,,,,,,,,,,,,,,,,,,,,,,,,,,,,,,,,,,,,,,,,,,,,13,001,2023_Feb_22_1021,ExactRep-v3-final,2021.2.3,59.95980292125099,
,,,,,,,,,,,,,,,,,,,,,,,,,,,,,,,,,,25.49198030005209,None,25.49198030005209,None,25.49198030005209,None,25.49198030005209,None,25.49198030005209,None,25.49198030005209,None,space,17.21878600004129,1386.7067101999419,None,,,,,,,,,,,,,,,,,,,,,,,,,,,,,,,,,,,,,,,,,,,,,,,,,,,,,,,,,,,,,,,,,,,,,,,,,,,,,,,,,,,,,,,,,,13,001,2023_Feb_22_1021,ExactRep-v3-final,2021.2.3,59.95980292125099,
0,0,0,0,,,,,,,,,,,,,,,,,,,,,,,,,,,,,,,,,,,,,,,,,,,,,,,1376.7805174000096,None,1376.7805174000096,None,1376.7805174000096,None,1376.7805174000096,None,1376.7805174000096,None,1376.7805174000096,None,1404.0271282000467,None,1406.0203995000338,None,,,,,,,,,,,,,,,,,,,,,,,,,,,,,,,,,,,,,,,,,,,,,,,,,,,,,,,,,,,,,,,,,,,,,,,,,,13,001,2023_Feb_22_1021,ExactRep-v3-final,2021.2.3,59.95980292125099,
1,0,1,0,,,,,,,,,,,,,,,,,,,,,,,,,,,,,,,,,,,,,,,,,,,,,,,,,,,,,,,,,,,1406.5208312999457,None,1408.5229153999826,None,,,,,,,,,,,,,,,,,,,,,,,,,,,,,,,,,,,,,,,,,,,,,,,,,,,,,,,,,,,,,,,,,,,,,,,,,,13,001,2023_Feb_22_1021,ExactRep-v3-final,2021.2.3,59.95980292125099,
2,0,2,0,,,,,,,,,,,,,,,,,,,,,,,,,,,,,,,,,,,,,,,,,,,,,,,,,,,,,,,,,,,1409.0417802999727,None,1411.0421221000142,None,,,,,,,,,,,,,,,,,,,,,,,,,,,,,,,,,,,,,,,,,,,,,,,,,,,,,,,,,,,,,,,,,,,,,,,,,,13,001,2023_Feb_22_1021,ExactRep-v3-final,2021.2.3,59.95980292125099,
3,0,3,0,,,,,,,,,,,,,,,,,,,,,,,,,,,,,,,,,,,,,,,,,,,,,,,,,,,,,,,,,,,1411.5426353999646,None,1413.544465700048,None,,,,,,,,,,,,,,,,,,,,,,,,,,,,,,,,,,,,,,,,,,,,,,,,,,,,,,,,,,,,,,,,,,,,,,,,,,13,001,2023_Feb_22_1021,ExactRep-v3-final,2021.2.3,59.95980292125099,
4,0,4,0,,,,,,,,,,,,,,,,,,,,,,,,,,,,,,,,,,,,,,,,,,,,,,,,,,,,,,,,,,,1414.0549086000537,None,1416.0640295000048,None,,,,,,,,,,,,,,,,,,,,,,,,,,,,,,,,,,,,,,,,,,,,,,,,,,,,,,,,,,,,,,,,,,,,,,,,,,13,001,2023_Feb_22_1021,ExactRep-v3-final,2021.2.3,59.95980292125099,
5,0,5,0,,,,,,,,,,,,,,,,,,,,,,,,,,,,,,,,,,,,,,,,,,,,,,,,,,,,,,,,,,,1416.564546699985,None,1418.5662847999483,None,,,,,,,,,,,,,,,,,,,,,,,,,,,,,,,,,,,,,,,,,,,,,,,,,,,,,,,,,,,,,,,,,,,,,,,,,,13,001,2023_Feb_22_1021,ExactRep-v3-final,2021.2.3,59.95980292125099,
6,0,6,0,,,,,,,,,,,,,,,,,,,,,,,,,,,,,,,,,,,,,,,,,,,,,,,,,,,,,,,,,,,1419.0674329999601,None,1421.0688932000194,None,,,,,,,,,,,,,,,,,,,,,,,,,,,,,,,,,,,,,,,,,,,,,,,,,,,,,,,,,,,,,,,,,,,,,,,,,,13,001,2023_Feb_22_1021,ExactRep-v3-final,2021.2.3,59.95980292125099,
7,0,7,0,,,,,,,,,,,,,,,,,,,,,,,,,,,,,,,,,,,,,,,,,,,,,,,,,,,,,,,,,,,1421.5694530999754,None,1423.5714355000528,None,,,,,,,,,,,,,,,,,,,,,,,,,,,,,,,,,,,,,,,,,,,,,,,,,,,,,,,,,,,,,,,,,,,,,,,,,,13,001,2023_Feb_22_1021,ExactRep-v3-final,2021.2.3,59.95980292125099,
8,0,8,0,,,,,,,,,,,,,,,,,,,,,,,,,,,,,,,,,,,,,,,,,,,,,,,,,,,,,,,,,,,1424.0718724000035,None,1426.0734582999721,None,,,,,,,,,,,,,,,,,,,,,,,,,,,,,,,,,,,,,,,,,,,,,,,,,,,,,,,,,,,,,,,,,,,,,,,,,,13,001,2023_Feb_22_1021,ExactRep-v3-final,2021.2.3,59.95980292125099,
9,0,9,0,,,,,,,,,,,,,,,,,,,,,,,,,,,,,,,,,,,,,,,,,,,,,,,,,,,,,,,,,,,1426.5813630999764,None,1428.593140700017,None,,,,,,,,,,,,,,,,,,,,,,,,,,,,,,,,,,,,,,,,,,,,,,,,,,,,,,,,,,,,,,,,,,,,,,,,,,13,001,2023_Feb_22_1021,ExactRep-v3-final,2021.2.3,59.95980292125099,
10,0,10,0,,,,,,,,,,,,,,,,,,,,,,,,,,,,,,,,,,,,,,,,,,,,,,,,,,,,,,,,,,,1429.1000627999892,None,1431.1121626000386,None,,,,,,,,,,,,,,,,,,,,,,,,,,,,,,,,,,,,,,,,,,,,,,,,,,,,,,,,,,,,,,,,,,,,,,,,,,13,001,2023_Feb_22_1021,ExactRep-v3-final,2021.2.3,59.95980292125099,
11,0,11,0,,,,,,,,,,,,,,,,,,,,,,,,,,,,,,,,,,,,,,,,,,,,,,,,,,,,,,,,,,,1431.613399600028,None,1433.6147504999535,None,,,,,,,,,,,,,,,,,,,,,,,,,,,,,,,,,,,,,,,,,,,,,,,,,,,,,,,,,,,,,,,,,,,,,,,,,,13,001,2023_Feb_22_1021,ExactRep-v3-final,2021.2.3,59.95980292125099,
12,0,12,0,,,,,,,,,,,,,,,,,,,,,,,,,,,,,,,,,,,,,,,,,,,,,,,,,,,,,,,,,,,1434.1224747999804,None,1436.133903500042,None,,,,,,,,,,,,,,,,,,,,,,,,,,,,,,,,,,,,,,,,,,,,,,,,,,,,,,,,,,,,,,,,,,,,,,,,,,13,001,2023_Feb_22_1021,ExactRep-v3-final,2021.2.3,59.95980292125099,
13,0,13,0,,,,,,,,,,,,,,,,,,,,,,,,,,,,,,,,,,,,,,,,,,,,,,,,,,,,,,,,,,,1436.6341761000222,None,1438.636373299989,None,,,,,,,,,,,,,,,,,,,,,,,,,,,,,,,,,,,,,,,,,,,,,,,,,,,,,,,,,,,,,,,,,,,,,,,,,,13,001,2023_Feb_22_1021,ExactRep-v3-final,2021.2.3,59.95980292125099,
14,0,14,0,,,,,,,,,,,,,,,,,,,,,,,,,,,,,,,,,,,,,,,,,,,,,,,,,,,,,,,,,,,1439.136960700038,None,1441.1388591000577,None,,,,,,,,,,,,,,,,,,,,,,,,,,,,,,,,,,,,,,,,,,,,,,,,,,,,,,,,,,,,,,,,,,,,,,,,,,13,001,2023_Feb_22_1021,ExactRep-v3-final,2021.2.3,59.95980292125099,
,,,,,,,,,,,,,,,,,,,,,,,,,,,,,,,,,,,,,,,,,,,,,,,,,,,,,,,,,,,,,,,,,,space,19.791971299913712,1451.7900445000269,None,,,,,,,,,,,,,,,,,,,,,,,,,,,,,,,,,,,,,,,,,,,,,,,,,,,,,,,,,,,,,,,,,,,,,,13,001,2023_Feb_22_1021,ExactRep-v3-final,2021.2.3,59.95980292125099,
,,,,0,0,0,0,,,,,,,,,,,,,,,,,,,,,,,,,,,,,,,,,,,,,,,,,,,,,,,,,,,,,,,,,1473.6547263000393,None,,,,,1441.809893000056,None,1441.809893000056,None,1441.809893000056,None,1441.809893000056,None,1441.809893000056,None,1441.809893000056,None,1471.6494007000001,None,,,,,,,,,,,,,,,,,,,,,,,,,,,,,,,,,,,,,,,,,,,,,,,,,,,,,,,,13,001,2023_Feb_22_1021,ExactRep-v3-final,2021.2.3,59.95980292125099,
,,,,1,0,1,0,,,,,,,,,,,,,,,,,,,,,,,,,,,,,,,,,,,,,,,,,,,,,,,,,,,,,,,,,1476.1570940000238,None,,,,,,,,,,,,,,,,,1474.1552655999549,None,,,,,,,,,,,,,,,,,,,,,,,,,,,,,,,,,,,,,,,,,,,,,,,,,,,,,,,,13,001,2023_Feb_22_1021,ExactRep-v3-final,2021.2.3,59.95980292125099,
,,,,2,0,2,0,,,,,,,,,,,,,,,,,,,,,,,,,,,,,,,,,,,,,,,,,,,,,,,,,,,,,,,,,1478.6597753999522,None,,,,,,,,,,,,,,,,,1476.657942299964,None,,,,,,,,,,,,,,,,,,,,,,,,,,,,,,,,,,,,,,,,,,,,,,,,,,,,,,,,13,001,2023_Feb_22_1021,ExactRep-v3-final,2021.2.3,59.95980292125099,
,,,,3,0,3,0,,,,,,,,,,,,,,,,,,,,,,,,,,,,,,,,,,,,,,,,,,,,,,,,,,,,,,,,,1481.1622159000253,None,,,,,,,,,,,,,,,,,1479.1601053000195,None,,,,,,,,,,,,,,,,,,,,,,,,,,,,,,,,,,,,,,,,,,,,,,,,,,,,,,,,13,001,2023_Feb_22_1021,ExactRep-v3-final,2021.2.3,59.95980292125099,
,,,,4,0,4,0,,,,,,,,,,,,,,,,,,,,,,,,,,,,,,,,,,,,,,,,,,,,,,,,,,,,,,,,,1483.664756800048,None,,,,,,,,,,,,,,,,,1481.6625806000084,None,,,,,,,,,,,,,,,,,,,,,,,,,,,,,,,,,,,,,,,,,,,,,,,,,,,,,,,,13,001,2023_Feb_22_1021,ExactRep-v3-final,2021.2.3,59.95980292125099,
,,,,5,0,5,0,,,,,,,,,,,,,,,,,,,,,,,,,,,,,,,,,,,,,,,,,,,,,,,,,,,,,,,,,1486.1672183000483,None,,,,,,,,,,,,,,,,,1484.165250799968,None,,,,,,,,,,,,,,,,,,,,,,,,,,,,,,,,,,,,,,,,,,,,,,,,,,,,,,,,13,001,2023_Feb_22_1021,ExactRep-v3-final,2021.2.3,59.95980292125099,
,,,,6,0,6,0,,,,,,,,,,,,,,,,,,,,,,,,,,,,,,,,,,,,,,,,,,,,,,,,,,,,,,,,,1488.669715499971,None,,,,,,,,,,,,,,,,,1486.6677261999575,None,,,,,,,,,,,,,,,,,,,,,,,,,,,,,,,,,,,,,,,,,,,,,,,,,,,,,,,,13,001,2023_Feb_22_1021,ExactRep-v3-final,2021.2.3,59.95980292125099,
,,,,7,0,7,0,,,,,,,,,,,,,,,,,,,,,,,,,,,,,,,,,,,,,,,,,,,,,,,,,,,,,,,,,1491.1722390999785,None,,,,,,,,,,,,,,,,,1489.1703115999699,None,,,,,,,,,,,,,,,,,,,,,,,,,,,,,,,,,,,,,,,,,,,,,,,,,,,,,,,,13,001,2023_Feb_22_1021,ExactRep-v3-final,2021.2.3,59.95980292125099,
,,,,8,0,8,0,,,,,,,,,,,,,,,,,,,,,,,,,,,,,,,,,,,,,,,,,,,,,,,,,,,,,,,,,1493.674768900033,None,,,,,,,,,,,,,,,,,1491.672747900011,None,,,,,,,,,,,,,,,,,,,,,,,,,,,,,,,,,,,,,,,,,,,,,,,,,,,,,,,,13,001,2023_Feb_22_1021,ExactRep-v3-final,2021.2.3,59.95980292125099,
,,,,9,0,9,0,,,,,,,,,,,,,,,,,,,,,,,,,,,,,,,,,,,,,,,,,,,,,,,,,,,,,,,,,1496.1771912999684,None,,,,,,,,,,,,,,,,,1494.1752400000114,None,,,,,,,,,,,,,,,,,,,,,,,,,,,,,,,,,,,,,,,,,,,,,,,,,,,,,,,,13,001,2023_Feb_22_1021,ExactRep-v3-final,2021.2.3,59.95980292125099,
,,,,10,0,10,0,,,,,,,,,,,,,,,,,,,,,,,,,,,,,,,,,,,,,,,,,,,,,,,,,,,,,,,,,1498.6799384000478,None,,,,,,,,,,,,,,,,,1496.6778292000527,None,,,,,,,,,,,,,,,,,,,,,,,,,,,,,,,,,,,,,,,,,,,,,,,,,,,,,,,,13,001,2023_Feb_22_1021,ExactRep-v3-final,2021.2.3,59.95980292125099,
,,,,11,0,11,0,,,,,,,,,,,,,,,,,,,,,,,,,,,,,,,,,,,,,,,,,,,,,,,,,,,,,,,,,1501.1822271000128,None,,,,,,,,,,,,,,,,,1499.1802512999857,None,,,,,,,,,,,,,,,,,,,,,,,,,,,,,,,,,,,,,,,,,,,,,,,,,,,,,,,,13,001,2023_Feb_22_1021,ExactRep-v3-final,2021.2.3,59.95980292125099,
,,,,12,0,12,0,,,,,,,,,,,,,,,,,,,,,,,,,,,,,,,,,,,,,,,,,,,,,,,,,,,,,,,,,1503.6847272999585,None,,,,,,,,,,,,,,,,,1501.682772399974,None,,,,,,,,,,,,,,,,,,,,,,,,,,,,,,,,,,,,,,,,,,,,,,,,,,,,,,,,13,001,2023_Feb_22_1021,ExactRep-v3-final,2021.2.3,59.95980292125099,
,,,,13,0,13,0,,,,,,,,,,,,,,,,,,,,,,,,,,,,,,,,,,,,,,,,,,,,,,,,,,,,,,,,,1506.187233399949,None,,,,,,,,,,,,,,,,,1504.185252700001,None,,,,,,,,,,,,,,,,,,,,,,,,,,,,,,,,,,,,,,,,,,,,,,,,,,,,,,,,13,001,2023_Feb_22_1021,ExactRep-v3-final,2021.2.3,59.95980292125099,
,,,,14,0,14,0,,,,,,,,,,,,,,,,,,,,,,,,,,,,,,,,,,,,,,,,,,,,,,,,,,,,,,,,,1508.689897299977,None,,,,,,,,,,,,,,,,,1506.6878322999692,None,,,,,,,,,,,,,,,,,,,,,,,,,,,,,,,,,,,,,,,,,,,,,,,,,,,,,,,,13,001,2023_Feb_22_1021,ExactRep-v3-final,2021.2.3,59.95980292125099,
,,,,,,,,,,,,,,,,,,,,,,,,,,,,,,,,,,,,,,,,,,,,,,,,,,,,,,,,,,,,,,,,,,,,,,,,,,,,,,,,,,,,space,25.89884689997416,1519.2907241999637,None,,,,,,,,,,,,,,,,,,,,,,,,,,,,,,,,,,,,,,,,,,,,,,,,,,,,13,001,2023_Feb_22_1021,ExactRep-v3-final,2021.2.3,59.95980292125099,
,,,,,,,,0,0,0,0,,,,,,,,,,,,,,,,,,,,,,,,,,,,,,,,,,,,,,,,,,,,,,,,,,,,,1547.2783739999868,None,,,,,,,,,,,,,,,,,,,,,,,1509.3483979000011,None,1509.3483979000011,None,1509.3483979000011,None,1509.3483979000011,None,1509.3483979000011,None,1509.3483979000011,None,butter,8,1,sing,white,1545.268611400039,None,None,1545.268611400039,None,,,,,,,,,,,,,,,,,,,,,,,,,,,,,,13,001,2023_Feb_22_1021,ExactRep-v3-final,2021.2.3,59.95980292125099,
,,,,,,,,1,0,1,0,,,,,,,,,,,,,,,,,,,,,,,,,,,,,,,,,,,,,,,,,,,,,,,,,,,,,1549.7808485999703,None,,,,,,,,,,,,,,,,,,,,,,,,,,,,,,,,,,,bottle,13,2,sing,white,1547.7806001000572,None,None,1547.7806001000572,None,,,,,,,,,,,,,,,,,,,,,,,,,,,,,,13,001,2023_Feb_22_1021,ExactRep-v3-final,2021.2.3,59.95980292125099,
,,,,,,,,2,0,2,0,,,,,,,,,,,,,,,,,,,,,,,,,,,,,,,,,,,,,,,,,,,,,,,,,,,,,1552.3000798999565,None,,,,,,,,,,,,,,,,,,,,,,,,,,,,,,,,,,,plain,14,3,sing,white,1550.286034299992,None,None,1550.286034299992,None,,,,,,,,,,,,,,,,,,,,,,,,,,,,,,13,001,2023_Feb_22_1021,ExactRep-v3-final,2021.2.3,59.95980292125099,
,,,,,,,,3,0,3,0,,,,,,,,,,,,,,,,,,,,,,,,,,,,,,,,,,,,,,,,,,,,,,,,,,,,,1554.819235199946,None,,,,,,,,,,,,,,,,,,,,,,,,,,,,,,,,,,,murder,101,4,aloud,red,1552.804145299946,None,None,1552.804145299946,None,,,,,,,,,,,,,,,,,,,,,,,,,,,,,,13,001,2023_Feb_22_1021,ExactRep-v3-final,2021.2.3,59.95980292125099,
,,,,,,,,4,0,4,0,,,,,,,,,,,,,,,,,,,,,,,,,,,,,,,,,,,,,,,,,,,,,,,,,,,,,1557.321705200011,None,,,,,,,,,,,,,,,,,,,,,,,,,,,,,,,,,,,love,81,5,aloud,red,1555.3219488000032,None,None,1555.3219488000032,None,,,,,,,,,,,,,,,,,,,,,,,,,,,,,,13,001,2023_Feb_22_1021,ExactRep-v3-final,2021.2.3,59.95980292125099,
,,,,,,,,5,0,5,0,,,,,,,,,,,,,,,,,,,,,,,,,,,,,,,,,,,,,,,,,,,,,,,,,,,,,1559.8242921000347,None,,,,,,,,,,,,,,,,,,,,,,,,,,,,,,,,,,,cat,10,6,sing,white,1557.8249637000263,None,None,1557.8249637000263,None,,,,,,,,,,,,,,,,,,,,,,,,,,,,,,13,001,2023_Feb_22_1021,ExactRep-v3-final,2021.2.3,59.95980292125099,
,,,,,,,,6,0,6,0,,,,,,,,,,,,,,,,,,,,,,,,,,,,,,,,,,,,,,,,,,,,,,,,,,,,,1562.3433905000566,None,,,,,,,,,,,,,,,,,,,,,,,,,,,,,,,,,,,home,97,7,aloud,red,1560.3296401000116,None,None,1560.3296401000116,None,,,,,,,,,,,,,,,,,,,,,,,,,,,,,,13,001,2023_Feb_22_1021,ExactRep-v3-final,2021.2.3,59.95980292125099,
,,,,,,,,7,0,7,0,,,,,,,,,,,,,,,,,,,,,,,,,,,,,,,,,,,,,,,,,,,,,,,,,,,,,1564.8624087000499,None,,,,,,,,,,,,,,,,,,,,,,,,,,,,,,,,,,,book,84,8,aloud,red,1562.8533529000124,None,None,1562.8533529000124,None,,,,,,,,,,,,,,,,,,,,,,,,,,,,,,13,001,2023_Feb_22_1021,ExactRep-v3-final,2021.2.3,59.95980292125099,
,,,,,,,,8,0,8,0,,,,,,,,,,,,,,,,,,,,,,,,,,,,,,,,,,,,,,,,,,,,,,,,,,,,,1567.3817773000337,None,,,,,,,,,,,,,,,,,,,,,,,,,,,,,,,,,,,ticket,91,9,aloud,red,1565.3705257000402,None,None,1565.3705257000402,None,,,,,,,,,,,,,,,,,,,,,,,,,,,,,,13,001,2023_Feb_22_1021,ExactRep-v3-final,2021.2.3,59.95980292125099,
,,,,,,,,9,0,9,0,,,,,,,,,,,,,,,,,,,,,,,,,,,,,,,,,,,,,,,,,,,,,,,,,,,,,1569.8842688000295,None,,,,,,,,,,,,,,,,,,,,,,,,,,,,,,,,,,,chair,20,10,sing,white,1567.8831667000195,None,None,1567.8831667000195,None,,,,,,,,,,,,,,,,,,,,,,,,,,,,,,13,001,2023_Feb_22_1021,ExactRep-v3-final,2021.2.3,59.95980292125099,
,,,,,,,,10,0,10,0,,,,,,,,,,,,,,,,,,,,,,,,,,,,,,,,,,,,,,,,,,,,,,,,,,,,,1572.3868309999816,None,,,,,,,,,,,,,,,,,,,,,,,,,,,,,,,,,,,rod,94,11,aloud,red,1570.3860612000572,None,None,1570.3860612000572,None,,,,,,,,,,,,,,,,,,,,,,,,,,,,,,13,001,2023_Feb_22_1021,ExactRep-v3-final,2021.2.3,59.95980292125099,
,,,,,,,,11,0,11,0,,,,,,,,,,,,,,,,,,,,,,,,,,,,,,,,,,,,,,,,,,,,,,,,,,,,,1574.9059559999732,None,,,,,,,,,,,,,,,,,,,,,,,,,,,,,,,,,,,street,108,12,aloud,red,1572.9007869999623,None,None,1572.9007869999623,None,,,,,,,,,,,,,,,,,,,,,,,,,,,,,,13,001,2023_Feb_22_1021,ExactRep-v3-final,2021.2.3,59.95980292125099,
,,,,,,,,12,0,12,0,,,,,,,,,,,,,,,,,,,,,,,,,,,,,,,,,,,,,,,,,,,,,,,,,,,,,1577.4085316000273,None,,,,,,,,,,,,,,,,,,,,,,,,,,,,,,,,,,,stone,79,13,sing,white,1575.4064607999753,None,None,1575.4064607999753,None,,,,,,,,,,,,,,,,,,,,,,,,,,,,,,13,001,2023_Feb_22_1021,ExactRep-v3-final,2021.2.3,59.95980292125099,
,,,,,,,,13,0,13,0,,,,,,,,,,,,,,,,,,,,,,,,,,,,,,,,,,,,,,,,,,,,,,,,,,,,,1579.9276492999634,None,,,,,,,,,,,,,,,,,,,,,,,,,,,,,,,,,,,quality,55,14,silent,blue,1577.9139905000338,None,None,1577.9139905000338,None,,,,,,,,,,,,,,,,,,,,,,,,,,,,,,13,001,2023_Feb_22_1021,ExactRep-v3-final,2021.2.3,59.95980292125099,
,,,,,,,,14,0,14,0,,,,,,,,,,,,,,,,,,,,,,,,,,,,,,,,,,,,,,,,,,,,,,,,,,,,,1582.4299664000282,None,,,,,,,,,,,,,,,,,,,,,,,,,,,,,,,,,,,woods,92,15,aloud,red,1580.4280523000052,None,None,1580.4280523000052,None,,,,,,,,,,,,,,,,,,,,,,,,,,,,,,13,001,2023_Feb_22_1021,ExactRep-v3-final,2021.2.3,59.95980292125099,
,,,,,,,,15,0,15,0,,,,,,,,,,,,,,,,,,,,,,,,,,,,,,,,,,,,,,,,,,,,,,,,,,,,,1584.932507700054,None,,,,,,,,,,,,,,,,,,,,,,,,,,,,,,,,,,,prayer,102,16,aloud,red,1582.9326143000508,None,None,1582.9326143000508,None,,,,,,,,,,,,,,,,,,,,,,,,,,,,,,13,001,2023_Feb_22_1021,ExactRep-v3-final,2021.2.3,59.95980292125099,
,,,,,,,,16,0,16,0,,,,,,,,,,,,,,,,,,,,,,,,,,,,,,,,,,,,,,,,,,,,,,,,,,,,,1587.4518555999966,None,,,,,,,,,,,,,,,,,,,,,,,,,,,,,,,,,,,answer,47,17,silent,blue,1585.4409343999578,None,None,1585.4409343999578,None,,,,,,,,,,,,,,,,,,,,,,,,,,,,,,13,001,2023_Feb_22_1021,ExactRep-v3-final,2021.2.3,59.95980292125099,
,,,,,,,,17,0,17,0,,,,,,,,,,,,,,,,,,,,,,,,,,,,,,,,,,,,,,,,,,,,,,,,,,,,,1589.954339500051,None,,,,,,,,,,,,,,,,,,,,,,,,,,,,,,,,,,,college,12,18,sing,white,1587.952410900034,None,None,1587.952410900034,None,,,,,,,,,,,,,,,,,,,,,,,,,,,,,,13,001,2023_Feb_22_1021,ExactRep-v3-final,2021.2.3,59.95980292125099,
,,,,,,,,18,0,18,0,,,,,,,,,,,,,,,,,,,,,,,,,,,,,,,,,,,,,,,,,,,,,,,,,,,,,1592.4733560000313,None,,,,,,,,,,,,,,,,,,,,,,,,,,,,,,,,,,,flesh,72,19,silent,blue,1590.4651882000035,None,None,1590.4651882000035,None,,,,,,,,,,,,,,,,,,,,,,,,,,,,,,13,001,2023_Feb_22_1021,ExactRep-v3-final,2021.2.3,59.95980292125099,
,,,,,,,,19,0,19,0,,,,,,,,,,,,,,,,,,,,,,,,,,,,,,,,,,,,,,,,,,,,,,,,,,,,,1594.9925830999855,None,,,,,,,,,,,,,,,,,,,,,,,,,,,,,,,,,,,market,40,20,silent,blue,1592.9797456000233,None,None,1592.9797456000233,None,,,,,,,,,,,,,,,,,,,,,,,,,,,,,,13,001,2023_Feb_22_1021,ExactRep-v3-final,2021.2.3,59.95980292125099,
,,,,,,,,20,0,20,0,,,,,,,,,,,,,,,,,,,,,,,,,,,,,,,,,,,,,,,,,,,,,,,,,,,,,1597.4950672000414,None,,,,,,,,,,,,,,,,,,,,,,,,,,,,,,,,,,,machine,44,21,silent,blue,1595.4939113999717,None,None,1595.4939113999717,None,,,,,,,,,,,,,,,,,,,,,,,,,,,,,,13,001,2023_Feb_22_1021,ExactRep-v3-final,2021.2.3,59.95980292125099,
,,,,,,,,21,0,21,0,,,,,,,,,,,,,,,,,,,,,,,,,,,,,,,,,,,,,,,,,,,,,,,,,,,,,1600.0149846000131,None,,,,,,,,,,,,,,,,,,,,,,,,,,,,,,,,,,,lord,110,22,aloud,red,1598.003421899979,None,None,1598.003421899979,None,,,,,,,,,,,,,,,,,,,,,,,,,,,,,,13,001,2023_Feb_22_1021,ExactRep-v3-final,2021.2.3,59.95980292125099,
,,,,,,,,22,0,22,0,,,,,,,,,,,,,,,,,,,,,,,,,,,,,,,,,,,,,,,,,,,,,,,,,,,,,1602.5166196000064,None,,,,,,,,,,,,,,,,,,,,,,,,,,,,,,,,,,,disease,60,23,silent,blue,1600.514916199958,None,None,1600.514916199958,None,,,,,,,,,,,,,,,,,,,,,,,,,,,,,,13,001,2023_Feb_22_1021,ExactRep-v3-final,2021.2.3,59.95980292125099,
,,,,,,,,23,0,23,0,,,,,,,,,,,,,,,,,,,,,,,,,,,,,,,,,,,,,,,,,,,,,,,,,,,,,1605.0193291000323,None,,,,,,,,,,,,,,,,,,,,,,,,,,,,,,,,,,,air,86,24,aloud,red,1603.0197461999487,None,None,1603.0197461999487,None,,,,,,,,,,,,,,,,,,,,,,,,,,,,,,13,001,2023_Feb_22_1021,ExactRep-v3-final,2021.2.3,59.95980292125099,
,,,,,,,,24,0,24,0,,,,,,,,,,,,,,,,,,,,,,,,,,,,,,,,,,,,,,,,,,,,,,,,,,,,,1607.5386414000532,None,,,,,,,,,,,,,,,,,,,,,,,,,,,,,,,,,,,breast,22,25,sing,white,1605.5232735000318,None,None,1605.5232735000318,None,,,,,,,,,,,,,,,,,,,,,,,,,,,,,,13,001,2023_Feb_22_1021,ExactRep-v3-final,2021.2.3,59.95980292125099,
,,,,,,,,25,0,25,0,,,,,,,,,,,,,,,,,,,,,,,,,,,,,,,,,,,,,,,,,,,,,,,,,,,,,1610.0410974000115,None,,,,,,,,,,,,,,,,,,,,,,,,,,,,,,,,,,,slave,41,26,silent,blue,1608.03916819999,None,None,1608.03916819999,None,,,,,,,,,,,,,,,,,,,,,,,,,,,,,,13,001,2023_Feb_22_1021,ExactRep-v3-final,2021.2.3,59.95980292125099,
,,,,,,,,26,0,26,0,,,,,,,,,,,,,,,,,,,,,,,,,,,,,,,,,,,,,,,,,,,,,,,,,,,,,1612.5434253000421,None,,,,,,,,,,,,,,,,,,,,,,,,,,,,,,,,,,,green,75,27,silent,blue,1610.5416901999852,None,None,1610.5416901999852,None,,,,,,,,,,,,,,,,,,,,,,,,,,,,,,13,001,2023_Feb_22_1021,ExactRep-v3-final,2021.2.3,59.95980292125099,
,,,,,,,,27,0,27,0,,,,,,,,,,,,,,,,,,,,,,,,,,,,,,,,,,,,,,,,,,,,,,,,,,,,,1615.0627587999916,None,,,,,,,,,,,,,,,,,,,,,,,,,,,,,,,,,,,wine,5,28,sing,white,1613.04710039997,None,None,1613.04710039997,None,,,,,,,,,,,,,,,,,,,,,,,,,,,,,,13,001,2023_Feb_22_1021,ExactRep-v3-final,2021.2.3,59.95980292125099,
,,,,,,,,28,0,28,0,,,,,,,,,,,,,,,,,,,,,,,,,,,,,,,,,,,,,,,,,,,,,,,,,,,,,1617.5652864000294,None,,,,,,,,,,,,,,,,,,,,,,,,,,,,,,,,,,,coin,36,29,sing,white,1615.564654899994,None,None,1615.564654899994,None,,,,,,,,,,,,,,,,,,,,,,,,,,,,,,13,001,2023_Feb_22_1021,ExactRep-v3-final,2021.2.3,59.95980292125099,
,,,,,,,,29,0,29,0,,,,,,,,,,,,,,,,,,,,,,,,,,,,,,,,,,,,,,,,,,,,,,,,,,,,,1620.067870400031,None,,,,,,,,,,,,,,,,,,,,,,,,,,,,,,,,,,,iron,3,30,sing,white,1618.0666970999446,None,None,1618.0666970999446,None,,,,,,,,,,,,,,,,,,,,,,,,,,,,,,13,001,2023_Feb_22_1021,ExactRep-v3-final,2021.2.3,59.95980292125099,
,,,,,,,,30,0,30,0,,,,,,,,,,,,,,,,,,,,,,,,,,,,,,,,,,,,,,,,,,,,,,,,,,,,,1622.5701496000402,None,,,,,,,,,,,,,,,,,,,,,,,,,,,,,,,,,,,ship,6,31,sing,white,1620.5681753000244,None,None,1620.5681753000244,None,,,,,,,,,,,,,,,,,,,,,,,,,,,,,,13,001,2023_Feb_22_1021,ExactRep-v3-final,2021.2.3,59.95980292125099,
,,,,,,,,31,0,31,0,,,,,,,,,,,,,,,,,,,,,,,,,,,,,,,,,,,,,,,,,,,,,,,,,,,,,1625.089432299952,None,,,,,,,,,,,,,,,,,,,,,,,,,,,,,,,,,,,devil,23,32,sing,white,1623.0802921999712,None,None,1623.0802921999712,None,,,,,,,,,,,,,,,,,,,,,,,,,,,,,,13,001,2023_Feb_22_1021,ExactRep-v3-final,2021.2.3,59.95980292125099,
,,,,,,,,32,0,32,0,,,,,,,,,,,,,,,,,,,,,,,,,,,,,,,,,,,,,,,,,,,,,,,,,,,,,1627.592031899956,None,,,,,,,,,,,,,,,,,,,,,,,,,,,,,,,,,,,plant,11,33,sing,white,1625.590692800004,None,None,1625.590692800004,None,,,,,,,,,,,,,,,,,,,,,,,,,,,,,,13,001,2023_Feb_22_1021,ExactRep-v3-final,2021.2.3,59.95980292125099,
,,,,,,,,33,0,33,0,,,,,,,,,,,,,,,,,,,,,,,,,,,,,,,,,,,,,,,,,,,,,,,,,,,,,1630.0945257999701,None,,,,,,,,,,,,,,,,,,,,,,,,,,,,,,,,,,,window,26,34,sing,white,1628.0941616999917,None,None,1628.0941616999917,None,,,,,,,,,,,,,,,,,,,,,,,,,,,,,,13,001,2023_Feb_22_1021,ExactRep-v3-final,2021.2.3,59.95980292125099,
,,,,,,,,34,0,34,0,,,,,,,,,,,,,,,,,,,,,,,,,,,,,,,,,,,,,,,,,,,,,,,,,,,,,1632.6134966999525,None,,,,,,,,,,,,,,,,,,,,,,,,,,,,,,,,,,,blood,31,35,sing,white,1630.6008359000552,None,None,1630.6008359000552,None,,,,,,,,,,,,,,,,,,,,,,,,,,,,,,13,001,2023_Feb_22_1021,ExactRep-v3-final,2021.2.3,59.95980292125099,
,,,,,,,,35,0,35,0,,,,,,,,,,,,,,,,,,,,,,,,,,,,,,,,,,,,,,,,,,,,,,,,,,,,,1635.1328464000253,None,,,,,,,,,,,,,,,,,,,,,,,,,,,,,,,,,,,health,96,36,aloud,red,1633.119921799982,None,None,1633.119921799982,None,,,,,,,,,,,,,,,,,,,,,,,,,,,,,,13,001,2023_Feb_22_1021,ExactRep-v3-final,2021.2.3,59.95980292125099,
,,,,,,,,36,0,36,0,,,,,,,,,,,,,,,,,,,,,,,,,,,,,,,,,,,,,,,,,,,,,,,,,,,,,1637.6520658000372,None,,,,,,,,,,,,,,,,,,,,,,,,,,,,,,,,,,,tool,106,37,aloud,red,1635.636935299961,None,None,1635.636935299961,None,,,,,,,,,,,,,,,,,,,,,,,,,,,,,,13,001,2023_Feb_22_1021,ExactRep-v3-final,2021.2.3,59.95980292125099,
,,,,,,,,37,0,37,0,,,,,,,,,,,,,,,,,,,,,,,,,,,,,,,,,,,,,,,,,,,,,,,,,,,,,1640.1719987000106,None,,,,,,,,,,,,,,,,,,,,,,,,,,,,,,,,,,,church,7,38,sing,white,1638.1573126999428,None,None,1638.1573126999428,None,,,,,,,,,,,,,,,,,,,,,,,,,,,,,,13,001,2023_Feb_22_1021,ExactRep-v3-final,2021.2.3,59.95980292125099,
,,,,,,,,38,0,38,0,,,,,,,,,,,,,,,,,,,,,,,,,,,,,,,,,,,,,,,,,,,,,,,,,,,,,1642.673728600028,None,,,,,,,,,,,,,,,,,,,,,,,,,,,,,,,,,,,cotton,76,39,silent,blue,1640.6725074000424,None,None,1640.6725074000424,None,,,,,,,,,,,,,,,,,,,,,,,,,,,,,,13,001,2023_Feb_22_1021,ExactRep-v3-final,2021.2.3,59.95980292125099,
,,,,,,,,39,0,39,0,,,,,,,,,,,,,,,,,,,,,,,,,,,,,,,,,,,,,,,,,,,,,,,,,,,,,1645.1929341000505,None,,,,,,,,,,,,,,,,,,,,,,,,,,,,,,,,,,,flag,50,40,silent,blue,1643.177907699952,None,None,1643.177907699952,None,,,,,,,,,,,,,,,,,,,,,,,,,,,,,,13,001,2023_Feb_22_1021,ExactRep-v3-final,2021.2.3,59.95980292125099,
,,,,,,,,40,0,40,0,,,,,,,,,,,,,,,,,,,,,,,,,,,,,,,,,,,,,,,,,,,,,,,,,,,,,1647.6954115000553,None,,,,,,,,,,,,,,,,,,,,,,,,,,,,,,,,,,,deed,57,41,silent,blue,1645.6934458999895,None,None,1645.6934458999895,None,,,,,,,,,,,,,,,,,,,,,,,,,,,,,,13,001,2023_Feb_22_1021,ExactRep-v3-final,2021.2.3,59.95980292125099,
,,,,,,,,41,0,41,0,,,,,,,,,,,,,,,,,,,,,,,,,,,,,,,,,,,,,,,,,,,,,,,,,,,,,1650.1980469999835,None,,,,,,,,,,,,,,,,,,,,,,,,,,,,,,,,,,,letter,17,42,sing,white,1648.1960709999548,None,None,1648.1960709999548,None,,,,,,,,,,,,,,,,,,,,,,,,,,,,,,13,001,2023_Feb_22_1021,ExactRep-v3-final,2021.2.3,59.95980292125099,
,,,,,,,,42,0,42,0,,,,,,,,,,,,,,,,,,,,,,,,,,,,,,,,,,,,,,,,,,,,,,,,,,,,,1652.7171675000573,None,,,,,,,,,,,,,,,,,,,,,,,,,,,,,,,,,,,winter,9,43,sing,white,1650.7056473999983,None,None,1650.7056473999983,None,,,,,,,,,,,,,,,,,,,,,,,,,,,,,,13,001,2023_Feb_22_1021,ExactRep-v3-final,2021.2.3,59.95980292125099,
,,,,,,,,43,0,43,0,,,,,,,,,,,,,,,,,,,,,,,,,,,,,,,,,,,,,,,,,,,,,,,,,,,,,1655.236301500001,None,,,,,,,,,,,,,,,,,,,,,,,,,,,,,,,,,,,house,32,44,sing,white,1653.221765400027,None,None,1653.221765400027,None,,,,,,,,,,,,,,,,,,,,,,,,,,,,,,13,001,2023_Feb_22_1021,ExactRep-v3-final,2021.2.3,59.95980292125099,
,,,,,,,,44,0,44,0,,,,,,,,,,,,,,,,,,,,,,,,,,,,,,,,,,,,,,,,,,,,,,,,,,,,,1657.7552956000436,None,,,,,,,,,,,,,,,,,,,,,,,,,,,,,,,,,,,doctor,27,45,sing,white,1655.7398859000532,None,None,1655.7398859000532,None,,,,,,,,,,,,,,,,,,,,,,,,,,,,,,13,001,2023_Feb_22_1021,ExactRep-v3-final,2021.2.3,59.95980292125099,
,,,,,,,,45,0,45,0,,,,,,,,,,,,,,,,,,,,,,,,,,,,,,,,,,,,,,,,,,,,,,,,,,,,,1660.2580823999597,None,,,,,,,,,,,,,,,,,,,,,,,,,,,,,,,,,,,beast,15,46,sing,white,1658.255797300022,None,None,1658.255797300022,None,,,,,,,,,,,,,,,,,,,,,,,,,,,,,,13,001,2023_Feb_22_1021,ExactRep-v3-final,2021.2.3,59.95980292125099,
,,,,,,,,46,0,46,0,,,,,,,,,,,,,,,,,,,,,,,,,,,,,,,,,,,,,,,,,,,,,,,,,,,,,1662.7771636999678,None,,,,,,,,,,,,,,,,,,,,,,,,,,,,,,,,,,,fault,63,47,silent,blue,1660.7618555000518,None,None,1660.7618555000518,None,,,,,,,,,,,,,,,,,,,,,,,,,,,,,,13,001,2023_Feb_22_1021,ExactRep-v3-final,2021.2.3,59.95980292125099,
,,,,,,,,47,0,47,0,,,,,,,,,,,,,,,,,,,,,,,,,,,,,,,,,,,,,,,,,,,,,,,,,,,,,1665.2796618000139,None,,,,,,,,,,,,,,,,,,,,,,,,,,,,,,,,,,,prison,37,48,sing,white,1663.2776664999546,None,None,1663.2776664999546,None,,,,,,,,,,,,,,,,,,,,,,,,,,,,,,13,001,2023_Feb_22_1021,ExactRep-v3-final,2021.2.3,59.95980292125099,
,,,,,,,,48,0,48,0,,,,,,,,,,,,,,,,,,,,,,,,,,,,,,,,,,,,,,,,,,,,,,,,,,,,,1667.782251699944,None,,,,,,,,,,,,,,,,,,,,,,,,,,,,,,,,,,,coast,90,49,aloud,red,1665.7802320000483,None,None,1665.7802320000483,None,,,,,,,,,,,,,,,,,,,,,,,,,,,,,,13,001,2023_Feb_22_1021,ExactRep-v3-final,2021.2.3,59.95980292125099,
,,,,,,,,49,0,49,0,,,,,,,,,,,,,,,,,,,,,,,,,,,,,,,,,,,,,,,,,,,,,,,,,,,,,1670.3014090999495,None,,,,,,,,,,,,,,,,,,,,,,,,,,,,,,,,,,,poet,56,50,silent,blue,1668.2860478999792,None,None,1668.2860478999792,None,,,,,,,,,,,,,,,,,,,,,,,,,,,,,,13,001,2023_Feb_22_1021,ExactRep-v3-final,2021.2.3,59.95980292125099,
,,,,,,,,50,0,50,0,,,,,,,,,,,,,,,,,,,,,,,,,,,,,,,,,,,,,,,,,,,,,,,,,,,,,1672.8037294000387,None,,,,,,,,,,,,,,,,,,,,,,,,,,,,,,,,,,,shoes,71,51,silent,blue,1670.8047507000156,None,None,1670.8047507000156,None,,,,,,,,,,,,,,,,,,,,,,,,,,,,,,13,001,2023_Feb_22_1021,ExactRep-v3-final,2021.2.3,59.95980292125099,
,,,,,,,,51,0,51,0,,,,,,,,,,,,,,,,,,,,,,,,,,,,,,,,,,,,,,,,,,,,,,,,,,,,,1675.3230466999812,None,,,,,,,,,,,,,,,,,,,,,,,,,,,,,,,,,,,potato,83,52,aloud,red,1673.3122898000292,None,None,1673.3122898000292,None,,,,,,,,,,,,,,,,,,,,,,,,,,,,,,13,001,2023_Feb_22_1021,ExactRep-v3-final,2021.2.3,59.95980292125099,
,,,,,,,,52,0,52,0,,,,,,,,,,,,,,,,,,,,,,,,,,,,,,,,,,,,,,,,,,,,,,,,,,,,,1677.8255964999553,None,,,,,,,,,,,,,,,,,,,,,,,,,,,,,,,,,,,fire,53,53,silent,blue,1675.8233699999982,None,None,1675.8233699999982,None,,,,,,,,,,,,,,,,,,,,,,,,,,,,,,13,001,2023_Feb_22_1021,ExactRep-v3-final,2021.2.3,59.95980292125099,
,,,,,,,,53,0,53,0,,,,,,,,,,,,,,,,,,,,,,,,,,,,,,,,,,,,,,,,,,,,,,,,,,,,,1680.3281551999971,None,,,,,,,,,,,,,,,,,,,,,,,,,,,,,,,,,,,custom,105,54,aloud,red,1678.3289064000128,None,None,1678.3289064000128,None,,,,,,,,,,,,,,,,,,,,,,,,,,,,,,13,001,2023_Feb_22_1021,ExactRep-v3-final,2021.2.3,59.95980292125099,
,,,,,,,,54,0,54,0,,,,,,,,,,,,,,,,,,,,,,,,,,,,,,,,,,,,,,,,,,,,,,,,,,,,,1682.8473035000497,None,,,,,,,,,,,,,,,,,,,,,,,,,,,,,,,,,,,board,38,55,sing,white,1680.8343956000172,None,None,1680.8343956000172,None,,,,,,,,,,,,,,,,,,,,,,,,,,,,,,13,001,2023_Feb_22_1021,ExactRep-v3-final,2021.2.3,59.95980292125099,
,,,,,,,,55,0,55,0,,,,,,,,,,,,,,,,,,,,,,,,,,,,,,,,,,,,,,,,,,,,,,,,,,,,,1685.3664134000428,None,,,,,,,,,,,,,,,,,,,,,,,,,,,,,,,,,,,body,103,56,aloud,red,1683.3532510000514,None,None,1683.3532510000514,None,,,,,,,,,,,,,,,,,,,,,,,,,,,,,,13,001,2023_Feb_22_1021,ExactRep-v3-final,2021.2.3,59.95980292125099,
,,,,,,,,56,0,56,0,,,,,,,,,,,,,,,,,,,,,,,,,,,,,,,,,,,,,,,,,,,,,,,,,,,,,1687.8689498000313,None,,,,,,,,,,,,,,,,,,,,,,,,,,,,,,,,,,,sugar,80,57,aloud,red,1685.8667833999498,None,None,1685.8667833999498,None,,,,,,,,,,,,,,,,,,,,,,,,,,,,,,13,001,2023_Feb_22_1021,ExactRep-v3-final,2021.2.3,59.95980292125099,
,,,,,,,,57,0,57,0,,,,,,,,,,,,,,,,,,,,,,,,,,,,,,,,,,,,,,,,,,,,,,,,,,,,,1690.3714884000365,None,,,,,,,,,,,,,,,,,,,,,,,,,,,,,,,,,,,grass,70,58,silent,blue,1688.3721563,None,None,1688.3721563,None,,,,,,,,,,,,,,,,,,,,,,,,,,,,,,13,001,2023_Feb_22_1021,ExactRep-v3-final,2021.2.3,59.95980292125099,
,,,,,,,,58,0,58,0,,,,,,,,,,,,,,,,,,,,,,,,,,,,,,,,,,,,,,,,,,,,,,,,,,,,,1692.8737459999975,None,,,,,,,,,,,,,,,,,,,,,,,,,,,,,,,,,,,hotel,88,59,aloud,red,1690.8718428000575,None,None,1690.8718428000575,None,,,,,,,,,,,,,,,,,,,,,,,,,,,,,,13,001,2023_Feb_22_1021,ExactRep-v3-final,2021.2.3,59.95980292125099,
,,,,,,,,59,0,59,0,,,,,,,,,,,,,,,,,,,,,,,,,,,,,,,,,,,,,,,,,,,,,,,,,,,,,1695.3764842000091,None,,,,,,,,,,,,,,,,,,,,,,,,,,,,,,,,,,,rock,16,60,sing,white,1693.3765122999903,None,None,1693.3765122999903,None,,,,,,,,,,,,,,,,,,,,,,,,,,,,,,13,001,2023_Feb_22_1021,ExactRep-v3-final,2021.2.3,59.95980292125099,
,,,,,,,,60,0,60,0,,,,,,,,,,,,,,,,,,,,,,,,,,,,,,,,,,,,,,,,,,,,,,,,,,,,,1697.8956028999528,None,,,,,,,,,,,,,,,,,,,,,,,,,,,,,,,,,,,officer,24,61,sing,white,1695.8833148999838,None,None,1695.8833148999838,None,,,,,,,,,,,,,,,,,,,,,,,,,,,,,,13,001,2023_Feb_22_1021,ExactRep-v3-final,2021.2.3,59.95980292125099,
,,,,,,,,61,0,61,0,,,,,,,,,,,,,,,,,,,,,,,,,,,,,,,,,,,,,,,,,,,,,,,,,,,,,1700.4147881000536,None,,,,,,,,,,,,,,,,,,,,,,,,,,,,,,,,,,,vision,95,62,aloud,red,1698.4055492000189,None,None,1698.4055492000189,None,,,,,,,,,,,,,,,,,,,,,,,,,,,,,,13,001,2023_Feb_22_1021,ExactRep-v3-final,2021.2.3,59.95980292125099,
,,,,,,,,62,0,62,0,,,,,,,,,,,,,,,,,,,,,,,,,,,,,,,,,,,,,,,,,,,,,,,,,,,,,1702.9340128999902,None,,,,,,,,,,,,,,,,,,,,,,,,,,,,,,,,,,,charm,77,63,silent,blue,1700.9247409000527,None,None,1700.9247409000527,None,,,,,,,,,,,,,,,,,,,,,,,,,,,,,,13,001,2023_Feb_22_1021,ExactRep-v3-final,2021.2.3,59.95980292125099,
,,,,,,,,63,0,63,0,,,,,,,,,,,,,,,,,,,,,,,,,,,,,,,,,,,,,,,,,,,,,,,,,,,,,1705.4364797000308,None,,,,,,,,,,,,,,,,,,,,,,,,,,,,,,,,,,,child,1,64,sing,white,1703.4364560999675,None,None,1703.4364560999675,None,,,,,,,,,,,,,,,,,,,,,,,,,,,,,,13,001,2023_Feb_22_1021,ExactRep-v3-final,2021.2.3,59.95980292125099,
,,,,,,,,64,0,64,0,,,,,,,,,,,,,,,,,,,,,,,,,,,,,,,,,,,,,,,,,,,,,,,,,,,,,1707.93886939995,None,,,,,,,,,,,,,,,,,,,,,,,,,,,,,,,,,,,river,112,65,aloud,red,1705.9397091000574,None,None,1705.9397091000574,None,,,,,,,,,,,,,,,,,,,,,,,,,,,,,,13,001,2023_Feb_22_1021,ExactRep-v3-final,2021.2.3,59.95980292125099,
,,,,,,,,65,0,65,0,,,,,,,,,,,,,,,,,,,,,,,,,,,,,,,,,,,,,,,,,,,,,,,,,,,,,1710.4415063000051,None,,,,,,,,,,,,,,,,,,,,,,,,,,,,,,,,,,,corner,29,66,sing,white,1708.4397315999959,None,None,1708.4397315999959,None,,,,,,,,,,,,,,,,,,,,,,,,,,,,,,13,001,2023_Feb_22_1021,ExactRep-v3-final,2021.2.3,59.95980292125099,
,,,,,,,,66,0,66,0,,,,,,,,,,,,,,,,,,,,,,,,,,,,,,,,,,,,,,,,,,,,,,,,,,,,,1712.9439961999888,None,,,,,,,,,,,,,,,,,,,,,,,,,,,,,,,,,,,kiss,51,67,silent,blue,1710.9437049999833,None,None,1710.9437049999833,None,,,,,,,,,,,,,,,,,,,,,,,,,,,,,,13,001,2023_Feb_22_1021,ExactRep-v3-final,2021.2.3,59.95980292125099,
,,,,,,,,67,0,67,0,,,,,,,,,,,,,,,,,,,,,,,,,,,,,,,,,,,,,,,,,,,,,,,,,,,,,1715.4465979000088,None,,,,,,,,,,,,,,,,,,,,,,,,,,,,,,,,,,,earth,66,68,silent,blue,1713.4460851999465,None,None,1713.4460851999465,None,,,,,,,,,,,,,,,,,,,,,,,,,,,,,,13,001,2023_Feb_22_1021,ExactRep-v3-final,2021.2.3,59.95980292125099,
,,,,,,,,68,0,68,0,,,,,,,,,,,,,,,,,,,,,,,,,,,,,,,,,,,,,,,,,,,,,,,,,,,,,1717.9655253000092,None,,,,,,,,,,,,,,,,,,,,,,,,,,,,,,,,,,,duty,61,69,silent,blue,1715.951700799982,None,None,1715.951700799982,None,,,,,,,,,,,,,,,,,,,,,,,,,,,,,,13,001,2023_Feb_22_1021,ExactRep-v3-final,2021.2.3,59.95980292125099,
,,,,,,,,69,0,69,0,,,,,,,,,,,,,,,,,,,,,,,,,,,,,,,,,,,,,,,,,,,,,,,,,,,,,1720.468341400032,None,,,,,,,,,,,,,,,,,,,,,,,,,,,,,,,,,,,grief,118,70,aloud,red,1718.4660649000434,None,None,1718.4660649000434,None,,,,,,,,,,,,,,,,,,,,,,,,,,,,,,13,001,2023_Feb_22_1021,ExactRep-v3-final,2021.2.3,59.95980292125099,
,,,,,,,,70,0,70,0,,,,,,,,,,,,,,,,,,,,,,,,,,,,,,,,,,,,,,,,,,,,,,,,,,,,,1722.970688499976,None,,,,,,,,,,,,,,,,,,,,,,,,,,,,,,,,,,,method,21,71,sing,white,1720.9692410000134,None,None,1720.9692410000134,None,,,,,,,,,,,,,,,,,,,,,,,,,,,,,,13,001,2023_Feb_22_1021,ExactRep-v3-final,2021.2.3,59.95980292125099,
,,,,,,,,71,0,71,0,,,,,,,,,,,,,,,,,,,,,,,,,,,,,,,,,,,,,,,,,,,,,,,,,,,,,1725.4733631999698,None,,,,,,,,,,,,,,,,,,,,,,,,,,,,,,,,,,,origin,35,72,sing,white,1723.4742245000089,None,None,1723.4742245000089,None,,,,,,,,,,,,,,,,,,,,,,,,,,,,,,13,001,2023_Feb_22_1021,ExactRep-v3-final,2021.2.3,59.95980292125099,
,,,,,,,,72,0,72,0,,,,,,,,,,,,,,,,,,,,,,,,,,,,,,,,,,,,,,,,,,,,,,,,,,,,,1727.992414599983,None,,,,,,,,,,,,,,,,,,,,,,,,,,,,,,,,,,,artist,58,73,silent,blue,1725.9823241999839,None,None,1725.9823241999839,None,,,,,,,,,,,,,,,,,,,,,,,,,,,,,,13,001,2023_Feb_22_1021,ExactRep-v3-final,2021.2.3,59.95980292125099,
,,,,,,,,73,0,73,0,,,,,,,,,,,,,,,,,,,,,,,,,,,,,,,,,,,,,,,,,,,,,,,,,,,,,1730.4948925999925,None,,,,,,,,,,,,,,,,,,,,,,,,,,,,,,,,,,,truth,39,74,silent,blue,1728.4929477999685,None,None,1728.4929477999685,None,,,,,,,,,,,,,,,,,,,,,,,,,,,,,,13,001,2023_Feb_22_1021,ExactRep-v3-final,2021.2.3,59.95980292125099,
,,,,,,,,74,0,74,0,,,,,,,,,,,,,,,,,,,,,,,,,,,,,,,,,,,,,,,,,,,,,,,,,,,,,1732.9974606999895,None,,,,,,,,,,,,,,,,,,,,,,,,,,,,,,,,,,,teacher,43,75,silent,blue,1730.9973562000087,None,None,1730.9973562000087,None,,,,,,,,,,,,,,,,,,,,,,,,,,,,,,13,001,2023_Feb_22_1021,ExactRep-v3-final,2021.2.3,59.95980292125099,
,,,,,,,,75,0,75,0,,,,,,,,,,,,,,,,,,,,,,,,,,,,,,,,,,,,,,,,,,,,,,,,,,,,,1735.5165256999899,None,,,,,,,,,,,,,,,,,,,,,,,,,,,,,,,,,,,meadow,87,76,aloud,red,1733.50752069999,None,None,1733.50752069999,None,,,,,,,,,,,,,,,,,,,,,,,,,,,,,,13,001,2023_Feb_22_1021,ExactRep-v3-final,2021.2.3,59.95980292125099,
,,,,,,,,76,0,76,0,,,,,,,,,,,,,,,,,,,,,,,,,,,,,,,,,,,,,,,,,,,,,,,,,,,,,1738.0375618999824,None,,,,,,,,,,,,,,,,,,,,,,,,,,,,,,,,,,,wheat,78,77,silent,blue,1736.0257080999436,None,None,1736.0257080999436,None,,,,,,,,,,,,,,,,,,,,,,,,,,,,,,13,001,2023_Feb_22_1021,ExactRep-v3-final,2021.2.3,59.95980292125099,
,,,,,,,,77,0,77,0,,,,,,,,,,,,,,,,,,,,,,,,,,,,,,,,,,,,,,,,,,,,,,,,,,,,,1740.5383571999846,None,,,,,,,,,,,,,,,,,,,,,,,,,,,,,,,,,,,fortune,111,78,aloud,red,1738.5369388000108,None,None,1738.5369388000108,None,,,,,,,,,,,,,,,,,,,,,,,,,,,,,,13,001,2023_Feb_22_1021,ExactRep-v3-final,2021.2.3,59.95980292125099,
,,,,,,,,78,0,78,0,,,,,,,,,,,,,,,,,,,,,,,,,,,,,,,,,,,,,,,,,,,,,,,,,,,,,1743.0575631000102,None,,,,,,,,,,,,,,,,,,,,,,,,,,,,,,,,,,,justice,18,79,sing,white,1741.0462245000526,None,None,1741.0462245000526,None,,,,,,,,,,,,,,,,,,,,,,,,,,,,,,13,001,2023_Feb_22_1021,ExactRep-v3-final,2021.2.3,59.95980292125099,
,,,,,,,,79,0,79,0,,,,,,,,,,,,,,,,,,,,,,,,,,,,,,,,,,,,,,,,,,,,,,,,,,,,,1745.5599405999528,None,,,,,,,,,,,,,,,,,,,,,,,,,,,,,,,,,,,month,4,80,sing,white,1743.5580360000022,None,None,1743.5580360000022,None,,,,,,,,,,,,,,,,,,,,,,,,,,,,,,13,001,2023_Feb_22_1021,ExactRep-v3-final,2021.2.3,59.95980292125099,
,,,,,,,,80,0,80,0,,,,,,,,,,,,,,,,,,,,,,,,,,,,,,,,,,,,,,,,,,,,,,,,,,,,,1748.0624817999778,None,,,,,,,,,,,,,,,,,,,,,,,,,,,,,,,,,,,diamond,73,81,silent,blue,1746.0611783999484,None,None,1746.0611783999484,None,,,,,,,,,,,,,,,,,,,,,,,,,,,,,,13,001,2023_Feb_22_1021,ExactRep-v3-final,2021.2.3,59.95980292125099,
,,,,,,,,81,0,81,0,,,,,,,,,,,,,,,,,,,,,,,,,,,,,,,,,,,,,,,,,,,,,,,,,,,,,1750.5649524000473,None,,,,,,,,,,,,,,,,,,,,,,,,,,,,,,,,,,,steam,2,82,sing,white,1748.5647608999861,None,None,1748.5647608999861,None,,,,,,,,,,,,,,,,,,,,,,,,,,,,,,13,001,2023_Feb_22_1021,ExactRep-v3-final,2021.2.3,59.95980292125099,
,,,,,,,,82,0,82,0,,,,,,,,,,,,,,,,,,,,,,,,,,,,,,,,,,,,,,,,,,,,,,,,,,,,,1753.0674673999893,None,,,,,,,,,,,,,,,,,,,,,,,,,,,,,,,,,,,humour,116,83,aloud,red,1751.0658081000438,None,None,1751.0658081000438,None,,,,,,,,,,,,,,,,,,,,,,,,,,,,,,13,001,2023_Feb_22_1021,ExactRep-v3-final,2021.2.3,59.95980292125099,
,,,,,,,,83,0,83,0,,,,,,,,,,,,,,,,,,,,,,,,,,,,,,,,,,,,,,,,,,,,,,,,,,,,,1755.5699565999676,None,,,,,,,,,,,,,,,,,,,,,,,,,,,,,,,,,,,length,54,84,silent,blue,1753.5682468999876,None,None,1753.5682468999876,None,,,,,,,,,,,,,,,,,,,,,,,,,,,,,,13,001,2023_Feb_22_1021,ExactRep-v3-final,2021.2.3,59.95980292125099,
,,,,,,,,84,0,84,0,,,,,,,,,,,,,,,,,,,,,,,,,,,,,,,,,,,,,,,,,,,,,,,,,,,,,1758.072460400057,None,,,,,,,,,,,,,,,,,,,,,,,,,,,,,,,,,,,arm,28,85,sing,white,1756.0721985000418,None,None,1756.0721985000418,None,,,,,,,,,,,,,,,,,,,,,,,,,,,,,,13,001,2023_Feb_22_1021,ExactRep-v3-final,2021.2.3,59.95980292125099,
,,,,,,,,85,0,85,0,,,,,,,,,,,,,,,,,,,,,,,,,,,,,,,,,,,,,,,,,,,,,,,,,,,,,1760.5750310999574,None,,,,,,,,,,,,,,,,,,,,,,,,,,,,,,,,,,,glory,74,86,silent,blue,1758.5733818999724,None,None,1758.5733818999724,None,,,,,,,,,,,,,,,,,,,,,,,,,,,,,,13,001,2023_Feb_22_1021,ExactRep-v3-final,2021.2.3,59.95980292125099,
,,,,,,,,86,0,86,0,,,,,,,,,,,,,,,,,,,,,,,,,,,,,,,,,,,,,,,,,,,,,,,,,,,,,1763.0941715999506,None,,,,,,,,,,,,,,,,,,,,,,,,,,,,,,,,,,,colony,59,87,silent,blue,1761.079942499986,None,None,1761.079942499986,None,,,,,,,,,,,,,,,,,,,,,,,,,,,,,,13,001,2023_Feb_22_1021,ExactRep-v3-final,2021.2.3,59.95980292125099,
,,,,,,,,87,0,87,0,,,,,,,,,,,,,,,,,,,,,,,,,,,,,,,,,,,,,,,,,,,,,,,,,,,,,1765.6131318999687,None,,,,,,,,,,,,,,,,,,,,,,,,,,,,,,,,,,,crime,93,88,aloud,red,1763.6005689000012,None,None,1763.6005689000012,None,,,,,,,,,,,,,,,,,,,,,,,,,,,,,,13,001,2023_Feb_22_1021,ExactRep-v3-final,2021.2.3,59.95980292125099,
,,,,,,,,88,0,88,0,,,,,,,,,,,,,,,,,,,,,,,,,,,,,,,,,,,,,,,,,,,,,,,,,,,,,1768.1158531999681,None,,,,,,,,,,,,,,,,,,,,,,,,,,,,,,,,,,,valley,34,89,sing,white,1766.113693500054,None,None,1766.113693500054,None,,,,,,,,,,,,,,,,,,,,,,,,,,,,,,13,001,2023_Feb_22_1021,ExactRep-v3-final,2021.2.3,59.95980292125099,
,,,,,,,,89,0,89,0,,,,,,,,,,,,,,,,,,,,,,,,,,,,,,,,,,,,,,,,,,,,,,,,,,,,,1770.6183397000423,None,,,,,,,,,,,,,,,,,,,,,,,,,,,,,,,,,,,pole,115,90,aloud,red,1768.6178334000288,None,None,1768.6178334000288,None,,,,,,,,,,,,,,,,,,,,,,,,,,,,,,13,001,2023_Feb_22_1021,ExactRep-v3-final,2021.2.3,59.95980292125099,
,,,,,,,,90,0,90,0,,,,,,,,,,,,,,,,,,,,,,,,,,,,,,,,,,,,,,,,,,,,,,,,,,,,,1773.137386300019,None,,,,,,,,,,,,,,,,,,,,,,,,,,,,,,,,,,,person,109,91,aloud,red,1771.1221092999913,None,None,1771.1221092999913,None,,,,,,,,,,,,,,,,,,,,,,,,,,,,,,13,001,2023_Feb_22_1021,ExactRep-v3-final,2021.2.3,59.95980292125099,
,,,,,,,,91,0,91,0,,,,,,,,,,,,,,,,,,,,,,,,,,,,,,,,,,,,,,,,,,,,,,,,,,,,,1775.6565604000352,None,,,,,,,,,,,,,,,,,,,,,,,,,,,,,,,,,,,priest,45,92,silent,blue,1773.646602599998,None,None,1773.646602599998,None,,,,,,,,,,,,,,,,,,,,,,,,,,,,,,13,001,2023_Feb_22_1021,ExactRep-v3-final,2021.2.3,59.95980292125099,
,,,,,,,,92,0,92,0,,,,,,,,,,,,,,,,,,,,,,,,,,,,,,,,,,,,,,,,,,,,,,,,,,,,,1778.1593762000557,None,,,,,,,,,,,,,,,,,,,,,,,,,,,,,,,,,,,paper,48,93,silent,blue,1776.1572598000057,None,None,1776.1572598000057,None,,,,,,,,,,,,,,,,,,,,,,,,,,,,,,13,001,2023_Feb_22_1021,ExactRep-v3-final,2021.2.3,59.95980292125099,
,,,,,,,,93,0,93,0,,,,,,,,,,,,,,,,,,,,,,,,,,,,,,,,,,,,,,,,,,,,,,,,,,,,,1780.6783775000367,None,,,,,,,,,,,,,,,,,,,,,,,,,,,,,,,,,,,fact,82,94,aloud,red,1778.6648058999563,None,None,1778.6648058999563,None,,,,,,,,,,,,,,,,,,,,,,,,,,,,,,13,001,2023_Feb_22_1021,ExactRep-v3-final,2021.2.3,59.95980292125099,
,,,,,,,,94,0,94,0,,,,,,,,,,,,,,,,,,,,,,,,,,,,,,,,,,,,,,,,,,,,,,,,,,,,,1783.1808226000285,None,,,,,,,,,,,,,,,,,,,,,,,,,,,,,,,,,,,soul,64,95,silent,blue,1781.1789127000375,None,None,1781.1789127000375,None,,,,,,,,,,,,,,,,,,,,,,,,,,,,,,13,001,2023_Feb_22_1021,ExactRep-v3-final,2021.2.3,59.95980292125099,
,,,,,,,,95,0,95,0,,,,,,,,,,,,,,,,,,,,,,,,,,,,,,,,,,,,,,,,,,,,,,,,,,,,,1785.7001388999633,None,,,,,,,,,,,,,,,,,,,,,,,,,,,,,,,,,,,dress,114,96,aloud,red,1783.6876596000511,None,None,1783.6876596000511,None,,,,,,,,,,,,,,,,,,,,,,,,,,,,,,13,001,2023_Feb_22_1021,ExactRep-v3-final,2021.2.3,59.95980292125099,
,,,,,,,,96,0,96,0,,,,,,,,,,,,,,,,,,,,,,,,,,,,,,,,,,,,,,,,,,,,,,,,,,,,,1788.2193089999491,None,,,,,,,,,,,,,,,,,,,,,,,,,,,,,,,,,,,volume,42,97,silent,blue,1786.2049864999717,None,None,1786.2049864999717,None,,,,,,,,,,,,,,,,,,,,,,,,,,,,,,13,001,2023_Feb_22_1021,ExactRep-v3-final,2021.2.3,59.95980292125099,
,,,,,,,,97,0,97,0,,,,,,,,,,,,,,,,,,,,,,,,,,,,,,,,,,,,,,,,,,,,,,,,,,,,,1790.7384692999767,None,,,,,,,,,,,,,,,,,,,,,,,,,,,,,,,,,,,palace,19,98,sing,white,1788.726070499979,None,None,1788.726070499979,None,,,,,,,,,,,,,,,,,,,,,,,,,,,,,,13,001,2023_Feb_22_1021,ExactRep-v3-final,2021.2.3,59.95980292125099,
,,,,,,,,98,0,98,0,,,,,,,,,,,,,,,,,,,,,,,,,,,,,,,,,,,,,,,,,,,,,,,,,,,,,1793.2409744999604,None,,,,,,,,,,,,,,,,,,,,,,,,,,,,,,,,,,,girl,65,99,silent,blue,1791.238992700004,None,None,1791.238992700004,None,,,,,,,,,,,,,,,,,,,,,,,,,,,,,,13,001,2023_Feb_22_1021,ExactRep-v3-final,2021.2.3,59.95980292125099,
,,,,,,,,99,0,99,0,,,,,,,,,,,,,,,,,,,,,,,,,,,,,,,,,,,,,,,,,,,,,,,,,,,,,1795.743529099971,None,,,,,,,,,,,,,,,,,,,,,,,,,,,,,,,,,,,hope,49,100,silent,blue,1793.7434287000215,None,None,1793.7434287000215,None,,,,,,,,,,,,,,,,,,,,,,,,,,,,,,13,001,2023_Feb_22_1021,ExactRep-v3-final,2021.2.3,59.95980292125099,
,,,,,,,,100,0,100,0,,,,,,,,,,,,,,,,,,,,,,,,,,,,,,,,,,,,,,,,,,,,,,,,,,,,,1798.2458133000182,None,,,,,,,,,,,,,,,,,,,,,,,,,,,,,,,,,,,queen,69,101,silent,blue,1796.2467052999418,None,None,1796.2467052999418,None,,,,,,,,,,,,,,,,,,,,,,,,,,,,,,13,001,2023_Feb_22_1021,ExactRep-v3-final,2021.2.3,59.95980292125099,
,,,,,,,,101,0,101,0,,,,,,,,,,,,,,,,,,,,,,,,,,,,,,,,,,,,,,,,,,,,,,,,,,,,,1800.7484803999541,None,,,,,,,,,,,,,,,,,,,,,,,,,,,,,,,,,,,engine,85,102,aloud,red,1798.7469350999454,None,None,1798.7469350999454,None,,,,,,,,,,,,,,,,,,,,,,,,,,,,,,13,001,2023_Feb_22_1021,ExactRep-v3-final,2021.2.3,59.95980292125099,
,,,,,,,,102,0,102,0,,,,,,,,,,,,,,,,,,,,,,,,,,,,,,,,,,,,,,,,,,,,,,,,,,,,,1803.267653799965,None,,,,,,,,,,,,,,,,,,,,,,,,,,,,,,,,,,,form,119,103,aloud,red,1801.252945599961,None,None,1801.252945599961,None,,,,,,,,,,,,,,,,,,,,,,,,,,,,,,13,001,2023_Feb_22_1021,ExactRep-v3-final,2021.2.3,59.95980292125099,
,,,,,,,,103,0,103,0,,,,,,,,,,,,,,,,,,,,,,,,,,,,,,,,,,,,,,,,,,,,,,,,,,,,,1805.7700002000201,None,,,,,,,,,,,,,,,,,,,,,,,,,,,,,,,,,,,advice,113,104,aloud,red,1803.7680828999728,None,None,1803.7680828999728,None,,,,,,,,,,,,,,,,,,,,,,,,,,,,,,13,001,2023_Feb_22_1021,ExactRep-v3-final,2021.2.3,59.95980292125099,
,,,,,,,,104,0,104,0,,,,,,,,,,,,,,,,,,,,,,,,,,,,,,,,,,,,,,,,,,,,,,,,,,,,,1808.272655799985,None,,,,,,,,,,,,,,,,,,,,,,,,,,,,,,,,,,,factory,33,105,sing,white,1806.2713318000315,None,None,1806.2713318000315,None,,,,,,,,,,,,,,,,,,,,,,,,,,,,,,13,001,2023_Feb_22_1021,ExactRep-v3-final,2021.2.3,59.95980292125099,
,,,,,,,,105,0,105,0,,,,,,,,,,,,,,,,,,,,,,,,,,,,,,,,,,,,,,,,,,,,,,,,,,,,,1810.775127699948,None,,,,,,,,,,,,,,,,,,,,,,,,,,,,,,,,,,,nail,0,106,sing,white,1808.7730688999873,None,None,1808.7730688999873,None,,,,,,,,,,,,,,,,,,,,,,,,,,,,,,13,001,2023_Feb_22_1021,ExactRep-v3-final,2021.2.3,59.95980292125099,
,,,,,,,,106,0,106,0,,,,,,,,,,,,,,,,,,,,,,,,,,,,,,,,,,,,,,,,,,,,,,,,,,,,,1813.2943852000171,None,,,,,,,,,,,,,,,,,,,,,,,,,,,,,,,,,,,fate,52,107,silent,blue,1811.2837607000256,None,None,1811.2837607000256,None,,,,,,,,,,,,,,,,,,,,,,,,,,,,,,13,001,2023_Feb_22_1021,ExactRep-v3-final,2021.2.3,59.95980292125099,
,,,,,,,,107,0,107,0,,,,,,,,,,,,,,,,,,,,,,,,,,,,,,,,,,,,,,,,,,,,,,,,,,,,,1815.7966049000388,None,,,,,,,,,,,,,,,,,,,,,,,,,,,,,,,,,,,car,67,108,silent,blue,1813.7948651999468,None,None,1813.7948651999468,None,,,,,,,,,,,,,,,,,,,,,,,,,,,,,,13,001,2023_Feb_22_1021,ExactRep-v3-final,2021.2.3,59.95980292125099,
,,,,,,,,108,0,108,0,,,,,,,,,,,,,,,,,,,,,,,,,,,,,,,,,,,,,,,,,,,,,,,,,,,,,1818.2991986999987,None,,,,,,,,,,,,,,,,,,,,,,,,,,,,,,,,,,,science,98,109,aloud,red,1816.2973320999881,None,None,1816.2973320999881,None,,,,,,,,,,,,,,,,,,,,,,,,,,,,,,13,001,2023_Feb_22_1021,ExactRep-v3-final,2021.2.3,59.95980292125099,
,,,,,,,,109,0,109,0,,,,,,,,,,,,,,,,,,,,,,,,,,,,,,,,,,,,,,,,,,,,,,,,,,,,,1820.819718600018,None,,,,,,,,,,,,,,,,,,,,,,,,,,,,,,,,,,,water,99,110,aloud,red,1818.8094457000261,None,None,1818.8094457000261,None,,,,,,,,,,,,,,,,,,,,,,,,,,,,,,13,001,2023_Feb_22_1021,ExactRep-v3-final,2021.2.3,59.95980292125099,
,,,,,,,,110,0,110,0,,,,,,,,,,,,,,,,,,,,,,,,,,,,,,,,,,,,,,,,,,,,,,,,,,,,,1823.3376294999616,None,,,,,,,,,,,,,,,,,,,,,,,,,,,,,,,,,,,woman,62,111,silent,blue,1821.3256823000265,None,None,1821.3256823000265,None,,,,,,,,,,,,,,,,,,,,,,,,,,,,,,13,001,2023_Feb_22_1021,ExactRep-v3-final,2021.2.3,59.95980292125099,
,,,,,,,,111,0,111,0,,,,,,,,,,,,,,,,,,,,,,,,,,,,,,,,,,,,,,,,,,,,,,,,,,,,,1825.8570475999732,None,,,,,,,,,,,,,,,,,,,,,,,,,,,,,,,,,,,gift,68,112,silent,blue,1823.8451295000268,None,None,1823.8451295000268,None,,,,,,,,,,,,,,,,,,,,,,,,,,,,,,13,001,2023_Feb_22_1021,ExactRep-v3-final,2021.2.3,59.95980292125099,
,,,,,,,,112,0,112,0,,,,,,,,,,,,,,,,,,,,,,,,,,,,,,,,,,,,,,,,,,,,,,,,,,,,,1828.359224200016,None,,,,,,,,,,,,,,,,,,,,,,,,,,,,,,,,,,,soil,46,113,silent,blue,1826.357448499999,None,None,1826.357448499999,None,,,,,,,,,,,,,,,,,,,,,,,,,,,,,,13,001,2023_Feb_22_1021,ExactRep-v3-final,2021.2.3,59.95980292125099,
,,,,,,,,113,0,113,0,,,,,,,,,,,,,,,,,,,,,,,,,,,,,,,,,,,,,,,,,,,,,,,,,,,,,1830.8619668999454,None,,,,,,,,,,,,,,,,,,,,,,,,,,,,,,,,,,,meeting,117,114,aloud,red,1828.860486199963,None,None,1828.860486199963,None,,,,,,,,,,,,,,,,,,,,,,,,,,,,,,13,001,2023_Feb_22_1021,ExactRep-v3-final,2021.2.3,59.95980292125099,
,,,,,,,,114,0,114,0,,,,,,,,,,,,,,,,,,,,,,,,,,,,,,,,,,,,,,,,,,,,,,,,,,,,,1833.3811891999794,None,,,,,,,,,,,,,,,,,,,,,,,,,,,,,,,,,,,cash,25,115,sing,white,1831.367114600027,None,None,1831.367114600027,None,,,,,,,,,,,,,,,,,,,,,,,,,,,,,,13,001,2023_Feb_22_1021,ExactRep-v3-final,2021.2.3,59.95980292125099,
,,,,,,,,115,0,115,0,,,,,,,,,,,,,,,,,,,,,,,,,,,,,,,,,,,,,,,,,,,,,,,,,,,,,1835.8833246000577,None,,,,,,,,,,,,,,,,,,,,,,,,,,,,,,,,,,,safety,89,116,aloud,red,1833.8813088999595,None,None,1833.8813088999595,None,,,,,,,,,,,,,,,,,,,,,,,,,,,,,,13,001,2023_Feb_22_1021,ExactRep-v3-final,2021.2.3,59.95980292125099,
,,,,,,,,116,0,116,0,,,,,,,,,,,,,,,,,,,,,,,,,,,,,,,,,,,,,,,,,,,,,,,,,,,,,1838.4024510999443,None,,,,,,,,,,,,,,,,,,,,,,,,,,,,,,,,,,,bar,30,117,sing,white,1836.3911252999678,None,None,1836.3911252999678,None,,,,,,,,,,,,,,,,,,,,,,,,,,,,,,13,001,2023_Feb_22_1021,ExactRep-v3-final,2021.2.3,59.95980292125099,
,,,,,,,,117,0,117,0,,,,,,,,,,,,,,,,,,,,,,,,,,,,,,,,,,,,,,,,,,,,,,,,,,,,,1840.905319100013,None,,,,,,,,,,,,,,,,,,,,,,,,,,,,,,,,,,,cottage,100,118,aloud,red,1838.9031298999907,None,None,1838.9031298999907,None,,,,,,,,,,,,,,,,,,,,,,,,,,,,,,13,001,2023_Feb_22_1021,ExactRep-v3-final,2021.2.3,59.95980292125099,
,,,,,,,,118,0,118,0,,,,,,,,,,,,,,,,,,,,,,,,,,,,,,,,,,,,,,,,,,,,,,,,,,,,,1843.4077277999604,None,,,,,,,,,,,,,,,,,,,,,,,,,,,,,,,,,,,camp,104,119,aloud,red,1841.4064812000142,None,None,1841.4064812000142,None,,,,,,,,,,,,,,,,,,,,,,,,,,,,,,13,001,2023_Feb_22_1021,ExactRep-v3-final,2021.2.3,59.95980292125099,
,,,,,,,,119,0,119,0,,,,,,,,,,,,,,,,,,,,,,,,,,,,,,,,,,,,,,,,,,,,,,,,,,,,,1845.9104057999793,None,,,,,,,,,,,,,,,,,,,,,,,,,,,,,,,,,,,honour,107,120,aloud,red,1843.9079927999992,None,None,1843.9079927999992,None,,,,,,,,,,,,,,,,,,,,,,,,,,,,,,13,001,2023_Feb_22_1021,ExactRep-v3-final,2021.2.3,59.95980292125099,
,,,,,,,,,,,,,,,,,,,,,,,,,,,,,,,,,,,,,,,,,,,,,,,,,,,,,,,,,,,,,,,,,,,,,,,,,,,,,,,,,,,,,,,,,,,,,,,,,,,,,,,,,,,,,,1846.4124540999765,None,space,0.009763500071130693,1856.3885777000105,None,,,,,,,,,,,,,,,,,,,,,,,,13,001,2023_Feb_22_1021,ExactRep-v3-final,2021.2.3,59.95980292125099,
,,,,,,,,,,,,,,,,,,,,,,,,,,,,,,,,,,,,,,,,,,,,,,,,,,,,,,,,,,,,,,,,,,,,,,,,,,,,,,,,,,,,,,,,,,,,,,,,,,,,,,,,,,,,,,,,,,,,1856.422446200042,None,space,36.559377799974754,1866.398914200021,None,,,,,,,,,,,,,,,,,,13,001,2023_Feb_22_1021,ExactRep-v3-final,2021.2.3,59.95980292125099,
,,,,,,,,,,,,0,0,0,0,,,,,,,,,,,,,,,,,,,,,,,,,,,,,,,,,,,,,,,,,,,,,,,,,1909.6072740999516,None,,,,,,,,,,,,,,,,,,,,,,,,,,,,,,,,,,,,,,,,,,,,,,,,,,,,,,,,,teacher,43,1,silent,old,blue,1903.5033953000093,None,y,1903.5033953000093,None,"['y', 'return']","[4.294669600087218, 6.062619800097309]",1903.5033953000093,None,,,13,001,2023_Feb_22_1021,ExactRep-v3-final,2021.2.3,59.95980292125099,
,,,,,,,,,,,,1,0,1,0,,,,,,,,,,,,,,,,,,,,,,,,,,,,,,,,,,,,,,,,,,,,,,,,,1913.7947277999483,None,,,,,,,,,,,,,,,,,,,,,,,,,,,,,,,,,,,,,,,,,,,,,,,,,,,,,,,,,college,12,2,sing,old,white,1910.1194179999875,None,y,1910.1194179999875,None,"['y', 'return']","[2.5345913000637665, 3.6305594000732526]",1910.1194179999875,None,,,13,001,2023_Feb_22_1021,ExactRep-v3-final,2021.2.3,59.95980292125099,
,,,,,,,,,,,,2,0,2,0,,,,,,,,,,,,,,,,,,,,,,,,,,,,,,,,,,,,,,,,,,,,,,,,,1917.4481432000175,None,,,,,,,,,,,,,,,,,,,,,,,,,,,,,,,,,,,,,,,,,,,,,,,,,,,,,,,,,freedom,146,3,silent,new,blue,1914.3026646999642,None,n,1914.3026646999642,None,"['n', 'return']","[1.9674433000618592, 3.111267500091344]",1914.3026646999642,None,,,13,001,2023_Feb_22_1021,ExactRep-v3-final,2021.2.3,59.95980292125099,
,,,,,,,,,,,,3,0,3,0,,,,,,,,,,,,,,,,,,,,,,,,,,,,,,,,,,,,,,,,,,,,,,,,,1922.0760636000196,None,,,,,,,,,,,,,,,,,,,,,,,,,,,,,,,,,,,,,,,,,,,,,,,,,,,,,,,,,anger,122,4,silent,new,blue,1917.9578819000162,None,n,1917.9578819000162,None,"['n', 'return']","[2.8883858000626788, 4.0800310000777245]",1917.9578819000162,None,,,13,001,2023_Feb_22_1021,ExactRep-v3-final,2021.2.3,59.95980292125099,
,,,,,,,,,,,,4,0,4,0,,,,,,,,,,,,,,,,,,,,,,,,,,,,,,,,,,,,,,,,,,,,,,,,,1926.2738360000076,None,,,,,,,,,,,,,,,,,,,,,,,,,,,,,,,,,,,,,,,,,,,,,,,,,,,,,,,,,tree,237,5,sing,new,white,1922.5949298000196,None,y,1922.5949298000196,None,"['y', 'return']","[2.594984899973497, 3.635026599979028]",1922.5949298000196,None,,,13,001,2023_Feb_22_1021,ExactRep-v3-final,2021.2.3,59.95980292125099,
,,,,,,,,,,,,5,0,5,0,,,,,,,,,,,,,,,,,,,,,,,,,,,,,,,,,,,,,,,,,,,,,,,,,1930.111196700018,None,,,,,,,,,,,,,,,,,,,,,,,,,,,,,,,,,,,,,,,,,,,,,,,,,,,,,,,,,engine,85,6,aloud,old,red,1926.783377500018,None,y,1926.783377500018,None,"['y', 'return']","[2.1106086000800133, 3.28667000005953]",1926.783377500018,None,,,13,001,2023_Feb_22_1021,ExactRep-v3-final,2021.2.3,59.95980292125099,
,,,,,,,,,,,,6,0,6,0,,,,,,,,,,,,,,,,,,,,,,,,,,,,,,,,,,,,,,,,,,,,,,,,,1933.7146566000301,None,,,,,,,,,,,,,,,,,,,,,,,,,,,,,,,,,,,,,,,,,,,,,,,,,,,,,,,,,house,32,7,sing,old,white,1930.6244565000525,None,y,1930.6244565000525,None,"['y', 'return']","[2.0295185999711975, 3.053631199989468]",1930.6244565000525,None,,,13,001,2023_Feb_22_1021,ExactRep-v3-final,2021.2.3,59.95980292125099,
,,,,,,,,,,,,7,0,7,0,,,,,,,,,,,,,,,,,,,,,,,,,,,,,,,,,,,,,,,,,,,,,,,,,1937.0846861000173,None,,,,,,,,,,,,,,,,,,,,,,,,,,,,,,,,,,,,,,,,,,,,,,,,,,,,,,,,,shock,202,8,aloud,new,red,1934.2235552000348,None,n,1934.2235552000348,None,"['n', 'return']","[1.7985249999910593, 2.822482499992475]",1934.2235552000348,None,,,13,001,2023_Feb_22_1021,ExactRep-v3-final,2021.2.3,59.95980292125099,
,,,,,,,,,,,,8,0,8,0,,,,,,,,,,,,,,,,,,,,,,,,,,,,,,,,,,,,,,,,,,,,,,,,,1940.3378617999842,None,,,,,,,,,,,,,,,,,,,,,,,,,,,,,,,,,,,,,,,,,,,,,,,,,,,,,,,,,woman,62,9,silent,old,blue,1937.5945211000508,None,y,1937.5945211000508,None,"['y', 'return']","[1.7233882000437006, 2.699533800012432]",1937.5945211000508,None,,,13,001,2023_Feb_22_1021,ExactRep-v3-final,2021.2.3,59.95980292125099,
,,,,,,,,,,,,9,0,9,0,,,,,,,,,,,,,,,,,,,,,,,,,,,,,,,,,,,,,,,,,,,,,,,,,1945.526611899957,None,,,,,,,,,,,,,,,,,,,,,,,,,,,,,,,,,,,,,,,,,,,,,,,,,,,,,,,,,amount,159,10,silent,new,blue,1940.848088299972,None,n,1940.848088299972,None,"['n', 'return']","[3.574245800031349, 4.646071500028484]",1940.848088299972,None,,,13,001,2023_Feb_22_1021,ExactRep-v3-final,2021.2.3,59.95980292125099,
,,,,,,,,,,,,10,0,10,0,,,,,,,,,,,,,,,,,,,,,,,,,,,,,,,,,,,,,,,,,,,,,,,,,1951.482420300017,None,,,,,,,,,,,,,,,,,,,,,,,,,,,,,,,,,,,,,,,,,,,,,,,,,,,,,,,,,speech,153,11,silent,new,blue,1946.0374251999892,None,n,1946.0374251999892,None,"['n', 'return']","[4.184545799973421, 5.400584499933757]",1946.0374251999892,None,,,13,001,2023_Feb_22_1021,ExactRep-v3-final,2021.2.3,59.95980292125099,
,,,,,,,,,,,,11,0,11,0,,,,,,,,,,,,,,,,,,,,,,,,,,,,,,,,,,,,,,,,,,,,,,,,,1955.6031364999944,None,,,,,,,,,,,,,,,,,,,,,,,,,,,,,,,,,,,,,,,,,,,,,,,,,,,,,,,,,rock,16,12,sing,old,white,1951.9941712999716,None,n,1951.9941712999716,None,"['n', 'return']","[2.4040997999254614, 3.5639359999913722]",1951.9941712999716,None,,,13,001,2023_Feb_22_1021,ExactRep-v3-final,2021.2.3,59.95980292125099,
,,,,,,,,,,,,12,0,12,0,,,,,,,,,,,,,,,,,,,,,,,,,,,,,,,,,,,,,,,,,,,,,,,,,1960.3745689999778,None,,,,,,,,,,,,,,,,,,,,,,,,,,,,,,,,,,,,,,,,,,,,,,,,,,,,,,,,,flood,136,13,silent,new,blue,1956.1146212000167,None,y,1956.1146212000167,None,"['y', 'return']","[3.1634068998973817, 4.21953769994434]",1956.1146212000167,None,,,13,001,2023_Feb_22_1021,ExactRep-v3-final,2021.2.3,59.95980292125099,
,,,,,,,,,,,,13,0,13,0,,,,,,,,,,,,,,,,,,,,,,,,,,,,,,,,,,,,,,,,,,,,,,,,,1963.6113071000436,None,,,,,,,,,,,,,,,,,,,,,,,,,,,,,,,,,,,,,,,,,,,,,,,,,,,,,,,,,king,195,14,sing,new,white,1960.8866128999507,None,n,1960.8866128999507,None,"['n', 'return']","[1.743738800054416, 2.6875059000449255]",1960.8866128999507,None,,,13,001,2023_Feb_22_1021,ExactRep-v3-final,2021.2.3,59.95980292125099,
,,,,,,,,,,,,14,0,14,0,,,,,,,,,,,,,,,,,,,,,,,,,,,,,,,,,,,,,,,,,,,,,,,,,1968.11563809996,None,,,,,,,,,,,,,,,,,,,,,,,,,,,,,,,,,,,,,,,,,,,,,,,,,,,,,,,,,vision,95,15,aloud,old,red,1964.1263247999595,None,y,1964.1263247999595,None,"['y', 'return']","[2.911890299990773, 3.9437774000689387]",1964.1263247999595,None,,,13,001,2023_Feb_22_1021,ExactRep-v3-final,2021.2.3,59.95980292125099,
,,,,,,,,,,,,15,0,15,0,,,,,,,,,,,,,,,,,,,,,,,,,,,,,,,,,,,,,,,,,,,,,,,,,1972.9707636999665,None,,,,,,,,,,,,,,,,,,,,,,,,,,,,,,,,,,,,,,,,,,,,,,,,,,,,,,,,,clock,226,16,aloud,new,red,1968.6253595999442,None,n,1968.6253595999442,None,"['n', 'return']","[3.300817899988033, 4.308701400063001]",1968.6253595999442,None,,,13,001,2023_Feb_22_1021,ExactRep-v3-final,2021.2.3,59.95980292125099,
,,,,,,,,,,,,16,0,16,0,,,,,,,,,,,,,,,,,,,,,,,,,,,,,,,,,,,,,,,,,,,,,,,,,1976.0236319999676,None,,,,,,,,,,,,,,,,,,,,,,,,,,,,,,,,,,,,,,,,,,,,,,,,,,,,,,,,,coast,90,17,aloud,old,red,1973.4778569999617,None,y,1973.4778569999617,None,"['y', 'return']","[1.6884454999817535, 2.5042053000070155]",1973.4778569999617,None,,,13,001,2023_Feb_22_1021,ExactRep-v3-final,2021.2.3,59.95980292125099,
,,,,,,,,,,,,17,0,17,0,,,,,,,,,,,,,,,,,,,,,,,,,,,,,,,,,,,,,,,,,,,,,,,,,1978.976597400033,None,,,,,,,,,,,,,,,,,,,,,,,,,,,,,,,,,,,,,,,,,,,,,,,,,,,,,,,,,safety,89,18,aloud,old,red,1976.536053400021,None,y,1976.536053400021,None,"['y', 'return']","[1.4219391000224277, 2.4059278999920934]",1976.536053400021,None,,,13,001,2023_Feb_22_1021,ExactRep-v3-final,2021.2.3,59.95980292125099,
,,,,,,,,,,,,18,0,18,0,,,,,,,,,,,,,,,,,,,,,,,,,,,,,,,,,,,,,,,,,,,,,,,,,1982.7636099000229,None,,,,,,,,,,,,,,,,,,,,,,,,,,,,,,,,,,,,,,,,,,,,,,,,,,,,,,,,,bird,239,19,sing,new,white,1979.4855149999494,None,n,1979.4855149999494,None,"['n', 'return']","[1.9685876000439748, 3.2324888999573886]",1979.4855149999494,None,,,13,001,2023_Feb_22_1021,ExactRep-v3-final,2021.2.3,59.95980292125099,
,,,,,,,,,,,,19,0,19,0,,,,,,,,,,,,,,,,,,,,,,,,,,,,,,,,,,,,,,,,,,,,,,,,,1987.0178779000416,None,,,,,,,,,,,,,,,,,,,,,,,,,,,,,,,,,,,,,,,,,,,,,,,,,,,,,,,,,toy,138,20,silent,new,blue,1983.2758388000075,None,n,1983.2758388000075,None,"['n', 'return']","[2.6901810000417754, 3.7062163000227883]",1983.2758388000075,None,,,13,001,2023_Feb_22_1021,ExactRep-v3-final,2021.2.3,59.95980292125099,
,,,,,,,,,,,,20,0,20,0,,,,,,,,,,,,,,,,,,,,,,,,,,,,,,,,,,,,,,,,,,,,,,,,,1990.237735099974,None,,,,,,,,,,,,,,,,,,,,,,,,,,,,,,,,,,,,,,,,,,,,,,,,,,,,,,,,,cotton,76,21,silent,old,blue,1987.530660700053,None,y,1987.530660700053,None,"['y', 'return']","[1.6196696000406519, 2.675476900069043]",1987.530660700053,None,,,13,001,2023_Feb_22_1021,ExactRep-v3-final,2021.2.3,59.95980292125099,
,,,,,,,,,,,,21,0,21,0,,,,,,,,,,,,,,,,,,,,,,,,,,,,,,,,,,,,,,,,,,,,,,,,,1994.6755288999993,None,,,,,,,,,,,,,,,,,,,,,,,,,,,,,,,,,,,,,,,,,,,,,,,,,,,,,,,,,chair,20,22,sing,old,white,1990.7456560999854,None,n,1990.7456560999854,None,"['n', 'return']","[2.6522756000049412, 3.8844694999279454]",1990.7456560999854,None,,,13,001,2023_Feb_22_1021,ExactRep-v3-final,2021.2.3,59.95980292125099,
,,,,,,,,,,,,22,0,22,0,,,,,,,,,,,,,,,,,,,,,,,,,,,,,,,,,,,,,,,,,,,,,,,,,1999.3471483000321,None,,,,,,,,,,,,,,,,,,,,,,,,,,,,,,,,,,,,,,,,,,,,,,,,,,,,,,,,,thought,208,23,aloud,new,red,1995.182260200032,None,y,1995.182260200032,None,"['y', 'return']","[3.111825199914165, 4.1198897999711335]",1995.182260200032,None,,,13,001,2023_Feb_22_1021,ExactRep-v3-final,2021.2.3,59.95980292125099,
,,,,,,,,,,,,23,0,23,0,,,,,,,,,,,,,,,,,,,,,,,,,,,,,,,,,,,,,,,,,,,,,,,,,2004.4853609000565,None,,,,,,,,,,,,,,,,,,,,,,,,,,,,,,,,,,,,,,,,,,,,,,,,,,,,,,,,,ability,230,24,aloud,new,red,1999.8620161999715,None,n,1999.8620161999715,None,"['n', 'return']","[3.57637199992314, 4.584107399918139]",1999.8620161999715,None,,,13,001,2023_Feb_22_1021,ExactRep-v3-final,2021.2.3,59.95980292125099,
,,,,,,,,,,,,24,0,24,0,,,,,,,,,,,,,,,,,,,,,,,,,,,,,,,,,,,,,,,,,,,,,,,,,2008.9563404000364,None,,,,,,,,,,,,,,,,,,,,,,,,,,,,,,,,,,,,,,,,,,,,,,,,,,,,,,,,,hour,218,25,aloud,new,red,2004.9911262999522,None,n,2004.9911262999522,None,"['n', 'return']","[2.9831983000040054, 3.9269720000447705]",2004.9911262999522,None,,,13,001,2023_Feb_22_1021,ExactRep-v3-final,2021.2.3,59.95980292125099,
,,,,,,,,,,,,25,0,25,0,,,,,,,,,,,,,,,,,,,,,,,,,,,,,,,,,,,,,,,,,,,,,,,,,2013.5611438000342,None,,,,,,,,,,,,,,,,,,,,,,,,,,,,,,,,,,,,,,,,,,,,,,,,,,,,,,,,,silence,129,26,silent,new,blue,2009.4642929000547,None,y,2009.4642929000547,None,"['y', 'return']","[3.1338434000499547, 4.053777600056492]",2009.4642929000547,None,,,13,001,2023_Feb_22_1021,ExactRep-v3-final,2021.2.3,59.95980292125099,
,,,,,,,,,,,,26,0,26,0,,,,,,,,,,,,,,,,,,,,,,,,,,,,,,,,,,,,,,,,,,,,,,,,,2017.4688638000516,None,,,,,,,,,,,,,,,,,,,,,,,,,,,,,,,,,,,,,,,,,,,,,,,,,,,,,,,,,horse,178,27,aloud,new,red,2014.0621999000432,None,n,2014.0621999000432,None,"['n', 'return']","[2.46422480000183, 3.3598216000245884]",2014.0621999000432,None,,,13,001,2023_Feb_22_1021,ExactRep-v3-final,2021.2.3,59.95980292125099,
,,,,,,,,,,,,27,0,27,0,,,,,,,,,,,,,,,,,,,,,,,,,,,,,,,,,,,,,,,,,,,,,,,,,2024.6054940000176,None,,,,,,,,,,,,,,,,,,,,,,,,,,,,,,,,,,,,,,,,,,,,,,,,,,,,,,,,,volume,42,28,silent,old,blue,2017.997643699986,None,n,2017.997643699986,None,"['n', 'return']","[5.528606800013222, 6.5764745000051335]",2017.997643699986,None,,,13,001,2023_Feb_22_1021,ExactRep-v3-final,2021.2.3,59.95980292125099,
,,,,,,,,,,,,28,0,28,0,,,,,,,,,,,,,,,,,,,,,,,,,,,,,,,,,,,,,,,,,,,,,,,,,2028.2925906999735,None,,,,,,,,,,,,,,,,,,,,,,,,,,,,,,,,,,,,,,,,,,,,,,,,,,,,,,,,,artist,58,29,silent,old,blue,2025.1204179000342,None,n,2025.1204179000342,None,"['n', 'return']","[2.213735199999064, 3.125700799981132]",2025.1204179000342,None,,,13,001,2023_Feb_22_1021,ExactRep-v3-final,2021.2.3,59.95980292125099,
,,,,,,,,,,,,29,0,29,0,,,,,,,,,,,,,,,,,,,,,,,,,,,,,,,,,,,,,,,,,,,,,,,,,2033.397576199961,None,,,,,,,,,,,,,,,,,,,,,,,,,,,,,,,,,,,,,,,,,,,,,,,,,,,,,,,,,dream,127,30,silent,new,blue,2028.803420900018,None,y,2028.803420900018,None,"['y', 'return']","[3.586716699996032, 4.554774800082669]",2028.803420900018,None,,,13,001,2023_Feb_22_1021,ExactRep-v3-final,2021.2.3,59.95980292125099,
,,,,,,,,,,,,30,0,30,0,,,,,,,,,,,,,,,,,,,,,,,,,,,,,,,,,,,,,,,,,,,,,,,,,2039.3702394999564,None,,,,,,,,,,,,,,,,,,,,,,,,,,,,,,,,,,,,,,,,,,,,,,,,,,,,,,,,,passion,140,31,silent,new,blue,2033.9076168000465,None,n,2033.9076168000465,None,"['n', 'return']","[4.47476839995943, 5.42653940001037]",2033.9076168000465,None,,,13,001,2023_Feb_22_1021,ExactRep-v3-final,2021.2.3,59.95980292125099,
,,,,,,,,,,,,31,0,31,0,,,,,,,,,,,,,,,,,,,,,,,,,,,,,,,,,,,,,,,,,,,,,,,,,2043.6580336999614,None,,,,,,,,,,,,,,,,,,,,,,,,,,,,,,,,,,,,,,,,,,,,,,,,,,,,,,,,,wine,5,32,sing,old,white,2039.8793310000328,None,y,2039.8793310000328,None,"['y', 'return']","[2.7427853000117466, 3.734802299994044]",2039.8793310000328,None,,,13,001,2023_Feb_22_1021,ExactRep-v3-final,2021.2.3,59.95980292125099,
,,,,,,,,,,,,32,0,32,0,,,,,,,,,,,,,,,,,,,,,,,,,,,,,,,,,,,,,,,,,,,,,,,,,2047.4950314000016,None,,,,,,,,,,,,,,,,,,,,,,,,,,,,,,,,,,,,,,,,,,,,,,,,,,,,,,,,,cat,10,33,sing,old,white,2044.1669677000027,None,n,2044.1669677000027,None,"['n', 'return']","[2.2871307000750676, 3.2950348000740632]",2044.1669677000027,None,,,13,001,2023_Feb_22_1021,ExactRep-v3-final,2021.2.3,59.95980292125099,
,,,,,,,,,,,,33,0,33,0,,,,,,,,,,,,,,,,,,,,,,,,,,,,,,,,,,,,,,,,,,,,,,,,,2050.5814609000226,None,,,,,,,,,,,,,,,,,,,,,,,,,,,,,,,,,,,,,,,,,,,,,,,,,,,,,,,,,meeting,117,34,aloud,old,red,2047.999376200023,None,y,2047.999376200023,None,"['y', 'return']","[1.7510405000066385, 2.542902800021693]",2047.999376200023,None,,,13,001,2023_Feb_22_1021,ExactRep-v3-final,2021.2.3,59.95980292125099,
,,,,,,,,,,,,34,0,34,0,,,,,,,,,,,,,,,,,,,,,,,,,,,,,,,,,,,,,,,,,,,,,,,,,2054.201805599965,None,,,,,,,,,,,,,,,,,,,,,,,,,,,,,,,,,,,,,,,,,,,,,,,,,,,,,,,,,breast,22,35,sing,old,white,2051.0833379999967,None,y,2051.0833379999967,None,"['y', 'return']","[2.1151179000735283, 3.0748469000682235]",2051.0833379999967,None,,,13,001,2023_Feb_22_1021,ExactRep-v3-final,2021.2.3,59.95980292125099,
,,,,,,,,,,,,35,0,35,0,,,,,,,,,,,,,,,,,,,,,,,,,,,,,,,,,,,,,,,,,,,,,,,,,2058.0389034999534,None,,,,,,,,,,,,,,,,,,,,,,,,,,,,,,,,,,,,,,,,,,,,,,,,,,,,,,,,,avenue,193,36,sing,new,white,2054.713804399944,None,n,2054.713804399944,None,"['n', 'return']","[2.2923676000209525, 3.2921962999971583]",2054.713804399944,None,,,13,001,2023_Feb_22_1021,ExactRep-v3-final,2021.2.3,59.95980292125099,
,,,,,,,,,,,,36,0,36,0,,,,,,,,,,,,,,,,,,,,,,,,,,,,,,,,,,,,,,,,,,,,,,,,,2061.5924426000565,None,,,,,,,,,,,,,,,,,,,,,,,,,,,,,,,,,,,,,,,,,,,,,,,,,,,,,,,,,machine,44,37,silent,old,blue,2058.5468743999954,None,n,2058.5468743999954,None,"['n', 'return']","[2.2432908999035135, 3.0032903999090195]",2058.5468743999954,None,,,13,001,2023_Feb_22_1021,ExactRep-v3-final,2021.2.3,59.95980292125099,
,,,,,,,,,,,,37,0,37,0,,,,,,,,,,,,,,,,,,,,,,,,,,,,,,,,,,,,,,,,,,,,,,,,,2066.2638090000255,None,,,,,,,,,,,,,,,,,,,,,,,,,,,,,,,,,,,,,,,,,,,,,,,,,,,,,,,,,fun,147,38,silent,new,blue,2062.107149800053,None,n,2062.107149800053,None,"['n', 'return']","[3.1791294999420643, 4.115143000031821]",2062.107149800053,None,,,13,001,2023_Feb_22_1021,ExactRep-v3-final,2021.2.3,59.95980292125099,
,,,,,,,,,,,,38,0,38,0,,,,,,,,,,,,,,,,,,,,,,,,,,,,,,,,,,,,,,,,,,,,,,,,,2069.5672261000145,None,,,,,,,,,,,,,,,,,,,,,,,,,,,,,,,,,,,,,,,,,,,,,,,,,,,,,,,,,flower,135,39,silent,new,blue,2066.772738300031,None,n,2066.772738300031,None,"['n', 'return']","[1.8415722999488935, 2.761426599929109]",2066.772738300031,None,,,13,001,2023_Feb_22_1021,ExactRep-v3-final,2021.2.3,59.95980292125099,
,,,,,,,,,,,,39,0,39,0,,,,,,,,,,,,,,,,,,,,,,,,,,,,,,,,,,,,,,,,,,,,,,,,,2073.9381497000577,None,,,,,,,,,,,,,,,,,,,,,,,,,,,,,,,,,,,,,,,,,,,,,,,,,,,,,,,,,series,238,40,aloud,new,red,2070.0771623000037,None,n,2070.0771623000037,None,"['n', 'return']","[2.953211500076577, 3.8169734000694007]",2070.0771623000037,None,,,13,001,2023_Feb_22_1021,ExactRep-v3-final,2021.2.3,59.95980292125099,
,,,,,,,,,,,,40,0,40,0,,,,,,,,,,,,,,,,,,,,,,,,,,,,,,,,,,,,,,,,,,,,,,,,,2080.0695412999485,None,,,,,,,,,,,,,,,,,,,,,,,,,,,,,,,,,,,,,,,,,,,,,,,,,,,,,,,,,picture,236,41,aloud,new,red,2074.4472418000223,None,y,2074.4472418000223,None,"['y', 'return']","[4.4948491000104696, 5.566994399996474]",2074.4472418000223,None,,,13,001,2023_Feb_22_1021,ExactRep-v3-final,2021.2.3,59.95980292125099,
,,,,,,,,,,,,41,0,41,0,,,,,,,,,,,,,,,,,,,,,,,,,,,,,,,,,,,,,,,,,,,,,,,,,2083.4307792000473,None,,,,,,,,,,,,,,,,,,,,,,,,,,,,,,,,,,,,,,,,,,,,,,,,,,,,,,,,,trouble,224,42,aloud,new,red,2080.5875932000345,None,n,2080.5875932000345,None,"['n', 'return']","[1.8984947999706492, 2.8106751000741497]",2080.5875932000345,None,,,13,001,2023_Feb_22_1021,ExactRep-v3-final,2021.2.3,59.95980292125099,
,,,,,,,,,,,,42,0,42,0,,,,,,,,,,,,,,,,,,,,,,,,,,,,,,,,,,,,,,,,,,,,,,,,,2086.734100700007,None,,,,,,,,,,,,,,,,,,,,,,,,,,,,,,,,,,,,,,,,,,,,,,,,,,,,,,,,,street,108,43,aloud,old,red,2083.940493399976,None,y,2083.940493399976,None,"['y', 'return']","[1.777645600028336, 2.74575569992885]",2083.940493399976,None,,,13,001,2023_Feb_22_1021,ExactRep-v3-final,2021.2.3,59.95980292125099,
,,,,,,,,,,,,43,0,43,0,,,,,,,,,,,,,,,,,,,,,,,,,,,,,,,,,,,,,,,,,,,,,,,,,2090.5716005000286,None,,,,,,,,,,,,,,,,,,,,,,,,,,,,,,,,,,,,,,,,,,,,,,,,,,,,,,,,,soul,64,44,silent,old,blue,2087.2376512000337,None,y,2087.2376512000337,None,"['y', 'return']","[2.3687957000220194, 3.2967183999717236]",2087.2376512000337,None,,,13,001,2023_Feb_22_1021,ExactRep-v3-final,2021.2.3,59.95980292125099,
,,,,,,,,,,,,44,0,44,0,,,,,,,,,,,,,,,,,,,,,,,,,,,,,,,,,,,,,,,,,,,,,,,,,2094.0084584000288,None,,,,,,,,,,,,,,,,,,,,,,,,,,,,,,,,,,,,,,,,,,,,,,,,,,,,,,,,,excuse,148,45,silent,new,blue,2091.0881855000043,None,n,2091.0881855000043,None,"['n', 'return']","[1.9021839000051841, 2.8860724000260234]",2091.0881855000043,None,,,13,001,2023_Feb_22_1021,ExactRep-v3-final,2021.2.3,59.95980292125099,
,,,,,,,,,,,,45,0,45,0,,,,,,,,,,,,,,,,,,,,,,,,,,,,,,,,,,,,,,,,,,,,,,,,,2109.9909616999794,None,,,,,,,,,,,,,,,,,,,,,,,,,,,,,,,,,,,,,,,,,,,,,,,,,,,,,,,,,maiden,231,46,sing,new,white,2094.5119601000333,None,n,2094.5119601000333,None,"['y', 'backspace', 'n', 'return']","[4.478270399966277, 13.42223919997923, 14.606479999958538, 15.438262199983]",2094.5119601000333,None,,,13,001,2023_Feb_22_1021,ExactRep-v3-final,2021.2.3,59.95980292125099,
,,,,,,,,,,,,46,0,46,0,,,,,,,,,,,,,,,,,,,,,,,,,,,,,,,,,,,,,,,,,,,,,,,,,2113.344048399944,None,,,,,,,,,,,,,,,,,,,,,,,,,,,,,,,,,,,,,,,,,,,,,,,,,,,,,,,,,pride,201,47,sing,new,white,2110.5018760999665,None,n,2110.5018760999665,None,"['n', 'return']","[1.7602717999834567, 2.800365600036457]",2110.5018760999665,None,,,13,001,2023_Feb_22_1021,ExactRep-v3-final,2021.2.3,59.95980292125099,
,,,,,,,,,,,,47,0,47,0,,,,,,,,,,,,,,,,,,,,,,,,,,,,,,,,,,,,,,,,,,,,,,,,,2116.847666400019,None,,,,,,,,,,,,,,,,,,,,,,,,,,,,,,,,,,,,,,,,,,,,,,,,,,,,,,,,,storm,128,48,silent,new,blue,2113.858137400006,None,n,2113.858137400006,None,"['n', 'return']","[2.0204221999738365, 2.95608859998174]",2113.858137400006,None,,,13,001,2023_Feb_22_1021,ExactRep-v3-final,2021.2.3,59.95980292125099,
,,,,,,,,,,,,48,0,48,0,,,,,,,,,,,,,,,,,,,,,,,,,,,,,,,,,,,,,,,,,,,,,,,,,2119.616962000029,None,,,,,,,,,,,,,,,,,,,,,,,,,,,,,,,,,,,,,,,,,,,,,,,,,,,,,,,,,beast,15,49,sing,old,white,2117.3591293999925,None,y,2117.3591293999925,None,"['y', 'return']","[1.4311525999801233, 2.2150613999692723]",2117.3591293999925,None,,,13,001,2023_Feb_22_1021,ExactRep-v3-final,2021.2.3,59.95980292125099,
,,,,,,,,,,,,49,0,49,0,,,,,,,,,,,,,,,,,,,,,,,,,,,,,,,,,,,,,,,,,,,,,,,,,2123.9882784000365,None,,,,,,,,,,,,,,,,,,,,,,,,,,,,,,,,,,,,,,,,,,,,,,,,,,,,,,,,,stone,79,50,sing,old,white,2120.129472599947,None,n,2120.129472599947,None,"['n', 'return']","[2.6847056000260636, 3.81277949991636]",2120.129472599947,None,,,13,001,2023_Feb_22_1021,ExactRep-v3-final,2021.2.3,59.95980292125099,
,,,,,,,,,,,,50,0,50,0,,,,,,,,,,,,,,,,,,,,,,,,,,,,,,,,,,,,,,,,,,,,,,,,,2126.791224000044,None,,,,,,,,,,,,,,,,,,,,,,,,,,,,,,,,,,,,,,,,,,,,,,,,,,,,,,,,,camp,104,51,aloud,old,red,2124.4972991000395,None,y,2124.4972991000395,None,"['y', 'return']","[1.5247632999671623, 2.2529343999922276]",2124.4972991000395,None,,,13,001,2023_Feb_22_1021,ExactRep-v3-final,2021.2.3,59.95980292125099,
,,,,,,,,,,,,51,0,51,0,,,,,,,,,,,,,,,,,,,,,,,,,,,,,,,,,,,,,,,,,,,,,,,,,2132.6803327000234,None,,,,,,,,,,,,,,,,,,,,,,,,,,,,,,,,,,,,,,,,,,,,,,,,,,,,,,,,,book,84,52,aloud,old,red,2127.2964636000106,None,n,2127.2964636000106,None,"['n', 'return']","[3.8216646999353543, 5.349744400009513]",2127.2964636000106,None,,,13,001,2023_Feb_22_1021,ExactRep-v3-final,2021.2.3,59.95980292125099,
,,,,,,,,,,,,52,0,52,0,,,,,,,,,,,,,,,,,,,,,,,,,,,,,,,,,,,,,,,,,,,,,,,,,2136.3506500000367,None,,,,,,,,,,,,,,,,,,,,,,,,,,,,,,,,,,,,,,,,,,,,,,,,,,,,,,,,,event,194,53,aloud,new,red,2133.190209500026,None,n,2133.190209500026,None,"['n', 'return']","[1.8879649000009522, 3.119972200016491]",2133.190209500026,None,,,13,001,2023_Feb_22_1021,ExactRep-v3-final,2021.2.3,59.95980292125099,
,,,,,,,,,,,,53,0,53,0,,,,,,,,,,,,,,,,,,,,,,,,,,,,,,,,,,,,,,,,,,,,,,,,,2141.355740900035,None,,,,,,,,,,,,,,,,,,,,,,,,,,,,,,,,,,,,,,,,,,,,,,,,,,,,,,,,,glory,74,54,silent,old,blue,2136.8578321000095,None,n,2136.8578321000095,None,"['n', 'return']","[3.6766985000576824, 4.460277200094424]",2136.8578321000095,None,,,13,001,2023_Feb_22_1021,ExactRep-v3-final,2021.2.3,59.95980292125099,
,,,,,,,,,,,,54,0,54,0,,,,,,,,,,,,,,,,,,,,,,,,,,,,,,,,,,,,,,,,,,,,,,,,,2146.3772998000495,None,,,,,,,,,,,,,,,,,,,,,,,,,,,,,,,,,,,,,,,,,,,,,,,,,,,,,,,,,fate,52,55,silent,old,blue,2141.864379800041,None,n,2141.864379800041,None,"['n', 'return']","[3.5499155999859795, 4.477791299927048]",2141.864379800041,None,,,13,001,2023_Feb_22_1021,ExactRep-v3-final,2021.2.3,59.95980292125099,
,,,,,,,,,,,,55,0,55,0,,,,,,,,,,,,,,,,,,,,,,,,,,,,,,,,,,,,,,,,,,,,,,,,,2149.9642062999774,None,,,,,,,,,,,,,,,,,,,,,,,,,,,,,,,,,,,,,,,,,,,,,,,,,,,,,,,,,fur,165,56,sing,new,white,2146.8876162000233,None,n,2146.8876162000233,None,"['n', 'return']","[2.158553500077687, 3.0387041000649333]",2146.8876162000233,None,,,13,001,2023_Feb_22_1021,ExactRep-v3-final,2021.2.3,59.95980292125099,
,,,,,,,,,,,,56,0,56,0,,,,,,,,,,,,,,,,,,,,,,,,,,,,,,,,,,,,,,,,,,,,,,,,,2152.8837801000336,None,,,,,,,,,,,,,,,,,,,,,,,,,,,,,,,,,,,,,,,,,,,,,,,,,,,,,,,,,form,119,57,aloud,old,red,2150.471669999999,None,y,2150.471669999999,None,"['y', 'return']","[1.4225563999498263, 2.366598599939607]",2150.471669999999,None,,,13,001,2023_Feb_22_1021,ExactRep-v3-final,2021.2.3,59.95980292125099,
,,,,,,,,,,,,57,0,57,0,,,,,,,,,,,,,,,,,,,,,,,,,,,,,,,,,,,,,,,,,,,,,,,,,2157.9221690000268,None,,,,,,,,,,,,,,,,,,,,,,,,,,,,,,,,,,,,,,,,,,,,,,,,,,,,,,,,,idea,163,58,sing,new,white,2153.3979141999735,None,y,2153.3979141999735,None,"['y', 'return']","[3.224587800097652, 4.4802486000116915]",2153.3979141999735,None,,,13,001,2023_Feb_22_1021,ExactRep-v3-final,2021.2.3,59.95980292125099,
,,,,,,,,,,,,58,0,58,0,,,,,,,,,,,,,,,,,,,,,,,,,,,,,,,,,,,,,,,,,,,,,,,,,2162.0596832999727,None,,,,,,,,,,,,,,,,,,,,,,,,,,,,,,,,,,,,,,,,,,,,,,,,,,,,,,,,,fire,53,59,silent,old,blue,2158.4355204999447,None,n,2158.4355204999447,None,"['n', 'return']","[2.714753600070253, 3.5867599000921473]",2158.4355204999447,None,,,13,001,2023_Feb_22_1021,ExactRep-v3-final,2021.2.3,59.95980292125099,
,,,,,,,,,,,,59,0,59,0,,,,,,,,,,,,,,,,,,,,,,,,,,,,,,,,,,,,,,,,,,,,,,,,,2164.9458580999635,None,,,,,,,,,,,,,,,,,,,,,,,,,,,,,,,,,,,,,,,,,,,,,,,,,,,,,,,,,humour,116,60,aloud,old,red,2162.5667647999944,None,y,2162.5667647999944,None,"['y', 'return']","[1.4954121999908239, 2.335410699946806]",2162.5667647999944,None,,,13,001,2023_Feb_22_1021,ExactRep-v3-final,2021.2.3,59.95980292125099,
,,,,,,,,,,,,60,0,60,0,,,,,,,,,,,,,,,,,,,,,,,,,,,,,,,,,,,,,,,,,,,,,,,,,2168.5995825999416,None,,,,,,,,,,,,,,,,,,,,,,,,,,,,,,,,,,,,,,,,,,,,,,,,,,,,,,,,,deed,57,61,silent,old,blue,2165.4563723000465,None,n,2165.4563723000465,None,"['n', 'return']","[2.1739163000602275, 3.1100667000282556]",2165.4563723000465,None,,,13,001,2023_Feb_22_1021,ExactRep-v3-final,2021.2.3,59.95980292125099,
,,,,,,,,,,,,61,0,61,0,,,,,,,,,,,,,,,,,,,,,,,,,,,,,,,,,,,,,,,,,,,,,,,,,2174.7890563999536,None,,,,,,,,,,,,,,,,,,,,,,,,,,,,,,,,,,,,,,,,,,,,,,,,,,,,,,,,,charm,77,62,silent,old,blue,2169.1010489000473,None,n,2169.1010489000473,None,"['n', 'return']","[4.385223099961877, 5.649234800017439]",2169.1010489000473,None,,,13,001,2023_Feb_22_1021,ExactRep-v3-final,2021.2.3,59.95980292125099,
,,,,,,,,,,,,62,0,62,0,,,,,,,,,,,,,,,,,,,,,,,,,,,,,,,,,,,,,,,,,,,,,,,,,2178.042337400024,None,,,,,,,,,,,,,,,,,,,,,,,,,,,,,,,,,,,,,,,,,,,,,,,,,,,,,,,,,heaven,158,63,silent,new,blue,2175.3000149000436,None,y,2175.3000149000436,None,"['y', 'return']","[1.7544067000271752, 2.70626030000858]",2175.3000149000436,None,,,13,001,2023_Feb_22_1021,ExactRep-v3-final,2021.2.3,59.95980292125099,
,,,,,,,,,,,,63,0,63,0,,,,,,,,,,,,,,,,,,,,,,,,,,,,,,,,,,,,,,,,,,,,,,,,,2181.028822500026,None,,,,,,,,,,,,,,,,,,,,,,,,,,,,,,,,,,,,,,,,,,,,,,,,,,,,,,,,,weapon,133,64,silent,new,blue,2178.5516279999865,None,n,2178.5516279999865,None,"['n', 'return']","[1.4788160999305546, 2.430652300012298]",2178.5516279999865,None,,,13,001,2023_Feb_22_1021,ExactRep-v3-final,2021.2.3,59.95980292125099,
,,,,,,,,,,,,64,0,64,0,,,,,,,,,,,,,,,,,,,,,,,,,,,,,,,,,,,,,,,,,,,,,,,,,2184.332044700044,None,,,,,,,,,,,,,,,,,,,,,,,,,,,,,,,,,,,,,,,,,,,,,,,,,,,,,,,,,diamond,73,65,silent,old,blue,2181.5400506999576,None,n,2181.5400506999576,None,"['n', 'return']","[1.7622624000068754, 2.7542681000195444]",2181.5400506999576,None,,,13,001,2023_Feb_22_1021,ExactRep-v3-final,2021.2.3,59.95980292125099,
,,,,,,,,,,,,65,0,65,0,,,,,,,,,,,,,,,,,,,,,,,,,,,,,,,,,,,,,,,,,,,,,,,,,2188.4027803000063,None,,,,,,,,,,,,,,,,,,,,,,,,,,,,,,,,,,,,,,,,,,,,,,,,,,,,,,,,,valley,34,66,sing,old,white,2184.8389083000366,None,n,2184.8389083000366,None,"['n', 'return']","[2.6153677999973297, 3.519277000101283]",2184.8389083000366,None,,,13,001,2023_Feb_22_1021,ExactRep-v3-final,2021.2.3,59.95980292125099,
,,,,,,,,,,,,66,0,66,0,,,,,,,,,,,,,,,,,,,,,,,,,,,,,,,,,,,,,,,,,,,,,,,,,2192.289897099952,None,,,,,,,,,,,,,,,,,,,,,,,,,,,,,,,,,,,,,,,,,,,,,,,,,,,,,,,,,woods,92,67,aloud,old,red,2188.9122632000363,None,y,2188.9122632000363,None,"['y', 'return']","[2.1821480999933556, 3.3340146000264212]",2188.9122632000363,None,,,13,001,2023_Feb_22_1021,ExactRep-v3-final,2021.2.3,59.95980292125099,
,,,,,,,,,,,,67,0,67,0,,,,,,,,,,,,,,,,,,,,,,,,,,,,,,,,,,,,,,,,,,,,,,,,,2196.1604541999986,None,,,,,,,,,,,,,,,,,,,,,,,,,,,,,,,,,,,,,,,,,,,,,,,,,,,,,,,,,gift,68,68,silent,old,blue,2192.8024681999814,None,y,2192.8024681999814,None,"['y', 'return']","[2.3077891999855638, 3.323833499918692]",2192.8024681999814,None,,,13,001,2023_Feb_22_1021,ExactRep-v3-final,2021.2.3,59.95980292125099,
,,,,,,,,,,,,68,0,68,0,,,,,,,,,,,,,,,,,,,,,,,,,,,,,,,,,,,,,,,,,,,,,,,,,2199.7139829000225,None,,,,,,,,,,,,,,,,,,,,,,,,,,,,,,,,,,,,,,,,,,,,,,,,,,,,,,,,,cost,152,69,silent,new,blue,2196.6692341000307,None,n,2196.6692341000307,None,"['n', 'return']","[1.9610146000050008, 3.009031500085257]",2196.6692341000307,None,,,13,001,2023_Feb_22_1021,ExactRep-v3-final,2021.2.3,59.95980292125099,
,,,,,,,,,,,,69,0,69,0,,,,,,,,,,,,,,,,,,,,,,,,,,,,,,,,,,,,,,,,,,,,,,,,,2205.0024405999575,None,,,,,,,,,,,,,,,,,,,,,,,,,,,,,,,,,,,,,,,,,,,,,,,,,,,,,,,,,water,99,70,aloud,old,red,2200.2306031000335,None,y,2200.2306031000335,None,"['y', 'return']","[3.8076910000527278, 4.735716999974102]",2200.2306031000335,None,,,13,001,2023_Feb_22_1021,ExactRep-v3-final,2021.2.3,59.95980292125099,
,,,,,,,,,,,,70,0,70,0,,,,,,,,,,,,,,,,,,,,,,,,,,,,,,,,,,,,,,,,,,,,,,,,,2208.9897779000457,None,,,,,,,,,,,,,,,,,,,,,,,,,,,,,,,,,,,,,,,,,,,,,,,,,,,,,,,,,world,223,71,sing,new,white,2205.5113244999666,None,n,2205.5113244999666,None,"['n', 'return']","[2.4630971000296995, 3.447020999970846]",2205.5113244999666,None,,,13,001,2023_Feb_22_1021,ExactRep-v3-final,2021.2.3,59.95980292125099,
,,,,,,,,,,,,71,0,71,0,,,,,,,,,,,,,,,,,,,,,,,,,,,,,,,,,,,,,,,,,,,,,,,,,2212.243024699972,None,,,,,,,,,,,,,,,,,,,,,,,,,,,,,,,,,,,,,,,,,,,,,,,,,,,,,,,,,steam,2,72,sing,old,white,2209.503921699943,None,y,2209.503921699943,None,"['y', 'return']","[1.734438500017859, 2.6943484999937937]",2209.503921699943,None,,,13,001,2023_Feb_22_1021,ExactRep-v3-final,2021.2.3,59.95980292125099,
,,,,,,,,,,,,72,0,72,0,,,,,,,,,,,,,,,,,,,,,,,,,,,,,,,,,,,,,,,,,,,,,,,,,2216.0803779000416,None,,,,,,,,,,,,,,,,,,,,,,,,,,,,,,,,,,,,,,,,,,,,,,,,,,,,,,,,,journal,169,73,sing,new,white,2212.754499200033,None,n,2212.754499200033,None,"['n', 'return']","[1.9397425000788644, 3.283811700064689]",2212.754499200033,None,,,13,001,2023_Feb_22_1021,ExactRep-v3-final,2021.2.3,59.95980292125099,
,,,,,,,,,,,,73,0,73,0,,,,,,,,,,,,,,,,,,,,,,,,,,,,,,,,,,,,,,,,,,,,,,,,,2221.885896599968,None,,,,,,,,,,,,,,,,,,,,,,,,,,,,,,,,,,,,,,,,,,,,,,,,,,,,,,,,,truth,39,74,silent,old,blue,2216.5911032999866,None,y,2216.5911032999866,None,"['y', 'return']","[4.167232100036927, 5.255173600045964]",2216.5911032999866,None,,,13,001,2023_Feb_22_1021,ExactRep-v3-final,2021.2.3,59.95980292125099,
,,,,,,,,,,,,74,0,74,0,,,,,,,,,,,,,,,,,,,,,,,,,,,,,,,,,,,,,,,,,,,,,,,,,2225.7398561999435,None,,,,,,,,,,,,,,,,,,,,,,,,,,,,,,,,,,,,,,,,,,,,,,,,,,,,,,,,,boulder,209,75,sing,new,white,2222.4026187000563,None,n,2222.4026187000563,None,"['n', 'return']","[2.219732200028375, 3.291746799950488]",2222.4026187000563,None,,,13,001,2023_Feb_22_1021,ExactRep-v3-final,2021.2.3,59.95980292125099,
,,,,,,,,,,,,75,0,75,0,,,,,,,,,,,,,,,,,,,,,,,,,,,,,,,,,,,,,,,,,,,,,,,,,2230.3945179999573,None,,,,,,,,,,,,,,,,,,,,,,,,,,,,,,,,,,,,,,,,,,,,,,,,,,,,,,,,,boy,157,76,silent,new,blue,2226.243010699982,None,n,2226.243010699982,None,"['n', 'return']","[3.1953010999131948, 4.115468599949963]",2226.243010699982,None,,,13,001,2023_Feb_22_1021,ExactRep-v3-final,2021.2.3,59.95980292125099,
,,,,,,,,,,,,76,0,76,0,,,,,,,,,,,,,,,,,,,,,,,,,,,,,,,,,,,,,,,,,,,,,,,,,2235.7000270000426,None,,,,,,,,,,,,,,,,,,,,,,,,,,,,,,,,,,,,,,,,,,,,,,,,,,,,,,,,,corner,29,77,sing,old,white,2230.904698499944,None,n,2230.904698499944,None,"['n', 'return']","[3.64563869999256, 4.757650600047782]",2230.904698499944,None,,,13,001,2023_Feb_22_1021,ExactRep-v3-final,2021.2.3,59.95980292125099,
,,,,,,,,,,,,77,0,77,0,,,,,,,,,,,,,,,,,,,,,,,,,,,,,,,,,,,,,,,,,,,,,,,,,2238.8864612999605,None,,,,,,,,,,,,,,,,,,,,,,,,,,,,,,,,,,,,,,,,,,,,,,,,,,,,,,,,,potato,83,78,aloud,old,red,2236.2079852999886,None,y,2236.2079852999886,None,"['y', 'return']","[1.6623944999882951, 2.6383187000174075]",2236.2079852999886,None,,,13,001,2023_Feb_22_1021,ExactRep-v3-final,2021.2.3,59.95980292125099,
,,,,,,,,,,,,78,0,78,0,,,,,,,,,,,,,,,,,,,,,,,,,,,,,,,,,,,,,,,,,,,,,,,,,2242.6900508999825,None,,,,,,,,,,,,,,,,,,,,,,,,,,,,,,,,,,,,,,,,,,,,,,,,,,,,,,,,,palace,19,79,sing,old,white,2239.396671500057,None,y,2239.396671500057,None,"['y', 'return']","[2.185657999943942, 3.257666500052437]",2239.396671500057,None,,,13,001,2023_Feb_22_1021,ExactRep-v3-final,2021.2.3,59.95980292125099,
,,,,,,,,,,,,79,0,79,0,,,,,,,,,,,,,,,,,,,,,,,,,,,,,,,,,,,,,,,,,,,,,,,,,2247.12817130005,None,,,,,,,,,,,,,,,,,,,,,,,,,,,,,,,,,,,,,,,,,,,,,,,,,,,,,,,,,custom,105,80,aloud,old,red,2243.190686200047,None,y,2243.190686200047,None,"['y', 'return']","[2.8956591999158263, 3.8956757999258116]",2243.190686200047,None,,,13,001,2023_Feb_22_1021,ExactRep-v3-final,2021.2.3,59.95980292125099,
,,,,,,,,,,,,80,0,80,0,,,,,,,,,,,,,,,,,,,,,,,,,,,,,,,,,,,,,,,,,,,,,,,,,2250.5146018000087,None,,,,,,,,,,,,,,,,,,,,,,,,,,,,,,,,,,,,,,,,,,,,,,,,,,,,,,,,,love,81,81,aloud,old,red,2247.6351754999487,None,y,2247.6351754999487,None,"['y', 'return']","[1.8832921999273822, 2.8351121000014246]",2247.6351754999487,None,,,13,001,2023_Feb_22_1021,ExactRep-v3-final,2021.2.3,59.95980292125099,
,,,,,,,,,,,,81,0,81,0,,,,,,,,,,,,,,,,,,,,,,,,,,,,,,,,,,,,,,,,,,,,,,,,,2256.4540067999624,None,,,,,,,,,,,,,,,,,,,,,,,,,,,,,,,,,,,,,,,,,,,,,,,,,,,,,,,,,fault,63,82,silent,old,blue,2251.028881200007,None,n,2251.028881200007,None,"['n', 'return']","[4.449422199977562, 5.393445800058544]",2251.028881200007,None,,,13,001,2023_Feb_22_1021,ExactRep-v3-final,2021.2.3,59.95980292125099,
,,,,,,,,,,,,82,0,82,0,,,,,,,,,,,,,,,,,,,,,,,,,,,,,,,,,,,,,,,,,,,,,,,,,2260.825028100051,None,,,,,,,,,,,,,,,,,,,,,,,,,,,,,,,,,,,,,,,,,,,,,,,,,,,,,,,,,dollar,191,83,sing,new,white,2256.9622617999557,None,n,2256.9622617999557,None,"['n', 'return']","[2.7962504000170156, 3.8281331999460235]",2256.9622617999557,None,,,13,001,2023_Feb_22_1021,ExactRep-v3-final,2021.2.3,59.95980292125099,
,,,,,,,,,,,,83,0,83,0,,,,,,,,,,,,,,,,,,,,,,,,,,,,,,,,,,,,,,,,,,,,,,,,,2266.3307082999963,None,,,,,,,,,,,,,,,,,,,,,,,,,,,,,,,,,,,,,,,,,,,,,,,,,,,,,,,,,market,40,84,silent,old,blue,2261.3427507999586,None,n,2261.3427507999586,None,"['n', 'return']","[3.759603500016965, 4.94364139996469]",2261.3427507999586,None,,,13,001,2023_Feb_22_1021,ExactRep-v3-final,2021.2.3,59.95980292125099,
,,,,,,,,,,,,84,0,84,0,,,,,,,,,,,,,,,,,,,,,,,,,,,,,,,,,,,,,,,,,,,,,,,,,2271.0519318999723,None,,,,,,,,,,,,,,,,,,,,,,,,,,,,,,,,,,,,,,,,,,,,,,,,,,,,,,,,,cattle,167,85,sing,new,white,2266.837086100015,None,n,2266.837086100015,None,"['n', 'return']","[3.177292700042017, 4.1773279999615625]",2266.837086100015,None,,,13,001,2023_Feb_22_1021,ExactRep-v3-final,2021.2.3,59.95980292125099,
,,,,,,,,,,,,85,0,85,0,,,,,,,,,,,,,,,,,,,,,,,,,,,,,,,,,,,,,,,,,,,,,,,,,2278.1590317999944,None,,,,,,,,,,,,,,,,,,,,,,,,,,,,,,,,,,,,,,,,,,,,,,,,,,,,,,,,,body,103,86,aloud,old,red,2271.5649576999713,None,n,2271.5649576999713,None,"['n', 'return']","[5.513676400063559, 6.561362800071947]",2271.5649576999713,None,,,13,001,2023_Feb_22_1021,ExactRep-v3-final,2021.2.3,59.95980292125099,
,,,,,,,,,,,,86,0,86,0,,,,,,,,,,,,,,,,,,,,,,,,,,,,,,,,,,,,,,,,,,,,,,,,,2283.114066499984,None,,,,,,,,,,,,,,,,,,,,,,,,,,,,,,,,,,,,,,,,,,,,,,,,,,,,,,,,,sky,131,87,silent,new,blue,2278.666398899979,None,n,2278.666398899979,None,"['n', 'return']","[3.443948299973272, 4.404036500025541]",2278.666398899979,None,,,13,001,2023_Feb_22_1021,ExactRep-v3-final,2021.2.3,59.95980292125099,
,,,,,,,,,,,,87,0,87,0,,,,,,,,,,,,,,,,,,,,,,,,,,,,,,,,,,,,,,,,,,,,,,,,,2286.5508568000514,None,,,,,,,,,,,,,,,,,,,,,,,,,,,,,,,,,,,,,,,,,,,,,,,,,,,,,,,,,garden,228,88,aloud,new,red,2283.627854799968,None,y,2283.627854799968,None,"['y', 'return']","[1.8745865999953821, 2.8825273999245837]",2283.627854799968,None,,,13,001,2023_Feb_22_1021,ExactRep-v3-final,2021.2.3,59.95980292125099,
,,,,,,,,,,,,88,0,88,0,,,,,,,,,,,,,,,,,,,,,,,,,,,,,,,,,,,,,,,,,,,,,,,,,2290.2878275000257,None,,,,,,,,,,,,,,,,,,,,,,,,,,,,,,,,,,,,,,,,,,,,,,,,,,,,,,,,,ocean,160,89,aloud,new,red,2287.063379099942,None,y,2287.063379099942,None,"['y', 'return']","[2.2392152999527752, 3.1910325000062585]",2287.063379099942,None,,,13,001,2023_Feb_22_1021,ExactRep-v3-final,2021.2.3,59.95980292125099,
,,,,,,,,,,,,89,0,89,0,,,,,,,,,,,,,,,,,,,,,,,,,,,,,,,,,,,,,,,,,,,,,,,,,2293.5242091000546,None,,,,,,,,,,,,,,,,,,,,,,,,,,,,,,,,,,,,,,,,,,,,,,,,,,,,,,,,,troops,173,90,sing,new,white,2290.797570799943,None,n,2290.797570799943,None,"['n', 'return']","[1.7449285000329837, 2.680898500024341]",2290.797570799943,None,,,13,001,2023_Feb_22_1021,ExactRep-v3-final,2021.2.3,59.95980292125099,
,,,,,,,,,,,,90,0,90,0,,,,,,,,,,,,,,,,,,,,,,,,,,,,,,,,,,,,,,,,,,,,,,,,,2297.06145509996,None,,,,,,,,,,,,,,,,,,,,,,,,,,,,,,,,,,,,,,,,,,,,,,,,,,,,,,,,,shame,222,91,aloud,new,red,2294.028133100015,None,n,2294.028133100015,None,"['n', 'return']","[1.8262483000289649, 2.986267999978736]",2294.028133100015,None,,,13,001,2023_Feb_22_1021,ExactRep-v3-final,2021.2.3,59.95980292125099,
,,,,,,,,,,,,91,0,91,0,,,,,,,,,,,,,,,,,,,,,,,,,,,,,,,,,,,,,,,,,,,,,,,,,2300.7982125000563,None,,,,,,,,,,,,,,,,,,,,,,,,,,,,,,,,,,,,,,,,,,,,,,,,,,,,,,,,,window,26,92,sing,old,white,2297.5786427999847,None,y,2297.5786427999847,None,"['y', 'return']","[2.051949999993667, 3.1719572000438347]",2297.5786427999847,None,,,13,001,2023_Feb_22_1021,ExactRep-v3-final,2021.2.3,59.95980292125099,
,,,,,,,,,,,,92,0,92,0,,,,,,,,,,,,,,,,,,,,,,,,,,,,,,,,,,,,,,,,,,,,,,,,,2304.3186455999967,None,,,,,,,,,,,,,,,,,,,,,,,,,,,,,,,,,,,,,,,,,,,,,,,,,,,,,,,,,corn,220,93,aloud,new,red,2301.3058141999645,None,n,2301.3058141999645,None,"['n', 'return']","[1.9886210999684408, 2.972561900038272]",2301.3058141999645,None,,,13,001,2023_Feb_22_1021,ExactRep-v3-final,2021.2.3,59.95980292125099,
,,,,,,,,,,,,93,0,93,0,,,,,,,,,,,,,,,,,,,,,,,,,,,,,,,,,,,,,,,,,,,,,,,,,2310.1411823000526,None,,,,,,,,,,,,,,,,,,,,,,,,,,,,,,,,,,,,,,,,,,,,,,,,,,,,,,,,,bottle,13,94,sing,old,white,2304.822059200029,None,n,2304.822059200029,None,"['n', 'return']","[4.312479199958034, 5.280249600065872]",2304.822059200029,None,,,13,001,2023_Feb_22_1021,ExactRep-v3-final,2021.2.3,59.95980292125099,
,,,,,,,,,,,,94,0,94,0,,,,,,,,,,,,,,,,,,,,,,,,,,,,,,,,,,,,,,,,,,,,,,,,,2313.911381999962,None,,,,,,,,,,,,,,,,,,,,,,,,,,,,,,,,,,,,,,,,,,,,,,,,,,,,,,,,,dress,114,95,aloud,old,red,2310.6505695000524,None,y,2310.6505695000524,None,"['y', 'return']","[2.1397481999592856, 3.2197113999864087]",2310.6505695000524,None,,,13,001,2023_Feb_22_1021,ExactRep-v3-final,2021.2.3,59.95980292125099,
,,,,,,,,,,,,95,0,95,0,,,,,,,,,,,,,,,,,,,,,,,,,,,,,,,,,,,,,,,,,,,,,,,,,2319.283607200021,None,,,,,,,,,,,,,,,,,,,,,,,,,,,,,,,,,,,,,,,,,,,,,,,,,,,,,,,,,gold,142,96,silent,new,blue,2314.419814600027,None,n,2314.419814600027,None,"['n', 'return']","[3.4428363000042737, 4.8265804999973625]",2314.419814600027,None,,,13,001,2023_Feb_22_1021,ExactRep-v3-final,2021.2.3,59.95980292125099,
,,,,,,,,,,,,96,0,96,0,,,,,,,,,,,,,,,,,,,,,,,,,,,,,,,,,,,,,,,,,,,,,,,,,2324.0548343999544,None,,,,,,,,,,,,,,,,,,,,,,,,,,,,,,,,,,,,,,,,,,,,,,,,,,,,,,,,,salary,215,97,sing,new,white,2319.791878900025,None,n,2319.791878900025,None,"['n', 'return']","[3.1346394000574946, 4.222562500042841]",2319.791878900025,None,,,13,001,2023_Feb_22_1021,ExactRep-v3-final,2021.2.3,59.95980292125099,
,,,,,,,,,,,,97,0,97,0,,,,,,,,,,,,,,,,,,,,,,,,,,,,,,,,,,,,,,,,,,,,,,,,,2327.174768100027,None,,,,,,,,,,,,,,,,,,,,,,,,,,,,,,,,,,,,,,,,,,,,,,,,,,,,,,,,,doctor,27,98,sing,old,white,2324.558816200006,None,n,2324.558816200006,None,"['n', 'return']","[1.7039152000797912, 2.583749599987641]",2324.558816200006,None,,,13,001,2023_Feb_22_1021,ExactRep-v3-final,2021.2.3,59.95980292125099,
,,,,,,,,,,,,98,0,98,0,,,,,,,,,,,,,,,,,,,,,,,,,,,,,,,,,,,,,,,,,,,,,,,,,2331.879348400049,None,,,,,,,,,,,,,,,,,,,,,,,,,,,,,,,,,,,,,,,,,,,,,,,,,,,,,,,,,string,235,99,sing,new,white,2327.684695899952,None,n,2327.684695899952,None,"['n', 'return']","[3.0256595000391826, 4.153722499962896]",2327.684695899952,None,,,13,001,2023_Feb_22_1021,ExactRep-v3-final,2021.2.3,59.95980292125099,
,,,,,,,,,,,,99,0,99,0,,,,,,,,,,,,,,,,,,,,,,,,,,,,,,,,,,,,,,,,,,,,,,,,,2336.75103699998,None,,,,,,,,,,,,,,,,,,,,,,,,,,,,,,,,,,,,,,,,,,,,,,,,,,,,,,,,,hall,151,100,silent,new,blue,2332.388444900047,None,n,2332.388444900047,None,"['n', 'return']","[3.3061606000410393, 4.32993260002695]",2332.388444900047,None,,,13,001,2023_Feb_22_1021,ExactRep-v3-final,2021.2.3,59.95980292125099,
,,,,,,,,,,,,100,0,100,0,,,,,,,,,,,,,,,,,,,,,,,,,,,,,,,,,,,,,,,,,,,,,,,,,2340.4380430999445,None,,,,,,,,,,,,,,,,,,,,,,,,,,,,,,,,,,,,,,,,,,,,,,,,,,,,,,,,,letter,17,101,sing,old,white,2337.2607575999573,None,y,2337.2607575999573,None,"['y', 'return']","[2.185688399942592, 3.1376779000274837]",2337.2607575999573,None,,,13,001,2023_Feb_22_1021,ExactRep-v3-final,2021.2.3,59.95980292125099,
,,,,,,,,,,,,101,0,101,0,,,,,,,,,,,,,,,,,,,,,,,,,,,,,,,,,,,,,,,,,,,,,,,,,2345.125883999979,None,,,,,,,,,,,,,,,,,,,,,,,,,,,,,,,,,,,,,,,,,,,,,,,,,,,,,,,,,length,54,102,silent,old,blue,2340.9419207000174,None,n,2340.9419207000174,None,"['n', 'return']","[3.1125719000119716, 4.136404299992137]",2340.9419207000174,None,,,13,001,2023_Feb_22_1021,ExactRep-v3-final,2021.2.3,59.95980292125099,
,,,,,,,,,,,,102,0,102,0,,,,,,,,,,,,,,,,,,,,,,,,,,,,,,,,,,,,,,,,,,,,,,,,,2348.329290100024,None,,,,,,,,,,,,,,,,,,,,,,,,,,,,,,,,,,,,,,,,,,,,,,,,,,,,,,,,,pole,115,103,aloud,old,red,2345.6403819000116,None,y,2345.6403819000116,None,"['y', 'return']","[1.6941089000320062, 2.6541352999629453]",2345.6403819000116,None,,,13,001,2023_Feb_22_1021,ExactRep-v3-final,2021.2.3,59.95980292125099,
,,,,,,,,,,,,103,0,103,0,,,,,,,,,,,,,,,,,,,,,,,,,,,,,,,,,,,,,,,,,,,,,,,,,2353.200883100042,None,,,,,,,,,,,,,,,,,,,,,,,,,,,,,,,,,,,,,,,,,,,,,,,,,,,,,,,,,product,182,104,aloud,new,red,2348.839287400013,None,n,2348.839287400013,None,"['n', 'return']","[2.7353468999499455, 4.319150999886915]",2348.839287400013,None,,,13,001,2023_Feb_22_1021,ExactRep-v3-final,2021.2.3,59.95980292125099,
,,,,,,,,,,,,104,0,104,0,,,,,,,,,,,,,,,,,,,,,,,,,,,,,,,,,,,,,,,,,,,,,,,,,2358.506062899949,None,,,,,,,,,,,,,,,,,,,,,,,,,,,,,,,,,,,,,,,,,,,,,,,,,,,,,,,,,cottage,100,105,aloud,old,red,2353.710626099957,None,y,2353.710626099957,None,"['y', 'return']","[3.7598706000717357, 4.760083300061524]",2353.710626099957,None,,,13,001,2023_Feb_22_1021,ExactRep-v3-final,2021.2.3,59.95980292125099,
,,,,,,,,,,,,105,0,105,0,,,,,,,,,,,,,,,,,,,,,,,,,,,,,,,,,,,,,,,,,,,,,,,,,2361.8425979999593,None,,,,,,,,,,,,,,,,,,,,,,,,,,,,,,,,,,,,,,,,,,,,,,,,,,,,,,,,,pupil,170,106,aloud,new,red,2359.0246846999507,None,n,2359.0246846999507,None,"['n', 'return']","[1.8540588000323623, 2.7817520000971854]",2359.0246846999507,None,,,13,001,2023_Feb_22_1021,ExactRep-v3-final,2021.2.3,59.95980292125099,
,,,,,,,,,,,,106,0,106,0,,,,,,,,,,,,,,,,,,,,,,,,,,,,,,,,,,,,,,,,,,,,,,,,,2365.4963891999796,None,,,,,,,,,,,,,,,,,,,,,,,,,,,,,,,,,,,,,,,,,,,,,,,,,,,,,,,,,skin,172,107,aloud,new,red,2362.3505024999613,None,y,2362.3505024999613,None,"['y', 'return']","[2.136097599985078, 3.103977599996142]",2362.3505024999613,None,,,13,001,2023_Feb_22_1021,ExactRep-v3-final,2021.2.3,59.95980292125099,
,,,,,,,,,,,,107,0,107,0,,,,,,,,,,,,,,,,,,,,,,,,,,,,,,,,,,,,,,,,,,,,,,,,,2368.966620399966,None,,,,,,,,,,,,,,,,,,,,,,,,,,,,,,,,,,,,,,,,,,,,,,,,,,,,,,,,,method,21,108,sing,old,white,2366.006024900009,None,n,2366.006024900009,None,"['n', 'return']","[2.1285876999609172, 2.9204087000107393]",2366.006024900009,None,,,13,001,2023_Feb_22_1021,ExactRep-v3-final,2021.2.3,59.95980292125099,
,,,,,,,,,,,,108,0,108,0,,,,,,,,,,,,,,,,,,,,,,,,,,,,,,,,,,,,,,,,,,,,,,,,,2373.938224100042,None,,,,,,,,,,,,,,,,,,,,,,,,,,,,,,,,,,,,,,,,,,,,,,,,,,,,,,,,,doll,205,109,sing,new,white,2369.4686555999797,None,n,2369.4686555999797,None,"['n', 'return']","[3.4660486999200657, 4.425831699976698]",2369.4686555999797,None,,,13,001,2023_Feb_22_1021,ExactRep-v3-final,2021.2.3,59.95980292125099,
,,,,,,,,,,,,109,0,109,0,,,,,,,,,,,,,,,,,,,,,,,,,,,,,,,,,,,,,,,,,,,,,,,,,2380.611470600008,None,,,,,,,,,,,,,,,,,,,,,,,,,,,,,,,,,,,,,,,,,,,,,,,,,,,,,,,,,party,225,110,sing,new,white,2374.4407766000368,None,n,2374.4407766000368,None,"['n', 'return']","[5.04589309997391, 6.125706600025296]",2374.4407766000368,None,,,13,001,2023_Feb_22_1021,ExactRep-v3-final,2021.2.3,59.95980292125099,
,,,,,,,,,,,,110,0,110,0,,,,,,,,,,,,,,,,,,,,,,,,,,,,,,,,,,,,,,,,,,,,,,,,,2383.9982836999698,None,,,,,,,,,,,,,,,,,,,,,,,,,,,,,,,,,,,,,,,,,,,,,,,,,,,,,,,,,judge,166,111,aloud,new,red,2381.1228216999443,None,y,2381.1228216999443,None,"['y', 'return']","[1.8678595999954268, 2.843626099987887]",2381.1228216999443,None,,,13,001,2023_Feb_22_1021,ExactRep-v3-final,2021.2.3,59.95980292125099,
,,,,,,,,,,,,111,0,111,0,,,,,,,,,,,,,,,,,,,,,,,,,,,,,,,,,,,,,,,,,,,,,,,,,2387.818691099994,None,,,,,,,,,,,,,,,,,,,,,,,,,,,,,,,,,,,,,,,,,,,,,,,,,,,,,,,,,moral,214,112,aloud,new,red,2384.506994599942,None,n,2384.506994599942,None,"['n', 'return']","[2.2354533000616357, 3.2756209999788553]",2384.506994599942,None,,,13,001,2023_Feb_22_1021,ExactRep-v3-final,2021.2.3,59.95980292125099,
,,,,,,,,,,,,112,0,112,0,,,,,,,,,,,,,,,,,,,,,,,,,,,,,,,,,,,,,,,,,,,,,,,,,2392.22309460002,None,,,,,,,,,,,,,,,,,,,,,,,,,,,,,,,,,,,,,,,,,,,,,,,,,,,,,,,,,butter,8,113,sing,old,white,2388.3287694000173,None,n,2388.3287694000173,None,"['n', 'return']","[2.733784200041555, 3.8537775001022965]",2388.3287694000173,None,,,13,001,2023_Feb_22_1021,ExactRep-v3-final,2021.2.3,59.95980292125099,
,,,,,,,,,,,,113,0,113,0,,,,,,,,,,,,,,,,,,,,,,,,,,,,,,,,,,,,,,,,,,,,,,,,,2396.544079300016,None,,,,,,,,,,,,,,,,,,,,,,,,,,,,,,,,,,,,,,,,,,,,,,,,,,,,,,,,,river,112,114,aloud,old,red,2392.7274829000235,None,y,2392.7274829000235,None,"['y', 'return']","[2.279277399997227, 3.782954699941911]",2392.7274829000235,None,,,13,001,2023_Feb_22_1021,ExactRep-v3-final,2021.2.3,59.95980292125099,
,,,,,,,,,,,,114,0,114,0,,,,,,,,,,,,,,,,,,,,,,,,,,,,,,,,,,,,,,,,,,,,,,,,,2399.830880400026,None,,,,,,,,,,,,,,,,,,,,,,,,,,,,,,,,,,,,,,,,,,,,,,,,,,,,,,,,,wife,144,115,silent,new,blue,2397.0545782999834,None,n,2397.0545782999834,None,"['n', 'return']","[1.8239677000092342, 2.7359454999677837]",2397.0545782999834,None,,,13,001,2023_Feb_22_1021,ExactRep-v3-final,2021.2.3,59.95980292125099,
,,,,,,,,,,,,115,0,115,0,,,,,,,,,,,,,,,,,,,,,,,,,,,,,,,,,,,,,,,,,,,,,,,,,2403.017249400029,None,,,,,,,,,,,,,,,,,,,,,,,,,,,,,,,,,,,,,,,,,,,,,,,,,,,,,,,,,poet,56,116,silent,old,blue,2400.3407693000045,None,y,2400.3407693000045,None,"['y', 'return']","[1.7699372000060976, 2.633746900013648]",2400.3407693000045,None,,,13,001,2023_Feb_22_1021,ExactRep-v3-final,2021.2.3,59.95980292125099,
,,,,,,,,,,,,116,0,116,0,,,,,,,,,,,,,,,,,,,,,,,,,,,,,,,,,,,,,,,,,,,,,,,,,2407.705501700053,None,,,,,,,,,,,,,,,,,,,,,,,,,,,,,,,,,,,,,,,,,,,,,,,,,,,,,,,,,justice,18,117,sing,old,white,2403.5263448000187,None,y,2403.5263448000187,None,"['y', 'return']","[3.1284584999084473, 4.136145500000566]",2403.5263448000187,None,,,13,001,2023_Feb_22_1021,ExactRep-v3-final,2021.2.3,59.95980292125099,
,,,,,,,,,,,,117,0,117,0,,,,,,,,,,,,,,,,,,,,,,,,,,,,,,,,,,,,,,,,,,,,,,,,,2410.958620700054,None,,,,,,,,,,,,,,,,,,,,,,,,,,,,,,,,,,,,,,,,,,,,,,,,,,,,,,,,,city,181,118,sing,new,white,2408.210108899977,None,n,2408.210108899977,None,"['n', 'return']","[1.7166568000102416, 2.7084340000292286]",2408.210108899977,None,,,13,001,2023_Feb_22_1021,ExactRep-v3-final,2021.2.3,59.95980292125099,
,,,,,,,,,,,,118,0,118,0,,,,,,,,,,,,,,,,,,,,,,,,,,,,,,,,,,,,,,,,,,,,,,,,,2416.0322540999623,None,,,,,,,,,,,,,,,,,,,,,,,,,,,,,,,,,,,,,,,,,,,,,,,,,,,,,,,,,bowl,145,119,silent,new,blue,2411.4713701000437,None,y,2411.4713701000437,None,"['y', 'return']","[3.535105900024064, 4.527137199998833]",2411.4713701000437,None,,,13,001,2023_Feb_22_1021,ExactRep-v3-final,2021.2.3,59.95980292125099,
,,,,,,,,,,,,119,0,119,0,,,,,,,,,,,,,,,,,,,,,,,,,,,,,,,,,,,,,,,,,,,,,,,,,2419.757409999962,None,,,,,,,,,,,,,,,,,,,,,,,,,,,,,,,,,,,,,,,,,,,,,,,,,,,,,,,,,metal,189,120,sing,new,white,2416.557739699958,None,y,2416.557739699958,None,"['y', 'return']","[2.048825200065039, 3.1448008000152186]",2416.557739699958,None,,,13,001,2023_Feb_22_1021,ExactRep-v3-final,2021.2.3,59.95980292125099,
,,,,,,,,,,,,120,0,120,0,,,,,,,,,,,,,,,,,,,,,,,,,,,,,,,,,,,,,,,,,,,,,,,,,2424.088291699998,None,,,,,,,,,,,,,,,,,,,,,,,,,,,,,,,,,,,,,,,,,,,,,,,,,,,,,,,,,mother,143,121,silent,new,blue,2420.2770879999734,None,y,2420.2770879999734,None,"['y', 'return']","[2.841681699967012, 3.769410900073126]",2420.2770879999734,None,,,13,001,2023_Feb_22_1021,ExactRep-v3-final,2021.2.3,59.95980292125099,
,,,,,,,,,,,,121,0,121,0,,,,,,,,,,,,,,,,,,,,,,,,,,,,,,,,,,,,,,,,,,,,,,,,,2427.3583109000465,None,,,,,,,,,,,,,,,,,,,,,,,,,,,,,,,,,,,,,,,,,,,,,,,,,,,,,,,,,shoes,71,122,silent,old,blue,2424.602740800008,None,n,2424.602740800008,None,"['n', 'return']","[1.6997896000975743, 2.7159475000808015]",2424.602740800008,None,,,13,001,2023_Feb_22_1021,ExactRep-v3-final,2021.2.3,59.95980292125099,
,,,,,,,,,,,,122,0,122,0,,,,,,,,,,,,,,,,,,,,,,,,,,,,,,,,,,,,,,,,,,,,,,,,,2432.2464821999893,None,,,,,,,,,,,,,,,,,,,,,,,,,,,,,,,,,,,,,,,,,,,,,,,,,,,,,,,,,victory,141,123,silent,new,blue,2427.871399100055,None,y,2427.871399100055,None,"['y', 'return']","[3.30318220006302, 4.335158100002445]",2427.871399100055,None,,,13,001,2023_Feb_22_1021,ExactRep-v3-final,2021.2.3,59.95980292125099,
,,,,,,,,,,,,123,0,123,0,,,,,,,,,,,,,,,,,,,,,,,,,,,,,,,,,,,,,,,,,,,,,,,,,2436.08354719996,None,,,,,,,,,,,,,,,,,,,,,,,,,,,,,,,,,,,,,,,,,,,,,,,,,,,,,,,,,library,120,124,silent,new,blue,2432.7594178,None,n,2432.7594178,None,"['n', 'return']","[2.3032259999308735, 3.278974499902688]",2432.7594178,None,,,13,001,2023_Feb_22_1021,ExactRep-v3-final,2021.2.3,59.95980292125099,
,,,,,,,,,,,,124,0,124,0,,,,,,,,,,,,,,,,,,,,,,,,,,,,,,,,,,,,,,,,,,,,,,,,,2442.056282100035,None,,,,,,,,,,,,,,,,,,,,,,,,,,,,,,,,,,,,,,,,,,,,,,,,,,,,,,,,,village,174,125,aloud,new,red,2436.600288799964,None,n,2436.600288799964,None,"['n', 'return']","[4.374391500023194, 5.4221693999134]",2436.600288799964,None,,,13,001,2023_Feb_22_1021,ExactRep-v3-final,2021.2.3,59.95980292125099,
,,,,,,,,,,,,125,0,125,0,,,,,,,,,,,,,,,,,,,,,,,,,,,,,,,,,,,,,,,,,,,,,,,,,2447.862105999957,None,,,,,,,,,,,,,,,,,,,,,,,,,,,,,,,,,,,,,,,,,,,,,,,,,,,,,,,,,coin,36,126,sing,old,white,2442.5567206999986,None,y,2442.5567206999986,None,"['y', 'return']","[3.6740399999544024, 5.257836499949917]",2442.5567206999986,None,,,13,001,2023_Feb_22_1021,ExactRep-v3-final,2021.2.3,59.95980292125099,
,,,,,,,,,,,,126,0,126,0,,,,,,,,,,,,,,,,,,,,,,,,,,,,,,,,,,,,,,,,,,,,,,,,,2451.749362600036,None,,,,,,,,,,,,,,,,,,,,,,,,,,,,,,,,,,,,,,,,,,,,,,,,,,,,,,,,,animal,200,127,aloud,new,red,2448.374574000016,None,n,2448.374574000016,None,"['n', 'return']","[2.1199177000671625, 3.335977900074795]",2448.374574000016,None,,,13,001,2023_Feb_22_1021,ExactRep-v3-final,2021.2.3,59.95980292125099,
,,,,,,,,,,,,127,0,127,0,,,,,,,,,,,,,,,,,,,,,,,,,,,,,,,,,,,,,,,,,,,,,,,,,2457.5719807000132,None,,,,,,,,,,,,,,,,,,,,,,,,,,,,,,,,,,,,,,,,,,,,,,,,,,,,,,,,,moment,211,128,sing,new,white,2452.2578516999492,None,n,2452.2578516999492,None,"['n', 'return']","[4.172660700045526, 5.26872990000993]",2452.2578516999492,None,,,13,001,2023_Feb_22_1021,ExactRep-v3-final,2021.2.3,59.95980292125099,
,,,,,,,,,,,,128,0,128,0,,,,,,,,,,,,,,,,,,,,,,,,,,,,,,,,,,,,,,,,,,,,,,,,,2463.8280494000064,None,,,,,,,,,,,,,,,,,,,,,,,,,,,,,,,,,,,,,,,,,,,,,,,,,,,,,,,,,person,109,129,aloud,old,red,2458.08138540003,None,n,2458.08138540003,None,"['n', 'return']","[4.717312900000252, 5.709237299975939]",2458.08138540003,None,,,13,001,2023_Feb_22_1021,ExactRep-v3-final,2021.2.3,59.95980292125099,
,,,,,,,,,,,,129,0,129,0,,,,,,,,,,,,,,,,,,,,,,,,,,,,,,,,,,,,,,,,,,,,,,,,,2468.3327136000153,None,,,,,,,,,,,,,,,,,,,,,,,,,,,,,,,,,,,,,,,,,,,,,,,,,,,,,,,,,lake,212,130,aloud,new,red,2464.3370056999847,None,n,2464.3370056999847,None,"['n', 'return']","[3.0298644999274984, 3.9496221999870613]",2464.3370056999847,None,,,13,001,2023_Feb_22_1021,ExactRep-v3-final,2021.2.3,59.95980292125099,
,,,,,,,,,,,,130,0,130,0,,,,,,,,,,,,,,,,,,,,,,,,,,,,,,,,,,,,,,,,,,,,,,,,,2473.6378274000017,None,,,,,,,,,,,,,,,,,,,,,,,,,,,,,,,,,,,,,,,,,,,,,,,,,,,,,,,,,shadow,219,131,sing,new,white,2468.8432474000147,None,n,2468.8432474000147,None,"['n', 'return']","[3.795297000091523, 4.75535089999903]",2468.8432474000147,None,,,13,001,2023_Feb_22_1021,ExactRep-v3-final,2021.2.3,59.95980292125099,
,,,,,,,,,,,,131,0,131,0,,,,,,,,,,,,,,,,,,,,,,,,,,,,,,,,,,,,,,,,,,,,,,,,,2479.977595699951,None,,,,,,,,,,,,,,,,,,,,,,,,,,,,,,,,,,,,,,,,,,,,,,,,,,,,,,,,,style,150,132,silent,new,blue,2474.139266700018,None,n,2474.139266700018,None,"['n', 'return']","[4.739398500067182, 5.7952920000534505]",2474.139266700018,None,,,13,001,2023_Feb_22_1021,ExactRep-v3-final,2021.2.3,59.95980292125099,
