trials_fam.thisRepN,trials_fam.thisTrialN,trials_fam.thisN,trials_fam.thisIndex,trials_prc.thisRepN,trials_prc.thisTrialN,trials_prc.thisN,trials_prc.thisIndex,StudyLoop.thisRepN,StudyLoop.thisTrialN,StudyLoop.thisN,StudyLoop.thisIndex,TestLoop.thisRepN,TestLoop.thisTrialN,TestLoop.thisN,TestLoop.thisIndex,text_colortest.started,text_colortest.stopped,key_colortest.keys,key_colortest.rt,key_colortest.started,key_colortest.stopped,textCondition.started,textCondition.stopped,keyCondition.keys,keyCondition.rt,keyCondition.started,keyCondition.stopped,Condition_between,Condition_counterbal,keyWelcome.keys,keyWelcome.rt,keyWelcome.started,keyWelcome.stopped,welcome_a.started,welcome_a.stopped,welcome_b.started,welcome_b.stopped,welcome_c.started,welcome_c.stopped,welcome_d.started,welcome_d.stopped,welcome_e.started,welcome_e.stopped,welcome_f.started,welcome_f.stopped,key_resp_fam_inst.keys,key_resp_fam_inst.rt,key_resp_fam_inst.started,key_resp_fam_inst.stopped,fam_a.started,fam_a.stopped,fam_b.started,fam_b.stopped,fam_c.started,fam_c.stopped,fam_d.started,fam_d.stopped,fam_e.started,fam_e.stopped,fam_f.started,fam_f.stopped,text_famil.started,text_famil.stopped,textBlank500.started,textBlank500.stopped,key_resp_prc_inst.keys,key_resp_prc_inst.rt,key_resp_prc_inst.started,key_resp_prc_inst.stopped,prac_a.started,prac_a.stopped,prac_b.started,prac_b.stopped,prac_c.started,prac_c.stopped,prac_d.started,prac_d.stopped,prac_e.started,prac_e.stopped,prac_f.started,prac_f.stopped,text_prc_trial.started,text_prc_trial.stopped,key_resp_study_inst.keys,key_resp_study_inst.rt,key_resp_study_inst.started,key_resp_study_inst.stopped,crit_a.started,crit_a.stopped,crit_b.started,crit_b.stopped,crit_c.started,crit_c.stopped,crit_d.started,crit_d.stopped,crit_e.started,crit_e.stopped,crit_f.started,crit_f.stopped,study_word,study_num,study_order,study_type,word_color,textStudy.started,textStudy.stopped,keyStudy.keys,keyStudy.started,keyStudy.stopped,post_study.started,post_study.stopped,key_resp_post_study.keys,key_resp_post_study.rt,key_resp_post_study.started,key_resp_post_study.stopped,test_inst.started,test_inst.stopped,key_resp_test_inst.keys,key_resp_test_inst.rt,key_resp_test_inst.started,key_resp_test_inst.stopped,test_word,test_num,test_order,test_condition,old_new_test,word_color_test,textConf.started,textConf.stopped,Participant Response,textInput.started,textInput.stopped,keyResp.keys,keyResp.rt,keyResp.started,keyResp.stopped,textEnd.started,textEnd.stopped,participant,session,date,expName,psychopyVersion,frameRate,
,,,,,,,,,,,,,,,,15.866613499820232,None,y,0.38242020015604794,15.866613499820232,None,,,,,,,,,,,,,,,,,,,,,,,,,,,,,,,,,,,,,,,,,,,,,,,,,,,,,,,,,,,,,,,,,,,,,,,,,,,,,,,,,,,,,,,,,,,,,,,,,,,,,,,,,,,,,,,,,,,,,,14,001,2023_Feb_27_1320,ExactRep-v3-final,2021.2.3,59.8840047059231,
,,,,,,,,,,,,,,,,,,,,,,16.282607599860057,None,b,1.1501672000158578,16.282607599860057,None,,,,,,,,,,,,,,,,,,,,,,,,,,,,,,,,,,,,,,,,,,,,,,,,,,,,,,,,,,,,,,,,,,,,,,,,,,,,,,,,,,,,,,,,,,,,,,,,,,,,,,,,,,,,,,,,14,001,2023_Feb_27_1320,ExactRep-v3-final,2021.2.3,59.8840047059231,
,,,,,,,,,,,,,,,,,,,,,,,,,,,,colorfoils,b,space,549.543788400013,27.617765799863264,None,,,,,,,,,,,,,,,,,,,,,,,,,,,,,,,,,,,,,,,,,,,,,,,,,,,,,,,,,,,,,,,,,,,,,,,,,,,,,,,,,,,,,,,,,,,,,,,,,,,,,,,,,,14,001,2023_Feb_27_1320,ExactRep-v3-final,2021.2.3,59.8840047059231,
,,,,,,,,,,,,,,,,,,,,,,,,,,,,,,,,,,17.65622439980507,None,17.65622439980507,None,17.65622439980507,None,17.65622439980507,None,17.65622439980507,None,17.65622439980507,None,space,16.739863099996,587.2779182000086,None,,,,,,,,,,,,,,,,,,,,,,,,,,,,,,,,,,,,,,,,,,,,,,,,,,,,,,,,,,,,,,,,,,,,,,,,,,,,,,,,,,,,,,,,,,14,001,2023_Feb_27_1320,ExactRep-v3-final,2021.2.3,59.8840047059231,
0,0,0,0,,,,,,,,,,,,,,,,,,,,,,,,,,,,,,,,,,,,,,,,,,,,,,,577.3074262998998,None,577.3074262998998,None,577.3074262998998,None,577.3074262998998,None,577.3074262998998,None,577.3074262998998,None,604.1010042999405,None,606.1054428999778,None,,,,,,,,,,,,,,,,,,,,,,,,,,,,,,,,,,,,,,,,,,,,,,,,,,,,,,,,,,,,,,,,,,,,,,,,,,14,001,2023_Feb_27_1320,ExactRep-v3-final,2021.2.3,59.8840047059231,
1,0,1,0,,,,,,,,,,,,,,,,,,,,,,,,,,,,,,,,,,,,,,,,,,,,,,,,,,,,,,,,,,,606.6236755999271,None,608.6248244999442,None,,,,,,,,,,,,,,,,,,,,,,,,,,,,,,,,,,,,,,,,,,,,,,,,,,,,,,,,,,,,,,,,,,,,,,,,,,14,001,2023_Feb_27_1320,ExactRep-v3-final,2021.2.3,59.8840047059231,
2,0,2,0,,,,,,,,,,,,,,,,,,,,,,,,,,,,,,,,,,,,,,,,,,,,,,,,,,,,,,,,,,,609.1335038000252,None,611.1437968998216,None,,,,,,,,,,,,,,,,,,,,,,,,,,,,,,,,,,,,,,,,,,,,,,,,,,,,,,,,,,,,,,,,,,,,,,,,,,14,001,2023_Feb_27_1320,ExactRep-v3-final,2021.2.3,59.8840047059231,
3,0,3,0,,,,,,,,,,,,,,,,,,,,,,,,,,,,,,,,,,,,,,,,,,,,,,,,,,,,,,,,,,,611.6443452998064,None,613.6462862000335,None,,,,,,,,,,,,,,,,,,,,,,,,,,,,,,,,,,,,,,,,,,,,,,,,,,,,,,,,,,,,,,,,,,,,,,,,,,14,001,2023_Feb_27_1320,ExactRep-v3-final,2021.2.3,59.8840047059231,
4,0,4,0,,,,,,,,,,,,,,,,,,,,,,,,,,,,,,,,,,,,,,,,,,,,,,,,,,,,,,,,,,,614.1480992999859,None,616.1490191998892,None,,,,,,,,,,,,,,,,,,,,,,,,,,,,,,,,,,,,,,,,,,,,,,,,,,,,,,,,,,,,,,,,,,,,,,,,,,14,001,2023_Feb_27_1320,ExactRep-v3-final,2021.2.3,59.8840047059231,
5,0,5,0,,,,,,,,,,,,,,,,,,,,,,,,,,,,,,,,,,,,,,,,,,,,,,,,,,,,,,,,,,,616.6493418999016,None,618.6510067998897,None,,,,,,,,,,,,,,,,,,,,,,,,,,,,,,,,,,,,,,,,,,,,,,,,,,,,,,,,,,,,,,,,,,,,,,,,,,14,001,2023_Feb_27_1320,ExactRep-v3-final,2021.2.3,59.8840047059231,
6,0,6,0,,,,,,,,,,,,,,,,,,,,,,,,,,,,,,,,,,,,,,,,,,,,,,,,,,,,,,,,,,,619.1601911999751,None,621.1705101998523,None,,,,,,,,,,,,,,,,,,,,,,,,,,,,,,,,,,,,,,,,,,,,,,,,,,,,,,,,,,,,,,,,,,,,,,,,,,14,001,2023_Feb_27_1320,ExactRep-v3-final,2021.2.3,59.8840047059231,
7,0,7,0,,,,,,,,,,,,,,,,,,,,,,,,,,,,,,,,,,,,,,,,,,,,,,,,,,,,,,,,,,,621.6708864998072,None,623.6729886999819,None,,,,,,,,,,,,,,,,,,,,,,,,,,,,,,,,,,,,,,,,,,,,,,,,,,,,,,,,,,,,,,,,,,,,,,,,,,14,001,2023_Feb_27_1320,ExactRep-v3-final,2021.2.3,59.8840047059231,
8,0,8,0,,,,,,,,,,,,,,,,,,,,,,,,,,,,,,,,,,,,,,,,,,,,,,,,,,,,,,,,,,,624.1735369998496,None,626.1755291998852,None,,,,,,,,,,,,,,,,,,,,,,,,,,,,,,,,,,,,,,,,,,,,,,,,,,,,,,,,,,,,,,,,,,,,,,,,,,14,001,2023_Feb_27_1320,ExactRep-v3-final,2021.2.3,59.8840047059231,
9,0,9,0,,,,,,,,,,,,,,,,,,,,,,,,,,,,,,,,,,,,,,,,,,,,,,,,,,,,,,,,,,,626.6765540998895,None,628.6780761999544,None,,,,,,,,,,,,,,,,,,,,,,,,,,,,,,,,,,,,,,,,,,,,,,,,,,,,,,,,,,,,,,,,,,,,,,,,,,14,001,2023_Feb_27_1320,ExactRep-v3-final,2021.2.3,59.8840047059231,
10,0,10,0,,,,,,,,,,,,,,,,,,,,,,,,,,,,,,,,,,,,,,,,,,,,,,,,,,,,,,,,,,,629.1791774998419,None,631.1803373999428,None,,,,,,,,,,,,,,,,,,,,,,,,,,,,,,,,,,,,,,,,,,,,,,,,,,,,,,,,,,,,,,,,,,,,,,,,,,14,001,2023_Feb_27_1320,ExactRep-v3-final,2021.2.3,59.8840047059231,
11,0,11,0,,,,,,,,,,,,,,,,,,,,,,,,,,,,,,,,,,,,,,,,,,,,,,,,,,,,,,,,,,,631.680830599973,None,633.6830661999993,None,,,,,,,,,,,,,,,,,,,,,,,,,,,,,,,,,,,,,,,,,,,,,,,,,,,,,,,,,,,,,,,,,,,,,,,,,,14,001,2023_Feb_27_1320,ExactRep-v3-final,2021.2.3,59.8840047059231,
12,0,12,0,,,,,,,,,,,,,,,,,,,,,,,,,,,,,,,,,,,,,,,,,,,,,,,,,,,,,,,,,,,634.186663699802,None,636.2022426999174,None,,,,,,,,,,,,,,,,,,,,,,,,,,,,,,,,,,,,,,,,,,,,,,,,,,,,,,,,,,,,,,,,,,,,,,,,,,14,001,2023_Feb_27_1320,ExactRep-v3-final,2021.2.3,59.8840047059231,
13,0,13,0,,,,,,,,,,,,,,,,,,,,,,,,,,,,,,,,,,,,,,,,,,,,,,,,,,,,,,,,,,,636.7027145000175,None,638.7048629999626,None,,,,,,,,,,,,,,,,,,,,,,,,,,,,,,,,,,,,,,,,,,,,,,,,,,,,,,,,,,,,,,,,,,,,,,,,,,14,001,2023_Feb_27_1320,ExactRep-v3-final,2021.2.3,59.8840047059231,
14,0,14,0,,,,,,,,,,,,,,,,,,,,,,,,,,,,,,,,,,,,,,,,,,,,,,,,,,,,,,,,,,,639.2053739000112,None,641.207187499851,None,,,,,,,,,,,,,,,,,,,,,,,,,,,,,,,,,,,,,,,,,,,,,,,,,,,,,,,,,,,,,,,,,,,,,,,,,,14,001,2023_Feb_27_1320,ExactRep-v3-final,2021.2.3,59.8840047059231,
,,,,,,,,,,,,,,,,,,,,,,,,,,,,,,,,,,,,,,,,,,,,,,,,,,,,,,,,,,,,,,,,,,space,19.80349100008607,651.8218665998429,None,,,,,,,,,,,,,,,,,,,,,,,,,,,,,,,,,,,,,,,,,,,,,,,,,,,,,,,,,,,,,,,,,,,,,,14,001,2023_Feb_27_1320,ExactRep-v3-final,2021.2.3,59.8840047059231,
,,,,0,0,0,0,,,,,,,,,,,,,,,,,,,,,,,,,,,,,,,,,,,,,,,,,,,,,,,,,,,,,,,,,673.7064020999242,None,,,,,641.8573030999396,None,641.8573030999396,None,641.8573030999396,None,641.8573030999396,None,641.8573030999396,None,641.8573030999396,None,671.7028297998477,None,,,,,,,,,,,,,,,,,,,,,,,,,,,,,,,,,,,,,,,,,,,,,,,,,,,,,,,,14,001,2023_Feb_27_1320,ExactRep-v3-final,2021.2.3,59.8840047059231,
,,,,1,0,1,0,,,,,,,,,,,,,,,,,,,,,,,,,,,,,,,,,,,,,,,,,,,,,,,,,,,,,,,,,676.2089341999963,None,,,,,,,,,,,,,,,,,674.2067110999487,None,,,,,,,,,,,,,,,,,,,,,,,,,,,,,,,,,,,,,,,,,,,,,,,,,,,,,,,,14,001,2023_Feb_27_1320,ExactRep-v3-final,2021.2.3,59.8840047059231,
,,,,2,0,2,0,,,,,,,,,,,,,,,,,,,,,,,,,,,,,,,,,,,,,,,,,,,,,,,,,,,,,,,,,678.7113808998838,None,,,,,,,,,,,,,,,,,676.7094037998468,None,,,,,,,,,,,,,,,,,,,,,,,,,,,,,,,,,,,,,,,,,,,,,,,,,,,,,,,,14,001,2023_Feb_27_1320,ExactRep-v3-final,2021.2.3,59.8840047059231,
,,,,3,0,3,0,,,,,,,,,,,,,,,,,,,,,,,,,,,,,,,,,,,,,,,,,,,,,,,,,,,,,,,,,681.2138561999891,None,,,,,,,,,,,,,,,,,679.2117784000002,None,,,,,,,,,,,,,,,,,,,,,,,,,,,,,,,,,,,,,,,,,,,,,,,,,,,,,,,,14,001,2023_Feb_27_1320,ExactRep-v3-final,2021.2.3,59.8840047059231,
,,,,4,0,4,0,,,,,,,,,,,,,,,,,,,,,,,,,,,,,,,,,,,,,,,,,,,,,,,,,,,,,,,,,683.7164985998534,None,,,,,,,,,,,,,,,,,681.7144227998797,None,,,,,,,,,,,,,,,,,,,,,,,,,,,,,,,,,,,,,,,,,,,,,,,,,,,,,,,,14,001,2023_Feb_27_1320,ExactRep-v3-final,2021.2.3,59.8840047059231,
,,,,5,0,5,0,,,,,,,,,,,,,,,,,,,,,,,,,,,,,,,,,,,,,,,,,,,,,,,,,,,,,,,,,686.2189292998519,None,,,,,,,,,,,,,,,,,684.2169093999546,None,,,,,,,,,,,,,,,,,,,,,,,,,,,,,,,,,,,,,,,,,,,,,,,,,,,,,,,,14,001,2023_Feb_27_1320,ExactRep-v3-final,2021.2.3,59.8840047059231,
,,,,6,0,6,0,,,,,,,,,,,,,,,,,,,,,,,,,,,,,,,,,,,,,,,,,,,,,,,,,,,,,,,,,688.721321299905,None,,,,,,,,,,,,,,,,,686.7194306999445,None,,,,,,,,,,,,,,,,,,,,,,,,,,,,,,,,,,,,,,,,,,,,,,,,,,,,,,,,14,001,2023_Feb_27_1320,ExactRep-v3-final,2021.2.3,59.8840047059231,
,,,,7,0,7,0,,,,,,,,,,,,,,,,,,,,,,,,,,,,,,,,,,,,,,,,,,,,,,,,,,,,,,,,,691.223925099941,None,,,,,,,,,,,,,,,,,689.2219444999937,None,,,,,,,,,,,,,,,,,,,,,,,,,,,,,,,,,,,,,,,,,,,,,,,,,,,,,,,,14,001,2023_Feb_27_1320,ExactRep-v3-final,2021.2.3,59.8840047059231,
,,,,8,0,8,0,,,,,,,,,,,,,,,,,,,,,,,,,,,,,,,,,,,,,,,,,,,,,,,,,,,,,,,,,693.7264314999338,None,,,,,,,,,,,,,,,,,691.7244265000336,None,,,,,,,,,,,,,,,,,,,,,,,,,,,,,,,,,,,,,,,,,,,,,,,,,,,,,,,,14,001,2023_Feb_27_1320,ExactRep-v3-final,2021.2.3,59.8840047059231,
,,,,9,0,9,0,,,,,,,,,,,,,,,,,,,,,,,,,,,,,,,,,,,,,,,,,,,,,,,,,,,,,,,,,696.2292900998145,None,,,,,,,,,,,,,,,,,694.2269285998773,None,,,,,,,,,,,,,,,,,,,,,,,,,,,,,,,,,,,,,,,,,,,,,,,,,,,,,,,,14,001,2023_Feb_27_1320,ExactRep-v3-final,2021.2.3,59.8840047059231,
,,,,10,0,10,0,,,,,,,,,,,,,,,,,,,,,,,,,,,,,,,,,,,,,,,,,,,,,,,,,,,,,,,,,698.7314287999179,None,,,,,,,,,,,,,,,,,696.729428099934,None,,,,,,,,,,,,,,,,,,,,,,,,,,,,,,,,,,,,,,,,,,,,,,,,,,,,,,,,14,001,2023_Feb_27_1320,ExactRep-v3-final,2021.2.3,59.8840047059231,
,,,,11,0,11,0,,,,,,,,,,,,,,,,,,,,,,,,,,,,,,,,,,,,,,,,,,,,,,,,,,,,,,,,,701.233773799846,None,,,,,,,,,,,,,,,,,699.2319285999984,None,,,,,,,,,,,,,,,,,,,,,,,,,,,,,,,,,,,,,,,,,,,,,,,,,,,,,,,,14,001,2023_Feb_27_1320,ExactRep-v3-final,2021.2.3,59.8840047059231,
,,,,12,0,12,0,,,,,,,,,,,,,,,,,,,,,,,,,,,,,,,,,,,,,,,,,,,,,,,,,,,,,,,,,703.7364560998976,None,,,,,,,,,,,,,,,,,701.7346288999543,None,,,,,,,,,,,,,,,,,,,,,,,,,,,,,,,,,,,,,,,,,,,,,,,,,,,,,,,,14,001,2023_Feb_27_1320,ExactRep-v3-final,2021.2.3,59.8840047059231,
,,,,13,0,13,0,,,,,,,,,,,,,,,,,,,,,,,,,,,,,,,,,,,,,,,,,,,,,,,,,,,,,,,,,706.2389479000121,None,,,,,,,,,,,,,,,,,704.2369597998913,None,,,,,,,,,,,,,,,,,,,,,,,,,,,,,,,,,,,,,,,,,,,,,,,,,,,,,,,,14,001,2023_Feb_27_1320,ExactRep-v3-final,2021.2.3,59.8840047059231,
,,,,14,0,14,0,,,,,,,,,,,,,,,,,,,,,,,,,,,,,,,,,,,,,,,,,,,,,,,,,,,,,,,,,708.741402399959,None,,,,,,,,,,,,,,,,,706.7394572999328,None,,,,,,,,,,,,,,,,,,,,,,,,,,,,,,,,,,,,,,,,,,,,,,,,,,,,,,,,14,001,2023_Feb_27_1320,ExactRep-v3-final,2021.2.3,59.8840047059231,
,,,,,,,,,,,,,,,,,,,,,,,,,,,,,,,,,,,,,,,,,,,,,,,,,,,,,,,,,,,,,,,,,,,,,,,,,,,,,,,,,,,,space,24.047329199966043,719.3540975998621,None,,,,,,,,,,,,,,,,,,,,,,,,,,,,,,,,,,,,,,,,,,,,,,,,,,,,14,001,2023_Feb_27_1320,ExactRep-v3-final,2021.2.3,59.8840047059231,
,,,,,,,,0,0,0,0,,,,,,,,,,,,,,,,,,,,,,,,,,,,,,,,,,,,,,,,,,,,,,,,,,,,,745.5280222999863,None,,,,,,,,,,,,,,,,,,,,,,,709.397048200015,None,709.397048200015,None,709.397048200015,None,709.397048200015,None,709.397048200015,None,709.397048200015,None,square,12,1,sing,blue,743.5195718000177,None,None,743.5195718000177,None,,,,,,,,,,,,,,,,,,,,,,,,,,,,,,14,001,2023_Feb_27_1320,ExactRep-v3-final,2021.2.3,59.8840047059231,
,,,,,,,,1,0,1,0,,,,,,,,,,,,,,,,,,,,,,,,,,,,,,,,,,,,,,,,,,,,,,,,,,,,,748.0473557999358,None,,,,,,,,,,,,,,,,,,,,,,,,,,,,,,,,,,,brain,111,2,aloud,red,746.0368238999508,None,None,746.0368238999508,None,,,,,,,,,,,,,,,,,,,,,,,,,,,,,,14,001,2023_Feb_27_1320,ExactRep-v3-final,2021.2.3,59.8840047059231,
,,,,,,,,2,0,2,0,,,,,,,,,,,,,,,,,,,,,,,,,,,,,,,,,,,,,,,,,,,,,,,,,,,,,750.5662444999907,None,,,,,,,,,,,,,,,,,,,,,,,,,,,,,,,,,,,church,109,3,aloud,red,748.553964199964,None,None,748.553964199964,None,,,,,,,,,,,,,,,,,,,,,,,,,,,,,,14,001,2023_Feb_27_1320,ExactRep-v3-final,2021.2.3,59.8840047059231,
,,,,,,,,3,0,3,0,,,,,,,,,,,,,,,,,,,,,,,,,,,,,,,,,,,,,,,,,,,,,,,,,,,,,753.0690697999671,None,,,,,,,,,,,,,,,,,,,,,,,,,,,,,,,,,,,fur,63,4,silent,white,751.0692359998357,None,None,751.0692359998357,None,,,,,,,,,,,,,,,,,,,,,,,,,,,,,,14,001,2023_Feb_27_1320,ExactRep-v3-final,2021.2.3,59.8840047059231,
,,,,,,,,4,0,4,0,,,,,,,,,,,,,,,,,,,,,,,,,,,,,,,,,,,,,,,,,,,,,,,,,,,,,755.5880691998173,None,,,,,,,,,,,,,,,,,,,,,,,,,,,,,,,,,,,valley,104,5,aloud,red,753.5845286999829,None,None,753.5845286999829,None,,,,,,,,,,,,,,,,,,,,,,,,,,,,,,14,001,2023_Feb_27_1320,ExactRep-v3-final,2021.2.3,59.8840047059231,
,,,,,,,,5,0,5,0,,,,,,,,,,,,,,,,,,,,,,,,,,,,,,,,,,,,,,,,,,,,,,,,,,,,,758.0907862000167,None,,,,,,,,,,,,,,,,,,,,,,,,,,,,,,,,,,,fault,42,6,silent,white,756.089550799923,None,None,756.089550799923,None,,,,,,,,,,,,,,,,,,,,,,,,,,,,,,14,001,2023_Feb_27_1320,ExactRep-v3-final,2021.2.3,59.8840047059231,
,,,,,,,,6,0,6,0,,,,,,,,,,,,,,,,,,,,,,,,,,,,,,,,,,,,,,,,,,,,,,,,,,,,,760.6099868000019,None,,,,,,,,,,,,,,,,,,,,,,,,,,,,,,,,,,,temple,107,7,aloud,red,758.6000425999518,None,None,758.6000425999518,None,,,,,,,,,,,,,,,,,,,,,,,,,,,,,,14,001,2023_Feb_27_1320,ExactRep-v3-final,2021.2.3,59.8840047059231,
,,,,,,,,7,0,7,0,,,,,,,,,,,,,,,,,,,,,,,,,,,,,,,,,,,,,,,,,,,,,,,,,,,,,763.128964799922,None,,,,,,,,,,,,,,,,,,,,,,,,,,,,,,,,,,,winter,53,8,silent,white,761.1138083999977,None,None,761.1138083999977,None,,,,,,,,,,,,,,,,,,,,,,,,,,,,,,14,001,2023_Feb_27_1320,ExactRep-v3-final,2021.2.3,59.8840047059231,
,,,,,,,,8,0,8,0,,,,,,,,,,,,,,,,,,,,,,,,,,,,,,,,,,,,,,,,,,,,,,,,,,,,,765.6481792000122,None,,,,,,,,,,,,,,,,,,,,,,,,,,,,,,,,,,,master,37,9,sing,blue,763.6359953999054,None,None,763.6359953999054,None,,,,,,,,,,,,,,,,,,,,,,,,,,,,,,14,001,2023_Feb_27_1320,ExactRep-v3-final,2021.2.3,59.8840047059231,
,,,,,,,,9,0,9,0,,,,,,,,,,,,,,,,,,,,,,,,,,,,,,,,,,,,,,,,,,,,,,,,,,,,,768.1673473999836,None,,,,,,,,,,,,,,,,,,,,,,,,,,,,,,,,,,,plant,81,10,aloud,red,766.1549384999089,None,None,766.1549384999089,None,,,,,,,,,,,,,,,,,,,,,,,,,,,,,,14,001,2023_Feb_27_1320,ExactRep-v3-final,2021.2.3,59.8840047059231,
,,,,,,,,10,0,10,0,,,,,,,,,,,,,,,,,,,,,,,,,,,,,,,,,,,,,,,,,,,,,,,,,,,,,770.6700681999791,None,,,,,,,,,,,,,,,,,,,,,,,,,,,,,,,,,,,victory,75,11,silent,white,768.6688947998919,None,None,768.6688947998919,None,,,,,,,,,,,,,,,,,,,,,,,,,,,,,,14,001,2023_Feb_27_1320,ExactRep-v3-final,2021.2.3,59.8840047059231,
,,,,,,,,11,0,11,0,,,,,,,,,,,,,,,,,,,,,,,,,,,,,,,,,,,,,,,,,,,,,,,,,,,,,773.1723733998369,None,,,,,,,,,,,,,,,,,,,,,,,,,,,,,,,,,,,grass,30,12,sing,blue,771.1725874999538,None,None,771.1725874999538,None,,,,,,,,,,,,,,,,,,,,,,,,,,,,,,14,001,2023_Feb_27_1320,ExactRep-v3-final,2021.2.3,59.8840047059231,
,,,,,,,,12,0,12,0,,,,,,,,,,,,,,,,,,,,,,,,,,,,,,,,,,,,,,,,,,,,,,,,,,,,,775.675192499999,None,,,,,,,,,,,,,,,,,,,,,,,,,,,,,,,,,,,tool,34,13,sing,blue,773.6746735000052,None,None,773.6746735000052,None,,,,,,,,,,,,,,,,,,,,,,,,,,,,,,14,001,2023_Feb_27_1320,ExactRep-v3-final,2021.2.3,59.8840047059231,
,,,,,,,,13,0,13,0,,,,,,,,,,,,,,,,,,,,,,,,,,,,,,,,,,,,,,,,,,,,,,,,,,,,,778.1775223999284,None,,,,,,,,,,,,,,,,,,,,,,,,,,,,,,,,,,,nail,113,14,aloud,red,776.1770167998038,None,None,776.1770167998038,None,,,,,,,,,,,,,,,,,,,,,,,,,,,,,,14,001,2023_Feb_27_1320,ExactRep-v3-final,2021.2.3,59.8840047059231,
,,,,,,,,14,0,14,0,,,,,,,,,,,,,,,,,,,,,,,,,,,,,,,,,,,,,,,,,,,,,,,,,,,,,780.6967283999547,None,,,,,,,,,,,,,,,,,,,,,,,,,,,,,,,,,,,hour,56,15,silent,white,778.6874100000132,None,None,778.6874100000132,None,,,,,,,,,,,,,,,,,,,,,,,,,,,,,,14,001,2023_Feb_27_1320,ExactRep-v3-final,2021.2.3,59.8840047059231,
,,,,,,,,15,0,15,0,,,,,,,,,,,,,,,,,,,,,,,,,,,,,,,,,,,,,,,,,,,,,,,,,,,,,783.1992771998048,None,,,,,,,,,,,,,,,,,,,,,,,,,,,,,,,,,,,artist,112,16,aloud,red,781.1992028998211,None,None,781.1992028998211,None,,,,,,,,,,,,,,,,,,,,,,,,,,,,,,14,001,2023_Feb_27_1320,ExactRep-v3-final,2021.2.3,59.8840047059231,
,,,,,,,,16,0,16,0,,,,,,,,,,,,,,,,,,,,,,,,,,,,,,,,,,,,,,,,,,,,,,,,,,,,,785.7120162998326,None,,,,,,,,,,,,,,,,,,,,,,,,,,,,,,,,,,,flood,10,17,sing,blue,783.7026384000201,None,None,783.7026384000201,None,,,,,,,,,,,,,,,,,,,,,,,,,,,,,,14,001,2023_Feb_27_1320,ExactRep-v3-final,2021.2.3,59.8840047059231,
,,,,,,,,17,0,17,0,,,,,,,,,,,,,,,,,,,,,,,,,,,,,,,,,,,,,,,,,,,,,,,,,,,,,788.220882399939,None,,,,,,,,,,,,,,,,,,,,,,,,,,,,,,,,,,,coin,78,18,silent,white,786.2189099998213,None,None,786.2189099998213,None,,,,,,,,,,,,,,,,,,,,,,,,,,,,,,14,001,2023_Feb_27_1320,ExactRep-v3-final,2021.2.3,59.8840047059231,
,,,,,,,,18,0,18,0,,,,,,,,,,,,,,,,,,,,,,,,,,,,,,,,,,,,,,,,,,,,,,,,,,,,,790.7233847999014,None,,,,,,,,,,,,,,,,,,,,,,,,,,,,,,,,,,,friend,17,19,sing,blue,788.7224604999647,None,None,788.7224604999647,None,,,,,,,,,,,,,,,,,,,,,,,,,,,,,,14,001,2023_Feb_27_1320,ExactRep-v3-final,2021.2.3,59.8840047059231,
,,,,,,,,19,0,19,0,,,,,,,,,,,,,,,,,,,,,,,,,,,,,,,,,,,,,,,,,,,,,,,,,,,,,793.2259259999264,None,,,,,,,,,,,,,,,,,,,,,,,,,,,,,,,,,,,silence,92,20,aloud,red,791.2258621000219,None,None,791.2258621000219,None,,,,,,,,,,,,,,,,,,,,,,,,,,,,,,14,001,2023_Feb_27_1320,ExactRep-v3-final,2021.2.3,59.8840047059231,
,,,,,,,,20,0,20,0,,,,,,,,,,,,,,,,,,,,,,,,,,,,,,,,,,,,,,,,,,,,,,,,,,,,,795.7285001999699,None,,,,,,,,,,,,,,,,,,,,,,,,,,,,,,,,,,,freedom,2,21,sing,blue,793.7290620999411,None,None,793.7290620999411,None,,,,,,,,,,,,,,,,,,,,,,,,,,,,,,14,001,2023_Feb_27_1320,ExactRep-v3-final,2021.2.3,59.8840047059231,
,,,,,,,,21,0,21,0,,,,,,,,,,,,,,,,,,,,,,,,,,,,,,,,,,,,,,,,,,,,,,,,,,,,,798.2309269998223,None,,,,,,,,,,,,,,,,,,,,,,,,,,,,,,,,,,,moment,9,22,sing,blue,796.2295338998083,None,None,796.2295338998083,None,,,,,,,,,,,,,,,,,,,,,,,,,,,,,,14,001,2023_Feb_27_1320,ExactRep-v3-final,2021.2.3,59.8840047059231,
,,,,,,,,22,0,22,0,,,,,,,,,,,,,,,,,,,,,,,,,,,,,,,,,,,,,,,,,,,,,,,,,,,,,800.7332032998092,None,,,,,,,,,,,,,,,,,,,,,,,,,,,,,,,,,,,present,106,23,aloud,red,798.7327755999286,None,None,798.7327755999286,None,,,,,,,,,,,,,,,,,,,,,,,,,,,,,,14,001,2023_Feb_27_1320,ExactRep-v3-final,2021.2.3,59.8840047059231,
,,,,,,,,23,0,23,0,,,,,,,,,,,,,,,,,,,,,,,,,,,,,,,,,,,,,,,,,,,,,,,,,,,,,803.235911199823,None,,,,,,,,,,,,,,,,,,,,,,,,,,,,,,,,,,,heaven,4,24,sing,blue,801.2342087000143,None,None,801.2342087000143,None,,,,,,,,,,,,,,,,,,,,,,,,,,,,,,14,001,2023_Feb_27_1320,ExactRep-v3-final,2021.2.3,59.8840047059231,
,,,,,,,,24,0,24,0,,,,,,,,,,,,,,,,,,,,,,,,,,,,,,,,,,,,,,,,,,,,,,,,,,,,,805.7552328999154,None,,,,,,,,,,,,,,,,,,,,,,,,,,,,,,,,,,,time,77,25,silent,white,803.7399006998166,None,None,803.7399006998166,None,,,,,,,,,,,,,,,,,,,,,,,,,,,,,,14,001,2023_Feb_27_1320,ExactRep-v3-final,2021.2.3,59.8840047059231,
,,,,,,,,25,0,25,0,,,,,,,,,,,,,,,,,,,,,,,,,,,,,,,,,,,,,,,,,,,,,,,,,,,,,808.2741864998825,None,,,,,,,,,,,,,,,,,,,,,,,,,,,,,,,,,,,stone,33,26,sing,blue,806.2624831998255,None,None,806.2624831998255,None,,,,,,,,,,,,,,,,,,,,,,,,,,,,,,14,001,2023_Feb_27_1320,ExactRep-v3-final,2021.2.3,59.8840047059231,
,,,,,,,,26,0,26,0,,,,,,,,,,,,,,,,,,,,,,,,,,,,,,,,,,,,,,,,,,,,,,,,,,,,,810.7768170998897,None,,,,,,,,,,,,,,,,,,,,,,,,,,,,,,,,,,,anger,72,27,silent,white,808.7763365998399,None,None,808.7763365998399,None,,,,,,,,,,,,,,,,,,,,,,,,,,,,,,14,001,2023_Feb_27_1320,ExactRep-v3-final,2021.2.3,59.8840047059231,
,,,,,,,,27,0,27,0,,,,,,,,,,,,,,,,,,,,,,,,,,,,,,,,,,,,,,,,,,,,,,,,,,,,,813.279312199913,None,,,,,,,,,,,,,,,,,,,,,,,,,,,,,,,,,,,gold,29,28,sing,blue,811.2795436999295,None,None,811.2795436999295,None,,,,,,,,,,,,,,,,,,,,,,,,,,,,,,14,001,2023_Feb_27_1320,ExactRep-v3-final,2021.2.3,59.8840047059231,
,,,,,,,,28,0,28,0,,,,,,,,,,,,,,,,,,,,,,,,,,,,,,,,,,,,,,,,,,,,,,,,,,,,,815.7818125998601,None,,,,,,,,,,,,,,,,,,,,,,,,,,,,,,,,,,,priest,3,29,sing,blue,813.7827798998915,None,None,813.7827798998915,None,,,,,,,,,,,,,,,,,,,,,,,,,,,,,,14,001,2023_Feb_27_1320,ExactRep-v3-final,2021.2.3,59.8840047059231,
,,,,,,,,29,0,29,0,,,,,,,,,,,,,,,,,,,,,,,,,,,,,,,,,,,,,,,,,,,,,,,,,,,,,818.3009881000035,None,,,,,,,,,,,,,,,,,,,,,,,,,,,,,,,,,,,door,45,30,silent,white,816.2904236000031,None,None,816.2904236000031,None,,,,,,,,,,,,,,,,,,,,,,,,,,,,,,14,001,2023_Feb_27_1320,ExactRep-v3-final,2021.2.3,59.8840047059231,
,,,,,,,,30,0,30,0,,,,,,,,,,,,,,,,,,,,,,,,,,,,,,,,,,,,,,,,,,,,,,,,,,,,,820.8034886999521,None,,,,,,,,,,,,,,,,,,,,,,,,,,,,,,,,,,,metal,57,31,silent,white,818.8014910998754,None,None,818.8014910998754,None,,,,,,,,,,,,,,,,,,,,,,,,,,,,,,14,001,2023_Feb_27_1320,ExactRep-v3-final,2021.2.3,59.8840047059231,
,,,,,,,,31,0,31,0,,,,,,,,,,,,,,,,,,,,,,,,,,,,,,,,,,,,,,,,,,,,,,,,,,,,,823.3060115999542,None,,,,,,,,,,,,,,,,,,,,,,,,,,,,,,,,,,,palace,117,32,aloud,red,821.304158099927,None,None,821.304158099927,None,,,,,,,,,,,,,,,,,,,,,,,,,,,,,,14,001,2023_Feb_27_1320,ExactRep-v3-final,2021.2.3,59.8840047059231,
,,,,,,,,32,0,32,0,,,,,,,,,,,,,,,,,,,,,,,,,,,,,,,,,,,,,,,,,,,,,,,,,,,,,825.8085284999106,None,,,,,,,,,,,,,,,,,,,,,,,,,,,,,,,,,,,sea,94,33,aloud,red,823.8082373999059,None,None,823.8082373999059,None,,,,,,,,,,,,,,,,,,,,,,,,,,,,,,14,001,2023_Feb_27_1320,ExactRep-v3-final,2021.2.3,59.8840047059231,
,,,,,,,,33,0,33,0,,,,,,,,,,,,,,,,,,,,,,,,,,,,,,,,,,,,,,,,,,,,,,,,,,,,,828.3276862998027,None,,,,,,,,,,,,,,,,,,,,,,,,,,,,,,,,,,,murder,60,34,silent,white,826.3122637998313,None,None,826.3122637998313,None,,,,,,,,,,,,,,,,,,,,,,,,,,,,,,14,001,2023_Feb_27_1320,ExactRep-v3-final,2021.2.3,59.8840047059231,
,,,,,,,,34,0,34,0,,,,,,,,,,,,,,,,,,,,,,,,,,,,,,,,,,,,,,,,,,,,,,,,,,,,,830.8301503998227,None,,,,,,,,,,,,,,,,,,,,,,,,,,,,,,,,,,,mind,23,35,sing,blue,828.8282126998529,None,None,828.8282126998529,None,,,,,,,,,,,,,,,,,,,,,,,,,,,,,,14,001,2023_Feb_27_1320,ExactRep-v3-final,2021.2.3,59.8840047059231,
,,,,,,,,35,0,35,0,,,,,,,,,,,,,,,,,,,,,,,,,,,,,,,,,,,,,,,,,,,,,,,,,,,,,833.3494031999726,None,,,,,,,,,,,,,,,,,,,,,,,,,,,,,,,,,,,memory,119,36,aloud,red,831.3348493999802,None,None,831.3348493999802,None,,,,,,,,,,,,,,,,,,,,,,,,,,,,,,14,001,2023_Feb_27_1320,ExactRep-v3-final,2021.2.3,59.8840047059231,
,,,,,,,,36,0,36,0,,,,,,,,,,,,,,,,,,,,,,,,,,,,,,,,,,,,,,,,,,,,,,,,,,,,,835.8518511999864,None,,,,,,,,,,,,,,,,,,,,,,,,,,,,,,,,,,,board,52,37,silent,white,833.8509231000207,None,None,833.8509231000207,None,,,,,,,,,,,,,,,,,,,,,,,,,,,,,,14,001,2023_Feb_27_1320,ExactRep-v3-final,2021.2.3,59.8840047059231,
,,,,,,,,37,0,37,0,,,,,,,,,,,,,,,,,,,,,,,,,,,,,,,,,,,,,,,,,,,,,,,,,,,,,838.3543527999427,None,,,,,,,,,,,,,,,,,,,,,,,,,,,,,,,,,,,poet,6,38,sing,blue,836.3538385999855,None,None,836.3538385999855,None,,,,,,,,,,,,,,,,,,,,,,,,,,,,,,14,001,2023_Feb_27_1320,ExactRep-v3-final,2021.2.3,59.8840047059231,
,,,,,,,,38,0,38,0,,,,,,,,,,,,,,,,,,,,,,,,,,,,,,,,,,,,,,,,,,,,,,,,,,,,,840.8567406998482,None,,,,,,,,,,,,,,,,,,,,,,,,,,,,,,,,,,,child,20,39,sing,blue,838.8560178999323,None,None,838.8560178999323,None,,,,,,,,,,,,,,,,,,,,,,,,,,,,,,14,001,2023_Feb_27_1320,ExactRep-v3-final,2021.2.3,59.8840047059231,
,,,,,,,,39,0,39,0,,,,,,,,,,,,,,,,,,,,,,,,,,,,,,,,,,,,,,,,,,,,,,,,,,,,,843.3591650999151,None,,,,,,,,,,,,,,,,,,,,,,,,,,,,,,,,,,,bowl,49,40,silent,white,841.3573793999385,None,None,841.3573793999385,None,,,,,,,,,,,,,,,,,,,,,,,,,,,,,,14,001,2023_Feb_27_1320,ExactRep-v3-final,2021.2.3,59.8840047059231,
,,,,,,,,40,0,40,0,,,,,,,,,,,,,,,,,,,,,,,,,,,,,,,,,,,,,,,,,,,,,,,,,,,,,845.8617734999862,None,,,,,,,,,,,,,,,,,,,,,,,,,,,,,,,,,,,horse,97,41,aloud,red,843.8598346998915,None,None,843.8598346998915,None,,,,,,,,,,,,,,,,,,,,,,,,,,,,,,14,001,2023_Feb_27_1320,ExactRep-v3-final,2021.2.3,59.8840047059231,
,,,,,,,,41,0,41,0,,,,,,,,,,,,,,,,,,,,,,,,,,,,,,,,,,,,,,,,,,,,,,,,,,,,,848.3810496998485,None,,,,,,,,,,,,,,,,,,,,,,,,,,,,,,,,,,,fortune,108,42,aloud,red,846.3695722999983,None,None,846.3695722999983,None,,,,,,,,,,,,,,,,,,,,,,,,,,,,,,14,001,2023_Feb_27_1320,ExactRep-v3-final,2021.2.3,59.8840047059231,
,,,,,,,,42,0,42,0,,,,,,,,,,,,,,,,,,,,,,,,,,,,,,,,,,,,,,,,,,,,,,,,,,,,,850.8837037999183,None,,,,,,,,,,,,,,,,,,,,,,,,,,,,,,,,,,,rock,116,43,aloud,red,848.8815495998133,None,None,848.8815495998133,None,,,,,,,,,,,,,,,,,,,,,,,,,,,,,,14,001,2023_Feb_27_1320,ExactRep-v3-final,2021.2.3,59.8840047059231,
,,,,,,,,43,0,43,0,,,,,,,,,,,,,,,,,,,,,,,,,,,,,,,,,,,,,,,,,,,,,,,,,,,,,853.4027670000214,None,,,,,,,,,,,,,,,,,,,,,,,,,,,,,,,,,,,blossom,28,44,sing,blue,851.3925876999274,None,None,851.3925876999274,None,,,,,,,,,,,,,,,,,,,,,,,,,,,,,,14,001,2023_Feb_27_1320,ExactRep-v3-final,2021.2.3,59.8840047059231,
,,,,,,,,44,0,44,0,,,,,,,,,,,,,,,,,,,,,,,,,,,,,,,,,,,,,,,,,,,,,,,,,,,,,855.9052937999368,None,,,,,,,,,,,,,,,,,,,,,,,,,,,,,,,,,,,season,76,45,silent,white,853.9057140999939,None,None,853.9057140999939,None,,,,,,,,,,,,,,,,,,,,,,,,,,,,,,14,001,2023_Feb_27_1320,ExactRep-v3-final,2021.2.3,59.8840047059231,
,,,,,,,,45,0,45,0,,,,,,,,,,,,,,,,,,,,,,,,,,,,,,,,,,,,,,,,,,,,,,,,,,,,,858.4082211998757,None,,,,,,,,,,,,,,,,,,,,,,,,,,,,,,,,,,,boy,65,46,silent,white,856.4078857998829,None,None,856.4078857998829,None,,,,,,,,,,,,,,,,,,,,,,,,,,,,,,14,001,2023_Feb_27_1320,ExactRep-v3-final,2021.2.3,59.8840047059231,
,,,,,,,,46,0,46,0,,,,,,,,,,,,,,,,,,,,,,,,,,,,,,,,,,,,,,,,,,,,,,,,,,,,,860.9099339998793,None,,,,,,,,,,,,,,,,,,,,,,,,,,,,,,,,,,,opinion,93,47,aloud,red,858.9098920999095,None,None,858.9098920999095,None,,,,,,,,,,,,,,,,,,,,,,,,,,,,,,14,001,2023_Feb_27_1320,ExactRep-v3-final,2021.2.3,59.8840047059231,
,,,,,,,,47,0,47,0,,,,,,,,,,,,,,,,,,,,,,,,,,,,,,,,,,,,,,,,,,,,,,,,,,,,,863.4295190998819,None,,,,,,,,,,,,,,,,,,,,,,,,,,,,,,,,,,,corner,84,48,aloud,red,861.4185307999142,None,None,861.4185307999142,None,,,,,,,,,,,,,,,,,,,,,,,,,,,,,,14,001,2023_Feb_27_1320,ExactRep-v3-final,2021.2.3,59.8840047059231,
,,,,,,,,48,0,48,0,,,,,,,,,,,,,,,,,,,,,,,,,,,,,,,,,,,,,,,,,,,,,,,,,,,,,865.9486361998133,None,,,,,,,,,,,,,,,,,,,,,,,,,,,,,,,,,,,answer,62,49,silent,white,863.9347488998901,None,None,863.9347488998901,None,,,,,,,,,,,,,,,,,,,,,,,,,,,,,,14,001,2023_Feb_27_1320,ExactRep-v3-final,2021.2.3,59.8840047059231,
,,,,,,,,49,0,49,0,,,,,,,,,,,,,,,,,,,,,,,,,,,,,,,,,,,,,,,,,,,,,,,,,,,,,868.4510512999259,None,,,,,,,,,,,,,,,,,,,,,,,,,,,,,,,,,,,plain,32,50,sing,blue,866.4489690000191,None,None,866.4489690000191,None,,,,,,,,,,,,,,,,,,,,,,,,,,,,,,14,001,2023_Feb_27_1320,ExactRep-v3-final,2021.2.3,59.8840047059231,
,,,,,,,,50,0,50,0,,,,,,,,,,,,,,,,,,,,,,,,,,,,,,,,,,,,,,,,,,,,,,,,,,,,,870.9536370998248,None,,,,,,,,,,,,,,,,,,,,,,,,,,,,,,,,,,,army,70,51,silent,white,868.9531822998542,None,None,868.9531822998542,None,,,,,,,,,,,,,,,,,,,,,,,,,,,,,,14,001,2023_Feb_27_1320,ExactRep-v3-final,2021.2.3,59.8840047059231,
,,,,,,,,51,0,51,0,,,,,,,,,,,,,,,,,,,,,,,,,,,,,,,,,,,,,,,,,,,,,,,,,,,,,873.4559922998305,None,,,,,,,,,,,,,,,,,,,,,,,,,,,,,,,,,,,skin,85,52,aloud,red,871.45570089994,None,None,871.45570089994,None,,,,,,,,,,,,,,,,,,,,,,,,,,,,,,14,001,2023_Feb_27_1320,ExactRep-v3-final,2021.2.3,59.8840047059231,
,,,,,,,,52,0,52,0,,,,,,,,,,,,,,,,,,,,,,,,,,,,,,,,,,,,,,,,,,,,,,,,,,,,,875.9753538998775,None,,,,,,,,,,,,,,,,,,,,,,,,,,,,,,,,,,,health,8,53,sing,blue,873.9633646998554,None,None,873.9633646998554,None,,,,,,,,,,,,,,,,,,,,,,,,,,,,,,14,001,2023_Feb_27_1320,ExactRep-v3-final,2021.2.3,59.8840047059231,
,,,,,,,,53,0,53,0,,,,,,,,,,,,,,,,,,,,,,,,,,,,,,,,,,,,,,,,,,,,,,,,,,,,,878.4778772999998,None,,,,,,,,,,,,,,,,,,,,,,,,,,,,,,,,,,,pride,27,54,sing,blue,876.4776748998556,None,None,876.4776748998556,None,,,,,,,,,,,,,,,,,,,,,,,,,,,,,,14,001,2023_Feb_27_1320,ExactRep-v3-final,2021.2.3,59.8840047059231,
,,,,,,,,54,0,54,0,,,,,,,,,,,,,,,,,,,,,,,,,,,,,,,,,,,,,,,,,,,,,,,,,,,,,880.9804308000021,None,,,,,,,,,,,,,,,,,,,,,,,,,,,,,,,,,,,hall,39,55,silent,white,878.9802164998837,None,None,878.9802164998837,None,,,,,,,,,,,,,,,,,,,,,,,,,,,,,,14,001,2023_Feb_27_1320,ExactRep-v3-final,2021.2.3,59.8840047059231,
,,,,,,,,55,0,55,0,,,,,,,,,,,,,,,,,,,,,,,,,,,,,,,,,,,,,,,,,,,,,,,,,,,,,883.4994852999225,None,,,,,,,,,,,,,,,,,,,,,,,,,,,,,,,,,,,origin,16,56,sing,blue,881.4845632999204,None,None,881.4845632999204,None,,,,,,,,,,,,,,,,,,,,,,,,,,,,,,14,001,2023_Feb_27_1320,ExactRep-v3-final,2021.2.3,59.8840047059231,
,,,,,,,,56,0,56,0,,,,,,,,,,,,,,,,,,,,,,,,,,,,,,,,,,,,,,,,,,,,,,,,,,,,,886.0020439999644,None,,,,,,,,,,,,,,,,,,,,,,,,,,,,,,,,,,,honour,86,57,aloud,red,884.0011565999594,None,None,884.0011565999594,None,,,,,,,,,,,,,,,,,,,,,,,,,,,,,,14,001,2023_Feb_27_1320,ExactRep-v3-final,2021.2.3,59.8840047059231,
,,,,,,,,57,0,57,0,,,,,,,,,,,,,,,,,,,,,,,,,,,,,,,,,,,,,,,,,,,,,,,,,,,,,888.5043444000185,None,,,,,,,,,,,,,,,,,,,,,,,,,,,,,,,,,,,star,102,58,aloud,red,886.5022759998683,None,None,886.5022759998683,None,,,,,,,,,,,,,,,,,,,,,,,,,,,,,,14,001,2023_Feb_27_1320,ExactRep-v3-final,2021.2.3,59.8840047059231,
,,,,,,,,58,0,58,0,,,,,,,,,,,,,,,,,,,,,,,,,,,,,,,,,,,,,,,,,,,,,,,,,,,,,891.0236662998796,None,,,,,,,,,,,,,,,,,,,,,,,,,,,,,,,,,,,camp,71,59,silent,white,889.0093649998307,None,None,889.0093649998307,None,,,,,,,,,,,,,,,,,,,,,,,,,,,,,,14,001,2023_Feb_27_1320,ExactRep-v3-final,2021.2.3,59.8840047059231,
,,,,,,,,59,0,59,0,,,,,,,,,,,,,,,,,,,,,,,,,,,,,,,,,,,,,,,,,,,,,,,,,,,,,893.5429918998852,None,,,,,,,,,,,,,,,,,,,,,,,,,,,,,,,,,,,wheat,14,60,sing,blue,891.5296183999162,None,None,891.5296183999162,None,,,,,,,,,,,,,,,,,,,,,,,,,,,,,,14,001,2023_Feb_27_1320,ExactRep-v3-final,2021.2.3,59.8840047059231,
,,,,,,,,60,0,60,0,,,,,,,,,,,,,,,,,,,,,,,,,,,,,,,,,,,,,,,,,,,,,,,,,,,,,896.061885099858,None,,,,,,,,,,,,,,,,,,,,,,,,,,,,,,,,,,,soul,74,61,silent,white,894.0516241998412,None,None,894.0516241998412,None,,,,,,,,,,,,,,,,,,,,,,,,,,,,,,14,001,2023_Feb_27_1320,ExactRep-v3-final,2021.2.3,59.8840047059231,
,,,,,,,,61,0,61,0,,,,,,,,,,,,,,,,,,,,,,,,,,,,,,,,,,,,,,,,,,,,,,,,,,,,,898.5812329999171,None,,,,,,,,,,,,,,,,,,,,,,,,,,,,,,,,,,,meeting,118,62,aloud,red,896.5725535999518,None,None,896.5725535999518,None,,,,,,,,,,,,,,,,,,,,,,,,,,,,,,14,001,2023_Feb_27_1320,ExactRep-v3-final,2021.2.3,59.8840047059231,
,,,,,,,,62,0,62,0,,,,,,,,,,,,,,,,,,,,,,,,,,,,,,,,,,,,,,,,,,,,,,,,,,,,,901.0837806998752,None,,,,,,,,,,,,,,,,,,,,,,,,,,,,,,,,,,,death,98,63,aloud,red,899.0817553999368,None,None,899.0817553999368,None,,,,,,,,,,,,,,,,,,,,,,,,,,,,,,14,001,2023_Feb_27_1320,ExactRep-v3-final,2021.2.3,59.8840047059231,
,,,,,,,,63,0,63,0,,,,,,,,,,,,,,,,,,,,,,,,,,,,,,,,,,,,,,,,,,,,,,,,,,,,,903.5864065999631,None,,,,,,,,,,,,,,,,,,,,,,,,,,,,,,,,,,,gift,67,64,silent,white,901.5842186999507,None,None,901.5842186999507,None,,,,,,,,,,,,,,,,,,,,,,,,,,,,,,14,001,2023_Feb_27_1320,ExactRep-v3-final,2021.2.3,59.8840047059231,
,,,,,,,,64,0,64,0,,,,,,,,,,,,,,,,,,,,,,,,,,,,,,,,,,,,,,,,,,,,,,,,,,,,,906.0888379998505,None,,,,,,,,,,,,,,,,,,,,,,,,,,,,,,,,,,,dawn,26,65,sing,blue,904.0867717999499,None,None,904.0867717999499,None,,,,,,,,,,,,,,,,,,,,,,,,,,,,,,14,001,2023_Feb_27_1320,ExactRep-v3-final,2021.2.3,59.8840047059231,
,,,,,,,,65,0,65,0,,,,,,,,,,,,,,,,,,,,,,,,,,,,,,,,,,,,,,,,,,,,,,,,,,,,,908.6079609999433,None,,,,,,,,,,,,,,,,,,,,,,,,,,,,,,,,,,,wife,11,66,sing,blue,906.5969372999389,None,None,906.5969372999389,None,,,,,,,,,,,,,,,,,,,,,,,,,,,,,,14,001,2023_Feb_27_1320,ExactRep-v3-final,2021.2.3,59.8840047059231,
,,,,,,,,66,0,66,0,,,,,,,,,,,,,,,,,,,,,,,,,,,,,,,,,,,,,,,,,,,,,,,,,,,,,911.1104219998233,None,,,,,,,,,,,,,,,,,,,,,,,,,,,,,,,,,,,form,90,67,aloud,red,909.1083896998316,None,None,909.1083896998316,None,,,,,,,,,,,,,,,,,,,,,,,,,,,,,,14,001,2023_Feb_27_1320,ExactRep-v3-final,2021.2.3,59.8840047059231,
,,,,,,,,67,0,67,0,,,,,,,,,,,,,,,,,,,,,,,,,,,,,,,,,,,,,,,,,,,,,,,,,,,,,913.6296506000217,None,,,,,,,,,,,,,,,,,,,,,,,,,,,,,,,,,,,journal,46,68,silent,white,911.6179588998202,None,None,911.6179588998202,None,,,,,,,,,,,,,,,,,,,,,,,,,,,,,,14,001,2023_Feb_27_1320,ExactRep-v3-final,2021.2.3,59.8840047059231,
,,,,,,,,68,0,68,0,,,,,,,,,,,,,,,,,,,,,,,,,,,,,,,,,,,,,,,,,,,,,,,,,,,,,916.1321240998805,None,,,,,,,,,,,,,,,,,,,,,,,,,,,,,,,,,,,woods,15,69,sing,blue,914.1301494999789,None,None,914.1301494999789,None,,,,,,,,,,,,,,,,,,,,,,,,,,,,,,14,001,2023_Feb_27_1320,ExactRep-v3-final,2021.2.3,59.8840047059231,
,,,,,,,,69,0,69,0,,,,,,,,,,,,,,,,,,,,,,,,,,,,,,,,,,,,,,,,,,,,,,,,,,,,,918.634714699816,None,,,,,,,,,,,,,,,,,,,,,,,,,,,,,,,,,,,person,105,70,aloud,red,916.6341915999074,None,None,916.6341915999074,None,,,,,,,,,,,,,,,,,,,,,,,,,,,,,,14,001,2023_Feb_27_1320,ExactRep-v3-final,2021.2.3,59.8840047059231,
,,,,,,,,70,0,70,0,,,,,,,,,,,,,,,,,,,,,,,,,,,,,,,,,,,,,,,,,,,,,,,,,,,,,921.1535090999678,None,,,,,,,,,,,,,,,,,,,,,,,,,,,,,,,,,,,clock,43,71,silent,white,919.1382847998757,None,None,919.1382847998757,None,,,,,,,,,,,,,,,,,,,,,,,,,,,,,,14,001,2023_Feb_27_1320,ExactRep-v3-final,2021.2.3,59.8840047059231,
,,,,,,,,71,0,71,0,,,,,,,,,,,,,,,,,,,,,,,,,,,,,,,,,,,,,,,,,,,,,,,,,,,,,923.6730167998467,None,,,,,,,,,,,,,,,,,,,,,,,,,,,,,,,,,,,pole,18,72,sing,blue,921.6583186998032,None,None,921.6583186998032,None,,,,,,,,,,,,,,,,,,,,,,,,,,,,,,14,001,2023_Feb_27_1320,ExactRep-v3-final,2021.2.3,59.8840047059231,
,,,,,,,,72,0,72,0,,,,,,,,,,,,,,,,,,,,,,,,,,,,,,,,,,,,,,,,,,,,,,,,,,,,,926.1920076999813,None,,,,,,,,,,,,,,,,,,,,,,,,,,,,,,,,,,,boulder,82,73,aloud,red,924.1770275998861,None,None,924.1770275998861,None,,,,,,,,,,,,,,,,,,,,,,,,,,,,,,14,001,2023_Feb_27_1320,ExactRep-v3-final,2021.2.3,59.8840047059231,
,,,,,,,,73,0,73,0,,,,,,,,,,,,,,,,,,,,,,,,,,,,,,,,,,,,,,,,,,,,,,,,,,,,,928.7112594000064,None,,,,,,,,,,,,,,,,,,,,,,,,,,,,,,,,,,,meat,58,74,silent,white,926.703401299892,None,None,926.703401299892,None,,,,,,,,,,,,,,,,,,,,,,,,,,,,,,14,001,2023_Feb_27_1320,ExactRep-v3-final,2021.2.3,59.8840047059231,
,,,,,,,,74,0,74,0,,,,,,,,,,,,,,,,,,,,,,,,,,,,,,,,,,,,,,,,,,,,,,,,,,,,,931.2155857000034,None,,,,,,,,,,,,,,,,,,,,,,,,,,,,,,,,,,,chance,103,75,aloud,red,929.2129402998835,None,None,929.2129402998835,None,,,,,,,,,,,,,,,,,,,,,,,,,,,,,,14,001,2023_Feb_27_1320,ExactRep-v3-final,2021.2.3,59.8840047059231,
,,,,,,,,75,0,75,0,,,,,,,,,,,,,,,,,,,,,,,,,,,,,,,,,,,,,,,,,,,,,,,,,,,,,933.7331450998317,None,,,,,,,,,,,,,,,,,,,,,,,,,,,,,,,,,,,circle,68,76,silent,white,931.7309756998438,None,None,931.7309756998438,None,,,,,,,,,,,,,,,,,,,,,,,,,,,,,,14,001,2023_Feb_27_1320,ExactRep-v3-final,2021.2.3,59.8840047059231,
,,,,,,,,76,0,76,0,,,,,,,,,,,,,,,,,,,,,,,,,,,,,,,,,,,,,,,,,,,,,,,,,,,,,936.235567699885,None,,,,,,,,,,,,,,,,,,,,,,,,,,,,,,,,,,,lord,48,77,silent,white,934.2335230000317,None,None,934.2335230000317,None,,,,,,,,,,,,,,,,,,,,,,,,,,,,,,14,001,2023_Feb_27_1320,ExactRep-v3-final,2021.2.3,59.8840047059231,
,,,,,,,,77,0,77,0,,,,,,,,,,,,,,,,,,,,,,,,,,,,,,,,,,,,,,,,,,,,,,,,,,,,,938.7381423998158,None,,,,,,,,,,,,,,,,,,,,,,,,,,,,,,,,,,,sugar,38,78,sing,blue,936.737656199839,None,None,936.737656199839,None,,,,,,,,,,,,,,,,,,,,,,,,,,,,,,14,001,2023_Feb_27_1320,ExactRep-v3-final,2021.2.3,59.8840047059231,
,,,,,,,,78,0,78,0,,,,,,,,,,,,,,,,,,,,,,,,,,,,,,,,,,,,,,,,,,,,,,,,,,,,,941.2572531998158,None,,,,,,,,,,,,,,,,,,,,,,,,,,,,,,,,,,,steam,88,79,aloud,red,939.2430497999303,None,None,939.2430497999303,None,,,,,,,,,,,,,,,,,,,,,,,,,,,,,,14,001,2023_Feb_27_1320,ExactRep-v3-final,2021.2.3,59.8840047059231,
,,,,,,,,79,0,79,0,,,,,,,,,,,,,,,,,,,,,,,,,,,,,,,,,,,,,,,,,,,,,,,,,,,,,943.7597511999775,None,,,,,,,,,,,,,,,,,,,,,,,,,,,,,,,,,,,arm,87,80,aloud,red,941.7578371998388,None,None,941.7578371998388,None,,,,,,,,,,,,,,,,,,,,,,,,,,,,,,14,001,2023_Feb_27_1320,ExactRep-v3-final,2021.2.3,59.8840047059231,
,,,,,,,,80,0,80,0,,,,,,,,,,,,,,,,,,,,,,,,,,,,,,,,,,,,,,,,,,,,,,,,,,,,,946.2623093000147,None,,,,,,,,,,,,,,,,,,,,,,,,,,,,,,,,,,,library,0,81,sing,blue,944.2605041998904,None,None,944.2605041998904,None,,,,,,,,,,,,,,,,,,,,,,,,,,,,,,14,001,2023_Feb_27_1320,ExactRep-v3-final,2021.2.3,59.8840047059231,
,,,,,,,,81,0,81,0,,,,,,,,,,,,,,,,,,,,,,,,,,,,,,,,,,,,,,,,,,,,,,,,,,,,,948.7648705998436,None,,,,,,,,,,,,,,,,,,,,,,,,,,,,,,,,,,,moral,24,82,sing,blue,946.762785299914,None,None,946.762785299914,None,,,,,,,,,,,,,,,,,,,,,,,,,,,,,,14,001,2023_Feb_27_1320,ExactRep-v3-final,2021.2.3,59.8840047059231,
,,,,,,,,82,0,82,0,,,,,,,,,,,,,,,,,,,,,,,,,,,,,,,,,,,,,,,,,,,,,,,,,,,,,951.2672329999041,None,,,,,,,,,,,,,,,,,,,,,,,,,,,,,,,,,,,water,99,83,aloud,red,949.2655948998872,None,None,949.2655948998872,None,,,,,,,,,,,,,,,,,,,,,,,,,,,,,,14,001,2023_Feb_27_1320,ExactRep-v3-final,2021.2.3,59.8840047059231,
,,,,,,,,83,0,83,0,,,,,,,,,,,,,,,,,,,,,,,,,,,,,,,,,,,,,,,,,,,,,,,,,,,,,953.7696516998112,None,,,,,,,,,,,,,,,,,,,,,,,,,,,,,,,,,,,series,91,84,aloud,red,951.7707744999789,None,None,951.7707744999789,None,,,,,,,,,,,,,,,,,,,,,,,,,,,,,,14,001,2023_Feb_27_1320,ExactRep-v3-final,2021.2.3,59.8840047059231,
,,,,,,,,84,0,84,0,,,,,,,,,,,,,,,,,,,,,,,,,,,,,,,,,,,,,,,,,,,,,,,,,,,,,956.2722890998702,None,,,,,,,,,,,,,,,,,,,,,,,,,,,,,,,,,,,teacher,51,85,silent,white,954.2718452999834,None,None,954.2718452999834,None,,,,,,,,,,,,,,,,,,,,,,,,,,,,,,14,001,2023_Feb_27_1320,ExactRep-v3-final,2021.2.3,59.8840047059231,
,,,,,,,,85,0,85,0,,,,,,,,,,,,,,,,,,,,,,,,,,,,,,,,,,,,,,,,,,,,,,,,,,,,,958.7748185999226,None,,,,,,,,,,,,,,,,,,,,,,,,,,,,,,,,,,,history,69,86,silent,white,956.7753998998087,None,None,956.7753998998087,None,,,,,,,,,,,,,,,,,,,,,,,,,,,,,,14,001,2023_Feb_27_1320,ExactRep-v3-final,2021.2.3,59.8840047059231,
,,,,,,,,86,0,86,0,,,,,,,,,,,,,,,,,,,,,,,,,,,,,,,,,,,,,,,,,,,,,,,,,,,,,961.2774167000316,None,,,,,,,,,,,,,,,,,,,,,,,,,,,,,,,,,,,hotel,96,87,aloud,red,959.2783188999165,None,None,959.2783188999165,None,,,,,,,,,,,,,,,,,,,,,,,,,,,,,,14,001,2023_Feb_27_1320,ExactRep-v3-final,2021.2.3,59.8840047059231,
,,,,,,,,87,0,87,0,,,,,,,,,,,,,,,,,,,,,,,,,,,,,,,,,,,,,,,,,,,,,,,,,,,,,963.7798547998536,None,,,,,,,,,,,,,,,,,,,,,,,,,,,,,,,,,,,truth,100,88,aloud,red,961.7777765998617,None,None,961.7777765998617,None,,,,,,,,,,,,,,,,,,,,,,,,,,,,,,14,001,2023_Feb_27_1320,ExactRep-v3-final,2021.2.3,59.8840047059231,
,,,,,,,,88,0,88,0,,,,,,,,,,,,,,,,,,,,,,,,,,,,,,,,,,,,,,,,,,,,,,,,,,,,,966.2823220000137,None,,,,,,,,,,,,,,,,,,,,,,,,,,,,,,,,,,,glory,5,89,sing,blue,964.2800651998259,None,None,964.2800651998259,None,,,,,,,,,,,,,,,,,,,,,,,,,,,,,,14,001,2023_Feb_27_1320,ExactRep-v3-final,2021.2.3,59.8840047059231,
,,,,,,,,89,0,89,0,,,,,,,,,,,,,,,,,,,,,,,,,,,,,,,,,,,,,,,,,,,,,,,,,,,,,968.8015304999426,None,,,,,,,,,,,,,,,,,,,,,,,,,,,,,,,,,,,pupil,110,90,aloud,red,966.7868080998305,None,None,966.7868080998305,None,,,,,,,,,,,,,,,,,,,,,,,,,,,,,,14,001,2023_Feb_27_1320,ExactRep-v3-final,2021.2.3,59.8840047059231,
,,,,,,,,90,0,90,0,,,,,,,,,,,,,,,,,,,,,,,,,,,,,,,,,,,,,,,,,,,,,,,,,,,,,971.320439199917,None,,,,,,,,,,,,,,,,,,,,,,,,,,,,,,,,,,,sky,22,91,sing,blue,969.3052916999441,None,None,969.3052916999441,None,,,,,,,,,,,,,,,,,,,,,,,,,,,,,,14,001,2023_Feb_27_1320,ExactRep-v3-final,2021.2.3,59.8840047059231,
,,,,,,,,91,0,91,0,,,,,,,,,,,,,,,,,,,,,,,,,,,,,,,,,,,,,,,,,,,,,,,,,,,,,973.8232000998687,None,,,,,,,,,,,,,,,,,,,,,,,,,,,,,,,,,,,paper,114,92,aloud,red,971.8209734999109,None,None,971.8209734999109,None,,,,,,,,,,,,,,,,,,,,,,,,,,,,,,14,001,2023_Feb_27_1320,ExactRep-v3-final,2021.2.3,59.8840047059231,
,,,,,,,,92,0,92,0,,,,,,,,,,,,,,,,,,,,,,,,,,,,,,,,,,,,,,,,,,,,,,,,,,,,,976.3257498999592,None,,,,,,,,,,,,,,,,,,,,,,,,,,,,,,,,,,,insect,54,93,silent,white,974.3266741998959,None,None,974.3266741998959,None,,,,,,,,,,,,,,,,,,,,,,,,,,,,,,14,001,2023_Feb_27_1320,ExactRep-v3-final,2021.2.3,59.8840047059231,
,,,,,,,,93,0,93,0,,,,,,,,,,,,,,,,,,,,,,,,,,,,,,,,,,,,,,,,,,,,,,,,,,,,,978.8448440998327,None,,,,,,,,,,,,,,,,,,,,,,,,,,,,,,,,,,,market,64,94,silent,white,976.8371315000113,None,None,976.8371315000113,None,,,,,,,,,,,,,,,,,,,,,,,,,,,,,,14,001,2023_Feb_27_1320,ExactRep-v3-final,2021.2.3,59.8840047059231,
,,,,,,,,94,0,94,0,,,,,,,,,,,,,,,,,,,,,,,,,,,,,,,,,,,,,,,,,,,,,,,,,,,,,981.3481961998623,None,,,,,,,,,,,,,,,,,,,,,,,,,,,,,,,,,,,wine,59,95,silent,white,979.3453738000244,None,None,979.3453738000244,None,,,,,,,,,,,,,,,,,,,,,,,,,,,,,,14,001,2023_Feb_27_1320,ExactRep-v3-final,2021.2.3,59.8840047059231,
,,,,,,,,95,0,95,0,,,,,,,,,,,,,,,,,,,,,,,,,,,,,,,,,,,,,,,,,,,,,,,,,,,,,983.8663986998145,None,,,,,,,,,,,,,,,,,,,,,,,,,,,,,,,,,,,product,21,96,sing,blue,981.8558966999408,None,None,981.8558966999408,None,,,,,,,,,,,,,,,,,,,,,,,,,,,,,,14,001,2023_Feb_27_1320,ExactRep-v3-final,2021.2.3,59.8840047059231,
,,,,,,,,96,0,96,0,,,,,,,,,,,,,,,,,,,,,,,,,,,,,,,,,,,,,,,,,,,,,,,,,,,,,986.3688827999867,None,,,,,,,,,,,,,,,,,,,,,,,,,,,,,,,,,,,potato,35,97,sing,blue,984.3670724998228,None,None,984.3670724998228,None,,,,,,,,,,,,,,,,,,,,,,,,,,,,,,14,001,2023_Feb_27_1320,ExactRep-v3-final,2021.2.3,59.8840047059231,
,,,,,,,,97,0,97,0,,,,,,,,,,,,,,,,,,,,,,,,,,,,,,,,,,,,,,,,,,,,,,,,,,,,,988.8881020999979,None,,,,,,,,,,,,,,,,,,,,,,,,,,,,,,,,,,,table,7,98,sing,blue,986.8773219999857,None,None,986.8773219999857,None,,,,,,,,,,,,,,,,,,,,,,,,,,,,,,14,001,2023_Feb_27_1320,ExactRep-v3-final,2021.2.3,59.8840047059231,
,,,,,,,,98,0,98,0,,,,,,,,,,,,,,,,,,,,,,,,,,,,,,,,,,,,,,,,,,,,,,,,,,,,,991.3905898998491,None,,,,,,,,,,,,,,,,,,,,,,,,,,,,,,,,,,,doll,41,99,silent,white,989.3887479999103,None,None,989.3887479999103,None,,,,,,,,,,,,,,,,,,,,,,,,,,,,,,14,001,2023_Feb_27_1320,ExactRep-v3-final,2021.2.3,59.8840047059231,
,,,,,,,,99,0,99,0,,,,,,,,,,,,,,,,,,,,,,,,,,,,,,,,,,,,,,,,,,,,,,,,,,,,,993.9100573000032,None,,,,,,,,,,,,,,,,,,,,,,,,,,,,,,,,,,,thought,31,100,sing,blue,991.9006288999226,None,None,991.9006288999226,None,,,,,,,,,,,,,,,,,,,,,,,,,,,,,,14,001,2023_Feb_27_1320,ExactRep-v3-final,2021.2.3,59.8840047059231,
,,,,,,,,100,0,100,0,,,,,,,,,,,,,,,,,,,,,,,,,,,,,,,,,,,,,,,,,,,,,,,,,,,,,996.4125458998606,None,,,,,,,,,,,,,,,,,,,,,,,,,,,,,,,,,,,cattle,83,101,aloud,red,994.4130742999259,None,None,994.4130742999259,None,,,,,,,,,,,,,,,,,,,,,,,,,,,,,,14,001,2023_Feb_27_1320,ExactRep-v3-final,2021.2.3,59.8840047059231,
,,,,,,,,101,0,101,0,,,,,,,,,,,,,,,,,,,,,,,,,,,,,,,,,,,,,,,,,,,,,,,,,,,,,998.9149770999793,None,,,,,,,,,,,,,,,,,,,,,,,,,,,,,,,,,,,dust,40,102,silent,white,996.9128385998774,None,None,996.9128385998774,None,,,,,,,,,,,,,,,,,,,,,,,,,,,,,,14,001,2023_Feb_27_1320,ExactRep-v3-final,2021.2.3,59.8840047059231,
,,,,,,,,102,0,102,0,,,,,,,,,,,,,,,,,,,,,,,,,,,,,,,,,,,,,,,,,,,,,,,,,,,,,1001.4174112000037,None,,,,,,,,,,,,,,,,,,,,,,,,,,,,,,,,,,,event,1,103,sing,blue,999.4157056999393,None,None,999.4157056999393,None,,,,,,,,,,,,,,,,,,,,,,,,,,,,,,14,001,2023_Feb_27_1320,ExactRep-v3-final,2021.2.3,59.8840047059231,
,,,,,,,,103,0,103,0,,,,,,,,,,,,,,,,,,,,,,,,,,,,,,,,,,,,,,,,,,,,,,,,,,,,,1003.9199759999756,None,,,,,,,,,,,,,,,,,,,,,,,,,,,,,,,,,,,justice,61,104,silent,white,1001.9198153000325,None,None,1001.9198153000325,None,,,,,,,,,,,,,,,,,,,,,,,,,,,,,,14,001,2023_Feb_27_1320,ExactRep-v3-final,2021.2.3,59.8840047059231,
,,,,,,,,104,0,104,0,,,,,,,,,,,,,,,,,,,,,,,,,,,,,,,,,,,,,,,,,,,,,,,,,,,,,1006.4224880998954,None,,,,,,,,,,,,,,,,,,,,,,,,,,,,,,,,,,,river,19,105,sing,blue,1004.4228220998775,None,None,1004.4228220998775,None,,,,,,,,,,,,,,,,,,,,,,,,,,,,,,14,001,2023_Feb_27_1320,ExactRep-v3-final,2021.2.3,59.8840047059231,
,,,,,,,,105,0,105,0,,,,,,,,,,,,,,,,,,,,,,,,,,,,,,,,,,,,,,,,,,,,,,,,,,,,,1008.9247824999038,None,,,,,,,,,,,,,,,,,,,,,,,,,,,,,,,,,,,animal,95,106,aloud,red,1006.922643299913,None,None,1006.922643299913,None,,,,,,,,,,,,,,,,,,,,,,,,,,,,,,14,001,2023_Feb_27_1320,ExactRep-v3-final,2021.2.3,59.8840047059231,
,,,,,,,,106,0,106,0,,,,,,,,,,,,,,,,,,,,,,,,,,,,,,,,,,,,,,,,,,,,,,,,,,,,,1011.4441476999782,None,,,,,,,,,,,,,,,,,,,,,,,,,,,,,,,,,,,bottle,50,107,silent,white,1009.4338638999034,None,None,1009.4338638999034,None,,,,,,,,,,,,,,,,,,,,,,,,,,,,,,14,001,2023_Feb_27_1320,ExactRep-v3-final,2021.2.3,59.8840047059231,
,,,,,,,,107,0,107,0,,,,,,,,,,,,,,,,,,,,,,,,,,,,,,,,,,,,,,,,,,,,,,,,,,,,,1013.9464483999182,None,,,,,,,,,,,,,,,,,,,,,,,,,,,,,,,,,,,engine,115,108,aloud,red,1011.9443186998833,None,None,1011.9443186998833,None,,,,,,,,,,,,,,,,,,,,,,,,,,,,,,14,001,2023_Feb_27_1320,ExactRep-v3-final,2021.2.3,59.8840047059231,
,,,,,,,,108,0,108,0,,,,,,,,,,,,,,,,,,,,,,,,,,,,,,,,,,,,,,,,,,,,,,,,,,,,,1016.4496188999619,None,,,,,,,,,,,,,,,,,,,,,,,,,,,,,,,,,,,money,36,109,sing,blue,1014.4469806998968,None,None,1014.4469806998968,None,,,,,,,,,,,,,,,,,,,,,,,,,,,,,,14,001,2023_Feb_27_1320,ExactRep-v3-final,2021.2.3,59.8840047059231,
,,,,,,,,109,0,109,0,,,,,,,,,,,,,,,,,,,,,,,,,,,,,,,,,,,,,,,,,,,,,,,,,,,,,1018.9683586999308,None,,,,,,,,,,,,,,,,,,,,,,,,,,,,,,,,,,,fun,25,110,sing,blue,1016.9566146999132,None,None,1016.9566146999132,None,,,,,,,,,,,,,,,,,,,,,,,,,,,,,,14,001,2023_Feb_27_1320,ExactRep-v3-final,2021.2.3,59.8840047059231,
,,,,,,,,110,0,110,0,,,,,,,,,,,,,,,,,,,,,,,,,,,,,,,,,,,,,,,,,,,,,,,,,,,,,1021.4875528998673,None,,,,,,,,,,,,,,,,,,,,,,,,,,,,,,,,,,,slave,79,111,sing,blue,1019.4781936998479,None,None,1019.4781936998479,None,,,,,,,,,,,,,,,,,,,,,,,,,,,,,,14,001,2023_Feb_27_1320,ExactRep-v3-final,2021.2.3,59.8840047059231,
,,,,,,,,111,0,111,0,,,,,,,,,,,,,,,,,,,,,,,,,,,,,,,,,,,,,,,,,,,,,,,,,,,,,1023.9899887999054,None,,,,,,,,,,,,,,,,,,,,,,,,,,,,,,,,,,,speech,73,112,silent,white,1021.9879487999715,None,None,1021.9879487999715,None,,,,,,,,,,,,,,,,,,,,,,,,,,,,,,14,001,2023_Feb_27_1320,ExactRep-v3-final,2021.2.3,59.8840047059231,
,,,,,,,,112,0,112,0,,,,,,,,,,,,,,,,,,,,,,,,,,,,,,,,,,,,,,,,,,,,,,,,,,,,,1026.4922765998635,None,,,,,,,,,,,,,,,,,,,,,,,,,,,,,,,,,,,lip,13,113,sing,blue,1024.4903304998297,None,None,1024.4903304998297,None,,,,,,,,,,,,,,,,,,,,,,,,,,,,,,14,001,2023_Feb_27_1320,ExactRep-v3-final,2021.2.3,59.8840047059231,
,,,,,,,,113,0,113,0,,,,,,,,,,,,,,,,,,,,,,,,,,,,,,,,,,,,,,,,,,,,,,,,,,,,,1029.0115713998675,None,,,,,,,,,,,,,,,,,,,,,,,,,,,,,,,,,,,soil,55,114,silent,white,1027.000714099966,None,None,1027.000714099966,None,,,,,,,,,,,,,,,,,,,,,,,,,,,,,,14,001,2023_Feb_27_1320,ExactRep-v3-final,2021.2.3,59.8840047059231,
,,,,,,,,114,0,114,0,,,,,,,,,,,,,,,,,,,,,,,,,,,,,,,,,,,,,,,,,,,,,,,,,,,,,1031.530846099835,None,,,,,,,,,,,,,,,,,,,,,,,,,,,,,,,,,,,prison,101,115,aloud,red,1029.5189586000051,None,None,1029.5189586000051,None,,,,,,,,,,,,,,,,,,,,,,,,,,,,,,14,001,2023_Feb_27_1320,ExactRep-v3-final,2021.2.3,59.8840047059231,
,,,,,,,,115,0,115,0,,,,,,,,,,,,,,,,,,,,,,,,,,,,,,,,,,,,,,,,,,,,,,,,,,,,,1034.0335076998454,None,,,,,,,,,,,,,,,,,,,,,,,,,,,,,,,,,,,idea,89,116,aloud,red,1032.0321410000324,None,None,1032.0321410000324,None,,,,,,,,,,,,,,,,,,,,,,,,,,,,,,14,001,2023_Feb_27_1320,ExactRep-v3-final,2021.2.3,59.8840047059231,
,,,,,,,,116,0,116,0,,,,,,,,,,,,,,,,,,,,,,,,,,,,,,,,,,,,,,,,,,,,,,,,,,,,,1036.5358716000337,None,,,,,,,,,,,,,,,,,,,,,,,,,,,,,,,,,,,world,47,117,silent,white,1034.5363584000152,None,None,1034.5363584000152,None,,,,,,,,,,,,,,,,,,,,,,,,,,,,,,14,001,2023_Feb_27_1320,ExactRep-v3-final,2021.2.3,59.8840047059231,
,,,,,,,,117,0,117,0,,,,,,,,,,,,,,,,,,,,,,,,,,,,,,,,,,,,,,,,,,,,,,,,,,,,,1039.0383843998425,None,,,,,,,,,,,,,,,,,,,,,,,,,,,,,,,,,,,method,44,118,silent,white,1037.0389019998256,None,None,1037.0389019998256,None,,,,,,,,,,,,,,,,,,,,,,,,,,,,,,14,001,2023_Feb_27_1320,ExactRep-v3-final,2021.2.3,59.8840047059231,
,,,,,,,,118,0,118,0,,,,,,,,,,,,,,,,,,,,,,,,,,,,,,,,,,,,,,,,,,,,,,,,,,,,,1041.5407253999729,None,,,,,,,,,,,,,,,,,,,,,,,,,,,,,,,,,,,coffee,80,119,aloud,red,1039.540307899937,None,None,1039.540307899937,None,,,,,,,,,,,,,,,,,,,,,,,,,,,,,,14,001,2023_Feb_27_1320,ExactRep-v3-final,2021.2.3,59.8840047059231,
,,,,,,,,119,0,119,0,,,,,,,,,,,,,,,,,,,,,,,,,,,,,,,,,,,,,,,,,,,,,,,,,,,,,1044.0434542000294,None,,,,,,,,,,,,,,,,,,,,,,,,,,,,,,,,,,,ability,66,120,silent,white,1042.0413927999325,None,None,1042.0413927999325,None,,,,,,,,,,,,,,,,,,,,,,,,,,,,,,14,001,2023_Feb_27_1320,ExactRep-v3-final,2021.2.3,59.8840047059231,
,,,,,,,,,,,,,,,,,,,,,,,,,,,,,,,,,,,,,,,,,,,,,,,,,,,,,,,,,,,,,,,,,,,,,,,,,,,,,,,,,,,,,,,,,,,,,,,,,,,,,,,,,,,,,,1044.5453571998514,None,space,0.664531399961561,1054.5218338000122,None,,,,,,,,,,,,,,,,,,,,,,,,14,001,2023_Feb_27_1320,ExactRep-v3-final,2021.2.3,59.8840047059231,
,,,,,,,,,,,,,,,,,,,,,,,,,,,,,,,,,,,,,,,,,,,,,,,,,,,,,,,,,,,,,,,,,,,,,,,,,,,,,,,,,,,,,,,,,,,,,,,,,,,,,,,,,,,,,,,,,,,,1055.2063674998935,None,space,31.891458499943838,1065.1827081998345,None,,,,,,,,,,,,,,,,,,14,001,2023_Feb_27_1320,ExactRep-v3-final,2021.2.3,59.8840047059231,
,,,,,,,,,,,,0,0,0,0,,,,,,,,,,,,,,,,,,,,,,,,,,,,,,,,,,,,,,,,,,,,,,,,,1110.426404999802,None,,,,,,,,,,,,,,,,,,,,,,,,,,,,,,,,,,,,,,,,,,,,,,,,,,,,,,,,,fact,217,1,sing,new,blue,1097.6129562999122,None,n,1097.6129562999122,None,"['n', 'return']","[7.076839599991217, 12.772971899947152]",1097.6129562999122,None,,,14,001,2023_Feb_27_1320,ExactRep-v3-final,2021.2.3,59.8840047059231,
,,,,,,,,,,,,1,0,1,0,,,,,,,,,,,,,,,,,,,,,,,,,,,,,,,,,,,,,,,,,,,,,,,,,1113.37919649994,None,,,,,,,,,,,,,,,,,,,,,,,,,,,,,,,,,,,,,,,,,,,,,,,,,,,,,,,,,church,109,2,aloud,old,red,1110.9303724998608,None,y,1110.9303724998608,None,"['y', 'return']","[1.6473815999925137, 2.407399400137365]",1110.9303724998608,None,,,14,001,2023_Feb_27_1320,ExactRep-v3-final,2021.2.3,59.8840047059231,
,,,,,,,,,,,,2,0,2,0,,,,,,,,,,,,,,,,,,,,,,,,,,,,,,,,,,,,,,,,,,,,,,,,,1115.7815667998511,None,,,,,,,,,,,,,,,,,,,,,,,,,,,,,,,,,,,,,,,,,,,,,,,,,,,,,,,,,corner,84,3,aloud,old,red,1113.8875370998867,None,n,1113.8875370998867,None,"['n', 'return']","[1.3302616998553276, 1.8582716998644173]",1113.8875370998867,None,,,14,001,2023_Feb_27_1320,ExactRep-v3-final,2021.2.3,59.8840047059231,
,,,,,,,,,,,,3,0,3,0,,,,,,,,,,,,,,,,,,,,,,,,,,,,,,,,,,,,,,,,,,,,,,,,,1117.8337960999925,None,,,,,,,,,,,,,,,,,,,,,,,,,,,,,,,,,,,,,,,,,,,,,,,,,,,,,,,,,nail,113,4,aloud,old,red,1116.293912800029,None,y,1116.293912800029,None,"['y', 'return']","[1.0040549000259489, 1.491880299989134]",1116.293912800029,None,,,14,001,2023_Feb_27_1320,ExactRep-v3-final,2021.2.3,59.8840047059231,
,,,,,,,,,,,,4,0,4,0,,,,,,,,,,,,,,,,,,,,,,,,,,,,,,,,,,,,,,,,,,,,,,,,,1120.2693739999086,None,,,,,,,,,,,,,,,,,,,,,,,,,,,,,,,,,,,,,,,,,,,,,,,,,,,,,,,,,horse,97,5,aloud,old,red,1118.3427746000234,None,y,1118.3427746000234,None,"['y', 'return']","[1.2510015000589192, 1.8910481000784785]",1118.3427746000234,None,,,14,001,2023_Feb_27_1320,ExactRep-v3-final,2021.2.3,59.8840047059231,
,,,,,,,,,,,,5,0,5,0,,,,,,,,,,,,,,,,,,,,,,,,,,,,,,,,,,,,,,,,,,,,,,,,,1122.538510199869,None,,,,,,,,,,,,,,,,,,,,,,,,,,,,,,,,,,,,,,,,,,,,,,,,,,,,,,,,,lad,148,6,silent,new,white,1120.7820740998723,None,n,1120.7820740998723,None,"['n', 'return']","[1.1798610999248922, 1.715739700011909]",1120.7820740998723,None,,,14,001,2023_Feb_27_1320,ExactRep-v3-final,2021.2.3,59.8840047059231,
,,,,,,,,,,,,6,0,6,0,,,,,,,,,,,,,,,,,,,,,,,,,,,,,,,,,,,,,,,,,,,,,,,,,1124.406959499931,None,,,,,,,,,,,,,,,,,,,,,,,,,,,,,,,,,,,,,,,,,,,,,,,,,,,,,,,,,amount,237,7,sing,new,blue,1123.0471789999865,None,n,1123.0471789999865,None,"['n', 'return']","[0.9466740000061691, 1.3146548999939114]",1123.0471789999865,None,,,14,001,2023_Feb_27_1320,ExactRep-v3-final,2021.2.3,59.8840047059231,
,,,,,,,,,,,,7,0,7,0,,,,,,,,,,,,,,,,,,,,,,,,,,,,,,,,,,,,,,,,,,,,,,,,,1125.9918350998778,None,,,,,,,,,,,,,,,,,,,,,,,,,,,,,,,,,,,,,,,,,,,,,,,,,,,,,,,,,woman,175,8,sing,new,blue,1124.9167962998617,None,n,1124.9167962998617,None,"['n', 'return']","[0.8532352999318391, 1.0370033998042345]",1124.9167962998617,None,,,14,001,2023_Feb_27_1320,ExactRep-v3-final,2021.2.3,59.8840047059231,
,,,,,,,,,,,,8,0,8,0,,,,,,,,,,,,,,,,,,,,,,,,,,,,,,,,,,,,,,,,,,,,,,,,,1127.7270481998567,None,,,,,,,,,,,,,,,,,,,,,,,,,,,,,,,,,,,,,,,,,,,,,,,,,,,,,,,,,death,98,9,aloud,old,red,1126.498886300018,None,y,1126.498886300018,None,"['y', 'return']","[1.0627789001446217, 1.1910624001175165]",1126.498886300018,None,,,14,001,2023_Feb_27_1320,ExactRep-v3-final,2021.2.3,59.8840047059231,
,,,,,,,,,,,,9,0,9,0,,,,,,,,,,,,,,,,,,,,,,,,,,,,,,,,,,,,,,,,,,,,,,,,,1129.4953683000058,None,,,,,,,,,,,,,,,,,,,,,,,,,,,,,,,,,,,,,,,,,,,,,,,,,,,,,,,,,power,185,10,sing,new,blue,1128.2307492999826,None,n,1128.2307492999826,None,"['n', 'return']","[0.9950994001701474, 1.2190928000491112]",1128.2307492999826,None,,,14,001,2023_Feb_27_1320,ExactRep-v3-final,2021.2.3,59.8840047059231,
,,,,,,,,,,,,10,0,10,0,,,,,,,,,,,,,,,,,,,,,,,,,,,,,,,,,,,,,,,,,,,,,,,,,1132.638737199828,None,,,,,,,,,,,,,,,,,,,,,,,,,,,,,,,,,,,,,,,,,,,,,,,,,,,,,,,,,table,7,11,sing,old,blue,1130.0050041999202,None,n,1130.0050041999202,None,"['n', 'return']","[2.316863999934867, 2.580798299983144]",1130.0050041999202,None,,,14,001,2023_Feb_27_1320,ExactRep-v3-final,2021.2.3,59.8840047059231,
,,,,,,,,,,,,11,0,11,0,,,,,,,,,,,,,,,,,,,,,,,,,,,,,,,,,,,,,,,,,,,,,,,,,1134.4837373998016,None,,,,,,,,,,,,,,,,,,,,,,,,,,,,,,,,,,,,,,,,,,,,,,,,,,,,,,,,,life,129,12,silent,new,white,1133.1567515998613,None,n,1133.1567515998613,None,"['return', 'n', 'return']","[0.06910419999621809, 0.8530345999170095, 1.293117499910295]",1133.1567515998613,None,,,14,001,2023_Feb_27_1320,ExactRep-v3-final,2021.2.3,59.8840047059231,
,,,,,,,,,,,,12,0,12,0,,,,,,,,,,,,,,,,,,,,,,,,,,,,,,,,,,,,,,,,,,,,,,,,,1136.1520010998938,None,,,,,,,,,,,,,,,,,,,,,,,,,,,,,,,,,,,,,,,,,,,,,,,,,,,,,,,,,pride,27,13,sing,old,blue,1134.9875291998032,None,y,1134.9875291998032,None,"['y', 'return']","[0.9023440999444574, 1.1183484999928623]",1134.9875291998032,None,,,14,001,2023_Feb_27_1320,ExactRep-v3-final,2021.2.3,59.8840047059231,
,,,,,,,,,,,,13,0,13,0,,,,,,,,,,,,,,,,,,,,,,,,,,,,,,,,,,,,,,,,,,,,,,,,,1138.4877088000067,None,,,,,,,,,,,,,,,,,,,,,,,,,,,,,,,,,,,,,,,,,,,,,,,,,,,,,,,,,cat,178,14,aloud,new,red,1136.6632562000304,None,n,1136.6632562000304,None,"['n', 'return']","[1.6268289000727236, 1.7786318000871688]",1136.6632562000304,None,,,14,001,2023_Feb_27_1320,ExactRep-v3-final,2021.2.3,59.8840047059231,
,,,,,,,,,,,,14,0,14,0,,,,,,,,,,,,,,,,,,,,,,,,,,,,,,,,,,,,,,,,,,,,,,,,,1140.2727402998134,None,,,,,,,,,,,,,,,,,,,,,,,,,,,,,,,,,,,,,,,,,,,,,,,,,,,,,,,,,dream,131,15,silent,new,white,1139.0022534998134,None,n,1139.0022534998134,None,"['n', 'return']","[1.0556437000632286, 1.2316563001368195]",1139.0022534998134,None,,,14,001,2023_Feb_27_1320,ExactRep-v3-final,2021.2.3,59.8840047059231,
,,,,,,,,,,,,15,0,15,0,,,,,,,,,,,,,,,,,,,,,,,,,,,,,,,,,,,,,,,,,,,,,,,,,1142.0580903999507,None,,,,,,,,,,,,,,,,,,,,,,,,,,,,,,,,,,,,,,,,,,,,,,,,,,,,,,,,,circle,68,16,silent,old,white,1140.7829259999562,None,n,1140.7829259999562,None,"['n', 'return']","[1.0509331999346614, 1.2269545998424292]",1140.7829259999562,None,,,14,001,2023_Feb_27_1320,ExactRep-v3-final,2021.2.3,59.8840047059231,
,,,,,,,,,,,,16,0,16,0,,,,,,,,,,,,,,,,,,,,,,,,,,,,,,,,,,,,,,,,,,,,,,,,,1143.433610299835,None,,,,,,,,,,,,,,,,,,,,,,,,,,,,,,,,,,,,,,,,,,,,,,,,,,,,,,,,,vessel,190,17,aloud,new,red,1142.5694044998381,None,n,1142.5694044998381,None,"['n', 'return']","[0.6083398999180645, 0.8084162999875844]",1142.5694044998381,None,,,14,001,2023_Feb_27_1320,ExactRep-v3-final,2021.2.3,59.8840047059231,
,,,,,,,,,,,,17,0,17,0,,,,,,,,,,,,,,,,,,,,,,,,,,,,,,,,,,,,,,,,,,,,,,,,,1145.1776642999612,None,,,,,,,,,,,,,,,,,,,,,,,,,,,,,,,,,,,,,,,,,,,,,,,,,,,,,,,,,coffee,80,18,aloud,old,red,1143.9515666998923,None,y,1143.9515666998923,None,"['y', 'return']","[1.0266412999480963, 1.186380899976939]",1143.9515666998923,None,,,14,001,2023_Feb_27_1320,ExactRep-v3-final,2021.2.3,59.8840047059231,
,,,,,,,,,,,,18,0,18,0,,,,,,,,,,,,,,,,,,,,,,,,,,,,,,,,,,,,,,,,,,,,,,,,,1147.0628597999457,None,,,,,,,,,,,,,,,,,,,,,,,,,,,,,,,,,,,,,,,,,,,,,,,,,,,,,,,,,skin,85,19,aloud,old,red,1145.6890978999436,None,y,1145.6890978999436,None,"['y', 'return']","[1.192991100018844, 1.3370833001099527]",1145.6890978999436,None,,,14,001,2023_Feb_27_1320,ExactRep-v3-final,2021.2.3,59.8840047059231,
,,,,,,,,,,,,19,0,19,0,,,,,,,,,,,,,,,,,,,,,,,,,,,,,,,,,,,,,,,,,,,,,,,,,1148.9317691000178,None,,,,,,,,,,,,,,,,,,,,,,,,,,,,,,,,,,,,,,,,,,,,,,,,,,,,,,,,,effort,146,20,silent,new,white,1147.5804361999035,None,n,1147.5804361999035,None,"['n', 'return']","[1.181443499866873, 1.3095239999238402]",1147.5804361999035,None,,,14,001,2023_Feb_27_1320,ExactRep-v3-final,2021.2.3,59.8840047059231,
,,,,,,,,,,,,20,0,20,0,,,,,,,,,,,,,,,,,,,,,,,,,,,,,,,,,,,,,,,,,,,,,,,,,1150.6999172000214,None,,,,,,,,,,,,,,,,,,,,,,,,,,,,,,,,,,,,,,,,,,,,,,,,,,,,,,,,,rock,116,21,aloud,old,red,1149.4378158999607,None,y,1149.4378158999607,None,"['y', 'return']","[1.0760608999989927, 1.2199609999079257]",1149.4378158999607,None,,,14,001,2023_Feb_27_1320,ExactRep-v3-final,2021.2.3,59.8840047059231,
,,,,,,,,,,,,21,0,21,0,,,,,,,,,,,,,,,,,,,,,,,,,,,,,,,,,,,,,,,,,,,,,,,,,1152.2013395999093,None,,,,,,,,,,,,,,,,,,,,,,,,,,,,,,,,,,,,,,,,,,,,,,,,,,,,,,,,,moral,24,22,sing,old,blue,1151.2036999999546,None,y,1151.2036999999546,None,"['y', 'return']","[0.814273800002411, 0.966188499936834]",1151.2036999999546,None,,,14,001,2023_Feb_27_1320,ExactRep-v3-final,2021.2.3,59.8840047059231,
,,,,,,,,,,,,22,0,22,0,,,,,,,,,,,,,,,,,,,,,,,,,,,,,,,,,,,,,,,,,,,,,,,,,1153.7696453998797,None,,,,,,,,,,,,,,,,,,,,,,,,,,,,,,,,,,,,,,,,,,,,,,,,,,,,,,,,,machine,143,23,silent,new,white,1152.7112639998086,None,n,1152.7112639998086,None,"['n', 'return']","[0.8583995001390576, 1.026583299972117]",1152.7112639998086,None,,,14,001,2023_Feb_27_1320,ExactRep-v3-final,2021.2.3,59.8840047059231,
,,,,,,,,,,,,23,0,23,0,,,,,,,,,,,,,,,,,,,,,,,,,,,,,,,,,,,,,,,,,,,,,,,,,1155.454769999953,None,,,,,,,,,,,,,,,,,,,,,,,,,,,,,,,,,,,,,,,,,,,,,,,,,,,,,,,,,shock,142,24,silent,new,white,1154.2789753000252,None,n,1154.2789753000252,None,"['n', 'return']","[0.9391836000140756, 1.1308496000710875]",1154.2789753000252,None,,,14,001,2023_Feb_27_1320,ExactRep-v3-final,2021.2.3,59.8840047059231,
,,,,,,,,,,,,24,0,24,0,,,,,,,,,,,,,,,,,,,,,,,,,,,,,,,,,,,,,,,,,,,,,,,,,1157.5066592998337,None,,,,,,,,,,,,,,,,,,,,,,,,,,,,,,,,,,,,,,,,,,,,,,,,,,,,,,,,,trouble,169,25,sing,new,blue,1155.9652795998845,None,n,1155.9652795998845,None,"['n', 'n', 'return']","[1.0366421998478472, 1.1486190999858081, 1.5006136000156403]",1155.9652795998845,None,,,14,001,2023_Feb_27_1320,ExactRep-v3-final,2021.2.3,59.8840047059231,
,,,,,,,,,,,,25,0,25,0,,,,,,,,,,,,,,,,,,,,,,,,,,,,,,,,,,,,,,,,,,,,,,,,,1159.0748835999984,None,,,,,,,,,,,,,,,,,,,,,,,,,,,,,,,,,,,,,,,,,,,,,,,,,,,,,,,,,insect,54,26,silent,old,white,1158.0166251999326,None,n,1158.0166251999326,None,"['n', 'return']","[0.865043600089848, 1.0171976999845356]",1158.0166251999326,None,,,14,001,2023_Feb_27_1320,ExactRep-v3-final,2021.2.3,59.8840047059231,
,,,,,,,,,,,,26,0,26,0,,,,,,,,,,,,,,,,,,,,,,,,,,,,,,,,,,,,,,,,,,,,,,,,,1160.6100013998803,None,,,,,,,,,,,,,,,,,,,,,,,,,,,,,,,,,,,,,,,,,,,,,,,,,,,,,,,,,opinion,93,27,aloud,old,red,1159.5851402999833,None,y,1159.5851402999833,None,"['y', 'return']","[0.8326880999375135, 0.9927236998919398]",1159.5851402999833,None,,,14,001,2023_Feb_27_1320,ExactRep-v3-final,2021.2.3,59.8840047059231,
,,,,,,,,,,,,27,0,27,0,,,,,,,,,,,,,,,,,,,,,,,,,,,,,,,,,,,,,,,,,,,,,,,,,1162.1946630999446,None,,,,,,,,,,,,,,,,,,,,,,,,,,,,,,,,,,,,,,,,,,,,,,,,,,,,,,,,,clock,43,28,silent,old,white,1161.1197928998154,None,y,1161.1197928998154,None,"['y', 'return']","[0.882058700080961, 1.0419509999919683]",1161.1197928998154,None,,,14,001,2023_Feb_27_1320,ExactRep-v3-final,2021.2.3,59.8840047059231,
,,,,,,,,,,,,28,0,28,0,,,,,,,,,,,,,,,,,,,,,,,,,,,,,,,,,,,,,,,,,,,,,,,,,1163.5961502999999,None,,,,,,,,,,,,,,,,,,,,,,,,,,,,,,,,,,,,,,,,,,,,,,,,,,,,,,,,,hour,56,29,silent,old,white,1162.7048642998561,None,y,1162.7048642998561,None,"['y', 'return']","[0.6329463999718428, 0.8568965999875218]",1162.7048642998561,None,,,14,001,2023_Feb_27_1320,ExactRep-v3-final,2021.2.3,59.8840047059231,
,,,,,,,,,,,,29,0,29,0,,,,,,,,,,,,,,,,,,,,,,,,,,,,,,,,,,,,,,,,,,,,,,,,,1165.2312048999593,None,,,,,,,,,,,,,,,,,,,,,,,,,,,,,,,,,,,,,,,,,,,,,,,,,,,,,,,,,poet,6,30,sing,old,blue,1164.1116406999063,None,y,1164.1116406999063,None,"['y', 'return']","[0.8421554998494685, 1.0742225998546928]",1164.1116406999063,None,,,14,001,2023_Feb_27_1320,ExactRep-v3-final,2021.2.3,59.8840047059231,
,,,,,,,,,,,,30,0,30,0,,,,,,,,,,,,,,,,,,,,,,,,,,,,,,,,,,,,,,,,,,,,,,,,,1168.7679975999054,None,,,,,,,,,,,,,,,,,,,,,,,,,,,,,,,,,,,,,,,,,,,,,,,,,,,,,,,,,iron,171,31,sing,new,blue,1165.7400516998023,None,n,1165.7400516998023,None,"['n', 'return']","[2.717788100009784, 2.989797699963674]",1165.7400516998023,None,,,14,001,2023_Feb_27_1320,ExactRep-v3-final,2021.2.3,59.8840047059231,
,,,,,,,,,,,,31,0,31,0,,,,,,,,,,,,,,,,,,,,,,,,,,,,,,,,,,,,,,,,,,,,,,,,,1170.419680699939,None,,,,,,,,,,,,,,,,,,,,,,,,,,,,,,,,,,,,,,,,,,,,,,,,,,,,,,,,,fur,63,32,silent,old,white,1169.2753283998463,None,n,1169.2753283998463,None,"['n', 'return']","[0.958741300040856, 1.110474199987948]",1169.2753283998463,None,,,14,001,2023_Feb_27_1320,ExactRep-v3-final,2021.2.3,59.8840047059231,
,,,,,,,,,,,,32,0,32,0,,,,,,,,,,,,,,,,,,,,,,,,,,,,,,,,,,,,,,,,,,,,,,,,,1172.1880451999605,None,,,,,,,,,,,,,,,,,,,,,,,,,,,,,,,,,,,,,,,,,,,,,,,,,,,,,,,,,leader,203,33,sing,new,blue,1170.929104299983,None,n,1170.929104299983,None,"['n', 'return']","[1.00900820014067, 1.2167028000112623]",1170.929104299983,None,,,14,001,2023_Feb_27_1320,ExactRep-v3-final,2021.2.3,59.8840047059231,
,,,,,,,,,,,,33,0,33,0,,,,,,,,,,,,,,,,,,,,,,,,,,,,,,,,,,,,,,,,,,,,,,,,,1173.8731084999163,None,,,,,,,,,,,,,,,,,,,,,,,,,,,,,,,,,,,,,,,,,,,,,,,,,,,,,,,,,plain,32,34,sing,old,blue,1172.696126200026,None,y,1172.696126200026,None,"['y', 'return']","[1.0256290000397712, 1.1377403000369668]",1172.696126200026,None,,,14,001,2023_Feb_27_1320,ExactRep-v3-final,2021.2.3,59.8840047059231,
,,,,,,,,,,,,34,0,34,0,,,,,,,,,,,,,,,,,,,,,,,,,,,,,,,,,,,,,,,,,,,,,,,,,1175.5246586999856,None,,,,,,,,,,,,,,,,,,,,,,,,,,,,,,,,,,,,,,,,,,,,,,,,,,,,,,,,,victory,75,35,silent,old,white,1174.3806711998768,None,y,1174.3806711998768,None,"['y', 'return']","[0.9171380999032408, 1.1091392000671476]",1174.3806711998768,None,,,14,001,2023_Feb_27_1320,ExactRep-v3-final,2021.2.3,59.8840047059231,
,,,,,,,,,,,,35,0,35,0,,,,,,,,,,,,,,,,,,,,,,,,,,,,,,,,,,,,,,,,,,,,,,,,,1177.8770206999034,None,,,,,,,,,,,,,,,,,,,,,,,,,,,,,,,,,,,,,,,,,,,,,,,,,,,,,,,,,dust,40,36,silent,old,white,1176.03641709988,None,n,1176.03641709988,None,"['n', 'return']","[1.6133770998567343, 1.8055441998876631]",1176.03641709988,None,,,14,001,2023_Feb_27_1320,ExactRep-v3-final,2021.2.3,59.8840047059231,
,,,,,,,,,,,,36,0,36,0,,,,,,,,,,,,,,,,,,,,,,,,,,,,,,,,,,,,,,,,,,,,,,,,,1180.2962815999053,None,,,,,,,,,,,,,,,,,,,,,,,,,,,,,,,,,,,,,,,,,,,,,,,,,,,,,,,,,kiss,180,37,aloud,new,red,1178.3876869999804,None,n,1178.3876869999804,None,"['n', 'return']","[1.6540778998751193, 1.8701989999972284]",1178.3876869999804,None,,,14,001,2023_Feb_27_1320,ExactRep-v3-final,2021.2.3,59.8840047059231,
,,,,,,,,,,,,37,0,37,0,,,,,,,,,,,,,,,,,,,,,,,,,,,,,,,,,,,,,,,,,,,,,,,,,1181.9811281999573,None,,,,,,,,,,,,,,,,,,,,,,,,,,,,,,,,,,,,,,,,,,,,,,,,,,,,,,,,,girl,172,38,aloud,new,red,1180.800738999853,None,n,1180.800738999853,None,"['n', 'return']","[0.9851152999326587, 1.1375124999321997]",1180.800738999853,None,,,14,001,2023_Feb_27_1320,ExactRep-v3-final,2021.2.3,59.8840047059231,
,,,,,,,,,,,,38,0,38,0,,,,,,,,,,,,,,,,,,,,,,,,,,,,,,,,,,,,,,,,,,,,,,,,,1183.8665120999794,None,,,,,,,,,,,,,,,,,,,,,,,,,,,,,,,,,,,,,,,,,,,,,,,,,,,,,,,,,event,1,39,sing,old,blue,1182.495990099851,None,y,1182.495990099851,None,"['y', 'return']","[1.2179417998995632, 1.3298787998501211]",1182.495990099851,None,,,14,001,2023_Feb_27_1320,ExactRep-v3-final,2021.2.3,59.8840047059231,
,,,,,,,,,,,,39,0,39,0,,,,,,,,,,,,,,,,,,,,,,,,,,,,,,,,,,,,,,,,,,,,,,,,,1185.3177862998564,None,,,,,,,,,,,,,,,,,,,,,,,,,,,,,,,,,,,,,,,,,,,,,,,,,,,,,,,,,potato,35,40,sing,old,blue,1184.3828616000246,None,y,1184.3828616000246,None,"['y', 'return']","[0.7150326000992209, 0.8908999999985099]",1184.3828616000246,None,,,14,001,2023_Feb_27_1320,ExactRep-v3-final,2021.2.3,59.8840047059231,
,,,,,,,,,,,,40,0,40,0,,,,,,,,,,,,,,,,,,,,,,,,,,,,,,,,,,,,,,,,,,,,,,,,,1186.7694141999818,None,,,,,,,,,,,,,,,,,,,,,,,,,,,,,,,,,,,,,,,,,,,,,,,,,,,,,,,,,present,106,41,aloud,old,red,1185.836064899806,None,y,1185.836064899806,None,"['y', 'return']","[0.7419788001570851, 0.8858206002041698]",1185.836064899806,None,,,14,001,2023_Feb_27_1320,ExactRep-v3-final,2021.2.3,59.8840047059231,
,,,,,,,,,,,,41,0,41,0,,,,,,,,,,,,,,,,,,,,,,,,,,,,,,,,,,,,,,,,,,,,,,,,,1188.6878291999456,None,,,,,,,,,,,,,,,,,,,,,,,,,,,,,,,,,,,,,,,,,,,,,,,,,,,,,,,,,passion,154,42,silent,new,white,1187.2788848998025,None,n,1187.2788848998025,None,"['n', 'return']","[1.1951075000688434, 1.3629868999123573]",1187.2788848998025,None,,,14,001,2023_Feb_27_1320,ExactRep-v3-final,2021.2.3,59.8840047059231,
,,,,,,,,,,,,42,0,42,0,,,,,,,,,,,,,,,,,,,,,,,,,,,,,,,,,,,,,,,,,,,,,,,,,1190.7147691999562,None,,,,,,,,,,,,,,,,,,,,,,,,,,,,,,,,,,,,,,,,,,,,,,,,,,,,,,,,,method,44,43,silent,old,white,1189.2013995000161,None,y,1189.2013995000161,None,"['y', 'return']","[1.3044337001629174, 1.4405156001448631]",1189.2013995000161,None,,,14,001,2023_Feb_27_1320,ExactRep-v3-final,2021.2.3,59.8840047059231,
,,,,,,,,,,,,43,0,43,0,,,,,,,,,,,,,,,,,,,,,,,,,,,,,,,,,,,,,,,,,,,,,,,,,1192.2080180998892,None,,,,,,,,,,,,,,,,,,,,,,,,,,,,,,,,,,,,,,,,,,,,,,,,,,,,,,,,,world,47,44,silent,old,white,1191.2509769999888,None,y,1191.2509769999888,None,"['y', 'return']","[0.7829642998985946, 0.9111872999928892]",1191.2509769999888,None,,,14,001,2023_Feb_27_1320,ExactRep-v3-final,2021.2.3,59.8840047059231,
,,,,,,,,,,,,44,0,44,0,,,,,,,,,,,,,,,,,,,,,,,,,,,,,,,,,,,,,,,,,,,,,,,,,1193.8931120999623,None,,,,,,,,,,,,,,,,,,,,,,,,,,,,,,,,,,,,,,,,,,,,,,,,,,,,,,,,,arm,87,45,aloud,old,red,1192.7195134998765,None,y,1192.7195134998765,None,"['y', 'return']","[0.9222899999003857, 1.1302840998396277]",1192.7195134998765,None,,,14,001,2023_Feb_27_1320,ExactRep-v3-final,2021.2.3,59.8840047059231,
,,,,,,,,,,,,45,0,45,0,,,,,,,,,,,,,,,,,,,,,,,,,,,,,,,,,,,,,,,,,,,,,,,,,1195.5279953000136,None,,,,,,,,,,,,,,,,,,,,,,,,,,,,,,,,,,,,,,,,,,,,,,,,,,,,,,,,,boy,65,46,silent,old,white,1194.396027899813,None,n,1194.396027899813,None,"['n', 'return']","[0.9657764998264611, 1.085875399876386]",1194.396027899813,None,,,14,001,2023_Feb_27_1320,ExactRep-v3-final,2021.2.3,59.8840047059231,
,,,,,,,,,,,,46,0,46,0,,,,,,,,,,,,,,,,,,,,,,,,,,,,,,,,,,,,,,,,,,,,,,,,,1197.596838099882,None,,,,,,,,,,,,,,,,,,,,,,,,,,,,,,,,,,,,,,,,,,,,,,,,,,,,,,,,,cotton,138,47,silent,new,white,1196.0381740999874,None,n,1196.0381740999874,None,"['n', 'return']","[1.4197296001948416, 1.5237455000169575]",1196.0381740999874,None,,,14,001,2023_Feb_27_1320,ExactRep-v3-final,2021.2.3,59.8840047059231,
,,,,,,,,,,,,47,0,47,0,,,,,,,,,,,,,,,,,,,,,,,,,,,,,,,,,,,,,,,,,,,,,,,,,1199.648801199859,None,,,,,,,,,,,,,,,,,,,,,,,,,,,,,,,,,,,,,,,,,,,,,,,,,,,,,,,,,answer,62,48,silent,old,white,1198.1028791998979,None,y,1198.1028791998979,None,"['y', 'return']","[1.3710328000597656, 1.4992955001071095]",1198.1028791998979,None,,,14,001,2023_Feb_27_1320,ExactRep-v3-final,2021.2.3,59.8840047059231,
,,,,,,,,,,,,48,0,48,0,,,,,,,,,,,,,,,,,,,,,,,,,,,,,,,,,,,,,,,,,,,,,,,,,1201.5506636998616,None,,,,,,,,,,,,,,,,,,,,,,,,,,,,,,,,,,,,,,,,,,,,,,,,,,,,,,,,,bird,221,49,sing,new,blue,1200.1563798999414,None,n,1200.1563798999414,None,"['n', 'return']","[1.2054526000283659, 1.3494904001709074]",1200.1563798999414,None,,,14,001,2023_Feb_27_1320,ExactRep-v3-final,2021.2.3,59.8840047059231,
,,,,,,,,,,,,49,0,49,0,,,,,,,,,,,,,,,,,,,,,,,,,,,,,,,,,,,,,,,,,,,,,,,,,1203.4027567999437,None,,,,,,,,,,,,,,,,,,,,,,,,,,,,,,,,,,,,,,,,,,,,,,,,,,,,,,,,,doctor,214,50,aloud,new,red,1202.0620334998239,None,n,1202.0620334998239,None,"['n', 'return']","[1.027898599859327, 1.2999172999989241]",1202.0620334998239,None,,,14,001,2023_Feb_27_1320,ExactRep-v3-final,2021.2.3,59.8840047059231,
,,,,,,,,,,,,50,0,50,0,,,,,,,,,,,,,,,,,,,,,,,,,,,,,,,,,,,,,,,,,,,,,,,,,1205.4047061998863,None,,,,,,,,,,,,,,,,,,,,,,,,,,,,,,,,,,,,,,,,,,,,,,,,,,,,,,,,,mercy,159,51,silent,new,white,1203.9125893998425,None,n,1203.9125893998425,None,"['n', 'return']","[1.321247700136155, 1.457242000149563]",1203.9125893998425,None,,,14,001,2023_Feb_27_1320,ExactRep-v3-final,2021.2.3,59.8840047059231,
,,,,,,,,,,,,51,0,51,0,,,,,,,,,,,,,,,,,,,,,,,,,,,,,,,,,,,,,,,,,,,,,,,,,1207.8071142998524,None,,,,,,,,,,,,,,,,,,,,,,,,,,,,,,,,,,,,,,,,,,,,,,,,,,,,,,,,,garden,145,52,silent,new,white,1205.9138676999137,None,y,1205.9138676999137,None,"['y', 'return']","[1.6080732999835163, 1.8480701001826674]",1205.9138676999137,None,,,14,001,2023_Feb_27_1320,ExactRep-v3-final,2021.2.3,59.8840047059231,
,,,,,,,,,,,,52,0,52,0,,,,,,,,,,,,,,,,,,,,,,,,,,,,,,,,,,,,,,,,,,,,,,,,,1209.6089184999,None,,,,,,,,,,,,,,,,,,,,,,,,,,,,,,,,,,,,,,,,,,,,,,,,,,,,,,,,,friend,17,53,sing,old,blue,1208.3108449999709,None,y,1208.3108449999709,None,"['y', 'return']","[0.7870332999154925, 1.2511714999563992]",1208.3108449999709,None,,,14,001,2023_Feb_27_1320,ExactRep-v3-final,2021.2.3,59.8840047059231,
,,,,,,,,,,,,53,0,53,0,,,,,,,,,,,,,,,,,,,,,,,,,,,,,,,,,,,,,,,,,,,,,,,,,1211.0602062998805,None,,,,,,,,,,,,,,,,,,,,,,,,,,,,,,,,,,,,,,,,,,,,,,,,,,,,,,,,,plant,81,54,aloud,old,red,1210.124872099841,None,y,1210.124872099841,None,"['y', 'return']","[0.6370212999172509, 0.9009775000158697]",1210.124872099841,None,,,14,001,2023_Feb_27_1320,ExactRep-v3-final,2021.2.3,59.8840047059231,
,,,,,,,,,,,,54,0,54,0,,,,,,,,,,,,,,,,,,,,,,,,,,,,,,,,,,,,,,,,,,,,,,,,,1212.945608699927,None,,,,,,,,,,,,,,,,,,,,,,,,,,,,,,,,,,,,,,,,,,,,,,,,,,,,,,,,,air,123,55,silent,new,white,1211.5698865000159,None,n,1211.5698865000159,None,"['n', 'return']","[1.1121468998026103, 1.3279661999549717]",1211.5698865000159,None,,,14,001,2023_Feb_27_1320,ExactRep-v3-final,2021.2.3,59.8840047059231,
,,,,,,,,,,,,55,0,55,0,,,,,,,,,,,,,,,,,,,,,,,,,,,,,,,,,,,,,,,,,,,,,,,,,1214.4636124998797,None,,,,,,,,,,,,,,,,,,,,,,,,,,,,,,,,,,,,,,,,,,,,,,,,,,,,,,,,,market,64,56,silent,old,white,1213.4580701999366,None,y,1213.4580701999366,None,"['y', 'return']","[0.8317787998821586, 0.9678807999007404]",1213.4580701999366,None,,,14,001,2023_Feb_27_1320,ExactRep-v3-final,2021.2.3,59.8840047059231,
,,,,,,,,,,,,56,0,56,0,,,,,,,,,,,,,,,,,,,,,,,,,,,,,,,,,,,,,,,,,,,,,,,,,1216.7158919000067,None,,,,,,,,,,,,,,,,,,,,,,,,,,,,,,,,,,,,,,,,,,,,,,,,,,,,,,,,,advice,186,57,aloud,new,red,1214.9750518999062,None,n,1214.9750518999062,None,"['n', 'return']","[1.4269449999555945, 1.698904399992898]",1214.9750518999062,None,,,14,001,2023_Feb_27_1320,ExactRep-v3-final,2021.2.3,59.8840047059231,
,,,,,,,,,,,,57,0,57,0,,,,,,,,,,,,,,,,,,,,,,,,,,,,,,,,,,,,,,,,,,,,,,,,,1219.2016779999249,None,,,,,,,,,,,,,,,,,,,,,,,,,,,,,,,,,,,,,,,,,,,,,,,,,,,,,,,,,month,213,58,sing,new,blue,1217.2255939999595,None,y,1217.2255939999595,None,"['y', 'return']","[1.8242677999660373, 1.9444832000881433]",1217.2255939999595,None,,,14,001,2023_Feb_27_1320,ExactRep-v3-final,2021.2.3,59.8840047059231,
,,,,,,,,,,,,58,0,58,0,,,,,,,,,,,,,,,,,,,,,,,,,,,,,,,,,,,,,,,,,,,,,,,,,1221.1537352998275,None,,,,,,,,,,,,,,,,,,,,,,,,,,,,,,,,,,,,,,,,,,,,,,,,,,,,,,,,,crime,181,59,sing,new,blue,1219.7132753999904,None,n,1219.7132753999904,None,"['n', 'return']","[1.2489607001189142, 1.3927911000791937]",1219.7132753999904,None,,,14,001,2023_Feb_27_1320,ExactRep-v3-final,2021.2.3,59.8840047059231,
,,,,,,,,,,,,59,0,59,0,,,,,,,,,,,,,,,,,,,,,,,,,,,,,,,,,,,,,,,,,,,,,,,,,1222.8721860998776,None,,,,,,,,,,,,,,,,,,,,,,,,,,,,,,,,,,,,,,,,,,,,,,,,,,,,,,,,,square,12,60,sing,old,blue,1221.6640568999574,None,n,1221.6640568999574,None,"['n', 'return']","[0.8978815998416394, 1.1619507998693734]",1221.6640568999574,None,,,14,001,2023_Feb_27_1320,ExactRep-v3-final,2021.2.3,59.8840047059231,
,,,,,,,,,,,,60,0,60,0,,,,,,,,,,,,,,,,,,,,,,,,,,,,,,,,,,,,,,,,,,,,,,,,,1225.6080889999866,None,,,,,,,,,,,,,,,,,,,,,,,,,,,,,,,,,,,,,,,,,,,,,,,,,,,,,,,,,ocean,163,61,sing,new,blue,1223.3770045000128,None,n,1223.3770045000128,None,"['n', 'return']","[2.0089048999361694, 2.185114299878478]",1223.3770045000128,None,,,14,001,2023_Feb_27_1320,ExactRep-v3-final,2021.2.3,59.8840047059231,
,,,,,,,,,,,,61,0,61,0,,,,,,,,,,,,,,,,,,,,,,,,,,,,,,,,,,,,,,,,,,,,,,,,,1227.2431171999779,None,,,,,,,,,,,,,,,,,,,,,,,,,,,,,,,,,,,,,,,,,,,,,,,,,,,,,,,,,thought,31,62,sing,old,blue,1226.125957999844,None,y,1226.125957999844,None,"['y', 'return']","[0.9079282998573035, 1.0759638999588788]",1226.125957999844,None,,,14,001,2023_Feb_27_1320,ExactRep-v3-final,2021.2.3,59.8840047059231,
,,,,,,,,,,,,62,0,62,0,,,,,,,,,,,,,,,,,,,,,,,,,,,,,,,,,,,,,,,,,,,,,,,,,1228.6278356998228,None,,,,,,,,,,,,,,,,,,,,,,,,,,,,,,,,,,,,,,,,,,,,,,,,,,,,,,,,,sky,22,63,sing,old,blue,1227.7607082999311,None,y,1227.7607082999311,None,"['y', 'return']","[0.6893166999798268, 0.8250495998654515]",1227.7607082999311,None,,,14,001,2023_Feb_27_1320,ExactRep-v3-final,2021.2.3,59.8840047059231,
,,,,,,,,,,,,63,0,63,0,,,,,,,,,,,,,,,,,,,,,,,,,,,,,,,,,,,,,,,,,,,,,,,,,1229.8792198998854,None,,,,,,,,,,,,,,,,,,,,,,,,,,,,,,,,,,,,,,,,,,,,,,,,,,,,,,,,,brain,111,64,aloud,old,red,1229.1340063998941,None,y,1229.1340063998941,None,"['y', 'return']","[0.47588260006159544, 0.7079137999098748]",1229.1340063998941,None,,,14,001,2023_Feb_27_1320,ExactRep-v3-final,2021.2.3,59.8840047059231,
,,,,,,,,,,,,64,0,64,0,,,,,,,,,,,,,,,,,,,,,,,,,,,,,,,,,,,,,,,,,,,,,,,,,1232.0979871000163,None,,,,,,,,,,,,,,,,,,,,,,,,,,,,,,,,,,,,,,,,,,,,,,,,,,,,,,,,,humour,153,65,silent,new,white,1230.3797112999018,None,y,1230.3797112999018,None,"['y', 'return']","[0.5743879000656307, 1.686259999871254]",1230.3797112999018,None,,,14,001,2023_Feb_27_1320,ExactRep-v3-final,2021.2.3,59.8840047059231,
,,,,,,,,,,,,65,0,65,0,,,,,,,,,,,,,,,,,,,,,,,,,,,,,,,,,,,,,,,,,,,,,,,,,1234.4170615000185,None,,,,,,,,,,,,,,,,,,,,,,,,,,,,,,,,,,,,,,,,,,,,,,,,,,,,,,,,,sea,94,66,aloud,old,red,1232.6068404999096,None,y,1232.6068404999096,None,"['y', 'return']","[1.515252800192684, 1.763154200045392]",1232.6068404999096,None,,,14,001,2023_Feb_27_1320,ExactRep-v3-final,2021.2.3,59.8840047059231,
,,,,,,,,,,,,66,0,66,0,,,,,,,,,,,,,,,,,,,,,,,,,,,,,,,,,,,,,,,,,,,,,,,,,1236.3522401999217,None,,,,,,,,,,,,,,,,,,,,,,,,,,,,,,,,,,,,,,,,,,,,,,,,,,,,,,,,,product,21,67,sing,old,blue,1234.919894099934,None,y,1234.919894099934,None,"['y', 'return']","[0.9861447000876069, 1.394119800068438]",1234.919894099934,None,,,14,001,2023_Feb_27_1320,ExactRep-v3-final,2021.2.3,59.8840047059231,
,,,,,,,,,,,,67,0,67,0,,,,,,,,,,,,,,,,,,,,,,,,,,,,,,,,,,,,,,,,,,,,,,,,,1238.2039828000125,None,,,,,,,,,,,,,,,,,,,,,,,,,,,,,,,,,,,,,,,,,,,,,,,,,,,,,,,,,shore,189,68,sing,new,blue,1236.8644955998752,None,y,1236.8644955998752,None,"['y', 'return']","[1.2015374000184238, 1.3054602998308837]",1236.8644955998752,None,,,14,001,2023_Feb_27_1320,ExactRep-v3-final,2021.2.3,59.8840047059231,
,,,,,,,,,,,,68,0,68,0,,,,,,,,,,,,,,,,,,,,,,,,,,,,,,,,,,,,,,,,,,,,,,,,,1239.8889772000257,None,,,,,,,,,,,,,,,,,,,,,,,,,,,,,,,,,,,,,,,,,,,,,,,,,,,,,,,,,village,151,69,silent,new,white,1238.7121886999812,None,n,1238.7121886999812,None,"['n', 'return']","[0.8656398998573422, 1.129727799911052]",1238.7121886999812,None,,,14,001,2023_Feb_27_1320,ExactRep-v3-final,2021.2.3,59.8840047059231,
,,,,,,,,,,,,69,0,69,0,,,,,,,,,,,,,,,,,,,,,,,,,,,,,,,,,,,,,,,,,,,,,,,,,1241.290441500023,None,,,,,,,,,,,,,,,,,,,,,,,,,,,,,,,,,,,,,,,,,,,,,,,,,,,,,,,,,flesh,207,70,sing,new,blue,1240.3895741000306,None,n,1240.3895741000306,None,"['n', 'return']","[0.7163506001234055, 0.8685614999849349]",1240.3895741000306,None,,,14,001,2023_Feb_27_1320,ExactRep-v3-final,2021.2.3,59.8840047059231,
,,,,,,,,,,,,70,0,70,0,,,,,,,,,,,,,,,,,,,,,,,,,,,,,,,,,,,,,,,,,,,,,,,,,1243.15896219993,None,,,,,,,,,,,,,,,,,,,,,,,,,,,,,,,,,,,,,,,,,,,,,,,,,,,,,,,,,vision,176,71,aloud,new,red,1241.7910393998027,None,y,1241.7910393998027,None,"['y', 'return']","[1.2188661000691354, 1.3308947999030352]",1241.7910393998027,None,,,14,001,2023_Feb_27_1320,ExactRep-v3-final,2021.2.3,59.8840047059231,
,,,,,,,,,,,,71,0,71,0,,,,,,,,,,,,,,,,,,,,,,,,,,,,,,,,,,,,,,,,,,,,,,,,,1245.4947102000006,None,,,,,,,,,,,,,,,,,,,,,,,,,,,,,,,,,,,,,,,,,,,,,,,,,,,,,,,,,door,45,72,silent,old,white,1243.661860199878,None,y,1243.661860199878,None,"['y', 'return']","[1.4440881998743862, 1.788092700066045]",1243.661860199878,None,,,14,001,2023_Feb_27_1320,ExactRep-v3-final,2021.2.3,59.8840047059231,
,,,,,,,,,,,,72,0,72,0,,,,,,,,,,,,,,,,,,,,,,,,,,,,,,,,,,,,,,,,,,,,,,,,,1247.2964211998042,None,,,,,,,,,,,,,,,,,,,,,,,,,,,,,,,,,,,,,,,,,,,,,,,,,,,,,,,,,corn,128,73,silent,new,white,1246.012129599927,None,n,1246.012129599927,None,"['n', 'return']","[1.0298477001488209, 1.237823500065133]",1246.012129599927,None,,,14,001,2023_Feb_27_1320,ExactRep-v3-final,2021.2.3,59.8840047059231,
,,,,,,,,,,,,73,0,73,0,,,,,,,,,,,,,,,,,,,,,,,,,,,,,,,,,,,,,,,,,,,,,,,,,1250.0492181999143,None,,,,,,,,,,,,,,,,,,,,,,,,,,,,,,,,,,,,,,,,,,,,,,,,,,,,,,,,,chance,103,74,aloud,old,red,1247.8172795998398,None,y,1247.8172795998398,None,"['y', 'return']","[2.040606499882415, 2.184831799939275]",1247.8172795998398,None,,,14,001,2023_Feb_27_1320,ExactRep-v3-final,2021.2.3,59.8840047059231,
,,,,,,,,,,,,74,0,74,0,,,,,,,,,,,,,,,,,,,,,,,,,,,,,,,,,,,,,,,,,,,,,,,,,1252.78542249999,None,,,,,,,,,,,,,,,,,,,,,,,,,,,,,,,,,,,,,,,,,,,,,,,,,,,,,,,,,letter,183,75,sing,new,blue,1250.5619442998432,None,y,1250.5619442998432,None,"['y', 'return']","[1.6320503000169992, 2.184011499863118]",1250.5619442998432,None,,,14,001,2023_Feb_27_1320,ExactRep-v3-final,2021.2.3,59.8840047059231,
,,,,,,,,,,,,75,0,75,0,,,,,,,,,,,,,,,,,,,,,,,,,,,,,,,,,,,,,,,,,,,,,,,,,1254.3367967999075,None,,,,,,,,,,,,,,,,,,,,,,,,,,,,,,,,,,,,,,,,,,,,,,,,,,,,,,,,,temple,107,76,aloud,old,red,1253.2979286999907,None,y,1253.2979286999907,None,"['y', 'return']","[0.7840609999839216, 0.9999973999802023]",1253.2979286999907,None,,,14,001,2023_Feb_27_1320,ExactRep-v3-final,2021.2.3,59.8840047059231,
,,,,,,,,,,,,76,0,76,0,,,,,,,,,,,,,,,,,,,,,,,,,,,,,,,,,,,,,,,,,,,,,,,,,1256.1221845999826,None,,,,,,,,,,,,,,,,,,,,,,,,,,,,,,,,,,,,,,,,,,,,,,,,,,,,,,,,,science,144,77,silent,new,white,1254.8468535998836,None,y,1254.8468535998836,None,"['y', 'return']","[1.115166800096631, 1.2431298000738025]",1254.8468535998836,None,,,14,001,2023_Feb_27_1320,ExactRep-v3-final,2021.2.3,59.8840047059231,
,,,,,,,,,,,,77,0,77,0,,,,,,,,,,,,,,,,,,,,,,,,,,,,,,,,,,,,,,,,,,,,,,,,,1257.8070260998793,None,,,,,,,,,,,,,,,,,,,,,,,,,,,,,,,,,,,,,,,,,,,,,,,,,,,,,,,,,fire,124,78,silent,new,white,1256.6340397000313,None,y,1256.6340397000313,None,"['y', 'return']","[1.1038647999521345, 1.1439451000187546]",1256.6340397000313,None,,,14,001,2023_Feb_27_1320,ExactRep-v3-final,2021.2.3,59.8840047059231,
,,,,,,,,,,,,78,0,78,0,,,,,,,,,,,,,,,,,,,,,,,,,,,,,,,,,,,,,,,,,,,,,,,,,1260.5265807998367,None,,,,,,,,,,,,,,,,,,,,,,,,,,,,,,,,,,,,,,,,,,,,,,,,,,,,,,,,,house,211,79,sing,new,blue,1258.3159068999812,None,y,1258.3159068999812,None,"['y', 'return']","[1.8542243000119925, 2.1660351001191884]",1258.3159068999812,None,,,14,001,2023_Feb_27_1320,ExactRep-v3-final,2021.2.3,59.8840047059231,
,,,,,,,,,,,,79,0,79,0,,,,,,,,,,,,,,,,,,,,,,,,,,,,,,,,,,,,,,,,,,,,,,,,,1262.9122760999016,None,,,,,,,,,,,,,,,,,,,,,,,,,,,,,,,,,,,,,,,,,,,,,,,,,,,,,,,,,gift,67,80,silent,old,white,1261.0425922998693,None,y,1261.0425922998693,None,"['y', 'return']","[1.671422699932009, 1.8315884999465197]",1261.0425922998693,None,,,14,001,2023_Feb_27_1320,ExactRep-v3-final,2021.2.3,59.8840047059231,
,,,,,,,,,,,,80,0,80,0,,,,,,,,,,,,,,,,,,,,,,,,,,,,,,,,,,,,,,,,,,,,,,,,,1264.6471704998985,None,,,,,,,,,,,,,,,,,,,,,,,,,,,,,,,,,,,,,,,,,,,,,,,,,,,,,,,,,artist,112,81,aloud,old,red,1263.4220475999173,None,y,1263.4220475999173,None,"['y', 'return']","[1.0439228999894112, 1.1801246001850814]",1263.4220475999173,None,,,14,001,2023_Feb_27_1320,ExactRep-v3-final,2021.2.3,59.8840047059231,
,,,,,,,,,,,,81,0,81,0,,,,,,,,,,,,,,,,,,,,,,,,,,,,,,,,,,,,,,,,,,,,,,,,,1268.7179366999771,None,,,,,,,,,,,,,,,,,,,,,,,,,,,,,,,,,,,,,,,,,,,,,,,,,,,,,,,,,disease,149,82,silent,new,white,1265.1477381999139,None,n,1265.1477381999139,None,"['n', 'return']","[2.6301710000261664, 3.5261214999482036]",1265.1477381999139,None,,,14,001,2023_Feb_27_1320,ExactRep-v3-final,2021.2.3,59.8840047059231,
,,,,,,,,,,,,82,0,82,0,,,,,,,,,,,,,,,,,,,,,,,,,,,,,,,,,,,,,,,,,,,,,,,,,1270.6698784998152,None,,,,,,,,,,,,,,,,,,,,,,,,,,,,,,,,,,,,,,,,,,,,,,,,,,,,,,,,,health,8,83,sing,old,blue,1269.2302893998567,None,y,1269.2302893998567,None,"['y', 'return']","[1.1715951999649405, 1.4037525998428464]",1269.2302893998567,None,,,14,001,2023_Feb_27_1320,ExactRep-v3-final,2021.2.3,59.8840047059231,
,,,,,,,,,,,,83,0,83,0,,,,,,,,,,,,,,,,,,,,,,,,,,,,,,,,,,,,,,,,,,,,,,,,,1272.0212091000285,None,,,,,,,,,,,,,,,,,,,,,,,,,,,,,,,,,,,,,,,,,,,,,,,,,,,,,,,,,child,20,84,sing,old,blue,1271.1737789998297,None,y,1271.1737789998297,None,"['y', 'return']","[0.6522468000184745, 0.8042954001575708]",1271.1737789998297,None,,,14,001,2023_Feb_27_1320,ExactRep-v3-final,2021.2.3,59.8840047059231,
,,,,,,,,,,,,84,0,84,0,,,,,,,,,,,,,,,,,,,,,,,,,,,,,,,,,,,,,,,,,,,,,,,,,1274.1567375999875,None,,,,,,,,,,,,,,,,,,,,,,,,,,,,,,,,,,,,,,,,,,,,,,,,,,,,,,,,,duty,157,85,silent,new,white,1272.521747799823,None,n,1272.521747799823,None,"['n', 'return']","[1.488336900016293, 1.5923028998076916]",1272.521747799823,None,,,14,001,2023_Feb_27_1320,ExactRep-v3-final,2021.2.3,59.8840047059231,
,,,,,,,,,,,,85,0,85,0,,,,,,,,,,,,,,,,,,,,,,,,,,,,,,,,,,,,,,,,,,,,,,,,,1276.091992399888,None,,,,,,,,,,,,,,,,,,,,,,,,,,,,,,,,,,,,,,,,,,,,,,,,,,,,,,,,,chair,235,86,sing,new,blue,1274.6662931998726,None,n,1274.6662931998726,None,"['n', 'return']","[1.223721600137651, 1.3917932000476867]",1274.6662931998726,None,,,14,001,2023_Feb_27_1320,ExactRep-v3-final,2021.2.3,59.8840047059231,
,,,,,,,,,,,,86,0,86,0,,,,,,,,,,,,,,,,,,,,,,,,,,,,,,,,,,,,,,,,,,,,,,,,,1278.093989299843,None,,,,,,,,,,,,,,,,,,,,,,,,,,,,,,,,,,,,,,,,,,,,,,,,,,,,,,,,,flood,10,87,sing,old,blue,1276.6068465998396,None,y,1276.6068465998396,None,"['y', 'return']","[1.1390175998676568, 1.4430085998028517]",1276.6068465998396,None,,,14,001,2023_Feb_27_1320,ExactRep-v3-final,2021.2.3,59.8840047059231,
,,,,,,,,,,,,87,0,87,0,,,,,,,,,,,,,,,,,,,,,,,,,,,,,,,,,,,,,,,,,,,,,,,,,1280.7966855999548,None,,,,,,,,,,,,,,,,,,,,,,,,,,,,,,,,,,,,,,,,,,,,,,,,,,,,,,,,,prayer,150,88,silent,new,white,1278.594504099805,None,y,1278.594504099805,None,"['y', 'return']","[0.6955191001761705, 2.1674575000070035]",1278.594504099805,None,,,14,001,2023_Feb_27_1320,ExactRep-v3-final,2021.2.3,59.8840047059231,
,,,,,,,,,,,,88,0,88,0,,,,,,,,,,,,,,,,,,,,,,,,,,,,,,,,,,,,,,,,,,,,,,,,,1282.2651060000062,None,,,,,,,,,,,,,,,,,,,,,,,,,,,,,,,,,,,,,,,,,,,,,,,,,,,,,,,,,seat,220,89,aloud,new,red,1281.3079405999742,None,y,1281.3079405999742,None,"['y', 'return']","[0.7420536000281572, 0.9100295999087393]",1281.3079405999742,None,,,14,001,2023_Feb_27_1320,ExactRep-v3-final,2021.2.3,59.8840047059231,
,,,,,,,,,,,,89,0,89,0,,,,,,,,,,,,,,,,,,,,,,,,,,,,,,,,,,,,,,,,,,,,,,,,,1283.983220399823,None,,,,,,,,,,,,,,,,,,,,,,,,,,,,,,,,,,,,,,,,,,,,,,,,,,,,,,,,,queen,206,90,aloud,new,red,1282.773164599901,None,n,1282.773164599901,None,"['n', 'return']","[0.9566832999698818, 1.1648017999250442]",1282.773164599901,None,,,14,001,2023_Feb_27_1320,ExactRep-v3-final,2021.2.3,59.8840047059231,
,,,,,,,,,,,,90,0,90,0,,,,,,,,,,,,,,,,,,,,,,,,,,,,,,,,,,,,,,,,,,,,,,,,,1285.7349743999075,None,,,,,,,,,,,,,,,,,,,,,,,,,,,,,,,,,,,,,,,,,,,,,,,,,,,,,,,,,pole,18,91,sing,old,blue,1284.493433999829,None,y,1284.493433999829,None,"['y', 'return']","[0.99670680006966, 1.2044810999650508]",1284.493433999829,None,,,14,001,2023_Feb_27_1320,ExactRep-v3-final,2021.2.3,59.8840047059231,
,,,,,,,,,,,,91,0,91,0,,,,,,,,,,,,,,,,,,,,,,,,,,,,,,,,,,,,,,,,,,,,,,,,,1287.6369687998667,None,,,,,,,,,,,,,,,,,,,,,,,,,,,,,,,,,,,,,,,,,,,,,,,,,,,,,,,,,history,69,92,silent,old,white,1286.2446939998772,None,y,1286.2446939998772,None,"['y', 'return']","[1.085341400001198, 1.3492519999854267]",1286.2446939998772,None,,,14,001,2023_Feb_27_1320,ExactRep-v3-final,2021.2.3,59.8840047059231,
,,,,,,,,,,,,92,0,92,0,,,,,,,,,,,,,,,,,,,,,,,,,,,,,,,,,,,,,,,,,,,,,,,,,1289.3719084998593,None,,,,,,,,,,,,,,,,,,,,,,,,,,,,,,,,,,,,,,,,,,,,,,,,,,,,,,,,,mother,199,93,sing,new,blue,1288.1395785999484,None,y,1288.1395785999484,None,"['y', 'return']","[0.8785094998311251, 1.1903717999812216]",1288.1395785999484,None,,,14,001,2023_Feb_27_1320,ExactRep-v3-final,2021.2.3,59.8840047059231,
,,,,,,,,,,,,93,0,93,0,,,,,,,,,,,,,,,,,,,,,,,,,,,,,,,,,,,,,,,,,,,,,,,,,1291.2237692999188,None,,,,,,,,,,,,,,,,,,,,,,,,,,,,,,,,,,,,,,,,,,,,,,,,,,,,,,,,,journal,46,94,silent,old,white,1289.883278499823,None,y,1289.883278499823,None,"['y', 'return']","[1.1586909000761807, 1.3027747001033276]",1289.883278499823,None,,,14,001,2023_Feb_27_1320,ExactRep-v3-final,2021.2.3,59.8840047059231,
,,,,,,,,,,,,94,0,94,0,,,,,,,,,,,,,,,,,,,,,,,,,,,,,,,,,,,,,,,,,,,,,,,,,1293.1257733998355,None,,,,,,,,,,,,,,,,,,,,,,,,,,,,,,,,,,,,,,,,,,,,,,,,,,,,,,,,,cottage,238,95,aloud,new,red,1291.7368281998206,None,n,1291.7368281998206,None,"['n', 'return']","[1.1770838999655098, 1.3450587999541312]",1291.7368281998206,None,,,14,001,2023_Feb_27_1320,ExactRep-v3-final,2021.2.3,59.8840047059231,
,,,,,,,,,,,,95,0,95,0,,,,,,,,,,,,,,,,,,,,,,,,,,,,,,,,,,,,,,,,,,,,,,,,,1294.643751699943,None,,,,,,,,,,,,,,,,,,,,,,,,,,,,,,,,,,,,,,,,,,,,,,,,,,,,,,,,,series,91,96,aloud,old,red,1293.6355580999516,None,y,1293.6355580999516,None,"['y', 'return']","[0.8143239999189973, 0.9743973999284208]",1293.6355580999516,None,,,14,001,2023_Feb_27_1320,ExactRep-v3-final,2021.2.3,59.8840047059231,
,,,,,,,,,,,,96,0,96,0,,,,,,,,,,,,,,,,,,,,,,,,,,,,,,,,,,,,,,,,,,,,,,,,,1297.7635889998637,None,,,,,,,,,,,,,,,,,,,,,,,,,,,,,,,,,,,,,,,,,,,,,,,,,,,,,,,,,diamond,155,97,silent,new,white,1295.1462530998979,None,n,1295.1462530998979,None,"['n', 'return']","[2.4477441997732967, 2.5838073999620974]",1295.1462530998979,None,,,14,001,2023_Feb_27_1320,ExactRep-v3-final,2021.2.3,59.8840047059231,
,,,,,,,,,,,,97,0,97,0,,,,,,,,,,,,,,,,,,,,,,,,,,,,,,,,,,,,,,,,,,,,,,,,,1300.8168008998036,None,,,,,,,,,,,,,,,,,,,,,,,,,,,,,,,,,,,,,,,,,,,,,,,,,,,,,,,,,factory,194,98,aloud,new,red,1298.2644060000312,None,n,1298.2644060000312,None,"['n', 'return']","[1.1216414000373334, 2.505555300042033]",1298.2644060000312,None,,,14,001,2023_Feb_27_1320,ExactRep-v3-final,2021.2.3,59.8840047059231,
,,,,,,,,,,,,98,0,98,0,,,,,,,,,,,,,,,,,,,,,,,,,,,,,,,,,,,,,,,,,,,,,,,,,1302.568384199869,None,,,,,,,,,,,,,,,,,,,,,,,,,,,,,,,,,,,,,,,,,,,,,,,,,,,,,,,,,book,164,99,aloud,new,red,1301.3285248999018,None,y,1301.3285248999018,None,"['y', 'return']","[1.0334916999563575, 1.1934714999515563]",1301.3285248999018,None,,,14,001,2023_Feb_27_1320,ExactRep-v3-final,2021.2.3,59.8840047059231,
,,,,,,,,,,,,99,0,99,0,,,,,,,,,,,,,,,,,,,,,,,,,,,,,,,,,,,,,,,,,,,,,,,,,1304.420453300001,None,,,,,,,,,,,,,,,,,,,,,,,,,,,,,,,,,,,,,,,,,,,,,,,,,,,,,,,,,safety,209,100,sing,new,blue,1303.0754046998918,None,n,1303.0754046998918,None,"['n', 'return']","[1.1746601997874677, 1.3105767997913063]",1303.0754046998918,None,,,14,001,2023_Feb_27_1320,ExactRep-v3-final,2021.2.3,59.8840047059231,
,,,,,,,,,,,,100,0,100,0,,,,,,,,,,,,,,,,,,,,,,,,,,,,,,,,,,,,,,,,,,,,,,,,,1306.3057036998216,None,,,,,,,,,,,,,,,,,,,,,,,,,,,,,,,,,,,,,,,,,,,,,,,,,,,,,,,,,green,126,101,silent,new,white,1304.9302188998554,None,n,1304.9302188998554,None,"['n', 'return']","[1.1519136000424623, 1.3281324999406934]",1304.9302188998554,None,,,14,001,2023_Feb_27_1320,ExactRep-v3-final,2021.2.3,59.8840047059231,
,,,,,,,,,,,,101,0,101,0,,,,,,,,,,,,,,,,,,,,,,,,,,,,,,,,,,,,,,,,,,,,,,,,,1307.8070294000208,None,,,,,,,,,,,,,,,,,,,,,,,,,,,,,,,,,,,,,,,,,,,,,,,,,,,,,,,,,virtue,231,102,sing,new,blue,1306.8179009000305,None,n,1306.8179009000305,None,"['n', 'return']","[0.768135900143534, 0.9523279001004994]",1306.8179009000305,None,,,14,001,2023_Feb_27_1320,ExactRep-v3-final,2021.2.3,59.8840047059231,
,,,,,,,,,,,,102,0,102,0,,,,,,,,,,,,,,,,,,,,,,,,,,,,,,,,,,,,,,,,,,,,,,,,,1309.6254477999173,None,,,,,,,,,,,,,,,,,,,,,,,,,,,,,,,,,,,,,,,,,,,,,,,,,,,,,,,,,doll,41,103,silent,old,white,1308.3088459998835,None,y,1308.3088459998835,None,"['y', 'return']","[1.141128299990669, 1.2771642999723554]",1308.3088459998835,None,,,14,001,2023_Feb_27_1320,ExactRep-v3-final,2021.2.3,59.8840047059231,
,,,,,,,,,,,,103,0,103,0,,,,,,,,,,,,,,,,,,,,,,,,,,,,,,,,,,,,,,,,,,,,,,,,,1311.1604900998063,None,,,,,,,,,,,,,,,,,,,,,,,,,,,,,,,,,,,,,,,,,,,,,,,,,,,,,,,,,dawn,26,104,sing,old,blue,1310.1351431999356,None,y,1310.1351431999356,None,"['y', 'return']","[0.6988843998406082, 0.9868806998711079]",1310.1351431999356,None,,,14,001,2023_Feb_27_1320,ExactRep-v3-final,2021.2.3,59.8840047059231,
,,,,,,,,,,,,104,0,104,0,,,,,,,,,,,,,,,,,,,,,,,,,,,,,,,,,,,,,,,,,,,,,,,,,1312.795273100026,None,,,,,,,,,,,,,,,,,,,,,,,,,,,,,,,,,,,,,,,,,,,,,,,,,,,,,,,,,star,102,105,aloud,old,red,1311.6695105999243,None,y,1311.6695105999243,None,"['y', 'return']","[0.7884005999658257, 1.0844801000785083]",1311.6695105999243,None,,,14,001,2023_Feb_27_1320,ExactRep-v3-final,2021.2.3,59.8840047059231,
,,,,,,,,,,,,105,0,105,0,,,,,,,,,,,,,,,,,,,,,,,,,,,,,,,,,,,,,,,,,,,,,,,,,1314.4303150998894,None,,,,,,,,,,,,,,,,,,,,,,,,,,,,,,,,,,,,,,,,,,,,,,,,,,,,,,,,,engine,115,106,aloud,old,red,1313.3067254000343,None,y,1313.3067254000343,None,"['y', 'return']","[0.7753066001459956, 1.0872766999527812]",1313.3067254000343,None,,,14,001,2023_Feb_27_1320,ExactRep-v3-final,2021.2.3,59.8840047059231,
,,,,,,,,,,,,106,0,106,0,,,,,,,,,,,,,,,,,,,,,,,,,,,,,,,,,,,,,,,,,,,,,,,,,1316.1319577000104,None,,,,,,,,,,,,,,,,,,,,,,,,,,,,,,,,,,,,,,,,,,,,,,,,,,,,,,,,,form,90,107,aloud,old,red,1314.9376818998717,None,n,1314.9376818998717,None,"['n', 'return']","[0.9445959001313895, 1.1523355999961495]",1314.9376818998717,None,,,14,001,2023_Feb_27_1320,ExactRep-v3-final,2021.2.3,59.8840047059231,
,,,,,,,,,,,,107,0,107,0,,,,,,,,,,,,,,,,,,,,,,,,,,,,,,,,,,,,,,,,,,,,,,,,,1317.7503021999728,None,,,,,,,,,,,,,,,,,,,,,,,,,,,,,,,,,,,,,,,,,,,,,,,,,,,,,,,,,string,204,108,aloud,new,red,1316.6372040999122,None,n,1316.6372040999122,None,"['n', 'return']","[0.7568366001360118, 1.0768433001358062]",1316.6372040999122,None,,,14,001,2023_Feb_27_1320,ExactRep-v3-final,2021.2.3,59.8840047059231,
,,,,,,,,,,,,108,0,108,0,,,,,,,,,,,,,,,,,,,,,,,,,,,,,,,,,,,,,,,,,,,,,,,,,1319.1684359998908,None,,,,,,,,,,,,,,,,,,,,,,,,,,,,,,,,,,,,,,,,,,,,,,,,,,,,,,,,,woods,15,109,sing,old,blue,1318.2584176999517,None,y,1318.2584176999517,None,"['y', 'return']","[0.7516024000942707, 0.8716202001087368]",1318.2584176999517,None,,,14,001,2023_Feb_27_1320,ExactRep-v3-final,2021.2.3,59.8840047059231,
,,,,,,,,,,,,109,0,109,0,,,,,,,,,,,,,,,,,,,,,,,,,,,,,,,,,,,,,,,,,,,,,,,,,1320.586568800034,None,,,,,,,,,,,,,,,,,,,,,,,,,,,,,,,,,,,,,,,,,,,,,,,,,,,,,,,,,river,19,110,sing,old,blue,1319.6690036000218,None,y,1319.6690036000218,None,"['y', 'return']","[0.6851515001617372, 0.8691714000888169]",1319.6690036000218,None,,,14,001,2023_Feb_27_1320,ExactRep-v3-final,2021.2.3,59.8840047059231,
,,,,,,,,,,,,110,0,110,0,,,,,,,,,,,,,,,,,,,,,,,,,,,,,,,,,,,,,,,,,,,,,,,,,1322.8220347999595,None,,,,,,,,,,,,,,,,,,,,,,,,,,,,,,,,,,,,,,,,,,,,,,,,,,,,,,,,,bowl,49,111,silent,old,white,1321.0954252998345,None,n,1321.0954252998345,None,"['n', 'return']","[1.4906729999929667, 1.682649299968034]",1321.0954252998345,None,,,14,001,2023_Feb_27_1320,ExactRep-v3-final,2021.2.3,59.8840047059231,
,,,,,,,,,,,,111,0,111,0,,,,,,,,,,,,,,,,,,,,,,,,,,,,,,,,,,,,,,,,,,,,,,,,,1324.6572326000314,None,,,,,,,,,,,,,,,,,,,,,,,,,,,,,,,,,,,,,,,,,,,,,,,,,,,,,,,,,student,182,112,aloud,new,red,1323.3316778999288,None,n,1323.3316778999288,None,"['n', 'return']","[1.126679299864918, 1.2865670998580754]",1323.3316778999288,None,,,14,001,2023_Feb_27_1320,ExactRep-v3-final,2021.2.3,59.8840047059231,
,,,,,,,,,,,,112,0,112,0,,,,,,,,,,,,,,,,,,,,,,,,,,,,,,,,,,,,,,,,,,,,,,,,,1326.6759396998677,None,,,,,,,,,,,,,,,,,,,,,,,,,,,,,,,,,,,,,,,,,,,,,,,,,,,,,,,,,money,36,113,sing,old,blue,1325.169576099841,None,y,1325.169576099841,None,"['y', 'return']","[1.29637819994241, 1.4646252999082208]",1325.169576099841,None,,,14,001,2023_Feb_27_1320,ExactRep-v3-final,2021.2.3,59.8840047059231,
,,,,,,,,,,,,113,0,113,0,,,,,,,,,,,,,,,,,,,,,,,,,,,,,,,,,,,,,,,,,,,,,,,,,1328.0772435998078,None,,,,,,,,,,,,,,,,,,,,,,,,,,,,,,,,,,,,,,,,,,,,,,,,,,,,,,,,,time,77,114,silent,old,white,1327.191398399882,None,y,1327.191398399882,None,"['y', 'return']","[0.7067082999274135, 0.8507456998340786]",1327.191398399882,None,,,14,001,2023_Feb_27_1320,ExactRep-v3-final,2021.2.3,59.8840047059231,
,,,,,,,,,,,,114,0,114,0,,,,,,,,,,,,,,,,,,,,,,,,,,,,,,,,,,,,,,,,,,,,,,,,,1329.3451326999348,None,,,,,,,,,,,,,,,,,,,,,,,,,,,,,,,,,,,,,,,,,,,,,,,,,,,,,,,,,memory,119,115,aloud,old,red,1328.588721399894,None,y,1328.588721399894,None,"['y', 'return']","[0.5412272000685334, 0.7092826999723911]",1328.588721399894,None,,,14,001,2023_Feb_27_1320,ExactRep-v3-final,2021.2.3,59.8840047059231,
,,,,,,,,,,,,115,0,115,0,,,,,,,,,,,,,,,,,,,,,,,,,,,,,,,,,,,,,,,,,,,,,,,,,1330.9302497999743,None,,,,,,,,,,,,,,,,,,,,,,,,,,,,,,,,,,,,,,,,,,,,,,,,,,,,,,,,,street,215,116,sing,new,blue,1329.849210599903,None,y,1329.849210599903,None,"['y', 'return']","[0.8730419999919832, 1.0487724000122398]",1329.849210599903,None,,,14,001,2023_Feb_27_1320,ExactRep-v3-final,2021.2.3,59.8840047059231,
,,,,,,,,,,,,116,0,116,0,,,,,,,,,,,,,,,,,,,,,,,,,,,,,,,,,,,,,,,,,,,,,,,,,1333.032187299803,None,,,,,,,,,,,,,,,,,,,,,,,,,,,,,,,,,,,,,,,,,,,,,,,,,,,,,,,,,slave,79,117,sing,old,blue,1331.439266399946,None,y,1331.439266399946,None,"['y', 'return']","[1.3227014001458883, 1.5548052000813186]",1331.439266399946,None,,,14,001,2023_Feb_27_1320,ExactRep-v3-final,2021.2.3,59.8840047059231,
,,,,,,,,,,,,117,0,117,0,,,,,,,,,,,,,,,,,,,,,,,,,,,,,,,,,,,,,,,,,,,,,,,,,1336.9028996999841,None,,,,,,,,,,,,,,,,,,,,,,,,,,,,,,,,,,,,,,,,,,,,,,,,,,,,,,,,,law,184,118,aloud,new,red,1333.5411954999436,None,y,1333.5411954999436,None,"['y', 'return']","[3.2048331999685615, 3.324822299880907]",1333.5411954999436,None,,,14,001,2023_Feb_27_1320,ExactRep-v3-final,2021.2.3,59.8840047059231,
,,,,,,,,,,,,118,0,118,0,,,,,,,,,,,,,,,,,,,,,,,,,,,,,,,,,,,,,,,,,,,,,,,,,1338.8212976998184,None,,,,,,,,,,,,,,,,,,,,,,,,,,,,,,,,,,,,,,,,,,,,,,,,,,,,,,,,,speech,73,119,silent,old,white,1337.4194285999984,None,y,1337.4194285999984,None,"['y', 'return']","[1.1745913000777364, 1.358641100116074]",1337.4194285999984,None,,,14,001,2023_Feb_27_1320,ExactRep-v3-final,2021.2.3,59.8840047059231,
,,,,,,,,,,,,119,0,119,0,,,,,,,,,,,,,,,,,,,,,,,,,,,,,,,,,,,,,,,,,,,,,,,,,1340.406223299913,None,,,,,,,,,,,,,,,,,,,,,,,,,,,,,,,,,,,,,,,,,,,,,,,,,,,,,,,,,cabin,195,120,sing,new,blue,1339.3314137000125,None,n,1339.3314137000125,None,"['n', 'return']","[0.8866626000963151, 1.0387619999237359]",1339.3314137000125,None,,,14,001,2023_Feb_27_1320,ExactRep-v3-final,2021.2.3,59.8840047059231,
,,,,,,,,,,,,120,0,120,0,,,,,,,,,,,,,,,,,,,,,,,,,,,,,,,,,,,,,,,,,,,,,,,,,1341.8410871999804,None,,,,,,,,,,,,,,,,,,,,,,,,,,,,,,,,,,,,,,,,,,,,,,,,,,,,,,,,,board,52,121,silent,old,white,1340.920706299832,None,n,1340.920706299832,None,"['n', 'return']","[0.7053332000505179, 0.8735182001255453]",1340.920706299832,None,,,14,001,2023_Feb_27_1320,ExactRep-v3-final,2021.2.3,59.8840047059231,
,,,,,,,,,,,,121,0,121,0,,,,,,,,,,,,,,,,,,,,,,,,,,,,,,,,,,,,,,,,,,,,,,,,,1343.7428901998792,None,,,,,,,,,,,,,,,,,,,,,,,,,,,,,,,,,,,,,,,,,,,,,,,,,,,,,,,,,hotel,96,122,aloud,old,red,1342.3520680000074,None,y,1342.3520680000074,None,"['y', 'return']","[1.0179118998348713, 1.353981499793008]",1342.3520680000074,None,,,14,001,2023_Feb_27_1320,ExactRep-v3-final,2021.2.3,59.8840047059231,
,,,,,,,,,,,,122,0,122,0,,,,,,,,,,,,,,,,,,,,,,,,,,,,,,,,,,,,,,,,,,,,,,,,,1346.4122275998816,None,,,,,,,,,,,,,,,,,,,,,,,,,,,,,,,,,,,,,,,,,,,,,,,,,,,,,,,,,window,166,123,aloud,new,red,1344.24842790002,None,y,1344.24842790002,None,"['y', 'return']","[1.9535872999113053, 2.129541600123048]",1344.24842790002,None,,,14,001,2023_Feb_27_1320,ExactRep-v3-final,2021.2.3,59.8840047059231,
,,,,,,,,,,,,123,0,123,0,,,,,,,,,,,,,,,,,,,,,,,,,,,,,,,,,,,,,,,,,,,,,,,,,1347.9471277999692,None,,,,,,,,,,,,,,,,,,,,,,,,,,,,,,,,,,,,,,,,,,,,,,,,,,,,,,,,,maiden,239,124,sing,new,blue,1346.9222402998712,None,n,1346.9222402998712,None,"['n', 'return']","[0.7918998999521136, 0.984108499949798]",1346.9222402998712,None,,,14,001,2023_Feb_27_1320,ExactRep-v3-final,2021.2.3,59.8840047059231,
,,,,,,,,,,,,124,0,124,0,,,,,,,,,,,,,,,,,,,,,,,,,,,,,,,,,,,,,,,,,,,,,,,,,1350.0494373999536,None,,,,,,,,,,,,,,,,,,,,,,,,,,,,,,,,,,,,,,,,,,,,,,,,,,,,,,,,,earth,233,125,sing,new,blue,1348.458978699986,None,y,1348.458978699986,None,"['y', 'return']","[1.463111899793148, 1.5430924999527633]",1348.458978699986,None,,,14,001,2023_Feb_27_1320,ExactRep-v3-final,2021.2.3,59.8840047059231,
,,,,,,,,,,,,125,0,125,0,,,,,,,,,,,,,,,,,,,,,,,,,,,,,,,,,,,,,,,,,,,,,,,,,1351.6174269998446,None,,,,,,,,,,,,,,,,,,,,,,,,,,,,,,,,,,,,,,,,,,,,,,,,,,,,,,,,,hope,210,126,aloud,new,red,1350.565168999834,None,n,1350.565168999834,None,"['n', 'return']","[0.8690998000092804, 1.0131730001885444]",1350.565168999834,None,,,14,001,2023_Feb_27_1320,ExactRep-v3-final,2021.2.3,59.8840047059231,
,,,,,,,,,,,,126,0,126,0,,,,,,,,,,,,,,,,,,,,,,,,,,,,,,,,,,,,,,,,,,,,,,,,,1353.4359626998194,None,,,,,,,,,,,,,,,,,,,,,,,,,,,,,,,,,,,,,,,,,,,,,,,,,,,,,,,,,wine,59,127,silent,old,white,1352.1303799999878,None,y,1352.1303799999878,None,"['y', 'return']","[1.1036813000682741, 1.2636383001226932]",1352.1303799999878,None,,,14,001,2023_Feb_27_1320,ExactRep-v3-final,2021.2.3,59.8840047059231,
,,,,,,,,,,,,127,0,127,0,,,,,,,,,,,,,,,,,,,,,,,,,,,,,,,,,,,,,,,,,,,,,,,,,1355.8886178999674,None,,,,,,,,,,,,,,,,,,,,,,,,,,,,,,,,,,,,,,,,,,,,,,,,,,,,,,,,,origin,16,128,sing,old,blue,1353.948374700034,None,y,1353.948374700034,None,"['y', 'return']","[1.773554899962619, 1.9017463999334723]",1353.948374700034,None,,,14,001,2023_Feb_27_1320,ExactRep-v3-final,2021.2.3,59.8840047059231,
,,,,,,,,,,,,128,0,128,0,,,,,,,,,,,,,,,,,,,,,,,,,,,,,,,,,,,,,,,,,,,,,,,,,1358.3575629999395,None,,,,,,,,,,,,,,,,,,,,,,,,,,,,,,,,,,,,,,,,,,,,,,,,,,,,,,,,,fortune,108,129,aloud,old,red,1356.3981422998477,None,y,1356.3981422998477,None,"['y', 'return']","[1.5878979000262916, 1.9158195999916643]",1356.3981422998477,None,,,14,001,2023_Feb_27_1320,ExactRep-v3-final,2021.2.3,59.8840047059231,
,,,,,,,,,,,,129,0,129,0,,,,,,,,,,,,,,,,,,,,,,,,,,,,,,,,,,,,,,,,,,,,,,,,,1360.5623249998316,None,,,,,,,,,,,,,,,,,,,,,,,,,,,,,,,,,,,,,,,,,,,,,,,,,,,,,,,,,length,140,130,silent,new,white,1358.874527100008,None,n,1358.874527100008,None,"['n', 'return']","[1.47143890010193, 1.6474650001619011]",1358.874527100008,None,,,14,001,2023_Feb_27_1320,ExactRep-v3-final,2021.2.3,59.8840047059231,
,,,,,,,,,,,,130,0,130,0,,,,,,,,,,,,,,,,,,,,,,,,,,,,,,,,,,,,,,,,,,,,,,,,,1362.1629079999402,None,,,,,,,,,,,,,,,,,,,,,,,,,,,,,,,,,,,,,,,,,,,,,,,,,,,,,,,,,storm,162,131,aloud,new,red,1361.096504200017,None,n,1361.096504200017,None,"['n', 'return']","[0.881543300114572, 1.0255237000528723]",1361.096504200017,None,,,14,001,2023_Feb_27_1320,ExactRep-v3-final,2021.2.3,59.8840047059231,
,,,,,,,,,,,,131,0,131,0,,,,,,,,,,,,,,,,,,,,,,,,,,,,,,,,,,,,,,,,,,,,,,,,,1366.3657005999703,None,,,,,,,,,,,,,,,,,,,,,,,,,,,,,,,,,,,,,,,,,,,,,,,,,,,,,,,,,shoes,130,132,silent,new,white,1362.6692929998972,None,y,1362.6692929998972,None,"['n', 'n', 'backspace', 'y', 'return']","[0.6688030001241714, 0.7888032000046223, 2.5967085000593215, 2.98071869998239, 3.652666100068018]",1362.6692929998972,None,,,14,001,2023_Feb_27_1320,ExactRep-v3-final,2021.2.3,59.8840047059231,
,,,,,,,,,,,,132,0,132,0,,,,,,,,,,,,,,,,,,,,,,,,,,,,,,,,,,,,,,,,,,,,,,,,,1368.0838854999747,None,,,,,,,,,,,,,,,,,,,,,,,,,,,,,,,,,,,,,,,,,,,,,,,,,,,,,,,,,chief,122,133,silent,new,white,1366.8890006998554,None,n,1366.8890006998554,None,"['n', 'return']","[0.9930866998620331, 1.153246199944988]",1366.8890006998554,None,,,14,001,2023_Feb_27_1320,ExactRep-v3-final,2021.2.3,59.8840047059231,
