trials_fam.thisRepN,trials_fam.thisTrialN,trials_fam.thisN,trials_fam.thisIndex,trials_prc.thisRepN,trials_prc.thisTrialN,trials_prc.thisN,trials_prc.thisIndex,StudyLoop.thisRepN,StudyLoop.thisTrialN,StudyLoop.thisN,StudyLoop.thisIndex,TestLoop.thisRepN,TestLoop.thisTrialN,TestLoop.thisN,TestLoop.thisIndex,text_colortest.started,text_colortest.stopped,key_colortest.keys,key_colortest.rt,key_colortest.started,key_colortest.stopped,textCondition.started,textCondition.stopped,keyCondition.keys,keyCondition.rt,keyCondition.started,keyCondition.stopped,Condition_between,Condition_counterbal,keyWelcome.keys,keyWelcome.rt,keyWelcome.started,keyWelcome.stopped,welcome_a.started,welcome_a.stopped,welcome_b.started,welcome_b.stopped,welcome_c.started,welcome_c.stopped,welcome_d.started,welcome_d.stopped,welcome_e.started,welcome_e.stopped,welcome_f.started,welcome_f.stopped,key_resp_fam_inst.keys,key_resp_fam_inst.rt,key_resp_fam_inst.started,key_resp_fam_inst.stopped,fam_a.started,fam_a.stopped,fam_b.started,fam_b.stopped,fam_c.started,fam_c.stopped,fam_d.started,fam_d.stopped,fam_e.started,fam_e.stopped,fam_f.started,fam_f.stopped,text_famil.started,text_famil.stopped,textBlank500.started,textBlank500.stopped,key_resp_prc_inst.keys,key_resp_prc_inst.rt,key_resp_prc_inst.started,key_resp_prc_inst.stopped,prac_a.started,prac_a.stopped,prac_b.started,prac_b.stopped,prac_c.started,prac_c.stopped,prac_d.started,prac_d.stopped,prac_e.started,prac_e.stopped,prac_f.started,prac_f.stopped,text_prc_trial.started,text_prc_trial.stopped,key_resp_study_inst.keys,key_resp_study_inst.rt,key_resp_study_inst.started,key_resp_study_inst.stopped,crit_a.started,crit_a.stopped,crit_b.started,crit_b.stopped,crit_c.started,crit_c.stopped,crit_d.started,crit_d.stopped,crit_e.started,crit_e.stopped,crit_f.started,crit_f.stopped,study_word,study_num,study_order,study_type,word_color,textStudy.started,textStudy.stopped,keyStudy.keys,keyStudy.started,keyStudy.stopped,post_study.started,post_study.stopped,key_resp_post_study.keys,key_resp_post_study.rt,key_resp_post_study.started,key_resp_post_study.stopped,test_inst.started,test_inst.stopped,key_resp_test_inst.keys,key_resp_test_inst.rt,key_resp_test_inst.started,key_resp_test_inst.stopped,test_word,test_num,test_order,test_condition,old_new_test,word_color_test,textConf.started,textConf.stopped,Participant Response,textInput.started,textInput.stopped,keyResp.keys,keyResp.rt,keyResp.started,keyResp.stopped,textEnd.started,textEnd.stopped,participant,session,date,expName,psychopyVersion,frameRate,
,,,,,,,,,,,,,,,,18.652610199991614,None,y,1.1708824001252651,18.652610199991614,None,,,,,,,,,,,,,,,,,,,,,,,,,,,,,,,,,,,,,,,,,,,,,,,,,,,,,,,,,,,,,,,,,,,,,,,,,,,,,,,,,,,,,,,,,,,,,,,,,,,,,,,,,,,,,,,,,,,,,,15YC,001,2023_Mar_01_1532,ExactRep-v3-final,2021.2.3,59.90050532590536,
,,,,,,,,,,,,,,,,,,,,,,19.84456990007311,None,c,3.8587984000332654,19.84456990007311,None,,,,,,,,,,,,,,,,,,,,,,,,,,,,,,,,,,,,,,,,,,,,,,,,,,,,,,,,,,,,,,,,,,,,,,,,,,,,,,,,,,,,,,,,,,,,,,,,,,,,,,,,,,,,,,,,15YC,001,2023_Mar_01_1532,ExactRep-v3-final,2021.2.3,59.90050532590536,
,,,,,,,,,,,,,,,,,,,,,,,,,,,,colorfoils,c,space,8001.24790409999,33.847660900093615,None,,,,,,,,,,,,,,,,,,,,,,,,,,,,,,,,,,,,,,,,,,,,,,,,,,,,,,,,,,,,,,,,,,,,,,,,,,,,,,,,,,,,,,,,,,,,,,,,,,,,,,,,,,15YC,001,2023_Mar_01_1532,ExactRep-v3-final,2021.2.3,59.90050532590536,
,,,,,,,,,,,,,,,,,,,,,,,,,,,,,,,,,,23.913285499904305,None,23.913285499904305,None,23.913285499904305,None,23.913285499904305,None,23.913285499904305,None,23.913285499904305,None,space,25.801007999805734,8045.278342399979,None,,,,,,,,,,,,,,,,,,,,,,,,,,,,,,,,,,,,,,,,,,,,,,,,,,,,,,,,,,,,,,,,,,,,,,,,,,,,,,,,,,,,,,,,,,15YC,001,2023_Mar_01_1532,ExactRep-v3-final,2021.2.3,59.90050532590536,
0,0,0,0,,,,,,,,,,,,,,,,,,,,,,,,,,,,,,,,,,,,,,,,,,,,,,,8035.302004799945,None,8035.302004799945,None,8035.302004799945,None,8035.302004799945,None,8035.302004799945,None,8035.302004799945,None,8071.19741449994,None,8073.197798799956,None,,,,,,,,,,,,,,,,,,,,,,,,,,,,,,,,,,,,,,,,,,,,,,,,,,,,,,,,,,,,,,,,,,,,,,,,,,15YC,001,2023_Mar_01_1532,ExactRep-v3-final,2021.2.3,59.90050532590536,
1,0,1,0,,,,,,,,,,,,,,,,,,,,,,,,,,,,,,,,,,,,,,,,,,,,,,,,,,,,,,,,,,,8073.698374599917,None,8075.700502800057,None,,,,,,,,,,,,,,,,,,,,,,,,,,,,,,,,,,,,,,,,,,,,,,,,,,,,,,,,,,,,,,,,,,,,,,,,,,15YC,001,2023_Mar_01_1532,ExactRep-v3-final,2021.2.3,59.90050532590536,
2,0,2,0,,,,,,,,,,,,,,,,,,,,,,,,,,,,,,,,,,,,,,,,,,,,,,,,,,,,,,,,,,,8076.222832900006,None,8078.21965470002,None,,,,,,,,,,,,,,,,,,,,,,,,,,,,,,,,,,,,,,,,,,,,,,,,,,,,,,,,,,,,,,,,,,,,,,,,,,15YC,001,2023_Mar_01_1532,ExactRep-v3-final,2021.2.3,59.90050532590536,
3,0,3,0,,,,,,,,,,,,,,,,,,,,,,,,,,,,,,,,,,,,,,,,,,,,,,,,,,,,,,,,,,,8078.728846400045,None,8080.738849899964,None,,,,,,,,,,,,,,,,,,,,,,,,,,,,,,,,,,,,,,,,,,,,,,,,,,,,,,,,,,,,,,,,,,,,,,,,,,15YC,001,2023_Mar_01_1532,ExactRep-v3-final,2021.2.3,59.90050532590536,
4,0,4,0,,,,,,,,,,,,,,,,,,,,,,,,,,,,,,,,,,,,,,,,,,,,,,,,,,,,,,,,,,,8081.239301600028,None,8083.241097300081,None,,,,,,,,,,,,,,,,,,,,,,,,,,,,,,,,,,,,,,,,,,,,,,,,,,,,,,,,,,,,,,,,,,,,,,,,,,15YC,001,2023_Mar_01_1532,ExactRep-v3-final,2021.2.3,59.90050532590536,
5,0,5,0,,,,,,,,,,,,,,,,,,,,,,,,,,,,,,,,,,,,,,,,,,,,,,,,,,,,,,,,,,,8083.742088800063,None,8085.743778599892,None,,,,,,,,,,,,,,,,,,,,,,,,,,,,,,,,,,,,,,,,,,,,,,,,,,,,,,,,,,,,,,,,,,,,,,,,,,15YC,001,2023_Mar_01_1532,ExactRep-v3-final,2021.2.3,59.90050532590536,
6,0,6,0,,,,,,,,,,,,,,,,,,,,,,,,,,,,,,,,,,,,,,,,,,,,,,,,,,,,,,,,,,,8086.244929200038,None,8088.246417300077,None,,,,,,,,,,,,,,,,,,,,,,,,,,,,,,,,,,,,,,,,,,,,,,,,,,,,,,,,,,,,,,,,,,,,,,,,,,15YC,001,2023_Mar_01_1532,ExactRep-v3-final,2021.2.3,59.90050532590536,
7,0,7,0,,,,,,,,,,,,,,,,,,,,,,,,,,,,,,,,,,,,,,,,,,,,,,,,,,,,,,,,,,,8088.746978099924,None,8090.748834199971,None,,,,,,,,,,,,,,,,,,,,,,,,,,,,,,,,,,,,,,,,,,,,,,,,,,,,,,,,,,,,,,,,,,,,,,,,,,15YC,001,2023_Mar_01_1532,ExactRep-v3-final,2021.2.3,59.90050532590536,
8,0,8,0,,,,,,,,,,,,,,,,,,,,,,,,,,,,,,,,,,,,,,,,,,,,,,,,,,,,,,,,,,,8091.249418399995,None,8093.251456999918,None,,,,,,,,,,,,,,,,,,,,,,,,,,,,,,,,,,,,,,,,,,,,,,,,,,,,,,,,,,,,,,,,,,,,,,,,,,15YC,001,2023_Mar_01_1532,ExactRep-v3-final,2021.2.3,59.90050532590536,
9,0,9,0,,,,,,,,,,,,,,,,,,,,,,,,,,,,,,,,,,,,,,,,,,,,,,,,,,,,,,,,,,,8093.756298300112,None,8095.770539799938,None,,,,,,,,,,,,,,,,,,,,,,,,,,,,,,,,,,,,,,,,,,,,,,,,,,,,,,,,,,,,,,,,,,,,,,,,,,15YC,001,2023_Mar_01_1532,ExactRep-v3-final,2021.2.3,59.90050532590536,
10,0,10,0,,,,,,,,,,,,,,,,,,,,,,,,,,,,,,,,,,,,,,,,,,,,,,,,,,,,,,,,,,,8096.271062199958,None,8098.273119200021,None,,,,,,,,,,,,,,,,,,,,,,,,,,,,,,,,,,,,,,,,,,,,,,,,,,,,,,,,,,,,,,,,,,,,,,,,,,15YC,001,2023_Mar_01_1532,ExactRep-v3-final,2021.2.3,59.90050532590536,
11,0,11,0,,,,,,,,,,,,,,,,,,,,,,,,,,,,,,,,,,,,,,,,,,,,,,,,,,,,,,,,,,,8098.773511700099,None,8100.775531300111,None,,,,,,,,,,,,,,,,,,,,,,,,,,,,,,,,,,,,,,,,,,,,,,,,,,,,,,,,,,,,,,,,,,,,,,,,,,15YC,001,2023_Mar_01_1532,ExactRep-v3-final,2021.2.3,59.90050532590536,
12,0,12,0,,,,,,,,,,,,,,,,,,,,,,,,,,,,,,,,,,,,,,,,,,,,,,,,,,,,,,,,,,,8101.275926300092,None,8103.278156799963,None,,,,,,,,,,,,,,,,,,,,,,,,,,,,,,,,,,,,,,,,,,,,,,,,,,,,,,,,,,,,,,,,,,,,,,,,,,15YC,001,2023_Mar_01_1532,ExactRep-v3-final,2021.2.3,59.90050532590536,
13,0,13,0,,,,,,,,,,,,,,,,,,,,,,,,,,,,,,,,,,,,,,,,,,,,,,,,,,,,,,,,,,,8103.782797100022,None,8105.797362500103,None,,,,,,,,,,,,,,,,,,,,,,,,,,,,,,,,,,,,,,,,,,,,,,,,,,,,,,,,,,,,,,,,,,,,,,,,,,15YC,001,2023_Mar_01_1532,ExactRep-v3-final,2021.2.3,59.90050532590536,
14,0,14,0,,,,,,,,,,,,,,,,,,,,,,,,,,,,,,,,,,,,,,,,,,,,,,,,,,,,,,,,,,,8106.297909500077,None,8108.299667800078,None,,,,,,,,,,,,,,,,,,,,,,,,,,,,,,,,,,,,,,,,,,,,,,,,,,,,,,,,,,,,,,,,,,,,,,,,,,15YC,001,2023_Mar_01_1532,ExactRep-v3-final,2021.2.3,59.90050532590536,
,,,,,,,,,,,,,,,,,,,,,,,,,,,,,,,,,,,,,,,,,,,,,,,,,,,,,,,,,,,,,,,,,,space,27.804243700113147,8118.9231678999495,None,,,,,,,,,,,,,,,,,,,,,,,,,,,,,,,,,,,,,,,,,,,,,,,,,,,,,,,,,,,,,,,,,,,,,,15YC,001,2023_Mar_01_1532,ExactRep-v3-final,2021.2.3,59.90050532590536,
,,,,0,0,0,0,,,,,,,,,,,,,,,,,,,,,,,,,,,,,,,,,,,,,,,,,,,,,,,,,,,,,,,,,8148.806902199984,None,,,,,8108.978702799883,None,8108.978702799883,None,8108.978702799883,None,8108.978702799883,None,8108.978702799883,None,8108.978702799883,None,8146.800390199991,None,,,,,,,,,,,,,,,,,,,,,,,,,,,,,,,,,,,,,,,,,,,,,,,,,,,,,,,,15YC,001,2023_Mar_01_1532,ExactRep-v3-final,2021.2.3,59.90050532590536,
,,,,1,0,1,0,,,,,,,,,,,,,,,,,,,,,,,,,,,,,,,,,,,,,,,,,,,,,,,,,,,,,,,,,8151.309401399922,None,,,,,,,,,,,,,,,,,8149.3075804000255,None,,,,,,,,,,,,,,,,,,,,,,,,,,,,,,,,,,,,,,,,,,,,,,,,,,,,,,,,15YC,001,2023_Mar_01_1532,ExactRep-v3-final,2021.2.3,59.90050532590536,
,,,,2,0,2,0,,,,,,,,,,,,,,,,,,,,,,,,,,,,,,,,,,,,,,,,,,,,,,,,,,,,,,,,,8153.811736200005,None,,,,,,,,,,,,,,,,,8151.809764799895,None,,,,,,,,,,,,,,,,,,,,,,,,,,,,,,,,,,,,,,,,,,,,,,,,,,,,,,,,15YC,001,2023_Mar_01_1532,ExactRep-v3-final,2021.2.3,59.90050532590536,
,,,,3,0,3,0,,,,,,,,,,,,,,,,,,,,,,,,,,,,,,,,,,,,,,,,,,,,,,,,,,,,,,,,,8156.314391199965,None,,,,,,,,,,,,,,,,,8154.3125306998845,None,,,,,,,,,,,,,,,,,,,,,,,,,,,,,,,,,,,,,,,,,,,,,,,,,,,,,,,,15YC,001,2023_Mar_01_1532,ExactRep-v3-final,2021.2.3,59.90050532590536,
,,,,4,0,4,0,,,,,,,,,,,,,,,,,,,,,,,,,,,,,,,,,,,,,,,,,,,,,,,,,,,,,,,,,8158.816926199943,None,,,,,,,,,,,,,,,,,8156.814937199932,None,,,,,,,,,,,,,,,,,,,,,,,,,,,,,,,,,,,,,,,,,,,,,,,,,,,,,,,,15YC,001,2023_Mar_01_1532,ExactRep-v3-final,2021.2.3,59.90050532590536,
,,,,5,0,5,0,,,,,,,,,,,,,,,,,,,,,,,,,,,,,,,,,,,,,,,,,,,,,,,,,,,,,,,,,8161.319431100041,None,,,,,,,,,,,,,,,,,8159.317417599959,None,,,,,,,,,,,,,,,,,,,,,,,,,,,,,,,,,,,,,,,,,,,,,,,,,,,,,,,,15YC,001,2023_Mar_01_1532,ExactRep-v3-final,2021.2.3,59.90050532590536,
,,,,6,0,6,0,,,,,,,,,,,,,,,,,,,,,,,,,,,,,,,,,,,,,,,,,,,,,,,,,,,,,,,,,8163.822016299935,None,,,,,,,,,,,,,,,,,8161.819765700027,None,,,,,,,,,,,,,,,,,,,,,,,,,,,,,,,,,,,,,,,,,,,,,,,,,,,,,,,,15YC,001,2023_Mar_01_1532,ExactRep-v3-final,2021.2.3,59.90050532590536,
,,,,7,0,7,0,,,,,,,,,,,,,,,,,,,,,,,,,,,,,,,,,,,,,,,,,,,,,,,,,,,,,,,,,8166.324386900058,None,,,,,,,,,,,,,,,,,8164.322436700109,None,,,,,,,,,,,,,,,,,,,,,,,,,,,,,,,,,,,,,,,,,,,,,,,,,,,,,,,,15YC,001,2023_Mar_01_1532,ExactRep-v3-final,2021.2.3,59.90050532590536,
,,,,8,0,8,0,,,,,,,,,,,,,,,,,,,,,,,,,,,,,,,,,,,,,,,,,,,,,,,,,,,,,,,,,8168.826968800044,None,,,,,,,,,,,,,,,,,8166.8249268000945,None,,,,,,,,,,,,,,,,,,,,,,,,,,,,,,,,,,,,,,,,,,,,,,,,,,,,,,,,15YC,001,2023_Mar_01_1532,ExactRep-v3-final,2021.2.3,59.90050532590536,
,,,,9,0,9,0,,,,,,,,,,,,,,,,,,,,,,,,,,,,,,,,,,,,,,,,,,,,,,,,,,,,,,,,,8171.329433799954,None,,,,,,,,,,,,,,,,,8169.327449100092,None,,,,,,,,,,,,,,,,,,,,,,,,,,,,,,,,,,,,,,,,,,,,,,,,,,,,,,,,15YC,001,2023_Mar_01_1532,ExactRep-v3-final,2021.2.3,59.90050532590536,
,,,,10,0,10,0,,,,,,,,,,,,,,,,,,,,,,,,,,,,,,,,,,,,,,,,,,,,,,,,,,,,,,,,,8173.831776400097,None,,,,,,,,,,,,,,,,,8171.829952700064,None,,,,,,,,,,,,,,,,,,,,,,,,,,,,,,,,,,,,,,,,,,,,,,,,,,,,,,,,15YC,001,2023_Mar_01_1532,ExactRep-v3-final,2021.2.3,59.90050532590536,
,,,,11,0,11,0,,,,,,,,,,,,,,,,,,,,,,,,,,,,,,,,,,,,,,,,,,,,,,,,,,,,,,,,,8176.334669499891,None,,,,,,,,,,,,,,,,,8174.332301500021,None,,,,,,,,,,,,,,,,,,,,,,,,,,,,,,,,,,,,,,,,,,,,,,,,,,,,,,,,15YC,001,2023_Mar_01_1532,ExactRep-v3-final,2021.2.3,59.90050532590536,
,,,,12,0,12,0,,,,,,,,,,,,,,,,,,,,,,,,,,,,,,,,,,,,,,,,,,,,,,,,,,,,,,,,,8178.836956700077,None,,,,,,,,,,,,,,,,,8176.834941100096,None,,,,,,,,,,,,,,,,,,,,,,,,,,,,,,,,,,,,,,,,,,,,,,,,,,,,,,,,15YC,001,2023_Mar_01_1532,ExactRep-v3-final,2021.2.3,59.90050532590536,
,,,,13,0,13,0,,,,,,,,,,,,,,,,,,,,,,,,,,,,,,,,,,,,,,,,,,,,,,,,,,,,,,,,,8181.339423999889,None,,,,,,,,,,,,,,,,,8179.337470199913,None,,,,,,,,,,,,,,,,,,,,,,,,,,,,,,,,,,,,,,,,,,,,,,,,,,,,,,,,15YC,001,2023_Mar_01_1532,ExactRep-v3-final,2021.2.3,59.90050532590536,
,,,,14,0,14,0,,,,,,,,,,,,,,,,,,,,,,,,,,,,,,,,,,,,,,,,,,,,,,,,,,,,,,,,,8183.84192320006,None,,,,,,,,,,,,,,,,,8181.839947799919,None,,,,,,,,,,,,,,,,,,,,,,,,,,,,,,,,,,,,,,,,,,,,,,,,,,,,,,,,15YC,001,2023_Mar_01_1532,ExactRep-v3-final,2021.2.3,59.90050532590536,
,,,,,,,,,,,,,,,,,,,,,,,,,,,,,,,,,,,,,,,,,,,,,,,,,,,,,,,,,,,,,,,,,,,,,,,,,,,,,,,,,,,,space,29.86127749993466,8194.466174199944,None,,,,,,,,,,,,,,,,,,,,,,,,,,,,,,,,,,,,,,,,,,,,,,,,,,,,15YC,001,2023_Mar_01_1532,ExactRep-v3-final,2021.2.3,59.90050532590536,
,,,,,,,,0,0,0,0,,,,,,,,,,,,,,,,,,,,,,,,,,,,,,,,,,,,,,,,,,,,,,,,,,,,,8226.417844600044,None,,,,,,,,,,,,,,,,,,,,,,,8184.511543399887,None,8184.511543399887,None,8184.511543399887,None,8184.511543399887,None,8184.511543399887,None,8184.511543399887,None,fur,59,1,silent,red,8224.407660499914,None,None,8224.407660499914,None,,,,,,,,,,,,,,,,,,,,,,,,,,,,,,15YC,001,2023_Mar_01_1532,ExactRep-v3-final,2021.2.3,59.90050532590536,
,,,,,,,,1,0,1,0,,,,,,,,,,,,,,,,,,,,,,,,,,,,,,,,,,,,,,,,,,,,,,,,,,,,,8228.93686580006,None,,,,,,,,,,,,,,,,,,,,,,,,,,,,,,,,,,,science,86,2,aloud,blue,8226.930838299915,None,None,8226.930838299915,None,,,,,,,,,,,,,,,,,,,,,,,,,,,,,,15YC,001,2023_Mar_01_1532,ExactRep-v3-final,2021.2.3,59.90050532590536,
,,,,,,,,2,0,2,0,,,,,,,,,,,,,,,,,,,,,,,,,,,,,,,,,,,,,,,,,,,,,,,,,,,,,8231.456029199995,None,,,,,,,,,,,,,,,,,,,,,,,,,,,,,,,,,,,shock,75,3,silent,red,8229.443182300078,None,None,8229.443182300078,None,,,,,,,,,,,,,,,,,,,,,,,,,,,,,,15YC,001,2023_Mar_01_1532,ExactRep-v3-final,2021.2.3,59.90050532590536,
,,,,,,,,3,0,3,0,,,,,,,,,,,,,,,,,,,,,,,,,,,,,,,,,,,,,,,,,,,,,,,,,,,,,8233.975280799903,None,,,,,,,,,,,,,,,,,,,,,,,,,,,,,,,,,,,ticket,69,4,silent,red,8231.965133500053,None,None,8231.965133500053,None,,,,,,,,,,,,,,,,,,,,,,,,,,,,,,15YC,001,2023_Mar_01_1532,ExactRep-v3-final,2021.2.3,59.90050532590536,
,,,,,,,,4,0,4,0,,,,,,,,,,,,,,,,,,,,,,,,,,,,,,,,,,,,,,,,,,,,,,,,,,,,,8236.47791190003,None,,,,,,,,,,,,,,,,,,,,,,,,,,,,,,,,,,,honour,100,5,aloud,blue,8234.47576000006,None,None,8234.47576000006,None,,,,,,,,,,,,,,,,,,,,,,,,,,,,,,15YC,001,2023_Mar_01_1532,ExactRep-v3-final,2021.2.3,59.90050532590536,
,,,,,,,,5,0,5,0,,,,,,,,,,,,,,,,,,,,,,,,,,,,,,,,,,,,,,,,,,,,,,,,,,,,,8238.980200999882,None,,,,,,,,,,,,,,,,,,,,,,,,,,,,,,,,,,,iron,84,6,aloud,blue,8236.980818599928,None,None,8236.980818599928,None,,,,,,,,,,,,,,,,,,,,,,,,,,,,,,15YC,001,2023_Mar_01_1532,ExactRep-v3-final,2021.2.3,59.90050532590536,
,,,,,,,,6,0,6,0,,,,,,,,,,,,,,,,,,,,,,,,,,,,,,,,,,,,,,,,,,,,,,,,,,,,,8241.482745100046,None,,,,,,,,,,,,,,,,,,,,,,,,,,,,,,,,,,,theory,85,7,aloud,blue,8239.48228919995,None,None,8239.48228919995,None,,,,,,,,,,,,,,,,,,,,,,,,,,,,,,15YC,001,2023_Mar_01_1532,ExactRep-v3-final,2021.2.3,59.90050532590536,
,,,,,,,,7,0,7,0,,,,,,,,,,,,,,,,,,,,,,,,,,,,,,,,,,,,,,,,,,,,,,,,,,,,,8244.001936699962,None,,,,,,,,,,,,,,,,,,,,,,,,,,,,,,,,,,,custom,58,8,silent,red,8241.99370030011,None,None,8241.99370030011,None,,,,,,,,,,,,,,,,,,,,,,,,,,,,,,15YC,001,2023_Mar_01_1532,ExactRep-v3-final,2021.2.3,59.90050532590536,
,,,,,,,,8,0,8,0,,,,,,,,,,,,,,,,,,,,,,,,,,,,,,,,,,,,,,,,,,,,,,,,,,,,,8246.521163000027,None,,,,,,,,,,,,,,,,,,,,,,,,,,,,,,,,,,,justice,34,9,sing,white,8244.509632200003,None,None,8244.509632200003,None,,,,,,,,,,,,,,,,,,,,,,,,,,,,,,15YC,001,2023_Mar_01_1532,ExactRep-v3-final,2021.2.3,59.90050532590536,
,,,,,,,,9,0,9,0,,,,,,,,,,,,,,,,,,,,,,,,,,,,,,,,,,,,,,,,,,,,,,,,,,,,,8249.023656999925,None,,,,,,,,,,,,,,,,,,,,,,,,,,,,,,,,,,,clock,97,10,aloud,blue,8247.022560500074,None,None,8247.022560500074,None,,,,,,,,,,,,,,,,,,,,,,,,,,,,,,15YC,001,2023_Mar_01_1532,ExactRep-v3-final,2021.2.3,59.90050532590536,
,,,,,,,,10,0,10,0,,,,,,,,,,,,,,,,,,,,,,,,,,,,,,,,,,,,,,,,,,,,,,,,,,,,,8251.52634140011,None,,,,,,,,,,,,,,,,,,,,,,,,,,,,,,,,,,,king,118,11,aloud,blue,8249.527280600043,None,None,8249.527280600043,None,,,,,,,,,,,,,,,,,,,,,,,,,,,,,,15YC,001,2023_Mar_01_1532,ExactRep-v3-final,2021.2.3,59.90050532590536,
,,,,,,,,11,0,11,0,,,,,,,,,,,,,,,,,,,,,,,,,,,,,,,,,,,,,,,,,,,,,,,,,,,,,8254.045526500093,None,,,,,,,,,,,,,,,,,,,,,,,,,,,,,,,,,,,friend,92,12,aloud,blue,8252.030079500051,None,None,8252.030079500051,None,,,,,,,,,,,,,,,,,,,,,,,,,,,,,,15YC,001,2023_Mar_01_1532,ExactRep-v3-final,2021.2.3,59.90050532590536,
,,,,,,,,12,0,12,0,,,,,,,,,,,,,,,,,,,,,,,,,,,,,,,,,,,,,,,,,,,,,,,,,,,,,8256.547782999929,None,,,,,,,,,,,,,,,,,,,,,,,,,,,,,,,,,,,girl,63,13,silent,red,8254.548411099939,None,None,8254.548411099939,None,,,,,,,,,,,,,,,,,,,,,,,,,,,,,,15YC,001,2023_Mar_01_1532,ExactRep-v3-final,2021.2.3,59.90050532590536,
,,,,,,,,13,0,13,0,,,,,,,,,,,,,,,,,,,,,,,,,,,,,,,,,,,,,,,,,,,,,,,,,,,,,8259.050467299996,None,,,,,,,,,,,,,,,,,,,,,,,,,,,,,,,,,,,soul,57,14,silent,red,8257.049820899963,None,None,8257.049820899963,None,,,,,,,,,,,,,,,,,,,,,,,,,,,,,,15YC,001,2023_Mar_01_1532,ExactRep-v3-final,2021.2.3,59.90050532590536,
,,,,,,,,14,0,14,0,,,,,,,,,,,,,,,,,,,,,,,,,,,,,,,,,,,,,,,,,,,,,,,,,,,,,8261.569481200073,None,,,,,,,,,,,,,,,,,,,,,,,,,,,,,,,,,,,virtue,94,15,aloud,blue,8259.553853099933,None,None,8259.553853099933,None,,,,,,,,,,,,,,,,,,,,,,,,,,,,,,15YC,001,2023_Mar_01_1532,ExactRep-v3-final,2021.2.3,59.90050532590536,
,,,,,,,,15,0,15,0,,,,,,,,,,,,,,,,,,,,,,,,,,,,,,,,,,,,,,,,,,,,,,,,,,,,,8264.089444499929,None,,,,,,,,,,,,,,,,,,,,,,,,,,,,,,,,,,,sea,62,16,silent,red,8262.07337639993,None,None,8262.07337639993,None,,,,,,,,,,,,,,,,,,,,,,,,,,,,,,15YC,001,2023_Mar_01_1532,ExactRep-v3-final,2021.2.3,59.90050532590536,
,,,,,,,,16,0,16,0,,,,,,,,,,,,,,,,,,,,,,,,,,,,,,,,,,,,,,,,,,,,,,,,,,,,,8266.591194200097,None,,,,,,,,,,,,,,,,,,,,,,,,,,,,,,,,,,,trouble,111,17,aloud,blue,8264.589309999952,None,None,8264.589309999952,None,,,,,,,,,,,,,,,,,,,,,,,,,,,,,,15YC,001,2023_Mar_01_1532,ExactRep-v3-final,2021.2.3,59.90050532590536,
,,,,,,,,17,0,17,0,,,,,,,,,,,,,,,,,,,,,,,,,,,,,,,,,,,,,,,,,,,,,,,,,,,,,8269.110516000073,None,,,,,,,,,,,,,,,,,,,,,,,,,,,,,,,,,,,life,110,18,aloud,blue,8267.095004299888,None,None,8267.095004299888,None,,,,,,,,,,,,,,,,,,,,,,,,,,,,,,15YC,001,2023_Mar_01_1532,ExactRep-v3-final,2021.2.3,59.90050532590536,
,,,,,,,,18,0,18,0,,,,,,,,,,,,,,,,,,,,,,,,,,,,,,,,,,,,,,,,,,,,,,,,,,,,,8271.612713899929,None,,,,,,,,,,,,,,,,,,,,,,,,,,,,,,,,,,,flood,87,19,aloud,blue,8269.611014599912,None,None,8269.611014599912,None,,,,,,,,,,,,,,,,,,,,,,,,,,,,,,15YC,001,2023_Mar_01_1532,ExactRep-v3-final,2021.2.3,59.90050532590536,
,,,,,,,,19,0,19,0,,,,,,,,,,,,,,,,,,,,,,,,,,,,,,,,,,,,,,,,,,,,,,,,,,,,,8274.13209729991,None,,,,,,,,,,,,,,,,,,,,,,,,,,,,,,,,,,,palace,109,20,aloud,blue,8272.120970499935,None,None,8272.120970499935,None,,,,,,,,,,,,,,,,,,,,,,,,,,,,,,15YC,001,2023_Mar_01_1532,ExactRep-v3-final,2021.2.3,59.90050532590536,
,,,,,,,,20,0,20,0,,,,,,,,,,,,,,,,,,,,,,,,,,,,,,,,,,,,,,,,,,,,,,,,,,,,,8276.634604200022,None,,,,,,,,,,,,,,,,,,,,,,,,,,,,,,,,,,,church,80,21,aloud,blue,8274.632706899894,None,None,8274.632706899894,None,,,,,,,,,,,,,,,,,,,,,,,,,,,,,,15YC,001,2023_Mar_01_1532,ExactRep-v3-final,2021.2.3,59.90050532590536,
,,,,,,,,21,0,21,0,,,,,,,,,,,,,,,,,,,,,,,,,,,,,,,,,,,,,,,,,,,,,,,,,,,,,8279.153984100092,None,,,,,,,,,,,,,,,,,,,,,,,,,,,,,,,,,,,wine,60,22,silent,red,8277.140840000007,None,None,8277.140840000007,None,,,,,,,,,,,,,,,,,,,,,,,,,,,,,,15YC,001,2023_Mar_01_1532,ExactRep-v3-final,2021.2.3,59.90050532590536,
,,,,,,,,22,0,22,0,,,,,,,,,,,,,,,,,,,,,,,,,,,,,,,,,,,,,,,,,,,,,,,,,,,,,8281.656238100026,None,,,,,,,,,,,,,,,,,,,,,,,,,,,,,,,,,,,death,51,23,silent,red,8279.654308399884,None,None,8279.654308399884,None,,,,,,,,,,,,,,,,,,,,,,,,,,,,,,15YC,001,2023_Mar_01_1532,ExactRep-v3-final,2021.2.3,59.90050532590536,
,,,,,,,,23,0,23,0,,,,,,,,,,,,,,,,,,,,,,,,,,,,,,,,,,,,,,,,,,,,,,,,,,,,,8284.175398400053,None,,,,,,,,,,,,,,,,,,,,,,,,,,,,,,,,,,,blood,14,24,sing,white,8282.162356599933,None,None,8282.162356599933,None,,,,,,,,,,,,,,,,,,,,,,,,,,,,,,15YC,001,2023_Mar_01_1532,ExactRep-v3-final,2021.2.3,59.90050532590536,
,,,,,,,,24,0,24,0,,,,,,,,,,,,,,,,,,,,,,,,,,,,,,,,,,,,,,,,,,,,,,,,,,,,,8286.694622100098,None,,,,,,,,,,,,,,,,,,,,,,,,,,,,,,,,,,,temple,78,25,silent,red,8284.68456580001,None,None,8284.68456580001,None,,,,,,,,,,,,,,,,,,,,,,,,,,,,,,15YC,001,2023_Mar_01_1532,ExactRep-v3-final,2021.2.3,59.90050532590536,
,,,,,,,,25,0,25,0,,,,,,,,,,,,,,,,,,,,,,,,,,,,,,,,,,,,,,,,,,,,,,,,,,,,,8289.197152199922,None,,,,,,,,,,,,,,,,,,,,,,,,,,,,,,,,,,,cattle,53,26,silent,red,8287.196433200035,None,None,8287.196433200035,None,,,,,,,,,,,,,,,,,,,,,,,,,,,,,,15YC,001,2023_Mar_01_1532,ExactRep-v3-final,2021.2.3,59.90050532590536,
,,,,,,,,26,0,26,0,,,,,,,,,,,,,,,,,,,,,,,,,,,,,,,,,,,,,,,,,,,,,,,,,,,,,8291.716293900041,None,,,,,,,,,,,,,,,,,,,,,,,,,,,,,,,,,,,green,20,27,sing,white,8289.707380699925,None,None,8289.707380699925,None,,,,,,,,,,,,,,,,,,,,,,,,,,,,,,15YC,001,2023_Mar_01_1532,ExactRep-v3-final,2021.2.3,59.90050532590536,
,,,,,,,,27,0,27,0,,,,,,,,,,,,,,,,,,,,,,,,,,,,,,,,,,,,,,,,,,,,,,,,,,,,,8294.219027000014,None,,,,,,,,,,,,,,,,,,,,,,,,,,,,,,,,,,,soil,101,28,aloud,blue,8292.216789300088,None,None,8292.216789300088,None,,,,,,,,,,,,,,,,,,,,,,,,,,,,,,15YC,001,2023_Mar_01_1532,ExactRep-v3-final,2021.2.3,59.90050532590536,
,,,,,,,,28,0,28,0,,,,,,,,,,,,,,,,,,,,,,,,,,,,,,,,,,,,,,,,,,,,,,,,,,,,,8296.738222500077,None,,,,,,,,,,,,,,,,,,,,,,,,,,,,,,,,,,,pipe,31,29,sing,white,8294.723679200048,None,None,8294.723679200048,None,,,,,,,,,,,,,,,,,,,,,,,,,,,,,,15YC,001,2023_Mar_01_1532,ExactRep-v3-final,2021.2.3,59.90050532590536,
,,,,,,,,29,0,29,0,,,,,,,,,,,,,,,,,,,,,,,,,,,,,,,,,,,,,,,,,,,,,,,,,,,,,8299.257214599987,None,,,,,,,,,,,,,,,,,,,,,,,,,,,,,,,,,,,breast,48,30,silent,red,8297.243138399906,None,None,8297.243138399906,None,,,,,,,,,,,,,,,,,,,,,,,,,,,,,,15YC,001,2023_Mar_01_1532,ExactRep-v3-final,2021.2.3,59.90050532590536,
,,,,,,,,30,0,30,0,,,,,,,,,,,,,,,,,,,,,,,,,,,,,,,,,,,,,,,,,,,,,,,,,,,,,8301.776572899893,None,,,,,,,,,,,,,,,,,,,,,,,,,,,,,,,,,,,speech,105,31,aloud,blue,8299.76429630001,None,None,8299.76429630001,None,,,,,,,,,,,,,,,,,,,,,,,,,,,,,,15YC,001,2023_Mar_01_1532,ExactRep-v3-final,2021.2.3,59.90050532590536,
,,,,,,,,31,0,31,0,,,,,,,,,,,,,,,,,,,,,,,,,,,,,,,,,,,,,,,,,,,,,,,,,,,,,8304.279033199884,None,,,,,,,,,,,,,,,,,,,,,,,,,,,,,,,,,,,bar,26,32,sing,white,8302.277100699954,None,None,8302.277100699954,None,,,,,,,,,,,,,,,,,,,,,,,,,,,,,,15YC,001,2023_Mar_01_1532,ExactRep-v3-final,2021.2.3,59.90050532590536,
,,,,,,,,32,0,32,0,,,,,,,,,,,,,,,,,,,,,,,,,,,,,,,,,,,,,,,,,,,,,,,,,,,,,8306.78154310002,None,,,,,,,,,,,,,,,,,,,,,,,,,,,,,,,,,,,cotton,4,33,sing,white,8304.782042300096,None,None,8304.782042300096,None,,,,,,,,,,,,,,,,,,,,,,,,,,,,,,15YC,001,2023_Mar_01_1532,ExactRep-v3-final,2021.2.3,59.90050532590536,
,,,,,,,,33,0,33,0,,,,,,,,,,,,,,,,,,,,,,,,,,,,,,,,,,,,,,,,,,,,,,,,,,,,,8309.284049199894,None,,,,,,,,,,,,,,,,,,,,,,,,,,,,,,,,,,,humour,74,34,silent,red,8307.28371550003,None,None,8307.28371550003,None,,,,,,,,,,,,,,,,,,,,,,,,,,,,,,15YC,001,2023_Mar_01_1532,ExactRep-v3-final,2021.2.3,59.90050532590536,
,,,,,,,,34,0,34,0,,,,,,,,,,,,,,,,,,,,,,,,,,,,,,,,,,,,,,,,,,,,,,,,,,,,,8311.786565799965,None,,,,,,,,,,,,,,,,,,,,,,,,,,,,,,,,,,,fault,68,35,silent,red,8309.78613059991,None,None,8309.78613059991,None,,,,,,,,,,,,,,,,,,,,,,,,,,,,,,15YC,001,2023_Mar_01_1532,ExactRep-v3-final,2021.2.3,59.90050532590536,
,,,,,,,,35,0,35,0,,,,,,,,,,,,,,,,,,,,,,,,,,,,,,,,,,,,,,,,,,,,,,,,,,,,,8314.289046599995,None,,,,,,,,,,,,,,,,,,,,,,,,,,,,,,,,,,,vision,41,36,silent,red,8312.28852250008,None,None,8312.28852250008,None,,,,,,,,,,,,,,,,,,,,,,,,,,,,,,15YC,001,2023_Mar_01_1532,ExactRep-v3-final,2021.2.3,59.90050532590536,
,,,,,,,,36,0,36,0,,,,,,,,,,,,,,,,,,,,,,,,,,,,,,,,,,,,,,,,,,,,,,,,,,,,,8316.808232499985,None,,,,,,,,,,,,,,,,,,,,,,,,,,,,,,,,,,,apple,43,37,silent,red,8314.796973899938,None,None,8314.796973899938,None,,,,,,,,,,,,,,,,,,,,,,,,,,,,,,15YC,001,2023_Mar_01_1532,ExactRep-v3-final,2021.2.3,59.90050532590536,
,,,,,,,,37,0,37,0,,,,,,,,,,,,,,,,,,,,,,,,,,,,,,,,,,,,,,,,,,,,,,,,,,,,,8319.310734299943,None,,,,,,,,,,,,,,,,,,,,,,,,,,,,,,,,,,,dream,73,38,silent,red,8317.308747600066,None,None,8317.308747600066,None,,,,,,,,,,,,,,,,,,,,,,,,,,,,,,15YC,001,2023_Mar_01_1532,ExactRep-v3-final,2021.2.3,59.90050532590536,
,,,,,,,,38,0,38,0,,,,,,,,,,,,,,,,,,,,,,,,,,,,,,,,,,,,,,,,,,,,,,,,,,,,,8321.813255999936,None,,,,,,,,,,,,,,,,,,,,,,,,,,,,,,,,,,,flesh,28,39,sing,white,8319.811118199956,None,None,8319.811118199956,None,,,,,,,,,,,,,,,,,,,,,,,,,,,,,,15YC,001,2023_Mar_01_1532,ExactRep-v3-final,2021.2.3,59.90050532590536,
,,,,,,,,39,0,39,0,,,,,,,,,,,,,,,,,,,,,,,,,,,,,,,,,,,,,,,,,,,,,,,,,,,,,8324.315795700066,None,,,,,,,,,,,,,,,,,,,,,,,,,,,,,,,,,,,doctor,37,40,sing,white,8322.316385800019,None,None,8322.316385800019,None,,,,,,,,,,,,,,,,,,,,,,,,,,,,,,15YC,001,2023_Mar_01_1532,ExactRep-v3-final,2021.2.3,59.90050532590536,
,,,,,,,,40,0,40,0,,,,,,,,,,,,,,,,,,,,,,,,,,,,,,,,,,,,,,,,,,,,,,,,,,,,,8326.835082100006,None,,,,,,,,,,,,,,,,,,,,,,,,,,,,,,,,,,,student,12,41,sing,white,8324.820862099994,None,None,8324.820862099994,None,,,,,,,,,,,,,,,,,,,,,,,,,,,,,,15YC,001,2023_Mar_01_1532,ExactRep-v3-final,2021.2.3,59.90050532590536,
,,,,,,,,41,0,41,0,,,,,,,,,,,,,,,,,,,,,,,,,,,,,,,,,,,,,,,,,,,,,,,,,,,,,8329.354113300098,None,,,,,,,,,,,,,,,,,,,,,,,,,,,,,,,,,,,form,29,42,sing,white,8327.33995929989,None,None,8327.33995929989,None,,,,,,,,,,,,,,,,,,,,,,,,,,,,,,15YC,001,2023_Mar_01_1532,ExactRep-v3-final,2021.2.3,59.90050532590536,
,,,,,,,,42,0,42,0,,,,,,,,,,,,,,,,,,,,,,,,,,,,,,,,,,,,,,,,,,,,,,,,,,,,,8331.85665880004,None,,,,,,,,,,,,,,,,,,,,,,,,,,,,,,,,,,,boulder,40,43,silent,red,8329.854787599994,None,None,8329.854787599994,None,,,,,,,,,,,,,,,,,,,,,,,,,,,,,,15YC,001,2023_Mar_01_1532,ExactRep-v3-final,2021.2.3,59.90050532590536,
,,,,,,,,43,0,43,0,,,,,,,,,,,,,,,,,,,,,,,,,,,,,,,,,,,,,,,,,,,,,,,,,,,,,8334.359139200067,None,,,,,,,,,,,,,,,,,,,,,,,,,,,,,,,,,,,library,27,44,sing,white,8332.358546900097,None,None,8332.358546900097,None,,,,,,,,,,,,,,,,,,,,,,,,,,,,,,15YC,001,2023_Mar_01_1532,ExactRep-v3-final,2021.2.3,59.90050532590536,
,,,,,,,,44,0,44,0,,,,,,,,,,,,,,,,,,,,,,,,,,,,,,,,,,,,,,,,,,,,,,,,,,,,,8336.87812420004,None,,,,,,,,,,,,,,,,,,,,,,,,,,,,,,,,,,,square,99,45,aloud,blue,8334.86553560011,None,None,8334.86553560011,None,,,,,,,,,,,,,,,,,,,,,,,,,,,,,,15YC,001,2023_Mar_01_1532,ExactRep-v3-final,2021.2.3,59.90050532590536,
,,,,,,,,45,0,45,0,,,,,,,,,,,,,,,,,,,,,,,,,,,,,,,,,,,,,,,,,,,,,,,,,,,,,8339.380761400098,None,,,,,,,,,,,,,,,,,,,,,,,,,,,,,,,,,,,rod,115,46,aloud,blue,8337.378668599995,None,None,8337.378668599995,None,,,,,,,,,,,,,,,,,,,,,,,,,,,,,,15YC,001,2023_Mar_01_1532,ExactRep-v3-final,2021.2.3,59.90050532590536,
,,,,,,,,46,0,46,0,,,,,,,,,,,,,,,,,,,,,,,,,,,,,,,,,,,,,,,,,,,,,,,,,,,,,8341.883156799944,None,,,,,,,,,,,,,,,,,,,,,,,,,,,,,,,,,,,flag,95,47,aloud,blue,8339.881280699978,None,None,8339.881280699978,None,,,,,,,,,,,,,,,,,,,,,,,,,,,,,,15YC,001,2023_Mar_01_1532,ExactRep-v3-final,2021.2.3,59.90050532590536,
,,,,,,,,47,0,47,0,,,,,,,,,,,,,,,,,,,,,,,,,,,,,,,,,,,,,,,,,,,,,,,,,,,,,8344.385895099957,None,,,,,,,,,,,,,,,,,,,,,,,,,,,,,,,,,,,market,18,48,sing,white,8342.384106700076,None,None,8342.384106700076,None,,,,,,,,,,,,,,,,,,,,,,,,,,,,,,15YC,001,2023_Mar_01_1532,ExactRep-v3-final,2021.2.3,59.90050532590536,
,,,,,,,,48,0,48,0,,,,,,,,,,,,,,,,,,,,,,,,,,,,,,,,,,,,,,,,,,,,,,,,,,,,,8346.904944499955,None,,,,,,,,,,,,,,,,,,,,,,,,,,,,,,,,,,,murder,46,49,silent,red,8344.89041709993,None,None,8344.89041709993,None,,,,,,,,,,,,,,,,,,,,,,,,,,,,,,15YC,001,2023_Mar_01_1532,ExactRep-v3-final,2021.2.3,59.90050532590536,
,,,,,,,,49,0,49,0,,,,,,,,,,,,,,,,,,,,,,,,,,,,,,,,,,,,,,,,,,,,,,,,,,,,,8349.424201499904,None,,,,,,,,,,,,,,,,,,,,,,,,,,,,,,,,,,,engine,0,50,sing,white,8347.41077419999,None,None,8347.41077419999,None,,,,,,,,,,,,,,,,,,,,,,,,,,,,,,15YC,001,2023_Mar_01_1532,ExactRep-v3-final,2021.2.3,59.90050532590536,
,,,,,,,,50,0,50,0,,,,,,,,,,,,,,,,,,,,,,,,,,,,,,,,,,,,,,,,,,,,,,,,,,,,,8351.926778600086,None,,,,,,,,,,,,,,,,,,,,,,,,,,,,,,,,,,,bird,119,51,aloud,blue,8349.924685700098,None,None,8349.924685700098,None,,,,,,,,,,,,,,,,,,,,,,,,,,,,,,15YC,001,2023_Mar_01_1532,ExactRep-v3-final,2021.2.3,59.90050532590536,
,,,,,,,,51,0,51,0,,,,,,,,,,,,,,,,,,,,,,,,,,,,,,,,,,,,,,,,,,,,,,,,,,,,,8354.429200500017,None,,,,,,,,,,,,,,,,,,,,,,,,,,,,,,,,,,,forest,66,52,silent,red,8352.430184999947,None,None,8352.430184999947,None,,,,,,,,,,,,,,,,,,,,,,,,,,,,,,15YC,001,2023_Mar_01_1532,ExactRep-v3-final,2021.2.3,59.90050532590536,
,,,,,,,,52,0,52,0,,,,,,,,,,,,,,,,,,,,,,,,,,,,,,,,,,,,,,,,,,,,,,,,,,,,,8356.94820480002,None,,,,,,,,,,,,,,,,,,,,,,,,,,,,,,,,,,,seat,9,53,sing,white,8354.936588200042,None,None,8354.936588200042,None,,,,,,,,,,,,,,,,,,,,,,,,,,,,,,15YC,001,2023_Mar_01_1532,ExactRep-v3-final,2021.2.3,59.90050532590536,
,,,,,,,,53,0,53,0,,,,,,,,,,,,,,,,,,,,,,,,,,,,,,,,,,,,,,,,,,,,,,,,,,,,,8359.467429799959,None,,,,,,,,,,,,,,,,,,,,,,,,,,,,,,,,,,,ability,89,54,aloud,blue,8357.457726699999,None,None,8357.457726699999,None,,,,,,,,,,,,,,,,,,,,,,,,,,,,,,15YC,001,2023_Mar_01_1532,ExactRep-v3-final,2021.2.3,59.90050532590536,
,,,,,,,,54,0,54,0,,,,,,,,,,,,,,,,,,,,,,,,,,,,,,,,,,,,,,,,,,,,,,,,,,,,,8361.97007660009,None,,,,,,,,,,,,,,,,,,,,,,,,,,,,,,,,,,,prayer,81,55,aloud,blue,8359.967995899962,None,None,8359.967995899962,None,,,,,,,,,,,,,,,,,,,,,,,,,,,,,,15YC,001,2023_Mar_01_1532,ExactRep-v3-final,2021.2.3,59.90050532590536,
,,,,,,,,55,0,55,0,,,,,,,,,,,,,,,,,,,,,,,,,,,,,,,,,,,,,,,,,,,,,,,,,,,,,8364.472358499886,None,,,,,,,,,,,,,,,,,,,,,,,,,,,,,,,,,,,hide,19,56,sing,white,8362.470390500035,None,None,8362.470390500035,None,,,,,,,,,,,,,,,,,,,,,,,,,,,,,,15YC,001,2023_Mar_01_1532,ExactRep-v3-final,2021.2.3,59.90050532590536,
,,,,,,,,56,0,56,0,,,,,,,,,,,,,,,,,,,,,,,,,,,,,,,,,,,,,,,,,,,,,,,,,,,,,8366.975111099891,None,,,,,,,,,,,,,,,,,,,,,,,,,,,,,,,,,,,priest,96,57,aloud,blue,8364.974509699969,None,None,8364.974509699969,None,,,,,,,,,,,,,,,,,,,,,,,,,,,,,,15YC,001,2023_Mar_01_1532,ExactRep-v3-final,2021.2.3,59.90050532590536,
,,,,,,,,57,0,57,0,,,,,,,,,,,,,,,,,,,,,,,,,,,,,,,,,,,,,,,,,,,,,,,,,,,,,8369.494084300008,None,,,,,,,,,,,,,,,,,,,,,,,,,,,,,,,,,,,village,23,58,sing,white,8367.478467300069,None,None,8367.478467300069,None,,,,,,,,,,,,,,,,,,,,,,,,,,,,,,15YC,001,2023_Mar_01_1532,ExactRep-v3-final,2021.2.3,59.90050532590536,
,,,,,,,,58,0,58,0,,,,,,,,,,,,,,,,,,,,,,,,,,,,,,,,,,,,,,,,,,,,,,,,,,,,,8372.013510100078,None,,,,,,,,,,,,,,,,,,,,,,,,,,,,,,,,,,,string,117,59,aloud,blue,8369.999333899934,None,None,8369.999333899934,None,,,,,,,,,,,,,,,,,,,,,,,,,,,,,,15YC,001,2023_Mar_01_1532,ExactRep-v3-final,2021.2.3,59.90050532590536,
,,,,,,,,59,0,59,0,,,,,,,,,,,,,,,,,,,,,,,,,,,,,,,,,,,,,,,,,,,,,,,,,,,,,8374.532716100104,None,,,,,,,,,,,,,,,,,,,,,,,,,,,,,,,,,,,vessel,47,60,silent,red,8372.51756009995,None,None,8372.51756009995,None,,,,,,,,,,,,,,,,,,,,,,,,,,,,,,15YC,001,2023_Mar_01_1532,ExactRep-v3-final,2021.2.3,59.90050532590536,
,,,,,,,,60,0,60,0,,,,,,,,,,,,,,,,,,,,,,,,,,,,,,,,,,,,,,,,,,,,,,,,,,,,,8377.05182459997,None,,,,,,,,,,,,,,,,,,,,,,,,,,,,,,,,,,,prison,67,61,silent,red,8375.036496100016,None,None,8375.036496100016,None,,,,,,,,,,,,,,,,,,,,,,,,,,,,,,15YC,001,2023_Mar_01_1532,ExactRep-v3-final,2021.2.3,59.90050532590536,
,,,,,,,,61,0,61,0,,,,,,,,,,,,,,,,,,,,,,,,,,,,,,,,,,,,,,,,,,,,,,,,,,,,,8379.554328599945,None,,,,,,,,,,,,,,,,,,,,,,,,,,,,,,,,,,,wife,1,62,sing,white,8377.55345789995,None,None,8377.55345789995,None,,,,,,,,,,,,,,,,,,,,,,,,,,,,,,15YC,001,2023_Mar_01_1532,ExactRep-v3-final,2021.2.3,59.90050532590536,
,,,,,,,,62,0,62,0,,,,,,,,,,,,,,,,,,,,,,,,,,,,,,,,,,,,,,,,,,,,,,,,,,,,,8382.073540800018,None,,,,,,,,,,,,,,,,,,,,,,,,,,,,,,,,,,,quality,15,63,sing,white,8380.065002799965,None,None,8380.065002799965,None,,,,,,,,,,,,,,,,,,,,,,,,,,,,,,15YC,001,2023_Mar_01_1532,ExactRep-v3-final,2021.2.3,59.90050532590536,
,,,,,,,,63,0,63,0,,,,,,,,,,,,,,,,,,,,,,,,,,,,,,,,,,,,,,,,,,,,,,,,,,,,,8384.592771499883,None,,,,,,,,,,,,,,,,,,,,,,,,,,,,,,,,,,,product,10,64,sing,white,8382.577334099915,None,None,8382.577334099915,None,,,,,,,,,,,,,,,,,,,,,,,,,,,,,,15YC,001,2023_Mar_01_1532,ExactRep-v3-final,2021.2.3,59.90050532590536,
,,,,,,,,64,0,64,0,,,,,,,,,,,,,,,,,,,,,,,,,,,,,,,,,,,,,,,,,,,,,,,,,,,,,8387.09520510002,None,,,,,,,,,,,,,,,,,,,,,,,,,,,,,,,,,,,hall,8,65,sing,white,8385.093186199898,None,None,8385.093186199898,None,,,,,,,,,,,,,,,,,,,,,,,,,,,,,,15YC,001,2023_Mar_01_1532,ExactRep-v3-final,2021.2.3,59.90050532590536,
,,,,,,,,65,0,65,0,,,,,,,,,,,,,,,,,,,,,,,,,,,,,,,,,,,,,,,,,,,,,,,,,,,,,8389.597744500032,None,,,,,,,,,,,,,,,,,,,,,,,,,,,,,,,,,,,lad,7,66,sing,white,8387.596425599884,None,None,8387.596425599884,None,,,,,,,,,,,,,,,,,,,,,,,,,,,,,,15YC,001,2023_Mar_01_1532,ExactRep-v3-final,2021.2.3,59.90050532590536,
,,,,,,,,66,0,66,0,,,,,,,,,,,,,,,,,,,,,,,,,,,,,,,,,,,,,,,,,,,,,,,,,,,,,8392.100254199933,None,,,,,,,,,,,,,,,,,,,,,,,,,,,,,,,,,,,cash,38,67,sing,white,8390.098070400069,None,None,8390.098070400069,None,,,,,,,,,,,,,,,,,,,,,,,,,,,,,,15YC,001,2023_Mar_01_1532,ExactRep-v3-final,2021.2.3,59.90050532590536,
,,,,,,,,67,0,67,0,,,,,,,,,,,,,,,,,,,,,,,,,,,,,,,,,,,,,,,,,,,,,,,,,,,,,8394.6027855,None,,,,,,,,,,,,,,,,,,,,,,,,,,,,,,,,,,,corn,98,68,aloud,blue,8392.60254839994,None,None,8392.60254839994,None,,,,,,,,,,,,,,,,,,,,,,,,,,,,,,15YC,001,2023_Mar_01_1532,ExactRep-v3-final,2021.2.3,59.90050532590536,
,,,,,,,,68,0,68,0,,,,,,,,,,,,,,,,,,,,,,,,,,,,,,,,,,,,,,,,,,,,,,,,,,,,,8397.105211900081,None,,,,,,,,,,,,,,,,,,,,,,,,,,,,,,,,,,,street,45,69,silent,red,8395.105498899939,None,None,8395.105498899939,None,,,,,,,,,,,,,,,,,,,,,,,,,,,,,,15YC,001,2023_Mar_01_1532,ExactRep-v3-final,2021.2.3,59.90050532590536,
,,,,,,,,69,0,69,0,,,,,,,,,,,,,,,,,,,,,,,,,,,,,,,,,,,,,,,,,,,,,,,,,,,,,8399.607781799976,None,,,,,,,,,,,,,,,,,,,,,,,,,,,,,,,,,,,camp,42,70,silent,red,8397.607212299947,None,None,8397.607212299947,None,,,,,,,,,,,,,,,,,,,,,,,,,,,,,,15YC,001,2023_Mar_01_1532,ExactRep-v3-final,2021.2.3,59.90050532590536,
,,,,,,,,70,0,70,0,,,,,,,,,,,,,,,,,,,,,,,,,,,,,,,,,,,,,,,,,,,,,,,,,,,,,8402.110061899992,None,,,,,,,,,,,,,,,,,,,,,,,,,,,,,,,,,,,person,36,71,sing,white,8400.10807950003,None,None,8400.10807950003,None,,,,,,,,,,,,,,,,,,,,,,,,,,,,,,15YC,001,2023_Mar_01_1532,ExactRep-v3-final,2021.2.3,59.90050532590536,
,,,,,,,,71,0,71,0,,,,,,,,,,,,,,,,,,,,,,,,,,,,,,,,,,,,,,,,,,,,,,,,,,,,,8404.612634199904,None,,,,,,,,,,,,,,,,,,,,,,,,,,,,,,,,,,,officer,44,72,silent,red,8402.613704500021,None,None,8402.613704500021,None,,,,,,,,,,,,,,,,,,,,,,,,,,,,,,15YC,001,2023_Mar_01_1532,ExactRep-v3-final,2021.2.3,59.90050532590536,
,,,,,,,,72,0,72,0,,,,,,,,,,,,,,,,,,,,,,,,,,,,,,,,,,,,,,,,,,,,,,,,,,,,,8407.132484900067,None,,,,,,,,,,,,,,,,,,,,,,,,,,,,,,,,,,,woman,108,73,aloud,blue,8405.117675299989,None,None,8405.117675299989,None,,,,,,,,,,,,,,,,,,,,,,,,,,,,,,15YC,001,2023_Mar_01_1532,ExactRep-v3-final,2021.2.3,59.90050532590536,
,,,,,,,,73,0,73,0,,,,,,,,,,,,,,,,,,,,,,,,,,,,,,,,,,,,,,,,,,,,,,,,,,,,,8409.634432600113,None,,,,,,,,,,,,,,,,,,,,,,,,,,,,,,,,,,,insect,106,74,aloud,blue,8407.63240589993,None,None,8407.63240589993,None,,,,,,,,,,,,,,,,,,,,,,,,,,,,,,15YC,001,2023_Mar_01_1532,ExactRep-v3-final,2021.2.3,59.90050532590536,
,,,,,,,,74,0,74,0,,,,,,,,,,,,,,,,,,,,,,,,,,,,,,,,,,,,,,,,,,,,,,,,,,,,,8412.153639599914,None,,,,,,,,,,,,,,,,,,,,,,,,,,,,,,,,,,,excuse,32,75,sing,white,8410.141176899895,None,None,8410.141176899895,None,,,,,,,,,,,,,,,,,,,,,,,,,,,,,,15YC,001,2023_Mar_01_1532,ExactRep-v3-final,2021.2.3,59.90050532590536,
,,,,,,,,75,0,75,0,,,,,,,,,,,,,,,,,,,,,,,,,,,,,,,,,,,,,,,,,,,,,,,,,,,,,8414.67259439989,None,,,,,,,,,,,,,,,,,,,,,,,,,,,,,,,,,,,amount,49,76,silent,red,8412.661576000042,None,None,8412.661576000042,None,,,,,,,,,,,,,,,,,,,,,,,,,,,,,,15YC,001,2023_Mar_01_1532,ExactRep-v3-final,2021.2.3,59.90050532590536,
,,,,,,,,76,0,76,0,,,,,,,,,,,,,,,,,,,,,,,,,,,,,,,,,,,,,,,,,,,,,,,,,,,,,8417.175274499925,None,,,,,,,,,,,,,,,,,,,,,,,,,,,,,,,,,,,house,13,77,sing,white,8415.173279900104,None,None,8415.173279900104,None,,,,,,,,,,,,,,,,,,,,,,,,,,,,,,15YC,001,2023_Mar_01_1532,ExactRep-v3-final,2021.2.3,59.90050532590536,
,,,,,,,,77,0,77,0,,,,,,,,,,,,,,,,,,,,,,,,,,,,,,,,,,,,,,,,,,,,,,,,,,,,,8419.677812400041,None,,,,,,,,,,,,,,,,,,,,,,,,,,,,,,,,,,,college,102,78,aloud,blue,8417.678776900051,None,None,8417.678776900051,None,,,,,,,,,,,,,,,,,,,,,,,,,,,,,,15YC,001,2023_Mar_01_1532,ExactRep-v3-final,2021.2.3,59.90050532590536,
,,,,,,,,78,0,78,0,,,,,,,,,,,,,,,,,,,,,,,,,,,,,,,,,,,,,,,,,,,,,,,,,,,,,8422.180283499882,None,,,,,,,,,,,,,,,,,,,,,,,,,,,,,,,,,,,memory,107,79,aloud,blue,8420.181294299895,None,None,8420.181294299895,None,,,,,,,,,,,,,,,,,,,,,,,,,,,,,,15YC,001,2023_Mar_01_1532,ExactRep-v3-final,2021.2.3,59.90050532590536,
,,,,,,,,79,0,79,0,,,,,,,,,,,,,,,,,,,,,,,,,,,,,,,,,,,,,,,,,,,,,,,,,,,,,8424.69947439991,None,,,,,,,,,,,,,,,,,,,,,,,,,,,,,,,,,,,water,52,80,silent,red,8422.68504339992,None,None,8422.68504339992,None,,,,,,,,,,,,,,,,,,,,,,,,,,,,,,15YC,001,2023_Mar_01_1532,ExactRep-v3-final,2021.2.3,59.90050532590536,
,,,,,,,,80,0,80,0,,,,,,,,,,,,,,,,,,,,,,,,,,,,,,,,,,,,,,,,,,,,,,,,,,,,,8427.201830799924,None,,,,,,,,,,,,,,,,,,,,,,,,,,,,,,,,,,,party,35,81,sing,white,8425.19978330005,None,None,8425.19978330005,None,,,,,,,,,,,,,,,,,,,,,,,,,,,,,,15YC,001,2023_Mar_01_1532,ExactRep-v3-final,2021.2.3,59.90050532590536,
,,,,,,,,81,0,81,0,,,,,,,,,,,,,,,,,,,,,,,,,,,,,,,,,,,,,,,,,,,,,,,,,,,,,8429.704568200046,None,,,,,,,,,,,,,,,,,,,,,,,,,,,,,,,,,,,shoes,88,82,aloud,blue,8427.704552799929,None,None,8427.704552799929,None,,,,,,,,,,,,,,,,,,,,,,,,,,,,,,15YC,001,2023_Mar_01_1532,ExactRep-v3-final,2021.2.3,59.90050532590536,
,,,,,,,,82,0,82,0,,,,,,,,,,,,,,,,,,,,,,,,,,,,,,,,,,,,,,,,,,,,,,,,,,,,,8432.223693599924,None,,,,,,,,,,,,,,,,,,,,,,,,,,,,,,,,,,,beast,56,83,silent,red,8430.211506400025,None,None,8430.211506400025,None,,,,,,,,,,,,,,,,,,,,,,,,,,,,,,15YC,001,2023_Mar_01_1532,ExactRep-v3-final,2021.2.3,59.90050532590536,
,,,,,,,,83,0,83,0,,,,,,,,,,,,,,,,,,,,,,,,,,,,,,,,,,,,,,,,,,,,,,,,,,,,,8434.725861500017,None,,,,,,,,,,,,,,,,,,,,,,,,,,,,,,,,,,,freedom,65,84,silent,red,8432.726260900032,None,None,8432.726260900032,None,,,,,,,,,,,,,,,,,,,,,,,,,,,,,,15YC,001,2023_Mar_01_1532,ExactRep-v3-final,2021.2.3,59.90050532590536,
,,,,,,,,84,0,84,0,,,,,,,,,,,,,,,,,,,,,,,,,,,,,,,,,,,,,,,,,,,,,,,,,,,,,8437.245194399962,None,,,,,,,,,,,,,,,,,,,,,,,,,,,,,,,,,,,tool,113,85,aloud,blue,8435.232386900112,None,None,8435.232386900112,None,,,,,,,,,,,,,,,,,,,,,,,,,,,,,,15YC,001,2023_Mar_01_1532,ExactRep-v3-final,2021.2.3,59.90050532590536,
,,,,,,,,85,0,85,0,,,,,,,,,,,,,,,,,,,,,,,,,,,,,,,,,,,,,,,,,,,,,,,,,,,,,8439.747694399906,None,,,,,,,,,,,,,,,,,,,,,,,,,,,,,,,,,,,tree,25,86,sing,white,8437.745666899951,None,None,8437.745666899951,None,,,,,,,,,,,,,,,,,,,,,,,,,,,,,,15YC,001,2023_Mar_01_1532,ExactRep-v3-final,2021.2.3,59.90050532590536,
,,,,,,,,86,0,86,0,,,,,,,,,,,,,,,,,,,,,,,,,,,,,,,,,,,,,,,,,,,,,,,,,,,,,8442.250431400025,None,,,,,,,,,,,,,,,,,,,,,,,,,,,,,,,,,,,health,91,87,aloud,blue,8440.248192399973,None,None,8440.248192399973,None,,,,,,,,,,,,,,,,,,,,,,,,,,,,,,15YC,001,2023_Mar_01_1532,ExactRep-v3-final,2021.2.3,59.90050532590536,
,,,,,,,,87,0,87,0,,,,,,,,,,,,,,,,,,,,,,,,,,,,,,,,,,,,,,,,,,,,,,,,,,,,,8444.769604800036,None,,,,,,,,,,,,,,,,,,,,,,,,,,,,,,,,,,,moral,103,88,aloud,blue,8442.757785500027,None,None,8442.757785500027,None,,,,,,,,,,,,,,,,,,,,,,,,,,,,,,15YC,001,2023_Mar_01_1532,ExactRep-v3-final,2021.2.3,59.90050532590536,
,,,,,,,,88,0,88,0,,,,,,,,,,,,,,,,,,,,,,,,,,,,,,,,,,,,,,,,,,,,,,,,,,,,,8447.272077000001,None,,,,,,,,,,,,,,,,,,,,,,,,,,,,,,,,,,,advice,90,89,aloud,blue,8445.272916200105,None,None,8445.272916200105,None,,,,,,,,,,,,,,,,,,,,,,,,,,,,,,15YC,001,2023_Mar_01_1532,ExactRep-v3-final,2021.2.3,59.90050532590536,
,,,,,,,,89,0,89,0,,,,,,,,,,,,,,,,,,,,,,,,,,,,,,,,,,,,,,,,,,,,,,,,,,,,,8449.774607700063,None,,,,,,,,,,,,,,,,,,,,,,,,,,,,,,,,,,,judge,61,90,silent,red,8447.77554349997,None,None,8447.77554349997,None,,,,,,,,,,,,,,,,,,,,,,,,,,,,,,15YC,001,2023_Mar_01_1532,ExactRep-v3-final,2021.2.3,59.90050532590536,
,,,,,,,,90,0,90,0,,,,,,,,,,,,,,,,,,,,,,,,,,,,,,,,,,,,,,,,,,,,,,,,,,,,,8452.293778900057,None,,,,,,,,,,,,,,,,,,,,,,,,,,,,,,,,,,,window,16,91,sing,white,8450.279190900037,None,None,8450.279190900037,None,,,,,,,,,,,,,,,,,,,,,,,,,,,,,,15YC,001,2023_Mar_01_1532,ExactRep-v3-final,2021.2.3,59.90050532590536,
,,,,,,,,91,0,91,0,,,,,,,,,,,,,,,,,,,,,,,,,,,,,,,,,,,,,,,,,,,,,,,,,,,,,8454.796239099931,None,,,,,,,,,,,,,,,,,,,,,,,,,,,,,,,,,,,paper,82,92,aloud,blue,8452.796676599886,None,None,8452.796676599886,None,,,,,,,,,,,,,,,,,,,,,,,,,,,,,,15YC,001,2023_Mar_01_1532,ExactRep-v3-final,2021.2.3,59.90050532590536,
,,,,,,,,92,0,92,0,,,,,,,,,,,,,,,,,,,,,,,,,,,,,,,,,,,,,,,,,,,,,,,,,,,,,8457.299462399911,None,,,,,,,,,,,,,,,,,,,,,,,,,,,,,,,,,,,shadow,54,93,silent,red,8455.298439899925,None,None,8455.298439899925,None,,,,,,,,,,,,,,,,,,,,,,,,,,,,,,15YC,001,2023_Mar_01_1532,ExactRep-v3-final,2021.2.3,59.90050532590536,
,,,,,,,,93,0,93,0,,,,,,,,,,,,,,,,,,,,,,,,,,,,,,,,,,,,,,,,,,,,,,,,,,,,,8459.801307700109,None,,,,,,,,,,,,,,,,,,,,,,,,,,,,,,,,,,,dust,17,94,sing,white,8457.801379200071,None,None,8457.801379200071,None,,,,,,,,,,,,,,,,,,,,,,,,,,,,,,15YC,001,2023_Mar_01_1532,ExactRep-v3-final,2021.2.3,59.90050532590536,
,,,,,,,,94,0,94,0,,,,,,,,,,,,,,,,,,,,,,,,,,,,,,,,,,,,,,,,,,,,,,,,,,,,,8462.320487800054,None,,,,,,,,,,,,,,,,,,,,,,,,,,,,,,,,,,,corner,39,95,silent,red,8460.307523699943,None,None,8460.307523699943,None,,,,,,,,,,,,,,,,,,,,,,,,,,,,,,15YC,001,2023_Mar_01_1532,ExactRep-v3-final,2021.2.3,59.90050532590536,
,,,,,,,,95,0,95,0,,,,,,,,,,,,,,,,,,,,,,,,,,,,,,,,,,,,,,,,,,,,,,,,,,,,,8464.839272900019,None,,,,,,,,,,,,,,,,,,,,,,,,,,,,,,,,,,,star,5,96,sing,white,8462.827751799952,None,None,8462.827751799952,None,,,,,,,,,,,,,,,,,,,,,,,,,,,,,,15YC,001,2023_Mar_01_1532,ExactRep-v3-final,2021.2.3,59.90050532590536,
,,,,,,,,96,0,96,0,,,,,,,,,,,,,,,,,,,,,,,,,,,,,,,,,,,,,,,,,,,,,,,,,,,,,8467.358794800006,None,,,,,,,,,,,,,,,,,,,,,,,,,,,,,,,,,,,avenue,30,97,sing,white,8465.3481532,None,None,8465.3481532,None,,,,,,,,,,,,,,,,,,,,,,,,,,,,,,15YC,001,2023_Mar_01_1532,ExactRep-v3-final,2021.2.3,59.90050532590536,
,,,,,,,,97,0,97,0,,,,,,,,,,,,,,,,,,,,,,,,,,,,,,,,,,,,,,,,,,,,,,,,,,,,,8469.86133669992,None,,,,,,,,,,,,,,,,,,,,,,,,,,,,,,,,,,,picture,22,98,sing,white,8467.859836899908,None,None,8467.859836899908,None,,,,,,,,,,,,,,,,,,,,,,,,,,,,,,15YC,001,2023_Mar_01_1532,ExactRep-v3-final,2021.2.3,59.90050532590536,
,,,,,,,,98,0,98,0,,,,,,,,,,,,,,,,,,,,,,,,,,,,,,,,,,,,,,,,,,,,,,,,,,,,,8472.363929300103,None,,,,,,,,,,,,,,,,,,,,,,,,,,,,,,,,,,,potato,11,99,sing,white,8470.361739000073,None,None,8470.361739000073,None,,,,,,,,,,,,,,,,,,,,,,,,,,,,,,15YC,001,2023_Mar_01_1532,ExactRep-v3-final,2021.2.3,59.90050532590536,
,,,,,,,,99,0,99,0,,,,,,,,,,,,,,,,,,,,,,,,,,,,,,,,,,,,,,,,,,,,,,,,,,,,,8474.883039100096,None,,,,,,,,,,,,,,,,,,,,,,,,,,,,,,,,,,,shore,64,100,silent,red,8472.867631299887,None,None,8472.867631299887,None,,,,,,,,,,,,,,,,,,,,,,,,,,,,,,15YC,001,2023_Mar_01_1532,ExactRep-v3-final,2021.2.3,59.90050532590536,
,,,,,,,,100,0,100,0,,,,,,,,,,,,,,,,,,,,,,,,,,,,,,,,,,,,,,,,,,,,,,,,,,,,,8477.385599999921,None,,,,,,,,,,,,,,,,,,,,,,,,,,,,,,,,,,,troops,2,101,sing,white,8475.38585239998,None,None,8475.38585239998,None,,,,,,,,,,,,,,,,,,,,,,,,,,,,,,15YC,001,2023_Mar_01_1532,ExactRep-v3-final,2021.2.3,59.90050532590536,
,,,,,,,,101,0,101,0,,,,,,,,,,,,,,,,,,,,,,,,,,,,,,,,,,,,,,,,,,,,,,,,,,,,,8479.904642400099,None,,,,,,,,,,,,,,,,,,,,,,,,,,,,,,,,,,,silence,33,102,sing,white,8477.895491600037,None,None,8477.895491600037,None,,,,,,,,,,,,,,,,,,,,,,,,,,,,,,15YC,001,2023_Mar_01_1532,ExactRep-v3-final,2021.2.3,59.90050532590536,
,,,,,,,,102,0,102,0,,,,,,,,,,,,,,,,,,,,,,,,,,,,,,,,,,,,,,,,,,,,,,,,,,,,,8482.407097599935,None,,,,,,,,,,,,,,,,,,,,,,,,,,,,,,,,,,,city,6,103,sing,white,8480.405165599892,None,None,8480.405165599892,None,,,,,,,,,,,,,,,,,,,,,,,,,,,,,,15YC,001,2023_Mar_01_1532,ExactRep-v3-final,2021.2.3,59.90050532590536,
,,,,,,,,103,0,103,0,,,,,,,,,,,,,,,,,,,,,,,,,,,,,,,,,,,,,,,,,,,,,,,,,,,,,8484.92621090007,None,,,,,,,,,,,,,,,,,,,,,,,,,,,,,,,,,,,stone,24,104,sing,white,8482.916760300053,None,None,8482.916760300053,None,,,,,,,,,,,,,,,,,,,,,,,,,,,,,,15YC,001,2023_Mar_01_1532,ExactRep-v3-final,2021.2.3,59.90050532590536,
,,,,,,,,104,0,104,0,,,,,,,,,,,,,,,,,,,,,,,,,,,,,,,,,,,,,,,,,,,,,,,,,,,,,8487.42893350008,None,,,,,,,,,,,,,,,,,,,,,,,,,,,,,,,,,,,air,70,105,silent,red,8485.426878999919,None,None,8485.426878999919,None,,,,,,,,,,,,,,,,,,,,,,,,,,,,,,15YC,001,2023_Mar_01_1532,ExactRep-v3-final,2021.2.3,59.90050532590536,
,,,,,,,,105,0,105,0,,,,,,,,,,,,,,,,,,,,,,,,,,,,,,,,,,,,,,,,,,,,,,,,,,,,,8489.948042700067,None,,,,,,,,,,,,,,,,,,,,,,,,,,,,,,,,,,,chair,72,106,silent,red,8487.936380299972,None,None,8487.936380299972,None,,,,,,,,,,,,,,,,,,,,,,,,,,,,,,15YC,001,2023_Mar_01_1532,ExactRep-v3-final,2021.2.3,59.90050532590536,
,,,,,,,,106,0,106,0,,,,,,,,,,,,,,,,,,,,,,,,,,,,,,,,,,,,,,,,,,,,,,,,,,,,,8492.45059620007,None,,,,,,,,,,,,,,,,,,,,,,,,,,,,,,,,,,,fortune,3,107,sing,white,8490.448417299893,None,None,8490.448417299893,None,,,,,,,,,,,,,,,,,,,,,,,,,,,,,,15YC,001,2023_Mar_01_1532,ExactRep-v3-final,2021.2.3,59.90050532590536,
,,,,,,,,107,0,107,0,,,,,,,,,,,,,,,,,,,,,,,,,,,,,,,,,,,,,,,,,,,,,,,,,,,,,8494.969394499902,None,,,,,,,,,,,,,,,,,,,,,,,,,,,,,,,,,,,spirit,77,108,silent,red,8492.955064899987,None,None,8492.955064899987,None,,,,,,,,,,,,,,,,,,,,,,,,,,,,,,15YC,001,2023_Mar_01_1532,ExactRep-v3-final,2021.2.3,59.90050532590536,
,,,,,,,,108,0,108,0,,,,,,,,,,,,,,,,,,,,,,,,,,,,,,,,,,,,,,,,,,,,,,,,,,,,,8497.488902800018,None,,,,,,,,,,,,,,,,,,,,,,,,,,,,,,,,,,,pride,114,109,aloud,blue,8495.473611899884,None,None,8495.473611899884,None,,,,,,,,,,,,,,,,,,,,,,,,,,,,,,15YC,001,2023_Mar_01_1532,ExactRep-v3-final,2021.2.3,59.90050532590536,
,,,,,,,,109,0,109,0,,,,,,,,,,,,,,,,,,,,,,,,,,,,,,,,,,,,,,,,,,,,,,,,,,,,,8499.991433799965,None,,,,,,,,,,,,,,,,,,,,,,,,,,,,,,,,,,,table,112,110,aloud,blue,8497.98942160001,None,None,8497.98942160001,None,,,,,,,,,,,,,,,,,,,,,,,,,,,,,,15YC,001,2023_Mar_01_1532,ExactRep-v3-final,2021.2.3,59.90050532590536,
,,,,,,,,110,0,110,0,,,,,,,,,,,,,,,,,,,,,,,,,,,,,,,,,,,,,,,,,,,,,,,,,,,,,8502.510447799927,None,,,,,,,,,,,,,,,,,,,,,,,,,,,,,,,,,,,safety,50,111,silent,red,8500.496140700066,None,None,8500.496140700066,None,,,,,,,,,,,,,,,,,,,,,,,,,,,,,,15YC,001,2023_Mar_01_1532,ExactRep-v3-final,2021.2.3,59.90050532590536,
,,,,,,,,111,0,111,0,,,,,,,,,,,,,,,,,,,,,,,,,,,,,,,,,,,,,,,,,,,,,,,,,,,,,8505.012902799994,None,,,,,,,,,,,,,,,,,,,,,,,,,,,,,,,,,,,bowl,76,112,silent,red,8503.0109641999,None,None,8503.0109641999,None,,,,,,,,,,,,,,,,,,,,,,,,,,,,,,15YC,001,2023_Mar_01_1532,ExactRep-v3-final,2021.2.3,59.90050532590536,
,,,,,,,,112,0,112,0,,,,,,,,,,,,,,,,,,,,,,,,,,,,,,,,,,,,,,,,,,,,,,,,,,,,,8507.532305399887,None,,,,,,,,,,,,,,,,,,,,,,,,,,,,,,,,,,,animal,83,113,aloud,blue,8505.52314789989,None,None,8505.52314789989,None,,,,,,,,,,,,,,,,,,,,,,,,,,,,,,15YC,001,2023_Mar_01_1532,ExactRep-v3-final,2021.2.3,59.90050532590536,
,,,,,,,,113,0,113,0,,,,,,,,,,,,,,,,,,,,,,,,,,,,,,,,,,,,,,,,,,,,,,,,,,,,,8510.034939999925,None,,,,,,,,,,,,,,,,,,,,,,,,,,,,,,,,,,,deed,116,114,aloud,blue,8508.034064800013,None,None,8508.034064800013,None,,,,,,,,,,,,,,,,,,,,,,,,,,,,,,15YC,001,2023_Mar_01_1532,ExactRep-v3-final,2021.2.3,59.90050532590536,
,,,,,,,,114,0,114,0,,,,,,,,,,,,,,,,,,,,,,,,,,,,,,,,,,,,,,,,,,,,,,,,,,,,,8512.53741479991,None,,,,,,,,,,,,,,,,,,,,,,,,,,,,,,,,,,,meat,79,115,sing,white,8510.53545570001,None,None,8510.53545570001,None,,,,,,,,,,,,,,,,,,,,,,,,,,,,,,15YC,001,2023_Mar_01_1532,ExactRep-v3-final,2021.2.3,59.90050532590536,
,,,,,,,,115,0,115,0,,,,,,,,,,,,,,,,,,,,,,,,,,,,,,,,,,,,,,,,,,,,,,,,,,,,,8515.039897900075,None,,,,,,,,,,,,,,,,,,,,,,,,,,,,,,,,,,,anger,21,116,sing,white,8513.037594299996,None,None,8513.037594299996,None,,,,,,,,,,,,,,,,,,,,,,,,,,,,,,15YC,001,2023_Mar_01_1532,ExactRep-v3-final,2021.2.3,59.90050532590536,
,,,,,,,,116,0,116,0,,,,,,,,,,,,,,,,,,,,,,,,,,,,,,,,,,,,,,,,,,,,,,,,,,,,,8517.559049899923,None,,,,,,,,,,,,,,,,,,,,,,,,,,,,,,,,,,,artist,93,117,aloud,blue,8515.545965899946,None,None,8515.545965899946,None,,,,,,,,,,,,,,,,,,,,,,,,,,,,,,15YC,001,2023_Mar_01_1532,ExactRep-v3-final,2021.2.3,59.90050532590536,
,,,,,,,,117,0,117,0,,,,,,,,,,,,,,,,,,,,,,,,,,,,,,,,,,,,,,,,,,,,,,,,,,,,,8520.061579399975,None,,,,,,,,,,,,,,,,,,,,,,,,,,,,,,,,,,,car,71,118,silent,red,8518.060721799964,None,None,8518.060721799964,None,,,,,,,,,,,,,,,,,,,,,,,,,,,,,,15YC,001,2023_Mar_01_1532,ExactRep-v3-final,2021.2.3,59.90050532590536,
,,,,,,,,118,0,118,0,,,,,,,,,,,,,,,,,,,,,,,,,,,,,,,,,,,,,,,,,,,,,,,,,,,,,8522.580540199997,None,,,,,,,,,,,,,,,,,,,,,,,,,,,,,,,,,,,sky,104,119,aloud,blue,8520.566549499985,None,None,8520.566549499985,None,,,,,,,,,,,,,,,,,,,,,,,,,,,,,,15YC,001,2023_Mar_01_1532,ExactRep-v3-final,2021.2.3,59.90050532590536,
,,,,,,,,119,0,119,0,,,,,,,,,,,,,,,,,,,,,,,,,,,,,,,,,,,,,,,,,,,,,,,,,,,,,8525.09958359995,None,,,,,,,,,,,,,,,,,,,,,,,,,,,,,,,,,,,weapon,55,120,silent,red,8523.088132299948,None,None,8523.088132299948,None,,,,,,,,,,,,,,,,,,,,,,,,,,,,,,15YC,001,2023_Mar_01_1532,ExactRep-v3-final,2021.2.3,59.90050532590536,
,,,,,,,,,,,,,,,,,,,,,,,,,,,,,,,,,,,,,,,,,,,,,,,,,,,,,,,,,,,,,,,,,,,,,,,,,,,,,,,,,,,,,,,,,,,,,,,,,,,,,,,,,,,,,,8525.601899100002,None,space,6.14192369999364,8535.57811630005,None,,,,,,,,,,,,,,,,,,,,,,,,15YC,001,2023_Mar_01_1532,ExactRep-v3-final,2021.2.3,59.90050532590536,
,,,,,,,,,,,,,,,,,,,,,,,,,,,,,,,,,,,,,,,,,,,,,,,,,,,,,,,,,,,,,,,,,,,,,,,,,,,,,,,,,,,,,,,,,,,,,,,,,,,,,,,,,,,,,,,,,,,,8541.751762799919,None,space,101.68003629986197,8551.728023299947,None,,,,,,,,,,,,,,,,,,15YC,001,2023_Mar_01_1532,ExactRep-v3-final,2021.2.3,59.90050532590536,
,,,,,,,,,,,,0,0,0,0,,,,,,,,,,,,,,,,,,,,,,,,,,,,,,,,,,,,,,,,,,,,,,,,,8668.39301469992,None,,,,,,,,,,,,,,,,,,,,,,,,,,,,,,,,,,,,,,,,,,,,,,,,,,,,,,,,,factory,225,1,sing,new,white,8653.93700730009,None,n,8653.93700730009,None,"['n', 'return']","[5.238803399959579, 14.414910799823701]",8653.93700730009,None,,,15YC,001,2023_Mar_01_1532,ExactRep-v3-final,2021.2.3,59.90050532590536,
,,,,,,,,,,,,1,0,1,0,,,,,,,,,,,,,,,,,,,,,,,,,,,,,,,,,,,,,,,,,,,,,,,,,8674.18206900009,None,,,,,,,,,,,,,,,,,,,,,,,,,,,,,,,,,,,,,,,,,,,,,,,,,,,,,,,,,opinion,137,2,silent,new,red,8668.905721399933,None,n,8668.905721399933,None,"['n', 'return']","[3.0384548001457006, 5.230186900123954]",8668.905721399933,None,,,15YC,001,2023_Mar_01_1532,ExactRep-v3-final,2021.2.3,59.90050532590536,
,,,,,,,,,,,,2,0,2,0,,,,,,,,,,,,,,,,,,,,,,,,,,,,,,,,,,,,,,,,,,,,,,,,,8680.772100599948,None,,,,,,,,,,,,,,,,,,,,,,,,,,,,,,,,,,,,,,,,,,,,,,,,,,,,,,,,,forest,66,3,silent,old,red,8674.694810200017,None,y,8674.694810200017,None,"['y', 'return']","[3.80117219989188, 6.033082299865782]",8674.694810200017,None,,,15YC,001,2023_Mar_01_1532,ExactRep-v3-final,2021.2.3,59.90050532590536,
,,,,,,,,,,,,3,0,3,0,,,,,,,,,,,,,,,,,,,,,,,,,,,,,,,,,,,,,,,,,,,,,,,,,8686.327576899901,None,,,,,,,,,,,,,,,,,,,,,,,,,,,,,,,,,,,,,,,,,,,,,,,,,,,,,,,,,length,173,4,sing,new,white,8681.28062399989,None,n,8681.28062399989,None,"['n', 'return']","[3.6312608998268843, 5.015406899852678]",8681.28062399989,None,,,15YC,001,2023_Mar_01_1532,ExactRep-v3-final,2021.2.3,59.90050532590536,
,,,,,,,,,,,,4,0,4,0,,,,,,,,,,,,,,,,,,,,,,,,,,,,,,,,,,,,,,,,,,,,,,,,,8691.482718999963,None,,,,,,,,,,,,,,,,,,,,,,,,,,,,,,,,,,,,,,,,,,,,,,,,,,,,,,,,,ticket,69,5,silent,old,red,8686.838535499992,None,y,8686.838535499992,None,"['y', 'return']","[3.465560199925676, 4.601353999925777]",8686.838535499992,None,,,15YC,001,2023_Mar_01_1532,ExactRep-v3-final,2021.2.3,59.90050532590536,
,,,,,,,,,,,,5,0,5,0,,,,,,,,,,,,,,,,,,,,,,,,,,,,,,,,,,,,,,,,,,,,,,,,,8695.119692899985,None,,,,,,,,,,,,,,,,,,,,,,,,,,,,,,,,,,,,,,,,,,,,,,,,,,,,,,,,,advice,90,6,aloud,old,blue,8691.988401300041,None,y,8691.988401300041,None,"['y', 'return']","[1.84359659999609, 3.091558099957183]",8691.988401300041,None,,,15YC,001,2023_Mar_01_1532,ExactRep-v3-final,2021.2.3,59.90050532590536,
,,,,,,,,,,,,6,0,6,0,,,,,,,,,,,,,,,,,,,,,,,,,,,,,,,,,,,,,,,,,,,,,,,,,8698.573311900022,None,,,,,,,,,,,,,,,,,,,,,,,,,,,,,,,,,,,,,,,,,,,,,,,,,,,,,,,,,table,112,7,aloud,old,blue,8695.63720820006,None,y,8695.63720820006,None,"['y', 'return']","[1.602869999827817, 2.89075699984096]",8695.63720820006,None,,,15YC,001,2023_Mar_01_1532,ExactRep-v3-final,2021.2.3,59.90050532590536,
,,,,,,,,,,,,7,0,7,0,,,,,,,,,,,,,,,,,,,,,,,,,,,,,,,,,,,,,,,,,,,,,,,,,8703.461321499897,None,,,,,,,,,,,,,,,,,,,,,,,,,,,,,,,,,,,,,,,,,,,,,,,,,,,,,,,,,home,182,8,aloud,new,blue,8699.084433400072,None,n,8699.084433400072,None,"['n', 'return']","[2.9475175999104977, 4.339545900002122]",8699.084433400072,None,,,15YC,001,2023_Mar_01_1532,ExactRep-v3-final,2021.2.3,59.90050532590536,
,,,,,,,,,,,,8,0,8,0,,,,,,,,,,,,,,,,,,,,,,,,,,,,,,,,,,,,,,,,,,,,,,,,,8707.849082099972,None,,,,,,,,,,,,,,,,,,,,,,,,,,,,,,,,,,,,,,,,,,,,,,,,,,,,,,,,,breast,48,9,silent,old,red,8703.971155100036,None,n,8703.971155100036,None,"['n', 'return']","[2.2368649998679757, 3.844857099931687]",8703.971155100036,None,,,15YC,001,2023_Mar_01_1532,ExactRep-v3-final,2021.2.3,59.90050532590536,
,,,,,,,,,,,,9,0,9,0,,,,,,,,,,,,,,,,,,,,,,,,,,,,,,,,,,,,,,,,,,,,,,,,,8711.936526099918,None,,,,,,,,,,,,,,,,,,,,,,,,,,,,,,,,,,,,,,,,,,,,,,,,,,,,,,,,,church,80,10,aloud,old,blue,8708.354574299883,None,y,8708.354574299883,None,"['y', 'return']","[1.8293745000846684, 3.541551399976015]",8708.354574299883,None,,,15YC,001,2023_Mar_01_1532,ExactRep-v3-final,2021.2.3,59.90050532590536,
,,,,,,,,,,,,10,0,10,0,,,,,,,,,,,,,,,,,,,,,,,,,,,,,,,,,,,,,,,,,,,,,,,,,8716.724654400023,None,,,,,,,,,,,,,,,,,,,,,,,,,,,,,,,,,,,,,,,,,,,,,,,,,,,,,,,,,gold,178,11,aloud,new,blue,8712.438362099929,None,y,8712.438362099929,None,"['y', 'return']","[3.1777734998613596, 4.2417140998877585]",8712.438362099929,None,,,15YC,001,2023_Mar_01_1532,ExactRep-v3-final,2021.2.3,59.90050532590536,
,,,,,,,,,,,,11,0,11,0,,,,,,,,,,,,,,,,,,,,,,,,,,,,,,,,,,,,,,,,,,,,,,,,,8721.029058000073,None,,,,,,,,,,,,,,,,,,,,,,,,,,,,,,,,,,,,,,,,,,,,,,,,,,,,,,,,,sky,104,12,aloud,old,blue,8717.235475499881,None,y,8717.235475499881,None,"['y', 'return']","[2.764503999846056, 3.75669139996171]",8717.235475499881,None,,,15YC,001,2023_Mar_01_1532,ExactRep-v3-final,2021.2.3,59.90050532590536,
,,,,,,,,,,,,12,0,12,0,,,,,,,,,,,,,,,,,,,,,,,,,,,,,,,,,,,,,,,,,,,,,,,,,8724.098685899982,None,,,,,,,,,,,,,,,,,,,,,,,,,,,,,,,,,,,,,,,,,,,,,,,,,,,,,,,,,prayer,81,13,aloud,old,blue,8721.532836599974,None,y,8721.532836599974,None,"['y', 'return']","[1.5072031000163406, 2.5231348001398146]",8721.532836599974,None,,,15YC,001,2023_Mar_01_1532,ExactRep-v3-final,2021.2.3,59.90050532590536,
,,,,,,,,,,,,13,0,13,0,,,,,,,,,,,,,,,,,,,,,,,,,,,,,,,,,,,,,,,,,,,,,,,,,8727.585493399994,None,,,,,,,,,,,,,,,,,,,,,,,,,,,,,,,,,,,,,,,,,,,,,,,,,,,,,,,,,nail,165,14,sing,new,white,8724.617746999953,None,n,8724.617746999953,None,"['n', 'return']","[2.190218099858612, 2.9262949998956174]",8724.617746999953,None,,,15YC,001,2023_Mar_01_1532,ExactRep-v3-final,2021.2.3,59.90050532590536,
,,,,,,,,,,,,14,0,14,0,,,,,,,,,,,,,,,,,,,,,,,,,,,,,,,,,,,,,,,,,,,,,,,,,8734.492403700016,None,,,,,,,,,,,,,,,,,,,,,,,,,,,,,,,,,,,,,,,,,,,,,,,,,,,,,,,,,method,171,15,sing,new,white,8728.095469600055,None,n,8728.095469600055,None,"['n', 'return']","[5.25663959980011, 6.352451199898496]",8728.095469600055,None,,,15YC,001,2023_Mar_01_1532,ExactRep-v3-final,2021.2.3,59.90050532590536,
,,,,,,,,,,,,15,0,15,0,,,,,,,,,,,,,,,,,,,,,,,,,,,,,,,,,,,,,,,,,,,,,,,,,8739.48079619999,None,,,,,,,,,,,,,,,,,,,,,,,,,,,,,,,,,,,,,,,,,,,,,,,,,,,,,,,,,star,5,16,sing,old,white,8734.996966599952,None,y,8734.996966599952,None,"['y', 'return']","[2.6430166999343783, 4.451042899861932]",8734.996966599952,None,,,15YC,001,2023_Mar_01_1532,ExactRep-v3-final,2021.2.3,59.90050532590536,
,,,,,,,,,,,,16,0,16,0,,,,,,,,,,,,,,,,,,,,,,,,,,,,,,,,,,,,,,,,,,,,,,,,,8744.419066200033,None,,,,,,,,,,,,,,,,,,,,,,,,,,,,,,,,,,,,,,,,,,,,,,,,,,,,,,,,,chief,168,17,aloud,new,blue,8739.986336499918,None,n,8739.986336499918,None,"['n', 'return']","[3.029724500142038, 4.389589800033718]",8739.986336499918,None,,,15YC,001,2023_Mar_01_1532,ExactRep-v3-final,2021.2.3,59.90050532590536,
,,,,,,,,,,,,17,0,17,0,,,,,,,,,,,,,,,,,,,,,,,,,,,,,,,,,,,,,,,,,,,,,,,,,8748.272845899919,None,,,,,,,,,,,,,,,,,,,,,,,,,,,,,,,,,,,,,,,,,,,,,,,,,,,,,,,,,lake,176,18,aloud,new,blue,8744.930047099944,None,y,8744.930047099944,None,"['y', 'return']","[1.6699580000713468, 3.3019838000182062]",8744.930047099944,None,,,15YC,001,2023_Mar_01_1532,ExactRep-v3-final,2021.2.3,59.90050532590536,
,,,,,,,,,,,,18,0,18,0,,,,,,,,,,,,,,,,,,,,,,,,,,,,,,,,,,,,,,,,,,,,,,,,,8752.743996500038,None,,,,,,,,,,,,,,,,,,,,,,,,,,,,,,,,,,,,,,,,,,,,,,,,,,,,,,,,,event,216,19,aloud,new,blue,8748.783940199995,None,y,8748.783940199995,None,"['y', 'return']","[2.6800909000448883, 3.920120800146833]",8748.783940199995,None,,,15YC,001,2023_Mar_01_1532,ExactRep-v3-final,2021.2.3,59.90050532590536,
,,,,,,,,,,,,19,0,19,0,,,,,,,,,,,,,,,,,,,,,,,,,,,,,,,,,,,,,,,,,,,,,,,,,8757.732307499973,None,,,,,,,,,,,,,,,,,,,,,,,,,,,,,,,,,,,,,,,,,,,,,,,,,,,,,,,,,fire,121,20,silent,new,red,8753.256040199893,None,n,8753.256040199893,None,"['n', 'return']","[3.440356200095266, 4.4319571000523865]",8753.256040199893,None,,,15YC,001,2023_Mar_01_1532,ExactRep-v3-final,2021.2.3,59.90050532590536,
,,,,,,,,,,,,20,0,20,0,,,,,,,,,,,,,,,,,,,,,,,,,,,,,,,,,,,,,,,,,,,,,,,,,8761.135868800106,None,,,,,,,,,,,,,,,,,,,,,,,,,,,,,,,,,,,,,,,,,,,,,,,,,,,,,,,,,justice,34,21,sing,old,white,8758.249062699964,None,y,8758.249062699964,None,"['y', 'return']","[1.8310338000301272, 2.84693400003016]",8758.249062699964,None,,,15YC,001,2023_Mar_01_1532,ExactRep-v3-final,2021.2.3,59.90050532590536,
,,,,,,,,,,,,21,0,21,0,,,,,,,,,,,,,,,,,,,,,,,,,,,,,,,,,,,,,,,,,,,,,,,,,8764.65589189995,None,,,,,,,,,,,,,,,,,,,,,,,,,,,,,,,,,,,,,,,,,,,,,,,,,,,,,,,,,steam,167,22,sing,new,white,8761.64549949998,None,n,8761.64549949998,None,"['n', 'return']","[2.050715600140393, 2.970500700175762]",8761.64549949998,None,,,15YC,001,2023_Mar_01_1532,ExactRep-v3-final,2021.2.3,59.90050532590536,
,,,,,,,,,,,,22,0,22,0,,,,,,,,,,,,,,,,,,,,,,,,,,,,,,,,,,,,,,,,,,,,,,,,,8769.427299699979,None,,,,,,,,,,,,,,,,,,,,,,,,,,,,,,,,,,,,,,,,,,,,,,,,,,,,,,,,,city,6,23,sing,old,white,8765.160953799961,None,n,8765.160953799961,None,"['n', 'return']","[2.6710048001259565, 4.223132600076497]",8765.160953799961,None,,,15YC,001,2023_Mar_01_1532,ExactRep-v3-final,2021.2.3,59.90050532590536,
,,,,,,,,,,,,23,0,23,0,,,,,,,,,,,,,,,,,,,,,,,,,,,,,,,,,,,,,,,,,,,,,,,,,8773.514751000097,None,,,,,,,,,,,,,,,,,,,,,,,,,,,,,,,,,,,,,,,,,,,,,,,,,,,,,,,,,spirit,77,24,silent,old,red,8769.93122239993,None,n,8769.93122239993,None,"['n', 'return']","[2.42086309986189, 3.548812499968335]",8769.93122239993,None,,,15YC,001,2023_Mar_01_1532,ExactRep-v3-final,2021.2.3,59.90050532590536,
,,,,,,,,,,,,24,0,24,0,,,,,,,,,,,,,,,,,,,,,,,,,,,,,,,,,,,,,,,,,,,,,,,,,8776.551352699986,None,,,,,,,,,,,,,,,,,,,,,,,,,,,,,,,,,,,,,,,,,,,,,,,,,,,,,,,,,artist,93,25,aloud,old,blue,8774.025526900077,None,y,8774.025526900077,None,"['y', 'return']","[1.7424425999633968, 2.4864976999815553]",8774.025526900077,None,,,15YC,001,2023_Mar_01_1532,ExactRep-v3-final,2021.2.3,59.90050532590536,
,,,,,,,,,,,,25,0,25,0,,,,,,,,,,,,,,,,,,,,,,,,,,,,,,,,,,,,,,,,,,,,,,,,,8780.755340799922,None,,,,,,,,,,,,,,,,,,,,,,,,,,,,,,,,,,,,,,,,,,,,,,,,,,,,,,,,,library,27,26,sing,old,white,8777.062630099943,None,y,8777.062630099943,None,"['y', 'return']","[2.5453711000736803, 3.649505899986252]",8777.062630099943,None,,,15YC,001,2023_Mar_01_1532,ExactRep-v3-final,2021.2.3,59.90050532590536,
,,,,,,,,,,,,26,0,26,0,,,,,,,,,,,,,,,,,,,,,,,,,,,,,,,,,,,,,,,,,,,,,,,,,8783.624872599961,None,,,,,,,,,,,,,,,,,,,,,,,,,,,,,,,,,,,,,,,,,,,,,,,,,,,,,,,,,coin,127,27,silent,new,red,8781.267523200018,None,n,8781.267523200018,None,"['n', 'return']","[1.5485402001067996, 2.3166442001238465]",8781.267523200018,None,,,15YC,001,2023_Mar_01_1532,ExactRep-v3-final,2021.2.3,59.90050532590536,
,,,,,,,,,,,,27,0,27,0,,,,,,,,,,,,,,,,,,,,,,,,,,,,,,,,,,,,,,,,,,,,,,,,,8789.380695299944,None,,,,,,,,,,,,,,,,,,,,,,,,,,,,,,,,,,,,,,,,,,,,,,,,,,,,,,,,,grief,174,28,aloud,new,blue,8784.12873509992,None,y,8784.12873509992,None,"['y', 'return']","[4.239453099900857, 5.207329199882224]",8784.12873509992,None,,,15YC,001,2023_Mar_01_1532,ExactRep-v3-final,2021.2.3,59.90050532590536,
,,,,,,,,,,,,28,0,28,0,,,,,,,,,,,,,,,,,,,,,,,,,,,,,,,,,,,,,,,,,,,,,,,,,8793.384649100015,None,,,,,,,,,,,,,,,,,,,,,,,,,,,,,,,,,,,,,,,,,,,,,,,,,,,,,,,,,shore,64,29,silent,old,red,8789.888943299884,None,n,8789.888943299884,None,"['n', 'return']","[2.439142799936235, 3.4631697998847812]",8789.888943299884,None,,,15YC,001,2023_Mar_01_1532,ExactRep-v3-final,2021.2.3,59.90050532590536,
,,,,,,,,,,,,29,0,29,0,,,,,,,,,,,,,,,,,,,,,,,,,,,,,,,,,,,,,,,,,,,,,,,,,8798.923687400063,None,,,,,,,,,,,,,,,,,,,,,,,,,,,,,,,,,,,,,,,,,,,,,,,,,,,,,,,,,machine,221,30,sing,new,white,8793.898485899903,None,n,8793.898485899903,None,"['n', 'return']","[4.11750469985418, 4.989712399896234]",8793.898485899903,None,,,15YC,001,2023_Mar_01_1532,ExactRep-v3-final,2021.2.3,59.90050532590536,
,,,,,,,,,,,,30,0,30,0,,,,,,,,,,,,,,,,,,,,,,,,,,,,,,,,,,,,,,,,,,,,,,,,,8802.376956399996,None,,,,,,,,,,,,,,,,,,,,,,,,,,,,,,,,,,,,,,,,,,,,,,,,,,,,,,,,,product,10,31,sing,old,white,8799.437287299894,None,y,8799.437287299894,None,"['y', 'return']","[2.034785500029102, 2.906686400063336]",8799.437287299894,None,,,15YC,001,2023_Mar_01_1532,ExactRep-v3-final,2021.2.3,59.90050532590536,
,,,,,,,,,,,,31,0,31,0,,,,,,,,,,,,,,,,,,,,,,,,,,,,,,,,,,,,,,,,,,,,,,,,,8805.029610200087,None,,,,,,,,,,,,,,,,,,,,,,,,,,,,,,,,,,,,,,,,,,,,,,,,,,,,,,,,,storm,120,32,silent,new,red,8802.885248499922,None,n,8802.885248499922,None,"['n', 'return']","[1.4028876998927444, 2.0989407999441028]",8802.885248499922,None,,,15YC,001,2023_Mar_01_1532,ExactRep-v3-final,2021.2.3,59.90050532590536,
,,,,,,,,,,,,32,0,32,0,,,,,,,,,,,,,,,,,,,,,,,,,,,,,,,,,,,,,,,,,,,,,,,,,8808.766788299894,None,,,,,,,,,,,,,,,,,,,,,,,,,,,,,,,,,,,,,,,,,,,,,,,,,,,,,,,,,paper,82,33,aloud,old,blue,8805.541354000103,None,y,8805.541354000103,None,"['y', 'return']","[2.1947574999649078, 3.179093499900773]",8805.541354000103,None,,,15YC,001,2023_Mar_01_1532,ExactRep-v3-final,2021.2.3,59.90050532590536,
,,,,,,,,,,,,33,0,33,0,,,,,,,,,,,,,,,,,,,,,,,,,,,,,,,,,,,,,,,,,,,,,,,,,8813.071059199981,None,,,,,,,,,,,,,,,,,,,,,,,,,,,,,,,,,,,,,,,,,,,,,,,,,,,,,,,,,bird,119,34,aloud,old,blue,8809.275956399972,None,y,8809.275956399972,None,"['y', 'return']","[2.884099200135097, 3.7482509000692517]",8809.275956399972,None,,,15YC,001,2023_Mar_01_1532,ExactRep-v3-final,2021.2.3,59.90050532590536,
,,,,,,,,,,,,34,0,34,0,,,,,,,,,,,,,,,,,,,,,,,,,,,,,,,,,,,,,,,,,,,,,,,,,8816.17426540004,None,,,,,,,,,,,,,,,,,,,,,,,,,,,,,,,,,,,,,,,,,,,,,,,,,,,,,,,,,woman,108,35,aloud,old,blue,8813.578184900107,None,y,8813.578184900107,None,"['y', 'return']","[1.5741801001131535, 2.5579628001432866]",8813.578184900107,None,,,15YC,001,2023_Mar_01_1532,ExactRep-v3-final,2021.2.3,59.90050532590536,
,,,,,,,,,,,,35,0,35,0,,,,,,,,,,,,,,,,,,,,,,,,,,,,,,,,,,,,,,,,,,,,,,,,,8819.11051769997,None,,,,,,,,,,,,,,,,,,,,,,,,,,,,,,,,,,,,,,,,,,,,,,,,,,,,,,,,,boy,144,36,silent,new,red,8816.685491699958,None,n,8816.685491699958,None,"['n', 'return']","[1.5705820999573916, 2.3785685999318957]",8816.685491699958,None,,,15YC,001,2023_Mar_01_1532,ExactRep-v3-final,2021.2.3,59.90050532590536,
,,,,,,,,,,,,36,0,36,0,,,,,,,,,,,,,,,,,,,,,,,,,,,,,,,,,,,,,,,,,,,,,,,,,8823.448058200069,None,,,,,,,,,,,,,,,,,,,,,,,,,,,,,,,,,,,,,,,,,,,,,,,,,,,,,,,,,pole,188,37,aloud,new,blue,8819.623459999915,None,n,8819.623459999915,None,"['n', 'return']","[2.8729289998300374, 3.7768041000235826]",8819.623459999915,None,,,15YC,001,2023_Mar_01_1532,ExactRep-v3-final,2021.2.3,59.90050532590536,
,,,,,,,,,,,,37,0,37,0,,,,,,,,,,,,,,,,,,,,,,,,,,,,,,,,,,,,,,,,,,,,,,,,,8827.819150799885,None,,,,,,,,,,,,,,,,,,,,,,,,,,,,,,,,,,,,,,,,,,,,,,,,,,,,,,,,,winter,208,38,aloud,new,blue,8823.956830499927,None,n,8823.956830499927,None,"['n', 'return']","[2.715323199983686, 3.827248099958524]",8823.956830499927,None,,,15YC,001,2023_Mar_01_1532,ExactRep-v3-final,2021.2.3,59.90050532590536,
,,,,,,,,,,,,38,0,38,0,,,,,,,,,,,,,,,,,,,,,,,,,,,,,,,,,,,,,,,,,,,,,,,,,8831.038979100063,None,,,,,,,,,,,,,,,,,,,,,,,,,,,,,,,,,,,,,,,,,,,,,,,,,,,,,,,,,cat,150,39,silent,new,red,8828.333890399896,None,n,8828.333890399896,None,"['n', 'return']","[1.5861466000787914, 2.6582184999715537]",8828.333890399896,None,,,15YC,001,2023_Mar_01_1532,ExactRep-v3-final,2021.2.3,59.90050532590536,
,,,,,,,,,,,,39,0,39,0,,,,,,,,,,,,,,,,,,,,,,,,,,,,,,,,,,,,,,,,,,,,,,,,,8837.945877100108,None,,,,,,,,,,,,,,,,,,,,,,,,,,,,,,,,,,,,,,,,,,,,,,,,,,,,,,,,,fun,177,40,sing,new,white,8831.546539099887,None,n,8831.546539099887,None,"['n', 'return']","[5.229630599962547, 6.365588899934664]",8831.546539099887,None,,,15YC,001,2023_Mar_01_1532,ExactRep-v3-final,2021.2.3,59.90050532590536,
,,,,,,,,,,,,40,0,40,0,,,,,,,,,,,,,,,,,,,,,,,,,,,,,,,,,,,,,,,,,,,,,,,,,8841.115698100068,None,,,,,,,,,,,,,,,,,,,,,,,,,,,,,,,,,,,,,,,,,,,,,,,,,,,,,,,,,bar,26,41,sing,old,white,8838.454876899952,None,y,8838.454876899952,None,"['y', 'return']","[1.5853194000665098, 2.6172408000566065]",8838.454876899952,None,,,15YC,001,2023_Mar_01_1532,ExactRep-v3-final,2021.2.3,59.90050532590536,
,,,,,,,,,,,,41,0,41,0,,,,,,,,,,,,,,,,,,,,,,,,,,,,,,,,,,,,,,,,,,,,,,,,,8845.486749500036,None,,,,,,,,,,,,,,,,,,,,,,,,,,,,,,,,,,,,,,,,,,,,,,,,,,,,,,,,,answer,184,42,aloud,new,blue,8841.625675200019,None,y,8841.625675200019,None,"['y', 'return']","[3.006463099969551, 3.8144923001527786]",8841.625675200019,None,,,15YC,001,2023_Mar_01_1532,ExactRep-v3-final,2021.2.3,59.90050532590536,
,,,,,,,,,,,,42,0,42,0,,,,,,,,,,,,,,,,,,,,,,,,,,,,,,,,,,,,,,,,,,,,,,,,,8850.491839699913,None,,,,,,,,,,,,,,,,,,,,,,,,,,,,,,,,,,,,,,,,,,,,,,,,,,,,,,,,,house,13,43,sing,old,white,8845.996762499912,None,y,8845.996762499912,None,"['y', 'return']","[3.1553353001363575, 4.451343999942765]",8845.996762499912,None,,,15YC,001,2023_Mar_01_1532,ExactRep-v3-final,2021.2.3,59.90050532590536,
,,,,,,,,,,,,43,0,43,0,,,,,,,,,,,,,,,,,,,,,,,,,,,,,,,,,,,,,,,,,,,,,,,,,8853.77837230009,None,,,,,,,,,,,,,,,,,,,,,,,,,,,,,,,,,,,,,,,,,,,,,,,,,,,,,,,,,rod,115,44,aloud,old,blue,8851.000360599952,None,y,8851.000360599952,None,"['y', 'return']","[1.4720734998118132, 2.735759399831295]",8851.000360599952,None,,,15YC,001,2023_Mar_01_1532,ExactRep-v3-final,2021.2.3,59.90050532590536,
,,,,,,,,,,,,44,0,44,0,,,,,,,,,,,,,,,,,,,,,,,,,,,,,,,,,,,,,,,,,,,,,,,,,8858.71666470007,None,,,,,,,,,,,,,,,,,,,,,,,,,,,,,,,,,,,,,,,,,,,,,,,,,,,,,,,,,girl,63,45,silent,old,red,8854.287280699937,None,n,8854.287280699937,None,"['n', 'return']","[2.369010499911383, 4.392860000021756]",8854.287280699937,None,,,15YC,001,2023_Mar_01_1532,ExactRep-v3-final,2021.2.3,59.90050532590536,
,,,,,,,,,,,,45,0,45,0,,,,,,,,,,,,,,,,,,,,,,,,,,,,,,,,,,,,,,,,,,,,,,,,,8862.170078000054,None,,,,,,,,,,,,,,,,,,,,,,,,,,,,,,,,,,,,,,,,,,,,,,,,,,,,,,,,,temple,78,46,silent,old,red,8859.227322299965,None,n,8859.227322299965,None,"['n', 'return']","[2.0207736999727786, 2.9088910999707878]",8859.227322299965,None,,,15YC,001,2023_Mar_01_1532,ExactRep-v3-final,2021.2.3,59.90050532590536,
,,,,,,,,,,,,46,0,46,0,,,,,,,,,,,,,,,,,,,,,,,,,,,,,,,,,,,,,,,,,,,,,,,,,8867.759868900059,None,,,,,,,,,,,,,,,,,,,,,,,,,,,,,,,,,,,,,,,,,,,,,,,,,,,,,,,,,coffee,232,47,aloud,new,blue,8862.682610299904,None,n,8862.682610299904,None,"['n', 'return']","[3.917532900115475, 5.037437899969518]",8862.682610299904,None,,,15YC,001,2023_Mar_01_1532,ExactRep-v3-final,2021.2.3,59.90050532590536,
,,,,,,,,,,,,47,0,47,0,,,,,,,,,,,,,,,,,,,,,,,,,,,,,,,,,,,,,,,,,,,,,,,,,8882.039914200082,None,,,,,,,,,,,,,,,,,,,,,,,,,,,,,,,,,,,,,,,,,,,,,,,,,,,,,,,,,money,211,48,sing,new,white,8868.259479,None,n,8868.259479,None,"['n', 'return']","[9.460704700089991, 13.740759700071067]",8868.259479,None,,,15YC,001,2023_Mar_01_1532,ExactRep-v3-final,2021.2.3,59.90050532590536,
,,,,,,,,,,,,48,0,48,0,,,,,,,,,,,,,,,,,,,,,,,,,,,,,,,,,,,,,,,,,,,,,,,,,8886.661250300007,None,,,,,,,,,,,,,,,,,,,,,,,,,,,,,,,,,,,,,,,,,,,,,,,,,,,,,,,,,thought,200,49,aloud,new,blue,8882.5467352001,None,n,8882.5467352001,None,"['n', 'return']","[3.0217273999005556, 4.069502899888903]",8882.5467352001,None,,,15YC,001,2023_Mar_01_1532,ExactRep-v3-final,2021.2.3,59.90050532590536,
,,,,,,,,,,,,49,0,49,0,,,,,,,,,,,,,,,,,,,,,,,,,,,,,,,,,,,,,,,,,,,,,,,,,8894.035289099906,None,,,,,,,,,,,,,,,,,,,,,,,,,,,,,,,,,,,,,,,,,,,,,,,,,,,,,,,,,palace,109,50,aloud,old,blue,8887.171897999942,None,n,8887.171897999942,None,"['n', 'return']","[5.652380600105971, 6.828316200058907]",8887.171897999942,None,,,15YC,001,2023_Mar_01_1532,ExactRep-v3-final,2021.2.3,59.90050532590536,
,,,,,,,,,,,,50,0,50,0,,,,,,,,,,,,,,,,,,,,,,,,,,,,,,,,,,,,,,,,,,,,,,,,,8898.790029299911,None,,,,,,,,,,,,,,,,,,,,,,,,,,,,,,,,,,,,,,,,,,,,,,,,,,,,,,,,,dust,17,51,sing,old,white,8894.545524100075,None,n,8894.545524100075,None,"['n', 'return']","[3.550773400114849, 4.206659100018442]",8894.545524100075,None,,,15YC,001,2023_Mar_01_1532,ExactRep-v3-final,2021.2.3,59.90050532590536,
,,,,,,,,,,,,51,0,51,0,,,,,,,,,,,,,,,,,,,,,,,,,,,,,,,,,,,,,,,,,,,,,,,,,8903.211099900072,None,,,,,,,,,,,,,,,,,,,,,,,,,,,,,,,,,,,,,,,,,,,,,,,,,,,,,,,,,trouble,111,52,aloud,old,blue,8899.298480799887,None,y,8899.298480799887,None,"['y', 'return']","[3.1260228001046926, 3.8776510001625866]",8899.298480799887,None,,,15YC,001,2023_Mar_01_1532,ExactRep-v3-final,2021.2.3,59.90050532590536,
,,,,,,,,,,,,52,0,52,0,,,,,,,,,,,,,,,,,,,,,,,,,,,,,,,,,,,,,,,,,,,,,,,,,8906.180720200064,None,,,,,,,,,,,,,,,,,,,,,,,,,,,,,,,,,,,,,,,,,,,,,,,,,,,,,,,,,person,36,53,sing,old,white,8903.726422300097,None,y,8903.726422300097,None,"['y', 'return']","[1.4179579999763519, 2.4177582999691367]",8903.726422300097,None,,,15YC,001,2023_Mar_01_1532,ExactRep-v3-final,2021.2.3,59.90050532590536,
,,,,,,,,,,,,53,0,53,0,,,,,,,,,,,,,,,,,,,,,,,,,,,,,,,,,,,,,,,,,,,,,,,,,8909.066997899907,None,,,,,,,,,,,,,,,,,,,,,,,,,,,,,,,,,,,,,,,,,,,,,,,,,,,,,,,,,garden,147,54,silent,new,red,8906.684817499947,None,n,8906.684817499947,None,"['n', 'return']","[1.4273429999593645, 2.347356299869716]",8906.684817499947,None,,,15YC,001,2023_Mar_01_1532,ExactRep-v3-final,2021.2.3,59.90050532590536,
,,,,,,,,,,,,54,0,54,0,,,,,,,,,,,,,,,,,,,,,,,,,,,,,,,,,,,,,,,,,,,,,,,,,8912.103498399956,None,,,,,,,,,,,,,,,,,,,,,,,,,,,,,,,,,,,,,,,,,,,,,,,,,,,,,,,,,blood,14,55,sing,old,white,8909.576226900099,None,y,8909.576226900099,None,"['y', 'return']","[1.792026000097394, 2.488067700061947]",8909.576226900099,None,,,15YC,001,2023_Mar_01_1532,ExactRep-v3-final,2021.2.3,59.90050532590536,
,,,,,,,,,,,,55,0,55,0,,,,,,,,,,,,,,,,,,,,,,,,,,,,,,,,,,,,,,,,,,,,,,,,,8914.872811400099,None,,,,,,,,,,,,,,,,,,,,,,,,,,,,,,,,,,,,,,,,,,,,,,,,,,,,,,,,,owner,230,56,aloud,new,blue,8912.611998799955,None,n,8912.611998799955,None,"['n', 'return']","[1.6201685001142323, 2.228129400173202]",8912.611998799955,None,,,15YC,001,2023_Mar_01_1532,ExactRep-v3-final,2021.2.3,59.90050532590536,
,,,,,,,,,,,,56,0,56,0,,,,,,,,,,,,,,,,,,,,,,,,,,,,,,,,,,,,,,,,,,,,,,,,,8917.60898680007,None,,,,,,,,,,,,,,,,,,,,,,,,,,,,,,,,,,,,,,,,,,,,,,,,,,,,,,,,,victory,169,57,sing,new,white,8915.384570899885,None,y,8915.384570899885,None,"['y', 'return']","[1.3515861998312175, 2.1915577999316156]",8915.384570899885,None,,,15YC,001,2023_Mar_01_1532,ExactRep-v3-final,2021.2.3,59.90050532590536,
,,,,,,,,,,,,57,0,57,0,,,,,,,,,,,,,,,,,,,,,,,,,,,,,,,,,,,,,,,,,,,,,,,,,8921.313778300071,None,,,,,,,,,,,,,,,,,,,,,,,,,,,,,,,,,,,,,,,,,,,,,,,,,,,,,,,,,safety,50,58,silent,old,red,8918.111303400015,None,n,8918.111303400015,None,"['n', 'return']","[2.2490095000248402, 3.160907900193706]",8918.111303400015,None,,,15YC,001,2023_Mar_01_1532,ExactRep-v3-final,2021.2.3,59.90050532590536,
,,,,,,,,,,,,58,0,58,0,,,,,,,,,,,,,,,,,,,,,,,,,,,,,,,,,,,,,,,,,,,,,,,,,8924.832764399936,None,,,,,,,,,,,,,,,,,,,,,,,,,,,,,,,,,,,,,,,,,,,,,,,,,,,,,,,,,colony,222,59,aloud,new,blue,8921.816536600003,None,n,8921.816536600003,None,"['n', 'return']","[1.743704800028354, 2.9837379998061806]",8921.816536600003,None,,,15YC,001,2023_Mar_01_1532,ExactRep-v3-final,2021.2.3,59.90050532590536,
,,,,,,,,,,,,59,0,59,0,,,,,,,,,,,,,,,,,,,,,,,,,,,,,,,,,,,,,,,,,,,,,,,,,8928.01933000004,None,,,,,,,,,,,,,,,,,,,,,,,,,,,,,,,,,,,,,,,,,,,,,,,,,,,,,,,,,fact,203,60,sing,new,white,8925.344904199941,None,y,8925.344904199941,None,"['y', 'return']","[1.9193039000965655, 2.6392895001918077]",8925.344904199941,None,,,15YC,001,2023_Mar_01_1532,ExactRep-v3-final,2021.2.3,59.90050532590536,
,,,,,,,,,,,,60,0,60,0,,,,,,,,,,,,,,,,,,,,,,,,,,,,,,,,,,,,,,,,,,,,,,,,,8932.690771300113,None,,,,,,,,,,,,,,,,,,,,,,,,,,,,,,,,,,,,,,,,,,,,,,,,,,,,,,,,,theory,85,61,aloud,old,blue,8928.530740099959,None,y,8928.530740099959,None,"['y', 'return']","[3.181378199951723, 4.117389000020921]",8928.530740099959,None,,,15YC,001,2023_Mar_01_1532,ExactRep-v3-final,2021.2.3,59.90050532590536,
,,,,,,,,,,,,61,0,61,0,,,,,,,,,,,,,,,,,,,,,,,,,,,,,,,,,,,,,,,,,,,,,,,,,8936.04393699998,None,,,,,,,,,,,,,,,,,,,,,,,,,,,,,,,,,,,,,,,,,,,,,,,,,,,,,,,,,butter,143,62,silent,new,red,8933.197565600043,None,n,8933.197565600043,None,"['n', 'return']","[1.7389815000351518, 2.810707300202921]",8933.197565600043,None,,,15YC,001,2023_Mar_01_1532,ExactRep-v3-final,2021.2.3,59.90050532590536,
,,,,,,,,,,,,62,0,62,0,,,,,,,,,,,,,,,,,,,,,,,,,,,,,,,,,,,,,,,,,,,,,,,,,8939.030213200022,None,,,,,,,,,,,,,,,,,,,,,,,,,,,,,,,,,,,,,,,,,,,,,,,,,,,,,,,,,window,16,63,sing,old,white,8936.549145000055,None,y,8936.549145000055,None,"['y', 'return']","[1.4911809999030083, 2.435144699877128]",8936.549145000055,None,,,15YC,001,2023_Mar_01_1532,ExactRep-v3-final,2021.2.3,59.90050532590536,
,,,,,,,,,,,,63,0,63,0,,,,,,,,,,,,,,,,,,,,,,,,,,,,,,,,,,,,,,,,,,,,,,,,,8941.949860099936,None,,,,,,,,,,,,,,,,,,,,,,,,,,,,,,,,,,,,,,,,,,,,,,,,,,,,,,,,,poet,133,64,silent,new,red,8939.5361883,None,n,8939.5361883,None,"['n', 'return']","[1.4239299001637846, 2.368069700198248]",8939.5361883,None,,,15YC,001,2023_Mar_01_1532,ExactRep-v3-final,2021.2.3,59.90050532590536,
,,,,,,,,,,,,64,0,64,0,,,,,,,,,,,,,,,,,,,,,,,,,,,,,,,,,,,,,,,,,,,,,,,,,8944.836205000058,None,,,,,,,,,,,,,,,,,,,,,,,,,,,,,,,,,,,,,,,,,,,,,,,,,,,,,,,,,ability,89,65,aloud,old,blue,8942.453968199901,None,y,8942.453968199901,None,"['y', 'return']","[1.5703926999121904, 2.338240700075403]",8942.453968199901,None,,,15YC,001,2023_Mar_01_1532,ExactRep-v3-final,2021.2.3,59.90050532590536,
,,,,,,,,,,,,65,0,65,0,,,,,,,,,,,,,,,,,,,,,,,,,,,,,,,,,,,,,,,,,,,,,,,,,8947.488888199907,None,,,,,,,,,,,,,,,,,,,,,,,,,,,,,,,,,,,,,,,,,,,,,,,,,,,,,,,,,hall,8,66,sing,old,white,8945.338016900001,None,y,8945.338016900001,None,"['y', 'return']","[1.430461599957198, 2.1182230999693274]",8945.338016900001,None,,,15YC,001,2023_Mar_01_1532,ExactRep-v3-final,2021.2.3,59.90050532590536,
,,,,,,,,,,,,66,0,66,0,,,,,,,,,,,,,,,,,,,,,,,,,,,,,,,,,,,,,,,,,,,,,,,,,8950.925514400005,None,,,,,,,,,,,,,,,,,,,,,,,,,,,,,,,,,,,,,,,,,,,,,,,,,,,,,,,,,queen,175,67,sing,new,white,8948.003266300075,None,n,8948.003266300075,None,"['n', 'return']","[2.268921999959275, 2.876988699892536]",8948.003266300075,None,,,15YC,001,2023_Mar_01_1532,ExactRep-v3-final,2021.2.3,59.90050532590536,
,,,,,,,,,,,,67,0,67,0,,,,,,,,,,,,,,,,,,,,,,,,,,,,,,,,,,,,,,,,,,,,,,,,,8953.578154799994,None,,,,,,,,,,,,,,,,,,,,,,,,,,,,,,,,,,,,,,,,,,,,,,,,,,,,,,,,,hope,125,68,silent,new,red,8951.437412899919,None,n,8951.437412899919,None,"['n', 'return']","[1.4108449998311698, 2.0988301998004317]",8951.437412899919,None,,,15YC,001,2023_Mar_01_1532,ExactRep-v3-final,2021.2.3,59.90050532590536,
,,,,,,,,,,,,68,0,68,0,,,,,,,,,,,,,,,,,,,,,,,,,,,,,,,,,,,,,,,,,,,,,,,,,8956.764690800104,None,,,,,,,,,,,,,,,,,,,,,,,,,,,,,,,,,,,,,,,,,,,,,,,,,,,,,,,,,wheat,236,69,aloud,new,blue,8954.088553299895,None,n,8954.088553299895,None,"['n', 'return']","[1.9996799000073224, 2.631667400011793]",8954.088553299895,None,,,15YC,001,2023_Mar_01_1532,ExactRep-v3-final,2021.2.3,59.90050532590536,
,,,,,,,,,,,,69,0,69,0,,,,,,,,,,,,,,,,,,,,,,,,,,,,,,,,,,,,,,,,,,,,,,,,,8960.468510699924,None,,,,,,,,,,,,,,,,,,,,,,,,,,,,,,,,,,,,,,,,,,,,,,,,,,,,,,,,,idea,239,70,sing,new,white,8957.2790047999,None,n,8957.2790047999,None,"['n', 'return']","[2.153391300002113, 3.1531513000372797]",8957.2790047999,None,,,15YC,001,2023_Mar_01_1532,ExactRep-v3-final,2021.2.3,59.90050532590536,
,,,,,,,,,,,,70,0,70,0,,,,,,,,,,,,,,,,,,,,,,,,,,,,,,,,,,,,,,,,,,,,,,,,,8966.975055800052,None,,,,,,,,,,,,,,,,,,,,,,,,,,,,,,,,,,,,,,,,,,,,,,,,,,,,,,,,,dollar,135,71,silent,new,red,8960.970345600042,None,n,8960.970345600042,None,"['n', 'return']","[5.054207199951634, 5.965921600116417]",8960.970345600042,None,,,15YC,001,2023_Mar_01_1532,ExactRep-v3-final,2021.2.3,59.90050532590536,
,,,,,,,,,,,,71,0,71,0,,,,,,,,,,,,,,,,,,,,,,,,,,,,,,,,,,,,,,,,,,,,,,,,,8970.82875259989,None,,,,,,,,,,,,,,,,,,,,,,,,,,,,,,,,,,,,,,,,,,,,,,,,,,,,,,,,,crime,227,72,sing,new,white,8967.482037300011,None,n,8967.482037300011,None,"['n', 'return']","[2.582236299989745, 3.310247399844229]",8967.482037300011,None,,,15YC,001,2023_Mar_01_1532,ExactRep-v3-final,2021.2.3,59.90050532590536,
,,,,,,,,,,,,72,0,72,0,,,,,,,,,,,,,,,,,,,,,,,,,,,,,,,,,,,,,,,,,,,,,,,,,8977.085056300042,None,,,,,,,,,,,,,,,,,,,,,,,,,,,,,,,,,,,,,,,,,,,,,,,,,,,,,,,,,shame,172,73,aloud,new,blue,8971.335719000082,None,y,8971.335719000082,None,"['y', 'return']","[4.928870199946687, 5.704534100135788]",8971.335719000082,None,,,15YC,001,2023_Mar_01_1532,ExactRep-v3-final,2021.2.3,59.90050532590536,
,,,,,,,,,,,,73,0,73,0,,,,,,,,,,,,,,,,,,,,,,,,,,,,,,,,,,,,,,,,,,,,,,,,,8981.255976000102,None,,,,,,,,,,,,,,,,,,,,,,,,,,,,,,,,,,,,,,,,,,,,,,,,,,,,,,,,,hour,145,74,silent,new,red,8977.592296899995,None,n,8977.592296899995,None,"['n', 'return']","[2.280225299997255, 3.631974200019613]",8977.592296899995,None,,,15YC,001,2023_Mar_01_1532,ExactRep-v3-final,2021.2.3,59.90050532590536,
,,,,,,,,,,,,74,0,74,0,,,,,,,,,,,,,,,,,,,,,,,,,,,,,,,,,,,,,,,,,,,,,,,,,8985.610347799957,None,,,,,,,,,,,,,,,,,,,,,,,,,,,,,,,,,,,,,,,,,,,,,,,,,,,,,,,,,duty,206,75,aloud,new,blue,8981.761472000042,None,n,8981.761472000042,None,"['n', 'return']","[2.2388087001163512, 3.8148489000741392]",8981.761472000042,None,,,15YC,001,2023_Mar_01_1532,ExactRep-v3-final,2021.2.3,59.90050532590536,
,,,,,,,,,,,,75,0,75,0,,,,,,,,,,,,,,,,,,,,,,,,,,,,,,,,,,,,,,,,,,,,,,,,,8989.147149600089,None,,,,,,,,,,,,,,,,,,,,,,,,,,,,,,,,,,,,,,,,,,,,,,,,,,,,,,,,,humour,74,76,silent,old,red,8986.120297800051,None,y,8986.120297800051,None,"['y', 'return']","[2.128109699813649, 2.992046899860725]",8986.120297800051,None,,,15YC,001,2023_Mar_01_1532,ExactRep-v3-final,2021.2.3,59.90050532590536,
,,,,,,,,,,,,76,0,76,0,,,,,,,,,,,,,,,,,,,,,,,,,,,,,,,,,,,,,,,,,,,,,,,,,8994.685899799922,None,,,,,,,,,,,,,,,,,,,,,,,,,,,,,,,,,,,,,,,,,,,,,,,,,,,,,,,,,power,160,77,aloud,new,blue,8989.659634399926,None,y,8989.659634399926,None,"['y', 'return']","[4.428774599917233, 4.988642199896276]",8989.659634399926,None,,,15YC,001,2023_Mar_01_1532,ExactRep-v3-final,2021.2.3,59.90050532590536,
,,,,,,,,,,,,77,0,77,0,,,,,,,,,,,,,,,,,,,,,,,,,,,,,,,,,,,,,,,,,,,,,,,,,8998.339592200005,None,,,,,,,,,,,,,,,,,,,,,,,,,,,,,,,,,,,,,,,,,,,,,,,,,,,,,,,,,shock,75,78,silent,old,red,8995.19967049989,None,n,8995.19967049989,None,"['n', 'return']","[1.9445485998876393, 3.104686100035906]",8995.19967049989,None,,,15YC,001,2023_Mar_01_1532,ExactRep-v3-final,2021.2.3,59.90050532590536,
,,,,,,,,,,,,78,0,78,0,,,,,,,,,,,,,,,,,,,,,,,,,,,,,,,,,,,,,,,,,,,,,,,,,9002.193671100074,None,,,,,,,,,,,,,,,,,,,,,,,,,,,,,,,,,,,,,,,,,,,,,,,,,,,,,,,,,silence,33,79,sing,old,white,8998.845358199906,None,y,8998.845358199906,None,"['y', 'return']","[2.5308755000587553, 3.3150276001542807]",8998.845358199906,None,,,15YC,001,2023_Mar_01_1532,ExactRep-v3-final,2021.2.3,59.90050532590536,
,,,,,,,,,,,,79,0,79,0,,,,,,,,,,,,,,,,,,,,,,,,,,,,,,,,,,,,,,,,,,,,,,,,,9004.91301749996,None,,,,,,,,,,,,,,,,,,,,,,,,,,,,,,,,,,,,,,,,,,,,,,,,,,,,,,,,,hide,19,80,sing,old,white,9002.70247670007,None,y,9002.70247670007,None,"['y', 'return']","[1.5779484000522643, 2.1698272000066936]",9002.70247670007,None,,,15YC,001,2023_Mar_01_1532,ExactRep-v3-final,2021.2.3,59.90050532590536,
,,,,,,,,,,,,80,0,80,0,,,,,,,,,,,,,,,,,,,,,,,,,,,,,,,,,,,,,,,,,,,,,,,,,9008.34971609991,None,,,,,,,,,,,,,,,,,,,,,,,,,,,,,,,,,,,,,,,,,,,,,,,,,,,,,,,,,life,110,81,aloud,old,blue,9005.421784299891,None,n,9005.421784299891,None,"['n', 'return']","[2.170765600167215, 2.8825809000991285]",9005.421784299891,None,,,15YC,001,2023_Mar_01_1532,ExactRep-v3-final,2021.2.3,59.90050532590536,
,,,,,,,,,,,,81,0,81,0,,,,,,,,,,,,,,,,,,,,,,,,,,,,,,,,,,,,,,,,,,,,,,,,,9012.020154600032,None,,,,,,,,,,,,,,,,,,,,,,,,,,,,,,,,,,,,,,,,,,,,,,,,,,,,,,,,,cotton,4,82,sing,old,white,9008.85101089999,None,n,9008.85101089999,None,"['n', 'return']","[2.4935120998416096, 3.125199700007215]",9008.85101089999,None,,,15YC,001,2023_Mar_01_1532,ExactRep-v3-final,2021.2.3,59.90050532590536,
,,,,,,,,,,,,82,0,82,0,,,,,,,,,,,,,,,,,,,,,,,,,,,,,,,,,,,,,,,,,,,,,,,,,9014.85607660003,None,,,,,,,,,,,,,,,,,,,,,,,,,,,,,,,,,,,,,,,,,,,,,,,,,,,,,,,,,cottage,217,83,sing,new,white,9012.533361800015,None,n,9012.533361800015,None,"['n', 'return']","[1.6991546999197453, 2.2829277999699116]",9012.533361800015,None,,,15YC,001,2023_Mar_01_1532,ExactRep-v3-final,2021.2.3,59.90050532590536,
,,,,,,,,,,,,83,0,83,0,,,,,,,,,,,,,,,,,,,,,,,,,,,,,,,,,,,,,,,,,,,,,,,,,9017.94266219996,None,,,,,,,,,,,,,,,,,,,,,,,,,,,,,,,,,,,,,,,,,,,,,,,,,,,,,,,,,camp,42,84,silent,old,red,9015.367299400037,None,n,9015.367299400037,None,"['n', 'return']","[1.641071000136435, 2.5289362999610603]",9015.367299400037,None,,,15YC,001,2023_Mar_01_1532,ExactRep-v3-final,2021.2.3,59.90050532590536,
,,,,,,,,,,,,84,0,84,0,,,,,,,,,,,,,,,,,,,,,,,,,,,,,,,,,,,,,,,,,,,,,,,,,9021.312566600041,None,,,,,,,,,,,,,,,,,,,,,,,,,,,,,,,,,,,,,,,,,,,,,,,,,,,,,,,,,devil,228,85,aloud,new,blue,9018.455453099916,None,n,9018.455453099916,None,"['n', 'return']","[1.680985099868849, 2.8169863000512123]",9018.455453099916,None,,,15YC,001,2023_Mar_01_1532,ExactRep-v3-final,2021.2.3,59.90050532590536,
,,,,,,,,,,,,85,0,85,0,,,,,,,,,,,,,,,,,,,,,,,,,,,,,,,,,,,,,,,,,,,,,,,,,9024.23214540002,None,,,,,,,,,,,,,,,,,,,,,,,,,,,,,,,,,,,,,,,,,,,,,,,,,,,,,,,,,health,91,86,aloud,old,blue,9021.822247199947,None,y,9021.822247199947,None,"['y', 'return']","[1.650027200113982, 2.3700774998869747]",9021.822247199947,None,,,15YC,001,2023_Mar_01_1532,ExactRep-v3-final,2021.2.3,59.90050532590536,
,,,,,,,,,,,,86,0,86,0,,,,,,,,,,,,,,,,,,,,,,,,,,,,,,,,,,,,,,,,,,,,,,,,,9027.15183410002,None,,,,,,,,,,,,,,,,,,,,,,,,,,,,,,,,,,,,,,,,,,,,,,,,,,,,,,,,,science,86,87,aloud,old,blue,9024.742085099919,None,y,9024.742085099919,None,"['y', 'return']","[1.5141558998730034, 2.3621926999185234]",9024.742085099919,None,,,15YC,001,2023_Mar_01_1532,ExactRep-v3-final,2021.2.3,59.90050532590536,
,,,,,,,,,,,,87,0,87,0,,,,,,,,,,,,,,,,,,,,,,,,,,,,,,,,,,,,,,,,,,,,,,,,,9029.754334799945,None,,,,,,,,,,,,,,,,,,,,,,,,,,,,,,,,,,,,,,,,,,,,,,,,,,,,,,,,,maiden,185,88,sing,new,white,9027.655427499907,None,n,9027.655427499907,None,"['n', 'return']","[1.3130025998689234, 2.0648988999892026]",9027.655427499907,None,,,15YC,001,2023_Mar_01_1532,ExactRep-v3-final,2021.2.3,59.90050532590536,
,,,,,,,,,,,,88,0,88,0,,,,,,,,,,,,,,,,,,,,,,,,,,,,,,,,,,,,,,,,,,,,,,,,,9032.323627300095,None,,,,,,,,,,,,,,,,,,,,,,,,,,,,,,,,,,,,,,,,,,,,,,,,,,,,,,,,,market,18,89,sing,old,white,9030.254891700111,None,y,9030.254891700111,None,"['y', 'return']","[1.4173902000766248, 2.025462100049481]",9030.254891700111,None,,,15YC,001,2023_Mar_01_1532,ExactRep-v3-final,2021.2.3,59.90050532590536,
,,,,,,,,,,,,89,0,89,0,,,,,,,,,,,,,,,,,,,,,,,,,,,,,,,,,,,,,,,,,,,,,,,,,9034.842763999943,None,,,,,,,,,,,,,,,,,,,,,,,,,,,,,,,,,,,,,,,,,,,,,,,,,,,,,,,,,law,181,90,sing,new,white,9032.8297017999,None,y,9032.8297017999,None,"['y', 'return']","[1.186612999998033, 1.9785716000478715]",9032.8297017999,None,,,15YC,001,2023_Mar_01_1532,ExactRep-v3-final,2021.2.3,59.90050532590536,
,,,,,,,,,,,,90,0,90,0,,,,,,,,,,,,,,,,,,,,,,,,,,,,,,,,,,,,,,,,,,,,,,,,,9038.980088799959,None,,,,,,,,,,,,,,,,,,,,,,,,,,,,,,,,,,,,,,,,,,,,,,,,,,,,,,,,,body,199,91,sing,new,white,9035.355383699993,None,n,9035.355383699993,None,"['n', 'return']","[2.8449642998166382, 3.580784499878064]",9035.355383699993,None,,,15YC,001,2023_Mar_01_1532,ExactRep-v3-final,2021.2.3,59.90050532590536,
,,,,,,,,,,,,91,0,91,0,,,,,,,,,,,,,,,,,,,,,,,,,,,,,,,,,,,,,,,,,,,,,,,,,9041.74964309996,None,,,,,,,,,,,,,,,,,,,,,,,,,,,,,,,,,,,,,,,,,,,,,,,,,,,,,,,,,book,131,92,silent,new,red,9039.491922300076,None,n,9039.491922300076,None,"['n', 'return']","[1.5083361000288278, 2.212430000072345]",9039.491922300076,None,,,15YC,001,2023_Mar_01_1532,ExactRep-v3-final,2021.2.3,59.90050532590536,
,,,,,,,,,,,,92,0,92,0,,,,,,,,,,,,,,,,,,,,,,,,,,,,,,,,,,,,,,,,,,,,,,,,,9044.252163300058,None,,,,,,,,,,,,,,,,,,,,,,,,,,,,,,,,,,,,,,,,,,,,,,,,,,,,,,,,,officer,44,93,silent,old,red,9042.260661700042,None,n,9042.260661700042,None,"['n', 'return']","[1.163826699834317, 1.955765999853611]",9042.260661700042,None,,,15YC,001,2023_Mar_01_1532,ExactRep-v3-final,2021.2.3,59.90050532590536,
,,,,,,,,,,,,93,0,93,0,,,,,,,,,,,,,,,,,,,,,,,,,,,,,,,,,,,,,,,,,,,,,,,,,9047.88909359998,None,,,,,,,,,,,,,,,,,,,,,,,,,,,,,,,,,,,,,,,,,,,,,,,,,,,,,,,,,engine,0,94,sing,old,white,9044.760105599882,None,n,9044.760105599882,None,"['n', 'return']","[2.088529299944639, 3.0961575000546873]",9044.760105599882,None,,,15YC,001,2023_Mar_01_1532,ExactRep-v3-final,2021.2.3,59.90050532590536,
,,,,,,,,,,,,94,0,94,0,,,,,,,,,,,,,,,,,,,,,,,,,,,,,,,,,,,,,,,,,,,,,,,,,9052.460345000029,None,,,,,,,,,,,,,,,,,,,,,,,,,,,,,,,,,,,,,,,,,,,,,,,,,,,,,,,,,village,23,95,sing,old,white,9048.39452630002,None,y,9048.39452630002,None,"['y', 'return']","[3.277958600083366, 4.029829799896106]",9048.39452630002,None,,,15YC,001,2023_Mar_01_1532,ExactRep-v3-final,2021.2.3,59.90050532590536,
,,,,,,,,,,,,95,0,95,0,,,,,,,,,,,,,,,,,,,,,,,,,,,,,,,,,,,,,,,,,,,,,,,,,9055.46354050003,None,,,,,,,,,,,,,,,,,,,,,,,,,,,,,,,,,,,,,,,,,,,,,,,,,,,,,,,,,soil,101,96,aloud,old,blue,9052.969367600046,None,n,9052.969367600046,None,"['n', 'return']","[1.6229077000170946, 2.446971399942413]",9052.969367600046,None,,,15YC,001,2023_Mar_01_1532,ExactRep-v3-final,2021.2.3,59.90050532590536,
,,,,,,,,,,,,96,0,96,0,,,,,,,,,,,,,,,,,,,,,,,,,,,,,,,,,,,,,,,,,,,,,,,,,9058.399630300002,None,,,,,,,,,,,,,,,,,,,,,,,,,,,,,,,,,,,,,,,,,,,,,,,,,,,,,,,,,shadow,54,97,silent,old,red,9055.969580699923,None,n,9055.969580699923,None,"['n', 'return']","[1.4387211999855936, 2.3907838999293745]",9055.969580699923,None,,,15YC,001,2023_Mar_01_1532,ExactRep-v3-final,2021.2.3,59.90050532590536,
,,,,,,,,,,,,97,0,97,0,,,,,,,,,,,,,,,,,,,,,,,,,,,,,,,,,,,,,,,,,,,,,,,,,9061.11917229998,None,,,,,,,,,,,,,,,,,,,,,,,,,,,,,,,,,,,,,,,,,,,,,,,,,,,,,,,,,dawn,140,98,silent,new,red,9058.91119870008,None,n,9058.91119870008,None,"['n', 'return']","[1.3210871000774205, 2.161144700134173]",9058.91119870008,None,,,15YC,001,2023_Mar_01_1532,ExactRep-v3-final,2021.2.3,59.90050532590536,
,,,,,,,,,,,,98,0,98,0,,,,,,,,,,,,,,,,,,,,,,,,,,,,,,,,,,,,,,,,,,,,,,,,,9063.721806500107,None,,,,,,,,,,,,,,,,,,,,,,,,,,,,,,,,,,,,,,,,,,,,,,,,,,,,,,,,,blossom,220,99,aloud,new,blue,9061.61964119994,None,n,9061.61964119994,None,"['n', 'return']","[1.2928981001023203, 2.060741800116375]",9061.61964119994,None,,,15YC,001,2023_Mar_01_1532,ExactRep-v3-final,2021.2.3,59.90050532590536,
,,,,,,,,,,,,99,0,99,0,,,,,,,,,,,,,,,,,,,,,,,,,,,,,,,,,,,,,,,,,,,,,,,,,9066.808062500088,None,,,,,,,,,,,,,,,,,,,,,,,,,,,,,,,,,,,,,,,,,,,,,,,,,,,,,,,,,judge,61,100,silent,old,red,9064.231676999945,None,n,9064.231676999945,None,"['n', 'return']","[1.488718300126493, 2.5366557999514043]",9064.231676999945,None,,,15YC,001,2023_Mar_01_1532,ExactRep-v3-final,2021.2.3,59.90050532590536,
,,,,,,,,,,,,100,0,100,0,,,,,,,,,,,,,,,,,,,,,,,,,,,,,,,,,,,,,,,,,,,,,,,,,9069.361743200105,None,,,,,,,,,,,,,,,,,,,,,,,,,,,,,,,,,,,,,,,,,,,,,,,,,,,,,,,,,time,148,101,silent,new,red,9067.324575199978,None,n,9067.324575199978,None,"['n', 'return']","[1.283919099951163, 2.003641599789262]",9067.324575199978,None,,,15YC,001,2023_Mar_01_1532,ExactRep-v3-final,2021.2.3,59.90050532590536,
,,,,,,,,,,,,101,0,101,0,,,,,,,,,,,,,,,,,,,,,,,,,,,,,,,,,,,,,,,,,,,,,,,,,9072.063330400037,None,,,,,,,,,,,,,,,,,,,,,,,,,,,,,,,,,,,,,,,,,,,,,,,,,,,,,,,,,doll,195,102,sing,new,white,9069.86811479996,None,n,9069.86811479996,None,"['n', 'return']","[1.5242083999328315, 2.148232900071889]",9069.86811479996,None,,,15YC,001,2023_Mar_01_1532,ExactRep-v3-final,2021.2.3,59.90050532590536,
,,,,,,,,,,,,102,0,102,0,,,,,,,,,,,,,,,,,,,,,,,,,,,,,,,,,,,,,,,,,,,,,,,,,9074.799571200041,None,,,,,,,,,,,,,,,,,,,,,,,,,,,,,,,,,,,,,,,,,,,,,,,,,,,,,,,,,salary,215,103,sing,new,white,9072.570544000017,None,n,9072.570544000017,None,"['n', 'return']","[1.453826199984178, 2.189796600025147]",9072.570544000017,None,,,15YC,001,2023_Mar_01_1532,ExactRep-v3-final,2021.2.3,59.90050532590536,
,,,,,,,,,,,,103,0,103,0,,,,,,,,,,,,,,,,,,,,,,,,,,,,,,,,,,,,,,,,,,,,,,,,,9077.168431899976,None,,,,,,,,,,,,,,,,,,,,,,,,,,,,,,,,,,,,,,,,,,,,,,,,,,,,,,,,,child,149,104,silent,new,red,9075.303847800009,None,n,9075.303847800009,None,"['n', 'return']","[1.1925546999555081, 1.8325368999503553]",9075.303847800009,None,,,15YC,001,2023_Mar_01_1532,ExactRep-v3-final,2021.2.3,59.90050532590536,
,,,,,,,,,,,,104,0,104,0,,,,,,,,,,,,,,,,,,,,,,,,,,,,,,,,,,,,,,,,,,,,,,,,,9079.9044896001,None,,,,,,,,,,,,,,,,,,,,,,,,,,,,,,,,,,,,,,,,,,,,,,,,,,,,,,,,,kiss,183,105,sing,new,white,9077.678593199933,None,n,9077.678593199933,None,"['n', 'return']","[1.6818405999802053, 2.18576669995673]",9077.678593199933,None,,,15YC,001,2023_Mar_01_1532,ExactRep-v3-final,2021.2.3,59.90050532590536,
,,,,,,,,,,,,105,0,105,0,,,,,,,,,,,,,,,,,,,,,,,,,,,,,,,,,,,,,,,,,,,,,,,,,9082.190269199898,None,,,,,,,,,,,,,,,,,,,,,,,,,,,,,,,,,,,,,,,,,,,,,,,,,,,,,,,,,river,123,106,silent,new,red,9080.41525160009,None,n,9080.41525160009,None,"['n', 'return']","[1.1049844999797642, 1.7372243001591414]",9080.41525160009,None,,,15YC,001,2023_Mar_01_1532,ExactRep-v3-final,2021.2.3,59.90050532590536,
,,,,,,,,,,,,106,0,106,0,,,,,,,,,,,,,,,,,,,,,,,,,,,,,,,,,,,,,,,,,,,,,,,,,9084.976225099992,None,,,,,,,,,,,,,,,,,,,,,,,,,,,,,,,,,,,,,,,,,,,,,,,,,,,,,,,,,flower,159,107,silent,new,red,9082.701483699959,None,n,9082.701483699959,None,"['n', 'return']","[1.5708903002087027, 2.2348848001565784]",9082.701483699959,None,,,15YC,001,2023_Mar_01_1532,ExactRep-v3-final,2021.2.3,59.90050532590536,
,,,,,,,,,,,,107,0,107,0,,,,,,,,,,,,,,,,,,,,,,,,,,,,,,,,,,,,,,,,,,,,,,,,,9087.495524100028,None,,,,,,,,,,,,,,,,,,,,,,,,,,,,,,,,,,,,,,,,,,,,,,,,,,,,,,,,,flesh,28,108,sing,old,white,9085.484687299933,None,y,9085.484687299933,None,"['y', 'return']","[1.491941099986434, 1.9637163998559117]",9085.484687299933,None,,,15YC,001,2023_Mar_01_1532,ExactRep-v3-final,2021.2.3,59.90050532590536,
,,,,,,,,,,,,108,0,108,0,,,,,,,,,,,,,,,,,,,,,,,,,,,,,,,,,,,,,,,,,,,,,,,,,9089.797587200068,None,,,,,,,,,,,,,,,,,,,,,,,,,,,,,,,,,,,,,,,,,,,,,,,,,,,,,,,,,prison,67,109,silent,old,red,9088.005430300022,None,n,9088.005430300022,None,"['n', 'return']","[1.2349421000108123, 1.7469415999948978]",9088.005430300022,None,,,15YC,001,2023_Mar_01_1532,ExactRep-v3-final,2021.2.3,59.90050532590536,
,,,,,,,,,,,,109,0,109,0,,,,,,,,,,,,,,,,,,,,,,,,,,,,,,,,,,,,,,,,,,,,,,,,,9091.949943999993,None,,,,,,,,,,,,,,,,,,,,,,,,,,,,,,,,,,,,,,,,,,,,,,,,,,,,,,,,,fortune,3,110,sing,old,white,9090.309751299908,None,y,9090.309751299908,None,"['y', 'return']","[0.9707102999091148, 1.5946335999760777]",9090.309751299908,None,,,15YC,001,2023_Mar_01_1532,ExactRep-v3-final,2021.2.3,59.90050532590536,
,,,,,,,,,,,,110,0,110,0,,,,,,,,,,,,,,,,,,,,,,,,,,,,,,,,,,,,,,,,,,,,,,,,,9094.802893799962,None,,,,,,,,,,,,,,,,,,,,,,,,,,,,,,,,,,,,,,,,,,,,,,,,,,,,,,,,,woods,202,111,aloud,new,blue,9092.453976900084,None,n,9092.453976900084,None,"['n', 'return']","[1.6903696998488158, 2.3143213998991996]",9092.453976900084,None,,,15YC,001,2023_Mar_01_1532,ExactRep-v3-final,2021.2.3,59.90050532590536,
,,,,,,,,,,,,111,0,111,0,,,,,,,,,,,,,,,,,,,,,,,,,,,,,,,,,,,,,,,,,,,,,,,,,9097.288526999997,None,,,,,,,,,,,,,,,,,,,,,,,,,,,,,,,,,,,,,,,,,,,,,,,,,,,,,,,,,leader,126,112,silent,new,red,9095.313089899952,None,n,9095.313089899952,None,"['n', 'return']","[1.2312606000341475, 1.9275007001124322]",9095.313089899952,None,,,15YC,001,2023_Mar_01_1532,ExactRep-v3-final,2021.2.3,59.90050532590536,
,,,,,,,,,,,,112,0,112,0,,,,,,,,,,,,,,,,,,,,,,,,,,,,,,,,,,,,,,,,,,,,,,,,,9100.10814799997,None,,,,,,,,,,,,,,,,,,,,,,,,,,,,,,,,,,,,,,,,,,,,,,,,,,,,,,,,,hotel,204,113,aloud,new,blue,9097.800009199884,None,n,9097.800009199884,None,"['n', 'return']","[1.6082490999251604, 2.264251400018111]",9097.800009199884,None,,,15YC,001,2023_Mar_01_1532,ExactRep-v3-final,2021.2.3,59.90050532590536,
,,,,,,,,,,,,113,0,113,0,,,,,,,,,,,,,,,,,,,,,,,,,,,,,,,,,,,,,,,,,,,,,,,,,9102.89411860006,None,,,,,,,,,,,,,,,,,,,,,,,,,,,,,,,,,,,,,,,,,,,,,,,,,,,,,,,,,skin,192,114,aloud,new,blue,9100.618739699945,None,y,9100.618739699945,None,"['y', 'return']","[1.7735613998956978, 2.2297719998750836]",9100.618739699945,None,,,15YC,001,2023_Mar_01_1532,ExactRep-v3-final,2021.2.3,59.90050532590536,
,,,,,,,,,,,,114,0,114,0,,,,,,,,,,,,,,,,,,,,,,,,,,,,,,,,,,,,,,,,,,,,,,,,,9106.497726100031,None,,,,,,,,,,,,,,,,,,,,,,,,,,,,,,,,,,,,,,,,,,,,,,,,,,,,,,,,,author,186,115,aloud,new,blue,9103.405201999936,None,n,9103.405201999936,None,"['n', 'return']","[2.595189099898562, 3.059196999995038]",9103.405201999936,None,,,15YC,001,2023_Mar_01_1532,ExactRep-v3-final,2021.2.3,59.90050532590536,
,,,,,,,,,,,,115,0,115,0,,,,,,,,,,,,,,,,,,,,,,,,,,,,,,,,,,,,,,,,,,,,,,,,,9109.300547099905,None,,,,,,,,,,,,,,,,,,,,,,,,,,,,,,,,,,,,,,,,,,,,,,,,,,,,,,,,,present,231,116,sing,new,white,9107.009514899924,None,y,9107.009514899924,None,"['y', 'return']","[1.7188848999794573, 2.254913300042972]",9107.009514899924,None,,,15YC,001,2023_Mar_01_1532,ExactRep-v3-final,2021.2.3,59.90050532590536,
,,,,,,,,,,,,116,0,116,0,,,,,,,,,,,,,,,,,,,,,,,,,,,,,,,,,,,,,,,,,,,,,,,,,9113.288054900011,None,,,,,,,,,,,,,,,,,,,,,,,,,,,,,,,,,,,,,,,,,,,,,,,,,,,,,,,,,month,153,117,silent,new,red,9109.810617000097,None,n,9109.810617000097,None,"['n', 'return']","[2.9581867998931557, 3.429865000071004]",9109.810617000097,None,,,15YC,001,2023_Mar_01_1532,ExactRep-v3-final,2021.2.3,59.90050532590536,
,,,,,,,,,,,,117,0,117,0,,,,,,,,,,,,,,,,,,,,,,,,,,,,,,,,,,,,,,,,,,,,,,,,,9115.923849700019,None,,,,,,,,,,,,,,,,,,,,,,,,,,,,,,,,,,,,,,,,,,,,,,,,,,,,,,,,,square,99,118,aloud,old,blue,9113.799198899884,None,n,9113.799198899884,None,"['n', 'return']","[1.3931024000048637, 2.0893535998184234]",9113.799198899884,None,,,15YC,001,2023_Mar_01_1532,ExactRep-v3-final,2021.2.3,59.90050532590536,
,,,,,,,,,,,,118,0,118,0,,,,,,,,,,,,,,,,,,,,,,,,,,,,,,,,,,,,,,,,,,,,,,,,,9118.376186399953,None,,,,,,,,,,,,,,,,,,,,,,,,,,,,,,,,,,,,,,,,,,,,,,,,,,,,,,,,,love,201,119,sing,new,white,9116.433904200094,None,n,9116.433904200094,None,"['n', 'return']","[1.3346923000644892, 1.910504899919033]",9116.433904200094,None,,,15YC,001,2023_Mar_01_1532,ExactRep-v3-final,2021.2.3,59.90050532590536,
,,,,,,,,,,,,119,0,119,0,,,,,,,,,,,,,,,,,,,,,,,,,,,,,,,,,,,,,,,,,,,,,,,,,9120.528608999914,None,,,,,,,,,,,,,,,,,,,,,,,,,,,,,,,,,,,,,,,,,,,,,,,,,,,,,,,,,sugar,122,120,silent,new,red,9118.881249299971,None,n,9118.881249299971,None,"['n', 'return']","[1.0790570001117885, 1.6151642000768334]",9118.881249299971,None,,,15YC,001,2023_Mar_01_1532,ExactRep-v3-final,2021.2.3,59.90050532590536,
,,,,,,,,,,,,120,0,120,0,,,,,,,,,,,,,,,,,,,,,,,,,,,,,,,,,,,,,,,,,,,,,,,,,9122.730822900077,None,,,,,,,,,,,,,,,,,,,,,,,,,,,,,,,,,,,,,,,,,,,,,,,,,,,,,,,,,anger,21,121,sing,old,white,9121.032250700053,None,y,9121.032250700053,None,"['y', 'return']","[1.0883551000151783, 1.6561764001380652]",9121.032250700053,None,,,15YC,001,2023_Mar_01_1532,ExactRep-v3-final,2021.2.3,59.90050532590536,
,,,,,,,,,,,,121,0,121,0,,,,,,,,,,,,,,,,,,,,,,,,,,,,,,,,,,,,,,,,,,,,,,,,,9125.416765300091,None,,,,,,,,,,,,,,,,,,,,,,,,,,,,,,,,,,,,,,,,,,,,,,,,,,,,,,,,,world,214,122,aloud,new,blue,9123.238511400064,None,y,9123.238511400064,None,"['y', 'return']","[1.6179019999690354, 2.137903899885714]",9123.238511400064,None,,,15YC,001,2023_Mar_01_1532,ExactRep-v3-final,2021.2.3,59.90050532590536,
,,,,,,,,,,,,122,0,122,0,,,,,,,,,,,,,,,,,,,,,,,,,,,,,,,,,,,,,,,,,,,,,,,,,9128.152745000087,None,,,,,,,,,,,,,,,,,,,,,,,,,,,,,,,,,,,,,,,,,,,,,,,,,,,,,,,,,pride,114,123,aloud,old,blue,9125.923570899991,None,y,9125.923570899991,None,"['y', 'return']","[1.6049677000846714, 2.1969967000186443]",9125.923570899991,None,,,15YC,001,2023_Mar_01_1532,ExactRep-v3-final,2021.2.3,59.90050532590536,
,,,,,,,,,,,,123,0,123,0,,,,,,,,,,,,,,,,,,,,,,,,,,,,,,,,,,,,,,,,,,,,,,,,,9130.355111199897,None,,,,,,,,,,,,,,,,,,,,,,,,,,,,,,,,,,,,,,,,,,,,,,,,,,,,,,,,,quality,15,124,sing,old,white,9128.664263000013,None,y,9128.664263000013,None,"['y', 'return']","[1.0560943000018597, 1.6481844000518322]",9128.664263000013,None,,,15YC,001,2023_Mar_01_1532,ExactRep-v3-final,2021.2.3,59.90050532590536,
,,,,,,,,,,,,124,0,124,0,,,,,,,,,,,,,,,,,,,,,,,,,,,,,,,,,,,,,,,,,,,,,,,,,9132.473738600034,None,,,,,,,,,,,,,,,,,,,,,,,,,,,,,,,,,,,,,,,,,,,,,,,,,,,,,,,,,avenue,30,125,sing,old,white,9130.86301099998,None,y,9130.86301099998,None,"['y', 'return']","[1.041533499956131, 1.5694327000528574]",9130.86301099998,None,,,15YC,001,2023_Mar_01_1532,ExactRep-v3-final,2021.2.3,59.90050532590536,
,,,,,,,,,,,,125,0,125,0,,,,,,,,,,,,,,,,,,,,,,,,,,,,,,,,,,,,,,,,,,,,,,,,,9138.146078499965,None,,,,,,,,,,,,,,,,,,,,,,,,,,,,,,,,,,,,,,,,,,,,,,,,,,,,,,,,,mind,154,126,silent,new,red,9132.982437700033,None,n,9132.982437700033,None,"['n', 'return']","[4.35396740003489, 5.122002300107852]",9132.982437700033,None,,,15YC,001,2023_Mar_01_1532,ExactRep-v3-final,2021.2.3,59.90050532590536,
,,,,,,,,,,,,126,0,126,0,,,,,,,,,,,,,,,,,,,,,,,,,,,,,,,,,,,,,,,,,,,,,,,,,9140.782142800046,None,,,,,,,,,,,,,,,,,,,,,,,,,,,,,,,,,,,,,,,,,,,,,,,,,,,,,,,,,deed,116,127,aloud,old,blue,9138.651972800028,None,y,9138.651972800028,None,"['y', 'return']","[1.484645799966529, 2.092656600056216]",9138.651972800028,None,,,15YC,001,2023_Mar_01_1532,ExactRep-v3-final,2021.2.3,59.90050532590536,
,,,,,,,,,,,,127,0,127,0,,,,,,,,,,,,,,,,,,,,,,,,,,,,,,,,,,,,,,,,,,,,,,,,,9142.850943899946,None,,,,,,,,,,,,,,,,,,,,,,,,,,,,,,,,,,,,,,,,,,,,,,,,,,,,,,,,,student,12,128,sing,old,white,9141.298561299918,None,y,9141.298561299918,None,"['y', 'return']","[0.9419571999460459, 1.5178562998771667]",9141.298561299918,None,,,15YC,001,2023_Mar_01_1532,ExactRep-v3-final,2021.2.3,59.90050532590536,
,,,,,,,,,,,,128,0,128,0,,,,,,,,,,,,,,,,,,,,,,,,,,,,,,,,,,,,,,,,,,,,,,,,,9145.286619399907,None,,,,,,,,,,,,,,,,,,,,,,,,,,,,,,,,,,,,,,,,,,,,,,,,,,,,,,,,,arm,161,129,sing,new,white,9143.364018300083,None,y,9143.364018300083,None,"['y', 'return']","[1.308395499829203, 1.8762495999690145]",9143.364018300083,None,,,15YC,001,2023_Mar_01_1532,ExactRep-v3-final,2021.2.3,59.90050532590536,
,,,,,,,,,,,,129,0,129,0,,,,,,,,,,,,,,,,,,,,,,,,,,,,,,,,,,,,,,,,,,,,,,,,,9147.822506200057,None,,,,,,,,,,,,,,,,,,,,,,,,,,,,,,,,,,,,,,,,,,,,,,,,,,,,,,,,,slave,226,130,aloud,new,blue,9145.792320299894,None,n,9145.792320299894,None,"['n', 'return']","[1.4563250998035073, 1.9921482999343425]",9145.792320299894,None,,,15YC,001,2023_Mar_01_1532,ExactRep-v3-final,2021.2.3,59.90050532590536,
,,,,,,,,,,,,130,0,130,0,,,,,,,,,,,,,,,,,,,,,,,,,,,,,,,,,,,,,,,,,,,,,,,,,9150.358271799982,None,,,,,,,,,,,,,,,,,,,,,,,,,,,,,,,,,,,,,,,,,,,,,,,,,,,,,,,,,lad,7,131,sing,old,white,9148.331300100079,None,y,9148.331300100079,None,"['y', 'return']","[1.4851877000182867, 1.9812187999486923]",9148.331300100079,None,,,15YC,001,2023_Mar_01_1532,ExactRep-v3-final,2021.2.3,59.90050532590536,
,,,,,,,,,,,,131,0,131,0,,,,,,,,,,,,,,,,,,,,,,,,,,,,,,,,,,,,,,,,,,,,,,,,,9152.777547999984,None,,,,,,,,,,,,,,,,,,,,,,,,,,,,,,,,,,,,,,,,,,,,,,,,,,,,,,,,,custom,58,132,silent,old,red,9150.867472599959,None,n,9150.867472599959,None,"['n', 'return']","[1.3170386999845505, 1.8770339000038803]",9150.867472599959,None,,,15YC,001,2023_Mar_01_1532,ExactRep-v3-final,2021.2.3,59.90050532590536,
,,,,,,,,,,,,132,0,132,0,,,,,,,,,,,,,,,,,,,,,,,,,,,,,,,,,,,,,,,,,,,,,,,,,9155.29656170006,None,,,,,,,,,,,,,,,,,,,,,,,,,,,,,,,,,,,,,,,,,,,,,,,,,,,,,,,,,meadow,238,133,aloud,new,blue,9153.291703700088,None,n,9153.291703700088,None,"['n', 'return']","[1.3486855998635292, 1.9727286999113858]",9153.291703700088,None,,,15YC,001,2023_Mar_01_1532,ExactRep-v3-final,2021.2.3,59.90050532590536,
