trials_fam.thisRepN,trials_fam.thisTrialN,trials_fam.thisN,trials_fam.thisIndex,trials_prc.thisRepN,trials_prc.thisTrialN,trials_prc.thisN,trials_prc.thisIndex,StudyLoop.thisRepN,StudyLoop.thisTrialN,StudyLoop.thisN,StudyLoop.thisIndex,TestLoop.thisRepN,TestLoop.thisTrialN,TestLoop.thisN,TestLoop.thisIndex,text_colortest.started,text_colortest.stopped,key_colortest.keys,key_colortest.rt,key_colortest.started,key_colortest.stopped,textCondition.started,textCondition.stopped,keyCondition.keys,keyCondition.rt,keyCondition.started,keyCondition.stopped,Condition_between,Condition_counterbal,keyWelcome.keys,keyWelcome.rt,keyWelcome.started,keyWelcome.stopped,welcome_a.started,welcome_a.stopped,welcome_b.started,welcome_b.stopped,welcome_c.started,welcome_c.stopped,welcome_d.started,welcome_d.stopped,welcome_e.started,welcome_e.stopped,welcome_f.started,welcome_f.stopped,key_resp_fam_inst.keys,key_resp_fam_inst.rt,key_resp_fam_inst.started,key_resp_fam_inst.stopped,fam_a.started,fam_a.stopped,fam_b.started,fam_b.stopped,fam_c.started,fam_c.stopped,fam_d.started,fam_d.stopped,fam_e.started,fam_e.stopped,fam_f.started,fam_f.stopped,text_famil.started,text_famil.stopped,textBlank500.started,textBlank500.stopped,key_resp_prc_inst.keys,key_resp_prc_inst.rt,key_resp_prc_inst.started,key_resp_prc_inst.stopped,prac_a.started,prac_a.stopped,prac_b.started,prac_b.stopped,prac_c.started,prac_c.stopped,prac_d.started,prac_d.stopped,prac_e.started,prac_e.stopped,prac_f.started,prac_f.stopped,text_prc_trial.started,text_prc_trial.stopped,key_resp_study_inst.keys,key_resp_study_inst.rt,key_resp_study_inst.started,key_resp_study_inst.stopped,crit_a.started,crit_a.stopped,crit_b.started,crit_b.stopped,crit_c.started,crit_c.stopped,crit_d.started,crit_d.stopped,crit_e.started,crit_e.stopped,crit_f.started,crit_f.stopped,study_word,study_num,study_order,study_type,word_color,textStudy.started,textStudy.stopped,keyStudy.keys,keyStudy.started,keyStudy.stopped,post_study.started,post_study.stopped,key_resp_post_study.keys,key_resp_post_study.rt,key_resp_post_study.started,key_resp_post_study.stopped,test_inst.started,test_inst.stopped,key_resp_test_inst.keys,key_resp_test_inst.rt,key_resp_test_inst.started,key_resp_test_inst.stopped,test_word,test_num,test_order,test_condition,old_new_test,word_color_test,textConf.started,textConf.stopped,Participant Response,textInput.started,textInput.stopped,keyResp.keys,keyResp.rt,keyResp.started,keyResp.stopped,textEnd.started,textEnd.stopped,participant,session,date,expName,psychopyVersion,frameRate,
,,,,,,,,,,,,,,,,31.078628899995238,None,y,2.5568900001235306,31.078628899995238,None,,,,,,,,,,,,,,,,,,,,,,,,,,,,,,,,,,,,,,,,,,,,,,,,,,,,,,,,,,,,,,,,,,,,,,,,,,,,,,,,,,,,,,,,,,,,,,,,,,,,,,,,,,,,,,,,,,,,,,16yd,001,2023_Mar_01_1812,ExactRep-v3-final,2021.2.3,59.92523723493781,
,,,,,,,,,,,,,,,,,,,,,,33.66066850000061,None,d,3.1588111000601202,33.66066850000061,None,,,,,,,,,,,,,,,,,,,,,,,,,,,,,,,,,,,,,,,,,,,,,,,,,,,,,,,,,,,,,,,,,,,,,,,,,,,,,,,,,,,,,,,,,,,,,,,,,,,,,,,,,,,,,,,,16yd,001,2023_Mar_01_1812,ExactRep-v3-final,2021.2.3,59.92523723493781,
,,,,,,,,,,,,,,,,,,,,,,,,,,,,colorfoils,d,space,689.0623666001484,46.94186639995314,None,,,,,,,,,,,,,,,,,,,,,,,,,,,,,,,,,,,,,,,,,,,,,,,,,,,,,,,,,,,,,,,,,,,,,,,,,,,,,,,,,,,,,,,,,,,,,,,,,,,,,,,,,,16yd,001,2023_Mar_01_1812,ExactRep-v3-final,2021.2.3,59.92523723493781,
,,,,,,,,,,,,,,,,,,,,,,,,,,,,,,,,,,37.005143200047314,None,37.005143200047314,None,37.005143200047314,None,37.005143200047314,None,37.005143200047314,None,37.005143200047314,None,space,50.74964990001172,746.2147925000172,None,,,,,,,,,,,,,,,,,,,,,,,,,,,,,,,,,,,,,,,,,,,,,,,,,,,,,,,,,,,,,,,,,,,,,,,,,,,,,,,,,,,,,,,,,,16yd,001,2023_Mar_01_1812,ExactRep-v3-final,2021.2.3,59.92523723493781,
0,0,0,0,,,,,,,,,,,,,,,,,,,,,,,,,,,,,,,,,,,,,,,,,,,,,,,736.2350505001377,None,736.2350505001377,None,736.2350505001377,None,736.2350505001377,None,736.2350505001377,None,736.2350505001377,None,797.0477236001752,None,799.0428400000092,None,,,,,,,,,,,,,,,,,,,,,,,,,,,,,,,,,,,,,,,,,,,,,,,,,,,,,,,,,,,,,,,,,,,,,,,,,,16yd,001,2023_Mar_01_1812,ExactRep-v3-final,2021.2.3,59.92523723493781,
1,0,1,0,,,,,,,,,,,,,,,,,,,,,,,,,,,,,,,,,,,,,,,,,,,,,,,,,,,,,,,,,,,799.5433958000503,None,801.5454003000632,None,,,,,,,,,,,,,,,,,,,,,,,,,,,,,,,,,,,,,,,,,,,,,,,,,,,,,,,,,,,,,,,,,,,,,,,,,,16yd,001,2023_Mar_01_1812,ExactRep-v3-final,2021.2.3,59.92523723493781,
2,0,2,0,,,,,,,,,,,,,,,,,,,,,,,,,,,,,,,,,,,,,,,,,,,,,,,,,,,,,,,,,,,802.0707168001682,None,804.0645675000269,None,,,,,,,,,,,,,,,,,,,,,,,,,,,,,,,,,,,,,,,,,,,,,,,,,,,,,,,,,,,,,,,,,,,,,,,,,,16yd,001,2023_Mar_01_1812,ExactRep-v3-final,2021.2.3,59.92523723493781,
3,0,3,0,,,,,,,,,,,,,,,,,,,,,,,,,,,,,,,,,,,,,,,,,,,,,,,,,,,,,,,,,,,804.5670301001519,None,806.5671266000718,None,,,,,,,,,,,,,,,,,,,,,,,,,,,,,,,,,,,,,,,,,,,,,,,,,,,,,,,,,,,,,,,,,,,,,,,,,,16yd,001,2023_Mar_01_1812,ExactRep-v3-final,2021.2.3,59.92523723493781,
4,0,4,0,,,,,,,,,,,,,,,,,,,,,,,,,,,,,,,,,,,,,,,,,,,,,,,,,,,,,,,,,,,807.0676327999681,None,809.069490800146,None,,,,,,,,,,,,,,,,,,,,,,,,,,,,,,,,,,,,,,,,,,,,,,,,,,,,,,,,,,,,,,,,,,,,,,,,,,16yd,001,2023_Mar_01_1812,ExactRep-v3-final,2021.2.3,59.92523723493781,
5,0,5,0,,,,,,,,,,,,,,,,,,,,,,,,,,,,,,,,,,,,,,,,,,,,,,,,,,,,,,,,,,,809.5699726000894,None,811.5717903000768,None,,,,,,,,,,,,,,,,,,,,,,,,,,,,,,,,,,,,,,,,,,,,,,,,,,,,,,,,,,,,,,,,,,,,,,,,,,16yd,001,2023_Mar_01_1812,ExactRep-v3-final,2021.2.3,59.92523723493781,
6,0,6,0,,,,,,,,,,,,,,,,,,,,,,,,,,,,,,,,,,,,,,,,,,,,,,,,,,,,,,,,,,,812.0724587000441,None,814.0744303001557,None,,,,,,,,,,,,,,,,,,,,,,,,,,,,,,,,,,,,,,,,,,,,,,,,,,,,,,,,,,,,,,,,,,,,,,,,,,16yd,001,2023_Mar_01_1812,ExactRep-v3-final,2021.2.3,59.92523723493781,
7,0,7,0,,,,,,,,,,,,,,,,,,,,,,,,,,,,,,,,,,,,,,,,,,,,,,,,,,,,,,,,,,,814.5782902999781,None,816.59364430001,None,,,,,,,,,,,,,,,,,,,,,,,,,,,,,,,,,,,,,,,,,,,,,,,,,,,,,,,,,,,,,,,,,,,,,,,,,,16yd,001,2023_Mar_01_1812,ExactRep-v3-final,2021.2.3,59.92523723493781,
8,0,8,0,,,,,,,,,,,,,,,,,,,,,,,,,,,,,,,,,,,,,,,,,,,,,,,,,,,,,,,,,,,817.0941870999523,None,819.0961440999527,None,,,,,,,,,,,,,,,,,,,,,,,,,,,,,,,,,,,,,,,,,,,,,,,,,,,,,,,,,,,,,,,,,,,,,,,,,,16yd,001,2023_Mar_01_1812,ExactRep-v3-final,2021.2.3,59.92523723493781,
9,0,9,0,,,,,,,,,,,,,,,,,,,,,,,,,,,,,,,,,,,,,,,,,,,,,,,,,,,,,,,,,,,819.5966586000286,None,821.5986240999773,None,,,,,,,,,,,,,,,,,,,,,,,,,,,,,,,,,,,,,,,,,,,,,,,,,,,,,,,,,,,,,,,,,,,,,,,,,,16yd,001,2023_Mar_01_1812,ExactRep-v3-final,2021.2.3,59.92523723493781,
10,0,10,0,,,,,,,,,,,,,,,,,,,,,,,,,,,,,,,,,,,,,,,,,,,,,,,,,,,,,,,,,,,822.0994296001736,None,824.1011471999809,None,,,,,,,,,,,,,,,,,,,,,,,,,,,,,,,,,,,,,,,,,,,,,,,,,,,,,,,,,,,,,,,,,,,,,,,,,,16yd,001,2023_Mar_01_1812,ExactRep-v3-final,2021.2.3,59.92523723493781,
11,0,11,0,,,,,,,,,,,,,,,,,,,,,,,,,,,,,,,,,,,,,,,,,,,,,,,,,,,,,,,,,,,824.6029487999622,None,826.6036921001505,None,,,,,,,,,,,,,,,,,,,,,,,,,,,,,,,,,,,,,,,,,,,,,,,,,,,,,,,,,,,,,,,,,,,,,,,,,,16yd,001,2023_Mar_01_1812,ExactRep-v3-final,2021.2.3,59.92523723493781,
12,0,12,0,,,,,,,,,,,,,,,,,,,,,,,,,,,,,,,,,,,,,,,,,,,,,,,,,,,,,,,,,,,827.1061619999819,None,829.1062002000399,None,,,,,,,,,,,,,,,,,,,,,,,,,,,,,,,,,,,,,,,,,,,,,,,,,,,,,,,,,,,,,,,,,,,,,,,,,,16yd,001,2023_Mar_01_1812,ExactRep-v3-final,2021.2.3,59.92523723493781,
13,0,13,0,,,,,,,,,,,,,,,,,,,,,,,,,,,,,,,,,,,,,,,,,,,,,,,,,,,,,,,,,,,829.6097200000659,None,831.608713600086,None,,,,,,,,,,,,,,,,,,,,,,,,,,,,,,,,,,,,,,,,,,,,,,,,,,,,,,,,,,,,,,,,,,,,,,,,,,16yd,001,2023_Mar_01_1812,ExactRep-v3-final,2021.2.3,59.92523723493781,
14,0,14,0,,,,,,,,,,,,,,,,,,,,,,,,,,,,,,,,,,,,,,,,,,,,,,,,,,,,,,,,,,,832.1092853001319,None,834.1112136000302,None,,,,,,,,,,,,,,,,,,,,,,,,,,,,,,,,,,,,,,,,,,,,,,,,,,,,,,,,,,,,,,,,,,,,,,,,,,16yd,001,2023_Mar_01_1812,ExactRep-v3-final,2021.2.3,59.92523723493781,
,,,,,,,,,,,,,,,,,,,,,,,,,,,,,,,,,,,,,,,,,,,,,,,,,,,,,,,,,,,,,,,,,,space,19.10358649981208,844.700807900168,None,,,,,,,,,,,,,,,,,,,,,,,,,,,,,,,,,,,,,,,,,,,,,,,,,,,,,,,,,,,,,,,,,,,,,,16yd,001,2023_Mar_01_1812,ExactRep-v3-final,2021.2.3,59.92523723493781,
,,,,0,0,0,0,,,,,,,,,,,,,,,,,,,,,,,,,,,,,,,,,,,,,,,,,,,,,,,,,,,,,,,,,865.9096151001286,None,,,,,834.7545466001611,None,834.7545466001611,None,834.7545466001611,None,834.7545466001611,None,834.7545466001611,None,834.7545466001611,None,863.9102062999737,None,,,,,,,,,,,,,,,,,,,,,,,,,,,,,,,,,,,,,,,,,,,,,,,,,,,,,,,,16yd,001,2023_Mar_01_1812,ExactRep-v3-final,2021.2.3,59.92523723493781,
,,,,1,0,1,0,,,,,,,,,,,,,,,,,,,,,,,,,,,,,,,,,,,,,,,,,,,,,,,,,,,,,,,,,868.4119719001465,None,,,,,,,,,,,,,,,,,866.4096469001379,None,,,,,,,,,,,,,,,,,,,,,,,,,,,,,,,,,,,,,,,,,,,,,,,,,,,,,,,,16yd,001,2023_Mar_01_1812,ExactRep-v3-final,2021.2.3,59.92523723493781,
,,,,2,0,2,0,,,,,,,,,,,,,,,,,,,,,,,,,,,,,,,,,,,,,,,,,,,,,,,,,,,,,,,,,870.9144983000588,None,,,,,,,,,,,,,,,,,868.9124625001568,None,,,,,,,,,,,,,,,,,,,,,,,,,,,,,,,,,,,,,,,,,,,,,,,,,,,,,,,,16yd,001,2023_Mar_01_1812,ExactRep-v3-final,2021.2.3,59.92523723493781,
,,,,3,0,3,0,,,,,,,,,,,,,,,,,,,,,,,,,,,,,,,,,,,,,,,,,,,,,,,,,,,,,,,,,873.4172737000044,None,,,,,,,,,,,,,,,,,871.4151489001233,None,,,,,,,,,,,,,,,,,,,,,,,,,,,,,,,,,,,,,,,,,,,,,,,,,,,,,,,,16yd,001,2023_Mar_01_1812,ExactRep-v3-final,2021.2.3,59.92523723493781,
,,,,4,0,4,0,,,,,,,,,,,,,,,,,,,,,,,,,,,,,,,,,,,,,,,,,,,,,,,,,,,,,,,,,875.919463200029,None,,,,,,,,,,,,,,,,,873.917817800073,None,,,,,,,,,,,,,,,,,,,,,,,,,,,,,,,,,,,,,,,,,,,,,,,,,,,,,,,,16yd,001,2023_Mar_01_1812,ExactRep-v3-final,2021.2.3,59.92523723493781,
,,,,5,0,5,0,,,,,,,,,,,,,,,,,,,,,,,,,,,,,,,,,,,,,,,,,,,,,,,,,,,,,,,,,878.4221449999604,None,,,,,,,,,,,,,,,,,876.4201183000114,None,,,,,,,,,,,,,,,,,,,,,,,,,,,,,,,,,,,,,,,,,,,,,,,,,,,,,,,,16yd,001,2023_Mar_01_1812,ExactRep-v3-final,2021.2.3,59.92523723493781,
,,,,6,0,6,0,,,,,,,,,,,,,,,,,,,,,,,,,,,,,,,,,,,,,,,,,,,,,,,,,,,,,,,,,880.9244626001455,None,,,,,,,,,,,,,,,,,878.9227714000735,None,,,,,,,,,,,,,,,,,,,,,,,,,,,,,,,,,,,,,,,,,,,,,,,,,,,,,,,,16yd,001,2023_Mar_01_1812,ExactRep-v3-final,2021.2.3,59.92523723493781,
,,,,7,0,7,0,,,,,,,,,,,,,,,,,,,,,,,,,,,,,,,,,,,,,,,,,,,,,,,,,,,,,,,,,883.4271313000936,None,,,,,,,,,,,,,,,,,881.4251562999561,None,,,,,,,,,,,,,,,,,,,,,,,,,,,,,,,,,,,,,,,,,,,,,,,,,,,,,,,,16yd,001,2023_Mar_01_1812,ExactRep-v3-final,2021.2.3,59.92523723493781,
,,,,8,0,8,0,,,,,,,,,,,,,,,,,,,,,,,,,,,,,,,,,,,,,,,,,,,,,,,,,,,,,,,,,885.9296653999481,None,,,,,,,,,,,,,,,,,883.9274957000744,None,,,,,,,,,,,,,,,,,,,,,,,,,,,,,,,,,,,,,,,,,,,,,,,,,,,,,,,,16yd,001,2023_Mar_01_1812,ExactRep-v3-final,2021.2.3,59.92523723493781,
,,,,9,0,9,0,,,,,,,,,,,,,,,,,,,,,,,,,,,,,,,,,,,,,,,,,,,,,,,,,,,,,,,,,888.4321842000354,None,,,,,,,,,,,,,,,,,886.4300866001286,None,,,,,,,,,,,,,,,,,,,,,,,,,,,,,,,,,,,,,,,,,,,,,,,,,,,,,,,,16yd,001,2023_Mar_01_1812,ExactRep-v3-final,2021.2.3,59.92523723493781,
,,,,10,0,10,0,,,,,,,,,,,,,,,,,,,,,,,,,,,,,,,,,,,,,,,,,,,,,,,,,,,,,,,,,890.9344736000057,None,,,,,,,,,,,,,,,,,888.9327098000795,None,,,,,,,,,,,,,,,,,,,,,,,,,,,,,,,,,,,,,,,,,,,,,,,,,,,,,,,,16yd,001,2023_Mar_01_1812,ExactRep-v3-final,2021.2.3,59.92523723493781,
,,,,11,0,11,0,,,,,,,,,,,,,,,,,,,,,,,,,,,,,,,,,,,,,,,,,,,,,,,,,,,,,,,,,893.4371543000452,None,,,,,,,,,,,,,,,,,891.4349839000497,None,,,,,,,,,,,,,,,,,,,,,,,,,,,,,,,,,,,,,,,,,,,,,,,,,,,,,,,,16yd,001,2023_Mar_01_1812,ExactRep-v3-final,2021.2.3,59.92523723493781,
,,,,12,0,12,0,,,,,,,,,,,,,,,,,,,,,,,,,,,,,,,,,,,,,,,,,,,,,,,,,,,,,,,,,895.9396810999606,None,,,,,,,,,,,,,,,,,893.9375634000171,None,,,,,,,,,,,,,,,,,,,,,,,,,,,,,,,,,,,,,,,,,,,,,,,,,,,,,,,,16yd,001,2023_Mar_01_1812,ExactRep-v3-final,2021.2.3,59.92523723493781,
,,,,13,0,13,0,,,,,,,,,,,,,,,,,,,,,,,,,,,,,,,,,,,,,,,,,,,,,,,,,,,,,,,,,898.4422303000465,None,,,,,,,,,,,,,,,,,896.4400131001603,None,,,,,,,,,,,,,,,,,,,,,,,,,,,,,,,,,,,,,,,,,,,,,,,,,,,,,,,,16yd,001,2023_Mar_01_1812,ExactRep-v3-final,2021.2.3,59.92523723493781,
,,,,14,0,14,0,,,,,,,,,,,,,,,,,,,,,,,,,,,,,,,,,,,,,,,,,,,,,,,,,,,,,,,,,900.9445355001371,None,,,,,,,,,,,,,,,,,898.942764500156,None,,,,,,,,,,,,,,,,,,,,,,,,,,,,,,,,,,,,,,,,,,,,,,,,,,,,,,,,16yd,001,2023_Mar_01_1812,ExactRep-v3-final,2021.2.3,59.92523723493781,
,,,,,,,,,,,,,,,,,,,,,,,,,,,,,,,,,,,,,,,,,,,,,,,,,,,,,,,,,,,,,,,,,,,,,,,,,,,,,,,,,,,,space,21.195553499972448,911.6330647000577,None,,,,,,,,,,,,,,,,,,,,,,,,,,,,,,,,,,,,,,,,,,,,,,,,,,,,16yd,001,2023_Mar_01_1812,ExactRep-v3-final,2021.2.3,59.92523723493781,
,,,,,,,,0,0,0,0,,,,,,,,,,,,,,,,,,,,,,,,,,,,,,,,,,,,,,,,,,,,,,,,,,,,,934.9117400001269,None,,,,,,,,,,,,,,,,,,,,,,,901.6143049001694,None,901.6143049001694,None,901.6143049001694,None,901.6143049001694,None,901.6143049001694,None,901.6143049001694,None,speech,35,1,sing,red,932.8976599001326,None,None,932.8976599001326,None,,,,,,,,,,,,,,,,,,,,,,,,,,,,,,16yd,001,2023_Mar_01_1812,ExactRep-v3-final,2021.2.3,59.92523723493781,
,,,,,,,,1,0,1,0,,,,,,,,,,,,,,,,,,,,,,,,,,,,,,,,,,,,,,,,,,,,,,,,,,,,,937.4144860999659,None,,,,,,,,,,,,,,,,,,,,,,,,,,,,,,,,,,,tree,1,2,sing,red,935.414687700104,None,None,935.414687700104,None,,,,,,,,,,,,,,,,,,,,,,,,,,,,,,16yd,001,2023_Mar_01_1812,ExactRep-v3-final,2021.2.3,59.92523723493781,
,,,,,,,,2,0,2,0,,,,,,,,,,,,,,,,,,,,,,,,,,,,,,,,,,,,,,,,,,,,,,,,,,,,,939.9338209000416,None,,,,,,,,,,,,,,,,,,,,,,,,,,,,,,,,,,,flower,62,3,silent,white,937.9223516001366,None,None,937.9223516001366,None,,,,,,,,,,,,,,,,,,,,,,,,,,,,,,16yd,001,2023_Mar_01_1812,ExactRep-v3-final,2021.2.3,59.92523723493781,
,,,,,,,,3,0,3,0,,,,,,,,,,,,,,,,,,,,,,,,,,,,,,,,,,,,,,,,,,,,,,,,,,,,,942.4360714999493,None,,,,,,,,,,,,,,,,,,,,,,,,,,,,,,,,,,,army,3,4,sing,red,940.4358159999829,None,None,940.4358159999829,None,,,,,,,,,,,,,,,,,,,,,,,,,,,,,,16yd,001,2023_Mar_01_1812,ExactRep-v3-final,2021.2.3,59.92523723493781,
,,,,,,,,4,0,4,0,,,,,,,,,,,,,,,,,,,,,,,,,,,,,,,,,,,,,,,,,,,,,,,,,,,,,944.9551511001773,None,,,,,,,,,,,,,,,,,,,,,,,,,,,,,,,,,,,engine,9,5,sing,red,942.9471178001259,None,None,942.9471178001259,None,,,,,,,,,,,,,,,,,,,,,,,,,,,,,,16yd,001,2023_Mar_01_1812,ExactRep-v3-final,2021.2.3,59.92523723493781,
,,,,,,,,5,0,5,0,,,,,,,,,,,,,,,,,,,,,,,,,,,,,,,,,,,,,,,,,,,,,,,,,,,,,947.457671900047,None,,,,,,,,,,,,,,,,,,,,,,,,,,,,,,,,,,,cotton,42,6,silent,white,945.45580970007,None,None,945.45580970007,None,,,,,,,,,,,,,,,,,,,,,,,,,,,,,,16yd,001,2023_Mar_01_1812,ExactRep-v3-final,2021.2.3,59.92523723493781,
,,,,,,,,6,0,6,0,,,,,,,,,,,,,,,,,,,,,,,,,,,,,,,,,,,,,,,,,,,,,,,,,,,,,949.977063300088,None,,,,,,,,,,,,,,,,,,,,,,,,,,,,,,,,,,,boy,68,7,silent,white,947.9632882999722,None,None,947.9632882999722,None,,,,,,,,,,,,,,,,,,,,,,,,,,,,,,16yd,001,2023_Mar_01_1812,ExactRep-v3-final,2021.2.3,59.92523723493781,
,,,,,,,,7,0,7,0,,,,,,,,,,,,,,,,,,,,,,,,,,,,,,,,,,,,,,,,,,,,,,,,,,,,,952.4795280001126,None,,,,,,,,,,,,,,,,,,,,,,,,,,,,,,,,,,,bird,29,8,sing,red,950.4785285000689,None,None,950.4785285000689,None,,,,,,,,,,,,,,,,,,,,,,,,,,,,,,16yd,001,2023_Mar_01_1812,ExactRep-v3-final,2021.2.3,59.92523723493781,
,,,,,,,,8,0,8,0,,,,,,,,,,,,,,,,,,,,,,,,,,,,,,,,,,,,,,,,,,,,,,,,,,,,,954.9987920001149,None,,,,,,,,,,,,,,,,,,,,,,,,,,,,,,,,,,,life,2,9,sing,red,952.984643000178,None,None,952.984643000178,None,,,,,,,,,,,,,,,,,,,,,,,,,,,,,,16yd,001,2023_Mar_01_1812,ExactRep-v3-final,2021.2.3,59.92523723493781,
,,,,,,,,9,0,9,0,,,,,,,,,,,,,,,,,,,,,,,,,,,,,,,,,,,,,,,,,,,,,,,,,,,,,957.5008682000916,None,,,,,,,,,,,,,,,,,,,,,,,,,,,,,,,,,,,green,51,10,silent,white,955.4991961000487,None,None,955.4991961000487,None,,,,,,,,,,,,,,,,,,,,,,,,,,,,,,16yd,001,2023_Mar_01_1812,ExactRep-v3-final,2021.2.3,59.92523723493781,
,,,,,,,,10,0,10,0,,,,,,,,,,,,,,,,,,,,,,,,,,,,,,,,,,,,,,,,,,,,,,,,,,,,,960.0203873000573,None,,,,,,,,,,,,,,,,,,,,,,,,,,,,,,,,,,,pupil,78,11,silent,white,958.0058373999782,None,None,958.0058373999782,None,,,,,,,,,,,,,,,,,,,,,,,,,,,,,,16yd,001,2023_Mar_01_1812,ExactRep-v3-final,2021.2.3,59.92523723493781,
,,,,,,,,11,0,11,0,,,,,,,,,,,,,,,,,,,,,,,,,,,,,,,,,,,,,,,,,,,,,,,,,,,,,962.5226990999654,None,,,,,,,,,,,,,,,,,,,,,,,,,,,,,,,,,,,board,44,12,silent,white,960.5207722999621,None,None,960.5207722999621,None,,,,,,,,,,,,,,,,,,,,,,,,,,,,,,16yd,001,2023_Mar_01_1812,ExactRep-v3-final,2021.2.3,59.92523723493781,
,,,,,,,,12,0,12,0,,,,,,,,,,,,,,,,,,,,,,,,,,,,,,,,,,,,,,,,,,,,,,,,,,,,,965.0252495000605,None,,,,,,,,,,,,,,,,,,,,,,,,,,,,,,,,,,,avenue,90,13,aloud,blue,963.025510400068,None,None,963.025510400068,None,,,,,,,,,,,,,,,,,,,,,,,,,,,,,,16yd,001,2023_Mar_01_1812,ExactRep-v3-final,2021.2.3,59.92523723493781,
,,,,,,,,13,0,13,0,,,,,,,,,,,,,,,,,,,,,,,,,,,,,,,,,,,,,,,,,,,,,,,,,,,,,967.5277198001277,None,,,,,,,,,,,,,,,,,,,,,,,,,,,,,,,,,,,woman,87,14,aloud,blue,965.5257922001183,None,None,965.5257922001183,None,,,,,,,,,,,,,,,,,,,,,,,,,,,,,,16yd,001,2023_Mar_01_1812,ExactRep-v3-final,2021.2.3,59.92523723493781,
,,,,,,,,14,0,14,0,,,,,,,,,,,,,,,,,,,,,,,,,,,,,,,,,,,,,,,,,,,,,,,,,,,,,970.0470732999966,None,,,,,,,,,,,,,,,,,,,,,,,,,,,,,,,,,,,skin,115,15,aloud,blue,968.0336637999862,None,None,968.0336637999862,None,,,,,,,,,,,,,,,,,,,,,,,,,,,,,,16yd,001,2023_Mar_01_1812,ExactRep-v3-final,2021.2.3,59.92523723493781,
,,,,,,,,15,0,15,0,,,,,,,,,,,,,,,,,,,,,,,,,,,,,,,,,,,,,,,,,,,,,,,,,,,,,972.5494389999658,None,,,,,,,,,,,,,,,,,,,,,,,,,,,,,,,,,,,string,97,16,aloud,blue,970.5475717000663,None,None,970.5475717000663,None,,,,,,,,,,,,,,,,,,,,,,,,,,,,,,16yd,001,2023_Mar_01_1812,ExactRep-v3-final,2021.2.3,59.92523723493781,
,,,,,,,,16,0,16,0,,,,,,,,,,,,,,,,,,,,,,,,,,,,,,,,,,,,,,,,,,,,,,,,,,,,,975.0520804000553,None,,,,,,,,,,,,,,,,,,,,,,,,,,,,,,,,,,,bottle,60,17,silent,white,973.053056600038,None,None,973.053056600038,None,,,,,,,,,,,,,,,,,,,,,,,,,,,,,,16yd,001,2023_Mar_01_1812,ExactRep-v3-final,2021.2.3,59.92523723493781,
,,,,,,,,17,0,17,0,,,,,,,,,,,,,,,,,,,,,,,,,,,,,,,,,,,,,,,,,,,,,,,,,,,,,977.5546288001351,None,,,,,,,,,,,,,,,,,,,,,,,,,,,,,,,,,,,lake,67,18,silent,white,975.5538034001365,None,None,975.5538034001365,None,,,,,,,,,,,,,,,,,,,,,,,,,,,,,,16yd,001,2023_Mar_01_1812,ExactRep-v3-final,2021.2.3,59.92523723493781,
,,,,,,,,18,0,18,0,,,,,,,,,,,,,,,,,,,,,,,,,,,,,,,,,,,,,,,,,,,,,,,,,,,,,980.0571157999802,None,,,,,,,,,,,,,,,,,,,,,,,,,,,,,,,,,,,coast,26,19,sing,red,978.0580068000127,None,None,978.0580068000127,None,,,,,,,,,,,,,,,,,,,,,,,,,,,,,,16yd,001,2023_Mar_01_1812,ExactRep-v3-final,2021.2.3,59.92523723493781,
,,,,,,,,19,0,19,0,,,,,,,,,,,,,,,,,,,,,,,,,,,,,,,,,,,,,,,,,,,,,,,,,,,,,982.5759458001703,None,,,,,,,,,,,,,,,,,,,,,,,,,,,,,,,,,,,artist,70,20,silent,white,980.5605182000436,None,None,980.5605182000436,None,,,,,,,,,,,,,,,,,,,,,,,,,,,,,,16yd,001,2023_Mar_01_1812,ExactRep-v3-final,2021.2.3,59.92523723493781,
,,,,,,,,20,0,20,0,,,,,,,,,,,,,,,,,,,,,,,,,,,,,,,,,,,,,,,,,,,,,,,,,,,,,985.0953000001609,None,,,,,,,,,,,,,,,,,,,,,,,,,,,,,,,,,,,meadow,14,21,sing,red,983.0873249999713,None,None,983.0873249999713,None,,,,,,,,,,,,,,,,,,,,,,,,,,,,,,16yd,001,2023_Mar_01_1812,ExactRep-v3-final,2021.2.3,59.92523723493781,
,,,,,,,,21,0,21,0,,,,,,,,,,,,,,,,,,,,,,,,,,,,,,,,,,,,,,,,,,,,,,,,,,,,,987.5977612000424,None,,,,,,,,,,,,,,,,,,,,,,,,,,,,,,,,,,,opinion,24,22,sing,red,985.5959121000487,None,None,985.5959121000487,None,,,,,,,,,,,,,,,,,,,,,,,,,,,,,,16yd,001,2023_Mar_01_1812,ExactRep-v3-final,2021.2.3,59.92523723493781,
,,,,,,,,22,0,22,0,,,,,,,,,,,,,,,,,,,,,,,,,,,,,,,,,,,,,,,,,,,,,,,,,,,,,990.1002954000141,None,,,,,,,,,,,,,,,,,,,,,,,,,,,,,,,,,,,arm,12,23,sing,red,988.1010851999745,None,None,988.1010851999745,None,,,,,,,,,,,,,,,,,,,,,,,,,,,,,,16yd,001,2023_Mar_01_1812,ExactRep-v3-final,2021.2.3,59.92523723493781,
,,,,,,,,23,0,23,0,,,,,,,,,,,,,,,,,,,,,,,,,,,,,,,,,,,,,,,,,,,,,,,,,,,,,992.6029730001464,None,,,,,,,,,,,,,,,,,,,,,,,,,,,,,,,,,,,product,104,24,aloud,blue,990.6038355999626,None,None,990.6038355999626,None,,,,,,,,,,,,,,,,,,,,,,,,,,,,,,16yd,001,2023_Mar_01_1812,ExactRep-v3-final,2021.2.3,59.92523723493781,
,,,,,,,,24,0,24,0,,,,,,,,,,,,,,,,,,,,,,,,,,,,,,,,,,,,,,,,,,,,,,,,,,,,,995.1053543000016,None,,,,,,,,,,,,,,,,,,,,,,,,,,,,,,,,,,,plain,98,25,aloud,blue,993.1052985000424,None,None,993.1052985000424,None,,,,,,,,,,,,,,,,,,,,,,,,,,,,,,16yd,001,2023_Mar_01_1812,ExactRep-v3-final,2021.2.3,59.92523723493781,
,,,,,,,,25,0,25,0,,,,,,,,,,,,,,,,,,,,,,,,,,,,,,,,,,,,,,,,,,,,,,,,,,,,,997.607967399992,None,,,,,,,,,,,,,,,,,,,,,,,,,,,,,,,,,,,death,71,26,silent,white,995.6081811001059,None,None,995.6081811001059,None,,,,,,,,,,,,,,,,,,,,,,,,,,,,,,16yd,001,2023_Mar_01_1812,ExactRep-v3-final,2021.2.3,59.92523723493781,
,,,,,,,,26,0,26,0,,,,,,,,,,,,,,,,,,,,,,,,,,,,,,,,,,,,,,,,,,,,,,,,,,,,,1000.1104790000245,None,,,,,,,,,,,,,,,,,,,,,,,,,,,,,,,,,,,village,96,27,aloud,blue,998.1099123000167,None,None,998.1099123000167,None,,,,,,,,,,,,,,,,,,,,,,,,,,,,,,16yd,001,2023_Mar_01_1812,ExactRep-v3-final,2021.2.3,59.92523723493781,
,,,,,,,,27,0,27,0,,,,,,,,,,,,,,,,,,,,,,,,,,,,,,,,,,,,,,,,,,,,,,,,,,,,,1002.6294387001544,None,,,,,,,,,,,,,,,,,,,,,,,,,,,,,,,,,,,flood,40,28,silent,white,1000.6157515000086,None,None,1000.6157515000086,None,,,,,,,,,,,,,,,,,,,,,,,,,,,,,,16yd,001,2023_Mar_01_1812,ExactRep-v3-final,2021.2.3,59.92523723493781,
,,,,,,,,28,0,28,0,,,,,,,,,,,,,,,,,,,,,,,,,,,,,,,,,,,,,,,,,,,,,,,,,,,,,1005.1488988001365,None,,,,,,,,,,,,,,,,,,,,,,,,,,,,,,,,,,,quality,20,29,sing,red,1003.135685000103,None,None,1003.135685000103,None,,,,,,,,,,,,,,,,,,,,,,,,,,,,,,16yd,001,2023_Mar_01_1812,ExactRep-v3-final,2021.2.3,59.92523723493781,
,,,,,,,,29,0,29,0,,,,,,,,,,,,,,,,,,,,,,,,,,,,,,,,,,,,,,,,,,,,,,,,,,,,,1007.6685460000299,None,,,,,,,,,,,,,,,,,,,,,,,,,,,,,,,,,,,blossom,93,30,aloud,blue,1005.6526828000788,None,None,1005.6526828000788,None,,,,,,,,,,,,,,,,,,,,,,,,,,,,,,16yd,001,2023_Mar_01_1812,ExactRep-v3-final,2021.2.3,59.92523723493781,
,,,,,,,,30,0,30,0,,,,,,,,,,,,,,,,,,,,,,,,,,,,,,,,,,,,,,,,,,,,,,,,,,,,,1010.1704979999922,None,,,,,,,,,,,,,,,,,,,,,,,,,,,,,,,,,,,moment,6,31,sing,red,1008.1683630000334,None,None,1008.1683630000334,None,,,,,,,,,,,,,,,,,,,,,,,,,,,,,,16yd,001,2023_Mar_01_1812,ExactRep-v3-final,2021.2.3,59.92523723493781,
,,,,,,,,31,0,31,0,,,,,,,,,,,,,,,,,,,,,,,,,,,,,,,,,,,,,,,,,,,,,,,,,,,,,1012.6730645999778,None,,,,,,,,,,,,,,,,,,,,,,,,,,,,,,,,,,,teacher,38,32,sing,red,1010.6710871001706,None,None,1010.6710871001706,None,,,,,,,,,,,,,,,,,,,,,,,,,,,,,,16yd,001,2023_Mar_01_1812,ExactRep-v3-final,2021.2.3,59.92523723493781,
,,,,,,,,32,0,32,0,,,,,,,,,,,,,,,,,,,,,,,,,,,,,,,,,,,,,,,,,,,,,,,,,,,,,1015.1922090000007,None,,,,,,,,,,,,,,,,,,,,,,,,,,,,,,,,,,,love,8,33,sing,red,1013.1793538001366,None,None,1013.1793538001366,None,,,,,,,,,,,,,,,,,,,,,,,,,,,,,,16yd,001,2023_Mar_01_1812,ExactRep-v3-final,2021.2.3,59.92523723493781,
,,,,,,,,33,0,33,0,,,,,,,,,,,,,,,,,,,,,,,,,,,,,,,,,,,,,,,,,,,,,,,,,,,,,1017.6947445000987,None,,,,,,,,,,,,,,,,,,,,,,,,,,,,,,,,,,,truth,95,34,aloud,blue,1015.6927187000401,None,None,1015.6927187000401,None,,,,,,,,,,,,,,,,,,,,,,,,,,,,,,16yd,001,2023_Mar_01_1812,ExactRep-v3-final,2021.2.3,59.92523723493781,
,,,,,,,,34,0,34,0,,,,,,,,,,,,,,,,,,,,,,,,,,,,,,,,,,,,,,,,,,,,,,,,,,,,,1020.2139517001342,None,,,,,,,,,,,,,,,,,,,,,,,,,,,,,,,,,,,meeting,43,35,silent,white,1018.2110391000751,None,None,1018.2110391000751,None,,,,,,,,,,,,,,,,,,,,,,,,,,,,,,16yd,001,2023_Mar_01_1812,ExactRep-v3-final,2021.2.3,59.92523723493781,
,,,,,,,,35,0,35,0,,,,,,,,,,,,,,,,,,,,,,,,,,,,,,,,,,,,,,,,,,,,,,,,,,,,,1022.716232500039,None,,,,,,,,,,,,,,,,,,,,,,,,,,,,,,,,,,,hide,99,36,aloud,blue,1020.7143320001196,None,None,1020.7143320001196,None,,,,,,,,,,,,,,,,,,,,,,,,,,,,,,16yd,001,2023_Mar_01_1812,ExactRep-v3-final,2021.2.3,59.92523723493781,
,,,,,,,,36,0,36,0,,,,,,,,,,,,,,,,,,,,,,,,,,,,,,,,,,,,,,,,,,,,,,,,,,,,,1025.2356253000908,None,,,,,,,,,,,,,,,,,,,,,,,,,,,,,,,,,,,freedom,112,37,aloud,blue,1023.2239018001128,None,None,1023.2239018001128,None,,,,,,,,,,,,,,,,,,,,,,,,,,,,,,16yd,001,2023_Mar_01_1812,ExactRep-v3-final,2021.2.3,59.92523723493781,
,,,,,,,,37,0,37,0,,,,,,,,,,,,,,,,,,,,,,,,,,,,,,,,,,,,,,,,,,,,,,,,,,,,,1027.755279400153,None,,,,,,,,,,,,,,,,,,,,,,,,,,,,,,,,,,,square,48,38,silent,white,1025.7404664000496,None,None,1025.7404664000496,None,,,,,,,,,,,,,,,,,,,,,,,,,,,,,,16yd,001,2023_Mar_01_1812,ExactRep-v3-final,2021.2.3,59.92523723493781,
,,,,,,,,38,0,38,0,,,,,,,,,,,,,,,,,,,,,,,,,,,,,,,,,,,,,,,,,,,,,,,,,,,,,1030.2572868000716,None,,,,,,,,,,,,,,,,,,,,,,,,,,,,,,,,,,,winter,107,39,aloud,blue,1028.2557807001285,None,None,1028.2557807001285,None,,,,,,,,,,,,,,,,,,,,,,,,,,,,,,16yd,001,2023_Mar_01_1812,ExactRep-v3-final,2021.2.3,59.92523723493781,
,,,,,,,,39,0,39,0,,,,,,,,,,,,,,,,,,,,,,,,,,,,,,,,,,,,,,,,,,,,,,,,,,,,,1032.75962360017,None,,,,,,,,,,,,,,,,,,,,,,,,,,,,,,,,,,,disease,22,40,sing,red,1030.758312100079,None,None,1030.758312100079,None,,,,,,,,,,,,,,,,,,,,,,,,,,,,,,16yd,001,2023_Mar_01_1812,ExactRep-v3-final,2021.2.3,59.92523723493781,
,,,,,,,,40,0,40,0,,,,,,,,,,,,,,,,,,,,,,,,,,,,,,,,,,,,,,,,,,,,,,,,,,,,,1035.2623662000988,None,,,,,,,,,,,,,,,,,,,,,,,,,,,,,,,,,,,humour,55,41,silent,white,1033.2601234000176,None,None,1033.2601234000176,None,,,,,,,,,,,,,,,,,,,,,,,,,,,,,,16yd,001,2023_Mar_01_1812,ExactRep-v3-final,2021.2.3,59.92523723493781,
,,,,,,,,41,0,41,0,,,,,,,,,,,,,,,,,,,,,,,,,,,,,,,,,,,,,,,,,,,,,,,,,,,,,1037.7814977001399,None,,,,,,,,,,,,,,,,,,,,,,,,,,,,,,,,,,,memory,13,42,sing,red,1035.7800561999902,None,None,1035.7800561999902,None,,,,,,,,,,,,,,,,,,,,,,,,,,,,,,16yd,001,2023_Mar_01_1812,ExactRep-v3-final,2021.2.3,59.92523723493781,
,,,,,,,,42,0,42,0,,,,,,,,,,,,,,,,,,,,,,,,,,,,,,,,,,,,,,,,,,,,,,,,,,,,,1040.2840675001498,None,,,,,,,,,,,,,,,,,,,,,,,,,,,,,,,,,,,stone,79,43,sing,red,1038.2828407001216,None,None,1038.2828407001216,None,,,,,,,,,,,,,,,,,,,,,,,,,,,,,,16yd,001,2023_Mar_01_1812,ExactRep-v3-final,2021.2.3,59.92523723493781,
,,,,,,,,43,0,43,0,,,,,,,,,,,,,,,,,,,,,,,,,,,,,,,,,,,,,,,,,,,,,,,,,,,,,1042.8029765000101,None,,,,,,,,,,,,,,,,,,,,,,,,,,,,,,,,,,,water,58,44,silent,white,1040.790050700074,None,None,1040.790050700074,None,,,,,,,,,,,,,,,,,,,,,,,,,,,,,,16yd,001,2023_Mar_01_1812,ExactRep-v3-final,2021.2.3,59.92523723493781,
,,,,,,,,44,0,44,0,,,,,,,,,,,,,,,,,,,,,,,,,,,,,,,,,,,,,,,,,,,,,,,,,,,,,1045.322415200062,None,,,,,,,,,,,,,,,,,,,,,,,,,,,,,,,,,,,event,74,45,silent,white,1043.3082093000412,None,None,1043.3082093000412,None,,,,,,,,,,,,,,,,,,,,,,,,,,,,,,16yd,001,2023_Mar_01_1812,ExactRep-v3-final,2021.2.3,59.92523723493781,
,,,,,,,,45,0,45,0,,,,,,,,,,,,,,,,,,,,,,,,,,,,,,,,,,,,,,,,,,,,,,,,,,,,,1047.8420740000438,None,,,,,,,,,,,,,,,,,,,,,,,,,,,,,,,,,,,plant,64,46,silent,white,1045.8261699001305,None,None,1045.8261699001305,None,,,,,,,,,,,,,,,,,,,,,,,,,,,,,,16yd,001,2023_Mar_01_1812,ExactRep-v3-final,2021.2.3,59.92523723493781,
,,,,,,,,46,0,46,0,,,,,,,,,,,,,,,,,,,,,,,,,,,,,,,,,,,,,,,,,,,,,,,,,,,,,1050.3446530001238,None,,,,,,,,,,,,,,,,,,,,,,,,,,,,,,,,,,,forest,94,47,aloud,blue,1048.3417871999554,None,None,1048.3417871999554,None,,,,,,,,,,,,,,,,,,,,,,,,,,,,,,16yd,001,2023_Mar_01_1812,ExactRep-v3-final,2021.2.3,59.92523723493781,
,,,,,,,,47,0,47,0,,,,,,,,,,,,,,,,,,,,,,,,,,,,,,,,,,,,,,,,,,,,,,,,,,,,,1052.8466108001303,None,,,,,,,,,,,,,,,,,,,,,,,,,,,,,,,,,,,sugar,34,48,sing,red,1050.8443994000554,None,None,1050.8443994000554,None,,,,,,,,,,,,,,,,,,,,,,,,,,,,,,16yd,001,2023_Mar_01_1812,ExactRep-v3-final,2021.2.3,59.92523723493781,
,,,,,,,,48,0,48,0,,,,,,,,,,,,,,,,,,,,,,,,,,,,,,,,,,,,,,,,,,,,,,,,,,,,,1055.3490645999555,None,,,,,,,,,,,,,,,,,,,,,,,,,,,,,,,,,,,season,85,49,aloud,blue,1053.3497922001407,None,None,1053.3497922001407,None,,,,,,,,,,,,,,,,,,,,,,,,,,,,,,16yd,001,2023_Mar_01_1812,ExactRep-v3-final,2021.2.3,59.92523723493781,
,,,,,,,,49,0,49,0,,,,,,,,,,,,,,,,,,,,,,,,,,,,,,,,,,,,,,,,,,,,,,,,,,,,,1057.8514165000524,None,,,,,,,,,,,,,,,,,,,,,,,,,,,,,,,,,,,passion,5,50,sing,red,1055.8523309000302,None,None,1055.8523309000302,None,,,,,,,,,,,,,,,,,,,,,,,,,,,,,,16yd,001,2023_Mar_01_1812,ExactRep-v3-final,2021.2.3,59.92523723493781,
,,,,,,,,50,0,50,0,,,,,,,,,,,,,,,,,,,,,,,,,,,,,,,,,,,,,,,,,,,,,,,,,,,,,1060.3541049000341,None,,,,,,,,,,,,,,,,,,,,,,,,,,,,,,,,,,,corner,86,51,aloud,blue,1058.3519910001196,None,None,1058.3519910001196,None,,,,,,,,,,,,,,,,,,,,,,,,,,,,,,16yd,001,2023_Mar_01_1812,ExactRep-v3-final,2021.2.3,59.92523723493781,
,,,,,,,,51,0,51,0,,,,,,,,,,,,,,,,,,,,,,,,,,,,,,,,,,,,,,,,,,,,,,,,,,,,,1062.8732521000784,None,,,,,,,,,,,,,,,,,,,,,,,,,,,,,,,,,,,person,27,52,sing,red,1060.858927299967,None,None,1060.858927299967,None,,,,,,,,,,,,,,,,,,,,,,,,,,,,,,16yd,001,2023_Mar_01_1812,ExactRep-v3-final,2021.2.3,59.92523723493781,
,,,,,,,,52,0,52,0,,,,,,,,,,,,,,,,,,,,,,,,,,,,,,,,,,,,,,,,,,,,,,,,,,,,,1065.3754646000452,None,,,,,,,,,,,,,,,,,,,,,,,,,,,,,,,,,,,toy,73,53,silent,white,1063.3748387000524,None,None,1063.3748387000524,None,,,,,,,,,,,,,,,,,,,,,,,,,,,,,,16yd,001,2023_Mar_01_1812,ExactRep-v3-final,2021.2.3,59.92523723493781,
,,,,,,,,53,0,53,0,,,,,,,,,,,,,,,,,,,,,,,,,,,,,,,,,,,,,,,,,,,,,,,,,,,,,1067.8948030001484,None,,,,,,,,,,,,,,,,,,,,,,,,,,,,,,,,,,,queen,117,54,aloud,blue,1065.8825767999515,None,None,1065.8825767999515,None,,,,,,,,,,,,,,,,,,,,,,,,,,,,,,16yd,001,2023_Mar_01_1812,ExactRep-v3-final,2021.2.3,59.92523723493781,
,,,,,,,,54,0,54,0,,,,,,,,,,,,,,,,,,,,,,,,,,,,,,,,,,,,,,,,,,,,,,,,,,,,,1070.4140697000548,None,,,,,,,,,,,,,,,,,,,,,,,,,,,,,,,,,,,dress,17,55,sing,red,1068.4000587000046,None,None,1068.4000587000046,None,,,,,,,,,,,,,,,,,,,,,,,,,,,,,,16yd,001,2023_Mar_01_1812,ExactRep-v3-final,2021.2.3,59.92523723493781,
,,,,,,,,55,0,55,0,,,,,,,,,,,,,,,,,,,,,,,,,,,,,,,,,,,,,,,,,,,,,,,,,,,,,1072.9167233000044,None,,,,,,,,,,,,,,,,,,,,,,,,,,,,,,,,,,,woods,10,56,sing,red,1070.9153955001384,None,None,1070.9153955001384,None,,,,,,,,,,,,,,,,,,,,,,,,,,,,,,16yd,001,2023_Mar_01_1812,ExactRep-v3-final,2021.2.3,59.92523723493781,
,,,,,,,,56,0,56,0,,,,,,,,,,,,,,,,,,,,,,,,,,,,,,,,,,,,,,,,,,,,,,,,,,,,,1075.4191609001718,None,,,,,,,,,,,,,,,,,,,,,,,,,,,,,,,,,,,doll,110,57,aloud,blue,1073.4193619000725,None,None,1073.4193619000725,None,,,,,,,,,,,,,,,,,,,,,,,,,,,,,,16yd,001,2023_Mar_01_1812,ExactRep-v3-final,2021.2.3,59.92523723493781,
,,,,,,,,57,0,57,0,,,,,,,,,,,,,,,,,,,,,,,,,,,,,,,,,,,,,,,,,,,,,,,,,,,,,1077.9216219000518,None,,,,,,,,,,,,,,,,,,,,,,,,,,,,,,,,,,,window,82,58,aloud,blue,1075.9225846000481,None,None,1075.9225846000481,None,,,,,,,,,,,,,,,,,,,,,,,,,,,,,,16yd,001,2023_Mar_01_1812,ExactRep-v3-final,2021.2.3,59.92523723493781,
,,,,,,,,58,0,58,0,,,,,,,,,,,,,,,,,,,,,,,,,,,,,,,,,,,,,,,,,,,,,,,,,,,,,1080.4241629999597,None,,,,,,,,,,,,,,,,,,,,,,,,,,,,,,,,,,,market,61,59,silent,white,1078.4224442001432,None,None,1078.4224442001432,None,,,,,,,,,,,,,,,,,,,,,,,,,,,,,,16yd,001,2023_Mar_01_1812,ExactRep-v3-final,2021.2.3,59.92523723493781,
,,,,,,,,59,0,59,0,,,,,,,,,,,,,,,,,,,,,,,,,,,,,,,,,,,,,,,,,,,,,,,,,,,,,1082.92658570013,None,,,,,,,,,,,,,,,,,,,,,,,,,,,,,,,,,,,boulder,31,60,sing,red,1080.925822300138,None,None,1080.925822300138,None,,,,,,,,,,,,,,,,,,,,,,,,,,,,,,16yd,001,2023_Mar_01_1812,ExactRep-v3-final,2021.2.3,59.92523723493781,
,,,,,,,,60,0,60,0,,,,,,,,,,,,,,,,,,,,,,,,,,,,,,,,,,,,,,,,,,,,,,,,,,,,,1085.4291652999818,None,,,,,,,,,,,,,,,,,,,,,,,,,,,,,,,,,,,corn,84,61,aloud,blue,1083.4284815001301,None,None,1083.4284815001301,None,,,,,,,,,,,,,,,,,,,,,,,,,,,,,,16yd,001,2023_Mar_01_1812,ExactRep-v3-final,2021.2.3,59.92523723493781,
,,,,,,,,61,0,61,0,,,,,,,,,,,,,,,,,,,,,,,,,,,,,,,,,,,,,,,,,,,,,,,,,,,,,1087.9481145001482,None,,,,,,,,,,,,,,,,,,,,,,,,,,,,,,,,,,,bowl,91,62,aloud,blue,1085.938251900021,None,None,1085.938251900021,None,,,,,,,,,,,,,,,,,,,,,,,,,,,,,,16yd,001,2023_Mar_01_1812,ExactRep-v3-final,2021.2.3,59.92523723493781,
,,,,,,,,62,0,62,0,,,,,,,,,,,,,,,,,,,,,,,,,,,,,,,,,,,,,,,,,,,,,,,,,,,,,1090.45066089998,None,,,,,,,,,,,,,,,,,,,,,,,,,,,,,,,,,,,car,41,63,silent,white,1088.448816300137,None,None,1088.448816300137,None,,,,,,,,,,,,,,,,,,,,,,,,,,,,,,16yd,001,2023_Mar_01_1812,ExactRep-v3-final,2021.2.3,59.92523723493781,
,,,,,,,,63,0,63,0,,,,,,,,,,,,,,,,,,,,,,,,,,,,,,,,,,,,,,,,,,,,,,,,,,,,,1092.9700792999938,None,,,,,,,,,,,,,,,,,,,,,,,,,,,,,,,,,,,mercy,18,64,sing,red,1090.9610858999658,None,None,1090.9610858999658,None,,,,,,,,,,,,,,,,,,,,,,,,,,,,,,16yd,001,2023_Mar_01_1812,ExactRep-v3-final,2021.2.3,59.92523723493781,
,,,,,,,,64,0,64,0,,,,,,,,,,,,,,,,,,,,,,,,,,,,,,,,,,,,,,,,,,,,,,,,,,,,,1095.4894020999782,None,,,,,,,,,,,,,,,,,,,,,,,,,,,,,,,,,,,power,39,65,silent,white,1093.4791185001377,None,None,1093.4791185001377,None,,,,,,,,,,,,,,,,,,,,,,,,,,,,,,16yd,001,2023_Mar_01_1812,ExactRep-v3-final,2021.2.3,59.92523723493781,
,,,,,,,,65,0,65,0,,,,,,,,,,,,,,,,,,,,,,,,,,,,,,,,,,,,,,,,,,,,,,,,,,,,,1098.0084114000201,None,,,,,,,,,,,,,,,,,,,,,,,,,,,,,,,,,,,judge,69,66,silent,white,1096.006195400143,None,None,1096.006195400143,None,,,,,,,,,,,,,,,,,,,,,,,,,,,,,,16yd,001,2023_Mar_01_1812,ExactRep-v3-final,2021.2.3,59.92523723493781,
,,,,,,,,66,0,66,0,,,,,,,,,,,,,,,,,,,,,,,,,,,,,,,,,,,,,,,,,,,,,,,,,,,,,1100.5109192000236,None,,,,,,,,,,,,,,,,,,,,,,,,,,,,,,,,,,,murder,21,67,sing,red,1098.5101271001622,None,None,1098.5101271001622,None,,,,,,,,,,,,,,,,,,,,,,,,,,,,,,16yd,001,2023_Mar_01_1812,ExactRep-v3-final,2021.2.3,59.92523723493781,
,,,,,,,,67,0,67,0,,,,,,,,,,,,,,,,,,,,,,,,,,,,,,,,,,,,,,,,,,,,,,,,,,,,,1103.0133981001563,None,,,,,,,,,,,,,,,,,,,,,,,,,,,,,,,,,,,cabin,53,68,silent,white,1101.0143522000872,None,None,1101.0143522000872,None,,,,,,,,,,,,,,,,,,,,,,,,,,,,,,16yd,001,2023_Mar_01_1812,ExactRep-v3-final,2021.2.3,59.92523723493781,
,,,,,,,,68,0,68,0,,,,,,,,,,,,,,,,,,,,,,,,,,,,,,,,,,,,,,,,,,,,,,,,,,,,,1105.5325551000424,None,,,,,,,,,,,,,,,,,,,,,,,,,,,,,,,,,,,potato,101,69,aloud,blue,1103.5171958000865,None,None,1103.5171958000865,None,,,,,,,,,,,,,,,,,,,,,,,,,,,,,,16yd,001,2023_Mar_01_1812,ExactRep-v3-final,2021.2.3,59.92523723493781,
,,,,,,,,69,0,69,0,,,,,,,,,,,,,,,,,,,,,,,,,,,,,,,,,,,,,,,,,,,,,,,,,,,,,1108.0350812999532,None,,,,,,,,,,,,,,,,,,,,,,,,,,,,,,,,,,,palace,37,70,sing,red,1106.033694999991,None,None,1106.033694999991,None,,,,,,,,,,,,,,,,,,,,,,,,,,,,,,16yd,001,2023_Mar_01_1812,ExactRep-v3-final,2021.2.3,59.92523723493781,
,,,,,,,,70,0,70,0,,,,,,,,,,,,,,,,,,,,,,,,,,,,,,,,,,,,,,,,,,,,,,,,,,,,,1110.5375485999975,None,,,,,,,,,,,,,,,,,,,,,,,,,,,,,,,,,,,amount,102,71,aloud,blue,1108.5352650999557,None,None,1108.5352650999557,None,,,,,,,,,,,,,,,,,,,,,,,,,,,,,,16yd,001,2023_Mar_01_1812,ExactRep-v3-final,2021.2.3,59.92523723493781,
,,,,,,,,71,0,71,0,,,,,,,,,,,,,,,,,,,,,,,,,,,,,,,,,,,,,,,,,,,,,,,,,,,,,1113.0569027001038,None,,,,,,,,,,,,,,,,,,,,,,,,,,,,,,,,,,,vessel,72,72,silent,white,1111.0476840999909,None,None,1111.0476840999909,None,,,,,,,,,,,,,,,,,,,,,,,,,,,,,,16yd,001,2023_Mar_01_1812,ExactRep-v3-final,2021.2.3,59.92523723493781,
,,,,,,,,72,0,72,0,,,,,,,,,,,,,,,,,,,,,,,,,,,,,,,,,,,,,,,,,,,,,,,,,,,,,1115.5759431000333,None,,,,,,,,,,,,,,,,,,,,,,,,,,,,,,,,,,,health,77,73,silent,white,1113.5640535999555,None,None,1113.5640535999555,None,,,,,,,,,,,,,,,,,,,,,,,,,,,,,,16yd,001,2023_Mar_01_1812,ExactRep-v3-final,2021.2.3,59.92523723493781,
,,,,,,,,73,0,73,0,,,,,,,,,,,,,,,,,,,,,,,,,,,,,,,,,,,,,,,,,,,,,,,,,,,,,1118.0784687001724,None,,,,,,,,,,,,,,,,,,,,,,,,,,,,,,,,,,,owner,36,74,sing,red,1116.0781558000017,None,None,1116.0781558000017,None,,,,,,,,,,,,,,,,,,,,,,,,,,,,,,16yd,001,2023_Mar_01_1812,ExactRep-v3-final,2021.2.3,59.92523723493781,
,,,,,,,,74,0,74,0,,,,,,,,,,,,,,,,,,,,,,,,,,,,,,,,,,,,,,,,,,,,,,,,,,,,,1120.580781500088,None,,,,,,,,,,,,,,,,,,,,,,,,,,,,,,,,,,,present,92,75,aloud,blue,1118.5806909000967,None,None,1118.5806909000967,None,,,,,,,,,,,,,,,,,,,,,,,,,,,,,,16yd,001,2023_Mar_01_1812,ExactRep-v3-final,2021.2.3,59.92523723493781,
,,,,,,,,75,0,75,0,,,,,,,,,,,,,,,,,,,,,,,,,,,,,,,,,,,,,,,,,,,,,,,,,,,,,1123.100139199989,None,,,,,,,,,,,,,,,,,,,,,,,,,,,,,,,,,,,safety,100,76,aloud,blue,1121.0890152000356,None,None,1121.0890152000356,None,,,,,,,,,,,,,,,,,,,,,,,,,,,,,,16yd,001,2023_Mar_01_1812,ExactRep-v3-final,2021.2.3,59.92523723493781,
,,,,,,,,76,0,76,0,,,,,,,,,,,,,,,,,,,,,,,,,,,,,,,,,,,,,,,,,,,,,,,,,,,,,1125.6193369999528,None,,,,,,,,,,,,,,,,,,,,,,,,,,,,,,,,,,,answer,111,77,aloud,blue,1123.6039891000837,None,None,1123.6039891000837,None,,,,,,,,,,,,,,,,,,,,,,,,,,,,,,16yd,001,2023_Mar_01_1812,ExactRep-v3-final,2021.2.3,59.92523723493781,
,,,,,,,,77,0,77,0,,,,,,,,,,,,,,,,,,,,,,,,,,,,,,,,,,,,,,,,,,,,,,,,,,,,,1128.12197940005,None,,,,,,,,,,,,,,,,,,,,,,,,,,,,,,,,,,,chair,59,78,silent,white,1126.1209253000561,None,None,1126.1209253000561,None,,,,,,,,,,,,,,,,,,,,,,,,,,,,,,16yd,001,2023_Mar_01_1812,ExactRep-v3-final,2021.2.3,59.92523723493781,
,,,,,,,,78,0,78,0,,,,,,,,,,,,,,,,,,,,,,,,,,,,,,,,,,,,,,,,,,,,,,,,,,,,,1130.641015500063,None,,,,,,,,,,,,,,,,,,,,,,,,,,,,,,,,,,,star,52,79,silent,white,1128.6283708000556,None,None,1128.6283708000556,None,,,,,,,,,,,,,,,,,,,,,,,,,,,,,,16yd,001,2023_Mar_01_1812,ExactRep-v3-final,2021.2.3,59.92523723493781,
,,,,,,,,79,0,79,0,,,,,,,,,,,,,,,,,,,,,,,,,,,,,,,,,,,,,,,,,,,,,,,,,,,,,1133.1433500000276,None,,,,,,,,,,,,,,,,,,,,,,,,,,,,,,,,,,,butter,32,80,sing,red,1131.1413271001074,None,None,1131.1413271001074,None,,,,,,,,,,,,,,,,,,,,,,,,,,,,,,16yd,001,2023_Mar_01_1812,ExactRep-v3-final,2021.2.3,59.92523723493781,
,,,,,,,,80,0,80,0,,,,,,,,,,,,,,,,,,,,,,,,,,,,,,,,,,,,,,,,,,,,,,,,,,,,,1135.6626804000698,None,,,,,,,,,,,,,,,,,,,,,,,,,,,,,,,,,,,fact,103,81,aloud,blue,1133.6516448999755,None,None,1133.6516448999755,None,,,,,,,,,,,,,,,,,,,,,,,,,,,,,,16yd,001,2023_Mar_01_1812,ExactRep-v3-final,2021.2.3,59.92523723493781,
,,,,,,,,81,0,81,0,,,,,,,,,,,,,,,,,,,,,,,,,,,,,,,,,,,,,,,,,,,,,,,,,,,,,1138.1652548001148,None,,,,,,,,,,,,,,,,,,,,,,,,,,,,,,,,,,,river,11,82,sing,red,1136.1650062999688,None,None,1136.1650062999688,None,,,,,,,,,,,,,,,,,,,,,,,,,,,,,,16yd,001,2023_Mar_01_1812,ExactRep-v3-final,2021.2.3,59.92523723493781,
,,,,,,,,82,0,82,0,,,,,,,,,,,,,,,,,,,,,,,,,,,,,,,,,,,,,,,,,,,,,,,,,,,,,1140.6844697000924,None,,,,,,,,,,,,,,,,,,,,,,,,,,,,,,,,,,,lord,19,83,sing,red,1138.6695326000918,None,None,1138.6695326000918,None,,,,,,,,,,,,,,,,,,,,,,,,,,,,,,16yd,001,2023_Mar_01_1812,ExactRep-v3-final,2021.2.3,59.92523723493781,
,,,,,,,,83,0,83,0,,,,,,,,,,,,,,,,,,,,,,,,,,,,,,,,,,,,,,,,,,,,,,,,,,,,,1143.2034204001538,None,,,,,,,,,,,,,,,,,,,,,,,,,,,,,,,,,,,sky,0,84,sing,red,1141.189654600108,None,None,1141.189654600108,None,,,,,,,,,,,,,,,,,,,,,,,,,,,,,,16yd,001,2023_Mar_01_1812,ExactRep-v3-final,2021.2.3,59.92523723493781,
,,,,,,,,84,0,84,0,,,,,,,,,,,,,,,,,,,,,,,,,,,,,,,,,,,,,,,,,,,,,,,,,,,,,1145.722659900086,None,,,,,,,,,,,,,,,,,,,,,,,,,,,,,,,,,,,letter,106,85,aloud,blue,1143.7090001001488,None,None,1143.7090001001488,None,,,,,,,,,,,,,,,,,,,,,,,,,,,,,,16yd,001,2023_Mar_01_1812,ExactRep-v3-final,2021.2.3,59.92523723493781,
,,,,,,,,85,0,85,0,,,,,,,,,,,,,,,,,,,,,,,,,,,,,,,,,,,,,,,,,,,,,,,,,,,,,1148.2419483000413,None,,,,,,,,,,,,,,,,,,,,,,,,,,,,,,,,,,,fur,54,86,silent,white,1146.2282367001753,None,None,1146.2282367001753,None,,,,,,,,,,,,,,,,,,,,,,,,,,,,,,16yd,001,2023_Mar_01_1812,ExactRep-v3-final,2021.2.3,59.92523723493781,
,,,,,,,,86,0,86,0,,,,,,,,,,,,,,,,,,,,,,,,,,,,,,,,,,,,,,,,,,,,,,,,,,,,,1150.7445088999812,None,,,,,,,,,,,,,,,,,,,,,,,,,,,,,,,,,,,leader,116,87,aloud,blue,1148.7426144001074,None,None,1148.7426144001074,None,,,,,,,,,,,,,,,,,,,,,,,,,,,,,,16yd,001,2023_Mar_01_1812,ExactRep-v3-final,2021.2.3,59.92523723493781,
,,,,,,,,87,0,87,0,,,,,,,,,,,,,,,,,,,,,,,,,,,,,,,,,,,,,,,,,,,,,,,,,,,,,1153.2636744000483,None,,,,,,,,,,,,,,,,,,,,,,,,,,,,,,,,,,,author,113,88,aloud,blue,1151.2482354000676,None,None,1151.2482354000676,None,,,,,,,,,,,,,,,,,,,,,,,,,,,,,,16yd,001,2023_Mar_01_1812,ExactRep-v3-final,2021.2.3,59.92523723493781,
,,,,,,,,88,0,88,0,,,,,,,,,,,,,,,,,,,,,,,,,,,,,,,,,,,,,,,,,,,,,,,,,,,,,1155.7662486000918,None,,,,,,,,,,,,,,,,,,,,,,,,,,,,,,,,,,,shore,16,89,sing,red,1153.7652900000103,None,None,1153.7652900000103,None,,,,,,,,,,,,,,,,,,,,,,,,,,,,,,16yd,001,2023_Mar_01_1812,ExactRep-v3-final,2021.2.3,59.92523723493781,
,,,,,,,,89,0,89,0,,,,,,,,,,,,,,,,,,,,,,,,,,,,,,,,,,,,,,,,,,,,,,,,,,,,,1158.268792600138,None,,,,,,,,,,,,,,,,,,,,,,,,,,,,,,,,,,,length,75,90,silent,white,1156.2696358000394,None,None,1156.2696358000394,None,,,,,,,,,,,,,,,,,,,,,,,,,,,,,,16yd,001,2023_Mar_01_1812,ExactRep-v3-final,2021.2.3,59.92523723493781,
,,,,,,,,90,0,90,0,,,,,,,,,,,,,,,,,,,,,,,,,,,,,,,,,,,,,,,,,,,,,,,,,,,,,1160.7711651001591,None,,,,,,,,,,,,,,,,,,,,,,,,,,,,,,,,,,,diamond,56,91,silent,white,1158.7707782001235,None,None,1158.7707782001235,None,,,,,,,,,,,,,,,,,,,,,,,,,,,,,,16yd,001,2023_Mar_01_1812,ExactRep-v3-final,2021.2.3,59.92523723493781,
,,,,,,,,91,0,91,0,,,,,,,,,,,,,,,,,,,,,,,,,,,,,,,,,,,,,,,,,,,,,,,,,,,,,1163.2737734999973,None,,,,,,,,,,,,,,,,,,,,,,,,,,,,,,,,,,,clock,108,92,aloud,blue,1161.2742316999938,None,None,1161.2742316999938,None,,,,,,,,,,,,,,,,,,,,,,,,,,,,,,16yd,001,2023_Mar_01_1812,ExactRep-v3-final,2021.2.3,59.92523723493781,
,,,,,,,,92,0,92,0,,,,,,,,,,,,,,,,,,,,,,,,,,,,,,,,,,,,,,,,,,,,,,,,,,,,,1165.77618860011,None,,,,,,,,,,,,,,,,,,,,,,,,,,,,,,,,,,,tool,80,93,aloud,blue,1163.776322199963,None,None,1163.776322199963,None,,,,,,,,,,,,,,,,,,,,,,,,,,,,,,16yd,001,2023_Mar_01_1812,ExactRep-v3-final,2021.2.3,59.92523723493781,
,,,,,,,,93,0,93,0,,,,,,,,,,,,,,,,,,,,,,,,,,,,,,,,,,,,,,,,,,,,,,,,,,,,,1168.2784751001745,None,,,,,,,,,,,,,,,,,,,,,,,,,,,,,,,,,,,sea,76,94,silent,white,1166.2788693001494,None,None,1166.2788693001494,None,,,,,,,,,,,,,,,,,,,,,,,,,,,,,,16yd,001,2023_Mar_01_1812,ExactRep-v3-final,2021.2.3,59.92523723493781,
,,,,,,,,94,0,94,0,,,,,,,,,,,,,,,,,,,,,,,,,,,,,,,,,,,,,,,,,,,,,,,,,,,,,1170.7985442001373,None,,,,,,,,,,,,,,,,,,,,,,,,,,,,,,,,,,,flag,57,95,silent,white,1168.7863849999849,None,None,1168.7863849999849,None,,,,,,,,,,,,,,,,,,,,,,,,,,,,,,16yd,001,2023_Mar_01_1812,ExactRep-v3-final,2021.2.3,59.92523723493781,
,,,,,,,,95,0,95,0,,,,,,,,,,,,,,,,,,,,,,,,,,,,,,,,,,,,,,,,,,,,,,,,,,,,,1173.3170289001428,None,,,,,,,,,,,,,,,,,,,,,,,,,,,,,,,,,,,spirit,30,96,sing,red,1171.301661600126,None,None,1171.301661600126,None,,,,,,,,,,,,,,,,,,,,,,,,,,,,,,16yd,001,2023_Mar_01_1812,ExactRep-v3-final,2021.2.3,59.92523723493781,
,,,,,,,,96,0,96,0,,,,,,,,,,,,,,,,,,,,,,,,,,,,,,,,,,,,,,,,,,,,,,,,,,,,,1175.8362259001005,None,,,,,,,,,,,,,,,,,,,,,,,,,,,,,,,,,,,flesh,33,97,sing,red,1173.8273573999759,None,None,1173.8273573999759,None,,,,,,,,,,,,,,,,,,,,,,,,,,,,,,16yd,001,2023_Mar_01_1812,ExactRep-v3-final,2021.2.3,59.92523723493781,
,,,,,,,,97,0,97,0,,,,,,,,,,,,,,,,,,,,,,,,,,,,,,,,,,,,,,,,,,,,,,,,,,,,,1178.3387770999689,None,,,,,,,,,,,,,,,,,,,,,,,,,,,,,,,,,,,pipe,81,98,aloud,blue,1176.3375798000488,None,None,1176.3375798000488,None,,,,,,,,,,,,,,,,,,,,,,,,,,,,,,16yd,001,2023_Mar_01_1812,ExactRep-v3-final,2021.2.3,59.92523723493781,
,,,,,,,,98,0,98,0,,,,,,,,,,,,,,,,,,,,,,,,,,,,,,,,,,,,,,,,,,,,,,,,,,,,,1180.8578916001134,None,,,,,,,,,,,,,,,,,,,,,,,,,,,,,,,,,,,child,47,99,silent,white,1178.8426220000256,None,None,1178.8426220000256,None,,,,,,,,,,,,,,,,,,,,,,,,,,,,,,16yd,001,2023_Mar_01_1812,ExactRep-v3-final,2021.2.3,59.92523723493781,
,,,,,,,,99,0,99,0,,,,,,,,,,,,,,,,,,,,,,,,,,,,,,,,,,,,,,,,,,,,,,,,,,,,,1183.3603958999738,None,,,,,,,,,,,,,,,,,,,,,,,,,,,,,,,,,,,bar,50,100,silent,white,1181.3584286000114,None,None,1181.3584286000114,None,,,,,,,,,,,,,,,,,,,,,,,,,,,,,,16yd,001,2023_Mar_01_1812,ExactRep-v3-final,2021.2.3,59.92523723493781,
,,,,,,,,100,0,100,0,,,,,,,,,,,,,,,,,,,,,,,,,,,,,,,,,,,,,,,,,,,,,,,,,,,,,1185.8629189999774,None,,,,,,,,,,,,,,,,,,,,,,,,,,,,,,,,,,,apple,109,101,aloud,blue,1183.8613696000539,None,None,1183.8613696000539,None,,,,,,,,,,,,,,,,,,,,,,,,,,,,,,16yd,001,2023_Mar_01_1812,ExactRep-v3-final,2021.2.3,59.92523723493781,
,,,,,,,,101,0,101,0,,,,,,,,,,,,,,,,,,,,,,,,,,,,,,,,,,,,,,,,,,,,,,,,,,,,,1188.3654614000116,None,,,,,,,,,,,,,,,,,,,,,,,,,,,,,,,,,,,chance,28,102,sing,red,1186.3648201001342,None,None,1186.3648201001342,None,,,,,,,,,,,,,,,,,,,,,,,,,,,,,,16yd,001,2023_Mar_01_1812,ExactRep-v3-final,2021.2.3,59.92523723493781,
,,,,,,,,102,0,102,0,,,,,,,,,,,,,,,,,,,,,,,,,,,,,,,,,,,,,,,,,,,,,,,,,,,,,1190.8846553000621,None,,,,,,,,,,,,,,,,,,,,,,,,,,,,,,,,,,,blood,23,103,sing,red,1188.8700860999525,None,None,1188.8700860999525,None,,,,,,,,,,,,,,,,,,,,,,,,,,,,,,16yd,001,2023_Mar_01_1812,ExactRep-v3-final,2021.2.3,59.92523723493781,
,,,,,,,,103,0,103,0,,,,,,,,,,,,,,,,,,,,,,,,,,,,,,,,,,,,,,,,,,,,,,,,,,,,,1193.4037762000225,None,,,,,,,,,,,,,,,,,,,,,,,,,,,,,,,,,,,custom,46,104,silent,white,1191.3900373000652,None,None,1191.3900373000652,None,,,,,,,,,,,,,,,,,,,,,,,,,,,,,,16yd,001,2023_Mar_01_1812,ExactRep-v3-final,2021.2.3,59.92523723493781,
,,,,,,,,104,0,104,0,,,,,,,,,,,,,,,,,,,,,,,,,,,,,,,,,,,,,,,,,,,,,,,,,,,,,1195.9063188000582,None,,,,,,,,,,,,,,,,,,,,,,,,,,,,,,,,,,,book,25,105,sing,red,1193.9072824001778,None,None,1193.9072824001778,None,,,,,,,,,,,,,,,,,,,,,,,,,,,,,,16yd,001,2023_Mar_01_1812,ExactRep-v3-final,2021.2.3,59.92523723493781,
,,,,,,,,105,0,105,0,,,,,,,,,,,,,,,,,,,,,,,,,,,,,,,,,,,,,,,,,,,,,,,,,,,,,1198.4254213001113,None,,,,,,,,,,,,,,,,,,,,,,,,,,,,,,,,,,,grass,105,106,aloud,blue,1196.41285600001,None,None,1196.41285600001,None,,,,,,,,,,,,,,,,,,,,,,,,,,,,,,16yd,001,2023_Mar_01_1812,ExactRep-v3-final,2021.2.3,59.92523723493781,
,,,,,,,,106,0,106,0,,,,,,,,,,,,,,,,,,,,,,,,,,,,,,,,,,,,,,,,,,,,,,,,,,,,,1200.9280493999831,None,,,,,,,,,,,,,,,,,,,,,,,,,,,,,,,,,,,air,114,107,aloud,blue,1198.9268010000233,None,None,1198.9268010000233,None,,,,,,,,,,,,,,,,,,,,,,,,,,,,,,16yd,001,2023_Mar_01_1812,ExactRep-v3-final,2021.2.3,59.92523723493781,
,,,,,,,,107,0,107,0,,,,,,,,,,,,,,,,,,,,,,,,,,,,,,,,,,,,,,,,,,,,,,,,,,,,,1203.4472356999759,None,,,,,,,,,,,,,,,,,,,,,,,,,,,,,,,,,,,effort,45,108,silent,white,1201.4326822999865,None,None,1201.4326822999865,None,,,,,,,,,,,,,,,,,,,,,,,,,,,,,,16yd,001,2023_Mar_01_1812,ExactRep-v3-final,2021.2.3,59.92523723493781,
,,,,,,,,108,0,108,0,,,,,,,,,,,,,,,,,,,,,,,,,,,,,,,,,,,,,,,,,,,,,,,,,,,,,1205.9495326001197,None,,,,,,,,,,,,,,,,,,,,,,,,,,,,,,,,,,,charm,88,109,aloud,blue,1203.950576600153,None,None,1203.950576600153,None,,,,,,,,,,,,,,,,,,,,,,,,,,,,,,16yd,001,2023_Mar_01_1812,ExactRep-v3-final,2021.2.3,59.92523723493781,
,,,,,,,,109,0,109,0,,,,,,,,,,,,,,,,,,,,,,,,,,,,,,,,,,,,,,,,,,,,,,,,,,,,,1208.4521532000508,None,,,,,,,,,,,,,,,,,,,,,,,,,,,,,,,,,,,earth,49,110,silent,white,1206.4501195000485,None,None,1206.4501195000485,None,,,,,,,,,,,,,,,,,,,,,,,,,,,,,,16yd,001,2023_Mar_01_1812,ExactRep-v3-final,2021.2.3,59.92523723493781,
,,,,,,,,110,0,110,0,,,,,,,,,,,,,,,,,,,,,,,,,,,,,,,,,,,,,,,,,,,,,,,,,,,,,1210.9544878001325,None,,,,,,,,,,,,,,,,,,,,,,,,,,,,,,,,,,,victory,4,111,sing,red,1208.952460899949,None,None,1208.952460899949,None,,,,,,,,,,,,,,,,,,,,,,,,,,,,,,16yd,001,2023_Mar_01_1812,ExactRep-v3-final,2021.2.3,59.92523723493781,
,,,,,,,,111,0,111,0,,,,,,,,,,,,,,,,,,,,,,,,,,,,,,,,,,,,,,,,,,,,,,,,,,,,,1213.45721579995,None,,,,,,,,,,,,,,,,,,,,,,,,,,,,,,,,,,,ship,65,112,silent,white,1211.454971600091,None,None,1211.454971600091,None,,,,,,,,,,,,,,,,,,,,,,,,,,,,,,16yd,001,2023_Mar_01_1812,ExactRep-v3-final,2021.2.3,59.92523723493781,
,,,,,,,,112,0,112,0,,,,,,,,,,,,,,,,,,,,,,,,,,,,,,,,,,,,,,,,,,,,,,,,,,,,,1215.9763806001283,None,,,,,,,,,,,,,,,,,,,,,,,,,,,,,,,,,,,shame,89,113,aloud,blue,1213.9654506000225,None,None,1213.9654506000225,None,,,,,,,,,,,,,,,,,,,,,,,,,,,,,,16yd,001,2023_Mar_01_1812,ExactRep-v3-final,2021.2.3,59.92523723493781,
,,,,,,,,113,0,113,0,,,,,,,,,,,,,,,,,,,,,,,,,,,,,,,,,,,,,,,,,,,,,,,,,,,,,1218.4787014999893,None,,,,,,,,,,,,,,,,,,,,,,,,,,,,,,,,,,,prayer,119,114,aloud,blue,1216.476720100036,None,None,1216.476720100036,None,,,,,,,,,,,,,,,,,,,,,,,,,,,,,,16yd,001,2023_Mar_01_1812,ExactRep-v3-final,2021.2.3,59.92523723493781,
,,,,,,,,114,0,114,0,,,,,,,,,,,,,,,,,,,,,,,,,,,,,,,,,,,,,,,,,,,,,,,,,,,,,1220.998079100158,None,,,,,,,,,,,,,,,,,,,,,,,,,,,,,,,,,,,paper,15,115,sing,red,1218.9881486000959,None,None,1218.9881486000959,None,,,,,,,,,,,,,,,,,,,,,,,,,,,,,,16yd,001,2023_Mar_01_1812,ExactRep-v3-final,2021.2.3,59.92523723493781,
,,,,,,,,115,0,115,0,,,,,,,,,,,,,,,,,,,,,,,,,,,,,,,,,,,,,,,,,,,,,,,,,,,,,1223.5005698001478,None,,,,,,,,,,,,,,,,,,,,,,,,,,,,,,,,,,,storm,7,116,sing,red,1221.500615300145,None,None,1221.500615300145,None,,,,,,,,,,,,,,,,,,,,,,,,,,,,,,16yd,001,2023_Mar_01_1812,ExactRep-v3-final,2021.2.3,59.92523723493781,
,,,,,,,,116,0,116,0,,,,,,,,,,,,,,,,,,,,,,,,,,,,,,,,,,,,,,,,,,,,,,,,,,,,,1226.019723000005,None,,,,,,,,,,,,,,,,,,,,,,,,,,,,,,,,,,,dollar,66,117,silent,white,1224.0042968001217,None,None,1224.0042968001217,None,,,,,,,,,,,,,,,,,,,,,,,,,,,,,,16yd,001,2023_Mar_01_1812,ExactRep-v3-final,2021.2.3,59.92523723493781,
,,,,,,,,117,0,117,0,,,,,,,,,,,,,,,,,,,,,,,,,,,,,,,,,,,,,,,,,,,,,,,,,,,,,1228.5220989000518,None,,,,,,,,,,,,,,,,,,,,,,,,,,,,,,,,,,,circle,83,118,aloud,blue,1226.520184500143,None,None,1226.520184500143,None,,,,,,,,,,,,,,,,,,,,,,,,,,,,,,16yd,001,2023_Mar_01_1812,ExactRep-v3-final,2021.2.3,59.92523723493781,
,,,,,,,,118,0,118,0,,,,,,,,,,,,,,,,,,,,,,,,,,,,,,,,,,,,,,,,,,,,,,,,,,,,,1231.0245862000156,None,,,,,,,,,,,,,,,,,,,,,,,,,,,,,,,,,,,poet,118,119,aloud,blue,1229.02272680006,None,None,1229.02272680006,None,,,,,,,,,,,,,,,,,,,,,,,,,,,,,,16yd,001,2023_Mar_01_1812,ExactRep-v3-final,2021.2.3,59.92523723493781,
,,,,,,,,119,0,119,0,,,,,,,,,,,,,,,,,,,,,,,,,,,,,,,,,,,,,,,,,,,,,,,,,,,,,1233.5273727001622,None,,,,,,,,,,,,,,,,,,,,,,,,,,,,,,,,,,,library,63,120,silent,white,1231.5250985999592,None,None,1231.5250985999592,None,,,,,,,,,,,,,,,,,,,,,,,,,,,,,,16yd,001,2023_Mar_01_1812,ExactRep-v3-final,2021.2.3,59.92523723493781,
,,,,,,,,,,,,,,,,,,,,,,,,,,,,,,,,,,,,,,,,,,,,,,,,,,,,,,,,,,,,,,,,,,,,,,,,,,,,,,,,,,,,,,,,,,,,,,,,,,,,,,,,,,,,,,1234.029271000065,None,space,3.471172699937597,1244.005679300055,None,,,,,,,,,,,,,,,,,,,,,,,,16yd,001,2023_Mar_01_1812,ExactRep-v3-final,2021.2.3,59.92523723493781,
,,,,,,,,,,,,,,,,,,,,,,,,,,,,,,,,,,,,,,,,,,,,,,,,,,,,,,,,,,,,,,,,,,,,,,,,,,,,,,,,,,,,,,,,,,,,,,,,,,,,,,,,,,,,,,,,,,,,1247.4928572000936,None,space,36.28759959992021,1257.4693331001326,None,,,,,,,,,,,,,,,,,,16yd,001,2023_Mar_01_1812,ExactRep-v3-final,2021.2.3,59.92523723493781,
,,,,,,,,,,,,0,0,0,0,,,,,,,,,,,,,,,,,,,,,,,,,,,,,,,,,,,,,,,,,,,,,,,,,1298.3918684001546,None,,,,,,,,,,,,,,,,,,,,,,,,,,,,,,,,,,,,,,,,,,,,,,,,,,,,,,,,,lad,140,1,silent,new,white,1294.2793841999955,None,n,1294.2793841999955,None,"['n', 'return']","[2.8695205999538302, 4.069423699984327]",1294.2793841999955,None,,,16yd,001,2023_Mar_01_1812,ExactRep-v3-final,2021.2.3,59.92523723493781,
,,,,,,,,,,,,1,0,1,0,,,,,,,,,,,,,,,,,,,,,,,,,,,,,,,,,,,,,,,,,,,,,,,,,1302.8630435999949,None,,,,,,,,,,,,,,,,,,,,,,,,,,,,,,,,,,,,,,,,,,,,,,,,,,,,,,,,,queen,117,2,aloud,old,blue,1298.9091646000743,None,y,1298.9091646000743,None,"['y', 'return']","[2.9035390000790358, 3.919531499966979]",1298.9091646000743,None,,,16yd,001,2023_Mar_01_1812,ExactRep-v3-final,2021.2.3,59.92523723493781,
,,,,,,,,,,,,2,0,2,0,,,,,,,,,,,,,,,,,,,,,,,,,,,,,,,,,,,,,,,,,,,,,,,,,1306.5333944000304,None,,,,,,,,,,,,,,,,,,,,,,,,,,,,,,,,,,,,,,,,,,,,,,,,,,,,,,,,,pole,239,3,sing,new,red,1303.3723630001768,None,n,1303.3723630001768,None,"['n', 'return']","[2.1845607000868767, 3.128333300119266]",1303.3723630001768,None,,,16yd,001,2023_Mar_01_1812,ExactRep-v3-final,2021.2.3,59.92523723493781,
,,,,,,,,,,,,3,0,3,0,,,,,,,,,,,,,,,,,,,,,,,,,,,,,,,,,,,,,,,,,,,,,,,,,1309.3862378001213,None,,,,,,,,,,,,,,,,,,,,,,,,,,,,,,,,,,,,,,,,,,,,,,,,,,,,,,,,,table,230,4,aloud,new,blue,1307.0416393999476,None,y,1307.0416393999476,None,"['y', 'return']","[1.3871402000077069, 2.2991788999643177]",1307.0416393999476,None,,,16yd,001,2023_Mar_01_1812,ExactRep-v3-final,2021.2.3,59.92523723493781,
,,,,,,,,,,,,4,0,4,0,,,,,,,,,,,,,,,,,,,,,,,,,,,,,,,,,,,,,,,,,,,,,,,,,1312.6396203001495,None,,,,,,,,,,,,,,,,,,,,,,,,,,,,,,,,,,,,,,,,,,,,,,,,,,,,,,,,,cat,229,5,sing,new,red,1309.899559600046,None,n,1309.899559600046,None,"['n', 'return']","[2.049204299924895, 2.6972731000278145]",1309.899559600046,None,,,16yd,001,2023_Mar_01_1812,ExactRep-v3-final,2021.2.3,59.92523723493781,
,,,,,,,,,,,,5,0,5,0,,,,,,,,,,,,,,,,,,,,,,,,,,,,,,,,,,,,,,,,,,,,,,,,,1316.359885700047,None,,,,,,,,,,,,,,,,,,,,,,,,,,,,,,,,,,,,,,,,,,,,,,,,,,,,,,,,,passion,5,6,sing,old,red,1313.1523544001393,None,y,1313.1523544001393,None,"['y', 'return']","[2.5243861998897046, 3.1643566000275314]",1313.1523544001393,None,,,16yd,001,2023_Mar_01_1812,ExactRep-v3-final,2021.2.3,59.92523723493781,
,,,,,,,,,,,,6,0,6,0,,,,,,,,,,,,,,,,,,,,,,,,,,,,,,,,,,,,,,,,,,,,,,,,,1319.2462685001083,None,,,,,,,,,,,,,,,,,,,,,,,,,,,,,,,,,,,,,,,,,,,,,,,,,,,,,,,,,kiss,158,7,silent,new,white,1316.8717426999938,None,n,1316.8717426999938,None,"['n', 'return']","[1.757139999885112, 2.341077599907294]",1316.8717426999938,None,,,16yd,001,2023_Mar_01_1812,ExactRep-v3-final,2021.2.3,59.92523723493781,
,,,,,,,,,,,,7,0,7,0,,,,,,,,,,,,,,,,,,,,,,,,,,,,,,,,,,,,,,,,,,,,,,,,,1322.232329200022,None,,,,,,,,,,,,,,,,,,,,,,,,,,,,,,,,,,,,,,,,,,,,,,,,,,,,,,,,,cottage,153,8,silent,new,white,1319.7537559000775,None,n,1319.7537559000775,None,"['n', 'return']","[1.9472590000368655, 2.4431031001731753]",1319.7537559000775,None,,,16yd,001,2023_Mar_01_1812,ExactRep-v3-final,2021.2.3,59.92523723493781,
,,,,,,,,,,,,8,0,8,0,,,,,,,,,,,,,,,,,,,,,,,,,,,,,,,,,,,,,,,,,,,,,,,,,1324.8349808000494,None,,,,,,,,,,,,,,,,,,,,,,,,,,,,,,,,,,,,,,,,,,,,,,,,,,,,,,,,,opinion,24,9,sing,old,red,1322.7432120000012,None,y,1322.7432120000012,None,"['y', 'return']","[1.5257080998271704, 2.045598499942571]",1322.7432120000012,None,,,16yd,001,2023_Mar_01_1812,ExactRep-v3-final,2021.2.3,59.92523723493781,
,,,,,,,,,,,,9,0,9,0,,,,,,,,,,,,,,,,,,,,,,,,,,,,,,,,,,,,,,,,,,,,,,,,,1327.971443100134,None,,,,,,,,,,,,,,,,,,,,,,,,,,,,,,,,,,,,,,,,,,,,,,,,,,,,,,,,,home,194,10,aloud,new,blue,1325.34880230017,None,y,1325.34880230017,None,"['y', 'return']","[2.0879895999096334, 2.5840006000362337]",1325.34880230017,None,,,16yd,001,2023_Mar_01_1812,ExactRep-v3-final,2021.2.3,59.92523723493781,
,,,,,,,,,,,,10,0,10,0,,,,,,,,,,,,,,,,,,,,,,,,,,,,,,,,,,,,,,,,,,,,,,,,,1331.2415825000498,None,,,,,,,,,,,,,,,,,,,,,,,,,,,,,,,,,,,,,,,,,,,,,,,,,,,,,,,,,circle,83,11,aloud,old,blue,1328.4787580999546,None,y,1328.4787580999546,None,"['y', 'return']","[2.2303496000822634, 2.7261731000617146]",1328.4787580999546,None,,,16yd,001,2023_Mar_01_1812,ExactRep-v3-final,2021.2.3,59.92523723493781,
,,,,,,,,,,,,11,0,11,0,,,,,,,,,,,,,,,,,,,,,,,,,,,,,,,,,,,,,,,,,,,,,,,,,1334.1779434001073,None,,,,,,,,,,,,,,,,,,,,,,,,,,,,,,,,,,,,,,,,,,,,,,,,,,,,,,,,,money,148,12,silent,new,white,1331.7495675999671,None,n,1331.7495675999671,None,"['n', 'return']","[1.9352192000951618, 2.3832280000206083]",1331.7495675999671,None,,,16yd,001,2023_Mar_01_1812,ExactRep-v3-final,2021.2.3,59.92523723493781,
,,,,,,,,,,,,12,0,12,0,,,,,,,,,,,,,,,,,,,,,,,,,,,,,,,,,,,,,,,,,,,,,,,,,1337.1807826999575,None,,,,,,,,,,,,,,,,,,,,,,,,,,,,,,,,,,,,,,,,,,,,,,,,,,,,,,,,,flag,57,13,silent,old,white,1334.6852832001168,None,y,1334.6852832001168,None,"['y', 'return']","[1.8794945999979973, 2.447730800136924]",1334.6852832001168,None,,,16yd,001,2023_Mar_01_1812,ExactRep-v3-final,2021.2.3,59.92523723493781,
,,,,,,,,,,,,13,0,13,0,,,,,,,,,,,,,,,,,,,,,,,,,,,,,,,,,,,,,,,,,,,,,,,,,1340.1002841000445,None,,,,,,,,,,,,,,,,,,,,,,,,,,,,,,,,,,,,,,,,,,,,,,,,,,,,,,,,,bird,29,14,sing,old,red,1337.6877280999906,None,y,1337.6877280999906,None,"['y', 'return']","[1.9410500000230968, 2.3650434999726713]",1337.6877280999906,None,,,16yd,001,2023_Mar_01_1812,ExactRep-v3-final,2021.2.3,59.92523723493781,
,,,,,,,,,,,,14,0,14,0,,,,,,,,,,,,,,,,,,,,,,,,,,,,,,,,,,,,,,,,,,,,,,,,,1342.9698518000077,None,,,,,,,,,,,,,,,,,,,,,,,,,,,,,,,,,,,,,,,,,,,,,,,,,,,,,,,,,hour,169,15,sing,new,red,1340.6021692999639,None,n,1340.6021692999639,None,"['n', 'return']","[1.8746464001014829, 2.3306490001268685]",1340.6021692999639,None,,,16yd,001,2023_Mar_01_1812,ExactRep-v3-final,2021.2.3,59.92523723493781,
,,,,,,,,,,,,15,0,15,0,,,,,,,,,,,,,,,,,,,,,,,,,,,,,,,,,,,,,,,,,,,,,,,,,1351.545042200014,None,,,,,,,,,,,,,,,,,,,,,,,,,,,,,,,,,,,,,,,,,,,,,,,,,,,,,,,,,cotton,42,16,silent,old,white,1343.477164800046,None,n,1343.477164800046,None,"['n', 'return']","[4.02362270001322, 8.023635399993509]",1343.477164800046,None,,,16yd,001,2023_Mar_01_1812,ExactRep-v3-final,2021.2.3,59.92523723493781,
,,,,,,,,,,,,16,0,16,0,,,,,,,,,,,,,,,,,,,,,,,,,,,,,,,,,,,,,,,,,,,,,,,,,1353.4135970000643,None,,,,,,,,,,,,,,,,,,,,,,,,,,,,,,,,,,,,,,,,,,,,,,,,,,,,,,,,,blossom,93,17,aloud,old,blue,1352.0549973000307,None,y,1352.0549973000307,None,"['y', 'return']","[0.9097871999256313, 1.3177835000678897]",1352.0549973000307,None,,,16yd,001,2023_Mar_01_1812,ExactRep-v3-final,2021.2.3,59.92523723493781,
,,,,,,,,,,,,17,0,17,0,,,,,,,,,,,,,,,,,,,,,,,,,,,,,,,,,,,,,,,,,,,,,,,,,1355.800341800088,None,,,,,,,,,,,,,,,,,,,,,,,,,,,,,,,,,,,,,,,,,,,,,,,,,,,,,,,,,answer,111,18,aloud,old,blue,1353.9233759001363,None,y,1353.9233759001363,None,"['y', 'return']","[1.4493660998996347, 1.8414031998254359]",1353.9233759001363,None,,,16yd,001,2023_Mar_01_1812,ExactRep-v3-final,2021.2.3,59.92523723493781,
,,,,,,,,,,,,18,0,18,0,,,,,,,,,,,,,,,,,,,,,,,,,,,,,,,,,,,,,,,,,,,,,,,,,1358.2518350000028,None,,,,,,,,,,,,,,,,,,,,,,,,,,,,,,,,,,,,,,,,,,,,,,,,,,,,,,,,,square,48,19,silent,old,white,1356.3154064000119,None,n,1356.3154064000119,None,"['n', 'return']","[1.3694352000020444, 1.8974007999058813]",1356.3154064000119,None,,,16yd,001,2023_Mar_01_1812,ExactRep-v3-final,2021.2.3,59.92523723493781,
,,,,,,,,,,,,19,0,19,0,,,,,,,,,,,,,,,,,,,,,,,,,,,,,,,,,,,,,,,,,,,,,,,,,1361.1379770999774,None,,,,,,,,,,,,,,,,,,,,,,,,,,,,,,,,,,,,,,,,,,,,,,,,,,,,,,,,,earth,49,20,silent,old,white,1358.7615980999544,None,y,1358.7615980999544,None,"['y', 'return']","[1.9714800999499857, 2.339222899870947]",1358.7615980999544,None,,,16yd,001,2023_Mar_01_1812,ExactRep-v3-final,2021.2.3,59.92523723493781,
,,,,,,,,,,,,20,0,20,0,,,,,,,,,,,,,,,,,,,,,,,,,,,,,,,,,,,,,,,,,,,,,,,,,1363.7072251001373,None,,,,,,,,,,,,,,,,,,,,,,,,,,,,,,,,,,,,,,,,,,,,,,,,,,,,,,,,,corn,84,21,aloud,old,blue,1361.6497150999494,None,n,1361.6497150999494,None,"['n', 'return']","[1.491013800026849, 2.019160799914971]",1361.6497150999494,None,,,16yd,001,2023_Mar_01_1812,ExactRep-v3-final,2021.2.3,59.92523723493781,
,,,,,,,,,,,,21,0,21,0,,,,,,,,,,,,,,,,,,,,,,,,,,,,,,,,,,,,,,,,,,,,,,,,,1366.5934799001552,None,,,,,,,,,,,,,,,,,,,,,,,,,,,,,,,,,,,,,,,,,,,,,,,,,,,,,,,,,murder,21,22,sing,old,red,1364.2148729001638,None,y,1364.2148729001638,None,"['y', 'return']","[1.909930899972096, 2.333937699906528]",1364.2148729001638,None,,,16yd,001,2023_Mar_01_1812,ExactRep-v3-final,2021.2.3,59.92523723493781,
,,,,,,,,,,,,22,0,22,0,,,,,,,,,,,,,,,,,,,,,,,,,,,,,,,,,,,,,,,,,,,,,,,,,1369.1793697001413,None,,,,,,,,,,,,,,,,,,,,,,,,,,,,,,,,,,,,,,,,,,,,,,,,,,,,,,,,,world,235,23,sing,new,red,1367.1058243999723,None,y,1367.1058243999723,None,"['y', 'return']","[1.5870090001262724, 2.03505380009301]",1367.1058243999723,None,,,16yd,001,2023_Mar_01_1812,ExactRep-v3-final,2021.2.3,59.92523723493781,
,,,,,,,,,,,,23,0,23,0,,,,,,,,,,,,,,,,,,,,,,,,,,,,,,,,,,,,,,,,,,,,,,,,,1372.5160314000677,None,,,,,,,,,,,,,,,,,,,,,,,,,,,,,,,,,,,,,,,,,,,,,,,,,,,,,,,,,anger,193,24,sing,new,red,1369.6963166000787,None,y,1369.6963166000787,None,"['y', 'return']","[2.236419100081548, 2.7805300001055]",1369.6963166000787,None,,,16yd,001,2023_Mar_01_1812,ExactRep-v3-final,2021.2.3,59.92523723493781,
,,,,,,,,,,,,24,0,24,0,,,,,,,,,,,,,,,,,,,,,,,,,,,,,,,,,,,,,,,,,,,,,,,,,1375.4523008000106,None,,,,,,,,,,,,,,,,,,,,,,,,,,,,,,,,,,,,,,,,,,,,,,,,,,,,,,,,,silence,156,25,silent,new,white,1373.027598900022,None,n,1373.027598900022,None,"['n', 'return']","[1.809255300089717, 2.3932865001261234]",1373.027598900022,None,,,16yd,001,2023_Mar_01_1812,ExactRep-v3-final,2021.2.3,59.92523723493781,
,,,,,,,,,,,,25,0,25,0,,,,,,,,,,,,,,,,,,,,,,,,,,,,,,,,,,,,,,,,,,,,,,,,,1378.2552684000693,None,,,,,,,,,,,,,,,,,,,,,,,,,,,,,,,,,,,,,,,,,,,,,,,,,,,,,,,,,girl,207,26,sing,new,red,1375.9621800000314,None,n,1375.9621800000314,None,"['n', 'return']","[1.7226783002261072, 2.2505887001752853]",1375.9621800000314,None,,,16yd,001,2023_Mar_01_1812,ExactRep-v3-final,2021.2.3,59.92523723493781,
,,,,,,,,,,,,26,0,26,0,,,,,,,,,,,,,,,,,,,,,,,,,,,,,,,,,,,,,,,,,,,,,,,,,1380.9911851000506,None,,,,,,,,,,,,,,,,,,,,,,,,,,,,,,,,,,,,,,,,,,,,,,,,,,,,,,,,,stone,79,27,sing,old,red,1378.7658204999752,None,n,1378.7658204999752,None,"['n', 'return']","[1.7830068999901414, 2.1910206999164075]",1378.7658204999752,None,,,16yd,001,2023_Mar_01_1812,ExactRep-v3-final,2021.2.3,59.92523723493781,
,,,,,,,,,,,,27,0,27,0,,,,,,,,,,,,,,,,,,,,,,,,,,,,,,,,,,,,,,,,,,,,,,,,,1384.3946297999937,None,,,,,,,,,,,,,,,,,,,,,,,,,,,,,,,,,,,,,,,,,,,,,,,,,,,,,,,,,fate,128,28,silent,new,white,1381.5017403000966,None,n,1381.5017403000966,None,"['n', 'return']","[2.3032337999902666, 2.85515660000965]",1381.5017403000966,None,,,16yd,001,2023_Mar_01_1812,ExactRep-v3-final,2021.2.3,59.92523723493781,
,,,,,,,,,,,,28,0,28,0,,,,,,,,,,,,,,,,,,,,,,,,,,,,,,,,,,,,,,,,,,,,,,,,,1387.3310082999524,None,,,,,,,,,,,,,,,,,,,,,,,,,,,,,,,,,,,,,,,,,,,,,,,,,,,,,,,,,book,25,29,sing,old,red,1384.903030200163,None,y,1384.903030200163,None,"['y', 'return']","[1.8780028999317437, 2.3818663998972625]",1384.903030200163,None,,,16yd,001,2023_Mar_01_1812,ExactRep-v3-final,2021.2.3,59.92523723493781,
,,,,,,,,,,,,29,0,29,0,,,,,,,,,,,,,,,,,,,,,,,,,,,,,,,,,,,,,,,,,,,,,,,,,1390.1671723001637,None,,,,,,,,,,,,,,,,,,,,,,,,,,,,,,,,,,,,,,,,,,,,,,,,,,,,,,,,,doll,110,30,aloud,old,blue,1387.836090900004,None,y,1387.836090900004,None,"['y', 'return']","[1.8487748999614269, 2.2967026999685913]",1387.836090900004,None,,,16yd,001,2023_Mar_01_1812,ExactRep-v3-final,2021.2.3,59.92523723493781,
,,,,,,,,,,,,30,0,30,0,,,,,,,,,,,,,,,,,,,,,,,,,,,,,,,,,,,,,,,,,,,,,,,,,1393.4447654001415,None,,,,,,,,,,,,,,,,,,,,,,,,,,,,,,,,,,,,,,,,,,,,,,,,,,,,,,,,,length,75,31,silent,old,white,1390.678886000067,None,n,1390.678886000067,None,"['n', 'return']","[2.1261585000902414, 2.7179847001098096]",1390.678886000067,None,,,16yd,001,2023_Mar_01_1812,ExactRep-v3-final,2021.2.3,59.92523723493781,
,,,,,,,,,,,,31,0,31,0,,,,,,,,,,,,,,,,,,,,,,,,,,,,,,,,,,,,,,,,,,,,,,,,,1396.0228603000287,None,,,,,,,,,,,,,,,,,,,,,,,,,,,,,,,,,,,,,,,,,,,,,,,,,,,,,,,,,heaven,192,32,aloud,new,blue,1393.964586300077,None,y,1393.964586300077,None,"['y', 'return']","[1.4724461999721825, 2.0162518001161516]",1393.964586300077,None,,,16yd,001,2023_Mar_01_1812,ExactRep-v3-final,2021.2.3,59.92523723493781,
,,,,,,,,,,,,32,0,32,0,,,,,,,,,,,,,,,,,,,,,,,,,,,,,,,,,,,,,,,,,,,,,,,,,1398.208382199984,None,,,,,,,,,,,,,,,,,,,,,,,,,,,,,,,,,,,,,,,,,,,,,,,,,,,,,,,,,army,3,33,sing,old,red,1396.5319783000741,None,y,1396.5319783000741,None,"['y', 'return']","[1.1369799999520183, 1.6410091000143439]",1396.5319783000741,None,,,16yd,001,2023_Mar_01_1812,ExactRep-v3-final,2021.2.3,59.92523723493781,
,,,,,,,,,,,,33,0,33,0,,,,,,,,,,,,,,,,,,,,,,,,,,,,,,,,,,,,,,,,,,,,,,,,,1401.4446354999673,None,,,,,,,,,,,,,,,,,,,,,,,,,,,,,,,,,,,,,,,,,,,,,,,,,,,,,,,,,wife,139,34,silent,new,white,1398.7182338000275,None,n,1398.7182338000275,None,"['n', 'return']","[2.1425938000902534, 2.6706374001223594]",1398.7182338000275,None,,,16yd,001,2023_Mar_01_1812,ExactRep-v3-final,2021.2.3,59.92523723493781,
,,,,,,,,,,,,34,0,34,0,,,,,,,,,,,,,,,,,,,,,,,,,,,,,,,,,,,,,,,,,,,,,,,,,1407.7681150001008,None,,,,,,,,,,,,,,,,,,,,,,,,,,,,,,,,,,,,,,,,,,,,,,,,,,,,,,,,,sea,76,35,silent,old,white,1401.9563993001357,None,y,1401.9563993001357,None,"['n', 'y', 'y', 'backspace', 'y', 'return']","[2.408906500088051, 2.8965497999452055, 3.360439700074494, 4.56847000005655, 5.144821499940008, 5.768469900125638]",1401.9563993001357,None,,,16yd,001,2023_Mar_01_1812,ExactRep-v3-final,2021.2.3,59.92523723493781,
,,,,,,,,,,,,35,0,35,0,,,,,,,,,,,,,,,,,,,,,,,,,,,,,,,,,,,,,,,,,,,,,,,,,1410.6374868000858,None,,,,,,,,,,,,,,,,,,,,,,,,,,,,,,,,,,,,,,,,,,,,,,,,,,,,,,,,,lip,206,36,aloud,new,blue,1408.2755399001762,None,n,1408.2755399001762,None,"['n', 'return']","[1.905324400169775, 2.3293018001131713]",1408.2755399001762,None,,,16yd,001,2023_Mar_01_1812,ExactRep-v3-final,2021.2.3,59.92523723493781,
,,,,,,,,,,,,36,0,36,0,,,,,,,,,,,,,,,,,,,,,,,,,,,,,,,,,,,,,,,,,,,,,,,,,1413.0232155001722,None,,,,,,,,,,,,,,,,,,,,,,,,,,,,,,,,,,,,,,,,,,,,,,,,,,,,,,,,,event,74,37,silent,old,white,1411.1458217999898,None,n,1411.1458217999898,None,"['n', 'return']","[1.4829873000271618, 1.8351830998435616]",1411.1458217999898,None,,,16yd,001,2023_Mar_01_1812,ExactRep-v3-final,2021.2.3,59.92523723493781,
,,,,,,,,,,,,37,0,37,0,,,,,,,,,,,,,,,,,,,,,,,,,,,,,,,,,,,,,,,,,,,,,,,,,1416.093106900109,None,,,,,,,,,,,,,,,,,,,,,,,,,,,,,,,,,,,,,,,,,,,,,,,,,,,,,,,,,engine,9,38,sing,old,red,1413.5305665000342,None,y,1413.5305665000342,None,"['y', 'return']","[2.090313000138849, 2.522334499983117]",1413.5305665000342,None,,,16yd,001,2023_Mar_01_1812,ExactRep-v3-final,2021.2.3,59.92523723493781,
,,,,,,,,,,,,38,0,38,0,,,,,,,,,,,,,,,,,,,,,,,,,,,,,,,,,,,,,,,,,,,,,,,,,1418.8957243999466,None,,,,,,,,,,,,,,,,,,,,,,,,,,,,,,,,,,,,,,,,,,,,,,,,,,,,,,,,,wheat,190,39,aloud,new,blue,1416.6029558000155,None,n,1416.6029558000155,None,"['n', 'return']","[1.8020386998541653, 2.257942099822685]",1416.6029558000155,None,,,16yd,001,2023_Mar_01_1812,ExactRep-v3-final,2021.2.3,59.92523723493781,
,,,,,,,,,,,,39,0,39,0,,,,,,,,,,,,,,,,,,,,,,,,,,,,,,,,,,,,,,,,,,,,,,,,,1421.8486709001008,None,,,,,,,,,,,,,,,,,,,,,,,,,,,,,,,,,,,,,,,,,,,,,,,,,,,,,,,,,humour,55,40,silent,old,white,1419.405808800133,None,y,1419.405808800133,None,"['y', 'return']","[1.9671835000626743, 2.407137299887836]",1419.405808800133,None,,,16yd,001,2023_Mar_01_1812,ExactRep-v3-final,2021.2.3,59.92523723493781,
,,,,,,,,,,,,40,0,40,0,,,,,,,,,,,,,,,,,,,,,,,,,,,,,,,,,,,,,,,,,,,,,,,,,1424.2010433000978,None,,,,,,,,,,,,,,,,,,,,,,,,,,,,,,,,,,,,,,,,,,,,,,,,,,,,,,,,,rock,213,41,sing,new,red,1422.3594003999606,None,n,1422.3594003999606,None,"['n', 'return']","[1.4374788999557495, 1.8055372999515384]",1422.3594003999606,None,,,16yd,001,2023_Mar_01_1812,ExactRep-v3-final,2021.2.3,59.92523723493781,
,,,,,,,,,,,,41,0,41,0,,,,,,,,,,,,,,,,,,,,,,,,,,,,,,,,,,,,,,,,,,,,,,,,,1429.0894836999942,None,,,,,,,,,,,,,,,,,,,,,,,,,,,,,,,,,,,,,,,,,,,,,,,,,,,,,,,,,owner,36,42,sing,old,red,1424.709629200166,None,n,1424.709629200166,None,"['n', 'return']","[3.967332100030035, 4.343262600013986]",1424.709629200166,None,,,16yd,001,2023_Mar_01_1812,ExactRep-v3-final,2021.2.3,59.92523723493781,
,,,,,,,,,,,,42,0,42,0,,,,,,,,,,,,,,,,,,,,,,,,,,,,,,,,,,,,,,,,,,,,,,,,,1432.6594390000682,None,,,,,,,,,,,,,,,,,,,,,,,,,,,,,,,,,,,,,,,,,,,,,,,,,,,,,,,,,friend,211,43,sing,new,red,1429.5916887000203,None,y,1429.5916887000203,None,"['y', 'return']","[2.4932291000150144, 3.021229299949482]",1429.5916887000203,None,,,16yd,001,2023_Mar_01_1812,ExactRep-v3-final,2021.2.3,59.92523723493781,
,,,,,,,,,,,,43,0,43,0,,,,,,,,,,,,,,,,,,,,,,,,,,,,,,,,,,,,,,,,,,,,,,,,,1434.6450020000339,None,,,,,,,,,,,,,,,,,,,,,,,,,,,,,,,,,,,,,,,,,,,,,,,,,,,,,,,,,charm,88,44,aloud,old,blue,1433.1667420000304,None,y,1433.1667420000304,None,"['y', 'return']","[1.0940584000200033, 1.438202500110492]",1433.1667420000304,None,,,16yd,001,2023_Mar_01_1812,ExactRep-v3-final,2021.2.3,59.92523723493781,
,,,,,,,,,,,,44,0,44,0,,,,,,,,,,,,,,,,,,,,,,,,,,,,,,,,,,,,,,,,,,,,,,,,,1437.6646788001526,None,,,,,,,,,,,,,,,,,,,,,,,,,,,,,,,,,,,,,,,,,,,,,,,,,,,,,,,,,virtue,172,45,aloud,new,blue,1435.1521599001717,None,n,1435.1521599001717,None,"['n', 'return']","[2.004949500085786, 2.468719399999827]",1435.1521599001717,None,,,16yd,001,2023_Mar_01_1812,ExactRep-v3-final,2021.2.3,59.92523723493781,
,,,,,,,,,,,,45,0,45,0,,,,,,,,,,,,,,,,,,,,,,,,,,,,,,,,,,,,,,,,,,,,,,,,,1440.4173008000944,None,,,,,,,,,,,,,,,,,,,,,,,,,,,,,,,,,,,,,,,,,,,,,,,,,,,,,,,,,toy,73,46,silent,old,white,1438.1751974001527,None,n,1438.1751974001527,None,"['n', 'return']","[1.6779131998773664, 2.2057328999508172]",1438.1751974001527,None,,,16yd,001,2023_Mar_01_1812,ExactRep-v3-final,2021.2.3,59.92523723493781,
,,,,,,,,,,,,46,0,46,0,,,,,,,,,,,,,,,,,,,,,,,,,,,,,,,,,,,,,,,,,,,,,,,,,1443.0865645001177,None,,,,,,,,,,,,,,,,,,,,,,,,,,,,,,,,,,,,,,,,,,,,,,,,,,,,,,,,,tree,1,47,sing,old,red,1440.9246380999684,None,y,1440.9246380999684,None,"['y', 'return']","[1.640295600052923, 2.1202980000525713]",1440.9246380999684,None,,,16yd,001,2023_Mar_01_1812,ExactRep-v3-final,2021.2.3,59.92523723493781,
,,,,,,,,,,,,47,0,47,0,,,,,,,,,,,,,,,,,,,,,,,,,,,,,,,,,,,,,,,,,,,,,,,,,1446.5400130001362,None,,,,,,,,,,,,,,,,,,,,,,,,,,,,,,,,,,,,,,,,,,,,,,,,,,,,,,,,,meadow,14,48,sing,old,red,1443.5966007001698,None,n,1443.5966007001698,None,"['n', 'return']","[2.296578200068325, 2.8963570999912918]",1443.5966007001698,None,,,16yd,001,2023_Mar_01_1812,ExactRep-v3-final,2021.2.3,59.92523723493781,
,,,,,,,,,,,,48,0,48,0,,,,,,,,,,,,,,,,,,,,,,,,,,,,,,,,,,,,,,,,,,,,,,,,,1450.1436690001283,None,,,,,,,,,,,,,,,,,,,,,,,,,,,,,,,,,,,,,,,,,,,,,,,,,,,,,,,,,moment,6,49,sing,old,red,1447.0470595001243,None,y,1447.0470595001243,None,"['y', 'return']","[2.4218230999540538, 3.0618706999812275]",1447.0470595001243,None,,,16yd,001,2023_Mar_01_1812,ExactRep-v3-final,2021.2.3,59.92523723493781,
,,,,,,,,,,,,49,0,49,0,,,,,,,,,,,,,,,,,,,,,,,,,,,,,,,,,,,,,,,,,,,,,,,,,1453.766416599974,None,,,,,,,,,,,,,,,,,,,,,,,,,,,,,,,,,,,,,,,,,,,,,,,,,,,,,,,,,car,41,50,silent,old,white,1450.6469358000904,None,n,1450.6469358000904,None,"['n', 'return']","[2.3262104999739677, 3.0698549000080675]",1450.6469358000904,None,,,16yd,001,2023_Mar_01_1812,ExactRep-v3-final,2021.2.3,59.92523723493781,
,,,,,,,,,,,,50,0,50,0,,,,,,,,,,,,,,,,,,,,,,,,,,,,,,,,,,,,,,,,,,,,,,,,,1456.8004982999992,None,,,,,,,,,,,,,,,,,,,,,,,,,,,,,,,,,,,,,,,,,,,,,,,,,,,,,,,,,prison,238,51,aloud,new,blue,1454.2985867001116,None,y,1454.2985867001116,None,"['y', 'return']","[2.058433400001377, 2.46647739992477]",1454.2985867001116,None,,,16yd,001,2023_Mar_01_1812,ExactRep-v3-final,2021.2.3,59.92523723493781,
,,,,,,,,,,,,51,0,51,0,,,,,,,,,,,,,,,,,,,,,,,,,,,,,,,,,,,,,,,,,,,,,,,,,1459.4196101000998,None,,,,,,,,,,,,,,,,,,,,,,,,,,,,,,,,,,,,,,,,,,,,,,,,,,,,,,,,,soil,197,52,sing,new,red,1457.3094347000588,None,n,1457.3094347000588,None,"['n', 'return']","[1.663468400016427, 2.0715238000266254]",1457.3094347000588,None,,,16yd,001,2023_Mar_01_1812,ExactRep-v3-final,2021.2.3,59.92523723493781,
,,,,,,,,,,,,52,0,52,0,,,,,,,,,,,,,,,,,,,,,,,,,,,,,,,,,,,,,,,,,,,,,,,,,1462.055599699961,None,,,,,,,,,,,,,,,,,,,,,,,,,,,,,,,,,,,,,,,,,,,,,,,,,,,,,,,,,memory,13,53,sing,old,red,1459.9265052999835,None,y,1459.9265052999835,None,"['y', 'return']","[1.7183907001744956, 2.0863948001060635]",1459.9265052999835,None,,,16yd,001,2023_Mar_01_1812,ExactRep-v3-final,2021.2.3,59.92523723493781,
,,,,,,,,,,,,53,0,53,0,,,,,,,,,,,,,,,,,,,,,,,,,,,,,,,,,,,,,,,,,,,,,,,,,1464.7750041000545,None,,,,,,,,,,,,,,,,,,,,,,,,,,,,,,,,,,,,,,,,,,,,,,,,,,,,,,,,,officer,198,54,aloud,new,blue,1462.56657549995,None,n,1462.56657549995,None,"['n', 'return']","[1.7265759001020342, 2.1743831001222134]",1462.56657549995,None,,,16yd,001,2023_Mar_01_1812,ExactRep-v3-final,2021.2.3,59.92523723493781,
,,,,,,,,,,,,54,0,54,0,,,,,,,,,,,,,,,,,,,,,,,,,,,,,,,,,,,,,,,,,,,,,,,,,1468.1117744001094,None,,,,,,,,,,,,,,,,,,,,,,,,,,,,,,,,,,,,,,,,,,,,,,,,,,,,,,,,,history,214,55,aloud,new,blue,1465.2814708000515,None,y,1465.2814708000515,None,"['y', 'return']","[2.451495199929923, 2.7875866999384016]",1465.2814708000515,None,,,16yd,001,2023_Mar_01_1812,ExactRep-v3-final,2021.2.3,59.92523723493781,
,,,,,,,,,,,,55,0,55,0,,,,,,,,,,,,,,,,,,,,,,,,,,,,,,,,,,,,,,,,,,,,,,,,,1471.1813733000308,None,,,,,,,,,,,,,,,,,,,,,,,,,,,,,,,,,,,,,,,,,,,,,,,,,,,,,,,,,king,191,56,sing,new,red,1468.6161637001205,None,n,1468.6161637001205,None,"['n', 'return']","[2.1409901999868453, 2.5328142000362277]",1468.6161637001205,None,,,16yd,001,2023_Mar_01_1812,ExactRep-v3-final,2021.2.3,59.92523723493781,
,,,,,,,,,,,,56,0,56,0,,,,,,,,,,,,,,,,,,,,,,,,,,,,,,,,,,,,,,,,,,,,,,,,,1474.184552700026,None,,,,,,,,,,,,,,,,,,,,,,,,,,,,,,,,,,,,,,,,,,,,,,,,,,,,,,,,,boulder,31,57,sing,old,red,1471.69644650002,None,y,1471.69644650002,None,"['y', 'return']","[2.0127274999395013, 2.444516200106591]",1471.69644650002,None,,,16yd,001,2023_Mar_01_1812,ExactRep-v3-final,2021.2.3,59.92523723493781,
,,,,,,,,,,,,57,0,57,0,,,,,,,,,,,,,,,,,,,,,,,,,,,,,,,,,,,,,,,,,,,,,,,,,1478.155116100097,None,,,,,,,,,,,,,,,,,,,,,,,,,,,,,,,,,,,,,,,,,,,,,,,,,,,,,,,,,temple,129,58,silent,new,white,1474.694238099968,None,n,1474.694238099968,None,"['n', 'return']","[2.9267443001735955, 3.4147621002048254]",1474.694238099968,None,,,16yd,001,2023_Mar_01_1812,ExactRep-v3-final,2021.2.3,59.92523723493781,
,,,,,,,,,,,,58,0,58,0,,,,,,,,,,,,,,,,,,,,,,,,,,,,,,,,,,,,,,,,,,,,,,,,,1480.3404826000333,None,,,,,,,,,,,,,,,,,,,,,,,,,,,,,,,,,,,,,,,,,,,,,,,,,,,,,,,,,avenue,90,59,aloud,old,blue,1478.6591105000116,None,y,1478.6591105000116,None,"['y', 'return']","[1.3379750000312924, 1.6338579999282956]",1478.6591105000116,None,,,16yd,001,2023_Mar_01_1812,ExactRep-v3-final,2021.2.3,59.92523723493781,
,,,,,,,,,,,,59,0,59,0,,,,,,,,,,,,,,,,,,,,,,,,,,,,,,,,,,,,,,,,,,,,,,,,,1482.5093227000907,None,,,,,,,,,,,,,,,,,,,,,,,,,,,,,,,,,,,,,,,,,,,,,,,,,,,,,,,,,coast,26,60,sing,old,red,1480.8502830001526,None,y,1480.8502830001526,None,"['y', 'return']","[1.2506876001134515, 1.6186993001028895]",1480.8502830001526,None,,,16yd,001,2023_Mar_01_1812,ExactRep-v3-final,2021.2.3,59.92523723493781,
,,,,,,,,,,,,60,0,60,0,,,,,,,,,,,,,,,,,,,,,,,,,,,,,,,,,,,,,,,,,,,,,,,,,1485.6624456001446,None,,,,,,,,,,,,,,,,,,,,,,,,,,,,,,,,,,,,,,,,,,,,,,,,,,,,,,,,,effort,45,61,silent,old,white,1483.0252076000907,None,n,1483.0252076000907,None,"['n', 'return']","[2.123846000060439, 2.6036646000575274]",1483.0252076000907,None,,,16yd,001,2023_Mar_01_1812,ExactRep-v3-final,2021.2.3,59.92523723493781,
,,,,,,,,,,,,61,0,61,0,,,,,,,,,,,,,,,,,,,,,,,,,,,,,,,,,,,,,,,,,,,,,,,,,1488.4986926000565,None,,,,,,,,,,,,,,,,,,,,,,,,,,,,,,,,,,,,,,,,,,,,,,,,,,,,,,,,,vessel,72,62,silent,old,white,1486.1743367000017,None,n,1486.1743367000017,None,"['n', 'return']","[1.9665745999664068, 2.2786669998895377]",1486.1743367000017,None,,,16yd,001,2023_Mar_01_1812,ExactRep-v3-final,2021.2.3,59.92523723493781,
,,,,,,,,,,,,62,0,62,0,,,,,,,,,,,,,,,,,,,,,,,,,,,,,,,,,,,,,,,,,,,,,,,,,1491.5686111999676,None,,,,,,,,,,,,,,,,,,,,,,,,,,,,,,,,,,,,,,,,,,,,,,,,,,,,,,,,,fact,103,63,aloud,old,blue,1489.0081996000372,None,n,1489.0081996000372,None,"['n', 'return']","[2.172727399971336, 2.516704099951312]",1489.0081996000372,None,,,16yd,001,2023_Mar_01_1812,ExactRep-v3-final,2021.2.3,59.92523723493781,
,,,,,,,,,,,,63,0,63,0,,,,,,,,,,,,,,,,,,,,,,,,,,,,,,,,,,,,,,,,,,,,,,,,,1494.0208313001785,None,,,,,,,,,,,,,,,,,,,,,,,,,,,,,,,,,,,,,,,,,,,,,,,,,,,,,,,,,bar,50,64,silent,old,white,1492.0806911999825,None,y,1492.0806911999825,None,"['y', 'return']","[1.4442302999086678, 1.8922764998860657]",1492.0806911999825,None,,,16yd,001,2023_Mar_01_1812,ExactRep-v3-final,2021.2.3,59.92523723493781,
,,,,,,,,,,,,64,0,64,0,,,,,,,,,,,,,,,,,,,,,,,,,,,,,,,,,,,,,,,,,,,,,,,,,1496.723577399971,None,,,,,,,,,,,,,,,,,,,,,,,,,,,,,,,,,,,,,,,,,,,,,,,,,,,,,,,,,duty,203,65,sing,new,red,1494.527602400165,None,n,1494.527602400165,None,"['n', 'return']","[1.253509899834171, 2.157414399785921]",1494.527602400165,None,,,16yd,001,2023_Mar_01_1812,ExactRep-v3-final,2021.2.3,59.92523723493781,
,,,,,,,,,,,,65,0,65,0,,,,,,,,,,,,,,,,,,,,,,,,,,,,,,,,,,,,,,,,,,,,,,,,,1499.4929843000136,None,,,,,,,,,,,,,,,,,,,,,,,,,,,,,,,,,,,,,,,,,,,,,,,,,,,,,,,,,leader,116,66,aloud,old,blue,1497.2275998000987,None,y,1497.2275998000987,None,"['y', 'return']","[1.4655897999182343, 2.225280299782753]",1497.2275998000987,None,,,16yd,001,2023_Mar_01_1812,ExactRep-v3-final,2021.2.3,59.92523723493781,
,,,,,,,,,,,,66,0,66,0,,,,,,,,,,,,,,,,,,,,,,,,,,,,,,,,,,,,,,,,,,,,,,,,,1501.6118805999868,None,,,,,,,,,,,,,,,,,,,,,,,,,,,,,,,,,,,,,,,,,,,,,,,,,,,,,,,,,green,51,67,silent,old,white,1499.9970742000733,None,n,1499.9970742000733,None,"['n', 'return']","[1.1359974998049438, 1.567898300010711]",1499.9970742000733,None,,,16yd,001,2023_Mar_01_1812,ExactRep-v3-final,2021.2.3,59.92523723493781,
,,,,,,,,,,,,67,0,67,0,,,,,,,,,,,,,,,,,,,,,,,,,,,,,,,,,,,,,,,,,,,,,,,,,1504.1142643999774,None,,,,,,,,,,,,,,,,,,,,,,,,,,,,,,,,,,,,,,,,,,,,,,,,,,,,,,,,,spirit,30,68,sing,old,red,1502.132541500032,None,y,1502.132541500032,None,"['y', 'return']","[1.5284204999916255, 1.9444771001581103]",1502.132541500032,None,,,16yd,001,2023_Mar_01_1812,ExactRep-v3-final,2021.2.3,59.92523723493781,
,,,,,,,,,,,,68,0,68,0,,,,,,,,,,,,,,,,,,,,,,,,,,,,,,,,,,,,,,,,,,,,,,,,,1506.2499917000532,None,,,,,,,,,,,,,,,,,,,,,,,,,,,,,,,,,,,,,,,,,,,,,,,,,,,,,,,,,river,11,69,sing,old,red,1504.6249973999802,None,y,1504.6249973999802,None,"['y', 'return']","[1.1638481998816133, 1.587959700031206]",1504.6249973999802,None,,,16yd,001,2023_Mar_01_1812,ExactRep-v3-final,2021.2.3,59.92523723493781,
,,,,,,,,,,,,69,0,69,0,,,,,,,,,,,,,,,,,,,,,,,,,,,,,,,,,,,,,,,,,,,,,,,,,1509.0526334999595,None,,,,,,,,,,,,,,,,,,,,,,,,,,,,,,,,,,,,,,,,,,,,,,,,,,,,,,,,,life,2,70,sing,old,red,1506.758655200014,None,n,1506.758655200014,None,"['n', 'return']","[1.766416999977082, 2.24638310004957]",1506.758655200014,None,,,16yd,001,2023_Mar_01_1812,ExactRep-v3-final,2021.2.3,59.92523723493781,
,,,,,,,,,,,,70,0,70,0,,,,,,,,,,,,,,,,,,,,,,,,,,,,,,,,,,,,,,,,,,,,,,,,,1511.6739209999796,None,,,,,,,,,,,,,,,,,,,,,,,,,,,,,,,,,,,,,,,,,,,,,,,,,,,,,,,,,nail,130,71,silent,new,white,1509.5617404000368,None,n,1509.5617404000368,None,"['n', 'return']","[1.5873376000672579, 2.0752858000341803]",1509.5617404000368,None,,,16yd,001,2023_Mar_01_1812,ExactRep-v3-final,2021.2.3,59.92523723493781,
,,,,,,,,,,,,71,0,71,0,,,,,,,,,,,,,,,,,,,,,,,,,,,,,,,,,,,,,,,,,,,,,,,,,1514.1451972001232,None,,,,,,,,,,,,,,,,,,,,,,,,,,,,,,,,,,,,,,,,,,,,,,,,,,,,,,,,,sugar,34,72,sing,old,red,1512.19071980007,None,n,1512.19071980007,None,"['n', 'return']","[1.5103019000962377, 1.9021114001516253]",1512.19071980007,None,,,16yd,001,2023_Mar_01_1812,ExactRep-v3-final,2021.2.3,59.92523723493781,
,,,,,,,,,,,,72,0,72,0,,,,,,,,,,,,,,,,,,,,,,,,,,,,,,,,,,,,,,,,,,,,,,,,,1516.9773234999739,None,,,,,,,,,,,,,,,,,,,,,,,,,,,,,,,,,,,,,,,,,,,,,,,,,,,,,,,,,ship,65,73,silent,old,white,1514.661682000151,None,n,1514.661682000151,None,"['n', 'return']","[1.8473182001616806, 2.2713011000305414]",1514.661682000151,None,,,16yd,001,2023_Mar_01_1812,ExactRep-v3-final,2021.2.3,59.92523723493781,
,,,,,,,,,,,,73,0,73,0,,,,,,,,,,,,,,,,,,,,,,,,,,,,,,,,,,,,,,,,,,,,,,,,,1520.130385800032,None,,,,,,,,,,,,,,,,,,,,,,,,,,,,,,,,,,,,,,,,,,,,,,,,,,,,,,,,,month,157,74,silent,new,white,1517.4934129000176,None,n,1517.4934129000176,None,"['n', 'return']","[2.0956236999481916, 2.591591800097376]",1517.4934129000176,None,,,16yd,001,2023_Mar_01_1812,ExactRep-v3-final,2021.2.3,59.92523723493781,
,,,,,,,,,,,,74,0,74,0,,,,,,,,,,,,,,,,,,,,,,,,,,,,,,,,,,,,,,,,,,,,,,,,,1523.5504236000124,None,,,,,,,,,,,,,,,,,,,,,,,,,,,,,,,,,,,,,,,,,,,,,,,,,,,,,,,,,series,121,75,silent,new,white,1520.6390786999837,None,n,1520.6390786999837,None,"['n', 'return']","[1.7741817999631166, 2.8779327000956982]",1520.6390786999837,None,,,16yd,001,2023_Mar_01_1812,ExactRep-v3-final,2021.2.3,59.92523723493781,
,,,,,,,,,,,,75,0,75,0,,,,,,,,,,,,,,,,,,,,,,,,,,,,,,,,,,,,,,,,,,,,,,,,,1526.0864667999558,None,,,,,,,,,,,,,,,,,,,,,,,,,,,,,,,,,,,,,,,,,,,,,,,,,,,,,,,,,breast,122,76,silent,new,white,1524.057353100041,None,n,1524.057353100041,None,"['n', 'return']","[1.2436664998531342, 1.9876550999470055]",1524.057353100041,None,,,16yd,001,2023_Mar_01_1812,ExactRep-v3-final,2021.2.3,59.92523723493781,
,,,,,,,,,,,,76,0,76,0,,,,,,,,,,,,,,,,,,,,,,,,,,,,,,,,,,,,,,,,,,,,,,,,,1529.9567683001515,None,,,,,,,,,,,,,,,,,,,,,,,,,,,,,,,,,,,,,,,,,,,,,,,,,,,,,,,,,form,146,77,silent,new,white,1526.596834300086,None,n,1526.596834300086,None,"['n', 'return']","[2.2482618000358343, 3.31227370002307]",1526.596834300086,None,,,16yd,001,2023_Mar_01_1812,ExactRep-v3-final,2021.2.3,59.92523723493781,
,,,,,,,,,,,,77,0,77,0,,,,,,,,,,,,,,,,,,,,,,,,,,,,,,,,,,,,,,,,,,,,,,,,,1531.9087712001055,None,,,,,,,,,,,,,,,,,,,,,,,,,,,,,,,,,,,,,,,,,,,,,,,,,,,,,,,,,poet,118,78,aloud,old,blue,1530.4573497001547,None,y,1530.4573497001547,None,"['y', 'return']","[1.003870400134474, 1.4196634001564234]",1530.4573497001547,None,,,16yd,001,2023_Mar_01_1812,ExactRep-v3-final,2021.2.3,59.92523723493781,
,,,,,,,,,,,,78,0,78,0,,,,,,,,,,,,,,,,,,,,,,,,,,,,,,,,,,,,,,,,,,,,,,,,,1534.4946743999608,None,,,,,,,,,,,,,,,,,,,,,,,,,,,,,,,,,,,,,,,,,,,,,,,,,,,,,,,,,honour,179,79,sing,new,red,1532.4099578000605,None,n,1532.4099578000605,None,"['n', 'return']","[1.5953345000743866, 2.0431625000201166]",1532.4099578000605,None,,,16yd,001,2023_Mar_01_1812,ExactRep-v3-final,2021.2.3,59.92523723493781,
,,,,,,,,,,,,79,0,79,0,,,,,,,,,,,,,,,,,,,,,,,,,,,,,,,,,,,,,,,,,,,,,,,,,1536.8637371000368,None,,,,,,,,,,,,,,,,,,,,,,,,,,,,,,,,,,,,,,,,,,,,,,,,,,,,,,,,,grief,188,80,aloud,new,blue,1535.002516400069,None,y,1535.002516400069,None,"['y', 'return']","[1.3064711999613792, 1.8265382999088615]",1535.002516400069,None,,,16yd,001,2023_Mar_01_1812,ExactRep-v3-final,2021.2.3,59.92523723493781,
,,,,,,,,,,,,80,0,80,0,,,,,,,,,,,,,,,,,,,,,,,,,,,,,,,,,,,,,,,,,,,,,,,,,1539.199401000049,None,,,,,,,,,,,,,,,,,,,,,,,,,,,,,,,,,,,,,,,,,,,,,,,,,,,,,,,,,product,104,81,aloud,old,blue,1537.371721399948,None,y,1537.371721399948,None,"['y', 'return']","[1.3375530999619514, 1.7932203998789191]",1537.371721399948,None,,,16yd,001,2023_Mar_01_1812,ExactRep-v3-final,2021.2.3,59.92523723493781,
,,,,,,,,,,,,81,0,81,0,,,,,,,,,,,,,,,,,,,,,,,,,,,,,,,,,,,,,,,,,,,,,,,,,1541.9856343001593,None,,,,,,,,,,,,,,,,,,,,,,,,,,,,,,,,,,,,,,,,,,,,,,,,,,,,,,,,,hotel,147,82,silent,new,white,1539.7083179000765,None,n,1539.7083179000765,None,"['n', 'return']","[1.7846546000801027, 2.2406808000523597]",1539.7083179000765,None,,,16yd,001,2023_Mar_01_1812,ExactRep-v3-final,2021.2.3,59.92523723493781,
,,,,,,,,,,,,82,0,82,0,,,,,,,,,,,,,,,,,,,,,,,,,,,,,,,,,,,,,,,,,,,,,,,,,1544.9885827000253,None,,,,,,,,,,,,,,,,,,,,,,,,,,,,,,,,,,,,,,,,,,,,,,,,,,,,,,,,,coin,151,83,silent,new,white,1542.494694400113,None,n,1542.494694400113,None,"['n', 'return']","[1.798309599980712, 2.4463374000042677]",1542.494694400113,None,,,16yd,001,2023_Mar_01_1812,ExactRep-v3-final,2021.2.3,59.92523723493781,
,,,,,,,,,,,,83,0,83,0,,,,,,,,,,,,,,,,,,,,,,,,,,,,,,,,,,,,,,,,,,,,,,,,,1546.8404403000604,None,,,,,,,,,,,,,,,,,,,,,,,,,,,,,,,,,,,,,,,,,,,,,,,,,,,,,,,,,clock,108,84,aloud,old,blue,1545.497225300176,None,y,1545.497225300176,None,"['y', 'return']","[0.9398026999551803, 1.2998659999575466]",1545.497225300176,None,,,16yd,001,2023_Mar_01_1812,ExactRep-v3-final,2021.2.3,59.92523723493781,
,,,,,,,,,,,,84,0,84,0,,,,,,,,,,,,,,,,,,,,,,,,,,,,,,,,,,,,,,,,,,,,,,,,,1548.8090835001785,None,,,,,,,,,,,,,,,,,,,,,,,,,,,,,,,,,,,,,,,,,,,,,,,,,,,,,,,,,letter,106,85,aloud,old,blue,1547.3502615999896,None,y,1547.3502615999896,None,"['y', 'return']","[1.0550073999911547, 1.4147288999520242]",1547.3502615999896,None,,,16yd,001,2023_Mar_01_1812,ExactRep-v3-final,2021.2.3,59.92523723493781,
,,,,,,,,,,,,85,0,85,0,,,,,,,,,,,,,,,,,,,,,,,,,,,,,,,,,,,,,,,,,,,,,,,,,1551.1781050001737,None,,,,,,,,,,,,,,,,,,,,,,,,,,,,,,,,,,,,,,,,,,,,,,,,,,,,,,,,,soul,209,86,sing,new,red,1549.3190584001131,None,y,1549.3190584001131,None,"['y', 'return']","[1.5340513999108225, 1.814014800125733]",1549.3190584001131,None,,,16yd,001,2023_Mar_01_1812,ExactRep-v3-final,2021.2.3,59.92523723493781,
,,,,,,,,,,,,86,0,86,0,,,,,,,,,,,,,,,,,,,,,,,,,,,,,,,,,,,,,,,,,,,,,,,,,1553.3635422999505,None,,,,,,,,,,,,,,,,,,,,,,,,,,,,,,,,,,,,,,,,,,,,,,,,,,,,,,,,,season,85,87,aloud,old,blue,1551.682388999965,None,y,1551.682388999965,None,"['y', 'return']","[1.2827763999812305, 1.642726199934259]",1551.682388999965,None,,,16yd,001,2023_Mar_01_1812,ExactRep-v3-final,2021.2.3,59.92523723493781,
,,,,,,,,,,,,87,0,87,0,,,,,,,,,,,,,,,,,,,,,,,,,,,,,,,,,,,,,,,,,,,,,,,,,1555.9328334000893,None,,,,,,,,,,,,,,,,,,,,,,,,,,,,,,,,,,,,,,,,,,,,,,,,,,,,,,,,,power,39,88,silent,old,white,1553.8765217000619,None,y,1553.8765217000619,None,"['y', 'return']","[1.8167302999645472, 2.009142199996859]",1553.8765217000619,None,,,16yd,001,2023_Mar_01_1812,ExactRep-v3-final,2021.2.3,59.92523723493781,
,,,,,,,,,,,,88,0,88,0,,,,,,,,,,,,,,,,,,,,,,,,,,,,,,,,,,,,,,,,,,,,,,,,,1558.0849590001162,None,,,,,,,,,,,,,,,,,,,,,,,,,,,,,,,,,,,,,,,,,,,,,,,,,,,,,,,,,glory,182,89,aloud,new,blue,1556.440446200082,None,y,1556.440446200082,None,"['y', 'return']","[1.2604817999526858, 1.5966906999237835]",1556.440446200082,None,,,16yd,001,2023_Mar_01_1812,ExactRep-v3-final,2021.2.3,59.92523723493781,
,,,,,,,,,,,,89,0,89,0,,,,,,,,,,,,,,,,,,,,,,,,,,,,,,,,,,,,,,,,,,,,,,,,,1560.370624500094,None,,,,,,,,,,,,,,,,,,,,,,,,,,,,,,,,,,,,,,,,,,,,,,,,,,,,,,,,,dress,17,90,sing,old,red,1558.5948363000061,None,y,1558.5948363000061,None,"['y', 'return']","[1.3141008999664336, 1.7382481000386178]",1558.5948363000061,None,,,16yd,001,2023_Mar_01_1812,ExactRep-v3-final,2021.2.3,59.92523723493781,
,,,,,,,,,,,,90,0,90,0,,,,,,,,,,,,,,,,,,,,,,,,,,,,,,,,,,,,,,,,,,,,,,,,,1563.4903285000473,None,,,,,,,,,,,,,,,,,,,,,,,,,,,,,,,,,,,,,,,,,,,,,,,,,,,,,,,,,house,185,91,sing,new,red,1560.8832593001425,None,n,1560.8832593001425,None,"['n', 'return']","[2.0577039001509547, 2.5618237000890076]",1560.8832593001425,None,,,16yd,001,2023_Mar_01_1812,ExactRep-v3-final,2021.2.3,59.92523723493781,
,,,,,,,,,,,,91,0,91,0,,,,,,,,,,,,,,,,,,,,,,,,,,,,,,,,,,,,,,,,,,,,,,,,,1565.842694299994,None,,,,,,,,,,,,,,,,,,,,,,,,,,,,,,,,,,,,,,,,,,,,,,,,,,,,,,,,,theory,236,92,aloud,new,blue,1563.9911118000746,None,n,1563.9911118000746,None,"['n', 'return']","[1.405975200003013, 1.8059975998476148]",1563.9911118000746,None,,,16yd,001,2023_Mar_01_1812,ExactRep-v3-final,2021.2.3,59.92523723493781,
,,,,,,,,,,,,92,0,92,0,,,,,,,,,,,,,,,,,,,,,,,,,,,,,,,,,,,,,,,,,,,,,,,,,1568.2450988001656,None,,,,,,,,,,,,,,,,,,,,,,,,,,,,,,,,,,,,,,,,,,,,,,,,,,,,,,,,,troops,135,93,silent,new,white,1566.3524174001068,None,y,1566.3524174001068,None,"['y', 'return']","[1.572617599973455, 1.844673699932173]",1566.3524174001068,None,,,16yd,001,2023_Mar_01_1812,ExactRep-v3-final,2021.2.3,59.92523723493781,
,,,,,,,,,,,,93,0,93,0,,,,,,,,,,,,,,,,,,,,,,,,,,,,,,,,,,,,,,,,,,,,,,,,,1570.263762500137,None,,,,,,,,,,,,,,,,,,,,,,,,,,,,,,,,,,,,,,,,,,,,,,,,,,,,,,,,,maiden,144,94,silent,new,white,1568.7516879001632,None,n,1568.7516879001632,None,"['n', 'return']","[1.1413587999995798, 1.469324299832806]",1568.7516879001632,None,,,16yd,001,2023_Mar_01_1812,ExactRep-v3-final,2021.2.3,59.92523723493781,
,,,,,,,,,,,,94,0,94,0,,,,,,,,,,,,,,,,,,,,,,,,,,,,,,,,,,,,,,,,,,,,,,,,,1572.4662252999842,None,,,,,,,,,,,,,,,,,,,,,,,,,,,,,,,,,,,,,,,,,,,,,,,,,,,,,,,,,gold,227,95,sing,new,red,1570.7775616999716,None,n,1570.7775616999716,None,"['n', 'return']","[1.2836628998629749, 1.643552599940449]",1570.7775616999716,None,,,16yd,001,2023_Mar_01_1812,ExactRep-v3-final,2021.2.3,59.92523723493781,
,,,,,,,,,,,,95,0,95,0,,,,,,,,,,,,,,,,,,,,,,,,,,,,,,,,,,,,,,,,,,,,,,,,,1575.101989600109,None,,,,,,,,,,,,,,,,,,,,,,,,,,,,,,,,,,,,,,,,,,,,,,,,,,,,,,,,,palace,37,96,sing,old,red,1572.977834700141,None,n,1572.977834700141,None,"['n', 'return']","[1.5793379000388086, 2.0832810001447797]",1572.977834700141,None,,,16yd,001,2023_Mar_01_1812,ExactRep-v3-final,2021.2.3,59.92523723493781,
,,,,,,,,,,,,96,0,96,0,,,,,,,,,,,,,,,,,,,,,,,,,,,,,,,,,,,,,,,,,,,,,,,,,1577.3041399000213,None,,,,,,,,,,,,,,,,,,,,,,,,,,,,,,,,,,,,,,,,,,,,,,,,,,,,,,,,,plant,64,97,silent,old,white,1575.60593420011,None,n,1575.60593420011,None,"['n', 'return']","[1.2392711001448333, 1.6550890000071377]",1575.60593420011,None,,,16yd,001,2023_Mar_01_1812,ExactRep-v3-final,2021.2.3,59.92523723493781,
,,,,,,,,,,,,97,0,97,0,,,,,,,,,,,,,,,,,,,,,,,,,,,,,,,,,,,,,,,,,,,,,,,,,1579.7899927999824,None,,,,,,,,,,,,,,,,,,,,,,,,,,,,,,,,,,,,,,,,,,,,,,,,,,,,,,,,,street,125,98,silent,new,white,1577.815743900137,None,n,1577.815743900137,None,"['n', 'return']","[1.4372707000002265, 1.9413557001389563]",1577.815743900137,None,,,16yd,001,2023_Mar_01_1812,ExactRep-v3-final,2021.2.3,59.92523723493781,
,,,,,,,,,,,,98,0,98,0,,,,,,,,,,,,,,,,,,,,,,,,,,,,,,,,,,,,,,,,,,,,,,,,,1582.1423637999687,None,,,,,,,,,,,,,,,,,,,,,,,,,,,,,,,,,,,,,,,,,,,,,,,,,,,,,,,,,pride,167,99,sing,new,red,1580.2983176000416,None,y,1580.2983176000416,None,"['y', 'return']","[1.4189164999406785, 1.8107453999109566]",1580.2983176000416,None,,,16yd,001,2023_Mar_01_1812,ExactRep-v3-final,2021.2.3,59.92523723493781,
,,,,,,,,,,,,99,0,99,0,,,,,,,,,,,,,,,,,,,,,,,,,,,,,,,,,,,,,,,,,,,,,,,,,1584.2946717001032,None,,,,,,,,,,,,,,,,,,,,,,,,,,,,,,,,,,,,,,,,,,,,,,,,,,,,,,,,,law,184,100,aloud,new,blue,1582.653924500104,None,n,1582.653924500104,None,"['n', 'return']","[1.2871490998659283, 1.6070439000613987]",1582.653924500104,None,,,16yd,001,2023_Mar_01_1812,ExactRep-v3-final,2021.2.3,59.92523723493781,
,,,,,,,,,,,,100,0,100,0,,,,,,,,,,,,,,,,,,,,,,,,,,,,,,,,,,,,,,,,,,,,,,,,,1586.3965428001247,None,,,,,,,,,,,,,,,,,,,,,,,,,,,,,,,,,,,,,,,,,,,,,,,,,,,,,,,,,seat,217,101,sing,new,red,1584.8026713000145,None,n,1584.8026713000145,None,"['n', 'return']","[1.2104273000732064, 1.5543635000940412]",1584.8026713000145,None,,,16yd,001,2023_Mar_01_1812,ExactRep-v3-final,2021.2.3,59.92523723493781,
,,,,,,,,,,,,101,0,101,0,,,,,,,,,,,,,,,,,,,,,,,,,,,,,,,,,,,,,,,,,,,,,,,,,1589.049312800169,None,,,,,,,,,,,,,,,,,,,,,,,,,,,,,,,,,,,,,,,,,,,,,,,,,,,,,,,,,pupil,78,102,silent,old,white,1586.901310000103,None,y,1586.901310000103,None,"['y', 'return']","[1.7757393999490887, 2.103675599908456]",1586.901310000103,None,,,16yd,001,2023_Mar_01_1812,ExactRep-v3-final,2021.2.3,59.92523723493781,
,,,,,,,,,,,,102,0,102,0,,,,,,,,,,,,,,,,,,,,,,,,,,,,,,,,,,,,,,,,,,,,,,,,,1591.134644200094,None,,,,,,,,,,,,,,,,,,,,,,,,,,,,,,,,,,,,,,,,,,,,,,,,,,,,,,,,,moral,159,103,silent,new,white,1589.5618124001194,None,n,1589.5618124001194,None,"['n', 'return']","[1.2355313000734895, 1.5392203000374138]",1589.5618124001194,None,,,16yd,001,2023_Mar_01_1812,ExactRep-v3-final,2021.2.3,59.92523723493781,
,,,,,,,,,,,,103,0,103,0,,,,,,,,,,,,,,,,,,,,,,,,,,,,,,,,,,,,,,,,,,,,,,,,,1593.5703950000461,None,,,,,,,,,,,,,,,,,,,,,,,,,,,,,,,,,,,,,,,,,,,,,,,,,,,,,,,,,board,44,104,silent,old,white,1591.642509700032,None,n,1591.642509700032,None,"['n', 'return']","[1.5944322000723332, 1.882678700145334]",1591.642509700032,None,,,16yd,001,2023_Mar_01_1812,ExactRep-v3-final,2021.2.3,59.92523723493781,
,,,,,,,,,,,,104,0,104,0,,,,,,,,,,,,,,,,,,,,,,,,,,,,,,,,,,,,,,,,,,,,,,,,,1596.2900295001455,None,,,,,,,,,,,,,,,,,,,,,,,,,,,,,,,,,,,,,,,,,,,,,,,,,,,,,,,,,custom,46,105,silent,old,white,1594.078235700028,None,n,1594.078235700028,None,"['n', 'return']","[1.9349270998500288, 2.174842400010675]",1594.078235700028,None,,,16yd,001,2023_Mar_01_1812,ExactRep-v3-final,2021.2.3,59.92523723493781,
,,,,,,,,,,,,105,0,105,0,,,,,,,,,,,,,,,,,,,,,,,,,,,,,,,,,,,,,,,,,,,,,,,,,1598.7089042000007,None,,,,,,,,,,,,,,,,,,,,,,,,,,,,,,,,,,,,,,,,,,,,,,,,,,,,,,,,,student,208,106,aloud,new,blue,1596.7985040999483,None,n,1596.7985040999483,None,"['n', 'return']","[1.5185786001384258, 1.8785663000307977]",1596.7985040999483,None,,,16yd,001,2023_Mar_01_1812,ExactRep-v3-final,2021.2.3,59.92523723493781,
,,,,,,,,,,,,106,0,106,0,,,,,,,,,,,,,,,,,,,,,,,,,,,,,,,,,,,,,,,,,,,,,,,,,1600.6943552000448,None,,,,,,,,,,,,,,,,,,,,,,,,,,,,,,,,,,,,,,,,,,,,,,,,,,,,,,,,,lake,67,107,silent,old,white,1599.212754999986,None,y,1599.212754999986,None,"['y', 'return']","[1.1604494999628514, 1.448457800084725]",1599.212754999986,None,,,16yd,001,2023_Mar_01_1812,ExactRep-v3-final,2021.2.3,59.92523723493781,
,,,,,,,,,,,,107,0,107,0,,,,,,,,,,,,,,,,,,,,,,,,,,,,,,,,,,,,,,,,,,,,,,,,,1603.230260600103,None,,,,,,,,,,,,,,,,,,,,,,,,,,,,,,,,,,,,,,,,,,,,,,,,,,,,,,,,,health,77,108,silent,old,white,1601.2067466001026,None,n,1601.2067466001026,None,"['n', 'return']","[1.7184192999266088, 1.9904950999189168]",1601.2067466001026,None,,,16yd,001,2023_Mar_01_1812,ExactRep-v3-final,2021.2.3,59.92523723493781,
,,,,,,,,,,,,108,0,108,0,,,,,,,,,,,,,,,,,,,,,,,,,,,,,,,,,,,,,,,,,,,,,,,,,1606.41660830006,None,,,,,,,,,,,,,,,,,,,,,,,,,,,,,,,,,,,,,,,,,,,,,,,,,,,,,,,,,shock,180,109,aloud,new,blue,1603.74158599996,None,n,1603.74158599996,None,"['n', 'return']","[2.295575600117445, 2.6395811000838876]",1603.74158599996,None,,,16yd,001,2023_Mar_01_1812,ExactRep-v3-final,2021.2.3,59.92523723493781,
,,,,,,,,,,,,109,0,109,0,,,,,,,,,,,,,,,,,,,,,,,,,,,,,,,,,,,,,,,,,,,,,,,,,1608.7357505999971,None,,,,,,,,,,,,,,,,,,,,,,,,,,,,,,,,,,,,,,,,,,,,,,,,,,,,,,,,,advice,171,110,sing,new,red,1606.9261282000225,None,n,1606.9261282000225,None,"['n', 'return']","[1.4632576000876725, 1.766950200079009]",1606.9261282000225,None,,,16yd,001,2023_Mar_01_1812,ExactRep-v3-final,2021.2.3,59.92523723493781,
,,,,,,,,,,,,110,0,110,0,,,,,,,,,,,,,,,,,,,,,,,,,,,,,,,,,,,,,,,,,,,,,,,,,1611.2717075000983,None,,,,,,,,,,,,,,,,,,,,,,,,,,,,,,,,,,,,,,,,,,,,,,,,,,,,,,,,,diamond,56,111,silent,old,white,1609.2467885001097,None,n,1609.2467885001097,None,"['n', 'return']","[1.558316000038758, 1.9902554999571294]",1609.2467885001097,None,,,16yd,001,2023_Mar_01_1812,ExactRep-v3-final,2021.2.3,59.92523723493781,
,,,,,,,,,,,,111,0,111,0,,,,,,,,,,,,,,,,,,,,,,,,,,,,,,,,,,,,,,,,,,,,,,,,,1613.3068054001778,None,,,,,,,,,,,,,,,,,,,,,,,,,,,,,,,,,,,,,,,,,,,,,,,,,,,,,,,,,victory,4,112,sing,old,red,1611.7824367000721,None,y,1611.7824367000721,None,"['y', 'return']","[1.1426446000114083, 1.47871799999848]",1611.7824367000721,None,,,16yd,001,2023_Mar_01_1812,ExactRep-v3-final,2021.2.3,59.92523723493781,
,,,,,,,,,,,,112,0,112,0,,,,,,,,,,,,,,,,,,,,,,,,,,,,,,,,,,,,,,,,,,,,,,,,,1615.7093957001343,None,,,,,,,,,,,,,,,,,,,,,,,,,,,,,,,,,,,,,,,,,,,,,,,,,,,,,,,,,dawn,225,113,sing,new,red,1613.8155434001237,None,n,1613.8155434001237,None,"['n', 'return']","[1.5736428999807686, 1.861676000058651]",1613.8155434001237,None,,,16yd,001,2023_Mar_01_1812,ExactRep-v3-final,2021.2.3,59.92523723493781,
,,,,,,,,,,,,113,0,113,0,,,,,,,,,,,,,,,,,,,,,,,,,,,,,,,,,,,,,,,,,,,,,,,,,1617.628939999966,None,,,,,,,,,,,,,,,,,,,,,,,,,,,,,,,,,,,,,,,,,,,,,,,,,,,,,,,,,freedom,112,114,aloud,old,blue,1616.2217349000275,None,y,1616.2217349000275,None,"['y', 'return']","[0.9035227000713348, 1.3593922001309693]",1616.2217349000275,None,,,16yd,001,2023_Mar_01_1812,ExactRep-v3-final,2021.2.3,59.92523723493781,
,,,,,,,,,,,,114,0,114,0,,,,,,,,,,,,,,,,,,,,,,,,,,,,,,,,,,,,,,,,,,,,,,,,,1619.5630900000688,None,,,,,,,,,,,,,,,,,,,,,,,,,,,,,,,,,,,,,,,,,,,,,,,,,,,,,,,,,church,196,115,aloud,new,blue,1618.1425944000948,None,y,1618.1425944000948,None,"['y', 'return']","[0.9904753000009805, 1.374478599987924]",1618.1425944000948,None,,,16yd,001,2023_Mar_01_1812,ExactRep-v3-final,2021.2.3,59.92523723493781,
,,,,,,,,,,,,115,0,115,0,,,,,,,,,,,,,,,,,,,,,,,,,,,,,,,,,,,,,,,,,,,,,,,,,1622.6494800001383,None,,,,,,,,,,,,,,,,,,,,,,,,,,,,,,,,,,,,,,,,,,,,,,,,,,,,,,,,,time,143,116,silent,new,white,1620.0720359000843,None,n,1620.0720359000843,None,"['n', 'return']","[2.221151600126177, 2.5331963000353426]",1620.0720359000843,None,,,16yd,001,2023_Mar_01_1812,ExactRep-v3-final,2021.2.3,59.92523723493781,
,,,,,,,,,,,,116,0,116,0,,,,,,,,,,,,,,,,,,,,,,,,,,,,,,,,,,,,,,,,,,,,,,,,,1625.2690751000773,None,,,,,,,,,,,,,,,,,,,,,,,,,,,,,,,,,,,,,,,,,,,,,,,,,,,,,,,,,thought,199,117,sing,new,red,1623.1561774001457,None,n,1623.1561774001457,None,"['n', 'return']","[1.6969228000380099, 2.0730085000395775]",1623.1561774001457,None,,,16yd,001,2023_Mar_01_1812,ExactRep-v3-final,2021.2.3,59.92523723493781,
,,,,,,,,,,,,117,0,117,0,,,,,,,,,,,,,,,,,,,,,,,,,,,,,,,,,,,,,,,,,,,,,,,,,1627.3541967000347,None,,,,,,,,,,,,,,,,,,,,,,,,,,,,,,,,,,,,,,,,,,,,,,,,,,,,,,,,,death,71,118,silent,old,white,1625.7788440999575,None,y,1625.7788440999575,None,"['y', 'return']","[1.1544588999822736, 1.5303130999673158]",1625.7788440999575,None,,,16yd,001,2023_Mar_01_1812,ExactRep-v3-final,2021.2.3,59.92523723493781,
,,,,,,,,,,,,118,0,118,0,,,,,,,,,,,,,,,,,,,,,,,,,,,,,,,,,,,,,,,,,,,,,,,,,1629.6565394001082,None,,,,,,,,,,,,,,,,,,,,,,,,,,,,,,,,,,,,,,,,,,,,,,,,,,,,,,,,,star,52,119,silent,old,white,1627.8644900999498,None,n,1627.8644900999498,None,"['n', 'return']","[1.204629800049588, 1.7485619999933988]",1627.8644900999498,None,,,16yd,001,2023_Mar_01_1812,ExactRep-v3-final,2021.2.3,59.92523723493781,
,,,,,,,,,,,,119,0,119,0,,,,,,,,,,,,,,,,,,,,,,,,,,,,,,,,,,,,,,,,,,,,,,,,,1631.6585742000025,None,,,,,,,,,,,,,,,,,,,,,,,,,,,,,,,,,,,,,,,,,,,,,,,,,,,,,,,,,coffee,177,120,sing,new,red,1630.1665090001188,None,n,1630.1665090001188,None,"['n', 'return']","[1.1185973000247031, 1.4545889999717474]",1630.1665090001188,None,,,16yd,001,2023_Mar_01_1812,ExactRep-v3-final,2021.2.3,59.92523723493781,
,,,,,,,,,,,,120,0,120,0,,,,,,,,,,,,,,,,,,,,,,,,,,,,,,,,,,,,,,,,,,,,,,,,,1633.8774013000075,None,,,,,,,,,,,,,,,,,,,,,,,,,,,,,,,,,,,,,,,,,,,,,,,,,,,,,,,,,child,47,121,silent,old,white,1632.1665801000781,None,n,1632.1665801000781,None,"['n', 'return']","[1.3346941000781953, 1.6705572998616844]",1632.1665801000781,None,,,16yd,001,2023_Mar_01_1812,ExactRep-v3-final,2021.2.3,59.92523723493781,
,,,,,,,,,,,,121,0,121,0,,,,,,,,,,,,,,,,,,,,,,,,,,,,,,,,,,,,,,,,,,,,,,,,,1635.8960921999533,None,,,,,,,,,,,,,,,,,,,,,,,,,,,,,,,,,,,,,,,,,,,,,,,,,,,,,,,,,iron,162,122,aloud,new,blue,1634.3888397000264,None,n,1634.3888397000264,None,"['n', 'return']","[1.104225300019607, 1.4721776000224054]",1634.3888397000264,None,,,16yd,001,2023_Mar_01_1812,ExactRep-v3-final,2021.2.3,59.92523723493781,
,,,,,,,,,,,,122,0,122,0,,,,,,,,,,,,,,,,,,,,,,,,,,,,,,,,,,,,,,,,,,,,,,,,,1638.6655226000585,None,,,,,,,,,,,,,,,,,,,,,,,,,,,,,,,,,,,,,,,,,,,,,,,,,,,,,,,,,artist,70,123,silent,old,white,1636.4055509001482,None,y,1636.4055509001482,None,"['y', 'return']","[1.9915726999752223, 2.2154822000302374]",1636.4055509001482,None,,,16yd,001,2023_Mar_01_1812,ExactRep-v3-final,2021.2.3,59.92523723493781,
,,,,,,,,,,,,123,0,123,0,,,,,,,,,,,,,,,,,,,,,,,,,,,,,,,,,,,,,,,,,,,,,,,,,1640.867720700102,None,,,,,,,,,,,,,,,,,,,,,,,,,,,,,,,,,,,,,,,,,,,,,,,,,,,,,,,,,factory,228,124,aloud,new,blue,1639.1739044999704,None,y,1639.1739044999704,None,"['y', 'return']","[1.2314603000413626, 1.6471577000338584]",1639.1739044999704,None,,,16yd,001,2023_Mar_01_1812,ExactRep-v3-final,2021.2.3,59.92523723493781,
,,,,,,,,,,,,124,0,124,0,,,,,,,,,,,,,,,,,,,,,,,,,,,,,,,,,,,,,,,,,,,,,,,,,1642.8532084999606,None,,,,,,,,,,,,,,,,,,,,,,,,,,,,,,,,,,,,,,,,,,,,,,,,,,,,,,,,,air,114,125,aloud,old,blue,1641.369424500037,None,y,1641.369424500037,None,"['y', 'return']","[1.1156303999014199, 1.4437211998738348]",1641.369424500037,None,,,16yd,001,2023_Mar_01_1812,ExactRep-v3-final,2021.2.3,59.92523723493781,
,,,,,,,,,,,,125,0,125,0,,,,,,,,,,,,,,,,,,,,,,,,,,,,,,,,,,,,,,,,,,,,,,,,,1645.0051994000096,None,,,,,,,,,,,,,,,,,,,,,,,,,,,,,,,,,,,,,,,,,,,,,,,,,,,,,,,,,winter,107,126,aloud,old,blue,1643.3626973000355,None,n,1643.3626973000355,None,"['n', 'return']","[1.1943572000600398, 1.5943806001450866]",1643.3626973000355,None,,,16yd,001,2023_Mar_01_1812,ExactRep-v3-final,2021.2.3,59.92523723493781,
,,,,,,,,,,,,126,0,126,0,,,,,,,,,,,,,,,,,,,,,,,,,,,,,,,,,,,,,,,,,,,,,,,,,1647.007169000106,None,,,,,,,,,,,,,,,,,,,,,,,,,,,,,,,,,,,,,,,,,,,,,,,,,,,,,,,,,steam,222,127,aloud,new,blue,1645.5159993001726,None,n,1645.5159993001726,None,"['n', 'return']","[1.0570112999994308, 1.4570257000159472]",1645.5159993001726,None,,,16yd,001,2023_Mar_01_1812,ExactRep-v3-final,2021.2.3,59.92523723493781,
,,,,,,,,,,,,127,0,127,0,,,,,,,,,,,,,,,,,,,,,,,,,,,,,,,,,,,,,,,,,,,,,,,,,1649.643366600154,None,,,,,,,,,,,,,,,,,,,,,,,,,,,,,,,,,,,,,,,,,,,,,,,,,,,,,,,,,ticket,178,128,aloud,new,blue,1647.526036700001,None,n,1647.526036700001,None,"['n', 'return']","[0.9110993999056518, 2.071123599773273]",1647.526036700001,None,,,16yd,001,2023_Mar_01_1812,ExactRep-v3-final,2021.2.3,59.92523723493781,
,,,,,,,,,,,,128,0,128,0,,,,,,,,,,,,,,,,,,,,,,,,,,,,,,,,,,,,,,,,,,,,,,,,,1651.945573200006,None,,,,,,,,,,,,,,,,,,,,,,,,,,,,,,,,,,,,,,,,,,,,,,,,,,,,,,,,,salary,149,129,silent,new,white,1650.1541685000993,None,n,1650.1541685000993,None,"['n', 'return']","[1.3631160999648273, 1.7550135999917984]",1650.1541685000993,None,,,16yd,001,2023_Mar_01_1812,ExactRep-v3-final,2021.2.3,59.92523723493781,
,,,,,,,,,,,,129,0,129,0,,,,,,,,,,,,,,,,,,,,,,,,,,,,,,,,,,,,,,,,,,,,,,,,,1653.9142478001304,None,,,,,,,,,,,,,,,,,,,,,,,,,,,,,,,,,,,,,,,,,,,,,,,,,,,,,,,,,animal,202,130,aloud,new,blue,1652.4533971000928,None,n,1652.4533971000928,None,"['n', 'return']","[1.1276036000344902, 1.4157305001281202]",1652.4533971000928,None,,,16yd,001,2023_Mar_01_1812,ExactRep-v3-final,2021.2.3,59.92523723493781,
