trials_fam.thisRepN,trials_fam.thisTrialN,trials_fam.thisN,trials_fam.thisIndex,trials_prc.thisRepN,trials_prc.thisTrialN,trials_prc.thisN,trials_prc.thisIndex,StudyLoop.thisRepN,StudyLoop.thisTrialN,StudyLoop.thisN,StudyLoop.thisIndex,TestLoop.thisRepN,TestLoop.thisTrialN,TestLoop.thisN,TestLoop.thisIndex,text_colortest.started,text_colortest.stopped,key_colortest.keys,key_colortest.rt,key_colortest.started,key_colortest.stopped,textCondition.started,textCondition.stopped,keyCondition.keys,keyCondition.rt,keyCondition.started,keyCondition.stopped,Condition_between,Condition_counterbal,keyWelcome.keys,keyWelcome.rt,keyWelcome.started,keyWelcome.stopped,welcome_a.started,welcome_a.stopped,welcome_b.started,welcome_b.stopped,welcome_c.started,welcome_c.stopped,welcome_d.started,welcome_d.stopped,welcome_e.started,welcome_e.stopped,welcome_f.started,welcome_f.stopped,key_resp_fam_inst.keys,key_resp_fam_inst.rt,key_resp_fam_inst.started,key_resp_fam_inst.stopped,fam_a.started,fam_a.stopped,fam_b.started,fam_b.stopped,fam_c.started,fam_c.stopped,fam_d.started,fam_d.stopped,fam_e.started,fam_e.stopped,fam_f.started,fam_f.stopped,text_famil.started,text_famil.stopped,textBlank500.started,textBlank500.stopped,key_resp_prc_inst.keys,key_resp_prc_inst.rt,key_resp_prc_inst.started,key_resp_prc_inst.stopped,prac_a.started,prac_a.stopped,prac_b.started,prac_b.stopped,prac_c.started,prac_c.stopped,prac_d.started,prac_d.stopped,prac_e.started,prac_e.stopped,prac_f.started,prac_f.stopped,text_prc_trial.started,text_prc_trial.stopped,key_resp_study_inst.keys,key_resp_study_inst.rt,key_resp_study_inst.started,key_resp_study_inst.stopped,crit_a.started,crit_a.stopped,crit_b.started,crit_b.stopped,crit_c.started,crit_c.stopped,crit_d.started,crit_d.stopped,crit_e.started,crit_e.stopped,crit_f.started,crit_f.stopped,study_word,study_num,study_order,study_type,word_color,textStudy.started,textStudy.stopped,keyStudy.keys,keyStudy.started,keyStudy.stopped,post_study.started,post_study.stopped,key_resp_post_study.keys,key_resp_post_study.rt,key_resp_post_study.started,key_resp_post_study.stopped,test_inst.started,test_inst.stopped,key_resp_test_inst.keys,key_resp_test_inst.rt,key_resp_test_inst.started,key_resp_test_inst.stopped,test_word,test_num,test_order,test_condition,old_new_test,word_color_test,textConf.started,textConf.stopped,Participant Response,textInput.started,textInput.stopped,keyResp.keys,keyResp.rt,keyResp.started,keyResp.stopped,textEnd.started,textEnd.stopped,participant,session,date,expName,psychopyVersion,frameRate,
,,,,,,,,,,,,,,,,23.559667200082913,None,y,1.820780900074169,23.559667200082913,None,,,,,,,,,,,,,,,,,,,,,,,,,,,,,,,,,,,,,,,,,,,,,,,,,,,,,,,,,,,,,,,,,,,,,,,,,,,,,,,,,,,,,,,,,,,,,,,,,,,,,,,,,,,,,,,,,,,,,,17YE,001,2023_Mar_03_0939,ExactRep-v3-final,2021.2.3,60.00556850327399,
,,,,,,,,,,,,,,,,,,,,,,25.399615100119263,None,e,1.572992900153622,25.399615100119263,None,,,,,,,,,,,,,,,,,,,,,,,,,,,,,,,,,,,,,,,,,,,,,,,,,,,,,,,,,,,,,,,,,,,,,,,,,,,,,,,,,,,,,,,,,,,,,,,,,,,,,,,,,,,,,,,,17YE,001,2023_Mar_03_0939,ExactRep-v3-final,2021.2.3,60.00556850327399,
,,,,,,,,,,,,,,,,,,,,,,,,,,,,colorfoils,e,space,2907.622344400035,37.10506760003045,None,,,,,,,,,,,,,,,,,,,,,,,,,,,,,,,,,,,,,,,,,,,,,,,,,,,,,,,,,,,,,,,,,,,,,,,,,,,,,,,,,,,,,,,,,,,,,,,,,,,,,,,,,,17YE,001,2023_Mar_03_0939,ExactRep-v3-final,2021.2.3,60.00556850327399,
,,,,,,,,,,,,,,,,,,,,,,,,,,,,,,,,,,27.152430499903858,None,27.152430499903858,None,27.152430499903858,None,27.152430499903858,None,27.152430499903858,None,27.152430499903858,None,space,6.459975300123915,2954.8993486999534,None,,,,,,,,,,,,,,,,,,,,,,,,,,,,,,,,,,,,,,,,,,,,,,,,,,,,,,,,,,,,,,,,,,,,,,,,,,,,,,,,,,,,,,,,,,17YE,001,2023_Mar_03_0939,ExactRep-v3-final,2021.2.3,60.00556850327399,
0,0,0,0,,,,,,,,,,,,,,,,,,,,,,,,,,,,,,,,,,,,,,,,,,,,,,,2944.9011162999086,None,2944.9011162999086,None,2944.9011162999086,None,2944.9011162999086,None,2944.9011162999086,None,2944.9011162999086,None,2961.4617852999363,None,2963.45456079999,None,,,,,,,,,,,,,,,,,,,,,,,,,,,,,,,,,,,,,,,,,,,,,,,,,,,,,,,,,,,,,,,,,,,,,,,,,,17YE,001,2023_Mar_03_0939,ExactRep-v3-final,2021.2.3,60.00556850327399,
1,0,1,0,,,,,,,,,,,,,,,,,,,,,,,,,,,,,,,,,,,,,,,,,,,,,,,,,,,,,,,,,,,2963.9661667000037,None,2965.9737162000965,None,,,,,,,,,,,,,,,,,,,,,,,,,,,,,,,,,,,,,,,,,,,,,,,,,,,,,,,,,,,,,,,,,,,,,,,,,,17YE,001,2023_Mar_03_0939,ExactRep-v3-final,2021.2.3,60.00556850327399,
2,0,2,0,,,,,,,,,,,,,,,,,,,,,,,,,,,,,,,,,,,,,,,,,,,,,,,,,,,,,,,,,,,2966.47421330004,None,2968.476284299977,None,,,,,,,,,,,,,,,,,,,,,,,,,,,,,,,,,,,,,,,,,,,,,,,,,,,,,,,,,,,,,,,,,,,,,,,,,,17YE,001,2023_Mar_03_0939,ExactRep-v3-final,2021.2.3,60.00556850327399,
3,0,3,0,,,,,,,,,,,,,,,,,,,,,,,,,,,,,,,,,,,,,,,,,,,,,,,,,,,,,,,,,,,2968.9907490999904,None,2970.995048600016,None,,,,,,,,,,,,,,,,,,,,,,,,,,,,,,,,,,,,,,,,,,,,,,,,,,,,,,,,,,,,,,,,,,,,,,,,,,17YE,001,2023_Mar_03_0939,ExactRep-v3-final,2021.2.3,60.00556850327399,
4,0,4,0,,,,,,,,,,,,,,,,,,,,,,,,,,,,,,,,,,,,,,,,,,,,,,,,,,,,,,,,,,,2971.4957866000477,None,2973.4979479999747,None,,,,,,,,,,,,,,,,,,,,,,,,,,,,,,,,,,,,,,,,,,,,,,,,,,,,,,,,,,,,,,,,,,,,,,,,,,17YE,001,2023_Mar_03_0939,ExactRep-v3-final,2021.2.3,60.00556850327399,
5,0,5,0,,,,,,,,,,,,,,,,,,,,,,,,,,,,,,,,,,,,,,,,,,,,,,,,,,,,,,,,,,,2974.0007082000375,None,2976.000388599932,None,,,,,,,,,,,,,,,,,,,,,,,,,,,,,,,,,,,,,,,,,,,,,,,,,,,,,,,,,,,,,,,,,,,,,,,,,,17YE,001,2023_Mar_03_0939,ExactRep-v3-final,2021.2.3,60.00556850327399,
6,0,6,0,,,,,,,,,,,,,,,,,,,,,,,,,,,,,,,,,,,,,,,,,,,,,,,,,,,,,,,,,,,2976.5010212000925,None,2978.503052199958,None,,,,,,,,,,,,,,,,,,,,,,,,,,,,,,,,,,,,,,,,,,,,,,,,,,,,,,,,,,,,,,,,,,,,,,,,,,17YE,001,2023_Mar_03_0939,ExactRep-v3-final,2021.2.3,60.00556850327399,
7,0,7,0,,,,,,,,,,,,,,,,,,,,,,,,,,,,,,,,,,,,,,,,,,,,,,,,,,,,,,,,,,,2979.0036486999597,None,2981.005362200085,None,,,,,,,,,,,,,,,,,,,,,,,,,,,,,,,,,,,,,,,,,,,,,,,,,,,,,,,,,,,,,,,,,,,,,,,,,,17YE,001,2023_Mar_03_0939,ExactRep-v3-final,2021.2.3,60.00556850327399,
8,0,8,0,,,,,,,,,,,,,,,,,,,,,,,,,,,,,,,,,,,,,,,,,,,,,,,,,,,,,,,,,,,2981.5123952000868,None,2983.52456489997,None,,,,,,,,,,,,,,,,,,,,,,,,,,,,,,,,,,,,,,,,,,,,,,,,,,,,,,,,,,,,,,,,,,,,,,,,,,17YE,001,2023_Mar_03_0939,ExactRep-v3-final,2021.2.3,60.00556850327399,
9,0,9,0,,,,,,,,,,,,,,,,,,,,,,,,,,,,,,,,,,,,,,,,,,,,,,,,,,,,,,,,,,,2984.0250963999424,None,2986.027102699969,None,,,,,,,,,,,,,,,,,,,,,,,,,,,,,,,,,,,,,,,,,,,,,,,,,,,,,,,,,,,,,,,,,,,,,,,,,,17YE,001,2023_Mar_03_0939,ExactRep-v3-final,2021.2.3,60.00556850327399,
10,0,10,0,,,,,,,,,,,,,,,,,,,,,,,,,,,,,,,,,,,,,,,,,,,,,,,,,,,,,,,,,,,2986.536254900042,None,2988.5461150000338,None,,,,,,,,,,,,,,,,,,,,,,,,,,,,,,,,,,,,,,,,,,,,,,,,,,,,,,,,,,,,,,,,,,,,,,,,,,17YE,001,2023_Mar_03_0939,ExactRep-v3-final,2021.2.3,60.00556850327399,
11,0,11,0,,,,,,,,,,,,,,,,,,,,,,,,,,,,,,,,,,,,,,,,,,,,,,,,,,,,,,,,,,,2989.046640699962,None,2991.0489419000223,None,,,,,,,,,,,,,,,,,,,,,,,,,,,,,,,,,,,,,,,,,,,,,,,,,,,,,,,,,,,,,,,,,,,,,,,,,,17YE,001,2023_Mar_03_0939,ExactRep-v3-final,2021.2.3,60.00556850327399,
12,0,12,0,,,,,,,,,,,,,,,,,,,,,,,,,,,,,,,,,,,,,,,,,,,,,,,,,,,,,,,,,,,2991.557469099993,None,2993.567846900085,None,,,,,,,,,,,,,,,,,,,,,,,,,,,,,,,,,,,,,,,,,,,,,,,,,,,,,,,,,,,,,,,,,,,,,,,,,,17YE,001,2023_Mar_03_0939,ExactRep-v3-final,2021.2.3,60.00556850327399,
13,0,13,0,,,,,,,,,,,,,,,,,,,,,,,,,,,,,,,,,,,,,,,,,,,,,,,,,,,,,,,,,,,2994.0684344000183,None,2996.0705367999617,None,,,,,,,,,,,,,,,,,,,,,,,,,,,,,,,,,,,,,,,,,,,,,,,,,,,,,,,,,,,,,,,,,,,,,,,,,,17YE,001,2023_Mar_03_0939,ExactRep-v3-final,2021.2.3,60.00556850327399,
14,0,14,0,,,,,,,,,,,,,,,,,,,,,,,,,,,,,,,,,,,,,,,,,,,,,,,,,,,,,,,,,,,2996.570783500094,None,2998.5730266999453,None,,,,,,,,,,,,,,,,,,,,,,,,,,,,,,,,,,,,,,,,,,,,,,,,,,,,,,,,,,,,,,,,,,,,,,,,,,17YE,001,2023_Mar_03_0939,ExactRep-v3-final,2021.2.3,60.00556850327399,
,,,,,,,,,,,,,,,,,,,,,,,,,,,,,,,,,,,,,,,,,,,,,,,,,,,,,,,,,,,,,,,,,,space,4.209666700102389,3009.189725999953,None,,,,,,,,,,,,,,,,,,,,,,,,,,,,,,,,,,,,,,,,,,,,,,,,,,,,,,,,,,,,,,,,,,,,,,17YE,001,2023_Mar_03_0939,ExactRep-v3-final,2021.2.3,60.00556850327399,
,,,,0,0,0,0,,,,,,,,,,,,,,,,,,,,,,,,,,,,,,,,,,,,,,,,,,,,,,,,,,,,,,,,,3015.4564948999323,None,,,,,2999.223302199971,None,2999.223302199971,None,2999.223302199971,None,2999.223302199971,None,2999.223302199971,None,2999.223302199971,None,3013.456133299973,None,,,,,,,,,,,,,,,,,,,,,,,,,,,,,,,,,,,,,,,,,,,,,,,,,,,,,,,,17YE,001,2023_Mar_03_0939,ExactRep-v3-final,2021.2.3,60.00556850327399,
,,,,1,0,1,0,,,,,,,,,,,,,,,,,,,,,,,,,,,,,,,,,,,,,,,,,,,,,,,,,,,,,,,,,3017.9588560999837,None,,,,,,,,,,,,,,,,,3015.9568588000257,None,,,,,,,,,,,,,,,,,,,,,,,,,,,,,,,,,,,,,,,,,,,,,,,,,,,,,,,,17YE,001,2023_Mar_03_0939,ExactRep-v3-final,2021.2.3,60.00556850327399,
,,,,2,0,2,0,,,,,,,,,,,,,,,,,,,,,,,,,,,,,,,,,,,,,,,,,,,,,,,,,,,,,,,,,3020.4615688999183,None,,,,,,,,,,,,,,,,,3018.4595896000974,None,,,,,,,,,,,,,,,,,,,,,,,,,,,,,,,,,,,,,,,,,,,,,,,,,,,,,,,,17YE,001,2023_Mar_03_0939,ExactRep-v3-final,2021.2.3,60.00556850327399,
,,,,3,0,3,0,,,,,,,,,,,,,,,,,,,,,,,,,,,,,,,,,,,,,,,,,,,,,,,,,,,,,,,,,3022.9638932999223,None,,,,,,,,,,,,,,,,,3020.9620646999683,None,,,,,,,,,,,,,,,,,,,,,,,,,,,,,,,,,,,,,,,,,,,,,,,,,,,,,,,,17YE,001,2023_Mar_03_0939,ExactRep-v3-final,2021.2.3,60.00556850327399,
,,,,4,0,4,0,,,,,,,,,,,,,,,,,,,,,,,,,,,,,,,,,,,,,,,,,,,,,,,,,,,,,,,,,3025.4665157001,None,,,,,,,,,,,,,,,,,3023.4644484000746,None,,,,,,,,,,,,,,,,,,,,,,,,,,,,,,,,,,,,,,,,,,,,,,,,,,,,,,,,17YE,001,2023_Mar_03_0939,ExactRep-v3-final,2021.2.3,60.00556850327399,
,,,,5,0,5,0,,,,,,,,,,,,,,,,,,,,,,,,,,,,,,,,,,,,,,,,,,,,,,,,,,,,,,,,,3027.968853400089,None,,,,,,,,,,,,,,,,,3025.9670520999935,None,,,,,,,,,,,,,,,,,,,,,,,,,,,,,,,,,,,,,,,,,,,,,,,,,,,,,,,,17YE,001,2023_Mar_03_0939,ExactRep-v3-final,2021.2.3,60.00556850327399,
,,,,6,0,6,0,,,,,,,,,,,,,,,,,,,,,,,,,,,,,,,,,,,,,,,,,,,,,,,,,,,,,,,,,3030.471534400014,None,,,,,,,,,,,,,,,,,3028.4691922001075,None,,,,,,,,,,,,,,,,,,,,,,,,,,,,,,,,,,,,,,,,,,,,,,,,,,,,,,,,17YE,001,2023_Mar_03_0939,ExactRep-v3-final,2021.2.3,60.00556850327399,
,,,,7,0,7,0,,,,,,,,,,,,,,,,,,,,,,,,,,,,,,,,,,,,,,,,,,,,,,,,,,,,,,,,,3032.9741092000622,None,,,,,,,,,,,,,,,,,3030.972032400081,None,,,,,,,,,,,,,,,,,,,,,,,,,,,,,,,,,,,,,,,,,,,,,,,,,,,,,,,,17YE,001,2023_Mar_03_0939,ExactRep-v3-final,2021.2.3,60.00556850327399,
,,,,8,0,8,0,,,,,,,,,,,,,,,,,,,,,,,,,,,,,,,,,,,,,,,,,,,,,,,,,,,,,,,,,3035.476509399945,None,,,,,,,,,,,,,,,,,3033.4743769001216,None,,,,,,,,,,,,,,,,,,,,,,,,,,,,,,,,,,,,,,,,,,,,,,,,,,,,,,,,17YE,001,2023_Mar_03_0939,ExactRep-v3-final,2021.2.3,60.00556850327399,
,,,,9,0,9,0,,,,,,,,,,,,,,,,,,,,,,,,,,,,,,,,,,,,,,,,,,,,,,,,,,,,,,,,,3037.9792371001095,None,,,,,,,,,,,,,,,,,3035.9770623000804,None,,,,,,,,,,,,,,,,,,,,,,,,,,,,,,,,,,,,,,,,,,,,,,,,,,,,,,,,17YE,001,2023_Mar_03_0939,ExactRep-v3-final,2021.2.3,60.00556850327399,
,,,,10,0,10,0,,,,,,,,,,,,,,,,,,,,,,,,,,,,,,,,,,,,,,,,,,,,,,,,,,,,,,,,,3040.481348700123,None,,,,,,,,,,,,,,,,,3038.4797183999326,None,,,,,,,,,,,,,,,,,,,,,,,,,,,,,,,,,,,,,,,,,,,,,,,,,,,,,,,,17YE,001,2023_Mar_03_0939,ExactRep-v3-final,2021.2.3,60.00556850327399,
,,,,11,0,11,0,,,,,,,,,,,,,,,,,,,,,,,,,,,,,,,,,,,,,,,,,,,,,,,,,,,,,,,,,3042.9840401001275,None,,,,,,,,,,,,,,,,,3040.981881600106,None,,,,,,,,,,,,,,,,,,,,,,,,,,,,,,,,,,,,,,,,,,,,,,,,,,,,,,,,17YE,001,2023_Mar_03_0939,ExactRep-v3-final,2021.2.3,60.00556850327399,
,,,,12,0,12,0,,,,,,,,,,,,,,,,,,,,,,,,,,,,,,,,,,,,,,,,,,,,,,,,,,,,,,,,,3045.4865606999956,None,,,,,,,,,,,,,,,,,3043.4845416999888,None,,,,,,,,,,,,,,,,,,,,,,,,,,,,,,,,,,,,,,,,,,,,,,,,,,,,,,,,17YE,001,2023_Mar_03_0939,ExactRep-v3-final,2021.2.3,60.00556850327399,
,,,,13,0,13,0,,,,,,,,,,,,,,,,,,,,,,,,,,,,,,,,,,,,,,,,,,,,,,,,,,,,,,,,,3047.989168900065,None,,,,,,,,,,,,,,,,,3045.9870915999636,None,,,,,,,,,,,,,,,,,,,,,,,,,,,,,,,,,,,,,,,,,,,,,,,,,,,,,,,,17YE,001,2023_Mar_03_0939,ExactRep-v3-final,2021.2.3,60.00556850327399,
,,,,14,0,14,0,,,,,,,,,,,,,,,,,,,,,,,,,,,,,,,,,,,,,,,,,,,,,,,,,,,,,,,,,3050.4915593999904,None,,,,,,,,,,,,,,,,,3048.4895766000263,None,,,,,,,,,,,,,,,,,,,,,,,,,,,,,,,,,,,,,,,,,,,,,,,,,,,,,,,,17YE,001,2023_Mar_03_0939,ExactRep-v3-final,2021.2.3,60.00556850327399,
,,,,,,,,,,,,,,,,,,,,,,,,,,,,,,,,,,,,,,,,,,,,,,,,,,,,,,,,,,,,,,,,,,,,,,,,,,,,,,,,,,,,space,17.27159749995917,3061.1521250999067,None,,,,,,,,,,,,,,,,,,,,,,,,,,,,,,,,,,,,,,,,,,,,,,,,,,,,17YE,001,2023_Mar_03_0939,ExactRep-v3-final,2021.2.3,60.00556850327399,
,,,,,,,,0,0,0,0,,,,,,,,,,,,,,,,,,,,,,,,,,,,,,,,,,,,,,,,,,,,,,,,,,,,,3080.504914399935,None,,,,,,,,,,,,,,,,,,,,,,,3051.1648508999497,None,3051.1648508999497,None,3051.1648508999497,None,3051.1648508999497,None,3051.1648508999497,None,3051.1648508999497,None,body,113,1,aloud,white,3078.4968971000053,None,None,3078.4968971000053,None,,,,,,,,,,,,,,,,,,,,,,,,,,,,,,17YE,001,2023_Mar_03_0939,ExactRep-v3-final,2021.2.3,60.00556850327399,
,,,,,,,,1,0,1,0,,,,,,,,,,,,,,,,,,,,,,,,,,,,,,,,,,,,,,,,,,,,,,,,,,,,,3083.007500699954,None,,,,,,,,,,,,,,,,,,,,,,,,,,,,,,,,,,,board,79,2,sing,blue,3081.005259400001,None,None,3081.005259400001,None,,,,,,,,,,,,,,,,,,,,,,,,,,,,,,17YE,001,2023_Mar_03_0939,ExactRep-v3-final,2021.2.3,60.00556850327399,
,,,,,,,,2,0,2,0,,,,,,,,,,,,,,,,,,,,,,,,,,,,,,,,,,,,,,,,,,,,,,,,,,,,,3085.5263918999117,None,,,,,,,,,,,,,,,,,,,,,,,,,,,,,,,,,,,chance,42,3,silent,red,3083.5145866000094,None,None,3083.5145866000094,None,,,,,,,,,,,,,,,,,,,,,,,,,,,,,,17YE,001,2023_Mar_03_0939,ExactRep-v3-final,2021.2.3,60.00556850327399,
,,,,,,,,3,0,3,0,,,,,,,,,,,,,,,,,,,,,,,,,,,,,,,,,,,,,,,,,,,,,,,,,,,,,3088.0456783000845,None,,,,,,,,,,,,,,,,,,,,,,,,,,,,,,,,,,,form,116,4,aloud,white,3086.0433412001003,None,None,3086.0433412001003,None,,,,,,,,,,,,,,,,,,,,,,,,,,,,,,17YE,001,2023_Mar_03_0939,ExactRep-v3-final,2021.2.3,60.00556850327399,
,,,,,,,,4,0,4,0,,,,,,,,,,,,,,,,,,,,,,,,,,,,,,,,,,,,,,,,,,,,,,,,,,,,,3090.548175700009,None,,,,,,,,,,,,,,,,,,,,,,,,,,,,,,,,,,,dawn,30,5,sing,blue,3088.5459785999265,None,None,3088.5459785999265,None,,,,,,,,,,,,,,,,,,,,,,,,,,,,,,17YE,001,2023_Mar_03_0939,ExactRep-v3-final,2021.2.3,60.00556850327399,
,,,,,,,,5,0,5,0,,,,,,,,,,,,,,,,,,,,,,,,,,,,,,,,,,,,,,,,,,,,,,,,,,,,,3093.0674642000813,None,,,,,,,,,,,,,,,,,,,,,,,,,,,,,,,,,,,queen,40,6,silent,red,3091.053568500094,None,None,3091.053568500094,None,,,,,,,,,,,,,,,,,,,,,,,,,,,,,,17YE,001,2023_Mar_03_0939,ExactRep-v3-final,2021.2.3,60.00556850327399,
,,,,,,,,6,0,6,0,,,,,,,,,,,,,,,,,,,,,,,,,,,,,,,,,,,,,,,,,,,,,,,,,,,,,3095.5700153000653,None,,,,,,,,,,,,,,,,,,,,,,,,,,,,,,,,,,,hour,101,7,aloud,white,3093.570364000043,None,None,3093.570364000043,None,,,,,,,,,,,,,,,,,,,,,,,,,,,,,,17YE,001,2023_Mar_03_0939,ExactRep-v3-final,2021.2.3,60.00556850327399,
,,,,,,,,7,0,7,0,,,,,,,,,,,,,,,,,,,,,,,,,,,,,,,,,,,,,,,,,,,,,,,,,,,,,3098.0892211999744,None,,,,,,,,,,,,,,,,,,,,,,,,,,,,,,,,,,,doctor,23,8,sing,blue,3096.0799362999387,None,None,3096.0799362999387,None,,,,,,,,,,,,,,,,,,,,,,,,,,,,,,17YE,001,2023_Mar_03_0939,ExactRep-v3-final,2021.2.3,60.00556850327399,
,,,,,,,,8,0,8,0,,,,,,,,,,,,,,,,,,,,,,,,,,,,,,,,,,,,,,,,,,,,,,,,,,,,,3100.608293999918,None,,,,,,,,,,,,,,,,,,,,,,,,,,,,,,,,,,,memory,75,9,silent,red,3098.5962887001224,None,None,3098.5962887001224,None,,,,,,,,,,,,,,,,,,,,,,,,,,,,,,17YE,001,2023_Mar_03_0939,ExactRep-v3-final,2021.2.3,60.00556850327399,
,,,,,,,,9,0,9,0,,,,,,,,,,,,,,,,,,,,,,,,,,,,,,,,,,,,,,,,,,,,,,,,,,,,,3103.1108733001165,None,,,,,,,,,,,,,,,,,,,,,,,,,,,,,,,,,,,length,107,10,aloud,white,3101.1088330999482,None,None,3101.1088330999482,None,,,,,,,,,,,,,,,,,,,,,,,,,,,,,,17YE,001,2023_Mar_03_0939,ExactRep-v3-final,2021.2.3,60.00556850327399,
,,,,,,,,10,0,10,0,,,,,,,,,,,,,,,,,,,,,,,,,,,,,,,,,,,,,,,,,,,,,,,,,,,,,3105.629837699933,None,,,,,,,,,,,,,,,,,,,,,,,,,,,,,,,,,,,kiss,17,11,sing,blue,3103.6202352999244,None,None,3103.6202352999244,None,,,,,,,,,,,,,,,,,,,,,,,,,,,,,,17YE,001,2023_Mar_03_0939,ExactRep-v3-final,2021.2.3,60.00556850327399,
,,,,,,,,11,0,11,0,,,,,,,,,,,,,,,,,,,,,,,,,,,,,,,,,,,,,,,,,,,,,,,,,,,,,3108.1491207999643,None,,,,,,,,,,,,,,,,,,,,,,,,,,,,,,,,,,,judge,1,12,sing,blue,3106.1391630000435,None,None,3106.1391630000435,None,,,,,,,,,,,,,,,,,,,,,,,,,,,,,,17YE,001,2023_Mar_03_0939,ExactRep-v3-final,2021.2.3,60.00556850327399,
,,,,,,,,12,0,12,0,,,,,,,,,,,,,,,,,,,,,,,,,,,,,,,,,,,,,,,,,,,,,,,,,,,,,3110.668459000066,None,,,,,,,,,,,,,,,,,,,,,,,,,,,,,,,,,,,shadow,16,13,sing,blue,3108.6620193000417,None,None,3108.6620193000417,None,,,,,,,,,,,,,,,,,,,,,,,,,,,,,,17YE,001,2023_Mar_03_0939,ExactRep-v3-final,2021.2.3,60.00556850327399,
,,,,,,,,13,0,13,0,,,,,,,,,,,,,,,,,,,,,,,,,,,,,,,,,,,,,,,,,,,,,,,,,,,,,3113.1709543000907,None,,,,,,,,,,,,,,,,,,,,,,,,,,,,,,,,,,,mercy,69,14,silent,red,3111.1718786000274,None,None,3111.1718786000274,None,,,,,,,,,,,,,,,,,,,,,,,,,,,,,,17YE,001,2023_Mar_03_0939,ExactRep-v3-final,2021.2.3,60.00556850327399,
,,,,,,,,14,0,14,0,,,,,,,,,,,,,,,,,,,,,,,,,,,,,,,,,,,,,,,,,,,,,,,,,,,,,3115.6731926999055,None,,,,,,,,,,,,,,,,,,,,,,,,,,,,,,,,,,,hotel,21,15,sing,blue,3113.673141000094,None,None,3113.673141000094,None,,,,,,,,,,,,,,,,,,,,,,,,,,,,,,17YE,001,2023_Mar_03_0939,ExactRep-v3-final,2021.2.3,60.00556850327399,
,,,,,,,,15,0,15,0,,,,,,,,,,,,,,,,,,,,,,,,,,,,,,,,,,,,,,,,,,,,,,,,,,,,,3118.1926130999345,None,,,,,,,,,,,,,,,,,,,,,,,,,,,,,,,,,,,green,0,16,sing,blue,3116.182454700116,None,None,3116.182454700116,None,,,,,,,,,,,,,,,,,,,,,,,,,,,,,,17YE,001,2023_Mar_03_0939,ExactRep-v3-final,2021.2.3,60.00556850327399,
,,,,,,,,16,0,16,0,,,,,,,,,,,,,,,,,,,,,,,,,,,,,,,,,,,,,,,,,,,,,,,,,,,,,3120.6951649000403,None,,,,,,,,,,,,,,,,,,,,,,,,,,,,,,,,,,,string,96,17,aloud,white,3118.6928016999736,None,None,3118.6928016999736,None,,,,,,,,,,,,,,,,,,,,,,,,,,,,,,17YE,001,2023_Mar_03_0939,ExactRep-v3-final,2021.2.3,60.00556850327399,
,,,,,,,,17,0,17,0,,,,,,,,,,,,,,,,,,,,,,,,,,,,,,,,,,,,,,,,,,,,,,,,,,,,,3123.197555300081,None,,,,,,,,,,,,,,,,,,,,,,,,,,,,,,,,,,,blossom,25,18,sing,blue,3121.198502100073,None,None,3121.198502100073,None,,,,,,,,,,,,,,,,,,,,,,,,,,,,,,17YE,001,2023_Mar_03_0939,ExactRep-v3-final,2021.2.3,60.00556850327399,
,,,,,,,,18,0,18,0,,,,,,,,,,,,,,,,,,,,,,,,,,,,,,,,,,,,,,,,,,,,,,,,,,,,,3125.7001014999114,None,,,,,,,,,,,,,,,,,,,,,,,,,,,,,,,,,,,student,33,19,sing,blue,3123.699708600063,None,None,3123.699708600063,None,,,,,,,,,,,,,,,,,,,,,,,,,,,,,,17YE,001,2023_Mar_03_0939,ExactRep-v3-final,2021.2.3,60.00556850327399,
,,,,,,,,19,0,19,0,,,,,,,,,,,,,,,,,,,,,,,,,,,,,,,,,,,,,,,,,,,,,,,,,,,,,3128.2193376000505,None,,,,,,,,,,,,,,,,,,,,,,,,,,,,,,,,,,,heaven,108,20,aloud,white,3126.21107989992,None,None,3126.21107989992,None,,,,,,,,,,,,,,,,,,,,,,,,,,,,,,17YE,001,2023_Mar_03_0939,ExactRep-v3-final,2021.2.3,60.00556850327399,
,,,,,,,,20,0,20,0,,,,,,,,,,,,,,,,,,,,,,,,,,,,,,,,,,,,,,,,,,,,,,,,,,,,,3130.721747700125,None,,,,,,,,,,,,,,,,,,,,,,,,,,,,,,,,,,,weapon,34,21,sing,blue,3128.7222345001064,None,None,3128.7222345001064,None,,,,,,,,,,,,,,,,,,,,,,,,,,,,,,17YE,001,2023_Mar_03_0939,ExactRep-v3-final,2021.2.3,60.00556850327399,
,,,,,,,,21,0,21,0,,,,,,,,,,,,,,,,,,,,,,,,,,,,,,,,,,,,,,,,,,,,,,,,,,,,,3133.240791300079,None,,,,,,,,,,,,,,,,,,,,,,,,,,,,,,,,,,,star,98,22,aloud,white,3131.2308901001234,None,None,3131.2308901001234,None,,,,,,,,,,,,,,,,,,,,,,,,,,,,,,17YE,001,2023_Mar_03_0939,ExactRep-v3-final,2021.2.3,60.00556850327399,
,,,,,,,,22,0,22,0,,,,,,,,,,,,,,,,,,,,,,,,,,,,,,,,,,,,,,,,,,,,,,,,,,,,,3135.7432746000122,None,,,,,,,,,,,,,,,,,,,,,,,,,,,,,,,,,,,circle,105,23,aloud,white,3133.741305900039,None,None,3133.741305900039,None,,,,,,,,,,,,,,,,,,,,,,,,,,,,,,17YE,001,2023_Mar_03_0939,ExactRep-v3-final,2021.2.3,60.00556850327399,
,,,,,,,,23,0,23,0,,,,,,,,,,,,,,,,,,,,,,,,,,,,,,,,,,,,,,,,,,,,,,,,,,,,,3138.2626378999557,None,,,,,,,,,,,,,,,,,,,,,,,,,,,,,,,,,,,water,8,24,sing,blue,3136.2506184999365,None,None,3136.2506184999365,None,,,,,,,,,,,,,,,,,,,,,,,,,,,,,,17YE,001,2023_Mar_03_0939,ExactRep-v3-final,2021.2.3,60.00556850327399,
,,,,,,,,24,0,24,0,,,,,,,,,,,,,,,,,,,,,,,,,,,,,,,,,,,,,,,,,,,,,,,,,,,,,3140.765166199999,None,,,,,,,,,,,,,,,,,,,,,,,,,,,,,,,,,,,bottle,78,25,silent,red,3138.7649117999244,None,None,3138.7649117999244,None,,,,,,,,,,,,,,,,,,,,,,,,,,,,,,17YE,001,2023_Mar_03_0939,ExactRep-v3-final,2021.2.3,60.00556850327399,
,,,,,,,,25,0,25,0,,,,,,,,,,,,,,,,,,,,,,,,,,,,,,,,,,,,,,,,,,,,,,,,,,,,,3143.2676184000447,None,,,,,,,,,,,,,,,,,,,,,,,,,,,,,,,,,,,series,52,26,silent,red,3141.265459399903,None,None,3141.265459399903,None,,,,,,,,,,,,,,,,,,,,,,,,,,,,,,17YE,001,2023_Mar_03_0939,ExactRep-v3-final,2021.2.3,60.00556850327399,
,,,,,,,,26,0,26,0,,,,,,,,,,,,,,,,,,,,,,,,,,,,,,,,,,,,,,,,,,,,,,,,,,,,,3145.7702971999533,None,,,,,,,,,,,,,,,,,,,,,,,,,,,,,,,,,,,shock,38,27,sing,blue,3143.7698546000756,None,None,3143.7698546000756,None,,,,,,,,,,,,,,,,,,,,,,,,,,,,,,17YE,001,2023_Mar_03_0939,ExactRep-v3-final,2021.2.3,60.00556850327399,
,,,,,,,,27,0,27,0,,,,,,,,,,,,,,,,,,,,,,,,,,,,,,,,,,,,,,,,,,,,,,,,,,,,,3148.272539000027,None,,,,,,,,,,,,,,,,,,,,,,,,,,,,,,,,,,,iron,103,28,aloud,white,3146.2721400999,None,None,3146.2721400999,None,,,,,,,,,,,,,,,,,,,,,,,,,,,,,,17YE,001,2023_Mar_03_0939,ExactRep-v3-final,2021.2.3,60.00556850327399,
,,,,,,,,28,0,28,0,,,,,,,,,,,,,,,,,,,,,,,,,,,,,,,,,,,,,,,,,,,,,,,,,,,,,3150.791814700002,None,,,,,,,,,,,,,,,,,,,,,,,,,,,,,,,,,,,flesh,59,29,silent,red,3148.778719899943,None,None,3148.778719899943,None,,,,,,,,,,,,,,,,,,,,,,,,,,,,,,17YE,001,2023_Mar_03_0939,ExactRep-v3-final,2021.2.3,60.00556850327399,
,,,,,,,,29,0,29,0,,,,,,,,,,,,,,,,,,,,,,,,,,,,,,,,,,,,,,,,,,,,,,,,,,,,,3153.2943150000647,None,,,,,,,,,,,,,,,,,,,,,,,,,,,,,,,,,,,bird,89,30,aloud,white,3151.2923385999165,None,None,3151.2923385999165,None,,,,,,,,,,,,,,,,,,,,,,,,,,,,,,17YE,001,2023_Mar_03_0939,ExactRep-v3-final,2021.2.3,60.00556850327399,
,,,,,,,,30,0,30,0,,,,,,,,,,,,,,,,,,,,,,,,,,,,,,,,,,,,,,,,,,,,,,,,,,,,,3155.7968347000424,None,,,,,,,,,,,,,,,,,,,,,,,,,,,,,,,,,,,science,27,31,sing,blue,3153.7950534000993,None,None,3153.7950534000993,None,,,,,,,,,,,,,,,,,,,,,,,,,,,,,,17YE,001,2023_Mar_03_0939,ExactRep-v3-final,2021.2.3,60.00556850327399,
,,,,,,,,31,0,31,0,,,,,,,,,,,,,,,,,,,,,,,,,,,,,,,,,,,,,,,,,,,,,,,,,,,,,3158.2993330999743,None,,,,,,,,,,,,,,,,,,,,,,,,,,,,,,,,,,,devil,50,32,silent,red,3156.298114400124,None,None,3156.298114400124,None,,,,,,,,,,,,,,,,,,,,,,,,,,,,,,17YE,001,2023_Mar_03_0939,ExactRep-v3-final,2021.2.3,60.00556850327399,
,,,,,,,,32,0,32,0,,,,,,,,,,,,,,,,,,,,,,,,,,,,,,,,,,,,,,,,,,,,,,,,,,,,,3160.80193600012,None,,,,,,,,,,,,,,,,,,,,,,,,,,,,,,,,,,,house,58,33,silent,red,3158.802639800124,None,None,3158.802639800124,None,,,,,,,,,,,,,,,,,,,,,,,,,,,,,,17YE,001,2023_Mar_03_0939,ExactRep-v3-final,2021.2.3,60.00556850327399,
,,,,,,,,33,0,33,0,,,,,,,,,,,,,,,,,,,,,,,,,,,,,,,,,,,,,,,,,,,,,,,,,,,,,3163.304471099982,None,,,,,,,,,,,,,,,,,,,,,,,,,,,,,,,,,,,meadow,24,34,sing,blue,3161.303055400029,None,None,3161.303055400029,None,,,,,,,,,,,,,,,,,,,,,,,,,,,,,,17YE,001,2023_Mar_03_0939,ExactRep-v3-final,2021.2.3,60.00556850327399,
,,,,,,,,34,0,34,0,,,,,,,,,,,,,,,,,,,,,,,,,,,,,,,,,,,,,,,,,,,,,,,,,,,,,3165.80691309995,None,,,,,,,,,,,,,,,,,,,,,,,,,,,,,,,,,,,air,83,35,aloud,white,3163.8065804000944,None,None,3163.8065804000944,None,,,,,,,,,,,,,,,,,,,,,,,,,,,,,,17YE,001,2023_Mar_03_0939,ExactRep-v3-final,2021.2.3,60.00556850327399,
,,,,,,,,35,0,35,0,,,,,,,,,,,,,,,,,,,,,,,,,,,,,,,,,,,,,,,,,,,,,,,,,,,,,3168.3260806000326,None,,,,,,,,,,,,,,,,,,,,,,,,,,,,,,,,,,,time,63,36,silent,red,3166.311039400054,None,None,3166.311039400054,None,,,,,,,,,,,,,,,,,,,,,,,,,,,,,,17YE,001,2023_Mar_03_0939,ExactRep-v3-final,2021.2.3,60.00556850327399,
,,,,,,,,36,0,36,0,,,,,,,,,,,,,,,,,,,,,,,,,,,,,,,,,,,,,,,,,,,,,,,,,,,,,3170.8451924999245,None,,,,,,,,,,,,,,,,,,,,,,,,,,,,,,,,,,,window,2,37,sing,blue,3168.8371788000222,None,None,3168.8371788000222,None,,,,,,,,,,,,,,,,,,,,,,,,,,,,,,17YE,001,2023_Mar_03_0939,ExactRep-v3-final,2021.2.3,60.00556850327399,
,,,,,,,,37,0,37,0,,,,,,,,,,,,,,,,,,,,,,,,,,,,,,,,,,,,,,,,,,,,,,,,,,,,,3173.3477833999787,None,,,,,,,,,,,,,,,,,,,,,,,,,,,,,,,,,,,murder,32,38,sing,blue,3171.3454642998986,None,None,3171.3454642998986,None,,,,,,,,,,,,,,,,,,,,,,,,,,,,,,17YE,001,2023_Mar_03_0939,ExactRep-v3-final,2021.2.3,60.00556850327399,
,,,,,,,,38,0,38,0,,,,,,,,,,,,,,,,,,,,,,,,,,,,,,,,,,,,,,,,,,,,,,,,,,,,,3175.850293100113,None,,,,,,,,,,,,,,,,,,,,,,,,,,,,,,,,,,,book,20,39,sing,blue,3173.850891200127,None,None,3173.850891200127,None,,,,,,,,,,,,,,,,,,,,,,,,,,,,,,17YE,001,2023_Mar_03_0939,ExactRep-v3-final,2021.2.3,60.00556850327399,
,,,,,,,,39,0,39,0,,,,,,,,,,,,,,,,,,,,,,,,,,,,,,,,,,,,,,,,,,,,,,,,,,,,,3178.369445200078,None,,,,,,,,,,,,,,,,,,,,,,,,,,,,,,,,,,,plain,82,40,aloud,white,3176.3565485000145,None,None,3176.3565485000145,None,,,,,,,,,,,,,,,,,,,,,,,,,,,,,,17YE,001,2023_Mar_03_0939,ExactRep-v3-final,2021.2.3,60.00556850327399,
,,,,,,,,40,0,40,0,,,,,,,,,,,,,,,,,,,,,,,,,,,,,,,,,,,,,,,,,,,,,,,,,,,,,3180.8884745000396,None,,,,,,,,,,,,,,,,,,,,,,,,,,,,,,,,,,,fault,15,41,sing,blue,3178.8733387000393,None,None,3178.8733387000393,None,,,,,,,,,,,,,,,,,,,,,,,,,,,,,,17YE,001,2023_Mar_03_0939,ExactRep-v3-final,2021.2.3,60.00556850327399,
,,,,,,,,41,0,41,0,,,,,,,,,,,,,,,,,,,,,,,,,,,,,,,,,,,,,,,,,,,,,,,,,,,,,3183.3909503999166,None,,,,,,,,,,,,,,,,,,,,,,,,,,,,,,,,,,,stone,36,42,sing,blue,3181.3891100001056,None,None,3181.3891100001056,None,,,,,,,,,,,,,,,,,,,,,,,,,,,,,,17YE,001,2023_Mar_03_0939,ExactRep-v3-final,2021.2.3,60.00556850327399,
,,,,,,,,42,0,42,0,,,,,,,,,,,,,,,,,,,,,,,,,,,,,,,,,,,,,,,,,,,,,,,,,,,,,3185.893452499993,None,,,,,,,,,,,,,,,,,,,,,,,,,,,,,,,,,,,steam,81,43,aloud,white,3183.8914950999897,None,None,3183.8914950999897,None,,,,,,,,,,,,,,,,,,,,,,,,,,,,,,17YE,001,2023_Mar_03_0939,ExactRep-v3-final,2021.2.3,60.00556850327399,
,,,,,,,,43,0,43,0,,,,,,,,,,,,,,,,,,,,,,,,,,,,,,,,,,,,,,,,,,,,,,,,,,,,,3188.3960941999685,None,,,,,,,,,,,,,,,,,,,,,,,,,,,,,,,,,,,season,72,44,silent,red,3186.3939436001237,None,None,3186.3939436001237,None,,,,,,,,,,,,,,,,,,,,,,,,,,,,,,17YE,001,2023_Mar_03_0939,ExactRep-v3-final,2021.2.3,60.00556850327399,
,,,,,,,,44,0,44,0,,,,,,,,,,,,,,,,,,,,,,,,,,,,,,,,,,,,,,,,,,,,,,,,,,,,,3190.9153036000207,None,,,,,,,,,,,,,,,,,,,,,,,,,,,,,,,,,,,village,114,45,aloud,white,3188.907396499999,None,None,3188.907396499999,None,,,,,,,,,,,,,,,,,,,,,,,,,,,,,,17YE,001,2023_Mar_03_0939,ExactRep-v3-final,2021.2.3,60.00556850327399,
,,,,,,,,45,0,45,0,,,,,,,,,,,,,,,,,,,,,,,,,,,,,,,,,,,,,,,,,,,,,,,,,,,,,3193.4178013000637,None,,,,,,,,,,,,,,,,,,,,,,,,,,,,,,,,,,,grass,94,46,aloud,white,3191.4176519000903,None,None,3191.4176519000903,None,,,,,,,,,,,,,,,,,,,,,,,,,,,,,,17YE,001,2023_Mar_03_0939,ExactRep-v3-final,2021.2.3,60.00556850327399,
,,,,,,,,46,0,46,0,,,,,,,,,,,,,,,,,,,,,,,,,,,,,,,,,,,,,,,,,,,,,,,,,,,,,3195.9200210999697,None,,,,,,,,,,,,,,,,,,,,,,,,,,,,,,,,,,,horse,109,47,aloud,white,3193.91998529993,None,None,3193.91998529993,None,,,,,,,,,,,,,,,,,,,,,,,,,,,,,,17YE,001,2023_Mar_03_0939,ExactRep-v3-final,2021.2.3,60.00556850327399,
,,,,,,,,47,0,47,0,,,,,,,,,,,,,,,,,,,,,,,,,,,,,,,,,,,,,,,,,,,,,,,,,,,,,3198.4228326999582,None,,,,,,,,,,,,,,,,,,,,,,,,,,,,,,,,,,,woods,26,48,sing,blue,3196.4206988001242,None,None,3196.4206988001242,None,,,,,,,,,,,,,,,,,,,,,,,,,,,,,,17YE,001,2023_Mar_03_0939,ExactRep-v3-final,2021.2.3,60.00556850327399,
,,,,,,,,48,0,48,0,,,,,,,,,,,,,,,,,,,,,,,,,,,,,,,,,,,,,,,,,,,,,,,,,,,,,3200.9420775999315,None,,,,,,,,,,,,,,,,,,,,,,,,,,,,,,,,,,,coffee,68,49,silent,red,3198.9264793999027,None,None,3198.9264793999027,None,,,,,,,,,,,,,,,,,,,,,,,,,,,,,,17YE,001,2023_Mar_03_0939,ExactRep-v3-final,2021.2.3,60.00556850327399,
,,,,,,,,49,0,49,0,,,,,,,,,,,,,,,,,,,,,,,,,,,,,,,,,,,,,,,,,,,,,,,,,,,,,3203.4445092000533,None,,,,,,,,,,,,,,,,,,,,,,,,,,,,,,,,,,,arm,35,50,sing,blue,3201.4424858998973,None,None,3201.4424858998973,None,,,,,,,,,,,,,,,,,,,,,,,,,,,,,,17YE,001,2023_Mar_03_0939,ExactRep-v3-final,2021.2.3,60.00556850327399,
,,,,,,,,50,0,50,0,,,,,,,,,,,,,,,,,,,,,,,,,,,,,,,,,,,,,,,,,,,,,,,,,,,,,3205.9634370000567,None,,,,,,,,,,,,,,,,,,,,,,,,,,,,,,,,,,,river,119,51,aloud,white,3203.9484616001137,None,None,3203.9484616001137,None,,,,,,,,,,,,,,,,,,,,,,,,,,,,,,17YE,001,2023_Mar_03_0939,ExactRep-v3-final,2021.2.3,60.00556850327399,
,,,,,,,,51,0,51,0,,,,,,,,,,,,,,,,,,,,,,,,,,,,,,,,,,,,,,,,,,,,,,,,,,,,,3208.4828596001025,None,,,,,,,,,,,,,,,,,,,,,,,,,,,,,,,,,,,present,85,52,aloud,white,3206.4692840999924,None,None,3206.4692840999924,None,,,,,,,,,,,,,,,,,,,,,,,,,,,,,,17YE,001,2023_Mar_03_0939,ExactRep-v3-final,2021.2.3,60.00556850327399,
,,,,,,,,52,0,52,0,,,,,,,,,,,,,,,,,,,,,,,,,,,,,,,,,,,,,,,,,,,,,,,,,,,,,3210.9855043001007,None,,,,,,,,,,,,,,,,,,,,,,,,,,,,,,,,,,,college,95,53,aloud,white,3208.985099900048,None,None,3208.985099900048,None,,,,,,,,,,,,,,,,,,,,,,,,,,,,,,17YE,001,2023_Mar_03_0939,ExactRep-v3-final,2021.2.3,60.00556850327399,
,,,,,,,,53,0,53,0,,,,,,,,,,,,,,,,,,,,,,,,,,,,,,,,,,,,,,,,,,,,,,,,,,,,,3213.5044174001087,None,,,,,,,,,,,,,,,,,,,,,,,,,,,,,,,,,,,passion,104,54,aloud,white,3211.4942582000513,None,None,3211.4942582000513,None,,,,,,,,,,,,,,,,,,,,,,,,,,,,,,17YE,001,2023_Mar_03_0939,ExactRep-v3-final,2021.2.3,60.00556850327399,
,,,,,,,,54,0,54,0,,,,,,,,,,,,,,,,,,,,,,,,,,,,,,,,,,,,,,,,,,,,,,,,,,,,,3216.006891200086,None,,,,,,,,,,,,,,,,,,,,,,,,,,,,,,,,,,,flower,76,55,silent,red,3214.005000800127,None,None,3214.005000800127,None,,,,,,,,,,,,,,,,,,,,,,,,,,,,,,17YE,001,2023_Mar_03_0939,ExactRep-v3-final,2021.2.3,60.00556850327399,
,,,,,,,,55,0,55,0,,,,,,,,,,,,,,,,,,,,,,,,,,,,,,,,,,,,,,,,,,,,,,,,,,,,,3218.509454800049,None,,,,,,,,,,,,,,,,,,,,,,,,,,,,,,,,,,,engine,7,56,sing,blue,3216.507379699964,None,None,3216.507379699964,None,,,,,,,,,,,,,,,,,,,,,,,,,,,,,,17YE,001,2023_Mar_03_0939,ExactRep-v3-final,2021.2.3,60.00556850327399,
,,,,,,,,56,0,56,0,,,,,,,,,,,,,,,,,,,,,,,,,,,,,,,,,,,,,,,,,,,,,,,,,,,,,3221.0287299000192,None,,,,,,,,,,,,,,,,,,,,,,,,,,,,,,,,,,,sky,48,57,silent,red,3219.0176613999065,None,None,3219.0176613999065,None,,,,,,,,,,,,,,,,,,,,,,,,,,,,,,17YE,001,2023_Mar_03_0939,ExactRep-v3-final,2021.2.3,60.00556850327399,
,,,,,,,,57,0,57,0,,,,,,,,,,,,,,,,,,,,,,,,,,,,,,,,,,,,,,,,,,,,,,,,,,,,,3223.5312391999178,None,,,,,,,,,,,,,,,,,,,,,,,,,,,,,,,,,,,picture,47,58,silent,red,3221.530037800083,None,None,3221.530037800083,None,,,,,,,,,,,,,,,,,,,,,,,,,,,,,,17YE,001,2023_Mar_03_0939,ExactRep-v3-final,2021.2.3,60.00556850327399,
,,,,,,,,58,0,58,0,,,,,,,,,,,,,,,,,,,,,,,,,,,,,,,,,,,,,,,,,,,,,,,,,,,,,3226.033790699905,None,,,,,,,,,,,,,,,,,,,,,,,,,,,,,,,,,,,product,14,59,sing,blue,3224.034297300037,None,None,3224.034297300037,None,,,,,,,,,,,,,,,,,,,,,,,,,,,,,,17YE,001,2023_Mar_03_0939,ExactRep-v3-final,2021.2.3,60.00556850327399,
,,,,,,,,59,0,59,0,,,,,,,,,,,,,,,,,,,,,,,,,,,,,,,,,,,,,,,,,,,,,,,,,,,,,3228.5362778001,None,,,,,,,,,,,,,,,,,,,,,,,,,,,,,,,,,,,child,12,60,sing,blue,3226.5370026999153,None,None,3226.5370026999153,None,,,,,,,,,,,,,,,,,,,,,,,,,,,,,,17YE,001,2023_Mar_03_0939,ExactRep-v3-final,2021.2.3,60.00556850327399,
,,,,,,,,60,0,60,0,,,,,,,,,,,,,,,,,,,,,,,,,,,,,,,,,,,,,,,,,,,,,,,,,,,,,3231.055427599931,None,,,,,,,,,,,,,,,,,,,,,,,,,,,,,,,,,,,spirit,102,61,aloud,white,3229.0398490000516,None,None,3229.0398490000516,None,,,,,,,,,,,,,,,,,,,,,,,,,,,,,,17YE,001,2023_Mar_03_0939,ExactRep-v3-final,2021.2.3,60.00556850327399,
,,,,,,,,61,0,61,0,,,,,,,,,,,,,,,,,,,,,,,,,,,,,,,,,,,,,,,,,,,,,,,,,,,,,3233.5580635999795,None,,,,,,,,,,,,,,,,,,,,,,,,,,,,,,,,,,,army,111,62,aloud,white,3231.5557667000685,None,None,3231.5557667000685,None,,,,,,,,,,,,,,,,,,,,,,,,,,,,,,17YE,001,2023_Mar_03_0939,ExactRep-v3-final,2021.2.3,60.00556850327399,
,,,,,,,,62,0,62,0,,,,,,,,,,,,,,,,,,,,,,,,,,,,,,,,,,,,,,,,,,,,,,,,,,,,,3236.0604705000296,None,,,,,,,,,,,,,,,,,,,,,,,,,,,,,,,,,,,potato,9,63,sing,blue,3234.058409499936,None,None,3234.058409499936,None,,,,,,,,,,,,,,,,,,,,,,,,,,,,,,17YE,001,2023_Mar_03_0939,ExactRep-v3-final,2021.2.3,60.00556850327399,
,,,,,,,,63,0,63,0,,,,,,,,,,,,,,,,,,,,,,,,,,,,,,,,,,,,,,,,,,,,,,,,,,,,,3238.5796461999416,None,,,,,,,,,,,,,,,,,,,,,,,,,,,,,,,,,,,master,87,64,aloud,white,3236.565167200053,None,None,3236.565167200053,None,,,,,,,,,,,,,,,,,,,,,,,,,,,,,,17YE,001,2023_Mar_03_0939,ExactRep-v3-final,2021.2.3,60.00556850327399,
,,,,,,,,64,0,64,0,,,,,,,,,,,,,,,,,,,,,,,,,,,,,,,,,,,,,,,,,,,,,,,,,,,,,3241.0988475000486,None,,,,,,,,,,,,,,,,,,,,,,,,,,,,,,,,,,,vision,41,65,silent,red,3239.0845723999664,None,None,3239.0845723999664,None,,,,,,,,,,,,,,,,,,,,,,,,,,,,,,17YE,001,2023_Mar_03_0939,ExactRep-v3-final,2021.2.3,60.00556850327399,
,,,,,,,,65,0,65,0,,,,,,,,,,,,,,,,,,,,,,,,,,,,,,,,,,,,,,,,,,,,,,,,,,,,,3243.6180026000366,None,,,,,,,,,,,,,,,,,,,,,,,,,,,,,,,,,,,person,100,66,aloud,white,3241.6040564998984,None,None,3241.6040564998984,None,,,,,,,,,,,,,,,,,,,,,,,,,,,,,,17YE,001,2023_Mar_03_0939,ExactRep-v3-final,2021.2.3,60.00556850327399,
,,,,,,,,66,0,66,0,,,,,,,,,,,,,,,,,,,,,,,,,,,,,,,,,,,,,,,,,,,,,,,,,,,,,3246.120602699928,None,,,,,,,,,,,,,,,,,,,,,,,,,,,,,,,,,,,blood,10,67,sing,blue,3244.119309599977,None,None,3244.119309599977,None,,,,,,,,,,,,,,,,,,,,,,,,,,,,,,17YE,001,2023_Mar_03_0939,ExactRep-v3-final,2021.2.3,60.00556850327399,
,,,,,,,,67,0,67,0,,,,,,,,,,,,,,,,,,,,,,,,,,,,,,,,,,,,,,,,,,,,,,,,,,,,,3248.623089700006,None,,,,,,,,,,,,,,,,,,,,,,,,,,,,,,,,,,,woman,71,68,silent,red,3246.622801200021,None,None,3246.622801200021,None,,,,,,,,,,,,,,,,,,,,,,,,,,,,,,17YE,001,2023_Mar_03_0939,ExactRep-v3-final,2021.2.3,60.00556850327399,
,,,,,,,,68,0,68,0,,,,,,,,,,,,,,,,,,,,,,,,,,,,,,,,,,,,,,,,,,,,,,,,,,,,,3251.142818399938,None,,,,,,,,,,,,,,,,,,,,,,,,,,,,,,,,,,,home,91,69,aloud,white,3249.1323802999686,None,None,3249.1323802999686,None,,,,,,,,,,,,,,,,,,,,,,,,,,,,,,17YE,001,2023_Mar_03_0939,ExactRep-v3-final,2021.2.3,60.00556850327399,
,,,,,,,,69,0,69,0,,,,,,,,,,,,,,,,,,,,,,,,,,,,,,,,,,,,,,,,,,,,,,,,,,,,,3253.644521099981,None,,,,,,,,,,,,,,,,,,,,,,,,,,,,,,,,,,,wife,29,70,sing,blue,3251.6425938000903,None,None,3251.6425938000903,None,,,,,,,,,,,,,,,,,,,,,,,,,,,,,,17YE,001,2023_Mar_03_0939,ExactRep-v3-final,2021.2.3,60.00556850327399,
,,,,,,,,70,0,70,0,,,,,,,,,,,,,,,,,,,,,,,,,,,,,,,,,,,,,,,,,,,,,,,,,,,,,3256.1639276000205,None,,,,,,,,,,,,,,,,,,,,,,,,,,,,,,,,,,,slave,6,71,sing,blue,3254.152453100076,None,None,3254.152453100076,None,,,,,,,,,,,,,,,,,,,,,,,,,,,,,,17YE,001,2023_Mar_03_0939,ExactRep-v3-final,2021.2.3,60.00556850327399,
,,,,,,,,71,0,71,0,,,,,,,,,,,,,,,,,,,,,,,,,,,,,,,,,,,,,,,,,,,,,,,,,,,,,3258.666308300104,None,,,,,,,,,,,,,,,,,,,,,,,,,,,,,,,,,,,amount,65,72,silent,red,3256.6651729000732,None,None,3256.6651729000732,None,,,,,,,,,,,,,,,,,,,,,,,,,,,,,,17YE,001,2023_Mar_03_0939,ExactRep-v3-final,2021.2.3,60.00556850327399,
,,,,,,,,72,0,72,0,,,,,,,,,,,,,,,,,,,,,,,,,,,,,,,,,,,,,,,,,,,,,,,,,,,,,3261.1689192000777,None,,,,,,,,,,,,,,,,,,,,,,,,,,,,,,,,,,,fun,39,73,silent,red,3259.1667311000638,None,None,3259.1667311000638,None,,,,,,,,,,,,,,,,,,,,,,,,,,,,,,17YE,001,2023_Mar_03_0939,ExactRep-v3-final,2021.2.3,60.00556850327399,
,,,,,,,,73,0,73,0,,,,,,,,,,,,,,,,,,,,,,,,,,,,,,,,,,,,,,,,,,,,,,,,,,,,,3263.671410799958,None,,,,,,,,,,,,,,,,,,,,,,,,,,,,,,,,,,,shore,64,74,silent,red,3261.669192600064,None,None,3261.669192600064,None,,,,,,,,,,,,,,,,,,,,,,,,,,,,,,17YE,001,2023_Mar_03_0939,ExactRep-v3-final,2021.2.3,60.00556850327399,
,,,,,,,,74,0,74,0,,,,,,,,,,,,,,,,,,,,,,,,,,,,,,,,,,,,,,,,,,,,,,,,,,,,,3266.1906163000967,None,,,,,,,,,,,,,,,,,,,,,,,,,,,,,,,,,,,garden,54,75,silent,red,3264.174982199911,None,None,3264.174982199911,None,,,,,,,,,,,,,,,,,,,,,,,,,,,,,,17YE,001,2023_Mar_03_0939,ExactRep-v3-final,2021.2.3,60.00556850327399,
,,,,,,,,75,0,75,0,,,,,,,,,,,,,,,,,,,,,,,,,,,,,,,,,,,,,,,,,,,,,,,,,,,,,3268.7097243999597,None,,,,,,,,,,,,,,,,,,,,,,,,,,,,,,,,,,,quality,74,76,silent,red,3266.696730100084,None,None,3266.696730100084,None,,,,,,,,,,,,,,,,,,,,,,,,,,,,,,17YE,001,2023_Mar_03_0939,ExactRep-v3-final,2021.2.3,60.00556850327399,
,,,,,,,,76,0,76,0,,,,,,,,,,,,,,,,,,,,,,,,,,,,,,,,,,,,,,,,,,,,,,,,,,,,,3271.2123805000447,None,,,,,,,,,,,,,,,,,,,,,,,,,,,,,,,,,,,metal,28,77,sing,blue,3269.210262699984,None,None,3269.210262699984,None,,,,,,,,,,,,,,,,,,,,,,,,,,,,,,17YE,001,2023_Mar_03_0939,ExactRep-v3-final,2021.2.3,60.00556850327399,
,,,,,,,,77,0,77,0,,,,,,,,,,,,,,,,,,,,,,,,,,,,,,,,,,,,,,,,,,,,,,,,,,,,,3273.714798500063,None,,,,,,,,,,,,,,,,,,,,,,,,,,,,,,,,,,,ticket,19,78,sing,blue,3271.7127002000343,None,None,3271.7127002000343,None,,,,,,,,,,,,,,,,,,,,,,,,,,,,,,17YE,001,2023_Mar_03_0939,ExactRep-v3-final,2021.2.3,60.00556850327399,
,,,,,,,,78,0,78,0,,,,,,,,,,,,,,,,,,,,,,,,,,,,,,,,,,,,,,,,,,,,,,,,,,,,,3276.234039500123,None,,,,,,,,,,,,,,,,,,,,,,,,,,,,,,,,,,,troops,44,79,silent,red,3274.2206643000245,None,None,3274.2206643000245,None,,,,,,,,,,,,,,,,,,,,,,,,,,,,,,17YE,001,2023_Mar_03_0939,ExactRep-v3-final,2021.2.3,60.00556850327399,
,,,,,,,,79,0,79,0,,,,,,,,,,,,,,,,,,,,,,,,,,,,,,,,,,,,,,,,,,,,,,,,,,,,,3278.7531185001135,None,,,,,,,,,,,,,,,,,,,,,,,,,,,,,,,,,,,theory,66,80,silent,red,3276.738190999953,None,None,3276.738190999953,None,,,,,,,,,,,,,,,,,,,,,,,,,,,,,,17YE,001,2023_Mar_03_0939,ExactRep-v3-final,2021.2.3,60.00556850327399,
,,,,,,,,80,0,80,0,,,,,,,,,,,,,,,,,,,,,,,,,,,,,,,,,,,,,,,,,,,,,,,,,,,,,3281.2556435998995,None,,,,,,,,,,,,,,,,,,,,,,,,,,,,,,,,,,,lad,57,81,silent,red,3279.253658399917,None,None,3279.253658399917,None,,,,,,,,,,,,,,,,,,,,,,,,,,,,,,17YE,001,2023_Mar_03_0939,ExactRep-v3-final,2021.2.3,60.00556850327399,
,,,,,,,,81,0,81,0,,,,,,,,,,,,,,,,,,,,,,,,,,,,,,,,,,,,,,,,,,,,,,,,,,,,,3283.75793610001,None,,,,,,,,,,,,,,,,,,,,,,,,,,,,,,,,,,,clock,118,82,aloud,white,3281.756756799994,None,None,3281.756756799994,None,,,,,,,,,,,,,,,,,,,,,,,,,,,,,,17YE,001,2023_Mar_03_0939,ExactRep-v3-final,2021.2.3,60.00556850327399,
,,,,,,,,82,0,82,0,,,,,,,,,,,,,,,,,,,,,,,,,,,,,,,,,,,,,,,,,,,,,,,,,,,,,3286.260731900111,None,,,,,,,,,,,,,,,,,,,,,,,,,,,,,,,,,,,coin,31,83,sing,blue,3284.260993700009,None,None,3284.260993700009,None,,,,,,,,,,,,,,,,,,,,,,,,,,,,,,17YE,001,2023_Mar_03_0939,ExactRep-v3-final,2021.2.3,60.00556850327399,
,,,,,,,,83,0,83,0,,,,,,,,,,,,,,,,,,,,,,,,,,,,,,,,,,,,,,,,,,,,,,,,,,,,,3288.7799023999833,None,,,,,,,,,,,,,,,,,,,,,,,,,,,,,,,,,,,table,70,84,silent,red,3286.7771044000983,None,None,3286.7771044000983,None,,,,,,,,,,,,,,,,,,,,,,,,,,,,,,17YE,001,2023_Mar_03_0939,ExactRep-v3-final,2021.2.3,60.00556850327399,
,,,,,,,,84,0,84,0,,,,,,,,,,,,,,,,,,,,,,,,,,,,,,,,,,,,,,,,,,,,,,,,,,,,,3291.282347700093,None,,,,,,,,,,,,,,,,,,,,,,,,,,,,,,,,,,,tree,115,85,aloud,white,3289.2801492,None,None,3289.2801492,None,,,,,,,,,,,,,,,,,,,,,,,,,,,,,,17YE,001,2023_Mar_03_0939,ExactRep-v3-final,2021.2.3,60.00556850327399,
,,,,,,,,85,0,85,0,,,,,,,,,,,,,,,,,,,,,,,,,,,,,,,,,,,,,,,,,,,,,,,,,,,,,3293.784690000117,None,,,,,,,,,,,,,,,,,,,,,,,,,,,,,,,,,,,tool,106,86,aloud,white,3291.7825543999206,None,None,3291.7825543999206,None,,,,,,,,,,,,,,,,,,,,,,,,,,,,,,17YE,001,2023_Mar_03_0939,ExactRep-v3-final,2021.2.3,60.00556850327399,
,,,,,,,,86,0,86,0,,,,,,,,,,,,,,,,,,,,,,,,,,,,,,,,,,,,,,,,,,,,,,,,,,,,,3296.3040175000206,None,,,,,,,,,,,,,,,,,,,,,,,,,,,,,,,,,,,money,84,87,aloud,white,3294.2918066000566,None,None,3294.2918066000566,None,,,,,,,,,,,,,,,,,,,,,,,,,,,,,,17YE,001,2023_Mar_03_0939,ExactRep-v3-final,2021.2.3,60.00556850327399,
,,,,,,,,87,0,87,0,,,,,,,,,,,,,,,,,,,,,,,,,,,,,,,,,,,,,,,,,,,,,,,,,,,,,3298.8065154999495,None,,,,,,,,,,,,,,,,,,,,,,,,,,,,,,,,,,,street,92,88,aloud,white,3296.8047519000247,None,None,3296.8047519000247,None,,,,,,,,,,,,,,,,,,,,,,,,,,,,,,17YE,001,2023_Mar_03_0939,ExactRep-v3-final,2021.2.3,60.00556850327399,
,,,,,,,,88,0,88,0,,,,,,,,,,,,,,,,,,,,,,,,,,,,,,,,,,,,,,,,,,,,,,,,,,,,,3301.3257683999836,None,,,,,,,,,,,,,,,,,,,,,,,,,,,,,,,,,,,power,51,89,silent,red,3299.3105464000255,None,None,3299.3105464000255,None,,,,,,,,,,,,,,,,,,,,,,,,,,,,,,17YE,001,2023_Mar_03_0939,ExactRep-v3-final,2021.2.3,60.00556850327399,
,,,,,,,,89,0,89,0,,,,,,,,,,,,,,,,,,,,,,,,,,,,,,,,,,,,,,,,,,,,,,,,,,,,,3303.8281026999466,None,,,,,,,,,,,,,,,,,,,,,,,,,,,,,,,,,,,answer,46,90,silent,red,3301.8269164999947,None,None,3301.8269164999947,None,,,,,,,,,,,,,,,,,,,,,,,,,,,,,,17YE,001,2023_Mar_03_0939,ExactRep-v3-final,2021.2.3,60.00556850327399,
,,,,,,,,90,0,90,0,,,,,,,,,,,,,,,,,,,,,,,,,,,,,,,,,,,,,,,,,,,,,,,,,,,,,3306.330817300128,None,,,,,,,,,,,,,,,,,,,,,,,,,,,,,,,,,,,girl,67,91,silent,red,3304.33084900002,None,None,3304.33084900002,None,,,,,,,,,,,,,,,,,,,,,,,,,,,,,,17YE,001,2023_Mar_03_0939,ExactRep-v3-final,2021.2.3,60.00556850327399,
,,,,,,,,91,0,91,0,,,,,,,,,,,,,,,,,,,,,,,,,,,,,,,,,,,,,,,,,,,,,,,,,,,,,3308.8332452999894,None,,,,,,,,,,,,,,,,,,,,,,,,,,,,,,,,,,,maiden,110,92,aloud,white,3306.833393200068,None,None,3306.833393200068,None,,,,,,,,,,,,,,,,,,,,,,,,,,,,,,17YE,001,2023_Mar_03_0939,ExactRep-v3-final,2021.2.3,60.00556850327399,
,,,,,,,,92,0,92,0,,,,,,,,,,,,,,,,,,,,,,,,,,,,,,,,,,,,,,,,,,,,,,,,,,,,,3311.3357220001053,None,,,,,,,,,,,,,,,,,,,,,,,,,,,,,,,,,,,lord,11,93,sing,blue,3309.335513100028,None,None,3309.335513100028,None,,,,,,,,,,,,,,,,,,,,,,,,,,,,,,17YE,001,2023_Mar_03_0939,ExactRep-v3-final,2021.2.3,60.00556850327399,
,,,,,,,,93,0,93,0,,,,,,,,,,,,,,,,,,,,,,,,,,,,,,,,,,,,,,,,,,,,,,,,,,,,,3313.8381845999975,None,,,,,,,,,,,,,,,,,,,,,,,,,,,,,,,,,,,poet,99,94,aloud,white,3311.8370288999286,None,None,3311.8370288999286,None,,,,,,,,,,,,,,,,,,,,,,,,,,,,,,17YE,001,2023_Mar_03_0939,ExactRep-v3-final,2021.2.3,60.00556850327399,
,,,,,,,,94,0,94,0,,,,,,,,,,,,,,,,,,,,,,,,,,,,,,,,,,,,,,,,,,,,,,,,,,,,,3316.3405629000627,None,,,,,,,,,,,,,,,,,,,,,,,,,,,,,,,,,,,paper,88,95,aloud,white,3314.338751600124,None,None,3314.338751600124,None,,,,,,,,,,,,,,,,,,,,,,,,,,,,,,17YE,001,2023_Mar_03_0939,ExactRep-v3-final,2021.2.3,60.00556850327399,
,,,,,,,,95,0,95,0,,,,,,,,,,,,,,,,,,,,,,,,,,,,,,,,,,,,,,,,,,,,,,,,,,,,,3318.8430639000144,None,,,,,,,,,,,,,,,,,,,,,,,,,,,,,,,,,,,freedom,5,96,sing,blue,3316.8412081999704,None,None,3316.8412081999704,None,,,,,,,,,,,,,,,,,,,,,,,,,,,,,,17YE,001,2023_Mar_03_0939,ExactRep-v3-final,2021.2.3,60.00556850327399,
,,,,,,,,96,0,96,0,,,,,,,,,,,,,,,,,,,,,,,,,,,,,,,,,,,,,,,,,,,,,,,,,,,,,3321.3457810999826,None,,,,,,,,,,,,,,,,,,,,,,,,,,,,,,,,,,,fur,55,97,silent,red,3319.3436974999495,None,None,3319.3436974999495,None,,,,,,,,,,,,,,,,,,,,,,,,,,,,,,17YE,001,2023_Mar_03_0939,ExactRep-v3-final,2021.2.3,60.00556850327399,
,,,,,,,,97,0,97,0,,,,,,,,,,,,,,,,,,,,,,,,,,,,,,,,,,,,,,,,,,,,,,,,,,,,,3323.8483818001114,None,,,,,,,,,,,,,,,,,,,,,,,,,,,,,,,,,,,style,22,98,sing,blue,3321.8462112001143,None,None,3321.8462112001143,None,,,,,,,,,,,,,,,,,,,,,,,,,,,,,,17YE,001,2023_Mar_03_0939,ExactRep-v3-final,2021.2.3,60.00556850327399,
,,,,,,,,98,0,98,0,,,,,,,,,,,,,,,,,,,,,,,,,,,,,,,,,,,,,,,,,,,,,,,,,,,,,3326.3672243999317,None,,,,,,,,,,,,,,,,,,,,,,,,,,,,,,,,,,,moment,53,99,silent,red,3324.354447199963,None,None,3324.354447199963,None,,,,,,,,,,,,,,,,,,,,,,,,,,,,,,17YE,001,2023_Mar_03_0939,ExactRep-v3-final,2021.2.3,60.00556850327399,
,,,,,,,,99,0,99,0,,,,,,,,,,,,,,,,,,,,,,,,,,,,,,,,,,,,,,,,,,,,,,,,,,,,,3328.8698676999193,None,,,,,,,,,,,,,,,,,,,,,,,,,,,,,,,,,,,friend,49,100,silent,red,3326.8677880999167,None,None,3326.8677880999167,None,,,,,,,,,,,,,,,,,,,,,,,,,,,,,,17YE,001,2023_Mar_03_0939,ExactRep-v3-final,2021.2.3,60.00556850327399,
,,,,,,,,100,0,100,0,,,,,,,,,,,,,,,,,,,,,,,,,,,,,,,,,,,,,,,,,,,,,,,,,,,,,3331.3725552000105,None,,,,,,,,,,,,,,,,,,,,,,,,,,,,,,,,,,,safety,3,101,sing,blue,3329.3720017001033,None,None,3329.3720017001033,None,,,,,,,,,,,,,,,,,,,,,,,,,,,,,,17YE,001,2023_Mar_03_0939,ExactRep-v3-final,2021.2.3,60.00556850327399,
,,,,,,,,101,0,101,0,,,,,,,,,,,,,,,,,,,,,,,,,,,,,,,,,,,,,,,,,,,,,,,,,,,,,3333.891600199975,None,,,,,,,,,,,,,,,,,,,,,,,,,,,,,,,,,,,volume,56,102,silent,red,3331.876035100082,None,None,3331.876035100082,None,,,,,,,,,,,,,,,,,,,,,,,,,,,,,,17YE,001,2023_Mar_03_0939,ExactRep-v3-final,2021.2.3,60.00556850327399,
,,,,,,,,102,0,102,0,,,,,,,,,,,,,,,,,,,,,,,,,,,,,,,,,,,,,,,,,,,,,,,,,,,,,3336.4108555000275,None,,,,,,,,,,,,,,,,,,,,,,,,,,,,,,,,,,,love,61,103,silent,red,3334.404035900021,None,None,3334.404035900021,None,,,,,,,,,,,,,,,,,,,,,,,,,,,,,,17YE,001,2023_Mar_03_0939,ExactRep-v3-final,2021.2.3,60.00556850327399,
,,,,,,,,103,0,103,0,,,,,,,,,,,,,,,,,,,,,,,,,,,,,,,,,,,,,,,,,,,,,,,,,,,,,3338.9299973000307,None,,,,,,,,,,,,,,,,,,,,,,,,,,,,,,,,,,,seat,60,104,silent,red,3336.9147364001255,None,None,3336.9147364001255,None,,,,,,,,,,,,,,,,,,,,,,,,,,,,,,17YE,001,2023_Mar_03_0939,ExactRep-v3-final,2021.2.3,60.00556850327399,
,,,,,,,,104,0,104,0,,,,,,,,,,,,,,,,,,,,,,,,,,,,,,,,,,,,,,,,,,,,,,,,,,,,,3341.432672499912,None,,,,,,,,,,,,,,,,,,,,,,,,,,,,,,,,,,,diamond,4,105,sing,blue,3339.4316362000536,None,None,3339.4316362000536,None,,,,,,,,,,,,,,,,,,,,,,,,,,,,,,17YE,001,2023_Mar_03_0939,ExactRep-v3-final,2021.2.3,60.00556850327399,
,,,,,,,,105,0,105,0,,,,,,,,,,,,,,,,,,,,,,,,,,,,,,,,,,,,,,,,,,,,,,,,,,,,,3343.9350729999132,None,,,,,,,,,,,,,,,,,,,,,,,,,,,,,,,,,,,fire,112,106,aloud,white,3341.9348410000093,None,None,3341.9348410000093,None,,,,,,,,,,,,,,,,,,,,,,,,,,,,,,17YE,001,2023_Mar_03_0939,ExactRep-v3-final,2021.2.3,60.00556850327399,
,,,,,,,,106,0,106,0,,,,,,,,,,,,,,,,,,,,,,,,,,,,,,,,,,,,,,,,,,,,,,,,,,,,,3346.4375567000825,None,,,,,,,,,,,,,,,,,,,,,,,,,,,,,,,,,,,idea,18,107,sing,blue,3344.4367573999334,None,None,3344.4367573999334,None,,,,,,,,,,,,,,,,,,,,,,,,,,,,,,17YE,001,2023_Mar_03_0939,ExactRep-v3-final,2021.2.3,60.00556850327399,
,,,,,,,,107,0,107,0,,,,,,,,,,,,,,,,,,,,,,,,,,,,,,,,,,,,,,,,,,,,,,,,,,,,,3348.93999990006,None,,,,,,,,,,,,,,,,,,,,,,,,,,,,,,,,,,,pupil,43,108,silent,red,3346.9407611999195,None,None,3346.9407611999195,None,,,,,,,,,,,,,,,,,,,,,,,,,,,,,,17YE,001,2023_Mar_03_0939,ExactRep-v3-final,2021.2.3,60.00556850327399,
,,,,,,,,108,0,108,0,,,,,,,,,,,,,,,,,,,,,,,,,,,,,,,,,,,,,,,,,,,,,,,,,,,,,3351.442356100073,None,,,,,,,,,,,,,,,,,,,,,,,,,,,,,,,,,,,cost,80,109,aloud,white,3349.4428214000072,None,None,3349.4428214000072,None,,,,,,,,,,,,,,,,,,,,,,,,,,,,,,17YE,001,2023_Mar_03_0939,ExactRep-v3-final,2021.2.3,60.00556850327399,
,,,,,,,,109,0,109,0,,,,,,,,,,,,,,,,,,,,,,,,,,,,,,,,,,,,,,,,,,,,,,,,,,,,,3353.944974800106,None,,,,,,,,,,,,,,,,,,,,,,,,,,,,,,,,,,,apple,45,110,silent,red,3351.9444629999343,None,None,3351.9444629999343,None,,,,,,,,,,,,,,,,,,,,,,,,,,,,,,17YE,001,2023_Mar_03_0939,ExactRep-v3-final,2021.2.3,60.00556850327399,
,,,,,,,,110,0,110,0,,,,,,,,,,,,,,,,,,,,,,,,,,,,,,,,,,,,,,,,,,,,,,,,,,,,,3356.447481099982,None,,,,,,,,,,,,,,,,,,,,,,,,,,,,,,,,,,,origin,90,111,aloud,white,3354.4472888999153,None,None,3354.4472888999153,None,,,,,,,,,,,,,,,,,,,,,,,,,,,,,,17YE,001,2023_Mar_03_0939,ExactRep-v3-final,2021.2.3,60.00556850327399,
,,,,,,,,111,0,111,0,,,,,,,,,,,,,,,,,,,,,,,,,,,,,,,,,,,,,,,,,,,,,,,,,,,,,3358.950019699987,None,,,,,,,,,,,,,,,,,,,,,,,,,,,,,,,,,,,duty,93,112,aloud,white,3356.949817100074,None,None,3356.949817100074,None,,,,,,,,,,,,,,,,,,,,,,,,,,,,,,17YE,001,2023_Mar_03_0939,ExactRep-v3-final,2021.2.3,60.00556850327399,
,,,,,,,,112,0,112,0,,,,,,,,,,,,,,,,,,,,,,,,,,,,,,,,,,,,,,,,,,,,,,,,,,,,,3361.452376100002,None,,,,,,,,,,,,,,,,,,,,,,,,,,,,,,,,,,,skin,13,113,sing,blue,3359.4529587998986,None,None,3359.4529587998986,None,,,,,,,,,,,,,,,,,,,,,,,,,,,,,,17YE,001,2023_Mar_03_0939,ExactRep-v3-final,2021.2.3,60.00556850327399,
,,,,,,,,113,0,113,0,,,,,,,,,,,,,,,,,,,,,,,,,,,,,,,,,,,,,,,,,,,,,,,,,,,,,3363.9715563000645,None,,,,,,,,,,,,,,,,,,,,,,,,,,,,,,,,,,,breast,73,114,silent,red,3361.962567999959,None,None,3361.962567999959,None,,,,,,,,,,,,,,,,,,,,,,,,,,,,,,17YE,001,2023_Mar_03_0939,ExactRep-v3-final,2021.2.3,60.00556850327399,
,,,,,,,,114,0,114,0,,,,,,,,,,,,,,,,,,,,,,,,,,,,,,,,,,,,,,,,,,,,,,,,,,,,,3366.4908533999696,None,,,,,,,,,,,,,,,,,,,,,,,,,,,,,,,,,,,forest,97,115,aloud,white,3364.4832138000056,None,None,3364.4832138000056,None,,,,,,,,,,,,,,,,,,,,,,,,,,,,,,17YE,001,2023_Mar_03_0939,ExactRep-v3-final,2021.2.3,60.00556850327399,
,,,,,,,,115,0,115,0,,,,,,,,,,,,,,,,,,,,,,,,,,,,,,,,,,,,,,,,,,,,,,,,,,,,,3368.993426400004,None,,,,,,,,,,,,,,,,,,,,,,,,,,,,,,,,,,,cash,37,116,sing,blue,3366.991368100047,None,None,3366.991368100047,None,,,,,,,,,,,,,,,,,,,,,,,,,,,,,,17YE,001,2023_Mar_03_0939,ExactRep-v3-final,2021.2.3,60.00556850327399,
,,,,,,,,116,0,116,0,,,,,,,,,,,,,,,,,,,,,,,,,,,,,,,,,,,,,,,,,,,,,,,,,,,,,3371.4958566999994,None,,,,,,,,,,,,,,,,,,,,,,,,,,,,,,,,,,,market,117,117,aloud,white,3369.495878299931,None,None,3369.495878299931,None,,,,,,,,,,,,,,,,,,,,,,,,,,,,,,17YE,001,2023_Mar_03_0939,ExactRep-v3-final,2021.2.3,60.00556850327399,
,,,,,,,,117,0,117,0,,,,,,,,,,,,,,,,,,,,,,,,,,,,,,,,,,,,,,,,,,,,,,,,,,,,,3374.015105500119,None,,,,,,,,,,,,,,,,,,,,,,,,,,,,,,,,,,,ability,62,118,silent,red,3372.0072695999406,None,None,3372.0072695999406,None,,,,,,,,,,,,,,,,,,,,,,,,,,,,,,17YE,001,2023_Mar_03_0939,ExactRep-v3-final,2021.2.3,60.00556850327399,
,,,,,,,,118,0,118,0,,,,,,,,,,,,,,,,,,,,,,,,,,,,,,,,,,,,,,,,,,,,,,,,,,,,,3376.5176015000325,None,,,,,,,,,,,,,,,,,,,,,,,,,,,,,,,,,,,corn,77,119,silent,red,3374.5175298000686,None,None,3374.5175298000686,None,,,,,,,,,,,,,,,,,,,,,,,,,,,,,,17YE,001,2023_Mar_03_0939,ExactRep-v3-final,2021.2.3,60.00556850327399,
,,,,,,,,119,0,119,0,,,,,,,,,,,,,,,,,,,,,,,,,,,,,,,,,,,,,,,,,,,,,,,,,,,,,3379.0367970000952,None,,,,,,,,,,,,,,,,,,,,,,,,,,,,,,,,,,,silence,86,120,aloud,white,3377.0222919001244,None,None,3377.0222919001244,None,,,,,,,,,,,,,,,,,,,,,,,,,,,,,,17YE,001,2023_Mar_03_0939,ExactRep-v3-final,2021.2.3,60.00556850327399,
,,,,,,,,,,,,,,,,,,,,,,,,,,,,,,,,,,,,,,,,,,,,,,,,,,,,,,,,,,,,,,,,,,,,,,,,,,,,,,,,,,,,,,,,,,,,,,,,,,,,,,,,,,,,,,3379.5387134000193,None,space,0.9731263001449406,3389.514824300073,None,,,,,,,,,,,,,,,,,,,,,,,,17YE,001,2023_Mar_03_0939,ExactRep-v3-final,2021.2.3,60.00556850327399,
,,,,,,,,,,,,,,,,,,,,,,,,,,,,,,,,,,,,,,,,,,,,,,,,,,,,,,,,,,,,,,,,,,,,,,,,,,,,,,,,,,,,,,,,,,,,,,,,,,,,,,,,,,,,,,,,,,,,3390.516307000071,None,space,60.859477299964055,3400.4930503000505,None,,,,,,,,,,,,,,,,,,17YE,001,2023_Mar_03_0939,ExactRep-v3-final,2021.2.3,60.00556850327399,
,,,,,,,,,,,,0,0,0,0,,,,,,,,,,,,,,,,,,,,,,,,,,,,,,,,,,,,,,,,,,,,,,,,,3464.25532440003,None,,,,,,,,,,,,,,,,,,,,,,,,,,,,,,,,,,,,,,,,,,,,,,,,,,,,,,,,,grief,176,1,aloud,new,white,3461.883365599904,None,n,3461.883365599904,None,"['n', 'return']","[1.8604867001995444, 2.3325622000265867]",3461.883365599904,None,,,17YE,001,2023_Mar_03_0939,ExactRep-v3-final,2021.2.3,60.00556850327399,
,,,,,,,,,,,,1,0,1,0,,,,,,,,,,,,,,,,,,,,,,,,,,,,,,,,,,,,,,,,,,,,,,,,,3467.2581329001114,None,,,,,,,,,,,,,,,,,,,,,,,,,,,,,,,,,,,,,,,,,,,,,,,,,,,,,,,,,history,221,2,sing,new,blue,3464.7644402000587,None,n,3464.7644402000587,None,"['n', 'return']","[1.9477315000258386, 2.4515440000686795]",3464.7644402000587,None,,,17YE,001,2023_Mar_03_0939,ExactRep-v3-final,2021.2.3,60.00556850327399,
,,,,,,,,,,,,2,0,2,0,,,,,,,,,,,,,,,,,,,,,,,,,,,,,,,,,,,,,,,,,,,,,,,,,3469.6269686000887,None,,,,,,,,,,,,,,,,,,,,,,,,,,,,,,,,,,,,,,,,,,,,,,,,,,,,,,,,,library,132,3,silent,new,red,3467.7727648001164,None,n,3467.7727648001164,None,"['n', 'return']","[1.4992110000457615, 1.8193314000964165]",3467.7727648001164,None,,,17YE,001,2023_Mar_03_0939,ExactRep-v3-final,2021.2.3,60.00556850327399,
,,,,,,,,,,,,3,0,3,0,,,,,,,,,,,,,,,,,,,,,,,,,,,,,,,,,,,,,,,,,,,,,,,,,3472.7471586000174,None,,,,,,,,,,,,,,,,,,,,,,,,,,,,,,,,,,,,,,,,,,,,,,,,,,,,,,,,,arm,35,4,sing,old,blue,3470.1346611001063,None,n,3470.1346611001063,None,"['n', 'return']","[2.377177600050345, 2.569222800200805]",3470.1346611001063,None,,,17YE,001,2023_Mar_03_0939,ExactRep-v3-final,2021.2.3,60.00556850327399,
,,,,,,,,,,,,4,0,4,0,,,,,,,,,,,,,,,,,,,,,,,,,,,,,,,,,,,,,,,,,,,,,,,,,3476.800982499961,None,,,,,,,,,,,,,,,,,,,,,,,,,,,,,,,,,,,,,,,,,,,,,,,,,,,,,,,,,rock,145,5,silent,new,red,3473.2640754999593,None,n,3473.2640754999593,None,"['n', 'return']","[2.967965800082311, 3.4960795999504626]",3473.2640754999593,None,,,17YE,001,2023_Mar_03_0939,ExactRep-v3-final,2021.2.3,60.00556850327399,
,,,,,,,,,,,,5,0,5,0,,,,,,,,,,,,,,,,,,,,,,,,,,,,,,,,,,,,,,,,,,,,,,,,,3479.3370471999515,None,,,,,,,,,,,,,,,,,,,,,,,,,,,,,,,,,,,,,,,,,,,,,,,,,,,,,,,,,fur,55,6,silent,old,red,3477.3116222999524,None,n,3477.3116222999524,None,"['n', 'return']","[1.7205972000956535, 1.9843066001776606]",3477.3116222999524,None,,,17YE,001,2023_Mar_03_0939,ExactRep-v3-final,2021.2.3,60.00556850327399,
,,,,,,,,,,,,6,0,6,0,,,,,,,,,,,,,,,,,,,,,,,,,,,,,,,,,,,,,,,,,,,,,,,,,3487.261441400042,None,,,,,,,,,,,,,,,,,,,,,,,,,,,,,,,,,,,,,,,,,,,,,,,,,,,,,,,,,disease,197,7,sing,new,blue,3479.8462837999687,None,n,3479.8462837999687,None,"['n', 'return']","[7.201637800084427, 7.3776741998735815]",3479.8462837999687,None,,,17YE,001,2023_Mar_03_0939,ExactRep-v3-final,2021.2.3,60.00556850327399,
,,,,,,,,,,,,7,0,7,0,,,,,,,,,,,,,,,,,,,,,,,,,,,,,,,,,,,,,,,,,,,,,,,,,3490.0810450001154,None,,,,,,,,,,,,,,,,,,,,,,,,,,,,,,,,,,,,,,,,,,,,,,,,,,,,,,,,,hide,229,8,sing,new,blue,3487.771319600055,None,n,3487.771319600055,None,"['n', 'return']","[1.7246234000194818, 2.268855799920857]",3487.771319600055,None,,,17YE,001,2023_Mar_03_0939,ExactRep-v3-final,2021.2.3,60.00556850327399,
,,,,,,,,,,,,8,0,8,0,,,,,,,,,,,,,,,,,,,,,,,,,,,,,,,,,,,,,,,,,,,,,,,,,3491.665896499995,None,,,,,,,,,,,,,,,,,,,,,,,,,,,,,,,,,,,,,,,,,,,,,,,,,,,,,,,,,fate,126,9,silent,new,red,3490.5890285000205,None,n,3490.5890285000205,None,"['n', 'return']","[0.8270438001491129, 1.0349752001930028]",3490.5890285000205,None,,,17YE,001,2023_Mar_03_0939,ExactRep-v3-final,2021.2.3,60.00556850327399,
,,,,,,,,,,,,9,0,9,0,,,,,,,,,,,,,,,,,,,,,,,,,,,,,,,,,,,,,,,,,,,,,,,,,3496.0535790000577,None,,,,,,,,,,,,,,,,,,,,,,,,,,,,,,,,,,,,,,,,,,,,,,,,,,,,,,,,,tree,115,10,aloud,old,white,3492.1758473000955,None,y,3492.1758473000955,None,"['y', 'return']","[3.384113400010392, 3.832153300056234]",3492.1758473000955,None,,,17YE,001,2023_Mar_03_0939,ExactRep-v3-final,2021.2.3,60.00556850327399,
,,,,,,,,,,,,10,0,10,0,,,,,,,,,,,,,,,,,,,,,,,,,,,,,,,,,,,,,,,,,,,,,,,,,3500.391407500021,None,,,,,,,,,,,,,,,,,,,,,,,,,,,,,,,,,,,,,,,,,,,,,,,,,,,,,,,,,bottle,78,11,silent,old,red,3496.5640861000866,None,n,3496.5640861000866,None,"['n', 'return']","[3.500032899901271, 3.779886499978602]",3496.5640861000866,None,,,17YE,001,2023_Mar_03_0939,ExactRep-v3-final,2021.2.3,60.00556850327399,
,,,,,,,,,,,,11,0,11,0,,,,,,,,,,,,,,,,,,,,,,,,,,,,,,,,,,,,,,,,,,,,,,,,,3502.109682200011,None,,,,,,,,,,,,,,,,,,,,,,,,,,,,,,,,,,,,,,,,,,,,,,,,,,,,,,,,,camp,133,12,silent,new,red,3500.902065299917,None,n,3500.902065299917,None,"['n', 'return']","[0.8339612998533994, 1.1620207000523806]",3500.902065299917,None,,,17YE,001,2023_Mar_03_0939,ExactRep-v3-final,2021.2.3,60.00556850327399,
,,,,,,,,,,,,12,0,12,0,,,,,,,,,,,,,,,,,,,,,,,,,,,,,,,,,,,,,,,,,,,,,,,,,3504.8122509000823,None,,,,,,,,,,,,,,,,,,,,,,,,,,,,,,,,,,,,,,,,,,,,,,,,,,,,,,,,,soil,148,13,silent,new,red,3502.61928549991,None,y,3502.61928549991,None,"['y', 'return']","[1.7007056998554617, 2.148666199995205]",3502.61928549991,None,,,17YE,001,2023_Mar_03_0939,ExactRep-v3-final,2021.2.3,60.00556850327399,
,,,,,,,,,,,,13,0,13,0,,,,,,,,,,,,,,,,,,,,,,,,,,,,,,,,,,,,,,,,,,,,,,,,,3506.3972471999004,None,,,,,,,,,,,,,,,,,,,,,,,,,,,,,,,,,,,,,,,,,,,,,,,,,,,,,,,,,pupil,43,14,silent,old,red,3505.323625900084,None,n,3505.323625900084,None,"['n', 'return']","[0.7086650000419468, 1.0363872000016272]",3505.323625900084,None,,,17YE,001,2023_Mar_03_0939,ExactRep-v3-final,2021.2.3,60.00556850327399,
,,,,,,,,,,,,14,0,14,0,,,,,,,,,,,,,,,,,,,,,,,,,,,,,,,,,,,,,,,,,,,,,,,,,3510.718447400024,None,,,,,,,,,,,,,,,,,,,,,,,,,,,,,,,,,,,,,,,,,,,,,,,,,,,,,,,,,blossom,25,15,sing,old,blue,3506.909251200035,None,n,3506.909251200035,None,"['n', 'return']","[3.4506999000441283, 3.762725600041449]",3506.909251200035,None,,,17YE,001,2023_Mar_03_0939,ExactRep-v3-final,2021.2.3,60.00556850327399,
,,,,,,,,,,,,15,0,15,0,,,,,,,,,,,,,,,,,,,,,,,,,,,,,,,,,,,,,,,,,,,,,,,,,3512.286476300098,None,,,,,,,,,,,,,,,,,,,,,,,,,,,,,,,,,,,,,,,,,,,,,,,,,,,,,,,,,month,185,16,sing,new,blue,3511.2215970999096,None,n,3511.2215970999096,None,"['n', 'return']","[0.8267115000635386, 1.0264564999379218]",3511.2215970999096,None,,,17YE,001,2023_Mar_03_0939,ExactRep-v3-final,2021.2.3,60.00556850327399,
,,,,,,,,,,,,16,0,16,0,,,,,,,,,,,,,,,,,,,,,,,,,,,,,,,,,,,,,,,,,,,,,,,,,3515.6565036999527,None,,,,,,,,,,,,,,,,,,,,,,,,,,,,,,,,,,,,,,,,,,,,,,,,,,,,,,,,,chance,42,17,silent,old,red,3512.7892940000165,None,y,3512.7892940000165,None,"['y', 'return']","[2.490758900064975, 2.834696900099516]",3512.7892940000165,None,,,17YE,001,2023_Mar_03_0939,ExactRep-v3-final,2021.2.3,60.00556850327399,
,,,,,,,,,,,,17,0,17,0,,,,,,,,,,,,,,,,,,,,,,,,,,,,,,,,,,,,,,,,,,,,,,,,,3517.358203999931,None,,,,,,,,,,,,,,,,,,,,,,,,,,,,,,,,,,,,,,,,,,,,,,,,,,,,,,,,,grass,94,18,aloud,old,white,3516.1595306000672,None,n,3516.1595306000672,None,"['n', 'return']","[0.8164133001118898, 1.160474100150168]",3516.1595306000672,None,,,17YE,001,2023_Mar_03_0939,ExactRep-v3-final,2021.2.3,60.00556850327399,
,,,,,,,,,,,,18,0,18,0,,,,,,,,,,,,,,,,,,,,,,,,,,,,,,,,,,,,,,,,,,,,,,,,,3518.943133600056,None,,,,,,,,,,,,,,,,,,,,,,,,,,,,,,,,,,,,,,,,,,,,,,,,,,,,,,,,,meeting,136,19,silent,new,red,3517.8708884001244,None,n,3517.8708884001244,None,"['n', 'return']","[0.7690942001063377, 1.033195500029251]",3517.8708884001244,None,,,17YE,001,2023_Mar_03_0939,ExactRep-v3-final,2021.2.3,60.00556850327399,
,,,,,,,,,,,,19,0,19,0,,,,,,,,,,,,,,,,,,,,,,,,,,,,,,,,,,,,,,,,,,,,,,,,,3520.594843500061,None,,,,,,,,,,,,,,,,,,,,,,,,,,,,,,,,,,,,,,,,,,,,,,,,,,,,,,,,,present,85,20,aloud,old,white,3519.454640200129,None,y,3519.454640200129,None,"['y', 'return']","[0.7452599999960512, 1.1052856999449432]",3519.454640200129,None,,,17YE,001,2023_Mar_03_0939,ExactRep-v3-final,2021.2.3,60.00556850327399,
,,,,,,,,,,,,20,0,20,0,,,,,,,,,,,,,,,,,,,,,,,,,,,,,,,,,,,,,,,,,,,,,,,,,3523.314276299905,None,,,,,,,,,,,,,,,,,,,,,,,,,,,,,,,,,,,,,,,,,,,,,,,,,,,,,,,,,fun,39,21,silent,old,red,3521.1055226000026,None,n,3521.1055226000026,None,"['n', 'return']","[1.9585663999896497, 2.1664331001229584]",3521.1055226000026,None,,,17YE,001,2023_Mar_03_0939,ExactRep-v3-final,2021.2.3,60.00556850327399,
,,,,,,,,,,,,21,0,21,0,,,,,,,,,,,,,,,,,,,,,,,,,,,,,,,,,,,,,,,,,,,,,,,,,3525.115964200115,None,,,,,,,,,,,,,,,,,,,,,,,,,,,,,,,,,,,,,,,,,,,,,,,,,,,,,,,,,clock,118,22,aloud,old,white,3523.8223165001255,None,y,3523.8223165001255,None,"['y', 'return']","[0.8977530999109149, 1.2496439998503774]",3523.8223165001255,None,,,17YE,001,2023_Mar_03_0939,ExactRep-v3-final,2021.2.3,60.00556850327399,
,,,,,,,,,,,,22,0,22,0,,,,,,,,,,,,,,,,,,,,,,,,,,,,,,,,,,,,,,,,,,,,,,,,,3526.6675108000636,None,,,,,,,,,,,,,,,,,,,,,,,,,,,,,,,,,,,,,,,,,,,,,,,,,,,,,,,,,author,143,23,silent,new,red,3525.6268440999556,None,n,3525.6268440999556,None,"['n', 'return']","[0.7492486999835819, 0.9971004000399262]",3525.6268440999556,None,,,17YE,001,2023_Mar_03_0939,ExactRep-v3-final,2021.2.3,60.00556850327399,
,,,,,,,,,,,,23,0,23,0,,,,,,,,,,,,,,,,,,,,,,,,,,,,,,,,,,,,,,,,,,,,,,,,,3528.269120400073,None,,,,,,,,,,,,,,,,,,,,,,,,,,,,,,,,,,,,,,,,,,,,,,,,,,,,,,,,,glory,154,24,silent,new,red,3527.176636799937,None,n,3527.176636799937,None,"['n', 'return']","[0.879448999883607, 1.0553975000511855]",3527.176636799937,None,,,17YE,001,2023_Mar_03_0939,ExactRep-v3-final,2021.2.3,60.00556850327399,
,,,,,,,,,,,,24,0,24,0,,,,,,,,,,,,,,,,,,,,,,,,,,,,,,,,,,,,,,,,,,,,,,,,,3531.0387999999803,None,,,,,,,,,,,,,,,,,,,,,,,,,,,,,,,,,,,,,,,,,,,,,,,,,,,,,,,,,judge,1,25,sing,old,blue,3528.777766400017,None,n,3528.777766400017,None,"['n', 'return']","[2.038330900017172, 2.214168200036511]",3528.777766400017,None,,,17YE,001,2023_Mar_03_0939,ExactRep-v3-final,2021.2.3,60.00556850327399,
,,,,,,,,,,,,25,0,25,0,,,,,,,,,,,,,,,,,,,,,,,,,,,,,,,,,,,,,,,,,,,,,,,,,3532.7401761999354,None,,,,,,,,,,,,,,,,,,,,,,,,,,,,,,,,,,,,,,,,,,,,,,,,,,,,,,,,,potato,9,26,sing,old,blue,3531.550068499986,None,y,3531.550068499986,None,"['y', 'return']","[0.7940153998788446, 1.1537989000789821]",3531.550068499986,None,,,17YE,001,2023_Mar_03_0939,ExactRep-v3-final,2021.2.3,60.00556850327399,
,,,,,,,,,,,,26,0,26,0,,,,,,,,,,,,,,,,,,,,,,,,,,,,,,,,,,,,,,,,,,,,,,,,,3537.2449010999408,None,,,,,,,,,,,,,,,,,,,,,,,,,,,,,,,,,,,,,,,,,,,,,,,,,,,,,,,,,boy,210,27,aloud,new,white,3533.249305699952,None,n,3533.249305699952,None,"['return', 'n', 'return']","[0.9826321001164615, 3.734617300098762, 3.9507053000852466]",3533.249305699952,None,,,17YE,001,2023_Mar_03_0939,ExactRep-v3-final,2021.2.3,60.00556850327399,
,,,,,,,,,,,,27,0,27,0,,,,,,,,,,,,,,,,,,,,,,,,,,,,,,,,,,,,,,,,,,,,,,,,,3539.196886599995,None,,,,,,,,,,,,,,,,,,,,,,,,,,,,,,,,,,,,,,,,,,,,,,,,,,,,,,,,,window,2,28,sing,old,blue,3537.7556376000866,None,y,3537.7556376000866,None,"['y', 'return']","[1.060475500067696, 1.4044910001102835]",3537.7556376000866,None,,,17YE,001,2023_Mar_03_0939,ExactRep-v3-final,2021.2.3,60.00556850327399,
,,,,,,,,,,,,28,0,28,0,,,,,,,,,,,,,,,,,,,,,,,,,,,,,,,,,,,,,,,,,,,,,,,,,3541.031917599961,None,,,,,,,,,,,,,,,,,,,,,,,,,,,,,,,,,,,,,,,,,,,,,,,,,,,,,,,,,nail,215,29,sing,new,blue,3539.705505100079,None,n,3539.705505100079,None,"['n', 'return']","[0.9263946998398751, 1.2945300999563187]",3539.705505100079,None,,,17YE,001,2023_Mar_03_0939,ExactRep-v3-final,2021.2.3,60.00556850327399,
,,,,,,,,,,,,29,0,29,0,,,,,,,,,,,,,,,,,,,,,,,,,,,,,,,,,,,,,,,,,,,,,,,,,3542.767105600098,None,,,,,,,,,,,,,,,,,,,,,,,,,,,,,,,,,,,,,,,,,,,,,,,,,,,,,,,,,blood,10,30,sing,old,blue,3541.5402953999583,None,y,3541.5402953999583,None,"['y', 'return']","[0.819609000114724, 1.187683300115168]",3541.5402953999583,None,,,17YE,001,2023_Mar_03_0939,ExactRep-v3-final,2021.2.3,60.00556850327399,
,,,,,,,,,,,,30,0,30,0,,,,,,,,,,,,,,,,,,,,,,,,,,,,,,,,,,,,,,,,,,,,,,,,,3544.2517613000236,None,,,,,,,,,,,,,,,,,,,,,,,,,,,,,,,,,,,,,,,,,,,,,,,,,,,,,,,,,avenue,183,31,sing,new,blue,3543.2703873000573,None,n,3543.2703873000573,None,"['n', 'return']","[0.7217230999376625, 0.9456483998801559]",3543.2703873000573,None,,,17YE,001,2023_Mar_03_0939,ExactRep-v3-final,2021.2.3,60.00556850327399,
,,,,,,,,,,,,31,0,31,0,,,,,,,,,,,,,,,,,,,,,,,,,,,,,,,,,,,,,,,,,,,,,,,,,3550.7583153001033,None,,,,,,,,,,,,,,,,,,,,,,,,,,,,,,,,,,,,,,,,,,,,,,,,,,,,,,,,,time,63,32,silent,old,red,3544.7551657999866,None,y,3544.7551657999866,None,"['y', 'return']","[5.596941999858245, 5.9568998999893665]",3544.7551657999866,None,,,17YE,001,2023_Mar_03_0939,ExactRep-v3-final,2021.2.3,60.00556850327399,
,,,,,,,,,,,,32,0,32,0,,,,,,,,,,,,,,,,,,,,,,,,,,,,,,,,,,,,,,,,,,,,,,,,,3552.243024100084,None,,,,,,,,,,,,,,,,,,,,,,,,,,,,,,,,,,,,,,,,,,,,,,,,,,,,,,,,,love,61,33,silent,old,red,3551.267330999952,None,n,3551.267330999952,None,"['n', 'return']","[0.7086388000752777, 0.9407037999480963]",3551.267330999952,None,,,17YE,001,2023_Mar_03_0939,ExactRep-v3-final,2021.2.3,60.00556850327399,
,,,,,,,,,,,,33,0,33,0,,,,,,,,,,,,,,,,,,,,,,,,,,,,,,,,,,,,,,,,,,,,,,,,,3553.928187200101,None,,,,,,,,,,,,,,,,,,,,,,,,,,,,,,,,,,,,,,,,,,,,,,,,,,,,,,,,,woods,26,34,sing,old,blue,3552.7530598999,None,y,3552.7530598999,None,"['y', 'return']","[0.8309907000511885, 1.12698829988949]",3552.7530598999,None,,,17YE,001,2023_Mar_03_0939,ExactRep-v3-final,2021.2.3,60.00556850327399,
,,,,,,,,,,,,34,0,34,0,,,,,,,,,,,,,,,,,,,,,,,,,,,,,,,,,,,,,,,,,,,,,,,,,3555.780077900039,None,,,,,,,,,,,,,,,,,,,,,,,,,,,,,,,,,,,,,,,,,,,,,,,,,,,,,,,,,crime,127,35,silent,new,red,3554.441468599951,None,n,3554.441468599951,None,"['n', 'return']","[1.0065411000978202, 1.2945193001069129]",3554.441468599951,None,,,17YE,001,2023_Mar_03_0939,ExactRep-v3-final,2021.2.3,60.00556850327399,
,,,,,,,,,,,,35,0,35,0,,,,,,,,,,,,,,,,,,,,,,,,,,,,,,,,,,,,,,,,,,,,,,,,,3558.833020699909,None,,,,,,,,,,,,,,,,,,,,,,,,,,,,,,,,,,,,,,,,,,,,,,,,,,,,,,,,,money,84,36,aloud,old,white,3556.2879107999615,None,y,3556.2879107999615,None,"['y', 'return']","[2.144112000009045, 2.5042260999325663]",3556.2879107999615,None,,,17YE,001,2023_Mar_03_0939,ExactRep-v3-final,2021.2.3,60.00556850327399,
,,,,,,,,,,,,36,0,36,0,,,,,,,,,,,,,,,,,,,,,,,,,,,,,,,,,,,,,,,,,,,,,,,,,3560.384630399989,None,,,,,,,,,,,,,,,,,,,,,,,,,,,,,,,,,,,,,,,,,,,,,,,,,,,,,,,,,teacher,165,37,sing,new,blue,3559.3415777001064,None,n,3559.3415777001064,None,"['n', 'return']","[0.7865059999749064, 1.0104466998018324]",3559.3415777001064,None,,,17YE,001,2023_Mar_03_0939,ExactRep-v3-final,2021.2.3,60.00556850327399,
,,,,,,,,,,,,37,0,37,0,,,,,,,,,,,,,,,,,,,,,,,,,,,,,,,,,,,,,,,,,,,,,,,,,3565.9401320999023,None,,,,,,,,,,,,,,,,,,,,,,,,,,,,,,,,,,,,,,,,,,,,,,,,,,,,,,,,,world,194,38,aloud,new,white,3560.8955906999763,None,n,3560.8955906999763,None,"['n', 'return']","[4.544359700055793, 5.008518199902028]",3560.8955906999763,None,,,17YE,001,2023_Mar_03_0939,ExactRep-v3-final,2021.2.3,60.00556850327399,
,,,,,,,,,,,,38,0,38,0,,,,,,,,,,,,,,,,,,,,,,,,,,,,,,,,,,,,,,,,,,,,,,,,,3567.675316999899,None,,,,,,,,,,,,,,,,,,,,,,,,,,,,,,,,,,,,,,,,,,,,,,,,,,,,,,,,,insect,173,39,sing,new,blue,3566.4490209999494,None,n,3566.4490209999494,None,"['n', 'return']","[0.9989745998755097, 1.1911031999625266]",3566.4490209999494,None,,,17YE,001,2023_Mar_03_0939,ExactRep-v3-final,2021.2.3,60.00556850327399,
,,,,,,,,,,,,39,0,39,0,,,,,,,,,,,,,,,,,,,,,,,,,,,,,,,,,,,,,,,,,,,,,,,,,3569.627130100038,None,,,,,,,,,,,,,,,,,,,,,,,,,,,,,,,,,,,,,,,,,,,,,,,,,,,,,,,,,dust,231,40,sing,new,blue,3568.185974400025,None,n,3568.185974400025,None,"['n', 'return']","[1.1340828000102192, 1.398160400101915]",3568.185974400025,None,,,17YE,001,2023_Mar_03_0939,ExactRep-v3-final,2021.2.3,60.00556850327399,
,,,,,,,,,,,,40,0,40,0,,,,,,,,,,,,,,,,,,,,,,,,,,,,,,,,,,,,,,,,,,,,,,,,,3571.2788933999836,None,,,,,,,,,,,,,,,,,,,,,,,,,,,,,,,,,,,,,,,,,,,,,,,,,,,,,,,,,science,27,41,sing,old,blue,3570.1367130998988,None,y,3570.1367130998988,None,"['y', 'return']","[0.81522969994694, 1.0954376999288797]",3570.1367130998988,None,,,17YE,001,2023_Mar_03_0939,ExactRep-v3-final,2021.2.3,60.00556850327399,
,,,,,,,,,,,,41,0,41,0,,,,,,,,,,,,,,,,,,,,,,,,,,,,,,,,,,,,,,,,,,,,,,,,,3577.401602800004,None,,,,,,,,,,,,,,,,,,,,,,,,,,,,,,,,,,,,,,,,,,,,,,,,,,,,,,,,,passion,104,42,aloud,old,white,3571.7869510001037,None,n,3571.7869510001037,None,"['n', 'return']","[5.253088600002229, 5.573180000064895]",3571.7869510001037,None,,,17YE,001,2023_Mar_03_0939,ExactRep-v3-final,2021.2.3,60.00556850327399,
,,,,,,,,,,,,42,0,42,0,,,,,,,,,,,,,,,,,,,,,,,,,,,,,,,,,,,,,,,,,,,,,,,,,3579.0970103999134,None,,,,,,,,,,,,,,,,,,,,,,,,,,,,,,,,,,,,,,,,,,,,,,,,,,,,,,,,,heaven,108,43,aloud,old,white,3577.9080046999734,None,n,3577.9080046999734,None,"['n', 'return']","[0.9240598999895155, 1.1322021998930722]",3577.9080046999734,None,,,17YE,001,2023_Mar_03_0939,ExactRep-v3-final,2021.2.3,60.00556850327399,
,,,,,,,,,,,,43,0,43,0,,,,,,,,,,,,,,,,,,,,,,,,,,,,,,,,,,,,,,,,,,,,,,,,,3581.839427500032,None,,,,,,,,,,,,,,,,,,,,,,,,,,,,,,,,,,,,,,,,,,,,,,,,,,,,,,,,,effort,211,44,sing,new,blue,3579.611160800094,None,y,3579.611160800094,None,"['y', 'return']","[1.5888835000805557, 2.1888792000245303]",3579.611160800094,None,,,17YE,001,2023_Mar_03_0939,ExactRep-v3-final,2021.2.3,60.00556850327399,
,,,,,,,,,,,,44,0,44,0,,,,,,,,,,,,,,,,,,,,,,,,,,,,,,,,,,,,,,,,,,,,,,,,,3586.3606507999357,None,,,,,,,,,,,,,,,,,,,,,,,,,,,,,,,,,,,,,,,,,,,,,,,,,,,,,,,,,moment,53,45,silent,old,red,3582.347697600024,None,n,3582.347697600024,None,"['n', 'return']","[3.756341699976474, 3.972454800037667]",3582.347697600024,None,,,17YE,001,2023_Mar_03_0939,ExactRep-v3-final,2021.2.3,60.00556850327399,
,,,,,,,,,,,,45,0,45,0,,,,,,,,,,,,,,,,,,,,,,,,,,,,,,,,,,,,,,,,,,,,,,,,,3588.0121949999593,None,,,,,,,,,,,,,,,,,,,,,,,,,,,,,,,,,,,,,,,,,,,,,,,,,,,,,,,,,moral,237,46,sing,new,blue,3586.861045199912,None,n,3586.861045199912,None,"['n', 'return']","[1.0110059999860823, 1.1069716000929475]",3586.861045199912,None,,,17YE,001,2023_Mar_03_0939,ExactRep-v3-final,2021.2.3,60.00556850327399,
,,,,,,,,,,,,46,0,46,0,,,,,,,,,,,,,,,,,,,,,,,,,,,,,,,,,,,,,,,,,,,,,,,,,3591.5157204999123,None,,,,,,,,,,,,,,,,,,,,,,,,,,,,,,,,,,,,,,,,,,,,,,,,,,,,,,,,,amount,65,47,silent,old,red,3588.524401200004,None,n,3588.524401200004,None,"['n', 'return']","[2.5635711001232266, 2.947568600066006]",3588.524401200004,None,,,17YE,001,2023_Mar_03_0939,ExactRep-v3-final,2021.2.3,60.00556850327399,
,,,,,,,,,,,,47,0,47,0,,,,,,,,,,,,,,,,,,,,,,,,,,,,,,,,,,,,,,,,,,,,,,,,,3593.400933600031,None,,,,,,,,,,,,,,,,,,,,,,,,,,,,,,,,,,,,,,,,,,,,,,,,,,,,,,,,,mercy,69,48,silent,old,red,3592.0244605999906,None,n,3592.0244605999906,None,"['n', 'return']","[1.103487400105223, 1.3435508999973536]",3592.0244605999906,None,,,17YE,001,2023_Mar_03_0939,ExactRep-v3-final,2021.2.3,60.00556850327399,
,,,,,,,,,,,,48,0,48,0,,,,,,,,,,,,,,,,,,,,,,,,,,,,,,,,,,,,,,,,,,,,,,,,,3597.521700100042,None,,,,,,,,,,,,,,,,,,,,,,,,,,,,,,,,,,,,,,,,,,,,,,,,,,,,,,,,,flower,76,49,silent,old,red,3593.913084300002,None,y,3593.913084300002,None,"['y', 'return']","[3.303058600053191, 3.5749135999940336]",3593.913084300002,None,,,17YE,001,2023_Mar_03_0939,ExactRep-v3-final,2021.2.3,60.00556850327399,
,,,,,,,,,,,,49,0,49,0,,,,,,,,,,,,,,,,,,,,,,,,,,,,,,,,,,,,,,,,,,,,,,,,,3598.973097600043,None,,,,,,,,,,,,,,,,,,,,,,,,,,,,,,,,,,,,,,,,,,,,,,,,,,,,,,,,,boulder,157,50,silent,new,red,3598.0338173999917,None,n,3598.0338173999917,None,"['n', 'return']","[0.6541961999610066, 0.8943334999494255]",3598.0338173999917,None,,,17YE,001,2023_Mar_03_0939,ExactRep-v3-final,2021.2.3,60.00556850327399,
,,,,,,,,,,,,50,0,50,0,,,,,,,,,,,,,,,,,,,,,,,,,,,,,,,,,,,,,,,,,,,,,,,,,3600.3243406000547,None,,,,,,,,,,,,,,,,,,,,,,,,,,,,,,,,,,,,,,,,,,,,,,,,,,,,,,,,,leader,139,51,silent,new,red,3599.4838839001022,None,n,3599.4838839001022,None,"['n', 'return']","[0.6283187000080943, 0.7963627998251468]",3599.4838839001022,None,,,17YE,001,2023_Mar_03_0939,ExactRep-v3-final,2021.2.3,60.00556850327399,
,,,,,,,,,,,,51,0,51,0,,,,,,,,,,,,,,,,,,,,,,,,,,,,,,,,,,,,,,,,,,,,,,,,,3603.110725000035,None,,,,,,,,,,,,,,,,,,,,,,,,,,,,,,,,,,,,,,,,,,,,,,,,,,,,,,,,,lord,11,52,sing,old,blue,3600.8252032001037,None,y,3600.8252032001037,None,"['y', 'return']","[1.2068223000969738, 2.246896600117907]",3600.8252032001037,None,,,17YE,001,2023_Mar_03_0939,ExactRep-v3-final,2021.2.3,60.00556850327399,
,,,,,,,,,,,,52,0,52,0,,,,,,,,,,,,,,,,,,,,,,,,,,,,,,,,,,,,,,,,,,,,,,,,,3606.8977336001117,None,,,,,,,,,,,,,,,,,,,,,,,,,,,,,,,,,,,,,,,,,,,,,,,,,,,,,,,,,product,14,53,sing,old,blue,3603.6154777000193,None,n,3603.6154777000193,None,"['n', 'return']","[2.992766600102186, 3.248598200036213]",3603.6154777000193,None,,,17YE,001,2023_Mar_03_0939,ExactRep-v3-final,2021.2.3,60.00556850327399,
,,,,,,,,,,,,53,0,53,0,,,,,,,,,,,,,,,,,,,,,,,,,,,,,,,,,,,,,,,,,,,,,,,,,3608.516076100059,None,,,,,,,,,,,,,,,,,,,,,,,,,,,,,,,,,,,,,,,,,,,,,,,,,,,,,,,,,book,20,54,sing,old,blue,3607.404369600117,None,y,3607.404369600117,None,"['y', 'return']","[0.7317862000782043, 1.0758224001619965]",3607.404369600117,None,,,17YE,001,2023_Mar_03_0939,ExactRep-v3-final,2021.2.3,60.00556850327399,
,,,,,,,,,,,,54,0,54,0,,,,,,,,,,,,,,,,,,,,,,,,,,,,,,,,,,,,,,,,,,,,,,,,,3617.3748910001013,None,,,,,,,,,,,,,,,,,,,,,,,,,,,,,,,,,,,,,,,,,,,,,,,,,,,,,,,,,valley,209,55,sing,new,blue,3609.03020950011,None,n,3609.03020950011,None,"['y', 'backspace', 'n', 'return']","[4.35405520000495, 6.657903099898249, 7.265876200050116, 8.297975299879909]",3609.03020950011,None,,,17YE,001,2023_Mar_03_0939,ExactRep-v3-final,2021.2.3,60.00556850327399,
,,,,,,,,,,,,55,0,55,0,,,,,,,,,,,,,,,,,,,,,,,,,,,,,,,,,,,,,,,,,,,,,,,,,3623.0141141000204,None,,,,,,,,,,,,,,,,,,,,,,,,,,,,,,,,,,,,,,,,,,,,,,,,,,,,,,,,,animal,135,56,silent,new,red,3617.8832503999583,None,y,3617.8832503999583,None,"['y', 'return']","[4.732987100025639, 5.092879500007257]",3617.8832503999583,None,,,17YE,001,2023_Mar_03_0939,ExactRep-v3-final,2021.2.3,60.00556850327399,
,,,,,,,,,,,,56,0,56,0,,,,,,,,,,,,,,,,,,,,,,,,,,,,,,,,,,,,,,,,,,,,,,,,,3626.167041399982,None,,,,,,,,,,,,,,,,,,,,,,,,,,,,,,,,,,,,,,,,,,,,,,,,,,,,,,,,,horse,109,57,aloud,old,white,3623.522266099928,None,y,3623.522266099928,None,"['y', 'return']","[2.2059402999002486, 2.5979144000448287]",3623.522266099928,None,,,17YE,001,2023_Mar_03_0939,ExactRep-v3-final,2021.2.3,60.00556850327399,
,,,,,,,,,,,,57,0,57,0,,,,,,,,,,,,,,,,,,,,,,,,,,,,,,,,,,,,,,,,,,,,,,,,,3627.9688524000812,None,,,,,,,,,,,,,,,,,,,,,,,,,,,,,,,,,,,,,,,,,,,,,,,,,,,,,,,,,car,160,58,aloud,new,white,3626.678450500127,None,n,3626.678450500127,None,"['n', 'return']","[0.9616211999673396, 1.2496434999629855]",3626.678450500127,None,,,17YE,001,2023_Mar_03_0939,ExactRep-v3-final,2021.2.3,60.00556850327399,
,,,,,,,,,,,,58,0,58,0,,,,,,,,,,,,,,,,,,,,,,,,,,,,,,,,,,,,,,,,,,,,,,,,,3630.5881811000872,None,,,,,,,,,,,,,,,,,,,,,,,,,,,,,,,,,,,,,,,,,,,,,,,,,,,,,,,,,master,87,59,aloud,old,white,3628.483492899919,None,n,3628.483492899919,None,"['n', 'return']","[1.788626000052318, 2.068615500116721]",3628.483492899919,None,,,17YE,001,2023_Mar_03_0939,ExactRep-v3-final,2021.2.3,60.00556850327399,
,,,,,,,,,,,,59,0,59,0,,,,,,,,,,,,,,,,,,,,,,,,,,,,,,,,,,,,,,,,,,,,,,,,,3632.9071951999795,None,,,,,,,,,,,,,,,,,,,,,,,,,,,,,,,,,,,,,,,,,,,,,,,,,,,,,,,,,artist,140,60,silent,new,red,3631.0963800000027,None,n,3631.0963800000027,None,"['n', 'return']","[1.5596195000689477, 1.76765300007537]",3631.0963800000027,None,,,17YE,001,2023_Mar_03_0939,ExactRep-v3-final,2021.2.3,60.00556850327399,
,,,,,,,,,,,,60,0,60,0,,,,,,,,,,,,,,,,,,,,,,,,,,,,,,,,,,,,,,,,,,,,,,,,,3634.5589044000953,None,,,,,,,,,,,,,,,,,,,,,,,,,,,,,,,,,,,,,,,,,,,,,,,,,,,,,,,,,weapon,34,61,sing,old,blue,3633.4182078999,None,y,3633.4182078999,None,"['y', 'return']","[0.7979274000972509, 1.093905400019139]",3633.4182078999,None,,,17YE,001,2023_Mar_03_0939,ExactRep-v3-final,2021.2.3,60.00556850327399,
,,,,,,,,,,,,61,0,61,0,,,,,,,,,,,,,,,,,,,,,,,,,,,,,,,,,,,,,,,,,,,,,,,,,3636.227074699942,None,,,,,,,,,,,,,,,,,,,,,,,,,,,,,,,,,,,,,,,,,,,,,,,,,,,,,,,,,opinion,129,62,silent,new,red,3635.0621613000985,None,n,3635.0621613000985,None,"['return', 'n', 'return']","[0.6579889000859112, 0.937871899921447, 1.1299026000779122]",3635.0621613000985,None,,,17YE,001,2023_Mar_03_0939,ExactRep-v3-final,2021.2.3,60.00556850327399,
,,,,,,,,,,,,62,0,62,0,,,,,,,,,,,,,,,,,,,,,,,,,,,,,,,,,,,,,,,,,,,,,,,,,3638.1124368999153,None,,,,,,,,,,,,,,,,,,,,,,,,,,,,,,,,,,,,,,,,,,,,,,,,,,,,,,,,,gift,164,63,aloud,new,white,3636.7366039000917,None,n,3636.7366039000917,None,"['n', 'return']","[1.1514874000567943, 1.3436588000040501]",3636.7366039000917,None,,,17YE,001,2023_Mar_03_0939,ExactRep-v3-final,2021.2.3,60.00556850327399,
,,,,,,,,,,,,63,0,63,0,,,,,,,,,,,,,,,,,,,,,,,,,,,,,,,,,,,,,,,,,,,,,,,,,3640.2144373001065,None,,,,,,,,,,,,,,,,,,,,,,,,,,,,,,,,,,,,,,,,,,,,,,,,,,,,,,,,,officer,223,64,sing,new,blue,3638.6221096999943,None,n,3638.6221096999943,None,"['n', 'return']","[1.3620405001565814, 1.5541139000561088]",3638.6221096999943,None,,,17YE,001,2023_Mar_03_0939,ExactRep-v3-final,2021.2.3,60.00556850327399,
,,,,,,,,,,,,64,0,64,0,,,,,,,,,,,,,,,,,,,,,,,,,,,,,,,,,,,,,,,,,,,,,,,,,3642.867062400095,None,,,,,,,,,,,,,,,,,,,,,,,,,,,,,,,,,,,,,,,,,,,,,,,,,,,,,,,,,cabin,122,65,silent,new,red,3640.7243637999054,None,n,3640.7243637999054,None,"['n', 'return']","[1.9158100001513958, 2.0996093000285327]",3640.7243637999054,None,,,17YE,001,2023_Mar_03_0939,ExactRep-v3-final,2021.2.3,60.00556850327399,
,,,,,,,,,,,,65,0,65,0,,,,,,,,,,,,,,,,,,,,,,,,,,,,,,,,,,,,,,,,,,,,,,,,,3644.552124999929,None,,,,,,,,,,,,,,,,,,,,,,,,,,,,,,,,,,,,,,,,,,,,,,,,,,,,,,,,,butter,175,66,sing,new,blue,3643.3782349000685,None,n,3643.3782349000685,None,"['n', 'return']","[0.9739276999607682, 1.1420650999061763]",3643.3782349000685,None,,,17YE,001,2023_Mar_03_0939,ExactRep-v3-final,2021.2.3,60.00556850327399,
,,,,,,,,,,,,66,0,66,0,,,,,,,,,,,,,,,,,,,,,,,,,,,,,,,,,,,,,,,,,,,,,,,,,3646.771078400081,None,,,,,,,,,,,,,,,,,,,,,,,,,,,,,,,,,,,,,,,,,,,,,,,,,,,,,,,,,wife,29,67,sing,old,blue,3645.052599699935,None,y,3645.052599699935,None,"['y', 'return']","[0.8595936999190599, 1.6755207998212427]",3645.052599699935,None,,,17YE,001,2023_Mar_03_0939,ExactRep-v3-final,2021.2.3,60.00556850327399,
,,,,,,,,,,,,67,0,67,0,,,,,,,,,,,,,,,,,,,,,,,,,,,,,,,,,,,,,,,,,,,,,,,,,3648.706045500003,None,,,,,,,,,,,,,,,,,,,,,,,,,,,,,,,,,,,,,,,,,,,,,,,,,,,,,,,,,dollar,234,68,aloud,new,white,3647.2819054999854,None,n,3647.2819054999854,None,"['n', 'return']","[1.1344634999986738, 1.3823106000199914]",3647.2819054999854,None,,,17YE,001,2023_Mar_03_0939,ExactRep-v3-final,2021.2.3,60.00556850327399,
,,,,,,,,,,,,68,0,68,0,,,,,,,,,,,,,,,,,,,,,,,,,,,,,,,,,,,,,,,,,,,,,,,,,3650.7414991001133,None,,,,,,,,,,,,,,,,,,,,,,,,,,,,,,,,,,,,,,,,,,,,,,,,,,,,,,,,,diamond,4,69,sing,old,blue,3649.2157545001246,None,y,3649.2157545001246,None,"['y', 'return']","[1.1764572001993656, 1.4884281000122428]",3649.2157545001246,None,,,17YE,001,2023_Mar_03_0939,ExactRep-v3-final,2021.2.3,60.00556850327399,
,,,,,,,,,,,,69,0,69,0,,,,,,,,,,,,,,,,,,,,,,,,,,,,,,,,,,,,,,,,,,,,,,,,,3656.797686500009,None,,,,,,,,,,,,,,,,,,,,,,,,,,,,,,,,,,,,,,,,,,,,,,,,,,,,,,,,,river,119,70,aloud,old,white,3651.2513027999084,None,y,3651.2513027999084,None,"['n', 'backspace', 'y', 'return']","[0.7649248000234365, 2.900791499996558, 4.020794499898329, 5.508818199858069]",3651.2513027999084,None,,,17YE,001,2023_Mar_03_0939,ExactRep-v3-final,2021.2.3,60.00556850327399,
,,,,,,,,,,,,70,0,70,0,,,,,,,,,,,,,,,,,,,,,,,,,,,,,,,,,,,,,,,,,,,,,,,,,3660.6348802999128,None,,,,,,,,,,,,,,,,,,,,,,,,,,,,,,,,,,,,,,,,,,,,,,,,,,,,,,,,,shoes,163,71,sing,new,blue,3657.3093868000433,None,y,3657.3093868000433,None,"['y', 'return']","[2.8427653999533504, 3.2907521000597626]",3657.3093868000433,None,,,17YE,001,2023_Mar_03_0939,ExactRep-v3-final,2021.2.3,60.00556850327399,
,,,,,,,,,,,,71,0,71,0,,,,,,,,,,,,,,,,,,,,,,,,,,,,,,,,,,,,,,,,,,,,,,,,,3663.387582000112,None,,,,,,,,,,,,,,,,,,,,,,,,,,,,,,,,,,,,,,,,,,,,,,,,,,,,,,,,,doctor,23,72,sing,old,blue,3661.139049899997,None,y,3661.139049899997,None,"['y', 'return']","[1.7970231999643147, 2.2052063001319766]",3661.139049899997,None,,,17YE,001,2023_Mar_03_0939,ExactRep-v3-final,2021.2.3,60.00556850327399,
,,,,,,,,,,,,72,0,72,0,,,,,,,,,,,,,,,,,,,,,,,,,,,,,,,,,,,,,,,,,,,,,,,,,3664.8722405999433,None,,,,,,,,,,,,,,,,,,,,,,,,,,,,,,,,,,,,,,,,,,,,,,,,,,,,,,,,,sea,235,73,sing,new,blue,3663.899521100102,None,n,3663.899521100102,None,"['n', 'return']","[0.6606693998910487, 0.9326329999603331]",3663.899521100102,None,,,17YE,001,2023_Mar_03_0939,ExactRep-v3-final,2021.2.3,60.00556850327399,
,,,,,,,,,,,,73,0,73,0,,,,,,,,,,,,,,,,,,,,,,,,,,,,,,,,,,,,,,,,,,,,,,,,,3666.9078639000654,None,,,,,,,,,,,,,,,,,,,,,,,,,,,,,,,,,,,,,,,,,,,,,,,,,,,,,,,,,idea,18,74,sing,old,blue,3665.386167800054,None,y,3665.386167800054,None,"['y', 'return']","[1.1099420001264662, 1.477964699966833]",3665.386167800054,None,,,17YE,001,2023_Mar_03_0939,ExactRep-v3-final,2021.2.3,60.00556850327399,
,,,,,,,,,,,,74,0,74,0,,,,,,,,,,,,,,,,,,,,,,,,,,,,,,,,,,,,,,,,,,,,,,,,,3677.1847292000894,None,,,,,,,,,,,,,,,,,,,,,,,,,,,,,,,,,,,,,,,,,,,,,,,,,,,,,,,,,truth,218,75,aloud,new,white,3667.4168608000036,None,y,3667.4168608000036,None,"['y', 'return']","[3.703312500147149, 9.727278100093827]",3667.4168608000036,None,,,17YE,001,2023_Mar_03_0939,ExactRep-v3-final,2021.2.3,60.00556850327399,
,,,,,,,,,,,,75,0,75,0,,,,,,,,,,,,,,,,,,,,,,,,,,,,,,,,,,,,,,,,,,,,,,,,,3679.4701898000203,None,,,,,,,,,,,,,,,,,,,,,,,,,,,,,,,,,,,,,,,,,,,,,,,,,,,,,,,,,life,180,76,aloud,new,white,3677.69034500001,None,y,3677.69034500001,None,"['y', 'return']","[1.430075699929148, 1.7419332000426948]",3677.69034500001,None,,,17YE,001,2023_Mar_03_0939,ExactRep-v3-final,2021.2.3,60.00556850327399,
,,,,,,,,,,,,76,0,76,0,,,,,,,,,,,,,,,,,,,,,,,,,,,,,,,,,,,,,,,,,,,,,,,,,3680.871574100107,None,,,,,,,,,,,,,,,,,,,,,,,,,,,,,,,,,,,,,,,,,,,,,,,,,,,,,,,,,cotton,141,77,silent,new,red,3679.9814180000685,None,n,3679.9814180000685,None,"['n', 'return']","[0.5707310999277979, 0.8427214999683201]",3679.9814180000685,None,,,17YE,001,2023_Mar_03_0939,ExactRep-v3-final,2021.2.3,60.00556850327399,
,,,,,,,,,,,,77,0,77,0,,,,,,,,,,,,,,,,,,,,,,,,,,,,,,,,,,,,,,,,,,,,,,,,,3682.1897040000185,None,,,,,,,,,,,,,,,,,,,,,,,,,,,,,,,,,,,,,,,,,,,,,,,,,,,,,,,,,gold,150,78,silent,new,red,3681.380609899992,None,n,3681.380609899992,None,"['n', 'return']","[0.499698500148952, 0.7715833000838757]",3681.380609899992,None,,,17YE,001,2023_Mar_03_0939,ExactRep-v3-final,2021.2.3,60.00556850327399,
,,,,,,,,,,,,78,0,78,0,,,,,,,,,,,,,,,,,,,,,,,,,,,,,,,,,,,,,,,,,,,,,,,,,3684.792146099964,None,,,,,,,,,,,,,,,,,,,,,,,,,,,,,,,,,,,,,,,,,,,,,,,,,,,,,,,,,cattle,190,79,aloud,new,white,3682.698627700098,None,n,3682.698627700098,None,"['n', 'return']","[1.7895828001201153, 2.061606999952346]",3682.698627700098,None,,,17YE,001,2023_Mar_03_0939,ExactRep-v3-final,2021.2.3,60.00556850327399,
,,,,,,,,,,,,79,0,79,0,,,,,,,,,,,,,,,,,,,,,,,,,,,,,,,,,,,,,,,,,,,,,,,,,3687.912257899996,None,,,,,,,,,,,,,,,,,,,,,,,,,,,,,,,,,,,,,,,,,,,,,,,,,,,,,,,,,style,22,80,sing,old,blue,3685.3022521999665,None,n,3685.3022521999665,None,"['n', 'return']","[2.2661011999007314, 2.5620450999122113]",3685.3022521999665,None,,,17YE,001,2023_Mar_03_0939,ExactRep-v3-final,2021.2.3,60.00556850327399,
,,,,,,,,,,,,80,0,80,0,,,,,,,,,,,,,,,,,,,,,,,,,,,,,,,,,,,,,,,,,,,,,,,,,3689.597175600007,None,,,,,,,,,,,,,,,,,,,,,,,,,,,,,,,,,,,,,,,,,,,,,,,,,,,,,,,,,college,95,81,aloud,old,white,3688.4218824999407,None,y,3688.4218824999407,None,"['y', 'return']","[0.7944352999329567, 1.138311699964106]",3688.4218824999407,None,,,17YE,001,2023_Mar_03_0939,ExactRep-v3-final,2021.2.3,60.00556850327399,
,,,,,,,,,,,,81,0,81,0,,,,,,,,,,,,,,,,,,,,,,,,,,,,,,,,,,,,,,,,,,,,,,,,,3691.44898570003,None,,,,,,,,,,,,,,,,,,,,,,,,,,,,,,,,,,,,,,,,,,,,,,,,,,,,,,,,,forest,97,82,aloud,old,white,3690.1042363999877,None,y,3690.1042363999877,None,"['y', 'return']","[1.0240527999121696, 1.3039718999061733]",3690.1042363999877,None,,,17YE,001,2023_Mar_03_0939,ExactRep-v3-final,2021.2.3,60.00556850327399,
,,,,,,,,,,,,82,0,82,0,,,,,,,,,,,,,,,,,,,,,,,,,,,,,,,,,,,,,,,,,,,,,,,,,3693.2036733001005,None,,,,,,,,,,,,,,,,,,,,,,,,,,,,,,,,,,,,,,,,,,,,,,,,,,,,,,,,,beast,170,83,aloud,new,white,3691.95997039997,None,y,3691.95997039997,None,"['y', 'return']","[0.9124291001353413, 1.200173200108111]",3691.95997039997,None,,,17YE,001,2023_Mar_03_0939,ExactRep-v3-final,2021.2.3,60.00556850327399,
,,,,,,,,,,,,83,0,83,0,,,,,,,,,,,,,,,,,,,,,,,,,,,,,,,,,,,,,,,,,,,,,,,,,3695.302823800128,None,,,,,,,,,,,,,,,,,,,,,,,,,,,,,,,,,,,,,,,,,,,,,,,,,,,,,,,,,door,238,84,aloud,new,white,3693.7322408000473,None,n,3693.7322408000473,None,"['n', 'return']","[1.275955099845305, 1.523973099887371]",3693.7322408000473,None,,,17YE,001,2023_Mar_03_0939,ExactRep-v3-final,2021.2.3,60.00556850327399,
,,,,,,,,,,,,84,0,84,0,,,,,,,,,,,,,,,,,,,,,,,,,,,,,,,,,,,,,,,,,,,,,,,,,3697.104686799925,None,,,,,,,,,,,,,,,,,,,,,,,,,,,,,,,,,,,,,,,,,,,,,,,,,,,,,,,,,form,116,85,aloud,old,white,3695.811983499909,None,n,3695.811983499909,None,"['n', 'return']","[1.0281097998376936, 1.2521472999360412]",3695.811983499909,None,,,17YE,001,2023_Mar_03_0939,ExactRep-v3-final,2021.2.3,60.00556850327399,
,,,,,,,,,,,,85,0,85,0,,,,,,,,,,,,,,,,,,,,,,,,,,,,,,,,,,,,,,,,,,,,,,,,,3698.839685600018,None,,,,,,,,,,,,,,,,,,,,,,,,,,,,,,,,,,,,,,,,,,,,,,,,,,,,,,,,,humour,213,86,sing,new,blue,3697.6097595000174,None,n,3697.6097595000174,None,"['n', 'return']","[0.9984193001873791, 1.1824741000309587]",3697.6097595000174,None,,,17YE,001,2023_Mar_03_0939,ExactRep-v3-final,2021.2.3,60.00556850327399,
,,,,,,,,,,,,86,0,86,0,,,,,,,,,,,,,,,,,,,,,,,,,,,,,,,,,,,,,,,,,,,,,,,,,3700.5916446000338,None,,,,,,,,,,,,,,,,,,,,,,,,,,,,,,,,,,,,,,,,,,,,,,,,,,,,,,,,,body,113,87,aloud,old,white,3699.3449766000267,None,y,3699.3449766000267,None,"['y', 'return']","[0.8792429000604898, 1.1992815001867712]",3699.3449766000267,None,,,17YE,001,2023_Mar_03_0939,ExactRep-v3-final,2021.2.3,60.00556850327399,
,,,,,,,,,,,,87,0,87,0,,,,,,,,,,,,,,,,,,,,,,,,,,,,,,,,,,,,,,,,,,,,,,,,,3702.4600935000926,None,,,,,,,,,,,,,,,,,,,,,,,,,,,,,,,,,,,,,,,,,,,,,,,,,,,,,,,,,tool,106,88,aloud,old,white,3701.105667799944,None,y,3701.105667799944,None,"['y', 'return']","[1.0704726001713425, 1.3104088001418859]",3701.105667799944,None,,,17YE,001,2023_Mar_03_0939,ExactRep-v3-final,2021.2.3,60.00556850327399,
,,,,,,,,,,,,88,0,88,0,,,,,,,,,,,,,,,,,,,,,,,,,,,,,,,,,,,,,,,,,,,,,,,,,3704.061435099924,None,,,,,,,,,,,,,,,,,,,,,,,,,,,,,,,,,,,,,,,,,,,,,,,,,,,,,,,,,deed,233,89,sing,new,blue,3702.968877800042,None,n,3702.968877800042,None,"['n', 'return']","[0.8152352999895811, 1.0473340000025928]",3702.968877800042,None,,,17YE,001,2023_Mar_03_0939,ExactRep-v3-final,2021.2.3,60.00556850327399,
,,,,,,,,,,,,89,0,89,0,,,,,,,,,,,,,,,,,,,,,,,,,,,,,,,,,,,,,,,,,,,,,,,,,3705.613184799906,None,,,,,,,,,,,,,,,,,,,,,,,,,,,,,,,,,,,,,,,,,,,,,,,,,,,,,,,,,letter,186,90,aloud,new,white,3704.5660826000385,None,n,3704.5660826000385,None,"['n', 'return']","[0.7700968999415636, 1.0021525998599827]",3704.5660826000385,None,,,17YE,001,2023_Mar_03_0939,ExactRep-v3-final,2021.2.3,60.00556850327399,
,,,,,,,,,,,,90,0,90,0,,,,,,,,,,,,,,,,,,,,,,,,,,,,,,,,,,,,,,,,,,,,,,,,,3710.117692400003,None,,,,,,,,,,,,,,,,,,,,,,,,,,,,,,,,,,,,,,,,,,,,,,,,,,,,,,,,,toy,177,91,sing,new,blue,3706.1222246999387,None,n,3706.1222246999387,None,"['n', 'return']","[3.69390879990533, 3.9579997998662293]",3706.1222246999387,None,,,17YE,001,2023_Mar_03_0939,ExactRep-v3-final,2021.2.3,60.00556850327399,
,,,,,,,,,,,,91,0,91,0,,,,,,,,,,,,,,,,,,,,,,,,,,,,,,,,,,,,,,,,,,,,,,,,,3711.8528106999584,None,,,,,,,,,,,,,,,,,,,,,,,,,,,,,,,,,,,,,,,,,,,,,,,,,,,,,,,,,dress,195,92,sing,new,blue,3710.627681300044,None,n,3710.627681300044,None,"['n', 'return']","[0.9563965999986976, 1.180424600141123]",3710.627681300044,None,,,17YE,001,2023_Mar_03_0939,ExactRep-v3-final,2021.2.3,60.00556850327399,
,,,,,,,,,,,,92,0,92,0,,,,,,,,,,,,,,,,,,,,,,,,,,,,,,,,,,,,,,,,,,,,,,,,,3713.570843500085,None,,,,,,,,,,,,,,,,,,,,,,,,,,,,,,,,,,,,,,,,,,,,,,,,,,,,,,,,,flood,168,93,aloud,new,white,3712.3599827999715,None,n,3712.3599827999715,None,"['n', 'return']","[0.9442891001235694, 1.1760887999553233]",3712.3599827999715,None,,,17YE,001,2023_Mar_03_0939,ExactRep-v3-final,2021.2.3,60.00556850327399,
,,,,,,,,,,,,93,0,93,0,,,,,,,,,,,,,,,,,,,,,,,,,,,,,,,,,,,,,,,,,,,,,,,,,3715.5064525001217,None,,,,,,,,,,,,,,,,,,,,,,,,,,,,,,,,,,,,,,,,,,,,,,,,,,,,,,,,,earth,212,94,aloud,new,white,3714.0792022999376,None,n,3714.0792022999376,None,"['n', 'return']","[1.1050355997867882, 1.392954799812287]",3714.0792022999376,None,,,17YE,001,2023_Mar_03_0939,ExactRep-v3-final,2021.2.3,60.00556850327399,
,,,,,,,,,,,,94,0,94,0,,,,,,,,,,,,,,,,,,,,,,,,,,,,,,,,,,,,,,,,,,,,,,,,,3720.0275544999167,None,,,,,,,,,,,,,,,,,,,,,,,,,,,,,,,,,,,,,,,,,,,,,,,,,,,,,,,,,dawn,30,95,sing,old,blue,3716.0162984000053,None,n,3716.0162984000053,None,"['n', 'return']","[3.559827399905771, 3.9760123000014573]",3716.0162984000053,None,,,17YE,001,2023_Mar_03_0939,ExactRep-v3-final,2021.2.3,60.00556850327399,
,,,,,,,,,,,,95,0,95,0,,,,,,,,,,,,,,,,,,,,,,,,,,,,,,,,,,,,,,,,,,,,,,,,,3721.6792025999166,None,,,,,,,,,,,,,,,,,,,,,,,,,,,,,,,,,,,,,,,,,,,,,,,,,,,,,,,,,woman,71,96,silent,old,red,3720.53036460001,None,n,3720.53036460001,None,"['n', 'return']","[0.7738393000327051, 1.1018423000350595]",3720.53036460001,None,,,17YE,001,2023_Mar_03_0939,ExactRep-v3-final,2021.2.3,60.00556850327399,
,,,,,,,,,,,,96,0,96,0,,,,,,,,,,,,,,,,,,,,,,,,,,,,,,,,,,,,,,,,,,,,,,,,,3724.9323050999083,None,,,,,,,,,,,,,,,,,,,,,,,,,,,,,,,,,,,,,,,,,,,,,,,,,,,,,,,,,cost,80,97,aloud,old,white,3722.1886001999956,None,n,3722.1886001999956,None,"['n', 'return']","[2.4675744001287967, 2.707616199972108]",3722.1886001999956,None,,,17YE,001,2023_Mar_03_0939,ExactRep-v3-final,2021.2.3,60.00556850327399,
,,,,,,,,,,,,97,0,97,0,,,,,,,,,,,,,,,,,,,,,,,,,,,,,,,,,,,,,,,,,,,,,,,,,3726.5341221999843,None,,,,,,,,,,,,,,,,,,,,,,,,,,,,,,,,,,,,,,,,,,,,,,,,,,,,,,,,,flesh,59,98,silent,old,red,3725.4362210999243,None,n,3725.4362210999243,None,"['n', 'return']","[0.7959594998974353, 1.0600076999980956]",3725.4362210999243,None,,,17YE,001,2023_Mar_03_0939,ExactRep-v3-final,2021.2.3,60.00556850327399,
,,,,,,,,,,,,98,0,98,0,,,,,,,,,,,,,,,,,,,,,,,,,,,,,,,,,,,,,,,,,,,,,,,,,3728.1189617000055,None,,,,,,,,,,,,,,,,,,,,,,,,,,,,,,,,,,,,,,,,,,,,,,,,,,,,,,,,,bird,89,99,aloud,old,white,3727.0426527999807,None,n,3727.0426527999807,None,"['n', 'return']","[0.7975538000464439, 1.029558700043708]",3727.0426527999807,None,,,17YE,001,2023_Mar_03_0939,ExactRep-v3-final,2021.2.3,60.00556850327399,
,,,,,,,,,,,,99,0,99,0,,,,,,,,,,,,,,,,,,,,,,,,,,,,,,,,,,,,,,,,,,,,,,,,,3731.3389618000947,None,,,,,,,,,,,,,,,,,,,,,,,,,,,,,,,,,,,,,,,,,,,,,,,,,,,,,,,,,lad,57,100,silent,old,red,3728.635905199917,None,n,3728.635905199917,None,"['n', 'return']","[2.2763173000421375, 2.660243700025603]",3728.635905199917,None,,,17YE,001,2023_Mar_03_0939,ExactRep-v3-final,2021.2.3,60.00556850327399,
,,,,,,,,,,,,100,0,100,0,,,,,,,,,,,,,,,,,,,,,,,,,,,,,,,,,,,,,,,,,,,,,,,,,3734.7756354000885,None,,,,,,,,,,,,,,,,,,,,,,,,,,,,,,,,,,,,,,,,,,,,,,,,,,,,,,,,,soul,159,101,silent,new,red,3731.84845410008,None,y,3731.84845410008,None,"['y', 'return']","[2.511762599926442, 2.887793199857697]",3731.84845410008,None,,,17YE,001,2023_Mar_03_0939,ExactRep-v3-final,2021.2.3,60.00556850327399,
,,,,,,,,,,,,101,0,101,0,,,,,,,,,,,,,,,,,,,,,,,,,,,,,,,,,,,,,,,,,,,,,,,,,3736.911355700111,None,,,,,,,,,,,,,,,,,,,,,,,,,,,,,,,,,,,,,,,,,,,,,,,,,,,,,,,,,advice,227,102,sing,new,blue,3735.2869627999607,None,n,3735.2869627999607,None,"['n', 'return']","[1.3374294000677764, 1.577405400108546]",3735.2869627999607,None,,,17YE,001,2023_Mar_03_0939,ExactRep-v3-final,2021.2.3,60.00556850327399,
,,,,,,,,,,,,102,0,102,0,,,,,,,,,,,,,,,,,,,,,,,,,,,,,,,,,,,,,,,,,,,,,,,,,3738.746351500042,None,,,,,,,,,,,,,,,,,,,,,,,,,,,,,,,,,,,,,,,,,,,,,,,,,,,,,,,,,king,208,103,aloud,new,white,3737.4221862000413,None,n,3737.4221862000413,None,"['n', 'return']","[1.0341036999598145, 1.2900805999524891]",3737.4221862000413,None,,,17YE,001,2023_Mar_03_0939,ExactRep-v3-final,2021.2.3,60.00556850327399,
,,,,,,,,,,,,103,0,103,0,,,,,,,,,,,,,,,,,,,,,,,,,,,,,,,,,,,,,,,,,,,,,,,,,3740.3479391001165,None,,,,,,,,,,,,,,,,,,,,,,,,,,,,,,,,,,,,,,,,,,,,,,,,,,,,,,,,,shore,64,104,silent,old,red,3739.2563617001288,None,n,3739.2563617001288,None,"['n', 'return']","[0.6638087001629174, 1.0478378999978304]",3739.2563617001288,None,,,17YE,001,2023_Mar_03_0939,ExactRep-v3-final,2021.2.3,60.00556850327399,
,,,,,,,,,,,,104,0,104,0,,,,,,,,,,,,,,,,,,,,,,,,,,,,,,,,,,,,,,,,,,,,,,,,,3742.1829280999955,None,,,,,,,,,,,,,,,,,,,,,,,,,,,,,,,,,,,,,,,,,,,,,,,,,,,,,,,,,fact,207,105,sing,new,blue,3740.8553242001217,None,n,3740.8553242001217,None,"['n', 'return']","[1.0809441998135298, 1.2812563998159021]",3740.8553242001217,None,,,17YE,001,2023_Mar_03_0939,ExactRep-v3-final,2021.2.3,60.00556850327399,
,,,,,,,,,,,,105,0,105,0,,,,,,,,,,,,,,,,,,,,,,,,,,,,,,,,,,,,,,,,,,,,,,,,,3746.370565700112,None,,,,,,,,,,,,,,,,,,,,,,,,,,,,,,,,,,,,,,,,,,,,,,,,,,,,,,,,,coffee,68,106,silent,old,red,3742.6930893999524,None,n,3742.6930893999524,None,"['n', 'return']","[1.6989839000161737, 3.643239500001073]",3742.6930893999524,None,,,17YE,001,2023_Mar_03_0939,ExactRep-v3-final,2021.2.3,60.00556850327399,
,,,,,,,,,,,,106,0,106,0,,,,,,,,,,,,,,,,,,,,,,,,,,,,,,,,,,,,,,,,,,,,,,,,,3749.7906551000196,None,,,,,,,,,,,,,,,,,,,,,,,,,,,,,,,,,,,,,,,,,,,,,,,,,,,,,,,,,victory,220,107,aloud,new,white,3746.8734903000295,None,n,3746.8734903000295,None,"['n', 'return']","[2.4709418998099864, 2.8709154999814928]",3746.8734903000295,None,,,17YE,001,2023_Mar_03_0939,ExactRep-v3-final,2021.2.3,60.00556850327399,
,,,,,,,,,,,,107,0,107,0,,,,,,,,,,,,,,,,,,,,,,,,,,,,,,,,,,,,,,,,,,,,,,,,,3756.9477975000627,None,,,,,,,,,,,,,,,,,,,,,,,,,,,,,,,,,,,,,,,,,,,,,,,,,,,,,,,,,paper,88,108,aloud,old,white,3750.3006027000956,None,n,3750.3006027000956,None,"['n', 'return']","[6.35568349994719, 6.611826499924064]",3750.3006027000956,None,,,17YE,001,2023_Mar_03_0939,ExactRep-v3-final,2021.2.3,60.00556850327399,
,,,,,,,,,,,,108,0,108,0,,,,,,,,,,,,,,,,,,,,,,,,,,,,,,,,,,,,,,,,,,,,,,,,,3759.683970300015,None,,,,,,,,,,,,,,,,,,,,,,,,,,,,,,,,,,,,,,,,,,,,,,,,,,,,,,,,,queen,40,109,silent,old,red,3757.4547268000897,None,n,3757.4547268000897,None,"['n', 'return']","[0.8174594000447541, 2.18545540003106]",3757.4547268000897,None,,,17YE,001,2023_Mar_03_0939,ExactRep-v3-final,2021.2.3,60.00556850327399,
,,,,,,,,,,,,109,0,109,0,,,,,,,,,,,,,,,,,,,,,,,,,,,,,,,,,,,,,,,,,,,,,,,,,3761.6860493998975,None,,,,,,,,,,,,,,,,,,,,,,,,,,,,,,,,,,,,,,,,,,,,,,,,,,,,,,,,,law,187,110,sing,new,blue,3760.1958286999725,None,n,3760.1958286999725,None,"['n', 'return']","[1.1164404000155628, 1.4524304999504238]",3760.1958286999725,None,,,17YE,001,2023_Mar_03_0939,ExactRep-v3-final,2021.2.3,60.00556850327399,
,,,,,,,,,,,,110,0,110,0,,,,,,,,,,,,,,,,,,,,,,,,,,,,,,,,,,,,,,,,,,,,,,,,,3768.158837799914,None,,,,,,,,,,,,,,,,,,,,,,,,,,,,,,,,,,,,,,,,,,,,,,,,,,,,,,,,,apple,45,111,silent,old,red,3762.19664920005,None,n,3762.19664920005,None,"['return', 'n', 'return']","[2.3876743998844177, 5.587583399843425, 5.915646099951118]",3762.19664920005,None,,,17YE,001,2023_Mar_03_0939,ExactRep-v3-final,2021.2.3,60.00556850327399,
,,,,,,,,,,,,111,0,111,0,,,,,,,,,,,,,,,,,,,,,,,,,,,,,,,,,,,,,,,,,,,,,,,,,3770.144384900108,None,,,,,,,,,,,,,,,,,,,,,,,,,,,,,,,,,,,,,,,,,,,,,,,,,,,,,,,,,chair,151,112,silent,new,red,3768.6689959000796,None,y,3768.6689959000796,None,"['y', 'return']","[1.091191700194031, 1.4352035000920296]",3768.6689959000796,None,,,17YE,001,2023_Mar_03_0939,ExactRep-v3-final,2021.2.3,60.00556850327399,
,,,,,,,,,,,,112,0,112,0,,,,,,,,,,,,,,,,,,,,,,,,,,,,,,,,,,,,,,,,,,,,,,,,,3772.7804425000213,None,,,,,,,,,,,,,,,,,,,,,,,,,,,,,,,,,,,,,,,,,,,,,,,,,,,,,,,,,method,202,113,aloud,new,white,3770.6575718999375,None,n,3770.6575718999375,None,"['n', 'return']","[1.8306032000109553, 2.0786349000409245]",3770.6575718999375,None,,,17YE,001,2023_Mar_03_0939,ExactRep-v3-final,2021.2.3,60.00556850327399,
,,,,,,,,,,,,113,0,113,0,,,,,,,,,,,,,,,,,,,,,,,,,,,,,,,,,,,,,,,,,,,,,,,,,3774.748931400012,None,,,,,,,,,,,,,,,,,,,,,,,,,,,,,,,,,,,,,,,,,,,,,,,,,,,,,,,,,corn,77,114,silent,old,red,3773.292288100114,None,y,3773.292288100114,None,"['y', 'return']","[1.1480457000434399, 1.4199506000149995]",3773.292288100114,None,,,17YE,001,2023_Mar_03_0939,ExactRep-v3-final,2021.2.3,60.00556850327399,
,,,,,,,,,,,,114,0,114,0,,,,,,,,,,,,,,,,,,,,,,,,,,,,,,,,,,,,,,,,,,,,,,,,,3777.2847651001066,None,,,,,,,,,,,,,,,,,,,,,,,,,,,,,,,,,,,,,,,,,,,,,,,,,,,,,,,,,village,114,115,aloud,old,white,3775.262161700055,None,y,3775.262161700055,None,"['y', 'return']","[1.7539832000620663, 1.9780704001896083]",3775.262161700055,None,,,17YE,001,2023_Mar_03_0939,ExactRep-v3-final,2021.2.3,60.00556850327399,
,,,,,,,,,,,,115,0,115,0,,,,,,,,,,,,,,,,,,,,,,,,,,,,,,,,,,,,,,,,,,,,,,,,,3782.0062295000535,None,,,,,,,,,,,,,,,,,,,,,,,,,,,,,,,,,,,,,,,,,,,,,,,,,,,,,,,,,custom,156,116,silent,new,red,3777.7948336999398,None,n,3777.7948336999398,None,"['n', 'return']","[3.829397999914363, 4.165503099793568]",3777.7948336999398,None,,,17YE,001,2023_Mar_03_0939,ExactRep-v3-final,2021.2.3,60.00556850327399,
,,,,,,,,,,,,116,0,116,0,,,,,,,,,,,,,,,,,,,,,,,,,,,,,,,,,,,,,,,,,,,,,,,,,3784.0582826999016,None,,,,,,,,,,,,,,,,,,,,,,,,,,,,,,,,,,,,,,,,,,,,,,,,,,,,,,,,,prayer,179,117,sing,new,blue,3782.5176401000936,None,n,3782.5176401000936,None,"['n', 'return']","[1.2184776000212878, 1.4985020998865366]",3782.5176401000936,None,,,17YE,001,2023_Mar_03_0939,ExactRep-v3-final,2021.2.3,60.00556850327399,
,,,,,,,,,,,,117,0,117,0,,,,,,,,,,,,,,,,,,,,,,,,,,,,,,,,,,,,,,,,,,,,,,,,,3786.3438715001103,None,,,,,,,,,,,,,,,,,,,,,,,,,,,,,,,,,,,,,,,,,,,,,,,,,,,,,,,,,colony,152,118,silent,new,red,3784.5712635000236,None,n,3784.5712635000236,None,"['n', 'return']","[0.9169707000255585, 1.7330308000091463]",3784.5712635000236,None,,,17YE,001,2023_Mar_03_0939,ExactRep-v3-final,2021.2.3,60.00556850327399,
,,,,,,,,,,,,118,0,118,0,,,,,,,,,,,,,,,,,,,,,,,,,,,,,,,,,,,,,,,,,,,,,,,,,3789.3470219001174,None,,,,,,,,,,,,,,,,,,,,,,,,,,,,,,,,,,,,,,,,,,,,,,,,,,,,,,,,,quality,74,119,silent,old,red,3786.8535575999413,None,n,3786.8535575999413,None,"['n', 'return']","[0.6585623000282794, 2.458698800066486]",3786.8535575999413,None,,,17YE,001,2023_Mar_03_0939,ExactRep-v3-final,2021.2.3,60.00556850327399,
,,,,,,,,,,,,119,0,119,0,,,,,,,,,,,,,,,,,,,,,,,,,,,,,,,,,,,,,,,,,,,,,,,,,3792.3499674000777,None,,,,,,,,,,,,,,,,,,,,,,,,,,,,,,,,,,,,,,,,,,,,,,,,,,,,,,,,,plain,82,120,aloud,old,white,3789.858959800098,None,n,3789.858959800098,None,"['n', 'return']","[2.005598200019449, 2.4454207001253963]",3789.858959800098,None,,,17YE,001,2023_Mar_03_0939,ExactRep-v3-final,2021.2.3,60.00556850327399,
,,,,,,,,,,,,120,0,120,0,,,,,,,,,,,,,,,,,,,,,,,,,,,,,,,,,,,,,,,,,,,,,,,,,3800.157689699903,None,,,,,,,,,,,,,,,,,,,,,,,,,,,,,,,,,,,,,,,,,,,,,,,,,,,,,,,,,health,149,121,silent,new,red,3792.8564019000623,None,y,3792.8564019000623,None,"['y', 'return']","[6.887958100065589, 7.263920200057328]",3792.8564019000623,None,,,17YE,001,2023_Mar_03_0939,ExactRep-v3-final,2021.2.3,60.00556850327399,
,,,,,,,,,,,,121,0,121,0,,,,,,,,,,,,,,,,,,,,,,,,,,,,,,,,,,,,,,,,,,,,,,,,,3801.8927492001094,None,,,,,,,,,,,,,,,,,,,,,,,,,,,,,,,,,,,,,,,,,,,,,,,,,,,,,,,,,fault,15,122,sing,old,blue,3800.6737681999803,None,n,3800.6737681999803,None,"['n', 'return']","[0.9105773000046611, 1.1825154998805374]",3800.6737681999803,None,,,17YE,001,2023_Mar_03_0939,ExactRep-v3-final,2021.2.3,60.00556850327399,
,,,,,,,,,,,,122,0,122,0,,,,,,,,,,,,,,,,,,,,,,,,,,,,,,,,,,,,,,,,,,,,,,,,,3805.396264600102,None,,,,,,,,,,,,,,,,,,,,,,,,,,,,,,,,,,,,,,,,,,,,,,,,,,,,,,,,,vision,41,123,silent,old,red,3802.4021620999556,None,y,3802.4021620999556,None,"['y', 'return']","[2.6541098998859525, 2.950044499943033]",3802.4021620999556,None,,,17YE,001,2023_Mar_03_0939,ExactRep-v3-final,2021.2.3,60.00556850327399,
,,,,,,,,,,,,123,0,123,0,,,,,,,,,,,,,,,,,,,,,,,,,,,,,,,,,,,,,,,,,,,,,,,,,3807.0646399001125,None,,,,,,,,,,,,,,,,,,,,,,,,,,,,,,,,,,,,,,,,,,,,,,,,,,,,,,,,,ship,162,124,aloud,new,white,3805.9125040001236,None,n,3805.9125040001236,None,"['n', 'return']","[0.807817499851808, 1.103809299878776]",3805.9125040001236,None,,,17YE,001,2023_Mar_03_0939,ExactRep-v3-final,2021.2.3,60.00556850327399,
,,,,,,,,,,,,124,0,124,0,,,,,,,,,,,,,,,,,,,,,,,,,,,,,,,,,,,,,,,,,,,,,,,,,3808.9497076000553,None,,,,,,,,,,,,,,,,,,,,,,,,,,,,,,,,,,,,,,,,,,,,,,,,,,,,,,,,,plant,158,125,silent,new,red,3807.5827991000842,None,n,3807.5827991000842,None,"['n', 'return']","[0.8895024999510497, 1.3213610998354852]",3807.5827991000842,None,,,17YE,001,2023_Mar_03_0939,ExactRep-v3-final,2021.2.3,60.00556850327399,
,,,,,,,,,,,,125,0,125,0,,,,,,,,,,,,,,,,,,,,,,,,,,,,,,,,,,,,,,,,,,,,,,,,,3812.8201639000326,None,,,,,,,,,,,,,,,,,,,,,,,,,,,,,,,,,,,,,,,,,,,,,,,,,,,,,,,,,home,91,126,aloud,old,white,3809.4504396999255,None,n,3809.4504396999255,None,"['n', 'return']","[1.941954700043425, 3.3338431001175195]",3809.4504396999255,None,,,17YE,001,2023_Mar_03_0939,ExactRep-v3-final,2021.2.3,60.00556850327399,
,,,,,,,,,,,,126,0,126,0,,,,,,,,,,,,,,,,,,,,,,,,,,,,,,,,,,,,,,,,,,,,,,,,,3814.5053779999726,None,,,,,,,,,,,,,,,,,,,,,,,,,,,,,,,,,,,,,,,,,,,,,,,,,,,,,,,,,storm,147,127,silent,new,red,3813.3233058000915,None,n,3813.3233058000915,None,"['n', 'return']","[0.7728498999495059, 1.1412688998971134]",3813.3233058000915,None,,,17YE,001,2023_Mar_03_0939,ExactRep-v3-final,2021.2.3,60.00556850327399,
,,,,,,,,,,,,127,0,127,0,,,,,,,,,,,,,,,,,,,,,,,,,,,,,,,,,,,,,,,,,,,,,,,,,3816.4907194001134,None,,,,,,,,,,,,,,,,,,,,,,,,,,,,,,,,,,,,,,,,,,,,,,,,,,,,,,,,,virtue,172,128,aloud,new,white,3815.015376500087,None,n,3815.015376500087,None,"['n', 'return']","[1.2488337999675423, 1.4408764999825507]",3815.015376500087,None,,,17YE,001,2023_Mar_03_0939,ExactRep-v3-final,2021.2.3,60.00556850327399,
,,,,,,,,,,,,128,0,128,0,,,,,,,,,,,,,,,,,,,,,,,,,,,,,,,,,,,,,,,,,,,,,,,,,3818.6929142998997,None,,,,,,,,,,,,,,,,,,,,,,,,,,,,,,,,,,,,,,,,,,,,,,,,,,,,,,,,,meat,216,129,aloud,new,white,3817.004219500115,None,n,3817.004219500115,None,"['n', 'return']","[1.4440550000872463, 1.6520164001267403]",3817.004219500115,None,,,17YE,001,2023_Mar_03_0939,ExactRep-v3-final,2021.2.3,60.00556850327399,
,,,,,,,,,,,,129,0,129,0,,,,,,,,,,,,,,,,,,,,,,,,,,,,,,,,,,,,,,,,,,,,,,,,,3820.094407700002,None,,,,,,,,,,,,,,,,,,,,,,,,,,,,,,,,,,,,,,,,,,,,,,,,,,,,,,,,,market,117,130,aloud,old,white,3819.2004036,None,n,3819.2004036,None,"['n', 'return']","[0.6079356998670846, 0.856005699839443]",3819.2004036,None,,,17YE,001,2023_Mar_03_0939,ExactRep-v3-final,2021.2.3,60.00556850327399,
