trials_fam.thisRepN,trials_fam.thisTrialN,trials_fam.thisN,trials_fam.thisIndex,trials_prc.thisRepN,trials_prc.thisTrialN,trials_prc.thisN,trials_prc.thisIndex,StudyLoop.thisRepN,StudyLoop.thisTrialN,StudyLoop.thisN,StudyLoop.thisIndex,TestLoop.thisRepN,TestLoop.thisTrialN,TestLoop.thisN,TestLoop.thisIndex,text_colortest.started,text_colortest.stopped,key_colortest.keys,key_colortest.rt,key_colortest.started,key_colortest.stopped,textCondition.started,textCondition.stopped,keyCondition.keys,keyCondition.rt,keyCondition.started,keyCondition.stopped,Condition_between,Condition_counterbal,keyWelcome.keys,keyWelcome.rt,keyWelcome.started,keyWelcome.stopped,welcome_a.started,welcome_a.stopped,welcome_b.started,welcome_b.stopped,welcome_c.started,welcome_c.stopped,welcome_d.started,welcome_d.stopped,welcome_e.started,welcome_e.stopped,welcome_f.started,welcome_f.stopped,key_resp_fam_inst.keys,key_resp_fam_inst.rt,key_resp_fam_inst.started,key_resp_fam_inst.stopped,fam_a.started,fam_a.stopped,fam_b.started,fam_b.stopped,fam_c.started,fam_c.stopped,fam_d.started,fam_d.stopped,fam_e.started,fam_e.stopped,fam_f.started,fam_f.stopped,text_famil.started,text_famil.stopped,textBlank500.started,textBlank500.stopped,key_resp_prc_inst.keys,key_resp_prc_inst.rt,key_resp_prc_inst.started,key_resp_prc_inst.stopped,prac_a.started,prac_a.stopped,prac_b.started,prac_b.stopped,prac_c.started,prac_c.stopped,prac_d.started,prac_d.stopped,prac_e.started,prac_e.stopped,prac_f.started,prac_f.stopped,text_prc_trial.started,text_prc_trial.stopped,key_resp_study_inst.keys,key_resp_study_inst.rt,key_resp_study_inst.started,key_resp_study_inst.stopped,crit_a.started,crit_a.stopped,crit_b.started,crit_b.stopped,crit_c.started,crit_c.stopped,crit_d.started,crit_d.stopped,crit_e.started,crit_e.stopped,crit_f.started,crit_f.stopped,study_word,study_num,study_order,study_type,word_color,textStudy.started,textStudy.stopped,keyStudy.keys,keyStudy.started,keyStudy.stopped,post_study.started,post_study.stopped,key_resp_post_study.keys,key_resp_post_study.rt,key_resp_post_study.started,key_resp_post_study.stopped,test_inst.started,test_inst.stopped,key_resp_test_inst.keys,key_resp_test_inst.rt,key_resp_test_inst.started,key_resp_test_inst.stopped,test_word,test_num,test_order,test_condition,old_new_test,word_color_test,textConf.started,textConf.stopped,Participant Response,textInput.started,textInput.stopped,keyResp.keys,keyResp.rt,keyResp.started,keyResp.stopped,textEnd.started,textEnd.stopped,participant,session,date,expName,psychopyVersion,frameRate,
,,,,,,,,,,,,,,,,37.20399089995772,None,y,0.5622562000062317,37.20399089995772,None,,,,,,,,,,,,,,,,,,,,,,,,,,,,,,,,,,,,,,,,,,,,,,,,,,,,,,,,,,,,,,,,,,,,,,,,,,,,,,,,,,,,,,,,,,,,,,,,,,,,,,,,,,,,,,,,,,,,,,18,001,2023_Mar_06_1022,ExactRep-v3-final,2021.2.3,59.80492828944614,
,,,,,,,,,,,,,,,,,,,,,,37.795415999833494,None,f,0.978857799898833,37.795415999833494,None,,,,,,,,,,,,,,,,,,,,,,,,,,,,,,,,,,,,,,,,,,,,,,,,,,,,,,,,,,,,,,,,,,,,,,,,,,,,,,,,,,,,,,,,,,,,,,,,,,,,,,,,,,,,,,,,18,001,2023_Mar_06_1022,ExactRep-v3-final,2021.2.3,59.80492828944614,
,,,,,,,,,,,,,,,,,,,,,,,,,,,,colorfoils,f,space,335.3070042000618,48.91531279985793,None,,,,,,,,,,,,,,,,,,,,,,,,,,,,,,,,,,,,,,,,,,,,,,,,,,,,,,,,,,,,,,,,,,,,,,,,,,,,,,,,,,,,,,,,,,,,,,,,,,,,,,,,,,18,001,2023_Mar_06_1022,ExactRep-v3-final,2021.2.3,59.80492828944614,
,,,,,,,,,,,,,,,,,,,,,,,,,,,,,,,,,,38.965050200000405,None,38.965050200000405,None,38.965050200000405,None,38.965050200000405,None,38.965050200000405,None,38.965050200000405,None,space,16.552930700127035,394.3414656999521,None,,,,,,,,,,,,,,,,,,,,,,,,,,,,,,,,,,,,,,,,,,,,,,,,,,,,,,,,,,,,,,,,,,,,,,,,,,,,,,,,,,,,,,,,,,18,001,2023_Mar_06_1022,ExactRep-v3-final,2021.2.3,59.80492828944614,
0,0,0,0,,,,,,,,,,,,,,,,,,,,,,,,,,,,,,,,,,,,,,,,,,,,,,,384.35957889980637,None,384.35957889980637,None,384.35957889980637,None,384.35957889980637,None,384.35957889980637,None,384.35957889980637,None,410.9974332000129,None,413.0036237000022,None,,,,,,,,,,,,,,,,,,,,,,,,,,,,,,,,,,,,,,,,,,,,,,,,,,,,,,,,,,,,,,,,,,,,,,,,,,18,001,2023_Mar_06_1022,ExactRep-v3-final,2021.2.3,59.80492828944614,
1,0,1,0,,,,,,,,,,,,,,,,,,,,,,,,,,,,,,,,,,,,,,,,,,,,,,,,,,,,,,,,,,,413.51498119998723,None,415.52306089992635,None,,,,,,,,,,,,,,,,,,,,,,,,,,,,,,,,,,,,,,,,,,,,,,,,,,,,,,,,,,,,,,,,,,,,,,,,,,18,001,2023_Mar_06_1022,ExactRep-v3-final,2021.2.3,59.80492828944614,
2,0,2,0,,,,,,,,,,,,,,,,,,,,,,,,,,,,,,,,,,,,,,,,,,,,,,,,,,,,,,,,,,,416.023409999907,None,418.02551129995845,None,,,,,,,,,,,,,,,,,,,,,,,,,,,,,,,,,,,,,,,,,,,,,,,,,,,,,,,,,,,,,,,,,,,,,,,,,,18,001,2023_Mar_06_1022,ExactRep-v3-final,2021.2.3,59.80492828944614,
3,0,3,0,,,,,,,,,,,,,,,,,,,,,,,,,,,,,,,,,,,,,,,,,,,,,,,,,,,,,,,,,,,418.53097019996494,None,420.5445168998558,None,,,,,,,,,,,,,,,,,,,,,,,,,,,,,,,,,,,,,,,,,,,,,,,,,,,,,,,,,,,,,,,,,,,,,,,,,,18,001,2023_Mar_06_1022,ExactRep-v3-final,2021.2.3,59.80492828944614,
4,0,4,0,,,,,,,,,,,,,,,,,,,,,,,,,,,,,,,,,,,,,,,,,,,,,,,,,,,,,,,,,,,421.06919409986585,None,423.0638941999059,None,,,,,,,,,,,,,,,,,,,,,,,,,,,,,,,,,,,,,,,,,,,,,,,,,,,,,,,,,,,,,,,,,,,,,,,,,,18,001,2023_Mar_06_1022,ExactRep-v3-final,2021.2.3,59.80492828944614,
5,0,5,0,,,,,,,,,,,,,,,,,,,,,,,,,,,,,,,,,,,,,,,,,,,,,,,,,,,,,,,,,,,423.5644799999427,None,425.56639699987136,None,,,,,,,,,,,,,,,,,,,,,,,,,,,,,,,,,,,,,,,,,,,,,,,,,,,,,,,,,,,,,,,,,,,,,,,,,,18,001,2023_Mar_06_1022,ExactRep-v3-final,2021.2.3,59.80492828944614,
6,0,6,0,,,,,,,,,,,,,,,,,,,,,,,,,,,,,,,,,,,,,,,,,,,,,,,,,,,,,,,,,,,426.0681039998308,None,428.0689510998782,None,,,,,,,,,,,,,,,,,,,,,,,,,,,,,,,,,,,,,,,,,,,,,,,,,,,,,,,,,,,,,,,,,,,,,,,,,,18,001,2023_Mar_06_1022,ExactRep-v3-final,2021.2.3,59.80492828944614,
7,0,7,0,,,,,,,,,,,,,,,,,,,,,,,,,,,,,,,,,,,,,,,,,,,,,,,,,,,,,,,,,,,428.5729429000057,None,430.5881562998984,None,,,,,,,,,,,,,,,,,,,,,,,,,,,,,,,,,,,,,,,,,,,,,,,,,,,,,,,,,,,,,,,,,,,,,,,,,,18,001,2023_Mar_06_1022,ExactRep-v3-final,2021.2.3,59.80492828944614,
8,0,8,0,,,,,,,,,,,,,,,,,,,,,,,,,,,,,,,,,,,,,,,,,,,,,,,,,,,,,,,,,,,431.0888214998413,None,433.09052329999395,None,,,,,,,,,,,,,,,,,,,,,,,,,,,,,,,,,,,,,,,,,,,,,,,,,,,,,,,,,,,,,,,,,,,,,,,,,,18,001,2023_Mar_06_1022,ExactRep-v3-final,2021.2.3,59.80492828944614,
9,0,9,0,,,,,,,,,,,,,,,,,,,,,,,,,,,,,,,,,,,,,,,,,,,,,,,,,,,,,,,,,,,433.5910265999846,None,435.5933108997997,None,,,,,,,,,,,,,,,,,,,,,,,,,,,,,,,,,,,,,,,,,,,,,,,,,,,,,,,,,,,,,,,,,,,,,,,,,,18,001,2023_Mar_06_1022,ExactRep-v3-final,2021.2.3,59.80492828944614,
10,0,10,0,,,,,,,,,,,,,,,,,,,,,,,,,,,,,,,,,,,,,,,,,,,,,,,,,,,,,,,,,,,436.09362900000997,None,438.0957980998792,None,,,,,,,,,,,,,,,,,,,,,,,,,,,,,,,,,,,,,,,,,,,,,,,,,,,,,,,,,,,,,,,,,,,,,,,,,,18,001,2023_Mar_06_1022,ExactRep-v3-final,2021.2.3,59.80492828944614,
11,0,11,0,,,,,,,,,,,,,,,,,,,,,,,,,,,,,,,,,,,,,,,,,,,,,,,,,,,,,,,,,,,438.5958910000045,None,440.59788009990007,None,,,,,,,,,,,,,,,,,,,,,,,,,,,,,,,,,,,,,,,,,,,,,,,,,,,,,,,,,,,,,,,,,,,,,,,,,,18,001,2023_Mar_06_1022,ExactRep-v3-final,2021.2.3,59.80492828944614,
12,0,12,0,,,,,,,,,,,,,,,,,,,,,,,,,,,,,,,,,,,,,,,,,,,,,,,,,,,,,,,,,,,441.0988515999634,None,443.10047079995275,None,,,,,,,,,,,,,,,,,,,,,,,,,,,,,,,,,,,,,,,,,,,,,,,,,,,,,,,,,,,,,,,,,,,,,,,,,,18,001,2023_Mar_06_1022,ExactRep-v3-final,2021.2.3,59.80492828944614,
13,0,13,0,,,,,,,,,,,,,,,,,,,,,,,,,,,,,,,,,,,,,,,,,,,,,,,,,,,,,,,,,,,443.60830319998786,None,445.6198783998843,None,,,,,,,,,,,,,,,,,,,,,,,,,,,,,,,,,,,,,,,,,,,,,,,,,,,,,,,,,,,,,,,,,,,,,,,,,,18,001,2023_Mar_06_1022,ExactRep-v3-final,2021.2.3,59.80492828944614,
14,0,14,0,,,,,,,,,,,,,,,,,,,,,,,,,,,,,,,,,,,,,,,,,,,,,,,,,,,,,,,,,,,446.12441879999824,None,448.1387662999332,None,,,,,,,,,,,,,,,,,,,,,,,,,,,,,,,,,,,,,,,,,,,,,,,,,,,,,,,,,,,,,,,,,,,,,,,,,,18,001,2023_Mar_06_1022,ExactRep-v3-final,2021.2.3,59.80492828944614,
,,,,,,,,,,,,,,,,,,,,,,,,,,,,,,,,,,,,,,,,,,,,,,,,,,,,,,,,,,,,,,,,,,space,19.229193900013342,458.7372959998902,None,,,,,,,,,,,,,,,,,,,,,,,,,,,,,,,,,,,,,,,,,,,,,,,,,,,,,,,,,,,,,,,,,,,,,,18,001,2023_Mar_06_1022,ExactRep-v3-final,2021.2.3,59.80492828944614,
,,,,0,0,0,0,,,,,,,,,,,,,,,,,,,,,,,,,,,,,,,,,,,,,,,,,,,,,,,,,,,,,,,,,480.0710384999402,None,,,,,448.79888669983484,None,448.79888669983484,None,448.79888669983484,None,448.79888669983484,None,448.79888669983484,None,448.79888669983484,None,478.06706039980054,None,,,,,,,,,,,,,,,,,,,,,,,,,,,,,,,,,,,,,,,,,,,,,,,,,,,,,,,,18,001,2023_Mar_06_1022,ExactRep-v3-final,2021.2.3,59.80492828944614,
,,,,1,0,1,0,,,,,,,,,,,,,,,,,,,,,,,,,,,,,,,,,,,,,,,,,,,,,,,,,,,,,,,,,482.573394899955,None,,,,,,,,,,,,,,,,,480.5715320999734,None,,,,,,,,,,,,,,,,,,,,,,,,,,,,,,,,,,,,,,,,,,,,,,,,,,,,,,,,18,001,2023_Mar_06_1022,ExactRep-v3-final,2021.2.3,59.80492828944614,
,,,,2,0,2,0,,,,,,,,,,,,,,,,,,,,,,,,,,,,,,,,,,,,,,,,,,,,,,,,,,,,,,,,,485.0759611998219,None,,,,,,,,,,,,,,,,,483.074026199989,None,,,,,,,,,,,,,,,,,,,,,,,,,,,,,,,,,,,,,,,,,,,,,,,,,,,,,,,,18,001,2023_Mar_06_1022,ExactRep-v3-final,2021.2.3,59.80492828944614,
,,,,3,0,3,0,,,,,,,,,,,,,,,,,,,,,,,,,,,,,,,,,,,,,,,,,,,,,,,,,,,,,,,,,487.57819829997607,None,,,,,,,,,,,,,,,,,485.57646119990386,None,,,,,,,,,,,,,,,,,,,,,,,,,,,,,,,,,,,,,,,,,,,,,,,,,,,,,,,,18,001,2023_Mar_06_1022,ExactRep-v3-final,2021.2.3,59.80492828944614,
,,,,4,0,4,0,,,,,,,,,,,,,,,,,,,,,,,,,,,,,,,,,,,,,,,,,,,,,,,,,,,,,,,,,490.0807127999142,None,,,,,,,,,,,,,,,,,488.0790697999764,None,,,,,,,,,,,,,,,,,,,,,,,,,,,,,,,,,,,,,,,,,,,,,,,,,,,,,,,,18,001,2023_Mar_06_1022,ExactRep-v3-final,2021.2.3,59.80492828944614,
,,,,5,0,5,0,,,,,,,,,,,,,,,,,,,,,,,,,,,,,,,,,,,,,,,,,,,,,,,,,,,,,,,,,492.5835631999653,None,,,,,,,,,,,,,,,,,490.5814089998603,None,,,,,,,,,,,,,,,,,,,,,,,,,,,,,,,,,,,,,,,,,,,,,,,,,,,,,,,,18,001,2023_Mar_06_1022,ExactRep-v3-final,2021.2.3,59.80492828944614,
,,,,6,0,6,0,,,,,,,,,,,,,,,,,,,,,,,,,,,,,,,,,,,,,,,,,,,,,,,,,,,,,,,,,495.0860654998105,None,,,,,,,,,,,,,,,,,493.0839340998791,None,,,,,,,,,,,,,,,,,,,,,,,,,,,,,,,,,,,,,,,,,,,,,,,,,,,,,,,,18,001,2023_Mar_06_1022,ExactRep-v3-final,2021.2.3,59.80492828944614,
,,,,7,0,7,0,,,,,,,,,,,,,,,,,,,,,,,,,,,,,,,,,,,,,,,,,,,,,,,,,,,,,,,,,497.5886040998157,None,,,,,,,,,,,,,,,,,495.5866320999339,None,,,,,,,,,,,,,,,,,,,,,,,,,,,,,,,,,,,,,,,,,,,,,,,,,,,,,,,,18,001,2023_Mar_06_1022,ExactRep-v3-final,2021.2.3,59.80492828944614,
,,,,8,0,8,0,,,,,,,,,,,,,,,,,,,,,,,,,,,,,,,,,,,,,,,,,,,,,,,,,,,,,,,,,500.09091209992766,None,,,,,,,,,,,,,,,,,498.089088199893,None,,,,,,,,,,,,,,,,,,,,,,,,,,,,,,,,,,,,,,,,,,,,,,,,,,,,,,,,18,001,2023_Mar_06_1022,ExactRep-v3-final,2021.2.3,59.80492828944614,
,,,,9,0,9,0,,,,,,,,,,,,,,,,,,,,,,,,,,,,,,,,,,,,,,,,,,,,,,,,,,,,,,,,,502.5933915998321,None,,,,,,,,,,,,,,,,,500.59148519998416,None,,,,,,,,,,,,,,,,,,,,,,,,,,,,,,,,,,,,,,,,,,,,,,,,,,,,,,,,18,001,2023_Mar_06_1022,ExactRep-v3-final,2021.2.3,59.80492828944614,
,,,,10,0,10,0,,,,,,,,,,,,,,,,,,,,,,,,,,,,,,,,,,,,,,,,,,,,,,,,,,,,,,,,,505.0959845997859,None,,,,,,,,,,,,,,,,,503.09400419984013,None,,,,,,,,,,,,,,,,,,,,,,,,,,,,,,,,,,,,,,,,,,,,,,,,,,,,,,,,18,001,2023_Mar_06_1022,ExactRep-v3-final,2021.2.3,59.80492828944614,
,,,,11,0,11,0,,,,,,,,,,,,,,,,,,,,,,,,,,,,,,,,,,,,,,,,,,,,,,,,,,,,,,,,,507.59844699990936,None,,,,,,,,,,,,,,,,,505.59648299985565,None,,,,,,,,,,,,,,,,,,,,,,,,,,,,,,,,,,,,,,,,,,,,,,,,,,,,,,,,18,001,2023_Mar_06_1022,ExactRep-v3-final,2021.2.3,59.80492828944614,
,,,,12,0,12,0,,,,,,,,,,,,,,,,,,,,,,,,,,,,,,,,,,,,,,,,,,,,,,,,,,,,,,,,,510.100935399998,None,,,,,,,,,,,,,,,,,508.0990022998303,None,,,,,,,,,,,,,,,,,,,,,,,,,,,,,,,,,,,,,,,,,,,,,,,,,,,,,,,,18,001,2023_Mar_06_1022,ExactRep-v3-final,2021.2.3,59.80492828944614,
,,,,13,0,13,0,,,,,,,,,,,,,,,,,,,,,,,,,,,,,,,,,,,,,,,,,,,,,,,,,,,,,,,,,512.6034718998708,None,,,,,,,,,,,,,,,,,510.60143709997647,None,,,,,,,,,,,,,,,,,,,,,,,,,,,,,,,,,,,,,,,,,,,,,,,,,,,,,,,,18,001,2023_Mar_06_1022,ExactRep-v3-final,2021.2.3,59.80492828944614,
,,,,14,0,14,0,,,,,,,,,,,,,,,,,,,,,,,,,,,,,,,,,,,,,,,,,,,,,,,,,,,,,,,,,515.1056023999117,None,,,,,,,,,,,,,,,,,513.1040070999879,None,,,,,,,,,,,,,,,,,,,,,,,,,,,,,,,,,,,,,,,,,,,,,,,,,,,,,,,,18,001,2023_Mar_06_1022,ExactRep-v3-final,2021.2.3,59.80492828944614,
,,,,,,,,,,,,,,,,,,,,,,,,,,,,,,,,,,,,,,,,,,,,,,,,,,,,,,,,,,,,,,,,,,,,,,,,,,,,,,,,,,,,space,23.306888699997216,525.6995602999814,None,,,,,,,,,,,,,,,,,,,,,,,,,,,,,,,,,,,,,,,,,,,,,,,,,,,,18,001,2023_Mar_06_1022,ExactRep-v3-final,2021.2.3,59.80492828944614,
,,,,,,,,0,0,0,0,,,,,,,,,,,,,,,,,,,,,,,,,,,,,,,,,,,,,,,,,,,,,,,,,,,,,551.0919787997846,None,,,,,,,,,,,,,,,,,,,,,,,515.7525818999857,None,515.7525818999857,None,515.7525818999857,None,515.7525818999857,None,515.7525818999857,None,515.7525818999857,None,butter,49,1,silent,blue,549.0841058997903,None,None,549.0841058997903,None,,,,,,,,,,,,,,,,,,,,,,,,,,,,,,18,001,2023_Mar_06_1022,ExactRep-v3-final,2021.2.3,59.80492828944614,
,,,,,,,,1,0,1,0,,,,,,,,,,,,,,,,,,,,,,,,,,,,,,,,,,,,,,,,,,,,,,,,,,,,,553.6110725000035,None,,,,,,,,,,,,,,,,,,,,,,,,,,,,,,,,,,,dawn,112,2,aloud,white,551.597327800002,None,None,551.597327800002,None,,,,,,,,,,,,,,,,,,,,,,,,,,,,,,18,001,2023_Mar_06_1022,ExactRep-v3-final,2021.2.3,59.80492828944614,
,,,,,,,,2,0,2,0,,,,,,,,,,,,,,,,,,,,,,,,,,,,,,,,,,,,,,,,,,,,,,,,,,,,,556.130319799995,None,,,,,,,,,,,,,,,,,,,,,,,,,,,,,,,,,,,chance,26,3,sing,red,554.1174044997897,None,None,554.1174044997897,None,,,,,,,,,,,,,,,,,,,,,,,,,,,,,,18,001,2023_Mar_06_1022,ExactRep-v3-final,2021.2.3,59.80492828944614,
,,,,,,,,3,0,3,0,,,,,,,,,,,,,,,,,,,,,,,,,,,,,,,,,,,,,,,,,,,,,,,,,,,,,558.6494714999571,None,,,,,,,,,,,,,,,,,,,,,,,,,,,,,,,,,,,mother,75,4,silent,blue,556.6344214999117,None,None,556.6344214999117,None,,,,,,,,,,,,,,,,,,,,,,,,,,,,,,18,001,2023_Mar_06_1022,ExactRep-v3-final,2021.2.3,59.80492828944614,
,,,,,,,,4,0,4,0,,,,,,,,,,,,,,,,,,,,,,,,,,,,,,,,,,,,,,,,,,,,,,,,,,,,,561.1518245998304,None,,,,,,,,,,,,,,,,,,,,,,,,,,,,,,,,,,,letter,107,5,aloud,white,559.1498674999457,None,None,559.1498674999457,None,,,,,,,,,,,,,,,,,,,,,,,,,,,,,,18,001,2023_Mar_06_1022,ExactRep-v3-final,2021.2.3,59.80492828944614,
,,,,,,,,5,0,5,0,,,,,,,,,,,,,,,,,,,,,,,,,,,,,,,,,,,,,,,,,,,,,,,,,,,,,563.6544876999687,None,,,,,,,,,,,,,,,,,,,,,,,,,,,,,,,,,,,rod,115,6,aloud,white,561.6542761998717,None,None,561.6542761998717,None,,,,,,,,,,,,,,,,,,,,,,,,,,,,,,18,001,2023_Mar_06_1022,ExactRep-v3-final,2021.2.3,59.80492828944614,
,,,,,,,,6,0,6,0,,,,,,,,,,,,,,,,,,,,,,,,,,,,,,,,,,,,,,,,,,,,,,,,,,,,,566.173495199997,None,,,,,,,,,,,,,,,,,,,,,,,,,,,,,,,,,,,flag,62,7,silent,blue,564.1593654998578,None,None,564.1593654998578,None,,,,,,,,,,,,,,,,,,,,,,,,,,,,,,18,001,2023_Mar_06_1022,ExactRep-v3-final,2021.2.3,59.80492828944614,
,,,,,,,,7,0,7,0,,,,,,,,,,,,,,,,,,,,,,,,,,,,,,,,,,,,,,,,,,,,,,,,,,,,,568.6762002999894,None,,,,,,,,,,,,,,,,,,,,,,,,,,,,,,,,,,,sea,20,8,sing,red,566.6740889998619,None,None,566.6740889998619,None,,,,,,,,,,,,,,,,,,,,,,,,,,,,,,18,001,2023_Mar_06_1022,ExactRep-v3-final,2021.2.3,59.80492828944614,
,,,,,,,,8,0,8,0,,,,,,,,,,,,,,,,,,,,,,,,,,,,,,,,,,,,,,,,,,,,,,,,,,,,,571.1786936998833,None,,,,,,,,,,,,,,,,,,,,,,,,,,,,,,,,,,,answer,10,9,sing,red,569.1783588000108,None,None,569.1783588000108,None,,,,,,,,,,,,,,,,,,,,,,,,,,,,,,18,001,2023_Mar_06_1022,ExactRep-v3-final,2021.2.3,59.80492828944614,
,,,,,,,,9,0,9,0,,,,,,,,,,,,,,,,,,,,,,,,,,,,,,,,,,,,,,,,,,,,,,,,,,,,,573.6810494998936,None,,,,,,,,,,,,,,,,,,,,,,,,,,,,,,,,,,,author,60,10,silent,blue,571.6817860999145,None,None,571.6817860999145,None,,,,,,,,,,,,,,,,,,,,,,,,,,,,,,18,001,2023_Mar_06_1022,ExactRep-v3-final,2021.2.3,59.80492828944614,
,,,,,,,,10,0,10,0,,,,,,,,,,,,,,,,,,,,,,,,,,,,,,,,,,,,,,,,,,,,,,,,,,,,,576.2002156998497,None,,,,,,,,,,,,,,,,,,,,,,,,,,,,,,,,,,,quality,94,11,aloud,white,574.190577399917,None,None,574.190577399917,None,,,,,,,,,,,,,,,,,,,,,,,,,,,,,,18,001,2023_Mar_06_1022,ExactRep-v3-final,2021.2.3,59.80492828944614,
,,,,,,,,11,0,11,0,,,,,,,,,,,,,,,,,,,,,,,,,,,,,,,,,,,,,,,,,,,,,,,,,,,,,578.7028737999499,None,,,,,,,,,,,,,,,,,,,,,,,,,,,,,,,,,,,love,32,12,sing,red,576.7021900999825,None,None,576.7021900999825,None,,,,,,,,,,,,,,,,,,,,,,,,,,,,,,18,001,2023_Mar_06_1022,ExactRep-v3-final,2021.2.3,59.80492828944614,
,,,,,,,,12,0,12,0,,,,,,,,,,,,,,,,,,,,,,,,,,,,,,,,,,,,,,,,,,,,,,,,,,,,,581.2218590998091,None,,,,,,,,,,,,,,,,,,,,,,,,,,,,,,,,,,,origin,82,13,aloud,white,579.2063464999665,None,None,579.2063464999665,None,,,,,,,,,,,,,,,,,,,,,,,,,,,,,,18,001,2023_Mar_06_1022,ExactRep-v3-final,2021.2.3,59.80492828944614,
,,,,,,,,13,0,13,0,,,,,,,,,,,,,,,,,,,,,,,,,,,,,,,,,,,,,,,,,,,,,,,,,,,,,583.7412901998032,None,,,,,,,,,,,,,,,,,,,,,,,,,,,,,,,,,,,chair,45,14,silent,blue,581.7275390999857,None,None,581.7275390999857,None,,,,,,,,,,,,,,,,,,,,,,,,,,,,,,18,001,2023_Mar_06_1022,ExactRep-v3-final,2021.2.3,59.80492828944614,
,,,,,,,,14,0,14,0,,,,,,,,,,,,,,,,,,,,,,,,,,,,,,,,,,,,,,,,,,,,,,,,,,,,,586.2437272998504,None,,,,,,,,,,,,,,,,,,,,,,,,,,,,,,,,,,,forest,101,15,aloud,white,584.2444453998469,None,None,584.2444453998469,None,,,,,,,,,,,,,,,,,,,,,,,,,,,,,,18,001,2023_Mar_06_1022,ExactRep-v3-final,2021.2.3,59.80492828944614,
,,,,,,,,15,0,15,0,,,,,,,,,,,,,,,,,,,,,,,,,,,,,,,,,,,,,,,,,,,,,,,,,,,,,588.7463055998087,None,,,,,,,,,,,,,,,,,,,,,,,,,,,,,,,,,,,shadow,31,16,sing,red,586.7469895998947,None,None,586.7469895998947,None,,,,,,,,,,,,,,,,,,,,,,,,,,,,,,18,001,2023_Mar_06_1022,ExactRep-v3-final,2021.2.3,59.80492828944614,
,,,,,,,,16,0,16,0,,,,,,,,,,,,,,,,,,,,,,,,,,,,,,,,,,,,,,,,,,,,,,,,,,,,,591.2486828998663,None,,,,,,,,,,,,,,,,,,,,,,,,,,,,,,,,,,,colony,57,17,silent,blue,589.2473706998862,None,None,589.2473706998862,None,,,,,,,,,,,,,,,,,,,,,,,,,,,,,,18,001,2023_Mar_06_1022,ExactRep-v3-final,2021.2.3,59.80492828944614,
,,,,,,,,17,0,17,0,,,,,,,,,,,,,,,,,,,,,,,,,,,,,,,,,,,,,,,,,,,,,,,,,,,,,593.7512312999461,None,,,,,,,,,,,,,,,,,,,,,,,,,,,,,,,,,,,house,84,18,aloud,white,591.7500084999483,None,None,591.7500084999483,None,,,,,,,,,,,,,,,,,,,,,,,,,,,,,,18,001,2023_Mar_06_1022,ExactRep-v3-final,2021.2.3,59.80492828944614,
,,,,,,,,18,0,18,0,,,,,,,,,,,,,,,,,,,,,,,,,,,,,,,,,,,,,,,,,,,,,,,,,,,,,596.2537456999999,None,,,,,,,,,,,,,,,,,,,,,,,,,,,,,,,,,,,virtue,11,19,sing,red,594.2531060997862,None,None,594.2531060997862,None,,,,,,,,,,,,,,,,,,,,,,,,,,,,,,18,001,2023_Mar_06_1022,ExactRep-v3-final,2021.2.3,59.80492828944614,
,,,,,,,,19,0,19,0,,,,,,,,,,,,,,,,,,,,,,,,,,,,,,,,,,,,,,,,,,,,,,,,,,,,,598.7562679999974,None,,,,,,,,,,,,,,,,,,,,,,,,,,,,,,,,,,,soil,95,20,aloud,white,596.7562298998237,None,None,596.7562298998237,None,,,,,,,,,,,,,,,,,,,,,,,,,,,,,,18,001,2023_Mar_06_1022,ExactRep-v3-final,2021.2.3,59.80492828944614,
,,,,,,,,20,0,20,0,,,,,,,,,,,,,,,,,,,,,,,,,,,,,,,,,,,,,,,,,,,,,,,,,,,,,601.2752878000028,None,,,,,,,,,,,,,,,,,,,,,,,,,,,,,,,,,,,skin,113,21,aloud,white,599.2711153998971,None,None,599.2711153998971,None,,,,,,,,,,,,,,,,,,,,,,,,,,,,,,18,001,2023_Mar_06_1022,ExactRep-v3-final,2021.2.3,59.80492828944614,
,,,,,,,,21,0,21,0,,,,,,,,,,,,,,,,,,,,,,,,,,,,,,,,,,,,,,,,,,,,,,,,,,,,,603.794460499892,None,,,,,,,,,,,,,,,,,,,,,,,,,,,,,,,,,,,boulder,61,22,silent,blue,601.7853344997857,None,None,601.7853344997857,None,,,,,,,,,,,,,,,,,,,,,,,,,,,,,,18,001,2023_Mar_06_1022,ExactRep-v3-final,2021.2.3,59.80492828944614,
,,,,,,,,22,0,22,0,,,,,,,,,,,,,,,,,,,,,,,,,,,,,,,,,,,,,,,,,,,,,,,,,,,,,606.2971958999988,None,,,,,,,,,,,,,,,,,,,,,,,,,,,,,,,,,,,method,118,23,aloud,white,604.2949834999163,None,None,604.2949834999163,None,,,,,,,,,,,,,,,,,,,,,,,,,,,,,,18,001,2023_Mar_06_1022,ExactRep-v3-final,2021.2.3,59.80492828944614,
,,,,,,,,23,0,23,0,,,,,,,,,,,,,,,,,,,,,,,,,,,,,,,,,,,,,,,,,,,,,,,,,,,,,608.8162971998099,None,,,,,,,,,,,,,,,,,,,,,,,,,,,,,,,,,,,water,35,24,sing,red,606.803218799876,None,None,606.803218799876,None,,,,,,,,,,,,,,,,,,,,,,,,,,,,,,18,001,2023_Mar_06_1022,ExactRep-v3-final,2021.2.3,59.80492828944614,
,,,,,,,,24,0,24,0,,,,,,,,,,,,,,,,,,,,,,,,,,,,,,,,,,,,,,,,,,,,,,,,,,,,,611.3185287998058,None,,,,,,,,,,,,,,,,,,,,,,,,,,,,,,,,,,,teacher,19,25,sing,red,609.3180637999903,None,None,609.3180637999903,None,,,,,,,,,,,,,,,,,,,,,,,,,,,,,,18,001,2023_Mar_06_1022,ExactRep-v3-final,2021.2.3,59.80492828944614,
,,,,,,,,25,0,25,0,,,,,,,,,,,,,,,,,,,,,,,,,,,,,,,,,,,,,,,,,,,,,,,,,,,,,613.8211831999943,None,,,,,,,,,,,,,,,,,,,,,,,,,,,,,,,,,,,insect,37,26,sing,red,611.8217000998557,None,None,611.8217000998557,None,,,,,,,,,,,,,,,,,,,,,,,,,,,,,,18,001,2023_Mar_06_1022,ExactRep-v3-final,2021.2.3,59.80492828944614,
,,,,,,,,26,0,26,0,,,,,,,,,,,,,,,,,,,,,,,,,,,,,,,,,,,,,,,,,,,,,,,,,,,,,616.3236664999276,None,,,,,,,,,,,,,,,,,,,,,,,,,,,,,,,,,,,bowl,93,27,aloud,white,614.3234565998428,None,None,614.3234565998428,None,,,,,,,,,,,,,,,,,,,,,,,,,,,,,,18,001,2023_Mar_06_1022,ExactRep-v3-final,2021.2.3,59.80492828944614,
,,,,,,,,27,0,27,0,,,,,,,,,,,,,,,,,,,,,,,,,,,,,,,,,,,,,,,,,,,,,,,,,,,,,618.8429737999104,None,,,,,,,,,,,,,,,,,,,,,,,,,,,,,,,,,,,valley,29,28,sing,red,616.8275583998766,None,None,616.8275583998766,None,,,,,,,,,,,,,,,,,,,,,,,,,,,,,,18,001,2023_Mar_06_1022,ExactRep-v3-final,2021.2.3,59.80492828944614,
,,,,,,,,28,0,28,0,,,,,,,,,,,,,,,,,,,,,,,,,,,,,,,,,,,,,,,,,,,,,,,,,,,,,621.3455450998154,None,,,,,,,,,,,,,,,,,,,,,,,,,,,,,,,,,,,factory,8,29,sing,red,619.3443811999168,None,None,619.3443811999168,None,,,,,,,,,,,,,,,,,,,,,,,,,,,,,,18,001,2023_Mar_06_1022,ExactRep-v3-final,2021.2.3,59.80492828944614,
,,,,,,,,29,0,29,0,,,,,,,,,,,,,,,,,,,,,,,,,,,,,,,,,,,,,,,,,,,,,,,,,,,,,623.8647027998231,None,,,,,,,,,,,,,,,,,,,,,,,,,,,,,,,,,,,person,6,30,sing,red,621.8551317998208,None,None,621.8551317998208,None,,,,,,,,,,,,,,,,,,,,,,,,,,,,,,18,001,2023_Mar_06_1022,ExactRep-v3-final,2021.2.3,59.80492828944614,
,,,,,,,,30,0,30,0,,,,,,,,,,,,,,,,,,,,,,,,,,,,,,,,,,,,,,,,,,,,,,,,,,,,,626.3671922998037,None,,,,,,,,,,,,,,,,,,,,,,,,,,,,,,,,,,,hide,63,31,silent,blue,624.365264999913,None,None,624.365264999913,None,,,,,,,,,,,,,,,,,,,,,,,,,,,,,,18,001,2023_Mar_06_1022,ExactRep-v3-final,2021.2.3,59.80492828944614,
,,,,,,,,31,0,31,0,,,,,,,,,,,,,,,,,,,,,,,,,,,,,,,,,,,,,,,,,,,,,,,,,,,,,628.8697581999004,None,,,,,,,,,,,,,,,,,,,,,,,,,,,,,,,,,,,winter,7,32,sing,red,626.8697561998852,None,None,626.8697561998852,None,,,,,,,,,,,,,,,,,,,,,,,,,,,,,,18,001,2023_Mar_06_1022,ExactRep-v3-final,2021.2.3,59.80492828944614,
,,,,,,,,32,0,32,0,,,,,,,,,,,,,,,,,,,,,,,,,,,,,,,,,,,,,,,,,,,,,,,,,,,,,631.3890025999863,None,,,,,,,,,,,,,,,,,,,,,,,,,,,,,,,,,,,humour,103,33,aloud,white,629.375362199964,None,None,629.375362199964,None,,,,,,,,,,,,,,,,,,,,,,,,,,,,,,18,001,2023_Mar_06_1022,ExactRep-v3-final,2021.2.3,59.80492828944614,
,,,,,,,,33,0,33,0,,,,,,,,,,,,,,,,,,,,,,,,,,,,,,,,,,,,,,,,,,,,,,,,,,,,,633.9079222998116,None,,,,,,,,,,,,,,,,,,,,,,,,,,,,,,,,,,,earth,22,34,sing,red,631.8981951999012,None,None,631.8981951999012,None,,,,,,,,,,,,,,,,,,,,,,,,,,,,,,18,001,2023_Mar_06_1022,ExactRep-v3-final,2021.2.3,59.80492828944614,
,,,,,,,,34,0,34,0,,,,,,,,,,,,,,,,,,,,,,,,,,,,,,,,,,,,,,,,,,,,,,,,,,,,,636.4106156998314,None,,,,,,,,,,,,,,,,,,,,,,,,,,,,,,,,,,,product,58,35,silent,blue,634.4097841999028,None,None,634.4097841999028,None,,,,,,,,,,,,,,,,,,,,,,,,,,,,,,18,001,2023_Mar_06_1022,ExactRep-v3-final,2021.2.3,59.80492828944614,
,,,,,,,,35,0,35,0,,,,,,,,,,,,,,,,,,,,,,,,,,,,,,,,,,,,,,,,,,,,,,,,,,,,,638.9298021998256,None,,,,,,,,,,,,,,,,,,,,,,,,,,,,,,,,,,,picture,90,36,aloud,white,636.9167820999864,None,None,636.9167820999864,None,,,,,,,,,,,,,,,,,,,,,,,,,,,,,,18,001,2023_Mar_06_1022,ExactRep-v3-final,2021.2.3,59.80492828944614,
,,,,,,,,36,0,36,0,,,,,,,,,,,,,,,,,,,,,,,,,,,,,,,,,,,,,,,,,,,,,,,,,,,,,641.4323280998506,None,,,,,,,,,,,,,,,,,,,,,,,,,,,,,,,,,,,friend,74,37,silent,blue,639.4315833998844,None,None,639.4315833998844,None,,,,,,,,,,,,,,,,,,,,,,,,,,,,,,18,001,2023_Mar_06_1022,ExactRep-v3-final,2021.2.3,59.80492828944614,
,,,,,,,,37,0,37,0,,,,,,,,,,,,,,,,,,,,,,,,,,,,,,,,,,,,,,,,,,,,,,,,,,,,,643.9514601998962,None,,,,,,,,,,,,,,,,,,,,,,,,,,,,,,,,,,,green,25,38,sing,red,641.9390355998185,None,None,641.9390355998185,None,,,,,,,,,,,,,,,,,,,,,,,,,,,,,,18,001,2023_Mar_06_1022,ExactRep-v3-final,2021.2.3,59.80492828944614,
,,,,,,,,38,0,38,0,,,,,,,,,,,,,,,,,,,,,,,,,,,,,,,,,,,,,,,,,,,,,,,,,,,,,646.4706648997962,None,,,,,,,,,,,,,,,,,,,,,,,,,,,,,,,,,,,truth,17,39,sing,red,644.455166199943,None,None,644.455166199943,None,,,,,,,,,,,,,,,,,,,,,,,,,,,,,,18,001,2023_Mar_06_1022,ExactRep-v3-final,2021.2.3,59.80492828944614,
,,,,,,,,39,0,39,0,,,,,,,,,,,,,,,,,,,,,,,,,,,,,,,,,,,,,,,,,,,,,,,,,,,,,648.9731759999413,None,,,,,,,,,,,,,,,,,,,,,,,,,,,,,,,,,,,lad,68,40,silent,blue,646.9711099998094,None,None,646.9711099998094,None,,,,,,,,,,,,,,,,,,,,,,,,,,,,,,18,001,2023_Mar_06_1022,ExactRep-v3-final,2021.2.3,59.80492828944614,
,,,,,,,,40,0,40,0,,,,,,,,,,,,,,,,,,,,,,,,,,,,,,,,,,,,,,,,,,,,,,,,,,,,,651.4921618998051,None,,,,,,,,,,,,,,,,,,,,,,,,,,,,,,,,,,,grief,52,41,silent,blue,649.4767386999447,None,None,649.4767386999447,None,,,,,,,,,,,,,,,,,,,,,,,,,,,,,,18,001,2023_Mar_06_1022,ExactRep-v3-final,2021.2.3,59.80492828944614,
,,,,,,,,41,0,41,0,,,,,,,,,,,,,,,,,,,,,,,,,,,,,,,,,,,,,,,,,,,,,,,,,,,,,653.9948007999919,None,,,,,,,,,,,,,,,,,,,,,,,,,,,,,,,,,,,camp,2,42,sing,red,651.995246599894,None,None,651.995246599894,None,,,,,,,,,,,,,,,,,,,,,,,,,,,,,,18,001,2023_Mar_06_1022,ExactRep-v3-final,2021.2.3,59.80492828944614,
,,,,,,,,42,0,42,0,,,,,,,,,,,,,,,,,,,,,,,,,,,,,,,,,,,,,,,,,,,,,,,,,,,,,656.4972864999436,None,,,,,,,,,,,,,,,,,,,,,,,,,,,,,,,,,,,ship,1,43,sing,red,654.4979925998487,None,None,654.4979925998487,None,,,,,,,,,,,,,,,,,,,,,,,,,,,,,,18,001,2023_Mar_06_1022,ExactRep-v3-final,2021.2.3,59.80492828944614,
,,,,,,,,43,0,43,0,,,,,,,,,,,,,,,,,,,,,,,,,,,,,,,,,,,,,,,,,,,,,,,,,,,,,658.9998029000126,None,,,,,,,,,,,,,,,,,,,,,,,,,,,,,,,,,,,chief,28,44,sing,red,656.9993964999449,None,None,656.9993964999449,None,,,,,,,,,,,,,,,,,,,,,,,,,,,,,,18,001,2023_Mar_06_1022,ExactRep-v3-final,2021.2.3,59.80492828944614,
,,,,,,,,44,0,44,0,,,,,,,,,,,,,,,,,,,,,,,,,,,,,,,,,,,,,,,,,,,,,,,,,,,,,661.5023485999554,None,,,,,,,,,,,,,,,,,,,,,,,,,,,,,,,,,,,freedom,36,45,sing,red,659.5030288998969,None,None,659.5030288998969,None,,,,,,,,,,,,,,,,,,,,,,,,,,,,,,18,001,2023_Mar_06_1022,ExactRep-v3-final,2021.2.3,59.80492828944614,
,,,,,,,,45,0,45,0,,,,,,,,,,,,,,,,,,,,,,,,,,,,,,,,,,,,,,,,,,,,,,,,,,,,,664.0048557999544,None,,,,,,,,,,,,,,,,,,,,,,,,,,,,,,,,,,,diamond,0,46,sing,red,662.0054366998374,None,None,662.0054366998374,None,,,,,,,,,,,,,,,,,,,,,,,,,,,,,,18,001,2023_Mar_06_1022,ExactRep-v3-final,2021.2.3,59.80492828944614,
,,,,,,,,46,0,46,0,,,,,,,,,,,,,,,,,,,,,,,,,,,,,,,,,,,,,,,,,,,,,,,,,,,,,666.5240241999272,None,,,,,,,,,,,,,,,,,,,,,,,,,,,,,,,,,,,rock,102,47,aloud,white,664.5090012999717,None,None,664.5090012999717,None,,,,,,,,,,,,,,,,,,,,,,,,,,,,,,18,001,2023_Mar_06_1022,ExactRep-v3-final,2021.2.3,59.80492828944614,
,,,,,,,,47,0,47,0,,,,,,,,,,,,,,,,,,,,,,,,,,,,,,,,,,,,,,,,,,,,,,,,,,,,,669.0264448998496,None,,,,,,,,,,,,,,,,,,,,,,,,,,,,,,,,,,,brain,41,48,silent,blue,667.0245889998041,None,None,667.0245889998041,None,,,,,,,,,,,,,,,,,,,,,,,,,,,,,,18,001,2023_Mar_06_1022,ExactRep-v3-final,2021.2.3,59.80492828944614,
,,,,,,,,48,0,48,0,,,,,,,,,,,,,,,,,,,,,,,,,,,,,,,,,,,,,,,,,,,,,,,,,,,,,671.5459355998319,None,,,,,,,,,,,,,,,,,,,,,,,,,,,,,,,,,,,table,18,49,sing,red,669.5374958999455,None,None,669.5374958999455,None,,,,,,,,,,,,,,,,,,,,,,,,,,,,,,18,001,2023_Mar_06_1022,ExactRep-v3-final,2021.2.3,59.80492828944614,
,,,,,,,,49,0,49,0,,,,,,,,,,,,,,,,,,,,,,,,,,,,,,,,,,,,,,,,,,,,,,,,,,,,,674.0482399999164,None,,,,,,,,,,,,,,,,,,,,,,,,,,,,,,,,,,,girl,16,50,sing,red,672.0470962999389,None,None,672.0470962999389,None,,,,,,,,,,,,,,,,,,,,,,,,,,,,,,18,001,2023_Mar_06_1022,ExactRep-v3-final,2021.2.3,59.80492828944614,
,,,,,,,,50,0,50,0,,,,,,,,,,,,,,,,,,,,,,,,,,,,,,,,,,,,,,,,,,,,,,,,,,,,,676.5508448998444,None,,,,,,,,,,,,,,,,,,,,,,,,,,,,,,,,,,,style,39,51,silent,blue,674.5507402999792,None,None,674.5507402999792,None,,,,,,,,,,,,,,,,,,,,,,,,,,,,,,18,001,2023_Mar_06_1022,ExactRep-v3-final,2021.2.3,59.80492828944614,
,,,,,,,,51,0,51,0,,,,,,,,,,,,,,,,,,,,,,,,,,,,,,,,,,,,,,,,,,,,,,,,,,,,,679.0699067998212,None,,,,,,,,,,,,,,,,,,,,,,,,,,,,,,,,,,,student,88,52,aloud,white,677.054969899822,None,None,677.054969899822,None,,,,,,,,,,,,,,,,,,,,,,,,,,,,,,18,001,2023_Mar_06_1022,ExactRep-v3-final,2021.2.3,59.80492828944614,
,,,,,,,,52,0,52,0,,,,,,,,,,,,,,,,,,,,,,,,,,,,,,,,,,,,,,,,,,,,,,,,,,,,,681.5724512999877,None,,,,,,,,,,,,,,,,,,,,,,,,,,,,,,,,,,,crime,85,53,aloud,white,679.5726084997877,None,None,679.5726084997877,None,,,,,,,,,,,,,,,,,,,,,,,,,,,,,,18,001,2023_Mar_06_1022,ExactRep-v3-final,2021.2.3,59.80492828944614,
,,,,,,,,53,0,53,0,,,,,,,,,,,,,,,,,,,,,,,,,,,,,,,,,,,,,,,,,,,,,,,,,,,,,684.0749282999896,None,,,,,,,,,,,,,,,,,,,,,,,,,,,,,,,,,,,bird,66,54,silent,blue,682.0750272998121,None,None,682.0750272998121,None,,,,,,,,,,,,,,,,,,,,,,,,,,,,,,18,001,2023_Mar_06_1022,ExactRep-v3-final,2021.2.3,59.80492828944614,
,,,,,,,,54,0,54,0,,,,,,,,,,,,,,,,,,,,,,,,,,,,,,,,,,,,,,,,,,,,,,,,,,,,,686.5941082998179,None,,,,,,,,,,,,,,,,,,,,,,,,,,,,,,,,,,,owner,50,55,silent,blue,684.5856070998125,None,None,684.5856070998125,None,,,,,,,,,,,,,,,,,,,,,,,,,,,,,,18,001,2023_Mar_06_1022,ExactRep-v3-final,2021.2.3,59.80492828944614,
,,,,,,,,55,0,55,0,,,,,,,,,,,,,,,,,,,,,,,,,,,,,,,,,,,,,,,,,,,,,,,,,,,,,689.1133188998792,None,,,,,,,,,,,,,,,,,,,,,,,,,,,,,,,,,,,series,21,56,sing,red,687.1049707999919,None,None,687.1049707999919,None,,,,,,,,,,,,,,,,,,,,,,,,,,,,,,18,001,2023_Mar_06_1022,ExactRep-v3-final,2021.2.3,59.80492828944614,
,,,,,,,,56,0,56,0,,,,,,,,,,,,,,,,,,,,,,,,,,,,,,,,,,,,,,,,,,,,,,,,,,,,,691.6156438000035,None,,,,,,,,,,,,,,,,,,,,,,,,,,,,,,,,,,,effort,67,57,silent,blue,689.6166454998311,None,None,689.6166454998311,None,,,,,,,,,,,,,,,,,,,,,,,,,,,,,,18,001,2023_Mar_06_1022,ExactRep-v3-final,2021.2.3,59.80492828944614,
,,,,,,,,57,0,57,0,,,,,,,,,,,,,,,,,,,,,,,,,,,,,,,,,,,,,,,,,,,,,,,,,,,,,694.1348716998473,None,,,,,,,,,,,,,,,,,,,,,,,,,,,,,,,,,,,book,9,58,sing,red,692.1222945000045,None,None,692.1222945000045,None,,,,,,,,,,,,,,,,,,,,,,,,,,,,,,18,001,2023_Mar_06_1022,ExactRep-v3-final,2021.2.3,59.80492828944614,
,,,,,,,,58,0,58,0,,,,,,,,,,,,,,,,,,,,,,,,,,,,,,,,,,,,,,,,,,,,,,,,,,,,,696.6373403999023,None,,,,,,,,,,,,,,,,,,,,,,,,,,,,,,,,,,,ocean,5,59,sing,red,694.6352779997978,None,None,694.6352779997978,None,,,,,,,,,,,,,,,,,,,,,,,,,,,,,,18,001,2023_Mar_06_1022,ExactRep-v3-final,2021.2.3,59.80492828944614,
,,,,,,,,59,0,59,0,,,,,,,,,,,,,,,,,,,,,,,,,,,,,,,,,,,,,,,,,,,,,,,,,,,,,699.1566625998821,None,,,,,,,,,,,,,,,,,,,,,,,,,,,,,,,,,,,vessel,46,60,silent,blue,697.1423245999031,None,None,697.1423245999031,None,,,,,,,,,,,,,,,,,,,,,,,,,,,,,,18,001,2023_Mar_06_1022,ExactRep-v3-final,2021.2.3,59.80492828944614,
,,,,,,,,60,0,60,0,,,,,,,,,,,,,,,,,,,,,,,,,,,,,,,,,,,,,,,,,,,,,,,,,,,,,701.6592085999437,None,,,,,,,,,,,,,,,,,,,,,,,,,,,,,,,,,,,devil,42,61,silent,blue,699.6583482997958,None,None,699.6583482997958,None,,,,,,,,,,,,,,,,,,,,,,,,,,,,,,18,001,2023_Mar_06_1022,ExactRep-v3-final,2021.2.3,59.80492828944614,
,,,,,,,,61,0,61,0,,,,,,,,,,,,,,,,,,,,,,,,,,,,,,,,,,,,,,,,,,,,,,,,,,,,,704.1617142998148,None,,,,,,,,,,,,,,,,,,,,,,,,,,,,,,,,,,,wine,47,62,silent,blue,702.1618917998858,None,None,702.1618917998858,None,,,,,,,,,,,,,,,,,,,,,,,,,,,,,,18,001,2023_Mar_06_1022,ExactRep-v3-final,2021.2.3,59.80492828944614,
,,,,,,,,62,0,62,0,,,,,,,,,,,,,,,,,,,,,,,,,,,,,,,,,,,,,,,,,,,,,,,,,,,,,706.6641806999687,None,,,,,,,,,,,,,,,,,,,,,,,,,,,,,,,,,,,month,48,63,silent,blue,704.6637049999554,None,None,704.6637049999554,None,,,,,,,,,,,,,,,,,,,,,,,,,,,,,,18,001,2023_Mar_06_1022,ExactRep-v3-final,2021.2.3,59.80492828944614,
,,,,,,,,63,0,63,0,,,,,,,,,,,,,,,,,,,,,,,,,,,,,,,,,,,,,,,,,,,,,,,,,,,,,709.1667352998629,None,,,,,,,,,,,,,,,,,,,,,,,,,,,,,,,,,,,horse,77,64,silent,blue,707.1658158998471,None,None,707.1658158998471,None,,,,,,,,,,,,,,,,,,,,,,,,,,,,,,18,001,2023_Mar_06_1022,ExactRep-v3-final,2021.2.3,59.80492828944614,
,,,,,,,,64,0,64,0,,,,,,,,,,,,,,,,,,,,,,,,,,,,,,,,,,,,,,,,,,,,,,,,,,,,,711.6692470998969,None,,,,,,,,,,,,,,,,,,,,,,,,,,,,,,,,,,,safety,72,65,silent,blue,709.6698089998681,None,None,709.6698089998681,None,,,,,,,,,,,,,,,,,,,,,,,,,,,,,,18,001,2023_Mar_06_1022,ExactRep-v3-final,2021.2.3,59.80492828944614,
,,,,,,,,65,0,65,0,,,,,,,,,,,,,,,,,,,,,,,,,,,,,,,,,,,,,,,,,,,,,,,,,,,,,714.188196499832,None,,,,,,,,,,,,,,,,,,,,,,,,,,,,,,,,,,,hall,109,66,aloud,white,712.1781983999535,None,None,712.1781983999535,None,,,,,,,,,,,,,,,,,,,,,,,,,,,,,,18,001,2023_Mar_06_1022,ExactRep-v3-final,2021.2.3,59.80492828944614,
,,,,,,,,66,0,66,0,,,,,,,,,,,,,,,,,,,,,,,,,,,,,,,,,,,,,,,,,,,,,,,,,,,,,716.6908737998456,None,,,,,,,,,,,,,,,,,,,,,,,,,,,,,,,,,,,prison,116,67,aloud,white,714.6887342999689,None,None,714.6887342999689,None,,,,,,,,,,,,,,,,,,,,,,,,,,,,,,18,001,2023_Mar_06_1022,ExactRep-v3-final,2021.2.3,59.80492828944614,
,,,,,,,,67,0,67,0,,,,,,,,,,,,,,,,,,,,,,,,,,,,,,,,,,,,,,,,,,,,,,,,,,,,,719.1934079998173,None,,,,,,,,,,,,,,,,,,,,,,,,,,,,,,,,,,,idea,56,68,silent,blue,717.19347129995,None,None,717.19347129995,None,,,,,,,,,,,,,,,,,,,,,,,,,,,,,,18,001,2023_Mar_06_1022,ExactRep-v3-final,2021.2.3,59.80492828944614,
,,,,,,,,68,0,68,0,,,,,,,,,,,,,,,,,,,,,,,,,,,,,,,,,,,,,,,,,,,,,,,,,,,,,721.7125551998615,None,,,,,,,,,,,,,,,,,,,,,,,,,,,,,,,,,,,lip,70,69,silent,blue,719.6977220999543,None,None,719.6977220999543,None,,,,,,,,,,,,,,,,,,,,,,,,,,,,,,18,001,2023_Mar_06_1022,ExactRep-v3-final,2021.2.3,59.80492828944614,
,,,,,,,,69,0,69,0,,,,,,,,,,,,,,,,,,,,,,,,,,,,,,,,,,,,,,,,,,,,,,,,,,,,,724.2151519998442,None,,,,,,,,,,,,,,,,,,,,,,,,,,,,,,,,,,,leader,73,70,silent,blue,722.2155991999898,None,None,722.2155991999898,None,,,,,,,,,,,,,,,,,,,,,,,,,,,,,,18,001,2023_Mar_06_1022,ExactRep-v3-final,2021.2.3,59.80492828944614,
,,,,,,,,70,0,70,0,,,,,,,,,,,,,,,,,,,,,,,,,,,,,,,,,,,,,,,,,,,,,,,,,,,,,726.7175844998565,None,,,,,,,,,,,,,,,,,,,,,,,,,,,,,,,,,,,shock,65,71,silent,blue,724.7175342999399,None,None,724.7175342999399,None,,,,,,,,,,,,,,,,,,,,,,,,,,,,,,18,001,2023_Mar_06_1022,ExactRep-v3-final,2021.2.3,59.80492828944614,
,,,,,,,,71,0,71,0,,,,,,,,,,,,,,,,,,,,,,,,,,,,,,,,,,,,,,,,,,,,,,,,,,,,,729.2367711998522,None,,,,,,,,,,,,,,,,,,,,,,,,,,,,,,,,,,,speech,100,72,aloud,white,727.2234941998031,None,None,727.2234941998031,None,,,,,,,,,,,,,,,,,,,,,,,,,,,,,,18,001,2023_Mar_06_1022,ExactRep-v3-final,2021.2.3,59.80492828944614,
,,,,,,,,72,0,72,0,,,,,,,,,,,,,,,,,,,,,,,,,,,,,,,,,,,,,,,,,,,,,,,,,,,,,731.7393023998011,None,,,,,,,,,,,,,,,,,,,,,,,,,,,,,,,,,,,time,34,73,sing,red,729.739806599915,None,None,729.739806599915,None,,,,,,,,,,,,,,,,,,,,,,,,,,,,,,18,001,2023_Mar_06_1022,ExactRep-v3-final,2021.2.3,59.80492828944614,
,,,,,,,,73,0,73,0,,,,,,,,,,,,,,,,,,,,,,,,,,,,,,,,,,,,,,,,,,,,,,,,,,,,,734.2584496999625,None,,,,,,,,,,,,,,,,,,,,,,,,,,,,,,,,,,,weapon,71,74,silent,blue,732.2470954000019,None,None,732.2470954000019,None,,,,,,,,,,,,,,,,,,,,,,,,,,,,,,18,001,2023_Mar_06_1022,ExactRep-v3-final,2021.2.3,59.80492828944614,
,,,,,,,,74,0,74,0,,,,,,,,,,,,,,,,,,,,,,,,,,,,,,,,,,,,,,,,,,,,,,,,,,,,,736.7773890998214,None,,,,,,,,,,,,,,,,,,,,,,,,,,,,,,,,,,,custom,14,75,sing,red,734.7623451999389,None,None,734.7623451999389,None,,,,,,,,,,,,,,,,,,,,,,,,,,,,,,18,001,2023_Mar_06_1022,ExactRep-v3-final,2021.2.3,59.80492828944614,
,,,,,,,,75,0,75,0,,,,,,,,,,,,,,,,,,,,,,,,,,,,,,,,,,,,,,,,,,,,,,,,,,,,,739.2968335999176,None,,,,,,,,,,,,,,,,,,,,,,,,,,,,,,,,,,,volume,117,76,aloud,white,737.2874051998369,None,None,737.2874051998369,None,,,,,,,,,,,,,,,,,,,,,,,,,,,,,,18,001,2023_Mar_06_1022,ExactRep-v3-final,2021.2.3,59.80492828944614,
,,,,,,,,76,0,76,0,,,,,,,,,,,,,,,,,,,,,,,,,,,,,,,,,,,,,,,,,,,,,,,,,,,,,741.7992900998797,None,,,,,,,,,,,,,,,,,,,,,,,,,,,,,,,,,,,garden,96,77,aloud,white,739.7991390000097,None,None,739.7991390000097,None,,,,,,,,,,,,,,,,,,,,,,,,,,,,,,18,001,2023_Mar_06_1022,ExactRep-v3-final,2021.2.3,59.80492828944614,
,,,,,,,,77,0,77,0,,,,,,,,,,,,,,,,,,,,,,,,,,,,,,,,,,,,,,,,,,,,,,,,,,,,,744.3016036998015,None,,,,,,,,,,,,,,,,,,,,,,,,,,,,,,,,,,,queen,54,78,silent,blue,742.3022423998918,None,None,742.3022423998918,None,,,,,,,,,,,,,,,,,,,,,,,,,,,,,,18,001,2023_Mar_06_1022,ExactRep-v3-final,2021.2.3,59.80492828944614,
,,,,,,,,78,0,78,0,,,,,,,,,,,,,,,,,,,,,,,,,,,,,,,,,,,,,,,,,,,,,,,,,,,,,746.8209922998212,None,,,,,,,,,,,,,,,,,,,,,,,,,,,,,,,,,,,king,40,79,silent,blue,744.8061726999003,None,None,744.8061726999003,None,,,,,,,,,,,,,,,,,,,,,,,,,,,,,,18,001,2023_Mar_06_1022,ExactRep-v3-final,2021.2.3,59.80492828944614,
,,,,,,,,79,0,79,0,,,,,,,,,,,,,,,,,,,,,,,,,,,,,,,,,,,,,,,,,,,,,,,,,,,,,749.3235478999559,None,,,,,,,,,,,,,,,,,,,,,,,,,,,,,,,,,,,palace,98,80,aloud,white,747.3239124999382,None,None,747.3239124999382,None,,,,,,,,,,,,,,,,,,,,,,,,,,,,,,18,001,2023_Mar_06_1022,ExactRep-v3-final,2021.2.3,59.80492828944614,
,,,,,,,,80,0,80,0,,,,,,,,,,,,,,,,,,,,,,,,,,,,,,,,,,,,,,,,,,,,,,,,,,,,,751.8259763999376,None,,,,,,,,,,,,,,,,,,,,,,,,,,,,,,,,,,,fact,91,81,aloud,white,749.8259049998596,None,None,749.8259049998596,None,,,,,,,,,,,,,,,,,,,,,,,,,,,,,,18,001,2023_Mar_06_1022,ExactRep-v3-final,2021.2.3,59.80492828944614,
,,,,,,,,81,0,81,0,,,,,,,,,,,,,,,,,,,,,,,,,,,,,,,,,,,,,,,,,,,,,,,,,,,,,754.3450228997972,None,,,,,,,,,,,,,,,,,,,,,,,,,,,,,,,,,,,prayer,23,82,sing,red,752.3297712998465,None,None,752.3297712998465,None,,,,,,,,,,,,,,,,,,,,,,,,,,,,,,18,001,2023_Mar_06_1022,ExactRep-v3-final,2021.2.3,59.80492828944614,
,,,,,,,,82,0,82,0,,,,,,,,,,,,,,,,,,,,,,,,,,,,,,,,,,,,,,,,,,,,,,,,,,,,,756.8642370998859,None,,,,,,,,,,,,,,,,,,,,,,,,,,,,,,,,,,,pole,80,83,aloud,white,754.8504442998674,None,None,754.8504442998674,None,,,,,,,,,,,,,,,,,,,,,,,,,,,,,,18,001,2023_Mar_06_1022,ExactRep-v3-final,2021.2.3,59.80492828944614,
,,,,,,,,83,0,83,0,,,,,,,,,,,,,,,,,,,,,,,,,,,,,,,,,,,,,,,,,,,,,,,,,,,,,759.3668760999572,None,,,,,,,,,,,,,,,,,,,,,,,,,,,,,,,,,,,victory,87,84,aloud,white,757.3660647999495,None,None,757.3660647999495,None,,,,,,,,,,,,,,,,,,,,,,,,,,,,,,18,001,2023_Mar_06_1022,ExactRep-v3-final,2021.2.3,59.80492828944614,
,,,,,,,,84,0,84,0,,,,,,,,,,,,,,,,,,,,,,,,,,,,,,,,,,,,,,,,,,,,,,,,,,,,,761.8693798999302,None,,,,,,,,,,,,,,,,,,,,,,,,,,,,,,,,,,,cattle,108,85,aloud,white,759.8672363997903,None,None,759.8672363997903,None,,,,,,,,,,,,,,,,,,,,,,,,,,,,,,18,001,2023_Mar_06_1022,ExactRep-v3-final,2021.2.3,59.80492828944614,
,,,,,,,,85,0,85,0,,,,,,,,,,,,,,,,,,,,,,,,,,,,,,,,,,,,,,,,,,,,,,,,,,,,,764.3718496998772,None,,,,,,,,,,,,,,,,,,,,,,,,,,,,,,,,,,,cabin,51,86,silent,blue,762.3724682999309,None,None,762.3724682999309,None,,,,,,,,,,,,,,,,,,,,,,,,,,,,,,18,001,2023_Mar_06_1022,ExactRep-v3-final,2021.2.3,59.80492828944614,
,,,,,,,,86,0,86,0,,,,,,,,,,,,,,,,,,,,,,,,,,,,,,,,,,,,,,,,,,,,,,,,,,,,,766.8744011998642,None,,,,,,,,,,,,,,,,,,,,,,,,,,,,,,,,,,,amount,38,87,sing,red,764.8742224997841,None,None,764.8742224997841,None,,,,,,,,,,,,,,,,,,,,,,,,,,,,,,18,001,2023_Mar_06_1022,ExactRep-v3-final,2021.2.3,59.80492828944614,
,,,,,,,,87,0,87,0,,,,,,,,,,,,,,,,,,,,,,,,,,,,,,,,,,,,,,,,,,,,,,,,,,,,,769.3768574998248,None,,,,,,,,,,,,,,,,,,,,,,,,,,,,,,,,,,,glory,24,88,sing,red,767.3765852998476,None,None,767.3765852998476,None,,,,,,,,,,,,,,,,,,,,,,,,,,,,,,18,001,2023_Mar_06_1022,ExactRep-v3-final,2021.2.3,59.80492828944614,
,,,,,,,,88,0,88,0,,,,,,,,,,,,,,,,,,,,,,,,,,,,,,,,,,,,,,,,,,,,,,,,,,,,,771.8793764999136,None,,,,,,,,,,,,,,,,,,,,,,,,,,,,,,,,,,,wheat,110,89,aloud,white,769.8790720999241,None,None,769.8790720999241,None,,,,,,,,,,,,,,,,,,,,,,,,,,,,,,18,001,2023_Mar_06_1022,ExactRep-v3-final,2021.2.3,59.80492828944614,
,,,,,,,,89,0,89,0,,,,,,,,,,,,,,,,,,,,,,,,,,,,,,,,,,,,,,,,,,,,,,,,,,,,,774.398549699923,None,,,,,,,,,,,,,,,,,,,,,,,,,,,,,,,,,,,present,86,90,aloud,white,772.386787999887,None,None,772.386787999887,None,,,,,,,,,,,,,,,,,,,,,,,,,,,,,,18,001,2023_Mar_06_1022,ExactRep-v3-final,2021.2.3,59.80492828944614,
,,,,,,,,90,0,90,0,,,,,,,,,,,,,,,,,,,,,,,,,,,,,,,,,,,,,,,,,,,,,,,,,,,,,776.9009123998694,None,,,,,,,,,,,,,,,,,,,,,,,,,,,,,,,,,,,money,76,91,silent,blue,774.8990692999214,None,None,774.8990692999214,None,,,,,,,,,,,,,,,,,,,,,,,,,,,,,,18,001,2023_Mar_06_1022,ExactRep-v3-final,2021.2.3,59.80492828944614,
,,,,,,,,91,0,91,0,,,,,,,,,,,,,,,,,,,,,,,,,,,,,,,,,,,,,,,,,,,,,,,,,,,,,779.4202445999254,None,,,,,,,,,,,,,,,,,,,,,,,,,,,,,,,,,,,village,79,92,sing,red,777.4096091999672,None,None,777.4096091999672,None,,,,,,,,,,,,,,,,,,,,,,,,,,,,,,18,001,2023_Mar_06_1022,ExactRep-v3-final,2021.2.3,59.80492828944614,
,,,,,,,,92,0,92,0,,,,,,,,,,,,,,,,,,,,,,,,,,,,,,,,,,,,,,,,,,,,,,,,,,,,,781.9227630000096,None,,,,,,,,,,,,,,,,,,,,,,,,,,,,,,,,,,,law,15,93,sing,red,779.9207460999023,None,None,779.9207460999023,None,,,,,,,,,,,,,,,,,,,,,,,,,,,,,,18,001,2023_Mar_06_1022,ExactRep-v3-final,2021.2.3,59.80492828944614,
,,,,,,,,93,0,93,0,,,,,,,,,,,,,,,,,,,,,,,,,,,,,,,,,,,,,,,,,,,,,,,,,,,,,784.4252514999826,None,,,,,,,,,,,,,,,,,,,,,,,,,,,,,,,,,,,board,3,94,sing,red,782.4249191000126,None,None,782.4249191000126,None,,,,,,,,,,,,,,,,,,,,,,,,,,,,,,18,001,2023_Mar_06_1022,ExactRep-v3-final,2021.2.3,59.80492828944614,
,,,,,,,,94,0,94,0,,,,,,,,,,,,,,,,,,,,,,,,,,,,,,,,,,,,,,,,,,,,,,,,,,,,,786.9279054999352,None,,,,,,,,,,,,,,,,,,,,,,,,,,,,,,,,,,,thought,99,95,aloud,white,784.9284965000115,None,None,784.9284965000115,None,,,,,,,,,,,,,,,,,,,,,,,,,,,,,,18,001,2023_Mar_06_1022,ExactRep-v3-final,2021.2.3,59.80492828944614,
,,,,,,,,95,0,95,0,,,,,,,,,,,,,,,,,,,,,,,,,,,,,,,,,,,,,,,,,,,,,,,,,,,,,789.4469566999469,None,,,,,,,,,,,,,,,,,,,,,,,,,,,,,,,,,,,plain,111,96,aloud,white,787.4340259998571,None,None,787.4340259998571,None,,,,,,,,,,,,,,,,,,,,,,,,,,,,,,18,001,2023_Mar_06_1022,ExactRep-v3-final,2021.2.3,59.80492828944614,
,,,,,,,,96,0,96,0,,,,,,,,,,,,,,,,,,,,,,,,,,,,,,,,,,,,,,,,,,,,,,,,,,,,,791.9500332998578,None,,,,,,,,,,,,,,,,,,,,,,,,,,,,,,,,,,,season,30,97,sing,red,789.949104399886,None,None,789.949104399886,None,,,,,,,,,,,,,,,,,,,,,,,,,,,,,,18,001,2023_Mar_06_1022,ExactRep-v3-final,2021.2.3,59.80492828944614,
,,,,,,,,97,0,97,0,,,,,,,,,,,,,,,,,,,,,,,,,,,,,,,,,,,,,,,,,,,,,,,,,,,,,794.4687131999526,None,,,,,,,,,,,,,,,,,,,,,,,,,,,,,,,,,,,excuse,92,98,aloud,white,792.4560222998261,None,None,792.4560222998261,None,,,,,,,,,,,,,,,,,,,,,,,,,,,,,,18,001,2023_Mar_06_1022,ExactRep-v3-final,2021.2.3,59.80492828944614,
,,,,,,,,98,0,98,0,,,,,,,,,,,,,,,,,,,,,,,,,,,,,,,,,,,,,,,,,,,,,,,,,,,,,796.9711904998403,None,,,,,,,,,,,,,,,,,,,,,,,,,,,,,,,,,,,dress,64,99,silent,blue,794.9708172997925,None,None,794.9708172997925,None,,,,,,,,,,,,,,,,,,,,,,,,,,,,,,18,001,2023_Mar_06_1022,ExactRep-v3-final,2021.2.3,59.80492828944614,
,,,,,,,,99,0,99,0,,,,,,,,,,,,,,,,,,,,,,,,,,,,,,,,,,,,,,,,,,,,,,,,,,,,,799.4734604000114,None,,,,,,,,,,,,,,,,,,,,,,,,,,,,,,,,,,,event,12,100,sing,red,797.4741075998172,None,None,797.4741075998172,None,,,,,,,,,,,,,,,,,,,,,,,,,,,,,,18,001,2023_Mar_06_1022,ExactRep-v3-final,2021.2.3,59.80492828944614,
,,,,,,,,100,0,100,0,,,,,,,,,,,,,,,,,,,,,,,,,,,,,,,,,,,,,,,,,,,,,,,,,,,,,801.9928829998244,None,,,,,,,,,,,,,,,,,,,,,,,,,,,,,,,,,,,potato,53,101,silent,blue,799.9790695998818,None,None,799.9790695998818,None,,,,,,,,,,,,,,,,,,,,,,,,,,,,,,18,001,2023_Mar_06_1022,ExactRep-v3-final,2021.2.3,59.80492828944614,
,,,,,,,,101,0,101,0,,,,,,,,,,,,,,,,,,,,,,,,,,,,,,,,,,,,,,,,,,,,,,,,,,,,,804.4953124998137,None,,,,,,,,,,,,,,,,,,,,,,,,,,,,,,,,,,,toy,89,102,aloud,white,802.4930652999319,None,None,802.4930652999319,None,,,,,,,,,,,,,,,,,,,,,,,,,,,,,,18,001,2023_Mar_06_1022,ExactRep-v3-final,2021.2.3,59.80492828944614,
,,,,,,,,102,0,102,0,,,,,,,,,,,,,,,,,,,,,,,,,,,,,,,,,,,,,,,,,,,,,,,,,,,,,806.9984382998664,None,,,,,,,,,,,,,,,,,,,,,,,,,,,,,,,,,,,body,59,103,silent,blue,804.9969950998202,None,None,804.9969950998202,None,,,,,,,,,,,,,,,,,,,,,,,,,,,,,,18,001,2023_Mar_06_1022,ExactRep-v3-final,2021.2.3,59.80492828944614,
,,,,,,,,103,0,103,0,,,,,,,,,,,,,,,,,,,,,,,,,,,,,,,,,,,,,,,,,,,,,,,,,,,,,809.5003525000066,None,,,,,,,,,,,,,,,,,,,,,,,,,,,,,,,,,,,mind,4,104,sing,red,807.4998552999459,None,None,807.4998552999459,None,,,,,,,,,,,,,,,,,,,,,,,,,,,,,,18,001,2023_Mar_06_1022,ExactRep-v3-final,2021.2.3,59.80492828944614,
,,,,,,,,104,0,104,0,,,,,,,,,,,,,,,,,,,,,,,,,,,,,,,,,,,,,,,,,,,,,,,,,,,,,812.020064199809,None,,,,,,,,,,,,,,,,,,,,,,,,,,,,,,,,,,,square,106,105,aloud,white,810.0091081999708,None,None,810.0091081999708,None,,,,,,,,,,,,,,,,,,,,,,,,,,,,,,18,001,2023_Mar_06_1022,ExactRep-v3-final,2021.2.3,59.80492828944614,
,,,,,,,,105,0,105,0,,,,,,,,,,,,,,,,,,,,,,,,,,,,,,,,,,,,,,,,,,,,,,,,,,,,,814.5386176998727,None,,,,,,,,,,,,,,,,,,,,,,,,,,,,,,,,,,,theory,114,106,aloud,white,812.5263949998189,None,None,812.5263949998189,None,,,,,,,,,,,,,,,,,,,,,,,,,,,,,,18,001,2023_Mar_06_1022,ExactRep-v3-final,2021.2.3,59.80492828944614,
,,,,,,,,106,0,106,0,,,,,,,,,,,,,,,,,,,,,,,,,,,,,,,,,,,,,,,,,,,,,,,,,,,,,817.0411237999797,None,,,,,,,,,,,,,,,,,,,,,,,,,,,,,,,,,,,gift,27,107,sing,red,815.0390363999177,None,None,815.0390363999177,None,,,,,,,,,,,,,,,,,,,,,,,,,,,,,,18,001,2023_Mar_06_1022,ExactRep-v3-final,2021.2.3,59.80492828944614,
,,,,,,,,107,0,107,0,,,,,,,,,,,,,,,,,,,,,,,,,,,,,,,,,,,,,,,,,,,,,,,,,,,,,819.5604233997874,None,,,,,,,,,,,,,,,,,,,,,,,,,,,,,,,,,,,clock,44,108,silent,blue,817.5494649999309,None,None,817.5494649999309,None,,,,,,,,,,,,,,,,,,,,,,,,,,,,,,18,001,2023_Mar_06_1022,ExactRep-v3-final,2021.2.3,59.80492828944614,
,,,,,,,,108,0,108,0,,,,,,,,,,,,,,,,,,,,,,,,,,,,,,,,,,,,,,,,,,,,,,,,,,,,,822.079597099917,None,,,,,,,,,,,,,,,,,,,,,,,,,,,,,,,,,,,woods,104,109,aloud,white,820.0648661998566,None,None,820.0648661998566,None,,,,,,,,,,,,,,,,,,,,,,,,,,,,,,18,001,2023_Mar_06_1022,ExactRep-v3-final,2021.2.3,59.80492828944614,
,,,,,,,,109,0,109,0,,,,,,,,,,,,,,,,,,,,,,,,,,,,,,,,,,,,,,,,,,,,,,,,,,,,,824.5821505999193,None,,,,,,,,,,,,,,,,,,,,,,,,,,,,,,,,,,,death,97,110,aloud,white,822.5831131997984,None,None,822.5831131997984,None,,,,,,,,,,,,,,,,,,,,,,,,,,,,,,18,001,2023_Mar_06_1022,ExactRep-v3-final,2021.2.3,59.80492828944614,
,,,,,,,,110,0,110,0,,,,,,,,,,,,,,,,,,,,,,,,,,,,,,,,,,,,,,,,,,,,,,,,,,,,,827.1009544997942,None,,,,,,,,,,,,,,,,,,,,,,,,,,,,,,,,,,,fortune,119,111,aloud,white,825.0878015998751,None,None,825.0878015998751,None,,,,,,,,,,,,,,,,,,,,,,,,,,,,,,18,001,2023_Mar_06_1022,ExactRep-v3-final,2021.2.3,59.80492828944614,
,,,,,,,,111,0,111,0,,,,,,,,,,,,,,,,,,,,,,,,,,,,,,,,,,,,,,,,,,,,,,,,,,,,,829.6036441999022,None,,,,,,,,,,,,,,,,,,,,,,,,,,,,,,,,,,,storm,13,112,sing,red,827.6016324998345,None,None,827.6016324998345,None,,,,,,,,,,,,,,,,,,,,,,,,,,,,,,18,001,2023_Mar_06_1022,ExactRep-v3-final,2021.2.3,59.80492828944614,
,,,,,,,,112,0,112,0,,,,,,,,,,,,,,,,,,,,,,,,,,,,,,,,,,,,,,,,,,,,,,,,,,,,,832.1061434999574,None,,,,,,,,,,,,,,,,,,,,,,,,,,,,,,,,,,,moral,78,113,silent,blue,830.1069414999802,None,None,830.1069414999802,None,,,,,,,,,,,,,,,,,,,,,,,,,,,,,,18,001,2023_Mar_06_1022,ExactRep-v3-final,2021.2.3,59.80492828944614,
,,,,,,,,113,0,113,0,,,,,,,,,,,,,,,,,,,,,,,,,,,,,,,,,,,,,,,,,,,,,,,,,,,,,834.6253952998668,None,,,,,,,,,,,,,,,,,,,,,,,,,,,,,,,,,,,length,55,114,silent,blue,832.6123960998375,None,None,832.6123960998375,None,,,,,,,,,,,,,,,,,,,,,,,,,,,,,,18,001,2023_Mar_06_1022,ExactRep-v3-final,2021.2.3,59.80492828944614,
,,,,,,,,114,0,114,0,,,,,,,,,,,,,,,,,,,,,,,,,,,,,,,,,,,,,,,,,,,,,,,,,,,,,837.1444391999394,None,,,,,,,,,,,,,,,,,,,,,,,,,,,,,,,,,,,temple,83,115,aloud,white,835.1347333998419,None,None,835.1347333998419,None,,,,,,,,,,,,,,,,,,,,,,,,,,,,,,18,001,2023_Mar_06_1022,ExactRep-v3-final,2021.2.3,59.80492828944614,
,,,,,,,,115,0,115,0,,,,,,,,,,,,,,,,,,,,,,,,,,,,,,,,,,,,,,,,,,,,,,,,,,,,,839.6471826999914,None,,,,,,,,,,,,,,,,,,,,,,,,,,,,,,,,,,,vision,81,116,aloud,white,837.6449924998451,None,None,837.6449924998451,None,,,,,,,,,,,,,,,,,,,,,,,,,,,,,,18,001,2023_Mar_06_1022,ExactRep-v3-final,2021.2.3,59.80492828944614,
,,,,,,,,116,0,116,0,,,,,,,,,,,,,,,,,,,,,,,,,,,,,,,,,,,,,,,,,,,,,,,,,,,,,842.1663384998683,None,,,,,,,,,,,,,,,,,,,,,,,,,,,,,,,,,,,coast,33,117,sing,red,840.151077899849,None,None,840.151077899849,None,,,,,,,,,,,,,,,,,,,,,,,,,,,,,,18,001,2023_Mar_06_1022,ExactRep-v3-final,2021.2.3,59.80492828944614,
,,,,,,,,117,0,117,0,,,,,,,,,,,,,,,,,,,,,,,,,,,,,,,,,,,,,,,,,,,,,,,,,,,,,844.6687935998198,None,,,,,,,,,,,,,,,,,,,,,,,,,,,,,,,,,,,army,105,118,aloud,white,842.6676882999018,None,None,842.6676882999018,None,,,,,,,,,,,,,,,,,,,,,,,,,,,,,,18,001,2023_Mar_06_1022,ExactRep-v3-final,2021.2.3,59.80492828944614,
,,,,,,,,118,0,118,0,,,,,,,,,,,,,,,,,,,,,,,,,,,,,,,,,,,,,,,,,,,,,,,,,,,,,847.1712801000103,None,,,,,,,,,,,,,,,,,,,,,,,,,,,,,,,,,,,advice,43,119,silent,blue,845.1689664998557,None,None,845.1689664998557,None,,,,,,,,,,,,,,,,,,,,,,,,,,,,,,18,001,2023_Mar_06_1022,ExactRep-v3-final,2021.2.3,59.80492828944614,
,,,,,,,,119,0,119,0,,,,,,,,,,,,,,,,,,,,,,,,,,,,,,,,,,,,,,,,,,,,,,,,,,,,,849.6734954998828,None,,,,,,,,,,,,,,,,,,,,,,,,,,,,,,,,,,,gold,69,120,silent,blue,847.6735445999075,None,None,847.6735445999075,None,,,,,,,,,,,,,,,,,,,,,,,,,,,,,,18,001,2023_Mar_06_1022,ExactRep-v3-final,2021.2.3,59.80492828944614,
,,,,,,,,,,,,,,,,,,,,,,,,,,,,,,,,,,,,,,,,,,,,,,,,,,,,,,,,,,,,,,,,,,,,,,,,,,,,,,,,,,,,,,,,,,,,,,,,,,,,,,,,,,,,,,850.1757145999,None,space,8.486935500055552,860.1522508999333,None,,,,,,,,,,,,,,,,,,,,,,,,18,001,2023_Mar_06_1022,ExactRep-v3-final,2021.2.3,59.80492828944614,
,,,,,,,,,,,,,,,,,,,,,,,,,,,,,,,,,,,,,,,,,,,,,,,,,,,,,,,,,,,,,,,,,,,,,,,,,,,,,,,,,,,,,,,,,,,,,,,,,,,,,,,,,,,,,,,,,,,,868.661287299823,None,space,29.09774210001342,878.6375618998427,None,,,,,,,,,,,,,,,,,,18,001,2023_Mar_06_1022,ExactRep-v3-final,2021.2.3,59.80492828944614,
,,,,,,,,,,,,0,0,0,0,,,,,,,,,,,,,,,,,,,,,,,,,,,,,,,,,,,,,,,,,,,,,,,,,912.603242199868,None,,,,,,,,,,,,,,,,,,,,,,,,,,,,,,,,,,,,,,,,,,,,,,,,,,,,,,,,,mercy,234,1,aloud,new,white,908.2892978999298,None,y,908.2892978999298,None,"['y', 'return']","[2.341556599829346, 4.269572099903598]",908.2892978999298,None,,,18,001,2023_Mar_06_1022,ExactRep-v3-final,2021.2.3,59.80492828944614,
,,,,,,,,,,,,1,0,1,0,,,,,,,,,,,,,,,,,,,,,,,,,,,,,,,,,,,,,,,,,,,,,,,,,915.7230358999223,None,,,,,,,,,,,,,,,,,,,,,,,,,,,,,,,,,,,,,,,,,,,,,,,,,,,,,,,,,hope,178,2,aloud,new,white,913.117830599891,None,y,913.117830599891,None,"['y', 'return']","[2.033237600000575, 2.569017100147903]",913.117830599891,None,,,18,001,2023_Mar_06_1022,ExactRep-v3-final,2021.2.3,59.80492828944614,
,,,,,,,,,,,,2,0,2,0,,,,,,,,,,,,,,,,,,,,,,,,,,,,,,,,,,,,,,,,,,,,,,,,,918.8594861999154,None,,,,,,,,,,,,,,,,,,,,,,,,,,,,,,,,,,,,,,,,,,,,,,,,,,,,,,,,,string,183,3,sing,new,red,916.2345113998745,None,n,916.2345113998745,None,"['n', 'return']","[2.108445000136271, 2.5884068000596017]",916.2345113998745,None,,,18,001,2023_Mar_06_1022,ExactRep-v3-final,2021.2.3,59.80492828944614,
,,,,,,,,,,,,3,0,3,0,,,,,,,,,,,,,,,,,,,,,,,,,,,,,,,,,,,,,,,,,,,,,,,,,923.3140135998838,None,,,,,,,,,,,,,,,,,,,,,,,,,,,,,,,,,,,,,,,,,,,,,,,,,,,,,,,,,humour,103,4,aloud,old,white,919.3677220998798,None,y,919.3677220998798,None,"['y', 'return']","[3.4954426002223045, 3.9031076000537723]",919.3677220998798,None,,,18,001,2023_Mar_06_1022,ExactRep-v3-final,2021.2.3,59.80492828944614,
,,,,,,,,,,,,4,0,4,0,,,,,,,,,,,,,,,,,,,,,,,,,,,,,,,,,,,,,,,,,,,,,,,,,925.5663938999642,None,,,,,,,,,,,,,,,,,,,,,,,,,,,,,,,,,,,,,,,,,,,,,,,,,,,,,,,,,woods,104,5,aloud,old,white,923.8205242999829,None,y,923.8205242999829,None,"['y', 'return']","[1.0743344000075012, 1.6983839999884367]",923.8205242999829,None,,,18,001,2023_Mar_06_1022,ExactRep-v3-final,2021.2.3,59.80492828944614,
,,,,,,,,,,,,5,0,5,0,,,,,,,,,,,,,,,,,,,,,,,,,,,,,,,,,,,,,,,,,,,,,,,,,928.1356458999217,None,,,,,,,,,,,,,,,,,,,,,,,,,,,,,,,,,,,,,,,,,,,,,,,,,,,,,,,,,shadow,31,6,sing,old,red,926.083377199946,None,y,926.083377199946,None,"['y', 'return']","[1.5155134000815451, 2.019443500088528]",926.083377199946,None,,,18,001,2023_Mar_06_1022,ExactRep-v3-final,2021.2.3,59.80492828944614,
,,,,,,,,,,,,6,0,6,0,,,,,,,,,,,,,,,,,,,,,,,,,,,,,,,,,,,,,,,,,,,,,,,,,930.4544929999392,None,,,,,,,,,,,,,,,,,,,,,,,,,,,,,,,,,,,,,,,,,,,,,,,,,,,,,,,,,lip,70,7,silent,old,blue,928.6379335999954,None,n,928.6379335999954,None,"['n', 'return']","[1.352970200125128, 1.7849940001033247]",928.6379335999954,None,,,18,001,2023_Mar_06_1022,ExactRep-v3-final,2021.2.3,59.80492828944614,
,,,,,,,,,,,,7,0,7,0,,,,,,,,,,,,,,,,,,,,,,,,,,,,,,,,,,,,,,,,,,,,,,,,,934.7252652999014,None,,,,,,,,,,,,,,,,,,,,,,,,,,,,,,,,,,,,,,,,,,,,,,,,,,,,,,,,,sky,230,8,aloud,new,white,930.9636224999558,None,n,930.9636224999558,None,"['n', 'return']","[3.3392497000750154, 3.715241000056267]",930.9636224999558,None,,,18,001,2023_Mar_06_1022,ExactRep-v3-final,2021.2.3,59.80492828944614,
,,,,,,,,,,,,8,0,8,0,,,,,,,,,,,,,,,,,,,,,,,,,,,,,,,,,,,,,,,,,,,,,,,,,938.6656559999101,None,,,,,,,,,,,,,,,,,,,,,,,,,,,,,,,,,,,,,,,,,,,,,,,,,,,,,,,,,fur,224,9,aloud,new,white,935.2328837998211,None,y,935.2328837998211,None,"['y', 'return']","[3.198317299829796, 3.3899457999505103]",935.2328837998211,None,,,18,001,2023_Mar_06_1022,ExactRep-v3-final,2021.2.3,59.80492828944614,
,,,,,,,,,,,,9,0,9,0,,,,,,,,,,,,,,,,,,,,,,,,,,,,,,,,,,,,,,,,,,,,,,,,,940.8314662999474,None,,,,,,,,,,,,,,,,,,,,,,,,,,,,,,,,,,,,,,,,,,,,,,,,,,,,,,,,,flower,208,10,aloud,new,white,939.1879391998518,None,y,939.1879391998518,None,"['y', 'return']","[1.2669073999859393, 1.6029876999091357]",939.1879391998518,None,,,18,001,2023_Mar_06_1022,ExactRep-v3-final,2021.2.3,59.80492828944614,
,,,,,,,,,,,,10,0,10,0,,,,,,,,,,,,,,,,,,,,,,,,,,,,,,,,,,,,,,,,,,,,,,,,,942.8669892998878,None,,,,,,,,,,,,,,,,,,,,,,,,,,,,,,,,,,,,,,,,,,,,,,,,,,,,,,,,,colony,57,11,silent,old,blue,941.3397036998067,None,y,941.3397036998067,None,"['y', 'return']","[1.1711643999442458, 1.483168999897316]",941.3397036998067,None,,,18,001,2023_Mar_06_1022,ExactRep-v3-final,2021.2.3,59.80492828944614,
,,,,,,,,,,,,11,0,11,0,,,,,,,,,,,,,,,,,,,,,,,,,,,,,,,,,,,,,,,,,,,,,,,,,945.8698336000089,None,,,,,,,,,,,,,,,,,,,,,,,,,,,,,,,,,,,,,,,,,,,,,,,,,,,,,,,,,child,229,12,sing,new,red,943.3780272000004,None,n,943.3780272000004,None,"['n', 'return']","[2.1168951999861747, 2.4449539999477565]",943.3780272000004,None,,,18,001,2023_Mar_06_1022,ExactRep-v3-final,2021.2.3,59.80492828944614,
,,,,,,,,,,,,12,0,12,0,,,,,,,,,,,,,,,,,,,,,,,,,,,,,,,,,,,,,,,,,,,,,,,,,947.8385578999296,None,,,,,,,,,,,,,,,,,,,,,,,,,,,,,,,,,,,,,,,,,,,,,,,,,,,,,,,,,justice,174,13,aloud,new,white,946.382076199865,None,y,946.382076199865,None,"['y', 'return']","[1.1369467000477016, 1.4087859999854118]",946.382076199865,None,,,18,001,2023_Mar_06_1022,ExactRep-v3-final,2021.2.3,59.80492828944614,
,,,,,,,,,,,,13,0,13,0,,,,,,,,,,,,,,,,,,,,,,,,,,,,,,,,,,,,,,,,,,,,,,,,,950.0073117997963,None,,,,,,,,,,,,,,,,,,,,,,,,,,,,,,,,,,,,,,,,,,,,,,,,,,,,,,,,,ticket,165,14,sing,new,red,948.3499072999693,None,n,948.3499072999693,None,"['n', 'return']","[1.4092852999456227, 1.6171297000255436]",948.3499072999693,None,,,18,001,2023_Mar_06_1022,ExactRep-v3-final,2021.2.3,59.80492828944614,
,,,,,,,,,,,,14,0,14,0,,,,,,,,,,,,,,,,,,,,,,,,,,,,,,,,,,,,,,,,,,,,,,,,,951.8591047998052,None,,,,,,,,,,,,,,,,,,,,,,,,,,,,,,,,,,,,,,,,,,,,,,,,,,,,,,,,,nail,135,15,silent,new,blue,950.515690599801,None,n,950.515690599801,None,"['n', 'return']","[1.0592094000894576, 1.2991629000753164]",950.515690599801,None,,,18,001,2023_Mar_06_1022,ExactRep-v3-final,2021.2.3,59.80492828944614,
,,,,,,,,,,,,15,0,15,0,,,,,,,,,,,,,,,,,,,,,,,,,,,,,,,,,,,,,,,,,,,,,,,,,953.8609910998493,None,,,,,,,,,,,,,,,,,,,,,,,,,,,,,,,,,,,,,,,,,,,,,,,,,,,,,,,,,earth,22,16,sing,old,red,952.3688933998346,None,y,952.3688933998346,None,"['y', 'return']","[1.1980224999133497, 1.4540538999717683]",952.3688933998346,None,,,18,001,2023_Mar_06_1022,ExactRep-v3-final,2021.2.3,59.80492828944614,
,,,,,,,,,,,,16,0,16,0,,,,,,,,,,,,,,,,,,,,,,,,,,,,,,,,,,,,,,,,,,,,,,,,,956.3636870000046,None,,,,,,,,,,,,,,,,,,,,,,,,,,,,,,,,,,,,,,,,,,,,,,,,,,,,,,,,,slave,145,17,silent,new,blue,954.3668771998491,None,n,954.3668771998491,None,"['n', 'return']","[1.0880859000608325, 1.952106999931857]",954.3668771998491,None,,,18,001,2023_Mar_06_1022,ExactRep-v3-final,2021.2.3,59.80492828944614,
,,,,,,,,,,,,17,0,17,0,,,,,,,,,,,,,,,,,,,,,,,,,,,,,,,,,,,,,,,,,,,,,,,,,959.500193899963,None,,,,,,,,,,,,,,,,,,,,,,,,,,,,,,,,,,,,,,,,,,,,,,,,,,,,,,,,,idea,56,18,silent,old,blue,956.8747470998205,None,n,956.8747470998205,None,"['n', 'return']","[2.2924508000724018, 2.5802611999679357]",956.8747470998205,None,,,18,001,2023_Mar_06_1022,ExactRep-v3-final,2021.2.3,59.80492828944614,
,,,,,,,,,,,,18,0,18,0,,,,,,,,,,,,,,,,,,,,,,,,,,,,,,,,,,,,,,,,,,,,,,,,,961.4855155998375,None,,,,,,,,,,,,,,,,,,,,,,,,,,,,,,,,,,,,,,,,,,,,,,,,,,,,,,,,,troops,156,19,silent,new,blue,960.0048575999681,None,n,960.0048575999681,None,"['n', 'return']","[1.2180910999886692, 1.4340407999698073]",960.0048575999681,None,,,18,001,2023_Mar_06_1022,ExactRep-v3-final,2021.2.3,59.80492828944614,
,,,,,,,,,,,,19,0,19,0,,,,,,,,,,,,,,,,,,,,,,,,,,,,,,,,,,,,,,,,,,,,,,,,,963.5375755999703,None,,,,,,,,,,,,,,,,,,,,,,,,,,,,,,,,,,,,,,,,,,,,,,,,,,,,,,,,,theory,114,20,aloud,old,white,961.9954270999879,None,y,961.9954270999879,None,"['y', 'return']","[1.075374900130555, 1.4996195000130683]",961.9954270999879,None,,,18,001,2023_Mar_06_1022,ExactRep-v3-final,2021.2.3,59.80492828944614,
,,,,,,,,,,,,20,0,20,0,,,,,,,,,,,,,,,,,,,,,,,,,,,,,,,,,,,,,,,,,,,,,,,,,966.3736604999285,None,,,,,,,,,,,,,,,,,,,,,,,,,,,,,,,,,,,,,,,,,,,,,,,,,,,,,,,,,shock,65,21,silent,old,blue,964.0455434999894,None,n,964.0455434999894,None,"['n', 'return']","[2.113391799852252, 2.2814213999081403]",964.0455434999894,None,,,18,001,2023_Mar_06_1022,ExactRep-v3-final,2021.2.3,59.80492828944614,
,,,,,,,,,,,,21,0,21,0,,,,,,,,,,,,,,,,,,,,,,,,,,,,,,,,,,,,,,,,,,,,,,,,,968.8093695999123,None,,,,,,,,,,,,,,,,,,,,,,,,,,,,,,,,,,,,,,,,,,,,,,,,,,,,,,,,,anger,126,22,silent,new,blue,966.886121199932,None,n,966.886121199932,None,"['n', 'return']","[1.6728967998642474, 1.8806944999378175]",966.886121199932,None,,,18,001,2023_Mar_06_1022,ExactRep-v3-final,2021.2.3,59.80492828944614,
,,,,,,,,,,,,22,0,22,0,,,,,,,,,,,,,,,,,,,,,,,,,,,,,,,,,,,,,,,,,,,,,,,,,972.2294908999465,None,,,,,,,,,,,,,,,,,,,,,,,,,,,,,,,,,,,,,,,,,,,,,,,,,,,,,,,,,engine,161,23,sing,new,red,969.3099483998958,None,n,969.3099483998958,None,"['n', 'return']","[2.520997399929911, 2.8810016000643373]",969.3099483998958,None,,,18,001,2023_Mar_06_1022,ExactRep-v3-final,2021.2.3,59.80492828944614,
,,,,,,,,,,,,23,0,23,0,,,,,,,,,,,,,,,,,,,,,,,,,,,,,,,,,,,,,,,,,,,,,,,,,977.0341589997988,None,,,,,,,,,,,,,,,,,,,,,,,,,,,,,,,,,,,,,,,,,,,,,,,,,,,,,,,,,disease,128,24,silent,new,blue,972.7396054000128,None,n,972.7396054000128,None,"['n', 'return']","[4.003470299998298, 4.259442599955946]",972.7396054000128,None,,,18,001,2023_Mar_06_1022,ExactRep-v3-final,2021.2.3,59.80492828944614,
,,,,,,,,,,,,24,0,24,0,,,,,,,,,,,,,,,,,,,,,,,,,,,,,,,,,,,,,,,,,,,,,,,,,979.0198775997851,None,,,,,,,,,,,,,,,,,,,,,,,,,,,,,,,,,,,,,,,,,,,,,,,,,,,,,,,,,effort,67,25,silent,old,blue,977.544908199925,None,y,977.544908199925,None,"['y', 'return']","[1.222160100005567, 1.4301060000434518]",977.544908199925,None,,,18,001,2023_Mar_06_1022,ExactRep-v3-final,2021.2.3,59.80492828944614,
,,,,,,,,,,,,25,0,25,0,,,,,,,,,,,,,,,,,,,,,,,,,,,,,,,,,,,,,,,,,,,,,,,,,981.9966475998517,None,,,,,,,,,,,,,,,,,,,,,,,,,,,,,,,,,,,,,,,,,,,,,,,,,,,,,,,,,green,25,26,sing,old,red,979.529708399903,None,y,979.529708399903,None,"['y', 'return']","[2.2694963000249118, 2.413207500008866]",979.529708399903,None,,,18,001,2023_Mar_06_1022,ExactRep-v3-final,2021.2.3,59.80492828944614,
,,,,,,,,,,,,26,0,26,0,,,,,,,,,,,,,,,,,,,,,,,,,,,,,,,,,,,,,,,,,,,,,,,,,984.041379199829,None,,,,,,,,,,,,,,,,,,,,,,,,,,,,,,,,,,,,,,,,,,,,,,,,,,,,,,,,,priest,187,27,sing,new,red,982.5200184998102,None,n,982.5200184998102,None,"['n', 'return']","[1.0871319000143558, 1.478958500083536]",982.5200184998102,None,,,18,001,2023_Mar_06_1022,ExactRep-v3-final,2021.2.3,59.80492828944614,
,,,,,,,,,,,,27,0,27,0,,,,,,,,,,,,,,,,,,,,,,,,,,,,,,,,,,,,,,,,,,,,,,,,,988.3790103998035,None,,,,,,,,,,,,,,,,,,,,,,,,,,,,,,,,,,,,,,,,,,,,,,,,,,,,,,,,,body,59,28,silent,old,blue,984.5553911000025,None,y,984.5553911000025,None,"['y', 'return']","[3.659753300016746, 3.787582000019029]",984.5553911000025,None,,,18,001,2023_Mar_06_1022,ExactRep-v3-final,2021.2.3,59.80492828944614,
,,,,,,,,,,,,28,0,28,0,,,,,,,,,,,,,,,,,,,,,,,,,,,,,,,,,,,,,,,,,,,,,,,,,990.2974248998798,None,,,,,,,,,,,,,,,,,,,,,,,,,,,,,,,,,,,,,,,,,,,,,,,,,,,,,,,,,tool,140,29,silent,new,blue,988.8846426999662,None,n,988.8846426999662,None,"['n', 'return']","[1.0745838000439107, 1.3703479999676347]",988.8846426999662,None,,,18,001,2023_Mar_06_1022,ExactRep-v3-final,2021.2.3,59.80492828944614,
,,,,,,,,,,,,29,0,29,0,,,,,,,,,,,,,,,,,,,,,,,,,,,,,,,,,,,,,,,,,,,,,,,,,992.3496669000015,None,,,,,,,,,,,,,,,,,,,,,,,,,,,,,,,,,,,,,,,,,,,,,,,,,,,,,,,,,house,84,30,aloud,old,white,990.8054601999465,None,y,990.8054601999465,None,"['y', 'return']","[1.3134814000222832, 1.4974976999219507]",990.8054601999465,None,,,18,001,2023_Mar_06_1022,ExactRep-v3-final,2021.2.3,59.80492828944614,
,,,,,,,,,,,,30,0,30,0,,,,,,,,,,,,,,,,,,,,,,,,,,,,,,,,,,,,,,,,,,,,,,,,,994.3681564999279,None,,,,,,,,,,,,,,,,,,,,,,,,,,,,,,,,,,,,,,,,,,,,,,,,,,,,,,,,,market,228,31,aloud,new,white,992.8655431999359,None,n,992.8655431999359,None,"['n', 'return']","[1.3012799001298845, 1.4694602999370545]",992.8655431999359,None,,,18,001,2023_Mar_06_1022,ExactRep-v3-final,2021.2.3,59.80492828944614,
,,,,,,,,,,,,31,0,31,0,,,,,,,,,,,,,,,,,,,,,,,,,,,,,,,,,,,,,,,,,,,,,,,,,996.1534540997818,None,,,,,,,,,,,,,,,,,,,,,,,,,,,,,,,,,,,,,,,,,,,,,,,,,,,,,,,,,person,6,32,sing,old,red,994.8795778998174,None,y,994.8795778998174,None,"['y', 'return']","[1.0076112998649478, 1.2392831000033766]",994.8795778998174,None,,,18,001,2023_Mar_06_1022,ExactRep-v3-final,2021.2.3,59.80492828944614,
,,,,,,,,,,,,32,0,32,0,,,,,,,,,,,,,,,,,,,,,,,,,,,,,,,,,,,,,,,,,,,,,,,,,997.9050294999033,None,,,,,,,,,,,,,,,,,,,,,,,,,,,,,,,,,,,,,,,,,,,,,,,,,,,,,,,,,artist,233,33,sing,new,red,996.663046099944,None,n,996.663046099944,None,"['n', 'return']","[0.9759315999690443, 1.1999258999712765]",996.663046099944,None,,,18,001,2023_Mar_06_1022,ExactRep-v3-final,2021.2.3,59.80492828944614,
,,,,,,,,,,,,33,0,33,0,,,,,,,,,,,,,,,,,,,,,,,,,,,,,,,,,,,,,,,,,,,,,,,,,1000.5078205999453,None,,,,,,,,,,,,,,,,,,,,,,,,,,,,,,,,,,,,,,,,,,,,,,,,,,,,,,,,,fire,201,34,sing,new,red,998.4126282997895,None,n,998.4126282997895,None,"['n', 'return']","[1.9225124001968652, 2.0584258001763374]",998.4126282997895,None,,,18,001,2023_Mar_06_1022,ExactRep-v3-final,2021.2.3,59.80492828944614,
,,,,,,,,,,,,34,0,34,0,,,,,,,,,,,,,,,,,,,,,,,,,,,,,,,,,,,,,,,,,,,,,,,,,1003.5942377999891,None,,,,,,,,,,,,,,,,,,,,,,,,,,,,,,,,,,,,,,,,,,,,,,,,,,,,,,,,,bottle,139,35,silent,new,blue,1001.0217697999906,None,n,1001.0217697999906,None,"['n', 'return']","[2.4093520999886096, 2.5373418999370188]",1001.0217697999906,None,,,18,001,2023_Mar_06_1022,ExactRep-v3-final,2021.2.3,59.80492828944614,
,,,,,,,,,,,,35,0,35,0,,,,,,,,,,,,,,,,,,,,,,,,,,,,,,,,,,,,,,,,,,,,,,,,,1008.8161259999033,None,,,,,,,,,,,,,,,,,,,,,,,,,,,,,,,,,,,,,,,,,,,,,,,,,,,,,,,,,law,15,36,sing,old,red,1004.1027822999749,None,y,1004.1027822999749,None,"['n', 'backspace', 'y', 'return']","[2.296349100070074, 3.544066100148484, 4.472237600013614, 4.680333300027996]",1004.1027822999749,None,,,18,001,2023_Mar_06_1022,ExactRep-v3-final,2021.2.3,59.80492828944614,
,,,,,,,,,,,,36,0,36,0,,,,,,,,,,,,,,,,,,,,,,,,,,,,,,,,,,,,,,,,,,,,,,,,,1011.4520912999287,None,,,,,,,,,,,,,,,,,,,,,,,,,,,,,,,,,,,,,,,,,,,,,,,,,,,,,,,,,mother,75,37,silent,old,blue,1009.3285410997923,None,n,1009.3285410997923,None,"['n', 'return']","[1.798428599955514, 2.078409800073132]",1009.3285410997923,None,,,18,001,2023_Mar_06_1022,ExactRep-v3-final,2021.2.3,59.80492828944614,
,,,,,,,,,,,,37,0,37,0,,,,,,,,,,,,,,,,,,,,,,,,,,,,,,,,,,,,,,,,,,,,,,,,,1013.9710553998593,None,,,,,,,,,,,,,,,,,,,,,,,,,,,,,,,,,,,,,,,,,,,,,,,,,,,,,,,,,shore,199,38,sing,new,red,1011.9620689998847,None,y,1011.9620689998847,None,"['y', 'return']","[1.797093299916014, 1.9730138999875635]",1011.9620689998847,None,,,18,001,2023_Mar_06_1022,ExactRep-v3-final,2021.2.3,59.80492828944614,
,,,,,,,,,,,,38,0,38,0,,,,,,,,,,,,,,,,,,,,,,,,,,,,,,,,,,,,,,,,,,,,,,,,,1016.3737005000003,None,,,,,,,,,,,,,,,,,,,,,,,,,,,,,,,,,,,,,,,,,,,,,,,,,,,,,,,,,judge,122,39,silent,new,blue,1014.4880269998685,None,y,1014.4880269998685,None,"['y', 'return']","[1.734985299874097, 1.8469934999011457]",1014.4880269998685,None,,,18,001,2023_Mar_06_1022,ExactRep-v3-final,2021.2.3,59.80492828944614,
,,,,,,,,,,,,39,0,39,0,,,,,,,,,,,,,,,,,,,,,,,,,,,,,,,,,,,,,,,,,,,,,,,,,1018.0919328997843,None,,,,,,,,,,,,,,,,,,,,,,,,,,,,,,,,,,,,,,,,,,,,,,,,,,,,,,,,,bird,66,40,silent,old,blue,1016.8826198999304,None,y,1016.8826198999304,None,"['y', 'return']","[0.9482577999588102, 1.1644840999506414]",1016.8826198999304,None,,,18,001,2023_Mar_06_1022,ExactRep-v3-final,2021.2.3,59.80492828944614,
,,,,,,,,,,,,40,0,40,0,,,,,,,,,,,,,,,,,,,,,,,,,,,,,,,,,,,,,,,,,,,,,,,,,1021.4787716998253,None,,,,,,,,,,,,,,,,,,,,,,,,,,,,,,,,,,,,,,,,,,,,,,,,,,,,,,,,,deed,223,41,sing,new,red,1018.6012909999117,None,n,1018.6012909999117,None,"['n', 'return']","[2.3016419999767095, 2.8296193000860512]",1018.6012909999117,None,,,18,001,2023_Mar_06_1022,ExactRep-v3-final,2021.2.3,59.80492828944614,
,,,,,,,,,,,,41,0,41,0,,,,,,,,,,,,,,,,,,,,,,,,,,,,,,,,,,,,,,,,,,,,,,,,,1024.5652069998905,None,,,,,,,,,,,,,,,,,,,,,,,,,,,,,,,,,,,,,,,,,,,,,,,,,,,,,,,,,car,176,42,aloud,new,white,1021.9901460998226,None,n,1021.9901460998226,None,"['n', 'return']","[1.808812500210479, 2.5288207000121474]",1021.9901460998226,None,,,18,001,2023_Mar_06_1022,ExactRep-v3-final,2021.2.3,59.80492828944614,
,,,,,,,,,,,,42,0,42,0,,,,,,,,,,,,,,,,,,,,,,,,,,,,,,,,,,,,,,,,,,,,,,,,,1026.4337285999209,None,,,,,,,,,,,,,,,,,,,,,,,,,,,,,,,,,,,,,,,,,,,,,,,,,,,,,,,,,storm,13,43,sing,old,red,1025.0766904999036,None,y,1025.0766904999036,None,"['y', 'return']","[1.0262908998411149, 1.322207799879834]",1025.0766904999036,None,,,18,001,2023_Mar_06_1022,ExactRep-v3-final,2021.2.3,59.80492828944614,
,,,,,,,,,,,,43,0,43,0,,,,,,,,,,,,,,,,,,,,,,,,,,,,,,,,,,,,,,,,,,,,,,,,,1028.0020001998637,None,,,,,,,,,,,,,,,,,,,,,,,,,,,,,,,,,,,,,,,,,,,,,,,,,,,,,,,,,opinion,167,44,sing,new,red,1026.9462666998152,None,y,1026.9462666998152,None,"['y', 'return']","[0.8529939998406917, 1.0207743998616934]",1026.9462666998152,None,,,18,001,2023_Mar_06_1022,ExactRep-v3-final,2021.2.3,59.80492828944614,
,,,,,,,,,,,,44,0,44,0,,,,,,,,,,,,,,,,,,,,,,,,,,,,,,,,,,,,,,,,,,,,,,,,,1029.903748099925,None,,,,,,,,,,,,,,,,,,,,,,,,,,,,,,,,,,,,,,,,,,,,,,,,,,,,,,,,,lad,68,45,silent,old,blue,1028.5084198999684,None,y,1028.5084198999684,None,"['y', 'return']","[1.1705487000290304, 1.3545919000171125]",1028.5084198999684,None,,,18,001,2023_Mar_06_1022,ExactRep-v3-final,2021.2.3,59.80492828944614,
,,,,,,,,,,,,45,0,45,0,,,,,,,,,,,,,,,,,,,,,,,,,,,,,,,,,,,,,,,,,,,,,,,,,1032.8067611998413,None,,,,,,,,,,,,,,,,,,,,,,,,,,,,,,,,,,,,,,,,,,,,,,,,,,,,,,,,,amount,38,46,sing,old,red,1030.4128504998516,None,n,1030.4128504998516,None,"['n', 'return']","[2.138117899885401, 2.346170299919322]",1030.4128504998516,None,,,18,001,2023_Mar_06_1022,ExactRep-v3-final,2021.2.3,59.80492828944614,
,,,,,,,,,,,,46,0,46,0,,,,,,,,,,,,,,,,,,,,,,,,,,,,,,,,,,,,,,,,,,,,,,,,,1034.7087316999678,None,,,,,,,,,,,,,,,,,,,,,,,,,,,,,,,,,,,,,,,,,,,,,,,,,,,,,,,,,flesh,148,47,silent,new,blue,1033.3193936999887,None,y,1033.3193936999887,None,"['y', 'return']","[1.0316427999641746, 1.3516418999060988]",1033.3193936999887,None,,,18,001,2023_Mar_06_1022,ExactRep-v3-final,2021.2.3,59.80492828944614,
,,,,,,,,,,,,47,0,47,0,,,,,,,,,,,,,,,,,,,,,,,,,,,,,,,,,,,,,,,,,,,,,,,,,1036.427074499894,None,,,,,,,,,,,,,,,,,,,,,,,,,,,,,,,,,,,,,,,,,,,,,,,,,,,,,,,,,style,39,48,silent,old,blue,1035.2167264998425,None,n,1035.2167264998425,None,"['n', 'return']","[1.0063930999021977, 1.1742438999935985]",1035.2167264998425,None,,,18,001,2023_Mar_06_1022,ExactRep-v3-final,2021.2.3,59.80492828944614,
,,,,,,,,,,,,48,0,48,0,,,,,,,,,,,,,,,,,,,,,,,,,,,,,,,,,,,,,,,,,,,,,,,,,1038.295668900013,None,,,,,,,,,,,,,,,,,,,,,,,,,,,,,,,,,,,,,,,,,,,,,,,,,,,,,,,,,series,21,49,sing,old,red,1036.9386773000006,None,y,1036.9386773000006,None,"['y', 'return']","[1.1324112999718636, 1.324235999956727]",1036.9386773000006,None,,,18,001,2023_Mar_06_1022,ExactRep-v3-final,2021.2.3,59.80492828944614,
,,,,,,,,,,,,49,0,49,0,,,,,,,,,,,,,,,,,,,,,,,,,,,,,,,,,,,,,,,,,,,,,,,,,1040.2975691999309,None,,,,,,,,,,,,,,,,,,,,,,,,,,,,,,,,,,,,,,,,,,,,,,,,,,,,,,,,,student,88,50,aloud,old,white,1038.8062295999844,None,y,1038.8062295999844,None,"['y', 'return']","[1.24889549985528, 1.4487612000666559]",1038.8062295999844,None,,,18,001,2023_Mar_06_1022,ExactRep-v3-final,2021.2.3,59.80492828944614,
,,,,,,,,,,,,50,0,50,0,,,,,,,,,,,,,,,,,,,,,,,,,,,,,,,,,,,,,,,,,,,,,,,,,1041.8825279998127,None,,,,,,,,,,,,,,,,,,,,,,,,,,,,,,,,,,,,,,,,,,,,,,,,,,,,,,,,,village,79,51,sing,old,red,1040.8087353999726,None,y,1040.8087353999726,None,"['y', 'return']","[0.822177599882707, 1.038281099870801]",1040.8087353999726,None,,,18,001,2023_Mar_06_1022,ExactRep-v3-final,2021.2.3,59.80492828944614,
,,,,,,,,,,,,51,0,51,0,,,,,,,,,,,,,,,,,,,,,,,,,,,,,,,,,,,,,,,,,,,,,,,,,1043.5506841999013,None,,,,,,,,,,,,,,,,,,,,,,,,,,,,,,,,,,,,,,,,,,,,,,,,,,,,,,,,,love,32,52,sing,old,red,1042.3940643998794,None,y,1042.3940643998794,None,"['y', 'return']","[0.8048807000741363, 1.1250053001567721]",1042.3940643998794,None,,,18,001,2023_Mar_06_1022,ExactRep-v3-final,2021.2.3,59.80492828944614,
,,,,,,,,,,,,52,0,52,0,,,,,,,,,,,,,,,,,,,,,,,,,,,,,,,,,,,,,,,,,,,,,,,,,1045.3025083998218,None,,,,,,,,,,,,,,,,,,,,,,,,,,,,,,,,,,,,,,,,,,,,,,,,,,,,,,,,,cost,132,53,silent,new,blue,1044.0599099998362,None,n,1044.0599099998362,None,"['n', 'return']","[1.0111613001208752, 1.1950987000018358]",1044.0599099998362,None,,,18,001,2023_Mar_06_1022,ExactRep-v3-final,2021.2.3,59.80492828944614,
,,,,,,,,,,,,53,0,53,0,,,,,,,,,,,,,,,,,,,,,,,,,,,,,,,,,,,,,,,,,,,,,,,,,1046.8709894998465,None,,,,,,,,,,,,,,,,,,,,,,,,,,,,,,,,,,,,,,,,,,,,,,,,,,,,,,,,,method,118,54,aloud,old,white,1045.81864339998,None,y,1045.81864339998,None,"['y', 'return']","[0.8365096000488847, 1.0205767001025379]",1045.81864339998,None,,,18,001,2023_Mar_06_1022,ExactRep-v3-final,2021.2.3,59.80492828944614,
,,,,,,,,,,,,54,0,54,0,,,,,,,,,,,,,,,,,,,,,,,,,,,,,,,,,,,,,,,,,,,,,,,,,1048.3389463999774,None,,,,,,,,,,,,,,,,,,,,,,,,,,,,,,,,,,,,,,,,,,,,,,,,,,,,,,,,,meadow,235,55,sing,new,red,1047.3836215999909,None,y,1047.3836215999909,None,"['y', 'return']","[0.6793430999387056, 0.9113735998980701]",1047.3836215999909,None,,,18,001,2023_Mar_06_1022,ExactRep-v3-final,2021.2.3,59.80492828944614,
,,,,,,,,,,,,55,0,55,0,,,,,,,,,,,,,,,,,,,,,,,,,,,,,,,,,,,,,,,,,,,,,,,,,1050.207505499944,None,,,,,,,,,,,,,,,,,,,,,,,,,,,,,,,,,,,,,,,,,,,,,,,,,,,,,,,,,vessel,46,56,silent,old,blue,1048.8487087998074,None,y,1048.8487087998074,None,"['y', 'return']","[1.1344733000732958, 1.3182522000279278]",1048.8487087998074,None,,,18,001,2023_Mar_06_1022,ExactRep-v3-final,2021.2.3,59.80492828944614,
,,,,,,,,,,,,56,0,56,0,,,,,,,,,,,,,,,,,,,,,,,,,,,,,,,,,,,,,,,,,,,,,,,,,1052.0760716998484,None,,,,,,,,,,,,,,,,,,,,,,,,,,,,,,,,,,,,,,,,,,,,,,,,,,,,,,,,,master,219,57,sing,new,red,1050.7081543998793,None,y,1050.7081543998793,None,"['y', 'return']","[1.0590180999133736, 1.3309466999489814]",1050.7081543998793,None,,,18,001,2023_Mar_06_1022,ExactRep-v3-final,2021.2.3,59.80492828944614,
,,,,,,,,,,,,57,0,57,0,,,,,,,,,,,,,,,,,,,,,,,,,,,,,,,,,,,,,,,,,,,,,,,,,1053.6273677998688,None,,,,,,,,,,,,,,,,,,,,,,,,,,,,,,,,,,,,,,,,,,,,,,,,,,,,,,,,,pride,218,58,aloud,new,white,1052.5915603998583,None,y,1052.5915603998583,None,"['y', 'return']","[0.8635189000051469, 0.9996962000150234]",1052.5915603998583,None,,,18,001,2023_Mar_06_1022,ExactRep-v3-final,2021.2.3,59.80492828944614,
,,,,,,,,,,,,58,0,58,0,,,,,,,,,,,,,,,,,,,,,,,,,,,,,,,,,,,,,,,,,,,,,,,,,1055.3795107998885,None,,,,,,,,,,,,,,,,,,,,,,,,,,,,,,,,,,,,,,,,,,,,,,,,,,,,,,,,,leader,73,59,silent,old,blue,1054.1385917000007,None,y,1054.1385917000007,None,"['y', 'return']","[1.0924557000398636, 1.2044285999145359]",1054.1385917000007,None,,,18,001,2023_Mar_06_1022,ExactRep-v3-final,2021.2.3,59.80492828944614,
,,,,,,,,,,,,59,0,59,0,,,,,,,,,,,,,,,,,,,,,,,,,,,,,,,,,,,,,,,,,,,,,,,,,1058.6826384998858,None,,,,,,,,,,,,,,,,,,,,,,,,,,,,,,,,,,,,,,,,,,,,,,,,,,,,,,,,,plant,131,60,silent,new,blue,1055.8902129998896,None,y,1055.8902129998896,None,"['y', 'return']","[2.2447765001561493, 2.7487081000581384]",1055.8902129998896,None,,,18,001,2023_Mar_06_1022,ExactRep-v3-final,2021.2.3,59.80492828944614,
,,,,,,,,,,,,60,0,60,0,,,,,,,,,,,,,,,,,,,,,,,,,,,,,,,,,,,,,,,,,,,,,,,,,1061.5188116999343,None,,,,,,,,,,,,,,,,,,,,,,,,,,,,,,,,,,,,,,,,,,,,,,,,,,,,,,,,,ocean,5,61,sing,old,red,1059.195279699983,None,y,1059.195279699983,None,"['y', 'return']","[2.108006800059229, 2.291789999930188]",1059.195279699983,None,,,18,001,2023_Mar_06_1022,ExactRep-v3-final,2021.2.3,59.80492828944614,
,,,,,,,,,,,,61,0,61,0,,,,,,,,,,,,,,,,,,,,,,,,,,,,,,,,,,,,,,,,,,,,,,,,,1063.57084449986,None,,,,,,,,,,,,,,,,,,,,,,,,,,,,,,,,,,,,,,,,,,,,,,,,,,,,,,,,,letter,107,62,aloud,old,white,1062.0290257998277,None,y,1062.0290257998277,None,"['y', 'return']","[1.2579401000402868, 1.4979036999866366]",1062.0290257998277,None,,,18,001,2023_Mar_06_1022,ExactRep-v3-final,2021.2.3,59.80492828944614,
,,,,,,,,,,,,62,0,62,0,,,,,,,,,,,,,,,,,,,,,,,,,,,,,,,,,,,,,,,,,,,,,,,,,1065.5894328998402,None,,,,,,,,,,,,,,,,,,,,,,,,,,,,,,,,,,,,,,,,,,,,,,,,,,,,,,,,,horse,77,63,silent,old,blue,1064.084902699804,None,n,1064.084902699804,None,"['n', 'return']","[1.3063355998601764, 1.4664189999457449]",1064.084902699804,None,,,18,001,2023_Mar_06_1022,ExactRep-v3-final,2021.2.3,59.80492828944614,
,,,,,,,,,,,,63,0,63,0,,,,,,,,,,,,,,,,,,,,,,,,,,,,,,,,,,,,,,,,,,,,,,,,,1067.3746413998306,None,,,,,,,,,,,,,,,,,,,,,,,,,,,,,,,,,,,,,,,,,,,,,,,,,,,,,,,,,pipe,207,64,sing,new,red,1066.0955416997895,None,n,1066.0955416997895,None,"['n', 'return']","[1.0875738998875022, 1.2314381999894977]",1066.0955416997895,None,,,18,001,2023_Mar_06_1022,ExactRep-v3-final,2021.2.3,59.80492828944614,
,,,,,,,,,,,,64,0,64,0,,,,,,,,,,,,,,,,,,,,,,,,,,,,,,,,,,,,,,,,,,,,,,,,,1071.5288162999786,None,,,,,,,,,,,,,,,,,,,,,,,,,,,,,,,,,,,,,,,,,,,,,,,,,,,,,,,,,blood,222,65,aloud,new,white,1067.8863713999745,None,n,1067.8863713999745,None,"['n', 'return']","[3.456897599855438, 3.6087193998973817]",1067.8863713999745,None,,,18,001,2023_Mar_06_1022,ExactRep-v3-final,2021.2.3,59.80492828944614,
,,,,,,,,,,,,65,0,65,0,,,,,,,,,,,,,,,,,,,,,,,,,,,,,,,,,,,,,,,,,,,,,,,,,1074.1482426999137,None,,,,,,,,,,,,,,,,,,,,,,,,,,,,,,,,,,,,,,,,,,,,,,,,,,,,,,,,,metal,121,66,silent,new,blue,1072.0384912998416,None,y,1072.0384912998416,None,"['y', 'return']","[1.8806160998065025, 2.064797799801454]",1072.0384912998416,None,,,18,001,2023_Mar_06_1022,ExactRep-v3-final,2021.2.3,59.80492828944614,
,,,,,,,,,,,,66,0,66,0,,,,,,,,,,,,,,,,,,,,,,,,,,,,,,,,,,,,,,,,,,,,,,,,,1076.0500460998155,None,,,,,,,,,,,,,,,,,,,,,,,,,,,,,,,,,,,,,,,,,,,,,,,,,,,,,,,,,victory,87,67,aloud,old,white,1074.6752139998134,None,y,1074.6752139998134,None,"['y', 'return']","[0.9878078000620008, 1.3317391001619399]",1074.6752139998134,None,,,18,001,2023_Mar_06_1022,ExactRep-v3-final,2021.2.3,59.80492828944614,
,,,,,,,,,,,,67,0,67,0,,,,,,,,,,,,,,,,,,,,,,,,,,,,,,,,,,,,,,,,,,,,,,,,,1078.3024124999065,None,,,,,,,,,,,,,,,,,,,,,,,,,,,,,,,,,,,,,,,,,,,,,,,,,,,,,,,,,money,76,68,silent,old,blue,1076.5513674998656,None,y,1076.5513674998656,None,"['y', 'return']","[1.463704900117591, 1.7037098000291735]",1076.5513674998656,None,,,18,001,2023_Mar_06_1022,ExactRep-v3-final,2021.2.3,59.80492828944614,
,,,,,,,,,,,,68,0,68,0,,,,,,,,,,,,,,,,,,,,,,,,,,,,,,,,,,,,,,,,,,,,,,,,,1080.6212516999803,None,,,,,,,,,,,,,,,,,,,,,,,,,,,,,,,,,,,,,,,,,,,,,,,,,,,,,,,,,time,34,69,sing,old,red,1078.8110742999706,None,y,1078.8110742999706,None,"['y', 'return']","[1.620208099950105, 1.7723793999757618]",1078.8110742999706,None,,,18,001,2023_Mar_06_1022,ExactRep-v3-final,2021.2.3,59.80492828944614,
,,,,,,,,,,,,69,0,69,0,,,,,,,,,,,,,,,,,,,,,,,,,,,,,,,,,,,,,,,,,,,,,,,,,1084.1081729999278,None,,,,,,,,,,,,,,,,,,,,,,,,,,,,,,,,,,,,,,,,,,,,,,,,,,,,,,,,,pole,80,70,aloud,old,white,1081.1313412999734,None,y,1081.1313412999734,None,"['y', 'return']","[2.7396938998717815, 2.9397354000248015]",1081.1313412999734,None,,,18,001,2023_Mar_06_1022,ExactRep-v3-final,2021.2.3,59.80492828944614,
,,,,,,,,,,,,70,0,70,0,,,,,,,,,,,,,,,,,,,,,,,,,,,,,,,,,,,,,,,,,,,,,,,,,1087.4948695998173,None,,,,,,,,,,,,,,,,,,,,,,,,,,,,,,,,,,,,,,,,,,,,,,,,,,,,,,,,,weapon,71,71,silent,old,blue,1084.6194962998852,None,y,1084.6194962998852,None,"['y', 'return']","[2.699591400101781, 2.835598200093955]",1084.6194962998852,None,,,18,001,2023_Mar_06_1022,ExactRep-v3-final,2021.2.3,59.80492828944614,
,,,,,,,,,,,,71,0,71,0,,,,,,,,,,,,,,,,,,,,,,,,,,,,,,,,,,,,,,,,,,,,,,,,,1089.4632365999278,None,,,,,,,,,,,,,,,,,,,,,,,,,,,,,,,,,,,,,,,,,,,,,,,,,,,,,,,,,clock,44,72,silent,old,blue,1088.0031645998824,None,n,1088.0031645998824,None,"['n', 'return']","[1.2679040001239628, 1.4119136000517756]",1088.0031645998824,None,,,18,001,2023_Mar_06_1022,ExactRep-v3-final,2021.2.3,59.80492828944614,
,,,,,,,,,,,,72,0,72,0,,,,,,,,,,,,,,,,,,,,,,,,,,,,,,,,,,,,,,,,,,,,,,,,,1092.5999825999606,None,,,,,,,,,,,,,,,,,,,,,,,,,,,,,,,,,,,,,,,,,,,,,,,,,,,,,,,,,mind,4,73,sing,old,red,1089.963961899979,None,y,1089.963961899979,None,"['y', 'return']","[2.4513043998740613, 2.595410699956119]",1089.963961899979,None,,,18,001,2023_Mar_06_1022,ExactRep-v3-final,2021.2.3,59.80492828944614,
,,,,,,,,,,,,73,0,73,0,,,,,,,,,,,,,,,,,,,,,,,,,,,,,,,,,,,,,,,,,,,,,,,,,1095.2190034999512,None,,,,,,,,,,,,,,,,,,,,,,,,,,,,,,,,,,,,,,,,,,,,,,,,,,,,,,,,,lord,171,74,sing,new,red,1093.1074232999235,None,y,1093.1074232999235,None,"['y', 'return']","[1.9877135001588613, 2.0676140000578016]",1093.1074232999235,None,,,18,001,2023_Mar_06_1022,ExactRep-v3-final,2021.2.3,59.80492828944614,
,,,,,,,,,,,,74,0,74,0,,,,,,,,,,,,,,,,,,,,,,,,,,,,,,,,,,,,,,,,,,,,,,,,,1097.7552713998593,None,,,,,,,,,,,,,,,,,,,,,,,,,,,,,,,,,,,,,,,,,,,,,,,,,,,,,,,,,animal,137,75,silent,new,blue,1095.7300595999695,None,n,1095.7300595999695,None,"['n', 'return']","[1.8532850998453796, 1.9810204999521375]",1095.7300595999695,None,,,18,001,2023_Mar_06_1022,ExactRep-v3-final,2021.2.3,59.80492828944614,
,,,,,,,,,,,,75,0,75,0,,,,,,,,,,,,,,,,,,,,,,,,,,,,,,,,,,,,,,,,,,,,,,,,,1099.44032970001,None,,,,,,,,,,,,,,,,,,,,,,,,,,,,,,,,,,,,,,,,,,,,,,,,,,,,,,,,,butter,49,76,silent,old,blue,1098.26396809984,None,n,1098.26396809984,None,"['n', 'return']","[1.0312586000654846, 1.1432211000937968]",1098.26396809984,None,,,18,001,2023_Mar_06_1022,ExactRep-v3-final,2021.2.3,59.80492828944614,
,,,,,,,,,,,,76,0,76,0,,,,,,,,,,,,,,,,,,,,,,,,,,,,,,,,,,,,,,,,,,,,,,,,,1101.1585455997847,None,,,,,,,,,,,,,,,,,,,,,,,,,,,,,,,,,,,,,,,,,,,,,,,,,,,,,,,,,boy,209,77,sing,new,red,1099.9496616998222,None,n,1099.9496616998222,None,"['n', 'return']","[1.03367429994978, 1.1614411000628024]",1099.9496616998222,None,,,18,001,2023_Mar_06_1022,ExactRep-v3-final,2021.2.3,59.80492828944614,
,,,,,,,,,,,,77,0,77,0,,,,,,,,,,,,,,,,,,,,,,,,,,,,,,,,,,,,,,,,,,,,,,,,,1102.8601710998919,None,,,,,,,,,,,,,,,,,,,,,,,,,,,,,,,,,,,,,,,,,,,,,,,,,,,,,,,,,valley,29,78,sing,old,red,1101.670969299972,None,y,1101.670969299972,None,"['y', 'return']","[0.960131699917838, 1.1440363000147045]",1101.670969299972,None,,,18,001,2023_Mar_06_1022,ExactRep-v3-final,2021.2.3,59.80492828944614,
,,,,,,,,,,,,78,0,78,0,,,,,,,,,,,,,,,,,,,,,,,,,,,,,,,,,,,,,,,,,,,,,,,,,1104.2782383000012,None,,,,,,,,,,,,,,,,,,,,,,,,,,,,,,,,,,,,,,,,,,,,,,,,,,,,,,,,,glory,24,79,sing,old,red,1103.3718466998544,None,y,1103.3718466998544,None,"['y', 'return']","[0.6913147000595927, 0.8672901999671012]",1103.3718466998544,None,,,18,001,2023_Mar_06_1022,ExactRep-v3-final,2021.2.3,59.80492828944614,
,,,,,,,,,,,,79,0,79,0,,,,,,,,,,,,,,,,,,,,,,,,,,,,,,,,,,,,,,,,,,,,,,,,,1106.4137132999022,None,,,,,,,,,,,,,,,,,,,,,,,,,,,,,,,,,,,,,,,,,,,,,,,,,,,,,,,,,gift,27,80,sing,old,red,1104.792036099825,None,n,1104.792036099825,None,"['n', 'return']","[1.375042000086978, 1.575005599996075]",1104.792036099825,None,,,18,001,2023_Mar_06_1022,ExactRep-v3-final,2021.2.3,59.80492828944614,
,,,,,,,,,,,,80,0,80,0,,,,,,,,,,,,,,,,,,,,,,,,,,,,,,,,,,,,,,,,,,,,,,,,,1108.082042099908,None,,,,,,,,,,,,,,,,,,,,,,,,,,,,,,,,,,,,,,,,,,,,,,,,,,,,,,,,,thought,99,81,aloud,old,white,1106.928352799965,None,y,1106.928352799965,None,"['y', 'return']","[0.9026994002051651, 1.1187737002037466]",1106.928352799965,None,,,18,001,2023_Mar_06_1022,ExactRep-v3-final,2021.2.3,59.80492828944614,
,,,,,,,,,,,,81,0,81,0,,,,,,,,,,,,,,,,,,,,,,,,,,,,,,,,,,,,,,,,,,,,,,,,,1109.9341008998454,None,,,,,,,,,,,,,,,,,,,,,,,,,,,,,,,,,,,,,,,,,,,,,,,,,,,,,,,,,doll,151,82,silent,new,blue,1108.591774399858,None,n,1108.591774399858,None,"['n', 'return']","[1.159294999903068, 1.3034357998985797]",1108.591774399858,None,,,18,001,2023_Mar_06_1022,ExactRep-v3-final,2021.2.3,59.80492828944614,
,,,,,,,,,,,,82,0,82,0,,,,,,,,,,,,,,,,,,,,,,,,,,,,,,,,,,,,,,,,,,,,,,,,,1112.8032437998336,None,,,,,,,,,,,,,,,,,,,,,,,,,,,,,,,,,,,,,,,,,,,,,,,,,,,,,,,,,book,9,83,sing,old,red,1110.4429270999972,None,y,1110.4429270999972,None,"['y', 'return']","[2.156173299998045, 2.3160989000461996]",1110.4429270999972,None,,,18,001,2023_Mar_06_1022,ExactRep-v3-final,2021.2.3,59.80492828944614,
,,,,,,,,,,,,83,0,83,0,,,,,,,,,,,,,,,,,,,,,,,,,,,,,,,,,,,,,,,,,,,,,,,,,1114.6720498998184,None,,,,,,,,,,,,,,,,,,,,,,,,,,,,,,,,,,,,,,,,,,,,,,,,,,,,,,,,,machine,162,84,aloud,new,white,1113.3143501000013,None,y,1113.3143501000013,None,"['y', 'return']","[1.180782100185752, 1.3246184000745416]",1113.3143501000013,None,,,18,001,2023_Mar_06_1022,ExactRep-v3-final,2021.2.3,59.80492828944614,
,,,,,,,,,,,,84,0,84,0,,,,,,,,,,,,,,,,,,,,,,,,,,,,,,,,,,,,,,,,,,,,,,,,,1116.3735150999855,None,,,,,,,,,,,,,,,,,,,,,,,,,,,,,,,,,,,,,,,,,,,,,,,,,,,,,,,,,skin,113,85,aloud,old,white,1115.1825998998247,None,y,1115.1825998998247,None,"['y', 'return']","[0.9604693001601845, 1.144503700081259]",1115.1825998998247,None,,,18,001,2023_Mar_06_1022,ExactRep-v3-final,2021.2.3,59.80492828944614,
,,,,,,,,,,,,85,0,85,0,,,,,,,,,,,,,,,,,,,,,,,,,,,,,,,,,,,,,,,,,,,,,,,,,1121.0949706998654,None,,,,,,,,,,,,,,,,,,,,,,,,,,,,,,,,,,,,,,,,,,,,,,,,,,,,,,,,,chance,26,86,sing,old,red,1116.878169399919,None,n,1116.878169399919,None,"['n', 'return']","[2.976889600045979, 4.16903920006007]",1116.878169399919,None,,,18,001,2023_Mar_06_1022,ExactRep-v3-final,2021.2.3,59.80492828944614,
,,,,,,,,,,,,86,0,86,0,,,,,,,,,,,,,,,,,,,,,,,,,,,,,,,,,,,,,,,,,,,,,,,,,1124.1647994997911,None,,,,,,,,,,,,,,,,,,,,,,,,,,,,,,,,,,,,,,,,,,,,,,,,,,,,,,,,,quality,94,87,aloud,old,white,1121.6031371999998,None,n,1121.6031371999998,None,"['n', 'return']","[2.1721206998918205, 2.5239651000592858]",1121.6031371999998,None,,,18,001,2023_Mar_06_1022,ExactRep-v3-final,2021.2.3,59.80492828944614,
,,,,,,,,,,,,87,0,87,0,,,,,,,,,,,,,,,,,,,,,,,,,,,,,,,,,,,,,,,,,,,,,,,,,1125.766475699842,None,,,,,,,,,,,,,,,,,,,,,,,,,,,,,,,,,,,,,,,,,,,,,,,,,,,,,,,,,coin,189,88,sing,new,red,1124.6738171000034,None,n,1124.6738171000034,None,"['n', 'return']","[0.9333138999063522, 1.0533055998384953]",1124.6738171000034,None,,,18,001,2023_Mar_06_1022,ExactRep-v3-final,2021.2.3,59.80492828944614,
,,,,,,,,,,,,88,0,88,0,,,,,,,,,,,,,,,,,,,,,,,,,,,,,,,,,,,,,,,,,,,,,,,,,1127.868370699929,None,,,,,,,,,,,,,,,,,,,,,,,,,,,,,,,,,,,,,,,,,,,,,,,,,,,,,,,,,doctor,150,89,silent,new,blue,1126.2762566998135,None,n,1126.2762566998135,None,"['n', 'return']","[1.434952799929306, 1.5548768998123705]",1126.2762566998135,None,,,18,001,2023_Mar_06_1022,ExactRep-v3-final,2021.2.3,59.80492828944614,
,,,,,,,,,,,,89,0,89,0,,,,,,,,,,,,,,,,,,,,,,,,,,,,,,,,,,,,,,,,,,,,,,,,,1130.070779999951,None,,,,,,,,,,,,,,,,,,,,,,,,,,,,,,,,,,,,,,,,,,,,,,,,,,,,,,,,,iron,203,90,sing,new,red,1128.378752199933,None,n,1128.378752199933,None,"['n', 'return']","[1.532325099920854, 1.6443538998719305]",1128.378752199933,None,,,18,001,2023_Mar_06_1022,ExactRep-v3-final,2021.2.3,59.80492828944614,
,,,,,,,,,,,,90,0,90,0,,,,,,,,,,,,,,,,,,,,,,,,,,,,,,,,,,,,,,,,,,,,,,,,,1132.272966899909,None,,,,,,,,,,,,,,,,,,,,,,,,,,,,,,,,,,,,,,,,,,,,,,,,,,,,,,,,,dust,124,91,silent,new,blue,1130.5805312998127,None,y,1130.5805312998127,None,"['y', 'return']","[1.5144865999463946, 1.6585660998243839]",1130.5805312998127,None,,,18,001,2023_Mar_06_1022,ExactRep-v3-final,2021.2.3,59.80492828944614,
,,,,,,,,,,,,91,0,91,0,,,,,,,,,,,,,,,,,,,,,,,,,,,,,,,,,,,,,,,,,,,,,,,,,1133.8747600999195,None,,,,,,,,,,,,,,,,,,,,,,,,,,,,,,,,,,,,,,,,,,,,,,,,,,,,,,,,,dream,205,92,sing,new,red,1132.7829783998895,None,y,1132.7829783998895,None,"['y', 'return']","[0.928068800130859, 1.048054900020361]",1132.7829783998895,None,,,18,001,2023_Mar_06_1022,ExactRep-v3-final,2021.2.3,59.80492828944614,
,,,,,,,,,,,,92,0,92,0,,,,,,,,,,,,,,,,,,,,,,,,,,,,,,,,,,,,,,,,,,,,,,,,,1135.492776799947,None,,,,,,,,,,,,,,,,,,,,,,,,,,,,,,,,,,,,,,,,,,,,,,,,,,,,,,,,,forest,101,93,aloud,old,white,1134.3845014998224,None,y,1134.3845014998224,None,"['y', 'return']","[0.9506341000087559, 1.0627105000894517]",1134.3845014998224,None,,,18,001,2023_Mar_06_1022,ExactRep-v3-final,2021.2.3,59.80492828944614,
,,,,,,,,,,,,93,0,93,0,,,,,,,,,,,,,,,,,,,,,,,,,,,,,,,,,,,,,,,,,,,,,,,,,1139.4467391998041,None,,,,,,,,,,,,,,,,,,,,,,,,,,,,,,,,,,,,,,,,,,,,,,,,,,,,,,,,,cottage,163,94,sing,new,red,1135.9994372997899,None,n,1135.9994372997899,None,"['n', 'return']","[2.919764499878511, 3.407676599919796]",1135.9994372997899,None,,,18,001,2023_Mar_06_1022,ExactRep-v3-final,2021.2.3,59.80492828944614,
,,,,,,,,,,,,94,0,94,0,,,,,,,,,,,,,,,,,,,,,,,,,,,,,,,,,,,,,,,,,,,,,,,,,1141.4155057999305,None,,,,,,,,,,,,,,,,,,,,,,,,,,,,,,,,,,,,,,,,,,,,,,,,,,,,,,,,,history,188,95,aloud,new,white,1139.95773249981,None,n,1139.95773249981,None,"['n', 'return']","[1.361708999844268, 1.4253744999878109]",1139.95773249981,None,,,18,001,2023_Mar_06_1022,ExactRep-v3-final,2021.2.3,59.80492828944614,
,,,,,,,,,,,,95,0,95,0,,,,,,,,,,,,,,,,,,,,,,,,,,,,,,,,,,,,,,,,,,,,,,,,,1142.868075599894,None,,,,,,,,,,,,,,,,,,,,,,,,,,,,,,,,,,,,,,,,,,,,,,,,,,,,,,,,,garden,96,96,aloud,old,white,1141.9251503997948,None,y,1141.9251503997948,None,"['y', 'return']","[0.8020945999305695, 0.8978907999116927]",1141.9251503997948,None,,,18,001,2023_Mar_06_1022,ExactRep-v3-final,2021.2.3,59.80492828944614,
,,,,,,,,,,,,96,0,96,0,,,,,,,,,,,,,,,,,,,,,,,,,,,,,,,,,,,,,,,,,,,,,,,,,1144.3849141998217,None,,,,,,,,,,,,,,,,,,,,,,,,,,,,,,,,,,,,,,,,,,,,,,,,,,,,,,,,,rock,102,97,aloud,old,white,1143.3781947998796,None,n,1143.3781947998796,None,"['n', 'return']","[0.932897699996829, 0.9651329999323934]",1143.3781947998796,None,,,18,001,2023_Mar_06_1022,ExactRep-v3-final,2021.2.3,59.80492828944614,
,,,,,,,,,,,,97,0,97,0,,,,,,,,,,,,,,,,,,,,,,,,,,,,,,,,,,,,,,,,,,,,,,,,,1148.605868899962,None,,,,,,,,,,,,,,,,,,,,,,,,,,,,,,,,,,,,,,,,,,,,,,,,,,,,,,,,,dawn,112,98,aloud,old,white,1144.8924755998887,None,n,1144.8924755998887,None,"['n', 'return']","[3.5785360999871045, 3.6666498000267893]",1144.8924755998887,None,,,18,001,2023_Mar_06_1022,ExactRep-v3-final,2021.2.3,59.80492828944614,
,,,,,,,,,,,,98,0,98,0,,,,,,,,,,,,,,,,,,,,,,,,,,,,,,,,,,,,,,,,,,,,,,,,,1151.2587602999993,None,,,,,,,,,,,,,,,,,,,,,,,,,,,,,,,,,,,,,,,,,,,,,,,,,,,,,,,,,health,173,99,sing,new,red,1149.1163490999024,None,y,1149.1163490999024,None,"['y', 'return']","[1.978732499992475, 2.0987716999370605]",1149.1163490999024,None,,,18,001,2023_Mar_06_1022,ExactRep-v3-final,2021.2.3,59.80492828944614,
,,,,,,,,,,,,99,0,99,0,,,,,,,,,,,,,,,,,,,,,,,,,,,,,,,,,,,,,,,,,,,,,,,,,1152.7767116997857,None,,,,,,,,,,,,,,,,,,,,,,,,,,,,,,,,,,,,,,,,,,,,,,,,,,,,,,,,,chief,28,100,sing,old,red,1151.7681948998943,None,y,1151.7681948998943,None,"['y', 'return']","[0.8790323999710381, 0.9748943999875337]",1151.7681948998943,None,,,18,001,2023_Mar_06_1022,ExactRep-v3-final,2021.2.3,59.80492828944614,
,,,,,,,,,,,,100,0,100,0,,,,,,,,,,,,,,,,,,,,,,,,,,,,,,,,,,,,,,,,,,,,,,,,,1154.2449483999517,None,,,,,,,,,,,,,,,,,,,,,,,,,,,,,,,,,,,,,,,,,,,,,,,,,,,,,,,,,life,182,101,aloud,new,white,1153.284885799978,None,y,1153.284885799978,None,"['y', 'return']","[0.8182814999017864, 0.9223424999509007]",1153.284885799978,None,,,18,001,2023_Mar_06_1022,ExactRep-v3-final,2021.2.3,59.80492828944614,
,,,,,,,,,,,,101,0,101,0,,,,,,,,,,,,,,,,,,,,,,,,,,,,,,,,,,,,,,,,,,,,,,,,,1155.7296985997818,None,,,,,,,,,,,,,,,,,,,,,,,,,,,,,,,,,,,,,,,,,,,,,,,,,,,,,,,,,party,210,102,aloud,new,white,1154.7544775998686,None,n,1154.7544775998686,None,"['n', 'return']","[0.8686824000906199, 0.940605100011453]",1154.7544775998686,None,,,18,001,2023_Mar_06_1022,ExactRep-v3-final,2021.2.3,59.80492828944614,
,,,,,,,,,,,,102,0,102,0,,,,,,,,,,,,,,,,,,,,,,,,,,,,,,,,,,,,,,,,,,,,,,,,,1159.1664422999602,None,,,,,,,,,,,,,,,,,,,,,,,,,,,,,,,,,,,,,,,,,,,,,,,,,,,,,,,,,moment,196,103,aloud,new,white,1156.2420032999944,None,n,1156.2420032999944,None,"['n', 'return']","[2.8130772998556495, 2.885116499848664]",1156.2420032999944,None,,,18,001,2023_Mar_06_1022,ExactRep-v3-final,2021.2.3,59.80492828944614,
,,,,,,,,,,,,103,0,103,0,,,,,,,,,,,,,,,,,,,,,,,,,,,,,,,,,,,,,,,,,,,,,,,,,1160.918197099818,None,,,,,,,,,,,,,,,,,,,,,,,,,,,,,,,,,,,,,,,,,,,,,,,,,,,,,,,,,trouble,123,104,silent,new,blue,1159.6681537998375,None,y,1159.6681537998375,None,"['y', 'return']","[1.0509792000520974, 1.2110075000673532]",1159.6681537998375,None,,,18,001,2023_Mar_06_1022,ExactRep-v3-final,2021.2.3,59.80492828944614,
,,,,,,,,,,,,104,0,104,0,,,,,,,,,,,,,,,,,,,,,,,,,,,,,,,,,,,,,,,,,,,,,,,,,1162.686869099969,None,,,,,,,,,,,,,,,,,,,,,,,,,,,,,,,,,,,,,,,,,,,,,,,,,,,,,,,,,dress,64,105,silent,old,blue,1161.426531399833,None,n,1161.426531399833,None,"['n', 'return']","[1.0848012000788003, 1.2209594999440014]",1161.426531399833,None,,,18,001,2023_Mar_06_1022,ExactRep-v3-final,2021.2.3,59.80492828944614,
,,,,,,,,,,,,105,0,105,0,,,,,,,,,,,,,,,,,,,,,,,,,,,,,,,,,,,,,,,,,,,,,,,,,1165.5563548998907,None,,,,,,,,,,,,,,,,,,,,,,,,,,,,,,,,,,,,,,,,,,,,,,,,,,,,,,,,,origin,82,106,aloud,old,white,1163.1950825999957,None,y,1163.1950825999957,None,"['y', 'return']","[2.2282688999548554, 2.315924399998039]",1163.1950825999957,None,,,18,001,2023_Mar_06_1022,ExactRep-v3-final,2021.2.3,59.80492828944614,
,,,,,,,,,,,,106,0,106,0,,,,,,,,,,,,,,,,,,,,,,,,,,,,,,,,,,,,,,,,,,,,,,,,,1168.6592194999103,None,,,,,,,,,,,,,,,,,,,,,,,,,,,,,,,,,,,,,,,,,,,,,,,,,,,,,,,,,prayer,23,107,sing,old,red,1166.065740799997,None,n,1166.065740799997,None,"['n', 'return']","[2.46939849993214, 2.549332099966705]",1166.065740799997,None,,,18,001,2023_Mar_06_1022,ExactRep-v3-final,2021.2.3,59.80492828944614,
,,,,,,,,,,,,107,0,107,0,,,,,,,,,,,,,,,,,,,,,,,,,,,,,,,,,,,,,,,,,,,,,,,,,1170.2443416998722,None,,,,,,,,,,,,,,,,,,,,,,,,,,,,,,,,,,,,,,,,,,,,,,,,,,,,,,,,,army,105,108,aloud,old,white,1169.1669985998888,None,y,1169.1669985998888,None,"['y', 'return']","[0.960204100003466, 1.0402158999349922]",1169.1669985998888,None,,,18,001,2023_Mar_06_1022,ExactRep-v3-final,2021.2.3,59.80492828944614,
,,,,,,,,,,,,108,0,108,0,,,,,,,,,,,,,,,,,,,,,,,,,,,,,,,,,,,,,,,,,,,,,,,,,1171.9790911998134,None,,,,,,,,,,,,,,,,,,,,,,,,,,,,,,,,,,,,,,,,,,,,,,,,,,,,,,,,,woman,164,109,aloud,new,white,1170.7513275998645,None,n,1170.7513275998645,None,"['n', 'return']","[1.1200536000542343, 1.1918993000872433]",1170.7513275998645,None,,,18,001,2023_Mar_06_1022,ExactRep-v3-final,2021.2.3,59.80492828944614,
,,,,,,,,,,,,109,0,109,0,,,,,,,,,,,,,,,,,,,,,,,,,,,,,,,,,,,,,,,,,,,,,,,,,1173.74771409994,None,,,,,,,,,,,,,,,,,,,,,,,,,,,,,,,,,,,,,,,,,,,,,,,,,,,,,,,,,pupil,144,110,silent,new,blue,1172.4894063998945,None,n,1172.4894063998945,None,"['n', 'return']","[1.1098950000014156, 1.2136374001856893]",1172.4894063998945,None,,,18,001,2023_Mar_06_1022,ExactRep-v3-final,2021.2.3,59.80492828944614,
,,,,,,,,,,,,110,0,110,0,,,,,,,,,,,,,,,,,,,,,,,,,,,,,,,,,,,,,,,,,,,,,,,,,1176.4669822999276,None,,,,,,,,,,,,,,,,,,,,,,,,,,,,,,,,,,,,,,,,,,,,,,,,,,,,,,,,,window,166,111,aloud,new,white,1174.2609457999934,None,y,1174.2609457999934,None,"['y', 'return']","[2.0982660001609474, 2.170246100053191]",1174.2609457999934,None,,,18,001,2023_Mar_06_1022,ExactRep-v3-final,2021.2.3,59.80492828944614,
,,,,,,,,,,,,111,0,111,0,,,,,,,,,,,,,,,,,,,,,,,,,,,,,,,,,,,,,,,,,,,,,,,,,1179.0531459997874,None,,,,,,,,,,,,,,,,,,,,,,,,,,,,,,,,,,,,,,,,,,,,,,,,,,,,,,,,,coast,33,112,sing,old,red,1176.9789907999802,None,n,1176.9789907999802,None,"['n', 'return']","[1.9561745999380946, 2.028217100072652]",1176.9789907999802,None,,,18,001,2023_Mar_06_1022,ExactRep-v3-final,2021.2.3,59.80492828944614,
,,,,,,,,,,,,112,0,112,0,,,,,,,,,,,,,,,,,,,,,,,,,,,,,,,,,,,,,,,,,,,,,,,,,1180.8382332997862,None,,,,,,,,,,,,,,,,,,,,,,,,,,,,,,,,,,,,,,,,,,,,,,,,,,,,,,,,,shoes,238,113,aloud,new,white,1179.5644264000002,None,n,1179.5644264000002,None,"['n', 'return']","[1.170683200005442, 1.234785299981013]",1179.5644264000002,None,,,18,001,2023_Mar_06_1022,ExactRep-v3-final,2021.2.3,59.80492828944614,
,,,,,,,,,,,,113,0,113,0,,,,,,,,,,,,,,,,,,,,,,,,,,,,,,,,,,,,,,,,,,,,,,,,,1184.0411419998854,None,,,,,,,,,,,,,,,,,,,,,,,,,,,,,,,,,,,,,,,,,,,,,,,,,,,,,,,,,salary,216,114,aloud,new,white,1181.3445005998947,None,n,1181.3445005998947,None,"['n', 'return']","[2.582592200022191, 2.6546464001294225]",1181.3445005998947,None,,,18,001,2023_Mar_06_1022,ExactRep-v3-final,2021.2.3,59.80492828944614,
,,,,,,,,,,,,114,0,114,0,,,,,,,,,,,,,,,,,,,,,,,,,,,,,,,,,,,,,,,,,,,,,,,,,1185.7932465998456,None,,,,,,,,,,,,,,,,,,,,,,,,,,,,,,,,,,,,,,,,,,,,,,,,,,,,,,,,,queen,54,115,silent,old,blue,1184.5496910999063,None,y,1184.5496910999063,None,"['y', 'return']","[1.0816496999468654, 1.2014625000301749]",1184.5496910999063,None,,,18,001,2023_Mar_06_1022,ExactRep-v3-final,2021.2.3,59.80492828944614,
,,,,,,,,,,,,115,0,115,0,,,,,,,,,,,,,,,,,,,,,,,,,,,,,,,,,,,,,,,,,,,,,,,,,1187.8118080999702,None,,,,,,,,,,,,,,,,,,,,,,,,,,,,,,,,,,,,,,,,,,,,,,,,,,,,,,,,,teacher,19,116,sing,old,red,1186.3040739998687,None,y,1186.3040739998687,None,"['y', 'return']","[1.3350480999797583, 1.463000499876216]",1186.3040739998687,None,,,18,001,2023_Mar_06_1022,ExactRep-v3-final,2021.2.3,59.80492828944614,
,,,,,,,,,,,,116,0,116,0,,,,,,,,,,,,,,,,,,,,,,,,,,,,,,,,,,,,,,,,,,,,,,,,,1189.6134662998375,None,,,,,,,,,,,,,,,,,,,,,,,,,,,,,,,,,,,,,,,,,,,,,,,,,,,,,,,,,plain,111,117,aloud,old,white,1188.3205516999587,None,n,1188.3205516999587,None,"['n', 'return']","[1.0866795000620186, 1.2466114000417292]",1188.3205516999587,None,,,18,001,2023_Mar_06_1022,ExactRep-v3-final,2021.2.3,59.80492828944614,
,,,,,,,,,,,,117,0,117,0,,,,,,,,,,,,,,,,,,,,,,,,,,,,,,,,,,,,,,,,,,,,,,,,,1192.3830023999326,None,,,,,,,,,,,,,,,,,,,,,,,,,,,,,,,,,,,,,,,,,,,,,,,,,,,,,,,,,journal,136,118,silent,new,blue,1190.1204253998585,None,n,1190.1204253998585,None,"['n', 'return']","[1.7987774999346584, 2.22275419998914]",1190.1204253998585,None,,,18,001,2023_Mar_06_1022,ExactRep-v3-final,2021.2.3,59.80492828944614,
,,,,,,,,,,,,118,0,118,0,,,,,,,,,,,,,,,,,,,,,,,,,,,,,,,,,,,,,,,,,,,,,,,,,1194.4853761999402,None,,,,,,,,,,,,,,,,,,,,,,,,,,,,,,,,,,,,,,,,,,,,,,,,,,,,,,,,,present,86,119,aloud,old,white,1192.8962760998402,None,y,1192.8962760998402,None,"['y', 'return']","[1.3910591001622379, 1.550998300081119]",1192.8962760998402,None,,,18,001,2023_Mar_06_1022,ExactRep-v3-final,2021.2.3,59.80492828944614,
,,,,,,,,,,,,119,0,119,0,,,,,,,,,,,,,,,,,,,,,,,,,,,,,,,,,,,,,,,,,,,,,,,,,1196.2202682998031,None,,,,,,,,,,,,,,,,,,,,,,,,,,,,,,,,,,,,,,,,,,,,,,,,,,,,,,,,,death,97,120,aloud,old,white,1194.9947794999462,None,y,1194.9947794999462,None,"['y', 'return']","[0.8124488000757992, 1.1804013999644667]",1194.9947794999462,None,,,18,001,2023_Mar_06_1022,ExactRep-v3-final,2021.2.3,59.80492828944614,
,,,,,,,,,,,,120,0,120,0,,,,,,,,,,,,,,,,,,,,,,,,,,,,,,,,,,,,,,,,,,,,,,,,,1197.9385845998768,None,,,,,,,,,,,,,,,,,,,,,,,,,,,,,,,,,,,,,,,,,,,,,,,,,,,,,,,,,steam,180,121,aloud,new,white,1196.7326403998304,None,y,1196.7326403998304,None,"['y', 'return']","[1.098647499922663, 1.1706805999856442]",1196.7326403998304,None,,,18,001,2023_Mar_06_1022,ExactRep-v3-final,2021.2.3,59.80492828944614,
,,,,,,,,,,,,121,0,121,0,,,,,,,,,,,,,,,,,,,,,,,,,,,,,,,,,,,,,,,,,,,,,,,,,1200.4077146998607,None,,,,,,,,,,,,,,,,,,,,,,,,,,,,,,,,,,,,,,,,,,,,,,,,,,,,,,,,,rod,115,122,aloud,old,white,1198.4492865998764,None,y,1198.4492865998764,None,"['y', 'return']","[0.7259472999721766, 1.9258516000118107]",1198.4492865998764,None,,,18,001,2023_Mar_06_1022,ExactRep-v3-final,2021.2.3,59.80492828944614,
,,,,,,,,,,,,122,0,122,0,,,,,,,,,,,,,,,,,,,,,,,,,,,,,,,,,,,,,,,,,,,,,,,,,1202.0093140997924,None,,,,,,,,,,,,,,,,,,,,,,,,,,,,,,,,,,,,,,,,,,,,,,,,,,,,,,,,,picture,90,123,aloud,old,white,1200.9185237998608,None,y,1200.9185237998608,None,"['y', 'return']","[0.9686266998760402, 1.056606899946928]",1200.9185237998608,None,,,18,001,2023_Mar_06_1022,ExactRep-v3-final,2021.2.3,59.80492828944614,
,,,,,,,,,,,,123,0,123,0,,,,,,,,,,,,,,,,,,,,,,,,,,,,,,,,,,,,,,,,,,,,,,,,,1203.660880799871,None,,,,,,,,,,,,,,,,,,,,,,,,,,,,,,,,,,,,,,,,,,,,,,,,,,,,,,,,,grief,52,124,silent,old,blue,1202.5177654998843,None,y,1202.5177654998843,None,"['y', 'return']","[0.9294694000855088, 1.0976024998817593]",1202.5177654998843,None,,,18,001,2023_Mar_06_1022,ExactRep-v3-final,2021.2.3,59.80492828944614,
,,,,,,,,,,,,124,0,124,0,,,,,,,,,,,,,,,,,,,,,,,,,,,,,,,,,,,,,,,,,,,,,,,,,1205.612959699938,None,,,,,,,,,,,,,,,,,,,,,,,,,,,,,,,,,,,,,,,,,,,,,,,,,,,,,,,,,bar,226,125,aloud,new,white,1204.169648999814,None,n,1204.169648999814,None,"['n', 'return']","[1.285589799983427, 1.39766740007326]",1204.169648999814,None,,,18,001,2023_Mar_06_1022,ExactRep-v3-final,2021.2.3,59.80492828944614,
,,,,,,,,,,,,125,0,125,0,,,,,,,,,,,,,,,,,,,,,,,,,,,,,,,,,,,,,,,,,,,,,,,,,1207.4148988998495,None,,,,,,,,,,,,,,,,,,,,,,,,,,,,,,,,,,,,,,,,,,,,,,,,,,,,,,,,,arm,149,126,silent,new,blue,1206.1225650999695,None,n,1206.1225650999695,None,"['n', 'return']","[1.140758000081405, 1.2526412999723107]",1206.1225650999695,None,,,18,001,2023_Mar_06_1022,ExactRep-v3-final,2021.2.3,59.80492828944614,
,,,,,,,,,,,,126,0,126,0,,,,,,,,,,,,,,,,,,,,,,,,,,,,,,,,,,,,,,,,,,,,,,,,,1209.9005444999784,None,,,,,,,,,,,,,,,,,,,,,,,,,,,,,,,,,,,,,,,,,,,,,,,,,,,,,,,,,officer,211,127,sing,new,red,1207.9161857999861,None,y,1207.9161857999861,None,"['y', 'return']","[0.8511183999944478, 1.9470303999260068]",1207.9161857999861,None,,,18,001,2023_Mar_06_1022,ExactRep-v3-final,2021.2.3,59.80492828944614,
,,,,,,,,,,,,127,0,127,0,,,,,,,,,,,,,,,,,,,,,,,,,,,,,,,,,,,,,,,,,,,,,,,,,1212.152740799822,None,,,,,,,,,,,,,,,,,,,,,,,,,,,,,,,,,,,,,,,,,,,,,,,,,,,,,,,,,ability,170,128,aloud,new,white,1210.4101446999703,None,y,1210.4101446999703,None,"['y', 'return']","[1.5090254000388086, 1.70102580008097]",1210.4101446999703,None,,,18,001,2023_Mar_06_1022,ExactRep-v3-final,2021.2.3,59.80492828944614,
,,,,,,,,,,,,128,0,128,0,,,,,,,,,,,,,,,,,,,,,,,,,,,,,,,,,,,,,,,,,,,,,,,,,1213.5708541998174,None,,,,,,,,,,,,,,,,,,,,,,,,,,,,,,,,,,,,,,,,,,,,,,,,,,,,,,,,,blossom,125,129,silent,new,blue,1212.6654874999076,None,y,1212.6654874999076,None,"['y', 'return']","[0.7177197998389602, 0.8699284999165684]",1212.6654874999076,None,,,18,001,2023_Mar_06_1022,ExactRep-v3-final,2021.2.3,59.80492828944614,
,,,,,,,,,,,,129,0,129,0,,,,,,,,,,,,,,,,,,,,,,,,,,,,,,,,,,,,,,,,,,,,,,,,,1215.5561852999963,None,,,,,,,,,,,,,,,,,,,,,,,,,,,,,,,,,,,,,,,,,,,,,,,,,,,,,,,,,cattle,108,130,aloud,old,white,1214.0818432997912,None,n,1214.0818432997912,None,"['n', 'return']","[1.3655075000133365, 1.4374921000562608]",1214.0818432997912,None,,,18,001,2023_Mar_06_1022,ExactRep-v3-final,2021.2.3,59.80492828944614,
,,,,,,,,,,,,130,0,130,0,,,,,,,,,,,,,,,,,,,,,,,,,,,,,,,,,,,,,,,,,,,,,,,,,1217.3414739998989,None,,,,,,,,,,,,,,,,,,,,,,,,,,,,,,,,,,,,,,,,,,,,,,,,,,,,,,,,,sugar,206,131,aloud,new,white,1216.0658847999293,None,n,1216.0658847999293,None,"['n', 'return']","[1.165365600027144, 1.2293010000139475]",1216.0658847999293,None,,,18,001,2023_Mar_06_1022,ExactRep-v3-final,2021.2.3,59.80492828944614,
,,,,,,,,,,,,131,0,131,0,,,,,,,,,,,,,,,,,,,,,,,,,,,,,,,,,,,,,,,,,,,,,,,,,1219.1764839999378,None,,,,,,,,,,,,,,,,,,,,,,,,,,,,,,,,,,,,,,,,,,,,,,,,,,,,,,,,,beast,185,132,sing,new,red,1217.851144899847,None,y,1217.851144899847,None,"['y', 'return']","[1.1961393000092357, 1.2920695999637246]",1217.851144899847,None,,,18,001,2023_Mar_06_1022,ExactRep-v3-final,2021.2.3,59.80492828944614,
,,,,,,,,,,,,132,0,132,0,,,,,,,,,,,,,,,,,,,,,,,,,,,,,,,,,,,,,,,,,,,,,,,,,1221.5121645999607,None,,,,,,,,,,,,,,,,,,,,,,,,,,,,,,,,,,,,,,,,,,,,,,,,,,,,,,,,,chair,45,133,silent,old,blue,1219.693249200005,None,n,1219.693249200005,None,"['n', 'return']","[1.706181899877265, 1.7779461001046002]",1219.693249200005,None,,,18,001,2023_Mar_06_1022,ExactRep-v3-final,2021.2.3,59.80492828944614,
