trials_fam.thisRepN,trials_fam.thisTrialN,trials_fam.thisN,trials_fam.thisIndex,trials_prc.thisRepN,trials_prc.thisTrialN,trials_prc.thisN,trials_prc.thisIndex,StudyLoop.thisRepN,StudyLoop.thisTrialN,StudyLoop.thisN,StudyLoop.thisIndex,TestLoop.thisRepN,TestLoop.thisTrialN,TestLoop.thisN,TestLoop.thisIndex,text_colortest.started,text_colortest.stopped,key_colortest.keys,key_colortest.rt,key_colortest.started,key_colortest.stopped,textCondition.started,textCondition.stopped,keyCondition.keys,keyCondition.rt,keyCondition.started,keyCondition.stopped,Condition_between,Condition_counterbal,keyWelcome.keys,keyWelcome.rt,keyWelcome.started,keyWelcome.stopped,welcome_a.started,welcome_a.stopped,welcome_b.started,welcome_b.stopped,welcome_c.started,welcome_c.stopped,welcome_d.started,welcome_d.stopped,welcome_e.started,welcome_e.stopped,welcome_f.started,welcome_f.stopped,key_resp_fam_inst.keys,key_resp_fam_inst.rt,key_resp_fam_inst.started,key_resp_fam_inst.stopped,fam_a.started,fam_a.stopped,fam_b.started,fam_b.stopped,fam_c.started,fam_c.stopped,fam_d.started,fam_d.stopped,fam_e.started,fam_e.stopped,fam_f.started,fam_f.stopped,text_famil.started,text_famil.stopped,textBlank500.started,textBlank500.stopped,key_resp_prc_inst.keys,key_resp_prc_inst.rt,key_resp_prc_inst.started,key_resp_prc_inst.stopped,prac_a.started,prac_a.stopped,prac_b.started,prac_b.stopped,prac_c.started,prac_c.stopped,prac_d.started,prac_d.stopped,prac_e.started,prac_e.stopped,prac_f.started,prac_f.stopped,text_prc_trial.started,text_prc_trial.stopped,key_resp_study_inst.keys,key_resp_study_inst.rt,key_resp_study_inst.started,key_resp_study_inst.stopped,crit_a.started,crit_a.stopped,crit_b.started,crit_b.stopped,crit_c.started,crit_c.stopped,crit_d.started,crit_d.stopped,crit_e.started,crit_e.stopped,crit_f.started,crit_f.stopped,study_word,study_num,study_order,study_type,word_color,textStudy.started,textStudy.stopped,keyStudy.keys,keyStudy.started,keyStudy.stopped,post_study.started,post_study.stopped,key_resp_post_study.keys,key_resp_post_study.rt,key_resp_post_study.started,key_resp_post_study.stopped,test_inst.started,test_inst.stopped,key_resp_test_inst.keys,key_resp_test_inst.rt,key_resp_test_inst.started,key_resp_test_inst.stopped,test_word,test_num,test_order,test_condition,old_new_test,word_color_test,textConf.started,textConf.stopped,Participant Response,textInput.started,textInput.stopped,keyResp.keys,keyResp.rt,keyResp.started,keyResp.stopped,textEnd.started,textEnd.stopped,participant,session,date,expName,psychopyVersion,frameRate,
,,,,,,,,,,,,,,,,20.917474300134927,None,n,0.6763294001575559,20.917474300134927,None,,,,,,,,,,,,,,,,,,,,,,,,,,,,,,,,,,,,,,,,,,,,,,,,,,,,,,,,,,,,,,,,,,,,,,,,,,,,,,,,,,,,,,,,,,,,,,,,,,,,,,,,,,,,,,,,,,,,,,19,001,2023_Mar_08_0947,ExactRep-v3-final,2021.2.3,59.85221290540454,
,,,,,,,,,,,,,,,,,,,,,,21.61896420014091,None,a,0.551231199875474,21.61896420014091,None,,,,,,,,,,,,,,,,,,,,,,,,,,,,,,,,,,,,,,,,,,,,,,,,,,,,,,,,,,,,,,,,,,,,,,,,,,,,,,,,,,,,,,,,,,,,,,,,,,,,,,,,,,,,,,,,19,001,2023_Mar_08_0947,ExactRep-v3-final,2021.2.3,59.85221290540454,
,,,,,,,,,,,,,,,,,,,,,,,,,,,,whitefoils,a,space,1214.9003479999956,32.31053899996914,None,,,,,,,,,,,,,,,,,,,,,,,,,,,,,,,,,,,,,,,,,,,,,,,,,,,,,,,,,,,,,,,,,,,,,,,,,,,,,,,,,,,,,,,,,,,,,,,,,,,,,,,,,,19,001,2023_Mar_08_0947,ExactRep-v3-final,2021.2.3,59.85221290540454,
,,,,,,,,,,,,,,,,,,,,,,,,,,,,,,,,,,22.365150700090453,None,22.365150700090453,None,22.365150700090453,None,22.365150700090453,None,22.365150700090453,None,22.365150700090453,None,space,30.64745689998381,1257.3954559999984,None,,,,,,,,,,,,,,,,,,,,,,,,,,,,,,,,,,,,,,,,,,,,,,,,,,,,,,,,,,,,,,,,,,,,,,,,,,,,,,,,,,,,,,,,,,19,001,2023_Mar_08_0947,ExactRep-v3-final,2021.2.3,59.85221290540454,
0,0,0,0,,,,,,,,,,,,,,,,,,,,,,,,,,,,,,,,,,,,,,,,,,,,,,,1247.4083003001288,None,1247.4083003001288,None,1247.4083003001288,None,1247.4083003001288,None,1247.4083003001288,None,1247.4083003001288,None,1288.1685206000693,None,1290.1544294999912,None,,,,,,,,,,,,,,,,,,,,,,,,,,,,,,,,,,,,,,,,,,,,,,,,,,,,,,,,,,,,,,,,,,,,,,,,,,19,001,2023_Mar_08_0947,ExactRep-v3-final,2021.2.3,59.85221290540454,
1,0,1,0,,,,,,,,,,,,,,,,,,,,,,,,,,,,,,,,,,,,,,,,,,,,,,,,,,,,,,,,,,,1290.6654340000823,None,1292.6736016001087,None,,,,,,,,,,,,,,,,,,,,,,,,,,,,,,,,,,,,,,,,,,,,,,,,,,,,,,,,,,,,,,,,,,,,,,,,,,19,001,2023_Mar_08_0947,ExactRep-v3-final,2021.2.3,59.85221290540454,
2,0,2,0,,,,,,,,,,,,,,,,,,,,,,,,,,,,,,,,,,,,,,,,,,,,,,,,,,,,,,,,,,,1293.173967299983,None,1295.176112400135,None,,,,,,,,,,,,,,,,,,,,,,,,,,,,,,,,,,,,,,,,,,,,,,,,,,,,,,,,,,,,,,,,,,,,,,,,,,19,001,2023_Mar_08_0947,ExactRep-v3-final,2021.2.3,59.85221290540454,
3,0,3,0,,,,,,,,,,,,,,,,,,,,,,,,,,,,,,,,,,,,,,,,,,,,,,,,,,,,,,,,,,,1295.6784720001742,None,1297.6783288000152,None,,,,,,,,,,,,,,,,,,,,,,,,,,,,,,,,,,,,,,,,,,,,,,,,,,,,,,,,,,,,,,,,,,,,,,,,,,19,001,2023_Mar_08_0947,ExactRep-v3-final,2021.2.3,59.85221290540454,
4,0,4,0,,,,,,,,,,,,,,,,,,,,,,,,,,,,,,,,,,,,,,,,,,,,,,,,,,,,,,,,,,,1298.1886345001403,None,1300.197842700174,None,,,,,,,,,,,,,,,,,,,,,,,,,,,,,,,,,,,,,,,,,,,,,,,,,,,,,,,,,,,,,,,,,,,,,,,,,,19,001,2023_Mar_08_0947,ExactRep-v3-final,2021.2.3,59.85221290540454,
5,0,5,0,,,,,,,,,,,,,,,,,,,,,,,,,,,,,,,,,,,,,,,,,,,,,,,,,,,,,,,,,,,1300.6981642001774,None,1302.7002570000477,None,,,,,,,,,,,,,,,,,,,,,,,,,,,,,,,,,,,,,,,,,,,,,,,,,,,,,,,,,,,,,,,,,,,,,,,,,,19,001,2023_Mar_08_0947,ExactRep-v3-final,2021.2.3,59.85221290540454,
6,0,6,0,,,,,,,,,,,,,,,,,,,,,,,,,,,,,,,,,,,,,,,,,,,,,,,,,,,,,,,,,,,1303.2006475999951,None,1305.2028760001995,None,,,,,,,,,,,,,,,,,,,,,,,,,,,,,,,,,,,,,,,,,,,,,,,,,,,,,,,,,,,,,,,,,,,,,,,,,,19,001,2023_Mar_08_0947,ExactRep-v3-final,2021.2.3,59.85221290540454,
7,0,7,0,,,,,,,,,,,,,,,,,,,,,,,,,,,,,,,,,,,,,,,,,,,,,,,,,,,,,,,,,,,1305.708858099999,None,1307.7220658001024,None,,,,,,,,,,,,,,,,,,,,,,,,,,,,,,,,,,,,,,,,,,,,,,,,,,,,,,,,,,,,,,,,,,,,,,,,,,19,001,2023_Mar_08_0947,ExactRep-v3-final,2021.2.3,59.85221290540454,
8,0,8,0,,,,,,,,,,,,,,,,,,,,,,,,,,,,,,,,,,,,,,,,,,,,,,,,,,,,,,,,,,,1308.2239499001298,None,1310.2243535001762,None,,,,,,,,,,,,,,,,,,,,,,,,,,,,,,,,,,,,,,,,,,,,,,,,,,,,,,,,,,,,,,,,,,,,,,,,,,19,001,2023_Mar_08_0947,ExactRep-v3-final,2021.2.3,59.85221290540454,
9,0,9,0,,,,,,,,,,,,,,,,,,,,,,,,,,,,,,,,,,,,,,,,,,,,,,,,,,,,,,,,,,,1310.7272706001531,None,1312.727024700027,None,,,,,,,,,,,,,,,,,,,,,,,,,,,,,,,,,,,,,,,,,,,,,,,,,,,,,,,,,,,,,,,,,,,,,,,,,,19,001,2023_Mar_08_0947,ExactRep-v3-final,2021.2.3,59.85221290540454,
10,0,10,0,,,,,,,,,,,,,,,,,,,,,,,,,,,,,,,,,,,,,,,,,,,,,,,,,,,,,,,,,,,1313.2297893001232,None,1315.2295832000673,None,,,,,,,,,,,,,,,,,,,,,,,,,,,,,,,,,,,,,,,,,,,,,,,,,,,,,,,,,,,,,,,,,,,,,,,,,,19,001,2023_Mar_08_0947,ExactRep-v3-final,2021.2.3,59.85221290540454,
11,0,11,0,,,,,,,,,,,,,,,,,,,,,,,,,,,,,,,,,,,,,,,,,,,,,,,,,,,,,,,,,,,1315.7302052001469,None,1317.7320638000965,None,,,,,,,,,,,,,,,,,,,,,,,,,,,,,,,,,,,,,,,,,,,,,,,,,,,,,,,,,,,,,,,,,,,,,,,,,,19,001,2023_Mar_08_0947,ExactRep-v3-final,2021.2.3,59.85221290540454,
12,0,12,0,,,,,,,,,,,,,,,,,,,,,,,,,,,,,,,,,,,,,,,,,,,,,,,,,,,,,,,,,,,1318.2336497001816,None,1320.2344723001588,None,,,,,,,,,,,,,,,,,,,,,,,,,,,,,,,,,,,,,,,,,,,,,,,,,,,,,,,,,,,,,,,,,,,,,,,,,,19,001,2023_Mar_08_0947,ExactRep-v3-final,2021.2.3,59.85221290540454,
13,0,13,0,,,,,,,,,,,,,,,,,,,,,,,,,,,,,,,,,,,,,,,,,,,,,,,,,,,,,,,,,,,1320.7360321001615,None,1322.7370131001808,None,,,,,,,,,,,,,,,,,,,,,,,,,,,,,,,,,,,,,,,,,,,,,,,,,,,,,,,,,,,,,,,,,,,,,,,,,,19,001,2023_Mar_08_0947,ExactRep-v3-final,2021.2.3,59.85221290540454,
14,0,14,0,,,,,,,,,,,,,,,,,,,,,,,,,,,,,,,,,,,,,,,,,,,,,,,,,,,,,,,,,,,1323.2394455000758,None,1325.239661199972,None,,,,,,,,,,,,,,,,,,,,,,,,,,,,,,,,,,,,,,,,,,,,,,,,,,,,,,,,,,,,,,,,,,,,,,,,,,19,001,2023_Mar_08_0947,ExactRep-v3-final,2021.2.3,59.85221290540454,
,,,,,,,,,,,,,,,,,,,,,,,,,,,,,,,,,,,,,,,,,,,,,,,,,,,,,,,,,,,,,,,,,,space,18.960725500015542,1335.8584760001395,None,,,,,,,,,,,,,,,,,,,,,,,,,,,,,,,,,,,,,,,,,,,,,,,,,,,,,,,,,,,,,,,,,,,,,,19,001,2023_Mar_08_0947,ExactRep-v3-final,2021.2.3,59.85221290540454,
,,,,0,0,0,0,,,,,,,,,,,,,,,,,,,,,,,,,,,,,,,,,,,,,,,,,,,,,,,,,,,,,,,,,1356.8877958001103,None,,,,,1325.8624949001241,None,1325.8624949001241,None,1325.8624949001241,None,1325.8624949001241,None,1325.8624949001241,None,1325.8624949001241,None,1354.875259499997,None,,,,,,,,,,,,,,,,,,,,,,,,,,,,,,,,,,,,,,,,,,,,,,,,,,,,,,,,19,001,2023_Mar_08_0947,ExactRep-v3-final,2021.2.3,59.85221290540454,
,,,,1,0,1,0,,,,,,,,,,,,,,,,,,,,,,,,,,,,,,,,,,,,,,,,,,,,,,,,,,,,,,,,,1359.3901335000992,None,,,,,,,,,,,,,,,,,1357.3883450001013,None,,,,,,,,,,,,,,,,,,,,,,,,,,,,,,,,,,,,,,,,,,,,,,,,,,,,,,,,19,001,2023_Mar_08_0947,ExactRep-v3-final,2021.2.3,59.85221290540454,
,,,,2,0,2,0,,,,,,,,,,,,,,,,,,,,,,,,,,,,,,,,,,,,,,,,,,,,,,,,,,,,,,,,,1361.8928167000413,None,,,,,,,,,,,,,,,,,1359.8909289999865,None,,,,,,,,,,,,,,,,,,,,,,,,,,,,,,,,,,,,,,,,,,,,,,,,,,,,,,,,19,001,2023_Mar_08_0947,ExactRep-v3-final,2021.2.3,59.85221290540454,
,,,,3,0,3,0,,,,,,,,,,,,,,,,,,,,,,,,,,,,,,,,,,,,,,,,,,,,,,,,,,,,,,,,,1364.3953244001605,None,,,,,,,,,,,,,,,,,1362.3933262000792,None,,,,,,,,,,,,,,,,,,,,,,,,,,,,,,,,,,,,,,,,,,,,,,,,,,,,,,,,19,001,2023_Mar_08_0947,ExactRep-v3-final,2021.2.3,59.85221290540454,
,,,,4,0,4,0,,,,,,,,,,,,,,,,,,,,,,,,,,,,,,,,,,,,,,,,,,,,,,,,,,,,,,,,,1366.8978393001016,None,,,,,,,,,,,,,,,,,1364.896073800046,None,,,,,,,,,,,,,,,,,,,,,,,,,,,,,,,,,,,,,,,,,,,,,,,,,,,,,,,,19,001,2023_Mar_08_0947,ExactRep-v3-final,2021.2.3,59.85221290540454,
,,,,5,0,5,0,,,,,,,,,,,,,,,,,,,,,,,,,,,,,,,,,,,,,,,,,,,,,,,,,,,,,,,,,1369.400142100174,None,,,,,,,,,,,,,,,,,1367.3981821001507,None,,,,,,,,,,,,,,,,,,,,,,,,,,,,,,,,,,,,,,,,,,,,,,,,,,,,,,,,19,001,2023_Mar_08_0947,ExactRep-v3-final,2021.2.3,59.85221290540454,
,,,,6,0,6,0,,,,,,,,,,,,,,,,,,,,,,,,,,,,,,,,,,,,,,,,,,,,,,,,,,,,,,,,,1371.9030154000502,None,,,,,,,,,,,,,,,,,1369.9008258001413,None,,,,,,,,,,,,,,,,,,,,,,,,,,,,,,,,,,,,,,,,,,,,,,,,,,,,,,,,19,001,2023_Mar_08_0947,ExactRep-v3-final,2021.2.3,59.85221290540454,
,,,,7,0,7,0,,,,,,,,,,,,,,,,,,,,,,,,,,,,,,,,,,,,,,,,,,,,,,,,,,,,,,,,,1374.4053357001394,None,,,,,,,,,,,,,,,,,1372.4035475000273,None,,,,,,,,,,,,,,,,,,,,,,,,,,,,,,,,,,,,,,,,,,,,,,,,,,,,,,,,19,001,2023_Mar_08_0947,ExactRep-v3-final,2021.2.3,59.85221290540454,
,,,,8,0,8,0,,,,,,,,,,,,,,,,,,,,,,,,,,,,,,,,,,,,,,,,,,,,,,,,,,,,,,,,,1376.9077471001074,None,,,,,,,,,,,,,,,,,1374.9058519999962,None,,,,,,,,,,,,,,,,,,,,,,,,,,,,,,,,,,,,,,,,,,,,,,,,,,,,,,,,19,001,2023_Mar_08_0947,ExactRep-v3-final,2021.2.3,59.85221290540454,
,,,,9,0,9,0,,,,,,,,,,,,,,,,,,,,,,,,,,,,,,,,,,,,,,,,,,,,,,,,,,,,,,,,,1379.4107079000678,None,,,,,,,,,,,,,,,,,1377.4082951999735,None,,,,,,,,,,,,,,,,,,,,,,,,,,,,,,,,,,,,,,,,,,,,,,,,,,,,,,,,19,001,2023_Mar_08_0947,ExactRep-v3-final,2021.2.3,59.85221290540454,
,,,,10,0,10,0,,,,,,,,,,,,,,,,,,,,,,,,,,,,,,,,,,,,,,,,,,,,,,,,,,,,,,,,,1381.9125685000326,None,,,,,,,,,,,,,,,,,1379.9108615000732,None,,,,,,,,,,,,,,,,,,,,,,,,,,,,,,,,,,,,,,,,,,,,,,,,,,,,,,,,19,001,2023_Mar_08_0947,ExactRep-v3-final,2021.2.3,59.85221290540454,
,,,,11,0,11,0,,,,,,,,,,,,,,,,,,,,,,,,,,,,,,,,,,,,,,,,,,,,,,,,,,,,,,,,,1384.4153104000725,None,,,,,,,,,,,,,,,,,1382.4132745000534,None,,,,,,,,,,,,,,,,,,,,,,,,,,,,,,,,,,,,,,,,,,,,,,,,,,,,,,,,19,001,2023_Mar_08_0947,ExactRep-v3-final,2021.2.3,59.85221290540454,
,,,,12,0,12,0,,,,,,,,,,,,,,,,,,,,,,,,,,,,,,,,,,,,,,,,,,,,,,,,,,,,,,,,,1386.9178578001447,None,,,,,,,,,,,,,,,,,1384.9158884000499,None,,,,,,,,,,,,,,,,,,,,,,,,,,,,,,,,,,,,,,,,,,,,,,,,,,,,,,,,19,001,2023_Mar_08_0947,ExactRep-v3-final,2021.2.3,59.85221290540454,
,,,,13,0,13,0,,,,,,,,,,,,,,,,,,,,,,,,,,,,,,,,,,,,,,,,,,,,,,,,,,,,,,,,,1389.420069300104,None,,,,,,,,,,,,,,,,,1387.4183138001245,None,,,,,,,,,,,,,,,,,,,,,,,,,,,,,,,,,,,,,,,,,,,,,,,,,,,,,,,,19,001,2023_Mar_08_0947,ExactRep-v3-final,2021.2.3,59.85221290540454,
,,,,14,0,14,0,,,,,,,,,,,,,,,,,,,,,,,,,,,,,,,,,,,,,,,,,,,,,,,,,,,,,,,,,1391.9228527001105,None,,,,,,,,,,,,,,,,,1389.9208592001814,None,,,,,,,,,,,,,,,,,,,,,,,,,,,,,,,,,,,,,,,,,,,,,,,,,,,,,,,,19,001,2023_Mar_08_0947,ExactRep-v3-final,2021.2.3,59.85221290540454,
,,,,,,,,,,,,,,,,,,,,,,,,,,,,,,,,,,,,,,,,,,,,,,,,,,,,,,,,,,,,,,,,,,,,,,,,,,,,,,,,,,,,space,23.257046199869365,1402.554368000012,None,,,,,,,,,,,,,,,,,,,,,,,,,,,,,,,,,,,,,,,,,,,,,,,,,,,,19,001,2023_Mar_08_0947,ExactRep-v3-final,2021.2.3,59.85221290540454,
,,,,,,,,0,0,0,0,,,,,,,,,,,,,,,,,,,,,,,,,,,,,,,,,,,,,,,,,,,,,,,,,,,,,1427.8921416001394,None,,,,,,,,,,,,,,,,,,,,,,,1392.594227500027,None,1392.594227500027,None,1392.594227500027,None,1392.594227500027,None,1392.594227500027,None,1392.594227500027,None,rock,31,1,sing,white,1425.8785316001158,None,None,1425.8785316001158,None,,,,,,,,,,,,,,,,,,,,,,,,,,,,,,19,001,2023_Mar_08_0947,ExactRep-v3-final,2021.2.3,59.85221290540454,
,,,,,,,,1,0,1,0,,,,,,,,,,,,,,,,,,,,,,,,,,,,,,,,,,,,,,,,,,,,,,,,,,,,,1430.394665800035,None,,,,,,,,,,,,,,,,,,,,,,,,,,,,,,,,,,,gold,102,2,aloud,red,1428.392458599992,None,None,1428.392458599992,None,,,,,,,,,,,,,,,,,,,,,,,,,,,,,,19,001,2023_Mar_08_0947,ExactRep-v3-final,2021.2.3,59.85221290540454,
,,,,,,,,2,0,2,0,,,,,,,,,,,,,,,,,,,,,,,,,,,,,,,,,,,,,,,,,,,,,,,,,,,,,1432.9138432000764,None,,,,,,,,,,,,,,,,,,,,,,,,,,,,,,,,,,,sky,98,3,aloud,red,1430.8996111999732,None,None,1430.8996111999732,None,,,,,,,,,,,,,,,,,,,,,,,,,,,,,,19,001,2023_Mar_08_0947,ExactRep-v3-final,2021.2.3,59.85221290540454,
,,,,,,,,3,0,3,0,,,,,,,,,,,,,,,,,,,,,,,,,,,,,,,,,,,,,,,,,,,,,,,,,,,,,1435.4161483000498,None,,,,,,,,,,,,,,,,,,,,,,,,,,,,,,,,,,,artist,25,4,sing,white,1433.4143576000351,None,None,1433.4143576000351,None,,,,,,,,,,,,,,,,,,,,,,,,,,,,,,19,001,2023_Mar_08_0947,ExactRep-v3-final,2021.2.3,59.85221290540454,
,,,,,,,,4,0,4,0,,,,,,,,,,,,,,,,,,,,,,,,,,,,,,,,,,,,,,,,,,,,,,,,,,,,,1437.9356249000411,None,,,,,,,,,,,,,,,,,,,,,,,,,,,,,,,,,,,chief,109,5,aloud,red,1435.9251286000945,None,None,1435.9251286000945,None,,,,,,,,,,,,,,,,,,,,,,,,,,,,,,19,001,2023_Mar_08_0947,ExactRep-v3-final,2021.2.3,59.85221290540454,
,,,,,,,,5,0,5,0,,,,,,,,,,,,,,,,,,,,,,,,,,,,,,,,,,,,,,,,,,,,,,,,,,,,,1440.4546863001306,None,,,,,,,,,,,,,,,,,,,,,,,,,,,,,,,,,,,poet,80,6,aloud,red,1438.4409262000117,None,None,1438.4409262000117,None,,,,,,,,,,,,,,,,,,,,,,,,,,,,,,19,001,2023_Mar_08_0947,ExactRep-v3-final,2021.2.3,59.85221290540454,
,,,,,,,,6,0,6,0,,,,,,,,,,,,,,,,,,,,,,,,,,,,,,,,,,,,,,,,,,,,,,,,,,,,,1442.973940800177,None,,,,,,,,,,,,,,,,,,,,,,,,,,,,,,,,,,,iron,38,7,sing,white,1440.960979500087,None,None,1440.960979500087,None,,,,,,,,,,,,,,,,,,,,,,,,,,,,,,19,001,2023_Mar_08_0947,ExactRep-v3-final,2021.2.3,59.85221290540454,
,,,,,,,,7,0,7,0,,,,,,,,,,,,,,,,,,,,,,,,,,,,,,,,,,,,,,,,,,,,,,,,,,,,,1445.4762246001046,None,,,,,,,,,,,,,,,,,,,,,,,,,,,,,,,,,,,camp,97,8,aloud,red,1443.4749537999742,None,None,1443.4749537999742,None,,,,,,,,,,,,,,,,,,,,,,,,,,,,,,19,001,2023_Mar_08_0947,ExactRep-v3-final,2021.2.3,59.85221290540454,
,,,,,,,,8,0,8,0,,,,,,,,,,,,,,,,,,,,,,,,,,,,,,,,,,,,,,,,,,,,,,,,,,,,,1447.995711100055,None,,,,,,,,,,,,,,,,,,,,,,,,,,,,,,,,,,,book,19,9,sing,white,1445.9813679000363,None,None,1445.9813679000363,None,,,,,,,,,,,,,,,,,,,,,,,,,,,,,,19,001,2023_Mar_08_0947,ExactRep-v3-final,2021.2.3,59.85221290540454,
,,,,,,,,9,0,9,0,,,,,,,,,,,,,,,,,,,,,,,,,,,,,,,,,,,,,,,,,,,,,,,,,,,,,1450.4981033999939,None,,,,,,,,,,,,,,,,,,,,,,,,,,,,,,,,,,,cash,100,10,aloud,red,1448.4959037001245,None,None,1448.4959037001245,None,,,,,,,,,,,,,,,,,,,,,,,,,,,,,,19,001,2023_Mar_08_0947,ExactRep-v3-final,2021.2.3,59.85221290540454,
,,,,,,,,10,0,10,0,,,,,,,,,,,,,,,,,,,,,,,,,,,,,,,,,,,,,,,,,,,,,,,,,,,,,1453.0173085001297,None,,,,,,,,,,,,,,,,,,,,,,,,,,,,,,,,,,,corner,104,11,aloud,red,1451.0051214999985,None,None,1451.0051214999985,None,,,,,,,,,,,,,,,,,,,,,,,,,,,,,,19,001,2023_Mar_08_0947,ExactRep-v3-final,2021.2.3,59.85221290540454,
,,,,,,,,11,0,11,0,,,,,,,,,,,,,,,,,,,,,,,,,,,,,,,,,,,,,,,,,,,,,,,,,,,,,1455.5197780001909,None,,,,,,,,,,,,,,,,,,,,,,,,,,,,,,,,,,,pole,51,12,silent,blue,1453.5205104001798,None,None,1453.5205104001798,None,,,,,,,,,,,,,,,,,,,,,,,,,,,,,,19,001,2023_Mar_08_0947,ExactRep-v3-final,2021.2.3,59.85221290540454,
,,,,,,,,12,0,12,0,,,,,,,,,,,,,,,,,,,,,,,,,,,,,,,,,,,,,,,,,,,,,,,,,,,,,1458.0222919001244,None,,,,,,,,,,,,,,,,,,,,,,,,,,,,,,,,,,,speech,44,13,silent,blue,1456.0222048000433,None,None,1456.0222048000433,None,,,,,,,,,,,,,,,,,,,,,,,,,,,,,,19,001,2023_Mar_08_0947,ExactRep-v3-final,2021.2.3,59.85221290540454,
,,,,,,,,13,0,13,0,,,,,,,,,,,,,,,,,,,,,,,,,,,,,,,,,,,,,,,,,,,,,,,,,,,,,1460.5439199001994,None,,,,,,,,,,,,,,,,,,,,,,,,,,,,,,,,,,,excuse,115,14,aloud,red,1458.528543600114,None,None,1458.528543600114,None,,,,,,,,,,,,,,,,,,,,,,,,,,,,,,19,001,2023_Mar_08_0947,ExactRep-v3-final,2021.2.3,59.85221290540454,
,,,,,,,,14,0,14,0,,,,,,,,,,,,,,,,,,,,,,,,,,,,,,,,,,,,,,,,,,,,,,,,,,,,,1463.0437443000264,None,,,,,,,,,,,,,,,,,,,,,,,,,,,,,,,,,,,circle,90,15,aloud,red,1461.042716700118,None,None,1461.042716700118,None,,,,,,,,,,,,,,,,,,,,,,,,,,,,,,19,001,2023_Mar_08_0947,ExactRep-v3-final,2021.2.3,59.85221290540454,
,,,,,,,,15,0,15,0,,,,,,,,,,,,,,,,,,,,,,,,,,,,,,,,,,,,,,,,,,,,,,,,,,,,,1465.5631701000966,None,,,,,,,,,,,,,,,,,,,,,,,,,,,,,,,,,,,table,64,16,silent,blue,1463.5476504000835,None,None,1463.5476504000835,None,,,,,,,,,,,,,,,,,,,,,,,,,,,,,,19,001,2023_Mar_08_0947,ExactRep-v3-final,2021.2.3,59.85221290540454,
,,,,,,,,16,0,16,0,,,,,,,,,,,,,,,,,,,,,,,,,,,,,,,,,,,,,,,,,,,,,,,,,,,,,1468.0656453000847,None,,,,,,,,,,,,,,,,,,,,,,,,,,,,,,,,,,,dollar,85,17,aloud,red,1466.0636779000051,None,None,1466.0636779000051,None,,,,,,,,,,,,,,,,,,,,,,,,,,,,,,19,001,2023_Mar_08_0947,ExactRep-v3-final,2021.2.3,59.85221290540454,
,,,,,,,,17,0,17,0,,,,,,,,,,,,,,,,,,,,,,,,,,,,,,,,,,,,,,,,,,,,,,,,,,,,,1470.5848245001398,None,,,,,,,,,,,,,,,,,,,,,,,,,,,,,,,,,,,potato,21,18,sing,white,1468.5751336000394,None,None,1468.5751336000394,None,,,,,,,,,,,,,,,,,,,,,,,,,,,,,,19,001,2023_Mar_08_0947,ExactRep-v3-final,2021.2.3,59.85221290540454,
,,,,,,,,18,0,18,0,,,,,,,,,,,,,,,,,,,,,,,,,,,,,,,,,,,,,,,,,,,,,,,,,,,,,1473.0872758000623,None,,,,,,,,,,,,,,,,,,,,,,,,,,,,,,,,,,,fate,92,19,aloud,red,1471.0857125001494,None,None,1471.0857125001494,None,,,,,,,,,,,,,,,,,,,,,,,,,,,,,,19,001,2023_Mar_08_0947,ExactRep-v3-final,2021.2.3,59.85221290540454,
,,,,,,,,19,0,19,0,,,,,,,,,,,,,,,,,,,,,,,,,,,,,,,,,,,,,,,,,,,,,,,,,,,,,1475.5898309000768,None,,,,,,,,,,,,,,,,,,,,,,,,,,,,,,,,,,,freedom,87,20,aloud,red,1473.5907902000472,None,None,1473.5907902000472,None,,,,,,,,,,,,,,,,,,,,,,,,,,,,,,19,001,2023_Mar_08_0947,ExactRep-v3-final,2021.2.3,59.85221290540454,
,,,,,,,,20,0,20,0,,,,,,,,,,,,,,,,,,,,,,,,,,,,,,,,,,,,,,,,,,,,,,,,,,,,,1478.1089810000267,None,,,,,,,,,,,,,,,,,,,,,,,,,,,,,,,,,,,pride,6,21,sing,white,1476.094520600047,None,None,1476.094520600047,None,,,,,,,,,,,,,,,,,,,,,,,,,,,,,,19,001,2023_Mar_08_0947,ExactRep-v3-final,2021.2.3,59.85221290540454,
,,,,,,,,21,0,21,0,,,,,,,,,,,,,,,,,,,,,,,,,,,,,,,,,,,,,,,,,,,,,,,,,,,,,1480.6114519000985,None,,,,,,,,,,,,,,,,,,,,,,,,,,,,,,,,,,,sea,11,22,sing,white,1478.6093125001062,None,None,1478.6093125001062,None,,,,,,,,,,,,,,,,,,,,,,,,,,,,,,19,001,2023_Mar_08_0947,ExactRep-v3-final,2021.2.3,59.85221290540454,
,,,,,,,,22,0,22,0,,,,,,,,,,,,,,,,,,,,,,,,,,,,,,,,,,,,,,,,,,,,,,,,,,,,,1483.1141030001454,None,,,,,,,,,,,,,,,,,,,,,,,,,,,,,,,,,,,hide,28,23,sing,white,1481.1125066000968,None,None,1481.1125066000968,None,,,,,,,,,,,,,,,,,,,,,,,,,,,,,,19,001,2023_Mar_08_0947,ExactRep-v3-final,2021.2.3,59.85221290540454,
,,,,,,,,23,0,23,0,,,,,,,,,,,,,,,,,,,,,,,,,,,,,,,,,,,,,,,,,,,,,,,,,,,,,1485.6332639001776,None,,,,,,,,,,,,,,,,,,,,,,,,,,,,,,,,,,,cabin,16,24,sing,white,1483.6204941000324,None,None,1483.6204941000324,None,,,,,,,,,,,,,,,,,,,,,,,,,,,,,,19,001,2023_Mar_08_0947,ExactRep-v3-final,2021.2.3,59.85221290540454,
,,,,,,,,24,0,24,0,,,,,,,,,,,,,,,,,,,,,,,,,,,,,,,,,,,,,,,,,,,,,,,,,,,,,1488.152159600053,None,,,,,,,,,,,,,,,,,,,,,,,,,,,,,,,,,,,shore,7,25,sing,white,1486.1432484001853,None,None,1486.1432484001853,None,,,,,,,,,,,,,,,,,,,,,,,,,,,,,,19,001,2023_Mar_08_0947,ExactRep-v3-final,2021.2.3,59.85221290540454,
,,,,,,,,25,0,25,0,,,,,,,,,,,,,,,,,,,,,,,,,,,,,,,,,,,,,,,,,,,,,,,,,,,,,1490.6716256001964,None,,,,,,,,,,,,,,,,,,,,,,,,,,,,,,,,,,,earth,14,26,sing,white,1488.6569501000922,None,None,1488.6569501000922,None,,,,,,,,,,,,,,,,,,,,,,,,,,,,,,19,001,2023_Mar_08_0947,ExactRep-v3-final,2021.2.3,59.85221290540454,
,,,,,,,,26,0,26,0,,,,,,,,,,,,,,,,,,,,,,,,,,,,,,,,,,,,,,,,,,,,,,,,,,,,,1493.174099800177,None,,,,,,,,,,,,,,,,,,,,,,,,,,,,,,,,,,,lad,68,27,silent,blue,1491.1720857999753,None,None,1491.1720857999753,None,,,,,,,,,,,,,,,,,,,,,,,,,,,,,,19,001,2023_Mar_08_0947,ExactRep-v3-final,2021.2.3,59.85221290540454,
,,,,,,,,27,0,27,0,,,,,,,,,,,,,,,,,,,,,,,,,,,,,,,,,,,,,,,,,,,,,,,,,,,,,1495.6766033000313,None,,,,,,,,,,,,,,,,,,,,,,,,,,,,,,,,,,,toy,94,28,aloud,red,1493.6761721000075,None,None,1493.6761721000075,None,,,,,,,,,,,,,,,,,,,,,,,,,,,,,,19,001,2023_Mar_08_0947,ExactRep-v3-final,2021.2.3,59.85221290540454,
,,,,,,,,28,0,28,0,,,,,,,,,,,,,,,,,,,,,,,,,,,,,,,,,,,,,,,,,,,,,,,,,,,,,1498.179150100099,None,,,,,,,,,,,,,,,,,,,,,,,,,,,,,,,,,,,glory,55,29,silent,blue,1496.1786663001403,None,None,1496.1786663001403,None,,,,,,,,,,,,,,,,,,,,,,,,,,,,,,19,001,2023_Mar_08_0947,ExactRep-v3-final,2021.2.3,59.85221290540454,
,,,,,,,,29,0,29,0,,,,,,,,,,,,,,,,,,,,,,,,,,,,,,,,,,,,,,,,,,,,,,,,,,,,,1500.6816541000735,None,,,,,,,,,,,,,,,,,,,,,,,,,,,,,,,,,,,ticket,23,30,sing,white,1498.6828316000756,None,None,1498.6828316000756,None,,,,,,,,,,,,,,,,,,,,,,,,,,,,,,19,001,2023_Mar_08_0947,ExactRep-v3-final,2021.2.3,59.85221290540454,
,,,,,,,,30,0,30,0,,,,,,,,,,,,,,,,,,,,,,,,,,,,,,,,,,,,,,,,,,,,,,,,,,,,,1503.2007856001146,None,,,,,,,,,,,,,,,,,,,,,,,,,,,,,,,,,,,ability,103,31,aloud,red,1501.1906190000009,None,None,1501.1906190000009,None,,,,,,,,,,,,,,,,,,,,,,,,,,,,,,19,001,2023_Mar_08_0947,ExactRep-v3-final,2021.2.3,59.85221290540454,
,,,,,,,,31,0,31,0,,,,,,,,,,,,,,,,,,,,,,,,,,,,,,,,,,,,,,,,,,,,,,,,,,,,,1505.7197921001352,None,,,,,,,,,,,,,,,,,,,,,,,,,,,,,,,,,,,hall,1,32,sing,white,1503.7098338999785,None,None,1503.7098338999785,None,,,,,,,,,,,,,,,,,,,,,,,,,,,,,,19,001,2023_Mar_08_0947,ExactRep-v3-final,2021.2.3,59.85221290540454,
,,,,,,,,32,0,32,0,,,,,,,,,,,,,,,,,,,,,,,,,,,,,,,,,,,,,,,,,,,,,,,,,,,,,1508.2390698001254,None,,,,,,,,,,,,,,,,,,,,,,,,,,,,,,,,,,,leader,34,33,sing,white,1506.23003039998,None,None,1506.23003039998,None,,,,,,,,,,,,,,,,,,,,,,,,,,,,,,19,001,2023_Mar_08_0947,ExactRep-v3-final,2021.2.3,59.85221290540454,
,,,,,,,,33,0,33,0,,,,,,,,,,,,,,,,,,,,,,,,,,,,,,,,,,,,,,,,,,,,,,,,,,,,,1510.741680599982,None,,,,,,,,,,,,,,,,,,,,,,,,,,,,,,,,,,,avenue,3,34,sing,white,1508.7403591000475,None,None,1508.7403591000475,None,,,,,,,,,,,,,,,,,,,,,,,,,,,,,,19,001,2023_Mar_08_0947,ExactRep-v3-final,2021.2.3,59.85221290540454,
,,,,,,,,34,0,34,0,,,,,,,,,,,,,,,,,,,,,,,,,,,,,,,,,,,,,,,,,,,,,,,,,,,,,1513.2441678000614,None,,,,,,,,,,,,,,,,,,,,,,,,,,,,,,,,,,,prayer,60,35,silent,blue,1511.2449477000628,None,None,1511.2449477000628,None,,,,,,,,,,,,,,,,,,,,,,,,,,,,,,19,001,2023_Mar_08_0947,ExactRep-v3-final,2021.2.3,59.85221290540454,
,,,,,,,,35,0,35,0,,,,,,,,,,,,,,,,,,,,,,,,,,,,,,,,,,,,,,,,,,,,,,,,,,,,,1515.7633750999812,None,,,,,,,,,,,,,,,,,,,,,,,,,,,,,,,,,,,memory,61,36,silent,blue,1513.7479328999761,None,None,1513.7479328999761,None,,,,,,,,,,,,,,,,,,,,,,,,,,,,,,19,001,2023_Mar_08_0947,ExactRep-v3-final,2021.2.3,59.85221290540454,
,,,,,,,,36,0,36,0,,,,,,,,,,,,,,,,,,,,,,,,,,,,,,,,,,,,,,,,,,,,,,,,,,,,,1518.2656039001886,None,,,,,,,,,,,,,,,,,,,,,,,,,,,,,,,,,,,car,39,37,silent,blue,1516.264990700176,None,None,1516.264990700176,None,,,,,,,,,,,,,,,,,,,,,,,,,,,,,,19,001,2023_Mar_08_0947,ExactRep-v3-final,2021.2.3,59.85221290540454,
,,,,,,,,37,0,37,0,,,,,,,,,,,,,,,,,,,,,,,,,,,,,,,,,,,,,,,,,,,,,,,,,,,,,1520.7850976001937,None,,,,,,,,,,,,,,,,,,,,,,,,,,,,,,,,,,,kiss,79,38,sing,white,1518.7748611001298,None,None,1518.7748611001298,None,,,,,,,,,,,,,,,,,,,,,,,,,,,,,,19,001,2023_Mar_08_0947,ExactRep-v3-final,2021.2.3,59.85221290540454,
,,,,,,,,38,0,38,0,,,,,,,,,,,,,,,,,,,,,,,,,,,,,,,,,,,,,,,,,,,,,,,,,,,,,1523.30401349999,None,,,,,,,,,,,,,,,,,,,,,,,,,,,,,,,,,,,judge,43,39,silent,blue,1521.2963049001992,None,None,1521.2963049001992,None,,,,,,,,,,,,,,,,,,,,,,,,,,,,,,19,001,2023_Mar_08_0947,ExactRep-v3-final,2021.2.3,59.85221290540454,
,,,,,,,,39,0,39,0,,,,,,,,,,,,,,,,,,,,,,,,,,,,,,,,,,,,,,,,,,,,,,,,,,,,,1525.823413599981,None,,,,,,,,,,,,,,,,,,,,,,,,,,,,,,,,,,,letter,8,40,sing,white,1523.808035199996,None,None,1523.808035199996,None,,,,,,,,,,,,,,,,,,,,,,,,,,,,,,19,001,2023_Mar_08_0947,ExactRep-v3-final,2021.2.3,59.85221290540454,
,,,,,,,,40,0,40,0,,,,,,,,,,,,,,,,,,,,,,,,,,,,,,,,,,,,,,,,,,,,,,,,,,,,,1528.3258744000923,None,,,,,,,,,,,,,,,,,,,,,,,,,,,,,,,,,,,king,33,41,sing,white,1526.324951400049,None,None,1526.324951400049,None,,,,,,,,,,,,,,,,,,,,,,,,,,,,,,19,001,2023_Mar_08_0947,ExactRep-v3-final,2021.2.3,59.85221290540454,
,,,,,,,,41,0,41,0,,,,,,,,,,,,,,,,,,,,,,,,,,,,,,,,,,,,,,,,,,,,,,,,,,,,,1530.8452682001516,None,,,,,,,,,,,,,,,,,,,,,,,,,,,,,,,,,,,child,22,42,sing,white,1528.8320491001941,None,None,1528.8320491001941,None,,,,,,,,,,,,,,,,,,,,,,,,,,,,,,19,001,2023_Mar_08_0947,ExactRep-v3-final,2021.2.3,59.85221290540454,
,,,,,,,,42,0,42,0,,,,,,,,,,,,,,,,,,,,,,,,,,,,,,,,,,,,,,,,,,,,,,,,,,,,,1533.3476760999765,None,,,,,,,,,,,,,,,,,,,,,,,,,,,,,,,,,,,cost,5,43,sing,white,1531.3465376000386,None,None,1531.3465376000386,None,,,,,,,,,,,,,,,,,,,,,,,,,,,,,,19,001,2023_Mar_08_0947,ExactRep-v3-final,2021.2.3,59.85221290540454,
,,,,,,,,43,0,43,0,,,,,,,,,,,,,,,,,,,,,,,,,,,,,,,,,,,,,,,,,,,,,,,,,,,,,1535.8502432000823,None,,,,,,,,,,,,,,,,,,,,,,,,,,,,,,,,,,,lip,63,44,silent,blue,1533.8505985001102,None,None,1533.8505985001102,None,,,,,,,,,,,,,,,,,,,,,,,,,,,,,,19,001,2023_Mar_08_0947,ExactRep-v3-final,2021.2.3,59.85221290540454,
,,,,,,,,44,0,44,0,,,,,,,,,,,,,,,,,,,,,,,,,,,,,,,,,,,,,,,,,,,,,,,,,,,,,1538.3524960000068,None,,,,,,,,,,,,,,,,,,,,,,,,,,,,,,,,,,,doctor,36,45,sing,white,1536.3531013000757,None,None,1536.3531013000757,None,,,,,,,,,,,,,,,,,,,,,,,,,,,,,,19,001,2023_Mar_08_0947,ExactRep-v3-final,2021.2.3,59.85221290540454,
,,,,,,,,45,0,45,0,,,,,,,,,,,,,,,,,,,,,,,,,,,,,,,,,,,,,,,,,,,,,,,,,,,,,1540.8716107001528,None,,,,,,,,,,,,,,,,,,,,,,,,,,,,,,,,,,,grass,35,46,sing,white,1538.862750899978,None,None,1538.862750899978,None,,,,,,,,,,,,,,,,,,,,,,,,,,,,,,19,001,2023_Mar_08_0947,ExactRep-v3-final,2021.2.3,59.85221290540454,
,,,,,,,,46,0,46,0,,,,,,,,,,,,,,,,,,,,,,,,,,,,,,,,,,,,,,,,,,,,,,,,,,,,,1543.3909597999882,None,,,,,,,,,,,,,,,,,,,,,,,,,,,,,,,,,,,flower,67,47,silent,blue,1541.3911046001595,None,None,1541.3911046001595,None,,,,,,,,,,,,,,,,,,,,,,,,,,,,,,19,001,2023_Mar_08_0947,ExactRep-v3-final,2021.2.3,59.85221290540454,
,,,,,,,,47,0,47,0,,,,,,,,,,,,,,,,,,,,,,,,,,,,,,,,,,,,,,,,,,,,,,,,,,,,,1545.9101510001346,None,,,,,,,,,,,,,,,,,,,,,,,,,,,,,,,,,,,shock,32,48,sing,white,1543.899104300188,None,None,1543.899104300188,None,,,,,,,,,,,,,,,,,,,,,,,,,,,,,,19,001,2023_Mar_08_0947,ExactRep-v3-final,2021.2.3,59.85221290540454,
,,,,,,,,48,0,48,0,,,,,,,,,,,,,,,,,,,,,,,,,,,,,,,,,,,,,,,,,,,,,,,,,,,,,1548.4127394000534,None,,,,,,,,,,,,,,,,,,,,,,,,,,,,,,,,,,,person,17,49,sing,white,1546.4127892001998,None,None,1546.4127892001998,None,,,,,,,,,,,,,,,,,,,,,,,,,,,,,,19,001,2023_Mar_08_0947,ExactRep-v3-final,2021.2.3,59.85221290540454,
,,,,,,,,49,0,49,0,,,,,,,,,,,,,,,,,,,,,,,,,,,,,,,,,,,,,,,,,,,,,,,,,,,,,1550.9150392999873,None,,,,,,,,,,,,,,,,,,,,,,,,,,,,,,,,,,,moment,13,50,sing,white,1548.9151439000852,None,None,1548.9151439000852,None,,,,,,,,,,,,,,,,,,,,,,,,,,,,,,19,001,2023_Mar_08_0947,ExactRep-v3-final,2021.2.3,59.85221290540454,
,,,,,,,,50,0,50,0,,,,,,,,,,,,,,,,,,,,,,,,,,,,,,,,,,,,,,,,,,,,,,,,,,,,,1553.4352112000342,None,,,,,,,,,,,,,,,,,,,,,,,,,,,,,,,,,,,troops,119,51,aloud,red,1551.4194130001124,None,None,1551.4194130001124,None,,,,,,,,,,,,,,,,,,,,,,,,,,,,,,19,001,2023_Mar_08_0947,ExactRep-v3-final,2021.2.3,59.85221290540454,
,,,,,,,,51,0,51,0,,,,,,,,,,,,,,,,,,,,,,,,,,,,,,,,,,,,,,,,,,,,,,,,,,,,,1555.9535700001288,None,,,,,,,,,,,,,,,,,,,,,,,,,,,,,,,,,,,money,54,52,silent,blue,1553.943384299986,None,None,1553.943384299986,None,,,,,,,,,,,,,,,,,,,,,,,,,,,,,,19,001,2023_Mar_08_0947,ExactRep-v3-final,2021.2.3,59.85221290540454,
,,,,,,,,52,0,52,0,,,,,,,,,,,,,,,,,,,,,,,,,,,,,,,,,,,,,,,,,,,,,,,,,,,,,1558.4560631001368,None,,,,,,,,,,,,,,,,,,,,,,,,,,,,,,,,,,,tree,81,53,aloud,red,1556.4567150999792,None,None,1556.4567150999792,None,,,,,,,,,,,,,,,,,,,,,,,,,,,,,,19,001,2023_Mar_08_0947,ExactRep-v3-final,2021.2.3,59.85221290540454,
,,,,,,,,53,0,53,0,,,,,,,,,,,,,,,,,,,,,,,,,,,,,,,,,,,,,,,,,,,,,,,,,,,,,1560.975074400194,None,,,,,,,,,,,,,,,,,,,,,,,,,,,,,,,,,,,advice,69,54,silent,blue,1558.9607981001027,None,None,1558.9607981001027,None,,,,,,,,,,,,,,,,,,,,,,,,,,,,,,19,001,2023_Mar_08_0947,ExactRep-v3-final,2021.2.3,59.85221290540454,
,,,,,,,,54,0,54,0,,,,,,,,,,,,,,,,,,,,,,,,,,,,,,,,,,,,,,,,,,,,,,,,,,,,,1563.4944103001617,None,,,,,,,,,,,,,,,,,,,,,,,,,,,,,,,,,,,party,75,55,silent,blue,1561.4805974001065,None,None,1561.4805974001065,None,,,,,,,,,,,,,,,,,,,,,,,,,,,,,,19,001,2023_Mar_08_0947,ExactRep-v3-final,2021.2.3,59.85221290540454,
,,,,,,,,55,0,55,0,,,,,,,,,,,,,,,,,,,,,,,,,,,,,,,,,,,,,,,,,,,,,,,,,,,,,1565.9967523000669,None,,,,,,,,,,,,,,,,,,,,,,,,,,,,,,,,,,,mercy,53,56,silent,blue,1563.9949093000032,None,None,1563.9949093000032,None,,,,,,,,,,,,,,,,,,,,,,,,,,,,,,19,001,2023_Mar_08_0947,ExactRep-v3-final,2021.2.3,59.85221290540454,
,,,,,,,,56,0,56,0,,,,,,,,,,,,,,,,,,,,,,,,,,,,,,,,,,,,,,,,,,,,,,,,,,,,,1568.516056700144,None,,,,,,,,,,,,,,,,,,,,,,,,,,,,,,,,,,,temple,50,57,silent,blue,1566.5038074001204,None,None,1566.5038074001204,None,,,,,,,,,,,,,,,,,,,,,,,,,,,,,,19,001,2023_Mar_08_0947,ExactRep-v3-final,2021.2.3,59.85221290540454,
,,,,,,,,57,0,57,0,,,,,,,,,,,,,,,,,,,,,,,,,,,,,,,,,,,,,,,,,,,,,,,,,,,,,1571.0186240000185,None,,,,,,,,,,,,,,,,,,,,,,,,,,,,,,,,,,,pupil,91,58,aloud,red,1569.016394100152,None,None,1569.016394100152,None,,,,,,,,,,,,,,,,,,,,,,,,,,,,,,19,001,2023_Mar_08_0947,ExactRep-v3-final,2021.2.3,59.85221290540454,
,,,,,,,,58,0,58,0,,,,,,,,,,,,,,,,,,,,,,,,,,,,,,,,,,,,,,,,,,,,,,,,,,,,,1573.537707200041,None,,,,,,,,,,,,,,,,,,,,,,,,,,,,,,,,,,,fact,41,59,silent,blue,1571.522473799996,None,None,1571.522473799996,None,,,,,,,,,,,,,,,,,,,,,,,,,,,,,,19,001,2023_Mar_08_0947,ExactRep-v3-final,2021.2.3,59.85221290540454,
,,,,,,,,59,0,59,0,,,,,,,,,,,,,,,,,,,,,,,,,,,,,,,,,,,,,,,,,,,,,,,,,,,,,1576.0570022000466,None,,,,,,,,,,,,,,,,,,,,,,,,,,,,,,,,,,,horse,9,60,sing,white,1574.0449656001292,None,None,1574.0449656001292,None,,,,,,,,,,,,,,,,,,,,,,,,,,,,,,19,001,2023_Mar_08_0947,ExactRep-v3-final,2021.2.3,59.85221290540454,
,,,,,,,,60,0,60,0,,,,,,,,,,,,,,,,,,,,,,,,,,,,,,,,,,,,,,,,,,,,,,,,,,,,,1578.5592903001234,None,,,,,,,,,,,,,,,,,,,,,,,,,,,,,,,,,,,metal,10,61,sing,white,1576.5573391001672,None,None,1576.5573391001672,None,,,,,,,,,,,,,,,,,,,,,,,,,,,,,,19,001,2023_Mar_08_0947,ExactRep-v3-final,2021.2.3,59.85221290540454,
,,,,,,,,61,0,61,0,,,,,,,,,,,,,,,,,,,,,,,,,,,,,,,,,,,,,,,,,,,,,,,,,,,,,1581.0620085999835,None,,,,,,,,,,,,,,,,,,,,,,,,,,,,,,,,,,,lord,86,62,aloud,red,1579.0606240001507,None,None,1579.0606240001507,None,,,,,,,,,,,,,,,,,,,,,,,,,,,,,,19,001,2023_Mar_08_0947,ExactRep-v3-final,2021.2.3,59.85221290540454,
,,,,,,,,62,0,62,0,,,,,,,,,,,,,,,,,,,,,,,,,,,,,,,,,,,,,,,,,,,,,,,,,,,,,1583.5651999001857,None,,,,,,,,,,,,,,,,,,,,,,,,,,,,,,,,,,,thought,88,63,aloud,red,1581.5656342001166,None,None,1581.5656342001166,None,,,,,,,,,,,,,,,,,,,,,,,,,,,,,,19,001,2023_Mar_08_0947,ExactRep-v3-final,2021.2.3,59.85221290540454,
,,,,,,,,63,0,63,0,,,,,,,,,,,,,,,,,,,,,,,,,,,,,,,,,,,,,,,,,,,,,,,,,,,,,1586.0668168000411,None,,,,,,,,,,,,,,,,,,,,,,,,,,,,,,,,,,,cottage,27,64,sing,white,1584.064959200099,None,None,1584.064959200099,None,,,,,,,,,,,,,,,,,,,,,,,,,,,,,,19,001,2023_Mar_08_0947,ExactRep-v3-final,2021.2.3,59.85221290540454,
,,,,,,,,64,0,64,0,,,,,,,,,,,,,,,,,,,,,,,,,,,,,,,,,,,,,,,,,,,,,,,,,,,,,1588.56947820005,None,,,,,,,,,,,,,,,,,,,,,,,,,,,,,,,,,,,origin,71,65,silent,blue,1586.5675365000498,None,None,1586.5675365000498,None,,,,,,,,,,,,,,,,,,,,,,,,,,,,,,19,001,2023_Mar_08_0947,ExactRep-v3-final,2021.2.3,59.85221290540454,
,,,,,,,,65,0,65,0,,,,,,,,,,,,,,,,,,,,,,,,,,,,,,,,,,,,,,,,,,,,,,,,,,,,,1591.0720218000934,None,,,,,,,,,,,,,,,,,,,,,,,,,,,,,,,,,,,bar,52,66,silent,blue,1589.0720725001302,None,None,1589.0720725001302,None,,,,,,,,,,,,,,,,,,,,,,,,,,,,,,19,001,2023_Mar_08_0947,ExactRep-v3-final,2021.2.3,59.85221290540454,
,,,,,,,,66,0,66,0,,,,,,,,,,,,,,,,,,,,,,,,,,,,,,,,,,,,,,,,,,,,,,,,,,,,,1593.574540300062,None,,,,,,,,,,,,,,,,,,,,,,,,,,,,,,,,,,,pipe,59,67,silent,blue,1591.572321700165,None,None,1591.572321700165,None,,,,,,,,,,,,,,,,,,,,,,,,,,,,,,19,001,2023_Mar_08_0947,ExactRep-v3-final,2021.2.3,59.85221290540454,
,,,,,,,,67,0,67,0,,,,,,,,,,,,,,,,,,,,,,,,,,,,,,,,,,,,,,,,,,,,,,,,,,,,,1596.0934812000487,None,,,,,,,,,,,,,,,,,,,,,,,,,,,,,,,,,,,charm,93,68,aloud,red,1594.0806599999778,None,None,1594.0806599999778,None,,,,,,,,,,,,,,,,,,,,,,,,,,,,,,19,001,2023_Mar_08_0947,ExactRep-v3-final,2021.2.3,59.85221290540454,
,,,,,,,,68,0,68,0,,,,,,,,,,,,,,,,,,,,,,,,,,,,,,,,,,,,,,,,,,,,,,,,,,,,,1598.5963036001194,None,,,,,,,,,,,,,,,,,,,,,,,,,,,,,,,,,,,vessel,30,69,sing,white,1596.5940099,None,None,1596.5940099,None,,,,,,,,,,,,,,,,,,,,,,,,,,,,,,19,001,2023_Mar_08_0947,ExactRep-v3-final,2021.2.3,59.85221290540454,
,,,,,,,,69,0,69,0,,,,,,,,,,,,,,,,,,,,,,,,,,,,,,,,,,,,,,,,,,,,,,,,,,,,,1601.1151819999795,None,,,,,,,,,,,,,,,,,,,,,,,,,,,,,,,,,,,corn,111,70,aloud,red,1599.100328200031,None,None,1599.100328200031,None,,,,,,,,,,,,,,,,,,,,,,,,,,,,,,19,001,2023_Mar_08_0947,ExactRep-v3-final,2021.2.3,59.85221290540454,
,,,,,,,,70,0,70,0,,,,,,,,,,,,,,,,,,,,,,,,,,,,,,,,,,,,,,,,,,,,,,,,,,,,,1603.6177611001767,None,,,,,,,,,,,,,,,,,,,,,,,,,,,,,,,,,,,body,95,71,aloud,red,1601.6157045001164,None,None,1601.6157045001164,None,,,,,,,,,,,,,,,,,,,,,,,,,,,,,,19,001,2023_Mar_08_0947,ExactRep-v3-final,2021.2.3,59.85221290540454,
,,,,,,,,71,0,71,0,,,,,,,,,,,,,,,,,,,,,,,,,,,,,,,,,,,,,,,,,,,,,,,,,,,,,1606.1203999000136,None,,,,,,,,,,,,,,,,,,,,,,,,,,,,,,,,,,,green,101,72,aloud,red,1604.1183629999869,None,None,1604.1183629999869,None,,,,,,,,,,,,,,,,,,,,,,,,,,,,,,19,001,2023_Mar_08_0947,ExactRep-v3-final,2021.2.3,59.85221290540454,
,,,,,,,,72,0,72,0,,,,,,,,,,,,,,,,,,,,,,,,,,,,,,,,,,,,,,,,,,,,,,,,,,,,,1608.6397365999874,None,,,,,,,,,,,,,,,,,,,,,,,,,,,,,,,,,,,time,4,73,sing,white,1606.6242614001967,None,None,1606.6242614001967,None,,,,,,,,,,,,,,,,,,,,,,,,,,,,,,19,001,2023_Mar_08_0947,ExactRep-v3-final,2021.2.3,59.85221290540454,
,,,,,,,,73,0,73,0,,,,,,,,,,,,,,,,,,,,,,,,,,,,,,,,,,,,,,,,,,,,,,,,,,,,,1611.1421341001987,None,,,,,,,,,,,,,,,,,,,,,,,,,,,,,,,,,,,queen,48,74,silent,blue,1609.1411509001628,None,None,1609.1411509001628,None,,,,,,,,,,,,,,,,,,,,,,,,,,,,,,19,001,2023_Mar_08_0947,ExactRep-v3-final,2021.2.3,59.85221290540454,
,,,,,,,,74,0,74,0,,,,,,,,,,,,,,,,,,,,,,,,,,,,,,,,,,,,,,,,,,,,,,,,,,,,,1613.661269800039,None,,,,,,,,,,,,,,,,,,,,,,,,,,,,,,,,,,,wheat,24,75,sing,white,1611.64954400016,None,None,1611.64954400016,None,,,,,,,,,,,,,,,,,,,,,,,,,,,,,,19,001,2023_Mar_08_0947,ExactRep-v3-final,2021.2.3,59.85221290540454,
,,,,,,,,75,0,75,0,,,,,,,,,,,,,,,,,,,,,,,,,,,,,,,,,,,,,,,,,,,,,,,,,,,,,1616.1637620001566,None,,,,,,,,,,,,,,,,,,,,,,,,,,,,,,,,,,,coffee,107,76,aloud,red,1614.1615865000058,None,None,1614.1615865000058,None,,,,,,,,,,,,,,,,,,,,,,,,,,,,,,19,001,2023_Mar_08_0947,ExactRep-v3-final,2021.2.3,59.85221290540454,
,,,,,,,,76,0,76,0,,,,,,,,,,,,,,,,,,,,,,,,,,,,,,,,,,,,,,,,,,,,,,,,,,,,,1618.6662977000233,None,,,,,,,,,,,,,,,,,,,,,,,,,,,,,,,,,,,flag,77,77,silent,blue,1616.6664001999889,None,None,1616.6664001999889,None,,,,,,,,,,,,,,,,,,,,,,,,,,,,,,19,001,2023_Mar_08_0947,ExactRep-v3-final,2021.2.3,59.85221290540454,
,,,,,,,,77,0,77,0,,,,,,,,,,,,,,,,,,,,,,,,,,,,,,,,,,,,,,,,,,,,,,,,,,,,,1621.1854422001634,None,,,,,,,,,,,,,,,,,,,,,,,,,,,,,,,,,,,amount,106,78,aloud,red,1619.1703588000964,None,None,1619.1703588000964,None,,,,,,,,,,,,,,,,,,,,,,,,,,,,,,19,001,2023_Mar_08_0947,ExactRep-v3-final,2021.2.3,59.85221290540454,
,,,,,,,,78,0,78,0,,,,,,,,,,,,,,,,,,,,,,,,,,,,,,,,,,,,,,,,,,,,,,,,,,,,,1623.6878025999758,None,,,,,,,,,,,,,,,,,,,,,,,,,,,,,,,,,,,safety,112,79,aloud,red,1621.6868685001973,None,None,1621.6868685001973,None,,,,,,,,,,,,,,,,,,,,,,,,,,,,,,19,001,2023_Mar_08_0947,ExactRep-v3-final,2021.2.3,59.85221290540454,
,,,,,,,,79,0,79,0,,,,,,,,,,,,,,,,,,,,,,,,,,,,,,,,,,,,,,,,,,,,,,,,,,,,,1626.190430100076,None,,,,,,,,,,,,,,,,,,,,,,,,,,,,,,,,,,,length,108,80,aloud,red,1624.1881764000282,None,None,1624.1881764000282,None,,,,,,,,,,,,,,,,,,,,,,,,,,,,,,19,001,2023_Mar_08_0947,ExactRep-v3-final,2021.2.3,59.85221290540454,
,,,,,,,,80,0,80,0,,,,,,,,,,,,,,,,,,,,,,,,,,,,,,,,,,,,,,,,,,,,,,,,,,,,,1628.6927722999826,None,,,,,,,,,,,,,,,,,,,,,,,,,,,,,,,,,,,colony,118,81,aloud,red,1626.6908913000952,None,None,1626.6908913000952,None,,,,,,,,,,,,,,,,,,,,,,,,,,,,,,19,001,2023_Mar_08_0947,ExactRep-v3-final,2021.2.3,59.85221290540454,
,,,,,,,,81,0,81,0,,,,,,,,,,,,,,,,,,,,,,,,,,,,,,,,,,,,,,,,,,,,,,,,,,,,,1631.195550300181,None,,,,,,,,,,,,,,,,,,,,,,,,,,,,,,,,,,,winter,65,82,silent,blue,1629.1963557000272,None,None,1629.1963557000272,None,,,,,,,,,,,,,,,,,,,,,,,,,,,,,,19,001,2023_Mar_08_0947,ExactRep-v3-final,2021.2.3,59.85221290540454,
,,,,,,,,82,0,82,0,,,,,,,,,,,,,,,,,,,,,,,,,,,,,,,,,,,,,,,,,,,,,,,,,,,,,1633.714674100047,None,,,,,,,,,,,,,,,,,,,,,,,,,,,,,,,,,,,devil,74,83,silent,blue,1631.7016455000266,None,None,1631.7016455000266,None,,,,,,,,,,,,,,,,,,,,,,,,,,,,,,19,001,2023_Mar_08_0947,ExactRep-v3-final,2021.2.3,59.85221290540454,
,,,,,,,,83,0,83,0,,,,,,,,,,,,,,,,,,,,,,,,,,,,,,,,,,,,,,,,,,,,,,,,,,,,,1636.217105000047,None,,,,,,,,,,,,,,,,,,,,,,,,,,,,,,,,,,,insect,42,84,silent,blue,1634.2148349999916,None,None,1634.2148349999916,None,,,,,,,,,,,,,,,,,,,,,,,,,,,,,,19,001,2023_Mar_08_0947,ExactRep-v3-final,2021.2.3,59.85221290540454,
,,,,,,,,84,0,84,0,,,,,,,,,,,,,,,,,,,,,,,,,,,,,,,,,,,,,,,,,,,,,,,,,,,,,1638.7196896001697,None,,,,,,,,,,,,,,,,,,,,,,,,,,,,,,,,,,,friend,45,85,silent,blue,1636.7178617001045,None,None,1636.7178617001045,None,,,,,,,,,,,,,,,,,,,,,,,,,,,,,,19,001,2023_Mar_08_0947,ExactRep-v3-final,2021.2.3,59.85221290540454,
,,,,,,,,85,0,85,0,,,,,,,,,,,,,,,,,,,,,,,,,,,,,,,,,,,,,,,,,,,,,,,,,,,,,1641.2388705001213,None,,,,,,,,,,,,,,,,,,,,,,,,,,,,,,,,,,,trouble,56,86,silent,blue,1639.223867499968,None,None,1639.223867499968,None,,,,,,,,,,,,,,,,,,,,,,,,,,,,,,19,001,2023_Mar_08_0947,ExactRep-v3-final,2021.2.3,59.85221290540454,
,,,,,,,,86,0,86,0,,,,,,,,,,,,,,,,,,,,,,,,,,,,,,,,,,,,,,,,,,,,,,,,,,,,,1643.741328400094,None,,,,,,,,,,,,,,,,,,,,,,,,,,,,,,,,,,,engine,70,87,silent,blue,1641.7415430999827,None,None,1641.7415430999827,None,,,,,,,,,,,,,,,,,,,,,,,,,,,,,,19,001,2023_Mar_08_0947,ExactRep-v3-final,2021.2.3,59.85221290540454,
,,,,,,,,87,0,87,0,,,,,,,,,,,,,,,,,,,,,,,,,,,,,,,,,,,,,,,,,,,,,,,,,,,,,1646.2438724001404,None,,,,,,,,,,,,,,,,,,,,,,,,,,,,,,,,,,,ocean,18,88,sing,white,1644.2447589000221,None,None,1644.2447589000221,None,,,,,,,,,,,,,,,,,,,,,,,,,,,,,,19,001,2023_Mar_08_0947,ExactRep-v3-final,2021.2.3,59.85221290540454,
,,,,,,,,88,0,88,0,,,,,,,,,,,,,,,,,,,,,,,,,,,,,,,,,,,,,,,,,,,,,,,,,,,,,1648.7460752001498,None,,,,,,,,,,,,,,,,,,,,,,,,,,,,,,,,,,,board,29,89,sing,white,1646.7446228000335,None,None,1646.7446228000335,None,,,,,,,,,,,,,,,,,,,,,,,,,,,,,,19,001,2023_Mar_08_0947,ExactRep-v3-final,2021.2.3,59.85221290540454,
,,,,,,,,89,0,89,0,,,,,,,,,,,,,,,,,,,,,,,,,,,,,,,,,,,,,,,,,,,,,,,,,,,,,1651.2655363001395,None,,,,,,,,,,,,,,,,,,,,,,,,,,,,,,,,,,,gift,15,90,sing,white,1649.2516251001507,None,None,1649.2516251001507,None,,,,,,,,,,,,,,,,,,,,,,,,,,,,,,19,001,2023_Mar_08_0947,ExactRep-v3-final,2021.2.3,59.85221290540454,
,,,,,,,,90,0,90,0,,,,,,,,,,,,,,,,,,,,,,,,,,,,,,,,,,,,,,,,,,,,,,,,,,,,,1653.7682303001639,None,,,,,,,,,,,,,,,,,,,,,,,,,,,,,,,,,,,string,82,91,aloud,red,1651.7686158001889,None,None,1651.7686158001889,None,,,,,,,,,,,,,,,,,,,,,,,,,,,,,,19,001,2023_Mar_08_0947,ExactRep-v3-final,2021.2.3,59.85221290540454,
,,,,,,,,91,0,91,0,,,,,,,,,,,,,,,,,,,,,,,,,,,,,,,,,,,,,,,,,,,,,,,,,,,,,1656.2871611001901,None,,,,,,,,,,,,,,,,,,,,,,,,,,,,,,,,,,,silence,99,92,aloud,red,1654.2742659000214,None,None,1654.2742659000214,None,,,,,,,,,,,,,,,,,,,,,,,,,,,,,,19,001,2023_Mar_08_0947,ExactRep-v3-final,2021.2.3,59.85221290540454,
,,,,,,,,92,0,92,0,,,,,,,,,,,,,,,,,,,,,,,,,,,,,,,,,,,,,,,,,,,,,,,,,,,,,1658.8064613000024,None,,,,,,,,,,,,,,,,,,,,,,,,,,,,,,,,,,,church,114,93,aloud,red,1656.7913567000069,None,None,1656.7913567000069,None,,,,,,,,,,,,,,,,,,,,,,,,,,,,,,19,001,2023_Mar_08_0947,ExactRep-v3-final,2021.2.3,59.85221290540454,
,,,,,,,,93,0,93,0,,,,,,,,,,,,,,,,,,,,,,,,,,,,,,,,,,,,,,,,,,,,,,,,,,,,,1661.3087286001537,None,,,,,,,,,,,,,,,,,,,,,,,,,,,,,,,,,,,power,57,94,silent,blue,1659.3068832000718,None,None,1659.3068832000718,None,,,,,,,,,,,,,,,,,,,,,,,,,,,,,,19,001,2023_Mar_08_0947,ExactRep-v3-final,2021.2.3,59.85221290540454,
,,,,,,,,94,0,94,0,,,,,,,,,,,,,,,,,,,,,,,,,,,,,,,,,,,,,,,,,,,,,,,,,,,,,1663.8281094999984,None,,,,,,,,,,,,,,,,,,,,,,,,,,,,,,,,,,,paper,105,95,aloud,red,1661.8197395000607,None,None,1661.8197395000607,None,,,,,,,,,,,,,,,,,,,,,,,,,,,,,,19,001,2023_Mar_08_0947,ExactRep-v3-final,2021.2.3,59.85221290540454,
,,,,,,,,95,0,95,0,,,,,,,,,,,,,,,,,,,,,,,,,,,,,,,,,,,,,,,,,,,,,,,,,,,,,1666.3472415001597,None,,,,,,,,,,,,,,,,,,,,,,,,,,,,,,,,,,,heaven,78,96,silent,blue,1664.3316729001235,None,None,1664.3316729001235,None,,,,,,,,,,,,,,,,,,,,,,,,,,,,,,19,001,2023_Mar_08_0947,ExactRep-v3-final,2021.2.3,59.85221290540454,
,,,,,,,,96,0,96,0,,,,,,,,,,,,,,,,,,,,,,,,,,,,,,,,,,,,,,,,,,,,,,,,,,,,,1668.849754899973,None,,,,,,,,,,,,,,,,,,,,,,,,,,,,,,,,,,,library,49,97,silent,blue,1666.848334300099,None,None,1666.848334300099,None,,,,,,,,,,,,,,,,,,,,,,,,,,,,,,19,001,2023_Mar_08_0947,ExactRep-v3-final,2021.2.3,59.85221290540454,
,,,,,,,,97,0,97,0,,,,,,,,,,,,,,,,,,,,,,,,,,,,,,,,,,,,,,,,,,,,,,,,,,,,,1671.3521372000687,None,,,,,,,,,,,,,,,,,,,,,,,,,,,,,,,,,,,duty,116,98,aloud,red,1669.3502631001174,None,None,1669.3502631001174,None,,,,,,,,,,,,,,,,,,,,,,,,,,,,,,19,001,2023_Mar_08_0947,ExactRep-v3-final,2021.2.3,59.85221290540454,
,,,,,,,,98,0,98,0,,,,,,,,,,,,,,,,,,,,,,,,,,,,,,,,,,,,,,,,,,,,,,,,,,,,,1673.8714258000255,None,,,,,,,,,,,,,,,,,,,,,,,,,,,,,,,,,,,boulder,0,99,sing,white,1671.8610298000276,None,None,1671.8610298000276,None,,,,,,,,,,,,,,,,,,,,,,,,,,,,,,19,001,2023_Mar_08_0947,ExactRep-v3-final,2021.2.3,59.85221290540454,
,,,,,,,,99,0,99,0,,,,,,,,,,,,,,,,,,,,,,,,,,,,,,,,,,,,,,,,,,,,,,,,,,,,,1676.3739915001206,None,,,,,,,,,,,,,,,,,,,,,,,,,,,,,,,,,,,series,96,100,aloud,red,1674.372023000149,None,None,1674.372023000149,None,,,,,,,,,,,,,,,,,,,,,,,,,,,,,,19,001,2023_Mar_08_0947,ExactRep-v3-final,2021.2.3,59.85221290540454,
,,,,,,,,100,0,100,0,,,,,,,,,,,,,,,,,,,,,,,,,,,,,,,,,,,,,,,,,,,,,,,,,,,,,1678.8763914001174,None,,,,,,,,,,,,,,,,,,,,,,,,,,,,,,,,,,,girl,2,101,sing,white,1676.8743559999857,None,None,1676.8743559999857,None,,,,,,,,,,,,,,,,,,,,,,,,,,,,,,19,001,2023_Mar_08_0947,ExactRep-v3-final,2021.2.3,59.85221290540454,
,,,,,,,,101,0,101,0,,,,,,,,,,,,,,,,,,,,,,,,,,,,,,,,,,,,,,,,,,,,,,,,,,,,,1681.3956771001685,None,,,,,,,,,,,,,,,,,,,,,,,,,,,,,,,,,,,air,113,102,aloud,red,1679.3806300000288,None,None,1679.3806300000288,None,,,,,,,,,,,,,,,,,,,,,,,,,,,,,,19,001,2023_Mar_08_0947,ExactRep-v3-final,2021.2.3,59.85221290540454,
,,,,,,,,102,0,102,0,,,,,,,,,,,,,,,,,,,,,,,,,,,,,,,,,,,,,,,,,,,,,,,,,,,,,1683.8982323000673,None,,,,,,,,,,,,,,,,,,,,,,,,,,,,,,,,,,,custom,110,103,aloud,red,1681.8975029999856,None,None,1681.8975029999856,None,,,,,,,,,,,,,,,,,,,,,,,,,,,,,,19,001,2023_Mar_08_0947,ExactRep-v3-final,2021.2.3,59.85221290540454,
,,,,,,,,103,0,103,0,,,,,,,,,,,,,,,,,,,,,,,,,,,,,,,,,,,,,,,,,,,,,,,,,,,,,1686.4007041000295,None,,,,,,,,,,,,,,,,,,,,,,,,,,,,,,,,,,,door,20,104,sing,white,1684.4005764999893,None,None,1684.4005764999893,None,,,,,,,,,,,,,,,,,,,,,,,,,,,,,,19,001,2023_Mar_08_0947,ExactRep-v3-final,2021.2.3,59.85221290540454,
,,,,,,,,104,0,104,0,,,,,,,,,,,,,,,,,,,,,,,,,,,,,,,,,,,,,,,,,,,,,,,,,,,,,1688.9198778001592,None,,,,,,,,,,,,,,,,,,,,,,,,,,,,,,,,,,,steam,83,105,aloud,red,1686.9066686001606,None,None,1686.9066686001606,None,,,,,,,,,,,,,,,,,,,,,,,,,,,,,,19,001,2023_Mar_08_0947,ExactRep-v3-final,2021.2.3,59.85221290540454,
,,,,,,,,105,0,105,0,,,,,,,,,,,,,,,,,,,,,,,,,,,,,,,,,,,,,,,,,,,,,,,,,,,,,1691.4390528001823,None,,,,,,,,,,,,,,,,,,,,,,,,,,,,,,,,,,,street,89,106,aloud,red,1689.4246300000232,None,None,1689.4246300000232,None,,,,,,,,,,,,,,,,,,,,,,,,,,,,,,19,001,2023_Mar_08_0947,ExactRep-v3-final,2021.2.3,59.85221290540454,
,,,,,,,,106,0,106,0,,,,,,,,,,,,,,,,,,,,,,,,,,,,,,,,,,,,,,,,,,,,,,,,,,,,,1693.9415494001005,None,,,,,,,,,,,,,,,,,,,,,,,,,,,,,,,,,,,chance,66,107,silent,blue,1691.940438900143,None,None,1691.940438900143,None,,,,,,,,,,,,,,,,,,,,,,,,,,,,,,19,001,2023_Mar_08_0947,ExactRep-v3-final,2021.2.3,59.85221290540454,
,,,,,,,,107,0,107,0,,,,,,,,,,,,,,,,,,,,,,,,,,,,,,,,,,,,,,,,,,,,,,,,,,,,,1696.4440535001922,None,,,,,,,,,,,,,,,,,,,,,,,,,,,,,,,,,,,breast,73,108,silent,blue,1694.4438190001529,None,None,1694.4438190001529,None,,,,,,,,,,,,,,,,,,,,,,,,,,,,,,19,001,2023_Mar_08_0947,ExactRep-v3-final,2021.2.3,59.85221290540454,
,,,,,,,,108,0,108,0,,,,,,,,,,,,,,,,,,,,,,,,,,,,,,,,,,,,,,,,,,,,,,,,,,,,,1698.9465562000405,None,,,,,,,,,,,,,,,,,,,,,,,,,,,,,,,,,,,victory,117,109,aloud,red,1696.944530799985,None,None,1696.944530799985,None,,,,,,,,,,,,,,,,,,,,,,,,,,,,,,19,001,2023_Mar_08_0947,ExactRep-v3-final,2021.2.3,59.85221290540454,
,,,,,,,,109,0,109,0,,,,,,,,,,,,,,,,,,,,,,,,,,,,,,,,,,,,,,,,,,,,,,,,,,,,,1701.465780199971,None,,,,,,,,,,,,,,,,,,,,,,,,,,,,,,,,,,,maiden,37,110,sing,white,1699.4504131001886,None,None,1699.4504131001886,None,,,,,,,,,,,,,,,,,,,,,,,,,,,,,,19,001,2023_Mar_08_0947,ExactRep-v3-final,2021.2.3,59.85221290540454,
,,,,,,,,110,0,110,0,,,,,,,,,,,,,,,,,,,,,,,,,,,,,,,,,,,,,,,,,,,,,,,,,,,,,1703.968180499971,None,,,,,,,,,,,,,,,,,,,,,,,,,,,,,,,,,,,coast,72,111,silent,blue,1701.9672077000141,None,None,1701.9672077000141,None,,,,,,,,,,,,,,,,,,,,,,,,,,,,,,19,001,2023_Mar_08_0947,ExactRep-v3-final,2021.2.3,59.85221290540454,
,,,,,,,,111,0,111,0,,,,,,,,,,,,,,,,,,,,,,,,,,,,,,,,,,,,,,,,,,,,,,,,,,,,,1706.4707251000218,None,,,,,,,,,,,,,,,,,,,,,,,,,,,,,,,,,,,method,40,112,silent,blue,1704.4689776001032,None,None,1704.4689776001032,None,,,,,,,,,,,,,,,,,,,,,,,,,,,,,,19,001,2023_Mar_08_0947,ExactRep-v3-final,2021.2.3,59.85221290540454,
,,,,,,,,112,0,112,0,,,,,,,,,,,,,,,,,,,,,,,,,,,,,,,,,,,,,,,,,,,,,,,,,,,,,1708.9730418000836,None,,,,,,,,,,,,,,,,,,,,,,,,,,,,,,,,,,,boy,62,113,silent,blue,1706.9732272000983,None,None,1706.9732272000983,None,,,,,,,,,,,,,,,,,,,,,,,,,,,,,,19,001,2023_Mar_08_0947,ExactRep-v3-final,2021.2.3,59.85221290540454,
,,,,,,,,113,0,113,0,,,,,,,,,,,,,,,,,,,,,,,,,,,,,,,,,,,,,,,,,,,,,,,,,,,,,1711.4925179001875,None,,,,,,,,,,,,,,,,,,,,,,,,,,,,,,,,,,,river,12,114,sing,white,1709.4769403999671,None,None,1709.4769403999671,None,,,,,,,,,,,,,,,,,,,,,,,,,,,,,,19,001,2023_Mar_08_0947,ExactRep-v3-final,2021.2.3,59.85221290540454,
,,,,,,,,114,0,114,0,,,,,,,,,,,,,,,,,,,,,,,,,,,,,,,,,,,,,,,,,,,,,,,,,,,,,1714.011595300166,None,,,,,,,,,,,,,,,,,,,,,,,,,,,,,,,,,,,home,46,115,silent,blue,1712.000393900089,None,None,1712.000393900089,None,,,,,,,,,,,,,,,,,,,,,,,,,,,,,,19,001,2023_Mar_08_0947,ExactRep-v3-final,2021.2.3,59.85221290540454,
,,,,,,,,115,0,115,0,,,,,,,,,,,,,,,,,,,,,,,,,,,,,,,,,,,,,,,,,,,,,,,,,,,,,1716.5141364000738,None,,,,,,,,,,,,,,,,,,,,,,,,,,,,,,,,,,,grief,26,116,sing,white,1714.5128558999859,None,None,1714.5128558999859,None,,,,,,,,,,,,,,,,,,,,,,,,,,,,,,19,001,2023_Mar_08_0947,ExactRep-v3-final,2021.2.3,59.85221290540454,
,,,,,,,,116,0,116,0,,,,,,,,,,,,,,,,,,,,,,,,,,,,,,,,,,,,,,,,,,,,,,,,,,,,,1719.0166605999693,None,,,,,,,,,,,,,,,,,,,,,,,,,,,,,,,,,,,master,76,117,silent,blue,1717.0176289000083,None,None,1717.0176289000083,None,,,,,,,,,,,,,,,,,,,,,,,,,,,,,,19,001,2023_Mar_08_0947,ExactRep-v3-final,2021.2.3,59.85221290540454,
,,,,,,,,117,0,117,0,,,,,,,,,,,,,,,,,,,,,,,,,,,,,,,,,,,,,,,,,,,,,,,,,,,,,1721.5191478000488,None,,,,,,,,,,,,,,,,,,,,,,,,,,,,,,,,,,,spirit,58,118,silent,blue,1719.5187455001287,None,None,1719.5187455001287,None,,,,,,,,,,,,,,,,,,,,,,,,,,,,,,19,001,2023_Mar_08_0947,ExactRep-v3-final,2021.2.3,59.85221290540454,
,,,,,,,,118,0,118,0,,,,,,,,,,,,,,,,,,,,,,,,,,,,,,,,,,,,,,,,,,,,,,,,,,,,,1724.0382692001294,None,,,,,,,,,,,,,,,,,,,,,,,,,,,,,,,,,,,bottle,84,119,aloud,red,1722.0240590001922,None,None,1722.0240590001922,None,,,,,,,,,,,,,,,,,,,,,,,,,,,,,,19,001,2023_Mar_08_0947,ExactRep-v3-final,2021.2.3,59.85221290540454,
,,,,,,,,119,0,119,0,,,,,,,,,,,,,,,,,,,,,,,,,,,,,,,,,,,,,,,,,,,,,,,,,,,,,1726.5408306000754,None,,,,,,,,,,,,,,,,,,,,,,,,,,,,,,,,,,,passion,47,120,silent,blue,1724.5408632999752,None,None,1724.5408632999752,None,,,,,,,,,,,,,,,,,,,,,,,,,,,,,,19,001,2023_Mar_08_0947,ExactRep-v3-final,2021.2.3,59.85221290540454,
,,,,,,,,,,,,,,,,,,,,,,,,,,,,,,,,,,,,,,,,,,,,,,,,,,,,,,,,,,,,,,,,,,,,,,,,,,,,,,,,,,,,,,,,,,,,,,,,,,,,,,,,,,,,,,1727.0428483001888,None,space,8.656480300007388,1737.0192503000144,None,,,,,,,,,,,,,,,,,,,,,,,,19,001,2023_Mar_08_0947,ExactRep-v3-final,2021.2.3,59.85221290540454,
,,,,,,,,,,,,,,,,,,,,,,,,,,,,,,,,,,,,,,,,,,,,,,,,,,,,,,,,,,,,,,,,,,,,,,,,,,,,,,,,,,,,,,,,,,,,,,,,,,,,,,,,,,,,,,,,,,,,1745.6951258000918,None,space,30.18854900007136,1755.6712222001515,None,,,,,,,,,,,,,,,,,,19,001,2023_Mar_08_0947,ExactRep-v3-final,2021.2.3,59.85221290540454,
,,,,,,,,,,,,0,0,0,0,,,,,,,,,,,,,,,,,,,,,,,,,,,,,,,,,,,,,,,,,,,,,,,,,1795.2092625000514,None,,,,,,,,,,,,,,,,,,,,,,,,,,,,,,,,,,,,,,,,,,,,,,,,,,,,,,,,,ocean,18,1,sing,old,yellow,1786.3951177999843,None,y,1786.3951177999843,None,"['y', 'return']","[1.720364399952814, 8.776415300089866]",1786.3951177999843,None,,,19,001,2023_Mar_08_0947,ExactRep-v3-final,2021.2.3,59.85221290540454,
,,,,,,,,,,,,1,0,1,0,,,,,,,,,,,,,,,,,,,,,,,,,,,,,,,,,,,,,,,,,,,,,,,,,1798.0120635000058,None,,,,,,,,,,,,,,,,,,,,,,,,,,,,,,,,,,,,,,,,,,,,,,,,,,,,,,,,,breast,73,2,silent,old,yellow,1795.7132447999902,None,y,1795.7132447999902,None,"['y', 'return']","[1.4982471000403166, 2.25828339997679]",1795.7132447999902,None,,,19,001,2023_Mar_08_0947,ExactRep-v3-final,2021.2.3,59.85221290540454,
,,,,,,,,,,,,2,0,2,0,,,,,,,,,,,,,,,,,,,,,,,,,,,,,,,,,,,,,,,,,,,,,,,,,1801.315440800041,None,,,,,,,,,,,,,,,,,,,,,,,,,,,,,,,,,,,,,,,,,,,,,,,,,,,,,,,,,prison,127,3,silent,new,yellow,1798.5214244001545,None,n,1798.5214244001545,None,"['n', 'return']","[1.8342357000801712, 2.762085299938917]",1798.5214244001545,None,,,19,001,2023_Mar_08_0947,ExactRep-v3-final,2021.2.3,59.85221290540454,
,,,,,,,,,,,,3,0,3,0,,,,,,,,,,,,,,,,,,,,,,,,,,,,,,,,,,,,,,,,,,,,,,,,,1803.6177372999955,None,,,,,,,,,,,,,,,,,,,,,,,,,,,,,,,,,,,,,,,,,,,,,,,,,,,,,,,,,queen,48,4,silent,old,yellow,1801.826094100019,None,y,1801.826094100019,None,"['y', 'return']","[1.3134176000021398, 1.7534615998156369]",1801.826094100019,None,,,19,001,2023_Mar_08_0947,ExactRep-v3-final,2021.2.3,59.85221290540454,
,,,,,,,,,,,,4,0,4,0,,,,,,,,,,,,,,,,,,,,,,,,,,,,,,,,,,,,,,,,,,,,,,,,,1805.5696597001515,None,,,,,,,,,,,,,,,,,,,,,,,,,,,,,,,,,,,,,,,,,,,,,,,,,,,,,,,,,earth,14,5,sing,old,yellow,1804.1312390000094,None,y,1804.1312390000094,None,"['y', 'return']","[0.9923659998457879, 1.3923014998435974]",1804.1312390000094,None,,,19,001,2023_Mar_08_0947,ExactRep-v3-final,2021.2.3,59.85221290540454,
,,,,,,,,,,,,5,0,5,0,,,,,,,,,,,,,,,,,,,,,,,,,,,,,,,,,,,,,,,,,,,,,,,,,1807.7552092999686,None,,,,,,,,,,,,,,,,,,,,,,,,,,,,,,,,,,,,,,,,,,,,,,,,,,,,,,,,,boy,62,6,silent,old,yellow,1806.081933800131,None,n,1806.081933800131,None,"['n', 'return']","[1.2655766000971198, 1.633598200045526]",1806.081933800131,None,,,19,001,2023_Mar_08_0947,ExactRep-v3-final,2021.2.3,59.85221290540454,
,,,,,,,,,,,,6,0,6,0,,,,,,,,,,,,,,,,,,,,,,,,,,,,,,,,,,,,,,,,,,,,,,,,,1810.4411575000267,None,,,,,,,,,,,,,,,,,,,,,,,,,,,,,,,,,,,,,,,,,,,,,,,,,,,,,,,,,memory,61,7,silent,old,yellow,1808.263418200193,None,n,1808.263418200193,None,"['n', 'return']","[1.7880939999595284, 2.1321370999794453]",1808.263418200193,None,,,19,001,2023_Mar_08_0947,ExactRep-v3-final,2021.2.3,59.85221290540454,
,,,,,,,,,,,,7,0,7,0,,,,,,,,,,,,,,,,,,,,,,,,,,,,,,,,,,,,,,,,,,,,,,,,,1812.3765716000926,None,,,,,,,,,,,,,,,,,,,,,,,,,,,,,,,,,,,,,,,,,,,,,,,,,,,,,,,,,wine,187,8,sing,new,yellow,1810.9523740001023,None,n,1810.9523740001023,None,"['n', 'return']","[1.0671959000173956, 1.3871494000777602]",1810.9523740001023,None,,,19,001,2023_Mar_08_0947,ExactRep-v3-final,2021.2.3,59.85221290540454,
,,,,,,,,,,,,8,0,8,0,,,,,,,,,,,,,,,,,,,,,,,,,,,,,,,,,,,,,,,,,,,,,,,,,1814.9957000000868,None,,,,,,,,,,,,,,,,,,,,,,,,,,,,,,,,,,,,,,,,,,,,,,,,,,,,,,,,,cost,5,9,sing,old,yellow,1812.886491100071,None,n,1812.886491100071,None,"['n', 'return']","[1.5250447001308203, 2.069102399982512]",1812.886491100071,None,,,19,001,2023_Mar_08_0947,ExactRep-v3-final,2021.2.3,59.85221290540454,
,,,,,,,,,,,,9,0,9,0,,,,,,,,,,,,,,,,,,,,,,,,,,,,,,,,,,,,,,,,,,,,,,,,,1816.9311415001284,None,,,,,,,,,,,,,,,,,,,,,,,,,,,,,,,,,,,,,,,,,,,,,,,,,,,,,,,,,victory,117,10,aloud,old,yellow,1815.4963469000068,None,y,1815.4963469000068,None,"['y', 'return']","[1.067147099878639, 1.3872579999733716]",1815.4963469000068,None,,,19,001,2023_Mar_08_0947,ExactRep-v3-final,2021.2.3,59.85221290540454,
,,,,,,,,,,,,10,0,10,0,,,,,,,,,,,,,,,,,,,,,,,,,,,,,,,,,,,,,,,,,,,,,,,,,1819.066434300039,None,,,,,,,,,,,,,,,,,,,,,,,,,,,,,,,,,,,,,,,,,,,,,,,,,,,,,,,,,home,46,11,silent,old,yellow,1817.4384560000617,None,n,1817.4384560000617,None,"['n', 'return']","[1.269067500019446, 1.5891501000151038]",1817.4384560000617,None,,,19,001,2023_Mar_08_0947,ExactRep-v3-final,2021.2.3,59.85221290540454,
,,,,,,,,,,,,11,0,11,0,,,,,,,,,,,,,,,,,,,,,,,,,,,,,,,,,,,,,,,,,,,,,,,,,1820.93507830007,None,,,,,,,,,,,,,,,,,,,,,,,,,,,,,,,,,,,,,,,,,,,,,,,,,,,,,,,,,picture,195,12,sing,new,yellow,1819.5770566000137,None,n,1819.5770566000137,None,"['n', 'return']","[1.0184645000845194, 1.3225374999456108]",1819.5770566000137,None,,,19,001,2023_Mar_08_0947,ExactRep-v3-final,2021.2.3,59.85221290540454,
,,,,,,,,,,,,12,0,12,0,,,,,,,,,,,,,,,,,,,,,,,,,,,,,,,,,,,,,,,,,,,,,,,,,1823.3540808001999,None,,,,,,,,,,,,,,,,,,,,,,,,,,,,,,,,,,,,,,,,,,,,,,,,,,,,,,,,,charm,93,13,aloud,old,yellow,1821.440703800181,None,y,1821.440703800181,None,"['y', 'return']","[1.530876399949193, 1.8669030000455678]",1821.440703800181,None,,,19,001,2023_Mar_08_0947,ExactRep-v3-final,2021.2.3,59.85221290540454,
,,,,,,,,,,,,13,0,13,0,,,,,,,,,,,,,,,,,,,,,,,,,,,,,,,,,,,,,,,,,,,,,,,,,1825.1226613000035,None,,,,,,,,,,,,,,,,,,,,,,,,,,,,,,,,,,,,,,,,,,,,,,,,,,,,,,,,,cat,151,14,silent,new,yellow,1823.8547635001596,None,n,1823.8547635001596,None,"['n', 'return']","[0.9247681999113411, 1.228839699877426]",1823.8547635001596,None,,,19,001,2023_Mar_08_0947,ExactRep-v3-final,2021.2.3,59.85221290540454,
,,,,,,,,,,,,14,0,14,0,,,,,,,,,,,,,,,,,,,,,,,,,,,,,,,,,,,,,,,,,,,,,,,,,1826.9912787000649,None,,,,,,,,,,,,,,,,,,,,,,,,,,,,,,,,,,,,,,,,,,,,,,,,,,,,,,,,,spirit,58,15,silent,old,yellow,1825.6324065001681,None,n,1825.6324065001681,None,"['n', 'return']","[0.9312101998366416, 1.3150928998365998]",1825.6324065001681,None,,,19,001,2023_Mar_08_0947,ExactRep-v3-final,2021.2.3,59.85221290540454,
,,,,,,,,,,,,15,0,15,0,,,,,,,,,,,,,,,,,,,,,,,,,,,,,,,,,,,,,,,,,,,,,,,,,1828.809528300073,None,,,,,,,,,,,,,,,,,,,,,,,,,,,,,,,,,,,,,,,,,,,,,,,,,,,,,,,,,science,179,16,sing,new,yellow,1827.5019953001756,None,n,1827.5019953001756,None,"['n', 'return']","[0.925521899946034, 1.269698000047356]",1827.5019953001756,None,,,19,001,2023_Mar_08_0947,ExactRep-v3-final,2021.2.3,59.85221290540454,
,,,,,,,,,,,,16,0,16,0,,,,,,,,,,,,,,,,,,,,,,,,,,,,,,,,,,,,,,,,,,,,,,,,,1834.765478900168,None,,,,,,,,,,,,,,,,,,,,,,,,,,,,,,,,,,,,,,,,,,,,,,,,,,,,,,,,,water,223,17,sing,new,yellow,1829.32127700001,None,y,1829.32127700001,None,"['y', 'return']","[2.3546122000552714, 5.410216900054365]",1829.32127700001,None,,,19,001,2023_Mar_08_0947,ExactRep-v3-final,2021.2.3,59.85221290540454,
,,,,,,,,,,,,17,0,17,0,,,,,,,,,,,,,,,,,,,,,,,,,,,,,,,,,,,,,,,,,,,,,,,,,1837.0344323001336,None,,,,,,,,,,,,,,,,,,,,,,,,,,,,,,,,,,,,,,,,,,,,,,,,,,,,,,,,,excuse,115,18,aloud,old,yellow,1835.2740958000068,None,y,1835.2740958000068,None,"['y', 'return']","[1.3774333000183105, 1.7214929999317974]",1835.2740958000068,None,,,19,001,2023_Mar_08_0947,ExactRep-v3-final,2021.2.3,59.85221290540454,
,,,,,,,,,,,,18,0,18,0,,,,,,,,,,,,,,,,,,,,,,,,,,,,,,,,,,,,,,,,,,,,,,,,,1838.886363600148,None,,,,,,,,,,,,,,,,,,,,,,,,,,,,,,,,,,,,,,,,,,,,,,,,,,,,,,,,,product,178,19,aloud,new,yellow,1837.5423145000823,None,n,1837.5423145000823,None,"['n', 'return']","[0.9891972998157144, 1.301206599920988]",1837.5423145000823,None,,,19,001,2023_Mar_08_0947,ExactRep-v3-final,2021.2.3,59.85221290540454,
,,,,,,,,,,,,19,0,19,0,,,,,,,,,,,,,,,,,,,,,,,,,,,,,,,,,,,,,,,,,,,,,,,,,1840.704759699991,None,,,,,,,,,,,,,,,,,,,,,,,,,,,,,,,,,,,,,,,,,,,,,,,,,,,,,,,,,valley,155,20,silent,new,yellow,1839.39381769998,None,n,1839.39381769998,None,"['n', 'return']","[0.9617288000881672, 1.2656283001415431]",1839.39381769998,None,,,19,001,2023_Mar_08_0947,ExactRep-v3-final,2021.2.3,59.85221290540454,
,,,,,,,,,,,,20,0,20,0,,,,,,,,,,,,,,,,,,,,,,,,,,,,,,,,,,,,,,,,,,,,,,,,,1842.4732006001286,None,,,,,,,,,,,,,,,,,,,,,,,,,,,,,,,,,,,,,,,,,,,,,,,,,,,,,,,,,table,64,21,silent,old,yellow,1841.2147962001618,None,n,1841.2147962001618,None,"['n', 'return']","[0.8847425999119878, 1.2208426999859512]",1841.2147962001618,None,,,19,001,2023_Mar_08_0947,ExactRep-v3-final,2021.2.3,59.85221290540454,
,,,,,,,,,,,,21,0,21,0,,,,,,,,,,,,,,,,,,,,,,,,,,,,,,,,,,,,,,,,,,,,,,,,,1844.558694300009,None,,,,,,,,,,,,,,,,,,,,,,,,,,,,,,,,,,,,,,,,,,,,,,,,,,,,,,,,,fun,213,22,sing,new,yellow,1842.980765500106,None,n,1842.980765500106,None,"['n', 'return']","[1.2468693000264466, 1.5347985001280904]",1842.980765500106,None,,,19,001,2023_Mar_08_0947,ExactRep-v3-final,2021.2.3,59.85221290540454,
,,,,,,,,,,,,22,0,22,0,,,,,,,,,,,,,,,,,,,,,,,,,,,,,,,,,,,,,,,,,,,,,,,,,1847.745120699983,None,,,,,,,,,,,,,,,,,,,,,,,,,,,,,,,,,,,,,,,,,,,,,,,,,,,,,,,,,engine,70,23,silent,old,yellow,1845.06933009997,None,n,1845.06933009997,None,"['n', 'return']","[2.2782178001943976, 2.638283899985254]",1845.06933009997,None,,,19,001,2023_Mar_08_0947,ExactRep-v3-final,2021.2.3,59.85221290540454,
,,,,,,,,,,,,23,0,23,0,,,,,,,,,,,,,,,,,,,,,,,,,,,,,,,,,,,,,,,,,,,,,,,,,1849.7471267001238,None,,,,,,,,,,,,,,,,,,,,,,,,,,,,,,,,,,,,,,,,,,,,,,,,,,,,,,,,,truth,124,24,silent,new,yellow,1848.249230200192,None,n,1848.249230200192,None,"['n', 'return']","[1.1783046999480575, 1.450347200036049]",1848.249230200192,None,,,19,001,2023_Mar_08_0947,ExactRep-v3-final,2021.2.3,59.85221290540454,
,,,,,,,,,,,,24,0,24,0,,,,,,,,,,,,,,,,,,,,,,,,,,,,,,,,,,,,,,,,,,,,,,,,,1851.5322610000148,None,,,,,,,,,,,,,,,,,,,,,,,,,,,,,,,,,,,,,,,,,,,,,,,,,,,,,,,,,owner,138,25,silent,new,yellow,1850.2574841000605,None,n,1850.2574841000605,None,"['n', 'return']","[0.9620710001327097, 1.2420531001407653]",1850.2574841000605,None,,,19,001,2023_Mar_08_0947,ExactRep-v3-final,2021.2.3,59.85221290540454,
,,,,,,,,,,,,25,0,25,0,,,,,,,,,,,,,,,,,,,,,,,,,,,,,,,,,,,,,,,,,,,,,,,,,1853.234110899968,None,,,,,,,,,,,,,,,,,,,,,,,,,,,,,,,,,,,,,,,,,,,,,,,,,,,,,,,,,hide,28,26,sing,old,yellow,1852.0406090000179,None,n,1852.0406090000179,None,"['n', 'return']","[0.8671001000329852, 1.1470639000181109]",1852.0406090000179,None,,,19,001,2023_Mar_08_0947,ExactRep-v3-final,2021.2.3,59.85221290540454,
,,,,,,,,,,,,26,0,26,0,,,,,,,,,,,,,,,,,,,,,,,,,,,,,,,,,,,,,,,,,,,,,,,,,1855.0192277000751,None,,,,,,,,,,,,,,,,,,,,,,,,,,,,,,,,,,,,,,,,,,,,,,,,,,,,,,,,,door,20,27,sing,old,yellow,1853.744280599989,None,y,1853.744280599989,None,"['y', 'return']","[0.8752153001260012, 1.2353406001348048]",1853.744280599989,None,,,19,001,2023_Mar_08_0947,ExactRep-v3-final,2021.2.3,59.85221290540454,
,,,,,,,,,,,,27,0,27,0,,,,,,,,,,,,,,,,,,,,,,,,,,,,,,,,,,,,,,,,,,,,,,,,,1856.6708112000488,None,,,,,,,,,,,,,,,,,,,,,,,,,,,,,,,,,,,,,,,,,,,,,,,,,,,,,,,,,deed,225,28,sing,new,yellow,1855.5290816000197,None,n,1855.5290816000197,None,"['n', 'return']","[0.8264504999388009, 1.1065048999153078]",1855.5290816000197,None,,,19,001,2023_Mar_08_0947,ExactRep-v3-final,2021.2.3,59.85221290540454,
,,,,,,,,,,,,28,0,28,0,,,,,,,,,,,,,,,,,,,,,,,,,,,,,,,,,,,,,,,,,,,,,,,,,1858.456089900108,None,,,,,,,,,,,,,,,,,,,,,,,,,,,,,,,,,,,,,,,,,,,,,,,,,,,,,,,,,insect,42,29,silent,old,yellow,1857.1886605001055,None,y,1857.1886605001055,None,"['y', 'return']","[0.9029155999887735, 1.222829599864781]",1857.1886605001055,None,,,19,001,2023_Mar_08_0947,ExactRep-v3-final,2021.2.3,59.85221290540454,
,,,,,,,,,,,,29,0,29,0,,,,,,,,,,,,,,,,,,,,,,,,,,,,,,,,,,,,,,,,,,,,,,,,,1860.9584302001167,None,,,,,,,,,,,,,,,,,,,,,,,,,,,,,,,,,,,,,,,,,,,,,,,,,,,,,,,,,effort,230,30,aloud,new,yellow,1858.9658190000337,None,n,1858.9658190000337,None,"['n', 'return']","[1.685728499898687, 1.9577581000048667]",1858.9658190000337,None,,,19,001,2023_Mar_08_0947,ExactRep-v3-final,2021.2.3,59.85221290540454,
,,,,,,,,,,,,30,0,30,0,,,,,,,,,,,,,,,,,,,,,,,,,,,,,,,,,,,,,,,,,,,,,,,,,1862.760117100086,None,,,,,,,,,,,,,,,,,,,,,,,,,,,,,,,,,,,,,,,,,,,,,,,,,,,,,,,,,season,218,31,aloud,new,yellow,1861.4681689001154,None,y,1861.4681689001154,None,"['y', 'return']","[0.9434841000474989, 1.2554272999987006]",1861.4681689001154,None,,,19,001,2023_Mar_08_0947,ExactRep-v3-final,2021.2.3,59.85221290540454,
,,,,,,,,,,,,31,0,31,0,,,,,,,,,,,,,,,,,,,,,,,,,,,,,,,,,,,,,,,,,,,,,,,,,1864.3951835001353,None,,,,,,,,,,,,,,,,,,,,,,,,,,,,,,,,,,,,,,,,,,,,,,,,,,,,,,,,,potato,21,32,sing,old,yellow,1863.2715778001584,None,n,1863.2715778001584,None,"['n', 'return']","[0.7959968999493867, 1.0920826999936253]",1863.2715778001584,None,,,19,001,2023_Mar_08_0947,ExactRep-v3-final,2021.2.3,59.85221290540454,
,,,,,,,,,,,,32,0,32,0,,,,,,,,,,,,,,,,,,,,,,,,,,,,,,,,,,,,,,,,,,,,,,,,,1866.2970146001317,None,,,,,,,,,,,,,,,,,,,,,,,,,,,,,,,,,,,,,,,,,,,,,,,,,,,,,,,,,fire,182,33,aloud,new,yellow,1864.9052093001083,None,n,1864.9052093001083,None,"['n', 'return']","[1.0586513001471758, 1.3464290001429617]",1864.9052093001083,None,,,19,001,2023_Mar_08_0947,ExactRep-v3-final,2021.2.3,59.85221290540454,
,,,,,,,,,,,,33,0,33,0,,,,,,,,,,,,,,,,,,,,,,,,,,,,,,,,,,,,,,,,,,,,,,,,,1869.4836961000692,None,,,,,,,,,,,,,,,,,,,,,,,,,,,,,,,,,,,,,,,,,,,,,,,,,,,,,,,,,fault,228,34,aloud,new,yellow,1866.8012661000248,None,n,1866.8012661000248,None,"['n', 'return']","[2.0103386999107897, 2.6422059000469744]",1866.8012661000248,None,,,19,001,2023_Mar_08_0947,ExactRep-v3-final,2021.2.3,59.85221290540454,
,,,,,,,,,,,,34,0,34,0,,,,,,,,,,,,,,,,,,,,,,,,,,,,,,,,,,,,,,,,,,,,,,,,,1871.3535870001651,None,,,,,,,,,,,,,,,,,,,,,,,,,,,,,,,,,,,,,,,,,,,,,,,,,,,,,,,,,maiden,37,35,sing,old,yellow,1869.988947500009,None,y,1869.988947500009,None,"['y', 'return']","[0.9746044999919832, 1.3264890999998897]",1869.988947500009,None,,,19,001,2023_Mar_08_0947,ExactRep-v3-final,2021.2.3,59.85221290540454,
,,,,,,,,,,,,35,0,35,0,,,,,,,,,,,,,,,,,,,,,,,,,,,,,,,,,,,,,,,,,,,,,,,,,1873.1206569999922,None,,,,,,,,,,,,,,,,,,,,,,,,,,,,,,,,,,,,,,,,,,,,,,,,,,,,,,,,,lad,68,36,silent,old,yellow,1871.8598587000743,None,n,1871.8598587000743,None,"['n', 'return']","[0.9597168997861445, 1.2237995998002589]",1871.8598587000743,None,,,19,001,2023_Mar_08_0947,ExactRep-v3-final,2021.2.3,59.85221290540454,
,,,,,,,,,,,,36,0,36,0,,,,,,,,,,,,,,,,,,,,,,,,,,,,,,,,,,,,,,,,,,,,,,,,,1876.40876570018,None,,,,,,,,,,,,,,,,,,,,,,,,,,,,,,,,,,,,,,,,,,,,,,,,,,,,,,,,,weapon,201,37,sing,new,yellow,1873.632106400095,None,y,1873.632106400095,None,"['y', 'return']","[2.139673699857667, 2.739581099944189]",1873.632106400095,None,,,19,001,2023_Mar_08_0947,ExactRep-v3-final,2021.2.3,59.85221290540454,
,,,,,,,,,,,,37,0,37,0,,,,,,,,,,,,,,,,,,,,,,,,,,,,,,,,,,,,,,,,,,,,,,,,,1878.3090347000398,None,,,,,,,,,,,,,,,,,,,,,,,,,,,,,,,,,,,,,,,,,,,,,,,,,,,,,,,,,troops,119,38,aloud,old,yellow,1876.9151218000334,None,y,1876.9151218000334,None,"['y', 'return']","[1.0484771998599172, 1.3604027000255883]",1876.9151218000334,None,,,19,001,2023_Mar_08_0947,ExactRep-v3-final,2021.2.3,59.85221290540454,
,,,,,,,,,,,,38,0,38,0,,,,,,,,,,,,,,,,,,,,,,,,,,,,,,,,,,,,,,,,,,,,,,,,,1880.0776339999866,None,,,,,,,,,,,,,,,,,,,,,,,,,,,,,,,,,,,,,,,,,,,,,,,,,,,,,,,,,coast,72,39,silent,old,yellow,1878.817394200014,None,y,1878.817394200014,None,"['y', 'return']","[0.914385600015521, 1.2262521998491138]",1878.817394200014,None,,,19,001,2023_Mar_08_0947,ExactRep-v3-final,2021.2.3,59.85221290540454,
,,,,,,,,,,,,39,0,39,0,,,,,,,,,,,,,,,,,,,,,,,,,,,,,,,,,,,,,,,,,,,,,,,,,1881.8459783000872,None,,,,,,,,,,,,,,,,,,,,,,,,,,,,,,,,,,,,,,,,,,,,,,,,,,,,,,,,,student,212,40,aloud,new,yellow,1880.585826799972,None,n,1880.585826799972,None,"['n', 'return']","[0.9617967000231147, 1.2177891000173986]",1880.585826799972,None,,,19,001,2023_Mar_08_0947,ExactRep-v3-final,2021.2.3,59.85221290540454,
,,,,,,,,,,,,40,0,40,0,,,,,,,,,,,,,,,,,,,,,,,,,,,,,,,,,,,,,,,,,,,,,,,,,1883.5976680000313,None,,,,,,,,,,,,,,,,,,,,,,,,,,,,,,,,,,,,,,,,,,,,,,,,,,,,,,,,,toy,94,41,aloud,old,yellow,1882.3573478001636,None,y,1882.3573478001636,None,"['y', 'return']","[0.8944310999941081, 1.1982383001595736]",1882.3573478001636,None,,,19,001,2023_Mar_08_0947,ExactRep-v3-final,2021.2.3,59.85221290540454,
,,,,,,,,,,,,41,0,41,0,,,,,,,,,,,,,,,,,,,,,,,,,,,,,,,,,,,,,,,,,,,,,,,,,1885.36608110019,None,,,,,,,,,,,,,,,,,,,,,,,,,,,,,,,,,,,,,,,,,,,,,,,,,,,,,,,,,butter,207,42,sing,new,yellow,1884.1097942001652,None,n,1884.1097942001652,None,"['n', 'return']","[0.9337955000810325, 1.2217254999559373]",1884.1097942001652,None,,,19,001,2023_Mar_08_0947,ExactRep-v3-final,2021.2.3,59.85221290540454,
,,,,,,,,,,,,42,0,42,0,,,,,,,,,,,,,,,,,,,,,,,,,,,,,,,,,,,,,,,,,,,,,,,,,1888.2356963001657,None,,,,,,,,,,,,,,,,,,,,,,,,,,,,,,,,,,,,,,,,,,,,,,,,,,,,,,,,,doctor,36,43,sing,old,yellow,1885.8759155001026,None,y,1885.8759155001026,None,"['y', 'return']","[2.0237175000365824, 2.327776800142601]",1885.8759155001026,None,,,19,001,2023_Mar_08_0947,ExactRep-v3-final,2021.2.3,59.85221290540454,
,,,,,,,,,,,,43,0,43,0,,,,,,,,,,,,,,,,,,,,,,,,,,,,,,,,,,,,,,,,,,,,,,,,,1892.7236154000275,None,,,,,,,,,,,,,,,,,,,,,,,,,,,,,,,,,,,,,,,,,,,,,,,,,,,,,,,,,city,184,44,aloud,new,yellow,1888.749452300137,None,n,1888.749452300137,None,"['n', 'return']","[3.3423220000695437, 3.942182500148192]",1888.749452300137,None,,,19,001,2023_Mar_08_0947,ExactRep-v3-final,2021.2.3,59.85221290540454,
,,,,,,,,,,,,44,0,44,0,,,,,,,,,,,,,,,,,,,,,,,,,,,,,,,,,,,,,,,,,,,,,,,,,1894.491868400015,None,,,,,,,,,,,,,,,,,,,,,,,,,,,,,,,,,,,,,,,,,,,,,,,,,,,,,,,,,passion,47,45,silent,old,yellow,1893.2346705000382,None,y,1893.2346705000382,None,"['y', 'return']","[0.9289476000703871, 1.2249738001264632]",1893.2346705000382,None,,,19,001,2023_Mar_08_0947,ExactRep-v3-final,2021.2.3,59.85221290540454,
,,,,,,,,,,,,45,0,45,0,,,,,,,,,,,,,,,,,,,,,,,,,,,,,,,,,,,,,,,,,,,,,,,,,1897.3947930000722,None,,,,,,,,,,,,,,,,,,,,,,,,,,,,,,,,,,,,,,,,,,,,,,,,,,,,,,,,,shadow,140,46,silent,new,yellow,1895.0009426001925,None,y,1895.0009426001925,None,"['y', 'return']","[1.754721299977973, 2.346699000103399]",1895.0009426001925,None,,,19,001,2023_Mar_08_0947,ExactRep-v3-final,2021.2.3,59.85221290540454,
,,,,,,,,,,,,46,0,46,0,,,,,,,,,,,,,,,,,,,,,,,,,,,,,,,,,,,,,,,,,,,,,,,,,1899.3467410001904,None,,,,,,,,,,,,,,,,,,,,,,,,,,,,,,,,,,,,,,,,,,,,,,,,,,,,,,,,,horse,9,47,sing,old,yellow,1897.9057785000186,None,n,1897.9057785000186,None,"['n', 'return']","[1.0577537000644952, 1.4017157999332994]",1897.9057785000186,None,,,19,001,2023_Mar_08_0947,ExactRep-v3-final,2021.2.3,59.85221290540454,
,,,,,,,,,,,,47,0,47,0,,,,,,,,,,,,,,,,,,,,,,,,,,,,,,,,,,,,,,,,,,,,,,,,,1901.0318219000474,None,,,,,,,,,,,,,,,,,,,,,,,,,,,,,,,,,,,,,,,,,,,,,,,,,,,,,,,,,law,193,48,sing,new,yellow,1899.851278200047,None,n,1899.851278200047,None,"['n', 'return']","[0.8483282001689076, 1.1363180000334978]",1899.851278200047,None,,,19,001,2023_Mar_08_0947,ExactRep-v3-final,2021.2.3,59.85221290540454,
,,,,,,,,,,,,48,0,48,0,,,,,,,,,,,,,,,,,,,,,,,,,,,,,,,,,,,,,,,,,,,,,,,,,1902.851591899991,None,,,,,,,,,,,,,,,,,,,,,,,,,,,,,,,,,,,,,,,,,,,,,,,,,,,,,,,,,officer,143,49,silent,new,yellow,1901.53727550013,None,n,1901.53727550013,None,"['n', 'return']","[0.9543039000127465, 1.266321700066328]",1901.53727550013,None,,,19,001,2023_Mar_08_0947,ExactRep-v3-final,2021.2.3,59.85221290540454,
,,,,,,,,,,,,49,0,49,0,,,,,,,,,,,,,,,,,,,,,,,,,,,,,,,,,,,,,,,,,,,,,,,,,1904.718769500032,None,,,,,,,,,,,,,,,,,,,,,,,,,,,,,,,,,,,,,,,,,,,,,,,,,,,,,,,,,love,164,50,aloud,new,yellow,1903.3605574001558,None,n,1903.3605574001558,None,"['n', 'return']","[1.003064800053835, 1.3150279999244958]",1903.3605574001558,None,,,19,001,2023_Mar_08_0947,ExactRep-v3-final,2021.2.3,59.85221290540454,
,,,,,,,,,,,,50,0,50,0,,,,,,,,,,,,,,,,,,,,,,,,,,,,,,,,,,,,,,,,,,,,,,,,,1906.520615800051,None,,,,,,,,,,,,,,,,,,,,,,,,,,,,,,,,,,,,,,,,,,,,,,,,,,,,,,,,,string,82,51,aloud,old,yellow,1905.2285076000262,None,y,1905.2285076000262,None,"['y', 'return']","[0.9031326998956501, 1.2551439998205751]",1905.2285076000262,None,,,19,001,2023_Mar_08_0947,ExactRep-v3-final,2021.2.3,59.85221290540454,
,,,,,,,,,,,,51,0,51,0,,,,,,,,,,,,,,,,,,,,,,,,,,,,,,,,,,,,,,,,,,,,,,,,,1908.422479200177,None,,,,,,,,,,,,,,,,,,,,,,,,,,,,,,,,,,,,,,,,,,,,,,,,,,,,,,,,,colony,118,52,aloud,old,yellow,1907.0245682999957,None,y,1907.0245682999957,None,"['y', 'return']","[1.0591656998731196, 1.3631032998673618]",1907.0245682999957,None,,,19,001,2023_Mar_08_0947,ExactRep-v3-final,2021.2.3,59.85221290540454,
,,,,,,,,,,,,52,0,52,0,,,,,,,,,,,,,,,,,,,,,,,,,,,,,,,,,,,,,,,,,,,,,,,,,1910.2743168000598,None,,,,,,,,,,,,,,,,,,,,,,,,,,,,,,,,,,,,,,,,,,,,,,,,,,,,,,,,,present,166,53,aloud,new,yellow,1908.934511500178,None,n,1908.934511500178,None,"['n', 'return']","[1.021216900087893, 1.3012216000352055]",1908.934511500178,None,,,19,001,2023_Mar_08_0947,ExactRep-v3-final,2021.2.3,59.85221290540454,
,,,,,,,,,,,,53,0,53,0,,,,,,,,,,,,,,,,,,,,,,,,,,,,,,,,,,,,,,,,,,,,,,,,,1912.0094600999728,None,,,,,,,,,,,,,,,,,,,,,,,,,,,,,,,,,,,,,,,,,,,,,,,,,,,,,,,,,honour,186,54,aloud,new,yellow,1910.7841821000911,None,n,1910.7841821000911,None,"['n', 'return']","[0.9234048000071198, 1.1795027998741716]",1910.7841821000911,None,,,19,001,2023_Mar_08_0947,ExactRep-v3-final,2021.2.3,59.85221290540454,
,,,,,,,,,,,,54,0,54,0,,,,,,,,,,,,,,,,,,,,,,,,,,,,,,,,,,,,,,,,,,,,,,,,,1913.7945040999912,None,,,,,,,,,,,,,,,,,,,,,,,,,,,,,,,,,,,,,,,,,,,,,,,,,,,,,,,,,cottage,27,55,sing,old,yellow,1912.5166802001186,None,y,1912.5166802001186,None,"['y', 'return']","[0.8949098999146372, 1.230930299963802]",1912.5166802001186,None,,,19,001,2023_Mar_08_0947,ExactRep-v3-final,2021.2.3,59.85221290540454,
,,,,,,,,,,,,55,0,55,0,,,,,,,,,,,,,,,,,,,,,,,,,,,,,,,,,,,,,,,,,,,,,,,,,1915.8466177000664,None,,,,,,,,,,,,,,,,,,,,,,,,,,,,,,,,,,,,,,,,,,,,,,,,,,,,,,,,,advice,69,56,silent,old,yellow,1914.3028365999926,None,n,1914.3028365999926,None,"['n', 'return']","[1.204860399942845, 1.508703599916771]",1914.3028365999926,None,,,19,001,2023_Mar_08_0947,ExactRep-v3-final,2021.2.3,59.85221290540454,
,,,,,,,,,,,,56,0,56,0,,,,,,,,,,,,,,,,,,,,,,,,,,,,,,,,,,,,,,,,,,,,,,,,,1917.6985566001385,None,,,,,,,,,,,,,,,,,,,,,,,,,,,,,,,,,,,,,,,,,,,,,,,,,,,,,,,,,master,76,57,silent,old,yellow,1916.3597309000324,None,n,1916.3597309000324,None,"['n', 'return']","[1.0038501999806613, 1.2999236001633108]",1916.3597309000324,None,,,19,001,2023_Mar_08_0947,ExactRep-v3-final,2021.2.3,59.85221290540454,
,,,,,,,,,,,,57,0,57,0,,,,,,,,,,,,,,,,,,,,,,,,,,,,,,,,,,,,,,,,,,,,,,,,,1920.2845066001173,None,,,,,,,,,,,,,,,,,,,,,,,,,,,,,,,,,,,,,,,,,,,,,,,,,,,,,,,,,fortune,203,58,sing,new,yellow,1918.2067733001895,None,n,1918.2067733001895,None,"['n', 'return']","[1.765117400093004, 2.0368840999435633]",1918.2067733001895,None,,,19,001,2023_Mar_08_0947,ExactRep-v3-final,2021.2.3,59.85221290540454,
,,,,,,,,,,,,58,0,58,0,,,,,,,,,,,,,,,,,,,,,,,,,,,,,,,,,,,,,,,,,,,,,,,,,1922.2863380000927,None,,,,,,,,,,,,,,,,,,,,,,,,,,,,,,,,,,,,,,,,,,,,,,,,,,,,,,,,,village,234,59,aloud,new,yellow,1920.7847739001736,None,y,1920.7847739001736,None,"['y', 'return']","[1.1549366998951882, 1.4588289998937398]",1920.7847739001736,None,,,19,001,2023_Mar_08_0947,ExactRep-v3-final,2021.2.3,59.85221290540454,
,,,,,,,,,,,,59,0,59,0,,,,,,,,,,,,,,,,,,,,,,,,,,,,,,,,,,,,,,,,,,,,,,,,,1924.2216291001532,None,,,,,,,,,,,,,,,,,,,,,,,,,,,,,,,,,,,,,,,,,,,,,,,,,,,,,,,,,health,134,60,silent,new,yellow,1922.796193000162,None,n,1922.796193000162,None,"['n', 'return']","[1.1434417001437396, 1.3913889999967068]",1922.796193000162,None,,,19,001,2023_Mar_08_0947,ExactRep-v3-final,2021.2.3,59.85221290540454,
,,,,,,,,,,,,60,0,60,0,,,,,,,,,,,,,,,,,,,,,,,,,,,,,,,,,,,,,,,,,,,,,,,,,1926.2070915000513,None,,,,,,,,,,,,,,,,,,,,,,,,,,,,,,,,,,,,,,,,,,,,,,,,,,,,,,,,,letter,8,61,sing,old,yellow,1924.7304136999883,None,y,1924.7304136999883,None,"['y', 'return']","[0.9372044999618083, 1.4414548000786453]",1924.7304136999883,None,,,19,001,2023_Mar_08_0947,ExactRep-v3-final,2021.2.3,59.85221290540454,
,,,,,,,,,,,,61,0,61,0,,,,,,,,,,,,,,,,,,,,,,,,,,,,,,,,,,,,,,,,,,,,,,,,,1927.8598315001,None,,,,,,,,,,,,,,,,,,,,,,,,,,,,,,,,,,,,,,,,,,,,,,,,,,,,,,,,,air,113,62,aloud,old,yellow,1926.7096419001464,None,n,1926.7096419001464,None,"['n', 'return']","[0.8140046000480652, 1.102089500054717]",1926.7096419001464,None,,,19,001,2023_Mar_08_0947,ExactRep-v3-final,2021.2.3,59.85221290540454,
,,,,,,,,,,,,62,0,62,0,,,,,,,,,,,,,,,,,,,,,,,,,,,,,,,,,,,,,,,,,,,,,,,,,1929.7772628001403,None,,,,,,,,,,,,,,,,,,,,,,,,,,,,,,,,,,,,,,,,,,,,,,,,,,,,,,,,,artist,25,63,sing,old,yellow,1928.3720572001766,None,y,1928.3720572001766,None,"['y', 'return']","[1.0477995001710951, 1.3676950000226498]",1928.3720572001766,None,,,19,001,2023_Mar_08_0947,ExactRep-v3-final,2021.2.3,59.85221290540454,
,,,,,,,,,,,,63,0,63,0,,,,,,,,,,,,,,,,,,,,,,,,,,,,,,,,,,,,,,,,,,,,,,,,,1931.566345400177,None,,,,,,,,,,,,,,,,,,,,,,,,,,,,,,,,,,,,,,,,,,,,,,,,,,,,,,,,,tool,120,64,silent,new,yellow,1930.284585500136,None,n,1930.284585500136,None,"['n', 'return']","[0.9832525001838803, 1.2389166001230478]",1930.284585500136,None,,,19,001,2023_Mar_08_0947,ExactRep-v3-final,2021.2.3,59.85221290540454,
,,,,,,,,,,,,64,0,64,0,,,,,,,,,,,,,,,,,,,,,,,,,,,,,,,,,,,,,,,,,,,,,,,,,1933.447435399983,None,,,,,,,,,,,,,,,,,,,,,,,,,,,,,,,,,,,,,,,,,,,,,,,,,,,,,,,,,kiss,79,65,sing,old,yellow,1932.0832241000608,None,n,1932.0832241000608,None,"['n', 'return']","[1.024565199855715, 1.3203533999621868]",1932.0832241000608,None,,,19,001,2023_Mar_08_0947,ExactRep-v3-final,2021.2.3,59.85221290540454,
,,,,,,,,,,,,65,0,65,0,,,,,,,,,,,,,,,,,,,,,,,,,,,,,,,,,,,,,,,,,,,,,,,,,1936.8008595001884,None,,,,,,,,,,,,,,,,,,,,,,,,,,,,,,,,,,,,,,,,,,,,,,,,,,,,,,,,,machine,238,66,aloud,new,yellow,1933.9620686001144,None,y,1933.9620686001144,None,"['y', 'return']","[2.1376445000059903, 2.7936478001065552]",1933.9620686001144,None,,,19,001,2023_Mar_08_0947,ExactRep-v3-final,2021.2.3,59.85221290540454,
,,,,,,,,,,,,66,0,66,0,,,,,,,,,,,,,,,,,,,,,,,,,,,,,,,,,,,,,,,,,,,,,,,,,1938.4524688001256,None,,,,,,,,,,,,,,,,,,,,,,,,,,,,,,,,,,,,,,,,,,,,,,,,,,,,,,,,,dust,144,67,silent,new,yellow,1937.3112025000155,None,n,1937.3112025000155,None,"['n', 'return']","[0.8205311999190599, 1.108455599984154]",1937.3112025000155,None,,,19,001,2023_Mar_08_0947,ExactRep-v3-final,2021.2.3,59.85221290540454,
,,,,,,,,,,,,67,0,67,0,,,,,,,,,,,,,,,,,,,,,,,,,,,,,,,,,,,,,,,,,,,,,,,,,1940.1042053999845,None,,,,,,,,,,,,,,,,,,,,,,,,,,,,,,,,,,,,,,,,,,,,,,,,,,,,,,,,,army,199,68,sing,new,yellow,1938.9615470999852,None,n,1938.9615470999852,None,"['n', 'return']","[0.8182200998999178, 1.0980400999542326]",1938.9615470999852,None,,,19,001,2023_Mar_08_0947,ExactRep-v3-final,2021.2.3,59.85221290540454,
,,,,,,,,,,,,68,0,68,0,,,,,,,,,,,,,,,,,,,,,,,,,,,,,,,,,,,,,,,,,,,,,,,,,1941.9060540001374,None,,,,,,,,,,,,,,,,,,,,,,,,,,,,,,,,,,,,,,,,,,,,,,,,,,,,,,,,,diamond,161,69,sing,new,yellow,1940.6140165000688,None,n,1940.6140165000688,None,"['n', 'return']","[0.9815558001864702, 1.2536328001879156]",1940.6140165000688,None,,,19,001,2023_Mar_08_0947,ExactRep-v3-final,2021.2.3,59.85221290540454,
,,,,,,,,,,,,69,0,69,0,,,,,,,,,,,,,,,,,,,,,,,,,,,,,,,,,,,,,,,,,,,,,,,,,1943.5577713001985,None,,,,,,,,,,,,,,,,,,,,,,,,,,,,,,,,,,,,,,,,,,,,,,,,,,,,,,,,,star,153,70,silent,new,yellow,1942.422080400167,None,n,1942.422080400167,None,"['n', 'return']","[0.8215437999460846, 1.093495599925518]",1942.422080400167,None,,,19,001,2023_Mar_08_0947,ExactRep-v3-final,2021.2.3,59.85221290540454,
,,,,,,,,,,,,70,0,70,0,,,,,,,,,,,,,,,,,,,,,,,,,,,,,,,,,,,,,,,,,,,,,,,,,1945.2094134001527,None,,,,,,,,,,,,,,,,,,,,,,,,,,,,,,,,,,,,,,,,,,,,,,,,,,,,,,,,,doll,226,71,aloud,new,yellow,1944.0665653001051,None,n,1944.0665653001051,None,"['n', 'return']","[0.8250186000950634, 1.0971562000922859]",1944.0665653001051,None,,,19,001,2023_Mar_08_0947,ExactRep-v3-final,2021.2.3,59.85221290540454,
,,,,,,,,,,,,71,0,71,0,,,,,,,,,,,,,,,,,,,,,,,,,,,,,,,,,,,,,,,,,,,,,,,,,1947.9954643000383,None,,,,,,,,,,,,,,,,,,,,,,,,,,,,,,,,,,,,,,,,,,,,,,,,,,,,,,,,,girl,2,72,sing,old,yellow,1945.7181971999817,None,n,1945.7181971999817,None,"['n', 'return']","[1.5653541998472065, 2.2454673000611365]",1945.7181971999817,None,,,19,001,2023_Mar_08_0947,ExactRep-v3-final,2021.2.3,59.85221290540454,
,,,,,,,,,,,,72,0,72,0,,,,,,,,,,,,,,,,,,,,,,,,,,,,,,,,,,,,,,,,,,,,,,,,,1950.4147136001848,None,,,,,,,,,,,,,,,,,,,,,,,,,,,,,,,,,,,,,,,,,,,,,,,,,,,,,,,,,crime,156,73,silent,new,yellow,1948.5026797000319,None,y,1948.5026797000319,None,"['y', 'return']","[1.5570282998960465, 1.876963600050658]",1948.5026797000319,None,,,19,001,2023_Mar_08_0947,ExactRep-v3-final,2021.2.3,59.85221290540454,
,,,,,,,,,,,,73,0,73,0,,,,,,,,,,,,,,,,,,,,,,,,,,,,,,,,,,,,,,,,,,,,,,,,,1952.116392099997,None,,,,,,,,,,,,,,,,,,,,,,,,,,,,,,,,,,,,,,,,,,,,,,,,,,,,,,,,,hour,222,74,aloud,new,yellow,1950.9151508000214,None,n,1950.9151508000214,None,"['n', 'return']","[0.8966520999092609, 1.1606128998100758]",1950.9151508000214,None,,,19,001,2023_Mar_08_0947,ExactRep-v3-final,2021.2.3,59.85221290540454,
,,,,,,,,,,,,74,0,74,0,,,,,,,,,,,,,,,,,,,,,,,,,,,,,,,,,,,,,,,,,,,,,,,,,1953.7678752001375,None,,,,,,,,,,,,,,,,,,,,,,,,,,,,,,,,,,,,,,,,,,,,,,,,,,,,,,,,,soil,237,75,sing,new,yellow,1952.6253333000932,None,n,1952.6253333000932,None,"['n', 'return']","[0.8263571001589298, 1.106374700088054]",1952.6253333000932,None,,,19,001,2023_Mar_08_0947,ExactRep-v3-final,2021.2.3,59.85221290540454,
,,,,,,,,,,,,75,0,75,0,,,,,,,,,,,,,,,,,,,,,,,,,,,,,,,,,,,,,,,,,,,,,,,,,1955.4362185001373,None,,,,,,,,,,,,,,,,,,,,,,,,,,,,,,,,,,,,,,,,,,,,,,,,,,,,,,,,,teacher,168,76,aloud,new,yellow,1954.2821516001131,None,n,1954.2821516001131,None,"['n', 'return']","[0.8415751999709755, 1.1215070998296142]",1954.2821516001131,None,,,19,001,2023_Mar_08_0947,ExactRep-v3-final,2021.2.3,59.85221290540454,
,,,,,,,,,,,,76,0,76,0,,,,,,,,,,,,,,,,,,,,,,,,,,,,,,,,,,,,,,,,,,,,,,,,,1957.60522090015,None,,,,,,,,,,,,,,,,,,,,,,,,,,,,,,,,,,,,,,,,,,,,,,,,,,,,,,,,,college,136,77,silent,new,yellow,1955.9445462999865,None,n,1955.9445462999865,None,"['n', 'return']","[1.3550813000183553, 1.6271365000866354]",1955.9445462999865,None,,,19,001,2023_Mar_08_0947,ExactRep-v3-final,2021.2.3,59.85221290540454,
,,,,,,,,,,,,77,0,77,0,,,,,,,,,,,,,,,,,,,,,,,,,,,,,,,,,,,,,,,,,,,,,,,,,1959.5904644001275,None,,,,,,,,,,,,,,,,,,,,,,,,,,,,,,,,,,,,,,,,,,,,,,,,,,,,,,,,,avenue,3,78,sing,old,yellow,1958.11505280016,None,y,1958.11505280016,None,"['y', 'return']","[1.008813199819997, 1.4326121998019516]",1958.11505280016,None,,,19,001,2023_Mar_08_0947,ExactRep-v3-final,2021.2.3,59.85221290540454,
,,,,,,,,,,,,78,0,78,0,,,,,,,,,,,,,,,,,,,,,,,,,,,,,,,,,,,,,,,,,,,,,,,,,1961.4423726000823,None,,,,,,,,,,,,,,,,,,,,,,,,,,,,,,,,,,,,,,,,,,,,,,,,,,,,,,,,,book,19,79,sing,old,yellow,1960.100030099973,None,n,1960.100030099973,None,"['n', 'return']","[0.9675151000265032, 1.2956864000298083]",1960.100030099973,None,,,19,001,2023_Mar_08_0947,ExactRep-v3-final,2021.2.3,59.85221290540454,
,,,,,,,,,,,,79,0,79,0,,,,,,,,,,,,,,,,,,,,,,,,,,,,,,,,,,,,,,,,,,,,,,,,,1964.7454930001404,None,,,,,,,,,,,,,,,,,,,,,,,,,,,,,,,,,,,,,,,,,,,,,,,,,,,,,,,,,river,12,80,sing,old,yellow,1961.952143700095,None,y,1961.952143700095,None,"['y', 'return']","[2.4674945999868214, 2.755592299858108]",1961.952143700095,None,,,19,001,2023_Mar_08_0947,ExactRep-v3-final,2021.2.3,59.85221290540454,
,,,,,,,,,,,,80,0,80,0,,,,,,,,,,,,,,,,,,,,,,,,,,,,,,,,,,,,,,,,,,,,,,,,,1966.4972116001882,None,,,,,,,,,,,,,,,,,,,,,,,,,,,,,,,,,,,,,,,,,,,,,,,,,,,,,,,,,quality,152,81,silent,new,yellow,1965.259292599978,None,n,1965.259292599978,None,"['n', 'return']","[0.9284336999990046, 1.200415899977088]",1965.259292599978,None,,,19,001,2023_Mar_08_0947,ExactRep-v3-final,2021.2.3,59.85221290540454,
,,,,,,,,,,,,81,0,81,0,,,,,,,,,,,,,,,,,,,,,,,,,,,,,,,,,,,,,,,,,,,,,,,,,1968.2490332999732,None,,,,,,,,,,,,,,,,,,,,,,,,,,,,,,,,,,,,,,,,,,,,,,,,,,,,,,,,,flood,224,82,aloud,new,yellow,1967.0024486000184,None,n,1967.0024486000184,None,"['n', 'return']","[0.9451291000004858, 1.2091963000129908]",1967.0024486000184,None,,,19,001,2023_Mar_08_0947,ExactRep-v3-final,2021.2.3,59.85221290540454,
,,,,,,,,,,,,82,0,82,0,,,,,,,,,,,,,,,,,,,,,,,,,,,,,,,,,,,,,,,,,,,,,,,,,1969.8171983000357,None,,,,,,,,,,,,,,,,,,,,,,,,,,,,,,,,,,,,,,,,,,,,,,,,,,,,,,,,,mother,125,83,silent,new,yellow,1968.7672262999695,None,n,1968.7672262999695,None,"['n', 'return']","[0.7325165001675487, 1.0045069002080709]",1968.7672262999695,None,,,19,001,2023_Mar_08_0947,ExactRep-v3-final,2021.2.3,59.85221290540454,
,,,,,,,,,,,,83,0,83,0,,,,,,,,,,,,,,,,,,,,,,,,,,,,,,,,,,,,,,,,,,,,,,,,,1971.9193897000514,None,,,,,,,,,,,,,,,,,,,,,,,,,,,,,,,,,,,,,,,,,,,,,,,,,,,,,,,,,poet,80,84,aloud,old,yellow,1970.3228943001013,None,y,1970.3228943001013,None,"['y', 'return']","[1.224792999913916, 1.5609850999899209]",1970.3228943001013,None,,,19,001,2023_Mar_08_0947,ExactRep-v3-final,2021.2.3,59.85221290540454,
,,,,,,,,,,,,84,0,84,0,,,,,,,,,,,,,,,,,,,,,,,,,,,,,,,,,,,,,,,,,,,,,,,,,1973.8212255002,None,,,,,,,,,,,,,,,,,,,,,,,,,,,,,,,,,,,,,,,,,,,,,,,,,,,,,,,,,rod,154,85,silent,new,yellow,1972.426804000046,None,y,1972.426804000046,None,"['y', 'return']","[1.072900600032881, 1.3608208999503404]",1972.426804000046,None,,,19,001,2023_Mar_08_0947,ExactRep-v3-final,2021.2.3,59.85221290540454,
,,,,,,,,,,,,85,0,85,0,,,,,,,,,,,,,,,,,,,,,,,,,,,,,,,,,,,,,,,,,,,,,,,,,1977.3914450001903,None,,,,,,,,,,,,,,,,,,,,,,,,,,,,,,,,,,,,,,,,,,,,,,,,,,,,,,,,,form,197,86,sing,new,yellow,1974.3312560999766,None,n,1974.3312560999766,None,"['n', 'return']","[2.7602860999759287, 3.016370200086385]",1974.3312560999766,None,,,19,001,2023_Mar_08_0947,ExactRep-v3-final,2021.2.3,59.85221290540454,
,,,,,,,,,,,,86,0,86,0,,,,,,,,,,,,,,,,,,,,,,,,,,,,,,,,,,,,,,,,,,,,,,,,,1979.8439584001899,None,,,,,,,,,,,,,,,,,,,,,,,,,,,,,,,,,,,,,,,,,,,,,,,,,,,,,,,,,murder,131,87,silent,new,yellow,1977.9080563001335,None,n,1977.9080563001335,None,"['n', 'return']","[1.5275808000005782, 1.9037490000482649]",1977.9080563001335,None,,,19,001,2023_Mar_08_0947,ExactRep-v3-final,2021.2.3,59.85221290540454,
,,,,,,,,,,,,87,0,87,0,,,,,,,,,,,,,,,,,,,,,,,,,,,,,,,,,,,,,,,,,,,,,,,,,1982.246377600124,None,,,,,,,,,,,,,,,,,,,,,,,,,,,,,,,,,,,,,,,,,,,,,,,,,,,,,,,,,hall,1,88,sing,old,yellow,1980.3522614999674,None,n,1980.3522614999674,None,"['n', 'return']","[1.4995629000477493, 1.85938880010508]",1980.3522614999674,None,,,19,001,2023_Mar_08_0947,ExactRep-v3-final,2021.2.3,59.85221290540454,
,,,,,,,,,,,,88,0,88,0,,,,,,,,,,,,,,,,,,,,,,,,,,,,,,,,,,,,,,,,,,,,,,,,,1984.732193700038,None,,,,,,,,,,,,,,,,,,,,,,,,,,,,,,,,,,,,,,,,,,,,,,,,,,,,,,,,,library,49,89,silent,old,yellow,1982.7557000999805,None,y,1982.7557000999805,None,"['y', 'return']","[1.5679876999929547, 1.9359649000689387]",1982.7557000999805,None,,,19,001,2023_Mar_08_0947,ExactRep-v3-final,2021.2.3,59.85221290540454,
,,,,,,,,,,,,89,0,89,0,,,,,,,,,,,,,,,,,,,,,,,,,,,,,,,,,,,,,,,,,,,,,,,,,1986.4339461000636,None,,,,,,,,,,,,,,,,,,,,,,,,,,,,,,,,,,,,,,,,,,,,,,,,,,,,,,,,,plant,132,90,silent,new,yellow,1985.2404541000724,None,n,1985.2404541000724,None,"['n', 'return']","[0.8914953998755664, 1.1473597998265177]",1985.2404541000724,None,,,19,001,2023_Mar_08_0947,ExactRep-v3-final,2021.2.3,59.85221290540454,
,,,,,,,,,,,,90,0,90,0,,,,,,,,,,,,,,,,,,,,,,,,,,,,,,,,,,,,,,,,,,,,,,,,,1988.5026391001884,None,,,,,,,,,,,,,,,,,,,,,,,,,,,,,,,,,,,,,,,,,,,,,,,,,,,,,,,,,wheat,24,91,sing,old,yellow,1986.9512408000883,None,y,1986.9512408000883,None,"['y', 'return']","[1.1885201998520643, 1.508410699898377]",1986.9512408000883,None,,,19,001,2023_Mar_08_0947,ExactRep-v3-final,2021.2.3,59.85221290540454,
,,,,,,,,,,,,91,0,91,0,,,,,,,,,,,,,,,,,,,,,,,,,,,,,,,,,,,,,,,,,,,,,,,,,1990.437809200026,None,,,,,,,,,,,,,,,,,,,,,,,,,,,,,,,,,,,,,,,,,,,,,,,,,,,,,,,,,vessel,30,92,sing,old,yellow,1989.015783000039,None,n,1989.015783000039,None,"['n', 'return']","[1.0919298001099378, 1.3799594999291003]",1989.015783000039,None,,,19,001,2023_Mar_08_0947,ExactRep-v3-final,2021.2.3,59.85221290540454,
,,,,,,,,,,,,92,0,92,0,,,,,,,,,,,,,,,,,,,,,,,,,,,,,,,,,,,,,,,,,,,,,,,,,1992.3063227999955,None,,,,,,,,,,,,,,,,,,,,,,,,,,,,,,,,,,,,,,,,,,,,,,,,,,,,,,,,,fact,41,93,silent,old,yellow,1990.9462991000619,None,n,1990.9462991000619,None,"['n', 'return']","[1.0332631000783294, 1.3133994000963867]",1990.9462991000619,None,,,19,001,2023_Mar_08_0947,ExactRep-v3-final,2021.2.3,59.85221290540454,
,,,,,,,,,,,,93,0,93,0,,,,,,,,,,,,,,,,,,,,,,,,,,,,,,,,,,,,,,,,,,,,,,,,,1994.4751730000135,None,,,,,,,,,,,,,,,,,,,,,,,,,,,,,,,,,,,,,,,,,,,,,,,,,,,,,,,,,apple,210,94,aloud,new,yellow,1992.815869800048,None,n,1992.815869800048,None,"['n', 'return']","[1.3397987000644207, 1.611861600074917]",1992.815869800048,None,,,19,001,2023_Mar_08_0947,ExactRep-v3-final,2021.2.3,59.85221290540454,
,,,,,,,,,,,,94,0,94,0,,,,,,,,,,,,,,,,,,,,,,,,,,,,,,,,,,,,,,,,,,,,,,,,,1997.3614111000206,None,,,,,,,,,,,,,,,,,,,,,,,,,,,,,,,,,,,,,,,,,,,,,,,,,,,,,,,,,meeting,236,95,aloud,new,yellow,1994.986163200112,None,n,1994.986163200112,None,"['n', 'return']","[2.0574505000840873, 2.3376154000870883]",1994.986163200112,None,,,19,001,2023_Mar_08_0947,ExactRep-v3-final,2021.2.3,59.85221290540454,
,,,,,,,,,,,,95,0,95,0,,,,,,,,,,,,,,,,,,,,,,,,,,,,,,,,,,,,,,,,,,,,,,,,,1999.697255200008,None,,,,,,,,,,,,,,,,,,,,,,,,,,,,,,,,,,,,,,,,,,,,,,,,,,,,,,,,,window,163,96,sing,new,yellow,1997.8716536001302,None,n,1997.8716536001302,None,"['n', 'return']","[1.364181499928236, 1.788137499941513]",1997.8716536001302,None,,,19,001,2023_Mar_08_0947,ExactRep-v3-final,2021.2.3,59.85221290540454,
,,,,,,,,,,,,96,0,96,0,,,,,,,,,,,,,,,,,,,,,,,,,,,,,,,,,,,,,,,,,,,,,,,,,2001.315527900122,None,,,,,,,,,,,,,,,,,,,,,,,,,,,,,,,,,,,,,,,,,,,,,,,,,,,,,,,,,blossom,146,97,silent,new,yellow,2000.2042696999852,None,n,2000.2042696999852,None,"['n', 'return']","[0.7994297000113875, 1.0715091000311077]",2000.2042696999852,None,,,19,001,2023_Mar_08_0947,ExactRep-v3-final,2021.2.3,59.85221290540454,
,,,,,,,,,,,,97,0,97,0,,,,,,,,,,,,,,,,,,,,,,,,,,,,,,,,,,,,,,,,,,,,,,,,,2003.2674076000694,None,,,,,,,,,,,,,,,,,,,,,,,,,,,,,,,,,,,,,,,,,,,,,,,,,,,,,,,,,origin,71,98,silent,old,yellow,2001.821918600006,None,y,2001.821918600006,None,"['y', 'return']","[1.069788800086826, 1.405694000190124]",2001.821918600006,None,,,19,001,2023_Mar_08_0947,ExactRep-v3-final,2021.2.3,59.85221290540454,
,,,,,,,,,,,,98,0,98,0,,,,,,,,,,,,,,,,,,,,,,,,,,,,,,,,,,,,,,,,,,,,,,,,,2005.1705096000805,None,,,,,,,,,,,,,,,,,,,,,,,,,,,,,,,,,,,,,,,,,,,,,,,,,,,,,,,,,metal,10,99,sing,old,yellow,2003.7773301000707,None,y,2003.7773301000707,None,"['y', 'return']","[1.0183480000123382, 1.3463310000952333]",2003.7773301000707,None,,,19,001,2023_Mar_08_0947,ExactRep-v3-final,2021.2.3,59.85221290540454,
,,,,,,,,,,,,99,0,99,0,,,,,,,,,,,,,,,,,,,,,,,,,,,,,,,,,,,,,,,,,,,,,,,,,2006.9711849000305,None,,,,,,,,,,,,,,,,,,,,,,,,,,,,,,,,,,,,,,,,,,,,,,,,,,,,,,,,,church,114,100,aloud,old,yellow,2005.681623000186,None,y,2005.681623000186,None,"['y', 'return']","[0.9300957000814378, 1.2421985000837594]",2005.681623000186,None,,,19,001,2023_Mar_08_0947,ExactRep-v3-final,2021.2.3,59.85221290540454,
,,,,,,,,,,,,100,0,100,0,,,,,,,,,,,,,,,,,,,,,,,,,,,,,,,,,,,,,,,,,,,,,,,,,2008.6894086000975,None,,,,,,,,,,,,,,,,,,,,,,,,,,,,,,,,,,,,,,,,,,,,,,,,,,,,,,,,,paper,105,101,aloud,old,yellow,2007.4811520001385,None,y,2007.4811520001385,None,"['y', 'return']","[0.8584886000026017, 1.162637900095433]",2007.4811520001385,None,,,19,001,2023_Mar_08_0947,ExactRep-v3-final,2021.2.3,59.85221290540454,
,,,,,,,,,,,,101,0,101,0,,,,,,,,,,,,,,,,,,,,,,,,,,,,,,,,,,,,,,,,,,,,,,,,,2010.3244008000474,None,,,,,,,,,,,,,,,,,,,,,,,,,,,,,,,,,,,,,,,,,,,,,,,,,,,,,,,,,month,170,102,aloud,new,yellow,2009.2064121000003,None,y,2009.2064121000003,None,"['y', 'return']","[0.7653969000093639, 1.0854208001401275]",2009.2064121000003,None,,,19,001,2023_Mar_08_0947,ExactRep-v3-final,2021.2.3,59.85221290540454,
,,,,,,,,,,,,102,0,102,0,,,,,,,,,,,,,,,,,,,,,,,,,,,,,,,,,,,,,,,,,,,,,,,,,2012.243014200125,None,,,,,,,,,,,,,,,,,,,,,,,,,,,,,,,,,,,,,,,,,,,,,,,,,,,,,,,,,custom,110,103,aloud,old,yellow,2010.8334790000226,None,y,2010.8334790000226,None,"['y', 'return']","[1.0502582998014987, 1.3702904998790473]",2010.8334790000226,None,,,19,001,2023_Mar_08_0947,ExactRep-v3-final,2021.2.3,59.85221290540454,
,,,,,,,,,,,,103,0,103,0,,,,,,,,,,,,,,,,,,,,,,,,,,,,,,,,,,,,,,,,,,,,,,,,,2014.6120659001172,None,,,,,,,,,,,,,,,,,,,,,,,,,,,,,,,,,,,,,,,,,,,,,,,,,,,,,,,,,amount,106,104,aloud,old,yellow,2012.75451410003,None,y,2012.75451410003,None,"['y', 'return']","[1.4811863000504673, 1.8172732999082655]",2012.75451410003,None,,,19,001,2023_Mar_08_0947,ExactRep-v3-final,2021.2.3,59.85221290540454,
,,,,,,,,,,,,104,0,104,0,,,,,,,,,,,,,,,,,,,,,,,,,,,,,,,,,,,,,,,,,,,,,,,,,2016.380515200086,None,,,,,,,,,,,,,,,,,,,,,,,,,,,,,,,,,,,,,,,,,,,,,,,,,,,,,,,,,circle,90,105,aloud,old,yellow,2015.1207590000704,None,y,2015.1207590000704,None,"['y', 'return']","[0.9230172999668866, 1.2189775998704135]",2015.1207590000704,None,,,19,001,2023_Mar_08_0947,ExactRep-v3-final,2021.2.3,59.85221290540454,
,,,,,,,,,,,,105,0,105,0,,,,,,,,,,,,,,,,,,,,,,,,,,,,,,,,,,,,,,,,,,,,,,,,,2018.1823890001979,None,,,,,,,,,,,,,,,,,,,,,,,,,,,,,,,,,,,,,,,,,,,,,,,,,,,,,,,,,death,122,106,silent,new,yellow,2016.8900843001902,None,n,2016.8900843001902,None,"['n', 'return']","[0.9856249000877142, 1.2576043999288231]",2016.8900843001902,None,,,19,001,2023_Mar_08_0947,ExactRep-v3-final,2021.2.3,59.85221290540454,
,,,,,,,,,,,,106,0,106,0,,,,,,,,,,,,,,,,,,,,,,,,,,,,,,,,,,,,,,,,,,,,,,,,,2020.0507786001544,None,,,,,,,,,,,,,,,,,,,,,,,,,,,,,,,,,,,,,,,,,,,,,,,,,,,,,,,,,pole,51,107,silent,old,yellow,2018.6949635001365,None,y,2018.6949635001365,None,"['y', 'return']","[1.0047617999371141, 1.3087720000185072]",2018.6949635001365,None,,,19,001,2023_Mar_08_0947,ExactRep-v3-final,2021.2.3,59.85221290540454,
,,,,,,,,,,,,107,0,107,0,,,,,,,,,,,,,,,,,,,,,,,,,,,,,,,,,,,,,,,,,,,,,,,,,2021.9860290000215,None,,,,,,,,,,,,,,,,,,,,,,,,,,,,,,,,,,,,,,,,,,,,,,,,,,,,,,,,,lord,86,108,aloud,old,yellow,2020.5732208001427,None,y,2020.5732208001427,None,"['y', 'return']","[1.0624367001000792, 1.3745114000048488]",2020.5732208001427,None,,,19,001,2023_Mar_08_0947,ExactRep-v3-final,2021.2.3,59.85221290540454,
,,,,,,,,,,,,108,0,108,0,,,,,,,,,,,,,,,,,,,,,,,,,,,,,,,,,,,,,,,,,,,,,,,,,2023.671241800068,None,,,,,,,,,,,,,,,,,,,,,,,,,,,,,,,,,,,,,,,,,,,,,,,,,,,,,,,,,dawn,220,109,aloud,new,yellow,2022.494930600049,None,n,2022.494930600049,None,"['n', 'return']","[0.8607679998967797, 1.1328493999317288]",2022.494930600049,None,,,19,001,2023_Mar_08_0947,ExactRep-v3-final,2021.2.3,59.85221290540454,
,,,,,,,,,,,,109,0,109,0,,,,,,,,,,,,,,,,,,,,,,,,,,,,,,,,,,,,,,,,,,,,,,,,,2025.5897022001445,None,,,,,,,,,,,,,,,,,,,,,,,,,,,,,,,,,,,,,,,,,,,,,,,,,,,,,,,,,length,108,110,aloud,old,yellow,2024.1811324001756,None,n,2024.1811324001756,None,"['n', 'return']","[1.1108911999035627, 1.3746430999599397]",2024.1811324001756,None,,,19,001,2023_Mar_08_0947,ExactRep-v3-final,2021.2.3,59.85221290540454,
,,,,,,,,,,,,110,0,110,0,,,,,,,,,,,,,,,,,,,,,,,,,,,,,,,,,,,,,,,,,,,,,,,,,2028.0256050999742,None,,,,,,,,,,,,,,,,,,,,,,,,,,,,,,,,,,,,,,,,,,,,,,,,,,,,,,,,,person,17,111,sing,old,yellow,2026.1028995001689,None,n,2026.1028995001689,None,"['n', 'return']","[1.636899899924174, 1.8768321999814361]",2026.1028995001689,None,,,19,001,2023_Mar_08_0947,ExactRep-v3-final,2021.2.3,59.85221290540454,
,,,,,,,,,,,,111,0,111,0,,,,,,,,,,,,,,,,,,,,,,,,,,,,,,,,,,,,,,,,,,,,,,,,,2029.7105632000603,None,,,,,,,,,,,,,,,,,,,,,,,,,,,,,,,,,,,,,,,,,,,,,,,,,,,,,,,,,author,172,112,aloud,new,yellow,2028.5333157000132,None,y,2028.5333157000132,None,"['y', 'return']","[0.8384884998667985, 1.1424338999204338]",2028.5333157000132,None,,,19,001,2023_Mar_08_0947,ExactRep-v3-final,2021.2.3,59.85221290540454,
,,,,,,,,,,,,112,0,112,0,,,,,,,,,,,,,,,,,,,,,,,,,,,,,,,,,,,,,,,,,,,,,,,,,2031.5455935001373,None,,,,,,,,,,,,,,,,,,,,,,,,,,,,,,,,,,,,,,,,,,,,,,,,,,,,,,,,,silence,99,113,aloud,old,yellow,2030.2199006001465,None,n,2030.2199006001465,None,"['n', 'return']","[0.9998329998925328, 1.2878703998867422]",2030.2199006001465,None,,,19,001,2023_Mar_08_0947,ExactRep-v3-final,2021.2.3,59.85221290540454,
,,,,,,,,,,,,113,0,113,0,,,,,,,,,,,,,,,,,,,,,,,,,,,,,,,,,,,,,,,,,,,,,,,,,2033.6476912000217,None,,,,,,,,,,,,,,,,,,,,,,,,,,,,,,,,,,,,,,,,,,,,,,,,,,,,,,,,,child,22,114,sing,old,yellow,2032.0660868000705,None,n,2032.0660868000705,None,"['n', 'return']","[1.289827800123021, 1.5376403001137078]",2032.0660868000705,None,,,19,001,2023_Mar_08_0947,ExactRep-v3-final,2021.2.3,59.85221290540454,
,,,,,,,,,,,,114,0,114,0,,,,,,,,,,,,,,,,,,,,,,,,,,,,,,,,,,,,,,,,,,,,,,,,,2035.4663526001386,None,,,,,,,,,,,,,,,,,,,,,,,,,,,,,,,,,,,,,,,,,,,,,,,,,,,,,,,,,idea,204,115,aloud,new,yellow,2034.1591871001292,None,y,2034.1591871001292,None,"['y', 'return']","[0.9485706998966634, 1.2685816998127848]",2034.1591871001292,None,,,19,001,2023_Mar_08_0947,ExactRep-v3-final,2021.2.3,59.85221290540454,
,,,,,,,,,,,,115,0,115,0,,,,,,,,,,,,,,,,,,,,,,,,,,,,,,,,,,,,,,,,,,,,,,,,,2037.2179268000182,None,,,,,,,,,,,,,,,,,,,,,,,,,,,,,,,,,,,,,,,,,,,,,,,,,,,,,,,,,answer,214,116,aloud,new,yellow,2035.9706319000106,None,n,2035.9706319000106,None,"['n', 'return']","[0.9611468000803143, 1.2091610999777913]",2035.9706319000106,None,,,19,001,2023_Mar_08_0947,ExactRep-v3-final,2021.2.3,59.85221290540454,
,,,,,,,,,,,,116,0,116,0,,,,,,,,,,,,,,,,,,,,,,,,,,,,,,,,,,,,,,,,,,,,,,,,,2041.1719498999882,None,,,,,,,,,,,,,,,,,,,,,,,,,,,,,,,,,,,,,,,,,,,,,,,,,,,,,,,,,style,145,117,silent,new,yellow,2037.7349366999697,None,y,2037.7349366999697,None,"['y', 'return']","[2.2768548999447376, 3.3969312999397516]",2037.7349366999697,None,,,19,001,2023_Mar_08_0947,ExactRep-v3-final,2021.2.3,59.85221290540454,
,,,,,,,,,,,,117,0,117,0,,,,,,,,,,,,,,,,,,,,,,,,,,,,,,,,,,,,,,,,,,,,,,,,,2042.8402998000383,None,,,,,,,,,,,,,,,,,,,,,,,,,,,,,,,,,,,,,,,,,,,,,,,,,,,,,,,,,sky,98,118,aloud,old,yellow,2041.675576900132,None,n,2041.675576900132,None,"['n', 'return']","[0.8962985000107437, 1.1201473001856357]",2041.675576900132,None,,,19,001,2023_Mar_08_0947,ExactRep-v3-final,2021.2.3,59.85221290540454,
,,,,,,,,,,,,118,0,118,0,,,,,,,,,,,,,,,,,,,,,,,,,,,,,,,,,,,,,,,,,,,,,,,,,2045.0426660000812,None,,,,,,,,,,,,,,,,,,,,,,,,,,,,,,,,,,,,,,,,,,,,,,,,,,,,,,,,,chance,66,119,silent,old,yellow,2043.3487508001272,None,n,2043.3487508001272,None,"['n', 'return']","[1.4229409000836313, 1.6470486000180244]",2043.3487508001272,None,,,19,001,2023_Mar_08_0947,ExactRep-v3-final,2021.2.3,59.85221290540454,
,,,,,,,,,,,,119,0,119,0,,,,,,,,,,,,,,,,,,,,,,,,,,,,,,,,,,,,,,,,,,,,,,,,,2048.3790308001917,None,,,,,,,,,,,,,,,,,,,,,,,,,,,,,,,,,,,,,,,,,,,,,,,,,,,,,,,,,clock,128,120,silent,new,yellow,2045.5530842000153,None,n,2045.5530842000153,None,"['n', 'return']","[2.2667126001324505, 2.7866506001446396]",2045.5530842000153,None,,,19,001,2023_Mar_08_0947,ExactRep-v3-final,2021.2.3,59.85221290540454,
,,,,,,,,,,,,120,0,120,0,,,,,,,,,,,,,,,,,,,,,,,,,,,,,,,,,,,,,,,,,,,,,,,,,2050.1476278000046,None,,,,,,,,,,,,,,,,,,,,,,,,,,,,,,,,,,,,,,,,,,,,,,,,,,,,,,,,,party,75,121,silent,old,yellow,2048.8914363000076,None,n,2048.8914363000076,None,"['n', 'return']","[0.9523084000684321, 1.216321000130847]",2048.8914363000076,None,,,19,001,2023_Mar_08_0947,ExactRep-v3-final,2021.2.3,59.85221290540454,
,,,,,,,,,,,,121,0,121,0,,,,,,,,,,,,,,,,,,,,,,,,,,,,,,,,,,,,,,,,,,,,,,,,,2051.715798499994,None,,,,,,,,,,,,,,,,,,,,,,,,,,,,,,,,,,,,,,,,,,,,,,,,,,,,,,,,,glory,55,122,silent,old,yellow,2050.655612700153,None,n,2050.655612700153,None,"['n', 'return']","[0.7641826998442411, 1.0122052999213338]",2050.655612700153,None,,,19,001,2023_Mar_08_0947,ExactRep-v3-final,2021.2.3,59.85221290540454,
,,,,,,,,,,,,122,0,122,0,,,,,,,,,,,,,,,,,,,,,,,,,,,,,,,,,,,,,,,,,,,,,,,,,2053.384107900085,None,,,,,,,,,,,,,,,,,,,,,,,,,,,,,,,,,,,,,,,,,,,,,,,,,,,,,,,,,shock,32,123,sing,old,yellow,2052.2162358001806,None,n,2052.2162358001806,None,"['n', 'return']","[0.8435691997874528, 1.123519899789244]",2052.2162358001806,None,,,19,001,2023_Mar_08_0947,ExactRep-v3-final,2021.2.3,59.85221290540454,
,,,,,,,,,,,,123,0,123,0,,,,,,,,,,,,,,,,,,,,,,,,,,,,,,,,,,,,,,,,,,,,,,,,,2055.352893400006,None,,,,,,,,,,,,,,,,,,,,,,,,,,,,,,,,,,,,,,,,,,,,,,,,,,,,,,,,,steam,83,124,aloud,old,yellow,2053.894091000082,None,y,2053.894091000082,None,"['y', 'return']","[1.093780199997127, 1.4217351998668164]",2053.894091000082,None,,,19,001,2023_Mar_08_0947,ExactRep-v3-final,2021.2.3,59.85221290540454,
,,,,,,,,,,,,124,0,124,0,,,,,,,,,,,,,,,,,,,,,,,,,,,,,,,,,,,,,,,,,,,,,,,,,2057.187903000042,None,,,,,,,,,,,,,,,,,,,,,,,,,,,,,,,,,,,,,,,,,,,,,,,,,,,,,,,,,volume,198,125,aloud,new,yellow,2055.8599721000064,None,n,2055.8599721000064,None,"['n', 'return']","[1.0238932000938803, 1.2959339001681656]",2055.8599721000064,None,,,19,001,2023_Mar_08_0947,ExactRep-v3-final,2021.2.3,59.85221290540454,
,,,,,,,,,,,,125,0,125,0,,,,,,,,,,,,,,,,,,,,,,,,,,,,,,,,,,,,,,,,,,,,,,,,,2058.756293500075,None,,,,,,,,,,,,,,,,,,,,,,,,,,,,,,,,,,,,,,,,,,,,,,,,,,,,,,,,,life,191,126,sing,new,yellow,2057.695453700144,None,n,2057.695453700144,None,"['n', 'return']","[0.7643206000793725, 1.028522799955681]",2057.695453700144,None,,,19,001,2023_Mar_08_0947,ExactRep-v3-final,2021.2.3,59.85221290540454,
,,,,,,,,,,,,126,0,126,0,,,,,,,,,,,,,,,,,,,,,,,,,,,,,,,,,,,,,,,,,,,,,,,,,2060.5581577999983,None,,,,,,,,,,,,,,,,,,,,,,,,,,,,,,,,,,,,,,,,,,,,,,,,,,,,,,,,,mercy,53,127,silent,old,yellow,2059.2660180001985,None,y,2059.2660180001985,None,"['y', 'return']","[0.8737158998847008, 1.2496358999051154]",2059.2660180001985,None,,,19,001,2023_Mar_08_0947,ExactRep-v3-final,2021.2.3,59.85221290540454,
,,,,,,,,,,,,127,0,127,0,,,,,,,,,,,,,,,,,,,,,,,,,,,,,,,,,,,,,,,,,,,,,,,,,2062.3765092999674,None,,,,,,,,,,,,,,,,,,,,,,,,,,,,,,,,,,,,,,,,,,,,,,,,,,,,,,,,,stone,190,128,aloud,new,yellow,2061.065233600093,None,n,2061.065233600093,None,"['n', 'return']","[0.9785780000966042, 1.2744464999996126]",2061.065233600093,None,,,19,001,2023_Mar_08_0947,ExactRep-v3-final,2021.2.3,59.85221290540454,
,,,,,,,,,,,,128,0,128,0,,,,,,,,,,,,,,,,,,,,,,,,,,,,,,,,,,,,,,,,,,,,,,,,,2064.1616180001292,None,,,,,,,,,,,,,,,,,,,,,,,,,,,,,,,,,,,,,,,,,,,,,,,,,,,,,,,,,wife,202,129,aloud,new,yellow,2062.8850693001878,None,n,2062.8850693001878,None,"['n', 'return']","[0.9586808001622558, 1.2308062000665814]",2062.8850693001878,None,,,19,001,2023_Mar_08_0947,ExactRep-v3-final,2021.2.3,59.85221290540454,
,,,,,,,,,,,,129,0,129,0,,,,,,,,,,,,,,,,,,,,,,,,,,,,,,,,,,,,,,,,,,,,,,,,,2066.831121900119,None,,,,,,,,,,,,,,,,,,,,,,,,,,,,,,,,,,,,,,,,,,,,,,,,,,,,,,,,,coffee,107,130,aloud,old,yellow,2064.6710034001153,None,y,2064.6710034001153,None,"['y', 'return']","[1.7968812000472099, 2.1248733000829816]",2064.6710034001153,None,,,19,001,2023_Mar_08_0947,ExactRep-v3-final,2021.2.3,59.85221290540454,
,,,,,,,,,,,,130,0,130,0,,,,,,,,,,,,,,,,,,,,,,,,,,,,,,,,,,,,,,,,,,,,,,,,,2068.465901999967,None,,,,,,,,,,,,,,,,,,,,,,,,,,,,,,,,,,,,,,,,,,,,,,,,,,,,,,,,,grief,26,131,sing,old,yellow,2067.34793779999,None,n,2067.34793779999,None,"['n', 'return']","[0.7118639000691473, 1.0718328999355435]",2067.34793779999,None,,,19,001,2023_Mar_08_0947,ExactRep-v3-final,2021.2.3,59.85221290540454,
