trials_fam.thisRepN,trials_fam.thisTrialN,trials_fam.thisN,trials_fam.thisIndex,trials_prc.thisRepN,trials_prc.thisTrialN,trials_prc.thisN,trials_prc.thisIndex,StudyLoop.thisRepN,StudyLoop.thisTrialN,StudyLoop.thisN,StudyLoop.thisIndex,TestLoop.thisRepN,TestLoop.thisTrialN,TestLoop.thisN,TestLoop.thisIndex,text_colortest.started,text_colortest.stopped,key_colortest.keys,key_colortest.rt,key_colortest.started,key_colortest.stopped,textCondition.started,textCondition.stopped,keyCondition.keys,keyCondition.rt,keyCondition.started,keyCondition.stopped,Condition_between,Condition_counterbal,keyWelcome.keys,keyWelcome.rt,keyWelcome.started,keyWelcome.stopped,welcome_a.started,welcome_a.stopped,welcome_b.started,welcome_b.stopped,welcome_c.started,welcome_c.stopped,welcome_d.started,welcome_d.stopped,welcome_e.started,welcome_e.stopped,welcome_f.started,welcome_f.stopped,key_resp_fam_inst.keys,key_resp_fam_inst.rt,key_resp_fam_inst.started,key_resp_fam_inst.stopped,fam_a.started,fam_a.stopped,fam_b.started,fam_b.stopped,fam_c.started,fam_c.stopped,fam_d.started,fam_d.stopped,fam_e.started,fam_e.stopped,fam_f.started,fam_f.stopped,text_famil.started,text_famil.stopped,textBlank500.started,textBlank500.stopped,key_resp_prc_inst.keys,key_resp_prc_inst.rt,key_resp_prc_inst.started,key_resp_prc_inst.stopped,prac_a.started,prac_a.stopped,prac_b.started,prac_b.stopped,prac_c.started,prac_c.stopped,prac_d.started,prac_d.stopped,prac_e.started,prac_e.stopped,prac_f.started,prac_f.stopped,text_prc_trial.started,text_prc_trial.stopped,key_resp_study_inst.keys,key_resp_study_inst.rt,key_resp_study_inst.started,key_resp_study_inst.stopped,crit_a.started,crit_a.stopped,crit_b.started,crit_b.stopped,crit_c.started,crit_c.stopped,crit_d.started,crit_d.stopped,crit_e.started,crit_e.stopped,crit_f.started,crit_f.stopped,study_word,study_num,study_order,study_type,word_color,textStudy.started,textStudy.stopped,keyStudy.keys,keyStudy.started,keyStudy.stopped,post_study.started,post_study.stopped,key_resp_post_study.keys,key_resp_post_study.rt,key_resp_post_study.started,key_resp_post_study.stopped,test_inst.started,test_inst.stopped,key_resp_test_inst.keys,key_resp_test_inst.rt,key_resp_test_inst.started,key_resp_test_inst.stopped,test_word,test_num,test_order,test_condition,old_new_test,word_color_test,textConf.started,textConf.stopped,Participant Response,textInput.started,textInput.stopped,keyResp.keys,keyResp.rt,keyResp.started,keyResp.stopped,textEnd.started,textEnd.stopped,participant,session,date,expName,psychopyVersion,frameRate,
,,,,,,,,,,,,,,,,24.5268425999966,None,y,2.5381661000137683,24.5268425999966,None,,,,,,,,,,,,,,,,,,,,,,,,,,,,,,,,,,,,,,,,,,,,,,,,,,,,,,,,,,,,,,,,,,,,,,,,,,,,,,,,,,,,,,,,,,,,,,,,,,,,,,,,,,,,,,,,,,,,,,1,001,2023_Jan_25_1214,ExactRep-v3-final,2021.2.3,59.99005365368105,
,,,,,,,,,,,,,,,,,,,,,,27.088098400010495,None,a,13.4248399999924,27.088098400010495,None,,,,,,,,,,,,,,,,,,,,,,,,,,,,,,,,,,,,,,,,,,,,,,,,,,,,,,,,,,,,,,,,,,,,,,,,,,,,,,,,,,,,,,,,,,,,,,,,,,,,,,,,,,,,,,,,1,001,2023_Jan_25_1214,ExactRep-v3-final,2021.2.3,59.99005365368105,
,,,,,,,,,,,,,,,,,,,,,,,,,,,,colorfoils,a,space,630.7085412000015,50.68431330000749,None,,,,,,,,,,,,,,,,,,,,,,,,,,,,,,,,,,,,,,,,,,,,,,,,,,,,,,,,,,,,,,,,,,,,,,,,,,,,,,,,,,,,,,,,,,,,,,,,,,,,,,,,,,1,001,2023_Jan_25_1214,ExactRep-v3-final,2021.2.3,59.99005365368105,
,,,,,,,,,,,,,,,,,,,,,,,,,,,,,,,,,,40.73155990001396,None,40.73155990001396,None,40.73155990001396,None,40.73155990001396,None,40.73155990001396,None,40.73155990001396,None,space,25.832823300006567,691.6320297000057,None,,,,,,,,,,,,,,,,,,,,,,,,,,,,,,,,,,,,,,,,,,,,,,,,,,,,,,,,,,,,,,,,,,,,,,,,,,,,,,,,,,,,,,,,,,1,001,2023_Jan_25_1214,ExactRep-v3-final,2021.2.3,59.99005365368105,
0,0,0,0,,,,,,,,,,,,,,,,,,,,,,,,,,,,,,,,,,,,,,,,,,,,,,,681.6418768000149,None,681.6418768000149,None,681.6418768000149,None,681.6418768000149,None,681.6418768000149,None,681.6418768000149,None,717.5882548000081,None,719.5967030000174,None,,,,,,,,,,,,,,,,,,,,,,,,,,,,,,,,,,,,,,,,,,,,,,,,,,,,,,,,,,,,,,,,,,,,,,,,,,1,001,2023_Jan_25_1214,ExactRep-v3-final,2021.2.3,59.99005365368105,
1,0,1,0,,,,,,,,,,,,,,,,,,,,,,,,,,,,,,,,,,,,,,,,,,,,,,,,,,,,,,,,,,,720.0927488000016,None,722.0987671000184,None,,,,,,,,,,,,,,,,,,,,,,,,,,,,,,,,,,,,,,,,,,,,,,,,,,,,,,,,,,,,,,,,,,,,,,,,,,1,001,2023_Jan_25_1214,ExactRep-v3-final,2021.2.3,59.99005365368105,
2,0,2,0,,,,,,,,,,,,,,,,,,,,,,,,,,,,,,,,,,,,,,,,,,,,,,,,,,,,,,,,,,,722.6004939000122,None,724.6017929000081,None,,,,,,,,,,,,,,,,,,,,,,,,,,,,,,,,,,,,,,,,,,,,,,,,,,,,,,,,,,,,,,,,,,,,,,,,,,1,001,2023_Jan_25_1214,ExactRep-v3-final,2021.2.3,59.99005365368105,
3,0,3,0,,,,,,,,,,,,,,,,,,,,,,,,,,,,,,,,,,,,,,,,,,,,,,,,,,,,,,,,,,,725.1184630000207,None,727.1211127999995,None,,,,,,,,,,,,,,,,,,,,,,,,,,,,,,,,,,,,,,,,,,,,,,,,,,,,,,,,,,,,,,,,,,,,,,,,,,1,001,2023_Jan_25_1214,ExactRep-v3-final,2021.2.3,59.99005365368105,
4,0,4,0,,,,,,,,,,,,,,,,,,,,,,,,,,,,,,,,,,,,,,,,,,,,,,,,,,,,,,,,,,,727.6214589000156,None,729.6232403000176,None,,,,,,,,,,,,,,,,,,,,,,,,,,,,,,,,,,,,,,,,,,,,,,,,,,,,,,,,,,,,,,,,,,,,,,,,,,1,001,2023_Jan_25_1214,ExactRep-v3-final,2021.2.3,59.99005365368105,
5,0,5,0,,,,,,,,,,,,,,,,,,,,,,,,,,,,,,,,,,,,,,,,,,,,,,,,,,,,,,,,,,,730.1243317000044,None,732.1257621000113,None,,,,,,,,,,,,,,,,,,,,,,,,,,,,,,,,,,,,,,,,,,,,,,,,,,,,,,,,,,,,,,,,,,,,,,,,,,1,001,2023_Jan_25_1214,ExactRep-v3-final,2021.2.3,59.99005365368105,
6,0,6,0,,,,,,,,,,,,,,,,,,,,,,,,,,,,,,,,,,,,,,,,,,,,,,,,,,,,,,,,,,,732.6298319000052,None,734.6450731000223,None,,,,,,,,,,,,,,,,,,,,,,,,,,,,,,,,,,,,,,,,,,,,,,,,,,,,,,,,,,,,,,,,,,,,,,,,,,1,001,2023_Jan_25_1214,ExactRep-v3-final,2021.2.3,59.99005365368105,
7,0,7,0,,,,,,,,,,,,,,,,,,,,,,,,,,,,,,,,,,,,,,,,,,,,,,,,,,,,,,,,,,,735.145780300023,None,737.147724200011,None,,,,,,,,,,,,,,,,,,,,,,,,,,,,,,,,,,,,,,,,,,,,,,,,,,,,,,,,,,,,,,,,,,,,,,,,,,1,001,2023_Jan_25_1214,ExactRep-v3-final,2021.2.3,59.99005365368105,
8,0,8,0,,,,,,,,,,,,,,,,,,,,,,,,,,,,,,,,,,,,,,,,,,,,,,,,,,,,,,,,,,,737.648236500012,None,739.6501076999994,None,,,,,,,,,,,,,,,,,,,,,,,,,,,,,,,,,,,,,,,,,,,,,,,,,,,,,,,,,,,,,,,,,,,,,,,,,,1,001,2023_Jan_25_1214,ExactRep-v3-final,2021.2.3,59.99005365368105,
9,0,9,0,,,,,,,,,,,,,,,,,,,,,,,,,,,,,,,,,,,,,,,,,,,,,,,,,,,,,,,,,,,740.1524379000184,None,742.152568999998,None,,,,,,,,,,,,,,,,,,,,,,,,,,,,,,,,,,,,,,,,,,,,,,,,,,,,,,,,,,,,,,,,,,,,,,,,,,1,001,2023_Jan_25_1214,ExactRep-v3-final,2021.2.3,59.99005365368105,
10,0,10,0,,,,,,,,,,,,,,,,,,,,,,,,,,,,,,,,,,,,,,,,,,,,,,,,,,,,,,,,,,,742.6561307000229,None,744.6715983000176,None,,,,,,,,,,,,,,,,,,,,,,,,,,,,,,,,,,,,,,,,,,,,,,,,,,,,,,,,,,,,,,,,,,,,,,,,,,1,001,2023_Jan_25_1214,ExactRep-v3-final,2021.2.3,59.99005365368105,
11,0,11,0,,,,,,,,,,,,,,,,,,,,,,,,,,,,,,,,,,,,,,,,,,,,,,,,,,,,,,,,,,,745.1721881999983,None,747.1743691000156,None,,,,,,,,,,,,,,,,,,,,,,,,,,,,,,,,,,,,,,,,,,,,,,,,,,,,,,,,,,,,,,,,,,,,,,,,,,1,001,2023_Jan_25_1214,ExactRep-v3-final,2021.2.3,59.99005365368105,
12,0,12,0,,,,,,,,,,,,,,,,,,,,,,,,,,,,,,,,,,,,,,,,,,,,,,,,,,,,,,,,,,,747.6782212000107,None,749.6934817000001,None,,,,,,,,,,,,,,,,,,,,,,,,,,,,,,,,,,,,,,,,,,,,,,,,,,,,,,,,,,,,,,,,,,,,,,,,,,1,001,2023_Jan_25_1214,ExactRep-v3-final,2021.2.3,59.99005365368105,
13,0,13,0,,,,,,,,,,,,,,,,,,,,,,,,,,,,,,,,,,,,,,,,,,,,,,,,,,,,,,,,,,,750.1940042000206,None,752.196027500002,None,,,,,,,,,,,,,,,,,,,,,,,,,,,,,,,,,,,,,,,,,,,,,,,,,,,,,,,,,,,,,,,,,,,,,,,,,,1,001,2023_Jan_25_1214,ExactRep-v3-final,2021.2.3,59.99005365368105,
14,0,14,0,,,,,,,,,,,,,,,,,,,,,,,,,,,,,,,,,,,,,,,,,,,,,,,,,,,,,,,,,,,752.6964513999992,None,754.6985912000237,None,,,,,,,,,,,,,,,,,,,,,,,,,,,,,,,,,,,,,,,,,,,,,,,,,,,,,,,,,,,,,,,,,,,,,,,,,,1,001,2023_Jan_25_1214,ExactRep-v3-final,2021.2.3,59.99005365368105,
,,,,,,,,,,,,,,,,,,,,,,,,,,,,,,,,,,,,,,,,,,,,,,,,,,,,,,,,,,,,,,,,,,space,20.53082029998768,765.3501891000196,None,,,,,,,,,,,,,,,,,,,,,,,,,,,,,,,,,,,,,,,,,,,,,,,,,,,,,,,,,,,,,,,,,,,,,,1,001,2023_Jan_25_1214,ExactRep-v3-final,2021.2.3,59.99005365368105,
,,,,0,0,0,0,,,,,,,,,,,,,,,,,,,,,,,,,,,,,,,,,,,,,,,,,,,,,,,,,,,,,,,,,787.9483951000147,None,,,,,755.3527762000158,None,755.3527762000158,None,755.3527762000158,None,755.3527762000158,None,755.3527762000158,None,755.3527762000158,None,785.9482747000002,None,,,,,,,,,,,,,,,,,,,,,,,,,,,,,,,,,,,,,,,,,,,,,,,,,,,,,,,,1,001,2023_Jan_25_1214,ExactRep-v3-final,2021.2.3,59.99005365368105,
,,,,1,0,1,0,,,,,,,,,,,,,,,,,,,,,,,,,,,,,,,,,,,,,,,,,,,,,,,,,,,,,,,,,790.4507461000176,None,,,,,,,,,,,,,,,,,788.448924700002,None,,,,,,,,,,,,,,,,,,,,,,,,,,,,,,,,,,,,,,,,,,,,,,,,,,,,,,,,1,001,2023_Jan_25_1214,ExactRep-v3-final,2021.2.3,59.99005365368105,
,,,,2,0,2,0,,,,,,,,,,,,,,,,,,,,,,,,,,,,,,,,,,,,,,,,,,,,,,,,,,,,,,,,,792.9534735000052,None,,,,,,,,,,,,,,,,,790.9514808999957,None,,,,,,,,,,,,,,,,,,,,,,,,,,,,,,,,,,,,,,,,,,,,,,,,,,,,,,,,1,001,2023_Jan_25_1214,ExactRep-v3-final,2021.2.3,59.99005365368105,
,,,,3,0,3,0,,,,,,,,,,,,,,,,,,,,,,,,,,,,,,,,,,,,,,,,,,,,,,,,,,,,,,,,,795.4558293000155,None,,,,,,,,,,,,,,,,,793.4538995000185,None,,,,,,,,,,,,,,,,,,,,,,,,,,,,,,,,,,,,,,,,,,,,,,,,,,,,,,,,1,001,2023_Jan_25_1214,ExactRep-v3-final,2021.2.3,59.99005365368105,
,,,,4,0,4,0,,,,,,,,,,,,,,,,,,,,,,,,,,,,,,,,,,,,,,,,,,,,,,,,,,,,,,,,,797.9583159000031,None,,,,,,,,,,,,,,,,,795.9563884000236,None,,,,,,,,,,,,,,,,,,,,,,,,,,,,,,,,,,,,,,,,,,,,,,,,,,,,,,,,1,001,2023_Jan_25_1214,ExactRep-v3-final,2021.2.3,59.99005365368105,
,,,,5,0,5,0,,,,,,,,,,,,,,,,,,,,,,,,,,,,,,,,,,,,,,,,,,,,,,,,,,,,,,,,,800.4609181999986,None,,,,,,,,,,,,,,,,,798.4588422000234,None,,,,,,,,,,,,,,,,,,,,,,,,,,,,,,,,,,,,,,,,,,,,,,,,,,,,,,,,1,001,2023_Jan_25_1214,ExactRep-v3-final,2021.2.3,59.99005365368105,
,,,,6,0,6,0,,,,,,,,,,,,,,,,,,,,,,,,,,,,,,,,,,,,,,,,,,,,,,,,,,,,,,,,,802.9633544000098,None,,,,,,,,,,,,,,,,,800.9614410000213,None,,,,,,,,,,,,,,,,,,,,,,,,,,,,,,,,,,,,,,,,,,,,,,,,,,,,,,,,1,001,2023_Jan_25_1214,ExactRep-v3-final,2021.2.3,59.99005365368105,
,,,,7,0,7,0,,,,,,,,,,,,,,,,,,,,,,,,,,,,,,,,,,,,,,,,,,,,,,,,,,,,,,,,,805.4658923000097,None,,,,,,,,,,,,,,,,,803.4637264000194,None,,,,,,,,,,,,,,,,,,,,,,,,,,,,,,,,,,,,,,,,,,,,,,,,,,,,,,,,1,001,2023_Jan_25_1214,ExactRep-v3-final,2021.2.3,59.99005365368105,
,,,,8,0,8,0,,,,,,,,,,,,,,,,,,,,,,,,,,,,,,,,,,,,,,,,,,,,,,,,,,,,,,,,,807.9682077000034,None,,,,,,,,,,,,,,,,,805.9664285000181,None,,,,,,,,,,,,,,,,,,,,,,,,,,,,,,,,,,,,,,,,,,,,,,,,,,,,,,,,1,001,2023_Jan_25_1214,ExactRep-v3-final,2021.2.3,59.99005365368105,
,,,,9,0,9,0,,,,,,,,,,,,,,,,,,,,,,,,,,,,,,,,,,,,,,,,,,,,,,,,,,,,,,,,,810.4708760000067,None,,,,,,,,,,,,,,,,,808.4690790000022,None,,,,,,,,,,,,,,,,,,,,,,,,,,,,,,,,,,,,,,,,,,,,,,,,,,,,,,,,1,001,2023_Jan_25_1214,ExactRep-v3-final,2021.2.3,59.99005365368105,
,,,,10,0,10,0,,,,,,,,,,,,,,,,,,,,,,,,,,,,,,,,,,,,,,,,,,,,,,,,,,,,,,,,,812.9733651000133,None,,,,,,,,,,,,,,,,,810.9714124000166,None,,,,,,,,,,,,,,,,,,,,,,,,,,,,,,,,,,,,,,,,,,,,,,,,,,,,,,,,1,001,2023_Jan_25_1214,ExactRep-v3-final,2021.2.3,59.99005365368105,
,,,,11,0,11,0,,,,,,,,,,,,,,,,,,,,,,,,,,,,,,,,,,,,,,,,,,,,,,,,,,,,,,,,,815.4759923999954,None,,,,,,,,,,,,,,,,,813.4736954999971,None,,,,,,,,,,,,,,,,,,,,,,,,,,,,,,,,,,,,,,,,,,,,,,,,,,,,,,,,1,001,2023_Jan_25_1214,ExactRep-v3-final,2021.2.3,59.99005365368105,
,,,,12,0,12,0,,,,,,,,,,,,,,,,,,,,,,,,,,,,,,,,,,,,,,,,,,,,,,,,,,,,,,,,,817.9786235000065,None,,,,,,,,,,,,,,,,,815.9764354000217,None,,,,,,,,,,,,,,,,,,,,,,,,,,,,,,,,,,,,,,,,,,,,,,,,,,,,,,,,1,001,2023_Jan_25_1214,ExactRep-v3-final,2021.2.3,59.99005365368105,
,,,,13,0,13,0,,,,,,,,,,,,,,,,,,,,,,,,,,,,,,,,,,,,,,,,,,,,,,,,,,,,,,,,,820.4808467999974,None,,,,,,,,,,,,,,,,,818.4790663000022,None,,,,,,,,,,,,,,,,,,,,,,,,,,,,,,,,,,,,,,,,,,,,,,,,,,,,,,,,1,001,2023_Jan_25_1214,ExactRep-v3-final,2021.2.3,59.99005365368105,
,,,,14,0,14,0,,,,,,,,,,,,,,,,,,,,,,,,,,,,,,,,,,,,,,,,,,,,,,,,,,,,,,,,,822.9833885999979,None,,,,,,,,,,,,,,,,,820.981466600002,None,,,,,,,,,,,,,,,,,,,,,,,,,,,,,,,,,,,,,,,,,,,,,,,,,,,,,,,,1,001,2023_Jan_25_1214,ExactRep-v3-final,2021.2.3,59.99005365368105,
,,,,,,,,,,,,,,,,,,,,,,,,,,,,,,,,,,,,,,,,,,,,,,,,,,,,,,,,,,,,,,,,,,,,,,,,,,,,,,,,,,,,space,15.46054230001755,833.5886226000148,None,,,,,,,,,,,,,,,,,,,,,,,,,,,,,,,,,,,,,,,,,,,,,,,,,,,,1,001,2023_Jan_25_1214,ExactRep-v3-final,2021.2.3,59.99005365368105,
,,,,,,,,0,0,0,0,,,,,,,,,,,,,,,,,,,,,,,,,,,,,,,,,,,,,,,,,,,,,,,,,,,,,851.1279827000108,None,,,,,,,,,,,,,,,,,,,,,,,823.6469344000216,None,823.6469344000216,None,823.6469344000216,None,823.6469344000216,None,823.6469344000216,None,823.6469344000216,None,market,53,1,silent,blue,849.1162781000021,None,None,849.1162781000021,None,,,,,,,,,,,,,,,,,,,,,,,,,,,,,,1,001,2023_Jan_25_1214,ExactRep-v3-final,2021.2.3,59.99005365368105,
,,,,,,,,1,0,1,0,,,,,,,,,,,,,,,,,,,,,,,,,,,,,,,,,,,,,,,,,,,,,,,,,,,,,853.6482013000059,None,,,,,,,,,,,,,,,,,,,,,,,,,,,,,,,,,,,flesh,71,2,silent,blue,851.6337622000137,None,None,851.6337622000137,None,,,,,,,,,,,,,,,,,,,,,,,,,,,,,,1,001,2023_Jan_25_1214,ExactRep-v3-final,2021.2.3,59.99005365368105,
,,,,,,,,2,0,2,0,,,,,,,,,,,,,,,,,,,,,,,,,,,,,,,,,,,,,,,,,,,,,,,,,,,,,856.149794900004,None,,,,,,,,,,,,,,,,,,,,,,,,,,,,,,,,,,,student,76,3,silent,blue,854.1478188000037,None,None,854.1478188000037,None,,,,,,,,,,,,,,,,,,,,,,,,,,,,,,1,001,2023_Jan_25_1214,ExactRep-v3-final,2021.2.3,59.99005365368105,
,,,,,,,,3,0,3,0,,,,,,,,,,,,,,,,,,,,,,,,,,,,,,,,,,,,,,,,,,,,,,,,,,,,,858.6689718000125,None,,,,,,,,,,,,,,,,,,,,,,,,,,,,,,,,,,,ocean,111,4,aloud,red,856.6576143999991,None,None,856.6576143999991,None,,,,,,,,,,,,,,,,,,,,,,,,,,,,,,1,001,2023_Jan_25_1214,ExactRep-v3-final,2021.2.3,59.99005365368105,
,,,,,,,,4,0,4,0,,,,,,,,,,,,,,,,,,,,,,,,,,,,,,,,,,,,,,,,,,,,,,,,,,,,,861.1881888000062,None,,,,,,,,,,,,,,,,,,,,,,,,,,,,,,,,,,,river,41,5,silent,blue,859.1735856000159,None,None,859.1735856000159,None,,,,,,,,,,,,,,,,,,,,,,,,,,,,,,1,001,2023_Jan_25_1214,ExactRep-v3-final,2021.2.3,59.99005365368105,
,,,,,,,,5,0,5,0,,,,,,,,,,,,,,,,,,,,,,,,,,,,,,,,,,,,,,,,,,,,,,,,,,,,,863.7074120000179,None,,,,,,,,,,,,,,,,,,,,,,,,,,,,,,,,,,,doctor,117,6,aloud,red,861.6986095000175,None,None,861.6986095000175,None,,,,,,,,,,,,,,,,,,,,,,,,,,,,,,1,001,2023_Jan_25_1214,ExactRep-v3-final,2021.2.3,59.99005365368105,
,,,,,,,,6,0,6,0,,,,,,,,,,,,,,,,,,,,,,,,,,,,,,,,,,,,,,,,,,,,,,,,,,,,,866.226514000009,None,,,,,,,,,,,,,,,,,,,,,,,,,,,,,,,,,,,charm,79,7,sing,white,864.2128190000076,None,None,864.2128190000076,None,,,,,,,,,,,,,,,,,,,,,,,,,,,,,,1,001,2023_Jan_25_1214,ExactRep-v3-final,2021.2.3,59.99005365368105,
,,,,,,,,7,0,7,0,,,,,,,,,,,,,,,,,,,,,,,,,,,,,,,,,,,,,,,,,,,,,,,,,,,,,868.729015799996,None,,,,,,,,,,,,,,,,,,,,,,,,,,,,,,,,,,,house,28,8,sing,white,866.7270702999958,None,None,866.7270702999958,None,,,,,,,,,,,,,,,,,,,,,,,,,,,,,,1,001,2023_Jan_25_1214,ExactRep-v3-final,2021.2.3,59.99005365368105,
,,,,,,,,8,0,8,0,,,,,,,,,,,,,,,,,,,,,,,,,,,,,,,,,,,,,,,,,,,,,,,,,,,,,871.2313654000172,None,,,,,,,,,,,,,,,,,,,,,,,,,,,,,,,,,,,library,106,9,aloud,red,869.2302157000231,None,None,869.2302157000231,None,,,,,,,,,,,,,,,,,,,,,,,,,,,,,,1,001,2023_Jan_25_1214,ExactRep-v3-final,2021.2.3,59.99005365368105,
,,,,,,,,9,0,9,0,,,,,,,,,,,,,,,,,,,,,,,,,,,,,,,,,,,,,,,,,,,,,,,,,,,,,873.7340776000055,None,,,,,,,,,,,,,,,,,,,,,,,,,,,,,,,,,,,fun,17,10,sing,white,871.7320314999961,None,None,871.7320314999961,None,,,,,,,,,,,,,,,,,,,,,,,,,,,,,,1,001,2023_Jan_25_1214,ExactRep-v3-final,2021.2.3,59.99005365368105,
,,,,,,,,10,0,10,0,,,,,,,,,,,,,,,,,,,,,,,,,,,,,,,,,,,,,,,,,,,,,,,,,,,,,876.2366088000126,None,,,,,,,,,,,,,,,,,,,,,,,,,,,,,,,,,,,passion,52,11,silent,blue,874.234471600008,None,None,874.234471600008,None,,,,,,,,,,,,,,,,,,,,,,,,,,,,,,1,001,2023_Jan_25_1214,ExactRep-v3-final,2021.2.3,59.99005365368105,
,,,,,,,,11,0,11,0,,,,,,,,,,,,,,,,,,,,,,,,,,,,,,,,,,,,,,,,,,,,,,,,,,,,,878.7390403000172,None,,,,,,,,,,,,,,,,,,,,,,,,,,,,,,,,,,,form,115,12,aloud,red,876.7385718000005,None,None,876.7385718000005,None,,,,,,,,,,,,,,,,,,,,,,,,,,,,,,1,001,2023_Jan_25_1214,ExactRep-v3-final,2021.2.3,59.99005365368105,
,,,,,,,,12,0,12,0,,,,,,,,,,,,,,,,,,,,,,,,,,,,,,,,,,,,,,,,,,,,,,,,,,,,,881.2415804000048,None,,,,,,,,,,,,,,,,,,,,,,,,,,,,,,,,,,,toy,45,13,silent,blue,879.2418934000016,None,None,879.2418934000016,None,,,,,,,,,,,,,,,,,,,,,,,,,,,,,,1,001,2023_Jan_25_1214,ExactRep-v3-final,2021.2.3,59.99005365368105,
,,,,,,,,13,0,13,0,,,,,,,,,,,,,,,,,,,,,,,,,,,,,,,,,,,,,,,,,,,,,,,,,,,,,883.7438685000234,None,,,,,,,,,,,,,,,,,,,,,,,,,,,,,,,,,,,love,90,14,aloud,red,881.7436023000046,None,None,881.7436023000046,None,,,,,,,,,,,,,,,,,,,,,,,,,,,,,,1,001,2023_Jan_25_1214,ExactRep-v3-final,2021.2.3,59.99005365368105,
,,,,,,,,14,0,14,0,,,,,,,,,,,,,,,,,,,,,,,,,,,,,,,,,,,,,,,,,,,,,,,,,,,,,886.2634597000142,None,,,,,,,,,,,,,,,,,,,,,,,,,,,,,,,,,,,apple,77,15,silent,blue,884.2480574000219,None,None,884.2480574000219,None,,,,,,,,,,,,,,,,,,,,,,,,,,,,,,1,001,2023_Jan_25_1214,ExactRep-v3-final,2021.2.3,59.99005365368105,
,,,,,,,,15,0,15,0,,,,,,,,,,,,,,,,,,,,,,,,,,,,,,,,,,,,,,,,,,,,,,,,,,,,,888.7824302000226,None,,,,,,,,,,,,,,,,,,,,,,,,,,,,,,,,,,,ship,22,16,sing,white,886.7675879000162,None,None,886.7675879000162,None,,,,,,,,,,,,,,,,,,,,,,,,,,,,,,1,001,2023_Jan_25_1214,ExactRep-v3-final,2021.2.3,59.99005365368105,
,,,,,,,,16,0,16,0,,,,,,,,,,,,,,,,,,,,,,,,,,,,,,,,,,,,,,,,,,,,,,,,,,,,,891.2850506000104,None,,,,,,,,,,,,,,,,,,,,,,,,,,,,,,,,,,,present,24,17,sing,white,889.2848254000128,None,None,889.2848254000128,None,,,,,,,,,,,,,,,,,,,,,,,,,,,,,,1,001,2023_Jan_25_1214,ExactRep-v3-final,2021.2.3,59.99005365368105,
,,,,,,,,17,0,17,0,,,,,,,,,,,,,,,,,,,,,,,,,,,,,,,,,,,,,,,,,,,,,,,,,,,,,893.8040065999958,None,,,,,,,,,,,,,,,,,,,,,,,,,,,,,,,,,,,devil,16,18,sing,white,891.7930331000243,None,None,891.7930331000243,None,,,,,,,,,,,,,,,,,,,,,,,,,,,,,,1,001,2023_Jan_25_1214,ExactRep-v3-final,2021.2.3,59.99005365368105,
,,,,,,,,18,0,18,0,,,,,,,,,,,,,,,,,,,,,,,,,,,,,,,,,,,,,,,,,,,,,,,,,,,,,896.3233854999999,None,,,,,,,,,,,,,,,,,,,,,,,,,,,,,,,,,,,officer,104,19,aloud,red,894.3081378000206,None,None,894.3081378000206,None,,,,,,,,,,,,,,,,,,,,,,,,,,,,,,1,001,2023_Jan_25_1214,ExactRep-v3-final,2021.2.3,59.99005365368105,
,,,,,,,,19,0,19,0,,,,,,,,,,,,,,,,,,,,,,,,,,,,,,,,,,,,,,,,,,,,,,,,,,,,,898.82577700002,None,,,,,,,,,,,,,,,,,,,,,,,,,,,,,,,,,,,flag,23,20,sing,white,896.8236704000155,None,None,896.8236704000155,None,,,,,,,,,,,,,,,,,,,,,,,,,,,,,,1,001,2023_Jan_25_1214,ExactRep-v3-final,2021.2.3,59.99005365368105,
,,,,,,,,20,0,20,0,,,,,,,,,,,,,,,,,,,,,,,,,,,,,,,,,,,,,,,,,,,,,,,,,,,,,901.3283308999962,None,,,,,,,,,,,,,,,,,,,,,,,,,,,,,,,,,,,fire,55,21,silent,blue,899.3263342000137,None,None,899.3263342000137,None,,,,,,,,,,,,,,,,,,,,,,,,,,,,,,1,001,2023_Jan_25_1214,ExactRep-v3-final,2021.2.3,59.99005365368105,
,,,,,,,,21,0,21,0,,,,,,,,,,,,,,,,,,,,,,,,,,,,,,,,,,,,,,,,,,,,,,,,,,,,,903.847485300008,None,,,,,,,,,,,,,,,,,,,,,,,,,,,,,,,,,,,volume,11,22,sing,white,901.832026899996,None,None,901.832026899996,None,,,,,,,,,,,,,,,,,,,,,,,,,,,,,,1,001,2023_Jan_25_1214,ExactRep-v3-final,2021.2.3,59.99005365368105,
,,,,,,,,22,0,22,0,,,,,,,,,,,,,,,,,,,,,,,,,,,,,,,,,,,,,,,,,,,,,,,,,,,,,906.3665220999974,None,,,,,,,,,,,,,,,,,,,,,,,,,,,,,,,,,,,disease,67,23,silent,blue,904.360680200014,None,None,904.360680200014,None,,,,,,,,,,,,,,,,,,,,,,,,,,,,,,1,001,2023_Jan_25_1214,ExactRep-v3-final,2021.2.3,59.99005365368105,
,,,,,,,,23,0,23,0,,,,,,,,,,,,,,,,,,,,,,,,,,,,,,,,,,,,,,,,,,,,,,,,,,,,,908.8859205000044,None,,,,,,,,,,,,,,,,,,,,,,,,,,,,,,,,,,,letter,72,24,silent,blue,906.8775876,None,None,906.8775876,None,,,,,,,,,,,,,,,,,,,,,,,,,,,,,,1,001,2023_Jan_25_1214,ExactRep-v3-final,2021.2.3,59.99005365368105,
,,,,,,,,24,0,24,0,,,,,,,,,,,,,,,,,,,,,,,,,,,,,,,,,,,,,,,,,,,,,,,,,,,,,911.388518599997,None,,,,,,,,,,,,,,,,,,,,,,,,,,,,,,,,,,,judge,59,25,silent,blue,909.3879949999973,None,None,909.3879949999973,None,,,,,,,,,,,,,,,,,,,,,,,,,,,,,,1,001,2023_Jan_25_1214,ExactRep-v3-final,2021.2.3,59.99005365368105,
,,,,,,,,25,0,25,0,,,,,,,,,,,,,,,,,,,,,,,,,,,,,,,,,,,,,,,,,,,,,,,,,,,,,913.8938831000123,None,,,,,,,,,,,,,,,,,,,,,,,,,,,,,,,,,,,style,95,26,aloud,red,911.890080400015,None,None,911.890080400015,None,,,,,,,,,,,,,,,,,,,,,,,,,,,,,,1,001,2023_Jan_25_1214,ExactRep-v3-final,2021.2.3,59.99005365368105,
,,,,,,,,26,0,26,0,,,,,,,,,,,,,,,,,,,,,,,,,,,,,,,,,,,,,,,,,,,,,,,,,,,,,916.4267043000145,None,,,,,,,,,,,,,,,,,,,,,,,,,,,,,,,,,,,city,44,27,silent,blue,914.4136056000134,None,None,914.4136056000134,None,,,,,,,,,,,,,,,,,,,,,,,,,,,,,,1,001,2023_Jan_25_1214,ExactRep-v3-final,2021.2.3,59.99005365368105,
,,,,,,,,27,0,27,0,,,,,,,,,,,,,,,,,,,,,,,,,,,,,,,,,,,,,,,,,,,,,,,,,,,,,918.9291808000125,None,,,,,,,,,,,,,,,,,,,,,,,,,,,,,,,,,,,flood,1,28,sing,white,916.9291949000035,None,None,916.9291949000035,None,,,,,,,,,,,,,,,,,,,,,,,,,,,,,,1,001,2023_Jan_25_1214,ExactRep-v3-final,2021.2.3,59.99005365368105,
,,,,,,,,28,0,28,0,,,,,,,,,,,,,,,,,,,,,,,,,,,,,,,,,,,,,,,,,,,,,,,,,,,,,921.4317011000239,None,,,,,,,,,,,,,,,,,,,,,,,,,,,,,,,,,,,metal,36,29,sing,white,919.4297512000194,None,None,919.4297512000194,None,,,,,,,,,,,,,,,,,,,,,,,,,,,,,,1,001,2023_Jan_25_1214,ExactRep-v3-final,2021.2.3,59.99005365368105,
,,,,,,,,29,0,29,0,,,,,,,,,,,,,,,,,,,,,,,,,,,,,,,,,,,,,,,,,,,,,,,,,,,,,923.934284500021,None,,,,,,,,,,,,,,,,,,,,,,,,,,,,,,,,,,,memory,58,30,silent,blue,921.9338832000212,None,None,921.9338832000212,None,,,,,,,,,,,,,,,,,,,,,,,,,,,,,,1,001,2023_Jan_25_1214,ExactRep-v3-final,2021.2.3,59.99005365368105,
,,,,,,,,30,0,30,0,,,,,,,,,,,,,,,,,,,,,,,,,,,,,,,,,,,,,,,,,,,,,,,,,,,,,926.4367247000046,None,,,,,,,,,,,,,,,,,,,,,,,,,,,,,,,,,,,truth,91,31,aloud,red,924.4368460999976,None,None,924.4368460999976,None,,,,,,,,,,,,,,,,,,,,,,,,,,,,,,1,001,2023_Jan_25_1214,ExactRep-v3-final,2021.2.3,59.99005365368105,
,,,,,,,,31,0,31,0,,,,,,,,,,,,,,,,,,,,,,,,,,,,,,,,,,,,,,,,,,,,,,,,,,,,,928.9393083000032,None,,,,,,,,,,,,,,,,,,,,,,,,,,,,,,,,,,,stone,83,32,aloud,red,926.9391062000068,None,None,926.9391062000068,None,,,,,,,,,,,,,,,,,,,,,,,,,,,,,,1,001,2023_Jan_25_1214,ExactRep-v3-final,2021.2.3,59.99005365368105,
,,,,,,,,32,0,32,0,,,,,,,,,,,,,,,,,,,,,,,,,,,,,,,,,,,,,,,,,,,,,,,,,,,,,931.4417266000237,None,,,,,,,,,,,,,,,,,,,,,,,,,,,,,,,,,,,dress,87,33,aloud,red,929.4396468000195,None,None,929.4396468000195,None,,,,,,,,,,,,,,,,,,,,,,,,,,,,,,1,001,2023_Jan_25_1214,ExactRep-v3-final,2021.2.3,59.99005365368105,
,,,,,,,,33,0,33,0,,,,,,,,,,,,,,,,,,,,,,,,,,,,,,,,,,,,,,,,,,,,,,,,,,,,,933.9608884000045,None,,,,,,,,,,,,,,,,,,,,,,,,,,,,,,,,,,,wife,18,34,sing,white,931.9541095000168,None,None,931.9541095000168,None,,,,,,,,,,,,,,,,,,,,,,,,,,,,,,1,001,2023_Jan_25_1214,ExactRep-v3-final,2021.2.3,59.99005365368105,
,,,,,,,,34,0,34,0,,,,,,,,,,,,,,,,,,,,,,,,,,,,,,,,,,,,,,,,,,,,,,,,,,,,,936.4634489000018,None,,,,,,,,,,,,,,,,,,,,,,,,,,,,,,,,,,,camp,113,35,aloud,red,934.4613830000162,None,None,934.4613830000162,None,,,,,,,,,,,,,,,,,,,,,,,,,,,,,,1,001,2023_Jan_25_1214,ExactRep-v3-final,2021.2.3,59.99005365368105,
,,,,,,,,35,0,35,0,,,,,,,,,,,,,,,,,,,,,,,,,,,,,,,,,,,,,,,,,,,,,,,,,,,,,938.9826633000048,None,,,,,,,,,,,,,,,,,,,,,,,,,,,,,,,,,,,flower,101,36,aloud,red,936.9739373000048,None,None,936.9739373000048,None,,,,,,,,,,,,,,,,,,,,,,,,,,,,,,1,001,2023_Jan_25_1214,ExactRep-v3-final,2021.2.3,59.99005365368105,
,,,,,,,,36,0,36,0,,,,,,,,,,,,,,,,,,,,,,,,,,,,,,,,,,,,,,,,,,,,,,,,,,,,,941.5017872000171,None,,,,,,,,,,,,,,,,,,,,,,,,,,,,,,,,,,,vision,102,37,aloud,red,939.4881481000048,None,None,939.4881481000048,None,,,,,,,,,,,,,,,,,,,,,,,,,,,,,,1,001,2023_Jan_25_1214,ExactRep-v3-final,2021.2.3,59.99005365368105,
,,,,,,,,37,0,37,0,,,,,,,,,,,,,,,,,,,,,,,,,,,,,,,,,,,,,,,,,,,,,,,,,,,,,944.0042809000006,None,,,,,,,,,,,,,,,,,,,,,,,,,,,,,,,,,,,hotel,69,38,silent,blue,942.0023985000153,None,None,942.0023985000153,None,,,,,,,,,,,,,,,,,,,,,,,,,,,,,,1,001,2023_Jan_25_1214,ExactRep-v3-final,2021.2.3,59.99005365368105,
,,,,,,,,38,0,38,0,,,,,,,,,,,,,,,,,,,,,,,,,,,,,,,,,,,,,,,,,,,,,,,,,,,,,946.5233963000064,None,,,,,,,,,,,,,,,,,,,,,,,,,,,,,,,,,,,prayer,34,39,sing,white,944.5079206000082,None,None,944.5079206000082,None,,,,,,,,,,,,,,,,,,,,,,,,,,,,,,1,001,2023_Jan_25_1214,ExactRep-v3-final,2021.2.3,59.99005365368105,
,,,,,,,,39,0,39,0,,,,,,,,,,,,,,,,,,,,,,,,,,,,,,,,,,,,,,,,,,,,,,,,,,,,,949.0260115000128,None,,,,,,,,,,,,,,,,,,,,,,,,,,,,,,,,,,,person,29,40,sing,white,947.0239307000011,None,None,947.0239307000011,None,,,,,,,,,,,,,,,,,,,,,,,,,,,,,,1,001,2023_Jan_25_1214,ExactRep-v3-final,2021.2.3,59.99005365368105,
,,,,,,,,40,0,40,0,,,,,,,,,,,,,,,,,,,,,,,,,,,,,,,,,,,,,,,,,,,,,,,,,,,,,951.5451730000204,None,,,,,,,,,,,,,,,,,,,,,,,,,,,,,,,,,,,garden,92,41,aloud,red,949.5369124000135,None,None,949.5369124000135,None,,,,,,,,,,,,,,,,,,,,,,,,,,,,,,1,001,2023_Jan_25_1214,ExactRep-v3-final,2021.2.3,59.99005365368105,
,,,,,,,,41,0,41,0,,,,,,,,,,,,,,,,,,,,,,,,,,,,,,,,,,,,,,,,,,,,,,,,,,,,,954.0477394000045,None,,,,,,,,,,,,,,,,,,,,,,,,,,,,,,,,,,,artist,78,42,silent,blue,952.0478823000158,None,None,952.0478823000158,None,,,,,,,,,,,,,,,,,,,,,,,,,,,,,,1,001,2023_Jan_25_1214,ExactRep-v3-final,2021.2.3,59.99005365368105,
,,,,,,,,42,0,42,0,,,,,,,,,,,,,,,,,,,,,,,,,,,,,,,,,,,,,,,,,,,,,,,,,,,,,956.5668778000108,None,,,,,,,,,,,,,,,,,,,,,,,,,,,,,,,,,,,colony,108,43,aloud,red,954.557314900012,None,None,954.557314900012,None,,,,,,,,,,,,,,,,,,,,,,,,,,,,,,1,001,2023_Jan_25_1214,ExactRep-v3-final,2021.2.3,59.99005365368105,
,,,,,,,,43,0,43,0,,,,,,,,,,,,,,,,,,,,,,,,,,,,,,,,,,,,,,,,,,,,,,,,,,,,,959.0694092000194,None,,,,,,,,,,,,,,,,,,,,,,,,,,,,,,,,,,,cat,65,44,silent,blue,957.0698075999971,None,None,957.0698075999971,None,,,,,,,,,,,,,,,,,,,,,,,,,,,,,,1,001,2023_Jan_25_1214,ExactRep-v3-final,2021.2.3,59.99005365368105,
,,,,,,,,44,0,44,0,,,,,,,,,,,,,,,,,,,,,,,,,,,,,,,,,,,,,,,,,,,,,,,,,,,,,961.5720042000175,None,,,,,,,,,,,,,,,,,,,,,,,,,,,,,,,,,,,avenue,54,45,silent,blue,959.5729338000237,None,None,959.5729338000237,None,,,,,,,,,,,,,,,,,,,,,,,,,,,,,,1,001,2023_Jan_25_1214,ExactRep-v3-final,2021.2.3,59.99005365368105,
,,,,,,,,45,0,45,0,,,,,,,,,,,,,,,,,,,,,,,,,,,,,,,,,,,,,,,,,,,,,,,,,,,,,964.0910087000229,None,,,,,,,,,,,,,,,,,,,,,,,,,,,,,,,,,,,maiden,43,46,silent,blue,962.0790027000185,None,None,962.0790027000185,None,,,,,,,,,,,,,,,,,,,,,,,,,,,,,,1,001,2023_Jan_25_1214,ExactRep-v3-final,2021.2.3,59.99005365368105,
,,,,,,,,46,0,46,0,,,,,,,,,,,,,,,,,,,,,,,,,,,,,,,,,,,,,,,,,,,,,,,,,,,,,966.5935559000063,None,,,,,,,,,,,,,,,,,,,,,,,,,,,,,,,,,,,bar,3,47,sing,white,964.5923120000225,None,None,964.5923120000225,None,,,,,,,,,,,,,,,,,,,,,,,,,,,,,,1,001,2023_Jan_25_1214,ExactRep-v3-final,2021.2.3,59.99005365368105,
,,,,,,,,47,0,47,0,,,,,,,,,,,,,,,,,,,,,,,,,,,,,,,,,,,,,,,,,,,,,,,,,,,,,969.1127673000155,None,,,,,,,,,,,,,,,,,,,,,,,,,,,,,,,,,,,troops,96,48,aloud,red,967.0979413000168,None,None,967.0979413000168,None,,,,,,,,,,,,,,,,,,,,,,,,,,,,,,1,001,2023_Jan_25_1214,ExactRep-v3-final,2021.2.3,59.99005365368105,
,,,,,,,,48,0,48,0,,,,,,,,,,,,,,,,,,,,,,,,,,,,,,,,,,,,,,,,,,,,,,,,,,,,,971.615292500006,None,,,,,,,,,,,,,,,,,,,,,,,,,,,,,,,,,,,author,82,49,aloud,red,969.6162196000223,None,None,969.6162196000223,None,,,,,,,,,,,,,,,,,,,,,,,,,,,,,,1,001,2023_Jan_25_1214,ExactRep-v3-final,2021.2.3,59.99005365368105,
,,,,,,,,49,0,49,0,,,,,,,,,,,,,,,,,,,,,,,,,,,,,,,,,,,,,,,,,,,,,,,,,,,,,974.1343439000193,None,,,,,,,,,,,,,,,,,,,,,,,,,,,,,,,,,,,spirit,68,50,silent,blue,972.1211152000178,None,None,972.1211152000178,None,,,,,,,,,,,,,,,,,,,,,,,,,,,,,,1,001,2023_Jan_25_1214,ExactRep-v3-final,2021.2.3,59.99005365368105,
,,,,,,,,50,0,50,0,,,,,,,,,,,,,,,,,,,,,,,,,,,,,,,,,,,,,,,,,,,,,,,,,,,,,976.6541448000062,None,,,,,,,,,,,,,,,,,,,,,,,,,,,,,,,,,,,world,74,51,silent,blue,974.6456910000124,None,None,974.6456910000124,None,,,,,,,,,,,,,,,,,,,,,,,,,,,,,,1,001,2023_Jan_25_1214,ExactRep-v3-final,2021.2.3,59.99005365368105,
,,,,,,,,51,0,51,0,,,,,,,,,,,,,,,,,,,,,,,,,,,,,,,,,,,,,,,,,,,,,,,,,,,,,979.1728773000068,None,,,,,,,,,,,,,,,,,,,,,,,,,,,,,,,,,,,origin,94,52,aloud,red,977.1640446000092,None,None,977.1640446000092,None,,,,,,,,,,,,,,,,,,,,,,,,,,,,,,1,001,2023_Jan_25_1214,ExactRep-v3-final,2021.2.3,59.99005365368105,
,,,,,,,,52,0,52,0,,,,,,,,,,,,,,,,,,,,,,,,,,,,,,,,,,,,,,,,,,,,,,,,,,,,,981.6919697000121,None,,,,,,,,,,,,,,,,,,,,,,,,,,,,,,,,,,,moral,26,53,sing,white,979.6830520000076,None,None,979.6830520000076,None,,,,,,,,,,,,,,,,,,,,,,,,,,,,,,1,001,2023_Jan_25_1214,ExactRep-v3-final,2021.2.3,59.99005365368105,
,,,,,,,,53,0,53,0,,,,,,,,,,,,,,,,,,,,,,,,,,,,,,,,,,,,,,,,,,,,,,,,,,,,,984.19441310002,None,,,,,,,,,,,,,,,,,,,,,,,,,,,,,,,,,,,gift,114,54,aloud,red,982.1938250000239,None,None,982.1938250000239,None,,,,,,,,,,,,,,,,,,,,,,,,,,,,,,1,001,2023_Jan_25_1214,ExactRep-v3-final,2021.2.3,59.99005365368105,
,,,,,,,,54,0,54,0,,,,,,,,,,,,,,,,,,,,,,,,,,,,,,,,,,,,,,,,,,,,,,,,,,,,,986.6970176000032,None,,,,,,,,,,,,,,,,,,,,,,,,,,,,,,,,,,,diamond,20,55,sing,white,984.6978475000069,None,None,984.6978475000069,None,,,,,,,,,,,,,,,,,,,,,,,,,,,,,,1,001,2023_Jan_25_1214,ExactRep-v3-final,2021.2.3,59.99005365368105,
,,,,,,,,55,0,55,0,,,,,,,,,,,,,,,,,,,,,,,,,,,,,,,,,,,,,,,,,,,,,,,,,,,,,989.2161614000215,None,,,,,,,,,,,,,,,,,,,,,,,,,,,,,,,,,,,victory,27,56,sing,white,987.2012592999963,None,None,987.2012592999963,None,,,,,,,,,,,,,,,,,,,,,,,,,,,,,,1,001,2023_Jan_25_1214,ExactRep-v3-final,2021.2.3,59.99005365368105,
,,,,,,,,56,0,56,0,,,,,,,,,,,,,,,,,,,,,,,,,,,,,,,,,,,,,,,,,,,,,,,,,,,,,991.7186285000062,None,,,,,,,,,,,,,,,,,,,,,,,,,,,,,,,,,,,woods,86,57,aloud,red,989.716432700021,None,None,989.716432700021,None,,,,,,,,,,,,,,,,,,,,,,,,,,,,,,1,001,2023_Jan_25_1214,ExactRep-v3-final,2021.2.3,59.99005365368105,
,,,,,,,,57,0,57,0,,,,,,,,,,,,,,,,,,,,,,,,,,,,,,,,,,,,,,,,,,,,,,,,,,,,,994.2212261000241,None,,,,,,,,,,,,,,,,,,,,,,,,,,,,,,,,,,,advice,39,58,silent,blue,992.2222097000049,None,None,992.2222097000049,None,,,,,,,,,,,,,,,,,,,,,,,,,,,,,,1,001,2023_Jan_25_1214,ExactRep-v3-final,2021.2.3,59.99005365368105,
,,,,,,,,58,0,58,0,,,,,,,,,,,,,,,,,,,,,,,,,,,,,,,,,,,,,,,,,,,,,,,,,,,,,996.7237657000078,None,,,,,,,,,,,,,,,,,,,,,,,,,,,,,,,,,,,window,40,59,silent,blue,994.7217435000057,None,None,994.7217435000057,None,,,,,,,,,,,,,,,,,,,,,,,,,,,,,,1,001,2023_Jan_25_1214,ExactRep-v3-final,2021.2.3,59.99005365368105,
,,,,,,,,59,0,59,0,,,,,,,,,,,,,,,,,,,,,,,,,,,,,,,,,,,,,,,,,,,,,,,,,,,,,999.2427423000045,None,,,,,,,,,,,,,,,,,,,,,,,,,,,,,,,,,,,square,9,60,sing,white,997.2350645000115,None,None,997.2350645000115,None,,,,,,,,,,,,,,,,,,,,,,,,,,,,,,1,001,2023_Jan_25_1214,ExactRep-v3-final,2021.2.3,59.99005365368105,
,,,,,,,,60,0,60,0,,,,,,,,,,,,,,,,,,,,,,,,,,,,,,,,,,,,,,,,,,,,,,,,,,,,,1001.7620115000173,None,,,,,,,,,,,,,,,,,,,,,,,,,,,,,,,,,,,plain,84,61,aloud,red,999.7529701000021,None,None,999.7529701000021,None,,,,,,,,,,,,,,,,,,,,,,,,,,,,,,1,001,2023_Jan_25_1214,ExactRep-v3-final,2021.2.3,59.99005365368105,
,,,,,,,,61,0,61,0,,,,,,,,,,,,,,,,,,,,,,,,,,,,,,,,,,,,,,,,,,,,,,,,,,,,,1004.2644977000018,None,,,,,,,,,,,,,,,,,,,,,,,,,,,,,,,,,,,series,109,62,aloud,red,1002.2624625000171,None,None,1002.2624625000171,None,,,,,,,,,,,,,,,,,,,,,,,,,,,,,,1,001,2023_Jan_25_1214,ExactRep-v3-final,2021.2.3,59.99005365368105,
,,,,,,,,62,0,62,0,,,,,,,,,,,,,,,,,,,,,,,,,,,,,,,,,,,,,,,,,,,,,,,,,,,,,1006.7669264000142,None,,,,,,,,,,,,,,,,,,,,,,,,,,,,,,,,,,,meeting,107,63,aloud,red,1004.7647408000194,None,None,1004.7647408000194,None,,,,,,,,,,,,,,,,,,,,,,,,,,,,,,1,001,2023_Jan_25_1214,ExactRep-v3-final,2021.2.3,59.99005365368105,
,,,,,,,,63,0,63,0,,,,,,,,,,,,,,,,,,,,,,,,,,,,,,,,,,,,,,,,,,,,,,,,,,,,,1009.2861139000161,None,,,,,,,,,,,,,,,,,,,,,,,,,,,,,,,,,,,cash,15,64,sing,white,1007.2752651000046,None,None,1007.2752651000046,None,,,,,,,,,,,,,,,,,,,,,,,,,,,,,,1,001,2023_Jan_25_1214,ExactRep-v3-final,2021.2.3,59.99005365368105,
,,,,,,,,64,0,64,0,,,,,,,,,,,,,,,,,,,,,,,,,,,,,,,,,,,,,,,,,,,,,,,,,,,,,1011.7886361000128,None,,,,,,,,,,,,,,,,,,,,,,,,,,,,,,,,,,,chief,105,65,aloud,red,1009.7866203000012,None,None,1009.7866203000012,None,,,,,,,,,,,,,,,,,,,,,,,,,,,,,,1,001,2023_Jan_25_1214,ExactRep-v3-final,2021.2.3,59.99005365368105,
,,,,,,,,65,0,65,0,,,,,,,,,,,,,,,,,,,,,,,,,,,,,,,,,,,,,,,,,,,,,,,,,,,,,1014.3078219000017,None,,,,,,,,,,,,,,,,,,,,,,,,,,,,,,,,,,,month,25,66,sing,white,1012.293425300013,None,None,1012.293425300013,None,,,,,,,,,,,,,,,,,,,,,,,,,,,,,,1,001,2023_Jan_25_1214,ExactRep-v3-final,2021.2.3,59.99005365368105,
,,,,,,,,66,0,66,0,,,,,,,,,,,,,,,,,,,,,,,,,,,,,,,,,,,,,,,,,,,,,,,,,,,,,1016.8103666000243,None,,,,,,,,,,,,,,,,,,,,,,,,,,,,,,,,,,,weapon,97,67,aloud,red,1014.8083856000158,None,None,1014.8083856000158,None,,,,,,,,,,,,,,,,,,,,,,,,,,,,,,1,001,2023_Jan_25_1214,ExactRep-v3-final,2021.2.3,59.99005365368105,
,,,,,,,,67,0,67,0,,,,,,,,,,,,,,,,,,,,,,,,,,,,,,,,,,,,,,,,,,,,,,,,,,,,,1019.329510200012,None,,,,,,,,,,,,,,,,,,,,,,,,,,,,,,,,,,,safety,12,68,sing,white,1017.322854500002,None,None,1017.322854500002,None,,,,,,,,,,,,,,,,,,,,,,,,,,,,,,1,001,2023_Jan_25_1214,ExactRep-v3-final,2021.2.3,59.99005365368105,
,,,,,,,,68,0,68,0,,,,,,,,,,,,,,,,,,,,,,,,,,,,,,,,,,,,,,,,,,,,,,,,,,,,,1021.8317584000179,None,,,,,,,,,,,,,,,,,,,,,,,,,,,,,,,,,,,butter,31,69,sing,white,1019.8300173000025,None,None,1019.8300173000025,None,,,,,,,,,,,,,,,,,,,,,,,,,,,,,,1,001,2023_Jan_25_1214,ExactRep-v3-final,2021.2.3,59.99005365368105,
,,,,,,,,69,0,69,0,,,,,,,,,,,,,,,,,,,,,,,,,,,,,,,,,,,,,,,,,,,,,,,,,,,,,1024.334269700019,None,,,,,,,,,,,,,,,,,,,,,,,,,,,,,,,,,,,board,37,70,sing,white,1022.3325142000103,None,None,1022.3325142000103,None,,,,,,,,,,,,,,,,,,,,,,,,,,,,,,1,001,2023_Jan_25_1214,ExactRep-v3-final,2021.2.3,59.99005365368105,
,,,,,,,,70,0,70,0,,,,,,,,,,,,,,,,,,,,,,,,,,,,,,,,,,,,,,,,,,,,,,,,,,,,,1026.8541614999995,None,,,,,,,,,,,,,,,,,,,,,,,,,,,,,,,,,,,owner,47,71,silent,blue,1024.8404816999973,None,None,1024.8404816999973,None,,,,,,,,,,,,,,,,,,,,,,,,,,,,,,1,001,2023_Jan_25_1214,ExactRep-v3-final,2021.2.3,59.99005365368105,
,,,,,,,,71,0,71,0,,,,,,,,,,,,,,,,,,,,,,,,,,,,,,,,,,,,,,,,,,,,,,,,,,,,,1029.372818200005,None,,,,,,,,,,,,,,,,,,,,,,,,,,,,,,,,,,,silence,4,72,sing,white,1027.363596900017,None,None,1027.363596900017,None,,,,,,,,,,,,,,,,,,,,,,,,,,,,,,1,001,2023_Jan_25_1214,ExactRep-v3-final,2021.2.3,59.99005365368105,
,,,,,,,,72,0,72,0,,,,,,,,,,,,,,,,,,,,,,,,,,,,,,,,,,,,,,,,,,,,,,,,,,,,,1031.8753423000162,None,,,,,,,,,,,,,,,,,,,,,,,,,,,,,,,,,,,woman,62,73,silent,blue,1029.8734112000093,None,None,1029.8734112000093,None,,,,,,,,,,,,,,,,,,,,,,,,,,,,,,1,001,2023_Jan_25_1214,ExactRep-v3-final,2021.2.3,59.99005365368105,
,,,,,,,,73,0,73,0,,,,,,,,,,,,,,,,,,,,,,,,,,,,,,,,,,,,,,,,,,,,,,,,,,,,,1034.3777724000101,None,,,,,,,,,,,,,,,,,,,,,,,,,,,,,,,,,,,glory,100,74,aloud,red,1032.375883300003,None,None,1032.375883300003,None,,,,,,,,,,,,,,,,,,,,,,,,,,,,,,1,001,2023_Jan_25_1214,ExactRep-v3-final,2021.2.3,59.99005365368105,
,,,,,,,,74,0,74,0,,,,,,,,,,,,,,,,,,,,,,,,,,,,,,,,,,,,,,,,,,,,,,,,,,,,,1036.8803621999978,None,,,,,,,,,,,,,,,,,,,,,,,,,,,,,,,,,,,body,81,75,aloud,red,1034.8808381000126,None,None,1034.8808381000126,None,,,,,,,,,,,,,,,,,,,,,,,,,,,,,,1,001,2023_Jan_25_1214,ExactRep-v3-final,2021.2.3,59.99005365368105,
,,,,,,,,75,0,75,0,,,,,,,,,,,,,,,,,,,,,,,,,,,,,,,,,,,,,,,,,,,,,,,,,,,,,1039.3830158000055,None,,,,,,,,,,,,,,,,,,,,,,,,,,,,,,,,,,,machine,50,76,silent,blue,1037.380827200017,None,None,1037.380827200017,None,,,,,,,,,,,,,,,,,,,,,,,,,,,,,,1,001,2023_Jan_25_1214,ExactRep-v3-final,2021.2.3,59.99005365368105,
,,,,,,,,76,0,76,0,,,,,,,,,,,,,,,,,,,,,,,,,,,,,,,,,,,,,,,,,,,,,,,,,,,,,1041.885333000013,None,,,,,,,,,,,,,,,,,,,,,,,,,,,,,,,,,,,shock,88,77,aloud,red,1039.8834713000106,None,None,1039.8834713000106,None,,,,,,,,,,,,,,,,,,,,,,,,,,,,,,1,001,2023_Jan_25_1214,ExactRep-v3-final,2021.2.3,59.99005365368105,
,,,,,,,,77,0,77,0,,,,,,,,,,,,,,,,,,,,,,,,,,,,,,,,,,,,,,,,,,,,,,,,,,,,,1044.3879379999998,None,,,,,,,,,,,,,,,,,,,,,,,,,,,,,,,,,,,ticket,32,78,sing,white,1042.3883886999974,None,None,1042.3883886999974,None,,,,,,,,,,,,,,,,,,,,,,,,,,,,,,1,001,2023_Jan_25_1214,ExactRep-v3-final,2021.2.3,59.99005365368105,
,,,,,,,,78,0,78,0,,,,,,,,,,,,,,,,,,,,,,,,,,,,,,,,,,,,,,,,,,,,,,,,,,,,,1046.8904291000217,None,,,,,,,,,,,,,,,,,,,,,,,,,,,,,,,,,,,meat,64,79,silent,blue,1044.8882589999994,None,None,1044.8882589999994,None,,,,,,,,,,,,,,,,,,,,,,,,,,,,,,1,001,2023_Jan_25_1214,ExactRep-v3-final,2021.2.3,59.99005365368105,
,,,,,,,,79,0,79,0,,,,,,,,,,,,,,,,,,,,,,,,,,,,,,,,,,,,,,,,,,,,,,,,,,,,,1049.4095801000076,None,,,,,,,,,,,,,,,,,,,,,,,,,,,,,,,,,,,life,75,80,silent,blue,1047.3987638000108,None,None,1047.3987638000108,None,,,,,,,,,,,,,,,,,,,,,,,,,,,,,,1,001,2023_Jan_25_1214,ExactRep-v3-final,2021.2.3,59.99005365368105,
,,,,,,,,80,0,80,0,,,,,,,,,,,,,,,,,,,,,,,,,,,,,,,,,,,,,,,,,,,,,,,,,,,,,1051.911808600009,None,,,,,,,,,,,,,,,,,,,,,,,,,,,,,,,,,,,cabin,42,81,silent,blue,1049.9100967000122,None,None,1049.9100967000122,None,,,,,,,,,,,,,,,,,,,,,,,,,,,,,,1,001,2023_Jan_25_1214,ExactRep-v3-final,2021.2.3,59.99005365368105,
,,,,,,,,81,0,81,0,,,,,,,,,,,,,,,,,,,,,,,,,,,,,,,,,,,,,,,,,,,,,,,,,,,,,1054.4163984000043,None,,,,,,,,,,,,,,,,,,,,,,,,,,,,,,,,,,,leader,33,82,sing,white,1052.412577900017,None,None,1052.412577900017,None,,,,,,,,,,,,,,,,,,,,,,,,,,,,,,1,001,2023_Jan_25_1214,ExactRep-v3-final,2021.2.3,59.99005365368105,
,,,,,,,,82,0,82,0,,,,,,,,,,,,,,,,,,,,,,,,,,,,,,,,,,,,,,,,,,,,,,,,,,,,,1056.9337952000205,None,,,,,,,,,,,,,,,,,,,,,,,,,,,,,,,,,,,ability,48,83,silent,blue,1054.9318133000052,None,None,1054.9318133000052,None,,,,,,,,,,,,,,,,,,,,,,,,,,,,,,1,001,2023_Jan_25_1214,ExactRep-v3-final,2021.2.3,59.99005365368105,
,,,,,,,,83,0,83,0,,,,,,,,,,,,,,,,,,,,,,,,,,,,,,,,,,,,,,,,,,,,,,,,,,,,,1059.4360642000102,None,,,,,,,,,,,,,,,,,,,,,,,,,,,,,,,,,,,quality,2,84,sing,white,1057.4340174000245,None,None,1057.4340174000245,None,,,,,,,,,,,,,,,,,,,,,,,,,,,,,,1,001,2023_Jan_25_1214,ExactRep-v3-final,2021.2.3,59.99005365368105,
,,,,,,,,84,0,84,0,,,,,,,,,,,,,,,,,,,,,,,,,,,,,,,,,,,,,,,,,,,,,,,,,,,,,1061.9404215000104,None,,,,,,,,,,,,,,,,,,,,,,,,,,,,,,,,,,,doll,66,85,silent,blue,1059.936762600002,None,None,1059.936762600002,None,,,,,,,,,,,,,,,,,,,,,,,,,,,,,,1,001,2023_Jan_25_1214,ExactRep-v3-final,2021.2.3,59.99005365368105,
,,,,,,,,85,0,85,0,,,,,,,,,,,,,,,,,,,,,,,,,,,,,,,,,,,,,,,,,,,,,,,,,,,,,1064.4578722000006,None,,,,,,,,,,,,,,,,,,,,,,,,,,,,,,,,,,,shore,0,86,sing,white,1062.4559987999965,None,None,1062.4559987999965,None,,,,,,,,,,,,,,,,,,,,,,,,,,,,,,1,001,2023_Jan_25_1214,ExactRep-v3-final,2021.2.3,59.99005365368105,
,,,,,,,,86,0,86,0,,,,,,,,,,,,,,,,,,,,,,,,,,,,,,,,,,,,,,,,,,,,,,,,,,,,,1066.9625021000102,None,,,,,,,,,,,,,,,,,,,,,,,,,,,,,,,,,,,bird,6,87,sing,white,1064.9602431000094,None,None,1064.9602431000094,None,,,,,,,,,,,,,,,,,,,,,,,,,,,,,,1,001,2023_Jan_25_1214,ExactRep-v3-final,2021.2.3,59.99005365368105,
,,,,,,,,87,0,87,0,,,,,,,,,,,,,,,,,,,,,,,,,,,,,,,,,,,,,,,,,,,,,,,,,,,,,1069.4795992000145,None,,,,,,,,,,,,,,,,,,,,,,,,,,,,,,,,,,,virtue,118,88,aloud,red,1067.4777223000128,None,None,1067.4777223000128,None,,,,,,,,,,,,,,,,,,,,,,,,,,,,,,1,001,2023_Jan_25_1214,ExactRep-v3-final,2021.2.3,59.99005365368105,
,,,,,,,,88,0,88,0,,,,,,,,,,,,,,,,,,,,,,,,,,,,,,,,,,,,,,,,,,,,,,,,,,,,,1072.0002492000058,None,,,,,,,,,,,,,,,,,,,,,,,,,,,,,,,,,,,seat,49,89,silent,blue,1069.9924115000176,None,None,1069.9924115000176,None,,,,,,,,,,,,,,,,,,,,,,,,,,,,,,1,001,2023_Jan_25_1214,ExactRep-v3-final,2021.2.3,59.99005365368105,
,,,,,,,,89,0,89,0,,,,,,,,,,,,,,,,,,,,,,,,,,,,,,,,,,,,,,,,,,,,,,,,,,,,,1074.5053948000132,None,,,,,,,,,,,,,,,,,,,,,,,,,,,,,,,,,,,car,57,90,silent,blue,1072.500243300019,None,None,1072.500243300019,None,,,,,,,,,,,,,,,,,,,,,,,,,,,,,,1,001,2023_Jan_25_1214,ExactRep-v3-final,2021.2.3,59.99005365368105,
,,,,,,,,90,0,90,0,,,,,,,,,,,,,,,,,,,,,,,,,,,,,,,,,,,,,,,,,,,,,,,,,,,,,1077.0372212000075,None,,,,,,,,,,,,,,,,,,,,,,,,,,,,,,,,,,,hour,110,91,aloud,red,1075.0260061000008,None,None,1075.0260061000008,None,,,,,,,,,,,,,,,,,,,,,,,,,,,,,,1,001,2023_Jan_25_1214,ExactRep-v3-final,2021.2.3,59.99005365368105,
,,,,,,,,91,0,91,0,,,,,,,,,,,,,,,,,,,,,,,,,,,,,,,,,,,,,,,,,,,,,,,,,,,,,1079.539418500004,None,,,,,,,,,,,,,,,,,,,,,,,,,,,,,,,,,,,cost,35,92,sing,white,1077.5377641000086,None,None,1077.5377641000086,None,,,,,,,,,,,,,,,,,,,,,,,,,,,,,,1,001,2023_Jan_25_1214,ExactRep-v3-final,2021.2.3,59.99005365368105,
,,,,,,,,92,0,92,0,,,,,,,,,,,,,,,,,,,,,,,,,,,,,,,,,,,,,,,,,,,,,,,,,,,,,1082.059375700017,None,,,,,,,,,,,,,,,,,,,,,,,,,,,,,,,,,,,crime,38,93,sing,white,1080.049368500011,None,None,1080.049368500011,None,,,,,,,,,,,,,,,,,,,,,,,,,,,,,,1,001,2023_Jan_25_1214,ExactRep-v3-final,2021.2.3,59.99005365368105,
,,,,,,,,93,0,93,0,,,,,,,,,,,,,,,,,,,,,,,,,,,,,,,,,,,,,,,,,,,,,,,,,,,,,1084.5630523000145,None,,,,,,,,,,,,,,,,,,,,,,,,,,,,,,,,,,,fault,103,94,aloud,red,1082.5593593000085,None,None,1082.5593593000085,None,,,,,,,,,,,,,,,,,,,,,,,,,,,,,,1,001,2023_Jan_25_1214,ExactRep-v3-final,2021.2.3,59.99005365368105,
,,,,,,,,94,0,94,0,,,,,,,,,,,,,,,,,,,,,,,,,,,,,,,,,,,,,,,,,,,,,,,,,,,,,1087.0803532999998,None,,,,,,,,,,,,,,,,,,,,,,,,,,,,,,,,,,,dream,56,95,silent,blue,1085.0785218000237,None,None,1085.0785218000237,None,,,,,,,,,,,,,,,,,,,,,,,,,,,,,,1,001,2023_Jan_25_1214,ExactRep-v3-final,2021.2.3,59.99005365368105,
,,,,,,,,95,0,95,0,,,,,,,,,,,,,,,,,,,,,,,,,,,,,,,,,,,,,,,,,,,,,,,,,,,,,1089.5998168000078,None,,,,,,,,,,,,,,,,,,,,,,,,,,,,,,,,,,,clock,46,96,silent,blue,1087.5910435999976,None,None,1087.5910435999976,None,,,,,,,,,,,,,,,,,,,,,,,,,,,,,,1,001,2023_Jan_25_1214,ExactRep-v3-final,2021.2.3,59.99005365368105,
,,,,,,,,96,0,96,0,,,,,,,,,,,,,,,,,,,,,,,,,,,,,,,,,,,,,,,,,,,,,,,,,,,,,1092.1022270999965,None,,,,,,,,,,,,,,,,,,,,,,,,,,,,,,,,,,,sky,51,97,silent,blue,1090.1002042000182,None,None,1090.1002042000182,None,,,,,,,,,,,,,,,,,,,,,,,,,,,,,,1,001,2023_Jan_25_1214,ExactRep-v3-final,2021.2.3,59.99005365368105,
,,,,,,,,97,0,97,0,,,,,,,,,,,,,,,,,,,,,,,,,,,,,,,,,,,,,,,,,,,,,,,,,,,,,1094.604509900004,None,,,,,,,,,,,,,,,,,,,,,,,,,,,,,,,,,,,money,30,98,sing,white,1092.6029940000153,None,None,1092.6029940000153,None,,,,,,,,,,,,,,,,,,,,,,,,,,,,,,1,001,2023_Jan_25_1214,ExactRep-v3-final,2021.2.3,59.99005365368105,
,,,,,,,,98,0,98,0,,,,,,,,,,,,,,,,,,,,,,,,,,,,,,,,,,,,,,,,,,,,,,,,,,,,,1097.1070033000142,None,,,,,,,,,,,,,,,,,,,,,,,,,,,,,,,,,,,season,98,99,aloud,red,1095.1050094000238,None,None,1095.1050094000238,None,,,,,,,,,,,,,,,,,,,,,,,,,,,,,,1,001,2023_Jan_25_1214,ExactRep-v3-final,2021.2.3,59.99005365368105,
,,,,,,,,99,0,99,0,,,,,,,,,,,,,,,,,,,,,,,,,,,,,,,,,,,,,,,,,,,,,,,,,,,,,1099.6095965999993,None,,,,,,,,,,,,,,,,,,,,,,,,,,,,,,,,,,,forest,7,100,sing,white,1097.6074853000173,None,None,1097.6074853000173,None,,,,,,,,,,,,,,,,,,,,,,,,,,,,,,1,001,2023_Jan_25_1214,ExactRep-v3-final,2021.2.3,59.99005365368105,
,,,,,,,,100,0,100,0,,,,,,,,,,,,,,,,,,,,,,,,,,,,,,,,,,,,,,,,,,,,,,,,,,,,,1102.1119501000212,None,,,,,,,,,,,,,,,,,,,,,,,,,,,,,,,,,,,boy,10,101,sing,white,1100.1101334000123,None,None,1100.1101334000123,None,,,,,,,,,,,,,,,,,,,,,,,,,,,,,,1,001,2023_Jan_25_1214,ExactRep-v3-final,2021.2.3,59.99005365368105,
,,,,,,,,101,0,101,0,,,,,,,,,,,,,,,,,,,,,,,,,,,,,,,,,,,,,,,,,,,,,,,,,,,,,1104.6146145999955,None,,,,,,,,,,,,,,,,,,,,,,,,,,,,,,,,,,,fact,60,102,silent,blue,1102.6125047000241,None,None,1102.6125047000241,None,,,,,,,,,,,,,,,,,,,,,,,,,,,,,,1,001,2023_Jan_25_1214,ExactRep-v3-final,2021.2.3,59.99005365368105,
,,,,,,,,102,0,102,0,,,,,,,,,,,,,,,,,,,,,,,,,,,,,,,,,,,,,,,,,,,,,,,,,,,,,1107.116991500021,None,,,,,,,,,,,,,,,,,,,,,,,,,,,,,,,,,,,justice,89,103,aloud,red,1105.1150453000155,None,None,1105.1150453000155,None,,,,,,,,,,,,,,,,,,,,,,,,,,,,,,1,001,2023_Jan_25_1214,ExactRep-v3-final,2021.2.3,59.99005365368105,
,,,,,,,,103,0,103,0,,,,,,,,,,,,,,,,,,,,,,,,,,,,,,,,,,,,,,,,,,,,,,,,,,,,,1109.6194883999997,None,,,,,,,,,,,,,,,,,,,,,,,,,,,,,,,,,,,valley,119,104,aloud,red,1107.6174527000112,None,None,1107.6174527000112,None,,,,,,,,,,,,,,,,,,,,,,,,,,,,,,1,001,2023_Jan_25_1214,ExactRep-v3-final,2021.2.3,59.99005365368105,
,,,,,,,,104,0,104,0,,,,,,,,,,,,,,,,,,,,,,,,,,,,,,,,,,,,,,,,,,,,,,,,,,,,,1112.1218372000149,None,,,,,,,,,,,,,,,,,,,,,,,,,,,,,,,,,,,lad,70,105,silent,blue,1110.1200656,None,None,1110.1200656,None,,,,,,,,,,,,,,,,,,,,,,,,,,,,,,1,001,2023_Jan_25_1214,ExactRep-v3-final,2021.2.3,59.99005365368105,
,,,,,,,,105,0,105,0,,,,,,,,,,,,,,,,,,,,,,,,,,,,,,,,,,,,,,,,,,,,,,,,,,,,,1114.6246222000045,None,,,,,,,,,,,,,,,,,,,,,,,,,,,,,,,,,,,master,80,106,aloud,red,1112.6227818000189,None,None,1112.6227818000189,None,,,,,,,,,,,,,,,,,,,,,,,,,,,,,,1,001,2023_Jan_25_1214,ExactRep-v3-final,2021.2.3,59.99005365368105,
,,,,,,,,106,0,106,0,,,,,,,,,,,,,,,,,,,,,,,,,,,,,,,,,,,,,,,,,,,,,,,,,,,,,1117.1271761000098,None,,,,,,,,,,,,,,,,,,,,,,,,,,,,,,,,,,,answer,13,107,sing,white,1115.1251537000062,None,None,1115.1251537000062,None,,,,,,,,,,,,,,,,,,,,,,,,,,,,,,1,001,2023_Jan_25_1214,ExactRep-v3-final,2021.2.3,59.99005365368105,
,,,,,,,,107,0,107,0,,,,,,,,,,,,,,,,,,,,,,,,,,,,,,,,,,,,,,,,,,,,,,,,,,,,,1119.6295118000126,None,,,,,,,,,,,,,,,,,,,,,,,,,,,,,,,,,,,shoes,21,108,sing,white,1117.6294415000011,None,None,1117.6294415000011,None,,,,,,,,,,,,,,,,,,,,,,,,,,,,,,1,001,2023_Jan_25_1214,ExactRep-v3-final,2021.2.3,59.99005365368105,
,,,,,,,,108,0,108,0,,,,,,,,,,,,,,,,,,,,,,,,,,,,,,,,,,,,,,,,,,,,,,,,,,,,,1122.1321520000056,None,,,,,,,,,,,,,,,,,,,,,,,,,,,,,,,,,,,palace,85,109,aloud,red,1120.1300744000182,None,None,1120.1300744000182,None,,,,,,,,,,,,,,,,,,,,,,,,,,,,,,1,001,2023_Jan_25_1214,ExactRep-v3-final,2021.2.3,59.99005365368105,
,,,,,,,,109,0,109,0,,,,,,,,,,,,,,,,,,,,,,,,,,,,,,,,,,,,,,,,,,,,,,,,,,,,,1124.6344809000148,None,,,,,,,,,,,,,,,,,,,,,,,,,,,,,,,,,,,murder,8,110,sing,white,1122.6324724000006,None,None,1122.6324724000006,None,,,,,,,,,,,,,,,,,,,,,,,,,,,,,,1,001,2023_Jan_25_1214,ExactRep-v3-final,2021.2.3,59.99005365368105,
,,,,,,,,110,0,110,0,,,,,,,,,,,,,,,,,,,,,,,,,,,,,,,,,,,,,,,,,,,,,,,,,,,,,1127.137078300002,None,,,,,,,,,,,,,,,,,,,,,,,,,,,,,,,,,,,string,61,111,silent,blue,1125.135026200005,None,None,1125.135026200005,None,,,,,,,,,,,,,,,,,,,,,,,,,,,,,,1,001,2023_Jan_25_1214,ExactRep-v3-final,2021.2.3,59.99005365368105,
,,,,,,,,111,0,111,0,,,,,,,,,,,,,,,,,,,,,,,,,,,,,,,,,,,,,,,,,,,,,,,,,,,,,1129.6397846000036,None,,,,,,,,,,,,,,,,,,,,,,,,,,,,,,,,,,,fate,112,112,aloud,red,1127.6377982000122,None,None,1127.6377982000122,None,,,,,,,,,,,,,,,,,,,,,,,,,,,,,,1,001,2023_Jan_25_1214,ExactRep-v3-final,2021.2.3,59.99005365368105,
,,,,,,,,112,0,112,0,,,,,,,,,,,,,,,,,,,,,,,,,,,,,,,,,,,,,,,,,,,,,,,,,,,,,1132.1422754000232,None,,,,,,,,,,,,,,,,,,,,,,,,,,,,,,,,,,,hope,73,113,silent,blue,1130.140134300018,None,None,1130.140134300018,None,,,,,,,,,,,,,,,,,,,,,,,,,,,,,,1,001,2023_Jan_25_1214,ExactRep-v3-final,2021.2.3,59.99005365368105,
,,,,,,,,113,0,113,0,,,,,,,,,,,,,,,,,,,,,,,,,,,,,,,,,,,,,,,,,,,,,,,,,,,,,1134.6614169999957,None,,,,,,,,,,,,,,,,,,,,,,,,,,,,,,,,,,,power,14,114,sing,white,1132.6498130999971,None,None,1132.6498130999971,None,,,,,,,,,,,,,,,,,,,,,,,,,,,,,,1,001,2023_Jan_25_1214,ExactRep-v3-final,2021.2.3,59.99005365368105,
,,,,,,,,114,0,114,0,,,,,,,,,,,,,,,,,,,,,,,,,,,,,,,,,,,,,,,,,,,,,,,,,,,,,1137.1637334999978,None,,,,,,,,,,,,,,,,,,,,,,,,,,,,,,,,,,,steam,5,115,sing,white,1135.1619090000167,None,None,1135.1619090000167,None,,,,,,,,,,,,,,,,,,,,,,,,,,,,,,1,001,2023_Jan_25_1214,ExactRep-v3-final,2021.2.3,59.99005365368105,
,,,,,,,,115,0,115,0,,,,,,,,,,,,,,,,,,,,,,,,,,,,,,,,,,,,,,,,,,,,,,,,,,,,,1139.6663595999999,None,,,,,,,,,,,,,,,,,,,,,,,,,,,,,,,,,,,duty,19,116,sing,white,1137.6641742000065,None,None,1137.6641742000065,None,,,,,,,,,,,,,,,,,,,,,,,,,,,,,,1,001,2023_Jan_25_1214,ExactRep-v3-final,2021.2.3,59.99005365368105,
,,,,,,,,116,0,116,0,,,,,,,,,,,,,,,,,,,,,,,,,,,,,,,,,,,,,,,,,,,,,,,,,,,,,1142.168720000016,None,,,,,,,,,,,,,,,,,,,,,,,,,,,,,,,,,,,arm,99,117,aloud,red,1140.166725600022,None,None,1140.166725600022,None,,,,,,,,,,,,,,,,,,,,,,,,,,,,,,1,001,2023_Jan_25_1214,ExactRep-v3-final,2021.2.3,59.99005365368105,
,,,,,,,,117,0,117,0,,,,,,,,,,,,,,,,,,,,,,,,,,,,,,,,,,,,,,,,,,,,,,,,,,,,,1144.6713070000114,None,,,,,,,,,,,,,,,,,,,,,,,,,,,,,,,,,,,dollar,93,118,aloud,red,1142.6690990000207,None,None,1142.6690990000207,None,,,,,,,,,,,,,,,,,,,,,,,,,,,,,,1,001,2023_Jan_25_1214,ExactRep-v3-final,2021.2.3,59.99005365368105,
,,,,,,,,118,0,118,0,,,,,,,,,,,,,,,,,,,,,,,,,,,,,,,,,,,,,,,,,,,,,,,,,,,,,1147.1736740000197,None,,,,,,,,,,,,,,,,,,,,,,,,,,,,,,,,,,,winter,116,119,aloud,red,1145.171980300016,None,None,1145.171980300016,None,,,,,,,,,,,,,,,,,,,,,,,,,,,,,,1,001,2023_Jan_25_1214,ExactRep-v3-final,2021.2.3,59.99005365368105,
,,,,,,,,119,0,119,0,,,,,,,,,,,,,,,,,,,,,,,,,,,,,,,,,,,,,,,,,,,,,,,,,,,,,1149.6765038000012,None,,,,,,,,,,,,,,,,,,,,,,,,,,,,,,,,,,,grass,63,120,silent,blue,1147.6745025000127,None,None,1147.6745025000127,None,,,,,,,,,,,,,,,,,,,,,,,,,,,,,,1,001,2023_Jan_25_1214,ExactRep-v3-final,2021.2.3,59.99005365368105,
,,,,,,,,,,,,,,,,,,,,,,,,,,,,,,,,,,,,,,,,,,,,,,,,,,,,,,,,,,,,,,,,,,,,,,,,,,,,,,,,,,,,,,,,,,,,,,,,,,,,,,,,,,,,,,1150.178241800022,None,space,47.24649409999256,1160.154758700024,None,,,,,,,,,,,,,,,,,,,,,,,,1,001,2023_Jan_25_1214,ExactRep-v3-final,2021.2.3,59.99005365368105,
,,,,,,,,,,,,,,,,,,,,,,,,,,,,,,,,,,,,,,,,,,,,,,,,,,,,,,,,,,,,,,,,,,,,,,,,,,,,,,,,,,,,,,,,,,,,,,,,,,,,,,,,,,,,,,,,,,,,1207.419344599999,None,space,41.52566310000839,1217.3955384000146,None,,,,,,,,,,,,,,,,,,1,001,2023_Jan_25_1214,ExactRep-v3-final,2021.2.3,59.99005365368105,
,,,,,,,,,,,,0,0,0,0,,,,,,,,,,,,,,,,,,,,,,,,,,,,,,,,,,,,,,,,,,,,,,,,,1262.7060120000097,None,,,,,,,,,,,,,,,,,,,,,,,,,,,,,,,,,,,,,,,,,,,,,,,,,,,,,,,,,flood,1,1,sing,old,white,1259.4502802000206,None,y,1259.4502802000206,None,"['y', 'return']","[2.2548431000031997, 3.2227046999905724]",1259.4502802000206,None,,,1,001,2023_Jan_25_1214,ExactRep-v3-final,2021.2.3,59.99005365368105,
,,,,,,,,,,,,1,0,1,0,,,,,,,,,,,,,,,,,,,,,,,,,,,,,,,,,,,,,,,,,,,,,,,,,1264.791420900001,None,,,,,,,,,,,,,,,,,,,,,,,,,,,,,,,,,,,,,,,,,,,,,,,,,,,,,,,,,colony,108,2,aloud,old,red,1263.2188588000135,None,y,1263.2188588000135,None,"['y', 'return']","[1.382122499984689, 1.5261728999903426]",1263.2188588000135,None,,,1,001,2023_Jan_25_1214,ExactRep-v3-final,2021.2.3,59.99005365368105,
,,,,,,,,,,,,2,0,2,0,,,,,,,,,,,,,,,,,,,,,,,,,,,,,,,,,,,,,,,,,,,,,,,,,1268.9455808000057,None,,,,,,,,,,,,,,,,,,,,,,,,,,,,,,,,,,,,,,,,,,,,,,,,,,,,,,,,,hide,192,3,aloud,new,red,1265.2987354000215,None,n,1265.2987354000215,None,"['n', 'return']","[3.4703815999964718, 3.606380099983653]",1265.2987354000215,None,,,1,001,2023_Jan_25_1214,ExactRep-v3-final,2021.2.3,59.99005365368105,
,,,,,,,,,,,,3,0,3,0,,,,,,,,,,,,,,,,,,,,,,,,,,,,,,,,,,,,,,,,,,,,,,,,,1271.548182300001,None,,,,,,,,,,,,,,,,,,,,,,,,,,,,,,,,,,,,,,,,,,,,,,,,,,,,,,,,,lake,175,4,sing,new,white,1269.4535393000115,None,n,1269.4535393000115,None,"['n', 'return']","[1.9234351000050083, 2.0515268000017386]",1269.4535393000115,None,,,1,001,2023_Jan_25_1214,ExactRep-v3-final,2021.2.3,59.99005365368105,
,,,,,,,,,,,,4,0,4,0,,,,,,,,,,,,,,,,,,,,,,,,,,,,,,,,,,,,,,,,,,,,,,,,,1273.885044499999,None,,,,,,,,,,,,,,,,,,,,,,,,,,,,,,,,,,,,,,,,,,,,,,,,,,,,,,,,,power,14,5,sing,old,white,1272.057124700019,None,y,1272.057124700019,None,"['y', 'return']","[1.7038851999968756, 1.7918291999958456]",1272.057124700019,None,,,1,001,2023_Jan_25_1214,ExactRep-v3-final,2021.2.3,59.99005365368105,
,,,,,,,,,,,,5,0,5,0,,,,,,,,,,,,,,,,,,,,,,,,,,,,,,,,,,,,,,,,,,,,,,,,,1276.354320000013,None,,,,,,,,,,,,,,,,,,,,,,,,,,,,,,,,,,,,,,,,,,,,,,,,,,,,,,,,,love,90,6,aloud,old,red,1274.3940700000094,None,n,1274.3940700000094,None,"['n', 'return']","[1.8389211999892723, 1.9268749000038952]",1274.3940700000094,None,,,1,001,2023_Jan_25_1214,ExactRep-v3-final,2021.2.3,59.99005365368105,
,,,,,,,,,,,,6,0,6,0,,,,,,,,,,,,,,,,,,,,,,,,,,,,,,,,,,,,,,,,,,,,,,,,,1278.6897795000114,None,,,,,,,,,,,,,,,,,,,,,,,,,,,,,,,,,,,,,,,,,,,,,,,,,,,,,,,,,owner,47,7,silent,old,blue,1276.8683057000162,None,y,1276.8683057000162,None,"['y', 'return']","[1.6606635999924038, 1.7808074000058696]",1276.8683057000162,None,,,1,001,2023_Jan_25_1214,ExactRep-v3-final,2021.2.3,59.99005365368105,
,,,,,,,,,,,,7,0,7,0,,,,,,,,,,,,,,,,,,,,,,,,,,,,,,,,,,,,,,,,,,,,,,,,,1280.0066389999993,None,,,,,,,,,,,,,,,,,,,,,,,,,,,,,,,,,,,,,,,,,,,,,,,,,,,,,,,,,factory,178,8,aloud,new,red,1279.191224500013,None,y,1279.191224500013,None,"['y', 'return']","[0.6816995000117458, 0.7698124000162352]",1279.191224500013,None,,,1,001,2023_Jan_25_1214,ExactRep-v3-final,2021.2.3,59.99005365368105,
,,,,,,,,,,,,8,0,8,0,,,,,,,,,,,,,,,,,,,,,,,,,,,,,,,,,,,,,,,,,,,,,,,,,1281.708327100001,None,,,,,,,,,,,,,,,,,,,,,,,,,,,,,,,,,,,,,,,,,,,,,,,,,,,,,,,,,village,168,9,aloud,new,red,1280.5158125000016,None,y,1280.5158125000016,None,"['y', 'return']","[1.0451553000020795, 1.14921959998901]",1280.5158125000016,None,,,1,001,2023_Jan_25_1214,ExactRep-v3-final,2021.2.3,59.99005365368105,
,,,,,,,,,,,,9,0,9,0,,,,,,,,,,,,,,,,,,,,,,,,,,,,,,,,,,,,,,,,,,,,,,,,,1283.2932091999974,None,,,,,,,,,,,,,,,,,,,,,,,,,,,,,,,,,,,,,,,,,,,,,,,,,,,,,,,,,murder,8,10,sing,old,white,1282.2176841000037,None,y,1282.2176841000037,None,"['y', 'return']","[0.9593979000055697, 1.0393148000002839]",1282.2176841000037,None,,,1,001,2023_Jan_25_1214,ExactRep-v3-final,2021.2.3,59.99005365368105,
,,,,,,,,,,,,10,0,10,0,,,,,,,,,,,,,,,,,,,,,,,,,,,,,,,,,,,,,,,,,,,,,,,,,1288.2319610000122,None,,,,,,,,,,,,,,,,,,,,,,,,,,,,,,,,,,,,,,,,,,,,,,,,,,,,,,,,,effort,150,11,silent,new,blue,1283.8056330000109,None,n,1283.8056330000109,None,"['n', 'return']","[4.307358400023077, 4.387356599996565]",1283.8056330000109,None,,,1,001,2023_Jan_25_1214,ExactRep-v3-final,2021.2.3,59.99005365368105,
,,,,,,,,,,,,11,0,11,0,,,,,,,,,,,,,,,,,,,,,,,,,,,,,,,,,,,,,,,,,,,,,,,,,1290.3169270000071,None,,,,,,,,,,,,,,,,,,,,,,,,,,,,,,,,,,,,,,,,,,,,,,,,,,,,,,,,,wine,164,12,aloud,new,red,1288.7423328000004,None,n,1288.7423328000004,None,"['n', 'return']","[1.474687299982179, 1.53863409999758]",1288.7423328000004,None,,,1,001,2023_Jan_25_1214,ExactRep-v3-final,2021.2.3,59.99005365368105,
,,,,,,,,,,,,12,0,12,0,,,,,,,,,,,,,,,,,,,,,,,,,,,,,,,,,,,,,,,,,,,,,,,,,1292.687055300019,None,,,,,,,,,,,,,,,,,,,,,,,,,,,,,,,,,,,,,,,,,,,,,,,,,,,,,,,,,college,129,13,silent,new,blue,1290.8315691000025,None,n,1290.8315691000025,None,"['n', 'return']","[1.7454310999892186, 1.8174459000001661]",1290.8315691000025,None,,,1,001,2023_Jan_25_1214,ExactRep-v3-final,2021.2.3,59.99005365368105,
,,,,,,,,,,,,13,0,13,0,,,,,,,,,,,,,,,,,,,,,,,,,,,,,,,,,,,,,,,,,,,,,,,,,1295.1728812000074,None,,,,,,,,,,,,,,,,,,,,,,,,,,,,,,,,,,,,,,,,,,,,,,,,,,,,,,,,,tool,234,14,aloud,new,red,1293.1951704999956,None,n,1293.1951704999956,None,"['n', 'return']","[1.8139305999793578, 1.9338899999856949]",1293.1951704999956,None,,,1,001,2023_Jan_25_1214,ExactRep-v3-final,2021.2.3,59.99005365368105,
,,,,,,,,,,,,14,0,14,0,,,,,,,,,,,,,,,,,,,,,,,,,,,,,,,,,,,,,,,,,,,,,,,,,1296.9568654000177,None,,,,,,,,,,,,,,,,,,,,,,,,,,,,,,,,,,,,,,,,,,,,,,,,,,,,,,,,,camp,113,15,aloud,old,red,1295.678690700006,None,y,1295.678690700006,None,"['y', 'return']","[1.154345299990382, 1.2342865999962669]",1295.678690700006,None,,,1,001,2023_Jan_25_1214,ExactRep-v3-final,2021.2.3,59.99005365368105,
,,,,,,,,,,,,15,0,15,0,,,,,,,,,,,,,,,,,,,,,,,,,,,,,,,,,,,,,,,,,,,,,,,,,1301.0273936000012,None,,,,,,,,,,,,,,,,,,,,,,,,,,,,,,,,,,,,,,,,,,,,,,,,,,,,,,,,,church,130,16,silent,new,blue,1297.4649543999985,None,y,1297.4649543999985,None,"['y', 'return']","[3.376026300014928, 3.5201268999953754]",1297.4649543999985,None,,,1,001,2023_Jan_25_1214,ExactRep-v3-final,2021.2.3,59.99005365368105,
,,,,,,,,,,,,16,0,16,0,,,,,,,,,,,,,,,,,,,,,,,,,,,,,,,,,,,,,,,,,,,,,,,,,1303.5300705000118,None,,,,,,,,,,,,,,,,,,,,,,,,,,,,,,,,,,,,,,,,,,,,,,,,,,,,,,,,,cottage,169,17,sing,new,white,1301.5382239000173,None,n,1301.5382239000173,None,"['n', 'return']","[1.8867244999855757, 1.950607399980072]",1301.5382239000173,None,,,1,001,2023_Jan_25_1214,ExactRep-v3-final,2021.2.3,59.99005365368105,
,,,,,,,,,,,,17,0,17,0,,,,,,,,,,,,,,,,,,,,,,,,,,,,,,,,,,,,,,,,,,,,,,,,,1305.265196799999,None,,,,,,,,,,,,,,,,,,,,,,,,,,,,,,,,,,,,,,,,,,,,,,,,,,,,,,,,,origin,94,18,aloud,old,red,1304.0346129999962,None,y,1304.0346129999962,None,"['y', 'return']","[1.118377499980852, 1.1983721999858972]",1304.0346129999962,None,,,1,001,2023_Jan_25_1214,ExactRep-v3-final,2021.2.3,59.99005365368105,
,,,,,,,,,,,,18,0,18,0,,,,,,,,,,,,,,,,,,,,,,,,,,,,,,,,,,,,,,,,,,,,,,,,,1306.684342100023,None,,,,,,,,,,,,,,,,,,,,,,,,,,,,,,,,,,,,,,,,,,,,,,,,,,,,,,,,,crime,38,19,sing,old,white,1305.7799425999983,None,y,1305.7799425999983,None,"['y', 'return']","[0.7010722999984864, 0.8610724000027403]",1305.7799425999983,None,,,1,001,2023_Jan_25_1214,ExactRep-v3-final,2021.2.3,59.99005365368105,
,,,,,,,,,,,,19,0,19,0,,,,,,,,,,,,,,,,,,,,,,,,,,,,,,,,,,,,,,,,,,,,,,,,,1307.9356316000049,None,,,,,,,,,,,,,,,,,,,,,,,,,,,,,,,,,,,,,,,,,,,,,,,,,,,,,,,,,palace,85,20,aloud,old,red,1307.196214800002,None,y,1307.196214800002,None,"['y', 'return']","[0.6447053999872878, 0.6927616999892052]",1307.196214800002,None,,,1,001,2023_Jan_25_1214,ExactRep-v3-final,2021.2.3,59.99005365368105,
,,,,,,,,,,,,20,0,20,0,,,,,,,,,,,,,,,,,,,,,,,,,,,,,,,,,,,,,,,,,,,,,,,,,1310.186831900006,None,,,,,,,,,,,,,,,,,,,,,,,,,,,,,,,,,,,,,,,,,,,,,,,,,,,,,,,,,army,156,21,silent,new,blue,1308.451104000007,None,n,1308.451104000007,None,"['n', 'return']","[1.6299520999891683, 1.6939666999969631]",1308.451104000007,None,,,1,001,2023_Jan_25_1214,ExactRep-v3-final,2021.2.3,59.99005365368105,
,,,,,,,,,,,,21,0,21,0,,,,,,,,,,,,,,,,,,,,,,,,,,,,,,,,,,,,,,,,,,,,,,,,,1313.6735721000005,None,,,,,,,,,,,,,,,,,,,,,,,,,,,,,,,,,,,,,,,,,,,,,,,,,,,,,,,,,bird,6,22,sing,old,white,1310.6970149000117,None,n,1310.6970149000117,None,"['n', 'return']","[2.879981100006262, 2.9359422999841627]",1310.6970149000117,None,,,1,001,2023_Jan_25_1214,ExactRep-v3-final,2021.2.3,59.99005365368105,
,,,,,,,,,,,,22,0,22,0,,,,,,,,,,,,,,,,,,,,,,,,,,,,,,,,,,,,,,,,,,,,,,,,,1316.793393800006,None,,,,,,,,,,,,,,,,,,,,,,,,,,,,,,,,,,,,,,,,,,,,,,,,,,,,,,,,,law,174,23,aloud,new,red,1314.1841488000064,None,n,1314.1841488000064,None,"['n', 'return']","[2.4969047000049613, 2.5768365999974776]",1314.1841488000064,None,,,1,001,2023_Jan_25_1214,ExactRep-v3-final,2021.2.3,59.99005365368105,
,,,,,,,,,,,,23,0,23,0,,,,,,,,,,,,,,,,,,,,,,,,,,,,,,,,,,,,,,,,,,,,,,,,,1318.7786286000046,None,,,,,,,,,,,,,,,,,,,,,,,,,,,,,,,,,,,,,,,,,,,,,,,,,,,,,,,,,answer,13,24,sing,old,white,1317.3057940000144,None,y,1317.3057940000144,None,"['y', 'return']","[1.3352032999973744, 1.4312089000013657]",1317.3057940000144,None,,,1,001,2023_Jan_25_1214,ExactRep-v3-final,2021.2.3,59.99005365368105,
,,,,,,,,,,,,24,0,24,0,,,,,,,,,,,,,,,,,,,,,,,,,,,,,,,,,,,,,,,,,,,,,,,,,1320.9142076999997,None,,,,,,,,,,,,,,,,,,,,,,,,,,,,,,,,,,,,,,,,,,,,,,,,,,,,,,,,,salary,214,25,aloud,new,red,1319.2886594000156,None,n,1319.2886594000156,None,"['n', 'return']","[1.4966573000128847, 1.5845147000218276]",1319.2886594000156,None,,,1,001,2023_Jan_25_1214,ExactRep-v3-final,2021.2.3,59.99005365368105,
,,,,,,,,,,,,25,0,25,0,,,,,,,,,,,,,,,,,,,,,,,,,,,,,,,,,,,,,,,,,,,,,,,,,1322.7993820999982,None,,,,,,,,,,,,,,,,,,,,,,,,,,,,,,,,,,,,,,,,,,,,,,,,,,,,,,,,,skin,134,26,silent,new,blue,1321.4207888000237,None,n,1321.4207888000237,None,"['n', 'return']","[1.2683205000066664, 1.3322210000187624]",1321.4207888000237,None,,,1,001,2023_Jan_25_1214,ExactRep-v3-final,2021.2.3,59.99005365368105,
,,,,,,,,,,,,26,0,26,0,,,,,,,,,,,,,,,,,,,,,,,,,,,,,,,,,,,,,,,,,,,,,,,,,1328.0046094999998,None,,,,,,,,,,,,,,,,,,,,,,,,,,,,,,,,,,,,,,,,,,,,,,,,,,,,,,,,,method,120,27,silent,new,blue,1323.3076457999996,None,y,1323.3076457999996,None,"['y', 'return']","[4.54943149999599, 4.6533329999947455]",1323.3076457999996,None,,,1,001,2023_Jan_25_1214,ExactRep-v3-final,2021.2.3,59.99005365368105,
,,,,,,,,,,,,27,0,27,0,,,,,,,,,,,,,,,,,,,,,,,,,,,,,,,,,,,,,,,,,,,,,,,,,1329.4727002000145,None,,,,,,,,,,,,,,,,,,,,,,,,,,,,,,,,,,,,,,,,,,,,,,,,,,,,,,,,,valley,119,28,aloud,old,red,1328.5210442000243,None,y,1328.5210442000243,None,"['y', 'return']","[0.831989500002237, 0.9119907999993302]",1328.5210442000243,None,,,1,001,2023_Jan_25_1214,ExactRep-v3-final,2021.2.3,59.99005365368105,
,,,,,,,,,,,,28,0,28,0,,,,,,,,,,,,,,,,,,,,,,,,,,,,,,,,,,,,,,,,,,,,,,,,,1335.7623087000102,None,,,,,,,,,,,,,,,,,,,,,,,,,,,,,,,,,,,,,,,,,,,,,,,,,,,,,,,,,duty,19,29,sing,old,white,1329.97580320001,None,n,1329.97580320001,None,"['n', 'return']","[5.529297000000952, 5.753153700003168]",1329.97580320001,None,,,1,001,2023_Jan_25_1214,ExactRep-v3-final,2021.2.3,59.99005365368105,
,,,,,,,,,,,,29,0,29,0,,,,,,,,,,,,,,,,,,,,,,,,,,,,,,,,,,,,,,,,,,,,,,,,,1338.4594958000234,None,,,,,,,,,,,,,,,,,,,,,,,,,,,,,,,,,,,,,,,,,,,,,,,,,,,,,,,,,person,29,30,sing,old,white,1336.2702691000013,None,y,1336.2702691000013,None,"['y', 'return']","[2.026611600012984, 2.154685600020457]",1336.2702691000013,None,,,1,001,2023_Jan_25_1214,ExactRep-v3-final,2021.2.3,59.99005365368105,
,,,,,,,,,,,,30,0,30,0,,,,,,,,,,,,,,,,,,,,,,,,,,,,,,,,,,,,,,,,,,,,,,,,,1343.3986561000056,None,,,,,,,,,,,,,,,,,,,,,,,,,,,,,,,,,,,,,,,,,,,,,,,,,,,,,,,,,circle,125,31,silent,new,blue,1338.9872223999992,None,n,1338.9872223999992,None,"['n', 'return']","[4.253752299991902, 4.34980429999996]",1338.9872223999992,None,,,1,001,2023_Jan_25_1214,ExactRep-v3-final,2021.2.3,59.99005365368105,
,,,,,,,,,,,,31,0,31,0,,,,,,,,,,,,,,,,,,,,,,,,,,,,,,,,,,,,,,,,,,,,,,,,,1345.6456780000008,None,,,,,,,,,,,,,,,,,,,,,,,,,,,,,,,,,,,,,,,,,,,,,,,,,,,,,,,,,prayer,34,32,sing,old,white,1343.9273429000168,None,y,1343.9273429000168,None,"['y', 'return']","[1.5136071000015363, 1.6498248999996576]",1343.9273429000168,None,,,1,001,2023_Jan_25_1214,ExactRep-v3-final,2021.2.3,59.99005365368105,
,,,,,,,,,,,,32,0,32,0,,,,,,,,,,,,,,,,,,,,,,,,,,,,,,,,,,,,,,,,,,,,,,,,,1348.7929541000049,None,,,,,,,,,,,,,,,,,,,,,,,,,,,,,,,,,,,,,,,,,,,,,,,,,,,,,,,,,mind,205,33,sing,new,white,1346.1606867000228,None,n,1346.1606867000228,None,"['n', 'return']","[2.352324999985285, 2.5844445999828167]",1346.1606867000228,None,,,1,001,2023_Jan_25_1214,ExactRep-v3-final,2021.2.3,59.99005365368105,
,,,,,,,,,,,,33,0,33,0,,,,,,,,,,,,,,,,,,,,,,,,,,,,,,,,,,,,,,,,,,,,,,,,,1351.7795067999978,None,,,,,,,,,,,,,,,,,,,,,,,,,,,,,,,,,,,,,,,,,,,,,,,,,,,,,,,,,bar,3,34,sing,old,white,1349.2937250999967,None,n,1349.2937250999967,None,"['n', 'return']","[2.243237599992426, 2.4431843000056688]",1349.2937250999967,None,,,1,001,2023_Jan_25_1214,ExactRep-v3-final,2021.2.3,59.99005365368105,
,,,,,,,,,,,,34,0,34,0,,,,,,,,,,,,,,,,,,,,,,,,,,,,,,,,,,,,,,,,,,,,,,,,,1353.9147218000144,None,,,,,,,,,,,,,,,,,,,,,,,,,,,,,,,,,,,,,,,,,,,,,,,,,,,,,,,,,cabin,42,35,silent,old,blue,1352.2799648000218,None,y,1352.2799648000218,None,"['y', 'return']","[1.4251103999849875, 1.5931453999946825]",1352.2799648000218,None,,,1,001,2023_Jan_25_1214,ExactRep-v3-final,2021.2.3,59.99005365368105,
,,,,,,,,,,,,35,0,35,0,,,,,,,,,,,,,,,,,,,,,,,,,,,,,,,,,,,,,,,,,,,,,,,,,1357.702048600011,None,,,,,,,,,,,,,,,,,,,,,,,,,,,,,,,,,,,,,,,,,,,,,,,,,,,,,,,,,lad,70,36,silent,old,blue,1354.4163141000026,None,n,1354.4163141000026,None,"['n', 'return']","[3.1369201999914367, 3.24884590000147]",1354.4163141000026,None,,,1,001,2023_Jan_25_1214,ExactRep-v3-final,2021.2.3,59.99005365368105,
,,,,,,,,,,,,36,0,36,0,,,,,,,,,,,,,,,,,,,,,,,,,,,,,,,,,,,,,,,,,,,,,,,,,1370.2169103000197,None,,,,,,,,,,,,,,,,,,,,,,,,,,,,,,,,,,,,,,,,,,,,,,,,,,,,,,,,,silence,4,37,sing,old,white,1358.2121747000201,None,y,1358.2121747000201,None,"['y', 'return']","[11.77283850000822, 11.964821000001393]",1358.2121747000201,None,,,1,001,2023_Jan_25_1214,ExactRep-v3-final,2021.2.3,59.99005365368105,
,,,,,,,,,,,,37,0,37,0,,,,,,,,,,,,,,,,,,,,,,,,,,,,,,,,,,,,,,,,,,,,,,,,,1372.7694347000215,None,,,,,,,,,,,,,,,,,,,,,,,,,,,,,,,,,,,,,,,,,,,,,,,,,,,,,,,,,apple,77,38,silent,old,blue,1370.724520400021,None,n,1370.724520400021,None,"['n', 'return']","[1.700535599986324, 2.004497399990214]",1370.724520400021,None,,,1,001,2023_Jan_25_1214,ExactRep-v3-final,2021.2.3,59.99005365368105,
,,,,,,,,,,,,38,0,38,0,,,,,,,,,,,,,,,,,,,,,,,,,,,,,,,,,,,,,,,,,,,,,,,,,1375.95488070001,None,,,,,,,,,,,,,,,,,,,,,,,,,,,,,,,,,,,,,,,,,,,,,,,,,,,,,,,,,animal,191,39,sing,new,white,1373.2786005000235,None,n,1373.2786005000235,None,"['n', 'return']","[2.346426000003703, 2.634387500002049]",1373.2786005000235,None,,,1,001,2023_Jan_25_1214,ExactRep-v3-final,2021.2.3,59.99005365368105,
,,,,,,,,,,,,39,0,39,0,,,,,,,,,,,,,,,,,,,,,,,,,,,,,,,,,,,,,,,,,,,,,,,,,1378.7577438000008,None,,,,,,,,,,,,,,,,,,,,,,,,,,,,,,,,,,,,,,,,,,,,,,,,,,,,,,,,,street,161,40,sing,new,white,1376.4660174000019,None,n,1376.4660174000019,None,"['n', 'return']","[2.0069638999993913, 2.2551239000167698]",1376.4660174000019,None,,,1,001,2023_Jan_25_1214,ExactRep-v3-final,2021.2.3,59.99005365368105,
,,,,,,,,,,,,40,0,40,0,,,,,,,,,,,,,,,,,,,,,,,,,,,,,,,,,,,,,,,,,,,,,,,,,1383.780046800006,None,,,,,,,,,,,,,,,,,,,,,,,,,,,,,,,,,,,,,,,,,,,,,,,,,,,,,,,,,student,76,41,silent,old,blue,1379.2652462999977,None,n,1379.2652462999977,None,"['n', 'return']","[4.335972400003811, 4.471799499995541]",1379.2652462999977,None,,,1,001,2023_Jan_25_1214,ExactRep-v3-final,2021.2.3,59.99005365368105,
,,,,,,,,,,,,41,0,41,0,,,,,,,,,,,,,,,,,,,,,,,,,,,,,,,,,,,,,,,,,,,,,,,,,1386.7153645000071,None,,,,,,,,,,,,,,,,,,,,,,,,,,,,,,,,,,,,,,,,,,,,,,,,,,,,,,,,,cash,15,42,sing,old,white,1384.2863201000146,None,y,1384.2863201000146,None,"['y', 'return']","[2.1866818999988027, 2.3946311000036076]",1384.2863201000146,None,,,1,001,2023_Jan_25_1214,ExactRep-v3-final,2021.2.3,59.99005365368105,
,,,,,,,,,,,,42,0,42,0,,,,,,,,,,,,,,,,,,,,,,,,,,,,,,,,,,,,,,,,,,,,,,,,,1388.867374399997,None,,,,,,,,,,,,,,,,,,,,,,,,,,,,,,,,,,,,,,,,,,,,,,,,,,,,,,,,,deed,149,43,silent,new,blue,1387.2233156000148,None,n,1387.2233156000148,None,"['n', 'return']","[1.4015391999855638, 1.6014922999893315]",1387.2233156000148,None,,,1,001,2023_Jan_25_1214,ExactRep-v3-final,2021.2.3,59.99005365368105,
,,,,,,,,,,,,43,0,43,0,,,,,,,,,,,,,,,,,,,,,,,,,,,,,,,,,,,,,,,,,,,,,,,,,1390.7552228000131,None,,,,,,,,,,,,,,,,,,,,,,,,,,,,,,,,,,,,,,,,,,,,,,,,,,,,,,,,,season,98,44,aloud,old,red,1389.3788188000035,None,y,1389.3788188000035,None,"['y', 'return']","[1.2061766000115313, 1.3422128000238445]",1389.3788188000035,None,,,1,001,2023_Jan_25_1214,ExactRep-v3-final,2021.2.3,59.99005365368105,
,,,,,,,,,,,,44,0,44,0,,,,,,,,,,,,,,,,,,,,,,,,,,,,,,,,,,,,,,,,,,,,,,,,,1392.6048308000027,None,,,,,,,,,,,,,,,,,,,,,,,,,,,,,,,,,,,,,,,,,,,,,,,,,,,,,,,,,garden,92,45,aloud,old,red,1391.2776096000161,None,y,1391.2776096000161,None,"['y', 'return']","[1.1794031000172254, 1.283448900008807]",1391.2776096000161,None,,,1,001,2023_Jan_25_1214,ExactRep-v3-final,2021.2.3,59.99005365368105,
,,,,,,,,,,,,45,0,45,0,,,,,,,,,,,,,,,,,,,,,,,,,,,,,,,,,,,,,,,,,,,,,,,,,1395.457739400008,None,,,,,,,,,,,,,,,,,,,,,,,,,,,,,,,,,,,,,,,,,,,,,,,,,,,,,,,,,party,189,46,sing,new,white,1393.1078674000164,None,n,1393.1078674000164,None,"['n', 'return']","[2.1971240999992006, 2.3093228999932762]",1393.1078674000164,None,,,1,001,2023_Jan_25_1214,ExactRep-v3-final,2021.2.3,59.99005365368105,
,,,,,,,,,,,,46,0,46,0,,,,,,,,,,,,,,,,,,,,,,,,,,,,,,,,,,,,,,,,,,,,,,,,,1398.862236200017,None,,,,,,,,,,,,,,,,,,,,,,,,,,,,,,,,,,,,,,,,,,,,,,,,,,,,,,,,,memory,58,47,silent,old,blue,1395.9678207999968,None,n,1395.9678207999968,None,"['n', 'return']","[2.72122480001417, 2.8491396000026725]",1395.9678207999968,None,,,1,001,2023_Jan_25_1214,ExactRep-v3-final,2021.2.3,59.99005365368105,
,,,,,,,,,,,,47,0,47,0,,,,,,,,,,,,,,,,,,,,,,,,,,,,,,,,,,,,,,,,,,,,,,,,,1400.763026600005,None,,,,,,,,,,,,,,,,,,,,,,,,,,,,,,,,,,,,,,,,,,,,,,,,,,,,,,,,,arm,99,48,aloud,old,red,1399.3706087000028,None,y,1399.3706087000028,None,"['y', 'return']","[1.2304108000244014, 1.3505547000095248]",1399.3706087000028,None,,,1,001,2023_Jan_25_1214,ExactRep-v3-final,2021.2.3,59.99005365368105,
,,,,,,,,,,,,48,0,48,0,,,,,,,,,,,,,,,,,,,,,,,,,,,,,,,,,,,,,,,,,,,,,,,,,1406.0881647000206,None,,,,,,,,,,,,,,,,,,,,,,,,,,,,,,,,,,,,,,,,,,,,,,,,,,,,,,,,,virtue,118,49,aloud,old,red,1401.271862499998,None,y,1401.271862499998,None,"['y', 'return']","[4.665173099987442, 4.777111800009152]",1401.271862499998,None,,,1,001,2023_Jan_25_1214,ExactRep-v3-final,2021.2.3,59.99005365368105,
,,,,,,,,,,,,49,0,49,0,,,,,,,,,,,,,,,,,,,,,,,,,,,,,,,,,,,,,,,,,,,,,,,,,1408.2371737000067,None,,,,,,,,,,,,,,,,,,,,,,,,,,,,,,,,,,,,,,,,,,,,,,,,,,,,,,,,,dress,87,50,aloud,old,red,1406.6061373999983,None,y,1406.6061373999983,None,"['y', 'return']","[1.4428595999779645, 1.5869155999971554]",1406.6061373999983,None,,,1,001,2023_Jan_25_1214,ExactRep-v3-final,2021.2.3,59.99005365368105,
,,,,,,,,,,,,50,0,50,0,,,,,,,,,,,,,,,,,,,,,,,,,,,,,,,,,,,,,,,,,,,,,,,,,1412.291001400008,None,,,,,,,,,,,,,,,,,,,,,,,,,,,,,,,,,,,,,,,,,,,,,,,,,,,,,,,,,cotton,132,51,silent,new,blue,1408.7375554000027,None,n,1408.7375554000027,None,"['n', 'return']","[3.3914686999924015, 3.5196986999944784]",1408.7375554000027,None,,,1,001,2023_Jan_25_1214,ExactRep-v3-final,2021.2.3,59.99005365368105,
,,,,,,,,,,,,51,0,51,0,,,,,,,,,,,,,,,,,,,,,,,,,,,,,,,,,,,,,,,,,,,,,,,,,1413.9260949000018,None,,,,,,,,,,,,,,,,,,,,,,,,,,,,,,,,,,,,,,,,,,,,,,,,,,,,,,,,,rod,190,52,aloud,new,red,1412.791500899999,None,n,1412.791500899999,None,"['n', 'return']","[0.9615037000039592, 1.0895401999878231]",1412.791500899999,None,,,1,001,2023_Jan_25_1214,ExactRep-v3-final,2021.2.3,59.99005365368105,
,,,,,,,,,,,,52,0,52,0,,,,,,,,,,,,,,,,,,,,,,,,,,,,,,,,,,,,,,,,,,,,,,,,,1415.7786302000168,None,,,,,,,,,,,,,,,,,,,,,,,,,,,,,,,,,,,,,,,,,,,,,,,,,,,,,,,,,earth,173,53,sing,new,white,1414.4415792000073,None,n,1414.4415792000073,None,"['n', 'return']","[1.199469199986197, 1.2953908999916166]",1414.4415792000073,None,,,1,001,2023_Jan_25_1214,ExactRep-v3-final,2021.2.3,59.99005365368105,
,,,,,,,,,,,,53,0,53,0,,,,,,,,,,,,,,,,,,,,,,,,,,,,,,,,,,,,,,,,,,,,,,,,,1417.07933030001,None,,,,,,,,,,,,,,,,,,,,,,,,,,,,,,,,,,,,,,,,,,,,,,,,,,,,,,,,,beast,227,54,sing,new,white,1416.2925139,None,n,1416.2925139,None,"['n', 'return']","[0.6523807999910787, 0.7403756999992765]",1416.2925139,None,,,1,001,2023_Jan_25_1214,ExactRep-v3-final,2021.2.3,59.99005365368105,
,,,,,,,,,,,,54,0,54,0,,,,,,,,,,,,,,,,,,,,,,,,,,,,,,,,,,,,,,,,,,,,,,,,,1419.151357499999,None,,,,,,,,,,,,,,,,,,,,,,,,,,,,,,,,,,,,,,,,,,,,,,,,,,,,,,,,,product,133,55,silent,new,blue,1417.5826350999996,None,n,1417.5826350999996,None,"['n', 'return']","[1.426253200013889, 1.5222521999967285]",1417.5826350999996,None,,,1,001,2023_Jan_25_1214,ExactRep-v3-final,2021.2.3,59.99005365368105,
,,,,,,,,,,,,55,0,55,0,,,,,,,,,,,,,,,,,,,,,,,,,,,,,,,,,,,,,,,,,,,,,,,,,1421.2167335000122,None,,,,,,,,,,,,,,,,,,,,,,,,,,,,,,,,,,,,,,,,,,,,,,,,,,,,,,,,,health,233,56,sing,new,white,1419.668996100023,None,n,1419.668996100023,None,"['n', 'return']","[1.435871000023326, 1.5081061000237241]",1419.668996100023,None,,,1,001,2023_Jan_25_1214,ExactRep-v3-final,2021.2.3,59.99005365368105,
,,,,,,,,,,,,56,0,56,0,,,,,,,,,,,,,,,,,,,,,,,,,,,,,,,,,,,,,,,,,,,,,,,,,1423.2521675000025,None,,,,,,,,,,,,,,,,,,,,,,,,,,,,,,,,,,,,,,,,,,,,,,,,,,,,,,,,,soil,155,57,silent,new,blue,1421.729367699998,None,n,1421.729367699998,None,"['n', 'return']","[0.8477990999817848, 1.479645299987169]",1421.729367699998,None,,,1,001,2023_Jan_25_1214,ExactRep-v3-final,2021.2.3,59.99005365368105,
,,,,,,,,,,,,57,0,57,0,,,,,,,,,,,,,,,,,,,,,,,,,,,,,,,,,,,,,,,,,,,,,,,,,1430.9445166000223,None,,,,,,,,,,,,,,,,,,,,,,,,,,,,,,,,,,,,,,,,,,,,,,,,,,,,,,,,,body,81,58,aloud,old,red,1423.7608506999968,None,y,1423.7608506999968,None,"['y', 'return']","[7.024148199998308, 7.144156700000167]",1423.7608506999968,None,,,1,001,2023_Jan_25_1214,ExactRep-v3-final,2021.2.3,59.99005365368105,
,,,,,,,,,,,,58,0,58,0,,,,,,,,,,,,,,,,,,,,,,,,,,,,,,,,,,,,,,,,,,,,,,,,,1434.5147659000068,None,,,,,,,,,,,,,,,,,,,,,,,,,,,,,,,,,,,,,,,,,,,,,,,,,,,,,,,,,advice,39,59,silent,old,blue,1431.4589321000094,None,y,1431.4589321000094,None,"['y', 'return']","[2.910034900007304, 3.0221427000069525]",1431.4589321000094,None,,,1,001,2023_Jan_25_1214,ExactRep-v3-final,2021.2.3,59.99005365368105,
,,,,,,,,,,,,59,0,59,0,,,,,,,,,,,,,,,,,,,,,,,,,,,,,,,,,,,,,,,,,,,,,,,,,1436.2651576000208,None,,,,,,,,,,,,,,,,,,,,,,,,,,,,,,,,,,,,,,,,,,,,,,,,,,,,,,,,,fur,201,60,sing,new,white,1435.020955200016,None,n,1435.020955200016,None,"['n', 'return']","[1.0920674999943003, 1.2123174000007566]",1435.020955200016,None,,,1,001,2023_Jan_25_1214,ExactRep-v3-final,2021.2.3,59.99005365368105,
,,,,,,,,,,,,60,0,60,0,,,,,,,,,,,,,,,,,,,,,,,,,,,,,,,,,,,,,,,,,,,,,,,,,1438.4840520000143,None,,,,,,,,,,,,,,,,,,,,,,,,,,,,,,,,,,,,,,,,,,,,,,,,,,,,,,,,,stone,83,61,aloud,old,red,1436.7729466000164,None,y,1436.7729466000164,None,"['y', 'return']","[1.5002077000099234, 1.6682182000076864]",1436.7729466000164,None,,,1,001,2023_Jan_25_1214,ExactRep-v3-final,2021.2.3,59.99005365368105,
,,,,,,,,,,,,61,0,61,0,,,,,,,,,,,,,,,,,,,,,,,,,,,,,,,,,,,,,,,,,,,,,,,,,1441.5214448000188,None,,,,,,,,,,,,,,,,,,,,,,,,,,,,,,,,,,,,,,,,,,,,,,,,,,,,,,,,,sugar,237,62,sing,new,white,1438.9888584,None,n,1438.9888584,None,"['n', 'return']","[2.3880215999961365, 2.484183699998539]",1438.9888584,None,,,1,001,2023_Jan_25_1214,ExactRep-v3-final,2021.2.3,59.99005365368105,
,,,,,,,,,,,,62,0,62,0,,,,,,,,,,,,,,,,,,,,,,,,,,,,,,,,,,,,,,,,,,,,,,,,,1444.0897425000148,None,,,,,,,,,,,,,,,,,,,,,,,,,,,,,,,,,,,,,,,,,,,,,,,,,,,,,,,,,hope,73,63,silent,old,blue,1442.0233609999996,None,n,1442.0233609999996,None,"['n', 'return']","[1.8736100000096485, 2.0335438000038266]",1442.0233609999996,None,,,1,001,2023_Jan_25_1214,ExactRep-v3-final,2021.2.3,59.99005365368105,
,,,,,,,,,,,,63,0,63,0,,,,,,,,,,,,,,,,,,,,,,,,,,,,,,,,,,,,,,,,,,,,,,,,,1448.3105129000032,None,,,,,,,,,,,,,,,,,,,,,,,,,,,,,,,,,,,,,,,,,,,,,,,,,,,,,,,,,pole,200,64,aloud,new,red,1444.5974313000042,None,n,1444.5974313000042,None,"['n', 'return']","[3.6035728999995627, 3.6755934999964666]",1444.5974313000042,None,,,1,001,2023_Jan_25_1214,ExactRep-v3-final,2021.2.3,59.99005365368105,
,,,,,,,,,,,,64,0,64,0,,,,,,,,,,,,,,,,,,,,,,,,,,,,,,,,,,,,,,,,,,,,,,,,,1452.6148413000046,None,,,,,,,,,,,,,,,,,,,,,,,,,,,,,,,,,,,,,,,,,,,,,,,,,,,,,,,,,machine,50,65,silent,old,blue,1448.82082730002,None,y,1448.82082730002,None,"['y', 'return']","[3.644193699990865, 3.7482410999946296]",1448.82082730002,None,,,1,001,2023_Jan_25_1214,ExactRep-v3-final,2021.2.3,59.99005365368105,
,,,,,,,,,,,,65,0,65,0,,,,,,,,,,,,,,,,,,,,,,,,,,,,,,,,,,,,,,,,,,,,,,,,,1455.4023422000173,None,,,,,,,,,,,,,,,,,,,,,,,,,,,,,,,,,,,,,,,,,,,,,,,,,,,,,,,,,leader,33,66,sing,old,white,1453.1241424000182,None,n,1453.1241424000182,None,"['n', 'return']","[2.1489226999983657, 2.244807299983222]",1453.1241424000182,None,,,1,001,2023_Jan_25_1214,ExactRep-v3-final,2021.2.3,59.99005365368105,
,,,,,,,,,,,,66,0,66,0,,,,,,,,,,,,,,,,,,,,,,,,,,,,,,,,,,,,,,,,,,,,,,,,,1457.2862122000079,None,,,,,,,,,,,,,,,,,,,,,,,,,,,,,,,,,,,,,,,,,,,,,,,,,,,,,,,,,table,146,67,silent,new,blue,1455.9145223000087,None,n,1455.9145223000087,None,"['n', 'return']","[1.2466304000117816, 1.3344256000127643]",1455.9145223000087,None,,,1,001,2023_Jan_25_1214,ExactRep-v3-final,2021.2.3,59.99005365368105,
,,,,,,,,,,,,67,0,67,0,,,,,,,,,,,,,,,,,,,,,,,,,,,,,,,,,,,,,,,,,,,,,,,,,1459.4729250000091,None,,,,,,,,,,,,,,,,,,,,,,,,,,,,,,,,,,,,,,,,,,,,,,,,,,,,,,,,,meadow,138,68,silent,new,blue,1457.8002498999995,None,n,1457.8002498999995,None,"['n', 'return']","[1.1848820000013802, 1.6328332000121009]",1457.8002498999995,None,,,1,001,2023_Jan_25_1214,ExactRep-v3-final,2021.2.3,59.99005365368105,
,,,,,,,,,,,,68,0,68,0,,,,,,,,,,,,,,,,,,,,,,,,,,,,,,,,,,,,,,,,,,,,,,,,,1462.3578990999958,None,,,,,,,,,,,,,,,,,,,,,,,,,,,,,,,,,,,,,,,,,,,,,,,,,,,,,,,,,corner,196,69,aloud,new,red,1459.972134200012,None,n,1459.972134200012,None,"['n', 'return']","[2.2528182999813, 2.340867899998557]",1459.972134200012,None,,,1,001,2023_Jan_25_1214,ExactRep-v3-final,2021.2.3,59.99005365368105,
,,,,,,,,,,,,69,0,69,0,,,,,,,,,,,,,,,,,,,,,,,,,,,,,,,,,,,,,,,,,,,,,,,,,1469.681912,None,,,,,,,,,,,,,,,,,,,,,,,,,,,,,,,,,,,,,,,,,,,,,,,,,,,,,,,,,grass,63,70,silent,old,blue,1462.8681510000024,None,y,1462.8681510000024,None,"['y', 'return']","[6.58092380000744, 6.772881099983351]",1462.8681510000024,None,,,1,001,2023_Jan_25_1214,ExactRep-v3-final,2021.2.3,59.99005365368105,
,,,,,,,,,,,,70,0,70,0,,,,,,,,,,,,,,,,,,,,,,,,,,,,,,,,,,,,,,,,,,,,,,,,,1472.217560500023,None,,,,,,,,,,,,,,,,,,,,,,,,,,,,,,,,,,,,,,,,,,,,,,,,,,,,,,,,,pipe,208,71,aloud,new,red,1470.1855319000024,None,n,1470.1855319000024,None,"['n', 'return']","[1.8795174999977462, 1.9914834999945015]",1470.1855319000024,None,,,1,001,2023_Jan_25_1214,ExactRep-v3-final,2021.2.3,59.99005365368105,
,,,,,,,,,,,,71,0,71,0,,,,,,,,,,,,,,,,,,,,,,,,,,,,,,,,,,,,,,,,,,,,,,,,,1476.4886711,None,,,,,,,,,,,,,,,,,,,,,,,,,,,,,,,,,,,,,,,,,,,,,,,,,,,,,,,,,square,9,72,sing,old,white,1472.7269927000161,None,y,1472.7269927000161,None,"['y', 'return']","[3.6179590999963693, 3.7139776999829337]",1472.7269927000161,None,,,1,001,2023_Jan_25_1214,ExactRep-v3-final,2021.2.3,59.99005365368105,
,,,,,,,,,,,,72,0,72,0,,,,,,,,,,,,,,,,,,,,,,,,,,,,,,,,,,,,,,,,,,,,,,,,,1478.2571566000115,None,,,,,,,,,,,,,,,,,,,,,,,,,,,,,,,,,,,,,,,,,,,,,,,,,,,,,,,,,money,30,73,sing,old,white,1476.997572000022,None,y,1476.997572000022,None,"['y', 'return']","[1.1154022999980953, 1.2194483999919612]",1476.997572000022,None,,,1,001,2023_Jan_25_1214,ExactRep-v3-final,2021.2.3,59.99005365368105,
,,,,,,,,,,,,73,0,73,0,,,,,,,,,,,,,,,,,,,,,,,,,,,,,,,,,,,,,,,,,,,,,,,,,1481.1944207000197,None,,,,,,,,,,,,,,,,,,,,,,,,,,,,,,,,,,,,,,,,,,,,,,,,,,,,,,,,,series,109,74,aloud,old,red,1478.7642109000008,None,y,1478.7642109000008,None,"['y', 'return']","[2.284959999989951, 2.388868400012143]",1478.7642109000008,None,,,1,001,2023_Jan_25_1214,ExactRep-v3-final,2021.2.3,59.99005365368105,
,,,,,,,,,,,,74,0,74,0,,,,,,,,,,,,,,,,,,,,,,,,,,,,,,,,,,,,,,,,,,,,,,,,,1482.896408200002,None,,,,,,,,,,,,,,,,,,,,,,,,,,,,,,,,,,,,,,,,,,,,,,,,,,,,,,,,,coast,158,75,silent,new,blue,1481.7049438999966,None,n,1481.7049438999966,None,"['n', 'return']","[1.0160783000173979, 1.1442973999946844]",1481.7049438999966,None,,,1,001,2023_Jan_25_1214,ExactRep-v3-final,2021.2.3,59.99005365368105,
,,,,,,,,,,,,75,0,75,0,,,,,,,,,,,,,,,,,,,,,,,,,,,,,,,,,,,,,,,,,,,,,,,,,1485.3653255000245,None,,,,,,,,,,,,,,,,,,,,,,,,,,,,,,,,,,,,,,,,,,,,,,,,,,,,,,,,,ability,48,76,silent,old,blue,1483.4067703000037,None,y,1483.4067703000037,None,"['y', 'return']","[1.8342677000036929, 1.922200700006215]",1483.4067703000037,None,,,1,001,2023_Jan_25_1214,ExactRep-v3-final,2021.2.3,59.99005365368105,
,,,,,,,,,,,,76,0,76,0,,,,,,,,,,,,,,,,,,,,,,,,,,,,,,,,,,,,,,,,,,,,,,,,,1486.732091700018,None,,,,,,,,,,,,,,,,,,,,,,,,,,,,,,,,,,,,,,,,,,,,,,,,,,,,,,,,,metal,36,77,sing,old,white,1485.877181000018,None,y,1485.877181000018,None,"['y', 'return']","[0.7320033000141848, 0.8198543000034988]",1485.877181000018,None,,,1,001,2023_Jan_25_1214,ExactRep-v3-final,2021.2.3,59.99005365368105,
,,,,,,,,,,,,77,0,77,0,,,,,,,,,,,,,,,,,,,,,,,,,,,,,,,,,,,,,,,,,,,,,,,,,1489.1199439000047,None,,,,,,,,,,,,,,,,,,,,,,,,,,,,,,,,,,,,,,,,,,,,,,,,,,,,,,,,,gift,114,78,aloud,old,red,1487.2448313000205,None,y,1487.2448313000205,None,"['y', 'return']","[1.7400107000139542, 1.8281905000039842]",1487.2448313000205,None,,,1,001,2023_Jan_25_1214,ExactRep-v3-final,2021.2.3,59.99005365368105,
,,,,,,,,,,,,78,0,78,0,,,,,,,,,,,,,,,,,,,,,,,,,,,,,,,,,,,,,,,,,,,,,,,,,1495.3575014000235,None,,,,,,,,,,,,,,,,,,,,,,,,,,,,,,,,,,,,,,,,,,,,,,,,,,,,,,,,,dollar,93,79,aloud,old,red,1489.6412352000189,None,y,1489.6412352000189,None,"['y', 'return']","[5.567793199996231, 5.671700200007763]",1489.6412352000189,None,,,1,001,2023_Jan_25_1214,ExactRep-v3-final,2021.2.3,59.99005365368105,
,,,,,,,,,,,,79,0,79,0,,,,,,,,,,,,,,,,,,,,,,,,,,,,,,,,,,,,,,,,,,,,,,,,,1498.1937082000077,None,,,,,,,,,,,,,,,,,,,,,,,,,,,,,,,,,,,,,,,,,,,,,,,,,,,,,,,,,girl,186,80,aloud,new,red,1495.8666368999984,None,n,1495.8666368999984,None,"['n', 'return']","[2.174351299996488, 2.2864151999820024]",1495.8666368999984,None,,,1,001,2023_Jan_25_1214,ExactRep-v3-final,2021.2.3,59.99005365368105,
,,,,,,,,,,,,80,0,80,0,,,,,,,,,,,,,,,,,,,,,,,,,,,,,,,,,,,,,,,,,,,,,,,,,1504.7168765000242,None,,,,,,,,,,,,,,,,,,,,,,,,,,,,,,,,,,,,,,,,,,,,,,,,,,,,,,,,,truth,91,81,aloud,old,red,1498.6981284000212,None,y,1498.6981284000212,None,"['y', 'return']","[5.871062399994116, 5.974875799991423]",1498.6981284000212,None,,,1,001,2023_Jan_25_1214,ExactRep-v3-final,2021.2.3,59.99005365368105,
,,,,,,,,,,,,81,0,81,0,,,,,,,,,,,,,,,,,,,,,,,,,,,,,,,,,,,,,,,,,,,,,,,,,1509.0545365000144,None,,,,,,,,,,,,,,,,,,,,,,,,,,,,,,,,,,,,,,,,,,,,,,,,,,,,,,,,,potato,171,82,sing,new,white,1505.2268905999954,None,n,1505.2268905999954,None,"['n', 'return']","[3.678140900010476, 3.790144099999452]",1505.2268905999954,None,,,1,001,2023_Jan_25_1214,ExactRep-v3-final,2021.2.3,59.99005365368105,
,,,,,,,,,,,,82,0,82,0,,,,,,,,,,,,,,,,,,,,,,,,,,,,,,,,,,,,,,,,,,,,,,,,,1512.8417749000073,None,,,,,,,,,,,,,,,,,,,,,,,,,,,,,,,,,,,,,,,,,,,,,,,,,,,,,,,,,city,44,83,silent,old,blue,1509.559603200003,None,n,1509.559603200003,None,"['n', 'return']","[3.1534264000074472, 3.2493953999946825]",1509.559603200003,None,,,1,001,2023_Jan_25_1214,ExactRep-v3-final,2021.2.3,59.99005365368105,
,,,,,,,,,,,,83,0,83,0,,,,,,,,,,,,,,,,,,,,,,,,,,,,,,,,,,,,,,,,,,,,,,,,,1515.8113071999978,None,,,,,,,,,,,,,,,,,,,,,,,,,,,,,,,,,,,,,,,,,,,,,,,,,,,,,,,,,gold,198,84,aloud,new,red,1513.3583648000204,None,n,1513.3583648000204,None,"['n', 'return']","[2.2747002000105567, 2.4108475999964867]",1513.3583648000204,None,,,1,001,2023_Jan_25_1214,ExactRep-v3-final,2021.2.3,59.99005365368105,
,,,,,,,,,,,,84,0,84,0,,,,,,,,,,,,,,,,,,,,,,,,,,,,,,,,,,,,,,,,,,,,,,,,,1518.3305099999998,None,,,,,,,,,,,,,,,,,,,,,,,,,,,,,,,,,,,,,,,,,,,,,,,,,,,,,,,,,shore,0,85,sing,old,white,1516.3213751000003,None,y,1516.3213751000003,None,"['y', 'return']","[1.887680400017416, 1.9755951999977697]",1516.3213751000003,None,,,1,001,2023_Jan_25_1214,ExactRep-v3-final,2021.2.3,59.99005365368105,
,,,,,,,,,,,,85,0,85,0,,,,,,,,,,,,,,,,,,,,,,,,,,,,,,,,,,,,,,,,,,,,,,,,,1520.2989331000135,None,,,,,,,,,,,,,,,,,,,,,,,,,,,,,,,,,,,,,,,,,,,,,,,,,,,,,,,,,king,172,86,aloud,new,red,1518.8384474000195,None,n,1518.8384474000195,None,"['n', 'return']","[1.3306903000047896, 1.4185922000033315]",1518.8384474000195,None,,,1,001,2023_Jan_25_1214,ExactRep-v3-final,2021.2.3,59.99005365368105,
,,,,,,,,,,,,86,0,86,0,,,,,,,,,,,,,,,,,,,,,,,,,,,,,,,,,,,,,,,,,,,,,,,,,1527.2560959999973,None,,,,,,,,,,,,,,,,,,,,,,,,,,,,,,,,,,,,,,,,,,,,,,,,,,,,,,,,,moral,26,87,sing,old,white,1520.8093369000126,None,n,1520.8093369000126,None,"['n', 'return']","[6.327646200021263, 6.407662000012351]",1520.8093369000126,None,,,1,001,2023_Jan_25_1214,ExactRep-v3-final,2021.2.3,59.99005365368105,
,,,,,,,,,,,,87,0,87,0,,,,,,,,,,,,,,,,,,,,,,,,,,,,,,,,,,,,,,,,,,,,,,,,,1530.1600991000014,None,,,,,,,,,,,,,,,,,,,,,,,,,,,,,,,,,,,,,,,,,,,,,,,,,,,,,,,,,winter,116,88,aloud,old,red,1527.7727873999975,None,n,1527.7727873999975,None,"['n', 'return']","[2.260198499978287, 2.34030049998546]",1527.7727873999975,None,,,1,001,2023_Jan_25_1214,ExactRep-v3-final,2021.2.3,59.99005365368105,
,,,,,,,,,,,,88,0,88,0,,,,,,,,,,,,,,,,,,,,,,,,,,,,,,,,,,,,,,,,,,,,,,,,,1532.411228700017,None,,,,,,,,,,,,,,,,,,,,,,,,,,,,,,,,,,,,,,,,,,,,,,,,,,,,,,,,,month,25,89,sing,old,white,1530.667297100008,None,n,1530.667297100008,None,"['n', 'return']","[1.605712799995672, 1.7097313000122085]",1530.667297100008,None,,,1,001,2023_Jan_25_1214,ExactRep-v3-final,2021.2.3,59.99005365368105,
,,,,,,,,,,,,89,0,89,0,,,,,,,,,,,,,,,,,,,,,,,,,,,,,,,,,,,,,,,,,,,,,,,,,1536.031515700015,None,,,,,,,,,,,,,,,,,,,,,,,,,,,,,,,,,,,,,,,,,,,,,,,,,,,,,,,,,chance,126,90,silent,new,blue,1532.9129500999989,None,y,1532.9129500999989,None,"['y', 'return']","[2.9681607999955304, 3.0720896999991965]",1532.9129500999989,None,,,1,001,2023_Jan_25_1214,ExactRep-v3-final,2021.2.3,59.99005365368105,
,,,,,,,,,,,,90,0,90,0,,,,,,,,,,,,,,,,,,,,,,,,,,,,,,,,,,,,,,,,,,,,,,,,,1537.8500006000104,None,,,,,,,,,,,,,,,,,,,,,,,,,,,,,,,,,,,,,,,,,,,,,,,,,,,,,,,,,boulder,185,91,sing,new,white,1536.5510865999968,None,n,1536.5510865999968,None,"['n', 'return']","[1.1459740000136662, 1.266105000016978]",1536.5510865999968,None,,,1,001,2023_Jan_25_1214,ExactRep-v3-final,2021.2.3,59.99005365368105,
,,,,,,,,,,,,91,0,91,0,,,,,,,,,,,,,,,,,,,,,,,,,,,,,,,,,,,,,,,,,,,,,,,,,1539.9519072000112,None,,,,,,,,,,,,,,,,,,,,,,,,,,,,,,,,,,,,,,,,,,,,,,,,,,,,,,,,,library,106,92,aloud,old,red,1538.3584066000185,None,y,1538.3584066000185,None,"['y', 'return']","[1.4345298999978695, 1.5465645999938715]",1538.3584066000185,None,,,1,001,2023_Jan_25_1214,ExactRep-v3-final,2021.2.3,59.99005365368105,
,,,,,,,,,,,,92,0,92,0,,,,,,,,,,,,,,,,,,,,,,,,,,,,,,,,,,,,,,,,,,,,,,,,,1542.9384147000092,None,,,,,,,,,,,,,,,,,,,,,,,,,,,,,,,,,,,,,,,,,,,,,,,,,,,,,,,,,author,82,93,aloud,old,red,1540.4648640000087,None,y,1540.4648640000087,None,"['y', 'return']","[2.352293000003556, 2.4401456999767106]",1540.4648640000087,None,,,1,001,2023_Jan_25_1214,ExactRep-v3-final,2021.2.3,59.99005365368105,
,,,,,,,,,,,,93,0,93,0,,,,,,,,,,,,,,,,,,,,,,,,,,,,,,,,,,,,,,,,,,,,,,,,,1547.5096503999957,None,,,,,,,,,,,,,,,,,,,,,,,,,,,,,,,,,,,,,,,,,,,,,,,,,,,,,,,,,event,152,94,silent,new,blue,1543.447155700007,None,n,1543.447155700007,None,"['n', 'return']","[3.9058648999780416, 4.025861599977361]",1543.447155700007,None,,,1,001,2023_Jan_25_1214,ExactRep-v3-final,2021.2.3,59.99005365368105,
,,,,,,,,,,,,94,0,94,0,,,,,,,,,,,,,,,,,,,,,,,,,,,,,,,,,,,,,,,,,,,,,,,,,1551.1634504999965,None,,,,,,,,,,,,,,,,,,,,,,,,,,,,,,,,,,,,,,,,,,,,,,,,,,,,,,,,,custom,167,95,sing,new,white,1548.0256370000134,None,n,1548.0256370000134,None,"['n', 'return']","[2.9353354000195395, 3.1033932999998797]",1548.0256370000134,None,,,1,001,2023_Jan_25_1214,ExactRep-v3-final,2021.2.3,59.99005365368105,
,,,,,,,,,,,,95,0,95,0,,,,,,,,,,,,,,,,,,,,,,,,,,,,,,,,,,,,,,,,,,,,,,,,,1554.4846214000136,None,,,,,,,,,,,,,,,,,,,,,,,,,,,,,,,,,,,,,,,,,,,,,,,,,,,,,,,,,coin,142,96,silent,new,blue,1551.6687949000043,None,y,1551.6687949000043,None,"['y', 'return']","[2.644118199998047, 2.772227200010093]",1551.6687949000043,None,,,1,001,2023_Jan_25_1214,ExactRep-v3-final,2021.2.3,59.99005365368105,
,,,,,,,,,,,,96,0,96,0,,,,,,,,,,,,,,,,,,,,,,,,,,,,,,,,,,,,,,,,,,,,,,,,,1557.1370438000013,None,,,,,,,,,,,,,,,,,,,,,,,,,,,,,,,,,,,,,,,,,,,,,,,,,,,,,,,,,flag,23,97,sing,old,white,1554.9939906000218,None,n,1554.9939906000218,None,"['n', 'return']","[1.871154500026023, 2.0950944000214804]",1554.9939906000218,None,,,1,001,2023_Jan_25_1214,ExactRep-v3-final,2021.2.3,59.99005365368105,
,,,,,,,,,,,,97,0,97,0,,,,,,,,,,,,,,,,,,,,,,,,,,,,,,,,,,,,,,,,,,,,,,,,,1559.204790800024,None,,,,,,,,,,,,,,,,,,,,,,,,,,,,,,,,,,,,,,,,,,,,,,,,,,,,,,,,,form,115,98,aloud,old,red,1557.6417896000203,None,y,1557.6417896000203,None,"['y', 'return']","[1.3752954000083264, 1.5193891000235453]",1557.6417896000203,None,,,1,001,2023_Jan_25_1214,ExactRep-v3-final,2021.2.3,59.99005365368105,
,,,,,,,,,,,,98,0,98,0,,,,,,,,,,,,,,,,,,,,,,,,,,,,,,,,,,,,,,,,,,,,,,,,,1560.9399037999974,None,,,,,,,,,,,,,,,,,,,,,,,,,,,,,,,,,,,,,,,,,,,,,,,,,,,,,,,,,slave,226,99,aloud,new,red,1559.714332100004,None,n,1559.714332100004,None,"['n', 'return']","[1.030692700005602, 1.182666300010169]",1559.714332100004,None,,,1,001,2023_Jan_25_1214,ExactRep-v3-final,2021.2.3,59.99005365368105,
,,,,,,,,,,,,99,0,99,0,,,,,,,,,,,,,,,,,,,,,,,,,,,,,,,,,,,,,,,,,,,,,,,,,1563.3935684000026,None,,,,,,,,,,,,,,,,,,,,,,,,,,,,,,,,,,,,,,,,,,,,,,,,,,,,,,,,,avenue,54,100,silent,old,blue,1561.4500194000138,None,n,1561.4500194000138,None,"['n', 'return']","[1.7752273999794852, 1.9030495999904815]",1561.4500194000138,None,,,1,001,2023_Jan_25_1214,ExactRep-v3-final,2021.2.3,59.99005365368105,
,,,,,,,,,,,,100,0,100,0,,,,,,,,,,,,,,,,,,,,,,,,,,,,,,,,,,,,,,,,,,,,,,,,,1565.3609204000095,None,,,,,,,,,,,,,,,,,,,,,,,,,,,,,,,,,,,,,,,,,,,,,,,,,,,,,,,,,doll,66,101,silent,old,blue,1563.9018642000156,None,n,1563.9018642000156,None,"['n', 'return']","[1.3152418000099715, 1.4271969000110403]",1563.9018642000156,None,,,1,001,2023_Jan_25_1214,ExactRep-v3-final,2021.2.3,59.99005365368105,
,,,,,,,,,,,,101,0,101,0,,,,,,,,,,,,,,,,,,,,,,,,,,,,,,,,,,,,,,,,,,,,,,,,,1566.880342700024,None,,,,,,,,,,,,,,,,,,,,,,,,,,,,,,,,,,,,,,,,,,,,,,,,,,,,,,,,,insect,239,102,sing,new,white,1565.8802471000236,None,n,1565.8802471000236,None,"['n', 'return']","[0.8327475999831222, 0.9607797999924514]",1565.8802471000236,None,,,1,001,2023_Jan_25_1214,ExactRep-v3-final,2021.2.3,59.99005365368105,
,,,,,,,,,,,,102,0,102,0,,,,,,,,,,,,,,,,,,,,,,,,,,,,,,,,,,,,,,,,,,,,,,,,,1568.1636376000242,None,,,,,,,,,,,,,,,,,,,,,,,,,,,,,,,,,,,,,,,,,,,,,,,,,,,,,,,,,length,139,103,silent,new,blue,1567.388571700023,None,n,1567.388571700023,None,"['n', 'return']","[0.5803816999832634, 0.7404077999817673]",1567.388571700023,None,,,1,001,2023_Jan_25_1214,ExactRep-v3-final,2021.2.3,59.99005365368105,
,,,,,,,,,,,,103,0,103,0,,,,,,,,,,,,,,,,,,,,,,,,,,,,,,,,,,,,,,,,,,,,,,,,,1570.1321784000029,None,,,,,,,,,,,,,,,,,,,,,,,,,,,,,,,,,,,,,,,,,,,,,,,,,,,,,,,,,bottle,206,104,aloud,new,red,1568.6775812999986,None,n,1568.6775812999986,None,"['n', 'return']","[1.2514357999898493, 1.4113726999785285]",1568.6775812999986,None,,,1,001,2023_Jan_25_1214,ExactRep-v3-final,2021.2.3,59.99005365368105,
,,,,,,,,,,,,104,0,104,0,,,,,,,,,,,,,,,,,,,,,,,,,,,,,,,,,,,,,,,,,,,,,,,,,1571.8851028000063,None,,,,,,,,,,,,,,,,,,,,,,,,,,,,,,,,,,,,,,,,,,,,,,,,,,,,,,,,,weapon,97,105,aloud,old,red,1570.6400694000185,None,y,1570.6400694000185,None,"['y', 'return']","[1.0649557000142522, 1.201012500008801]",1570.6400694000185,None,,,1,001,2023_Jan_25_1214,ExactRep-v3-final,2021.2.3,59.99005365368105,
,,,,,,,,,,,,105,0,105,0,,,,,,,,,,,,,,,,,,,,,,,,,,,,,,,,,,,,,,,,,,,,,,,,,1573.7692913000064,None,,,,,,,,,,,,,,,,,,,,,,,,,,,,,,,,,,,,,,,,,,,,,,,,,,,,,,,,,butter,31,106,sing,old,white,1572.3885872999963,None,y,1572.3885872999963,None,"['y', 'return']","[1.2045352999994066, 1.3407480999885593]",1572.3885872999963,None,,,1,001,2023_Jan_25_1214,ExactRep-v3-final,2021.2.3,59.99005365368105,
,,,,,,,,,,,,106,0,106,0,,,,,,,,,,,,,,,,,,,,,,,,,,,,,,,,,,,,,,,,,,,,,,,,,1575.637790000008,None,,,,,,,,,,,,,,,,,,,,,,,,,,,,,,,,,,,,,,,,,,,,,,,,,,,,,,,,,sea,128,107,silent,new,blue,1574.2852283999964,None,n,1574.2852283999964,None,"['n', 'return']","[1.0197643999999855, 1.3157324999920093]",1574.2852283999964,None,,,1,001,2023_Jan_25_1214,ExactRep-v3-final,2021.2.3,59.99005365368105,
,,,,,,,,,,,,107,0,107,0,,,,,,,,,,,,,,,,,,,,,,,,,,,,,,,,,,,,,,,,,,,,,,,,,1578.5583556000201,None,,,,,,,,,,,,,,,,,,,,,,,,,,,,,,,,,,,,,,,,,,,,,,,,,,,,,,,,,justice,89,108,aloud,old,red,1576.1536762000178,None,y,1576.1536762000178,None,"['y', 'return']","[2.2793632999819238, 2.367347499995958]",1576.1536762000178,None,,,1,001,2023_Jan_25_1214,ExactRep-v3-final,2021.2.3,59.99005365368105,
,,,,,,,,,,,,108,0,108,0,,,,,,,,,,,,,,,,,,,,,,,,,,,,,,,,,,,,,,,,,,,,,,,,,1581.0433126999997,None,,,,,,,,,,,,,,,,,,,,,,,,,,,,,,,,,,,,,,,,,,,,,,,,,,,,,,,,,river,41,109,silent,old,blue,1579.0652701000217,None,y,1579.0652701000217,None,"['y', 'return']","[1.7997370999946725, 1.9358089999877848]",1579.0652701000217,None,,,1,001,2023_Jan_25_1214,ExactRep-v3-final,2021.2.3,59.99005365368105,
,,,,,,,,,,,,109,0,109,0,,,,,,,,,,,,,,,,,,,,,,,,,,,,,,,,,,,,,,,,,,,,,,,,,1582.8627362000116,None,,,,,,,,,,,,,,,,,,,,,,,,,,,,,,,,,,,,,,,,,,,,,,,,,,,,,,,,,vision,102,110,aloud,old,red,1581.552757700003,None,y,1581.552757700003,None,"['y', 'return']","[1.1523101000057068, 1.2642046999826562]",1581.552757700003,None,,,1,001,2023_Jan_25_1214,ExactRep-v3-final,2021.2.3,59.99005365368105,
,,,,,,,,,,,,110,0,110,0,,,,,,,,,,,,,,,,,,,,,,,,,,,,,,,,,,,,,,,,,,,,,,,,,1585.3641124000133,None,,,,,,,,,,,,,,,,,,,,,,,,,,,,,,,,,,,,,,,,,,,,,,,,,,,,,,,,,pride,231,111,sing,new,white,1583.3715451000025,None,n,1583.3715451000025,None,"['n', 'return']","[1.8695905999920797, 1.9574602999782655]",1583.3715451000025,None,,,1,001,2023_Jan_25_1214,ExactRep-v3-final,2021.2.3,59.99005365368105,
,,,,,,,,,,,,111,0,111,0,,,,,,,,,,,,,,,,,,,,,,,,,,,,,,,,,,,,,,,,,,,,,,,,,1587.0492167000193,None,,,,,,,,,,,,,,,,,,,,,,,,,,,,,,,,,,,,,,,,,,,,,,,,,,,,,,,,,anger,222,112,aloud,new,red,1585.8750790000195,None,n,1585.8750790000195,None,"['n', 'return']","[1.0379971000074875, 1.1260346999915782]",1585.8750790000195,None,,,1,001,2023_Jan_25_1214,ExactRep-v3-final,2021.2.3,59.99005365368105,
,,,,,,,,,,,,112,0,112,0,,,,,,,,,,,,,,,,,,,,,,,,,,,,,,,,,,,,,,,,,,,,,,,,,1589.2350579000195,None,,,,,,,,,,,,,,,,,,,,,,,,,,,,,,,,,,,,,,,,,,,,,,,,,,,,,,,,,volume,11,113,sing,old,white,1587.5621812000172,None,y,1587.5621812000172,None,"['y', 'return']","[1.5028153999883216, 1.6388701999967452]",1587.5621812000172,None,,,1,001,2023_Jan_25_1214,ExactRep-v3-final,2021.2.3,59.99005365368105,
,,,,,,,,,,,,113,0,113,0,,,,,,,,,,,,,,,,,,,,,,,,,,,,,,,,,,,,,,,,,,,,,,,,,1592.7549415999965,None,,,,,,,,,,,,,,,,,,,,,,,,,,,,,,,,,,,,,,,,,,,,,,,,,,,,,,,,,shoes,21,114,sing,old,white,1589.7496706999955,None,y,1589.7496706999955,None,"['y', 'return']","[1.9313349000003655, 2.963318200025242]",1589.7496706999955,None,,,1,001,2023_Jan_25_1214,ExactRep-v3-final,2021.2.3,59.99005365368105,
,,,,,,,,,,,,114,0,114,0,,,,,,,,,,,,,,,,,,,,,,,,,,,,,,,,,,,,,,,,,,,,,,,,,1597.8266128000105,None,,,,,,,,,,,,,,,,,,,,,,,,,,,,,,,,,,,,,,,,,,,,,,,,,,,,,,,,,fun,17,115,sing,old,white,1593.2699619000196,None,n,1593.2699619000196,None,"['n', 'return']","[4.403149999998277, 4.515173899999354]",1593.2699619000196,None,,,1,001,2023_Jan_25_1214,ExactRep-v3-final,2021.2.3,59.99005365368105,
,,,,,,,,,,,,115,0,115,0,,,,,,,,,,,,,,,,,,,,,,,,,,,,,,,,,,,,,,,,,,,,,,,,,1601.5136311000097,None,,,,,,,,,,,,,,,,,,,,,,,,,,,,,,,,,,,,,,,,,,,,,,,,,,,,,,,,,journal,180,116,aloud,new,red,1598.3389049000107,None,n,1598.3389049000107,None,"['n', 'return']","[2.990095100016333, 3.126114000013331]",1598.3389049000107,None,,,1,001,2023_Jan_25_1214,ExactRep-v3-final,2021.2.3,59.99005365368105,
,,,,,,,,,,,,116,0,116,0,,,,,,,,,,,,,,,,,,,,,,,,,,,,,,,,,,,,,,,,,,,,,,,,,1603.9493490000023,None,,,,,,,,,,,,,,,,,,,,,,,,,,,,,,,,,,,,,,,,,,,,,,,,,,,,,,,,,doctor,117,117,aloud,old,red,1602.0262153000222,None,y,1602.0262153000222,None,"['y', 'return']","[1.5588665999821387, 1.8868328999960795]",1602.0262153000222,None,,,1,001,2023_Jan_25_1214,ExactRep-v3-final,2021.2.3,59.99005365368105,
,,,,,,,,,,,,117,0,117,0,,,,,,,,,,,,,,,,,,,,,,,,,,,,,,,,,,,,,,,,,,,,,,,,,1605.8179795000178,None,,,,,,,,,,,,,,,,,,,,,,,,,,,,,,,,,,,,,,,,,,,,,,,,,,,,,,,,,ocean,111,118,aloud,old,red,1604.4590028999955,None,y,1604.4590028999955,None,"['y', 'return']","[1.2141892999934498, 1.3180376999953296]",1604.4590028999955,None,,,1,001,2023_Jan_25_1214,ExactRep-v3-final,2021.2.3,59.99005365368105,
,,,,,,,,,,,,118,0,118,0,,,,,,,,,,,,,,,,,,,,,,,,,,,,,,,,,,,,,,,,,,,,,,,,,1607.820059300022,None,,,,,,,,,,,,,,,,,,,,,,,,,,,,,,,,,,,,,,,,,,,,,,,,,,,,,,,,,hotel,69,119,silent,old,blue,1606.3293412000057,None,n,1606.3293412000057,None,"['n', 'return']","[1.3275940000021365, 1.4476744999992661]",1606.3293412000057,None,,,1,001,2023_Jan_25_1214,ExactRep-v3-final,2021.2.3,59.99005365368105,
,,,,,,,,,,,,119,0,119,0,,,,,,,,,,,,,,,,,,,,,,,,,,,,,,,,,,,,,,,,,,,,,,,,,1609.8228880000242,None,,,,,,,,,,,,,,,,,,,,,,,,,,,,,,,,,,,,,,,,,,,,,,,,,,,,,,,,,prison,144,120,silent,new,blue,1608.3313908000127,None,n,1608.3313908000127,None,"['n', 'return']","[1.3096210999938194, 1.4458040999888908]",1608.3313908000127,None,,,1,001,2023_Jan_25_1214,ExactRep-v3-final,2021.2.3,59.99005365368105,
,,,,,,,,,,,,120,0,120,0,,,,,,,,,,,,,,,,,,,,,,,,,,,,,,,,,,,,,,,,,,,,,,,,,1611.9742318000062,None,,,,,,,,,,,,,,,,,,,,,,,,,,,,,,,,,,,,,,,,,,,,,,,,,,,,,,,,,horse,197,121,sing,new,white,1610.338421100023,None,n,1610.338421100023,None,"['n', 'return']","[1.5029166000022087, 1.5986785000131931]",1610.338421100023,None,,,1,001,2023_Jan_25_1214,ExactRep-v3-final,2021.2.3,59.99005365368105,
,,,,,,,,,,,,121,0,121,0,,,,,,,,,,,,,,,,,,,,,,,,,,,,,,,,,,,,,,,,,,,,,,,,,1613.526581800019,None,,,,,,,,,,,,,,,,,,,,,,,,,,,,,,,,,,,,,,,,,,,,,,,,,,,,,,,,,excuse,199,122,sing,new,white,1612.4784709000087,None,n,1612.4784709000087,None,"['n', 'return']","[0.8506464000092819, 1.0025843000039458]",1612.4784709000087,None,,,1,001,2023_Jan_25_1214,ExactRep-v3-final,2021.2.3,59.99005365368105,
,,,,,,,,,,,,122,0,122,0,,,,,,,,,,,,,,,,,,,,,,,,,,,,,,,,,,,,,,,,,,,,,,,,,1615.1115304999985,None,,,,,,,,,,,,,,,,,,,,,,,,,,,,,,,,,,,,,,,,,,,,,,,,,,,,,,,,,clock,46,123,silent,old,blue,1614.035780700011,None,n,1614.035780700011,None,"['n', 'return']","[0.9333730000071228, 1.0372732999967411]",1614.035780700011,None,,,1,001,2023_Jan_25_1214,ExactRep-v3-final,2021.2.3,59.99005365368105,
,,,,,,,,,,,,123,0,123,0,,,,,,,,,,,,,,,,,,,,,,,,,,,,,,,,,,,,,,,,,,,,,,,,,1618.363781699998,None,,,,,,,,,,,,,,,,,,,,,,,,,,,,,,,,,,,,,,,,,,,,,,,,,,,,,,,,,time,194,124,aloud,new,red,1615.6268025000172,None,y,1615.6268025000172,None,"['y', 'return']","[2.5902239000133704, 2.702186200011056]",1615.6268025000172,None,,,1,001,2023_Jan_25_1214,ExactRep-v3-final,2021.2.3,59.99005365368105,
,,,,,,,,,,,,124,0,124,0,,,,,,,,,,,,,,,,,,,,,,,,,,,,,,,,,,,,,,,,,,,,,,,,,1623.5690140000079,None,,,,,,,,,,,,,,,,,,,,,,,,,,,,,,,,,,,,,,,,,,,,,,,,,,,,,,,,,sky,51,125,silent,old,blue,1618.8698441000015,None,n,1618.8698441000015,None,"['n', 'return']","[4.539273200003663, 4.659229800017783]",1618.8698441000015,None,,,1,001,2023_Jan_25_1214,ExactRep-v3-final,2021.2.3,59.99005365368105,
,,,,,,,,,,,,125,0,125,0,,,,,,,,,,,,,,,,,,,,,,,,,,,,,,,,,,,,,,,,,,,,,,,,,1626.1048360000132,None,,,,,,,,,,,,,,,,,,,,,,,,,,,,,,,,,,,,,,,,,,,,,,,,,,,,,,,,,present,24,126,sing,old,white,1624.0814640000171,None,y,1624.0814640000171,None,"['y', 'return']","[1.8716328000009526, 1.9755524000211153]",1624.0814640000171,None,,,1,001,2023_Jan_25_1214,ExactRep-v3-final,2021.2.3,59.99005365368105,
,,,,,,,,,,,,126,0,126,0,,,,,,,,,,,,,,,,,,,,,,,,,,,,,,,,,,,,,,,,,,,,,,,,,1630.1940352999954,None,,,,,,,,,,,,,,,,,,,,,,,,,,,,,,,,,,,,,,,,,,,,,,,,,,,,,,,,,ticket,32,127,sing,old,white,1626.6090075999964,None,y,1626.6090075999964,None,"['y', 'return']","[3.4162068000005092, 3.5440021000104025]",1626.6090075999964,None,,,1,001,2023_Jan_25_1214,ExactRep-v3-final,2021.2.3,59.99005365368105,
,,,,,,,,,,,,127,0,127,0,,,,,,,,,,,,,,,,,,,,,,,,,,,,,,,,,,,,,,,,,,,,,,,,,1635.131615500024,None,,,,,,,,,,,,,,,,,,,,,,,,,,,,,,,,,,,,,,,,,,,,,,,,,,,,,,,,,iron,235,128,sing,new,white,1630.717747800023,None,n,1630.717747800023,None,"['n', 'return']","[4.115363100019749, 4.37929820001591]",1630.717747800023,None,,,1,001,2023_Jan_25_1214,ExactRep-v3-final,2021.2.3,59.99005365368105,
,,,,,,,,,,,,128,0,128,0,,,,,,,,,,,,,,,,,,,,,,,,,,,,,,,,,,,,,,,,,,,,,,,,,1637.2665326000133,None,,,,,,,,,,,,,,,,,,,,,,,,,,,,,,,,,,,,,,,,,,,,,,,,,,,,,,,,,history,143,129,silent,new,blue,1635.6434160000063,None,y,1635.6434160000063,None,"['y', 'return']","[1.4935958000132814, 1.5816740000154823]",1635.6434160000063,None,,,1,001,2023_Jan_25_1214,ExactRep-v3-final,2021.2.3,59.99005365368105,
,,,,,,,,,,,,129,0,129,0,,,,,,,,,,,,,,,,,,,,,,,,,,,,,,,,,,,,,,,,,,,,,,,,,1639.9197491000232,None,,,,,,,,,,,,,,,,,,,,,,,,,,,,,,,,,,,,,,,,,,,,,,,,,,,,,,,,,seat,49,130,silent,old,blue,1637.7736694000196,None,y,1637.7736694000196,None,"['y', 'return']","[1.9793297999713104, 2.107520299992757]",1637.7736694000196,None,,,1,001,2023_Jan_25_1214,ExactRep-v3-final,2021.2.3,59.99005365368105,
,,,,,,,,,,,,130,0,130,0,,,,,,,,,,,,,,,,,,,,,,,,,,,,,,,,,,,,,,,,,,,,,,,,,1641.4548763000057,None,,,,,,,,,,,,,,,,,,,,,,,,,,,,,,,,,,,,,,,,,,,,,,,,,,,,,,,,,toy,45,131,silent,old,blue,1640.4192401000182,None,y,1640.4192401000182,None,"['y', 'return']","[0.8617852999886964, 0.9897212999931071]",1640.4192401000182,None,,,1,001,2023_Jan_25_1214,ExactRep-v3-final,2021.2.3,59.99005365368105,
,,,,,,,,,,,,131,0,131,0,,,,,,,,,,,,,,,,,,,,,,,,,,,,,,,,,,,,,,,,,,,,,,,,,1643.8392603000102,None,,,,,,,,,,,,,,,,,,,,,,,,,,,,,,,,,,,,,,,,,,,,,,,,,,,,,,,,,victory,27,132,sing,old,white,1641.9714013000194,None,y,1641.9714013000194,None,"['y', 'return']","[1.7096185000264086, 1.829794600023888]",1641.9714013000194,None,,,1,001,2023_Jan_25_1214,ExactRep-v3-final,2021.2.3,59.99005365368105,
,,,,,,,,,,,,132,0,132,0,,,,,,,,,,,,,,,,,,,,,,,,,,,,,,,,,,,,,,,,,,,,,,,,,1646.9924351000227,None,,,,,,,,,,,,,,,,,,,,,,,,,,,,,,,,,,,,,,,,,,,,,,,,,,,,,,,,,trouble,162,133,aloud,new,red,1644.3477478999994,None,n,1644.3477478999994,None,"['n', 'return']","[2.4453214000095613, 2.605536300019594]",1644.3477478999994,None,,,1,001,2023_Jan_25_1214,ExactRep-v3-final,2021.2.3,59.99005365368105,
