trials_fam.thisRepN,trials_fam.thisTrialN,trials_fam.thisN,trials_fam.thisIndex,trials_prc.thisRepN,trials_prc.thisTrialN,trials_prc.thisN,trials_prc.thisIndex,StudyLoop.thisRepN,StudyLoop.thisTrialN,StudyLoop.thisN,StudyLoop.thisIndex,TestLoop.thisRepN,TestLoop.thisTrialN,TestLoop.thisN,TestLoop.thisIndex,text_colortest.started,text_colortest.stopped,key_colortest.keys,key_colortest.rt,key_colortest.started,key_colortest.stopped,textCondition.started,textCondition.stopped,keyCondition.keys,keyCondition.rt,keyCondition.started,keyCondition.stopped,Condition_between,Condition_counterbal,keyWelcome.keys,keyWelcome.rt,keyWelcome.started,keyWelcome.stopped,welcome_a.started,welcome_a.stopped,welcome_b.started,welcome_b.stopped,welcome_c.started,welcome_c.stopped,welcome_d.started,welcome_d.stopped,welcome_e.started,welcome_e.stopped,welcome_f.started,welcome_f.stopped,key_resp_fam_inst.keys,key_resp_fam_inst.rt,key_resp_fam_inst.started,key_resp_fam_inst.stopped,fam_a.started,fam_a.stopped,fam_b.started,fam_b.stopped,fam_c.started,fam_c.stopped,fam_d.started,fam_d.stopped,fam_e.started,fam_e.stopped,fam_f.started,fam_f.stopped,text_famil.started,text_famil.stopped,textBlank500.started,textBlank500.stopped,key_resp_prc_inst.keys,key_resp_prc_inst.rt,key_resp_prc_inst.started,key_resp_prc_inst.stopped,prac_a.started,prac_a.stopped,prac_b.started,prac_b.stopped,prac_c.started,prac_c.stopped,prac_d.started,prac_d.stopped,prac_e.started,prac_e.stopped,prac_f.started,prac_f.stopped,text_prc_trial.started,text_prc_trial.stopped,key_resp_study_inst.keys,key_resp_study_inst.rt,key_resp_study_inst.started,key_resp_study_inst.stopped,crit_a.started,crit_a.stopped,crit_b.started,crit_b.stopped,crit_c.started,crit_c.stopped,crit_d.started,crit_d.stopped,crit_e.started,crit_e.stopped,crit_f.started,crit_f.stopped,study_word,study_num,study_order,study_type,word_color,textStudy.started,textStudy.stopped,keyStudy.keys,keyStudy.started,keyStudy.stopped,post_study.started,post_study.stopped,key_resp_post_study.keys,key_resp_post_study.rt,key_resp_post_study.started,key_resp_post_study.stopped,test_inst.started,test_inst.stopped,key_resp_test_inst.keys,key_resp_test_inst.rt,key_resp_test_inst.started,key_resp_test_inst.stopped,test_word,test_num,test_order,test_condition,old_new_test,word_color_test,textConf.started,textConf.stopped,Participant Response,textInput.started,textInput.stopped,keyResp.keys,keyResp.rt,keyResp.started,keyResp.stopped,textEnd.started,textEnd.stopped,participant,session,date,expName,psychopyVersion,frameRate,
,,,,,,,,,,,,,,,,22.731105899903923,None,n,38.36440309998579,22.731105899903923,None,,,,,,,,,,,,,,,,,,,,,,,,,,,,,,,,,,,,,,,,,,,,,,,,,,,,,,,,,,,,,,,,,,,,,,,,,,,,,,,,,,,,,,,,,,,,,,,,,,,,,,,,,,,,,,,,,,,,,,20NB,001,2023_Mar_08_1525,ExactRep-v3-final,2021.2.3,59.941904310574905,
,,,,,,,,,,,,,,,,,,,,,,61.12588700000197,None,b,5.1856751998420805,61.12588700000197,None,,,,,,,,,,,,,,,,,,,,,,,,,,,,,,,,,,,,,,,,,,,,,,,,,,,,,,,,,,,,,,,,,,,,,,,,,,,,,,,,,,,,,,,,,,,,,,,,,,,,,,,,,,,,,,,,20NB,001,2023_Mar_08_1525,ExactRep-v3-final,2021.2.3,59.941904310574905,
,,,,,,,,,,,,,,,,,,,,,,,,,,,,whitefoils,b,space,227.61037570005283,76.46132549992763,None,,,,,,,,,,,,,,,,,,,,,,,,,,,,,,,,,,,,,,,,,,,,,,,,,,,,,,,,,,,,,,,,,,,,,,,,,,,,,,,,,,,,,,,,,,,,,,,,,,,,,,,,,,20NB,001,2023_Mar_08_1525,ExactRep-v3-final,2021.2.3,59.941904310574905,
,,,,,,,,,,,,,,,,,,,,,,,,,,,,,,,,,,66.56074739992619,None,66.56074739992619,None,66.56074739992619,None,66.56074739992619,None,66.56074739992619,None,66.56074739992619,None,space,19.56498479982838,314.25090559991077,None,,,,,,,,,,,,,,,,,,,,,,,,,,,,,,,,,,,,,,,,,,,,,,,,,,,,,,,,,,,,,,,,,,,,,,,,,,,,,,,,,,,,,,,,,,20NB,001,2023_Mar_08_1525,ExactRep-v3-final,2021.2.3,59.941904310574905,
0,0,0,0,,,,,,,,,,,,,,,,,,,,,,,,,,,,,,,,,,,,,,,,,,,,,,,304.27669760002755,None,304.27669760002755,None,304.27669760002755,None,304.27669760002755,None,304.27669760002755,None,304.27669760002755,None,333.9064703998156,None,335.90054830000736,None,,,,,,,,,,,,,,,,,,,,,,,,,,,,,,,,,,,,,,,,,,,,,,,,,,,,,,,,,,,,,,,,,,,,,,,,,,20NB,001,2023_Mar_08_1525,ExactRep-v3-final,2021.2.3,59.941904310574905,
1,0,1,0,,,,,,,,,,,,,,,,,,,,,,,,,,,,,,,,,,,,,,,,,,,,,,,,,,,,,,,,,,,336.4130002998281,None,338.41992020001635,None,,,,,,,,,,,,,,,,,,,,,,,,,,,,,,,,,,,,,,,,,,,,,,,,,,,,,,,,,,,,,,,,,,,,,,,,,,20NB,001,2023_Mar_08_1525,ExactRep-v3-final,2021.2.3,59.941904310574905,
2,0,2,0,,,,,,,,,,,,,,,,,,,,,,,,,,,,,,,,,,,,,,,,,,,,,,,,,,,,,,,,,,,338.92737759999,None,340.93890469986945,None,,,,,,,,,,,,,,,,,,,,,,,,,,,,,,,,,,,,,,,,,,,,,,,,,,,,,,,,,,,,,,,,,,,,,,,,,,20NB,001,2023_Mar_08_1525,ExactRep-v3-final,2021.2.3,59.941904310574905,
3,0,3,0,,,,,,,,,,,,,,,,,,,,,,,,,,,,,,,,,,,,,,,,,,,,,,,,,,,,,,,,,,,341.43938259989955,None,343.44139289995655,None,,,,,,,,,,,,,,,,,,,,,,,,,,,,,,,,,,,,,,,,,,,,,,,,,,,,,,,,,,,,,,,,,,,,,,,,,,20NB,001,2023_Mar_08_1525,ExactRep-v3-final,2021.2.3,59.941904310574905,
4,0,4,0,,,,,,,,,,,,,,,,,,,,,,,,,,,,,,,,,,,,,,,,,,,,,,,,,,,,,,,,,,,343.94229559996165,None,345.94383609993383,None,,,,,,,,,,,,,,,,,,,,,,,,,,,,,,,,,,,,,,,,,,,,,,,,,,,,,,,,,,,,,,,,,,,,,,,,,,20NB,001,2023_Mar_08_1525,ExactRep-v3-final,2021.2.3,59.941904310574905,
5,0,5,0,,,,,,,,,,,,,,,,,,,,,,,,,,,,,,,,,,,,,,,,,,,,,,,,,,,,,,,,,,,346.4469763999805,None,348.44650899991393,None,,,,,,,,,,,,,,,,,,,,,,,,,,,,,,,,,,,,,,,,,,,,,,,,,,,,,,,,,,,,,,,,,,,,,,,,,,20NB,001,2023_Mar_08_1525,ExactRep-v3-final,2021.2.3,59.941904310574905,
6,0,6,0,,,,,,,,,,,,,,,,,,,,,,,,,,,,,,,,,,,,,,,,,,,,,,,,,,,,,,,,,,,348.94688749988563,None,350.9487764998339,None,,,,,,,,,,,,,,,,,,,,,,,,,,,,,,,,,,,,,,,,,,,,,,,,,,,,,,,,,,,,,,,,,,,,,,,,,,20NB,001,2023_Mar_08_1525,ExactRep-v3-final,2021.2.3,59.941904310574905,
7,0,7,0,,,,,,,,,,,,,,,,,,,,,,,,,,,,,,,,,,,,,,,,,,,,,,,,,,,,,,,,,,,351.45153049984947,None,353.4512538998388,None,,,,,,,,,,,,,,,,,,,,,,,,,,,,,,,,,,,,,,,,,,,,,,,,,,,,,,,,,,,,,,,,,,,,,,,,,,20NB,001,2023_Mar_08_1525,ExactRep-v3-final,2021.2.3,59.941904310574905,
8,0,8,0,,,,,,,,,,,,,,,,,,,,,,,,,,,,,,,,,,,,,,,,,,,,,,,,,,,,,,,,,,,353.9613989999052,None,355.9706427999772,None,,,,,,,,,,,,,,,,,,,,,,,,,,,,,,,,,,,,,,,,,,,,,,,,,,,,,,,,,,,,,,,,,,,,,,,,,,20NB,001,2023_Mar_08_1525,ExactRep-v3-final,2021.2.3,59.941904310574905,
9,0,9,0,,,,,,,,,,,,,,,,,,,,,,,,,,,,,,,,,,,,,,,,,,,,,,,,,,,,,,,,,,,356.4712024999317,None,358.4731361998711,None,,,,,,,,,,,,,,,,,,,,,,,,,,,,,,,,,,,,,,,,,,,,,,,,,,,,,,,,,,,,,,,,,,,,,,,,,,20NB,001,2023_Mar_08_1525,ExactRep-v3-final,2021.2.3,59.941904310574905,
10,0,10,0,,,,,,,,,,,,,,,,,,,,,,,,,,,,,,,,,,,,,,,,,,,,,,,,,,,,,,,,,,,358.97727069980465,None,360.99235549988225,None,,,,,,,,,,,,,,,,,,,,,,,,,,,,,,,,,,,,,,,,,,,,,,,,,,,,,,,,,,,,,,,,,,,,,,,,,,20NB,001,2023_Mar_08_1525,ExactRep-v3-final,2021.2.3,59.941904310574905,
11,0,11,0,,,,,,,,,,,,,,,,,,,,,,,,,,,,,,,,,,,,,,,,,,,,,,,,,,,,,,,,,,,361.49278449988924,None,363.4946816000156,None,,,,,,,,,,,,,,,,,,,,,,,,,,,,,,,,,,,,,,,,,,,,,,,,,,,,,,,,,,,,,,,,,,,,,,,,,,20NB,001,2023_Mar_08_1525,ExactRep-v3-final,2021.2.3,59.941904310574905,
12,0,12,0,,,,,,,,,,,,,,,,,,,,,,,,,,,,,,,,,,,,,,,,,,,,,,,,,,,,,,,,,,,363.9970468999818,None,365.9972574999556,None,,,,,,,,,,,,,,,,,,,,,,,,,,,,,,,,,,,,,,,,,,,,,,,,,,,,,,,,,,,,,,,,,,,,,,,,,,20NB,001,2023_Mar_08_1525,ExactRep-v3-final,2021.2.3,59.941904310574905,
13,0,13,0,,,,,,,,,,,,,,,,,,,,,,,,,,,,,,,,,,,,,,,,,,,,,,,,,,,,,,,,,,,366.4977958998643,None,368.4997841999866,None,,,,,,,,,,,,,,,,,,,,,,,,,,,,,,,,,,,,,,,,,,,,,,,,,,,,,,,,,,,,,,,,,,,,,,,,,,20NB,001,2023_Mar_08_1525,ExactRep-v3-final,2021.2.3,59.941904310574905,
14,0,14,0,,,,,,,,,,,,,,,,,,,,,,,,,,,,,,,,,,,,,,,,,,,,,,,,,,,,,,,,,,,369.0002821998205,None,371.0023069998715,None,,,,,,,,,,,,,,,,,,,,,,,,,,,,,,,,,,,,,,,,,,,,,,,,,,,,,,,,,,,,,,,,,,,,,,,,,,20NB,001,2023_Mar_08_1525,ExactRep-v3-final,2021.2.3,59.941904310574905,
,,,,,,,,,,,,,,,,,,,,,,,,,,,,,,,,,,,,,,,,,,,,,,,,,,,,,,,,,,,,,,,,,,space,47.261033499846235,381.618630199926,None,,,,,,,,,,,,,,,,,,,,,,,,,,,,,,,,,,,,,,,,,,,,,,,,,,,,,,,,,,,,,,,,,,,,,,20NB,001,2023_Mar_08_1525,ExactRep-v3-final,2021.2.3,59.941904310574905,
,,,,0,0,0,0,,,,,,,,,,,,,,,,,,,,,,,,,,,,,,,,,,,,,,,,,,,,,,,,,,,,,,,,,430.9789405998308,None,,,,,371.6707328998018,None,371.6707328998018,None,371.6707328998018,None,371.6707328998018,None,371.6707328998018,None,371.6707328998018,None,428.9774229999166,None,,,,,,,,,,,,,,,,,,,,,,,,,,,,,,,,,,,,,,,,,,,,,,,,,,,,,,,,20NB,001,2023_Mar_08_1525,ExactRep-v3-final,2021.2.3,59.941904310574905,
,,,,1,0,1,0,,,,,,,,,,,,,,,,,,,,,,,,,,,,,,,,,,,,,,,,,,,,,,,,,,,,,,,,,433.4815242998302,None,,,,,,,,,,,,,,,,,431.47904429980554,None,,,,,,,,,,,,,,,,,,,,,,,,,,,,,,,,,,,,,,,,,,,,,,,,,,,,,,,,20NB,001,2023_Mar_08_1525,ExactRep-v3-final,2021.2.3,59.941904310574905,
,,,,2,0,2,0,,,,,,,,,,,,,,,,,,,,,,,,,,,,,,,,,,,,,,,,,,,,,,,,,,,,,,,,,435.98397089983337,None,,,,,,,,,,,,,,,,,433.9819858998526,None,,,,,,,,,,,,,,,,,,,,,,,,,,,,,,,,,,,,,,,,,,,,,,,,,,,,,,,,20NB,001,2023_Mar_08_1525,ExactRep-v3-final,2021.2.3,59.941904310574905,
,,,,3,0,3,0,,,,,,,,,,,,,,,,,,,,,,,,,,,,,,,,,,,,,,,,,,,,,,,,,,,,,,,,,438.4864915998187,None,,,,,,,,,,,,,,,,,436.4844992000144,None,,,,,,,,,,,,,,,,,,,,,,,,,,,,,,,,,,,,,,,,,,,,,,,,,,,,,,,,20NB,001,2023_Mar_08_1525,ExactRep-v3-final,2021.2.3,59.941904310574905,
,,,,4,0,4,0,,,,,,,,,,,,,,,,,,,,,,,,,,,,,,,,,,,,,,,,,,,,,,,,,,,,,,,,,440.9889758999925,None,,,,,,,,,,,,,,,,,438.9869722998701,None,,,,,,,,,,,,,,,,,,,,,,,,,,,,,,,,,,,,,,,,,,,,,,,,,,,,,,,,20NB,001,2023_Mar_08_1525,ExactRep-v3-final,2021.2.3,59.941904310574905,
,,,,5,0,5,0,,,,,,,,,,,,,,,,,,,,,,,,,,,,,,,,,,,,,,,,,,,,,,,,,,,,,,,,,443.49129779986106,None,,,,,,,,,,,,,,,,,441.4894585998263,None,,,,,,,,,,,,,,,,,,,,,,,,,,,,,,,,,,,,,,,,,,,,,,,,,,,,,,,,20NB,001,2023_Mar_08_1525,ExactRep-v3-final,2021.2.3,59.941904310574905,
,,,,6,0,6,0,,,,,,,,,,,,,,,,,,,,,,,,,,,,,,,,,,,,,,,,,,,,,,,,,,,,,,,,,445.9940080998931,None,,,,,,,,,,,,,,,,,443.99201009981334,None,,,,,,,,,,,,,,,,,,,,,,,,,,,,,,,,,,,,,,,,,,,,,,,,,,,,,,,,20NB,001,2023_Mar_08_1525,ExactRep-v3-final,2021.2.3,59.941904310574905,
,,,,7,0,7,0,,,,,,,,,,,,,,,,,,,,,,,,,,,,,,,,,,,,,,,,,,,,,,,,,,,,,,,,,448.4962781998329,None,,,,,,,,,,,,,,,,,446.4943019999191,None,,,,,,,,,,,,,,,,,,,,,,,,,,,,,,,,,,,,,,,,,,,,,,,,,,,,,,,,20NB,001,2023_Mar_08_1525,ExactRep-v3-final,2021.2.3,59.941904310574905,
,,,,8,0,8,0,,,,,,,,,,,,,,,,,,,,,,,,,,,,,,,,,,,,,,,,,,,,,,,,,,,,,,,,,450.9989684999455,None,,,,,,,,,,,,,,,,,448.996793899918,None,,,,,,,,,,,,,,,,,,,,,,,,,,,,,,,,,,,,,,,,,,,,,,,,,,,,,,,,20NB,001,2023_Mar_08_1525,ExactRep-v3-final,2021.2.3,59.941904310574905,
,,,,9,0,9,0,,,,,,,,,,,,,,,,,,,,,,,,,,,,,,,,,,,,,,,,,,,,,,,,,,,,,,,,,453.50129839987494,None,,,,,,,,,,,,,,,,,451.4995039999485,None,,,,,,,,,,,,,,,,,,,,,,,,,,,,,,,,,,,,,,,,,,,,,,,,,,,,,,,,20NB,001,2023_Mar_08_1525,ExactRep-v3-final,2021.2.3,59.941904310574905,
,,,,10,0,10,0,,,,,,,,,,,,,,,,,,,,,,,,,,,,,,,,,,,,,,,,,,,,,,,,,,,,,,,,,456.00394569989294,None,,,,,,,,,,,,,,,,,454.00219879997894,None,,,,,,,,,,,,,,,,,,,,,,,,,,,,,,,,,,,,,,,,,,,,,,,,,,,,,,,,20NB,001,2023_Mar_08_1525,ExactRep-v3-final,2021.2.3,59.941904310574905,
,,,,11,0,11,0,,,,,,,,,,,,,,,,,,,,,,,,,,,,,,,,,,,,,,,,,,,,,,,,,,,,,,,,,458.50649729999714,None,,,,,,,,,,,,,,,,,456.504513700027,None,,,,,,,,,,,,,,,,,,,,,,,,,,,,,,,,,,,,,,,,,,,,,,,,,,,,,,,,20NB,001,2023_Mar_08_1525,ExactRep-v3-final,2021.2.3,59.941904310574905,
,,,,12,0,12,0,,,,,,,,,,,,,,,,,,,,,,,,,,,,,,,,,,,,,,,,,,,,,,,,,,,,,,,,,461.00879839994013,None,,,,,,,,,,,,,,,,,459.00704419985414,None,,,,,,,,,,,,,,,,,,,,,,,,,,,,,,,,,,,,,,,,,,,,,,,,,,,,,,,,20NB,001,2023_Mar_08_1525,ExactRep-v3-final,2021.2.3,59.941904310574905,
,,,,13,0,13,0,,,,,,,,,,,,,,,,,,,,,,,,,,,,,,,,,,,,,,,,,,,,,,,,,,,,,,,,,463.51154089998454,None,,,,,,,,,,,,,,,,,461.50961049995385,None,,,,,,,,,,,,,,,,,,,,,,,,,,,,,,,,,,,,,,,,,,,,,,,,,,,,,,,,20NB,001,2023_Mar_08_1525,ExactRep-v3-final,2021.2.3,59.941904310574905,
,,,,14,0,14,0,,,,,,,,,,,,,,,,,,,,,,,,,,,,,,,,,,,,,,,,,,,,,,,,,,,,,,,,,466.01379689993337,None,,,,,,,,,,,,,,,,,464.01221919991076,None,,,,,,,,,,,,,,,,,,,,,,,,,,,,,,,,,,,,,,,,,,,,,,,,,,,,,,,,20NB,001,2023_Mar_08_1525,ExactRep-v3-final,2021.2.3,59.941904310574905,
,,,,,,,,,,,,,,,,,,,,,,,,,,,,,,,,,,,,,,,,,,,,,,,,,,,,,,,,,,,,,,,,,,,,,,,,,,,,,,,,,,,,space,32.56719560013153,476.656815599883,None,,,,,,,,,,,,,,,,,,,,,,,,,,,,,,,,,,,,,,,,,,,,,,,,,,,,20NB,001,2023_Mar_08_1525,ExactRep-v3-final,2021.2.3,59.941904310574905,
,,,,,,,,0,0,0,0,,,,,,,,,,,,,,,,,,,,,,,,,,,,,,,,,,,,,,,,,,,,,,,,,,,,,511.2947241999209,None,,,,,,,,,,,,,,,,,,,,,,,466.6686360000167,None,466.6686360000167,None,466.6686360000167,None,466.6686360000167,None,466.6686360000167,None,466.6686360000167,None,month,14,1,sing,blue,509.2902645999566,None,None,509.2902645999566,None,,,,,,,,,,,,,,,,,,,,,,,,,,,,,,20NB,001,2023_Mar_08_1525,ExactRep-v3-final,2021.2.3,59.941904310574905,
,,,,,,,,1,0,1,0,,,,,,,,,,,,,,,,,,,,,,,,,,,,,,,,,,,,,,,,,,,,,,,,,,,,,513.8117680998985,None,,,,,,,,,,,,,,,,,,,,,,,,,,,,,,,,,,,maiden,95,2,aloud,red,511.8119139999617,None,None,511.8119139999617,None,,,,,,,,,,,,,,,,,,,,,,,,,,,,,,20NB,001,2023_Mar_08_1525,ExactRep-v3-final,2021.2.3,59.941904310574905,
,,,,,,,,2,0,2,0,,,,,,,,,,,,,,,,,,,,,,,,,,,,,,,,,,,,,,,,,,,,,,,,,,,,,516.3310010000132,None,,,,,,,,,,,,,,,,,,,,,,,,,,,,,,,,,,,officer,12,3,sing,blue,514.3201792999171,None,None,514.3201792999171,None,,,,,,,,,,,,,,,,,,,,,,,,,,,,,,20NB,001,2023_Mar_08_1525,ExactRep-v3-final,2021.2.3,59.941904310574905,
,,,,,,,,3,0,3,0,,,,,,,,,,,,,,,,,,,,,,,,,,,,,,,,,,,,,,,,,,,,,,,,,,,,,518.8331535998732,None,,,,,,,,,,,,,,,,,,,,,,,,,,,,,,,,,,,letter,90,4,aloud,red,516.8340759999119,None,None,516.8340759999119,None,,,,,,,,,,,,,,,,,,,,,,,,,,,,,,20NB,001,2023_Mar_08_1525,ExactRep-v3-final,2021.2.3,59.941904310574905,
,,,,,,,,4,0,4,0,,,,,,,,,,,,,,,,,,,,,,,,,,,,,,,,,,,,,,,,,,,,,,,,,,,,,521.3526527998038,None,,,,,,,,,,,,,,,,,,,,,,,,,,,,,,,,,,,window,0,5,sing,blue,519.3383725997992,None,None,519.3383725997992,None,,,,,,,,,,,,,,,,,,,,,,,,,,,,,,20NB,001,2023_Mar_08_1525,ExactRep-v3-final,2021.2.3,59.941904310574905,
,,,,,,,,5,0,5,0,,,,,,,,,,,,,,,,,,,,,,,,,,,,,,,,,,,,,,,,,,,,,,,,,,,,,523.8551870000083,None,,,,,,,,,,,,,,,,,,,,,,,,,,,,,,,,,,,origin,107,6,aloud,red,521.8531210999936,None,None,521.8531210999936,None,,,,,,,,,,,,,,,,,,,,,,,,,,,,,,20NB,001,2023_Mar_08_1525,ExactRep-v3-final,2021.2.3,59.941904310574905,
,,,,,,,,6,0,6,0,,,,,,,,,,,,,,,,,,,,,,,,,,,,,,,,,,,,,,,,,,,,,,,,,,,,,526.35740359989,None,,,,,,,,,,,,,,,,,,,,,,,,,,,,,,,,,,,disease,17,7,sing,blue,524.3563685999252,None,None,524.3563685999252,None,,,,,,,,,,,,,,,,,,,,,,,,,,,,,,20NB,001,2023_Mar_08_1525,ExactRep-v3-final,2021.2.3,59.941904310574905,
,,,,,,,,7,0,7,0,,,,,,,,,,,,,,,,,,,,,,,,,,,,,,,,,,,,,,,,,,,,,,,,,,,,,528.8601388998795,None,,,,,,,,,,,,,,,,,,,,,,,,,,,,,,,,,,,hour,100,8,aloud,red,526.8593944997992,None,None,526.8593944997992,None,,,,,,,,,,,,,,,,,,,,,,,,,,,,,,20NB,001,2023_Mar_08_1525,ExactRep-v3-final,2021.2.3,59.941904310574905,
,,,,,,,,8,0,8,0,,,,,,,,,,,,,,,,,,,,,,,,,,,,,,,,,,,,,,,,,,,,,,,,,,,,,531.3626522999257,None,,,,,,,,,,,,,,,,,,,,,,,,,,,,,,,,,,,time,30,9,sing,blue,529.361373799853,None,None,529.361373799853,None,,,,,,,,,,,,,,,,,,,,,,,,,,,,,,20NB,001,2023_Mar_08_1525,ExactRep-v3-final,2021.2.3,59.941904310574905,
,,,,,,,,9,0,9,0,,,,,,,,,,,,,,,,,,,,,,,,,,,,,,,,,,,,,,,,,,,,,,,,,,,,,533.8651217999868,None,,,,,,,,,,,,,,,,,,,,,,,,,,,,,,,,,,,machine,40,10,silent,white,531.8649867998902,None,None,531.8649867998902,None,,,,,,,,,,,,,,,,,,,,,,,,,,,,,,20NB,001,2023_Mar_08_1525,ExactRep-v3-final,2021.2.3,59.941904310574905,
,,,,,,,,10,0,10,0,,,,,,,,,,,,,,,,,,,,,,,,,,,,,,,,,,,,,,,,,,,,,,,,,,,,,536.3840834000148,None,,,,,,,,,,,,,,,,,,,,,,,,,,,,,,,,,,,woman,76,11,silent,white,534.374317499809,None,None,534.374317499809,None,,,,,,,,,,,,,,,,,,,,,,,,,,,,,,20NB,001,2023_Mar_08_1525,ExactRep-v3-final,2021.2.3,59.941904310574905,
,,,,,,,,11,0,11,0,,,,,,,,,,,,,,,,,,,,,,,,,,,,,,,,,,,,,,,,,,,,,,,,,,,,,538.8868694999255,None,,,,,,,,,,,,,,,,,,,,,,,,,,,,,,,,,,,freedom,91,12,aloud,red,536.8846917999908,None,None,536.8846917999908,None,,,,,,,,,,,,,,,,,,,,,,,,,,,,,,20NB,001,2023_Mar_08_1525,ExactRep-v3-final,2021.2.3,59.941904310574905,
,,,,,,,,12,0,12,0,,,,,,,,,,,,,,,,,,,,,,,,,,,,,,,,,,,,,,,,,,,,,,,,,,,,,541.3893671999685,None,,,,,,,,,,,,,,,,,,,,,,,,,,,,,,,,,,,idea,53,13,silent,white,539.3897545000073,None,None,539.3897545000073,None,,,,,,,,,,,,,,,,,,,,,,,,,,,,,,20NB,001,2023_Mar_08_1525,ExactRep-v3-final,2021.2.3,59.941904310574905,
,,,,,,,,13,0,13,0,,,,,,,,,,,,,,,,,,,,,,,,,,,,,,,,,,,,,,,,,,,,,,,,,,,,,543.9083377998322,None,,,,,,,,,,,,,,,,,,,,,,,,,,,,,,,,,,,engine,72,14,silent,white,541.8930346998386,None,None,541.8930346998386,None,,,,,,,,,,,,,,,,,,,,,,,,,,,,,,20NB,001,2023_Mar_08_1525,ExactRep-v3-final,2021.2.3,59.941904310574905,
,,,,,,,,14,0,14,0,,,,,,,,,,,,,,,,,,,,,,,,,,,,,,,,,,,,,,,,,,,,,,,,,,,,,546.4277357999235,None,,,,,,,,,,,,,,,,,,,,,,,,,,,,,,,,,,,grief,44,15,silent,white,544.4178080998827,None,None,544.4178080998827,None,,,,,,,,,,,,,,,,,,,,,,,,,,,,,,20NB,001,2023_Mar_08_1525,ExactRep-v3-final,2021.2.3,59.941904310574905,
,,,,,,,,15,0,15,0,,,,,,,,,,,,,,,,,,,,,,,,,,,,,,,,,,,,,,,,,,,,,,,,,,,,,548.9302211999893,None,,,,,,,,,,,,,,,,,,,,,,,,,,,,,,,,,,,cabin,47,16,silent,white,546.9294356999453,None,None,546.9294356999453,None,,,,,,,,,,,,,,,,,,,,,,,,,,,,,,20NB,001,2023_Mar_08_1525,ExactRep-v3-final,2021.2.3,59.941904310574905,
,,,,,,,,16,0,16,0,,,,,,,,,,,,,,,,,,,,,,,,,,,,,,,,,,,,,,,,,,,,,,,,,,,,,551.4495071999263,None,,,,,,,,,,,,,,,,,,,,,,,,,,,,,,,,,,,rock,86,17,aloud,red,549.4353261999786,None,None,549.4353261999786,None,,,,,,,,,,,,,,,,,,,,,,,,,,,,,,20NB,001,2023_Mar_08_1525,ExactRep-v3-final,2021.2.3,59.941904310574905,
,,,,,,,,17,0,17,0,,,,,,,,,,,,,,,,,,,,,,,,,,,,,,,,,,,,,,,,,,,,,,,,,,,,,553.951738699805,None,,,,,,,,,,,,,,,,,,,,,,,,,,,,,,,,,,,fur,43,18,silent,white,551.9498882999178,None,None,551.9498882999178,None,,,,,,,,,,,,,,,,,,,,,,,,,,,,,,20NB,001,2023_Mar_08_1525,ExactRep-v3-final,2021.2.3,59.941904310574905,
,,,,,,,,18,0,18,0,,,,,,,,,,,,,,,,,,,,,,,,,,,,,,,,,,,,,,,,,,,,,,,,,,,,,556.4711825000122,None,,,,,,,,,,,,,,,,,,,,,,,,,,,,,,,,,,,spirit,102,19,aloud,red,554.4574934998527,None,None,554.4574934998527,None,,,,,,,,,,,,,,,,,,,,,,,,,,,,,,20NB,001,2023_Mar_08_1525,ExactRep-v3-final,2021.2.3,59.941904310574905,
,,,,,,,,19,0,19,0,,,,,,,,,,,,,,,,,,,,,,,,,,,,,,,,,,,,,,,,,,,,,,,,,,,,,558.9745322999079,None,,,,,,,,,,,,,,,,,,,,,,,,,,,,,,,,,,,green,32,20,sing,blue,556.9727272999007,None,None,556.9727272999007,None,,,,,,,,,,,,,,,,,,,,,,,,,,,,,,20NB,001,2023_Mar_08_1525,ExactRep-v3-final,2021.2.3,59.941904310574905,
,,,,,,,,20,0,20,0,,,,,,,,,,,,,,,,,,,,,,,,,,,,,,,,,,,,,,,,,,,,,,,,,,,,,561.4761427999474,None,,,,,,,,,,,,,,,,,,,,,,,,,,,,,,,,,,,skin,51,21,silent,white,559.4741572998464,None,None,559.4741572998464,None,,,,,,,,,,,,,,,,,,,,,,,,,,,,,,20NB,001,2023_Mar_08_1525,ExactRep-v3-final,2021.2.3,59.941904310574905,
,,,,,,,,21,0,21,0,,,,,,,,,,,,,,,,,,,,,,,,,,,,,,,,,,,,,,,,,,,,,,,,,,,,,563.994952299865,None,,,,,,,,,,,,,,,,,,,,,,,,,,,,,,,,,,,cost,113,22,aloud,red,561.9796484999824,None,None,561.9796484999824,None,,,,,,,,,,,,,,,,,,,,,,,,,,,,,,20NB,001,2023_Mar_08_1525,ExactRep-v3-final,2021.2.3,59.941904310574905,
,,,,,,,,22,0,22,0,,,,,,,,,,,,,,,,,,,,,,,,,,,,,,,,,,,,,,,,,,,,,,,,,,,,,566.514366999967,None,,,,,,,,,,,,,,,,,,,,,,,,,,,,,,,,,,,dress,83,23,aloud,red,564.4990319998469,None,None,564.4990319998469,None,,,,,,,,,,,,,,,,,,,,,,,,,,,,,,20NB,001,2023_Mar_08_1525,ExactRep-v3-final,2021.2.3,59.941904310574905,
,,,,,,,,23,0,23,0,,,,,,,,,,,,,,,,,,,,,,,,,,,,,,,,,,,,,,,,,,,,,,,,,,,,,569.03355990001,None,,,,,,,,,,,,,,,,,,,,,,,,,,,,,,,,,,,river,104,24,aloud,red,567.0196493000258,None,None,567.0196493000258,None,,,,,,,,,,,,,,,,,,,,,,,,,,,,,,20NB,001,2023_Mar_08_1525,ExactRep-v3-final,2021.2.3,59.941904310574905,
,,,,,,,,24,0,24,0,,,,,,,,,,,,,,,,,,,,,,,,,,,,,,,,,,,,,,,,,,,,,,,,,,,,,571.5526507999748,None,,,,,,,,,,,,,,,,,,,,,,,,,,,,,,,,,,,slave,49,25,silent,white,569.5414060999174,None,None,569.5414060999174,None,,,,,,,,,,,,,,,,,,,,,,,,,,,,,,20NB,001,2023_Mar_08_1525,ExactRep-v3-final,2021.2.3,59.941904310574905,
,,,,,,,,25,0,25,0,,,,,,,,,,,,,,,,,,,,,,,,,,,,,,,,,,,,,,,,,,,,,,,,,,,,,574.0553888999857,None,,,,,,,,,,,,,,,,,,,,,,,,,,,,,,,,,,,glory,8,26,sing,blue,572.0532680999022,None,None,572.0532680999022,None,,,,,,,,,,,,,,,,,,,,,,,,,,,,,,20NB,001,2023_Mar_08_1525,ExactRep-v3-final,2021.2.3,59.941904310574905,
,,,,,,,,26,0,26,0,,,,,,,,,,,,,,,,,,,,,,,,,,,,,,,,,,,,,,,,,,,,,,,,,,,,,576.5744336999487,None,,,,,,,,,,,,,,,,,,,,,,,,,,,,,,,,,,,prayer,26,27,sing,blue,574.5589936999604,None,None,574.5589936999604,None,,,,,,,,,,,,,,,,,,,,,,,,,,,,,,20NB,001,2023_Mar_08_1525,ExactRep-v3-final,2021.2.3,59.941904310574905,
,,,,,,,,27,0,27,0,,,,,,,,,,,,,,,,,,,,,,,,,,,,,,,,,,,,,,,,,,,,,,,,,,,,,579.093764099991,None,,,,,,,,,,,,,,,,,,,,,,,,,,,,,,,,,,,wheat,38,28,sing,blue,577.0831054998562,None,None,577.0831054998562,None,,,,,,,,,,,,,,,,,,,,,,,,,,,,,,20NB,001,2023_Mar_08_1525,ExactRep-v3-final,2021.2.3,59.941904310574905,
,,,,,,,,28,0,28,0,,,,,,,,,,,,,,,,,,,,,,,,,,,,,,,,,,,,,,,,,,,,,,,,,,,,,581.6128808998037,None,,,,,,,,,,,,,,,,,,,,,,,,,,,,,,,,,,,fate,82,29,aloud,red,579.6031335999724,None,None,579.6031335999724,None,,,,,,,,,,,,,,,,,,,,,,,,,,,,,,20NB,001,2023_Mar_08_1525,ExactRep-v3-final,2021.2.3,59.941904310574905,
,,,,,,,,29,0,29,0,,,,,,,,,,,,,,,,,,,,,,,,,,,,,,,,,,,,,,,,,,,,,,,,,,,,,584.1321356999688,None,,,,,,,,,,,,,,,,,,,,,,,,,,,,,,,,,,,flesh,5,30,sing,blue,582.1228088999633,None,None,582.1228088999633,None,,,,,,,,,,,,,,,,,,,,,,,,,,,,,,20NB,001,2023_Mar_08_1525,ExactRep-v3-final,2021.2.3,59.941904310574905,
,,,,,,,,30,0,30,0,,,,,,,,,,,,,,,,,,,,,,,,,,,,,,,,,,,,,,,,,,,,,,,,,,,,,586.6346142999828,None,,,,,,,,,,,,,,,,,,,,,,,,,,,,,,,,,,,salary,52,31,silent,white,584.6346584998537,None,None,584.6346584998537,None,,,,,,,,,,,,,,,,,,,,,,,,,,,,,,20NB,001,2023_Mar_08_1525,ExactRep-v3-final,2021.2.3,59.941904310574905,
,,,,,,,,31,0,31,0,,,,,,,,,,,,,,,,,,,,,,,,,,,,,,,,,,,,,,,,,,,,,,,,,,,,,589.1371377999894,None,,,,,,,,,,,,,,,,,,,,,,,,,,,,,,,,,,,ability,67,32,silent,white,587.1378065999597,None,None,587.1378065999597,None,,,,,,,,,,,,,,,,,,,,,,,,,,,,,,20NB,001,2023_Mar_08_1525,ExactRep-v3-final,2021.2.3,59.941904310574905,
,,,,,,,,32,0,32,0,,,,,,,,,,,,,,,,,,,,,,,,,,,,,,,,,,,,,,,,,,,,,,,,,,,,,591.6395756998099,None,,,,,,,,,,,,,,,,,,,,,,,,,,,,,,,,,,,hope,71,33,silent,white,589.6398141998798,None,None,589.6398141998798,None,,,,,,,,,,,,,,,,,,,,,,,,,,,,,,20NB,001,2023_Mar_08_1525,ExactRep-v3-final,2021.2.3,59.941904310574905,
,,,,,,,,33,0,33,0,,,,,,,,,,,,,,,,,,,,,,,,,,,,,,,,,,,,,,,,,,,,,,,,,,,,,594.1588129999582,None,,,,,,,,,,,,,,,,,,,,,,,,,,,,,,,,,,,gold,117,34,aloud,red,592.1447097999044,None,None,592.1447097999044,None,,,,,,,,,,,,,,,,,,,,,,,,,,,,,,20NB,001,2023_Mar_08_1525,ExactRep-v3-final,2021.2.3,59.941904310574905,
,,,,,,,,34,0,34,0,,,,,,,,,,,,,,,,,,,,,,,,,,,,,,,,,,,,,,,,,,,,,,,,,,,,,596.6614278999623,None,,,,,,,,,,,,,,,,,,,,,,,,,,,,,,,,,,,person,78,35,silent,white,594.6616511999164,None,None,594.6616511999164,None,,,,,,,,,,,,,,,,,,,,,,,,,,,,,,20NB,001,2023_Mar_08_1525,ExactRep-v3-final,2021.2.3,59.941904310574905,
,,,,,,,,35,0,35,0,,,,,,,,,,,,,,,,,,,,,,,,,,,,,,,,,,,,,,,,,,,,,,,,,,,,,599.1804879999254,None,,,,,,,,,,,,,,,,,,,,,,,,,,,,,,,,,,,thought,94,36,aloud,red,597.1713591997977,None,None,597.1713591997977,None,,,,,,,,,,,,,,,,,,,,,,,,,,,,,,20NB,001,2023_Mar_08_1525,ExactRep-v3-final,2021.2.3,59.941904310574905,
,,,,,,,,36,0,36,0,,,,,,,,,,,,,,,,,,,,,,,,,,,,,,,,,,,,,,,,,,,,,,,,,,,,,601.683056499809,None,,,,,,,,,,,,,,,,,,,,,,,,,,,,,,,,,,,coin,15,37,sing,blue,599.6822250999976,None,None,599.6822250999976,None,,,,,,,,,,,,,,,,,,,,,,,,,,,,,,20NB,001,2023_Mar_08_1525,ExactRep-v3-final,2021.2.3,59.941904310574905,
,,,,,,,,37,0,37,0,,,,,,,,,,,,,,,,,,,,,,,,,,,,,,,,,,,,,,,,,,,,,,,,,,,,,604.1855132998899,None,,,,,,,,,,,,,,,,,,,,,,,,,,,,,,,,,,,hotel,37,38,sing,blue,602.1850860998966,None,None,602.1850860998966,None,,,,,,,,,,,,,,,,,,,,,,,,,,,,,,20NB,001,2023_Mar_08_1525,ExactRep-v3-final,2021.2.3,59.941904310574905,
,,,,,,,,38,0,38,0,,,,,,,,,,,,,,,,,,,,,,,,,,,,,,,,,,,,,,,,,,,,,,,,,,,,,606.7046590999234,None,,,,,,,,,,,,,,,,,,,,,,,,,,,,,,,,,,,prison,6,39,sing,blue,604.6924160998315,None,None,604.6924160998315,None,,,,,,,,,,,,,,,,,,,,,,,,,,,,,,20NB,001,2023_Mar_08_1525,ExactRep-v3-final,2021.2.3,59.941904310574905,
,,,,,,,,39,0,39,0,,,,,,,,,,,,,,,,,,,,,,,,,,,,,,,,,,,,,,,,,,,,,,,,,,,,,609.2070237000007,None,,,,,,,,,,,,,,,,,,,,,,,,,,,,,,,,,,,mercy,87,40,aloud,red,607.2051752998959,None,None,607.2051752998959,None,,,,,,,,,,,,,,,,,,,,,,,,,,,,,,20NB,001,2023_Mar_08_1525,ExactRep-v3-final,2021.2.3,59.941904310574905,
,,,,,,,,40,0,40,0,,,,,,,,,,,,,,,,,,,,,,,,,,,,,,,,,,,,,,,,,,,,,,,,,,,,,611.7262807998341,None,,,,,,,,,,,,,,,,,,,,,,,,,,,,,,,,,,,air,50,41,silent,white,609.7177418000065,None,None,609.7177418000065,None,,,,,,,,,,,,,,,,,,,,,,,,,,,,,,20NB,001,2023_Mar_08_1525,ExactRep-v3-final,2021.2.3,59.941904310574905,
,,,,,,,,41,0,41,0,,,,,,,,,,,,,,,,,,,,,,,,,,,,,,,,,,,,,,,,,,,,,,,,,,,,,614.2288772999309,None,,,,,,,,,,,,,,,,,,,,,,,,,,,,,,,,,,,troops,116,42,aloud,red,612.2266934998333,None,None,612.2266934998333,None,,,,,,,,,,,,,,,,,,,,,,,,,,,,,,20NB,001,2023_Mar_08_1525,ExactRep-v3-final,2021.2.3,59.941904310574905,
,,,,,,,,42,0,42,0,,,,,,,,,,,,,,,,,,,,,,,,,,,,,,,,,,,,,,,,,,,,,,,,,,,,,616.7312357998453,None,,,,,,,,,,,,,,,,,,,,,,,,,,,,,,,,,,,hall,63,43,silent,white,614.729209800018,None,None,614.729209800018,None,,,,,,,,,,,,,,,,,,,,,,,,,,,,,,20NB,001,2023_Mar_08_1525,ExactRep-v3-final,2021.2.3,59.941904310574905,
,,,,,,,,43,0,43,0,,,,,,,,,,,,,,,,,,,,,,,,,,,,,,,,,,,,,,,,,,,,,,,,,,,,,619.2337088999338,None,,,,,,,,,,,,,,,,,,,,,,,,,,,,,,,,,,,girl,22,44,sing,blue,617.2317433999851,None,None,617.2317433999851,None,,,,,,,,,,,,,,,,,,,,,,,,,,,,,,20NB,001,2023_Mar_08_1525,ExactRep-v3-final,2021.2.3,59.941904310574905,
,,,,,,,,44,0,44,0,,,,,,,,,,,,,,,,,,,,,,,,,,,,,,,,,,,,,,,,,,,,,,,,,,,,,621.7530753000174,None,,,,,,,,,,,,,,,,,,,,,,,,,,,,,,,,,,,virtue,62,45,silent,white,619.747096600011,None,None,619.747096600011,None,,,,,,,,,,,,,,,,,,,,,,,,,,,,,,20NB,001,2023_Mar_08_1525,ExactRep-v3-final,2021.2.3,59.941904310574905,
,,,,,,,,45,0,45,0,,,,,,,,,,,,,,,,,,,,,,,,,,,,,,,,,,,,,,,,,,,,,,,,,,,,,624.255220899824,None,,,,,,,,,,,,,,,,,,,,,,,,,,,,,,,,,,,stone,77,46,silent,white,622.2533786999993,None,None,622.2533786999993,None,,,,,,,,,,,,,,,,,,,,,,,,,,,,,,20NB,001,2023_Mar_08_1525,ExactRep-v3-final,2021.2.3,59.941904310574905,
,,,,,,,,46,0,46,0,,,,,,,,,,,,,,,,,,,,,,,,,,,,,,,,,,,,,,,,,,,,,,,,,,,,,626.7745731999166,None,,,,,,,,,,,,,,,,,,,,,,,,,,,,,,,,,,,teacher,23,47,sing,blue,624.7594153999817,None,None,624.7594153999817,None,,,,,,,,,,,,,,,,,,,,,,,,,,,,,,20NB,001,2023_Mar_08_1525,ExactRep-v3-final,2021.2.3,59.941904310574905,
,,,,,,,,47,0,47,0,,,,,,,,,,,,,,,,,,,,,,,,,,,,,,,,,,,,,,,,,,,,,,,,,,,,,629.2772508999333,None,,,,,,,,,,,,,,,,,,,,,,,,,,,,,,,,,,,pipe,60,48,silent,white,627.2752298000269,None,None,627.2752298000269,None,,,,,,,,,,,,,,,,,,,,,,,,,,,,,,20NB,001,2023_Mar_08_1525,ExactRep-v3-final,2021.2.3,59.941904310574905,
,,,,,,,,48,0,48,0,,,,,,,,,,,,,,,,,,,,,,,,,,,,,,,,,,,,,,,,,,,,,,,,,,,,,631.7797528000083,None,,,,,,,,,,,,,,,,,,,,,,,,,,,,,,,,,,,shame,45,49,silent,white,629.7778040999547,None,None,629.7778040999547,None,,,,,,,,,,,,,,,,,,,,,,,,,,,,,,20NB,001,2023_Mar_08_1525,ExactRep-v3-final,2021.2.3,59.941904310574905,
,,,,,,,,49,0,49,0,,,,,,,,,,,,,,,,,,,,,,,,,,,,,,,,,,,,,,,,,,,,,,,,,,,,,634.2821334998589,None,,,,,,,,,,,,,,,,,,,,,,,,,,,,,,,,,,,mother,29,50,sing,blue,632.2827025998849,None,None,632.2827025998849,None,,,,,,,,,,,,,,,,,,,,,,,,,,,,,,20NB,001,2023_Mar_08_1525,ExactRep-v3-final,2021.2.3,59.941904310574905,
,,,,,,,,50,0,50,0,,,,,,,,,,,,,,,,,,,,,,,,,,,,,,,,,,,,,,,,,,,,,,,,,,,,,636.8014246998355,None,,,,,,,,,,,,,,,,,,,,,,,,,,,,,,,,,,,priest,1,51,sing,blue,634.7894180999137,None,None,634.7894180999137,None,,,,,,,,,,,,,,,,,,,,,,,,,,,,,,20NB,001,2023_Mar_08_1525,ExactRep-v3-final,2021.2.3,59.941904310574905,
,,,,,,,,51,0,51,0,,,,,,,,,,,,,,,,,,,,,,,,,,,,,,,,,,,,,,,,,,,,,,,,,,,,,639.3037462998182,None,,,,,,,,,,,,,,,,,,,,,,,,,,,,,,,,,,,army,66,52,silent,white,637.3017426999286,None,None,637.3017426999286,None,,,,,,,,,,,,,,,,,,,,,,,,,,,,,,20NB,001,2023_Mar_08_1525,ExactRep-v3-final,2021.2.3,59.941904310574905,
,,,,,,,,52,0,52,0,,,,,,,,,,,,,,,,,,,,,,,,,,,,,,,,,,,,,,,,,,,,,,,,,,,,,641.8064498999156,None,,,,,,,,,,,,,,,,,,,,,,,,,,,,,,,,,,,poet,109,53,aloud,red,639.80673439987,None,None,639.80673439987,None,,,,,,,,,,,,,,,,,,,,,,,,,,,,,,20NB,001,2023_Mar_08_1525,ExactRep-v3-final,2021.2.3,59.941904310574905,
,,,,,,,,53,0,53,0,,,,,,,,,,,,,,,,,,,,,,,,,,,,,,,,,,,,,,,,,,,,,,,,,,,,,644.3089796998538,None,,,,,,,,,,,,,,,,,,,,,,,,,,,,,,,,,,,breast,34,54,sing,blue,642.3085286000278,None,None,642.3085286000278,None,,,,,,,,,,,,,,,,,,,,,,,,,,,,,,20NB,001,2023_Mar_08_1525,ExactRep-v3-final,2021.2.3,59.941904310574905,
,,,,,,,,54,0,54,0,,,,,,,,,,,,,,,,,,,,,,,,,,,,,,,,,,,,,,,,,,,,,,,,,,,,,646.8279864999931,None,,,,,,,,,,,,,,,,,,,,,,,,,,,,,,,,,,,party,70,55,silent,white,644.8232167998794,None,None,644.8232167998794,None,,,,,,,,,,,,,,,,,,,,,,,,,,,,,,20NB,001,2023_Mar_08_1525,ExactRep-v3-final,2021.2.3,59.941904310574905,
,,,,,,,,55,0,55,0,,,,,,,,,,,,,,,,,,,,,,,,,,,,,,,,,,,,,,,,,,,,,,,,,,,,,649.3306040999014,None,,,,,,,,,,,,,,,,,,,,,,,,,,,,,,,,,,,moment,79,56,sing,blue,647.3311598999426,None,None,647.3311598999426,None,,,,,,,,,,,,,,,,,,,,,,,,,,,,,,20NB,001,2023_Mar_08_1525,ExactRep-v3-final,2021.2.3,59.941904310574905,
,,,,,,,,56,0,56,0,,,,,,,,,,,,,,,,,,,,,,,,,,,,,,,,,,,,,,,,,,,,,,,,,,,,,651.8331573999021,None,,,,,,,,,,,,,,,,,,,,,,,,,,,,,,,,,,,boulder,99,57,aloud,red,649.8326249998063,None,None,649.8326249998063,None,,,,,,,,,,,,,,,,,,,,,,,,,,,,,,20NB,001,2023_Mar_08_1525,ExactRep-v3-final,2021.2.3,59.941904310574905,
,,,,,,,,57,0,57,0,,,,,,,,,,,,,,,,,,,,,,,,,,,,,,,,,,,,,,,,,,,,,,,,,,,,,654.3522679999005,None,,,,,,,,,,,,,,,,,,,,,,,,,,,,,,,,,,,moral,85,58,aloud,red,652.3367347000167,None,None,652.3367347000167,None,,,,,,,,,,,,,,,,,,,,,,,,,,,,,,20NB,001,2023_Mar_08_1525,ExactRep-v3-final,2021.2.3,59.941904310574905,
,,,,,,,,58,0,58,0,,,,,,,,,,,,,,,,,,,,,,,,,,,,,,,,,,,,,,,,,,,,,,,,,,,,,656.854839499807,None,,,,,,,,,,,,,,,,,,,,,,,,,,,,,,,,,,,dust,69,59,silent,white,654.8527642998379,None,None,654.8527642998379,None,,,,,,,,,,,,,,,,,,,,,,,,,,,,,,20NB,001,2023_Mar_08_1525,ExactRep-v3-final,2021.2.3,59.941904310574905,
,,,,,,,,59,0,59,0,,,,,,,,,,,,,,,,,,,,,,,,,,,,,,,,,,,,,,,,,,,,,,,,,,,,,659.3738829998765,None,,,,,,,,,,,,,,,,,,,,,,,,,,,,,,,,,,,market,21,60,sing,blue,657.3584139999002,None,None,657.3584139999002,None,,,,,,,,,,,,,,,,,,,,,,,,,,,,,,20NB,001,2023_Mar_08_1525,ExactRep-v3-final,2021.2.3,59.941904310574905,
,,,,,,,,60,0,60,0,,,,,,,,,,,,,,,,,,,,,,,,,,,,,,,,,,,,,,,,,,,,,,,,,,,,,661.8764895999338,None,,,,,,,,,,,,,,,,,,,,,,,,,,,,,,,,,,,humour,19,61,sing,blue,659.8744580999482,None,None,659.8744580999482,None,,,,,,,,,,,,,,,,,,,,,,,,,,,,,,20NB,001,2023_Mar_08_1525,ExactRep-v3-final,2021.2.3,59.941904310574905,
,,,,,,,,61,0,61,0,,,,,,,,,,,,,,,,,,,,,,,,,,,,,,,,,,,,,,,,,,,,,,,,,,,,,664.3962087000255,None,,,,,,,,,,,,,,,,,,,,,,,,,,,,,,,,,,,student,16,62,sing,blue,662.3820054999087,None,None,662.3820054999087,None,,,,,,,,,,,,,,,,,,,,,,,,,,,,,,20NB,001,2023_Mar_08_1525,ExactRep-v3-final,2021.2.3,59.941904310574905,
,,,,,,,,62,0,62,0,,,,,,,,,,,,,,,,,,,,,,,,,,,,,,,,,,,,,,,,,,,,,,,,,,,,,666.8981722998433,None,,,,,,,,,,,,,,,,,,,,,,,,,,,,,,,,,,,picture,105,63,aloud,red,664.8962197999936,None,None,664.8962197999936,None,,,,,,,,,,,,,,,,,,,,,,,,,,,,,,20NB,001,2023_Mar_08_1525,ExactRep-v3-final,2021.2.3,59.941904310574905,
,,,,,,,,63,0,63,0,,,,,,,,,,,,,,,,,,,,,,,,,,,,,,,,,,,,,,,,,,,,,,,,,,,,,669.4173979999032,None,,,,,,,,,,,,,,,,,,,,,,,,,,,,,,,,,,,vessel,92,64,aloud,red,667.4026634998154,None,None,667.4026634998154,None,,,,,,,,,,,,,,,,,,,,,,,,,,,,,,20NB,001,2023_Mar_08_1525,ExactRep-v3-final,2021.2.3,59.941904310574905,
,,,,,,,,64,0,64,0,,,,,,,,,,,,,,,,,,,,,,,,,,,,,,,,,,,,,,,,,,,,,,,,,,,,,671.9198504998349,None,,,,,,,,,,,,,,,,,,,,,,,,,,,,,,,,,,,journal,111,65,aloud,red,669.9198395998683,None,None,669.9198395998683,None,,,,,,,,,,,,,,,,,,,,,,,,,,,,,,20NB,001,2023_Mar_08_1525,ExactRep-v3-final,2021.2.3,59.941904310574905,
,,,,,,,,65,0,65,0,,,,,,,,,,,,,,,,,,,,,,,,,,,,,,,,,,,,,,,,,,,,,,,,,,,,,674.4392150000203,None,,,,,,,,,,,,,,,,,,,,,,,,,,,,,,,,,,,cotton,41,66,silent,white,672.4283608999103,None,None,672.4283608999103,None,,,,,,,,,,,,,,,,,,,,,,,,,,,,,,20NB,001,2023_Mar_08_1525,ExactRep-v3-final,2021.2.3,59.941904310574905,
,,,,,,,,66,0,66,0,,,,,,,,,,,,,,,,,,,,,,,,,,,,,,,,,,,,,,,,,,,,,,,,,,,,,676.9580794000067,None,,,,,,,,,,,,,,,,,,,,,,,,,,,,,,,,,,,arm,18,67,sing,blue,674.9427660999354,None,None,674.9427660999354,None,,,,,,,,,,,,,,,,,,,,,,,,,,,,,,20NB,001,2023_Mar_08_1525,ExactRep-v3-final,2021.2.3,59.941904310574905,
,,,,,,,,67,0,67,0,,,,,,,,,,,,,,,,,,,,,,,,,,,,,,,,,,,,,,,,,,,,,,,,,,,,,679.4774789998773,None,,,,,,,,,,,,,,,,,,,,,,,,,,,,,,,,,,,house,112,68,aloud,red,677.4714962998405,None,None,677.4714962998405,None,,,,,,,,,,,,,,,,,,,,,,,,,,,,,,20NB,001,2023_Mar_08_1525,ExactRep-v3-final,2021.2.3,59.941904310574905,
,,,,,,,,68,0,68,0,,,,,,,,,,,,,,,,,,,,,,,,,,,,,,,,,,,,,,,,,,,,,,,,,,,,,681.9965896999929,None,,,,,,,,,,,,,,,,,,,,,,,,,,,,,,,,,,,king,98,69,aloud,red,679.9837487000041,None,None,679.9837487000041,None,,,,,,,,,,,,,,,,,,,,,,,,,,,,,,20NB,001,2023_Mar_08_1525,ExactRep-v3-final,2021.2.3,59.941904310574905,
,,,,,,,,69,0,69,0,,,,,,,,,,,,,,,,,,,,,,,,,,,,,,,,,,,,,,,,,,,,,,,,,,,,,684.5155086999293,None,,,,,,,,,,,,,,,,,,,,,,,,,,,,,,,,,,,fire,35,70,sing,blue,682.5016826000065,None,None,682.5016826000065,None,,,,,,,,,,,,,,,,,,,,,,,,,,,,,,20NB,001,2023_Mar_08_1525,ExactRep-v3-final,2021.2.3,59.941904310574905,
,,,,,,,,70,0,70,0,,,,,,,,,,,,,,,,,,,,,,,,,,,,,,,,,,,,,,,,,,,,,,,,,,,,,687.0182833999861,None,,,,,,,,,,,,,,,,,,,,,,,,,,,,,,,,,,,winter,58,71,silent,white,685.016317699803,None,None,685.016317699803,None,,,,,,,,,,,,,,,,,,,,,,,,,,,,,,20NB,001,2023_Mar_08_1525,ExactRep-v3-final,2021.2.3,59.941904310574905,
,,,,,,,,71,0,71,0,,,,,,,,,,,,,,,,,,,,,,,,,,,,,,,,,,,,,,,,,,,,,,,,,,,,,689.5207942000125,None,,,,,,,,,,,,,,,,,,,,,,,,,,,,,,,,,,,horse,56,72,silent,white,687.5207475000061,None,None,687.5207475000061,None,,,,,,,,,,,,,,,,,,,,,,,,,,,,,,20NB,001,2023_Mar_08_1525,ExactRep-v3-final,2021.2.3,59.941904310574905,
,,,,,,,,72,0,72,0,,,,,,,,,,,,,,,,,,,,,,,,,,,,,,,,,,,,,,,,,,,,,,,,,,,,,692.0234737999272,None,,,,,,,,,,,,,,,,,,,,,,,,,,,,,,,,,,,flag,65,73,silent,white,690.0231084998231,None,None,690.0231084998231,None,,,,,,,,,,,,,,,,,,,,,,,,,,,,,,20NB,001,2023_Mar_08_1525,ExactRep-v3-final,2021.2.3,59.941904310574905,
,,,,,,,,73,0,73,0,,,,,,,,,,,,,,,,,,,,,,,,,,,,,,,,,,,,,,,,,,,,,,,,,,,,,694.525916500017,None,,,,,,,,,,,,,,,,,,,,,,,,,,,,,,,,,,,seat,54,74,silent,white,692.5262014998589,None,None,692.5262014998589,None,,,,,,,,,,,,,,,,,,,,,,,,,,,,,,20NB,001,2023_Mar_08_1525,ExactRep-v3-final,2021.2.3,59.941904310574905,
,,,,,,,,74,0,74,0,,,,,,,,,,,,,,,,,,,,,,,,,,,,,,,,,,,,,,,,,,,,,,,,,,,,,697.0283053999301,None,,,,,,,,,,,,,,,,,,,,,,,,,,,,,,,,,,,church,84,75,aloud,red,695.0279343000147,None,None,695.0279343000147,None,,,,,,,,,,,,,,,,,,,,,,,,,,,,,,20NB,001,2023_Mar_08_1525,ExactRep-v3-final,2021.2.3,59.941904310574905,
,,,,,,,,75,0,75,0,,,,,,,,,,,,,,,,,,,,,,,,,,,,,,,,,,,,,,,,,,,,,,,,,,,,,699.5308212998789,None,,,,,,,,,,,,,,,,,,,,,,,,,,,,,,,,,,,opinion,2,76,sing,blue,697.5301731999498,None,None,697.5301731999498,None,,,,,,,,,,,,,,,,,,,,,,,,,,,,,,20NB,001,2023_Mar_08_1525,ExactRep-v3-final,2021.2.3,59.941904310574905,
,,,,,,,,76,0,76,0,,,,,,,,,,,,,,,,,,,,,,,,,,,,,,,,,,,,,,,,,,,,,,,,,,,,,702.0333046999294,None,,,,,,,,,,,,,,,,,,,,,,,,,,,,,,,,,,,judge,4,77,sing,blue,700.0336297999602,None,None,700.0336297999602,None,,,,,,,,,,,,,,,,,,,,,,,,,,,,,,20NB,001,2023_Mar_08_1525,ExactRep-v3-final,2021.2.3,59.941904310574905,
,,,,,,,,77,0,77,0,,,,,,,,,,,,,,,,,,,,,,,,,,,,,,,,,,,,,,,,,,,,,,,,,,,,,704.5358725998085,None,,,,,,,,,,,,,,,,,,,,,,,,,,,,,,,,,,,charm,73,78,silent,white,702.5354180999566,None,None,702.5354180999566,None,,,,,,,,,,,,,,,,,,,,,,,,,,,,,,20NB,001,2023_Mar_08_1525,ExactRep-v3-final,2021.2.3,59.941904310574905,
,,,,,,,,78,0,78,0,,,,,,,,,,,,,,,,,,,,,,,,,,,,,,,,,,,,,,,,,,,,,,,,,,,,,707.0383427999914,None,,,,,,,,,,,,,,,,,,,,,,,,,,,,,,,,,,,death,61,79,silent,white,705.037929299986,None,None,705.037929299986,None,,,,,,,,,,,,,,,,,,,,,,,,,,,,,,20NB,001,2023_Mar_08_1525,ExactRep-v3-final,2021.2.3,59.941904310574905,
,,,,,,,,79,0,79,0,,,,,,,,,,,,,,,,,,,,,,,,,,,,,,,,,,,,,,,,,,,,,,,,,,,,,709.5408600999508,None,,,,,,,,,,,,,,,,,,,,,,,,,,,,,,,,,,,speech,36,80,sing,blue,707.5408203999978,None,None,707.5408203999978,None,,,,,,,,,,,,,,,,,,,,,,,,,,,,,,20NB,001,2023_Mar_08_1525,ExactRep-v3-final,2021.2.3,59.941904310574905,
,,,,,,,,80,0,80,0,,,,,,,,,,,,,,,,,,,,,,,,,,,,,,,,,,,,,,,,,,,,,,,,,,,,,712.0431666998193,None,,,,,,,,,,,,,,,,,,,,,,,,,,,,,,,,,,,safety,55,81,silent,white,710.0436505000107,None,None,710.0436505000107,None,,,,,,,,,,,,,,,,,,,,,,,,,,,,,,20NB,001,2023_Mar_08_1525,ExactRep-v3-final,2021.2.3,59.941904310574905,
,,,,,,,,81,0,81,0,,,,,,,,,,,,,,,,,,,,,,,,,,,,,,,,,,,,,,,,,,,,,,,,,,,,,714.5459178998135,None,,,,,,,,,,,,,,,,,,,,,,,,,,,,,,,,,,,excuse,20,82,sing,blue,712.54645169992,None,None,712.54645169992,None,,,,,,,,,,,,,,,,,,,,,,,,,,,,,,20NB,001,2023_Mar_08_1525,ExactRep-v3-final,2021.2.3,59.941904310574905,
,,,,,,,,82,0,82,0,,,,,,,,,,,,,,,,,,,,,,,,,,,,,,,,,,,,,,,,,,,,,,,,,,,,,717.0482067000121,None,,,,,,,,,,,,,,,,,,,,,,,,,,,,,,,,,,,volume,80,83,aloud,red,715.0469304998405,None,None,715.0469304998405,None,,,,,,,,,,,,,,,,,,,,,,,,,,,,,,20NB,001,2023_Mar_08_1525,ExactRep-v3-final,2021.2.3,59.941904310574905,
,,,,,,,,83,0,83,0,,,,,,,,,,,,,,,,,,,,,,,,,,,,,,,,,,,,,,,,,,,,,,,,,,,,,719.550959300017,None,,,,,,,,,,,,,,,,,,,,,,,,,,,,,,,,,,,doll,75,84,silent,white,717.5487544999924,None,None,717.5487544999924,None,,,,,,,,,,,,,,,,,,,,,,,,,,,,,,20NB,001,2023_Mar_08_1525,ExactRep-v3-final,2021.2.3,59.941904310574905,
,,,,,,,,84,0,84,0,,,,,,,,,,,,,,,,,,,,,,,,,,,,,,,,,,,,,,,,,,,,,,,,,,,,,722.0534768998623,None,,,,,,,,,,,,,,,,,,,,,,,,,,,,,,,,,,,trouble,11,85,sing,blue,720.0530155999586,None,None,720.0530155999586,None,,,,,,,,,,,,,,,,,,,,,,,,,,,,,,20NB,001,2023_Mar_08_1525,ExactRep-v3-final,2021.2.3,59.941904310574905,
,,,,,,,,85,0,85,0,,,,,,,,,,,,,,,,,,,,,,,,,,,,,,,,,,,,,,,,,,,,,,,,,,,,,724.5725530998316,None,,,,,,,,,,,,,,,,,,,,,,,,,,,,,,,,,,,season,110,86,aloud,red,722.557403099956,None,None,722.557403099956,None,,,,,,,,,,,,,,,,,,,,,,,,,,,,,,20NB,001,2023_Mar_08_1525,ExactRep-v3-final,2021.2.3,59.941904310574905,
,,,,,,,,86,0,86,0,,,,,,,,,,,,,,,,,,,,,,,,,,,,,,,,,,,,,,,,,,,,,,,,,,,,,727.0750269999262,None,,,,,,,,,,,,,,,,,,,,,,,,,,,,,,,,,,,lad,10,87,sing,blue,725.0730723999441,None,None,725.0730723999441,None,,,,,,,,,,,,,,,,,,,,,,,,,,,,,,20NB,001,2023_Mar_08_1525,ExactRep-v3-final,2021.2.3,59.941904310574905,
,,,,,,,,87,0,87,0,,,,,,,,,,,,,,,,,,,,,,,,,,,,,,,,,,,,,,,,,,,,,,,,,,,,,729.59424269991,None,,,,,,,,,,,,,,,,,,,,,,,,,,,,,,,,,,,pupil,114,88,aloud,red,727.5851008999161,None,None,727.5851008999161,None,,,,,,,,,,,,,,,,,,,,,,,,,,,,,,20NB,001,2023_Mar_08_1525,ExactRep-v3-final,2021.2.3,59.941904310574905,
,,,,,,,,88,0,88,0,,,,,,,,,,,,,,,,,,,,,,,,,,,,,,,,,,,,,,,,,,,,,,,,,,,,,732.0968312998302,None,,,,,,,,,,,,,,,,,,,,,,,,,,,,,,,,,,,table,74,89,silent,white,730.0946833998896,None,None,730.0946833998896,None,,,,,,,,,,,,,,,,,,,,,,,,,,,,,,20NB,001,2023_Mar_08_1525,ExactRep-v3-final,2021.2.3,59.941904310574905,
,,,,,,,,89,0,89,0,,,,,,,,,,,,,,,,,,,,,,,,,,,,,,,,,,,,,,,,,,,,,,,,,,,,,734.5990434999112,None,,,,,,,,,,,,,,,,,,,,,,,,,,,,,,,,,,,soil,13,90,sing,blue,732.5970620999578,None,None,732.5970620999578,None,,,,,,,,,,,,,,,,,,,,,,,,,,,,,,20NB,001,2023_Mar_08_1525,ExactRep-v3-final,2021.2.3,59.941904310574905,
,,,,,,,,90,0,90,0,,,,,,,,,,,,,,,,,,,,,,,,,,,,,,,,,,,,,,,,,,,,,,,,,,,,,737.1184357998427,None,,,,,,,,,,,,,,,,,,,,,,,,,,,,,,,,,,,boy,46,91,silent,white,735.1055454998277,None,None,735.1055454998277,None,,,,,,,,,,,,,,,,,,,,,,,,,,,,,,20NB,001,2023_Mar_08_1525,ExactRep-v3-final,2021.2.3,59.941904310574905,
,,,,,,,,91,0,91,0,,,,,,,,,,,,,,,,,,,,,,,,,,,,,,,,,,,,,,,,,,,,,,,,,,,,,739.6209346000105,None,,,,,,,,,,,,,,,,,,,,,,,,,,,,,,,,,,,effort,27,92,sing,blue,737.6212532999925,None,None,737.6212532999925,None,,,,,,,,,,,,,,,,,,,,,,,,,,,,,,20NB,001,2023_Mar_08_1525,ExactRep-v3-final,2021.2.3,59.941904310574905,
,,,,,,,,92,0,92,0,,,,,,,,,,,,,,,,,,,,,,,,,,,,,,,,,,,,,,,,,,,,,,,,,,,,,742.1234044998419,None,,,,,,,,,,,,,,,,,,,,,,,,,,,,,,,,,,,life,97,93,aloud,red,740.124085099902,None,None,740.124085099902,None,,,,,,,,,,,,,,,,,,,,,,,,,,,,,,20NB,001,2023_Mar_08_1525,ExactRep-v3-final,2021.2.3,59.941904310574905,
,,,,,,,,93,0,93,0,,,,,,,,,,,,,,,,,,,,,,,,,,,,,,,,,,,,,,,,,,,,,,,,,,,,,744.6560730999336,None,,,,,,,,,,,,,,,,,,,,,,,,,,,,,,,,,,,product,88,94,aloud,red,742.6307864999399,None,None,742.6307864999399,None,,,,,,,,,,,,,,,,,,,,,,,,,,,,,,20NB,001,2023_Mar_08_1525,ExactRep-v3-final,2021.2.3,59.941904310574905,
,,,,,,,,94,0,94,0,,,,,,,,,,,,,,,,,,,,,,,,,,,,,,,,,,,,,,,,,,,,,,,,,,,,,747.1616626000032,None,,,,,,,,,,,,,,,,,,,,,,,,,,,,,,,,,,,potato,64,95,silent,white,745.1493590997998,None,None,745.1493590997998,None,,,,,,,,,,,,,,,,,,,,,,,,,,,,,,20NB,001,2023_Mar_08_1525,ExactRep-v3-final,2021.2.3,59.941904310574905,
,,,,,,,,95,0,95,0,,,,,,,,,,,,,,,,,,,,,,,,,,,,,,,,,,,,,,,,,,,,,,,,,,,,,749.6643060999922,None,,,,,,,,,,,,,,,,,,,,,,,,,,,,,,,,,,,truth,31,96,sing,blue,747.664497599937,None,None,747.664497599937,None,,,,,,,,,,,,,,,,,,,,,,,,,,,,,,20NB,001,2023_Mar_08_1525,ExactRep-v3-final,2021.2.3,59.941904310574905,
,,,,,,,,96,0,96,0,,,,,,,,,,,,,,,,,,,,,,,,,,,,,,,,,,,,,,,,,,,,,,,,,,,,,752.1834703998175,None,,,,,,,,,,,,,,,,,,,,,,,,,,,,,,,,,,,apple,9,97,sing,blue,750.1692554999609,None,None,750.1692554999609,None,,,,,,,,,,,,,,,,,,,,,,,,,,,,,,20NB,001,2023_Mar_08_1525,ExactRep-v3-final,2021.2.3,59.941904310574905,
,,,,,,,,97,0,97,0,,,,,,,,,,,,,,,,,,,,,,,,,,,,,,,,,,,,,,,,,,,,,,,,,,,,,754.6859633999411,None,,,,,,,,,,,,,,,,,,,,,,,,,,,,,,,,,,,butter,96,98,aloud,red,752.6841429998167,None,None,752.6841429998167,None,,,,,,,,,,,,,,,,,,,,,,,,,,,,,,20NB,001,2023_Mar_08_1525,ExactRep-v3-final,2021.2.3,59.941904310574905,
,,,,,,,,98,0,98,0,,,,,,,,,,,,,,,,,,,,,,,,,,,,,,,,,,,,,,,,,,,,,,,,,,,,,757.1884686998092,None,,,,,,,,,,,,,,,,,,,,,,,,,,,,,,,,,,,shock,3,99,sing,blue,755.1863410999067,None,None,755.1863410999067,None,,,,,,,,,,,,,,,,,,,,,,,,,,,,,,20NB,001,2023_Mar_08_1525,ExactRep-v3-final,2021.2.3,59.941904310574905,
,,,,,,,,99,0,99,0,,,,,,,,,,,,,,,,,,,,,,,,,,,,,,,,,,,,,,,,,,,,,,,,,,,,,759.6909687998705,None,,,,,,,,,,,,,,,,,,,,,,,,,,,,,,,,,,,toy,81,100,aloud,red,757.6907342998311,None,None,757.6907342998311,None,,,,,,,,,,,,,,,,,,,,,,,,,,,,,,20NB,001,2023_Mar_08_1525,ExactRep-v3-final,2021.2.3,59.941904310574905,
,,,,,,,,100,0,100,0,,,,,,,,,,,,,,,,,,,,,,,,,,,,,,,,,,,,,,,,,,,,,,,,,,,,,762.1933875998948,None,,,,,,,,,,,,,,,,,,,,,,,,,,,,,,,,,,,string,118,101,aloud,red,760.1942503999453,None,None,760.1942503999453,None,,,,,,,,,,,,,,,,,,,,,,,,,,,,,,20NB,001,2023_Mar_08_1525,ExactRep-v3-final,2021.2.3,59.941904310574905,
,,,,,,,,101,0,101,0,,,,,,,,,,,,,,,,,,,,,,,,,,,,,,,,,,,,,,,,,,,,,,,,,,,,,764.7123300000094,None,,,,,,,,,,,,,,,,,,,,,,,,,,,,,,,,,,,bottle,48,102,silent,white,762.7015517000109,None,None,762.7015517000109,None,,,,,,,,,,,,,,,,,,,,,,,,,,,,,,20NB,001,2023_Mar_08_1525,ExactRep-v3-final,2021.2.3,59.941904310574905,
,,,,,,,,102,0,102,0,,,,,,,,,,,,,,,,,,,,,,,,,,,,,,,,,,,,,,,,,,,,,,,,,,,,,767.2342926999554,None,,,,,,,,,,,,,,,,,,,,,,,,,,,,,,,,,,,memory,28,103,sing,blue,765.2185670998879,None,None,765.2185670998879,None,,,,,,,,,,,,,,,,,,,,,,,,,,,,,,20NB,001,2023_Mar_08_1525,ExactRep-v3-final,2021.2.3,59.941904310574905,
,,,,,,,,103,0,103,0,,,,,,,,,,,,,,,,,,,,,,,,,,,,,,,,,,,,,,,,,,,,,,,,,,,,,769.7341701998375,None,,,,,,,,,,,,,,,,,,,,,,,,,,,,,,,,,,,storm,57,104,silent,white,767.7322908998467,None,None,767.7322908998467,None,,,,,,,,,,,,,,,,,,,,,,,,,,,,,,20NB,001,2023_Mar_08_1525,ExactRep-v3-final,2021.2.3,59.941904310574905,
,,,,,,,,104,0,104,0,,,,,,,,,,,,,,,,,,,,,,,,,,,,,,,,,,,,,,,,,,,,,,,,,,,,,772.2535573998466,None,,,,,,,,,,,,,,,,,,,,,,,,,,,,,,,,,,,paper,89,105,aloud,red,770.242894699797,None,None,770.242894699797,None,,,,,,,,,,,,,,,,,,,,,,,,,,,,,,20NB,001,2023_Mar_08_1525,ExactRep-v3-final,2021.2.3,59.941904310574905,
,,,,,,,,105,0,105,0,,,,,,,,,,,,,,,,,,,,,,,,,,,,,,,,,,,,,,,,,,,,,,,,,,,,,774.7727861998137,None,,,,,,,,,,,,,,,,,,,,,,,,,,,,,,,,,,,grass,119,106,aloud,red,772.7572432998568,None,None,772.7572432998568,None,,,,,,,,,,,,,,,,,,,,,,,,,,,,,,20NB,001,2023_Mar_08_1525,ExactRep-v3-final,2021.2.3,59.941904310574905,
,,,,,,,,106,0,106,0,,,,,,,,,,,,,,,,,,,,,,,,,,,,,,,,,,,,,,,,,,,,,,,,,,,,,777.2753742998466,None,,,,,,,,,,,,,,,,,,,,,,,,,,,,,,,,,,,flower,103,107,aloud,red,775.2763759000227,None,None,775.2763759000227,None,,,,,,,,,,,,,,,,,,,,,,,,,,,,,,20NB,001,2023_Mar_08_1525,ExactRep-v3-final,2021.2.3,59.941904310574905,
,,,,,,,,107,0,107,0,,,,,,,,,,,,,,,,,,,,,,,,,,,,,,,,,,,,,,,,,,,,,,,,,,,,,779.7942657999229,None,,,,,,,,,,,,,,,,,,,,,,,,,,,,,,,,,,,diamond,106,108,aloud,red,777.7814178999979,None,None,777.7814178999979,None,,,,,,,,,,,,,,,,,,,,,,,,,,,,,,20NB,001,2023_Mar_08_1525,ExactRep-v3-final,2021.2.3,59.941904310574905,
,,,,,,,,108,0,108,0,,,,,,,,,,,,,,,,,,,,,,,,,,,,,,,,,,,,,,,,,,,,,,,,,,,,,782.313581999857,None,,,,,,,,,,,,,,,,,,,,,,,,,,,,,,,,,,,cat,33,109,sing,blue,780.3007231999654,None,None,780.3007231999654,None,,,,,,,,,,,,,,,,,,,,,,,,,,,,,,20NB,001,2023_Mar_08_1525,ExactRep-v3-final,2021.2.3,59.941904310574905,
,,,,,,,,109,0,109,0,,,,,,,,,,,,,,,,,,,,,,,,,,,,,,,,,,,,,,,,,,,,,,,,,,,,,784.8161223998759,None,,,,,,,,,,,,,,,,,,,,,,,,,,,,,,,,,,,method,25,110,sing,blue,782.814107199898,None,None,782.814107199898,None,,,,,,,,,,,,,,,,,,,,,,,,,,,,,,20NB,001,2023_Mar_08_1525,ExactRep-v3-final,2021.2.3,59.941904310574905,
,,,,,,,,110,0,110,0,,,,,,,,,,,,,,,,,,,,,,,,,,,,,,,,,,,,,,,,,,,,,,,,,,,,,787.3189763999544,None,,,,,,,,,,,,,,,,,,,,,,,,,,,,,,,,,,,child,7,111,sing,blue,785.3183045999613,None,None,785.3183045999613,None,,,,,,,,,,,,,,,,,,,,,,,,,,,,,,20NB,001,2023_Mar_08_1525,ExactRep-v3-final,2021.2.3,59.941904310574905,
,,,,,,,,111,0,111,0,,,,,,,,,,,,,,,,,,,,,,,,,,,,,,,,,,,,,,,,,,,,,,,,,,,,,789.8211934999563,None,,,,,,,,,,,,,,,,,,,,,,,,,,,,,,,,,,,answer,24,112,sing,blue,787.8189856000245,None,None,787.8189856000245,None,,,,,,,,,,,,,,,,,,,,,,,,,,,,,,20NB,001,2023_Mar_08_1525,ExactRep-v3-final,2021.2.3,59.941904310574905,
,,,,,,,,112,0,112,0,,,,,,,,,,,,,,,,,,,,,,,,,,,,,,,,,,,,,,,,,,,,,,,,,,,,,792.3402861999348,None,,,,,,,,,,,,,,,,,,,,,,,,,,,,,,,,,,,power,108,113,aloud,red,790.3250880998094,None,None,790.3250880998094,None,,,,,,,,,,,,,,,,,,,,,,,,,,,,,,20NB,001,2023_Mar_08_1525,ExactRep-v3-final,2021.2.3,59.941904310574905,
,,,,,,,,113,0,113,0,,,,,,,,,,,,,,,,,,,,,,,,,,,,,,,,,,,,,,,,,,,,,,,,,,,,,794.8428738999646,None,,,,,,,,,,,,,,,,,,,,,,,,,,,,,,,,,,,rod,93,114,aloud,red,792.8408752998803,None,None,792.8408752998803,None,,,,,,,,,,,,,,,,,,,,,,,,,,,,,,20NB,001,2023_Mar_08_1525,ExactRep-v3-final,2021.2.3,59.941904310574905,
,,,,,,,,114,0,114,0,,,,,,,,,,,,,,,,,,,,,,,,,,,,,,,,,,,,,,,,,,,,,,,,,,,,,797.3620161998551,None,,,,,,,,,,,,,,,,,,,,,,,,,,,,,,,,,,,colony,115,115,aloud,red,795.3529682999942,None,None,795.3529682999942,None,,,,,,,,,,,,,,,,,,,,,,,,,,,,,,20NB,001,2023_Mar_08_1525,ExactRep-v3-final,2021.2.3,59.941904310574905,
,,,,,,,,115,0,115,0,,,,,,,,,,,,,,,,,,,,,,,,,,,,,,,,,,,,,,,,,,,,,,,,,,,,,799.8645948998164,None,,,,,,,,,,,,,,,,,,,,,,,,,,,,,,,,,,,soul,68,116,silent,white,797.8622879998293,None,None,797.8622879998293,None,,,,,,,,,,,,,,,,,,,,,,,,,,,,,,20NB,001,2023_Mar_08_1525,ExactRep-v3-final,2021.2.3,59.941904310574905,
,,,,,,,,116,0,116,0,,,,,,,,,,,,,,,,,,,,,,,,,,,,,,,,,,,,,,,,,,,,,,,,,,,,,802.3842517999001,None,,,,,,,,,,,,,,,,,,,,,,,,,,,,,,,,,,,body,39,117,silent,white,800.3740057998803,None,None,800.3740057998803,None,,,,,,,,,,,,,,,,,,,,,,,,,,,,,,20NB,001,2023_Mar_08_1525,ExactRep-v3-final,2021.2.3,59.941904310574905,
,,,,,,,,117,0,117,0,,,,,,,,,,,,,,,,,,,,,,,,,,,,,,,,,,,,,,,,,,,,,,,,,,,,,804.8860249000136,None,,,,,,,,,,,,,,,,,,,,,,,,,,,,,,,,,,,cattle,101,118,aloud,red,802.8841630998068,None,None,802.8841630998068,None,,,,,,,,,,,,,,,,,,,,,,,,,,,,,,20NB,001,2023_Mar_08_1525,ExactRep-v3-final,2021.2.3,59.941904310574905,
,,,,,,,,118,0,118,0,,,,,,,,,,,,,,,,,,,,,,,,,,,,,,,,,,,,,,,,,,,,,,,,,,,,,807.4051977999043,None,,,,,,,,,,,,,,,,,,,,,,,,,,,,,,,,,,,law,59,119,silent,white,805.3895434997976,None,None,805.3895434997976,None,,,,,,,,,,,,,,,,,,,,,,,,,,,,,,20NB,001,2023_Mar_08_1525,ExactRep-v3-final,2021.2.3,59.941904310574905,
,,,,,,,,119,0,119,0,,,,,,,,,,,,,,,,,,,,,,,,,,,,,,,,,,,,,,,,,,,,,,,,,,,,,809.9245883999392,None,,,,,,,,,,,,,,,,,,,,,,,,,,,,,,,,,,,murder,42,120,silent,white,807.9089343999512,None,None,807.9089343999512,None,,,,,,,,,,,,,,,,,,,,,,,,,,,,,,20NB,001,2023_Mar_08_1525,ExactRep-v3-final,2021.2.3,59.941904310574905,
,,,,,,,,,,,,,,,,,,,,,,,,,,,,,,,,,,,,,,,,,,,,,,,,,,,,,,,,,,,,,,,,,,,,,,,,,,,,,,,,,,,,,,,,,,,,,,,,,,,,,,,,,,,,,,810.4265518998727,None,space,5.037649100180715,820.4029325998854,None,,,,,,,,,,,,,,,,,,,,,,,,20NB,001,2023_Mar_08_1525,ExactRep-v3-final,2021.2.3,59.941904310574905,
,,,,,,,,,,,,,,,,,,,,,,,,,,,,,,,,,,,,,,,,,,,,,,,,,,,,,,,,,,,,,,,,,,,,,,,,,,,,,,,,,,,,,,,,,,,,,,,,,,,,,,,,,,,,,,,,,,,,825.4585956998635,None,space,33.005683599971235,835.4348565000109,None,,,,,,,,,,,,,,,,,,20NB,001,2023_Mar_08_1525,ExactRep-v3-final,2021.2.3,59.941904310574905,
,,,,,,,,,,,,0,0,0,0,,,,,,,,,,,,,,,,,,,,,,,,,,,,,,,,,,,,,,,,,,,,,,,,,874.5056411998812,None,,,,,,,,,,,,,,,,,,,,,,,,,,,,,,,,,,,,,,,,,,,,,,,,,,,,,,,,,troops,116,1,aloud,old,yellow,868.9888131998014,None,y,868.9888131998014,None,"['y', 'return']","[2.6114930999465287, 5.483314400073141]",868.9888131998014,None,,,20NB,001,2023_Mar_08_1525,ExactRep-v3-final,2021.2.3,59.941904310574905,
,,,,,,,,,,,,1,0,1,0,,,,,,,,,,,,,,,,,,,,,,,,,,,,,,,,,,,,,,,,,,,,,,,,,878.7599263999145,None,,,,,,,,,,,,,,,,,,,,,,,,,,,,,,,,,,,,,,,,,,,,,,,,,,,,,,,,,amount,196,2,aloud,new,yellow,875.0162717998028,None,y,875.0162717998028,None,"['y', 'return']","[2.4398726001381874, 3.703896500170231]",875.0162717998028,None,,,20NB,001,2023_Mar_08_1525,ExactRep-v3-final,2021.2.3,59.941904310574905,
,,,,,,,,,,,,2,0,2,0,,,,,,,,,,,,,,,,,,,,,,,,,,,,,,,,,,,,,,,,,,,,,,,,,881.5624761998188,None,,,,,,,,,,,,,,,,,,,,,,,,,,,,,,,,,,,,,,,,,,,,,,,,,,,,,,,,,charm,73,3,silent,old,yellow,879.2680656998418,None,n,879.2680656998418,None,"['n', 'return']","[1.5962506998330355, 2.252057199832052]",879.2680656998418,None,,,20NB,001,2023_Mar_08_1525,ExactRep-v3-final,2021.2.3,59.941904310574905,
,,,,,,,,,,,,3,0,3,0,,,,,,,,,,,,,,,,,,,,,,,,,,,,,,,,,,,,,,,,,,,,,,,,,884.1987136998214,None,,,,,,,,,,,,,,,,,,,,,,,,,,,,,,,,,,,,,,,,,,,,,,,,,,,,,,,,,toy,81,4,aloud,old,yellow,882.0683991999831,None,y,882.0683991999831,None,"['y', 'return']","[1.2998335999436677, 2.083755400031805]",882.0683991999831,None,,,20NB,001,2023_Mar_08_1525,ExactRep-v3-final,2021.2.3,59.941904310574905,
,,,,,,,,,,,,4,0,4,0,,,,,,,,,,,,,,,,,,,,,,,,,,,,,,,,,,,,,,,,,,,,,,,,,886.968143099919,None,,,,,,,,,,,,,,,,,,,,,,,,,,,,,,,,,,,,,,,,,,,,,,,,,,,,,,,,,fun,209,5,sing,new,yellow,884.7061568999197,None,n,884.7061568999197,None,"['n', 'return']","[1.5979329000692815, 2.2299639999400824]",884.7061568999197,None,,,20NB,001,2023_Mar_08_1525,ExactRep-v3-final,2021.2.3,59.941904310574905,
,,,,,,,,,,,,5,0,5,0,,,,,,,,,,,,,,,,,,,,,,,,,,,,,,,,,,,,,,,,,,,,,,,,,889.4705727999099,None,,,,,,,,,,,,,,,,,,,,,,,,,,,,,,,,,,,,,,,,,,,,,,,,,,,,,,,,,slave,49,6,silent,old,yellow,887.4791559998412,None,y,887.4791559998412,None,"['y', 'return']","[1.3290552000980824, 1.9530063001438975]",887.4791559998412,None,,,20NB,001,2023_Mar_08_1525,ExactRep-v3-final,2021.2.3,59.941904310574905,
,,,,,,,,,,,,6,0,6,0,,,,,,,,,,,,,,,,,,,,,,,,,,,,,,,,,,,,,,,,,,,,,,,,,891.8561829000246,None,,,,,,,,,,,,,,,,,,,,,,,,,,,,,,,,,,,,,,,,,,,,,,,,,,,,,,,,,letter,90,7,aloud,old,yellow,889.988714999985,None,y,889.988714999985,None,"['y', 'return']","[1.283585499972105, 1.8274703999049962]",889.988714999985,None,,,20NB,001,2023_Mar_08_1525,ExactRep-v3-final,2021.2.3,59.941904310574905,
,,,,,,,,,,,,7,0,7,0,,,,,,,,,,,,,,,,,,,,,,,,,,,,,,,,,,,,,,,,,,,,,,,,,894.2253183999564,None,,,,,,,,,,,,,,,,,,,,,,,,,,,,,,,,,,,,,,,,,,,,,,,,,,,,,,,,,flower,103,8,aloud,old,yellow,892.3656045999378,None,y,892.3656045999378,None,"['y', 'return']","[1.2665355999488384, 1.8187158999498934]",892.3656045999378,None,,,20NB,001,2023_Mar_08_1525,ExactRep-v3-final,2021.2.3,59.941904310574905,
,,,,,,,,,,,,8,0,8,0,,,,,,,,,,,,,,,,,,,,,,,,,,,,,,,,,,,,,,,,,,,,,,,,,896.4942600999493,None,,,,,,,,,,,,,,,,,,,,,,,,,,,,,,,,,,,,,,,,,,,,,,,,,,,,,,,,,fire,35,9,sing,old,yellow,894.7294564999174,None,y,894.7294564999174,None,"['y', 'return']","[1.1747727000620216, 1.71869540004991]",894.7294564999174,None,,,20NB,001,2023_Mar_08_1525,ExactRep-v3-final,2021.2.3,59.941904310574905,
,,,,,,,,,,,,9,0,9,0,,,,,,,,,,,,,,,,,,,,,,,,,,,,,,,,,,,,,,,,,,,,,,,,,898.7131358999759,None,,,,,,,,,,,,,,,,,,,,,,,,,,,,,,,,,,,,,,,,,,,,,,,,,,,,,,,,,soul,68,10,silent,old,yellow,897.0019100999925,None,y,897.0019100999925,None,"['y', 'return']","[1.134186000097543, 1.6703222999349236]",897.0019100999925,None,,,20NB,001,2023_Mar_08_1525,ExactRep-v3-final,2021.2.3,59.941904310574905,
,,,,,,,,,,,,10,0,10,0,,,,,,,,,,,,,,,,,,,,,,,,,,,,,,,,,,,,,,,,,,,,,,,,,901.5157712998334,None,,,,,,,,,,,,,,,,,,,,,,,,,,,,,,,,,,,,,,,,,,,,,,,,,,,,,,,,,weapon,165,11,sing,new,yellow,899.2211543999147,None,n,899.2211543999147,None,"['n', 'return']","[1.8272669999860227, 2.2509320999961346]",899.2211543999147,None,,,20NB,001,2023_Mar_08_1525,ExactRep-v3-final,2021.2.3,59.941904310574905,
,,,,,,,,,,,,11,0,11,0,,,,,,,,,,,,,,,,,,,,,,,,,,,,,,,,,,,,,,,,,,,,,,,,,903.8349833998363,None,,,,,,,,,,,,,,,,,,,,,,,,,,,,,,,,,,,,,,,,,,,,,,,,,,,,,,,,,money,157,12,silent,new,yellow,902.0251193998847,None,n,902.0251193998847,None,"['n', 'return']","[1.319061900023371, 1.7670092999469489]",902.0251193998847,None,,,20NB,001,2023_Mar_08_1525,ExactRep-v3-final,2021.2.3,59.941904310574905,
,,,,,,,,,,,,12,0,12,0,,,,,,,,,,,,,,,,,,,,,,,,,,,,,,,,,,,,,,,,,,,,,,,,,906.0703179999255,None,,,,,,,,,,,,,,,,,,,,,,,,,,,,,,,,,,,,,,,,,,,,,,,,,,,,,,,,,person,78,13,silent,old,yellow,904.3411522000097,None,y,904.3411522000097,None,"['y', 'return']","[1.2272061000112444, 1.6910727999638766]",904.3411522000097,None,,,20NB,001,2023_Mar_08_1525,ExactRep-v3-final,2021.2.3,59.941904310574905,
,,,,,,,,,,,,13,0,13,0,,,,,,,,,,,,,,,,,,,,,,,,,,,,,,,,,,,,,,,,,,,,,,,,,909.8909936998971,None,,,,,,,,,,,,,,,,,,,,,,,,,,,,,,,,,,,,,,,,,,,,,,,,,,,,,,,,,safety,55,14,silent,old,yellow,906.5774921998382,None,y,906.5774921998382,None,"['y', 'return']","[1.2228301998693496, 3.2787760000210255]",906.5774921998382,None,,,20NB,001,2023_Mar_08_1525,ExactRep-v3-final,2021.2.3,59.941904310574905,
,,,,,,,,,,,,14,0,14,0,,,,,,,,,,,,,,,,,,,,,,,,,,,,,,,,,,,,,,,,,,,,,,,,,912.4435487999581,None,,,,,,,,,,,,,,,,,,,,,,,,,,,,,,,,,,,,,,,,,,,,,,,,,,,,,,,,,wheat,38,15,sing,old,yellow,910.4048716998659,None,y,910.4048716998659,None,"['y', 'return']","[1.4752928998786956, 2.003462600056082]",910.4048716998659,None,,,20NB,001,2023_Mar_08_1525,ExactRep-v3-final,2021.2.3,59.941904310574905,
,,,,,,,,,,,,15,0,15,0,,,,,,,,,,,,,,,,,,,,,,,,,,,,,,,,,,,,,,,,,,,,,,,,,914.7625101997983,None,,,,,,,,,,,,,,,,,,,,,,,,,,,,,,,,,,,,,,,,,,,,,,,,,,,,,,,,,animal,172,16,aloud,new,yellow,912.9602890999522,None,n,912.9602890999522,None,"['n', 'return']","[1.2798162999097258, 1.75998459989205]",912.9602890999522,None,,,20NB,001,2023_Mar_08_1525,ExactRep-v3-final,2021.2.3,59.941904310574905,
,,,,,,,,,,,,16,0,16,0,,,,,,,,,,,,,,,,,,,,,,,,,,,,,,,,,,,,,,,,,,,,,,,,,917.2986093999352,None,,,,,,,,,,,,,,,,,,,,,,,,,,,,,,,,,,,,,,,,,,,,,,,,,,,,,,,,,meeting,222,17,aloud,new,yellow,915.2765762999188,None,y,915.2765762999188,None,"['y', 'return']","[1.3795487999450415, 1.9876054998021573]",915.2765762999188,None,,,20NB,001,2023_Mar_08_1525,ExactRep-v3-final,2021.2.3,59.941904310574905,
,,,,,,,,,,,,17,0,17,0,,,,,,,,,,,,,,,,,,,,,,,,,,,,,,,,,,,,,,,,,,,,,,,,,919.5841063999105,None,,,,,,,,,,,,,,,,,,,,,,,,,,,,,,,,,,,,,,,,,,,,,,,,,,,,,,,,,apple,9,18,sing,old,yellow,917.8088250998408,None,y,917.8088250998408,None,"['y', 'return']","[1.103404900059104, 1.7273549002129585]",917.8088250998408,None,,,20NB,001,2023_Mar_08_1525,ExactRep-v3-final,2021.2.3,59.941904310574905,
,,,,,,,,,,,,18,0,18,0,,,,,,,,,,,,,,,,,,,,,,,,,,,,,,,,,,,,,,,,,,,,,,,,,921.654075599974,None,,,,,,,,,,,,,,,,,,,,,,,,,,,,,,,,,,,,,,,,,,,,,,,,,,,,,,,,,length,202,19,aloud,new,yellow,920.0911512000021,None,n,920.0911512000021,None,"['n', 'return']","[1.0931502000894397, 1.52507199998945]",920.0911512000021,None,,,20NB,001,2023_Mar_08_1525,ExactRep-v3-final,2021.2.3,59.941904310574905,
,,,,,,,,,,,,19,0,19,0,,,,,,,,,,,,,,,,,,,,,,,,,,,,,,,,,,,,,,,,,,,,,,,,,923.7381712999195,None,,,,,,,,,,,,,,,,,,,,,,,,,,,,,,,,,,,,,,,,,,,,,,,,,,,,,,,,,rod,93,20,aloud,old,yellow,922.1605348999146,None,y,922.1605348999146,None,"['y', 'return']","[0.9916964001022279, 1.5436734000686556]",922.1605348999146,None,,,20NB,001,2023_Mar_08_1525,ExactRep-v3-final,2021.2.3,59.941904310574905,
,,,,,,,,,,,,20,0,20,0,,,,,,,,,,,,,,,,,,,,,,,,,,,,,,,,,,,,,,,,,,,,,,,,,925.8738622998353,None,,,,,,,,,,,,,,,,,,,,,,,,,,,,,,,,,,,,,,,,,,,,,,,,,,,,,,,,,clock,185,21,sing,new,yellow,924.2473834999837,None,n,924.2473834999837,None,"['n', 'return']","[1.1450791999232024, 1.584832299966365]",924.2473834999837,None,,,20NB,001,2023_Mar_08_1525,ExactRep-v3-final,2021.2.3,59.941904310574905,
,,,,,,,,,,,,21,0,21,0,,,,,,,,,,,,,,,,,,,,,,,,,,,,,,,,,,,,,,,,,,,,,,,,,928.1761627998203,None,,,,,,,,,,,,,,,,,,,,,,,,,,,,,,,,,,,,,,,,,,,,,,,,,,,,,,,,,journal,111,22,aloud,old,yellow,926.3840457999613,None,y,926.3840457999613,None,"['y', 'return']","[1.2002497999928892, 1.7521659000776708]",926.3840457999613,None,,,20NB,001,2023_Mar_08_1525,ExactRep-v3-final,2021.2.3,59.941904310574905,
,,,,,,,,,,,,22,0,22,0,,,,,,,,,,,,,,,,,,,,,,,,,,,,,,,,,,,,,,,,,,,,,,,,,930.4616213999689,None,,,,,,,,,,,,,,,,,,,,,,,,,,,,,,,,,,,,,,,,,,,,,,,,,,,,,,,,,brain,137,23,silent,new,yellow,928.6856937999837,None,y,928.6856937999837,None,"['y', 'return']","[1.178578699938953, 1.738504300126806]",928.6856937999837,None,,,20NB,001,2023_Mar_08_1525,ExactRep-v3-final,2021.2.3,59.941904310574905,
,,,,,,,,,,,,23,0,23,0,,,,,,,,,,,,,,,,,,,,,,,,,,,,,,,,,,,,,,,,,,,,,,,,,932.8304267998319,None,,,,,,,,,,,,,,,,,,,,,,,,,,,,,,,,,,,,,,,,,,,,,,,,,,,,,,,,,power,108,24,aloud,old,yellow,930.9715579999611,None,y,930.9715579999611,None,"['y', 'return']","[1.2126873000524938, 1.8207016999367625]",930.9715579999611,None,,,20NB,001,2023_Mar_08_1525,ExactRep-v3-final,2021.2.3,59.941904310574905,
,,,,,,,,,,,,24,0,24,0,,,,,,,,,,,,,,,,,,,,,,,,,,,,,,,,,,,,,,,,,,,,,,,,,935.6501617999747,None,,,,,,,,,,,,,,,,,,,,,,,,,,,,,,,,,,,,,,,,,,,,,,,,,,,,,,,,,moment,79,25,sing,old,yellow,933.3387382000219,None,y,933.3387382000219,None,"['y', 'return']","[1.3974737001117319, 2.269479600014165]",933.3387382000219,None,,,20NB,001,2023_Mar_08_1525,ExactRep-v3-final,2021.2.3,59.941904310574905,
,,,,,,,,,,,,25,0,25,0,,,,,,,,,,,,,,,,,,,,,,,,,,,,,,,,,,,,,,,,,,,,,,,,,937.802152399905,None,,,,,,,,,,,,,,,,,,,,,,,,,,,,,,,,,,,,,,,,,,,,,,,,,,,,,,,,,owner,177,26,sing,new,yellow,936.1595887998119,None,n,936.1595887998119,None,"['n', 'return']","[1.1607264000922441, 1.600600800011307]",936.1595887998119,None,,,20NB,001,2023_Mar_08_1525,ExactRep-v3-final,2021.2.3,59.941904310574905,
,,,,,,,,,,,,26,0,26,0,,,,,,,,,,,,,,,,,,,,,,,,,,,,,,,,,,,,,,,,,,,,,,,,,939.9210806000046,None,,,,,,,,,,,,,,,,,,,,,,,,,,,,,,,,,,,,,,,,,,,,,,,,,,,,,,,,,green,32,27,sing,old,yellow,938.3137450998183,None,y,938.3137450998183,None,"['y', 'return']","[1.0463420001324266, 1.5746194999665022]",938.3137450998183,None,,,20NB,001,2023_Mar_08_1525,ExactRep-v3-final,2021.2.3,59.941904310574905,
,,,,,,,,,,,,27,0,27,0,,,,,,,,,,,,,,,,,,,,,,,,,,,,,,,,,,,,,,,,,,,,,,,,,943.6079404999036,None,,,,,,,,,,,,,,,,,,,,,,,,,,,,,,,,,,,,,,,,,,,,,,,,,,,,,,,,,church,84,28,aloud,old,yellow,940.4327246998437,None,y,940.4327246998437,None,"['y', 'return']","[2.3594231999013573, 3.1354557999875396]",940.4327246998437,None,,,20NB,001,2023_Mar_08_1525,ExactRep-v3-final,2021.2.3,59.941904310574905,
,,,,,,,,,,,,28,0,28,0,,,,,,,,,,,,,,,,,,,,,,,,,,,,,,,,,,,,,,,,,,,,,,,,,945.8956484999508,None,,,,,,,,,,,,,,,,,,,,,,,,,,,,,,,,,,,,,,,,,,,,,,,,,,,,,,,,,river,104,29,aloud,old,yellow,944.1184121998958,None,y,944.1184121998958,None,"['y', 'return']","[1.1857535999733955, 1.729655500035733]",944.1184121998958,None,,,20NB,001,2023_Mar_08_1525,ExactRep-v3-final,2021.2.3,59.941904310574905,
,,,,,,,,,,,,29,0,29,0,,,,,,,,,,,,,,,,,,,,,,,,,,,,,,,,,,,,,,,,,,,,,,,,,950.4150117000099,None,,,,,,,,,,,,,,,,,,,,,,,,,,,,,,,,,,,,,,,,,,,,,,,,,,,,,,,,,beast,212,30,aloud,new,yellow,946.4171968998853,None,n,946.4171968998853,None,"['n', 'return']","[3.479140300070867, 3.959064800059423]",946.4171968998853,None,,,20NB,001,2023_Mar_08_1525,ExactRep-v3-final,2021.2.3,59.941904310574905,
,,,,,,,,,,,,30,0,30,0,,,,,,,,,,,,,,,,,,,,,,,,,,,,,,,,,,,,,,,,,,,,,,,,,953.8015806998592,None,,,,,,,,,,,,,,,,,,,,,,,,,,,,,,,,,,,,,,,,,,,,,,,,,,,,,,,,,steam,237,31,sing,new,yellow,950.9226747998036,None,n,950.9226747998036,None,"['n', 'return']","[2.3816400000359863, 2.845564699964598]",950.9226747998036,None,,,20NB,001,2023_Mar_08_1525,ExactRep-v3-final,2021.2.3,59.941904310574905,
,,,,,,,,,,,,31,0,31,0,,,,,,,,,,,,,,,,,,,,,,,,,,,,,,,,,,,,,,,,,,,,,,,,,955.9036548999138,None,,,,,,,,,,,,,,,,,,,,,,,,,,,,,,,,,,,,,,,,,,,,,,,,,,,,,,,,,prison,6,32,sing,old,yellow,954.3100293998141,None,y,954.3100293998141,None,"['y', 'return']","[1.0741674001328647, 1.5541630999650806]",954.3100293998141,None,,,20NB,001,2023_Mar_08_1525,ExactRep-v3-final,2021.2.3,59.941904310574905,
,,,,,,,,,,,,32,0,32,0,,,,,,,,,,,,,,,,,,,,,,,,,,,,,,,,,,,,,,,,,,,,,,,,,958.3894111998379,None,,,,,,,,,,,,,,,,,,,,,,,,,,,,,,,,,,,,,,,,,,,,,,,,,,,,,,,,,speech,36,33,sing,old,yellow,956.412911699852,None,y,956.412911699852,None,"['y', 'return']","[1.3795023001730442, 1.939328000182286]",956.412911699852,None,,,20NB,001,2023_Mar_08_1525,ExactRep-v3-final,2021.2.3,59.941904310574905,
,,,,,,,,,,,,33,0,33,0,,,,,,,,,,,,,,,,,,,,,,,,,,,,,,,,,,,,,,,,,,,,,,,,,961.559308799915,None,,,,,,,,,,,,,,,,,,,,,,,,,,,,,,,,,,,,,,,,,,,,,,,,,,,,,,,,,poet,109,34,aloud,old,yellow,958.8994767998811,None,y,958.8994767998811,None,"['y', 'return']","[1.6926925000734627, 2.6127534999977797]",958.8994767998811,None,,,20NB,001,2023_Mar_08_1525,ExactRep-v3-final,2021.2.3,59.941904310574905,
,,,,,,,,,,,,34,0,34,0,,,,,,,,,,,,,,,,,,,,,,,,,,,,,,,,,,,,,,,,,,,,,,,,,964.2956065998878,None,,,,,,,,,,,,,,,,,,,,,,,,,,,,,,,,,,,,,,,,,,,,,,,,,,,,,,,,,water,132,35,silent,new,yellow,962.0637091000099,None,n,962.0637091000099,None,"['n', 'return']","[1.728750400012359, 2.1925741999875754]",962.0637091000099,None,,,20NB,001,2023_Mar_08_1525,ExactRep-v3-final,2021.2.3,59.941904310574905,
,,,,,,,,,,,,35,0,35,0,,,,,,,,,,,,,,,,,,,,,,,,,,,,,,,,,,,,,,,,,,,,,,,,,966.8479428999126,None,,,,,,,,,,,,,,,,,,,,,,,,,,,,,,,,,,,,,,,,,,,,,,,,,,,,,,,,,disease,17,36,sing,old,yellow,964.809756899951,None,y,964.809756899951,None,"['y', 'return']","[1.3104816998820752, 2.006513600004837]",964.809756899951,None,,,20NB,001,2023_Mar_08_1525,ExactRep-v3-final,2021.2.3,59.941904310574905,
,,,,,,,,,,,,36,0,36,0,,,,,,,,,,,,,,,,,,,,,,,,,,,,,,,,,,,,,,,,,,,,,,,,,969.8676246998366,None,,,,,,,,,,,,,,,,,,,,,,,,,,,,,,,,,,,,,,,,,,,,,,,,,,,,,,,,,cash,179,37,sing,new,yellow,967.3566072999965,None,n,967.3566072999965,None,"['n', 'return']","[1.963618799811229, 2.475706399884075]",967.3566072999965,None,,,20NB,001,2023_Mar_08_1525,ExactRep-v3-final,2021.2.3,59.941904310574905,
,,,,,,,,,,,,37,0,37,0,,,,,,,,,,,,,,,,,,,,,,,,,,,,,,,,,,,,,,,,,,,,,,,,,974.0051030998584,None,,,,,,,,,,,,,,,,,,,,,,,,,,,,,,,,,,,,,,,,,,,,,,,,,,,,,,,,,camp,211,38,sing,new,yellow,970.3750212998129,None,n,970.3750212998129,None,"['n', 'return']","[3.121615500189364, 3.585297100013122]",970.3750212998129,None,,,20NB,001,2023_Mar_08_1525,ExactRep-v3-final,2021.2.3,59.941904310574905,
,,,,,,,,,,,,38,0,38,0,,,,,,,,,,,,,,,,,,,,,,,,,,,,,,,,,,,,,,,,,,,,,,,,,976.5744354999624,None,,,,,,,,,,,,,,,,,,,,,,,,,,,,,,,,,,,,,,,,,,,,,,,,,,,,,,,,,anger,203,39,sing,new,yellow,974.5124152000062,None,n,974.5124152000062,None,"['n', 'return']","[1.4557922999374568, 2.015800599940121]",974.5124152000062,None,,,20NB,001,2023_Mar_08_1525,ExactRep-v3-final,2021.2.3,59.941904310574905,
,,,,,,,,,,,,39,0,39,0,,,,,,,,,,,,,,,,,,,,,,,,,,,,,,,,,,,,,,,,,,,,,,,,,978.9598834998906,None,,,,,,,,,,,,,,,,,,,,,,,,,,,,,,,,,,,,,,,,,,,,,,,,,,,,,,,,,coast,131,40,silent,new,yellow,977.0878041000105,None,y,977.0878041000105,None,"['y', 'return']","[1.2724985000677407, 1.8244880000129342]",977.0878041000105,None,,,20NB,001,2023_Mar_08_1525,ExactRep-v3-final,2021.2.3,59.941904310574905,
,,,,,,,,,,,,40,0,40,0,,,,,,,,,,,,,,,,,,,,,,,,,,,,,,,,,,,,,,,,,,,,,,,,,981.1787560998928,None,,,,,,,,,,,,,,,,,,,,,,,,,,,,,,,,,,,,,,,,,,,,,,,,,,,,,,,,,priest,1,41,sing,old,yellow,979.4723542998545,None,y,979.4723542998545,None,"['y', 'return']","[1.1199047998525202, 1.6641385999973863]",979.4723542998545,None,,,20NB,001,2023_Mar_08_1525,ExactRep-v3-final,2021.2.3,59.941904310574905,
,,,,,,,,,,,,41,0,41,0,,,,,,,,,,,,,,,,,,,,,,,,,,,,,,,,,,,,,,,,,,,,,,,,,983.6480817999691,None,,,,,,,,,,,,,,,,,,,,,,,,,,,,,,,,,,,,,,,,,,,,,,,,,,,,,,,,,breast,34,42,sing,old,yellow,981.6827157998923,None,y,981.6827157998923,None,"['y', 'return']","[1.3734995999839157, 1.9255192999262363]",981.6827157998923,None,,,20NB,001,2023_Mar_08_1525,ExactRep-v3-final,2021.2.3,59.941904310574905,
,,,,,,,,,,,,42,0,42,0,,,,,,,,,,,,,,,,,,,,,,,,,,,,,,,,,,,,,,,,,,,,,,,,,989.971094999928,None,,,,,,,,,,,,,,,,,,,,,,,,,,,,,,,,,,,,,,,,,,,,,,,,,,,,,,,,,world,170,43,aloud,new,yellow,984.1576410999987,None,n,984.1576410999987,None,"['return', 'n', 'return']","[3.7147670998238027, 4.898588999873027, 5.778627299936488]",984.1576410999987,None,,,20NB,001,2023_Mar_08_1525,ExactRep-v3-final,2021.2.3,59.941904310574905,
,,,,,,,,,,,,43,0,43,0,,,,,,,,,,,,,,,,,,,,,,,,,,,,,,,,,,,,,,,,,,,,,,,,,992.4402154998388,None,,,,,,,,,,,,,,,,,,,,,,,,,,,,,,,,,,,,,,,,,,,,,,,,,,,,,,,,,chief,215,44,sing,new,yellow,990.4821501998231,None,y,990.4821501998231,None,"['y', 'return']","[1.2300730999559164, 1.9101989001501352]",990.4821501998231,None,,,20NB,001,2023_Mar_08_1525,ExactRep-v3-final,2021.2.3,59.941904310574905,
,,,,,,,,,,,,44,0,44,0,,,,,,,,,,,,,,,,,,,,,,,,,,,,,,,,,,,,,,,,,,,,,,,,,994.7756886000279,None,,,,,,,,,,,,,,,,,,,,,,,,,,,,,,,,,,,,,,,,,,,,,,,,,,,,,,,,,air,50,45,silent,old,yellow,992.9522381999996,None,y,992.9522381999996,None,"['y', 'return']","[1.1600748000200838, 1.7840312998741865]",992.9522381999996,None,,,20NB,001,2023_Mar_08_1525,ExactRep-v3-final,2021.2.3,59.941904310574905,
,,,,,,,,,,,,45,0,45,0,,,,,,,,,,,,,,,,,,,,,,,,,,,,,,,,,,,,,,,,,,,,,,,,,997.1449066998903,None,,,,,,,,,,,,,,,,,,,,,,,,,,,,,,,,,,,,,,,,,,,,,,,,,,,,,,,,,dollar,171,46,sing,new,yellow,995.2788402999286,None,y,995.2788402999286,None,"['y', 'return']","[1.3053997000679374, 1.8333716001361609]",995.2788402999286,None,,,20NB,001,2023_Mar_08_1525,ExactRep-v3-final,2021.2.3,59.941904310574905,
,,,,,,,,,,,,46,0,46,0,,,,,,,,,,,,,,,,,,,,,,,,,,,,,,,,,,,,,,,,,,,,,,,,,999.4637303999625,None,,,,,,,,,,,,,,,,,,,,,,,,,,,,,,,,,,,,,,,,,,,,,,,,,,,,,,,,,grief,44,47,silent,old,yellow,997.6619299999438,None,y,997.6619299999438,None,"['y', 'return']","[1.2263282001949847, 1.7622523000463843]",997.6619299999438,None,,,20NB,001,2023_Mar_08_1525,ExactRep-v3-final,2021.2.3,59.941904310574905,
,,,,,,,,,,,,47,0,47,0,,,,,,,,,,,,,,,,,,,,,,,,,,,,,,,,,,,,,,,,,,,,,,,,,1002.149951600004,None,,,,,,,,,,,,,,,,,,,,,,,,,,,,,,,,,,,,,,,,,,,,,,,,,,,,,,,,,stone,77,48,silent,old,yellow,999.9706005998887,None,y,999.9706005998887,None,"['y', 'return']","[1.5816204999573529, 2.1416771998628974]",999.9706005998887,None,,,20NB,001,2023_Mar_08_1525,ExactRep-v3-final,2021.2.3,59.941904310574905,
,,,,,,,,,,,,48,0,48,0,,,,,,,,,,,,,,,,,,,,,,,,,,,,,,,,,,,,,,,,,,,,,,,,,1004.5022451998666,None,,,,,,,,,,,,,,,,,,,,,,,,,,,,,,,,,,,,,,,,,,,,,,,,,,,,,,,,,moral,85,49,aloud,old,yellow,1002.6569230000023,None,y,1002.6569230000023,None,"['y', 'return']","[1.287443800130859, 1.8073577999603003]",1002.6569230000023,None,,,20NB,001,2023_Mar_08_1525,ExactRep-v3-final,2021.2.3,59.941904310574905,
,,,,,,,,,,,,49,0,49,0,,,,,,,,,,,,,,,,,,,,,,,,,,,,,,,,,,,,,,,,,,,,,,,,,1007.8556662998162,None,,,,,,,,,,,,,,,,,,,,,,,,,,,,,,,,,,,,,,,,,,,,,,,,,,,,,,,,,ability,67,50,silent,old,yellow,1005.0114537999034,None,y,1005.0114537999034,None,"['y', 'return']","[2.1248836000449955, 2.796842799987644]",1005.0114537999034,None,,,20NB,001,2023_Mar_08_1525,ExactRep-v3-final,2021.2.3,59.941904310574905,
,,,,,,,,,,,,50,0,50,0,,,,,,,,,,,,,,,,,,,,,,,,,,,,,,,,,,,,,,,,,,,,,,,,,1010.0912527998444,None,,,,,,,,,,,,,,,,,,,,,,,,,,,,,,,,,,,,,,,,,,,,,,,,,,,,,,,,,style,148,51,silent,new,yellow,1008.368784399936,None,n,1008.368784399936,None,"['n', 'return']","[1.2157250000163913, 1.6874541998840868]",1008.368784399936,None,,,20NB,001,2023_Mar_08_1525,ExactRep-v3-final,2021.2.3,59.941904310574905,
,,,,,,,,,,,,51,0,51,0,,,,,,,,,,,,,,,,,,,,,,,,,,,,,,,,,,,,,,,,,,,,,,,,,1012.5603282998782,None,,,,,,,,,,,,,,,,,,,,,,,,,,,,,,,,,,,,,,,,,,,,,,,,,,,,,,,,,dawn,183,52,sing,new,yellow,1010.6082454000134,None,n,1010.6082454000134,None,"['n', 'return']","[1.4639866000507027, 1.9200045999605209]",1010.6082454000134,None,,,20NB,001,2023_Mar_08_1525,ExactRep-v3-final,2021.2.3,59.941904310574905,
,,,,,,,,,,,,52,0,52,0,,,,,,,,,,,,,,,,,,,,,,,,,,,,,,,,,,,,,,,,,,,,,,,,,1014.7125438000076,None,,,,,,,,,,,,,,,,,,,,,,,,,,,,,,,,,,,,,,,,,,,,,,,,,,,,,,,,,time,30,53,sing,old,yellow,1013.0691986999009,None,y,1013.0691986999009,None,"['y', 'return']","[1.1233483999967575, 1.6111180000007153]",1013.0691986999009,None,,,20NB,001,2023_Mar_08_1525,ExactRep-v3-final,2021.2.3,59.941904310574905,
,,,,,,,,,,,,53,0,53,0,,,,,,,,,,,,,,,,,,,,,,,,,,,,,,,,,,,,,,,,,,,,,,,,,1018.9166813998017,None,,,,,,,,,,,,,,,,,,,,,,,,,,,,,,,,,,,,,,,,,,,,,,,,,,,,,,,,,lord,142,54,silent,new,yellow,1015.2202975000255,None,y,1015.2202975000255,None,"['y', 'return']","[1.676159800030291, 3.651890499982983]",1015.2202975000255,None,,,20NB,001,2023_Mar_08_1525,ExactRep-v3-final,2021.2.3,59.941904310574905,
,,,,,,,,,,,,54,0,54,0,,,,,,,,,,,,,,,,,,,,,,,,,,,,,,,,,,,,,,,,,,,,,,,,,1021.8530399999581,None,,,,,,,,,,,,,,,,,,,,,,,,,,,,,,,,,,,,,,,,,,,,,,,,,,,,,,,,,party,70,55,silent,old,yellow,1019.4265126998071,None,y,1019.4265126998071,None,"['y', 'return']","[1.9179281999822706, 2.381747300038114]",1019.4265126998071,None,,,20NB,001,2023_Mar_08_1525,ExactRep-v3-final,2021.2.3,59.941904310574905,
,,,,,,,,,,,,55,0,55,0,,,,,,,,,,,,,,,,,,,,,,,,,,,,,,,,,,,,,,,,,,,,,,,,,1024.155421399977,None,,,,,,,,,,,,,,,,,,,,,,,,,,,,,,,,,,,,,,,,,,,,,,,,,,,,,,,,,circle,122,56,silent,new,yellow,1022.3629611998331,None,n,1022.3629611998331,None,"['n', 'return']","[1.2694268999621272, 1.7573486999608576]",1022.3629611998331,None,,,20NB,001,2023_Mar_08_1525,ExactRep-v3-final,2021.2.3,59.941904310574905,
,,,,,,,,,,,,56,0,56,0,,,,,,,,,,,,,,,,,,,,,,,,,,,,,,,,,,,,,,,,,,,,,,,,,1026.6743377998937,None,,,,,,,,,,,,,,,,,,,,,,,,,,,,,,,,,,,,,,,,,,,,,,,,,,,,,,,,,ocean,227,57,sing,new,yellow,1024.662429699907,None,n,1024.662429699907,None,"['n', 'return']","[1.4499005998950452, 1.9778523999266326]",1024.662429699907,None,,,20NB,001,2023_Mar_08_1525,ExactRep-v3-final,2021.2.3,59.941904310574905,
,,,,,,,,,,,,57,0,57,0,,,,,,,,,,,,,,,,,,,,,,,,,,,,,,,,,,,,,,,,,,,,,,,,,1029.060278999852,None,,,,,,,,,,,,,,,,,,,,,,,,,,,,,,,,,,,,,,,,,,,,,,,,,,,,,,,,,mercy,87,58,aloud,old,yellow,1027.183091999963,None,y,1027.183091999963,None,"['y', 'return']","[1.3291987997945398, 1.8412397999782115]",1027.183091999963,None,,,20NB,001,2023_Mar_08_1525,ExactRep-v3-final,2021.2.3,59.941904310574905,
,,,,,,,,,,,,58,0,58,0,,,,,,,,,,,,,,,,,,,,,,,,,,,,,,,,,,,,,,,,,,,,,,,,,1032.0298332998063,None,,,,,,,,,,,,,,,,,,,,,,,,,,,,,,,,,,,,,,,,,,,,,,,,,,,,,,,,,series,233,59,sing,new,yellow,1029.5773587999865,None,n,1029.5773587999865,None,"['n', 'return']","[1.775035599945113, 2.415018199943006]",1029.5773587999865,None,,,20NB,001,2023_Mar_08_1525,ExactRep-v3-final,2021.2.3,59.941904310574905,
,,,,,,,,,,,,59,0,59,0,,,,,,,,,,,,,,,,,,,,,,,,,,,,,,,,,,,,,,,,,,,,,,,,,1037.6018527999986,None,,,,,,,,,,,,,,,,,,,,,,,,,,,,,,,,,,,,,,,,,,,,,,,,,,,,,,,,,lake,195,60,sing,new,yellow,1032.538776599802,None,n,1032.538776599802,None,"['n', 'return']","[4.373482699971646, 5.029449499910697]",1032.538776599802,None,,,20NB,001,2023_Mar_08_1525,ExactRep-v3-final,2021.2.3,59.941904310574905,
,,,,,,,,,,,,60,0,60,0,,,,,,,,,,,,,,,,,,,,,,,,,,,,,,,,,,,,,,,,,,,,,,,,,1040.1713568998966,None,,,,,,,,,,,,,,,,,,,,,,,,,,,,,,,,,,,,,,,,,,,,,,,,,,,,,,,,,glory,8,61,sing,old,yellow,1038.1114143999293,None,y,1038.1114143999293,None,"['y', 'return']","[1.4407949999440461, 2.0168922999873757]",1038.1114143999293,None,,,20NB,001,2023_Mar_08_1525,ExactRep-v3-final,2021.2.3,59.941904310574905,
,,,,,,,,,,,,61,0,61,0,,,,,,,,,,,,,,,,,,,,,,,,,,,,,,,,,,,,,,,,,,,,,,,,,1042.8074874000158,None,,,,,,,,,,,,,,,,,,,,,,,,,,,,,,,,,,,,,,,,,,,,,,,,,,,,,,,,,table,74,62,silent,old,yellow,1040.681319499854,None,y,1040.681319499854,None,"['y', 'return']","[1.3591126999817789, 2.078983899904415]",1040.681319499854,None,,,20NB,001,2023_Mar_08_1525,ExactRep-v3-final,2021.2.3,59.941904310574905,
,,,,,,,,,,,,62,0,62,0,,,,,,,,,,,,,,,,,,,,,,,,,,,,,,,,,,,,,,,,,,,,,,,,,1046.6944558999967,None,,,,,,,,,,,,,,,,,,,,,,,,,,,,,,,,,,,,,,,,,,,,,,,,,,,,,,,,,forest,166,63,aloud,new,yellow,1043.3176680998877,None,y,1043.3176680998877,None,"['y', 'return']","[2.714505200041458, 3.330672400072217]",1043.3176680998877,None,,,20NB,001,2023_Mar_08_1525,ExactRep-v3-final,2021.2.3,59.941904310574905,
,,,,,,,,,,,,63,0,63,0,,,,,,,,,,,,,,,,,,,,,,,,,,,,,,,,,,,,,,,,,,,,,,,,,1049.5305371999275,None,,,,,,,,,,,,,,,,,,,,,,,,,,,,,,,,,,,,,,,,,,,,,,,,,,,,,,,,,picture,105,64,aloud,old,yellow,1047.2059349999763,None,y,1047.2059349999763,None,"['y', 'return']","[1.6905492001678795, 2.290327100083232]",1047.2059349999763,None,,,20NB,001,2023_Mar_08_1525,ExactRep-v3-final,2021.2.3,59.941904310574905,
,,,,,,,,,,,,64,0,64,0,,,,,,,,,,,,,,,,,,,,,,,,,,,,,,,,,,,,,,,,,,,,,,,,,1052.4168264998589,None,,,,,,,,,,,,,,,,,,,,,,,,,,,,,,,,,,,,,,,,,,,,,,,,,,,,,,,,,house,112,65,aloud,old,yellow,1050.0384201998822,None,y,1050.0384201998822,None,"['y', 'return']","[1.4098586000036448, 2.3458761000074446]",1050.0384201998822,None,,,20NB,001,2023_Mar_08_1525,ExactRep-v3-final,2021.2.3,59.941904310574905,
,,,,,,,,,,,,65,0,65,0,,,,,,,,,,,,,,,,,,,,,,,,,,,,,,,,,,,,,,,,,,,,,,,,,1054.8693834999576,None,,,,,,,,,,,,,,,,,,,,,,,,,,,,,,,,,,,,,,,,,,,,,,,,,,,,,,,,,machine,40,66,silent,old,yellow,1052.9237694998737,None,n,1052.9237694998737,None,"['n', 'return']","[1.348519999999553, 1.9084503999911249]",1052.9237694998737,None,,,20NB,001,2023_Mar_08_1525,ExactRep-v3-final,2021.2.3,59.941904310574905,
,,,,,,,,,,,,66,0,66,0,,,,,,,,,,,,,,,,,,,,,,,,,,,,,,,,,,,,,,,,,,,,,,,,,1057.722323199967,None,,,,,,,,,,,,,,,,,,,,,,,,,,,,,,,,,,,,,,,,,,,,,,,,,,,,,,,,,kiss,146,67,silent,new,yellow,1055.377672799863,None,y,1055.377672799863,None,"['y', 'return']","[1.7589716000948101, 2.302671000128612]",1055.377672799863,None,,,20NB,001,2023_Mar_08_1525,ExactRep-v3-final,2021.2.3,59.941904310574905,
,,,,,,,,,,,,67,0,67,0,,,,,,,,,,,,,,,,,,,,,,,,,,,,,,,,,,,,,,,,,,,,,,,,,1060.0244556998368,None,,,,,,,,,,,,,,,,,,,,,,,,,,,,,,,,,,,,,,,,,,,,,,,,,,,,,,,,,engine,72,68,silent,old,yellow,1058.2295458998997,None,n,1058.2295458998997,None,"['n', 'return']","[1.2988106000702828, 1.762794200098142]",1058.2295458998997,None,,,20NB,001,2023_Mar_08_1525,ExactRep-v3-final,2021.2.3,59.941904310574905,
,,,,,,,,,,,,68,0,68,0,,,,,,,,,,,,,,,,,,,,,,,,,,,,,,,,,,,,,,,,,,,,,,,,,1064.879472799832,None,,,,,,,,,,,,,,,,,,,,,,,,,,,,,,,,,,,,,,,,,,,,,,,,,,,,,,,,,winter,58,69,silent,old,yellow,1060.5343534999993,None,y,1060.5343534999993,None,"['y', 'return']","[3.7382404999807477, 4.306030599866062]",1060.5343534999993,None,,,20NB,001,2023_Mar_08_1525,ExactRep-v3-final,2021.2.3,59.941904310574905,
,,,,,,,,,,,,69,0,69,0,,,,,,,,,,,,,,,,,,,,,,,,,,,,,,,,,,,,,,,,,,,,,,,,,1067.482013599947,None,,,,,,,,,,,,,,,,,,,,,,,,,,,,,,,,,,,,,,,,,,,,,,,,,,,,,,,,,dust,69,70,silent,old,yellow,1065.397549299989,None,y,1065.397549299989,None,"['y', 'return']","[1.474783199839294, 2.042662699939683]",1065.397549299989,None,,,20NB,001,2023_Mar_08_1525,ExactRep-v3-final,2021.2.3,59.941904310574905,
,,,,,,,,,,,,70,0,70,0,,,,,,,,,,,,,,,,,,,,,,,,,,,,,,,,,,,,,,,,,,,,,,,,,1072.9875056999736,None,,,,,,,,,,,,,,,,,,,,,,,,,,,,,,,,,,,,,,,,,,,,,,,,,,,,,,,,,fact,121,71,silent,new,yellow,1067.9907821998931,None,n,1067.9907821998931,None,"['n', 'return']","[4.169562799856067, 4.9615102999378]",1067.9907821998931,None,,,20NB,001,2023_Mar_08_1525,ExactRep-v3-final,2021.2.3,59.941904310574905,
,,,,,,,,,,,,71,0,71,0,,,,,,,,,,,,,,,,,,,,,,,,,,,,,,,,,,,,,,,,,,,,,,,,,1076.7245608998928,None,,,,,,,,,,,,,,,,,,,,,,,,,,,,,,,,,,,,,,,,,,,,,,,,,,,,,,,,,flesh,5,72,sing,old,yellow,1073.4968286999501,None,y,1073.4968286999501,None,"['y', 'return']","[2.6474850999657065, 3.1915313999634236]",1073.4968286999501,None,,,20NB,001,2023_Mar_08_1525,ExactRep-v3-final,2021.2.3,59.941904310574905,
,,,,,,,,,,,,72,0,72,0,,,,,,,,,,,,,,,,,,,,,,,,,,,,,,,,,,,,,,,,,,,,,,,,,1078.943392999936,None,,,,,,,,,,,,,,,,,,,,,,,,,,,,,,,,,,,,,,,,,,,,,,,,,,,,,,,,,flag,65,73,silent,old,yellow,1077.2280439999886,None,y,1077.2280439999886,None,"['y', 'return']","[1.100345800165087, 1.6683141000103205]",1077.2280439999886,None,,,20NB,001,2023_Mar_08_1525,ExactRep-v3-final,2021.2.3,59.941904310574905,
,,,,,,,,,,,,73,0,73,0,,,,,,,,,,,,,,,,,,,,,,,,,,,,,,,,,,,,,,,,,,,,,,,,,1081.7295223998372,None,,,,,,,,,,,,,,,,,,,,,,,,,,,,,,,,,,,,,,,,,,,,,,,,,,,,,,,,,custom,213,74,sing,new,yellow,1079.447436099872,None,n,1079.447436099872,None,"['n', 'return']","[1.6808389001525939, 2.240898400079459]",1079.447436099872,None,,,20NB,001,2023_Mar_08_1525,ExactRep-v3-final,2021.2.3,59.941904310574905,
,,,,,,,,,,,,74,0,74,0,,,,,,,,,,,,,,,,,,,,,,,,,,,,,,,,,,,,,,,,,,,,,,,,,1083.9150000999216,None,,,,,,,,,,,,,,,,,,,,,,,,,,,,,,,,,,,,,,,,,,,,,,,,,,,,,,,,,victory,205,75,sing,new,yellow,1082.2407982998993,None,y,1082.2407982998993,None,"['y', 'return']","[1.1355465000960976, 1.639454600168392]",1082.2407982998993,None,,,20NB,001,2023_Mar_08_1525,ExactRep-v3-final,2021.2.3,59.941904310574905,
,,,,,,,,,,,,75,0,75,0,,,,,,,,,,,,,,,,,,,,,,,,,,,,,,,,,,,,,,,,,,,,,,,,,1086.9348360998556,None,,,,,,,,,,,,,,,,,,,,,,,,,,,,,,,,,,,,,,,,,,,,,,,,,,,,,,,,,arm,18,76,sing,old,yellow,1084.4192281998694,None,n,1084.4192281998694,None,"['n', 'return']","[1.533161399886012, 2.4772184998728335]",1084.4192281998694,None,,,20NB,001,2023_Mar_08_1525,ExactRep-v3-final,2021.2.3,59.941904310574905,
,,,,,,,,,,,,76,0,76,0,,,,,,,,,,,,,,,,,,,,,,,,,,,,,,,,,,,,,,,,,,,,,,,,,1089.3203435000032,None,,,,,,,,,,,,,,,,,,,,,,,,,,,,,,,,,,,,,,,,,,,,,,,,,,,,,,,,,dream,178,77,aloud,new,yellow,1087.4354161999654,None,y,1087.4354161999654,None,"['y', 'return']","[1.3568585000466555, 1.8449237002059817]",1087.4354161999654,None,,,20NB,001,2023_Mar_08_1525,ExactRep-v3-final,2021.2.3,59.941904310574905,
,,,,,,,,,,,,77,0,77,0,,,,,,,,,,,,,,,,,,,,,,,,,,,,,,,,,,,,,,,,,,,,,,,,,1091.7729584998451,None,,,,,,,,,,,,,,,,,,,,,,,,,,,,,,,,,,,,,,,,,,,,,,,,,,,,,,,,,insect,168,78,aloud,new,yellow,1089.83018369996,None,n,1089.83018369996,None,"['n', 'return']","[1.3702251999638975, 1.906176800141111]",1089.83018369996,None,,,20NB,001,2023_Mar_08_1525,ExactRep-v3-final,2021.2.3,59.941904310574905,
,,,,,,,,,,,,78,0,78,0,,,,,,,,,,,,,,,,,,,,,,,,,,,,,,,,,,,,,,,,,,,,,,,,,1094.025275999913,None,,,,,,,,,,,,,,,,,,,,,,,,,,,,,,,,,,,,,,,,,,,,,,,,,,,,,,,,,skin,51,79,silent,old,yellow,1092.282046200009,None,y,1092.282046200009,None,"['y', 'return']","[1.2144375999923795, 1.7023912000004202]",1092.282046200009,None,,,20NB,001,2023_Mar_08_1525,ExactRep-v3-final,2021.2.3,59.941904310574905,
,,,,,,,,,,,,79,0,79,0,,,,,,,,,,,,,,,,,,,,,,,,,,,,,,,,,,,,,,,,,,,,,,,,,1099.8811589998659,None,,,,,,,,,,,,,,,,,,,,,,,,,,,,,,,,,,,,,,,,,,,,,,,,,,,,,,,,,death,61,80,silent,old,yellow,1094.5343363999855,None,y,1094.5343363999855,None,"['y', 'return']","[4.738033200148493, 5.314004900166765]",1094.5343363999855,None,,,20NB,001,2023_Mar_08_1525,ExactRep-v3-final,2021.2.3,59.941904310574905,
,,,,,,,,,,,,80,0,80,0,,,,,,,,,,,,,,,,,,,,,,,,,,,,,,,,,,,,,,,,,,,,,,,,,1107.78890519985,None,,,,,,,,,,,,,,,,,,,,,,,,,,,,,,,,,,,,,,,,,,,,,,,,,,,,,,,,,board,145,81,silent,new,yellow,1100.3911468000151,None,y,1100.3911468000151,None,"['y', 'return']","[6.241196000017226, 7.361203799955547]",1100.3911468000151,None,,,20NB,001,2023_Mar_08_1525,ExactRep-v3-final,2021.2.3,59.941904310574905,
,,,,,,,,,,,,81,0,81,0,,,,,,,,,,,,,,,,,,,,,,,,,,,,,,,,,,,,,,,,,,,,,,,,,1111.8429894999135,None,,,,,,,,,,,,,,,,,,,,,,,,,,,,,,,,,,,,,,,,,,,,,,,,,,,,,,,,,ticket,236,82,aloud,new,yellow,1108.3016494999174,None,y,1108.3016494999174,None,"['y', 'return']","[2.938859299989417, 3.506682700011879]",1108.3016494999174,None,,,20NB,001,2023_Mar_08_1525,ExactRep-v3-final,2021.2.3,59.941904310574905,
,,,,,,,,,,,,82,0,82,0,,,,,,,,,,,,,,,,,,,,,,,,,,,,,,,,,,,,,,,,,,,,,,,,,1114.3482875998598,None,,,,,,,,,,,,,,,,,,,,,,,,,,,,,,,,,,,,,,,,,,,,,,,,,,,,,,,,,hide,144,83,silent,new,yellow,1112.3538859998807,None,y,1112.3538859998807,None,"['y', 'return']","[1.1664619999937713, 1.9584266000892967]",1112.3538859998807,None,,,20NB,001,2023_Mar_08_1525,ExactRep-v3-final,2021.2.3,59.941904310574905,
,,,,,,,,,,,,83,0,83,0,,,,,,,,,,,,,,,,,,,,,,,,,,,,,,,,,,,,,,,,,,,,,,,,,1117.398694699863,None,,,,,,,,,,,,,,,,,,,,,,,,,,,,,,,,,,,,,,,,,,,,,,,,,,,,,,,,,passion,228,84,aloud,new,yellow,1114.8697730998974,None,n,1114.8697730998974,None,"['n', 'return']","[1.7225963999517262, 2.4826527000404894]",1114.8697730998974,None,,,20NB,001,2023_Mar_08_1525,ExactRep-v3-final,2021.2.3,59.941904310574905,
,,,,,,,,,,,,84,0,84,0,,,,,,,,,,,,,,,,,,,,,,,,,,,,,,,,,,,,,,,,,,,,,,,,,1119.533995699836,None,,,,,,,,,,,,,,,,,,,,,,,,,,,,,,,,,,,,,,,,,,,,,,,,,,,,,,,,,advice,217,85,sing,new,yellow,1117.9125923998654,None,n,1117.9125923998654,None,"['n', 'return']","[1.1518101000692695, 1.5838391999714077]",1117.9125923998654,None,,,20NB,001,2023_Mar_08_1525,ExactRep-v3-final,2021.2.3,59.941904310574905,
,,,,,,,,,,,,85,0,85,0,,,,,,,,,,,,,,,,,,,,,,,,,,,,,,,,,,,,,,,,,,,,,,,,,1123.8048514998518,None,,,,,,,,,,,,,,,,,,,,,,,,,,,,,,,,,,,,,,,,,,,,,,,,,,,,,,,,,gold,117,86,aloud,old,yellow,1120.0427558999509,None,y,1120.0427558999509,None,"['y', 'return']","[3.213739899918437, 3.7176526999101043]",1120.0427558999509,None,,,20NB,001,2023_Mar_08_1525,ExactRep-v3-final,2021.2.3,59.941904310574905,
,,,,,,,,,,,,86,0,86,0,,,,,,,,,,,,,,,,,,,,,,,,,,,,,,,,,,,,,,,,,,,,,,,,,1127.0082945998292,None,,,,,,,,,,,,,,,,,,,,,,,,,,,,,,,,,,,,,,,,,,,,,,,,,,,,,,,,,quality,156,87,silent,new,yellow,1124.3196180998348,None,n,1124.3196180998348,None,"['n', 'return']","[2.064769000047818, 2.656765499850735]",1124.3196180998348,None,,,20NB,001,2023_Mar_08_1525,ExactRep-v3-final,2021.2.3,59.941904310574905,
,,,,,,,,,,,,87,0,87,0,,,,,,,,,,,,,,,,,,,,,,,,,,,,,,,,,,,,,,,,,,,,,,,,,1129.877744999947,None,,,,,,,,,,,,,,,,,,,,,,,,,,,,,,,,,,,,,,,,,,,,,,,,,,,,,,,,,tool,151,88,silent,new,yellow,1127.5166071997955,None,y,1127.5166071997955,None,"['y', 'return']","[1.6998578000348061, 2.3238170000258833]",1127.5166071997955,None,,,20NB,001,2023_Mar_08_1525,ExactRep-v3-final,2021.2.3,59.941904310574905,
,,,,,,,,,,,,88,0,88,0,,,,,,,,,,,,,,,,,,,,,,,,,,,,,,,,,,,,,,,,,,,,,,,,,1132.2299905000255,None,,,,,,,,,,,,,,,,,,,,,,,,,,,,,,,,,,,,,,,,,,,,,,,,,,,,,,,,,master,238,89,aloud,new,yellow,1130.3875420999248,None,n,1130.3875420999248,None,"['n', 'return']","[1.300857000052929, 1.8048888000193983]",1130.3875420999248,None,,,20NB,001,2023_Mar_08_1525,ExactRep-v3-final,2021.2.3,59.941904310574905,
,,,,,,,,,,,,89,0,89,0,,,,,,,,,,,,,,,,,,,,,,,,,,,,,,,,,,,,,,,,,,,,,,,,,1134.5990389999934,None,,,,,,,,,,,,,,,,,,,,,,,,,,,,,,,,,,,,,,,,,,,,,,,,,,,,,,,,,form,141,90,silent,new,yellow,1132.7358465997968,None,n,1132.7358465997968,None,"['n', 'return']","[1.3365927999839187, 1.8246083001140505]",1132.7358465997968,None,,,20NB,001,2023_Mar_08_1525,ExactRep-v3-final,2021.2.3,59.941904310574905,
,,,,,,,,,,,,90,0,90,0,,,,,,,,,,,,,,,,,,,,,,,,,,,,,,,,,,,,,,,,,,,,,,,,,1136.8679368000012,None,,,,,,,,,,,,,,,,,,,,,,,,,,,,,,,,,,,,,,,,,,,,,,,,,,,,,,,,,cottage,158,91,silent,new,yellow,1135.109024599893,None,n,1135.109024599893,None,"['n', 'return']","[1.2433559999335557, 1.7152785998769104]",1135.109024599893,None,,,20NB,001,2023_Mar_08_1525,ExactRep-v3-final,2021.2.3,59.941904310574905,
,,,,,,,,,,,,91,0,91,0,,,,,,,,,,,,,,,,,,,,,,,,,,,,,,,,,,,,,,,,,,,,,,,,,1139.170342599973,None,,,,,,,,,,,,,,,,,,,,,,,,,,,,,,,,,,,,,,,,,,,,,,,,,,,,,,,,,artist,167,92,sing,new,yellow,1137.3779741998296,None,y,1137.3779741998296,None,"['y', 'return']","[1.206592399859801, 1.7504946999251842]",1137.3779741998296,None,,,20NB,001,2023_Mar_08_1525,ExactRep-v3-final,2021.2.3,59.941904310574905,
,,,,,,,,,,,,92,0,92,0,,,,,,,,,,,,,,,,,,,,,,,,,,,,,,,,,,,,,,,,,,,,,,,,,1146.611058600014,None,,,,,,,,,,,,,,,,,,,,,,,,,,,,,,,,,,,,,,,,,,,,,,,,,,,,,,,,,string,118,93,aloud,old,yellow,1139.6802913998254,None,n,1139.6802913998254,None,"['y', 'backspace', 'n', 'return']","[4.896002799971029, 5.688416099874303, 6.480209100060165, 6.888219099957496]",1139.6802913998254,None,,,20NB,001,2023_Mar_08_1525,ExactRep-v3-final,2021.2.3,59.941904310574905,
,,,,,,,,,,,,93,0,93,0,,,,,,,,,,,,,,,,,,,,,,,,,,,,,,,,,,,,,,,,,,,,,,,,,1149.0803347998299,None,,,,,,,,,,,,,,,,,,,,,,,,,,,,,,,,,,,,,,,,,,,,,,,,,,,,,,,,,plant,125,94,silent,new,yellow,1147.1226158998907,None,n,1147.1226158998907,None,"['n', 'return']","[1.4539700001478195, 1.925834600115195]",1147.1226158998907,None,,,20NB,001,2023_Mar_08_1525,ExactRep-v3-final,2021.2.3,59.941904310574905,
,,,,,,,,,,,,94,0,94,0,,,,,,,,,,,,,,,,,,,,,,,,,,,,,,,,,,,,,,,,,,,,,,,,,1152.1165585999843,None,,,,,,,,,,,,,,,,,,,,,,,,,,,,,,,,,,,,,,,,,,,,,,,,,,,,,,,,,season,110,95,aloud,old,yellow,1149.5860844999552,None,n,1149.5860844999552,None,"['n', 'return']","[1.9583527999930084, 2.48628760012798]",1149.5860844999552,None,,,20NB,001,2023_Mar_08_1525,ExactRep-v3-final,2021.2.3,59.941904310574905,
,,,,,,,,,,,,95,0,95,0,,,,,,,,,,,,,,,,,,,,,,,,,,,,,,,,,,,,,,,,,,,,,,,,,1154.7360086999834,None,,,,,,,,,,,,,,,,,,,,,,,,,,,,,,,,,,,,,,,,,,,,,,,,,,,,,,,,,army,66,96,silent,old,yellow,1152.6202211999334,None,y,1152.6202211999334,None,"['y', 'return']","[1.3561915999744087, 2.068223000038415]",1152.6202211999334,None,,,20NB,001,2023_Mar_08_1525,ExactRep-v3-final,2021.2.3,59.941904310574905,
,,,,,,,,,,,,96,0,96,0,,,,,,,,,,,,,,,,,,,,,,,,,,,,,,,,,,,,,,,,,,,,,,,,,1157.121597299818,None,,,,,,,,,,,,,,,,,,,,,,,,,,,,,,,,,,,,,,,,,,,,,,,,,,,,,,,,,dress,83,97,aloud,old,yellow,1155.2457463999745,None,y,1155.2457463999745,None,"['y', 'return']","[1.33057209989056, 1.8346818999852985]",1155.2457463999745,None,,,20NB,001,2023_Mar_08_1525,ExactRep-v3-final,2021.2.3,59.941904310574905,
,,,,,,,,,,,,97,0,97,0,,,,,,,,,,,,,,,,,,,,,,,,,,,,,,,,,,,,,,,,,,,,,,,,,1159.640768499812,None,,,,,,,,,,,,,,,,,,,,,,,,,,,,,,,,,,,,,,,,,,,,,,,,,,,,,,,,,fault,126,98,silent,new,yellow,1157.631607899908,None,n,1157.631607899908,None,"['n', 'return']","[1.3847896000370383, 1.9769419999793172]",1157.631607899908,None,,,20NB,001,2023_Mar_08_1525,ExactRep-v3-final,2021.2.3,59.941904310574905,
,,,,,,,,,,,,98,0,98,0,,,,,,,,,,,,,,,,,,,,,,,,,,,,,,,,,,,,,,,,,,,,,,,,,1162.0931802999694,None,,,,,,,,,,,,,,,,,,,,,,,,,,,,,,,,,,,,,,,,,,,,,,,,,,,,,,,,,earth,208,99,aloud,new,yellow,1160.147638599854,None,y,1160.147638599854,None,"['y', 'return']","[1.3567757001146674, 1.9088241001591086]",1160.147638599854,None,,,20NB,001,2023_Mar_08_1525,ExactRep-v3-final,2021.2.3,59.941904310574905,
,,,,,,,,,,,,99,0,99,0,,,,,,,,,,,,,,,,,,,,,,,,,,,,,,,,,,,,,,,,,,,,,,,,,1164.3955969999079,None,,,,,,,,,,,,,,,,,,,,,,,,,,,,,,,,,,,,,,,,,,,,,,,,,,,,,,,,,law,59,100,silent,old,yellow,1162.604264299851,None,y,1162.604264299851,None,"['y', 'return']","[1.2441602998878807, 1.7561530999373645]",1162.604264299851,None,,,20NB,001,2023_Mar_08_1525,ExactRep-v3-final,2021.2.3,59.941904310574905,
,,,,,,,,,,,,100,0,100,0,,,,,,,,,,,,,,,,,,,,,,,,,,,,,,,,,,,,,,,,,,,,,,,,,1166.8977789999917,None,,,,,,,,,,,,,,,,,,,,,,,,,,,,,,,,,,,,,,,,,,,,,,,,,,,,,,,,,opinion,2,101,sing,old,yellow,1164.9076465999242,None,y,1164.9076465999242,None,"['y', 'return']","[1.4128705998882651, 1.9488971999380738]",1164.9076465999242,None,,,20NB,001,2023_Mar_08_1525,ExactRep-v3-final,2021.2.3,59.941904310574905,
,,,,,,,,,,,,101,0,101,0,,,,,,,,,,,,,,,,,,,,,,,,,,,,,,,,,,,,,,,,,,,,,,,,,1171.219155699946,None,,,,,,,,,,,,,,,,,,,,,,,,,,,,,,,,,,,,,,,,,,,,,,,,,,,,,,,,,book,220,102,aloud,new,yellow,1167.4068288998678,None,n,1167.4068288998678,None,"['n', 'return']","[3.217600899981335, 3.7697093000169843]",1167.4068288998678,None,,,20NB,001,2023_Mar_08_1525,ExactRep-v3-final,2021.2.3,59.941904310574905,
,,,,,,,,,,,,102,0,102,0,,,,,,,,,,,,,,,,,,,,,,,,,,,,,,,,,,,,,,,,,,,,,,,,,1173.8883904998656,None,,,,,,,,,,,,,,,,,,,,,,,,,,,,,,,,,,,,,,,,,,,,,,,,,,,,,,,,,car,124,103,silent,new,yellow,1171.7276959000155,None,n,1171.7276959000155,None,"['n', 'return']","[1.5527284001000226, 2.128812599927187]",1171.7276959000155,None,,,20NB,001,2023_Mar_08_1525,ExactRep-v3-final,2021.2.3,59.941904310574905,
,,,,,,,,,,,,103,0,103,0,,,,,,,,,,,,,,,,,,,,,,,,,,,,,,,,,,,,,,,,,,,,,,,,,1176.4241539998911,None,,,,,,,,,,,,,,,,,,,,,,,,,,,,,,,,,,,,,,,,,,,,,,,,,,,,,,,,,officer,12,104,sing,old,yellow,1174.396679499885,None,y,1174.396679499885,None,"['y', 'return']","[1.4677481001708657, 1.9796910001896322]",1174.396679499885,None,,,20NB,001,2023_Mar_08_1525,ExactRep-v3-final,2021.2.3,59.941904310574905,
,,,,,,,,,,,,104,0,104,0,,,,,,,,,,,,,,,,,,,,,,,,,,,,,,,,,,,,,,,,,,,,,,,,,1179.111150099896,None,,,,,,,,,,,,,,,,,,,,,,,,,,,,,,,,,,,,,,,,,,,,,,,,,,,,,,,,,college,161,105,sing,new,yellow,1176.9247029998805,None,n,1176.9247029998805,None,"['n', 'return']","[1.595829099882394, 2.1397214999888092]",1176.9247029998805,None,,,20NB,001,2023_Mar_08_1525,ExactRep-v3-final,2021.2.3,59.941904310574905,
,,,,,,,,,,,,105,0,105,0,,,,,,,,,,,,,,,,,,,,,,,,,,,,,,,,,,,,,,,,,,,,,,,,,1181.9628860999364,None,,,,,,,,,,,,,,,,,,,,,,,,,,,,,,,,,,,,,,,,,,,,,,,,,,,,,,,,,duty,210,106,aloud,new,yellow,1179.6208314998075,None,y,1179.6208314998075,None,"['y', 'return']","[1.7398161001037806, 2.299598600016907]",1179.6208314998075,None,,,20NB,001,2023_Mar_08_1525,ExactRep-v3-final,2021.2.3,59.941904310574905,
,,,,,,,,,,,,106,0,106,0,,,,,,,,,,,,,,,,,,,,,,,,,,,,,,,,,,,,,,,,,,,,,,,,,1184.3154270998202,None,,,,,,,,,,,,,,,,,,,,,,,,,,,,,,,,,,,,,,,,,,,,,,,,,,,,,,,,,lad,10,107,sing,old,yellow,1182.4709177999757,None,y,1182.4709177999757,None,"['y', 'return']","[1.3136867999564856, 1.8094607000239193]",1182.4709177999757,None,,,20NB,001,2023_Mar_08_1525,ExactRep-v3-final,2021.2.3,59.941904310574905,
,,,,,,,,,,,,107,0,107,0,,,,,,,,,,,,,,,,,,,,,,,,,,,,,,,,,,,,,,,,,,,,,,,,,1187.0849277998786,None,,,,,,,,,,,,,,,,,,,,,,,,,,,,,,,,,,,,,,,,,,,,,,,,,,,,,,,,,trouble,11,108,sing,old,yellow,1184.8255274000112,None,y,1184.8255274000112,None,"['y', 'return']","[1.2469138999003917, 2.2148694000206888]",1184.8255274000112,None,,,20NB,001,2023_Mar_08_1525,ExactRep-v3-final,2021.2.3,59.941904310574905,
,,,,,,,,,,,,108,0,108,0,,,,,,,,,,,,,,,,,,,,,,,,,,,,,,,,,,,,,,,,,,,,,,,,,1195.0762626000214,None,,,,,,,,,,,,,,,,,,,,,,,,,,,,,,,,,,,,,,,,,,,,,,,,,,,,,,,,,meat,176,109,aloud,new,yellow,1187.595420899801,None,n,1187.595420899801,None,"['n', 'return']","[6.901198300067335, 7.445007700007409]",1187.595420899801,None,,,20NB,001,2023_Mar_08_1525,ExactRep-v3-final,2021.2.3,59.941904310574905,
,,,,,,,,,,,,109,0,109,0,,,,,,,,,,,,,,,,,,,,,,,,,,,,,,,,,,,,,,,,,,,,,,,,,1197.5286414998118,None,,,,,,,,,,,,,,,,,,,,,,,,,,,,,,,,,,,,,,,,,,,,,,,,,,,,,,,,,avenue,216,110,aloud,new,yellow,1195.5852136998437,None,n,1195.5852136998437,None,"['n', 'return']","[1.495167399989441, 1.895221099955961]",1195.5852136998437,None,,,20NB,001,2023_Mar_08_1525,ExactRep-v3-final,2021.2.3,59.941904310574905,
,,,,,,,,,,,,110,0,110,0,,,,,,,,,,,,,,,,,,,,,,,,,,,,,,,,,,,,,,,,,,,,,,,,,1201.4657334999647,None,,,,,,,,,,,,,,,,,,,,,,,,,,,,,,,,,,,,,,,,,,,,,,,,,,,,,,,,,factory,155,111,silent,new,yellow,1198.0366081998218,None,y,1198.0366081998218,None,"['n', 'backspace', 'y', 'return']","[1.4919559000991285, 2.4919879001099616, 2.939853399991989, 3.3958172001875937]",1198.0366081998218,None,,,20NB,001,2023_Mar_08_1525,ExactRep-v3-final,2021.2.3,59.941904310574905,
,,,,,,,,,,,,111,0,111,0,,,,,,,,,,,,,,,,,,,,,,,,,,,,,,,,,,,,,,,,,,,,,,,,,1206.1040572999045,None,,,,,,,,,,,,,,,,,,,,,,,,,,,,,,,,,,,,,,,,,,,,,,,,,,,,,,,,,method,25,112,sing,old,yellow,1201.9742145999335,None,y,1201.9742145999335,None,"['y', 'return']","[3.5063381001818925, 4.090325800003484]",1201.9742145999335,None,,,20NB,001,2023_Mar_08_1525,ExactRep-v3-final,2021.2.3,59.941904310574905,
,,,,,,,,,,,,112,0,112,0,,,,,,,,,,,,,,,,,,,,,,,,,,,,,,,,,,,,,,,,,,,,,,,,,1208.906684699934,None,,,,,,,,,,,,,,,,,,,,,,,,,,,,,,,,,,,,,,,,,,,,,,,,,,,,,,,,,colony,115,113,aloud,old,yellow,1206.6138245998882,None,y,1206.6138245998882,None,"['y', 'return']","[1.7786048999987543, 2.2507205998990685]",1206.6138245998882,None,,,20NB,001,2023_Mar_08_1525,ExactRep-v3-final,2021.2.3,59.941904310574905,
,,,,,,,,,,,,113,0,113,0,,,,,,,,,,,,,,,,,,,,,,,,,,,,,,,,,,,,,,,,,,,,,,,,,1211.4090211999137,None,,,,,,,,,,,,,,,,,,,,,,,,,,,,,,,,,,,,,,,,,,,,,,,,,,,,,,,,,library,174,114,aloud,new,yellow,1209.4194834998343,None,n,1209.4194834998343,None,"['n', 'return']","[1.5009950001258403, 1.9491926000919193]",1209.4194834998343,None,,,20NB,001,2023_Mar_08_1525,ExactRep-v3-final,2021.2.3,59.941904310574905,
,,,,,,,,,,,,114,0,114,0,,,,,,,,,,,,,,,,,,,,,,,,,,,,,,,,,,,,,,,,,,,,,,,,,1213.7446789999958,None,,,,,,,,,,,,,,,,,,,,,,,,,,,,,,,,,,,,,,,,,,,,,,,,,,,,,,,,,freedom,91,115,aloud,old,yellow,1211.918148299912,None,y,1211.918148299912,None,"['y', 'return']","[1.2664483000990003, 1.794353700010106]",1211.918148299912,None,,,20NB,001,2023_Mar_08_1525,ExactRep-v3-final,2021.2.3,59.941904310574905,
,,,,,,,,,,,,115,0,115,0,,,,,,,,,,,,,,,,,,,,,,,,,,,,,,,,,,,,,,,,,,,,,,,,,1217.2150043998845,None,,,,,,,,,,,,,,,,,,,,,,,,,,,,,,,,,,,,,,,,,,,,,,,,,,,,,,,,,chance,234,116,aloud,new,yellow,1214.2559752999805,None,n,1214.2559752999805,None,"['n', 'return']","[2.4804855999536812, 2.9124668000731617]",1214.2559752999805,None,,,20NB,001,2023_Mar_08_1525,ExactRep-v3-final,2021.2.3,59.941904310574905,
,,,,,,,,,,,,116,0,116,0,,,,,,,,,,,,,,,,,,,,,,,,,,,,,,,,,,,,,,,,,,,,,,,,,1231.2456000999082,None,,,,,,,,,,,,,,,,,,,,,,,,,,,,,,,,,,,,,,,,,,,,,,,,,,,,,,,,,temple,133,117,silent,new,yellow,1217.7275458998047,None,y,1217.7275458998047,None,"['y', 'return']","[12.400855500018224, 13.481017699930817]",1217.7275458998047,None,,,20NB,001,2023_Mar_08_1525,ExactRep-v3-final,2021.2.3,59.941904310574905,
,,,,,,,,,,,,117,0,117,0,,,,,,,,,,,,,,,,,,,,,,,,,,,,,,,,,,,,,,,,,,,,,,,,,1234.2152302998584,None,,,,,,,,,,,,,,,,,,,,,,,,,,,,,,,,,,,,,,,,,,,,,,,,,,,,,,,,,doctor,139,118,silent,new,yellow,1231.7557657998987,None,y,1231.7557657998987,None,"['y', 'return']","[1.8769835999701172, 2.4127064999192953]",1231.7557657998987,None,,,20NB,001,2023_Mar_08_1525,ExactRep-v3-final,2021.2.3,59.941904310574905,
,,,,,,,,,,,,118,0,118,0,,,,,,,,,,,,,,,,,,,,,,,,,,,,,,,,,,,,,,,,,,,,,,,,,1236.8346135998145,None,,,,,,,,,,,,,,,,,,,,,,,,,,,,,,,,,,,,,,,,,,,,,,,,,,,,,,,,,flood,193,119,sing,new,yellow,1234.7244218999986,None,n,1234.7244218999986,None,"['n', 'return']","[1.484085900010541, 2.0760611998848617]",1234.7244218999986,None,,,20NB,001,2023_Mar_08_1525,ExactRep-v3-final,2021.2.3,59.941904310574905,
,,,,,,,,,,,,119,0,119,0,,,,,,,,,,,,,,,,,,,,,,,,,,,,,,,,,,,,,,,,,,,,,,,,,1239.7375926999375,None,,,,,,,,,,,,,,,,,,,,,,,,,,,,,,,,,,,,,,,,,,,,,,,,,,,,,,,,,teacher,23,120,sing,old,yellow,1237.3350461998489,None,n,1237.3350461998489,None,"['n', 'return']","[1.40150439995341, 2.3617257999721915]",1237.3350461998489,None,,,20NB,001,2023_Mar_08_1525,ExactRep-v3-final,2021.2.3,59.941904310574905,
,,,,,,,,,,,,120,0,120,0,,,,,,,,,,,,,,,,,,,,,,,,,,,,,,,,,,,,,,,,,,,,,,,,,1256.704490999924,None,,,,,,,,,,,,,,,,,,,,,,,,,,,,,,,,,,,,,,,,,,,,,,,,,,,,,,,,,girl,22,121,sing,old,yellow,1240.2462639999576,None,y,1240.2462639999576,None,"['y', 'return']","[15.770285099977627, 16.41047969995998]",1240.2462639999576,None,,,20NB,001,2023_Mar_08_1525,ExactRep-v3-final,2021.2.3,59.941904310574905,
,,,,,,,,,,,,121,0,121,0,,,,,,,,,,,,,,,,,,,,,,,,,,,,,,,,,,,,,,,,,,,,,,,,,1259.8242450000253,None,,,,,,,,,,,,,,,,,,,,,,,,,,,,,,,,,,,,,,,,,,,,,,,,,,,,,,,,,effort,27,122,sing,old,yellow,1257.214295499958,None,y,1257.214295499958,None,"['y', 'return']","[1.322280399966985, 2.570248199859634]",1257.214295499958,None,,,20NB,001,2023_Mar_08_1525,ExactRep-v3-final,2021.2.3,59.941904310574905,
,,,,,,,,,,,,122,0,122,0,,,,,,,,,,,,,,,,,,,,,,,,,,,,,,,,,,,,,,,,,,,,,,,,,1263.8950197999366,None,,,,,,,,,,,,,,,,,,,,,,,,,,,,,,,,,,,,,,,,,,,,,,,,,,,,,,,,,volume,80,123,aloud,old,yellow,1260.3343230998144,None,y,1260.3343230998144,None,"['y', 'return']","[2.8821834998670965, 3.522239899961278]",1260.3343230998144,None,,,20NB,001,2023_Mar_08_1525,ExactRep-v3-final,2021.2.3,59.941904310574905,
,,,,,,,,,,,,123,0,123,0,,,,,,,,,,,,,,,,,,,,,,,,,,,,,,,,,,,,,,,,,,,,,,,,,1266.6310659998562,None,,,,,,,,,,,,,,,,,,,,,,,,,,,,,,,,,,,,,,,,,,,,,,,,,,,,,,,,,paper,89,124,aloud,old,yellow,1264.4074734000023,None,n,1264.4074734000023,None,"['n', 'return']","[1.6090204999782145, 2.177043099887669]",1264.4074734000023,None,,,20NB,001,2023_Mar_08_1525,ExactRep-v3-final,2021.2.3,59.941904310574905,
,,,,,,,,,,,,124,0,124,0,,,,,,,,,,,,,,,,,,,,,,,,,,,,,,,,,,,,,,,,,,,,,,,,,1269.1002175998874,None,,,,,,,,,,,,,,,,,,,,,,,,,,,,,,,,,,,,,,,,,,,,,,,,,,,,,,,,,body,39,125,silent,old,yellow,1267.1459697999526,None,n,1267.1459697999526,None,"['n', 'return']","[1.3426020999904722, 1.9185935000423342]",1267.1459697999526,None,,,20NB,001,2023_Mar_08_1525,ExactRep-v3-final,2021.2.3,59.941904310574905,
,,,,,,,,,,,,125,0,125,0,,,,,,,,,,,,,,,,,,,,,,,,,,,,,,,,,,,,,,,,,,,,,,,,,1272.0698748999275,None,,,,,,,,,,,,,,,,,,,,,,,,,,,,,,,,,,,,,,,,,,,,,,,,,,,,,,,,,diamond,106,126,aloud,old,yellow,1269.6098309999797,None,y,1269.6098309999797,None,"['y', 'return']","[1.9026947000529617, 2.4147400001529604]",1269.6098309999797,None,,,20NB,001,2023_Mar_08_1525,ExactRep-v3-final,2021.2.3,59.941904310574905,
,,,,,,,,,,,,126,0,126,0,,,,,,,,,,,,,,,,,,,,,,,,,,,,,,,,,,,,,,,,,,,,,,,,,1274.272053499939,None,,,,,,,,,,,,,,,,,,,,,,,,,,,,,,,,,,,,,,,,,,,,,,,,,,,,,,,,,event,219,127,sing,new,yellow,1272.5787310998421,None,n,1272.5787310998421,None,"['n', 'return']","[1.197949199937284, 1.6618643999099731]",1272.5787310998421,None,,,20NB,001,2023_Mar_08_1525,ExactRep-v3-final,2021.2.3,59.941904310574905,
,,,,,,,,,,,,127,0,127,0,,,,,,,,,,,,,,,,,,,,,,,,,,,,,,,,,,,,,,,,,,,,,,,,,1276.82442119997,None,,,,,,,,,,,,,,,,,,,,,,,,,,,,,,,,,,,,,,,,,,,,,,,,,,,,,,,,,star,206,128,aloud,new,yellow,1274.7807198998053,None,n,1274.7807198998053,None,"['n', 'return']","[1.235788900172338, 1.9958468000404537]",1274.7807198998053,None,,,20NB,001,2023_Mar_08_1525,ExactRep-v3-final,2021.2.3,59.941904310574905,
,,,,,,,,,,,,128,0,128,0,,,,,,,,,,,,,,,,,,,,,,,,,,,,,,,,,,,,,,,,,,,,,,,,,1284.6657932999078,None,,,,,,,,,,,,,,,,,,,,,,,,,,,,,,,,,,,,,,,,,,,,,,,,,,,,,,,,,vision,130,129,silent,new,yellow,1277.3398796999827,None,y,1277.3398796999827,None,"['y', 'return']","[6.036645699990913, 7.284614000003785]",1277.3398796999827,None,,,20NB,001,2023_Mar_08_1525,ExactRep-v3-final,2021.2.3,59.941904310574905,
,,,,,,,,,,,,129,0,129,0,,,,,,,,,,,,,,,,,,,,,,,,,,,,,,,,,,,,,,,,,,,,,,,,,1288.8199247999582,None,,,,,,,,,,,,,,,,,,,,,,,,,,,,,,,,,,,,,,,,,,,,,,,,,,,,,,,,,deed,229,130,sing,new,yellow,1285.1746224998496,None,n,1285.1746224998496,None,"['n', 'return']","[3.1219115999992937, 3.610089800087735]",1285.1746224998496,None,,,20NB,001,2023_Mar_08_1525,ExactRep-v3-final,2021.2.3,59.941904310574905,
