trials_fam.thisRepN,trials_fam.thisTrialN,trials_fam.thisN,trials_fam.thisIndex,trials_prc.thisRepN,trials_prc.thisTrialN,trials_prc.thisN,trials_prc.thisIndex,StudyLoop.thisRepN,StudyLoop.thisTrialN,StudyLoop.thisN,StudyLoop.thisIndex,TestLoop.thisRepN,TestLoop.thisTrialN,TestLoop.thisN,TestLoop.thisIndex,text_colortest.started,text_colortest.stopped,key_colortest.keys,key_colortest.rt,key_colortest.started,key_colortest.stopped,textCondition.started,textCondition.stopped,keyCondition.keys,keyCondition.rt,keyCondition.started,keyCondition.stopped,Condition_between,Condition_counterbal,keyWelcome.keys,keyWelcome.rt,keyWelcome.started,keyWelcome.stopped,welcome_a.started,welcome_a.stopped,welcome_b.started,welcome_b.stopped,welcome_c.started,welcome_c.stopped,welcome_d.started,welcome_d.stopped,welcome_e.started,welcome_e.stopped,welcome_f.started,welcome_f.stopped,key_resp_fam_inst.keys,key_resp_fam_inst.rt,key_resp_fam_inst.started,key_resp_fam_inst.stopped,fam_a.started,fam_a.stopped,fam_b.started,fam_b.stopped,fam_c.started,fam_c.stopped,fam_d.started,fam_d.stopped,fam_e.started,fam_e.stopped,fam_f.started,fam_f.stopped,text_famil.started,text_famil.stopped,textBlank500.started,textBlank500.stopped,key_resp_prc_inst.keys,key_resp_prc_inst.rt,key_resp_prc_inst.started,key_resp_prc_inst.stopped,prac_a.started,prac_a.stopped,prac_b.started,prac_b.stopped,prac_c.started,prac_c.stopped,prac_d.started,prac_d.stopped,prac_e.started,prac_e.stopped,prac_f.started,prac_f.stopped,text_prc_trial.started,text_prc_trial.stopped,key_resp_study_inst.keys,key_resp_study_inst.rt,key_resp_study_inst.started,key_resp_study_inst.stopped,crit_a.started,crit_a.stopped,crit_b.started,crit_b.stopped,crit_c.started,crit_c.stopped,crit_d.started,crit_d.stopped,crit_e.started,crit_e.stopped,crit_f.started,crit_f.stopped,study_word,study_num,study_order,study_type,word_color,textStudy.started,textStudy.stopped,keyStudy.keys,keyStudy.started,keyStudy.stopped,post_study.started,post_study.stopped,key_resp_post_study.keys,key_resp_post_study.rt,key_resp_post_study.started,key_resp_post_study.stopped,test_inst.started,test_inst.stopped,key_resp_test_inst.keys,key_resp_test_inst.rt,key_resp_test_inst.started,key_resp_test_inst.stopped,test_word,test_num,test_order,test_condition,old_new_test,word_color_test,textConf.started,textConf.stopped,Participant Response,textInput.started,textInput.stopped,keyResp.keys,keyResp.rt,keyResp.started,keyResp.stopped,textEnd.started,textEnd.stopped,participant,session,date,expName,psychopyVersion,frameRate,
,,,,,,,,,,,,,,,,8561.029620200163,None,n,2.6163618999999017,8561.029620200163,None,,,,,,,,,,,,,,,,,,,,,,,,,,,,,,,,,,,,,,,,,,,,,,,,,,,,,,,,,,,,,,,,,,,,,,,,,,,,,,,,,,,,,,,,,,,,,,,,,,,,,,,,,,,,,,,,,,,,,,21NC,001,2023_Mar_08_1819,ExactRep-v3-final,2021.2.3,59.993544757176934,
,,,,,,,,,,,,,,,,,,,,,,8563.677370800171,None,c,1.0406320001929998,8563.677370800171,None,,,,,,,,,,,,,,,,,,,,,,,,,,,,,,,,,,,,,,,,,,,,,,,,,,,,,,,,,,,,,,,,,,,,,,,,,,,,,,,,,,,,,,,,,,,,,,,,,,,,,,,,,,,,,,,,21NC,001,2023_Mar_08_1819,ExactRep-v3-final,2021.2.3,59.993544757176934,
,,,,,,,,,,,,,,,,,,,,,,,,,,,,whitefoils,c,space,248.46659729979,8574.827918000054,None,,,,,,,,,,,,,,,,,,,,,,,,,,,,,,,,,,,,,,,,,,,,,,,,,,,,,,,,,,,,,,,,,,,,,,,,,,,,,,,,,,,,,,,,,,,,,,,,,,,,,,,,,,21NC,001,2023_Mar_08_1819,ExactRep-v3-final,2021.2.3,59.993544757176934,
,,,,,,,,,,,,,,,,,,,,,,,,,,,,,,,,,,8564.931035100017,None,8564.931035100017,None,8564.931035100017,None,8564.931035100017,None,8564.931035100017,None,8564.931035100017,None,space,11.355761599959806,8833.450498100137,None,,,,,,,,,,,,,,,,,,,,,,,,,,,,,,,,,,,,,,,,,,,,,,,,,,,,,,,,,,,,,,,,,,,,,,,,,,,,,,,,,,,,,,,,,,21NC,001,2023_Mar_08_1819,ExactRep-v3-final,2021.2.3,59.993544757176934,
0,0,0,0,,,,,,,,,,,,,,,,,,,,,,,,,,,,,,,,,,,,,,,,,,,,,,,8823.453133000061,None,8823.453133000061,None,8823.453133000061,None,8823.453133000061,None,8823.453133000061,None,8823.453133000061,None,8844.92376330006,None,8846.92636910011,None,,,,,,,,,,,,,,,,,,,,,,,,,,,,,,,,,,,,,,,,,,,,,,,,,,,,,,,,,,,,,,,,,,,,,,,,,,21NC,001,2023_Mar_08_1819,ExactRep-v3-final,2021.2.3,59.993544757176934,
1,0,1,0,,,,,,,,,,,,,,,,,,,,,,,,,,,,,,,,,,,,,,,,,,,,,,,,,,,,,,,,,,,8847.438697700156,None,8849.445358300116,None,,,,,,,,,,,,,,,,,,,,,,,,,,,,,,,,,,,,,,,,,,,,,,,,,,,,,,,,,,,,,,,,,,,,,,,,,,21NC,001,2023_Mar_08_1819,ExactRep-v3-final,2021.2.3,59.993544757176934,
2,0,2,0,,,,,,,,,,,,,,,,,,,,,,,,,,,,,,,,,,,,,,,,,,,,,,,,,,,,,,,,,,,8849.945703699952,None,8851.947862100089,None,,,,,,,,,,,,,,,,,,,,,,,,,,,,,,,,,,,,,,,,,,,,,,,,,,,,,,,,,,,,,,,,,,,,,,,,,,21NC,001,2023_Mar_08_1819,ExactRep-v3-final,2021.2.3,59.993544757176934,
3,0,3,0,,,,,,,,,,,,,,,,,,,,,,,,,,,,,,,,,,,,,,,,,,,,,,,,,,,,,,,,,,,8852.450022400124,None,8854.450347200036,None,,,,,,,,,,,,,,,,,,,,,,,,,,,,,,,,,,,,,,,,,,,,,,,,,,,,,,,,,,,,,,,,,,,,,,,,,,21NC,001,2023_Mar_08_1819,ExactRep-v3-final,2021.2.3,59.993544757176934,
4,0,4,0,,,,,,,,,,,,,,,,,,,,,,,,,,,,,,,,,,,,,,,,,,,,,,,,,,,,,,,,,,,8854.964173400076,None,8856.969716600142,None,,,,,,,,,,,,,,,,,,,,,,,,,,,,,,,,,,,,,,,,,,,,,,,,,,,,,,,,,,,,,,,,,,,,,,,,,,21NC,001,2023_Mar_08_1819,ExactRep-v3-final,2021.2.3,59.993544757176934,
5,0,5,0,,,,,,,,,,,,,,,,,,,,,,,,,,,,,,,,,,,,,,,,,,,,,,,,,,,,,,,,,,,8857.470051300013,None,8859.472039800137,None,,,,,,,,,,,,,,,,,,,,,,,,,,,,,,,,,,,,,,,,,,,,,,,,,,,,,,,,,,,,,,,,,,,,,,,,,,21NC,001,2023_Mar_08_1819,ExactRep-v3-final,2021.2.3,59.993544757176934,
6,0,6,0,,,,,,,,,,,,,,,,,,,,,,,,,,,,,,,,,,,,,,,,,,,,,,,,,,,,,,,,,,,8859.97297880007,None,8861.974672200158,None,,,,,,,,,,,,,,,,,,,,,,,,,,,,,,,,,,,,,,,,,,,,,,,,,,,,,,,,,,,,,,,,,,,,,,,,,,21NC,001,2023_Mar_08_1819,ExactRep-v3-final,2021.2.3,59.993544757176934,
7,0,7,0,,,,,,,,,,,,,,,,,,,,,,,,,,,,,,,,,,,,,,,,,,,,,,,,,,,,,,,,,,,8862.478976600105,None,8864.493907900061,None,,,,,,,,,,,,,,,,,,,,,,,,,,,,,,,,,,,,,,,,,,,,,,,,,,,,,,,,,,,,,,,,,,,,,,,,,,21NC,001,2023_Mar_08_1819,ExactRep-v3-final,2021.2.3,59.993544757176934,
8,0,8,0,,,,,,,,,,,,,,,,,,,,,,,,,,,,,,,,,,,,,,,,,,,,,,,,,,,,,,,,,,,8864.994216199964,None,8866.996117500123,None,,,,,,,,,,,,,,,,,,,,,,,,,,,,,,,,,,,,,,,,,,,,,,,,,,,,,,,,,,,,,,,,,,,,,,,,,,21NC,001,2023_Mar_08_1819,ExactRep-v3-final,2021.2.3,59.993544757176934,
9,0,9,0,,,,,,,,,,,,,,,,,,,,,,,,,,,,,,,,,,,,,,,,,,,,,,,,,,,,,,,,,,,8867.502133300062,None,8869.515474900138,None,,,,,,,,,,,,,,,,,,,,,,,,,,,,,,,,,,,,,,,,,,,,,,,,,,,,,,,,,,,,,,,,,,,,,,,,,,21NC,001,2023_Mar_08_1819,ExactRep-v3-final,2021.2.3,59.993544757176934,
10,0,10,0,,,,,,,,,,,,,,,,,,,,,,,,,,,,,,,,,,,,,,,,,,,,,,,,,,,,,,,,,,,8870.019208900165,None,8872.034755500033,None,,,,,,,,,,,,,,,,,,,,,,,,,,,,,,,,,,,,,,,,,,,,,,,,,,,,,,,,,,,,,,,,,,,,,,,,,,21NC,001,2023_Mar_08_1819,ExactRep-v3-final,2021.2.3,59.993544757176934,
11,0,11,0,,,,,,,,,,,,,,,,,,,,,,,,,,,,,,,,,,,,,,,,,,,,,,,,,,,,,,,,,,,8872.535333100008,None,8874.53716060007,None,,,,,,,,,,,,,,,,,,,,,,,,,,,,,,,,,,,,,,,,,,,,,,,,,,,,,,,,,,,,,,,,,,,,,,,,,,21NC,001,2023_Mar_08_1819,ExactRep-v3-final,2021.2.3,59.993544757176934,
12,0,12,0,,,,,,,,,,,,,,,,,,,,,,,,,,,,,,,,,,,,,,,,,,,,,,,,,,,,,,,,,,,8875.047870800132,None,8877.056304499973,None,,,,,,,,,,,,,,,,,,,,,,,,,,,,,,,,,,,,,,,,,,,,,,,,,,,,,,,,,,,,,,,,,,,,,,,,,,21NC,001,2023_Mar_08_1819,ExactRep-v3-final,2021.2.3,59.993544757176934,
13,0,13,0,,,,,,,,,,,,,,,,,,,,,,,,,,,,,,,,,,,,,,,,,,,,,,,,,,,,,,,,,,,8877.556892300025,None,8879.558682100149,None,,,,,,,,,,,,,,,,,,,,,,,,,,,,,,,,,,,,,,,,,,,,,,,,,,,,,,,,,,,,,,,,,,,,,,,,,,21NC,001,2023_Mar_08_1819,ExactRep-v3-final,2021.2.3,59.993544757176934,
14,0,14,0,,,,,,,,,,,,,,,,,,,,,,,,,,,,,,,,,,,,,,,,,,,,,,,,,,,,,,,,,,,8880.059172300156,None,8882.06139139994,None,,,,,,,,,,,,,,,,,,,,,,,,,,,,,,,,,,,,,,,,,,,,,,,,,,,,,,,,,,,,,,,,,,,,,,,,,,21NC,001,2023_Mar_08_1819,ExactRep-v3-final,2021.2.3,59.993544757176934,
,,,,,,,,,,,,,,,,,,,,,,,,,,,,,,,,,,,,,,,,,,,,,,,,,,,,,,,,,,,,,,,,,,space,1.894459499977529,8892.663793600164,None,,,,,,,,,,,,,,,,,,,,,,,,,,,,,,,,,,,,,,,,,,,,,,,,,,,,,,,,,,,,,,,,,,,,,,21NC,001,2023_Mar_08_1819,ExactRep-v3-final,2021.2.3,59.993544757176934,
,,,,0,0,0,0,,,,,,,,,,,,,,,,,,,,,,,,,,,,,,,,,,,,,,,,,,,,,,,,,,,,,,,,,8896.625728300074,None,,,,,8882.704981100047,None,8882.704981100047,None,8882.704981100047,None,8882.704981100047,None,8882.704981100047,None,8882.704981100047,None,8894.61493180017,None,,,,,,,,,,,,,,,,,,,,,,,,,,,,,,,,,,,,,,,,,,,,,,,,,,,,,,,,21NC,001,2023_Mar_08_1819,ExactRep-v3-final,2021.2.3,59.993544757176934,
,,,,1,0,1,0,,,,,,,,,,,,,,,,,,,,,,,,,,,,,,,,,,,,,,,,,,,,,,,,,,,,,,,,,8899.12841679994,None,,,,,,,,,,,,,,,,,8897.12643459998,None,,,,,,,,,,,,,,,,,,,,,,,,,,,,,,,,,,,,,,,,,,,,,,,,,,,,,,,,21NC,001,2023_Mar_08_1819,ExactRep-v3-final,2021.2.3,59.993544757176934,
,,,,2,0,2,0,,,,,,,,,,,,,,,,,,,,,,,,,,,,,,,,,,,,,,,,,,,,,,,,,,,,,,,,,8901.630714300089,None,,,,,,,,,,,,,,,,,8899.628866299987,None,,,,,,,,,,,,,,,,,,,,,,,,,,,,,,,,,,,,,,,,,,,,,,,,,,,,,,,,21NC,001,2023_Mar_08_1819,ExactRep-v3-final,2021.2.3,59.993544757176934,
,,,,3,0,3,0,,,,,,,,,,,,,,,,,,,,,,,,,,,,,,,,,,,,,,,,,,,,,,,,,,,,,,,,,8904.133194500115,None,,,,,,,,,,,,,,,,,8902.131248800084,None,,,,,,,,,,,,,,,,,,,,,,,,,,,,,,,,,,,,,,,,,,,,,,,,,,,,,,,,21NC,001,2023_Mar_08_1819,ExactRep-v3-final,2021.2.3,59.993544757176934,
,,,,4,0,4,0,,,,,,,,,,,,,,,,,,,,,,,,,,,,,,,,,,,,,,,,,,,,,,,,,,,,,,,,,8906.635771099944,None,,,,,,,,,,,,,,,,,8904.633986599976,None,,,,,,,,,,,,,,,,,,,,,,,,,,,,,,,,,,,,,,,,,,,,,,,,,,,,,,,,21NC,001,2023_Mar_08_1819,ExactRep-v3-final,2021.2.3,59.993544757176934,
,,,,5,0,5,0,,,,,,,,,,,,,,,,,,,,,,,,,,,,,,,,,,,,,,,,,,,,,,,,,,,,,,,,,8909.138156800065,None,,,,,,,,,,,,,,,,,8907.136254500132,None,,,,,,,,,,,,,,,,,,,,,,,,,,,,,,,,,,,,,,,,,,,,,,,,,,,,,,,,21NC,001,2023_Mar_08_1819,ExactRep-v3-final,2021.2.3,59.993544757176934,
,,,,6,0,6,0,,,,,,,,,,,,,,,,,,,,,,,,,,,,,,,,,,,,,,,,,,,,,,,,,,,,,,,,,8911.640885300003,None,,,,,,,,,,,,,,,,,8909.638902300037,None,,,,,,,,,,,,,,,,,,,,,,,,,,,,,,,,,,,,,,,,,,,,,,,,,,,,,,,,21NC,001,2023_Mar_08_1819,ExactRep-v3-final,2021.2.3,59.993544757176934,
,,,,7,0,7,0,,,,,,,,,,,,,,,,,,,,,,,,,,,,,,,,,,,,,,,,,,,,,,,,,,,,,,,,,8914.143366300035,None,,,,,,,,,,,,,,,,,8912.141403099988,None,,,,,,,,,,,,,,,,,,,,,,,,,,,,,,,,,,,,,,,,,,,,,,,,,,,,,,,,21NC,001,2023_Mar_08_1819,ExactRep-v3-final,2021.2.3,59.993544757176934,
,,,,8,0,8,0,,,,,,,,,,,,,,,,,,,,,,,,,,,,,,,,,,,,,,,,,,,,,,,,,,,,,,,,,8916.645877599949,None,,,,,,,,,,,,,,,,,8914.643907600082,None,,,,,,,,,,,,,,,,,,,,,,,,,,,,,,,,,,,,,,,,,,,,,,,,,,,,,,,,21NC,001,2023_Mar_08_1819,ExactRep-v3-final,2021.2.3,59.993544757176934,
,,,,9,0,9,0,,,,,,,,,,,,,,,,,,,,,,,,,,,,,,,,,,,,,,,,,,,,,,,,,,,,,,,,,8919.148375000106,None,,,,,,,,,,,,,,,,,8917.146385000087,None,,,,,,,,,,,,,,,,,,,,,,,,,,,,,,,,,,,,,,,,,,,,,,,,,,,,,,,,21NC,001,2023_Mar_08_1819,ExactRep-v3-final,2021.2.3,59.993544757176934,
,,,,10,0,10,0,,,,,,,,,,,,,,,,,,,,,,,,,,,,,,,,,,,,,,,,,,,,,,,,,,,,,,,,,8921.651052000001,None,,,,,,,,,,,,,,,,,8919.64888650016,None,,,,,,,,,,,,,,,,,,,,,,,,,,,,,,,,,,,,,,,,,,,,,,,,,,,,,,,,21NC,001,2023_Mar_08_1819,ExactRep-v3-final,2021.2.3,59.993544757176934,
,,,,11,0,11,0,,,,,,,,,,,,,,,,,,,,,,,,,,,,,,,,,,,,,,,,,,,,,,,,,,,,,,,,,8924.153517200146,None,,,,,,,,,,,,,,,,,8922.15150710009,None,,,,,,,,,,,,,,,,,,,,,,,,,,,,,,,,,,,,,,,,,,,,,,,,,,,,,,,,21NC,001,2023_Mar_08_1819,ExactRep-v3-final,2021.2.3,59.993544757176934,
,,,,12,0,12,0,,,,,,,,,,,,,,,,,,,,,,,,,,,,,,,,,,,,,,,,,,,,,,,,,,,,,,,,,8926.655742499977,None,,,,,,,,,,,,,,,,,8924.654022900155,None,,,,,,,,,,,,,,,,,,,,,,,,,,,,,,,,,,,,,,,,,,,,,,,,,,,,,,,,21NC,001,2023_Mar_08_1819,ExactRep-v3-final,2021.2.3,59.993544757176934,
,,,,13,0,13,0,,,,,,,,,,,,,,,,,,,,,,,,,,,,,,,,,,,,,,,,,,,,,,,,,,,,,,,,,8929.158418999985,None,,,,,,,,,,,,,,,,,8927.156303100055,None,,,,,,,,,,,,,,,,,,,,,,,,,,,,,,,,,,,,,,,,,,,,,,,,,,,,,,,,21NC,001,2023_Mar_08_1819,ExactRep-v3-final,2021.2.3,59.993544757176934,
,,,,14,0,14,0,,,,,,,,,,,,,,,,,,,,,,,,,,,,,,,,,,,,,,,,,,,,,,,,,,,,,,,,,8931.660718400031,None,,,,,,,,,,,,,,,,,8929.659064100124,None,,,,,,,,,,,,,,,,,,,,,,,,,,,,,,,,,,,,,,,,,,,,,,,,,,,,,,,,21NC,001,2023_Mar_08_1819,ExactRep-v3-final,2021.2.3,59.993544757176934,
,,,,,,,,,,,,,,,,,,,,,,,,,,,,,,,,,,,,,,,,,,,,,,,,,,,,,,,,,,,,,,,,,,,,,,,,,,,,,,,,,,,,space,6.999455499928445,8942.319018100156,None,,,,,,,,,,,,,,,,,,,,,,,,,,,,,,,,,,,,,,,,,,,,,,,,,,,,21NC,001,2023_Mar_08_1819,ExactRep-v3-final,2021.2.3,59.993544757176934,
,,,,,,,,0,0,0,0,,,,,,,,,,,,,,,,,,,,,,,,,,,,,,,,,,,,,,,,,,,,,,,,,,,,,8951.413967899978,None,,,,,,,,,,,,,,,,,,,,,,,8932.364570799982,None,8932.364570799982,None,8932.364570799982,None,8932.364570799982,None,8932.364570799982,None,8932.364570799982,None,salary,87,1,aloud,blue,8949.406283300137,None,None,8949.406283300137,None,,,,,,,,,,,,,,,,,,,,,,,,,,,,,,21NC,001,2023_Mar_08_1819,ExactRep-v3-final,2021.2.3,59.993544757176934,
,,,,,,,,1,0,1,0,,,,,,,,,,,,,,,,,,,,,,,,,,,,,,,,,,,,,,,,,,,,,,,,,,,,,8953.916472600074,None,,,,,,,,,,,,,,,,,,,,,,,,,,,,,,,,,,,green,38,2,sing,white,8951.915295500075,None,None,8951.915295500075,None,,,,,,,,,,,,,,,,,,,,,,,,,,,,,,21NC,001,2023_Mar_08_1819,ExactRep-v3-final,2021.2.3,59.993544757176934,
,,,,,,,,2,0,2,0,,,,,,,,,,,,,,,,,,,,,,,,,,,,,,,,,,,,,,,,,,,,,,,,,,,,,8956.43570640008,None,,,,,,,,,,,,,,,,,,,,,,,,,,,,,,,,,,,animal,45,3,silent,red,8954.42242660001,None,None,8954.42242660001,None,,,,,,,,,,,,,,,,,,,,,,,,,,,,,,21NC,001,2023_Mar_08_1819,ExactRep-v3-final,2021.2.3,59.993544757176934,
,,,,,,,,3,0,3,0,,,,,,,,,,,,,,,,,,,,,,,,,,,,,,,,,,,,,,,,,,,,,,,,,,,,,8958.95494740014,None,,,,,,,,,,,,,,,,,,,,,,,,,,,,,,,,,,,fact,12,4,sing,white,8956.94307940011,None,None,8956.94307940011,None,,,,,,,,,,,,,,,,,,,,,,,,,,,,,,21NC,001,2023_Mar_08_1819,ExactRep-v3-final,2021.2.3,59.993544757176934,
,,,,,,,,4,0,4,0,,,,,,,,,,,,,,,,,,,,,,,,,,,,,,,,,,,,,,,,,,,,,,,,,,,,,8961.45750190015,None,,,,,,,,,,,,,,,,,,,,,,,,,,,,,,,,,,,month,77,5,silent,red,8959.4564274,None,None,8959.4564274,None,,,,,,,,,,,,,,,,,,,,,,,,,,,,,,21NC,001,2023_Mar_08_1819,ExactRep-v3-final,2021.2.3,59.993544757176934,
,,,,,,,,5,0,5,0,,,,,,,,,,,,,,,,,,,,,,,,,,,,,,,,,,,,,,,,,,,,,,,,,,,,,8963.97646549996,None,,,,,,,,,,,,,,,,,,,,,,,,,,,,,,,,,,,picture,19,6,sing,white,8961.964113000082,None,None,8961.964113000082,None,,,,,,,,,,,,,,,,,,,,,,,,,,,,,,21NC,001,2023_Mar_08_1819,ExactRep-v3-final,2021.2.3,59.993544757176934,
,,,,,,,,6,0,6,0,,,,,,,,,,,,,,,,,,,,,,,,,,,,,,,,,,,,,,,,,,,,,,,,,,,,,8966.495677100029,None,,,,,,,,,,,,,,,,,,,,,,,,,,,,,,,,,,,volume,100,7,aloud,blue,8964.49130780017,None,None,8964.49130780017,None,,,,,,,,,,,,,,,,,,,,,,,,,,,,,,21NC,001,2023_Mar_08_1819,ExactRep-v3-final,2021.2.3,59.993544757176934,
,,,,,,,,7,0,7,0,,,,,,,,,,,,,,,,,,,,,,,,,,,,,,,,,,,,,,,,,,,,,,,,,,,,,8968.998212400125,None,,,,,,,,,,,,,,,,,,,,,,,,,,,,,,,,,,,pipe,54,8,silent,red,8966.99609400006,None,None,8966.99609400006,None,,,,,,,,,,,,,,,,,,,,,,,,,,,,,,21NC,001,2023_Mar_08_1819,ExactRep-v3-final,2021.2.3,59.993544757176934,
,,,,,,,,8,0,8,0,,,,,,,,,,,,,,,,,,,,,,,,,,,,,,,,,,,,,,,,,,,,,,,,,,,,,8971.500797300134,None,,,,,,,,,,,,,,,,,,,,,,,,,,,,,,,,,,,ocean,81,9,aloud,blue,8969.498515099986,None,None,8969.498515099986,None,,,,,,,,,,,,,,,,,,,,,,,,,,,,,,21NC,001,2023_Mar_08_1819,ExactRep-v3-final,2021.2.3,59.993544757176934,
,,,,,,,,9,0,9,0,,,,,,,,,,,,,,,,,,,,,,,,,,,,,,,,,,,,,,,,,,,,,,,,,,,,,8974.00326570007,None,,,,,,,,,,,,,,,,,,,,,,,,,,,,,,,,,,,sky,26,10,sing,white,8972.002759200055,None,None,8972.002759200055,None,,,,,,,,,,,,,,,,,,,,,,,,,,,,,,21NC,001,2023_Mar_08_1819,ExactRep-v3-final,2021.2.3,59.993544757176934,
,,,,,,,,10,0,10,0,,,,,,,,,,,,,,,,,,,,,,,,,,,,,,,,,,,,,,,,,,,,,,,,,,,,,8976.522412799997,None,,,,,,,,,,,,,,,,,,,,,,,,,,,,,,,,,,,flood,65,11,silent,red,8974.513776900014,None,None,8974.513776900014,None,,,,,,,,,,,,,,,,,,,,,,,,,,,,,,21NC,001,2023_Mar_08_1819,ExactRep-v3-final,2021.2.3,59.993544757176934,
,,,,,,,,11,0,11,0,,,,,,,,,,,,,,,,,,,,,,,,,,,,,,,,,,,,,,,,,,,,,,,,,,,,,8979.025027700001,None,,,,,,,,,,,,,,,,,,,,,,,,,,,,,,,,,,,science,66,12,silent,red,8977.022937100148,None,None,8977.022937100148,None,,,,,,,,,,,,,,,,,,,,,,,,,,,,,,21NC,001,2023_Mar_08_1819,ExactRep-v3-final,2021.2.3,59.993544757176934,
,,,,,,,,12,0,12,0,,,,,,,,,,,,,,,,,,,,,,,,,,,,,,,,,,,,,,,,,,,,,,,,,,,,,8981.527410800103,None,,,,,,,,,,,,,,,,,,,,,,,,,,,,,,,,,,,blossom,41,13,silent,red,8979.526257800171,None,None,8979.526257800171,None,,,,,,,,,,,,,,,,,,,,,,,,,,,,,,21NC,001,2023_Mar_08_1819,ExactRep-v3-final,2021.2.3,59.993544757176934,
,,,,,,,,13,0,13,0,,,,,,,,,,,,,,,,,,,,,,,,,,,,,,,,,,,,,,,,,,,,,,,,,,,,,8984.029885000084,None,,,,,,,,,,,,,,,,,,,,,,,,,,,,,,,,,,,love,97,14,aloud,blue,8982.027720100014,None,None,8982.027720100014,None,,,,,,,,,,,,,,,,,,,,,,,,,,,,,,21NC,001,2023_Mar_08_1819,ExactRep-v3-final,2021.2.3,59.993544757176934,
,,,,,,,,14,0,14,0,,,,,,,,,,,,,,,,,,,,,,,,,,,,,,,,,,,,,,,,,,,,,,,,,,,,,8986.532502700109,None,,,,,,,,,,,,,,,,,,,,,,,,,,,,,,,,,,,skin,92,15,aloud,blue,8984.53232140001,None,None,8984.53232140001,None,,,,,,,,,,,,,,,,,,,,,,,,,,,,,,21NC,001,2023_Mar_08_1819,ExactRep-v3-final,2021.2.3,59.993544757176934,
,,,,,,,,15,0,15,0,,,,,,,,,,,,,,,,,,,,,,,,,,,,,,,,,,,,,,,,,,,,,,,,,,,,,8989.051808699965,None,,,,,,,,,,,,,,,,,,,,,,,,,,,,,,,,,,,prison,8,16,sing,white,8987.036802900024,None,None,8987.036802900024,None,,,,,,,,,,,,,,,,,,,,,,,,,,,,,,21NC,001,2023_Mar_08_1819,ExactRep-v3-final,2021.2.3,59.993544757176934,
,,,,,,,,16,0,16,0,,,,,,,,,,,,,,,,,,,,,,,,,,,,,,,,,,,,,,,,,,,,,,,,,,,,,8991.554195099976,None,,,,,,,,,,,,,,,,,,,,,,,,,,,,,,,,,,,gift,84,17,aloud,blue,8989.55210550013,None,None,8989.55210550013,None,,,,,,,,,,,,,,,,,,,,,,,,,,,,,,21NC,001,2023_Mar_08_1819,ExactRep-v3-final,2021.2.3,59.993544757176934,
,,,,,,,,17,0,17,0,,,,,,,,,,,,,,,,,,,,,,,,,,,,,,,,,,,,,,,,,,,,,,,,,,,,,8994.073298900155,None,,,,,,,,,,,,,,,,,,,,,,,,,,,,,,,,,,,potato,47,18,silent,red,8992.060610600049,None,None,8992.060610600049,None,,,,,,,,,,,,,,,,,,,,,,,,,,,,,,21NC,001,2023_Mar_08_1819,ExactRep-v3-final,2021.2.3,59.993544757176934,
,,,,,,,,18,0,18,0,,,,,,,,,,,,,,,,,,,,,,,,,,,,,,,,,,,,,,,,,,,,,,,,,,,,,8996.575835900148,None,,,,,,,,,,,,,,,,,,,,,,,,,,,,,,,,,,,bowl,105,19,aloud,blue,8994.57539699995,None,None,8994.57539699995,None,,,,,,,,,,,,,,,,,,,,,,,,,,,,,,21NC,001,2023_Mar_08_1819,ExactRep-v3-final,2021.2.3,59.993544757176934,
,,,,,,,,19,0,19,0,,,,,,,,,,,,,,,,,,,,,,,,,,,,,,,,,,,,,,,,,,,,,,,,,,,,,8999.094844100066,None,,,,,,,,,,,,,,,,,,,,,,,,,,,,,,,,,,,camp,29,20,sing,white,8997.080639899941,None,None,8997.080639899941,None,,,,,,,,,,,,,,,,,,,,,,,,,,,,,,21NC,001,2023_Mar_08_1819,ExactRep-v3-final,2021.2.3,59.993544757176934,
,,,,,,,,20,0,20,0,,,,,,,,,,,,,,,,,,,,,,,,,,,,,,,,,,,,,,,,,,,,,,,,,,,,,9001.597532600164,None,,,,,,,,,,,,,,,,,,,,,,,,,,,,,,,,,,,river,28,21,sing,white,8999.595520599978,None,None,8999.595520599978,None,,,,,,,,,,,,,,,,,,,,,,,,,,,,,,21NC,001,2023_Mar_08_1819,ExactRep-v3-final,2021.2.3,59.993544757176934,
,,,,,,,,21,0,21,0,,,,,,,,,,,,,,,,,,,,,,,,,,,,,,,,,,,,,,,,,,,,,,,,,,,,,9004.099903200055,None,,,,,,,,,,,,,,,,,,,,,,,,,,,,,,,,,,,valley,74,22,silent,red,9002.098408000078,None,None,9002.098408000078,None,,,,,,,,,,,,,,,,,,,,,,,,,,,,,,21NC,001,2023_Mar_08_1819,ExactRep-v3-final,2021.2.3,59.993544757176934,
,,,,,,,,22,0,22,0,,,,,,,,,,,,,,,,,,,,,,,,,,,,,,,,,,,,,,,,,,,,,,,,,,,,,9006.619213100057,None,,,,,,,,,,,,,,,,,,,,,,,,,,,,,,,,,,,judge,79,23,sing,white,9004.605110500008,None,None,9004.605110500008,None,,,,,,,,,,,,,,,,,,,,,,,,,,,,,,21NC,001,2023_Mar_08_1819,ExactRep-v3-final,2021.2.3,59.993544757176934,
,,,,,,,,23,0,23,0,,,,,,,,,,,,,,,,,,,,,,,,,,,,,,,,,,,,,,,,,,,,,,,,,,,,,9009.138136800146,None,,,,,,,,,,,,,,,,,,,,,,,,,,,,,,,,,,,leader,33,24,sing,white,9007.125659800135,None,None,9007.125659800135,None,,,,,,,,,,,,,,,,,,,,,,,,,,,,,,21NC,001,2023_Mar_08_1819,ExactRep-v3-final,2021.2.3,59.993544757176934,
,,,,,,,,24,0,24,0,,,,,,,,,,,,,,,,,,,,,,,,,,,,,,,,,,,,,,,,,,,,,,,,,,,,,9011.657579099992,None,,,,,,,,,,,,,,,,,,,,,,,,,,,,,,,,,,,ability,53,25,silent,red,9009.64793680003,None,None,9009.64793680003,None,,,,,,,,,,,,,,,,,,,,,,,,,,,,,,21NC,001,2023_Mar_08_1819,ExactRep-v3-final,2021.2.3,59.993544757176934,
,,,,,,,,25,0,25,0,,,,,,,,,,,,,,,,,,,,,,,,,,,,,,,,,,,,,,,,,,,,,,,,,,,,,9014.160067500081,None,,,,,,,,,,,,,,,,,,,,,,,,,,,,,,,,,,,insect,50,26,silent,red,9012.159587700153,None,None,9012.159587700153,None,,,,,,,,,,,,,,,,,,,,,,,,,,,,,,21NC,001,2023_Mar_08_1819,ExactRep-v3-final,2021.2.3,59.993544757176934,
,,,,,,,,26,0,26,0,,,,,,,,,,,,,,,,,,,,,,,,,,,,,,,,,,,,,,,,,,,,,,,,,,,,,9016.66270370013,None,,,,,,,,,,,,,,,,,,,,,,,,,,,,,,,,,,,grass,2,27,sing,white,9014.66243370017,None,None,9014.66243370017,None,,,,,,,,,,,,,,,,,,,,,,,,,,,,,,21NC,001,2023_Mar_08_1819,ExactRep-v3-final,2021.2.3,59.993544757176934,
,,,,,,,,27,0,27,0,,,,,,,,,,,,,,,,,,,,,,,,,,,,,,,,,,,,,,,,,,,,,,,,,,,,,9019.181849100161,None,,,,,,,,,,,,,,,,,,,,,,,,,,,,,,,,,,,friend,56,28,silent,red,9017.166799600003,None,None,9017.166799600003,None,,,,,,,,,,,,,,,,,,,,,,,,,,,,,,21NC,001,2023_Mar_08_1819,ExactRep-v3-final,2021.2.3,59.993544757176934,
,,,,,,,,28,0,28,0,,,,,,,,,,,,,,,,,,,,,,,,,,,,,,,,,,,,,,,,,,,,,,,,,,,,,9021.684241899988,None,,,,,,,,,,,,,,,,,,,,,,,,,,,,,,,,,,,teacher,113,29,aloud,blue,9019.68518310017,None,None,9019.68518310017,None,,,,,,,,,,,,,,,,,,,,,,,,,,,,,,21NC,001,2023_Mar_08_1819,ExactRep-v3-final,2021.2.3,59.993544757176934,
,,,,,,,,29,0,29,0,,,,,,,,,,,,,,,,,,,,,,,,,,,,,,,,,,,,,,,,,,,,,,,,,,,,,9024.203491900116,None,,,,,,,,,,,,,,,,,,,,,,,,,,,,,,,,,,,meat,34,30,sing,white,9022.188017100096,None,None,9022.188017100096,None,,,,,,,,,,,,,,,,,,,,,,,,,,,,,,21NC,001,2023_Mar_08_1819,ExactRep-v3-final,2021.2.3,59.993544757176934,
,,,,,,,,30,0,30,0,,,,,,,,,,,,,,,,,,,,,,,,,,,,,,,,,,,,,,,,,,,,,,,,,,,,,9026.705812799977,None,,,,,,,,,,,,,,,,,,,,,,,,,,,,,,,,,,,church,9,31,sing,white,9024.703937700018,None,None,9024.703937700018,None,,,,,,,,,,,,,,,,,,,,,,,,,,,,,,21NC,001,2023_Mar_08_1819,ExactRep-v3-final,2021.2.3,59.993544757176934,
,,,,,,,,31,0,31,0,,,,,,,,,,,,,,,,,,,,,,,,,,,,,,,,,,,,,,,,,,,,,,,,,,,,,9029.225293500116,None,,,,,,,,,,,,,,,,,,,,,,,,,,,,,,,,,,,moment,62,32,silent,red,9027.211997800041,None,None,9027.211997800041,None,,,,,,,,,,,,,,,,,,,,,,,,,,,,,,21NC,001,2023_Mar_08_1819,ExactRep-v3-final,2021.2.3,59.993544757176934,
,,,,,,,,32,0,32,0,,,,,,,,,,,,,,,,,,,,,,,,,,,,,,,,,,,,,,,,,,,,,,,,,,,,,9031.744339799974,None,,,,,,,,,,,,,,,,,,,,,,,,,,,,,,,,,,,bottle,46,33,silent,red,9029.73543650005,None,None,9029.73543650005,None,,,,,,,,,,,,,,,,,,,,,,,,,,,,,,21NC,001,2023_Mar_08_1819,ExactRep-v3-final,2021.2.3,59.993544757176934,
,,,,,,,,33,0,33,0,,,,,,,,,,,,,,,,,,,,,,,,,,,,,,,,,,,,,,,,,,,,,,,,,,,,,9034.246643200051,None,,,,,,,,,,,,,,,,,,,,,,,,,,,,,,,,,,,mother,3,34,sing,white,9032.246306300163,None,None,9032.246306300163,None,,,,,,,,,,,,,,,,,,,,,,,,,,,,,,21NC,001,2023_Mar_08_1819,ExactRep-v3-final,2021.2.3,59.993544757176934,
,,,,,,,,34,0,34,0,,,,,,,,,,,,,,,,,,,,,,,,,,,,,,,,,,,,,,,,,,,,,,,,,,,,,9036.76601459994,None,,,,,,,,,,,,,,,,,,,,,,,,,,,,,,,,,,,passion,73,35,silent,red,9034.750382400118,None,None,9034.750382400118,None,,,,,,,,,,,,,,,,,,,,,,,,,,,,,,21NC,001,2023_Mar_08_1819,ExactRep-v3-final,2021.2.3,59.993544757176934,
,,,,,,,,35,0,35,0,,,,,,,,,,,,,,,,,,,,,,,,,,,,,,,,,,,,,,,,,,,,,,,,,,,,,9039.268369199941,None,,,,,,,,,,,,,,,,,,,,,,,,,,,,,,,,,,,pole,27,36,sing,white,9037.266565700062,None,None,9037.266565700062,None,,,,,,,,,,,,,,,,,,,,,,,,,,,,,,21NC,001,2023_Mar_08_1819,ExactRep-v3-final,2021.2.3,59.993544757176934,
,,,,,,,,36,0,36,0,,,,,,,,,,,,,,,,,,,,,,,,,,,,,,,,,,,,,,,,,,,,,,,,,,,,,9041.787528600078,None,,,,,,,,,,,,,,,,,,,,,,,,,,,,,,,,,,,theory,22,37,sing,white,9039.779142400017,None,None,9039.779142400017,None,,,,,,,,,,,,,,,,,,,,,,,,,,,,,,21NC,001,2023_Mar_08_1819,ExactRep-v3-final,2021.2.3,59.993544757176934,
,,,,,,,,37,0,37,0,,,,,,,,,,,,,,,,,,,,,,,,,,,,,,,,,,,,,,,,,,,,,,,,,,,,,9044.290218499955,None,,,,,,,,,,,,,,,,,,,,,,,,,,,,,,,,,,,breast,75,38,silent,red,9042.288239900023,None,None,9042.288239900023,None,,,,,,,,,,,,,,,,,,,,,,,,,,,,,,21NC,001,2023_Mar_08_1819,ExactRep-v3-final,2021.2.3,59.993544757176934,
,,,,,,,,38,0,38,0,,,,,,,,,,,,,,,,,,,,,,,,,,,,,,,,,,,,,,,,,,,,,,,,,,,,,9046.792691000039,None,,,,,,,,,,,,,,,,,,,,,,,,,,,,,,,,,,,fate,1,39,sing,white,9044.790475500049,None,None,9044.790475500049,None,,,,,,,,,,,,,,,,,,,,,,,,,,,,,,21NC,001,2023_Mar_08_1819,ExactRep-v3-final,2021.2.3,59.993544757176934,
,,,,,,,,39,0,39,0,,,,,,,,,,,,,,,,,,,,,,,,,,,,,,,,,,,,,,,,,,,,,,,,,,,,,9049.29516190011,None,,,,,,,,,,,,,,,,,,,,,,,,,,,,,,,,,,,deed,63,40,silent,red,9047.293187499978,None,None,9047.293187499978,None,,,,,,,,,,,,,,,,,,,,,,,,,,,,,,21NC,001,2023_Mar_08_1819,ExactRep-v3-final,2021.2.3,59.993544757176934,
,,,,,,,,40,0,40,0,,,,,,,,,,,,,,,,,,,,,,,,,,,,,,,,,,,,,,,,,,,,,,,,,,,,,9051.797727500089,None,,,,,,,,,,,,,,,,,,,,,,,,,,,,,,,,,,,corner,86,41,aloud,blue,9049.795855800156,None,None,9049.795855800156,None,,,,,,,,,,,,,,,,,,,,,,,,,,,,,,21NC,001,2023_Mar_08_1819,ExactRep-v3-final,2021.2.3,59.993544757176934,
,,,,,,,,41,0,41,0,,,,,,,,,,,,,,,,,,,,,,,,,,,,,,,,,,,,,,,,,,,,,,,,,,,,,9054.300296500092,None,,,,,,,,,,,,,,,,,,,,,,,,,,,,,,,,,,,rod,52,42,silent,red,9052.300461499952,None,None,9052.300461499952,None,,,,,,,,,,,,,,,,,,,,,,,,,,,,,,21NC,001,2023_Mar_08_1819,ExactRep-v3-final,2021.2.3,59.993544757176934,
,,,,,,,,42,0,42,0,,,,,,,,,,,,,,,,,,,,,,,,,,,,,,,,,,,,,,,,,,,,,,,,,,,,,9056.819223199971,None,,,,,,,,,,,,,,,,,,,,,,,,,,,,,,,,,,,ticket,78,43,silent,red,9054.805320600048,None,None,9054.805320600048,None,,,,,,,,,,,,,,,,,,,,,,,,,,,,,,21NC,001,2023_Mar_08_1819,ExactRep-v3-final,2021.2.3,59.993544757176934,
,,,,,,,,43,0,43,0,,,,,,,,,,,,,,,,,,,,,,,,,,,,,,,,,,,,,,,,,,,,,,,,,,,,,9059.321734600002,None,,,,,,,,,,,,,,,,,,,,,,,,,,,,,,,,,,,dream,64,44,silent,red,9057.319733300013,None,None,9057.319733300013,None,,,,,,,,,,,,,,,,,,,,,,,,,,,,,,21NC,001,2023_Mar_08_1819,ExactRep-v3-final,2021.2.3,59.993544757176934,
,,,,,,,,44,0,44,0,,,,,,,,,,,,,,,,,,,,,,,,,,,,,,,,,,,,,,,,,,,,,,,,,,,,,9061.841127899941,None,,,,,,,,,,,,,,,,,,,,,,,,,,,,,,,,,,,shadow,93,45,aloud,blue,9059.832293099957,None,None,9059.832293099957,None,,,,,,,,,,,,,,,,,,,,,,,,,,,,,,21NC,001,2023_Mar_08_1819,ExactRep-v3-final,2021.2.3,59.993544757176934,
,,,,,,,,45,0,45,0,,,,,,,,,,,,,,,,,,,,,,,,,,,,,,,,,,,,,,,,,,,,,,,,,,,,,9064.343632300152,None,,,,,,,,,,,,,,,,,,,,,,,,,,,,,,,,,,,poet,23,46,sing,white,9062.342966400087,None,None,9062.342966400087,None,,,,,,,,,,,,,,,,,,,,,,,,,,,,,,21NC,001,2023_Mar_08_1819,ExactRep-v3-final,2021.2.3,59.993544757176934,
,,,,,,,,46,0,46,0,,,,,,,,,,,,,,,,,,,,,,,,,,,,,,,,,,,,,,,,,,,,,,,,,,,,,9066.862936499994,None,,,,,,,,,,,,,,,,,,,,,,,,,,,,,,,,,,,product,30,47,sing,white,9064.847627700074,None,None,9064.847627700074,None,,,,,,,,,,,,,,,,,,,,,,,,,,,,,,21NC,001,2023_Mar_08_1819,ExactRep-v3-final,2021.2.3,59.993544757176934,
,,,,,,,,47,0,47,0,,,,,,,,,,,,,,,,,,,,,,,,,,,,,,,,,,,,,,,,,,,,,,,,,,,,,9069.381858499954,None,,,,,,,,,,,,,,,,,,,,,,,,,,,,,,,,,,,rock,82,48,aloud,blue,9067.36673810007,None,None,9067.36673810007,None,,,,,,,,,,,,,,,,,,,,,,,,,,,,,,21NC,001,2023_Mar_08_1819,ExactRep-v3-final,2021.2.3,59.993544757176934,
,,,,,,,,48,0,48,0,,,,,,,,,,,,,,,,,,,,,,,,,,,,,,,,,,,,,,,,,,,,,,,,,,,,,9071.884500300046,None,,,,,,,,,,,,,,,,,,,,,,,,,,,,,,,,,,,event,118,49,aloud,blue,9069.88457650016,None,None,9069.88457650016,None,,,,,,,,,,,,,,,,,,,,,,,,,,,,,,21NC,001,2023_Mar_08_1819,ExactRep-v3-final,2021.2.3,59.993544757176934,
,,,,,,,,49,0,49,0,,,,,,,,,,,,,,,,,,,,,,,,,,,,,,,,,,,,,,,,,,,,,,,,,,,,,9074.387053500162,None,,,,,,,,,,,,,,,,,,,,,,,,,,,,,,,,,,,origin,60,50,silent,red,9072.386722299969,None,None,9072.386722299969,None,,,,,,,,,,,,,,,,,,,,,,,,,,,,,,21NC,001,2023_Mar_08_1819,ExactRep-v3-final,2021.2.3,59.993544757176934,
,,,,,,,,50,0,50,0,,,,,,,,,,,,,,,,,,,,,,,,,,,,,,,,,,,,,,,,,,,,,,,,,,,,,9076.906182399951,None,,,,,,,,,,,,,,,,,,,,,,,,,,,,,,,,,,,time,88,51,aloud,blue,9074.891421100125,None,None,9074.891421100125,None,,,,,,,,,,,,,,,,,,,,,,,,,,,,,,21NC,001,2023_Mar_08_1819,ExactRep-v3-final,2021.2.3,59.993544757176934,
,,,,,,,,51,0,51,0,,,,,,,,,,,,,,,,,,,,,,,,,,,,,,,,,,,,,,,,,,,,,,,,,,,,,9079.408671900164,None,,,,,,,,,,,,,,,,,,,,,,,,,,,,,,,,,,,gold,110,52,aloud,blue,9077.40684940014,None,None,9077.40684940014,None,,,,,,,,,,,,,,,,,,,,,,,,,,,,,,21NC,001,2023_Mar_08_1819,ExactRep-v3-final,2021.2.3,59.993544757176934,
,,,,,,,,52,0,52,0,,,,,,,,,,,,,,,,,,,,,,,,,,,,,,,,,,,,,,,,,,,,,,,,,,,,,9081.91105320002,None,,,,,,,,,,,,,,,,,,,,,,,,,,,,,,,,,,,market,13,53,sing,white,9079.911742800148,None,None,9079.911742800148,None,,,,,,,,,,,,,,,,,,,,,,,,,,,,,,21NC,001,2023_Mar_08_1819,ExactRep-v3-final,2021.2.3,59.993544757176934,
,,,,,,,,53,0,53,0,,,,,,,,,,,,,,,,,,,,,,,,,,,,,,,,,,,,,,,,,,,,,,,,,,,,,9084.430320200045,None,,,,,,,,,,,,,,,,,,,,,,,,,,,,,,,,,,,street,58,54,silent,red,9082.421558300033,None,None,9082.421558300033,None,,,,,,,,,,,,,,,,,,,,,,,,,,,,,,21NC,001,2023_Mar_08_1819,ExactRep-v3-final,2021.2.3,59.993544757176934,
,,,,,,,,54,0,54,0,,,,,,,,,,,,,,,,,,,,,,,,,,,,,,,,,,,,,,,,,,,,,,,,,,,,,9086.932862499962,None,,,,,,,,,,,,,,,,,,,,,,,,,,,,,,,,,,,letter,69,55,silent,red,9084.931673800107,None,None,9084.931673800107,None,,,,,,,,,,,,,,,,,,,,,,,,,,,,,,21NC,001,2023_Mar_08_1819,ExactRep-v3-final,2021.2.3,59.993544757176934,
,,,,,,,,55,0,55,0,,,,,,,,,,,,,,,,,,,,,,,,,,,,,,,,,,,,,,,,,,,,,,,,,,,,,9089.435364500154,None,,,,,,,,,,,,,,,,,,,,,,,,,,,,,,,,,,,cost,61,56,silent,red,9087.435937900096,None,None,9087.435937900096,None,,,,,,,,,,,,,,,,,,,,,,,,,,,,,,21NC,001,2023_Mar_08_1819,ExactRep-v3-final,2021.2.3,59.993544757176934,
,,,,,,,,56,0,56,0,,,,,,,,,,,,,,,,,,,,,,,,,,,,,,,,,,,,,,,,,,,,,,,,,,,,,9091.937834199984,None,,,,,,,,,,,,,,,,,,,,,,,,,,,,,,,,,,,humour,94,57,aloud,blue,9089.936229499988,None,None,9089.936229499988,None,,,,,,,,,,,,,,,,,,,,,,,,,,,,,,21NC,001,2023_Mar_08_1819,ExactRep-v3-final,2021.2.3,59.993544757176934,
,,,,,,,,57,0,57,0,,,,,,,,,,,,,,,,,,,,,,,,,,,,,,,,,,,,,,,,,,,,,,,,,,,,,9094.440327899996,None,,,,,,,,,,,,,,,,,,,,,,,,,,,,,,,,,,,wheat,91,58,aloud,blue,9092.44001729996,None,None,9092.44001729996,None,,,,,,,,,,,,,,,,,,,,,,,,,,,,,,21NC,001,2023_Mar_08_1819,ExactRep-v3-final,2021.2.3,59.993544757176934,
,,,,,,,,58,0,58,0,,,,,,,,,,,,,,,,,,,,,,,,,,,,,,,,,,,,,,,,,,,,,,,,,,,,,9096.94283880014,None,,,,,,,,,,,,,,,,,,,,,,,,,,,,,,,,,,,water,95,59,aloud,blue,9094.943251500139,None,None,9094.943251500139,None,,,,,,,,,,,,,,,,,,,,,,,,,,,,,,21NC,001,2023_Mar_08_1819,ExactRep-v3-final,2021.2.3,59.993544757176934,
,,,,,,,,59,0,59,0,,,,,,,,,,,,,,,,,,,,,,,,,,,,,,,,,,,,,,,,,,,,,,,,,,,,,9099.445308400085,None,,,,,,,,,,,,,,,,,,,,,,,,,,,,,,,,,,,person,51,60,silent,red,9097.444903800031,None,None,9097.444903800031,None,,,,,,,,,,,,,,,,,,,,,,,,,,,,,,21NC,001,2023_Mar_08_1819,ExactRep-v3-final,2021.2.3,59.993544757176934,
,,,,,,,,60,0,60,0,,,,,,,,,,,,,,,,,,,,,,,,,,,,,,,,,,,,,,,,,,,,,,,,,,,,,9101.947998699965,None,,,,,,,,,,,,,,,,,,,,,,,,,,,,,,,,,,,seat,17,61,sing,white,9099.94766340009,None,None,9099.94766340009,None,,,,,,,,,,,,,,,,,,,,,,,,,,,,,,21NC,001,2023_Mar_08_1819,ExactRep-v3-final,2021.2.3,59.993544757176934,
,,,,,,,,61,0,61,0,,,,,,,,,,,,,,,,,,,,,,,,,,,,,,,,,,,,,,,,,,,,,,,,,,,,,9104.450642900076,None,,,,,,,,,,,,,,,,,,,,,,,,,,,,,,,,,,,arm,16,62,sing,white,9102.448356900131,None,None,9102.448356900131,None,,,,,,,,,,,,,,,,,,,,,,,,,,,,,,21NC,001,2023_Mar_08_1819,ExactRep-v3-final,2021.2.3,59.993544757176934,
,,,,,,,,62,0,62,0,,,,,,,,,,,,,,,,,,,,,,,,,,,,,,,,,,,,,,,,,,,,,,,,,,,,,9106.969452100107,None,,,,,,,,,,,,,,,,,,,,,,,,,,,,,,,,,,,machine,40,63,silent,red,9104.9575871001,None,None,9104.9575871001,None,,,,,,,,,,,,,,,,,,,,,,,,,,,,,,21NC,001,2023_Mar_08_1819,ExactRep-v3-final,2021.2.3,59.993544757176934,
,,,,,,,,63,0,63,0,,,,,,,,,,,,,,,,,,,,,,,,,,,,,,,,,,,,,,,,,,,,,,,,,,,,,9109.471984199947,None,,,,,,,,,,,,,,,,,,,,,,,,,,,,,,,,,,,troops,80,64,aloud,blue,9107.470029999968,None,None,9107.470029999968,None,,,,,,,,,,,,,,,,,,,,,,,,,,,,,,21NC,001,2023_Mar_08_1819,ExactRep-v3-final,2021.2.3,59.993544757176934,
,,,,,,,,64,0,64,0,,,,,,,,,,,,,,,,,,,,,,,,,,,,,,,,,,,,,,,,,,,,,,,,,,,,,9111.974630800076,None,,,,,,,,,,,,,,,,,,,,,,,,,,,,,,,,,,,forest,116,65,aloud,blue,9109.973367100116,None,None,9109.973367100116,None,,,,,,,,,,,,,,,,,,,,,,,,,,,,,,21NC,001,2023_Mar_08_1819,ExactRep-v3-final,2021.2.3,59.993544757176934,
,,,,,,,,65,0,65,0,,,,,,,,,,,,,,,,,,,,,,,,,,,,,,,,,,,,,,,,,,,,,,,,,,,,,9114.49359060009,None,,,,,,,,,,,,,,,,,,,,,,,,,,,,,,,,,,,window,104,66,aloud,blue,9112.482514700154,None,None,9112.482514700154,None,,,,,,,,,,,,,,,,,,,,,,,,,,,,,,21NC,001,2023_Mar_08_1819,ExactRep-v3-final,2021.2.3,59.993544757176934,
,,,,,,,,66,0,66,0,,,,,,,,,,,,,,,,,,,,,,,,,,,,,,,,,,,,,,,,,,,,,,,,,,,,,9116.996296100086,None,,,,,,,,,,,,,,,,,,,,,,,,,,,,,,,,,,,justice,89,67,aloud,blue,9114.996981800068,None,None,9114.996981800068,None,,,,,,,,,,,,,,,,,,,,,,,,,,,,,,21NC,001,2023_Mar_08_1819,ExactRep-v3-final,2021.2.3,59.993544757176934,
,,,,,,,,67,0,67,0,,,,,,,,,,,,,,,,,,,,,,,,,,,,,,,,,,,,,,,,,,,,,,,,,,,,,9119.498725099955,None,,,,,,,,,,,,,,,,,,,,,,,,,,,,,,,,,,,flag,7,68,sing,white,9117.499286900042,None,None,9117.499286900042,None,,,,,,,,,,,,,,,,,,,,,,,,,,,,,,21NC,001,2023_Mar_08_1819,ExactRep-v3-final,2021.2.3,59.993544757176934,
,,,,,,,,68,0,68,0,,,,,,,,,,,,,,,,,,,,,,,,,,,,,,,,,,,,,,,,,,,,,,,,,,,,,9122.001158100087,None,,,,,,,,,,,,,,,,,,,,,,,,,,,,,,,,,,,bar,115,69,aloud,blue,9120.000713899964,None,None,9120.000713899964,None,,,,,,,,,,,,,,,,,,,,,,,,,,,,,,21NC,001,2023_Mar_08_1819,ExactRep-v3-final,2021.2.3,59.993544757176934,
,,,,,,,,69,0,69,0,,,,,,,,,,,,,,,,,,,,,,,,,,,,,,,,,,,,,,,,,,,,,,,,,,,,,9124.503763800021,None,,,,,,,,,,,,,,,,,,,,,,,,,,,,,,,,,,,city,39,70,silent,red,9122.503505800152,None,None,9122.503505800152,None,,,,,,,,,,,,,,,,,,,,,,,,,,,,,,21NC,001,2023_Mar_08_1819,ExactRep-v3-final,2021.2.3,59.993544757176934,
,,,,,,,,70,0,70,0,,,,,,,,,,,,,,,,,,,,,,,,,,,,,,,,,,,,,,,,,,,,,,,,,,,,,9127.006136500044,None,,,,,,,,,,,,,,,,,,,,,,,,,,,,,,,,,,,dust,21,71,sing,white,9125.006222900003,None,None,9125.006222900003,None,,,,,,,,,,,,,,,,,,,,,,,,,,,,,,21NC,001,2023_Mar_08_1819,ExactRep-v3-final,2021.2.3,59.993544757176934,
,,,,,,,,71,0,71,0,,,,,,,,,,,,,,,,,,,,,,,,,,,,,,,,,,,,,,,,,,,,,,,,,,,,,9129.52554069995,None,,,,,,,,,,,,,,,,,,,,,,,,,,,,,,,,,,,cotton,20,72,sing,white,9127.510184700135,None,None,9127.510184700135,None,,,,,,,,,,,,,,,,,,,,,,,,,,,,,,21NC,001,2023_Mar_08_1819,ExactRep-v3-final,2021.2.3,59.993544757176934,
,,,,,,,,72,0,72,0,,,,,,,,,,,,,,,,,,,,,,,,,,,,,,,,,,,,,,,,,,,,,,,,,,,,,9132.027937100036,None,,,,,,,,,,,,,,,,,,,,,,,,,,,,,,,,,,,safety,71,73,silent,red,9130.02575469995,None,None,9130.02575469995,None,,,,,,,,,,,,,,,,,,,,,,,,,,,,,,21NC,001,2023_Mar_08_1819,ExactRep-v3-final,2021.2.3,59.993544757176934,
,,,,,,,,73,0,73,0,,,,,,,,,,,,,,,,,,,,,,,,,,,,,,,,,,,,,,,,,,,,,,,,,,,,,9134.530436099973,None,,,,,,,,,,,,,,,,,,,,,,,,,,,,,,,,,,,colony,68,74,silent,red,9132.531220900128,None,None,9132.531220900128,None,,,,,,,,,,,,,,,,,,,,,,,,,,,,,,21NC,001,2023_Mar_08_1819,ExactRep-v3-final,2021.2.3,59.993544757176934,
,,,,,,,,74,0,74,0,,,,,,,,,,,,,,,,,,,,,,,,,,,,,,,,,,,,,,,,,,,,,,,,,,,,,9137.032745500095,None,,,,,,,,,,,,,,,,,,,,,,,,,,,,,,,,,,,toy,57,75,silent,red,9135.033544700127,None,None,9135.033544700127,None,,,,,,,,,,,,,,,,,,,,,,,,,,,,,,21NC,001,2023_Mar_08_1819,ExactRep-v3-final,2021.2.3,59.993544757176934,
,,,,,,,,75,0,75,0,,,,,,,,,,,,,,,,,,,,,,,,,,,,,,,,,,,,,,,,,,,,,,,,,,,,,9139.552141500171,None,,,,,,,,,,,,,,,,,,,,,,,,,,,,,,,,,,,meadow,111,76,aloud,blue,9137.539153800113,None,None,9137.539153800113,None,,,,,,,,,,,,,,,,,,,,,,,,,,,,,,21NC,001,2023_Mar_08_1819,ExactRep-v3-final,2021.2.3,59.993544757176934,
,,,,,,,,76,0,76,0,,,,,,,,,,,,,,,,,,,,,,,,,,,,,,,,,,,,,,,,,,,,,,,,,,,,,9142.054323200136,None,,,,,,,,,,,,,,,,,,,,,,,,,,,,,,,,,,,nail,85,77,aloud,blue,9140.052419699961,None,None,9140.052419699961,None,,,,,,,,,,,,,,,,,,,,,,,,,,,,,,21NC,001,2023_Mar_08_1819,ExactRep-v3-final,2021.2.3,59.993544757176934,
,,,,,,,,77,0,77,0,,,,,,,,,,,,,,,,,,,,,,,,,,,,,,,,,,,,,,,,,,,,,,,,,,,,,9144.573658300098,None,,,,,,,,,,,,,,,,,,,,,,,,,,,,,,,,,,,death,59,78,silent,red,9142.561559600057,None,None,9142.561559600057,None,,,,,,,,,,,,,,,,,,,,,,,,,,,,,,21NC,001,2023_Mar_08_1819,ExactRep-v3-final,2021.2.3,59.993544757176934,
,,,,,,,,78,0,78,0,,,,,,,,,,,,,,,,,,,,,,,,,,,,,,,,,,,,,,,,,,,,,,,,,,,,,9147.076333299978,None,,,,,,,,,,,,,,,,,,,,,,,,,,,,,,,,,,,lad,119,79,aloud,blue,9145.074088599999,None,None,9145.074088599999,None,,,,,,,,,,,,,,,,,,,,,,,,,,,,,,21NC,001,2023_Mar_08_1819,ExactRep-v3-final,2021.2.3,59.993544757176934,
,,,,,,,,79,0,79,0,,,,,,,,,,,,,,,,,,,,,,,,,,,,,,,,,,,,,,,,,,,,,,,,,,,,,9149.595565600088,None,,,,,,,,,,,,,,,,,,,,,,,,,,,,,,,,,,,honour,96,80,aloud,blue,9147.580341400113,None,None,9147.580341400113,None,,,,,,,,,,,,,,,,,,,,,,,,,,,,,,21NC,001,2023_Mar_08_1819,ExactRep-v3-final,2021.2.3,59.993544757176934,
,,,,,,,,80,0,80,0,,,,,,,,,,,,,,,,,,,,,,,,,,,,,,,,,,,,,,,,,,,,,,,,,,,,,9152.098087500082,None,,,,,,,,,,,,,,,,,,,,,,,,,,,,,,,,,,,slave,70,81,silent,red,9150.097412500065,None,None,9150.097412500065,None,,,,,,,,,,,,,,,,,,,,,,,,,,,,,,21NC,001,2023_Mar_08_1819,ExactRep-v3-final,2021.2.3,59.993544757176934,
,,,,,,,,81,0,81,0,,,,,,,,,,,,,,,,,,,,,,,,,,,,,,,,,,,,,,,,,,,,,,,,,,,,,9154.600482500158,None,,,,,,,,,,,,,,,,,,,,,,,,,,,,,,,,,,,soil,76,82,silent,red,9152.599142099964,None,None,9152.599142099964,None,,,,,,,,,,,,,,,,,,,,,,,,,,,,,,21NC,001,2023_Mar_08_1819,ExactRep-v3-final,2021.2.3,59.993544757176934,
,,,,,,,,82,0,82,0,,,,,,,,,,,,,,,,,,,,,,,,,,,,,,,,,,,,,,,,,,,,,,,,,,,,,9157.103122500004,None,,,,,,,,,,,,,,,,,,,,,,,,,,,,,,,,,,,fun,10,83,sing,white,9155.101125300163,None,None,9155.101125300163,None,,,,,,,,,,,,,,,,,,,,,,,,,,,,,,21NC,001,2023_Mar_08_1819,ExactRep-v3-final,2021.2.3,59.993544757176934,
,,,,,,,,83,0,83,0,,,,,,,,,,,,,,,,,,,,,,,,,,,,,,,,,,,,,,,,,,,,,,,,,,,,,9159.60551959998,None,,,,,,,,,,,,,,,,,,,,,,,,,,,,,,,,,,,victory,18,84,sing,white,9157.604124600068,None,None,9157.604124600068,None,,,,,,,,,,,,,,,,,,,,,,,,,,,,,,21NC,001,2023_Mar_08_1819,ExactRep-v3-final,2021.2.3,59.993544757176934,
,,,,,,,,84,0,84,0,,,,,,,,,,,,,,,,,,,,,,,,,,,,,,,,,,,,,,,,,,,,,,,,,,,,,9162.107901599957,None,,,,,,,,,,,,,,,,,,,,,,,,,,,,,,,,,,,murder,99,85,aloud,blue,9160.106223799987,None,None,9160.106223799987,None,,,,,,,,,,,,,,,,,,,,,,,,,,,,,,21NC,001,2023_Mar_08_1819,ExactRep-v3-final,2021.2.3,59.993544757176934,
,,,,,,,,85,0,85,0,,,,,,,,,,,,,,,,,,,,,,,,,,,,,,,,,,,,,,,,,,,,,,,,,,,,,9164.610549400095,None,,,,,,,,,,,,,,,,,,,,,,,,,,,,,,,,,,,diamond,49,86,silent,red,9162.608507300029,None,None,9162.608507300029,None,,,,,,,,,,,,,,,,,,,,,,,,,,,,,,21NC,001,2023_Mar_08_1819,ExactRep-v3-final,2021.2.3,59.993544757176934,
,,,,,,,,86,0,86,0,,,,,,,,,,,,,,,,,,,,,,,,,,,,,,,,,,,,,,,,,,,,,,,,,,,,,9167.11305340007,None,,,,,,,,,,,,,,,,,,,,,,,,,,,,,,,,,,,palace,14,87,sing,white,9165.112093599979,None,None,9165.112093599979,None,,,,,,,,,,,,,,,,,,,,,,,,,,,,,,21NC,001,2023_Mar_08_1819,ExactRep-v3-final,2021.2.3,59.993544757176934,
,,,,,,,,87,0,87,0,,,,,,,,,,,,,,,,,,,,,,,,,,,,,,,,,,,,,,,,,,,,,,,,,,,,,9169.615583200008,None,,,,,,,,,,,,,,,,,,,,,,,,,,,,,,,,,,,body,36,88,sing,white,9167.61583600007,None,None,9167.61583600007,None,,,,,,,,,,,,,,,,,,,,,,,,,,,,,,21NC,001,2023_Mar_08_1819,ExactRep-v3-final,2021.2.3,59.993544757176934,
,,,,,,,,88,0,88,0,,,,,,,,,,,,,,,,,,,,,,,,,,,,,,,,,,,,,,,,,,,,,,,,,,,,,9172.117695900146,None,,,,,,,,,,,,,,,,,,,,,,,,,,,,,,,,,,,tool,107,89,aloud,blue,9170.118426500121,None,None,9170.118426500121,None,,,,,,,,,,,,,,,,,,,,,,,,,,,,,,21NC,001,2023_Mar_08_1819,ExactRep-v3-final,2021.2.3,59.993544757176934,
,,,,,,,,89,0,89,0,,,,,,,,,,,,,,,,,,,,,,,,,,,,,,,,,,,,,,,,,,,,,,,,,,,,,9174.63730260008,None,,,,,,,,,,,,,,,,,,,,,,,,,,,,,,,,,,,hour,112,90,aloud,blue,9172.621724100085,None,None,9172.621724100085,None,,,,,,,,,,,,,,,,,,,,,,,,,,,,,,21NC,001,2023_Mar_08_1819,ExactRep-v3-final,2021.2.3,59.993544757176934,
,,,,,,,,90,0,90,0,,,,,,,,,,,,,,,,,,,,,,,,,,,,,,,,,,,,,,,,,,,,,,,,,,,,,9177.139616700122,None,,,,,,,,,,,,,,,,,,,,,,,,,,,,,,,,,,,ship,24,91,sing,white,9175.137579400092,None,None,9175.137579400092,None,,,,,,,,,,,,,,,,,,,,,,,,,,,,,,21NC,001,2023_Mar_08_1819,ExactRep-v3-final,2021.2.3,59.993544757176934,
,,,,,,,,91,0,91,0,,,,,,,,,,,,,,,,,,,,,,,,,,,,,,,,,,,,,,,,,,,,,,,,,,,,,9179.659447400132,None,,,,,,,,,,,,,,,,,,,,,,,,,,,,,,,,,,,duty,67,92,silent,red,9177.649285600055,None,None,9177.649285600055,None,,,,,,,,,,,,,,,,,,,,,,,,,,,,,,21NC,001,2023_Mar_08_1819,ExactRep-v3-final,2021.2.3,59.993544757176934,
,,,,,,,,92,0,92,0,,,,,,,,,,,,,,,,,,,,,,,,,,,,,,,,,,,,,,,,,,,,,,,,,,,,,9182.17814250011,None,,,,,,,,,,,,,,,,,,,,,,,,,,,,,,,,,,,fault,106,93,aloud,blue,9180.162696199957,None,None,9180.162696199957,None,,,,,,,,,,,,,,,,,,,,,,,,,,,,,,21NC,001,2023_Mar_08_1819,ExactRep-v3-final,2021.2.3,59.993544757176934,
,,,,,,,,93,0,93,0,,,,,,,,,,,,,,,,,,,,,,,,,,,,,,,,,,,,,,,,,,,,,,,,,,,,,9184.680633099983,None,,,,,,,,,,,,,,,,,,,,,,,,,,,,,,,,,,,grief,109,94,aloud,blue,9182.680090500042,None,None,9182.680090500042,None,,,,,,,,,,,,,,,,,,,,,,,,,,,,,,21NC,001,2023_Mar_08_1819,ExactRep-v3-final,2021.2.3,59.993544757176934,
,,,,,,,,94,0,94,0,,,,,,,,,,,,,,,,,,,,,,,,,,,,,,,,,,,,,,,,,,,,,,,,,,,,,9187.199590099975,None,,,,,,,,,,,,,,,,,,,,,,,,,,,,,,,,,,,hotel,117,95,aloud,blue,9185.185776700033,None,None,9185.185776700033,None,,,,,,,,,,,,,,,,,,,,,,,,,,,,,,21NC,001,2023_Mar_08_1819,ExactRep-v3-final,2021.2.3,59.993544757176934,
,,,,,,,,95,0,95,0,,,,,,,,,,,,,,,,,,,,,,,,,,,,,,,,,,,,,,,,,,,,,,,,,,,,,9189.71879710001,None,,,,,,,,,,,,,,,,,,,,,,,,,,,,,,,,,,,money,31,96,sing,white,9187.710195200052,None,None,9187.710195200052,None,,,,,,,,,,,,,,,,,,,,,,,,,,,,,,21NC,001,2023_Mar_08_1819,ExactRep-v3-final,2021.2.3,59.993544757176934,
,,,,,,,,96,0,96,0,,,,,,,,,,,,,,,,,,,,,,,,,,,,,,,,,,,,,,,,,,,,,,,,,,,,,9192.221454800107,None,,,,,,,,,,,,,,,,,,,,,,,,,,,,,,,,,,,plant,102,97,aloud,blue,9190.219299799995,None,None,9190.219299799995,None,,,,,,,,,,,,,,,,,,,,,,,,,,,,,,21NC,001,2023_Mar_08_1819,ExactRep-v3-final,2021.2.3,59.993544757176934,
,,,,,,,,97,0,97,0,,,,,,,,,,,,,,,,,,,,,,,,,,,,,,,,,,,,,,,,,,,,,,,,,,,,,9194.724004999967,None,,,,,,,,,,,,,,,,,,,,,,,,,,,,,,,,,,,idea,35,98,sing,white,9192.723655800102,None,None,9192.723655800102,None,,,,,,,,,,,,,,,,,,,,,,,,,,,,,,21NC,001,2023_Mar_08_1819,ExactRep-v3-final,2021.2.3,59.993544757176934,
,,,,,,,,98,0,98,0,,,,,,,,,,,,,,,,,,,,,,,,,,,,,,,,,,,,,,,,,,,,,,,,,,,,,9197.226320200134,None,,,,,,,,,,,,,,,,,,,,,,,,,,,,,,,,,,,fortune,25,99,sing,white,9195.227189199999,None,None,9195.227189199999,None,,,,,,,,,,,,,,,,,,,,,,,,,,,,,,21NC,001,2023_Mar_08_1819,ExactRep-v3-final,2021.2.3,59.993544757176934,
,,,,,,,,99,0,99,0,,,,,,,,,,,,,,,,,,,,,,,,,,,,,,,,,,,,,,,,,,,,,,,,,,,,,9199.728996200021,None,,,,,,,,,,,,,,,,,,,,,,,,,,,,,,,,,,,weapon,4,100,sing,white,9197.727006100118,None,None,9197.727006100118,None,,,,,,,,,,,,,,,,,,,,,,,,,,,,,,21NC,001,2023_Mar_08_1819,ExactRep-v3-final,2021.2.3,59.993544757176934,
,,,,,,,,100,0,100,0,,,,,,,,,,,,,,,,,,,,,,,,,,,,,,,,,,,,,,,,,,,,,,,,,,,,,9202.231181700015,None,,,,,,,,,,,,,,,,,,,,,,,,,,,,,,,,,,,wine,6,101,sing,white,9200.229454000015,None,None,9200.229454000015,None,,,,,,,,,,,,,,,,,,,,,,,,,,,,,,21NC,001,2023_Mar_08_1819,ExactRep-v3-final,2021.2.3,59.993544757176934,
,,,,,,,,101,0,101,0,,,,,,,,,,,,,,,,,,,,,,,,,,,,,,,,,,,,,,,,,,,,,,,,,,,,,9204.750704900129,None,,,,,,,,,,,,,,,,,,,,,,,,,,,,,,,,,,,fur,98,102,aloud,blue,9202.737261699978,None,None,9202.737261699978,None,,,,,,,,,,,,,,,,,,,,,,,,,,,,,,21NC,001,2023_Mar_08_1819,ExactRep-v3-final,2021.2.3,59.993544757176934,
,,,,,,,,102,0,102,0,,,,,,,,,,,,,,,,,,,,,,,,,,,,,,,,,,,,,,,,,,,,,,,,,,,,,9207.26988929999,None,,,,,,,,,,,,,,,,,,,,,,,,,,,,,,,,,,,owner,32,103,sing,white,9205.260218100157,None,None,9205.260218100157,None,,,,,,,,,,,,,,,,,,,,,,,,,,,,,,21NC,001,2023_Mar_08_1819,ExactRep-v3-final,2021.2.3,59.993544757176934,
,,,,,,,,103,0,103,0,,,,,,,,,,,,,,,,,,,,,,,,,,,,,,,,,,,,,,,,,,,,,,,,,,,,,9209.788871299941,None,,,,,,,,,,,,,,,,,,,,,,,,,,,,,,,,,,,devil,114,104,aloud,blue,9207.779611699982,None,None,9207.779611699982,None,,,,,,,,,,,,,,,,,,,,,,,,,,,,,,21NC,001,2023_Mar_08_1819,ExactRep-v3-final,2021.2.3,59.993544757176934,
,,,,,,,,104,0,104,0,,,,,,,,,,,,,,,,,,,,,,,,,,,,,,,,,,,,,,,,,,,,,,,,,,,,,9212.291369500104,None,,,,,,,,,,,,,,,,,,,,,,,,,,,,,,,,,,,crime,72,105,silent,red,9210.289382599993,None,None,9210.289382599993,None,,,,,,,,,,,,,,,,,,,,,,,,,,,,,,21NC,001,2023_Mar_08_1819,ExactRep-v3-final,2021.2.3,59.993544757176934,
,,,,,,,,105,0,105,0,,,,,,,,,,,,,,,,,,,,,,,,,,,,,,,,,,,,,,,,,,,,,,,,,,,,,9214.810789600015,None,,,,,,,,,,,,,,,,,,,,,,,,,,,,,,,,,,,college,0,106,sing,white,9212.79858860001,None,None,9212.79858860001,None,,,,,,,,,,,,,,,,,,,,,,,,,,,,,,21NC,001,2023_Mar_08_1819,ExactRep-v3-final,2021.2.3,59.993544757176934,
,,,,,,,,106,0,106,0,,,,,,,,,,,,,,,,,,,,,,,,,,,,,,,,,,,,,,,,,,,,,,,,,,,,,9217.313239600044,None,,,,,,,,,,,,,,,,,,,,,,,,,,,,,,,,,,,silence,103,107,aloud,blue,9215.313140199985,None,None,9215.313140199985,None,,,,,,,,,,,,,,,,,,,,,,,,,,,,,,21NC,001,2023_Mar_08_1819,ExactRep-v3-final,2021.2.3,59.993544757176934,
,,,,,,,,107,0,107,0,,,,,,,,,,,,,,,,,,,,,,,,,,,,,,,,,,,,,,,,,,,,,,,,,,,,,9219.815759000136,None,,,,,,,,,,,,,,,,,,,,,,,,,,,,,,,,,,,table,55,108,silent,red,9217.816489299992,None,None,9217.816489299992,None,,,,,,,,,,,,,,,,,,,,,,,,,,,,,,21NC,001,2023_Mar_08_1819,ExactRep-v3-final,2021.2.3,59.993544757176934,
,,,,,,,,108,0,108,0,,,,,,,,,,,,,,,,,,,,,,,,,,,,,,,,,,,,,,,,,,,,,,,,,,,,,9222.318309399998,None,,,,,,,,,,,,,,,,,,,,,,,,,,,,,,,,,,,artist,11,109,sing,white,9220.316208800068,None,None,9220.316208800068,None,,,,,,,,,,,,,,,,,,,,,,,,,,,,,,21NC,001,2023_Mar_08_1819,ExactRep-v3-final,2021.2.3,59.993544757176934,
,,,,,,,,109,0,109,0,,,,,,,,,,,,,,,,,,,,,,,,,,,,,,,,,,,,,,,,,,,,,,,,,,,,,9224.83722620015,None,,,,,,,,,,,,,,,,,,,,,,,,,,,,,,,,,,,disease,44,110,silent,red,9222.824711899972,None,None,9222.824711899972,None,,,,,,,,,,,,,,,,,,,,,,,,,,,,,,21NC,001,2023_Mar_08_1819,ExactRep-v3-final,2021.2.3,59.993544757176934,
,,,,,,,,110,0,110,0,,,,,,,,,,,,,,,,,,,,,,,,,,,,,,,,,,,,,,,,,,,,,,,,,,,,,9227.339965600055,None,,,,,,,,,,,,,,,,,,,,,,,,,,,,,,,,,,,law,5,111,sing,white,9225.339126900071,None,None,9225.339126900071,None,,,,,,,,,,,,,,,,,,,,,,,,,,,,,,21NC,001,2023_Mar_08_1819,ExactRep-v3-final,2021.2.3,59.993544757176934,
,,,,,,,,111,0,111,0,,,,,,,,,,,,,,,,,,,,,,,,,,,,,,,,,,,,,,,,,,,,,,,,,,,,,9229.85922530014,None,,,,,,,,,,,,,,,,,,,,,,,,,,,,,,,,,,,flesh,37,112,sing,white,9227.843860700028,None,None,9227.843860700028,None,,,,,,,,,,,,,,,,,,,,,,,,,,,,,,21NC,001,2023_Mar_08_1819,ExactRep-v3-final,2021.2.3,59.993544757176934,
,,,,,,,,112,0,112,0,,,,,,,,,,,,,,,,,,,,,,,,,,,,,,,,,,,,,,,,,,,,,,,,,,,,,9232.361581300152,None,,,,,,,,,,,,,,,,,,,,,,,,,,,,,,,,,,,dollar,101,113,aloud,blue,9230.359657100169,None,None,9230.359657100169,None,,,,,,,,,,,,,,,,,,,,,,,,,,,,,,21NC,001,2023_Mar_08_1819,ExactRep-v3-final,2021.2.3,59.993544757176934,
,,,,,,,,113,0,113,0,,,,,,,,,,,,,,,,,,,,,,,,,,,,,,,,,,,,,,,,,,,,,,,,,,,,,9234.880601600045,None,,,,,,,,,,,,,,,,,,,,,,,,,,,,,,,,,,,cattle,48,114,silent,red,9232.86827750015,None,None,9232.86827750015,None,,,,,,,,,,,,,,,,,,,,,,,,,,,,,,21NC,001,2023_Mar_08_1819,ExactRep-v3-final,2021.2.3,59.993544757176934,
,,,,,,,,114,0,114,0,,,,,,,,,,,,,,,,,,,,,,,,,,,,,,,,,,,,,,,,,,,,,,,,,,,,,9237.383311500074,None,,,,,,,,,,,,,,,,,,,,,,,,,,,,,,,,,,,earth,90,115,aloud,blue,9235.381187400082,None,None,9235.381187400082,None,,,,,,,,,,,,,,,,,,,,,,,,,,,,,,21NC,001,2023_Mar_08_1819,ExactRep-v3-final,2021.2.3,59.993544757176934,
,,,,,,,,115,0,115,0,,,,,,,,,,,,,,,,,,,,,,,,,,,,,,,,,,,,,,,,,,,,,,,,,,,,,9239.885869600112,None,,,,,,,,,,,,,,,,,,,,,,,,,,,,,,,,,,,garden,108,116,aloud,blue,9237.885711499956,None,None,9237.885711499956,None,,,,,,,,,,,,,,,,,,,,,,,,,,,,,,21NC,001,2023_Mar_08_1819,ExactRep-v3-final,2021.2.3,59.993544757176934,
,,,,,,,,116,0,116,0,,,,,,,,,,,,,,,,,,,,,,,,,,,,,,,,,,,,,,,,,,,,,,,,,,,,,9242.405046700034,None,,,,,,,,,,,,,,,,,,,,,,,,,,,,,,,,,,,horse,43,117,silent,red,9240.390278900042,None,None,9240.390278900042,None,,,,,,,,,,,,,,,,,,,,,,,,,,,,,,21NC,001,2023_Mar_08_1819,ExactRep-v3-final,2021.2.3,59.993544757176934,
,,,,,,,,117,0,117,0,,,,,,,,,,,,,,,,,,,,,,,,,,,,,,,,,,,,,,,,,,,,,,,,,,,,,9244.924175500171,None,,,,,,,,,,,,,,,,,,,,,,,,,,,,,,,,,,,corn,83,118,aloud,blue,9242.911895100027,None,None,9242.911895100027,None,,,,,,,,,,,,,,,,,,,,,,,,,,,,,,21NC,001,2023_Mar_08_1819,ExactRep-v3-final,2021.2.3,59.993544757176934,
,,,,,,,,118,0,118,0,,,,,,,,,,,,,,,,,,,,,,,,,,,,,,,,,,,,,,,,,,,,,,,,,,,,,9247.426411499968,None,,,,,,,,,,,,,,,,,,,,,,,,,,,,,,,,,,,student,15,119,sing,white,9245.426783300005,None,None,9245.426783300005,None,,,,,,,,,,,,,,,,,,,,,,,,,,,,,,21NC,001,2023_Mar_08_1819,ExactRep-v3-final,2021.2.3,59.993544757176934,
,,,,,,,,119,0,119,0,,,,,,,,,,,,,,,,,,,,,,,,,,,,,,,,,,,,,,,,,,,,,,,,,,,,,9249.945899700047,None,,,,,,,,,,,,,,,,,,,,,,,,,,,,,,,,,,,quality,42,120,silent,red,9247.946689800126,None,None,9247.946689800126,None,,,,,,,,,,,,,,,,,,,,,,,,,,,,,,21NC,001,2023_Mar_08_1819,ExactRep-v3-final,2021.2.3,59.993544757176934,
,,,,,,,,,,,,,,,,,,,,,,,,,,,,,,,,,,,,,,,,,,,,,,,,,,,,,,,,,,,,,,,,,,,,,,,,,,,,,,,,,,,,,,,,,,,,,,,,,,,,,,,,,,,,,,9250.448008400155,None,space,2.974594300147146,9260.424312900053,None,,,,,,,,,,,,,,,,,,,,,,,,21NC,001,2023_Mar_08_1819,ExactRep-v3-final,2021.2.3,59.993544757176934,
,,,,,,,,,,,,,,,,,,,,,,,,,,,,,,,,,,,,,,,,,,,,,,,,,,,,,,,,,,,,,,,,,,,,,,,,,,,,,,,,,,,,,,,,,,,,,,,,,,,,,,,,,,,,,,,,,,,,9263.427713300101,None,space,53.3547591001261,9273.404123000102,None,,,,,,,,,,,,,,,,,,21NC,001,2023_Mar_08_1819,ExactRep-v3-final,2021.2.3,59.993544757176934,
,,,,,,,,,,,,0,0,0,0,,,,,,,,,,,,,,,,,,,,,,,,,,,,,,,,,,,,,,,,,,,,,,,,,9331.57740249997,None,,,,,,,,,,,,,,,,,,,,,,,,,,,,,,,,,,,,,,,,,,,,,,,,,,,,,,,,,leader,33,1,sing,old,yellow,9327.285417499952,None,y,9327.285417499952,None,"['y', 'return']","[4.0093846002127975, 4.249398600077257]",9327.285417499952,None,,,21NC,001,2023_Mar_08_1819,ExactRep-v3-final,2021.2.3,59.993544757176934,
,,,,,,,,,,,,1,0,1,0,,,,,,,,,,,,,,,,,,,,,,,,,,,,,,,,,,,,,,,,,,,,,,,,,9333.830791000044,None,,,,,,,,,,,,,,,,,,,,,,,,,,,,,,,,,,,,,,,,,,,,,,,,,,,,,,,,,glory,166,2,aloud,new,yellow,9332.082736199955,None,n,9332.082736199955,None,"['n', 'return']","[1.5401091000530869, 1.7000716999173164]",9332.082736199955,None,,,21NC,001,2023_Mar_08_1819,ExactRep-v3-final,2021.2.3,59.993544757176934,
,,,,,,,,,,,,2,0,2,0,,,,,,,,,,,,,,,,,,,,,,,,,,,,,,,,,,,,,,,,,,,,,,,,,9335.831531299977,None,,,,,,,,,,,,,,,,,,,,,,,,,,,,,,,,,,,,,,,,,,,,,,,,,,,,,,,,,bowl,105,3,aloud,old,yellow,9334.34049520013,None,y,9334.34049520013,None,"['y', 'return']","[1.2823058001231402, 1.4502872000448406]",9334.34049520013,None,,,21NC,001,2023_Mar_08_1819,ExactRep-v3-final,2021.2.3,59.993544757176934,
,,,,,,,,,,,,3,0,3,0,,,,,,,,,,,,,,,,,,,,,,,,,,,,,,,,,,,,,,,,,,,,,,,,,9337.666702900082,None,,,,,,,,,,,,,,,,,,,,,,,,,,,,,,,,,,,,,,,,,,,,,,,,,,,,,,,,,butter,148,4,silent,new,yellow,9336.34277540003,None,n,9336.34277540003,None,"['n', 'return']","[0.9920166998635978, 1.2799700999166816]",9336.34277540003,None,,,21NC,001,2023_Mar_08_1819,ExactRep-v3-final,2021.2.3,59.993544757176934,
,,,,,,,,,,,,4,0,4,0,,,,,,,,,,,,,,,,,,,,,,,,,,,,,,,,,,,,,,,,,,,,,,,,,9339.502056899946,None,,,,,,,,,,,,,,,,,,,,,,,,,,,,,,,,,,,,,,,,,,,,,,,,,,,,,,,,,engine,126,5,silent,new,yellow,9338.176965699997,None,n,9338.176965699997,None,"['n', 'return']","[1.1258678999729455, 1.2778123999014497]",9338.176965699997,None,,,21NC,001,2023_Mar_08_1819,ExactRep-v3-final,2021.2.3,59.993544757176934,
,,,,,,,,,,,,5,0,5,0,,,,,,,,,,,,,,,,,,,,,,,,,,,,,,,,,,,,,,,,,,,,,,,,,9341.120165900094,None,,,,,,,,,,,,,,,,,,,,,,,,,,,,,,,,,,,,,,,,,,,,,,,,,,,,,,,,,gift,84,6,aloud,old,yellow,9340.013708800077,None,n,9340.013708800077,None,"['n', 'return']","[0.8490563000086695, 1.0650983999948949]",9340.013708800077,None,,,21NC,001,2023_Mar_08_1819,ExactRep-v3-final,2021.2.3,59.993544757176934,
,,,,,,,,,,,,6,0,6,0,,,,,,,,,,,,,,,,,,,,,,,,,,,,,,,,,,,,,,,,,,,,,,,,,9342.58829939994,None,,,,,,,,,,,,,,,,,,,,,,,,,,,,,,,,,,,,,,,,,,,,,,,,,,,,,,,,,fortune,25,7,sing,old,yellow,9341.62823319994,None,y,9341.62823319994,None,"['y', 'return']","[0.6986122999805957, 0.9225832999218255]",9341.62823319994,None,,,21NC,001,2023_Mar_08_1819,ExactRep-v3-final,2021.2.3,59.993544757176934,
,,,,,,,,,,,,7,0,7,0,,,,,,,,,,,,,,,,,,,,,,,,,,,,,,,,,,,,,,,,,,,,,,,,,9344.390172200045,None,,,,,,,,,,,,,,,,,,,,,,,,,,,,,,,,,,,,,,,,,,,,,,,,,,,,,,,,,bar,115,8,aloud,old,yellow,9343.096896300092,None,y,9343.096896300092,None,"['y', 'return']","[1.0218878001905978, 1.2539799001533538]",9343.096896300092,None,,,21NC,001,2023_Mar_08_1819,ExactRep-v3-final,2021.2.3,59.993544757176934,
,,,,,,,,,,,,8,0,8,0,,,,,,,,,,,,,,,,,,,,,,,,,,,,,,,,,,,,,,,,,,,,,,,,,9346.742636100156,None,,,,,,,,,,,,,,,,,,,,,,,,,,,,,,,,,,,,,,,,,,,,,,,,,,,,,,,,,clock,188,9,aloud,new,yellow,9344.901835100027,None,y,9344.901835100027,None,"['y', 'return']","[1.4571796001400799, 1.8010456999763846]",9344.901835100027,None,,,21NC,001,2023_Mar_08_1819,ExactRep-v3-final,2021.2.3,59.993544757176934,
,,,,,,,,,,,,9,0,9,0,,,,,,,,,,,,,,,,,,,,,,,,,,,,,,,,,,,,,,,,,,,,,,,,,9348.377425899962,None,,,,,,,,,,,,,,,,,,,,,,,,,,,,,,,,,,,,,,,,,,,,,,,,,,,,,,,,,cost,61,10,silent,old,yellow,9347.251386800082,None,n,9347.251386800082,None,"['n', 'return']","[0.9153262998443097, 1.0834669000469148]",9347.251386800082,None,,,21NC,001,2023_Mar_08_1819,ExactRep-v3-final,2021.2.3,59.993544757176934,
,,,,,,,,,,,,10,0,10,0,,,,,,,,,,,,,,,,,,,,,,,,,,,,,,,,,,,,,,,,,,,,,,,,,9349.762150000082,None,,,,,,,,,,,,,,,,,,,,,,,,,,,,,,,,,,,,,,,,,,,,,,,,,,,,,,,,,square,220,11,aloud,new,yellow,9348.887385400012,None,n,9348.887385400012,None,"['n', 'return']","[0.6874989999923855, 0.8314761000219733]",9348.887385400012,None,,,21NC,001,2023_Mar_08_1819,ExactRep-v3-final,2021.2.3,59.993544757176934,
,,,,,,,,,,,,11,0,11,0,,,,,,,,,,,,,,,,,,,,,,,,,,,,,,,,,,,,,,,,,,,,,,,,,9351.363742100075,None,,,,,,,,,,,,,,,,,,,,,,,,,,,,,,,,,,,,,,,,,,,,,,,,,,,,,,,,,anger,179,12,sing,new,yellow,9350.273679299979,None,n,9350.273679299979,None,"['n', 'return']","[0.8451160001568496, 1.04511750000529]",9350.273679299979,None,,,21NC,001,2023_Mar_08_1819,ExactRep-v3-final,2021.2.3,59.993544757176934,
,,,,,,,,,,,,12,0,12,0,,,,,,,,,,,,,,,,,,,,,,,,,,,,,,,,,,,,,,,,,,,,,,,,,9352.748438900104,None,,,,,,,,,,,,,,,,,,,,,,,,,,,,,,,,,,,,,,,,,,,,,,,,,,,,,,,,,meadow,111,13,aloud,old,yellow,9351.87272470002,None,y,9351.87272470002,None,"['y', 'return']","[0.5660357000306249, 0.8381168998312205]",9351.87272470002,None,,,21NC,001,2023_Mar_08_1819,ExactRep-v3-final,2021.2.3,59.993544757176934,
,,,,,,,,,,,,13,0,13,0,,,,,,,,,,,,,,,,,,,,,,,,,,,,,,,,,,,,,,,,,,,,,,,,,9354.583621399943,None,,,,,,,,,,,,,,,,,,,,,,,,,,,,,,,,,,,,,,,,,,,,,,,,,,,,,,,,,steam,202,14,aloud,new,yellow,9353.248873600038,None,n,9353.248873600038,None,"['n', 'return']","[1.1498696999624372, 1.301956799812615]",9353.248873600038,None,,,21NC,001,2023_Mar_08_1819,ExactRep-v3-final,2021.2.3,59.993544757176934,
,,,,,,,,,,,,14,0,14,0,,,,,,,,,,,,,,,,,,,,,,,,,,,,,,,,,,,,,,,,,,,,,,,,,9356.201922300039,None,,,,,,,,,,,,,,,,,,,,,,,,,,,,,,,,,,,,,,,,,,,,,,,,,,,,,,,,,honour,96,15,aloud,old,yellow,9355.092107000062,None,y,9355.092107000062,None,"['y', 'return']","[0.8826963000465184, 1.0666501000523567]",9355.092107000062,None,,,21NC,001,2023_Mar_08_1819,ExactRep-v3-final,2021.2.3,59.993544757176934,
,,,,,,,,,,,,15,0,15,0,,,,,,,,,,,,,,,,,,,,,,,,,,,,,,,,,,,,,,,,,,,,,,,,,9358.287490800023,None,,,,,,,,,,,,,,,,,,,,,,,,,,,,,,,,,,,,,,,,,,,,,,,,,,,,,,,,,tree,196,16,aloud,new,yellow,9356.712420300115,None,n,9356.712420300115,None,"['n', 'return']","[1.3825030999723822, 1.534403899917379]",9356.712420300115,None,,,21NC,001,2023_Mar_08_1819,ExactRep-v3-final,2021.2.3,59.993544757176934,
,,,,,,,,,,,,16,0,16,0,,,,,,,,,,,,,,,,,,,,,,,,,,,,,,,,,,,,,,,,,,,,,,,,,9360.02240659995,None,,,,,,,,,,,,,,,,,,,,,,,,,,,,,,,,,,,,,,,,,,,,,,,,,,,,,,,,,forest,116,17,aloud,old,yellow,9358.797586000059,None,n,9358.797586000059,None,"['n', 'return']","[1.0331963999196887, 1.1852480999659747]",9358.797586000059,None,,,21NC,001,2023_Mar_08_1819,ExactRep-v3-final,2021.2.3,59.993544757176934,
,,,,,,,,,,,,17,0,17,0,,,,,,,,,,,,,,,,,,,,,,,,,,,,,,,,,,,,,,,,,,,,,,,,,9361.32362930011,None,,,,,,,,,,,,,,,,,,,,,,,,,,,,,,,,,,,,,,,,,,,,,,,,,,,,,,,,,star,167,18,sing,new,yellow,9360.533327500103,None,n,9360.533327500103,None,"['n', 'return']","[0.585562199819833, 0.7535025000106543]",9360.533327500103,None,,,21NC,001,2023_Mar_08_1819,ExactRep-v3-final,2021.2.3,59.993544757176934,
,,,,,,,,,,,,18,0,18,0,,,,,,,,,,,,,,,,,,,,,,,,,,,,,,,,,,,,,,,,,,,,,,,,,9363.425822900143,None,,,,,,,,,,,,,,,,,,,,,,,,,,,,,,,,,,,,,,,,,,,,,,,,,,,,,,,,,potato,47,19,silent,old,yellow,9361.831620699959,None,n,9361.831620699959,None,"['return', 'n', 'return']","[1.0071892000269145, 1.4152080998755991, 1.551338299876079]",9361.831620699959,None,,,21NC,001,2023_Mar_08_1819,ExactRep-v3-final,2021.2.3,59.993544757176934,
,,,,,,,,,,,,19,0,19,0,,,,,,,,,,,,,,,,,,,,,,,,,,,,,,,,,,,,,,,,,,,,,,,,,9365.09421170014,None,,,,,,,,,,,,,,,,,,,,,,,,,,,,,,,,,,,,,,,,,,,,,,,,,,,,,,,,,prison,8,20,sing,old,yellow,9363.933102800045,None,y,9363.933102800045,None,"['y', 'return']","[0.9617542999330908, 1.1218129000626504]",9363.933102800045,None,,,21NC,001,2023_Mar_08_1819,ExactRep-v3-final,2021.2.3,59.993544757176934,
,,,,,,,,,,,,20,0,20,0,,,,,,,,,,,,,,,,,,,,,,,,,,,,,,,,,,,,,,,,,,,,,,,,,9366.86263460014,None,,,,,,,,,,,,,,,,,,,,,,,,,,,,,,,,,,,,,,,,,,,,,,,,,,,,,,,,,woman,225,21,sing,new,yellow,9365.60482610017,None,n,9365.60482610017,None,"['n', 'return']","[1.050020200200379, 1.2180396001785994]",9365.60482610017,None,,,21NC,001,2023_Mar_08_1819,ExactRep-v3-final,2021.2.3,59.993544757176934,
,,,,,,,,,,,,21,0,21,0,,,,,,,,,,,,,,,,,,,,,,,,,,,,,,,,,,,,,,,,,,,,,,,,,9369.215105399955,None,,,,,,,,,,,,,,,,,,,,,,,,,,,,,,,,,,,,,,,,,,,,,,,,,,,,,,,,,lad,119,22,aloud,old,yellow,9367.37358990009,None,n,9367.37358990009,None,"['n', 'return']","[1.6653149998746812, 1.8092996999621391]",9367.37358990009,None,,,21NC,001,2023_Mar_08_1819,ExactRep-v3-final,2021.2.3,59.993544757176934,
,,,,,,,,,,,,22,0,22,0,,,,,,,,,,,,,,,,,,,,,,,,,,,,,,,,,,,,,,,,,,,,,,,,,9370.749892499996,None,,,,,,,,,,,,,,,,,,,,,,,,,,,,,,,,,,,,,,,,,,,,,,,,,,,,,,,,,diamond,49,23,silent,old,yellow,9369.723137299996,None,n,9369.723137299996,None,"['n', 'return']","[0.8435408000368625, 0.987874099984765]",9369.723137299996,None,,,21NC,001,2023_Mar_08_1819,ExactRep-v3-final,2021.2.3,59.993544757176934,
,,,,,,,,,,,,23,0,23,0,,,,,,,,,,,,,,,,,,,,,,,,,,,,,,,,,,,,,,,,,,,,,,,,,9372.918666200014,None,,,,,,,,,,,,,,,,,,,,,,,,,,,,,,,,,,,,,,,,,,,,,,,,,,,,,,,,,shoes,182,24,aloud,new,yellow,9371.260802000063,None,n,9371.260802000063,None,"['return', 'n', 'return']","[0.8180394000373781, 0.9219317000824958, 1.610039700055495]",9371.260802000063,None,,,21NC,001,2023_Mar_08_1819,ExactRep-v3-final,2021.2.3,59.993544757176934,
,,,,,,,,,,,,24,0,24,0,,,,,,,,,,,,,,,,,,,,,,,,,,,,,,,,,,,,,,,,,,,,,,,,,9374.97066160012,None,,,,,,,,,,,,,,,,,,,,,,,,,,,,,,,,,,,,,,,,,,,,,,,,,,,,,,,,,opinion,180,25,aloud,new,yellow,9373.428862500004,None,n,9373.428862500004,None,"['n', 'return']","[1.321938999928534, 1.4979081999044865]",9373.428862500004,None,,,21NC,001,2023_Mar_08_1819,ExactRep-v3-final,2021.2.3,59.993544757176934,
,,,,,,,,,,,,25,0,25,0,,,,,,,,,,,,,,,,,,,,,,,,,,,,,,,,,,,,,,,,,,,,,,,,,9378.190730700037,None,,,,,,,,,,,,,,,,,,,,,,,,,,,,,,,,,,,,,,,,,,,,,,,,,,,,,,,,,moral,177,26,sing,new,yellow,9375.480841800105,None,n,9375.480841800105,None,"['y', 'backspace', 'n', 'return']","[0.4383288000244647, 2.1500933000352234, 2.502076999982819, 2.6781026001553982]",9375.480841800105,None,,,21NC,001,2023_Mar_08_1819,ExactRep-v3-final,2021.2.3,59.993544757176934,
,,,,,,,,,,,,26,0,26,0,,,,,,,,,,,,,,,,,,,,,,,,,,,,,,,,,,,,,,,,,,,,,,,,,9380.009049100103,None,,,,,,,,,,,,,,,,,,,,,,,,,,,,,,,,,,,,,,,,,,,,,,,,,,,,,,,,,shame,181,27,sing,new,yellow,9378.698328000028,None,n,9378.698328000028,None,"['n', 'return']","[1.0844490001909435, 1.2764741000719368]",9378.698328000028,None,,,21NC,001,2023_Mar_08_1819,ExactRep-v3-final,2021.2.3,59.993544757176934,
,,,,,,,,,,,,27,0,27,0,,,,,,,,,,,,,,,,,,,,,,,,,,,,,,,,,,,,,,,,,,,,,,,,,9381.610641699983,None,,,,,,,,,,,,,,,,,,,,,,,,,,,,,,,,,,,,,,,,,,,,,,,,,,,,,,,,,effort,145,28,silent,new,yellow,9380.5167541001,None,y,9380.5167541001,None,"['y', 'return']","[0.8340276000089943, 1.0580971001181751]",9380.5167541001,None,,,21NC,001,2023_Mar_08_1819,ExactRep-v3-final,2021.2.3,59.993544757176934,
,,,,,,,,,,,,28,0,28,0,,,,,,,,,,,,,,,,,,,,,,,,,,,,,,,,,,,,,,,,,,,,,,,,,9383.51865620003,None,,,,,,,,,,,,,,,,,,,,,,,,,,,,,,,,,,,,,,,,,,,,,,,,,,,,,,,,,plant,102,29,aloud,old,yellow,9382.114541900111,None,y,9382.114541900111,None,"['y', 'return']","[1.1884220999199897, 1.3562737999018282]",9382.114541900111,None,,,21NC,001,2023_Mar_08_1819,ExactRep-v3-final,2021.2.3,59.993544757176934,
,,,,,,,,,,,,29,0,29,0,,,,,,,,,,,,,,,,,,,,,,,,,,,,,,,,,,,,,,,,,,,,,,,,,9384.93064470007,None,,,,,,,,,,,,,,,,,,,,,,,,,,,,,,,,,,,,,,,,,,,,,,,,,,,,,,,,,arm,16,30,sing,old,yellow,9384.037876100047,None,y,9384.037876100047,None,"['y', 'return']","[0.6329584000632167, 0.848921800032258]",9384.037876100047,None,,,21NC,001,2023_Mar_08_1819,ExactRep-v3-final,2021.2.3,59.993544757176934,
,,,,,,,,,,,,30,0,30,0,,,,,,,,,,,,,,,,,,,,,,,,,,,,,,,,,,,,,,,,,,,,,,,,,9386.966021500062,None,,,,,,,,,,,,,,,,,,,,,,,,,,,,,,,,,,,,,,,,,,,,,,,,,,,,,,,,,air,208,31,aloud,new,yellow,9385.441655199975,None,y,9385.441655199975,None,"['y', 'return']","[1.1411103999707848, 1.4772079999092966]",9385.441655199975,None,,,21NC,001,2023_Mar_08_1819,ExactRep-v3-final,2021.2.3,59.993544757176934,
,,,,,,,,,,,,31,0,31,0,,,,,,,,,,,,,,,,,,,,,,,,,,,,,,,,,,,,,,,,,,,,,,,,,9388.284070699941,None,,,,,,,,,,,,,,,,,,,,,,,,,,,,,,,,,,,,,,,,,,,,,,,,,,,,,,,,,cat,144,32,silent,new,yellow,9387.480695000151,None,n,9387.480695000151,None,"['n', 'return']","[0.5742792000528425, 0.7581014998722821]",9387.480695000151,None,,,21NC,001,2023_Mar_08_1819,ExactRep-v3-final,2021.2.3,59.993544757176934,
,,,,,,,,,,,,32,0,32,0,,,,,,,,,,,,,,,,,,,,,,,,,,,,,,,,,,,,,,,,,,,,,,,,,9390.052433500066,None,,,,,,,,,,,,,,,,,,,,,,,,,,,,,,,,,,,,,,,,,,,,,,,,,,,,,,,,,machine,40,33,silent,old,yellow,9388.793713000137,None,n,9388.793713000137,None,"['n', 'return']","[1.0614543000701815, 1.221340199932456]",9388.793713000137,None,,,21NC,001,2023_Mar_08_1819,ExactRep-v3-final,2021.2.3,59.993544757176934,
,,,,,,,,,,,,33,0,33,0,,,,,,,,,,,,,,,,,,,,,,,,,,,,,,,,,,,,,,,,,,,,,,,,,9391.637345599942,None,,,,,,,,,,,,,,,,,,,,,,,,,,,,,,,,,,,,,,,,,,,,,,,,,,,,,,,,,mind,124,34,silent,new,yellow,9390.560022799997,None,y,9390.560022799997,None,"['y', 'return']","[0.790804399875924, 1.0308280000463128]",9390.560022799997,None,,,21NC,001,2023_Mar_08_1819,ExactRep-v3-final,2021.2.3,59.993544757176934,
,,,,,,,,,,,,34,0,34,0,,,,,,,,,,,,,,,,,,,,,,,,,,,,,,,,,,,,,,,,,,,,,,,,,9393.15568690002,None,,,,,,,,,,,,,,,,,,,,,,,,,,,,,,,,,,,,,,,,,,,,,,,,,,,,,,,,,metal,219,35,sing,new,yellow,9392.14765310008,None,n,9392.14765310008,None,"['n', 'return']","[0.8112409999594092, 0.9711615999694914]",9392.14765310008,None,,,21NC,001,2023_Mar_08_1819,ExactRep-v3-final,2021.2.3,59.993544757176934,
,,,,,,,,,,,,35,0,35,0,,,,,,,,,,,,,,,,,,,,,,,,,,,,,,,,,,,,,,,,,,,,,,,,,9395.090971700149,None,,,,,,,,,,,,,,,,,,,,,,,,,,,,,,,,,,,,,,,,,,,,,,,,,,,,,,,,,maiden,135,36,silent,new,yellow,9393.662972100079,None,n,9393.662972100079,None,"['n', 'return']","[1.255868200212717, 1.391916000051424]",9393.662972100079,None,,,21NC,001,2023_Mar_08_1819,ExactRep-v3-final,2021.2.3,59.993544757176934,
,,,,,,,,,,,,36,0,36,0,,,,,,,,,,,,,,,,,,,,,,,,,,,,,,,,,,,,,,,,,,,,,,,,,9396.976026300108,None,,,,,,,,,,,,,,,,,,,,,,,,,,,,,,,,,,,,,,,,,,,,,,,,,,,,,,,,,flower,165,37,sing,new,yellow,9395.604389300104,None,n,9395.604389300104,None,"['n', 'return']","[1.1786015999969095, 1.3306416999548674]",9395.604389300104,None,,,21NC,001,2023_Mar_08_1819,ExactRep-v3-final,2021.2.3,59.993544757176934,
,,,,,,,,,,,,37,0,37,0,,,,,,,,,,,,,,,,,,,,,,,,,,,,,,,,,,,,,,,,,,,,,,,,,9398.610989100067,None,,,,,,,,,,,,,,,,,,,,,,,,,,,,,,,,,,,,,,,,,,,,,,,,,,,,,,,,,toy,57,38,silent,old,yellow,9397.488088600105,None,n,9397.488088600105,None,"['n', 'return']","[0.950870499946177, 1.0869042999111116]",9397.488088600105,None,,,21NC,001,2023_Mar_08_1819,ExactRep-v3-final,2021.2.3,59.993544757176934,
,,,,,,,,,,,,38,0,38,0,,,,,,,,,,,,,,,,,,,,,,,,,,,,,,,,,,,,,,,,,,,,,,,,,9400.246163400123,None,,,,,,,,,,,,,,,,,,,,,,,,,,,,,,,,,,,,,,,,,,,,,,,,,,,,,,,,,fate,1,39,sing,old,yellow,9399.120056600077,None,y,9399.120056600077,None,"['y', 'return']","[0.735001599881798, 1.0868601999245584]",9399.120056600077,None,,,21NC,001,2023_Mar_08_1819,ExactRep-v3-final,2021.2.3,59.993544757176934,
,,,,,,,,,,,,39,0,39,0,,,,,,,,,,,,,,,,,,,,,,,,,,,,,,,,,,,,,,,,,,,,,,,,,9402.01441990002,None,,,,,,,,,,,,,,,,,,,,,,,,,,,,,,,,,,,,,,,,,,,,,,,,,,,,,,,,,temple,223,40,sing,new,yellow,9400.756712600123,None,n,9400.756712600123,None,"['n', 'return']","[1.050154000055045, 1.2101583001203835]",9400.756712600123,None,,,21NC,001,2023_Mar_08_1819,ExactRep-v3-final,2021.2.3,59.993544757176934,
,,,,,,,,,,,,40,0,40,0,,,,,,,,,,,,,,,,,,,,,,,,,,,,,,,,,,,,,,,,,,,,,,,,,9403.499224000145,None,,,,,,,,,,,,,,,,,,,,,,,,,,,,,,,,,,,,,,,,,,,,,,,,,,,,,,,,,kiss,204,41,aloud,new,yellow,9402.523002699949,None,n,9402.523002699949,None,"['n', 'return']","[0.7078356000129133, 0.9398799000773579]",9402.523002699949,None,,,21NC,001,2023_Mar_08_1819,ExactRep-v3-final,2021.2.3,59.993544757176934,
,,,,,,,,,,,,41,0,41,0,,,,,,,,,,,,,,,,,,,,,,,,,,,,,,,,,,,,,,,,,,,,,,,,,9404.950810899958,None,,,,,,,,,,,,,,,,,,,,,,,,,,,,,,,,,,,,,,,,,,,,,,,,,,,,,,,,,fur,98,42,aloud,old,yellow,9404.008526799968,None,n,9404.008526799968,None,"['n', 'return']","[0.734304399928078, 0.9022528999485075]",9404.008526799968,None,,,21NC,001,2023_Mar_08_1819,ExactRep-v3-final,2021.2.3,59.993544757176934,
,,,,,,,,,,,,42,0,42,0,,,,,,,,,,,,,,,,,,,,,,,,,,,,,,,,,,,,,,,,,,,,,,,,,9406.485673899995,None,,,,,,,,,,,,,,,,,,,,,,,,,,,,,,,,,,,,,,,,,,,,,,,,,,,,,,,,,flesh,37,43,sing,old,yellow,9405.458568500122,None,n,9405.458568500122,None,"['n', 'return']","[0.7962671001441777, 0.9804293001070619]",9405.458568500122,None,,,21NC,001,2023_Mar_08_1819,ExactRep-v3-final,2021.2.3,59.993544757176934,
,,,,,,,,,,,,43,0,43,0,,,,,,,,,,,,,,,,,,,,,,,,,,,,,,,,,,,,,,,,,,,,,,,,,9407.736933400156,None,,,,,,,,,,,,,,,,,,,,,,,,,,,,,,,,,,,,,,,,,,,,,,,,,,,,,,,,,valley,74,44,silent,old,yellow,9406.995916400105,None,n,9406.995916400105,None,"['n', 'return']","[0.47513559996150434, 0.7069370001554489]",9406.995916400105,None,,,21NC,001,2023_Mar_08_1819,ExactRep-v3-final,2021.2.3,59.993544757176934,
,,,,,,,,,,,,44,0,44,0,,,,,,,,,,,,,,,,,,,,,,,,,,,,,,,,,,,,,,,,,,,,,,,,,9408.988202800043,None,,,,,,,,,,,,,,,,,,,,,,,,,,,,,,,,,,,,,,,,,,,,,,,,,,,,,,,,,series,193,45,sing,new,yellow,9408.246138800168,None,n,9408.246138800168,None,"['n', 'return']","[0.5607944000512362, 0.7048386998940259]",9408.246138800168,None,,,21NC,001,2023_Mar_08_1819,ExactRep-v3-final,2021.2.3,59.993544757176934,
,,,,,,,,,,,,45,0,45,0,,,,,,,,,,,,,,,,,,,,,,,,,,,,,,,,,,,,,,,,,,,,,,,,,9410.906789500033,None,,,,,,,,,,,,,,,,,,,,,,,,,,,,,,,,,,,,,,,,,,,,,,,,,,,,,,,,,girl,226,46,aloud,new,yellow,9409.496996599948,None,n,9409.496996599948,None,"['n', 'return']","[1.0542637000326067, 1.365851700073108]",9409.496996599948,None,,,21NC,001,2023_Mar_08_1819,ExactRep-v3-final,2021.2.3,59.993544757176934,
,,,,,,,,,,,,46,0,46,0,,,,,,,,,,,,,,,,,,,,,,,,,,,,,,,,,,,,,,,,,,,,,,,,,9412.52493449999,None,,,,,,,,,,,,,,,,,,,,,,,,,,,,,,,,,,,,,,,,,,,,,,,,,,,,,,,,,money,31,47,sing,old,yellow,9411.417043199996,None,y,9411.417043199996,None,"['y', 'return']","[0.7418140999507159, 1.061839299974963]",9411.417043199996,None,,,21NC,001,2023_Mar_08_1819,ExactRep-v3-final,2021.2.3,59.993544757176934,
,,,,,,,,,,,,47,0,47,0,,,,,,,,,,,,,,,,,,,,,,,,,,,,,,,,,,,,,,,,,,,,,,,,,9414.793897800148,None,,,,,,,,,,,,,,,,,,,,,,,,,,,,,,,,,,,,,,,,,,,,,,,,,,,,,,,,,child,214,48,aloud,new,yellow,9413.033344000112,None,y,9413.033344000112,None,"['y', 'return']","[1.5415974000934511, 1.7254824000410736]",9413.033344000112,None,,,21NC,001,2023_Mar_08_1819,ExactRep-v3-final,2021.2.3,59.993544757176934,
,,,,,,,,,,,,48,0,48,0,,,,,,,,,,,,,,,,,,,,,,,,,,,,,,,,,,,,,,,,,,,,,,,,,9416.07844660012,None,,,,,,,,,,,,,,,,,,,,,,,,,,,,,,,,,,,,,,,,,,,,,,,,,,,,,,,,,excuse,159,49,silent,new,yellow,9415.307591200108,None,n,9415.307591200108,None,"['n', 'return']","[0.5552850000094622, 0.7232152000069618]",9415.307591200108,None,,,21NC,001,2023_Mar_08_1819,ExactRep-v3-final,2021.2.3,59.993544757176934,
,,,,,,,,,,,,49,0,49,0,,,,,,,,,,,,,,,,,,,,,,,,,,,,,,,,,,,,,,,,,,,,,,,,,9417.313100900035,None,,,,,,,,,,,,,,,,,,,,,,,,,,,,,,,,,,,,,,,,,,,,,,,,,,,,,,,,,tool,107,50,aloud,old,yellow,9416.582663000096,None,n,9416.582663000096,None,"['n', 'return']","[0.5283826000522822, 0.6963442999403924]",9416.582663000096,None,,,21NC,001,2023_Mar_08_1819,ExactRep-v3-final,2021.2.3,59.993544757176934,
,,,,,,,,,,,,50,0,50,0,,,,,,,,,,,,,,,,,,,,,,,,,,,,,,,,,,,,,,,,,,,,,,,,,9418.54770230013,None,,,,,,,,,,,,,,,,,,,,,,,,,,,,,,,,,,,,,,,,,,,,,,,,,,,,,,,,,sea,236,51,aloud,new,yellow,9417.823143000016,None,n,9417.823143000016,None,"['n', 'return']","[0.5677581999916583, 0.679727700073272]",9417.823143000016,None,,,21NC,001,2023_Mar_08_1819,ExactRep-v3-final,2021.2.3,59.993544757176934,
,,,,,,,,,,,,51,0,51,0,,,,,,,,,,,,,,,,,,,,,,,,,,,,,,,,,,,,,,,,,,,,,,,,,9419.74878270016,None,,,,,,,,,,,,,,,,,,,,,,,,,,,,,,,,,,,,,,,,,,,,,,,,,,,,,,,,,origin,60,52,silent,old,yellow,9419.057926800102,None,n,9419.057926800102,None,"['n', 'return']","[0.3809730999637395, 0.6450569999869913]",9419.057926800102,None,,,21NC,001,2023_Mar_08_1819,ExactRep-v3-final,2021.2.3,59.993544757176934,
,,,,,,,,,,,,52,0,52,0,,,,,,,,,,,,,,,,,,,,,,,,,,,,,,,,,,,,,,,,,,,,,,,,,9420.88343679998,None,,,,,,,,,,,,,,,,,,,,,,,,,,,,,,,,,,,,,,,,,,,,,,,,,,,,,,,,,shadow,93,53,aloud,old,yellow,9420.261516600149,None,n,9420.261516600149,None,"['n', 'return']","[0.2893769999500364, 0.5772273000329733]",9420.261516600149,None,,,21NC,001,2023_Mar_08_1819,ExactRep-v3-final,2021.2.3,59.993544757176934,
,,,,,,,,,,,,53,0,53,0,,,,,,,,,,,,,,,,,,,,,,,,,,,,,,,,,,,,,,,,,,,,,,,,,9421.984548900044,None,,,,,,,,,,,,,,,,,,,,,,,,,,,,,,,,,,,,,,,,,,,,,,,,,,,,,,,,,grass,2,54,sing,old,yellow,9421.397078800015,None,n,9421.397078800015,None,"['n', 'return']","[0.28184349997900426, 0.5458432000596076]",9421.397078800015,None,,,21NC,001,2023_Mar_08_1819,ExactRep-v3-final,2021.2.3,59.993544757176934,
,,,,,,,,,,,,54,0,54,0,,,,,,,,,,,,,,,,,,,,,,,,,,,,,,,,,,,,,,,,,,,,,,,,,9423.302396400133,None,,,,,,,,,,,,,,,,,,,,,,,,,,,,,,,,,,,,,,,,,,,,,,,,,,,,,,,,,plain,235,55,sing,new,yellow,9422.493023900082,None,n,9422.493023900082,None,"['n', 'return']","[0.5859652999788523, 0.7621897999197245]",9422.493023900082,None,,,21NC,001,2023_Mar_08_1819,ExactRep-v3-final,2021.2.3,59.993544757176934,
,,,,,,,,,,,,55,0,55,0,,,,,,,,,,,,,,,,,,,,,,,,,,,,,,,,,,,,,,,,,,,,,,,,,9425.07080620015,None,,,,,,,,,,,,,,,,,,,,,,,,,,,,,,,,,,,,,,,,,,,,,,,,,,,,,,,,,virtue,233,56,sing,new,yellow,9423.8126377,None,n,9423.8126377,None,"['n', 'return']","[0.9943317999131978, 1.2262501998338848]",9423.8126377,None,,,21NC,001,2023_Mar_08_1819,ExactRep-v3-final,2021.2.3,59.993544757176934,
,,,,,,,,,,,,56,0,56,0,,,,,,,,,,,,,,,,,,,,,,,,,,,,,,,,,,,,,,,,,,,,,,,,,9426.20539160003,None,,,,,,,,,,,,,,,,,,,,,,,,,,,,,,,,,,,,,,,,,,,,,,,,,,,,,,,,,trouble,189,57,sing,new,yellow,9425.581021200167,None,n,9425.581021200167,None,"['n', 'return']","[0.40987410000525415, 0.586129300063476]",9425.581021200167,None,,,21NC,001,2023_Mar_08_1819,ExactRep-v3-final,2021.2.3,59.993544757176934,
,,,,,,,,,,,,57,0,57,0,,,,,,,,,,,,,,,,,,,,,,,,,,,,,,,,,,,,,,,,,,,,,,,,,9427.997354299994,None,,,,,,,,,,,,,,,,,,,,,,,,,,,,,,,,,,,,,,,,,,,,,,,,,,,,,,,,,window,104,58,aloud,old,yellow,9426.709466200089,None,n,9426.709466200089,None,"['n', 'return']","[0.31345649994909763, 1.2494156998582184]",9426.709466200089,None,,,21NC,001,2023_Mar_08_1819,ExactRep-v3-final,2021.2.3,59.993544757176934,
,,,,,,,,,,,,58,0,58,0,,,,,,,,,,,,,,,,,,,,,,,,,,,,,,,,,,,,,,,,,,,,,,,,,9429.525252700085,None,,,,,,,,,,,,,,,,,,,,,,,,,,,,,,,,,,,,,,,,,,,,,,,,,,,,,,,,,prayer,156,59,silent,new,yellow,9428.520782600157,None,n,9428.520782600157,None,"['n', 'return']","[0.8141912000719458, 0.9661491001024842]",9428.520782600157,None,,,21NC,001,2023_Mar_08_1819,ExactRep-v3-final,2021.2.3,59.993544757176934,
,,,,,,,,,,,,59,0,59,0,,,,,,,,,,,,,,,,,,,,,,,,,,,,,,,,,,,,,,,,,,,,,,,,,9431.193793900078,None,,,,,,,,,,,,,,,,,,,,,,,,,,,,,,,,,,,,,,,,,,,,,,,,,,,,,,,,,meeting,238,60,aloud,new,yellow,9430.036230900092,None,y,9430.036230900092,None,"['y', 'return']","[0.890651399968192, 1.1145827998407185]",9430.036230900092,None,,,21NC,001,2023_Mar_08_1819,ExactRep-v3-final,2021.2.3,59.993544757176934,
,,,,,,,,,,,,60,0,60,0,,,,,,,,,,,,,,,,,,,,,,,,,,,,,,,,,,,,,,,,,,,,,,,,,9432.628361700103,None,,,,,,,,,,,,,,,,,,,,,,,,,,,,,,,,,,,,,,,,,,,,,,,,,,,,,,,,,heaven,127,61,silent,new,yellow,9431.703106499976,None,y,9431.703106499976,None,"['y', 'return']","[0.559768500039354, 0.8878736000042409]",9431.703106499976,None,,,21NC,001,2023_Mar_08_1819,ExactRep-v3-final,2021.2.3,59.993544757176934,
,,,,,,,,,,,,61,0,61,0,,,,,,,,,,,,,,,,,,,,,,,,,,,,,,,,,,,,,,,,,,,,,,,,,9435.698069600156,None,,,,,,,,,,,,,,,,,,,,,,,,,,,,,,,,,,,,,,,,,,,,,,,,,,,,,,,,,dawn,154,62,silent,new,yellow,9433.136144400109,None,y,9433.136144400109,None,"['n', 'backspace', 'y', 'return']","[0.9187299001496285, 2.046728900168091, 2.254812200088054, 2.526759000029415]",9433.136144400109,None,,,21NC,001,2023_Mar_08_1819,ExactRep-v3-final,2021.2.3,59.993544757176934,
,,,,,,,,,,,,62,0,62,0,,,,,,,,,,,,,,,,,,,,,,,,,,,,,,,,,,,,,,,,,,,,,,,,,9437.049558399944,None,,,,,,,,,,,,,,,,,,,,,,,,,,,,,,,,,,,,,,,,,,,,,,,,,,,,,,,,,hope,143,63,silent,new,yellow,9436.20731070009,None,y,9436.20731070009,None,"['y', 'return']","[0.5997343000490218, 0.7995974000077695]",9436.20731070009,None,,,21NC,001,2023_Mar_08_1819,ExactRep-v3-final,2021.2.3,59.993544757176934,
,,,,,,,,,,,,63,0,63,0,,,,,,,,,,,,,,,,,,,,,,,,,,,,,,,,,,,,,,,,,,,,,,,,,9439.084941300098,None,,,,,,,,,,,,,,,,,,,,,,,,,,,,,,,,,,,,,,,,,,,,,,,,,,,,,,,,,fire,125,64,silent,new,yellow,9437.557844700059,None,y,9437.557844700059,None,"['return', 'y', 'return']","[0.3291074000298977, 0.8090382998343557, 1.4811294998507947]",9437.557844700059,None,,,21NC,001,2023_Mar_08_1819,ExactRep-v3-final,2021.2.3,59.993544757176934,
,,,,,,,,,,,,64,0,64,0,,,,,,,,,,,,,,,,,,,,,,,,,,,,,,,,,,,,,,,,,,,,,,,,,9441.837712600129,None,,,,,,,,,,,,,,,,,,,,,,,,,,,,,,,,,,,,,,,,,,,,,,,,,,,,,,,,,ocean,81,65,aloud,old,yellow,9439.598108100006,None,y,9439.598108100006,None,"['return', 'y', 'return']","[0.856776500120759, 1.4648433001711965, 2.192799100186676]",9439.598108100006,None,,,21NC,001,2023_Mar_08_1819,ExactRep-v3-final,2021.2.3,59.993544757176934,
,,,,,,,,,,,,65,0,65,0,,,,,,,,,,,,,,,,,,,,,,,,,,,,,,,,,,,,,,,,,,,,,,,,,9443.722834400134,None,,,,,,,,,,,,,,,,,,,,,,,,,,,,,,,,,,,,,,,,,,,,,,,,,,,,,,,,,dream,64,66,silent,old,yellow,9442.35024160007,None,n,9442.35024160007,None,"['n', 'return']","[1.096635599853471, 1.3286437999922782]",9442.35024160007,None,,,21NC,001,2023_Mar_08_1819,ExactRep-v3-final,2021.2.3,59.993544757176934,
,,,,,,,,,,,,66,0,66,0,,,,,,,,,,,,,,,,,,,,,,,,,,,,,,,,,,,,,,,,,,,,,,,,,9445.09090099996,None,,,,,,,,,,,,,,,,,,,,,,,,,,,,,,,,,,,,,,,,,,,,,,,,,,,,,,,,,weapon,4,67,sing,old,yellow,9444.237522999989,None,y,9444.237522999989,None,"['y', 'return']","[0.6173203999642283, 0.8175454000011086]",9444.237522999989,None,,,21NC,001,2023_Mar_08_1819,ExactRep-v3-final,2021.2.3,59.993544757176934,
,,,,,,,,,,,,67,0,67,0,,,,,,,,,,,,,,,,,,,,,,,,,,,,,,,,,,,,,,,,,,,,,,,,,9446.742531900061,None,,,,,,,,,,,,,,,,,,,,,,,,,,,,,,,,,,,,,,,,,,,,,,,,,,,,,,,,,beast,136,68,silent,new,yellow,9445.591317800106,None,y,9445.591317800106,None,"['y', 'return']","[0.9837615999858826, 1.1196115999482572]",9445.591317800106,None,,,21NC,001,2023_Mar_08_1819,ExactRep-v3-final,2021.2.3,59.993544757176934,
,,,,,,,,,,,,68,0,68,0,,,,,,,,,,,,,,,,,,,,,,,,,,,,,,,,,,,,,,,,,,,,,,,,,9448.22748979996,None,,,,,,,,,,,,,,,,,,,,,,,,,,,,,,,,,,,,,,,,,,,,,,,,,,,,,,,,,green,38,69,sing,old,yellow,9447.251831399975,None,y,9447.251831399975,None,"['y', 'return']","[0.7390958000905812, 0.9390875000972301]",9447.251831399975,None,,,21NC,001,2023_Mar_08_1819,ExactRep-v3-final,2021.2.3,59.993544757176934,
,,,,,,,,,,,,69,0,69,0,,,,,,,,,,,,,,,,,,,,,,,,,,,,,,,,,,,,,,,,,,,,,,,,,9452.91552140005,None,,,,,,,,,,,,,,,,,,,,,,,,,,,,,,,,,,,,,,,,,,,,,,,,,,,,,,,,,answer,224,70,aloud,new,yellow,9448.742929100059,None,y,9448.742929100059,None,"['return', 'y', 'return']","[3.2480290001258254, 3.6719508999958634, 4.13606350007467]",9448.742929100059,None,,,21NC,001,2023_Mar_08_1819,ExactRep-v3-final,2021.2.3,59.993544757176934,
,,,,,,,,,,,,70,0,70,0,,,,,,,,,,,,,,,,,,,,,,,,,,,,,,,,,,,,,,,,,,,,,,,,,9455.401185299968,None,,,,,,,,,,,,,,,,,,,,,,,,,,,,,,,,,,,,,,,,,,,,,,,,,,,,,,,,,village,231,71,sing,new,yellow,9453.417248800164,None,n,9453.417248800164,None,"['n', 'return']","[1.6616393001750112, 1.941760300192982]",9453.417248800164,None,,,21NC,001,2023_Mar_08_1819,ExactRep-v3-final,2021.2.3,59.993544757176934,
,,,,,,,,,,,,71,0,71,0,,,,,,,,,,,,,,,,,,,,,,,,,,,,,,,,,,,,,,,,,,,,,,,,,9457.553261900088,None,,,,,,,,,,,,,,,,,,,,,,,,,,,,,,,,,,,,,,,,,,,,,,,,,,,,,,,,,mother,3,72,sing,old,yellow,9455.909626800101,None,y,9455.909626800101,None,"['y', 'return']","[1.4652903999667615, 1.6095863999798894]",9455.909626800101,None,,,21NC,001,2023_Mar_08_1819,ExactRep-v3-final,2021.2.3,59.993544757176934,
,,,,,,,,,,,,72,0,72,0,,,,,,,,,,,,,,,,,,,,,,,,,,,,,,,,,,,,,,,,,,,,,,,,,9459.138252299977,None,,,,,,,,,,,,,,,,,,,,,,,,,,,,,,,,,,,,,,,,,,,,,,,,,,,,,,,,,pupil,128,73,silent,new,yellow,9458.060595000163,None,n,9458.060595000163,None,"['n', 'return']","[0.8663858999498188, 1.03443400003016]",9458.060595000163,None,,,21NC,001,2023_Mar_08_1819,ExactRep-v3-final,2021.2.3,59.993544757176934,
,,,,,,,,,,,,73,0,73,0,,,,,,,,,,,,,,,,,,,,,,,,,,,,,,,,,,,,,,,,,,,,,,,,,9460.506450799992,None,,,,,,,,,,,,,,,,,,,,,,,,,,,,,,,,,,,,,,,,,,,,,,,,,,,,,,,,,church,9,74,sing,old,yellow,9459.66271049995,None,y,9459.66271049995,None,"['y', 'return']","[0.6242307999636978, 0.8084084999281913]",9459.66271049995,None,,,21NC,001,2023_Mar_08_1819,ExactRep-v3-final,2021.2.3,59.993544757176934,
,,,,,,,,,,,,74,0,74,0,,,,,,,,,,,,,,,,,,,,,,,,,,,,,,,,,,,,,,,,,,,,,,,,,9462.591708500171,None,,,,,,,,,,,,,,,,,,,,,,,,,,,,,,,,,,,,,,,,,,,,,,,,,,,,,,,,,dollar,101,75,aloud,old,yellow,9461.016488000052,None,n,9461.016488000052,None,"['n', 'return']","[1.3903812998905778, 1.5344920998904854]",9461.016488000052,None,,,21NC,001,2023_Mar_08_1819,ExactRep-v3-final,2021.2.3,59.993544757176934,
,,,,,,,,,,,,75,0,75,0,,,,,,,,,,,,,,,,,,,,,,,,,,,,,,,,,,,,,,,,,,,,,,,,,9463.876289200038,None,,,,,,,,,,,,,,,,,,,,,,,,,,,,,,,,,,,,,,,,,,,,,,,,,,,,,,,,,door,171,76,sing,new,yellow,9463.105811099987,None,n,9463.105811099987,None,"['n', 'return']","[0.44517290010116994, 0.7331093000248075]",9463.105811099987,None,,,21NC,001,2023_Mar_08_1819,ExactRep-v3-final,2021.2.3,59.993544757176934,
,,,,,,,,,,,,76,0,76,0,,,,,,,,,,,,,,,,,,,,,,,,,,,,,,,,,,,,,,,,,,,,,,,,,9465.46123980009,None,,,,,,,,,,,,,,,,,,,,,,,,,,,,,,,,,,,,,,,,,,,,,,,,,,,,,,,,,judge,79,77,sing,old,yellow,9464.376810200047,None,n,9464.376810200047,None,"['n', 'return']","[0.6701679001562297, 1.046201900113374]",9464.376810200047,None,,,21NC,001,2023_Mar_08_1819,ExactRep-v3-final,2021.2.3,59.993544757176934,
,,,,,,,,,,,,77,0,77,0,,,,,,,,,,,,,,,,,,,,,,,,,,,,,,,,,,,,,,,,,,,,,,,,,9466.946112600155,None,,,,,,,,,,,,,,,,,,,,,,,,,,,,,,,,,,,,,,,,,,,,,,,,,,,,,,,,,hour,112,78,aloud,old,yellow,9465.966199900024,None,y,9465.966199900024,None,"['y', 'return']","[0.7927897998597473, 0.9448420000262558]",9465.966199900024,None,,,21NC,001,2023_Mar_08_1819,ExactRep-v3-final,2021.2.3,59.993544757176934,
,,,,,,,,,,,,78,0,78,0,,,,,,,,,,,,,,,,,,,,,,,,,,,,,,,,,,,,,,,,,,,,,,,,,9469.381767200073,None,,,,,,,,,,,,,,,,,,,,,,,,,,,,,,,,,,,,,,,,,,,,,,,,,,,,,,,,,pole,27,79,sing,old,yellow,9467.44667460001,None,n,9467.44667460001,None,"['n', 'return']","[0.760323999915272, 1.8963374998420477]",9467.44667460001,None,,,21NC,001,2023_Mar_08_1819,ExactRep-v3-final,2021.2.3,59.993544757176934,
,,,,,,,,,,,,79,0,79,0,,,,,,,,,,,,,,,,,,,,,,,,,,,,,,,,,,,,,,,,,,,,,,,,,9471.233684000093,None,,,,,,,,,,,,,,,,,,,,,,,,,,,,,,,,,,,,,,,,,,,,,,,,,,,,,,,,,troops,80,80,aloud,old,yellow,9469.892891100142,None,n,9469.892891100142,None,"['n', 'return']","[1.058056800160557, 1.3060622001066804]",9469.892891100142,None,,,21NC,001,2023_Mar_08_1819,ExactRep-v3-final,2021.2.3,59.993544757176934,
,,,,,,,,,,,,80,0,80,0,,,,,,,,,,,,,,,,,,,,,,,,,,,,,,,,,,,,,,,,,,,,,,,,,9472.718513299944,None,,,,,,,,,,,,,,,,,,,,,,,,,,,,,,,,,,,,,,,,,,,,,,,,,,,,,,,,,idea,35,81,sing,old,yellow,9471.738097500056,None,y,9471.738097500056,None,"['y', 'return']","[0.7009801999665797, 0.9329029999207705]",9471.738097500056,None,,,21NC,001,2023_Mar_08_1819,ExactRep-v3-final,2021.2.3,59.993544757176934,
,,,,,,,,,,,,81,0,81,0,,,,,,,,,,,,,,,,,,,,,,,,,,,,,,,,,,,,,,,,,,,,,,,,,9474.737105000066,None,,,,,,,,,,,,,,,,,,,,,,,,,,,,,,,,,,,,,,,,,,,,,,,,,,,,,,,,,college,0,82,sing,old,yellow,9473.22627250012,None,n,9473.22627250012,None,"['n', 'return']","[1.2767505999654531, 1.4765735000837594]",9473.22627250012,None,,,21NC,001,2023_Mar_08_1819,ExactRep-v3-final,2021.2.3,59.993544757176934,
,,,,,,,,,,,,82,0,82,0,,,,,,,,,,,,,,,,,,,,,,,,,,,,,,,,,,,,,,,,,,,,,,,,,9476.388853800017,None,,,,,,,,,,,,,,,,,,,,,,,,,,,,,,,,,,,,,,,,,,,,,,,,,,,,,,,,,cotton,20,83,sing,old,yellow,9475.249909300124,None,n,9475.249909300124,None,"['n', 'return']","[0.6771899999585003, 1.1011565001681447]",9475.249909300124,None,,,21NC,001,2023_Mar_08_1819,ExactRep-v3-final,2021.2.3,59.993544757176934,
,,,,,,,,,,,,83,0,83,0,,,,,,,,,,,,,,,,,,,,,,,,,,,,,,,,,,,,,,,,,,,,,,,,,9479.291761399945,None,,,,,,,,,,,,,,,,,,,,,,,,,,,,,,,,,,,,,,,,,,,,,,,,,,,,,,,,,flood,65,84,silent,old,yellow,9476.899465700146,None,y,9476.899465700146,None,"['n', 'backspace', 'y', 'return']","[0.8594933999702334, 1.7875361000187695, 1.9956596000120044, 2.3555683998856694]",9476.899465700146,None,,,21NC,001,2023_Mar_08_1819,ExactRep-v3-final,2021.2.3,59.993544757176934,
,,,,,,,,,,,,84,0,84,0,,,,,,,,,,,,,,,,,,,,,,,,,,,,,,,,,,,,,,,,,,,,,,,,,9480.726270500105,None,,,,,,,,,,,,,,,,,,,,,,,,,,,,,,,,,,,,,,,,,,,,,,,,,,,,,,,,,home,151,85,silent,new,yellow,9479.801143400138,None,y,9479.801143400138,None,"['y', 'return']","[0.7259228997863829, 0.8858528998680413]",9479.801143400138,None,,,21NC,001,2023_Mar_08_1819,ExactRep-v3-final,2021.2.3,59.993544757176934,
,,,,,,,,,,,,85,0,85,0,,,,,,,,,,,,,,,,,,,,,,,,,,,,,,,,,,,,,,,,,,,,,,,,,9482.378169700038,None,,,,,,,,,,,,,,,,,,,,,,,,,,,,,,,,,,,,,,,,,,,,,,,,,,,,,,,,,earth,90,86,aloud,old,yellow,9481.237105299952,None,n,9481.237105299952,None,"['n', 'return']","[0.8898357001598924, 1.0978068001568317]",9481.237105299952,None,,,21NC,001,2023_Mar_08_1819,ExactRep-v3-final,2021.2.3,59.993544757176934,
,,,,,,,,,,,,86,0,86,0,,,,,,,,,,,,,,,,,,,,,,,,,,,,,,,,,,,,,,,,,,,,,,,,,9483.963030500105,None,,,,,,,,,,,,,,,,,,,,,,,,,,,,,,,,,,,,,,,,,,,,,,,,,,,,,,,,,paper,184,87,aloud,new,yellow,9482.895208399976,None,n,9482.895208399976,None,"['n', 'return']","[0.8877189999911934, 1.0317544999998063]",9482.895208399976,None,,,21NC,001,2023_Mar_08_1819,ExactRep-v3-final,2021.2.3,59.993544757176934,
,,,,,,,,,,,,87,0,87,0,,,,,,,,,,,,,,,,,,,,,,,,,,,,,,,,,,,,,,,,,,,,,,,,,9485.247624499956,None,,,,,,,,,,,,,,,,,,,,,,,,,,,,,,,,,,,,,,,,,,,,,,,,,,,,,,,,,present,137,88,silent,new,yellow,9484.472453500144,None,n,9484.472453500144,None,"['n', 'return']","[0.5344761000014842, 0.7345251999795437]",9484.472453500144,None,,,21NC,001,2023_Mar_08_1819,ExactRep-v3-final,2021.2.3,59.993544757176934,
,,,,,,,,,,,,88,0,88,0,,,,,,,,,,,,,,,,,,,,,,,,,,,,,,,,,,,,,,,,,,,,,,,,,9486.515647900058,None,,,,,,,,,,,,,,,,,,,,,,,,,,,,,,,,,,,,,,,,,,,,,,,,,,,,,,,,,skin,92,89,aloud,old,yellow,9485.755883000093,None,n,9485.755883000093,None,"['n', 'return']","[0.5550454999320209, 0.7231427999213338]",9485.755883000093,None,,,21NC,001,2023_Mar_08_1819,ExactRep-v3-final,2021.2.3,59.993544757176934,
,,,,,,,,,,,,89,0,89,0,,,,,,,,,,,,,,,,,,,,,,,,,,,,,,,,,,,,,,,,,,,,,,,,,9488.083872999996,None,,,,,,,,,,,,,,,,,,,,,,,,,,,,,,,,,,,,,,,,,,,,,,,,,,,,,,,,,breast,75,90,silent,old,yellow,9487.019551200094,None,n,9487.019551200094,None,"['n', 'return']","[0.8595311997924, 1.019677500007674]",9487.019551200094,None,,,21NC,001,2023_Mar_08_1819,ExactRep-v3-final,2021.2.3,59.993544757176934,
,,,,,,,,,,,,90,0,90,0,,,,,,,,,,,,,,,,,,,,,,,,,,,,,,,,,,,,,,,,,,,,,,,,,9489.568688299973,None,,,,,,,,,,,,,,,,,,,,,,,,,,,,,,,,,,,,,,,,,,,,,,,,,,,,,,,,,coast,123,91,silent,new,yellow,9488.596602699952,None,n,9488.596602699952,None,"['n', 'return']","[0.4903541000094265, 0.9303530999459326]",9488.596602699952,None,,,21NC,001,2023_Mar_08_1819,ExactRep-v3-final,2021.2.3,59.993544757176934,
,,,,,,,,,,,,91,0,91,0,,,,,,,,,,,,,,,,,,,,,,,,,,,,,,,,,,,,,,,,,,,,,,,,,9491.971035799943,None,,,,,,,,,,,,,,,,,,,,,,,,,,,,,,,,,,,,,,,,,,,,,,,,,,,,,,,,,winter,227,92,sing,new,yellow,9490.073501100065,None,n,9490.073501100065,None,"['y', 'backspace', 'n', 'return']","[0.6055215999949723, 1.421541800023988, 1.685451199999079, 1.8615880999714136]",9490.073501100065,None,,,21NC,001,2023_Mar_08_1819,ExactRep-v3-final,2021.2.3,59.993544757176934,
,,,,,,,,,,,,92,0,92,0,,,,,,,,,,,,,,,,,,,,,,,,,,,,,,,,,,,,,,,,,,,,,,,,,9493.422557499958,None,,,,,,,,,,,,,,,,,,,,,,,,,,,,,,,,,,,,,,,,,,,,,,,,,,,,,,,,,quality,42,93,silent,old,yellow,9492.487185100093,None,n,9492.487185100093,None,"['n', 'return']","[0.6957866998855025, 0.9038552998099476]",9492.487185100093,None,,,21NC,001,2023_Mar_08_1819,ExactRep-v3-final,2021.2.3,59.993544757176934,
,,,,,,,,,,,,93,0,93,0,,,,,,,,,,,,,,,,,,,,,,,,,,,,,,,,,,,,,,,,,,,,,,,,,9495.75814800011,None,,,,,,,,,,,,,,,,,,,,,,,,,,,,,,,,,,,,,,,,,,,,,,,,,,,,,,,,,corner,86,94,aloud,old,yellow,9493.934027499985,None,y,9493.934027499985,None,"['n', 'backspace', 'y', 'return']","[0.44094039988704026, 1.192981099942699, 1.4408304998651147, 1.7849789999891073]",9493.934027499985,None,,,21NC,001,2023_Mar_08_1819,ExactRep-v3-final,2021.2.3,59.993544757176934,
,,,,,,,,,,,,94,0,94,0,,,,,,,,,,,,,,,,,,,,,,,,,,,,,,,,,,,,,,,,,,,,,,,,,9498.427485400112,None,,,,,,,,,,,,,,,,,,,,,,,,,,,,,,,,,,,,,,,,,,,,,,,,,,,,,,,,,brain,131,95,silent,new,yellow,9496.26493740012,None,y,9496.26493740012,None,"['y', 'return']","[1.782175599830225, 2.1261854998301715]",9496.26493740012,None,,,21NC,001,2023_Mar_08_1819,ExactRep-v3-final,2021.2.3,59.993544757176934,
,,,,,,,,,,,,95,0,95,0,,,,,,,,,,,,,,,,,,,,,,,,,,,,,,,,,,,,,,,,,,,,,,,,,9499.928961399943,None,,,,,,,,,,,,,,,,,,,,,,,,,,,,,,,,,,,,,,,,,,,,,,,,,,,,,,,,,life,163,96,sing,new,yellow,9498.93972730008,None,n,9498.93972730008,None,"['n', 'return']","[0.7394856000319123, 0.9471484001260251]",9498.93972730008,None,,,21NC,001,2023_Mar_08_1819,ExactRep-v3-final,2021.2.3,59.993544757176934,
,,,,,,,,,,,,96,0,96,0,,,,,,,,,,,,,,,,,,,,,,,,,,,,,,,,,,,,,,,,,,,,,,,,,9501.764311000006,None,,,,,,,,,,,,,,,,,,,,,,,,,,,,,,,,,,,,,,,,,,,,,,,,,,,,,,,,,grief,109,97,aloud,old,yellow,9500.436731999973,None,n,9500.436731999973,None,"['n', 'return']","[1.0983353001065552, 1.2822839999571443]",9500.436731999973,None,,,21NC,001,2023_Mar_08_1819,ExactRep-v3-final,2021.2.3,59.993544757176934,
,,,,,,,,,,,,97,0,97,0,,,,,,,,,,,,,,,,,,,,,,,,,,,,,,,,,,,,,,,,,,,,,,,,,9504.400122100022,None,,,,,,,,,,,,,,,,,,,,,,,,,,,,,,,,,,,,,,,,,,,,,,,,,,,,,,,,,freedom,161,98,sing,new,yellow,9502.270860100165,None,y,9502.270860100165,None,"['y', 'return']","[1.9040795001201332, 2.0962557001039386]",9502.270860100165,None,,,21NC,001,2023_Mar_08_1819,ExactRep-v3-final,2021.2.3,59.993544757176934,
,,,,,,,,,,,,98,0,98,0,,,,,,,,,,,,,,,,,,,,,,,,,,,,,,,,,,,,,,,,,,,,,,,,,9505.901606400032,None,,,,,,,,,,,,,,,,,,,,,,,,,,,,,,,,,,,,,,,,,,,,,,,,,,,,,,,,,teacher,113,99,aloud,old,yellow,9504.900565900141,None,y,9504.900565900141,None,"['y', 'return']","[0.7306137999985367, 0.954446799820289]",9504.900565900141,None,,,21NC,001,2023_Mar_08_1819,ExactRep-v3-final,2021.2.3,59.993544757176934,
,,,,,,,,,,,,99,0,99,0,,,,,,,,,,,,,,,,,,,,,,,,,,,,,,,,,,,,,,,,,,,,,,,,,9507.219673000043,None,,,,,,,,,,,,,,,,,,,,,,,,,,,,,,,,,,,,,,,,,,,,,,,,,,,,,,,,,world,164,100,aloud,new,yellow,9506.411911000032,None,y,9506.411911000032,None,"['y', 'return']","[0.5711369998753071, 0.7630527999717742]",9506.411911000032,None,,,21NC,001,2023_Mar_08_1819,ExactRep-v3-final,2021.2.3,59.993544757176934,
,,,,,,,,,,,,100,0,100,0,,,,,,,,,,,,,,,,,,,,,,,,,,,,,,,,,,,,,,,,,,,,,,,,,9508.671289799968,None,,,,,,,,,,,,,,,,,,,,,,,,,,,,,,,,,,,,,,,,,,,,,,,,,,,,,,,,,style,173,101,sing,new,yellow,9507.725624500075,None,n,9507.725624500075,None,"['return', 'n', 'return']","[0.3693354001734406, 0.7293081001844257, 0.9133878999855369]",9507.725624500075,None,,,21NC,001,2023_Mar_08_1819,ExactRep-v3-final,2021.2.3,59.993544757176934,
,,,,,,,,,,,,101,0,101,0,,,,,,,,,,,,,,,,,,,,,,,,,,,,,,,,,,,,,,,,,,,,,,,,,9509.938986400142,None,,,,,,,,,,,,,,,,,,,,,,,,,,,,,,,,,,,,,,,,,,,,,,,,,,,,,,,,,wife,198,102,aloud,new,yellow,9509.178524600109,None,y,9509.178524600109,None,"['y', 'return']","[0.532593300100416, 0.7166429001372308]",9509.178524600109,None,,,21NC,001,2023_Mar_08_1819,ExactRep-v3-final,2021.2.3,59.993544757176934,
,,,,,,,,,,,,102,0,102,0,,,,,,,,,,,,,,,,,,,,,,,,,,,,,,,,,,,,,,,,,,,,,,,,,9511.240290099988,None,,,,,,,,,,,,,,,,,,,,,,,,,,,,,,,,,,,,,,,,,,,,,,,,,,,,,,,,,shock,201,103,sing,new,yellow,9510.449404600076,None,n,9510.449404600076,None,"['n', 'return']","[0.5894774000626057, 0.7578141000121832]",9510.449404600076,None,,,21NC,001,2023_Mar_08_1819,ExactRep-v3-final,2021.2.3,59.993544757176934,
,,,,,,,,,,,,103,0,103,0,,,,,,,,,,,,,,,,,,,,,,,,,,,,,,,,,,,,,,,,,,,,,,,,,9512.675065299962,None,,,,,,,,,,,,,,,,,,,,,,,,,,,,,,,,,,,,,,,,,,,,,,,,,,,,,,,,,deed,63,104,silent,old,yellow,9511.747409000061,None,y,9511.747409000061,None,"['y', 'return']","[0.6835864000022411, 0.8916760999709368]",9511.747409000061,None,,,21NC,001,2023_Mar_08_1819,ExactRep-v3-final,2021.2.3,59.993544757176934,
,,,,,,,,,,,,104,0,104,0,,,,,,,,,,,,,,,,,,,,,,,,,,,,,,,,,,,,,,,,,,,,,,,,,9514.210042100167,None,,,,,,,,,,,,,,,,,,,,,,,,,,,,,,,,,,,,,,,,,,,,,,,,,,,,,,,,,wine,6,105,sing,old,yellow,9513.184463000158,None,y,9513.184463000158,None,"['return', 'y', 'return']","[0.6144776998553425, 0.8465068000368774, 0.9827052999753505]",9513.184463000158,None,,,21NC,001,2023_Mar_08_1819,ExactRep-v3-final,2021.2.3,59.993544757176934,
,,,,,,,,,,,,105,0,105,0,,,,,,,,,,,,,,,,,,,,,,,,,,,,,,,,,,,,,,,,,,,,,,,,,9515.628107300028,None,,,,,,,,,,,,,,,,,,,,,,,,,,,,,,,,,,,,,,,,,,,,,,,,,,,,,,,,,soul,228,106,aloud,new,yellow,9514.718793400098,None,y,9514.718793400098,None,"['y', 'return']","[0.688271600054577, 0.8643197000492364]",9514.718793400098,None,,,21NC,001,2023_Mar_08_1819,ExactRep-v3-final,2021.2.3,59.993544757176934,
,,,,,,,,,,,,106,0,106,0,,,,,,,,,,,,,,,,,,,,,,,,,,,,,,,,,,,,,,,,,,,,,,,,,9517.1463124,None,,,,,,,,,,,,,,,,,,,,,,,,,,,,,,,,,,,,,,,,,,,,,,,,,,,,,,,,,house,147,107,silent,new,yellow,9516.139851100044,None,y,9516.139851100044,None,"['y', 'return']","[0.7631572000682354, 0.9631487000733614]",9516.139851100044,None,,,21NC,001,2023_Mar_08_1819,ExactRep-v3-final,2021.2.3,59.993544757176934,
,,,,,,,,,,,,107,0,107,0,,,,,,,,,,,,,,,,,,,,,,,,,,,,,,,,,,,,,,,,,,,,,,,,,9518.497627099976,None,,,,,,,,,,,,,,,,,,,,,,,,,,,,,,,,,,,,,,,,,,,,,,,,,,,,,,,,,chair,120,108,silent,new,yellow,9517.654165999964,None,y,9517.654165999964,None,"['y', 'return']","[0.6247137000318617, 0.8088408000767231]",9517.654165999964,None,,,21NC,001,2023_Mar_08_1819,ExactRep-v3-final,2021.2.3,59.993544757176934,
,,,,,,,,,,,,108,0,108,0,,,,,,,,,,,,,,,,,,,,,,,,,,,,,,,,,,,,,,,,,,,,,,,,,9520.232987900032,None,,,,,,,,,,,,,,,,,,,,,,,,,,,,,,,,,,,,,,,,,,,,,,,,,,,,,,,,,doll,199,109,sing,new,yellow,9519.007991699968,None,n,9519.007991699968,None,"['n', 'return']","[1.0311323998030275, 1.1834220997989178]",9519.007991699968,None,,,21NC,001,2023_Mar_08_1819,ExactRep-v3-final,2021.2.3,59.993544757176934,
,,,,,,,,,,,,109,0,109,0,,,,,,,,,,,,,,,,,,,,,,,,,,,,,,,,,,,,,,,,,,,,,,,,,9521.901041100034,None,,,,,,,,,,,,,,,,,,,,,,,,,,,,,,,,,,,,,,,,,,,,,,,,,,,,,,,,,flag,7,110,sing,old,yellow,9520.741146600107,None,n,9520.741146600107,None,"['n', 'return']","[0.9459151001647115, 1.12185849994421]",9520.741146600107,None,,,21NC,001,2023_Mar_08_1819,ExactRep-v3-final,2021.2.3,59.993544757176934,
,,,,,,,,,,,,110,0,110,0,,,,,,,,,,,,,,,,,,,,,,,,,,,,,,,,,,,,,,,,,,,,,,,,,9523.102065199986,None,,,,,,,,,,,,,,,,,,,,,,,,,,,,,,,,,,,,,,,,,,,,,,,,,,,,,,,,,method,134,111,silent,new,yellow,9522.406231400091,None,y,9522.406231400091,None,"['y', 'return']","[0.45662260008975863, 0.6486188000999391]",9522.406231400091,None,,,21NC,001,2023_Mar_08_1819,ExactRep-v3-final,2021.2.3,59.993544757176934,
,,,,,,,,,,,,111,0,111,0,,,,,,,,,,,,,,,,,,,,,,,,,,,,,,,,,,,,,,,,,,,,,,,,,9524.20348330005,None,,,,,,,,,,,,,,,,,,,,,,,,,,,,,,,,,,,,,,,,,,,,,,,,,,,,,,,,,circle,195,112,sing,new,yellow,9523.613549700007,None,n,9523.613549700007,None,"['n', 'return']","[0.3933961000293493, 0.5454522001091391]",9523.613549700007,None,,,21NC,001,2023_Mar_08_1819,ExactRep-v3-final,2021.2.3,59.993544757176934,
,,,,,,,,,,,,112,0,112,0,,,,,,,,,,,,,,,,,,,,,,,,,,,,,,,,,,,,,,,,,,,,,,,,,9525.387834300054,None,,,,,,,,,,,,,,,,,,,,,,,,,,,,,,,,,,,,,,,,,,,,,,,,,,,,,,,,,dress,174,113,aloud,new,yellow,9524.713697700063,None,n,9524.713697700063,None,"['n', 'return']","[0.4453475000336766, 0.6375015000812709]",9524.713697700063,None,,,21NC,001,2023_Mar_08_1819,ExactRep-v3-final,2021.2.3,59.993544757176934,
,,,,,,,,,,,,113,0,113,0,,,,,,,,,,,,,,,,,,,,,,,,,,,,,,,,,,,,,,,,,,,,,,,,,9526.90594680002,None,,,,,,,,,,,,,,,,,,,,,,,,,,,,,,,,,,,,,,,,,,,,,,,,,,,,,,,,,stone,237,114,sing,new,yellow,9525.888273000019,None,n,9525.888273000019,None,"['return', 'n', 'return']","[0.7267406000755727, 0.8307894000317901, 0.9747599000111222]",9525.888273000019,None,,,21NC,001,2023_Mar_08_1819,ExactRep-v3-final,2021.2.3,59.993544757176934,
,,,,,,,,,,,,114,0,114,0,,,,,,,,,,,,,,,,,,,,,,,,,,,,,,,,,,,,,,,,,,,,,,,,,9528.090550800087,None,,,,,,,,,,,,,,,,,,,,,,,,,,,,,,,,,,,,,,,,,,,,,,,,,,,,,,,,,pride,142,115,silent,new,yellow,9527.41734470008,None,n,9527.41734470008,None,"['n', 'return']","[0.4377693999558687, 0.6379215000197291]",9527.41734470008,None,,,21NC,001,2023_Mar_08_1819,ExactRep-v3-final,2021.2.3,59.993544757176934,
,,,,,,,,,,,,115,0,115,0,,,,,,,,,,,,,,,,,,,,,,,,,,,,,,,,,,,,,,,,,,,,,,,,,9529.725438100053,None,,,,,,,,,,,,,,,,,,,,,,,,,,,,,,,,,,,,,,,,,,,,,,,,,,,,,,,,,boulder,217,116,sing,new,yellow,9528.591143999947,None,n,9528.591143999947,None,"['n', 'return']","[0.5038131000474095, 1.096107800025493]",9528.591143999947,None,,,21NC,001,2023_Mar_08_1819,ExactRep-v3-final,2021.2.3,59.993544757176934,
,,,,,,,,,,,,116,0,116,0,,,,,,,,,,,,,,,,,,,,,,,,,,,,,,,,,,,,,,,,,,,,,,,,,9530.843279000139,None,,,,,,,,,,,,,,,,,,,,,,,,,,,,,,,,,,,,,,,,,,,,,,,,,,,,,,,,,theory,22,117,sing,old,yellow,9530.235608699964,None,n,9530.235608699964,None,"['n', 'return']","[0.33143540006130934, 0.5714475000277162]",9530.235608699964,None,,,21NC,001,2023_Mar_08_1819,ExactRep-v3-final,2021.2.3,59.993544757176934,
,,,,,,,,,,,,117,0,117,0,,,,,,,,,,,,,,,,,,,,,,,,,,,,,,,,,,,,,,,,,,,,,,,,,9531.994451900013,None,,,,,,,,,,,,,,,,,,,,,,,,,,,,,,,,,,,,,,,,,,,,,,,,,,,,,,,,,army,205,118,sing,new,yellow,9531.355271900073,None,n,9531.355271900073,None,"['n', 'return']","[0.4517886999528855, 0.5958312000147998]",9531.355271900073,None,,,21NC,001,2023_Mar_08_1819,ExactRep-v3-final,2021.2.3,59.993544757176934,
,,,,,,,,,,,,118,0,118,0,,,,,,,,,,,,,,,,,,,,,,,,,,,,,,,,,,,,,,,,,,,,,,,,,9534.130083200056,None,,,,,,,,,,,,,,,,,,,,,,,,,,,,,,,,,,,,,,,,,,,,,,,,,,,,,,,,,boy,190,119,aloud,new,yellow,9532.507546599954,None,n,9532.507546599954,None,"['return', 'n', 'return']","[0.7075527000706643, 1.0755022000521421, 1.5874055000022054]",9532.507546599954,None,,,21NC,001,2023_Mar_08_1819,ExactRep-v3-final,2021.2.3,59.993544757176934,
,,,,,,,,,,,,119,0,119,0,,,,,,,,,,,,,,,,,,,,,,,,,,,,,,,,,,,,,,,,,,,,,,,,,9536.315545700025,None,,,,,,,,,,,,,,,,,,,,,,,,,,,,,,,,,,,,,,,,,,,,,,,,,,,,,,,,,vision,215,120,sing,new,yellow,9534.64174839994,None,y,9534.64174839994,None,"['n', 'backspace', 'y', 'return']","[0.43718460015952587, 1.0692244002129883, 1.3254698000382632, 1.637293300125748]",9534.64174839994,None,,,21NC,001,2023_Mar_08_1819,ExactRep-v3-final,2021.2.3,59.993544757176934,
,,,,,,,,,,,,120,0,120,0,,,,,,,,,,,,,,,,,,,,,,,,,,,,,,,,,,,,,,,,,,,,,,,,,9537.666776299942,None,,,,,,,,,,,,,,,,,,,,,,,,,,,,,,,,,,,,,,,,,,,,,,,,,,,,,,,,,priest,133,121,silent,new,yellow,9536.83405230008,None,n,9536.83405230008,None,"['n', 'return']","[0.6370105999521911, 0.7972188000567257]",9536.83405230008,None,,,21NC,001,2023_Mar_08_1819,ExactRep-v3-final,2021.2.3,59.993544757176934,
,,,,,,,,,,,,121,0,121,0,,,,,,,,,,,,,,,,,,,,,,,,,,,,,,,,,,,,,,,,,,,,,,,,,9539.018135100137,None,,,,,,,,,,,,,,,,,,,,,,,,,,,,,,,,,,,,,,,,,,,,,,,,,,,,,,,,,speech,194,122,aloud,new,yellow,9538.17734230007,None,y,9538.17734230007,None,"['y', 'return']","[0.5736735998652875, 0.8057130998931825]",9538.17734230007,None,,,21NC,001,2023_Mar_08_1819,ExactRep-v3-final,2021.2.3,59.993544757176934,
,,,,,,,,,,,,122,0,122,0,,,,,,,,,,,,,,,,,,,,,,,,,,,,,,,,,,,,,,,,,,,,,,,,,9540.302876400063,None,,,,,,,,,,,,,,,,,,,,,,,,,,,,,,,,,,,,,,,,,,,,,,,,,,,,,,,,,palace,14,123,sing,old,yellow,9539.527541300049,None,y,9539.527541300049,None,"['y', 'return']","[0.575413899961859, 0.7357088001444936]",9539.527541300049,None,,,21NC,001,2023_Mar_08_1819,ExactRep-v3-final,2021.2.3,59.993544757176934,
,,,,,,,,,,,,123,0,123,0,,,,,,,,,,,,,,,,,,,,,,,,,,,,,,,,,,,,,,,,,,,,,,,,,9541.921154600102,None,,,,,,,,,,,,,,,,,,,,,,,,,,,,,,,,,,,,,,,,,,,,,,,,,,,,,,,,,sky,26,124,sing,old,yellow,9540.81058800011,None,y,9540.81058800011,None,"['y', 'return']","[0.7404167000204325, 1.0763866000343114]",9540.81058800011,None,,,21NC,001,2023_Mar_08_1819,ExactRep-v3-final,2021.2.3,59.993544757176934,
,,,,,,,,,,,,124,0,124,0,,,,,,,,,,,,,,,,,,,,,,,,,,,,,,,,,,,,,,,,,,,,,,,,,9543.222276299959,None,,,,,,,,,,,,,,,,,,,,,,,,,,,,,,,,,,,,,,,,,,,,,,,,,,,,,,,,,nail,85,125,aloud,old,yellow,9542.430370300077,None,y,9542.430370300077,None,"['y', 'return']","[0.5925886000040919, 0.7447015999350697]",9542.430370300077,None,,,21NC,001,2023_Mar_08_1819,ExactRep-v3-final,2021.2.3,59.993544757176934,
,,,,,,,,,,,,125,0,125,0,,,,,,,,,,,,,,,,,,,,,,,,,,,,,,,,,,,,,,,,,,,,,,,,,9544.290220099967,None,,,,,,,,,,,,,,,,,,,,,,,,,,,,,,,,,,,,,,,,,,,,,,,,,,,,,,,,,bird,168,126,aloud,new,yellow,9543.734135300154,None,y,9543.734135300154,None,"['y', 'return']","[0.312833100091666, 0.5208507000934333]",9543.734135300154,None,,,21NC,001,2023_Mar_08_1819,ExactRep-v3-final,2021.2.3,59.993544757176934,
,,,,,,,,,,,,126,0,126,0,,,,,,,,,,,,,,,,,,,,,,,,,,,,,,,,,,,,,,,,,,,,,,,,,9545.341216100147,None,,,,,,,,,,,,,,,,,,,,,,,,,,,,,,,,,,,,,,,,,,,,,,,,,,,,,,,,,fault,106,127,aloud,old,yellow,9544.797303,None,y,9544.797303,None,"['y', 'return']","[0.3777598000597209, 0.5057145000901073]",9544.797303,None,,,21NC,001,2023_Mar_08_1819,ExactRep-v3-final,2021.2.3,59.993544757176934,
,,,,,,,,,,,,127,0,127,0,,,,,,,,,,,,,,,,,,,,,,,,,,,,,,,,,,,,,,,,,,,,,,,,,9546.375598700019,None,,,,,,,,,,,,,,,,,,,,,,,,,,,,,,,,,,,,,,,,,,,,,,,,,,,,,,,,,health,175,128,sing,new,yellow,9545.860878300155,None,y,9545.860878300155,None,"['y', 'return']","[0.3541492000222206, 0.48208010010421276]",9545.860878300155,None,,,21NC,001,2023_Mar_08_1819,ExactRep-v3-final,2021.2.3,59.993544757176934,
,,,,,,,,,,,,128,0,128,0,,,,,,,,,,,,,,,,,,,,,,,,,,,,,,,,,,,,,,,,,,,,,,,,,9547.526556900004,None,,,,,,,,,,,,,,,,,,,,,,,,,,,,,,,,,,,,,,,,,,,,,,,,,,,,,,,,,letter,69,129,silent,old,yellow,9546.88356730016,None,y,9546.88356730016,None,"['y', 'return']","[0.45933090010657907, 0.5953971999697387]",9546.88356730016,None,,,21NC,001,2023_Mar_08_1819,ExactRep-v3-final,2021.2.3,59.993544757176934,
,,,,,,,,,,,,129,0,129,0,,,,,,,,,,,,,,,,,,,,,,,,,,,,,,,,,,,,,,,,,,,,,,,,,9548.944720500149,None,,,,,,,,,,,,,,,,,,,,,,,,,,,,,,,,,,,,,,,,,,,,,,,,,,,,,,,,,victory,18,130,sing,old,yellow,9548.037836200092,None,y,9548.037836200092,None,"['y', 'return']","[0.673073299927637, 0.873105299891904]",9548.037836200092,None,,,21NC,001,2023_Mar_08_1819,ExactRep-v3-final,2021.2.3,59.993544757176934,
