trials_fam.thisRepN,trials_fam.thisTrialN,trials_fam.thisN,trials_fam.thisIndex,trials_prc.thisRepN,trials_prc.thisTrialN,trials_prc.thisN,trials_prc.thisIndex,StudyLoop.thisRepN,StudyLoop.thisTrialN,StudyLoop.thisN,StudyLoop.thisIndex,TestLoop.thisRepN,TestLoop.thisTrialN,TestLoop.thisN,TestLoop.thisIndex,text_colortest.started,text_colortest.stopped,key_colortest.keys,key_colortest.rt,key_colortest.started,key_colortest.stopped,textCondition.started,textCondition.stopped,keyCondition.keys,keyCondition.rt,keyCondition.started,keyCondition.stopped,Condition_between,Condition_counterbal,keyWelcome.keys,keyWelcome.rt,keyWelcome.started,keyWelcome.stopped,welcome_a.started,welcome_a.stopped,welcome_b.started,welcome_b.stopped,welcome_c.started,welcome_c.stopped,welcome_d.started,welcome_d.stopped,welcome_e.started,welcome_e.stopped,welcome_f.started,welcome_f.stopped,key_resp_fam_inst.keys,key_resp_fam_inst.rt,key_resp_fam_inst.started,key_resp_fam_inst.stopped,fam_a.started,fam_a.stopped,fam_b.started,fam_b.stopped,fam_c.started,fam_c.stopped,fam_d.started,fam_d.stopped,fam_e.started,fam_e.stopped,fam_f.started,fam_f.stopped,text_famil.started,text_famil.stopped,textBlank500.started,textBlank500.stopped,key_resp_prc_inst.keys,key_resp_prc_inst.rt,key_resp_prc_inst.started,key_resp_prc_inst.stopped,prac_a.started,prac_a.stopped,prac_b.started,prac_b.stopped,prac_c.started,prac_c.stopped,prac_d.started,prac_d.stopped,prac_e.started,prac_e.stopped,prac_f.started,prac_f.stopped,text_prc_trial.started,text_prc_trial.stopped,key_resp_study_inst.keys,key_resp_study_inst.rt,key_resp_study_inst.started,key_resp_study_inst.stopped,crit_a.started,crit_a.stopped,crit_b.started,crit_b.stopped,crit_c.started,crit_c.stopped,crit_d.started,crit_d.stopped,crit_e.started,crit_e.stopped,crit_f.started,crit_f.stopped,study_word,study_num,study_order,study_type,word_color,textStudy.started,textStudy.stopped,keyStudy.keys,keyStudy.started,keyStudy.stopped,post_study.started,post_study.stopped,key_resp_post_study.keys,key_resp_post_study.rt,key_resp_post_study.started,key_resp_post_study.stopped,test_inst.started,test_inst.stopped,key_resp_test_inst.keys,key_resp_test_inst.rt,key_resp_test_inst.started,key_resp_test_inst.stopped,test_word,test_num,test_order,test_condition,old_new_test,word_color_test,textConf.started,textConf.stopped,Participant Response,textInput.started,textInput.stopped,keyResp.keys,keyResp.rt,keyResp.started,keyResp.stopped,textEnd.started,textEnd.stopped,participant,session,date,expName,psychopyVersion,frameRate,
,,,,,,,,,,,,,,,,7306.8400608999655,None,n,2.6471065999940038,7306.8400608999655,None,,,,,,,,,,,,,,,,,,,,,,,,,,,,,,,,,,,,,,,,,,,,,,,,,,,,,,,,,,,,,,,,,,,,,,,,,,,,,,,,,,,,,,,,,,,,,,,,,,,,,,,,,,,,,,,,,,,,,,22ND,001,2023_Mar_10_1134,ExactRep-v3-final,2021.2.3,59.850815876996954,
,,,,,,,,,,,,,,,,,,,,,,7309.5111450999975,None,d,1.5039866999723017,7309.5111450999975,None,,,,,,,,,,,,,,,,,,,,,,,,,,,,,,,,,,,,,,,,,,,,,,,,,,,,,,,,,,,,,,,,,,,,,,,,,,,,,,,,,,,,,,,,,,,,,,,,,,,,,,,,,,,,,,,,22ND,001,2023_Mar_10_1134,ExactRep-v3-final,2021.2.3,59.850815876996954,
,,,,,,,,,,,,,,,,,,,,,,,,,,,,whitefoils,d,space,1718.4093921000604,7321.159550399985,None,,,,,,,,,,,,,,,,,,,,,,,,,,,,,,,,,,,,,,,,,,,,,,,,,,,,,,,,,,,,,,,,,,,,,,,,,,,,,,,,,,,,,,,,,,,,,,,,,,,,,,,,,,22ND,001,2023_Mar_10_1134,ExactRep-v3-final,2021.2.3,59.850815876996954,
,,,,,,,,,,,,,,,,,,,,,,,,,,,,,,,,,,7311.208984199911,None,7311.208984199911,None,7311.208984199911,None,7311.208984199911,None,7311.208984199911,None,7311.208984199911,None,space,35.7887677999679,9049.804115799954,None,,,,,,,,,,,,,,,,,,,,,,,,,,,,,,,,,,,,,,,,,,,,,,,,,,,,,,,,,,,,,,,,,,,,,,,,,,,,,,,,,,,,,,,,,,22ND,001,2023_Mar_10_1134,ExactRep-v3-final,2021.2.3,59.850815876996954,
0,0,0,0,,,,,,,,,,,,,,,,,,,,,,,,,,,,,,,,,,,,,,,,,,,,,,,9039.83906239993,None,9039.83906239993,None,9039.83906239993,None,9039.83906239993,None,9039.83906239993,None,9039.83906239993,None,9085.702350799926,None,9087.706037000054,None,,,,,,,,,,,,,,,,,,,,,,,,,,,,,,,,,,,,,,,,,,,,,,,,,,,,,,,,,,,,,,,,,,,,,,,,,,22ND,001,2023_Mar_10_1134,ExactRep-v3-final,2021.2.3,59.850815876996954,
1,0,1,0,,,,,,,,,,,,,,,,,,,,,,,,,,,,,,,,,,,,,,,,,,,,,,,,,,,,,,,,,,,9088.206577799981,None,9090.2085655001,None,,,,,,,,,,,,,,,,,,,,,,,,,,,,,,,,,,,,,,,,,,,,,,,,,,,,,,,,,,,,,,,,,,,,,,,,,,22ND,001,2023_Mar_10_1134,ExactRep-v3-final,2021.2.3,59.850815876996954,
2,0,2,0,,,,,,,,,,,,,,,,,,,,,,,,,,,,,,,,,,,,,,,,,,,,,,,,,,,,,,,,,,,9090.708857200108,None,9092.71103050001,None,,,,,,,,,,,,,,,,,,,,,,,,,,,,,,,,,,,,,,,,,,,,,,,,,,,,,,,,,,,,,,,,,,,,,,,,,,22ND,001,2023_Mar_10_1134,ExactRep-v3-final,2021.2.3,59.850815876996954,
3,0,3,0,,,,,,,,,,,,,,,,,,,,,,,,,,,,,,,,,,,,,,,,,,,,,,,,,,,,,,,,,,,9093.227517999941,None,9095.230235900031,None,,,,,,,,,,,,,,,,,,,,,,,,,,,,,,,,,,,,,,,,,,,,,,,,,,,,,,,,,,,,,,,,,,,,,,,,,,22ND,001,2023_Mar_10_1134,ExactRep-v3-final,2021.2.3,59.850815876996954,
4,0,4,0,,,,,,,,,,,,,,,,,,,,,,,,,,,,,,,,,,,,,,,,,,,,,,,,,,,,,,,,,,,9095.759427200072,None,9097.749240899924,None,,,,,,,,,,,,,,,,,,,,,,,,,,,,,,,,,,,,,,,,,,,,,,,,,,,,,,,,,,,,,,,,,,,,,,,,,,22ND,001,2023_Mar_10_1134,ExactRep-v3-final,2021.2.3,59.850815876996954,
5,0,5,0,,,,,,,,,,,,,,,,,,,,,,,,,,,,,,,,,,,,,,,,,,,,,,,,,,,,,,,,,,,9098.249824600061,None,9100.251863599988,None,,,,,,,,,,,,,,,,,,,,,,,,,,,,,,,,,,,,,,,,,,,,,,,,,,,,,,,,,,,,,,,,,,,,,,,,,,22ND,001,2023_Mar_10_1134,ExactRep-v3-final,2021.2.3,59.850815876996954,
6,0,6,0,,,,,,,,,,,,,,,,,,,,,,,,,,,,,,,,,,,,,,,,,,,,,,,,,,,,,,,,,,,9100.752216499997,None,9102.754374400014,None,,,,,,,,,,,,,,,,,,,,,,,,,,,,,,,,,,,,,,,,,,,,,,,,,,,,,,,,,,,,,,,,,,,,,,,,,,22ND,001,2023_Mar_10_1134,ExactRep-v3-final,2021.2.3,59.850815876996954,
7,0,7,0,,,,,,,,,,,,,,,,,,,,,,,,,,,,,,,,,,,,,,,,,,,,,,,,,,,,,,,,,,,9103.255653199973,None,9105.256688999943,None,,,,,,,,,,,,,,,,,,,,,,,,,,,,,,,,,,,,,,,,,,,,,,,,,,,,,,,,,,,,,,,,,,,,,,,,,,22ND,001,2023_Mar_10_1134,ExactRep-v3-final,2021.2.3,59.850815876996954,
8,0,8,0,,,,,,,,,,,,,,,,,,,,,,,,,,,,,,,,,,,,,,,,,,,,,,,,,,,,,,,,,,,9105.757273799973,None,9107.75939500006,None,,,,,,,,,,,,,,,,,,,,,,,,,,,,,,,,,,,,,,,,,,,,,,,,,,,,,,,,,,,,,,,,,,,,,,,,,,22ND,001,2023_Mar_10_1134,ExactRep-v3-final,2021.2.3,59.850815876996954,
9,0,9,0,,,,,,,,,,,,,,,,,,,,,,,,,,,,,,,,,,,,,,,,,,,,,,,,,,,,,,,,,,,9108.260001499904,None,9110.261978500057,None,,,,,,,,,,,,,,,,,,,,,,,,,,,,,,,,,,,,,,,,,,,,,,,,,,,,,,,,,,,,,,,,,,,,,,,,,,22ND,001,2023_Mar_10_1134,ExactRep-v3-final,2021.2.3,59.850815876996954,
10,0,10,0,,,,,,,,,,,,,,,,,,,,,,,,,,,,,,,,,,,,,,,,,,,,,,,,,,,,,,,,,,,9110.766532700043,None,9112.78115470009,None,,,,,,,,,,,,,,,,,,,,,,,,,,,,,,,,,,,,,,,,,,,,,,,,,,,,,,,,,,,,,,,,,,,,,,,,,,22ND,001,2023_Mar_10_1134,ExactRep-v3-final,2021.2.3,59.850815876996954,
11,0,11,0,,,,,,,,,,,,,,,,,,,,,,,,,,,,,,,,,,,,,,,,,,,,,,,,,,,,,,,,,,,9113.28177329991,None,9115.283795099938,None,,,,,,,,,,,,,,,,,,,,,,,,,,,,,,,,,,,,,,,,,,,,,,,,,,,,,,,,,,,,,,,,,,,,,,,,,,22ND,001,2023_Mar_10_1134,ExactRep-v3-final,2021.2.3,59.850815876996954,
12,0,12,0,,,,,,,,,,,,,,,,,,,,,,,,,,,,,,,,,,,,,,,,,,,,,,,,,,,,,,,,,,,9115.793055299902,None,9117.802816499956,None,,,,,,,,,,,,,,,,,,,,,,,,,,,,,,,,,,,,,,,,,,,,,,,,,,,,,,,,,,,,,,,,,,,,,,,,,,22ND,001,2023_Mar_10_1134,ExactRep-v3-final,2021.2.3,59.850815876996954,
13,0,13,0,,,,,,,,,,,,,,,,,,,,,,,,,,,,,,,,,,,,,,,,,,,,,,,,,,,,,,,,,,,9118.310038700001,None,9120.321775000077,None,,,,,,,,,,,,,,,,,,,,,,,,,,,,,,,,,,,,,,,,,,,,,,,,,,,,,,,,,,,,,,,,,,,,,,,,,,22ND,001,2023_Mar_10_1134,ExactRep-v3-final,2021.2.3,59.850815876996954,
14,0,14,0,,,,,,,,,,,,,,,,,,,,,,,,,,,,,,,,,,,,,,,,,,,,,,,,,,,,,,,,,,,9120.822338100057,None,9122.824265399948,None,,,,,,,,,,,,,,,,,,,,,,,,,,,,,,,,,,,,,,,,,,,,,,,,,,,,,,,,,,,,,,,,,,,,,,,,,,22ND,001,2023_Mar_10_1134,ExactRep-v3-final,2021.2.3,59.850815876996954,
,,,,,,,,,,,,,,,,,,,,,,,,,,,,,,,,,,,,,,,,,,,,,,,,,,,,,,,,,,,,,,,,,,space,38.96511490014382,9133.516315799905,None,,,,,,,,,,,,,,,,,,,,,,,,,,,,,,,,,,,,,,,,,,,,,,,,,,,,,,,,,,,,,,,,,,,,,,22ND,001,2023_Mar_10_1134,ExactRep-v3-final,2021.2.3,59.850815876996954,
,,,,0,0,0,0,,,,,,,,,,,,,,,,,,,,,,,,,,,,,,,,,,,,,,,,,,,,,,,,,,,,,,,,,9174.57625579997,None,,,,,9123.550888699945,None,9123.550888699945,None,9123.550888699945,None,9123.550888699945,None,9123.550888699945,None,9123.550888699945,None,9172.562922199955,None,,,,,,,,,,,,,,,,,,,,,,,,,,,,,,,,,,,,,,,,,,,,,,,,,,,,,,,,22ND,001,2023_Mar_10_1134,ExactRep-v3-final,2021.2.3,59.850815876996954,
,,,,1,0,1,0,,,,,,,,,,,,,,,,,,,,,,,,,,,,,,,,,,,,,,,,,,,,,,,,,,,,,,,,,9177.078740499914,None,,,,,,,,,,,,,,,,,9175.076534500113,None,,,,,,,,,,,,,,,,,,,,,,,,,,,,,,,,,,,,,,,,,,,,,,,,,,,,,,,,22ND,001,2023_Mar_10_1134,ExactRep-v3-final,2021.2.3,59.850815876996954,
,,,,2,0,2,0,,,,,,,,,,,,,,,,,,,,,,,,,,,,,,,,,,,,,,,,,,,,,,,,,,,,,,,,,9179.581031299895,None,,,,,,,,,,,,,,,,,9177.57908460009,None,,,,,,,,,,,,,,,,,,,,,,,,,,,,,,,,,,,,,,,,,,,,,,,,,,,,,,,,22ND,001,2023_Mar_10_1134,ExactRep-v3-final,2021.2.3,59.850815876996954,
,,,,3,0,3,0,,,,,,,,,,,,,,,,,,,,,,,,,,,,,,,,,,,,,,,,,,,,,,,,,,,,,,,,,9182.083585999906,None,,,,,,,,,,,,,,,,,9180.081732199993,None,,,,,,,,,,,,,,,,,,,,,,,,,,,,,,,,,,,,,,,,,,,,,,,,,,,,,,,,22ND,001,2023_Mar_10_1134,ExactRep-v3-final,2021.2.3,59.850815876996954,
,,,,4,0,4,0,,,,,,,,,,,,,,,,,,,,,,,,,,,,,,,,,,,,,,,,,,,,,,,,,,,,,,,,,9184.586011500098,None,,,,,,,,,,,,,,,,,9182.584124200046,None,,,,,,,,,,,,,,,,,,,,,,,,,,,,,,,,,,,,,,,,,,,,,,,,,,,,,,,,22ND,001,2023_Mar_10_1134,ExactRep-v3-final,2021.2.3,59.850815876996954,
,,,,5,0,5,0,,,,,,,,,,,,,,,,,,,,,,,,,,,,,,,,,,,,,,,,,,,,,,,,,,,,,,,,,9187.088307900121,None,,,,,,,,,,,,,,,,,9185.086527100066,None,,,,,,,,,,,,,,,,,,,,,,,,,,,,,,,,,,,,,,,,,,,,,,,,,,,,,,,,22ND,001,2023_Mar_10_1134,ExactRep-v3-final,2021.2.3,59.850815876996954,
,,,,6,0,6,0,,,,,,,,,,,,,,,,,,,,,,,,,,,,,,,,,,,,,,,,,,,,,,,,,,,,,,,,,9189.591061099898,None,,,,,,,,,,,,,,,,,9187.589032999938,None,,,,,,,,,,,,,,,,,,,,,,,,,,,,,,,,,,,,,,,,,,,,,,,,,,,,,,,,22ND,001,2023_Mar_10_1134,ExactRep-v3-final,2021.2.3,59.850815876996954,
,,,,7,0,7,0,,,,,,,,,,,,,,,,,,,,,,,,,,,,,,,,,,,,,,,,,,,,,,,,,,,,,,,,,9192.093469199957,None,,,,,,,,,,,,,,,,,9190.091465299949,None,,,,,,,,,,,,,,,,,,,,,,,,,,,,,,,,,,,,,,,,,,,,,,,,,,,,,,,,22ND,001,2023_Mar_10_1134,ExactRep-v3-final,2021.2.3,59.850815876996954,
,,,,8,0,8,0,,,,,,,,,,,,,,,,,,,,,,,,,,,,,,,,,,,,,,,,,,,,,,,,,,,,,,,,,9194.596268200083,None,,,,,,,,,,,,,,,,,9192.594054300105,None,,,,,,,,,,,,,,,,,,,,,,,,,,,,,,,,,,,,,,,,,,,,,,,,,,,,,,,,22ND,001,2023_Mar_10_1134,ExactRep-v3-final,2021.2.3,59.850815876996954,
,,,,9,0,9,0,,,,,,,,,,,,,,,,,,,,,,,,,,,,,,,,,,,,,,,,,,,,,,,,,,,,,,,,,9197.09873489989,None,,,,,,,,,,,,,,,,,9195.096556199947,None,,,,,,,,,,,,,,,,,,,,,,,,,,,,,,,,,,,,,,,,,,,,,,,,,,,,,,,,22ND,001,2023_Mar_10_1134,ExactRep-v3-final,2021.2.3,59.850815876996954,
,,,,10,0,10,0,,,,,,,,,,,,,,,,,,,,,,,,,,,,,,,,,,,,,,,,,,,,,,,,,,,,,,,,,9199.601121400017,None,,,,,,,,,,,,,,,,,9197.599118799902,None,,,,,,,,,,,,,,,,,,,,,,,,,,,,,,,,,,,,,,,,,,,,,,,,,,,,,,,,22ND,001,2023_Mar_10_1134,ExactRep-v3-final,2021.2.3,59.850815876996954,
,,,,11,0,11,0,,,,,,,,,,,,,,,,,,,,,,,,,,,,,,,,,,,,,,,,,,,,,,,,,,,,,,,,,9202.103793200105,None,,,,,,,,,,,,,,,,,9200.101735200034,None,,,,,,,,,,,,,,,,,,,,,,,,,,,,,,,,,,,,,,,,,,,,,,,,,,,,,,,,22ND,001,2023_Mar_10_1134,ExactRep-v3-final,2021.2.3,59.850815876996954,
,,,,12,0,12,0,,,,,,,,,,,,,,,,,,,,,,,,,,,,,,,,,,,,,,,,,,,,,,,,,,,,,,,,,9204.605990600074,None,,,,,,,,,,,,,,,,,9202.60415109992,None,,,,,,,,,,,,,,,,,,,,,,,,,,,,,,,,,,,,,,,,,,,,,,,,,,,,,,,,22ND,001,2023_Mar_10_1134,ExactRep-v3-final,2021.2.3,59.850815876996954,
,,,,13,0,13,0,,,,,,,,,,,,,,,,,,,,,,,,,,,,,,,,,,,,,,,,,,,,,,,,,,,,,,,,,9207.108772800071,None,,,,,,,,,,,,,,,,,9205.106977100018,None,,,,,,,,,,,,,,,,,,,,,,,,,,,,,,,,,,,,,,,,,,,,,,,,,,,,,,,,22ND,001,2023_Mar_10_1134,ExactRep-v3-final,2021.2.3,59.850815876996954,
,,,,14,0,14,0,,,,,,,,,,,,,,,,,,,,,,,,,,,,,,,,,,,,,,,,,,,,,,,,,,,,,,,,,9209.611258700024,None,,,,,,,,,,,,,,,,,9207.60930390004,None,,,,,,,,,,,,,,,,,,,,,,,,,,,,,,,,,,,,,,,,,,,,,,,,,,,,,,,,22ND,001,2023_Mar_10_1134,ExactRep-v3-final,2021.2.3,59.850815876996954,
,,,,,,,,,,,,,,,,,,,,,,,,,,,,,,,,,,,,,,,,,,,,,,,,,,,,,,,,,,,,,,,,,,,,,,,,,,,,,,,,,,,,space,20.78924549999647,9220.227909900015,None,,,,,,,,,,,,,,,,,,,,,,,,,,,,,,,,,,,,,,,,,,,,,,,,,,,,22ND,001,2023_Mar_10_1134,ExactRep-v3-final,2021.2.3,59.850815876996954,
,,,,,,,,0,0,0,0,,,,,,,,,,,,,,,,,,,,,,,,,,,,,,,,,,,,,,,,,,,,,,,,,,,,,9243.094556099968,None,,,,,,,,,,,,,,,,,,,,,,,9210.30628810008,None,9210.30628810008,None,9210.30628810008,None,9210.30628810008,None,9210.30628810008,None,9210.30628810008,None,coffee,9,1,sing,red,9241.095420199912,None,None,9241.095420199912,None,,,,,,,,,,,,,,,,,,,,,,,,,,,,,,22ND,001,2023_Mar_10_1134,ExactRep-v3-final,2021.2.3,59.850815876996954,
,,,,,,,,1,0,1,0,,,,,,,,,,,,,,,,,,,,,,,,,,,,,,,,,,,,,,,,,,,,,,,,,,,,,9245.597219699994,None,,,,,,,,,,,,,,,,,,,,,,,,,,,,,,,,,,,silence,94,2,aloud,blue,9243.597688100068,None,None,9243.597688100068,None,,,,,,,,,,,,,,,,,,,,,,,,,,,,,,22ND,001,2023_Mar_10_1134,ExactRep-v3-final,2021.2.3,59.850815876996954,
,,,,,,,,2,0,2,0,,,,,,,,,,,,,,,,,,,,,,,,,,,,,,,,,,,,,,,,,,,,,,,,,,,,,9248.09955370007,None,,,,,,,,,,,,,,,,,,,,,,,,,,,,,,,,,,,shore,48,3,silent,white,9246.097708899993,None,None,9246.097708899993,None,,,,,,,,,,,,,,,,,,,,,,,,,,,,,,22ND,001,2023_Mar_10_1134,ExactRep-v3-final,2021.2.3,59.850815876996954,
,,,,,,,,3,0,3,0,,,,,,,,,,,,,,,,,,,,,,,,,,,,,,,,,,,,,,,,,,,,,,,,,,,,,9250.602131899912,None,,,,,,,,,,,,,,,,,,,,,,,,,,,,,,,,,,,dress,27,4,sing,red,9248.601683800109,None,None,9248.601683800109,None,,,,,,,,,,,,,,,,,,,,,,,,,,,,,,22ND,001,2023_Mar_10_1134,ExactRep-v3-final,2021.2.3,59.850815876996954,
,,,,,,,,4,0,4,0,,,,,,,,,,,,,,,,,,,,,,,,,,,,,,,,,,,,,,,,,,,,,,,,,,,,,9253.12133949995,None,,,,,,,,,,,,,,,,,,,,,,,,,,,,,,,,,,,winter,118,5,aloud,blue,9251.107733800076,None,None,9251.107733800076,None,,,,,,,,,,,,,,,,,,,,,,,,,,,,,,22ND,001,2023_Mar_10_1134,ExactRep-v3-final,2021.2.3,59.850815876996954,
,,,,,,,,5,0,5,0,,,,,,,,,,,,,,,,,,,,,,,,,,,,,,,,,,,,,,,,,,,,,,,,,,,,,9255.64067610004,None,,,,,,,,,,,,,,,,,,,,,,,,,,,,,,,,,,,forest,99,6,aloud,blue,9253.626729900017,None,None,9253.626729900017,None,,,,,,,,,,,,,,,,,,,,,,,,,,,,,,22ND,001,2023_Mar_10_1134,ExactRep-v3-final,2021.2.3,59.850815876996954,
,,,,,,,,6,0,6,0,,,,,,,,,,,,,,,,,,,,,,,,,,,,,,,,,,,,,,,,,,,,,,,,,,,,,9258.14309170004,None,,,,,,,,,,,,,,,,,,,,,,,,,,,,,,,,,,,city,44,7,silent,white,9256.141833000118,None,None,9256.141833000118,None,,,,,,,,,,,,,,,,,,,,,,,,,,,,,,22ND,001,2023_Mar_10_1134,ExactRep-v3-final,2021.2.3,59.850815876996954,
,,,,,,,,7,0,7,0,,,,,,,,,,,,,,,,,,,,,,,,,,,,,,,,,,,,,,,,,,,,,,,,,,,,,9260.66219819989,None,,,,,,,,,,,,,,,,,,,,,,,,,,,,,,,,,,,queen,35,8,sing,red,9258.647446899908,None,None,9258.647446899908,None,,,,,,,,,,,,,,,,,,,,,,,,,,,,,,22ND,001,2023_Mar_10_1134,ExactRep-v3-final,2021.2.3,59.850815876996954,
,,,,,,,,8,0,8,0,,,,,,,,,,,,,,,,,,,,,,,,,,,,,,,,,,,,,,,,,,,,,,,,,,,,,9263.164629200008,None,,,,,,,,,,,,,,,,,,,,,,,,,,,,,,,,,,,lad,81,9,aloud,blue,9261.162699799985,None,None,9261.162699799985,None,,,,,,,,,,,,,,,,,,,,,,,,,,,,,,22ND,001,2023_Mar_10_1134,ExactRep-v3-final,2021.2.3,59.850815876996954,
,,,,,,,,9,0,9,0,,,,,,,,,,,,,,,,,,,,,,,,,,,,,,,,,,,,,,,,,,,,,,,,,,,,,9265.667176400078,None,,,,,,,,,,,,,,,,,,,,,,,,,,,,,,,,,,,fact,25,10,sing,red,9263.665087000001,None,None,9263.665087000001,None,,,,,,,,,,,,,,,,,,,,,,,,,,,,,,22ND,001,2023_Mar_10_1134,ExactRep-v3-final,2021.2.3,59.850815876996954,
,,,,,,,,10,0,10,0,,,,,,,,,,,,,,,,,,,,,,,,,,,,,,,,,,,,,,,,,,,,,,,,,,,,,9268.18650349998,None,,,,,,,,,,,,,,,,,,,,,,,,,,,,,,,,,,,sky,14,11,sing,red,9266.176634700038,None,None,9266.176634700038,None,,,,,,,,,,,,,,,,,,,,,,,,,,,,,,22ND,001,2023_Mar_10_1134,ExactRep-v3-final,2021.2.3,59.850815876996954,
,,,,,,,,11,0,11,0,,,,,,,,,,,,,,,,,,,,,,,,,,,,,,,,,,,,,,,,,,,,,,,,,,,,,9270.688992799958,None,,,,,,,,,,,,,,,,,,,,,,,,,,,,,,,,,,,soil,73,12,silent,white,9268.6869802,None,None,9268.6869802,None,,,,,,,,,,,,,,,,,,,,,,,,,,,,,,22ND,001,2023_Mar_10_1134,ExactRep-v3-final,2021.2.3,59.850815876996954,
,,,,,,,,12,0,12,0,,,,,,,,,,,,,,,,,,,,,,,,,,,,,,,,,,,,,,,,,,,,,,,,,,,,,9273.191533900099,None,,,,,,,,,,,,,,,,,,,,,,,,,,,,,,,,,,,leader,13,13,sing,red,9271.190749600064,None,None,9271.190749600064,None,,,,,,,,,,,,,,,,,,,,,,,,,,,,,,22ND,001,2023_Mar_10_1134,ExactRep-v3-final,2021.2.3,59.850815876996954,
,,,,,,,,13,0,13,0,,,,,,,,,,,,,,,,,,,,,,,,,,,,,,,,,,,,,,,,,,,,,,,,,,,,,9275.710635300027,None,,,,,,,,,,,,,,,,,,,,,,,,,,,,,,,,,,,green,69,14,silent,white,9273.695160999894,None,None,9273.695160999894,None,,,,,,,,,,,,,,,,,,,,,,,,,,,,,,22ND,001,2023_Mar_10_1134,ExactRep-v3-final,2021.2.3,59.850815876996954,
,,,,,,,,14,0,14,0,,,,,,,,,,,,,,,,,,,,,,,,,,,,,,,,,,,,,,,,,,,,,,,,,,,,,9278.230018500006,None,,,,,,,,,,,,,,,,,,,,,,,,,,,,,,,,,,,lake,75,15,silent,white,9276.215545600047,None,None,9276.215545600047,None,,,,,,,,,,,,,,,,,,,,,,,,,,,,,,22ND,001,2023_Mar_10_1134,ExactRep-v3-final,2021.2.3,59.850815876996954,
,,,,,,,,15,0,15,0,,,,,,,,,,,,,,,,,,,,,,,,,,,,,,,,,,,,,,,,,,,,,,,,,,,,,9280.748904699925,None,,,,,,,,,,,,,,,,,,,,,,,,,,,,,,,,,,,bottle,93,16,aloud,blue,9278.736303699901,None,None,9278.736303699901,None,,,,,,,,,,,,,,,,,,,,,,,,,,,,,,22ND,001,2023_Mar_10_1134,ExactRep-v3-final,2021.2.3,59.850815876996954,
,,,,,,,,16,0,16,0,,,,,,,,,,,,,,,,,,,,,,,,,,,,,,,,,,,,,,,,,,,,,,,,,,,,,9283.268364599906,None,,,,,,,,,,,,,,,,,,,,,,,,,,,,,,,,,,,home,20,17,sing,red,9281.254039899912,None,None,9281.254039899912,None,,,,,,,,,,,,,,,,,,,,,,,,,,,,,,22ND,001,2023_Mar_10_1134,ExactRep-v3-final,2021.2.3,59.850815876996954,
,,,,,,,,17,0,17,0,,,,,,,,,,,,,,,,,,,,,,,,,,,,,,,,,,,,,,,,,,,,,,,,,,,,,9285.787432600046,None,,,,,,,,,,,,,,,,,,,,,,,,,,,,,,,,,,,money,17,18,sing,red,9283.773129800102,None,None,9283.773129800102,None,,,,,,,,,,,,,,,,,,,,,,,,,,,,,,22ND,001,2023_Mar_10_1134,ExactRep-v3-final,2021.2.3,59.850815876996954,
,,,,,,,,18,0,18,0,,,,,,,,,,,,,,,,,,,,,,,,,,,,,,,,,,,,,,,,,,,,,,,,,,,,,9288.289972099941,None,,,,,,,,,,,,,,,,,,,,,,,,,,,,,,,,,,,church,113,19,aloud,blue,9286.28865240002,None,None,9286.28865240002,None,,,,,,,,,,,,,,,,,,,,,,,,,,,,,,22ND,001,2023_Mar_10_1134,ExactRep-v3-final,2021.2.3,59.850815876996954,
,,,,,,,,19,0,19,0,,,,,,,,,,,,,,,,,,,,,,,,,,,,,,,,,,,,,,,,,,,,,,,,,,,,,9290.809195399983,None,,,,,,,,,,,,,,,,,,,,,,,,,,,,,,,,,,,skin,42,20,silent,white,9288.800085800001,None,None,9288.800085800001,None,,,,,,,,,,,,,,,,,,,,,,,,,,,,,,22ND,001,2023_Mar_10_1134,ExactRep-v3-final,2021.2.3,59.850815876996954,
,,,,,,,,20,0,20,0,,,,,,,,,,,,,,,,,,,,,,,,,,,,,,,,,,,,,,,,,,,,,,,,,,,,,9293.328326599905,None,,,,,,,,,,,,,,,,,,,,,,,,,,,,,,,,,,,paper,92,21,aloud,blue,9291.322438699892,None,None,9291.322438699892,None,,,,,,,,,,,,,,,,,,,,,,,,,,,,,,22ND,001,2023_Mar_10_1134,ExactRep-v3-final,2021.2.3,59.850815876996954,
,,,,,,,,21,0,21,0,,,,,,,,,,,,,,,,,,,,,,,,,,,,,,,,,,,,,,,,,,,,,,,,,,,,,9295.830617500003,None,,,,,,,,,,,,,,,,,,,,,,,,,,,,,,,,,,,heaven,5,22,sing,red,9293.829756400082,None,None,9293.829756400082,None,,,,,,,,,,,,,,,,,,,,,,,,,,,,,,22ND,001,2023_Mar_10_1134,ExactRep-v3-final,2021.2.3,59.850815876996954,
,,,,,,,,22,0,22,0,,,,,,,,,,,,,,,,,,,,,,,,,,,,,,,,,,,,,,,,,,,,,,,,,,,,,9298.349818099989,None,,,,,,,,,,,,,,,,,,,,,,,,,,,,,,,,,,,mother,47,23,silent,white,9296.34083110001,None,None,9296.34083110001,None,,,,,,,,,,,,,,,,,,,,,,,,,,,,,,22ND,001,2023_Mar_10_1134,ExactRep-v3-final,2021.2.3,59.850815876996954,
,,,,,,,,23,0,23,0,,,,,,,,,,,,,,,,,,,,,,,,,,,,,,,,,,,,,,,,,,,,,,,,,,,,,9300.869229200063,None,,,,,,,,,,,,,,,,,,,,,,,,,,,,,,,,,,,teacher,2,24,sing,red,9298.856689099921,None,None,9298.856689099921,None,,,,,,,,,,,,,,,,,,,,,,,,,,,,,,22ND,001,2023_Mar_10_1134,ExactRep-v3-final,2021.2.3,59.850815876996954,
,,,,,,,,24,0,24,0,,,,,,,,,,,,,,,,,,,,,,,,,,,,,,,,,,,,,,,,,,,,,,,,,,,,,9303.38834970002,None,,,,,,,,,,,,,,,,,,,,,,,,,,,,,,,,,,,crime,61,25,silent,white,9301.372983899899,None,None,9301.372983899899,None,,,,,,,,,,,,,,,,,,,,,,,,,,,,,,22ND,001,2023_Mar_10_1134,ExactRep-v3-final,2021.2.3,59.850815876996954,
,,,,,,,,25,0,25,0,,,,,,,,,,,,,,,,,,,,,,,,,,,,,,,,,,,,,,,,,,,,,,,,,,,,,9305.90756410011,None,,,,,,,,,,,,,,,,,,,,,,,,,,,,,,,,,,,pipe,51,26,silent,white,9303.895708000055,None,None,9303.895708000055,None,,,,,,,,,,,,,,,,,,,,,,,,,,,,,,22ND,001,2023_Mar_10_1134,ExactRep-v3-final,2021.2.3,59.850815876996954,
,,,,,,,,26,0,26,0,,,,,,,,,,,,,,,,,,,,,,,,,,,,,,,,,,,,,,,,,,,,,,,,,,,,,9308.409871499985,None,,,,,,,,,,,,,,,,,,,,,,,,,,,,,,,,,,,pole,114,27,aloud,blue,9306.409482700052,None,None,9306.409482700052,None,,,,,,,,,,,,,,,,,,,,,,,,,,,,,,22ND,001,2023_Mar_10_1134,ExactRep-v3-final,2021.2.3,59.850815876996954,
,,,,,,,,27,0,27,0,,,,,,,,,,,,,,,,,,,,,,,,,,,,,,,,,,,,,,,,,,,,,,,,,,,,,9310.912540399935,None,,,,,,,,,,,,,,,,,,,,,,,,,,,,,,,,,,,life,116,28,aloud,blue,9308.910395199899,None,None,9308.910395199899,None,,,,,,,,,,,,,,,,,,,,,,,,,,,,,,22ND,001,2023_Mar_10_1134,ExactRep-v3-final,2021.2.3,59.850815876996954,
,,,,,,,,28,0,28,0,,,,,,,,,,,,,,,,,,,,,,,,,,,,,,,,,,,,,,,,,,,,,,,,,,,,,9313.431799799902,None,,,,,,,,,,,,,,,,,,,,,,,,,,,,,,,,,,,hour,11,29,sing,red,9311.41953939991,None,None,9311.41953939991,None,,,,,,,,,,,,,,,,,,,,,,,,,,,,,,22ND,001,2023_Mar_10_1134,ExactRep-v3-final,2021.2.3,59.850815876996954,
,,,,,,,,29,0,29,0,,,,,,,,,,,,,,,,,,,,,,,,,,,,,,,,,,,,,,,,,,,,,,,,,,,,,9315.950975599932,None,,,,,,,,,,,,,,,,,,,,,,,,,,,,,,,,,,,soul,53,30,silent,white,9313.935318700038,None,None,9313.935318700038,None,,,,,,,,,,,,,,,,,,,,,,,,,,,,,,22ND,001,2023_Mar_10_1134,ExactRep-v3-final,2021.2.3,59.850815876996954,
,,,,,,,,30,0,30,0,,,,,,,,,,,,,,,,,,,,,,,,,,,,,,,,,,,,,,,,,,,,,,,,,,,,,9318.470135600073,None,,,,,,,,,,,,,,,,,,,,,,,,,,,,,,,,,,,fire,32,31,sing,red,9316.461174699944,None,None,9316.461174699944,None,,,,,,,,,,,,,,,,,,,,,,,,,,,,,,22ND,001,2023_Mar_10_1134,ExactRep-v3-final,2021.2.3,59.850815876996954,
,,,,,,,,31,0,31,0,,,,,,,,,,,,,,,,,,,,,,,,,,,,,,,,,,,,,,,,,,,,,,,,,,,,,9320.97266920004,None,,,,,,,,,,,,,,,,,,,,,,,,,,,,,,,,,,,season,23,32,sing,red,9318.971562500112,None,None,9318.971562500112,None,,,,,,,,,,,,,,,,,,,,,,,,,,,,,,22ND,001,2023_Mar_10_1134,ExactRep-v3-final,2021.2.3,59.850815876996954,
,,,,,,,,32,0,32,0,,,,,,,,,,,,,,,,,,,,,,,,,,,,,,,,,,,,,,,,,,,,,,,,,,,,,9323.491582999937,None,,,,,,,,,,,,,,,,,,,,,,,,,,,,,,,,,,,boy,12,33,sing,red,9321.477681000018,None,None,9321.477681000018,None,,,,,,,,,,,,,,,,,,,,,,,,,,,,,,22ND,001,2023_Mar_10_1134,ExactRep-v3-final,2021.2.3,59.850815876996954,
,,,,,,,,33,0,33,0,,,,,,,,,,,,,,,,,,,,,,,,,,,,,,,,,,,,,,,,,,,,,,,,,,,,,9325.994374600006,None,,,,,,,,,,,,,,,,,,,,,,,,,,,,,,,,,,,spirit,86,34,aloud,blue,9323.992170599988,None,None,9323.992170599988,None,,,,,,,,,,,,,,,,,,,,,,,,,,,,,,22ND,001,2023_Mar_10_1134,ExactRep-v3-final,2021.2.3,59.850815876996954,
,,,,,,,,34,0,34,0,,,,,,,,,,,,,,,,,,,,,,,,,,,,,,,,,,,,,,,,,,,,,,,,,,,,,9328.496972700115,None,,,,,,,,,,,,,,,,,,,,,,,,,,,,,,,,,,,history,70,35,silent,white,9326.497617800022,None,None,9326.497617800022,None,,,,,,,,,,,,,,,,,,,,,,,,,,,,,,22ND,001,2023_Mar_10_1134,ExactRep-v3-final,2021.2.3,59.850815876996954,
,,,,,,,,35,0,35,0,,,,,,,,,,,,,,,,,,,,,,,,,,,,,,,,,,,,,,,,,,,,,,,,,,,,,9331.01600640011,None,,,,,,,,,,,,,,,,,,,,,,,,,,,,,,,,,,,fault,85,36,aloud,blue,9329.000364599982,None,None,9329.000364599982,None,,,,,,,,,,,,,,,,,,,,,,,,,,,,,,22ND,001,2023_Mar_10_1134,ExactRep-v3-final,2021.2.3,59.850815876996954,
,,,,,,,,36,0,36,0,,,,,,,,,,,,,,,,,,,,,,,,,,,,,,,,,,,,,,,,,,,,,,,,,,,,,9333.518463599961,None,,,,,,,,,,,,,,,,,,,,,,,,,,,,,,,,,,,fun,97,37,aloud,blue,9331.51636140002,None,None,9331.51636140002,None,,,,,,,,,,,,,,,,,,,,,,,,,,,,,,22ND,001,2023_Mar_10_1134,ExactRep-v3-final,2021.2.3,59.850815876996954,
,,,,,,,,37,0,37,0,,,,,,,,,,,,,,,,,,,,,,,,,,,,,,,,,,,,,,,,,,,,,,,,,,,,,9336.03766199993,None,,,,,,,,,,,,,,,,,,,,,,,,,,,,,,,,,,,ship,83,38,aloud,blue,9334.029524199897,None,None,9334.029524199897,None,,,,,,,,,,,,,,,,,,,,,,,,,,,,,,22ND,001,2023_Mar_10_1134,ExactRep-v3-final,2021.2.3,59.850815876996954,
,,,,,,,,38,0,38,0,,,,,,,,,,,,,,,,,,,,,,,,,,,,,,,,,,,,,,,,,,,,,,,,,,,,,9338.540228100028,None,,,,,,,,,,,,,,,,,,,,,,,,,,,,,,,,,,,table,95,39,aloud,blue,9336.53885110002,None,None,9336.53885110002,None,,,,,,,,,,,,,,,,,,,,,,,,,,,,,,22ND,001,2023_Mar_10_1134,ExactRep-v3-final,2021.2.3,59.850815876996954,
,,,,,,,,39,0,39,0,,,,,,,,,,,,,,,,,,,,,,,,,,,,,,,,,,,,,,,,,,,,,,,,,,,,,9341.042508299928,None,,,,,,,,,,,,,,,,,,,,,,,,,,,,,,,,,,,temple,100,40,aloud,blue,9339.042448400054,None,None,9339.042448400054,None,,,,,,,,,,,,,,,,,,,,,,,,,,,,,,22ND,001,2023_Mar_10_1134,ExactRep-v3-final,2021.2.3,59.850815876996954,
,,,,,,,,40,0,40,0,,,,,,,,,,,,,,,,,,,,,,,,,,,,,,,,,,,,,,,,,,,,,,,,,,,,,9343.561922899913,None,,,,,,,,,,,,,,,,,,,,,,,,,,,,,,,,,,,avenue,1,41,sing,red,9341.553746500053,None,None,9341.553746500053,None,,,,,,,,,,,,,,,,,,,,,,,,,,,,,,22ND,001,2023_Mar_10_1134,ExactRep-v3-final,2021.2.3,59.850815876996954,
,,,,,,,,41,0,41,0,,,,,,,,,,,,,,,,,,,,,,,,,,,,,,,,,,,,,,,,,,,,,,,,,,,,,9346.064524899935,None,,,,,,,,,,,,,,,,,,,,,,,,,,,,,,,,,,,anger,6,42,sing,red,9344.062354099937,None,None,9344.062354099937,None,,,,,,,,,,,,,,,,,,,,,,,,,,,,,,22ND,001,2023_Mar_10_1134,ExactRep-v3-final,2021.2.3,59.850815876996954,
,,,,,,,,42,0,42,0,,,,,,,,,,,,,,,,,,,,,,,,,,,,,,,,,,,,,,,,,,,,,,,,,,,,,9348.566891300026,None,,,,,,,,,,,,,,,,,,,,,,,,,,,,,,,,,,,cat,50,43,silent,white,9346.566469900077,None,None,9346.566469900077,None,,,,,,,,,,,,,,,,,,,,,,,,,,,,,,22ND,001,2023_Mar_10_1134,ExactRep-v3-final,2021.2.3,59.850815876996954,
,,,,,,,,43,0,43,0,,,,,,,,,,,,,,,,,,,,,,,,,,,,,,,,,,,,,,,,,,,,,,,,,,,,,9351.086094900034,None,,,,,,,,,,,,,,,,,,,,,,,,,,,,,,,,,,,blood,89,44,aloud,blue,9349.070681900019,None,None,9349.070681900019,None,,,,,,,,,,,,,,,,,,,,,,,,,,,,,,22ND,001,2023_Mar_10_1134,ExactRep-v3-final,2021.2.3,59.850815876996954,
,,,,,,,,44,0,44,0,,,,,,,,,,,,,,,,,,,,,,,,,,,,,,,,,,,,,,,,,,,,,,,,,,,,,9353.58854310005,None,,,,,,,,,,,,,,,,,,,,,,,,,,,,,,,,,,,chance,72,45,silent,white,9351.588130899938,None,None,9351.588130899938,None,,,,,,,,,,,,,,,,,,,,,,,,,,,,,,22ND,001,2023_Mar_10_1134,ExactRep-v3-final,2021.2.3,59.850815876996954,
,,,,,,,,45,0,45,0,,,,,,,,,,,,,,,,,,,,,,,,,,,,,,,,,,,,,,,,,,,,,,,,,,,,,9356.107841500081,None,,,,,,,,,,,,,,,,,,,,,,,,,,,,,,,,,,,poet,30,46,sing,red,9354.094045599923,None,None,9354.094045599923,None,,,,,,,,,,,,,,,,,,,,,,,,,,,,,,22ND,001,2023_Mar_10_1134,ExactRep-v3-final,2021.2.3,59.850815876996954,
,,,,,,,,46,0,46,0,,,,,,,,,,,,,,,,,,,,,,,,,,,,,,,,,,,,,,,,,,,,,,,,,,,,,9358.610378100071,None,,,,,,,,,,,,,,,,,,,,,,,,,,,,,,,,,,,passion,87,47,aloud,blue,9356.608162899967,None,None,9356.608162899967,None,,,,,,,,,,,,,,,,,,,,,,,,,,,,,,22ND,001,2023_Mar_10_1134,ExactRep-v3-final,2021.2.3,59.850815876996954,
,,,,,,,,47,0,47,0,,,,,,,,,,,,,,,,,,,,,,,,,,,,,,,,,,,,,,,,,,,,,,,,,,,,,9361.112793300068,None,,,,,,,,,,,,,,,,,,,,,,,,,,,,,,,,,,,corn,15,48,sing,red,9359.110745399958,None,None,9359.110745399958,None,,,,,,,,,,,,,,,,,,,,,,,,,,,,,,22ND,001,2023_Mar_10_1134,ExactRep-v3-final,2021.2.3,59.850815876996954,
,,,,,,,,48,0,48,0,,,,,,,,,,,,,,,,,,,,,,,,,,,,,,,,,,,,,,,,,,,,,,,,,,,,,9363.632015299983,None,,,,,,,,,,,,,,,,,,,,,,,,,,,,,,,,,,,charm,103,49,aloud,blue,9361.618591699982,None,None,9361.618591699982,None,,,,,,,,,,,,,,,,,,,,,,,,,,,,,,22ND,001,2023_Mar_10_1134,ExactRep-v3-final,2021.2.3,59.850815876996954,
,,,,,,,,49,0,49,0,,,,,,,,,,,,,,,,,,,,,,,,,,,,,,,,,,,,,,,,,,,,,,,,,,,,,9366.151116299909,None,,,,,,,,,,,,,,,,,,,,,,,,,,,,,,,,,,,weapon,40,50,silent,white,9364.135521600023,None,None,9364.135521600023,None,,,,,,,,,,,,,,,,,,,,,,,,,,,,,,22ND,001,2023_Mar_10_1134,ExactRep-v3-final,2021.2.3,59.850815876996954,
,,,,,,,,50,0,50,0,,,,,,,,,,,,,,,,,,,,,,,,,,,,,,,,,,,,,,,,,,,,,,,,,,,,,9368.653621499892,None,,,,,,,,,,,,,,,,,,,,,,,,,,,,,,,,,,,moral,28,51,sing,red,9366.65149599989,None,None,9366.65149599989,None,,,,,,,,,,,,,,,,,,,,,,,,,,,,,,22ND,001,2023_Mar_10_1134,ExactRep-v3-final,2021.2.3,59.850815876996954,
,,,,,,,,51,0,51,0,,,,,,,,,,,,,,,,,,,,,,,,,,,,,,,,,,,,,,,,,,,,,,,,,,,,,9371.172832400072,None,,,,,,,,,,,,,,,,,,,,,,,,,,,,,,,,,,,valley,117,52,aloud,blue,9369.159224499948,None,None,9369.159224499948,None,,,,,,,,,,,,,,,,,,,,,,,,,,,,,,22ND,001,2023_Mar_10_1134,ExactRep-v3-final,2021.2.3,59.850815876996954,
,,,,,,,,52,0,52,0,,,,,,,,,,,,,,,,,,,,,,,,,,,,,,,,,,,,,,,,,,,,,,,,,,,,,9373.675294700079,None,,,,,,,,,,,,,,,,,,,,,,,,,,,,,,,,,,,coin,63,53,silent,white,9371.674842499895,None,None,9371.674842499895,None,,,,,,,,,,,,,,,,,,,,,,,,,,,,,,22ND,001,2023_Mar_10_1134,ExactRep-v3-final,2021.2.3,59.850815876996954,
,,,,,,,,53,0,53,0,,,,,,,,,,,,,,,,,,,,,,,,,,,,,,,,,,,,,,,,,,,,,,,,,,,,,9376.177673900034,None,,,,,,,,,,,,,,,,,,,,,,,,,,,,,,,,,,,dream,41,54,silent,white,9374.177887199912,None,None,9374.177887199912,None,,,,,,,,,,,,,,,,,,,,,,,,,,,,,,22ND,001,2023_Mar_10_1134,ExactRep-v3-final,2021.2.3,59.850815876996954,
,,,,,,,,54,0,54,0,,,,,,,,,,,,,,,,,,,,,,,,,,,,,,,,,,,,,,,,,,,,,,,,,,,,,9378.697035799967,None,,,,,,,,,,,,,,,,,,,,,,,,,,,,,,,,,,,machine,108,55,aloud,blue,9376.693949300097,None,None,9376.693949300097,None,,,,,,,,,,,,,,,,,,,,,,,,,,,,,,22ND,001,2023_Mar_10_1134,ExactRep-v3-final,2021.2.3,59.850815876996954,
,,,,,,,,55,0,55,0,,,,,,,,,,,,,,,,,,,,,,,,,,,,,,,,,,,,,,,,,,,,,,,,,,,,,9381.199519800022,None,,,,,,,,,,,,,,,,,,,,,,,,,,,,,,,,,,,flesh,62,56,silent,white,9379.199666599976,None,None,9379.199666599976,None,,,,,,,,,,,,,,,,,,,,,,,,,,,,,,22ND,001,2023_Mar_10_1134,ExactRep-v3-final,2021.2.3,59.850815876996954,
,,,,,,,,56,0,56,0,,,,,,,,,,,,,,,,,,,,,,,,,,,,,,,,,,,,,,,,,,,,,,,,,,,,,9383.718517800095,None,,,,,,,,,,,,,,,,,,,,,,,,,,,,,,,,,,,dollar,18,57,sing,red,9381.705677000107,None,None,9381.705677000107,None,,,,,,,,,,,,,,,,,,,,,,,,,,,,,,22ND,001,2023_Mar_10_1134,ExactRep-v3-final,2021.2.3,59.850815876996954,
,,,,,,,,57,0,57,0,,,,,,,,,,,,,,,,,,,,,,,,,,,,,,,,,,,,,,,,,,,,,,,,,,,,,9386.237954299897,None,,,,,,,,,,,,,,,,,,,,,,,,,,,,,,,,,,,plain,31,58,sing,red,9384.223152399994,None,None,9384.223152399994,None,,,,,,,,,,,,,,,,,,,,,,,,,,,,,,22ND,001,2023_Mar_10_1134,ExactRep-v3-final,2021.2.3,59.850815876996954,
,,,,,,,,58,0,58,0,,,,,,,,,,,,,,,,,,,,,,,,,,,,,,,,,,,,,,,,,,,,,,,,,,,,,9388.756872900063,None,,,,,,,,,,,,,,,,,,,,,,,,,,,,,,,,,,,student,3,59,sing,red,9386.74337609997,None,None,9386.74337609997,None,,,,,,,,,,,,,,,,,,,,,,,,,,,,,,22ND,001,2023_Mar_10_1134,ExactRep-v3-final,2021.2.3,59.850815876996954,
,,,,,,,,59,0,59,0,,,,,,,,,,,,,,,,,,,,,,,,,,,,,,,,,,,,,,,,,,,,,,,,,,,,,9391.260311099933,None,,,,,,,,,,,,,,,,,,,,,,,,,,,,,,,,,,,power,57,60,silent,white,9389.257442299975,None,None,9389.257442299975,None,,,,,,,,,,,,,,,,,,,,,,,,,,,,,,22ND,001,2023_Mar_10_1134,ExactRep-v3-final,2021.2.3,59.850815876996954,
,,,,,,,,60,0,60,0,,,,,,,,,,,,,,,,,,,,,,,,,,,,,,,,,,,,,,,,,,,,,,,,,,,,,9393.76213970012,None,,,,,,,,,,,,,,,,,,,,,,,,,,,,,,,,,,,salary,59,61,silent,white,9391.763000000035,None,None,9391.763000000035,None,,,,,,,,,,,,,,,,,,,,,,,,,,,,,,22ND,001,2023_Mar_10_1134,ExactRep-v3-final,2021.2.3,59.850815876996954,
,,,,,,,,61,0,61,0,,,,,,,,,,,,,,,,,,,,,,,,,,,,,,,,,,,,,,,,,,,,,,,,,,,,,9396.2810074999,None,,,,,,,,,,,,,,,,,,,,,,,,,,,,,,,,,,,boulder,43,62,silent,white,9394.272441399982,None,None,9394.272441399982,None,,,,,,,,,,,,,,,,,,,,,,,,,,,,,,22ND,001,2023_Mar_10_1134,ExactRep-v3-final,2021.2.3,59.850815876996954,
,,,,,,,,62,0,62,0,,,,,,,,,,,,,,,,,,,,,,,,,,,,,,,,,,,,,,,,,,,,,,,,,,,,,9398.783716900041,None,,,,,,,,,,,,,,,,,,,,,,,,,,,,,,,,,,,arm,36,63,sing,red,9396.784616400022,None,None,9396.784616400022,None,,,,,,,,,,,,,,,,,,,,,,,,,,,,,,22ND,001,2023_Mar_10_1134,ExactRep-v3-final,2021.2.3,59.850815876996954,
,,,,,,,,63,0,63,0,,,,,,,,,,,,,,,,,,,,,,,,,,,,,,,,,,,,,,,,,,,,,,,,,,,,,9401.303009799914,None,,,,,,,,,,,,,,,,,,,,,,,,,,,,,,,,,,,pride,58,64,silent,white,9399.288745800033,None,None,9399.288745800033,None,,,,,,,,,,,,,,,,,,,,,,,,,,,,,,22ND,001,2023_Mar_10_1134,ExactRep-v3-final,2021.2.3,59.850815876996954,
,,,,,,,,64,0,64,0,,,,,,,,,,,,,,,,,,,,,,,,,,,,,,,,,,,,,,,,,,,,,,,,,,,,,9403.822163699893,None,,,,,,,,,,,,,,,,,,,,,,,,,,,,,,,,,,,artist,55,65,silent,white,9401.807078700047,None,None,9401.807078700047,None,,,,,,,,,,,,,,,,,,,,,,,,,,,,,,22ND,001,2023_Mar_10_1134,ExactRep-v3-final,2021.2.3,59.850815876996954,
,,,,,,,,65,0,65,0,,,,,,,,,,,,,,,,,,,,,,,,,,,,,,,,,,,,,,,,,,,,,,,,,,,,,9406.324725399958,None,,,,,,,,,,,,,,,,,,,,,,,,,,,,,,,,,,,chair,107,66,aloud,blue,9404.325251699891,None,None,9404.325251699891,None,,,,,,,,,,,,,,,,,,,,,,,,,,,,,,22ND,001,2023_Mar_10_1134,ExactRep-v3-final,2021.2.3,59.850815876996954,
,,,,,,,,66,0,66,0,,,,,,,,,,,,,,,,,,,,,,,,,,,,,,,,,,,,,,,,,,,,,,,,,,,,,9408.843888200121,None,,,,,,,,,,,,,,,,,,,,,,,,,,,,,,,,,,,square,71,67,silent,white,9406.828387199901,None,None,9406.828387199901,None,,,,,,,,,,,,,,,,,,,,,,,,,,,,,,22ND,001,2023_Mar_10_1134,ExactRep-v3-final,2021.2.3,59.850815876996954,
,,,,,,,,67,0,67,0,,,,,,,,,,,,,,,,,,,,,,,,,,,,,,,,,,,,,,,,,,,,,,,,,,,,,9411.362856599968,None,,,,,,,,,,,,,,,,,,,,,,,,,,,,,,,,,,,hide,64,68,silent,white,9409.349540600087,None,None,9409.349540600087,None,,,,,,,,,,,,,,,,,,,,,,,,,,,,,,22ND,001,2023_Mar_10_1134,ExactRep-v3-final,2021.2.3,59.850815876996954,
,,,,,,,,68,0,68,0,,,,,,,,,,,,,,,,,,,,,,,,,,,,,,,,,,,,,,,,,,,,,,,,,,,,,9413.882233100012,None,,,,,,,,,,,,,,,,,,,,,,,,,,,,,,,,,,,murder,29,69,sing,red,9411.867211299948,None,None,9411.867211299948,None,,,,,,,,,,,,,,,,,,,,,,,,,,,,,,22ND,001,2023_Mar_10_1134,ExactRep-v3-final,2021.2.3,59.850815876996954,
,,,,,,,,69,0,69,0,,,,,,,,,,,,,,,,,,,,,,,,,,,,,,,,,,,,,,,,,,,,,,,,,,,,,9416.38475889992,None,,,,,,,,,,,,,,,,,,,,,,,,,,,,,,,,,,,hall,79,70,sing,red,9414.382546399953,None,None,9414.382546399953,None,,,,,,,,,,,,,,,,,,,,,,,,,,,,,,22ND,001,2023_Mar_10_1134,ExactRep-v3-final,2021.2.3,59.850815876996954,
,,,,,,,,70,0,70,0,,,,,,,,,,,,,,,,,,,,,,,,,,,,,,,,,,,,,,,,,,,,,,,,,,,,,9418.904148699949,None,,,,,,,,,,,,,,,,,,,,,,,,,,,,,,,,,,,iron,110,71,aloud,blue,9416.888645600062,None,None,9416.888645600062,None,,,,,,,,,,,,,,,,,,,,,,,,,,,,,,22ND,001,2023_Mar_10_1134,ExactRep-v3-final,2021.2.3,59.850815876996954,
,,,,,,,,71,0,71,0,,,,,,,,,,,,,,,,,,,,,,,,,,,,,,,,,,,,,,,,,,,,,,,,,,,,,9421.406248199986,None,,,,,,,,,,,,,,,,,,,,,,,,,,,,,,,,,,,earth,84,72,aloud,blue,9419.404251900036,None,None,9419.404251900036,None,,,,,,,,,,,,,,,,,,,,,,,,,,,,,,22ND,001,2023_Mar_10_1134,ExactRep-v3-final,2021.2.3,59.850815876996954,
,,,,,,,,72,0,72,0,,,,,,,,,,,,,,,,,,,,,,,,,,,,,,,,,,,,,,,,,,,,,,,,,,,,,9423.90894200001,None,,,,,,,,,,,,,,,,,,,,,,,,,,,,,,,,,,,owner,101,73,aloud,blue,9421.906871200074,None,None,9421.906871200074,None,,,,,,,,,,,,,,,,,,,,,,,,,,,,,,22ND,001,2023_Mar_10_1134,ExactRep-v3-final,2021.2.3,59.850815876996954,
,,,,,,,,73,0,73,0,,,,,,,,,,,,,,,,,,,,,,,,,,,,,,,,,,,,,,,,,,,,,,,,,,,,,9426.428071300033,None,,,,,,,,,,,,,,,,,,,,,,,,,,,,,,,,,,,cattle,104,74,aloud,blue,9424.413591499906,None,None,9424.413591499906,None,,,,,,,,,,,,,,,,,,,,,,,,,,,,,,22ND,001,2023_Mar_10_1134,ExactRep-v3-final,2021.2.3,59.850815876996954,
,,,,,,,,74,0,74,0,,,,,,,,,,,,,,,,,,,,,,,,,,,,,,,,,,,,,,,,,,,,,,,,,,,,,9428.94729089993,None,,,,,,,,,,,,,,,,,,,,,,,,,,,,,,,,,,,ability,37,75,sing,red,9426.934992399998,None,None,9426.934992399998,None,,,,,,,,,,,,,,,,,,,,,,,,,,,,,,22ND,001,2023_Mar_10_1134,ExactRep-v3-final,2021.2.3,59.850815876996954,
,,,,,,,,75,0,75,0,,,,,,,,,,,,,,,,,,,,,,,,,,,,,,,,,,,,,,,,,,,,,,,,,,,,,9431.466452100081,None,,,,,,,,,,,,,,,,,,,,,,,,,,,,,,,,,,,flower,33,76,sing,red,9429.458070300054,None,None,9429.458070300054,None,,,,,,,,,,,,,,,,,,,,,,,,,,,,,,22ND,001,2023_Mar_10_1134,ExactRep-v3-final,2021.2.3,59.850815876996954,
,,,,,,,,76,0,76,0,,,,,,,,,,,,,,,,,,,,,,,,,,,,,,,,,,,,,,,,,,,,,,,,,,,,,9433.968944400083,None,,,,,,,,,,,,,,,,,,,,,,,,,,,,,,,,,,,troops,26,77,sing,red,9431.969805100001,None,None,9431.969805100001,None,,,,,,,,,,,,,,,,,,,,,,,,,,,,,,22ND,001,2023_Mar_10_1134,ExactRep-v3-final,2021.2.3,59.850815876996954,
,,,,,,,,77,0,77,0,,,,,,,,,,,,,,,,,,,,,,,,,,,,,,,,,,,,,,,,,,,,,,,,,,,,,9436.487915100064,None,,,,,,,,,,,,,,,,,,,,,,,,,,,,,,,,,,,lip,115,78,aloud,blue,9434.479686799925,None,None,9434.479686799925,None,,,,,,,,,,,,,,,,,,,,,,,,,,,,,,22ND,001,2023_Mar_10_1134,ExactRep-v3-final,2021.2.3,59.850815876996954,
,,,,,,,,78,0,78,0,,,,,,,,,,,,,,,,,,,,,,,,,,,,,,,,,,,,,,,,,,,,,,,,,,,,,9438.990707600024,None,,,,,,,,,,,,,,,,,,,,,,,,,,,,,,,,,,,bar,16,79,sing,red,9436.988649100065,None,None,9436.988649100065,None,,,,,,,,,,,,,,,,,,,,,,,,,,,,,,22ND,001,2023_Mar_10_1134,ExactRep-v3-final,2021.2.3,59.850815876996954,
,,,,,,,,79,0,79,0,,,,,,,,,,,,,,,,,,,,,,,,,,,,,,,,,,,,,,,,,,,,,,,,,,,,,9441.509838100057,None,,,,,,,,,,,,,,,,,,,,,,,,,,,,,,,,,,,bird,105,80,aloud,blue,9439.49722489994,None,None,9439.49722489994,None,,,,,,,,,,,,,,,,,,,,,,,,,,,,,,22ND,001,2023_Mar_10_1134,ExactRep-v3-final,2021.2.3,59.850815876996954,
,,,,,,,,80,0,80,0,,,,,,,,,,,,,,,,,,,,,,,,,,,,,,,,,,,,,,,,,,,,,,,,,,,,,9444.012251999928,None,,,,,,,,,,,,,,,,,,,,,,,,,,,,,,,,,,,judge,49,81,silent,white,9442.010025999974,None,None,9442.010025999974,None,,,,,,,,,,,,,,,,,,,,,,,,,,,,,,22ND,001,2023_Mar_10_1134,ExactRep-v3-final,2021.2.3,59.850815876996954,
,,,,,,,,81,0,81,0,,,,,,,,,,,,,,,,,,,,,,,,,,,,,,,,,,,,,,,,,,,,,,,,,,,,,9446.514840699965,None,,,,,,,,,,,,,,,,,,,,,,,,,,,,,,,,,,,garden,7,82,sing,red,9444.51269100001,None,None,9444.51269100001,None,,,,,,,,,,,,,,,,,,,,,,,,,,,,,,22ND,001,2023_Mar_10_1134,ExactRep-v3-final,2021.2.3,59.850815876996954,
,,,,,,,,82,0,82,0,,,,,,,,,,,,,,,,,,,,,,,,,,,,,,,,,,,,,,,,,,,,,,,,,,,,,9449.03411899996,None,,,,,,,,,,,,,,,,,,,,,,,,,,,,,,,,,,,coast,119,83,aloud,blue,9447.018572400091,None,None,9447.018572400091,None,,,,,,,,,,,,,,,,,,,,,,,,,,,,,,22ND,001,2023_Mar_10_1134,ExactRep-v3-final,2021.2.3,59.850815876996954,
,,,,,,,,83,0,83,0,,,,,,,,,,,,,,,,,,,,,,,,,,,,,,,,,,,,,,,,,,,,,,,,,,,,,9451.553029099945,None,,,,,,,,,,,,,,,,,,,,,,,,,,,,,,,,,,,plant,8,84,sing,red,9449.542132900096,None,None,9449.542132900096,None,,,,,,,,,,,,,,,,,,,,,,,,,,,,,,22ND,001,2023_Mar_10_1134,ExactRep-v3-final,2021.2.3,59.850815876996954,
,,,,,,,,84,0,84,0,,,,,,,,,,,,,,,,,,,,,,,,,,,,,,,,,,,,,,,,,,,,,,,,,,,,,9454.072246799944,None,,,,,,,,,,,,,,,,,,,,,,,,,,,,,,,,,,,house,78,85,silent,white,9452.060131799895,None,None,9452.060131799895,None,,,,,,,,,,,,,,,,,,,,,,,,,,,,,,22ND,001,2023_Mar_10_1134,ExactRep-v3-final,2021.2.3,59.850815876996954,
,,,,,,,,85,0,85,0,,,,,,,,,,,,,,,,,,,,,,,,,,,,,,,,,,,,,,,,,,,,,,,,,,,,,9456.577360900119,None,,,,,,,,,,,,,,,,,,,,,,,,,,,,,,,,,,,death,67,86,silent,white,9454.572768900078,None,None,9454.572768900078,None,,,,,,,,,,,,,,,,,,,,,,,,,,,,,,22ND,001,2023_Mar_10_1134,ExactRep-v3-final,2021.2.3,59.850815876996954,
,,,,,,,,86,0,86,0,,,,,,,,,,,,,,,,,,,,,,,,,,,,,,,,,,,,,,,,,,,,,,,,,,,,,9459.110784299904,None,,,,,,,,,,,,,,,,,,,,,,,,,,,,,,,,,,,shame,66,87,silent,white,9457.097204999998,None,None,9457.097204999998,None,,,,,,,,,,,,,,,,,,,,,,,,,,,,,,22ND,001,2023_Mar_10_1134,ExactRep-v3-final,2021.2.3,59.850815876996954,
,,,,,,,,87,0,87,0,,,,,,,,,,,,,,,,,,,,,,,,,,,,,,,,,,,,,,,,,,,,,,,,,,,,,9461.629932800075,None,,,,,,,,,,,,,,,,,,,,,,,,,,,,,,,,,,,river,46,88,silent,white,9459.620905899908,None,None,9459.620905899908,None,,,,,,,,,,,,,,,,,,,,,,,,,,,,,,22ND,001,2023_Mar_10_1134,ExactRep-v3-final,2021.2.3,59.850815876996954,
,,,,,,,,88,0,88,0,,,,,,,,,,,,,,,,,,,,,,,,,,,,,,,,,,,,,,,,,,,,,,,,,,,,,9464.150323000038,None,,,,,,,,,,,,,,,,,,,,,,,,,,,,,,,,,,,world,45,89,silent,white,9462.134019700112,None,None,9462.134019700112,None,,,,,,,,,,,,,,,,,,,,,,,,,,,,,,22ND,001,2023_Mar_10_1134,ExactRep-v3-final,2021.2.3,59.850815876996954,
,,,,,,,,89,0,89,0,,,,,,,,,,,,,,,,,,,,,,,,,,,,,,,,,,,,,,,,,,,,,,,,,,,,,9466.668279400095,None,,,,,,,,,,,,,,,,,,,,,,,,,,,,,,,,,,,camp,91,90,aloud,blue,9464.6592902001,None,None,9464.6592902001,None,,,,,,,,,,,,,,,,,,,,,,,,,,,,,,22ND,001,2023_Mar_10_1134,ExactRep-v3-final,2021.2.3,59.850815876996954,
,,,,,,,,90,0,90,0,,,,,,,,,,,,,,,,,,,,,,,,,,,,,,,,,,,,,,,,,,,,,,,,,,,,,9469.170929400017,None,,,,,,,,,,,,,,,,,,,,,,,,,,,,,,,,,,,length,21,91,sing,red,9467.168784399983,None,None,9467.168784399983,None,,,,,,,,,,,,,,,,,,,,,,,,,,,,,,22ND,001,2023_Mar_10_1134,ExactRep-v3-final,2021.2.3,59.850815876996954,
,,,,,,,,91,0,91,0,,,,,,,,,,,,,,,,,,,,,,,,,,,,,,,,,,,,,,,,,,,,,,,,,,,,,9471.689995199908,None,,,,,,,,,,,,,,,,,,,,,,,,,,,,,,,,,,,maiden,77,92,silent,white,9469.679375899956,None,None,9469.679375899956,None,,,,,,,,,,,,,,,,,,,,,,,,,,,,,,22ND,001,2023_Mar_10_1134,ExactRep-v3-final,2021.2.3,59.850815876996954,
,,,,,,,,92,0,92,0,,,,,,,,,,,,,,,,,,,,,,,,,,,,,,,,,,,,,,,,,,,,,,,,,,,,,9474.192489299923,None,,,,,,,,,,,,,,,,,,,,,,,,,,,,,,,,,,,style,74,93,silent,white,9472.190233299974,None,None,9472.190233299974,None,,,,,,,,,,,,,,,,,,,,,,,,,,,,,,22ND,001,2023_Mar_10_1134,ExactRep-v3-final,2021.2.3,59.850815876996954,
,,,,,,,,93,0,93,0,,,,,,,,,,,,,,,,,,,,,,,,,,,,,,,,,,,,,,,,,,,,,,,,,,,,,9476.69484260003,None,,,,,,,,,,,,,,,,,,,,,,,,,,,,,,,,,,,nail,102,94,aloud,blue,9474.69528069999,None,None,9474.69528069999,None,,,,,,,,,,,,,,,,,,,,,,,,,,,,,,22ND,001,2023_Mar_10_1134,ExactRep-v3-final,2021.2.3,59.850815876996954,
,,,,,,,,94,0,94,0,,,,,,,,,,,,,,,,,,,,,,,,,,,,,,,,,,,,,,,,,,,,,,,,,,,,,9479.19737379998,None,,,,,,,,,,,,,,,,,,,,,,,,,,,,,,,,,,,law,68,95,silent,white,9477.195382799953,None,None,9477.195382799953,None,,,,,,,,,,,,,,,,,,,,,,,,,,,,,,22ND,001,2023_Mar_10_1134,ExactRep-v3-final,2021.2.3,59.850815876996954,
,,,,,,,,95,0,95,0,,,,,,,,,,,,,,,,,,,,,,,,,,,,,,,,,,,,,,,,,,,,,,,,,,,,,9481.700132899918,None,,,,,,,,,,,,,,,,,,,,,,,,,,,,,,,,,,,prison,96,96,aloud,blue,9479.698833500035,None,None,9479.698833500035,None,,,,,,,,,,,,,,,,,,,,,,,,,,,,,,22ND,001,2023_Mar_10_1134,ExactRep-v3-final,2021.2.3,59.850815876996954,
,,,,,,,,96,0,96,0,,,,,,,,,,,,,,,,,,,,,,,,,,,,,,,,,,,,,,,,,,,,,,,,,,,,,9484.20250730007,None,,,,,,,,,,,,,,,,,,,,,,,,,,,,,,,,,,,vessel,52,97,silent,white,9482.201220700052,None,None,9482.201220700052,None,,,,,,,,,,,,,,,,,,,,,,,,,,,,,,22ND,001,2023_Mar_10_1134,ExactRep-v3-final,2021.2.3,59.850815876996954,
,,,,,,,,97,0,97,0,,,,,,,,,,,,,,,,,,,,,,,,,,,,,,,,,,,,,,,,,,,,,,,,,,,,,9486.721777300118,None,,,,,,,,,,,,,,,,,,,,,,,,,,,,,,,,,,,girl,111,98,aloud,blue,9484.70641679992,None,None,9484.70641679992,None,,,,,,,,,,,,,,,,,,,,,,,,,,,,,,22ND,001,2023_Mar_10_1134,ExactRep-v3-final,2021.2.3,59.850815876996954,
,,,,,,,,98,0,98,0,,,,,,,,,,,,,,,,,,,,,,,,,,,,,,,,,,,,,,,,,,,,,,,,,,,,,9489.224023499992,None,,,,,,,,,,,,,,,,,,,,,,,,,,,,,,,,,,,seat,76,99,silent,white,9487.222178299911,None,None,9487.222178299911,None,,,,,,,,,,,,,,,,,,,,,,,,,,,,,,22ND,001,2023_Mar_10_1134,ExactRep-v3-final,2021.2.3,59.850815876996954,
,,,,,,,,99,0,99,0,,,,,,,,,,,,,,,,,,,,,,,,,,,,,,,,,,,,,,,,,,,,,,,,,,,,,9491.726562200114,None,,,,,,,,,,,,,,,,,,,,,,,,,,,,,,,,,,,cost,38,100,sing,red,9489.724432900082,None,None,9489.724432900082,None,,,,,,,,,,,,,,,,,,,,,,,,,,,,,,22ND,001,2023_Mar_10_1134,ExactRep-v3-final,2021.2.3,59.850815876996954,
,,,,,,,,100,0,100,0,,,,,,,,,,,,,,,,,,,,,,,,,,,,,,,,,,,,,,,,,,,,,,,,,,,,,9494.229197100038,None,,,,,,,,,,,,,,,,,,,,,,,,,,,,,,,,,,,pupil,109,101,aloud,blue,9492.228366800118,None,None,9492.228366800118,None,,,,,,,,,,,,,,,,,,,,,,,,,,,,,,22ND,001,2023_Mar_10_1134,ExactRep-v3-final,2021.2.3,59.850815876996954,
,,,,,,,,101,0,101,0,,,,,,,,,,,,,,,,,,,,,,,,,,,,,,,,,,,,,,,,,,,,,,,,,,,,,9496.748400100041,None,,,,,,,,,,,,,,,,,,,,,,,,,,,,,,,,,,,street,98,102,aloud,blue,9494.732840700075,None,None,9494.732840700075,None,,,,,,,,,,,,,,,,,,,,,,,,,,,,,,22ND,001,2023_Mar_10_1134,ExactRep-v3-final,2021.2.3,59.850815876996954,
,,,,,,,,102,0,102,0,,,,,,,,,,,,,,,,,,,,,,,,,,,,,,,,,,,,,,,,,,,,,,,,,,,,,9499.2508868,None,,,,,,,,,,,,,,,,,,,,,,,,,,,,,,,,,,,air,106,103,aloud,blue,9497.248727699975,None,None,9497.248727699975,None,,,,,,,,,,,,,,,,,,,,,,,,,,,,,,22ND,001,2023_Mar_10_1134,ExactRep-v3-final,2021.2.3,59.850815876996954,
,,,,,,,,103,0,103,0,,,,,,,,,,,,,,,,,,,,,,,,,,,,,,,,,,,,,,,,,,,,,,,,,,,,,9501.753393199993,None,,,,,,,,,,,,,,,,,,,,,,,,,,,,,,,,,,,lord,88,104,aloud,blue,9499.751444899943,None,None,9499.751444899943,None,,,,,,,,,,,,,,,,,,,,,,,,,,,,,,22ND,001,2023_Mar_10_1134,ExactRep-v3-final,2021.2.3,59.850815876996954,
,,,,,,,,104,0,104,0,,,,,,,,,,,,,,,,,,,,,,,,,,,,,,,,,,,,,,,,,,,,,,,,,,,,,9504.255932700122,None,,,,,,,,,,,,,,,,,,,,,,,,,,,,,,,,,,,army,10,105,sing,red,9502.253569399938,None,None,9502.253569399938,None,,,,,,,,,,,,,,,,,,,,,,,,,,,,,,22ND,001,2023_Mar_10_1134,ExactRep-v3-final,2021.2.3,59.850815876996954,
,,,,,,,,105,0,105,0,,,,,,,,,,,,,,,,,,,,,,,,,,,,,,,,,,,,,,,,,,,,,,,,,,,,,9506.775000100024,None,,,,,,,,,,,,,,,,,,,,,,,,,,,,,,,,,,,king,4,106,sing,red,9504.760848999955,None,None,9504.760848999955,None,,,,,,,,,,,,,,,,,,,,,,,,,,,,,,22ND,001,2023_Mar_10_1134,ExactRep-v3-final,2021.2.3,59.850815876996954,
,,,,,,,,106,0,106,0,,,,,,,,,,,,,,,,,,,,,,,,,,,,,,,,,,,,,,,,,,,,,,,,,,,,,9509.294236900052,None,,,,,,,,,,,,,,,,,,,,,,,,,,,,,,,,,,,effort,80,107,aloud,blue,9507.285783299943,None,None,9507.285783299943,None,,,,,,,,,,,,,,,,,,,,,,,,,,,,,,22ND,001,2023_Mar_10_1134,ExactRep-v3-final,2021.2.3,59.850815876996954,
,,,,,,,,107,0,107,0,,,,,,,,,,,,,,,,,,,,,,,,,,,,,,,,,,,,,,,,,,,,,,,,,,,,,9511.796745500062,None,,,,,,,,,,,,,,,,,,,,,,,,,,,,,,,,,,,priest,24,108,sing,red,9509.795872000046,None,None,9509.795872000046,None,,,,,,,,,,,,,,,,,,,,,,,,,,,,,,22ND,001,2023_Mar_10_1134,ExactRep-v3-final,2021.2.3,59.850815876996954,
,,,,,,,,108,0,108,0,,,,,,,,,,,,,,,,,,,,,,,,,,,,,,,,,,,,,,,,,,,,,,,,,,,,,9514.2992622999,None,,,,,,,,,,,,,,,,,,,,,,,,,,,,,,,,,,,rod,19,109,sing,red,9512.297090099892,None,None,9512.297090099892,None,,,,,,,,,,,,,,,,,,,,,,,,,,,,,,22ND,001,2023_Mar_10_1134,ExactRep-v3-final,2021.2.3,59.850815876996954,
,,,,,,,,109,0,109,0,,,,,,,,,,,,,,,,,,,,,,,,,,,,,,,,,,,,,,,,,,,,,,,,,,,,,9516.80164239998,None,,,,,,,,,,,,,,,,,,,,,,,,,,,,,,,,,,,brain,112,110,aloud,blue,9514.800403499976,None,None,9514.800403499976,None,,,,,,,,,,,,,,,,,,,,,,,,,,,,,,22ND,001,2023_Mar_10_1134,ExactRep-v3-final,2021.2.3,59.850815876996954,
,,,,,,,,110,0,110,0,,,,,,,,,,,,,,,,,,,,,,,,,,,,,,,,,,,,,,,,,,,,,,,,,,,,,9519.304345099954,None,,,,,,,,,,,,,,,,,,,,,,,,,,,,,,,,,,,kiss,34,111,sing,red,9517.302270200104,None,None,9517.302270200104,None,,,,,,,,,,,,,,,,,,,,,,,,,,,,,,22ND,001,2023_Mar_10_1134,ExactRep-v3-final,2021.2.3,59.850815876996954,
,,,,,,,,111,0,111,0,,,,,,,,,,,,,,,,,,,,,,,,,,,,,,,,,,,,,,,,,,,,,,,,,,,,,9521.806916600093,None,,,,,,,,,,,,,,,,,,,,,,,,,,,,,,,,,,,college,0,112,sing,red,9519.806661600014,None,None,9519.806661600014,None,,,,,,,,,,,,,,,,,,,,,,,,,,,,,,22ND,001,2023_Mar_10_1134,ExactRep-v3-final,2021.2.3,59.850815876996954,
,,,,,,,,112,0,112,0,,,,,,,,,,,,,,,,,,,,,,,,,,,,,,,,,,,,,,,,,,,,,,,,,,,,,9524.309255599976,None,,,,,,,,,,,,,,,,,,,,,,,,,,,,,,,,,,,thought,65,113,silent,white,9522.3088132001,None,None,9522.3088132001,None,,,,,,,,,,,,,,,,,,,,,,,,,,,,,,22ND,001,2023_Mar_10_1134,ExactRep-v3-final,2021.2.3,59.850815876996954,
,,,,,,,,113,0,113,0,,,,,,,,,,,,,,,,,,,,,,,,,,,,,,,,,,,,,,,,,,,,,,,,,,,,,9526.82851770008,None,,,,,,,,,,,,,,,,,,,,,,,,,,,,,,,,,,,devil,60,114,silent,white,9524.813045100076,None,None,9524.813045100076,None,,,,,,,,,,,,,,,,,,,,,,,,,,,,,,22ND,001,2023_Mar_10_1134,ExactRep-v3-final,2021.2.3,59.850815876996954,
,,,,,,,,114,0,114,0,,,,,,,,,,,,,,,,,,,,,,,,,,,,,,,,,,,,,,,,,,,,,,,,,,,,,9529.347482400015,None,,,,,,,,,,,,,,,,,,,,,,,,,,,,,,,,,,,speech,39,115,silent,white,9527.332975399913,None,None,9527.332975399913,None,,,,,,,,,,,,,,,,,,,,,,,,,,,,,,22ND,001,2023_Mar_10_1134,ExactRep-v3-final,2021.2.3,59.850815876996954,
,,,,,,,,115,0,115,0,,,,,,,,,,,,,,,,,,,,,,,,,,,,,,,,,,,,,,,,,,,,,,,,,,,,,9531.850155800115,None,,,,,,,,,,,,,,,,,,,,,,,,,,,,,,,,,,,star,82,116,aloud,blue,9529.848197099986,None,None,9529.848197099986,None,,,,,,,,,,,,,,,,,,,,,,,,,,,,,,22ND,001,2023_Mar_10_1134,ExactRep-v3-final,2021.2.3,59.850815876996954,
,,,,,,,,116,0,116,0,,,,,,,,,,,,,,,,,,,,,,,,,,,,,,,,,,,,,,,,,,,,,,,,,,,,,9534.352670199936,None,,,,,,,,,,,,,,,,,,,,,,,,,,,,,,,,,,,hotel,22,117,sing,red,9532.351255600108,None,None,9532.351255600108,None,,,,,,,,,,,,,,,,,,,,,,,,,,,,,,22ND,001,2023_Mar_10_1134,ExactRep-v3-final,2021.2.3,59.850815876996954,
,,,,,,,,117,0,117,0,,,,,,,,,,,,,,,,,,,,,,,,,,,,,,,,,,,,,,,,,,,,,,,,,,,,,9536.871857800055,None,,,,,,,,,,,,,,,,,,,,,,,,,,,,,,,,,,,party,90,118,aloud,blue,9534.857342999894,None,None,9534.857342999894,None,,,,,,,,,,,,,,,,,,,,,,,,,,,,,,22ND,001,2023_Mar_10_1134,ExactRep-v3-final,2021.2.3,59.850815876996954,
,,,,,,,,118,0,118,0,,,,,,,,,,,,,,,,,,,,,,,,,,,,,,,,,,,,,,,,,,,,,,,,,,,,,9539.37444090005,None,,,,,,,,,,,,,,,,,,,,,,,,,,,,,,,,,,,steam,54,119,silent,white,9537.373993000016,None,None,9537.373993000016,None,,,,,,,,,,,,,,,,,,,,,,,,,,,,,,22ND,001,2023_Mar_10_1134,ExactRep-v3-final,2021.2.3,59.850815876996954,
,,,,,,,,119,0,119,0,,,,,,,,,,,,,,,,,,,,,,,,,,,,,,,,,,,,,,,,,,,,,,,,,,,,,9541.87669309997,None,,,,,,,,,,,,,,,,,,,,,,,,,,,,,,,,,,,wheat,56,120,silent,white,9539.876453799894,None,None,9539.876453799894,None,,,,,,,,,,,,,,,,,,,,,,,,,,,,,,22ND,001,2023_Mar_10_1134,ExactRep-v3-final,2021.2.3,59.850815876996954,
,,,,,,,,,,,,,,,,,,,,,,,,,,,,,,,,,,,,,,,,,,,,,,,,,,,,,,,,,,,,,,,,,,,,,,,,,,,,,,,,,,,,,,,,,,,,,,,,,,,,,,,,,,,,,,9542.37904540007,None,space,1.3425584000069648,9552.355296999915,None,,,,,,,,,,,,,,,,,,,,,,,,22ND,001,2023_Mar_10_1134,ExactRep-v3-final,2021.2.3,59.850815876996954,
,,,,,,,,,,,,,,,,,,,,,,,,,,,,,,,,,,,,,,,,,,,,,,,,,,,,,,,,,,,,,,,,,,,,,,,,,,,,,,,,,,,,,,,,,,,,,,,,,,,,,,,,,,,,,,,,,,,,9553.7239349999,None,space,33.461393299978226,9563.700161699904,None,,,,,,,,,,,,,,,,,,22ND,001,2023_Mar_10_1134,ExactRep-v3-final,2021.2.3,59.850815876996954,
,,,,,,,,,,,,0,0,0,0,,,,,,,,,,,,,,,,,,,,,,,,,,,,,,,,,,,,,,,,,,,,,,,,,9602.737664900022,None,,,,,,,,,,,,,,,,,,,,,,,,,,,,,,,,,,,,,,,,,,,,,,,,,,,,,,,,,fortune,144,1,silent,new,yellow,9597.698653700063,None,n,9597.698653700063,None,"['n', 'return']","[3.35109330015257, 4.9988326001912355]",9597.698653700063,None,,,22ND,001,2023_Mar_10_1134,ExactRep-v3-final,2021.2.3,59.850815876996954,
,,,,,,,,,,,,1,0,1,0,,,,,,,,,,,,,,,,,,,,,,,,,,,,,,,,,,,,,,,,,,,,,,,,,9606.15754340007,None,,,,,,,,,,,,,,,,,,,,,,,,,,,,,,,,,,,,,,,,,,,,,,,,,,,,,,,,,hide,64,2,silent,old,yellow,9603.247519999975,None,y,9603.247519999975,None,"['y', 'return']","[2.3702167998999357, 2.865872700000182]",9603.247519999975,None,,,22ND,001,2023_Mar_10_1134,ExactRep-v3-final,2021.2.3,59.850815876996954,
,,,,,,,,,,,,2,0,2,0,,,,,,,,,,,,,,,,,,,,,,,,,,,,,,,,,,,,,,,,,,,,,,,,,9608.593368000118,None,,,,,,,,,,,,,,,,,,,,,,,,,,,,,,,,,,,,,,,,,,,,,,,,,,,,,,,,,blossom,232,3,aloud,new,yellow,9606.668947600061,None,n,9606.668947600061,None,"['n', 'return']","[1.5646729001309723, 1.8845383999869227]",9606.668947600061,None,,,22ND,001,2023_Mar_10_1134,ExactRep-v3-final,2021.2.3,59.850815876996954,
,,,,,,,,,,,,3,0,3,0,,,,,,,,,,,,,,,,,,,,,,,,,,,,,,,,,,,,,,,,,,,,,,,,,9611.479573300108,None,,,,,,,,,,,,,,,,,,,,,,,,,,,,,,,,,,,,,,,,,,,,,,,,,,,,,,,,,door,174,4,aloud,new,yellow,9609.103935800027,None,y,9609.103935800027,None,"['y', 'return']","[1.9615484999958426, 2.3295520001556724]",9609.103935800027,None,,,22ND,001,2023_Mar_10_1134,ExactRep-v3-final,2021.2.3,59.850815876996954,
,,,,,,,,,,,,4,0,4,0,,,,,,,,,,,,,,,,,,,,,,,,,,,,,,,,,,,,,,,,,,,,,,,,,9613.982079199981,None,,,,,,,,,,,,,,,,,,,,,,,,,,,,,,,,,,,,,,,,,,,,,,,,,,,,,,,,,friend,168,5,aloud,new,yellow,9611.990537399892,None,y,9611.990537399892,None,"['y', 'return']","[1.5708693000487983, 1.9468227999750525]",9611.990537399892,None,,,22ND,001,2023_Mar_10_1134,ExactRep-v3-final,2021.2.3,59.850815876996954,
,,,,,,,,,,,,5,0,5,0,,,,,,,,,,,,,,,,,,,,,,,,,,,,,,,,,,,,,,,,,,,,,,,,,9616.768203200074,None,,,,,,,,,,,,,,,,,,,,,,,,,,,,,,,,,,,,,,,,,,,,,,,,,,,,,,,,,quality,226,6,aloud,new,yellow,9614.489044900052,None,y,9614.489044900052,None,"['y', 'return']","[1.8964546998031437, 2.2404963998124003]",9614.489044900052,None,,,22ND,001,2023_Mar_10_1134,ExactRep-v3-final,2021.2.3,59.850815876996954,
,,,,,,,,,,,,6,0,6,0,,,,,,,,,,,,,,,,,,,,,,,,,,,,,,,,,,,,,,,,,,,,,,,,,9619.137321300106,None,,,,,,,,,,,,,,,,,,,,,,,,,,,,,,,,,,,,,,,,,,,,,,,,,,,,,,,,,answer,198,7,aloud,new,yellow,9617.27223049989,None,y,9617.27223049989,None,"['y', 'return']","[1.537405899958685, 1.8332938000094146]",9617.27223049989,None,,,22ND,001,2023_Mar_10_1134,ExactRep-v3-final,2021.2.3,59.850815876996954,
,,,,,,,,,,,,7,0,7,0,,,,,,,,,,,,,,,,,,,,,,,,,,,,,,,,,,,,,,,,,,,,,,,,,9621.20614090003,None,,,,,,,,,,,,,,,,,,,,,,,,,,,,,,,,,,,,,,,,,,,,,,,,,,,,,,,,,ocean,172,8,aloud,new,yellow,9619.647602600046,None,y,9619.647602600046,None,"['y', 'return']","[1.2578231000807136, 1.5219648000784218]",9619.647602600046,None,,,22ND,001,2023_Mar_10_1134,ExactRep-v3-final,2021.2.3,59.850815876996954,
,,,,,,,,,,,,8,0,8,0,,,,,,,,,,,,,,,,,,,,,,,,,,,,,,,,,,,,,,,,,,,,,,,,,9627.545688400045,None,,,,,,,,,,,,,,,,,,,,,,,,,,,,,,,,,,,,,,,,,,,,,,,,,,,,,,,,,moment,160,9,aloud,new,yellow,9621.71070210007,None,y,9621.71070210007,None,"['y', 'return']","[5.514796999981627, 5.786875799996778]",9621.71070210007,None,,,22ND,001,2023_Mar_10_1134,ExactRep-v3-final,2021.2.3,59.850815876996954,
,,,,,,,,,,,,9,0,9,0,,,,,,,,,,,,,,,,,,,,,,,,,,,,,,,,,,,,,,,,,,,,,,,,,9629.414410799975,None,,,,,,,,,,,,,,,,,,,,,,,,,,,,,,,,,,,,,,,,,,,,,,,,,,,,,,,,,meeting,149,10,silent,new,yellow,9628.0628231999,None,n,9628.0628231999,None,"['n', 'return']","[1.0187168000265956, 1.3066642000339925]",9628.0628231999,None,,,22ND,001,2023_Mar_10_1134,ExactRep-v3-final,2021.2.3,59.850815876996954,
,,,,,,,,,,,,10,0,10,0,,,,,,,,,,,,,,,,,,,,,,,,,,,,,,,,,,,,,,,,,,,,,,,,,9631.099274100037,None,,,,,,,,,,,,,,,,,,,,,,,,,,,,,,,,,,,,,,,,,,,,,,,,,,,,,,,,,chance,72,11,silent,old,yellow,9629.921428800095,None,n,9629.921428800095,None,"['n', 'return']","[0.8560622001532465, 1.136325400089845]",9629.921428800095,None,,,22ND,001,2023_Mar_10_1134,ExactRep-v3-final,2021.2.3,59.850815876996954,
,,,,,,,,,,,,11,0,11,0,,,,,,,,,,,,,,,,,,,,,,,,,,,,,,,,,,,,,,,,,,,,,,,,,9633.98550150008,None,,,,,,,,,,,,,,,,,,,,,,,,,,,,,,,,,,,,,,,,,,,,,,,,,,,,,,,,,cottage,155,12,silent,new,yellow,9631.610058000078,None,y,9631.610058000078,None,"['y', 'return']","[1.6636115999426693, 2.327540700091049]",9631.610058000078,None,,,22ND,001,2023_Mar_10_1134,ExactRep-v3-final,2021.2.3,59.850815876996954,
,,,,,,,,,,,,12,0,12,0,,,,,,,,,,,,,,,,,,,,,,,,,,,,,,,,,,,,,,,,,,,,,,,,,9636.137569600018,None,,,,,,,,,,,,,,,,,,,,,,,,,,,,,,,,,,,,,,,,,,,,,,,,,,,,,,,,,month,228,13,aloud,new,yellow,9634.494289299939,None,y,9634.494289299939,None,"['y', 'return']","[1.2672274999786168, 1.595259000081569]",9634.494289299939,None,,,22ND,001,2023_Mar_10_1134,ExactRep-v3-final,2021.2.3,59.850815876996954,
,,,,,,,,,,,,13,0,13,0,,,,,,,,,,,,,,,,,,,,,,,,,,,,,,,,,,,,,,,,,,,,,,,,,9637.856183599913,None,,,,,,,,,,,,,,,,,,,,,,,,,,,,,,,,,,,,,,,,,,,,,,,,,,,,,,,,,corn,15,14,sing,old,yellow,9636.643476499943,None,y,9636.643476499943,None,"['y', 'return']","[0.877994199981913, 1.1742300998885185]",9636.643476499943,None,,,22ND,001,2023_Mar_10_1134,ExactRep-v3-final,2021.2.3,59.850815876996954,
,,,,,,,,,,,,14,0,14,0,,,,,,,,,,,,,,,,,,,,,,,,,,,,,,,,,,,,,,,,,,,,,,,,,9642.510628399905,None,,,,,,,,,,,,,,,,,,,,,,,,,,,,,,,,,,,,,,,,,,,,,,,,,,,,,,,,,maiden,77,15,silent,old,yellow,9638.36261010007,None,n,9638.36261010007,None,"['y', 'n', 'backspace', 'n', 'return']","[0.9348931999411434, 2.3669622999150306, 3.094998999964446, 3.775054399855435, 4.110995399998501]",9638.36261010007,None,,,22ND,001,2023_Mar_10_1134,ExactRep-v3-final,2021.2.3,59.850815876996954,
,,,,,,,,,,,,15,0,15,0,,,,,,,,,,,,,,,,,,,,,,,,,,,,,,,,,,,,,,,,,,,,,,,,,9644.429306899896,None,,,,,,,,,,,,,,,,,,,,,,,,,,,,,,,,,,,,,,,,,,,,,,,,,,,,,,,,,ability,37,16,sing,old,yellow,9643.018555100076,None,y,9643.018555100076,None,"['y', 'return']","[1.078944900073111, 1.3752429001033306]",9643.018555100076,None,,,22ND,001,2023_Mar_10_1134,ExactRep-v3-final,2021.2.3,59.850815876996954,
,,,,,,,,,,,,16,0,16,0,,,,,,,,,,,,,,,,,,,,,,,,,,,,,,,,,,,,,,,,,,,,,,,,,9646.547982099932,None,,,,,,,,,,,,,,,,,,,,,,,,,,,,,,,,,,,,,,,,,,,,,,,,,,,,,,,,,glory,125,17,silent,new,yellow,9644.93884940003,None,n,9644.93884940003,None,"['n', 'return']","[1.2146622999571264, 1.5666956999339163]",9644.93884940003,None,,,22ND,001,2023_Mar_10_1134,ExactRep-v3-final,2021.2.3,59.850815876996954,
,,,,,,,,,,,,17,0,17,0,,,,,,,,,,,,,,,,,,,,,,,,,,,,,,,,,,,,,,,,,,,,,,,,,9648.433364599943,None,,,,,,,,,,,,,,,,,,,,,,,,,,,,,,,,,,,,,,,,,,,,,,,,,,,,,,,,,chief,135,18,silent,new,yellow,9647.060980000068,None,y,9647.060980000068,None,"['y', 'return']","[1.052608500001952, 1.3325549999717623]",9647.060980000068,None,,,22ND,001,2023_Mar_10_1134,ExactRep-v3-final,2021.2.3,59.850815876996954,
,,,,,,,,,,,,18,0,18,0,,,,,,,,,,,,,,,,,,,,,,,,,,,,,,,,,,,,,,,,,,,,,,,,,9650.735525999917,None,,,,,,,,,,,,,,,,,,,,,,,,,,,,,,,,,,,,,,,,,,,,,,,,,,,,,,,,,history,70,19,silent,old,yellow,9648.940537200077,None,y,9648.940537200077,None,"['y', 'return']","[1.453144600149244, 1.7490155999548733]",9648.940537200077,None,,,22ND,001,2023_Mar_10_1134,ExactRep-v3-final,2021.2.3,59.850815876996954,
,,,,,,,,,,,,19,0,19,0,,,,,,,,,,,,,,,,,,,,,,,,,,,,,,,,,,,,,,,,,,,,,,,,,9652.470671100076,None,,,,,,,,,,,,,,,,,,,,,,,,,,,,,,,,,,,,,,,,,,,,,,,,,,,,,,,,,poet,30,20,sing,old,yellow,9651.247058900073,None,y,9651.247058900073,None,"['y', 'return']","[0.8425378000829369, 1.1784711999353021]",9651.247058900073,None,,,22ND,001,2023_Mar_10_1134,ExactRep-v3-final,2021.2.3,59.850815876996954,
,,,,,,,,,,,,20,0,20,0,,,,,,,,,,,,,,,,,,,,,,,,,,,,,,,,,,,,,,,,,,,,,,,,,9654.006448999979,None,,,,,,,,,,,,,,,,,,,,,,,,,,,,,,,,,,,,,,,,,,,,,,,,,,,,,,,,,hour,11,21,sing,old,yellow,9652.97805689997,None,y,9652.97805689997,None,"['y', 'return']","[0.6954544000327587, 0.9834060000721365]",9652.97805689997,None,,,22ND,001,2023_Mar_10_1134,ExactRep-v3-final,2021.2.3,59.850815876996954,
,,,,,,,,,,,,21,0,21,0,,,,,,,,,,,,,,,,,,,,,,,,,,,,,,,,,,,,,,,,,,,,,,,,,9656.491402999964,None,,,,,,,,,,,,,,,,,,,,,,,,,,,,,,,,,,,,,,,,,,,,,,,,,,,,,,,,,student,3,22,sing,old,yellow,9654.511060399935,None,y,9654.511060399935,None,"['y', 'return']","[1.6266114001628011, 1.938500100048259]",9654.511060399935,None,,,22ND,001,2023_Mar_10_1134,ExactRep-v3-final,2021.2.3,59.850815876996954,
,,,,,,,,,,,,22,0,22,0,,,,,,,,,,,,,,,,,,,,,,,,,,,,,,,,,,,,,,,,,,,,,,,,,9659.64440650004,None,,,,,,,,,,,,,,,,,,,,,,,,,,,,,,,,,,,,,,,,,,,,,,,,,,,,,,,,,air,106,23,aloud,old,yellow,9657.002156999893,None,n,9657.002156999893,None,"['return', 'n', 'return']","[1.4233330998104066, 2.303358499892056, 2.607375100022182]",9657.002156999893,None,,,22ND,001,2023_Mar_10_1134,ExactRep-v3-final,2021.2.3,59.850815876996954,
,,,,,,,,,,,,23,0,23,0,,,,,,,,,,,,,,,,,,,,,,,,,,,,,,,,,,,,,,,,,,,,,,,,,9662.731093900045,None,,,,,,,,,,,,,,,,,,,,,,,,,,,,,,,,,,,,,,,,,,,,,,,,,,,,,,,,,style,74,24,silent,old,yellow,9660.159195299959,None,y,9660.159195299959,None,"['y', 'return']","[2.234389299992472, 2.5383865002077073]",9660.159195299959,None,,,22ND,001,2023_Mar_10_1134,ExactRep-v3-final,2021.2.3,59.850815876996954,
,,,,,,,,,,,,24,0,24,0,,,,,,,,,,,,,,,,,,,,,,,,,,,,,,,,,,,,,,,,,,,,,,,,,9665.717186500086,None,,,,,,,,,,,,,,,,,,,,,,,,,,,,,,,,,,,,,,,,,,,,,,,,,,,,,,,,,stone,212,25,aloud,new,yellow,9663.239009100012,None,n,9663.239009100012,None,"['n', 'return']","[2.122528900159523, 2.434632800053805]",9663.239009100012,None,,,22ND,001,2023_Mar_10_1134,ExactRep-v3-final,2021.2.3,59.850815876996954,
,,,,,,,,,,,,25,0,25,0,,,,,,,,,,,,,,,,,,,,,,,,,,,,,,,,,,,,,,,,,,,,,,,,,9668.23633110011,None,,,,,,,,,,,,,,,,,,,,,,,,,,,,,,,,,,,,,,,,,,,,,,,,,,,,,,,,,body,131,26,silent,new,yellow,9666.226025900105,None,n,9666.226025900105,None,"['n', 'return']","[1.6795274000614882, 1.9676093999296427]",9666.226025900105,None,,,22ND,001,2023_Mar_10_1134,ExactRep-v3-final,2021.2.3,59.850815876996954,
,,,,,,,,,,,,26,0,26,0,,,,,,,,,,,,,,,,,,,,,,,,,,,,,,,,,,,,,,,,,,,,,,,,,9669.938283100026,None,,,,,,,,,,,,,,,,,,,,,,,,,,,,,,,,,,,,,,,,,,,,,,,,,,,,,,,,,life,116,27,aloud,old,yellow,9668.737143700011,None,n,9668.737143700011,None,"['n', 'return']","[0.8645001000259072, 1.168432999867946]",9668.737143700011,None,,,22ND,001,2023_Mar_10_1134,ExactRep-v3-final,2021.2.3,59.850815876996954,
,,,,,,,,,,,,27,0,27,0,,,,,,,,,,,,,,,,,,,,,,,,,,,,,,,,,,,,,,,,,,,,,,,,,9672.42386989994,None,,,,,,,,,,,,,,,,,,,,,,,,,,,,,,,,,,,,,,,,,,,,,,,,,,,,,,,,,trouble,190,28,aloud,new,yellow,9670.449069800088,None,n,9670.449069800088,None,"['n', 'return']","[1.6885215998627245, 1.9364561999682337]",9670.449069800088,None,,,22ND,001,2023_Mar_10_1134,ExactRep-v3-final,2021.2.3,59.850815876996954,
,,,,,,,,,,,,28,0,28,0,,,,,,,,,,,,,,,,,,,,,,,,,,,,,,,,,,,,,,,,,,,,,,,,,9674.692975099897,None,,,,,,,,,,,,,,,,,,,,,,,,,,,,,,,,,,,,,,,,,,,,,,,,,,,,,,,,,leader,13,29,sing,old,yellow,9672.93165439996,None,y,9672.93165439996,None,"['y', 'return']","[1.430069899884984, 1.717885100049898]",9672.93165439996,None,,,22ND,001,2023_Mar_10_1134,ExactRep-v3-final,2021.2.3,59.850815876996954,
,,,,,,,,,,,,29,0,29,0,,,,,,,,,,,,,,,,,,,,,,,,,,,,,,,,,,,,,,,,,,,,,,,,,9676.33587890002,None,,,,,,,,,,,,,,,,,,,,,,,,,,,,,,,,,,,,,,,,,,,,,,,,,,,,,,,,,pole,114,30,aloud,old,yellow,9675.201461900026,None,y,9675.201461900026,None,"['y', 'return']","[0.8161673001013696, 1.0800842000171542]",9675.201461900026,None,,,22ND,001,2023_Mar_10_1134,ExactRep-v3-final,2021.2.3,59.850815876996954,
,,,,,,,,,,,,30,0,30,0,,,,,,,,,,,,,,,,,,,,,,,,,,,,,,,,,,,,,,,,,,,,,,,,,9678.68020329997,None,,,,,,,,,,,,,,,,,,,,,,,,,,,,,,,,,,,,,,,,,,,,,,,,,,,,,,,,,steam,54,31,silent,old,yellow,9676.863717,None,y,9676.863717,None,"['y', 'return']","[1.4418231002055109, 1.7779233001638204]",9676.863717,None,,,22ND,001,2023_Mar_10_1134,ExactRep-v3-final,2021.2.3,59.850815876996954,
,,,,,,,,,,,,31,0,31,0,,,,,,,,,,,,,,,,,,,,,,,,,,,,,,,,,,,,,,,,,,,,,,,,,9680.799036599929,None,,,,,,,,,,,,,,,,,,,,,,,,,,,,,,,,,,,,,,,,,,,,,,,,,,,,,,,,,bottle,93,32,aloud,old,yellow,9679.19096529996,None,y,9679.19096529996,None,"['y', 'return']","[0.7065825001336634, 1.570613499963656]",9679.19096529996,None,,,22ND,001,2023_Mar_10_1134,ExactRep-v3-final,2021.2.3,59.850815876996954,
,,,,,,,,,,,,32,0,32,0,,,,,,,,,,,,,,,,,,,,,,,,,,,,,,,,,,,,,,,,,,,,,,,,,9682.634014399955,None,,,,,,,,,,,,,,,,,,,,,,,,,,,,,,,,,,,,,,,,,,,,,,,,,,,,,,,,,slave,188,33,aloud,new,yellow,9681.310969500104,None,n,9681.310969500104,None,"['n', 'return']","[0.9867372000589967, 1.2905326001346111]",9681.310969500104,None,,,22ND,001,2023_Mar_10_1134,ExactRep-v3-final,2021.2.3,59.850815876996954,
,,,,,,,,,,,,33,0,33,0,,,,,,,,,,,,,,,,,,,,,,,,,,,,,,,,,,,,,,,,,,,,,,,,,9685.603990999982,None,,,,,,,,,,,,,,,,,,,,,,,,,,,,,,,,,,,,,,,,,,,,,,,,,,,,,,,,,bird,105,34,aloud,old,yellow,9683.136563600041,None,y,9683.136563600041,None,"['y', 'return']","[1.7531537001486868, 2.4330364000052214]",9683.136563600041,None,,,22ND,001,2023_Mar_10_1134,ExactRep-v3-final,2021.2.3,59.850815876996954,
,,,,,,,,,,,,34,0,34,0,,,,,,,,,,,,,,,,,,,,,,,,,,,,,,,,,,,,,,,,,,,,,,,,,9690.425192800118,None,,,,,,,,,,,,,,,,,,,,,,,,,,,,,,,,,,,,,,,,,,,,,,,,,,,,,,,,,coffee,9,35,sing,old,yellow,9686.111267100088,None,n,9686.111267100088,None,"['n', 'return']","[3.9462852999567986, 4.282309300033376]",9686.111267100088,None,,,22ND,001,2023_Mar_10_1134,ExactRep-v3-final,2021.2.3,59.850815876996954,
,,,,,,,,,,,,35,0,35,0,,,,,,,,,,,,,,,,,,,,,,,,,,,,,,,,,,,,,,,,,,,,,,,,,9692.160350699909,None,,,,,,,,,,,,,,,,,,,,,,,,,,,,,,,,,,,,,,,,,,,,,,,,,,,,,,,,,shore,48,36,silent,old,yellow,9690.933611199958,None,y,9690.933611199958,None,"['y', 'return']","[0.9400482999626547, 1.188019399996847]",9690.933611199958,None,,,22ND,001,2023_Mar_10_1134,ExactRep-v3-final,2021.2.3,59.850815876996954,
,,,,,,,,,,,,36,0,36,0,,,,,,,,,,,,,,,,,,,,,,,,,,,,,,,,,,,,,,,,,,,,,,,,,9693.74518790003,None,,,,,,,,,,,,,,,,,,,,,,,,,,,,,,,,,,,,,,,,,,,,,,,,,,,,,,,,,toy,225,37,sing,new,yellow,9692.66907069995,None,y,9692.66907069995,None,"['y', 'return']","[0.70852080010809, 1.0444998000748456]",9692.66907069995,None,,,22ND,001,2023_Mar_10_1134,ExactRep-v3-final,2021.2.3,59.850815876996954,
,,,,,,,,,,,,37,0,37,0,,,,,,,,,,,,,,,,,,,,,,,,,,,,,,,,,,,,,,,,,,,,,,,,,9695.463513500057,None,,,,,,,,,,,,,,,,,,,,,,,,,,,,,,,,,,,,,,,,,,,,,,,,,,,,,,,,,shock,235,38,sing,new,yellow,9694.253760300111,None,n,9694.253760300111,None,"['n', 'return']","[0.8678011998999864, 1.171808699844405]",9694.253760300111,None,,,22ND,001,2023_Mar_10_1134,ExactRep-v3-final,2021.2.3,59.850815876996954,
,,,,,,,,,,,,38,0,38,0,,,,,,,,,,,,,,,,,,,,,,,,,,,,,,,,,,,,,,,,,,,,,,,,,9697.065324699972,None,,,,,,,,,,,,,,,,,,,,,,,,,,,,,,,,,,,,,,,,,,,,,,,,,,,,,,,,,priest,24,39,sing,old,yellow,9695.964116699994,None,y,9695.964116699994,None,"['y', 'return']","[0.7978642999660224, 1.0694737997837365]",9695.964116699994,None,,,22ND,001,2023_Mar_10_1134,ExactRep-v3-final,2021.2.3,59.850815876996954,
,,,,,,,,,,,,39,0,39,0,,,,,,,,,,,,,,,,,,,,,,,,,,,,,,,,,,,,,,,,,,,,,,,,,9700.318664900027,None,,,,,,,,,,,,,,,,,,,,,,,,,,,,,,,,,,,,,,,,,,,,,,,,,,,,,,,,,length,21,40,sing,old,yellow,9697.57521410007,None,y,9697.57521410007,None,"['y', 'return']","[2.4423112000804394, 2.7063379001338035]",9697.57521410007,None,,,22ND,001,2023_Mar_10_1134,ExactRep-v3-final,2021.2.3,59.850815876996954,
,,,,,,,,,,,,40,0,40,0,,,,,,,,,,,,,,,,,,,,,,,,,,,,,,,,,,,,,,,,,,,,,,,,,9701.786576000042,None,,,,,,,,,,,,,,,,,,,,,,,,,,,,,,,,,,,,,,,,,,,,,,,,,,,,,,,,,charm,103,41,aloud,old,yellow,9700.830083400011,None,y,9700.830083400011,None,"['y', 'return']","[0.6916435000021011, 0.9234849000349641]",9700.830083400011,None,,,22ND,001,2023_Mar_10_1134,ExactRep-v3-final,2021.2.3,59.850815876996954,
,,,,,,,,,,,,41,0,41,0,,,,,,,,,,,,,,,,,,,,,,,,,,,,,,,,,,,,,,,,,,,,,,,,,9703.338087500073,None,,,,,,,,,,,,,,,,,,,,,,,,,,,,,,,,,,,,,,,,,,,,,,,,,,,,,,,,,fate,128,42,silent,new,yellow,9702.294152500108,None,n,9702.294152500108,None,"['n', 'return']","[0.7554007999133319, 1.0113295000046492]",9702.294152500108,None,,,22ND,001,2023_Mar_10_1134,ExactRep-v3-final,2021.2.3,59.850815876996954,
,,,,,,,,,,,,42,0,42,0,,,,,,,,,,,,,,,,,,,,,,,,,,,,,,,,,,,,,,,,,,,,,,,,,9705.874017999973,None,,,,,,,,,,,,,,,,,,,,,,,,,,,,,,,,,,,,,,,,,,,,,,,,,,,,,,,,,hope,170,43,aloud,new,yellow,9703.847262500087,None,n,9703.847262500087,None,"['n', 'return']","[1.7383061000145972, 1.9943134998902678]",9703.847262500087,None,,,22ND,001,2023_Mar_10_1134,ExactRep-v3-final,2021.2.3,59.850815876996954,
,,,,,,,,,,,,43,0,43,0,,,,,,,,,,,,,,,,,,,,,,,,,,,,,,,,,,,,,,,,,,,,,,,,,9707.609148100019,None,,,,,,,,,,,,,,,,,,,,,,,,,,,,,,,,,,,,,,,,,,,,,,,,,,,,,,,,,water,220,44,aloud,new,yellow,9706.38614149997,None,y,9706.38614149997,None,"['y', 'return']","[0.8793633000459522, 1.1835974999703467]",9706.38614149997,None,,,22ND,001,2023_Mar_10_1134,ExactRep-v3-final,2021.2.3,59.850815876996954,
,,,,,,,,,,,,44,0,44,0,,,,,,,,,,,,,,,,,,,,,,,,,,,,,,,,,,,,,,,,,,,,,,,,,9709.210728900041,None,,,,,,,,,,,,,,,,,,,,,,,,,,,,,,,,,,,,,,,,,,,,,,,,,,,,,,,,,king,4,45,sing,old,yellow,9708.111035499955,None,y,9708.111035499955,None,"['y', 'return']","[0.8025914998725057, 1.0666408999823034]",9708.111035499955,None,,,22ND,001,2023_Mar_10_1134,ExactRep-v3-final,2021.2.3,59.850815876996954,
,,,,,,,,,,,,45,0,45,0,,,,,,,,,,,,,,,,,,,,,,,,,,,,,,,,,,,,,,,,,,,,,,,,,9710.74558290001,None,,,,,,,,,,,,,,,,,,,,,,,,,,,,,,,,,,,,,,,,,,,,,,,,,,,,,,,,,love,222,46,aloud,new,yellow,9709.723992299987,None,y,9709.723992299987,None,"['y', 'return']","[0.6775040000211447, 0.973717600107193]",9709.723992299987,None,,,22ND,001,2023_Mar_10_1134,ExactRep-v3-final,2021.2.3,59.850815876996954,
,,,,,,,,,,,,46,0,46,0,,,,,,,,,,,,,,,,,,,,,,,,,,,,,,,,,,,,,,,,,,,,,,,,,9712.881076799938,None,,,,,,,,,,,,,,,,,,,,,,,,,,,,,,,,,,,,,,,,,,,,,,,,,,,,,,,,,opinion,179,47,sing,new,yellow,9711.26038959995,None,y,9711.26038959995,None,"['y', 'return']","[1.3092026999220252, 1.5731842999812216]",9711.26038959995,None,,,22ND,001,2023_Mar_10_1134,ExactRep-v3-final,2021.2.3,59.850815876996954,
,,,,,,,,,,,,47,0,47,0,,,,,,,,,,,,,,,,,,,,,,,,,,,,,,,,,,,,,,,,,,,,,,,,,9714.617203200003,None,,,,,,,,,,,,,,,,,,,,,,,,,,,,,,,,,,,,,,,,,,,,,,,,,,,,,,,,,forest,99,48,aloud,old,yellow,9713.395379400114,None,y,9713.395379400114,None,"['y', 'return']","[0.8941433001309633, 1.1742399001959711]",9713.395379400114,None,,,22ND,001,2023_Mar_10_1134,ExactRep-v3-final,2021.2.3,59.850815876996954,
,,,,,,,,,,,,48,0,48,0,,,,,,,,,,,,,,,,,,,,,,,,,,,,,,,,,,,,,,,,,,,,,,,,,9716.217640100047,None,,,,,,,,,,,,,,,,,,,,,,,,,,,,,,,,,,,,,,,,,,,,,,,,,,,,,,,,,breast,140,49,silent,new,yellow,9715.128516100114,None,n,9715.128516100114,None,"['n', 'return']","[0.7931309998966753, 1.0410504997707903]",9715.128516100114,None,,,22ND,001,2023_Mar_10_1134,ExactRep-v3-final,2021.2.3,59.850815876996954,
,,,,,,,,,,,,49,0,49,0,,,,,,,,,,,,,,,,,,,,,,,,,,,,,,,,,,,,,,,,,,,,,,,,,9717.78591570002,None,,,,,,,,,,,,,,,,,,,,,,,,,,,,,,,,,,,,,,,,,,,,,,,,,,,,,,,,,crime,61,50,silent,old,yellow,9716.724574800115,None,y,9716.724574800115,None,"['y', 'return']","[0.7812548999208957, 1.0290866999421269]",9716.724574800115,None,,,22ND,001,2023_Mar_10_1134,ExactRep-v3-final,2021.2.3,59.850815876996954,
,,,,,,,,,,,,50,0,50,0,,,,,,,,,,,,,,,,,,,,,,,,,,,,,,,,,,,,,,,,,,,,,,,,,9719.28750360012,None,,,,,,,,,,,,,,,,,,,,,,,,,,,,,,,,,,,,,,,,,,,,,,,,,,,,,,,,,journal,196,51,aloud,new,yellow,9718.291900600074,None,n,9718.291900600074,None,"['n', 'return']","[0.7098429999314249, 0.9576556999236345]",9718.291900600074,None,,,22ND,001,2023_Mar_10_1134,ExactRep-v3-final,2021.2.3,59.850815876996954,
,,,,,,,,,,,,51,0,51,0,,,,,,,,,,,,,,,,,,,,,,,,,,,,,,,,,,,,,,,,,,,,,,,,,9721.022404799936,None,,,,,,,,,,,,,,,,,,,,,,,,,,,,,,,,,,,,,,,,,,,,,,,,,,,,,,,,,speech,39,52,silent,old,yellow,9719.797419799957,None,n,9719.797419799957,None,"['n', 'return']","[0.8681505999993533, 1.1801974999252707]",9719.797419799957,None,,,22ND,001,2023_Mar_10_1134,ExactRep-v3-final,2021.2.3,59.850815876996954,
,,,,,,,,,,,,52,0,52,0,,,,,,,,,,,,,,,,,,,,,,,,,,,,,,,,,,,,,,,,,,,,,,,,,9722.657435799949,None,,,,,,,,,,,,,,,,,,,,,,,,,,,,,,,,,,,,,,,,,,,,,,,,,,,,,,,,,college,0,53,sing,old,yellow,9721.533521000063,None,y,9721.533521000063,None,"['y', 'return']","[0.7960719999391586, 1.0842137997969985]",9721.533521000063,None,,,22ND,001,2023_Mar_10_1134,ExactRep-v3-final,2021.2.3,59.850815876996954,
,,,,,,,,,,,,53,0,53,0,,,,,,,,,,,,,,,,,,,,,,,,,,,,,,,,,,,,,,,,,,,,,,,,,9724.275880000088,None,,,,,,,,,,,,,,,,,,,,,,,,,,,,,,,,,,,,,,,,,,,,,,,,,,,,,,,,,dollar,18,54,sing,old,yellow,9723.165943700122,None,y,9723.165943700122,None,"['y', 'return']","[0.7397278998978436, 1.0755797000601888]",9723.165943700122,None,,,22ND,001,2023_Mar_10_1134,ExactRep-v3-final,2021.2.3,59.850815876996954,
,,,,,,,,,,,,54,0,54,0,,,,,,,,,,,,,,,,,,,,,,,,,,,,,,,,,,,,,,,,,,,,,,,,,9726.046926700044,None,,,,,,,,,,,,,,,,,,,,,,,,,,,,,,,,,,,,,,,,,,,,,,,,,,,,,,,,,skin,42,55,silent,old,yellow,9724.786646800116,None,y,9724.786646800116,None,"['y', 'return']","[0.9190121998544782, 1.2148900998290628]",9724.786646800116,None,,,22ND,001,2023_Mar_10_1134,ExactRep-v3-final,2021.2.3,59.850815876996954,
,,,,,,,,,,,,55,0,55,0,,,,,,,,,,,,,,,,,,,,,,,,,,,,,,,,,,,,,,,,,,,,,,,,,9727.996176199988,None,,,,,,,,,,,,,,,,,,,,,,,,,,,,,,,,,,,,,,,,,,,,,,,,,,,,,,,,,flesh,62,56,silent,old,yellow,9726.567535599926,None,y,9726.567535599926,None,"['y', 'return']","[1.034002099884674, 1.386155999964103]",9726.567535599926,None,,,22ND,001,2023_Mar_10_1134,ExactRep-v3-final,2021.2.3,59.850815876996954,
,,,,,,,,,,,,56,0,56,0,,,,,,,,,,,,,,,,,,,,,,,,,,,,,,,,,,,,,,,,,,,,,,,,,9729.697798300069,None,,,,,,,,,,,,,,,,,,,,,,,,,,,,,,,,,,,,,,,,,,,,,,,,,,,,,,,,,valley,117,57,aloud,old,yellow,9728.50872120005,None,n,9728.50872120005,None,"['n', 'return']","[0.8448175999801606, 1.1488969000056386]",9728.50872120005,None,,,22ND,001,2023_Mar_10_1134,ExactRep-v3-final,2021.2.3,59.850815876996954,
,,,,,,,,,,,,57,0,57,0,,,,,,,,,,,,,,,,,,,,,,,,,,,,,,,,,,,,,,,,,,,,,,,,,9731.549711900065,None,,,,,,,,,,,,,,,,,,,,,,,,,,,,,,,,,,,,,,,,,,,,,,,,,,,,,,,,,palace,229,58,sing,new,yellow,9730.210586500121,None,n,9730.210586500121,None,"['n', 'return']","[1.0149940000846982, 1.3030401999130845]",9730.210586500121,None,,,22ND,001,2023_Mar_10_1134,ExactRep-v3-final,2021.2.3,59.850815876996954,
,,,,,,,,,,,,58,0,58,0,,,,,,,,,,,,,,,,,,,,,,,,,,,,,,,,,,,,,,,,,,,,,,,,,9735.186617400032,None,,,,,,,,,,,,,,,,,,,,,,,,,,,,,,,,,,,,,,,,,,,,,,,,,,,,,,,,,death,67,59,silent,old,yellow,9732.062630899949,None,y,9732.062630899949,None,"['y', 'return']","[2.8270575997885317, 3.08303470001556]",9732.062630899949,None,,,22ND,001,2023_Mar_10_1134,ExactRep-v3-final,2021.2.3,59.850815876996954,
,,,,,,,,,,,,59,0,59,0,,,,,,,,,,,,,,,,,,,,,,,,,,,,,,,,,,,,,,,,,,,,,,,,,9737.038560299901,None,,,,,,,,,,,,,,,,,,,,,,,,,,,,,,,,,,,,,,,,,,,,,,,,,,,,,,,,,origin,150,60,silent,new,yellow,9735.696279299911,None,n,9735.696279299911,None,"['n', 'return']","[0.9773682998493314, 1.3054076000116765]",9735.696279299911,None,,,22ND,001,2023_Mar_10_1134,ExactRep-v3-final,2021.2.3,59.850815876996954,
,,,,,,,,,,,,60,0,60,0,,,,,,,,,,,,,,,,,,,,,,,,,,,,,,,,,,,,,,,,,,,,,,,,,9740.041654000059,None,,,,,,,,,,,,,,,,,,,,,,,,,,,,,,,,,,,,,,,,,,,,,,,,,,,,,,,,,chair,107,61,aloud,old,yellow,9737.549876099918,None,y,9737.549876099918,None,"['y', 'return']","[2.171745899831876, 2.4438020000234246]",9737.549876099918,None,,,22ND,001,2023_Mar_10_1134,ExactRep-v3-final,2021.2.3,59.850815876996954,
,,,,,,,,,,,,61,0,61,0,,,,,,,,,,,,,,,,,,,,,,,,,,,,,,,,,,,,,,,,,,,,,,,,,9742.243670100113,None,,,,,,,,,,,,,,,,,,,,,,,,,,,,,,,,,,,,,,,,,,,,,,,,,,,,,,,,,diamond,152,62,silent,new,yellow,9740.552006399957,None,n,9740.552006399957,None,"['n', 'return']","[1.4018926999997348, 1.649625699967146]",9740.552006399957,None,,,22ND,001,2023_Mar_10_1134,ExactRep-v3-final,2021.2.3,59.850815876996954,
,,,,,,,,,,,,62,0,62,0,,,,,,,,,,,,,,,,,,,,,,,,,,,,,,,,,,,,,,,,,,,,,,,,,9744.379222299904,None,,,,,,,,,,,,,,,,,,,,,,,,,,,,,,,,,,,,,,,,,,,,,,,,,,,,,,,,,cattle,104,63,aloud,old,yellow,9742.7552308999,None,y,9742.7552308999,None,"['y', 'return']","[1.1744067000690848, 1.5904151999857277]",9742.7552308999,None,,,22ND,001,2023_Mar_10_1134,ExactRep-v3-final,2021.2.3,59.850815876996954,
,,,,,,,,,,,,63,0,63,0,,,,,,,,,,,,,,,,,,,,,,,,,,,,,,,,,,,,,,,,,,,,,,,,,9747.365633799927,None,,,,,,,,,,,,,,,,,,,,,,,,,,,,,,,,,,,,,,,,,,,,,,,,,,,,,,,,,board,176,64,aloud,new,yellow,9744.891895900015,None,y,9744.891895900015,None,"['y', 'return']","[2.1657552998512983, 2.4296826999634504]",9744.891895900015,None,,,22ND,001,2023_Mar_10_1134,ExactRep-v3-final,2021.2.3,59.850815876996954,
,,,,,,,,,,,,64,0,64,0,,,,,,,,,,,,,,,,,,,,,,,,,,,,,,,,,,,,,,,,,,,,,,,,,9749.467721899971,None,,,,,,,,,,,,,,,,,,,,,,,,,,,,,,,,,,,,,,,,,,,,,,,,,,,,,,,,,rock,180,65,aloud,new,yellow,9747.877060699975,None,n,9747.877060699975,None,"['n', 'return']","[1.2685771000105888, 1.5565522001124918]",9747.877060699975,None,,,22ND,001,2023_Mar_10_1134,ExactRep-v3-final,2021.2.3,59.850815876996954,
,,,,,,,,,,,,65,0,65,0,,,,,,,,,,,,,,,,,,,,,,,,,,,,,,,,,,,,,,,,,,,,,,,,,9751.336279300041,None,,,,,,,,,,,,,,,,,,,,,,,,,,,,,,,,,,,,,,,,,,,,,,,,,,,,,,,,,amount,134,66,silent,new,yellow,9749.979963399936,None,n,9749.979963399936,None,"['n', 'return']","[1.005592199973762, 1.3096885001286864]",9749.979963399936,None,,,22ND,001,2023_Mar_10_1134,ExactRep-v3-final,2021.2.3,59.850815876996954,
,,,,,,,,,,,,66,0,66,0,,,,,,,,,,,,,,,,,,,,,,,,,,,,,,,,,,,,,,,,,,,,,,,,,9753.071344400058,None,,,,,,,,,,,,,,,,,,,,,,,,,,,,,,,,,,,,,,,,,,,,,,,,,,,,,,,,,army,10,67,sing,old,yellow,9751.856188700069,None,y,9751.856188700069,None,"['y', 'return']","[0.8575166000518948, 1.177489799913019]",9751.856188700069,None,,,22ND,001,2023_Mar_10_1134,ExactRep-v3-final,2021.2.3,59.850815876996954,
,,,,,,,,,,,,67,0,67,0,,,,,,,,,,,,,,,,,,,,,,,,,,,,,,,,,,,,,,,,,,,,,,,,,9754.722827899968,None,,,,,,,,,,,,,,,,,,,,,,,,,,,,,,,,,,,,,,,,,,,,,,,,,,,,,,,,,silence,94,68,aloud,old,yellow,9753.585194299929,None,y,9753.585194299929,None,"['y', 'return']","[0.8244335998315364, 1.0964731997810304]",9753.585194299929,None,,,22ND,001,2023_Mar_10_1134,ExactRep-v3-final,2021.2.3,59.850815876996954,
,,,,,,,,,,,,68,0,68,0,,,,,,,,,,,,,,,,,,,,,,,,,,,,,,,,,,,,,,,,,,,,,,,,,9757.425534599926,None,,,,,,,,,,,,,,,,,,,,,,,,,,,,,,,,,,,,,,,,,,,,,,,,,,,,,,,,,troops,26,69,sing,old,yellow,9755.233131499961,None,y,9755.233131499961,None,"['y', 'y', 'return']","[0.7763533999677747, 0.9764598000328988, 2.1445434000343084]",9755.233131499961,None,,,22ND,001,2023_Mar_10_1134,ExactRep-v3-final,2021.2.3,59.850815876996954,
,,,,,,,,,,,,69,0,69,0,,,,,,,,,,,,,,,,,,,,,,,,,,,,,,,,,,,,,,,,,,,,,,,,,9759.46090950002,None,,,,,,,,,,,,,,,,,,,,,,,,,,,,,,,,,,,,,,,,,,,,,,,,,,,,,,,,,camp,91,70,aloud,old,yellow,9757.935483299894,None,y,9757.935483299894,None,"['y', 'return']","[1.2021238000597805, 1.4820926999673247]",9757.935483299894,None,,,22ND,001,2023_Mar_10_1134,ExactRep-v3-final,2021.2.3,59.850815876996954,
,,,,,,,,,,,,70,0,70,0,,,,,,,,,,,,,,,,,,,,,,,,,,,,,,,,,,,,,,,,,,,,,,,,,9764.532620100072,None,,,,,,,,,,,,,,,,,,,,,,,,,,,,,,,,,,,,,,,,,,,,,,,,,,,,,,,,,queen,35,71,sing,old,yellow,9759.9710281,None,n,9759.9710281,None,"['y', 'n', 'backspace', 'n', 'return']","[1.67075560009107, 2.710514800157398, 3.6626083001028746, 4.038676500087604, 4.518578900024295]",9759.9710281,None,,,22ND,001,2023_Mar_10_1134,ExactRep-v3-final,2021.2.3,59.850815876996954,
,,,,,,,,,,,,71,0,71,0,,,,,,,,,,,,,,,,,,,,,,,,,,,,,,,,,,,,,,,,,,,,,,,,,9766.5359896,None,,,,,,,,,,,,,,,,,,,,,,,,,,,,,,,,,,,,,,,,,,,,,,,,,,,,,,,,,dust,221,72,sing,new,yellow,9765.0469339001,None,y,9765.0469339001,None,"['y', 'return']","[1.138701400021091, 1.4427525999490172]",9765.0469339001,None,,,22ND,001,2023_Mar_10_1134,ExactRep-v3-final,2021.2.3,59.850815876996954,
,,,,,,,,,,,,72,0,72,0,,,,,,,,,,,,,,,,,,,,,,,,,,,,,,,,,,,,,,,,,,,,,,,,,9768.236409500008,None,,,,,,,,,,,,,,,,,,,,,,,,,,,,,,,,,,,,,,,,,,,,,,,,,,,,,,,,,hotel,22,73,sing,old,yellow,9767.045250599971,None,y,9767.045250599971,None,"['y', 'return']","[0.8364645000547171, 1.1562872999347746]",9767.045250599971,None,,,22ND,001,2023_Mar_10_1134,ExactRep-v3-final,2021.2.3,59.850815876996954,
,,,,,,,,,,,,73,0,73,0,,,,,,,,,,,,,,,,,,,,,,,,,,,,,,,,,,,,,,,,,,,,,,,,,9770.305159199983,None,,,,,,,,,,,,,,,,,,,,,,,,,,,,,,,,,,,,,,,,,,,,,,,,,,,,,,,,,library,236,74,aloud,new,yellow,9768.742759200046,None,n,9768.742759200046,None,"['n', 'return']","[1.2348404000513256, 1.5148968000430614]",9768.742759200046,None,,,22ND,001,2023_Mar_10_1134,ExactRep-v3-final,2021.2.3,59.850815876996954,
,,,,,,,,,,,,74,0,74,0,,,,,,,,,,,,,,,,,,,,,,,,,,,,,,,,,,,,,,,,,,,,,,,,,9772.62425159989,None,,,,,,,,,,,,,,,,,,,,,,,,,,,,,,,,,,,,,,,,,,,,,,,,,,,,,,,,,event,154,75,silent,new,yellow,9770.814487500116,None,n,9770.814487500116,None,"['n', 'return']","[1.355225499952212, 1.7711951998062432]",9770.814487500116,None,,,22ND,001,2023_Mar_10_1134,ExactRep-v3-final,2021.2.3,59.850815876996954,
,,,,,,,,,,,,75,0,75,0,,,,,,,,,,,,,,,,,,,,,,,,,,,,,,,,,,,,,,,,,,,,,,,,,9774.726257500006,None,,,,,,,,,,,,,,,,,,,,,,,,,,,,,,,,,,,,,,,,,,,,,,,,,,,,,,,,,pride,58,76,silent,old,yellow,9773.145613499917,None,y,9773.145613499917,None,"['y', 'return']","[1.2238883001264185, 1.5359420001041144]",9773.145613499917,None,,,22ND,001,2023_Mar_10_1134,ExactRep-v3-final,2021.2.3,59.850815876996954,
,,,,,,,,,,,,76,0,76,0,,,,,,,,,,,,,,,,,,,,,,,,,,,,,,,,,,,,,,,,,,,,,,,,,9776.461222100072,None,,,,,,,,,,,,,,,,,,,,,,,,,,,,,,,,,,,,,,,,,,,,,,,,,,,,,,,,,flag,173,77,sing,new,yellow,9775.239592599915,None,y,9775.239592599915,None,"['y', 'return']","[0.8180994999129325, 1.186267799930647]",9775.239592599915,None,,,22ND,001,2023_Mar_10_1134,ExactRep-v3-final,2021.2.3,59.850815876996954,
,,,,,,,,,,,,77,0,77,0,,,,,,,,,,,,,,,,,,,,,,,,,,,,,,,,,,,,,,,,,,,,,,,,,9778.16430189996,None,,,,,,,,,,,,,,,,,,,,,,,,,,,,,,,,,,,,,,,,,,,,,,,,,,,,,,,,,shadow,167,78,sing,new,yellow,9776.96876180009,None,n,9776.96876180009,None,"['n', 'return']","[0.8809451998677105, 1.152938799932599]",9776.96876180009,None,,,22ND,001,2023_Mar_10_1134,ExactRep-v3-final,2021.2.3,59.850815876996954,
,,,,,,,,,,,,78,0,78,0,,,,,,,,,,,,,,,,,,,,,,,,,,,,,,,,,,,,,,,,,,,,,,,,,9779.797993999906,None,,,,,,,,,,,,,,,,,,,,,,,,,,,,,,,,,,,,,,,,,,,,,,,,,,,,,,,,,clock,211,79,sing,new,yellow,9778.668480300112,None,n,9778.668480300112,None,"['n', 'return']","[0.8131196000613272, 1.085115100024268]",9778.668480300112,None,,,22ND,001,2023_Mar_10_1134,ExactRep-v3-final,2021.2.3,59.850815876996954,
,,,,,,,,,,,,79,0,79,0,,,,,,,,,,,,,,,,,,,,,,,,,,,,,,,,,,,,,,,,,,,,,,,,,9781.583011599956,None,,,,,,,,,,,,,,,,,,,,,,,,,,,,,,,,,,,,,,,,,,,,,,,,,,,,,,,,,law,68,80,silent,old,yellow,9780.31394329993,None,y,9780.31394329993,None,"['y', 'return']","[0.9916071998886764, 1.2316874999087304]",9780.31394329993,None,,,22ND,001,2023_Mar_10_1134,ExactRep-v3-final,2021.2.3,59.850815876996954,
,,,,,,,,,,,,80,0,80,0,,,,,,,,,,,,,,,,,,,,,,,,,,,,,,,,,,,,,,,,,,,,,,,,,9784.402589899953,None,,,,,,,,,,,,,,,,,,,,,,,,,,,,,,,,,,,,,,,,,,,,,,,,,,,,,,,,,mother,47,81,silent,old,yellow,9782.094046100043,None,y,9782.094046100043,None,"['y', 'return']","[1.9475587999913841, 2.2756446001585573]",9782.094046100043,None,,,22ND,001,2023_Mar_10_1134,ExactRep-v3-final,2021.2.3,59.850815876996954,
,,,,,,,,,,,,81,0,81,0,,,,,,,,,,,,,,,,,,,,,,,,,,,,,,,,,,,,,,,,,,,,,,,,,9787.25551840011,None,,,,,,,,,,,,,,,,,,,,,,,,,,,,,,,,,,,,,,,,,,,,,,,,,,,,,,,,,humour,186,82,aloud,new,yellow,9784.915883400012,None,n,9784.915883400012,None,"['n', 'return']","[1.7498086001724005, 2.2938876000698656]",9784.915883400012,None,,,22ND,001,2023_Mar_10_1134,ExactRep-v3-final,2021.2.3,59.850815876996954,
,,,,,,,,,,,,82,0,82,0,,,,,,,,,,,,,,,,,,,,,,,,,,,,,,,,,,,,,,,,,,,,,,,,,9790.592046000063,None,,,,,,,,,,,,,,,,,,,,,,,,,,,,,,,,,,,,,,,,,,,,,,,,,,,,,,,,,coin,63,83,silent,old,yellow,9787.764505600091,None,n,9787.764505600091,None,"['y', 'backspace', 'n', 'return']","[0.9651836000848562, 1.6933297000359744, 2.389206000138074, 2.7812138001900166]",9787.764505600091,None,,,22ND,001,2023_Mar_10_1134,ExactRep-v3-final,2021.2.3,59.850815876996954,
,,,,,,,,,,,,83,0,83,0,,,,,,,,,,,,,,,,,,,,,,,,,,,,,,,,,,,,,,,,,,,,,,,,,9800.335195200052,None,,,,,,,,,,,,,,,,,,,,,,,,,,,,,,,,,,,,,,,,,,,,,,,,,,,,,,,,,bar,16,84,sing,old,yellow,9791.101040000096,None,y,9791.101040000096,None,"['y', 'return']","[8.940620600013062, 9.196610900107771]",9791.101040000096,None,,,22ND,001,2023_Mar_10_1134,ExactRep-v3-final,2021.2.3,59.850815876996954,
,,,,,,,,,,,,84,0,84,0,,,,,,,,,,,,,,,,,,,,,,,,,,,,,,,,,,,,,,,,,,,,,,,,,9801.886679999996,None,,,,,,,,,,,,,,,,,,,,,,,,,,,,,,,,,,,,,,,,,,,,,,,,,,,,,,,,,machine,108,85,aloud,old,yellow,9800.843797399895,None,y,9800.843797399895,None,"['y', 'return']","[0.7340660002082586, 1.00589260016568]",9800.843797399895,None,,,22ND,001,2023_Mar_10_1134,ExactRep-v3-final,2021.2.3,59.850815876996954,
,,,,,,,,,,,,85,0,85,0,,,,,,,,,,,,,,,,,,,,,,,,,,,,,,,,,,,,,,,,,,,,,,,,,9804.906410200056,None,,,,,,,,,,,,,,,,,,,,,,,,,,,,,,,,,,,,,,,,,,,,,,,,,,,,,,,,,doll,124,86,silent,new,yellow,9802.398210899904,None,n,9802.398210899904,None,"['n', 'return']","[2.1794101998675615, 2.475404900033027]",9802.398210899904,None,,,22ND,001,2023_Mar_10_1134,ExactRep-v3-final,2021.2.3,59.850815876996954,
,,,,,,,,,,,,86,0,86,0,,,,,,,,,,,,,,,,,,,,,,,,,,,,,,,,,,,,,,,,,,,,,,,,,9806.67477459996,None,,,,,,,,,,,,,,,,,,,,,,,,,,,,,,,,,,,,,,,,,,,,,,,,,,,,,,,,,picture,120,87,silent,new,yellow,9805.414463599911,None,n,9805.414463599911,None,"['n', 'return']","[0.8512311999220401, 1.2272546999156475]",9805.414463599911,None,,,22ND,001,2023_Mar_10_1134,ExactRep-v3-final,2021.2.3,59.850815876996954,
,,,,,,,,,,,,87,0,87,0,,,,,,,,,,,,,,,,,,,,,,,,,,,,,,,,,,,,,,,,,,,,,,,,,9808.52684350009,None,,,,,,,,,,,,,,,,,,,,,,,,,,,,,,,,,,,,,,,,,,,,,,,,,,,,,,,,,advice,237,88,sing,new,yellow,9807.185643600067,None,n,9807.185643600067,None,"['n', 'return']","[1.024068299913779, 1.296111699892208]",9807.185643600067,None,,,22ND,001,2023_Mar_10_1134,ExactRep-v3-final,2021.2.3,59.850815876996954,
,,,,,,,,,,,,88,0,88,0,,,,,,,,,,,,,,,,,,,,,,,,,,,,,,,,,,,,,,,,,,,,,,,,,9812.614143599989,None,,,,,,,,,,,,,,,,,,,,,,,,,,,,,,,,,,,,,,,,,,,,,,,,,,,,,,,,,honour,178,89,aloud,new,yellow,9809.034856399987,None,y,9809.034856399987,None,"['n', 'backspace', 'y', 'return']","[1.0548885001335293, 2.5829255001153797, 3.086876600049436, 3.54295130004175]",9809.034856399987,None,,,22ND,001,2023_Mar_10_1134,ExactRep-v3-final,2021.2.3,59.850815876996954,
,,,,,,,,,,,,89,0,89,0,,,,,,,,,,,,,,,,,,,,,,,,,,,,,,,,,,,,,,,,,,,,,,,,,9817.552400100045,None,,,,,,,,,,,,,,,,,,,,,,,,,,,,,,,,,,,,,,,,,,,,,,,,,,,,,,,,,virtue,169,90,sing,new,yellow,9813.118192600086,None,n,9813.118192600086,None,"['n', 'return']","[4.107439400162548, 4.387491600122303]",9813.118192600086,None,,,22ND,001,2023_Mar_10_1134,ExactRep-v3-final,2021.2.3,59.850815876996954,
,,,,,,,,,,,,90,0,90,0,,,,,,,,,,,,,,,,,,,,,,,,,,,,,,,,,,,,,,,,,,,,,,,,,9823.425047399942,None,,,,,,,,,,,,,,,,,,,,,,,,,,,,,,,,,,,,,,,,,,,,,,,,,,,,,,,,,shoes,121,91,silent,new,yellow,9818.062175600091,None,n,9818.062175600091,None,"['n', 'return']","[4.867497499799356, 5.3155336999334395]",9818.062175600091,None,,,22ND,001,2023_Mar_10_1134,ExactRep-v3-final,2021.2.3,59.850815876996954,
,,,,,,,,,,,,91,0,91,0,,,,,,,,,,,,,,,,,,,,,,,,,,,,,,,,,,,,,,,,,,,,,,,,,9825.259976499947,None,,,,,,,,,,,,,,,,,,,,,,,,,,,,,,,,,,,,,,,,,,,,,,,,,,,,,,,,,lad,81,92,aloud,old,yellow,9823.930107200053,None,y,9823.930107200053,None,"['y', 'return']","[0.9196674001868814, 1.2955182001460344]",9823.930107200053,None,,,22ND,001,2023_Mar_10_1134,ExactRep-v3-final,2021.2.3,59.850815876996954,
,,,,,,,,,,,,92,0,92,0,,,,,,,,,,,,,,,,,,,,,,,,,,,,,,,,,,,,,,,,,,,,,,,,,9826.711695099948,None,,,,,,,,,,,,,,,,,,,,,,,,,,,,,,,,,,,,,,,,,,,,,,,,,,,,,,,,,home,20,93,sing,old,yellow,9825.770517500117,None,y,9825.770517500117,None,"['y', 'return']","[0.5753103999886662, 0.9032008000649512]",9825.770517500117,None,,,22ND,001,2023_Mar_10_1134,ExactRep-v3-final,2021.2.3,59.850815876996954,
,,,,,,,,,,,,93,0,93,0,,,,,,,,,,,,,,,,,,,,,,,,,,,,,,,,,,,,,,,,,,,,,,,,,9828.446693300037,None,,,,,,,,,,,,,,,,,,,,,,,,,,,,,,,,,,,,,,,,,,,,,,,,,,,,,,,,,cabin,182,94,aloud,new,yellow,9827.221505600028,None,n,9827.221505600028,None,"['n', 'return']","[0.8440677998587489, 1.1802045998629183]",9827.221505600028,None,,,22ND,001,2023_Mar_10_1134,ExactRep-v3-final,2021.2.3,59.850815876996954,
,,,,,,,,,,,,94,0,94,0,,,,,,,,,,,,,,,,,,,,,,,,,,,,,,,,,,,,,,,,,,,,,,,,,9830.281816999894,None,,,,,,,,,,,,,,,,,,,,,,,,,,,,,,,,,,,,,,,,,,,,,,,,,,,,,,,,,officer,163,95,sing,new,yellow,9828.955726400018,None,n,9828.955726400018,None,"['n', 'return']","[0.966066800057888, 1.2939987001009285]",9828.955726400018,None,,,22ND,001,2023_Mar_10_1134,ExactRep-v3-final,2021.2.3,59.850815876996954,
,,,,,,,,,,,,95,0,95,0,,,,,,,,,,,,,,,,,,,,,,,,,,,,,,,,,,,,,,,,,,,,,,,,,9832.350459200097,None,,,,,,,,,,,,,,,,,,,,,,,,,,,,,,,,,,,,,,,,,,,,,,,,,,,,,,,,,string,192,96,aloud,new,yellow,9830.79170619999,None,n,9830.79170619999,None,"['n', 'return']","[1.242015999974683, 1.521978999953717]",9830.79170619999,None,,,22ND,001,2023_Mar_10_1134,ExactRep-v3-final,2021.2.3,59.850815876996954,
,,,,,,,,,,,,96,0,96,0,,,,,,,,,,,,,,,,,,,,,,,,,,,,,,,,,,,,,,,,,,,,,,,,,9833.851978600025,None,,,,,,,,,,,,,,,,,,,,,,,,,,,,,,,,,,,,,,,,,,,,,,,,,,,,,,,,,engine,122,97,silent,new,yellow,9832.85793920001,None,y,9832.85793920001,None,"['y', 'return']","[0.703847800148651, 0.9518047000747174]",9832.85793920001,None,,,22ND,001,2023_Mar_10_1134,ExactRep-v3-final,2021.2.3,59.850815876996954,
,,,,,,,,,,,,97,0,97,0,,,,,,,,,,,,,,,,,,,,,,,,,,,,,,,,,,,,,,,,,,,,,,,,,9835.420069100102,None,,,,,,,,,,,,,,,,,,,,,,,,,,,,,,,,,,,,,,,,,,,,,,,,,,,,,,,,,window,216,98,aloud,new,yellow,9834.363347999984,None,y,9834.363347999984,None,"['y', 'return']","[0.7982478998601437, 1.0142626999877393]",9834.363347999984,None,,,22ND,001,2023_Mar_10_1134,ExactRep-v3-final,2021.2.3,59.850815876996954,
,,,,,,,,,,,,98,0,98,0,,,,,,,,,,,,,,,,,,,,,,,,,,,,,,,,,,,,,,,,,,,,,,,,,9836.838364999974,None,,,,,,,,,,,,,,,,,,,,,,,,,,,,,,,,,,,,,,,,,,,,,,,,,,,,,,,,,anger,6,99,sing,old,yellow,9835.936234799912,None,y,9835.936234799912,None,"['y', 'return']","[0.6814560000784695, 0.8655357998795807]",9835.936234799912,None,,,22ND,001,2023_Mar_10_1134,ExactRep-v3-final,2021.2.3,59.850815876996954,
,,,,,,,,,,,,99,0,99,0,,,,,,,,,,,,,,,,,,,,,,,,,,,,,,,,,,,,,,,,,,,,,,,,,9838.473204500042,None,,,,,,,,,,,,,,,,,,,,,,,,,,,,,,,,,,,,,,,,,,,,,,,,,,,,,,,,,devil,60,100,silent,old,yellow,9837.349633699981,None,y,9837.349633699981,None,"['y', 'return']","[0.9400371999945492, 1.0761255999095738]",9837.349633699981,None,,,22ND,001,2023_Mar_10_1134,ExactRep-v3-final,2021.2.3,59.850815876996954,
,,,,,,,,,,,,100,0,100,0,,,,,,,,,,,,,,,,,,,,,,,,,,,,,,,,,,,,,,,,,,,,,,,,,9840.642083300045,None,,,,,,,,,,,,,,,,,,,,,,,,,,,,,,,,,,,,,,,,,,,,,,,,,,,,,,,,,wheat,56,101,silent,old,yellow,9838.990279699909,None,n,9838.990279699909,None,"['n', 'return']","[1.355542799923569, 1.6196127999573946]",9838.990279699909,None,,,22ND,001,2023_Mar_10_1134,ExactRep-v3-final,2021.2.3,59.850815876996954,
,,,,,,,,,,,,101,0,101,0,,,,,,,,,,,,,,,,,,,,,,,,,,,,,,,,,,,,,,,,,,,,,,,,,9842.644249500008,None,,,,,,,,,,,,,,,,,,,,,,,,,,,,,,,,,,,,,,,,,,,,,,,,,,,,,,,,,city,44,102,silent,old,yellow,9841.15101479995,None,y,9841.15101479995,None,"['y', 'return']","[1.210777600063011, 1.458642200101167]",9841.15101479995,None,,,22ND,001,2023_Mar_10_1134,ExactRep-v3-final,2021.2.3,59.850815876996954,
,,,,,,,,,,,,102,0,102,0,,,,,,,,,,,,,,,,,,,,,,,,,,,,,,,,,,,,,,,,,,,,,,,,,9844.262482499937,None,,,,,,,,,,,,,,,,,,,,,,,,,,,,,,,,,,,,,,,,,,,,,,,,,,,,,,,,,corner,203,103,sing,new,yellow,9843.16110139992,None,n,9843.16110139992,None,"['n', 'return']","[0.6646555999759585, 1.056576100178063]",9843.16110139992,None,,,22ND,001,2023_Mar_10_1134,ExactRep-v3-final,2021.2.3,59.850815876996954,
,,,,,,,,,,,,103,0,103,0,,,,,,,,,,,,,,,,,,,,,,,,,,,,,,,,,,,,,,,,,,,,,,,,,9847.966070299968,None,,,,,,,,,,,,,,,,,,,,,,,,,,,,,,,,,,,,,,,,,,,,,,,,,,,,,,,,,temple,100,104,aloud,old,yellow,9844.77189669991,None,n,9844.77189669991,None,"['n', 'return']","[2.8937556999735534, 3.149748699972406]",9844.77189669991,None,,,22ND,001,2023_Mar_10_1134,ExactRep-v3-final,2021.2.3,59.850815876996954,
,,,,,,,,,,,,104,0,104,0,,,,,,,,,,,,,,,,,,,,,,,,,,,,,,,,,,,,,,,,,,,,,,,,,9849.734667399898,None,,,,,,,,,,,,,,,,,,,,,,,,,,,,,,,,,,,,,,,,,,,,,,,,,,,,,,,,,present,233,105,sing,new,yellow,9848.482424000045,None,y,9848.482424000045,None,"['y', 'return']","[0.7193167998921126, 1.2153111998923123]",9848.482424000045,None,,,22ND,001,2023_Mar_10_1134,ExactRep-v3-final,2021.2.3,59.850815876996954,
,,,,,,,,,,,,105,0,105,0,,,,,,,,,,,,,,,,,,,,,,,,,,,,,,,,,,,,,,,,,,,,,,,,,9851.619716200046,None,,,,,,,,,,,,,,,,,,,,,,,,,,,,,,,,,,,,,,,,,,,,,,,,,,,,,,,,,car,147,106,silent,new,yellow,9850.245898700086,None,n,9850.245898700086,None,"['n', 'return']","[1.09984470019117, 1.3318675002083182]",9850.245898700086,None,,,22ND,001,2023_Mar_10_1134,ExactRep-v3-final,2021.2.3,59.850815876996954,
,,,,,,,,,,,,106,0,106,0,,,,,,,,,,,,,,,,,,,,,,,,,,,,,,,,,,,,,,,,,,,,,,,,,9853.338125499897,None,,,,,,,,,,,,,,,,,,,,,,,,,,,,,,,,,,,,,,,,,,,,,,,,,,,,,,,,,house,78,107,silent,old,yellow,9852.128172300057,None,y,9852.128172300057,None,"['y', 'return']","[0.9695240000728518, 1.1695755999535322]",9852.128172300057,None,,,22ND,001,2023_Mar_10_1134,ExactRep-v3-final,2021.2.3,59.850815876996954,
,,,,,,,,,,,,107,0,107,0,,,,,,,,,,,,,,,,,,,,,,,,,,,,,,,,,,,,,,,,,,,,,,,,,9855.640425000107,None,,,,,,,,,,,,,,,,,,,,,,,,,,,,,,,,,,,,,,,,,,,,,,,,,,,,,,,,,animal,195,108,sing,new,yellow,9853.840954199899,None,y,9853.840954199899,None,"['y', 'return']","[1.561097500147298, 1.760830800049007]",9853.840954199899,None,,,22ND,001,2023_Mar_10_1134,ExactRep-v3-final,2021.2.3,59.850815876996954,
,,,,,,,,,,,,108,0,108,0,,,,,,,,,,,,,,,,,,,,,,,,,,,,,,,,,,,,,,,,,,,,,,,,,9860.0449812999,None,,,,,,,,,,,,,,,,,,,,,,,,,,,,,,,,,,,,,,,,,,,,,,,,,,,,,,,,,table,95,109,aloud,old,yellow,9856.14487609989,None,y,9856.14487609989,None,"['y', 'return']","[3.7289779998827726, 3.8650189999025315]",9856.14487609989,None,,,22ND,001,2023_Mar_10_1134,ExactRep-v3-final,2021.2.3,59.850815876996954,
,,,,,,,,,,,,109,0,109,0,,,,,,,,,,,,,,,,,,,,,,,,,,,,,,,,,,,,,,,,,,,,,,,,,9864.182342800079,None,,,,,,,,,,,,,,,,,,,,,,,,,,,,,,,,,,,,,,,,,,,,,,,,,,,,,,,,,green,69,110,silent,old,yellow,9860.5558515999,None,n,9860.5558515999,None,"['n', 'return']","[3.301859100116417, 3.589903200045228]",9860.5558515999,None,,,22ND,001,2023_Mar_10_1134,ExactRep-v3-final,2021.2.3,59.850815876996954,
,,,,,,,,,,,,110,0,110,0,,,,,,,,,,,,,,,,,,,,,,,,,,,,,,,,,,,,,,,,,,,,,,,,,9868.620059899986,None,,,,,,,,,,,,,,,,,,,,,,,,,,,,,,,,,,,,,,,,,,,,,,,,,,,,,,,,,effort,80,111,aloud,old,yellow,9864.688146600034,None,y,9864.688146600034,None,"['y', 'return']","[3.673767700092867, 3.8896475001238286]",9864.688146600034,None,,,22ND,001,2023_Mar_10_1134,ExactRep-v3-final,2021.2.3,59.850815876996954,
,,,,,,,,,,,,111,0,111,0,,,,,,,,,,,,,,,,,,,,,,,,,,,,,,,,,,,,,,,,,,,,,,,,,9870.622132000048,None,,,,,,,,,,,,,,,,,,,,,,,,,,,,,,,,,,,,,,,,,,,,,,,,,,,,,,,,,excuse,197,112,sing,new,yellow,9869.131426000036,None,n,9869.131426000036,None,"['n', 'return']","[1.0622756001539528, 1.446276200003922]",9869.131426000036,None,,,22ND,001,2023_Mar_10_1134,ExactRep-v3-final,2021.2.3,59.850815876996954,
,,,,,,,,,,,,112,0,112,0,,,,,,,,,,,,,,,,,,,,,,,,,,,,,,,,,,,,,,,,,,,,,,,,,9873.124564100057,None,,,,,,,,,,,,,,,,,,,,,,,,,,,,,,,,,,,,,,,,,,,,,,,,,,,,,,,,,child,200,113,aloud,new,yellow,9871.134087899933,None,n,9871.134087899933,None,"['n', 'return']","[1.3237801999785006, 1.9476829001214355]",9871.134087899933,None,,,22ND,001,2023_Mar_10_1134,ExactRep-v3-final,2021.2.3,59.850815876996954,
,,,,,,,,,,,,113,0,113,0,,,,,,,,,,,,,,,,,,,,,,,,,,,,,,,,,,,,,,,,,,,,,,,,,9874.75961300009,None,,,,,,,,,,,,,,,,,,,,,,,,,,,,,,,,,,,,,,,,,,,,,,,,,,,,,,,,,freedom,132,114,silent,new,yellow,9873.633612500038,None,n,9873.633612500038,None,"['n', 'return']","[0.7683107000775635, 1.0882518999278545]",9873.633612500038,None,,,22ND,001,2023_Mar_10_1134,ExactRep-v3-final,2021.2.3,59.850815876996954,
,,,,,,,,,,,,114,0,114,0,,,,,,,,,,,,,,,,,,,,,,,,,,,,,,,,,,,,,,,,,,,,,,,,,9877.278714699904,None,,,,,,,,,,,,,,,,,,,,,,,,,,,,,,,,,,,,,,,,,,,,,,,,,,,,,,,,,deed,133,115,silent,new,yellow,9875.269546699943,None,n,9875.269546699943,None,"['return', 'n', 'return']","[1.0362323999870569, 1.660149300005287, 1.972220600116998]",9875.269546699943,None,,,22ND,001,2023_Mar_10_1134,ExactRep-v3-final,2021.2.3,59.850815876996954,
,,,,,,,,,,,,115,0,115,0,,,,,,,,,,,,,,,,,,,,,,,,,,,,,,,,,,,,,,,,,,,,,,,,,9878.830273899948,None,,,,,,,,,,,,,,,,,,,,,,,,,,,,,,,,,,,,,,,,,,,,,,,,,,,,,,,,,safety,161,116,sing,new,yellow,9877.788281100104,None,y,9877.788281100104,None,"['y', 'return']","[0.741401799954474, 1.0054908997844905]",9877.788281100104,None,,,22ND,001,2023_Mar_10_1134,ExactRep-v3-final,2021.2.3,59.850815876996954,
,,,,,,,,,,,,116,0,116,0,,,,,,,,,,,,,,,,,,,,,,,,,,,,,,,,,,,,,,,,,,,,,,,,,9880.365137800109,None,,,,,,,,,,,,,,,,,,,,,,,,,,,,,,,,,,,,,,,,,,,,,,,,,,,,,,,,,moral,28,117,sing,old,yellow,9879.340660999995,None,y,9879.340660999995,None,"['y', 'return']","[0.7171699001919478, 0.9891796000301838]",9879.340660999995,None,,,22ND,001,2023_Mar_10_1134,ExactRep-v3-final,2021.2.3,59.850815876996954,
,,,,,,,,,,,,117,0,117,0,,,,,,,,,,,,,,,,,,,,,,,,,,,,,,,,,,,,,,,,,,,,,,,,,9881.983424199978,None,,,,,,,,,,,,,,,,,,,,,,,,,,,,,,,,,,,,,,,,,,,,,,,,,,,,,,,,,star,82,118,aloud,old,yellow,9880.87986300001,None,y,9880.87986300001,None,"['y', 'return']","[0.80194399994798, 1.0659078999888152]",9880.87986300001,None,,,22ND,001,2023_Mar_10_1134,ExactRep-v3-final,2021.2.3,59.850815876996954,
,,,,,,,,,,,,118,0,118,0,,,,,,,,,,,,,,,,,,,,,,,,,,,,,,,,,,,,,,,,,,,,,,,,,9884.018809299916,None,,,,,,,,,,,,,,,,,,,,,,,,,,,,,,,,,,,,,,,,,,,,,,,,,,,,,,,,,woman,164,119,aloud,new,yellow,9882.487973500043,None,n,9882.487973500043,None,"['n', 'return']","[0.9857210000045598, 1.4978740001097322]",9882.487973500043,None,,,22ND,001,2023_Mar_10_1134,ExactRep-v3-final,2021.2.3,59.850815876996954,
,,,,,,,,,,,,119,0,119,0,,,,,,,,,,,,,,,,,,,,,,,,,,,,,,,,,,,,,,,,,,,,,,,,,9885.68728250009,None,,,,,,,,,,,,,,,,,,,,,,,,,,,,,,,,,,,,,,,,,,,,,,,,,,,,,,,,,garden,7,120,sing,old,yellow,9884.530333699891,None,y,9884.530333699891,None,"['y', 'return']","[0.8156468998640776, 1.119539099978283]",9884.530333699891,None,,,22ND,001,2023_Mar_10_1134,ExactRep-v3-final,2021.2.3,59.850815876996954,
,,,,,,,,,,,,120,0,120,0,,,,,,,,,,,,,,,,,,,,,,,,,,,,,,,,,,,,,,,,,,,,,,,,,9890.875605599955,None,,,,,,,,,,,,,,,,,,,,,,,,,,,,,,,,,,,,,,,,,,,,,,,,,,,,,,,,,iron,110,121,aloud,old,yellow,9886.193677000003,None,y,9886.193677000003,None,"['return', 'n', 'y', 'backspace', 'y', 'return']","[0.3120401999913156, 2.2321538999676704, 2.880068600177765, 3.608138000126928, 4.328117500059307, 4.6401490001007915]",9886.193677000003,None,,,22ND,001,2023_Mar_10_1134,ExactRep-v3-final,2021.2.3,59.850815876996954,
,,,,,,,,,,,,121,0,121,0,,,,,,,,,,,,,,,,,,,,,,,,,,,,,,,,,,,,,,,,,,,,,,,,,9892.444133500103,None,,,,,,,,,,,,,,,,,,,,,,,,,,,,,,,,,,,,,,,,,,,,,,,,,,,,,,,,,fur,162,122,aloud,new,yellow,9891.383792999899,None,n,9891.383792999899,None,"['n', 'return']","[0.7301062999758869, 1.0178968999534845]",9891.383792999899,None,,,22ND,001,2023_Mar_10_1134,ExactRep-v3-final,2021.2.3,59.850815876996954,
,,,,,,,,,,,,122,0,122,0,,,,,,,,,,,,,,,,,,,,,,,,,,,,,,,,,,,,,,,,,,,,,,,,,9894.012192199938,None,,,,,,,,,,,,,,,,,,,,,,,,,,,,,,,,,,,,,,,,,,,,,,,,,,,,,,,,,fun,97,123,aloud,old,yellow,9892.95153030008,None,y,9892.95153030008,None,"['y', 'return']","[0.7702883000019938, 1.0262201000005007]",9892.95153030008,None,,,22ND,001,2023_Mar_10_1134,ExactRep-v3-final,2021.2.3,59.850815876996954,
,,,,,,,,,,,,123,0,123,0,,,,,,,,,,,,,,,,,,,,,,,,,,,,,,,,,,,,,,,,,,,,,,,,,9896.781750099966,None,,,,,,,,,,,,,,,,,,,,,,,,,,,,,,,,,,,,,,,,,,,,,,,,,,,,,,,,,tool,199,124,sing,new,yellow,9894.519626999972,None,y,9894.519626999972,None,"['y', 'return']","[1.8822188000194728, 2.2180885998532176]",9894.519626999972,None,,,22ND,001,2023_Mar_10_1134,ExactRep-v3-final,2021.2.3,59.850815876996954,
,,,,,,,,,,,,124,0,124,0,,,,,,,,,,,,,,,,,,,,,,,,,,,,,,,,,,,,,,,,,,,,,,,,,9900.351830899948,None,,,,,,,,,,,,,,,,,,,,,,,,,,,,,,,,,,,,,,,,,,,,,,,,,,,,,,,,,shame,66,125,silent,old,yellow,9897.296218100004,None,n,9897.296218100004,None,"['n', 'return']","[2.6976203999947757, 3.009578299941495]",9897.296218100004,None,,,22ND,001,2023_Mar_10_1134,ExactRep-v3-final,2021.2.3,59.850815876996954,
,,,,,,,,,,,,125,0,125,0,,,,,,,,,,,,,,,,,,,,,,,,,,,,,,,,,,,,,,,,,,,,,,,,,9902.387244099984,None,,,,,,,,,,,,,,,,,,,,,,,,,,,,,,,,,,,,,,,,,,,,,,,,,,,,,,,,,justice,194,126,aloud,new,yellow,9900.866745299893,None,n,9900.866745299893,None,"['n', 'return']","[1.191172800026834, 1.4790300999302417]",9900.866745299893,None,,,22ND,001,2023_Mar_10_1134,ExactRep-v3-final,2021.2.3,59.850815876996954,
,,,,,,,,,,,,126,0,126,0,,,,,,,,,,,,,,,,,,,,,,,,,,,,,,,,,,,,,,,,,,,,,,,,,9903.755208800081,None,,,,,,,,,,,,,,,,,,,,,,,,,,,,,,,,,,,,,,,,,,,,,,,,,,,,,,,,,lip,115,127,aloud,old,yellow,9902.895482599968,None,y,9902.895482599968,None,"['y', 'return']","[0.6102291001006961, 0.8183615999296308]",9902.895482599968,None,,,22ND,001,2023_Mar_10_1134,ExactRep-v3-final,2021.2.3,59.850815876996954,
,,,,,,,,,,,,127,0,127,0,,,,,,,,,,,,,,,,,,,,,,,,,,,,,,,,,,,,,,,,,,,,,,,,,9905.240109999897,None,,,,,,,,,,,,,,,,,,,,,,,,,,,,,,,,,,,,,,,,,,,,,,,,,,,,,,,,,world,45,128,silent,old,yellow,9904.269844500115,None,y,9904.269844500115,None,"['y', 'return']","[0.6681548999622464, 0.9239715000148863]",9904.269844500115,None,,,22ND,001,2023_Mar_10_1134,ExactRep-v3-final,2021.2.3,59.850815876996954,
,,,,,,,,,,,,128,0,128,0,,,,,,,,,,,,,,,,,,,,,,,,,,,,,,,,,,,,,,,,,,,,,,,,,9907.22554549994,None,,,,,,,,,,,,,,,,,,,,,,,,,,,,,,,,,,,,,,,,,,,,,,,,,,,,,,,,,truth,206,129,aloud,new,yellow,9905.74733059993,None,y,9905.74733059993,None,"['y', 'return']","[1.1425216000061482, 1.4384421000722796]",9905.74733059993,None,,,22ND,001,2023_Mar_10_1134,ExactRep-v3-final,2021.2.3,59.850815876996954,
,,,,,,,,,,,,129,0,129,0,,,,,,,,,,,,,,,,,,,,,,,,,,,,,,,,,,,,,,,,,,,,,,,,,9909.177282700082,None,,,,,,,,,,,,,,,,,,,,,,,,,,,,,,,,,,,,,,,,,,,,,,,,,,,,,,,,,dawn,239,130,sing,new,yellow,9907.733910199953,None,n,9907.733910199953,None,"['n', 'return']","[1.091861000051722, 1.403881800128147]",9907.733910199953,None,,,22ND,001,2023_Mar_10_1134,ExactRep-v3-final,2021.2.3,59.850815876996954,
