trials_fam.thisRepN,trials_fam.thisTrialN,trials_fam.thisN,trials_fam.thisIndex,trials_prc.thisRepN,trials_prc.thisTrialN,trials_prc.thisN,trials_prc.thisIndex,StudyLoop.thisRepN,StudyLoop.thisTrialN,StudyLoop.thisN,StudyLoop.thisIndex,TestLoop.thisRepN,TestLoop.thisTrialN,TestLoop.thisN,TestLoop.thisIndex,text_colortest.started,text_colortest.stopped,key_colortest.keys,key_colortest.rt,key_colortest.started,key_colortest.stopped,textCondition.started,textCondition.stopped,keyCondition.keys,keyCondition.rt,keyCondition.started,keyCondition.stopped,Condition_between,Condition_counterbal,keyWelcome.keys,keyWelcome.rt,keyWelcome.started,keyWelcome.stopped,welcome_a.started,welcome_a.stopped,welcome_b.started,welcome_b.stopped,welcome_c.started,welcome_c.stopped,welcome_d.started,welcome_d.stopped,welcome_e.started,welcome_e.stopped,welcome_f.started,welcome_f.stopped,key_resp_fam_inst.keys,key_resp_fam_inst.rt,key_resp_fam_inst.started,key_resp_fam_inst.stopped,fam_a.started,fam_a.stopped,fam_b.started,fam_b.stopped,fam_c.started,fam_c.stopped,fam_d.started,fam_d.stopped,fam_e.started,fam_e.stopped,fam_f.started,fam_f.stopped,text_famil.started,text_famil.stopped,textBlank500.started,textBlank500.stopped,key_resp_prc_inst.keys,key_resp_prc_inst.rt,key_resp_prc_inst.started,key_resp_prc_inst.stopped,prac_a.started,prac_a.stopped,prac_b.started,prac_b.stopped,prac_c.started,prac_c.stopped,prac_d.started,prac_d.stopped,prac_e.started,prac_e.stopped,prac_f.started,prac_f.stopped,text_prc_trial.started,text_prc_trial.stopped,key_resp_study_inst.keys,key_resp_study_inst.rt,key_resp_study_inst.started,key_resp_study_inst.stopped,crit_a.started,crit_a.stopped,crit_b.started,crit_b.stopped,crit_c.started,crit_c.stopped,crit_d.started,crit_d.stopped,crit_e.started,crit_e.stopped,crit_f.started,crit_f.stopped,study_word,study_num,study_order,study_type,word_color,textStudy.started,textStudy.stopped,keyStudy.keys,keyStudy.started,keyStudy.stopped,post_study.started,post_study.stopped,key_resp_post_study.keys,key_resp_post_study.rt,key_resp_post_study.started,key_resp_post_study.stopped,test_inst.started,test_inst.stopped,key_resp_test_inst.keys,key_resp_test_inst.rt,key_resp_test_inst.started,key_resp_test_inst.stopped,test_word,test_num,test_order,test_condition,old_new_test,word_color_test,textConf.started,textConf.stopped,Participant Response,textInput.started,textInput.stopped,keyResp.keys,keyResp.rt,keyResp.started,keyResp.stopped,textEnd.started,textEnd.stopped,participant,session,date,expName,psychopyVersion,frameRate,
,,,,,,,,,,,,,,,,50.57118199998513,None,n,1.6164629999548197,50.57118199998513,None,,,,,,,,,,,,,,,,,,,,,,,,,,,,,,,,,,,,,,,,,,,,,,,,,,,,,,,,,,,,,,,,,,,,,,,,,,,,,,,,,,,,,,,,,,,,,,,,,,,,,,,,,,,,,,,,,,,,,,23NE,001,2023_Mar_10_1223,ExactRep-v3-final,2021.2.3,59.83573896034783,
,,,,,,,,,,,,,,,,,,,,,,52.21011020010337,None,e,4.7294601001776755,52.21011020010337,None,,,,,,,,,,,,,,,,,,,,,,,,,,,,,,,,,,,,,,,,,,,,,,,,,,,,,,,,,,,,,,,,,,,,,,,,,,,,,,,,,,,,,,,,,,,,,,,,,,,,,,,,,,,,,,,,23NE,001,2023_Mar_10_1223,ExactRep-v3-final,2021.2.3,59.83573896034783,
,,,,,,,,,,,,,,,,,,,,,,,,,,,,whitefoils,e,space,579.9946597001981,67.13783899997361,None,,,,,,,,,,,,,,,,,,,,,,,,,,,,,,,,,,,,,,,,,,,,,,,,,,,,,,,,,,,,,,,,,,,,,,,,,,,,,,,,,,,,,,,,,,,,,,,,,,,,,,,,,,23NE,001,2023_Mar_10_1223,ExactRep-v3-final,2021.2.3,59.83573896034783,
,,,,,,,,,,,,,,,,,,,,,,,,,,,,,,,,,,57.133973699994385,None,57.133973699994385,None,57.133973699994385,None,57.133973699994385,None,57.133973699994385,None,57.133973699994385,None,space,19.10547409998253,657.2826300000306,None,,,,,,,,,,,,,,,,,,,,,,,,,,,,,,,,,,,,,,,,,,,,,,,,,,,,,,,,,,,,,,,,,,,,,,,,,,,,,,,,,,,,,,,,,,23NE,001,2023_Mar_10_1223,ExactRep-v3-final,2021.2.3,59.83573896034783,
0,0,0,0,,,,,,,,,,,,,,,,,,,,,,,,,,,,,,,,,,,,,,,,,,,,,,,647.3284390000626,None,647.3284390000626,None,647.3284390000626,None,647.3284390000626,None,647.3284390000626,None,647.3284390000626,None,676.516004800098,None,678.5027745000552,None,,,,,,,,,,,,,,,,,,,,,,,,,,,,,,,,,,,,,,,,,,,,,,,,,,,,,,,,,,,,,,,,,,,,,,,,,,23NE,001,2023_Mar_10_1223,ExactRep-v3-final,2021.2.3,59.83573896034783,
1,0,1,0,,,,,,,,,,,,,,,,,,,,,,,,,,,,,,,,,,,,,,,,,,,,,,,,,,,,,,,,,,,679.0113860000856,None,681.0218931001145,None,,,,,,,,,,,,,,,,,,,,,,,,,,,,,,,,,,,,,,,,,,,,,,,,,,,,,,,,,,,,,,,,,,,,,,,,,,23NE,001,2023_Mar_10_1223,ExactRep-v3-final,2021.2.3,59.83573896034783,
2,0,2,0,,,,,,,,,,,,,,,,,,,,,,,,,,,,,,,,,,,,,,,,,,,,,,,,,,,,,,,,,,,681.5225448999554,None,683.5244332000148,None,,,,,,,,,,,,,,,,,,,,,,,,,,,,,,,,,,,,,,,,,,,,,,,,,,,,,,,,,,,,,,,,,,,,,,,,,,23NE,001,2023_Mar_10_1223,ExactRep-v3-final,2021.2.3,59.83573896034783,
3,0,3,0,,,,,,,,,,,,,,,,,,,,,,,,,,,,,,,,,,,,,,,,,,,,,,,,,,,,,,,,,,,684.0248364000581,None,686.026953099994,None,,,,,,,,,,,,,,,,,,,,,,,,,,,,,,,,,,,,,,,,,,,,,,,,,,,,,,,,,,,,,,,,,,,,,,,,,,23NE,001,2023_Mar_10_1223,ExactRep-v3-final,2021.2.3,59.83573896034783,
4,0,4,0,,,,,,,,,,,,,,,,,,,,,,,,,,,,,,,,,,,,,,,,,,,,,,,,,,,,,,,,,,,686.5295547000133,None,688.5297016999684,None,,,,,,,,,,,,,,,,,,,,,,,,,,,,,,,,,,,,,,,,,,,,,,,,,,,,,,,,,,,,,,,,,,,,,,,,,,23NE,001,2023_Mar_10_1223,ExactRep-v3-final,2021.2.3,59.83573896034783,
5,0,5,0,,,,,,,,,,,,,,,,,,,,,,,,,,,,,,,,,,,,,,,,,,,,,,,,,,,,,,,,,,,689.0323652001098,None,691.032154600136,None,,,,,,,,,,,,,,,,,,,,,,,,,,,,,,,,,,,,,,,,,,,,,,,,,,,,,,,,,,,,,,,,,,,,,,,,,,23NE,001,2023_Mar_10_1223,ExactRep-v3-final,2021.2.3,59.83573896034783,
6,0,6,0,,,,,,,,,,,,,,,,,,,,,,,,,,,,,,,,,,,,,,,,,,,,,,,,,,,,,,,,,,,691.5423795999959,None,693.5511036999524,None,,,,,,,,,,,,,,,,,,,,,,,,,,,,,,,,,,,,,,,,,,,,,,,,,,,,,,,,,,,,,,,,,,,,,,,,,,23NE,001,2023_Mar_10_1223,ExactRep-v3-final,2021.2.3,59.83573896034783,
7,0,7,0,,,,,,,,,,,,,,,,,,,,,,,,,,,,,,,,,,,,,,,,,,,,,,,,,,,,,,,,,,,694.0519010999706,None,696.0538747000974,None,,,,,,,,,,,,,,,,,,,,,,,,,,,,,,,,,,,,,,,,,,,,,,,,,,,,,,,,,,,,,,,,,,,,,,,,,,23NE,001,2023_Mar_10_1223,ExactRep-v3-final,2021.2.3,59.83573896034783,
8,0,8,0,,,,,,,,,,,,,,,,,,,,,,,,,,,,,,,,,,,,,,,,,,,,,,,,,,,,,,,,,,,696.5584840001538,None,698.5729561999906,None,,,,,,,,,,,,,,,,,,,,,,,,,,,,,,,,,,,,,,,,,,,,,,,,,,,,,,,,,,,,,,,,,,,,,,,,,,23NE,001,2023_Mar_10_1223,ExactRep-v3-final,2021.2.3,59.83573896034783,
9,0,9,0,,,,,,,,,,,,,,,,,,,,,,,,,,,,,,,,,,,,,,,,,,,,,,,,,,,,,,,,,,,699.0735343999695,None,701.0756952001248,None,,,,,,,,,,,,,,,,,,,,,,,,,,,,,,,,,,,,,,,,,,,,,,,,,,,,,,,,,,,,,,,,,,,,,,,,,,23NE,001,2023_Mar_10_1223,ExactRep-v3-final,2021.2.3,59.83573896034783,
10,0,10,0,,,,,,,,,,,,,,,,,,,,,,,,,,,,,,,,,,,,,,,,,,,,,,,,,,,,,,,,,,,701.5759120001458,None,703.5777970999479,None,,,,,,,,,,,,,,,,,,,,,,,,,,,,,,,,,,,,,,,,,,,,,,,,,,,,,,,,,,,,,,,,,,,,,,,,,,23NE,001,2023_Mar_10_1223,ExactRep-v3-final,2021.2.3,59.83573896034783,
11,0,11,0,,,,,,,,,,,,,,,,,,,,,,,,,,,,,,,,,,,,,,,,,,,,,,,,,,,,,,,,,,,704.0783419001382,None,706.0803827999625,None,,,,,,,,,,,,,,,,,,,,,,,,,,,,,,,,,,,,,,,,,,,,,,,,,,,,,,,,,,,,,,,,,,,,,,,,,,23NE,001,2023_Mar_10_1223,ExactRep-v3-final,2021.2.3,59.83573896034783,
12,0,12,0,,,,,,,,,,,,,,,,,,,,,,,,,,,,,,,,,,,,,,,,,,,,,,,,,,,,,,,,,,,706.5815801001154,None,708.5832136999816,None,,,,,,,,,,,,,,,,,,,,,,,,,,,,,,,,,,,,,,,,,,,,,,,,,,,,,,,,,,,,,,,,,,,,,,,,,,23NE,001,2023_Mar_10_1223,ExactRep-v3-final,2021.2.3,59.83573896034783,
13,0,13,0,,,,,,,,,,,,,,,,,,,,,,,,,,,,,,,,,,,,,,,,,,,,,,,,,,,,,,,,,,,709.0836237000767,None,711.0854839000385,None,,,,,,,,,,,,,,,,,,,,,,,,,,,,,,,,,,,,,,,,,,,,,,,,,,,,,,,,,,,,,,,,,,,,,,,,,,23NE,001,2023_Mar_10_1223,ExactRep-v3-final,2021.2.3,59.83573896034783,
14,0,14,0,,,,,,,,,,,,,,,,,,,,,,,,,,,,,,,,,,,,,,,,,,,,,,,,,,,,,,,,,,,711.586563100107,None,713.5879920001607,None,,,,,,,,,,,,,,,,,,,,,,,,,,,,,,,,,,,,,,,,,,,,,,,,,,,,,,,,,,,,,,,,,,,,,,,,,,23NE,001,2023_Mar_10_1223,ExactRep-v3-final,2021.2.3,59.83573896034783,
,,,,,,,,,,,,,,,,,,,,,,,,,,,,,,,,,,,,,,,,,,,,,,,,,,,,,,,,,,,,,,,,,,space,20.974371100077406,724.2218739001546,None,,,,,,,,,,,,,,,,,,,,,,,,,,,,,,,,,,,,,,,,,,,,,,,,,,,,,,,,,,,,,,,,,,,,,,23NE,001,2023_Mar_10_1223,ExactRep-v3-final,2021.2.3,59.83573896034783,
,,,,0,0,0,0,,,,,,,,,,,,,,,,,,,,,,,,,,,,,,,,,,,,,,,,,,,,,,,,,,,,,,,,,747.288233499974,None,,,,,714.2310558001045,None,714.2310558001045,None,714.2310558001045,None,714.2310558001045,None,714.2310558001045,None,714.2310558001045,None,745.2746906001121,None,,,,,,,,,,,,,,,,,,,,,,,,,,,,,,,,,,,,,,,,,,,,,,,,,,,,,,,,23NE,001,2023_Mar_10_1223,ExactRep-v3-final,2021.2.3,59.83573896034783,
,,,,1,0,1,0,,,,,,,,,,,,,,,,,,,,,,,,,,,,,,,,,,,,,,,,,,,,,,,,,,,,,,,,,749.7905345000327,None,,,,,,,,,,,,,,,,,747.7890413999557,None,,,,,,,,,,,,,,,,,,,,,,,,,,,,,,,,,,,,,,,,,,,,,,,,,,,,,,,,23NE,001,2023_Mar_10_1223,ExactRep-v3-final,2021.2.3,59.83573896034783,
,,,,2,0,2,0,,,,,,,,,,,,,,,,,,,,,,,,,,,,,,,,,,,,,,,,,,,,,,,,,,,,,,,,,752.2932468000799,None,,,,,,,,,,,,,,,,,750.2910647001117,None,,,,,,,,,,,,,,,,,,,,,,,,,,,,,,,,,,,,,,,,,,,,,,,,,,,,,,,,23NE,001,2023_Mar_10_1223,ExactRep-v3-final,2021.2.3,59.83573896034783,
,,,,3,0,3,0,,,,,,,,,,,,,,,,,,,,,,,,,,,,,,,,,,,,,,,,,,,,,,,,,,,,,,,,,754.7959243999794,None,,,,,,,,,,,,,,,,,752.7939532999881,None,,,,,,,,,,,,,,,,,,,,,,,,,,,,,,,,,,,,,,,,,,,,,,,,,,,,,,,,23NE,001,2023_Mar_10_1223,ExactRep-v3-final,2021.2.3,59.83573896034783,
,,,,4,0,4,0,,,,,,,,,,,,,,,,,,,,,,,,,,,,,,,,,,,,,,,,,,,,,,,,,,,,,,,,,757.2983613000251,None,,,,,,,,,,,,,,,,,755.296473900089,None,,,,,,,,,,,,,,,,,,,,,,,,,,,,,,,,,,,,,,,,,,,,,,,,,,,,,,,,23NE,001,2023_Mar_10_1223,ExactRep-v3-final,2021.2.3,59.83573896034783,
,,,,5,0,5,0,,,,,,,,,,,,,,,,,,,,,,,,,,,,,,,,,,,,,,,,,,,,,,,,,,,,,,,,,759.80106540001,None,,,,,,,,,,,,,,,,,757.7989451000467,None,,,,,,,,,,,,,,,,,,,,,,,,,,,,,,,,,,,,,,,,,,,,,,,,,,,,,,,,23NE,001,2023_Mar_10_1223,ExactRep-v3-final,2021.2.3,59.83573896034783,
,,,,6,0,6,0,,,,,,,,,,,,,,,,,,,,,,,,,,,,,,,,,,,,,,,,,,,,,,,,,,,,,,,,,762.3033912000246,None,,,,,,,,,,,,,,,,,760.3012612999883,None,,,,,,,,,,,,,,,,,,,,,,,,,,,,,,,,,,,,,,,,,,,,,,,,,,,,,,,,23NE,001,2023_Mar_10_1223,ExactRep-v3-final,2021.2.3,59.83573896034783,
,,,,7,0,7,0,,,,,,,,,,,,,,,,,,,,,,,,,,,,,,,,,,,,,,,,,,,,,,,,,,,,,,,,,764.8059044999536,None,,,,,,,,,,,,,,,,,762.803834100021,None,,,,,,,,,,,,,,,,,,,,,,,,,,,,,,,,,,,,,,,,,,,,,,,,,,,,,,,,23NE,001,2023_Mar_10_1223,ExactRep-v3-final,2021.2.3,59.83573896034783,
,,,,8,0,8,0,,,,,,,,,,,,,,,,,,,,,,,,,,,,,,,,,,,,,,,,,,,,,,,,,,,,,,,,,767.3086139999796,None,,,,,,,,,,,,,,,,,765.3064445999917,None,,,,,,,,,,,,,,,,,,,,,,,,,,,,,,,,,,,,,,,,,,,,,,,,,,,,,,,,23NE,001,2023_Mar_10_1223,ExactRep-v3-final,2021.2.3,59.83573896034783,
,,,,9,0,9,0,,,,,,,,,,,,,,,,,,,,,,,,,,,,,,,,,,,,,,,,,,,,,,,,,,,,,,,,,769.8107769000344,None,,,,,,,,,,,,,,,,,767.8085873001255,None,,,,,,,,,,,,,,,,,,,,,,,,,,,,,,,,,,,,,,,,,,,,,,,,,,,,,,,,23NE,001,2023_Mar_10_1223,ExactRep-v3-final,2021.2.3,59.83573896034783,
,,,,10,0,10,0,,,,,,,,,,,,,,,,,,,,,,,,,,,,,,,,,,,,,,,,,,,,,,,,,,,,,,,,,772.3132254001684,None,,,,,,,,,,,,,,,,,770.3115570000373,None,,,,,,,,,,,,,,,,,,,,,,,,,,,,,,,,,,,,,,,,,,,,,,,,,,,,,,,,23NE,001,2023_Mar_10_1223,ExactRep-v3-final,2021.2.3,59.83573896034783,
,,,,11,0,11,0,,,,,,,,,,,,,,,,,,,,,,,,,,,,,,,,,,,,,,,,,,,,,,,,,,,,,,,,,774.8158813000191,None,,,,,,,,,,,,,,,,,772.8139339999761,None,,,,,,,,,,,,,,,,,,,,,,,,,,,,,,,,,,,,,,,,,,,,,,,,,,,,,,,,23NE,001,2023_Mar_10_1223,ExactRep-v3-final,2021.2.3,59.83573896034783,
,,,,12,0,12,0,,,,,,,,,,,,,,,,,,,,,,,,,,,,,,,,,,,,,,,,,,,,,,,,,,,,,,,,,777.3184027001262,None,,,,,,,,,,,,,,,,,775.3165140999481,None,,,,,,,,,,,,,,,,,,,,,,,,,,,,,,,,,,,,,,,,,,,,,,,,,,,,,,,,23NE,001,2023_Mar_10_1223,ExactRep-v3-final,2021.2.3,59.83573896034783,
,,,,13,0,13,0,,,,,,,,,,,,,,,,,,,,,,,,,,,,,,,,,,,,,,,,,,,,,,,,,,,,,,,,,779.8209611000493,None,,,,,,,,,,,,,,,,,777.8189519001171,None,,,,,,,,,,,,,,,,,,,,,,,,,,,,,,,,,,,,,,,,,,,,,,,,,,,,,,,,23NE,001,2023_Mar_10_1223,ExactRep-v3-final,2021.2.3,59.83573896034783,
,,,,14,0,14,0,,,,,,,,,,,,,,,,,,,,,,,,,,,,,,,,,,,,,,,,,,,,,,,,,,,,,,,,,782.3234972001519,None,,,,,,,,,,,,,,,,,780.3214267001022,None,,,,,,,,,,,,,,,,,,,,,,,,,,,,,,,,,,,,,,,,,,,,,,,,,,,,,,,,23NE,001,2023_Mar_10_1223,ExactRep-v3-final,2021.2.3,59.83573896034783,
,,,,,,,,,,,,,,,,,,,,,,,,,,,,,,,,,,,,,,,,,,,,,,,,,,,,,,,,,,,,,,,,,,,,,,,,,,,,,,,,,,,,space,20.986907900078222,792.9617032001261,None,,,,,,,,,,,,,,,,,,,,,,,,,,,,,,,,,,,,,,,,,,,,,,,,,,,,23NE,001,2023_Mar_10_1223,ExactRep-v3-final,2021.2.3,59.83573896034783,
,,,,,,,,0,0,0,0,,,,,,,,,,,,,,,,,,,,,,,,,,,,,,,,,,,,,,,,,,,,,,,,,,,,,816.0238127999473,None,,,,,,,,,,,,,,,,,,,,,,,782.9920298000798,None,782.9920298000798,None,782.9920298000798,None,782.9920298000798,None,782.9920298000798,None,782.9920298000798,None,journal,114,1,aloud,white,814.0105423000641,None,None,814.0105423000641,None,,,,,,,,,,,,,,,,,,,,,,,,,,,,,,23NE,001,2023_Mar_10_1223,ExactRep-v3-final,2021.2.3,59.83573896034783,
,,,,,,,,1,0,1,0,,,,,,,,,,,,,,,,,,,,,,,,,,,,,,,,,,,,,,,,,,,,,,,,,,,,,818.5263269999996,None,,,,,,,,,,,,,,,,,,,,,,,,,,,,,,,,,,,rod,53,2,silent,red,816.5240959001239,None,None,816.5240959001239,None,,,,,,,,,,,,,,,,,,,,,,,,,,,,,,23NE,001,2023_Mar_10_1223,ExactRep-v3-final,2021.2.3,59.83573896034783,
,,,,,,,,2,0,2,0,,,,,,,,,,,,,,,,,,,,,,,,,,,,,,,,,,,,,,,,,,,,,,,,,,,,,821.0454881000333,None,,,,,,,,,,,,,,,,,,,,,,,,,,,,,,,,,,,product,41,3,silent,red,819.0464190000203,None,None,819.0464190000203,None,,,,,,,,,,,,,,,,,,,,,,,,,,,,,,23NE,001,2023_Mar_10_1223,ExactRep-v3-final,2021.2.3,59.83573896034783,
,,,,,,,,3,0,3,0,,,,,,,,,,,,,,,,,,,,,,,,,,,,,,,,,,,,,,,,,,,,,,,,,,,,,823.564674800029,None,,,,,,,,,,,,,,,,,,,,,,,,,,,,,,,,,,,chief,105,4,aloud,white,821.5493310999591,None,None,821.5493310999591,None,,,,,,,,,,,,,,,,,,,,,,,,,,,,,,23NE,001,2023_Mar_10_1223,ExactRep-v3-final,2021.2.3,59.83573896034783,
,,,,,,,,4,0,4,0,,,,,,,,,,,,,,,,,,,,,,,,,,,,,,,,,,,,,,,,,,,,,,,,,,,,,826.0837683000136,None,,,,,,,,,,,,,,,,,,,,,,,,,,,,,,,,,,,water,82,5,aloud,white,824.0682284000795,None,None,824.0682284000795,None,,,,,,,,,,,,,,,,,,,,,,,,,,,,,,23NE,001,2023_Mar_10_1223,ExactRep-v3-final,2021.2.3,59.83573896034783,
,,,,,,,,5,0,5,0,,,,,,,,,,,,,,,,,,,,,,,,,,,,,,,,,,,,,,,,,,,,,,,,,,,,,828.6030107000843,None,,,,,,,,,,,,,,,,,,,,,,,,,,,,,,,,,,,artist,61,6,silent,red,826.5972661001142,None,None,826.5972661001142,None,,,,,,,,,,,,,,,,,,,,,,,,,,,,,,23NE,001,2023_Mar_10_1223,ExactRep-v3-final,2021.2.3,59.83573896034783,
,,,,,,,,6,0,6,0,,,,,,,,,,,,,,,,,,,,,,,,,,,,,,,,,,,,,,,,,,,,,,,,,,,,,831.1055393000133,None,,,,,,,,,,,,,,,,,,,,,,,,,,,,,,,,,,,kiss,35,7,sing,blue,829.1062960000709,None,None,829.1062960000709,None,,,,,,,,,,,,,,,,,,,,,,,,,,,,,,23NE,001,2023_Mar_10_1223,ExactRep-v3-final,2021.2.3,59.83573896034783,
,,,,,,,,7,0,7,0,,,,,,,,,,,,,,,,,,,,,,,,,,,,,,,,,,,,,,,,,,,,,,,,,,,,,833.6243563001044,None,,,,,,,,,,,,,,,,,,,,,,,,,,,,,,,,,,,speech,83,8,aloud,white,831.612179200165,None,None,831.612179200165,None,,,,,,,,,,,,,,,,,,,,,,,,,,,,,,23NE,001,2023_Mar_10_1223,ExactRep-v3-final,2021.2.3,59.83573896034783,
,,,,,,,,8,0,8,0,,,,,,,,,,,,,,,,,,,,,,,,,,,,,,,,,,,,,,,,,,,,,,,,,,,,,836.1271865000017,None,,,,,,,,,,,,,,,,,,,,,,,,,,,,,,,,,,,cash,54,9,silent,red,834.1251000999473,None,None,834.1251000999473,None,,,,,,,,,,,,,,,,,,,,,,,,,,,,,,23NE,001,2023_Mar_10_1223,ExactRep-v3-final,2021.2.3,59.83573896034783,
,,,,,,,,9,0,9,0,,,,,,,,,,,,,,,,,,,,,,,,,,,,,,,,,,,,,,,,,,,,,,,,,,,,,838.6462083000224,None,,,,,,,,,,,,,,,,,,,,,,,,,,,,,,,,,,,square,1,10,sing,blue,836.6361188001465,None,None,836.6361188001465,None,,,,,,,,,,,,,,,,,,,,,,,,,,,,,,23NE,001,2023_Mar_10_1223,ExactRep-v3-final,2021.2.3,59.83573896034783,
,,,,,,,,10,0,10,0,,,,,,,,,,,,,,,,,,,,,,,,,,,,,,,,,,,,,,,,,,,,,,,,,,,,,841.1489909000229,None,,,,,,,,,,,,,,,,,,,,,,,,,,,,,,,,,,,pole,68,11,silent,red,839.1492546000518,None,None,839.1492546000518,None,,,,,,,,,,,,,,,,,,,,,,,,,,,,,,23NE,001,2023_Mar_10_1223,ExactRep-v3-final,2021.2.3,59.83573896034783,
,,,,,,,,11,0,11,0,,,,,,,,,,,,,,,,,,,,,,,,,,,,,,,,,,,,,,,,,,,,,,,,,,,,,843.6514358001295,None,,,,,,,,,,,,,,,,,,,,,,,,,,,,,,,,,,,butter,116,12,aloud,white,841.6507069000509,None,None,841.6507069000509,None,,,,,,,,,,,,,,,,,,,,,,,,,,,,,,23NE,001,2023_Mar_10_1223,ExactRep-v3-final,2021.2.3,59.83573896034783,
,,,,,,,,12,0,12,0,,,,,,,,,,,,,,,,,,,,,,,,,,,,,,,,,,,,,,,,,,,,,,,,,,,,,846.1706272000447,None,,,,,,,,,,,,,,,,,,,,,,,,,,,,,,,,,,,safety,9,13,sing,blue,844.1568454999942,None,None,844.1568454999942,None,,,,,,,,,,,,,,,,,,,,,,,,,,,,,,23NE,001,2023_Mar_10_1223,ExactRep-v3-final,2021.2.3,59.83573896034783,
,,,,,,,,13,0,13,0,,,,,,,,,,,,,,,,,,,,,,,,,,,,,,,,,,,,,,,,,,,,,,,,,,,,,848.6896681000944,None,,,,,,,,,,,,,,,,,,,,,,,,,,,,,,,,,,,bar,115,14,aloud,white,846.6756567000411,None,None,846.6756567000411,None,,,,,,,,,,,,,,,,,,,,,,,,,,,,,,23NE,001,2023_Mar_10_1223,ExactRep-v3-final,2021.2.3,59.83573896034783,
,,,,,,,,14,0,14,0,,,,,,,,,,,,,,,,,,,,,,,,,,,,,,,,,,,,,,,,,,,,,,,,,,,,,851.1925051000435,None,,,,,,,,,,,,,,,,,,,,,,,,,,,,,,,,,,,flag,117,15,aloud,white,849.1926331000868,None,None,849.1926331000868,None,,,,,,,,,,,,,,,,,,,,,,,,,,,,,,23NE,001,2023_Mar_10_1223,ExactRep-v3-final,2021.2.3,59.83573896034783,
,,,,,,,,15,0,15,0,,,,,,,,,,,,,,,,,,,,,,,,,,,,,,,,,,,,,,,,,,,,,,,,,,,,,853.7113451999612,None,,,,,,,,,,,,,,,,,,,,,,,,,,,,,,,,,,,meeting,71,16,silent,red,851.7031152001582,None,None,851.7031152001582,None,,,,,,,,,,,,,,,,,,,,,,,,,,,,,,23NE,001,2023_Mar_10_1223,ExactRep-v3-final,2021.2.3,59.83573896034783,
,,,,,,,,16,0,16,0,,,,,,,,,,,,,,,,,,,,,,,,,,,,,,,,,,,,,,,,,,,,,,,,,,,,,856.2138817999512,None,,,,,,,,,,,,,,,,,,,,,,,,,,,,,,,,,,,queen,8,17,sing,blue,854.2142577001359,None,None,854.2142577001359,None,,,,,,,,,,,,,,,,,,,,,,,,,,,,,,23NE,001,2023_Mar_10_1223,ExactRep-v3-final,2021.2.3,59.83573896034783,
,,,,,,,,17,0,17,0,,,,,,,,,,,,,,,,,,,,,,,,,,,,,,,,,,,,,,,,,,,,,,,,,,,,,858.7331128001679,None,,,,,,,,,,,,,,,,,,,,,,,,,,,,,,,,,,,corner,79,18,sing,blue,856.7175712999888,None,None,856.7175712999888,None,,,,,,,,,,,,,,,,,,,,,,,,,,,,,,23NE,001,2023_Mar_10_1223,ExactRep-v3-final,2021.2.3,59.83573896034783,
,,,,,,,,18,0,18,0,,,,,,,,,,,,,,,,,,,,,,,,,,,,,,,,,,,,,,,,,,,,,,,,,,,,,861.2355627000798,None,,,,,,,,,,,,,,,,,,,,,,,,,,,,,,,,,,,truth,87,19,aloud,white,859.2334959001746,None,None,859.2334959001746,None,,,,,,,,,,,,,,,,,,,,,,,,,,,,,,23NE,001,2023_Mar_10_1223,ExactRep-v3-final,2021.2.3,59.83573896034783,
,,,,,,,,19,0,19,0,,,,,,,,,,,,,,,,,,,,,,,,,,,,,,,,,,,,,,,,,,,,,,,,,,,,,863.7547270001378,None,,,,,,,,,,,,,,,,,,,,,,,,,,,,,,,,,,,theory,36,20,sing,blue,861.7414524001069,None,None,861.7414524001069,None,,,,,,,,,,,,,,,,,,,,,,,,,,,,,,23NE,001,2023_Mar_10_1223,ExactRep-v3-final,2021.2.3,59.83573896034783,
,,,,,,,,20,0,20,0,,,,,,,,,,,,,,,,,,,,,,,,,,,,,,,,,,,,,,,,,,,,,,,,,,,,,866.2573998000007,None,,,,,,,,,,,,,,,,,,,,,,,,,,,,,,,,,,,iron,52,21,silent,red,864.2564465999603,None,None,864.2564465999603,None,,,,,,,,,,,,,,,,,,,,,,,,,,,,,,23NE,001,2023_Mar_10_1223,ExactRep-v3-final,2021.2.3,59.83573896034783,
,,,,,,,,21,0,21,0,,,,,,,,,,,,,,,,,,,,,,,,,,,,,,,,,,,,,,,,,,,,,,,,,,,,,868.7763898000121,None,,,,,,,,,,,,,,,,,,,,,,,,,,,,,,,,,,,ability,59,22,silent,red,866.7632611000445,None,None,866.7632611000445,None,,,,,,,,,,,,,,,,,,,,,,,,,,,,,,23NE,001,2023_Mar_10_1223,ExactRep-v3-final,2021.2.3,59.83573896034783,
,,,,,,,,22,0,22,0,,,,,,,,,,,,,,,,,,,,,,,,,,,,,,,,,,,,,,,,,,,,,,,,,,,,,871.2791015000548,None,,,,,,,,,,,,,,,,,,,,,,,,,,,,,,,,,,,apple,7,23,sing,blue,869.2781938000116,None,None,869.2781938000116,None,,,,,,,,,,,,,,,,,,,,,,,,,,,,,,23NE,001,2023_Mar_10_1223,ExactRep-v3-final,2021.2.3,59.83573896034783,
,,,,,,,,23,0,23,0,,,,,,,,,,,,,,,,,,,,,,,,,,,,,,,,,,,,,,,,,,,,,,,,,,,,,873.7979077000637,None,,,,,,,,,,,,,,,,,,,,,,,,,,,,,,,,,,,ship,56,24,silent,red,871.7863310000394,None,None,871.7863310000394,None,,,,,,,,,,,,,,,,,,,,,,,,,,,,,,23NE,001,2023_Mar_10_1223,ExactRep-v3-final,2021.2.3,59.83573896034783,
,,,,,,,,24,0,24,0,,,,,,,,,,,,,,,,,,,,,,,,,,,,,,,,,,,,,,,,,,,,,,,,,,,,,876.317457600031,None,,,,,,,,,,,,,,,,,,,,,,,,,,,,,,,,,,,maiden,26,25,sing,blue,874.3063582000323,None,None,874.3063582000323,None,,,,,,,,,,,,,,,,,,,,,,,,,,,,,,23NE,001,2023_Mar_10_1223,ExactRep-v3-final,2021.2.3,59.83573896034783,
,,,,,,,,25,0,25,0,,,,,,,,,,,,,,,,,,,,,,,,,,,,,,,,,,,,,,,,,,,,,,,,,,,,,878.8196759000421,None,,,,,,,,,,,,,,,,,,,,,,,,,,,,,,,,,,,soil,14,26,sing,blue,876.8204316999763,None,None,876.8204316999763,None,,,,,,,,,,,,,,,,,,,,,,,,,,,,,,23NE,001,2023_Mar_10_1223,ExactRep-v3-final,2021.2.3,59.83573896034783,
,,,,,,,,26,0,26,0,,,,,,,,,,,,,,,,,,,,,,,,,,,,,,,,,,,,,,,,,,,,,,,,,,,,,881.3222273001447,None,,,,,,,,,,,,,,,,,,,,,,,,,,,,,,,,,,,chance,23,27,sing,blue,879.3217633999884,None,None,879.3217633999884,None,,,,,,,,,,,,,,,,,,,,,,,,,,,,,,23NE,001,2023_Mar_10_1223,ExactRep-v3-final,2021.2.3,59.83573896034783,
,,,,,,,,27,0,27,0,,,,,,,,,,,,,,,,,,,,,,,,,,,,,,,,,,,,,,,,,,,,,,,,,,,,,883.824932700023,None,,,,,,,,,,,,,,,,,,,,,,,,,,,,,,,,,,,master,16,28,sing,blue,881.8260268999729,None,None,881.8260268999729,None,,,,,,,,,,,,,,,,,,,,,,,,,,,,,,23NE,001,2023_Mar_10_1223,ExactRep-v3-final,2021.2.3,59.83573896034783,
,,,,,,,,28,0,28,0,,,,,,,,,,,,,,,,,,,,,,,,,,,,,,,,,,,,,,,,,,,,,,,,,,,,,886.344125200063,None,,,,,,,,,,,,,,,,,,,,,,,,,,,,,,,,,,,seat,2,29,sing,blue,884.3317323001102,None,None,884.3317323001102,None,,,,,,,,,,,,,,,,,,,,,,,,,,,,,,23NE,001,2023_Mar_10_1223,ExactRep-v3-final,2021.2.3,59.83573896034783,
,,,,,,,,29,0,29,0,,,,,,,,,,,,,,,,,,,,,,,,,,,,,,,,,,,,,,,,,,,,,,,,,,,,,888.8466346000787,None,,,,,,,,,,,,,,,,,,,,,,,,,,,,,,,,,,,spirit,64,30,silent,red,886.8467455001082,None,None,886.8467455001082,None,,,,,,,,,,,,,,,,,,,,,,,,,,,,,,23NE,001,2023_Mar_10_1223,ExactRep-v3-final,2021.2.3,59.83573896034783,
,,,,,,,,30,0,30,0,,,,,,,,,,,,,,,,,,,,,,,,,,,,,,,,,,,,,,,,,,,,,,,,,,,,,891.349086600123,None,,,,,,,,,,,,,,,,,,,,,,,,,,,,,,,,,,,tree,92,31,aloud,white,889.349608000135,None,None,889.349608000135,None,,,,,,,,,,,,,,,,,,,,,,,,,,,,,,23NE,001,2023_Mar_10_1223,ExactRep-v3-final,2021.2.3,59.83573896034783,
,,,,,,,,31,0,31,0,,,,,,,,,,,,,,,,,,,,,,,,,,,,,,,,,,,,,,,,,,,,,,,,,,,,,893.8516997001134,None,,,,,,,,,,,,,,,,,,,,,,,,,,,,,,,,,,,pride,67,32,silent,red,891.8501762000378,None,None,891.8501762000378,None,,,,,,,,,,,,,,,,,,,,,,,,,,,,,,23NE,001,2023_Mar_10_1223,ExactRep-v3-final,2021.2.3,59.83573896034783,
,,,,,,,,32,0,32,0,,,,,,,,,,,,,,,,,,,,,,,,,,,,,,,,,,,,,,,,,,,,,,,,,,,,,896.3706612000242,None,,,,,,,,,,,,,,,,,,,,,,,,,,,,,,,,,,,crime,48,33,silent,red,894.3631782999728,None,None,894.3631782999728,None,,,,,,,,,,,,,,,,,,,,,,,,,,,,,,23NE,001,2023_Mar_10_1223,ExactRep-v3-final,2021.2.3,59.83573896034783,
,,,,,,,,33,0,33,0,,,,,,,,,,,,,,,,,,,,,,,,,,,,,,,,,,,,,,,,,,,,,,,,,,,,,898.8899936000817,None,,,,,,,,,,,,,,,,,,,,,,,,,,,,,,,,,,,shoes,69,34,silent,red,896.8758235999849,None,None,896.8758235999849,None,,,,,,,,,,,,,,,,,,,,,,,,,,,,,,23NE,001,2023_Mar_10_1223,ExactRep-v3-final,2021.2.3,59.83573896034783,
,,,,,,,,34,0,34,0,,,,,,,,,,,,,,,,,,,,,,,,,,,,,,,,,,,,,,,,,,,,,,,,,,,,,901.3925840000156,None,,,,,,,,,,,,,,,,,,,,,,,,,,,,,,,,,,,length,42,35,silent,red,899.3925991000142,None,None,899.3925991000142,None,,,,,,,,,,,,,,,,,,,,,,,,,,,,,,23NE,001,2023_Mar_10_1223,ExactRep-v3-final,2021.2.3,59.83573896034783,
,,,,,,,,35,0,35,0,,,,,,,,,,,,,,,,,,,,,,,,,,,,,,,,,,,,,,,,,,,,,,,,,,,,,903.9114837001543,None,,,,,,,,,,,,,,,,,,,,,,,,,,,,,,,,,,,history,80,36,aloud,white,901.89874590002,None,None,901.89874590002,None,,,,,,,,,,,,,,,,,,,,,,,,,,,,,,23NE,001,2023_Mar_10_1223,ExactRep-v3-final,2021.2.3,59.83573896034783,
,,,,,,,,36,0,36,0,,,,,,,,,,,,,,,,,,,,,,,,,,,,,,,,,,,,,,,,,,,,,,,,,,,,,906.4309042000677,None,,,,,,,,,,,,,,,,,,,,,,,,,,,,,,,,,,,idea,72,37,silent,red,904.4178432000335,None,None,904.4178432000335,None,,,,,,,,,,,,,,,,,,,,,,,,,,,,,,23NE,001,2023_Mar_10_1223,ExactRep-v3-final,2021.2.3,59.83573896034783,
,,,,,,,,37,0,37,0,,,,,,,,,,,,,,,,,,,,,,,,,,,,,,,,,,,,,,,,,,,,,,,,,,,,,908.933396999957,None,,,,,,,,,,,,,,,,,,,,,,,,,,,,,,,,,,,silence,76,38,silent,red,906.9311765001621,None,None,906.9311765001621,None,,,,,,,,,,,,,,,,,,,,,,,,,,,,,,23NE,001,2023_Mar_10_1223,ExactRep-v3-final,2021.2.3,59.83573896034783,
,,,,,,,,38,0,38,0,,,,,,,,,,,,,,,,,,,,,,,,,,,,,,,,,,,,,,,,,,,,,,,,,,,,,911.4526476000901,None,,,,,,,,,,,,,,,,,,,,,,,,,,,,,,,,,,,devil,6,39,sing,blue,909.4390247000847,None,None,909.4390247000847,None,,,,,,,,,,,,,,,,,,,,,,,,,,,,,,23NE,001,2023_Mar_10_1223,ExactRep-v3-final,2021.2.3,59.83573896034783,
,,,,,,,,39,0,39,0,,,,,,,,,,,,,,,,,,,,,,,,,,,,,,,,,,,,,,,,,,,,,,,,,,,,,913.9550958001055,None,,,,,,,,,,,,,,,,,,,,,,,,,,,,,,,,,,,string,73,40,silent,red,911.9530836001504,None,None,911.9530836001504,None,,,,,,,,,,,,,,,,,,,,,,,,,,,,,,23NE,001,2023_Mar_10_1223,ExactRep-v3-final,2021.2.3,59.83573896034783,
,,,,,,,,40,0,40,0,,,,,,,,,,,,,,,,,,,,,,,,,,,,,,,,,,,,,,,,,,,,,,,,,,,,,916.4574092000257,None,,,,,,,,,,,,,,,,,,,,,,,,,,,,,,,,,,,sea,45,41,silent,red,914.4578158999793,None,None,914.4578158999793,None,,,,,,,,,,,,,,,,,,,,,,,,,,,,,,23NE,001,2023_Mar_10_1223,ExactRep-v3-final,2021.2.3,59.83573896034783,
,,,,,,,,41,0,41,0,,,,,,,,,,,,,,,,,,,,,,,,,,,,,,,,,,,,,,,,,,,,,,,,,,,,,918.9598847001325,None,,,,,,,,,,,,,,,,,,,,,,,,,,,,,,,,,,,church,104,42,aloud,white,916.9578774999827,None,None,916.9578774999827,None,,,,,,,,,,,,,,,,,,,,,,,,,,,,,,23NE,001,2023_Mar_10_1223,ExactRep-v3-final,2021.2.3,59.83573896034783,
,,,,,,,,42,0,42,0,,,,,,,,,,,,,,,,,,,,,,,,,,,,,,,,,,,,,,,,,,,,,,,,,,,,,921.4624300000723,None,,,,,,,,,,,,,,,,,,,,,,,,,,,,,,,,,,,honour,58,43,silent,red,919.4604090000503,None,None,919.4604090000503,None,,,,,,,,,,,,,,,,,,,,,,,,,,,,,,23NE,001,2023_Mar_10_1223,ExactRep-v3-final,2021.2.3,59.83573896034783,
,,,,,,,,43,0,43,0,,,,,,,,,,,,,,,,,,,,,,,,,,,,,,,,,,,,,,,,,,,,,,,,,,,,,923.9817685000598,None,,,,,,,,,,,,,,,,,,,,,,,,,,,,,,,,,,,library,62,44,silent,red,921.966534800129,None,None,921.966534800129,None,,,,,,,,,,,,,,,,,,,,,,,,,,,,,,23NE,001,2023_Mar_10_1223,ExactRep-v3-final,2021.2.3,59.83573896034783,
,,,,,,,,44,0,44,0,,,,,,,,,,,,,,,,,,,,,,,,,,,,,,,,,,,,,,,,,,,,,,,,,,,,,926.5007907000836,None,,,,,,,,,,,,,,,,,,,,,,,,,,,,,,,,,,,temple,43,45,silent,red,924.4860674999654,None,None,924.4860674999654,None,,,,,,,,,,,,,,,,,,,,,,,,,,,,,,23NE,001,2023_Mar_10_1223,ExactRep-v3-final,2021.2.3,59.83573896034783,
,,,,,,,,45,0,45,0,,,,,,,,,,,,,,,,,,,,,,,,,,,,,,,,,,,,,,,,,,,,,,,,,,,,,929.0032844999805,None,,,,,,,,,,,,,,,,,,,,,,,,,,,,,,,,,,,book,24,46,sing,blue,927.0033311999869,None,None,927.0033311999869,None,,,,,,,,,,,,,,,,,,,,,,,,,,,,,,23NE,001,2023_Mar_10_1223,ExactRep-v3-final,2021.2.3,59.83573896034783,
,,,,,,,,46,0,46,0,,,,,,,,,,,,,,,,,,,,,,,,,,,,,,,,,,,,,,,,,,,,,,,,,,,,,931.5060003001709,None,,,,,,,,,,,,,,,,,,,,,,,,,,,,,,,,,,,weapon,22,47,sing,blue,929.5046286999714,None,None,929.5046286999714,None,,,,,,,,,,,,,,,,,,,,,,,,,,,,,,23NE,001,2023_Mar_10_1223,ExactRep-v3-final,2021.2.3,59.83573896034783,
,,,,,,,,47,0,47,0,,,,,,,,,,,,,,,,,,,,,,,,,,,,,,,,,,,,,,,,,,,,,,,,,,,,,934.0249408001546,None,,,,,,,,,,,,,,,,,,,,,,,,,,,,,,,,,,,doll,49,48,silent,red,932.0116286000703,None,None,932.0116286000703,None,,,,,,,,,,,,,,,,,,,,,,,,,,,,,,23NE,001,2023_Mar_10_1223,ExactRep-v3-final,2021.2.3,59.83573896034783,
,,,,,,,,48,0,48,0,,,,,,,,,,,,,,,,,,,,,,,,,,,,,,,,,,,,,,,,,,,,,,,,,,,,,936.5442943000235,None,,,,,,,,,,,,,,,,,,,,,,,,,,,,,,,,,,,palace,18,49,sing,blue,934.5332067001145,None,None,934.5332067001145,None,,,,,,,,,,,,,,,,,,,,,,,,,,,,,,23NE,001,2023_Mar_10_1223,ExactRep-v3-final,2021.2.3,59.83573896034783,
,,,,,,,,49,0,49,0,,,,,,,,,,,,,,,,,,,,,,,,,,,,,,,,,,,,,,,,,,,,,,,,,,,,,939.0634713999461,None,,,,,,,,,,,,,,,,,,,,,,,,,,,,,,,,,,,wife,39,50,silent,red,937.0535169001669,None,None,937.0535169001669,None,,,,,,,,,,,,,,,,,,,,,,,,,,,,,,23NE,001,2023_Mar_10_1223,ExactRep-v3-final,2021.2.3,59.83573896034783,
,,,,,,,,50,0,50,0,,,,,,,,,,,,,,,,,,,,,,,,,,,,,,,,,,,,,,,,,,,,,,,,,,,,,941.5827134000137,None,,,,,,,,,,,,,,,,,,,,,,,,,,,,,,,,,,,life,111,51,aloud,white,939.5677591001149,None,None,939.5677591001149,None,,,,,,,,,,,,,,,,,,,,,,,,,,,,,,23NE,001,2023_Mar_10_1223,ExactRep-v3-final,2021.2.3,59.83573896034783,
,,,,,,,,51,0,51,0,,,,,,,,,,,,,,,,,,,,,,,,,,,,,,,,,,,,,,,,,,,,,,,,,,,,,944.0850435001776,None,,,,,,,,,,,,,,,,,,,,,,,,,,,,,,,,,,,steam,77,52,silent,red,942.0859342000913,None,None,942.0859342000913,None,,,,,,,,,,,,,,,,,,,,,,,,,,,,,,23NE,001,2023_Mar_10_1223,ExactRep-v3-final,2021.2.3,59.83573896034783,
,,,,,,,,52,0,52,0,,,,,,,,,,,,,,,,,,,,,,,,,,,,,,,,,,,,,,,,,,,,,,,,,,,,,946.5875425001141,None,,,,,,,,,,,,,,,,,,,,,,,,,,,,,,,,,,,fortune,101,53,aloud,white,944.5862347001676,None,None,944.5862347001676,None,,,,,,,,,,,,,,,,,,,,,,,,,,,,,,23NE,001,2023_Mar_10_1223,ExactRep-v3-final,2021.2.3,59.83573896034783,
,,,,,,,,53,0,53,0,,,,,,,,,,,,,,,,,,,,,,,,,,,,,,,,,,,,,,,,,,,,,,,,,,,,,949.0902556001674,None,,,,,,,,,,,,,,,,,,,,,,,,,,,,,,,,,,,volume,95,54,aloud,white,947.0889918999746,None,None,947.0889918999746,None,,,,,,,,,,,,,,,,,,,,,,,,,,,,,,23NE,001,2023_Mar_10_1223,ExactRep-v3-final,2021.2.3,59.83573896034783,
,,,,,,,,54,0,54,0,,,,,,,,,,,,,,,,,,,,,,,,,,,,,,,,,,,,,,,,,,,,,,,,,,,,,951.5927385000978,None,,,,,,,,,,,,,,,,,,,,,,,,,,,,,,,,,,,camp,107,55,aloud,white,949.5929709000047,None,None,949.5929709000047,None,,,,,,,,,,,,,,,,,,,,,,,,,,,,,,23NE,001,2023_Mar_10_1223,ExactRep-v3-final,2021.2.3,59.83573896034783,
,,,,,,,,55,0,55,0,,,,,,,,,,,,,,,,,,,,,,,,,,,,,,,,,,,,,,,,,,,,,,,,,,,,,954.1119192000479,None,,,,,,,,,,,,,,,,,,,,,,,,,,,,,,,,,,,insect,119,56,aloud,white,952.097723999992,None,None,952.097723999992,None,,,,,,,,,,,,,,,,,,,,,,,,,,,,,,23NE,001,2023_Mar_10_1223,ExactRep-v3-final,2021.2.3,59.83573896034783,
,,,,,,,,56,0,56,0,,,,,,,,,,,,,,,,,,,,,,,,,,,,,,,,,,,,,,,,,,,,,,,,,,,,,956.630755300168,None,,,,,,,,,,,,,,,,,,,,,,,,,,,,,,,,,,,disease,90,57,aloud,white,954.615460800007,None,None,954.615460800007,None,,,,,,,,,,,,,,,,,,,,,,,,,,,,,,23NE,001,2023_Mar_10_1223,ExactRep-v3-final,2021.2.3,59.83573896034783,
,,,,,,,,57,0,57,0,,,,,,,,,,,,,,,,,,,,,,,,,,,,,,,,,,,,,,,,,,,,,,,,,,,,,959.1503403000534,None,,,,,,,,,,,,,,,,,,,,,,,,,,,,,,,,,,,market,46,58,silent,red,957.1363572999835,None,None,957.1363572999835,None,,,,,,,,,,,,,,,,,,,,,,,,,,,,,,23NE,001,2023_Mar_10_1223,ExactRep-v3-final,2021.2.3,59.83573896034783,
,,,,,,,,58,0,58,0,,,,,,,,,,,,,,,,,,,,,,,,,,,,,,,,,,,,,,,,,,,,,,,,,,,,,961.6693343000952,None,,,,,,,,,,,,,,,,,,,,,,,,,,,,,,,,,,,diamond,13,59,sing,blue,959.6549043001141,None,None,959.6549043001141,None,,,,,,,,,,,,,,,,,,,,,,,,,,,,,,23NE,001,2023_Mar_10_1223,ExactRep-v3-final,2021.2.3,59.83573896034783,
,,,,,,,,59,0,59,0,,,,,,,,,,,,,,,,,,,,,,,,,,,,,,,,,,,,,,,,,,,,,,,,,,,,,964.1885320001747,None,,,,,,,,,,,,,,,,,,,,,,,,,,,,,,,,,,,poet,12,60,sing,blue,962.1743795999791,None,None,962.1743795999791,None,,,,,,,,,,,,,,,,,,,,,,,,,,,,,,23NE,001,2023_Mar_10_1223,ExactRep-v3-final,2021.2.3,59.83573896034783,
,,,,,,,,60,0,60,0,,,,,,,,,,,,,,,,,,,,,,,,,,,,,,,,,,,,,,,,,,,,,,,,,,,,,966.6909807999618,None,,,,,,,,,,,,,,,,,,,,,,,,,,,,,,,,,,,fault,32,61,sing,blue,964.6891302999575,None,None,964.6891302999575,None,,,,,,,,,,,,,,,,,,,,,,,,,,,,,,23NE,001,2023_Mar_10_1223,ExactRep-v3-final,2021.2.3,59.83573896034783,
,,,,,,,,61,0,61,0,,,,,,,,,,,,,,,,,,,,,,,,,,,,,,,,,,,,,,,,,,,,,,,,,,,,,969.1935126001481,None,,,,,,,,,,,,,,,,,,,,,,,,,,,,,,,,,,,pipe,103,62,aloud,white,967.1916592000052,None,None,967.1916592000052,None,,,,,,,,,,,,,,,,,,,,,,,,,,,,,,23NE,001,2023_Mar_10_1223,ExactRep-v3-final,2021.2.3,59.83573896034783,
,,,,,,,,62,0,62,0,,,,,,,,,,,,,,,,,,,,,,,,,,,,,,,,,,,,,,,,,,,,,,,,,,,,,971.6959985999856,None,,,,,,,,,,,,,,,,,,,,,,,,,,,,,,,,,,,hotel,96,63,aloud,white,969.694061400136,None,None,969.694061400136,None,,,,,,,,,,,,,,,,,,,,,,,,,,,,,,23NE,001,2023_Mar_10_1223,ExactRep-v3-final,2021.2.3,59.83573896034783,
,,,,,,,,63,0,63,0,,,,,,,,,,,,,,,,,,,,,,,,,,,,,,,,,,,,,,,,,,,,,,,,,,,,,974.1985069999937,None,,,,,,,,,,,,,,,,,,,,,,,,,,,,,,,,,,,origin,74,64,silent,red,972.1965016000904,None,None,972.1965016000904,None,,,,,,,,,,,,,,,,,,,,,,,,,,,,,,23NE,001,2023_Mar_10_1223,ExactRep-v3-final,2021.2.3,59.83573896034783,
,,,,,,,,64,0,64,0,,,,,,,,,,,,,,,,,,,,,,,,,,,,,,,,,,,,,,,,,,,,,,,,,,,,,976.700969700003,None,,,,,,,,,,,,,,,,,,,,,,,,,,,,,,,,,,,forest,44,65,silent,red,974.6995419000741,None,None,974.6995419000741,None,,,,,,,,,,,,,,,,,,,,,,,,,,,,,,23NE,001,2023_Mar_10_1223,ExactRep-v3-final,2021.2.3,59.83573896034783,
,,,,,,,,65,0,65,0,,,,,,,,,,,,,,,,,,,,,,,,,,,,,,,,,,,,,,,,,,,,,,,,,,,,,979.2202957000118,None,,,,,,,,,,,,,,,,,,,,,,,,,,,,,,,,,,,plant,57,66,silent,red,977.2067810001317,None,None,977.2067810001317,None,,,,,,,,,,,,,,,,,,,,,,,,,,,,,,23NE,001,2023_Mar_10_1223,ExactRep-v3-final,2021.2.3,59.83573896034783,
,,,,,,,,66,0,66,0,,,,,,,,,,,,,,,,,,,,,,,,,,,,,,,,,,,,,,,,,,,,,,,,,,,,,981.7229109001346,None,,,,,,,,,,,,,,,,,,,,,,,,,,,,,,,,,,,money,89,67,aloud,white,979.7207757001743,None,None,979.7207757001743,None,,,,,,,,,,,,,,,,,,,,,,,,,,,,,,23NE,001,2023_Mar_10_1223,ExactRep-v3-final,2021.2.3,59.83573896034783,
,,,,,,,,67,0,67,0,,,,,,,,,,,,,,,,,,,,,,,,,,,,,,,,,,,,,,,,,,,,,,,,,,,,,984.2254184000194,None,,,,,,,,,,,,,,,,,,,,,,,,,,,,,,,,,,,wheat,51,68,silent,red,982.2249654000625,None,None,982.2249654000625,None,,,,,,,,,,,,,,,,,,,,,,,,,,,,,,23NE,001,2023_Mar_10_1223,ExactRep-v3-final,2021.2.3,59.83573896034783,
,,,,,,,,68,0,68,0,,,,,,,,,,,,,,,,,,,,,,,,,,,,,,,,,,,,,,,,,,,,,,,,,,,,,986.7274806001224,None,,,,,,,,,,,,,,,,,,,,,,,,,,,,,,,,,,,tool,94,69,aloud,white,984.727799900109,None,None,984.727799900109,None,,,,,,,,,,,,,,,,,,,,,,,,,,,,,,23NE,001,2023_Mar_10_1223,ExactRep-v3-final,2021.2.3,59.83573896034783,
,,,,,,,,69,0,69,0,,,,,,,,,,,,,,,,,,,,,,,,,,,,,,,,,,,,,,,,,,,,,,,,,,,,,989.2302231001668,None,,,,,,,,,,,,,,,,,,,,,,,,,,,,,,,,,,,boulder,34,70,sing,blue,987.2309278999455,None,None,987.2309278999455,None,,,,,,,,,,,,,,,,,,,,,,,,,,,,,,23NE,001,2023_Mar_10_1223,ExactRep-v3-final,2021.2.3,59.83573896034783,
,,,,,,,,70,0,70,0,,,,,,,,,,,,,,,,,,,,,,,,,,,,,,,,,,,,,,,,,,,,,,,,,,,,,991.7328699000645,None,,,,,,,,,,,,,,,,,,,,,,,,,,,,,,,,,,,hide,84,71,aloud,white,989.7315375001635,None,None,989.7315375001635,None,,,,,,,,,,,,,,,,,,,,,,,,,,,,,,23NE,001,2023_Mar_10_1223,ExactRep-v3-final,2021.2.3,59.83573896034783,
,,,,,,,,71,0,71,0,,,,,,,,,,,,,,,,,,,,,,,,,,,,,,,,,,,,,,,,,,,,,,,,,,,,,994.2518325999845,None,,,,,,,,,,,,,,,,,,,,,,,,,,,,,,,,,,,judge,31,72,sing,blue,992.236760900123,None,None,992.236760900123,None,,,,,,,,,,,,,,,,,,,,,,,,,,,,,,23NE,001,2023_Mar_10_1223,ExactRep-v3-final,2021.2.3,59.83573896034783,
,,,,,,,,72,0,72,0,,,,,,,,,,,,,,,,,,,,,,,,,,,,,,,,,,,,,,,,,,,,,,,,,,,,,996.771136400057,None,,,,,,,,,,,,,,,,,,,,,,,,,,,,,,,,,,,potato,88,73,aloud,white,994.7599214001093,None,None,994.7599214001093,None,,,,,,,,,,,,,,,,,,,,,,,,,,,,,,23NE,001,2023_Mar_10_1223,ExactRep-v3-final,2021.2.3,59.83573896034783,
,,,,,,,,73,0,73,0,,,,,,,,,,,,,,,,,,,,,,,,,,,,,,,,,,,,,,,,,,,,,,,,,,,,,999.2737951001618,None,,,,,,,,,,,,,,,,,,,,,,,,,,,,,,,,,,,leader,85,74,aloud,white,997.2715450001415,None,None,997.2715450001415,None,,,,,,,,,,,,,,,,,,,,,,,,,,,,,,23NE,001,2023_Mar_10_1223,ExactRep-v3-final,2021.2.3,59.83573896034783,
,,,,,,,,74,0,74,0,,,,,,,,,,,,,,,,,,,,,,,,,,,,,,,,,,,,,,,,,,,,,,,,,,,,,1001.7930838000029,None,,,,,,,,,,,,,,,,,,,,,,,,,,,,,,,,,,,shame,97,75,aloud,white,999.7859453000128,None,None,999.7859453000128,None,,,,,,,,,,,,,,,,,,,,,,,,,,,,,,23NE,001,2023_Mar_10_1223,ExactRep-v3-final,2021.2.3,59.83573896034783,
,,,,,,,,75,0,75,0,,,,,,,,,,,,,,,,,,,,,,,,,,,,,,,,,,,,,,,,,,,,,,,,,,,,,1004.2954283000436,None,,,,,,,,,,,,,,,,,,,,,,,,,,,,,,,,,,,fact,27,76,sing,blue,1002.2944817000534,None,None,1002.2944817000534,None,,,,,,,,,,,,,,,,,,,,,,,,,,,,,,23NE,001,2023_Mar_10_1223,ExactRep-v3-final,2021.2.3,59.83573896034783,
,,,,,,,,76,0,76,0,,,,,,,,,,,,,,,,,,,,,,,,,,,,,,,,,,,,,,,,,,,,,,,,,,,,,1006.8146677000914,None,,,,,,,,,,,,,,,,,,,,,,,,,,,,,,,,,,,storm,118,77,aloud,white,1004.8001023000106,None,None,1004.8001023000106,None,,,,,,,,,,,,,,,,,,,,,,,,,,,,,,23NE,001,2023_Mar_10_1223,ExactRep-v3-final,2021.2.3,59.83573896034783,
,,,,,,,,77,0,77,0,,,,,,,,,,,,,,,,,,,,,,,,,,,,,,,,,,,,,,,,,,,,,,,,,,,,,1009.3170519999694,None,,,,,,,,,,,,,,,,,,,,,,,,,,,,,,,,,,,cost,3,78,sing,blue,1007.3165563000366,None,None,1007.3165563000366,None,,,,,,,,,,,,,,,,,,,,,,,,,,,,,,23NE,001,2023_Mar_10_1223,ExactRep-v3-final,2021.2.3,59.83573896034783,
,,,,,,,,78,0,78,0,,,,,,,,,,,,,,,,,,,,,,,,,,,,,,,,,,,,,,,,,,,,,,,,,,,,,1011.8362404000945,None,,,,,,,,,,,,,,,,,,,,,,,,,,,,,,,,,,,season,37,79,sing,blue,1009.8254100000486,None,None,1009.8254100000486,None,,,,,,,,,,,,,,,,,,,,,,,,,,,,,,23NE,001,2023_Mar_10_1223,ExactRep-v3-final,2021.2.3,59.83573896034783,
,,,,,,,,79,0,79,0,,,,,,,,,,,,,,,,,,,,,,,,,,,,,,,,,,,,,,,,,,,,,,,,,,,,,1014.3386771001387,None,,,,,,,,,,,,,,,,,,,,,,,,,,,,,,,,,,,dream,106,80,aloud,white,1012.3375256999861,None,None,1012.3375256999861,None,,,,,,,,,,,,,,,,,,,,,,,,,,,,,,23NE,001,2023_Mar_10_1223,ExactRep-v3-final,2021.2.3,59.83573896034783,
,,,,,,,,80,0,80,0,,,,,,,,,,,,,,,,,,,,,,,,,,,,,,,,,,,,,,,,,,,,,,,,,,,,,1016.8410212001763,None,,,,,,,,,,,,,,,,,,,,,,,,,,,,,,,,,,,machine,15,81,sing,blue,1014.8409271000419,None,None,1014.8409271000419,None,,,,,,,,,,,,,,,,,,,,,,,,,,,,,,23NE,001,2023_Mar_10_1223,ExactRep-v3-final,2021.2.3,59.83573896034783,
,,,,,,,,81,0,81,0,,,,,,,,,,,,,,,,,,,,,,,,,,,,,,,,,,,,,,,,,,,,,,,,,,,,,1019.3606291001197,None,,,,,,,,,,,,,,,,,,,,,,,,,,,,,,,,,,,excuse,25,82,sing,blue,1017.3452475001104,None,None,1017.3452475001104,None,,,,,,,,,,,,,,,,,,,,,,,,,,,,,,23NE,001,2023_Mar_10_1223,ExactRep-v3-final,2021.2.3,59.83573896034783,
,,,,,,,,82,0,82,0,,,,,,,,,,,,,,,,,,,,,,,,,,,,,,,,,,,,,,,,,,,,,,,,,,,,,1021.8797180999536,None,,,,,,,,,,,,,,,,,,,,,,,,,,,,,,,,,,,street,50,83,silent,red,1019.8668915000744,None,None,1019.8668915000744,None,,,,,,,,,,,,,,,,,,,,,,,,,,,,,,23NE,001,2023_Mar_10_1223,ExactRep-v3-final,2021.2.3,59.83573896034783,
,,,,,,,,83,0,83,0,,,,,,,,,,,,,,,,,,,,,,,,,,,,,,,,,,,,,,,,,,,,,,,,,,,,,1024.3822189001366,None,,,,,,,,,,,,,,,,,,,,,,,,,,,,,,,,,,,bowl,29,84,sing,blue,1022.3814020000864,None,None,1022.3814020000864,None,,,,,,,,,,,,,,,,,,,,,,,,,,,,,,23NE,001,2023_Mar_10_1223,ExactRep-v3-final,2021.2.3,59.83573896034783,
,,,,,,,,84,0,84,0,,,,,,,,,,,,,,,,,,,,,,,,,,,,,,,,,,,,,,,,,,,,,,,,,,,,,1026.9012275000568,None,,,,,,,,,,,,,,,,,,,,,,,,,,,,,,,,,,,custom,63,85,silent,red,1024.8858070001006,None,None,1024.8858070001006,None,,,,,,,,,,,,,,,,,,,,,,,,,,,,,,23NE,001,2023_Mar_10_1223,ExactRep-v3-final,2021.2.3,59.83573896034783,
,,,,,,,,85,0,85,0,,,,,,,,,,,,,,,,,,,,,,,,,,,,,,,,,,,,,,,,,,,,,,,,,,,,,1029.4039174001664,None,,,,,,,,,,,,,,,,,,,,,,,,,,,,,,,,,,,earth,102,86,aloud,white,1027.404441300081,None,None,1027.404441300081,None,,,,,,,,,,,,,,,,,,,,,,,,,,,,,,23NE,001,2023_Mar_10_1223,ExactRep-v3-final,2021.2.3,59.83573896034783,
,,,,,,,,86,0,86,0,,,,,,,,,,,,,,,,,,,,,,,,,,,,,,,,,,,,,,,,,,,,,,,,,,,,,1031.9061812001746,None,,,,,,,,,,,,,,,,,,,,,,,,,,,,,,,,,,,grass,10,87,sing,blue,1029.9041089999955,None,None,1029.9041089999955,None,,,,,,,,,,,,,,,,,,,,,,,,,,,,,,23NE,001,2023_Mar_10_1223,ExactRep-v3-final,2021.2.3,59.83573896034783,
,,,,,,,,87,0,87,0,,,,,,,,,,,,,,,,,,,,,,,,,,,,,,,,,,,,,,,,,,,,,,,,,,,,,1034.408964500064,None,,,,,,,,,,,,,,,,,,,,,,,,,,,,,,,,,,,valley,108,88,aloud,white,1032.4071357001085,None,None,1032.4071357001085,None,,,,,,,,,,,,,,,,,,,,,,,,,,,,,,23NE,001,2023_Mar_10_1223,ExactRep-v3-final,2021.2.3,59.83573896034783,
,,,,,,,,88,0,88,0,,,,,,,,,,,,,,,,,,,,,,,,,,,,,,,,,,,,,,,,,,,,,,,,,,,,,1036.92788870004,None,,,,,,,,,,,,,,,,,,,,,,,,,,,,,,,,,,,officer,21,89,sing,blue,1034.9189492999576,None,None,1034.9189492999576,None,,,,,,,,,,,,,,,,,,,,,,,,,,,,,,23NE,001,2023_Mar_10_1223,ExactRep-v3-final,2021.2.3,59.83573896034783,
,,,,,,,,89,0,89,0,,,,,,,,,,,,,,,,,,,,,,,,,,,,,,,,,,,,,,,,,,,,,,,,,,,,,1039.4305227999575,None,,,,,,,,,,,,,,,,,,,,,,,,,,,,,,,,,,,vessel,11,90,sing,blue,1037.4296731001232,None,None,1037.4296731001232,None,,,,,,,,,,,,,,,,,,,,,,,,,,,,,,23NE,001,2023_Mar_10_1223,ExactRep-v3-final,2021.2.3,59.83573896034783,
,,,,,,,,90,0,90,0,,,,,,,,,,,,,,,,,,,,,,,,,,,,,,,,,,,,,,,,,,,,,,,,,,,,,1041.932720300043,None,,,,,,,,,,,,,,,,,,,,,,,,,,,,,,,,,,,ocean,60,91,silent,red,1039.9326327000745,None,None,1039.9326327000745,None,,,,,,,,,,,,,,,,,,,,,,,,,,,,,,23NE,001,2023_Mar_10_1223,ExactRep-v3-final,2021.2.3,59.83573896034783,
,,,,,,,,91,0,91,0,,,,,,,,,,,,,,,,,,,,,,,,,,,,,,,,,,,,,,,,,,,,,,,,,,,,,1044.4355570001062,None,,,,,,,,,,,,,,,,,,,,,,,,,,,,,,,,,,,victory,99,92,aloud,white,1042.4364984000567,None,None,1042.4364984000567,None,,,,,,,,,,,,,,,,,,,,,,,,,,,,,,23NE,001,2023_Mar_10_1223,ExactRep-v3-final,2021.2.3,59.83573896034783,
,,,,,,,,92,0,92,0,,,,,,,,,,,,,,,,,,,,,,,,,,,,,,,,,,,,,,,,,,,,,,,,,,,,,1046.954442200018,None,,,,,,,,,,,,,,,,,,,,,,,,,,,,,,,,,,,board,55,93,silent,red,1044.945593800163,None,None,1044.945593800163,None,,,,,,,,,,,,,,,,,,,,,,,,,,,,,,23NE,001,2023_Mar_10_1223,ExactRep-v3-final,2021.2.3,59.83573896034783,
,,,,,,,,93,0,93,0,,,,,,,,,,,,,,,,,,,,,,,,,,,,,,,,,,,,,,,,,,,,,,,,,,,,,1049.473982400028,None,,,,,,,,,,,,,,,,,,,,,,,,,,,,,,,,,,,river,28,94,sing,blue,1047.4600466000848,None,None,1047.4600466000848,None,,,,,,,,,,,,,,,,,,,,,,,,,,,,,,23NE,001,2023_Mar_10_1223,ExactRep-v3-final,2021.2.3,59.83573896034783,
,,,,,,,,94,0,94,0,,,,,,,,,,,,,,,,,,,,,,,,,,,,,,,,,,,,,,,,,,,,,,,,,,,,,1051.9932342001703,None,,,,,,,,,,,,,,,,,,,,,,,,,,,,,,,,,,,cattle,40,95,silent,red,1049.9785977001302,None,None,1049.9785977001302,None,,,,,,,,,,,,,,,,,,,,,,,,,,,,,,23NE,001,2023_Mar_10_1223,ExactRep-v3-final,2021.2.3,59.83573896034783,
,,,,,,,,95,0,95,0,,,,,,,,,,,,,,,,,,,,,,,,,,,,,,,,,,,,,,,,,,,,,,,,,,,,,1054.5121176000684,None,,,,,,,,,,,,,,,,,,,,,,,,,,,,,,,,,,,sky,65,96,silent,red,1052.4967559999786,None,None,1052.4967559999786,None,,,,,,,,,,,,,,,,,,,,,,,,,,,,,,23NE,001,2023_Mar_10_1223,ExactRep-v3-final,2021.2.3,59.83573896034783,
,,,,,,,,96,0,96,0,,,,,,,,,,,,,,,,,,,,,,,,,,,,,,,,,,,,,,,,,,,,,,,,,,,,,1057.0146161001176,None,,,,,,,,,,,,,,,,,,,,,,,,,,,,,,,,,,,woman,38,97,sing,blue,1055.012596100103,None,None,1055.012596100103,None,,,,,,,,,,,,,,,,,,,,,,,,,,,,,,23NE,001,2023_Mar_10_1223,ExactRep-v3-final,2021.2.3,59.83573896034783,
,,,,,,,,97,0,97,0,,,,,,,,,,,,,,,,,,,,,,,,,,,,,,,,,,,,,,,,,,,,,,,,,,,,,1059.5172343000304,None,,,,,,,,,,,,,,,,,,,,,,,,,,,,,,,,,,,party,17,98,sing,blue,1057.5151311999653,None,None,1057.5151311999653,None,,,,,,,,,,,,,,,,,,,,,,,,,,,,,,23NE,001,2023_Mar_10_1223,ExactRep-v3-final,2021.2.3,59.83573896034783,
,,,,,,,,98,0,98,0,,,,,,,,,,,,,,,,,,,,,,,,,,,,,,,,,,,,,,,,,,,,,,,,,,,,,1062.0196746999864,None,,,,,,,,,,,,,,,,,,,,,,,,,,,,,,,,,,,flower,75,99,silent,red,1060.0178539000917,None,None,1060.0178539000917,None,,,,,,,,,,,,,,,,,,,,,,,,,,,,,,23NE,001,2023_Mar_10_1223,ExactRep-v3-final,2021.2.3,59.83573896034783,
,,,,,,,,99,0,99,0,,,,,,,,,,,,,,,,,,,,,,,,,,,,,,,,,,,,,,,,,,,,,,,,,,,,,1064.5390145999845,None,,,,,,,,,,,,,,,,,,,,,,,,,,,,,,,,,,,memory,0,100,sing,blue,1062.5266377001535,None,None,1062.5266377001535,None,,,,,,,,,,,,,,,,,,,,,,,,,,,,,,23NE,001,2023_Mar_10_1223,ExactRep-v3-final,2021.2.3,59.83573896034783,
,,,,,,,,100,0,100,0,,,,,,,,,,,,,,,,,,,,,,,,,,,,,,,,,,,,,,,,,,,,,,,,,,,,,1067.041624299949,None,,,,,,,,,,,,,,,,,,,,,,,,,,,,,,,,,,,girl,81,101,aloud,white,1065.0406979001127,None,None,1065.0406979001127,None,,,,,,,,,,,,,,,,,,,,,,,,,,,,,,23NE,001,2023_Mar_10_1223,ExactRep-v3-final,2021.2.3,59.83573896034783,
,,,,,,,,101,0,101,0,,,,,,,,,,,,,,,,,,,,,,,,,,,,,,,,,,,,,,,,,,,,,,,,,,,,,1069.5439687001053,None,,,,,,,,,,,,,,,,,,,,,,,,,,,,,,,,,,,colony,19,102,sing,blue,1067.5435409999918,None,None,1067.5435409999918,None,,,,,,,,,,,,,,,,,,,,,,,,,,,,,,23NE,001,2023_Mar_10_1223,ExactRep-v3-final,2021.2.3,59.83573896034783,
,,,,,,,,102,0,102,0,,,,,,,,,,,,,,,,,,,,,,,,,,,,,,,,,,,,,,,,,,,,,,,,,,,,,1072.0629648000468,None,,,,,,,,,,,,,,,,,,,,,,,,,,,,,,,,,,,gift,93,103,aloud,white,1070.0480973001104,None,None,1070.0480973001104,None,,,,,,,,,,,,,,,,,,,,,,,,,,,,,,23NE,001,2023_Mar_10_1223,ExactRep-v3-final,2021.2.3,59.83573896034783,
,,,,,,,,103,0,103,0,,,,,,,,,,,,,,,,,,,,,,,,,,,,,,,,,,,,,,,,,,,,,,,,,,,,,1074.5656600999646,None,,,,,,,,,,,,,,,,,,,,,,,,,,,,,,,,,,,plain,100,104,aloud,white,1072.5636936000083,None,None,1072.5636936000083,None,,,,,,,,,,,,,,,,,,,,,,,,,,,,,,23NE,001,2023_Mar_10_1223,ExactRep-v3-final,2021.2.3,59.83573896034783,
,,,,,,,,104,0,104,0,,,,,,,,,,,,,,,,,,,,,,,,,,,,,,,,,,,,,,,,,,,,,,,,,,,,,1077.0680058000144,None,,,,,,,,,,,,,,,,,,,,,,,,,,,,,,,,,,,health,91,105,aloud,white,1075.0660248999484,None,None,1075.0660248999484,None,,,,,,,,,,,,,,,,,,,,,,,,,,,,,,23NE,001,2023_Mar_10_1223,ExactRep-v3-final,2021.2.3,59.83573896034783,
,,,,,,,,105,0,105,0,,,,,,,,,,,,,,,,,,,,,,,,,,,,,,,,,,,,,,,,,,,,,,,,,,,,,1079.5874286000617,None,,,,,,,,,,,,,,,,,,,,,,,,,,,,,,,,,,,death,33,106,sing,blue,1077.5778948001098,None,None,1077.5778948001098,None,,,,,,,,,,,,,,,,,,,,,,,,,,,,,,23NE,001,2023_Mar_10_1223,ExactRep-v3-final,2021.2.3,59.83573896034783,
,,,,,,,,106,0,106,0,,,,,,,,,,,,,,,,,,,,,,,,,,,,,,,,,,,,,,,,,,,,,,,,,,,,,1082.0898661999963,None,,,,,,,,,,,,,,,,,,,,,,,,,,,,,,,,,,,mercy,70,107,silent,red,1080.087671500165,None,None,1080.087671500165,None,,,,,,,,,,,,,,,,,,,,,,,,,,,,,,23NE,001,2023_Mar_10_1223,ExactRep-v3-final,2021.2.3,59.83573896034783,
,,,,,,,,107,0,107,0,,,,,,,,,,,,,,,,,,,,,,,,,,,,,,,,,,,,,,,,,,,,,,,,,,,,,1084.592175600119,None,,,,,,,,,,,,,,,,,,,,,,,,,,,,,,,,,,,flood,20,108,sing,blue,1082.5912832999602,None,None,1082.5912832999602,None,,,,,,,,,,,,,,,,,,,,,,,,,,,,,,23NE,001,2023_Mar_10_1223,ExactRep-v3-final,2021.2.3,59.83573896034783,
,,,,,,,,108,0,108,0,,,,,,,,,,,,,,,,,,,,,,,,,,,,,,,,,,,,,,,,,,,,,,,,,,,,,1087.1113891999703,None,,,,,,,,,,,,,,,,,,,,,,,,,,,,,,,,,,,murder,109,109,aloud,white,1085.1041876999661,None,None,1085.1041876999661,None,,,,,,,,,,,,,,,,,,,,,,,,,,,,,,23NE,001,2023_Mar_10_1223,ExactRep-v3-final,2021.2.3,59.83573896034783,
,,,,,,,,109,0,109,0,,,,,,,,,,,,,,,,,,,,,,,,,,,,,,,,,,,,,,,,,,,,,,,,,,,,,1089.6141031000298,None,,,,,,,,,,,,,,,,,,,,,,,,,,,,,,,,,,,soul,113,110,aloud,white,1087.6142482999712,None,None,1087.6142482999712,None,,,,,,,,,,,,,,,,,,,,,,,,,,,,,,23NE,001,2023_Mar_10_1223,ExactRep-v3-final,2021.2.3,59.83573896034783,
,,,,,,,,110,0,110,0,,,,,,,,,,,,,,,,,,,,,,,,,,,,,,,,,,,,,,,,,,,,,,,,,,,,,1092.1333402001765,None,,,,,,,,,,,,,,,,,,,,,,,,,,,,,,,,,,,meat,112,111,aloud,white,1090.1185918999836,None,None,1090.1185918999836,None,,,,,,,,,,,,,,,,,,,,,,,,,,,,,,23NE,001,2023_Mar_10_1223,ExactRep-v3-final,2021.2.3,59.83573896034783,
,,,,,,,,111,0,111,0,,,,,,,,,,,,,,,,,,,,,,,,,,,,,,,,,,,,,,,,,,,,,,,,,,,,,1094.635730399983,None,,,,,,,,,,,,,,,,,,,,,,,,,,,,,,,,,,,hall,66,112,silent,red,1092.6337651000358,None,None,1092.6337651000358,None,,,,,,,,,,,,,,,,,,,,,,,,,,,,,,23NE,001,2023_Mar_10_1223,ExactRep-v3-final,2021.2.3,59.83573896034783,
,,,,,,,,112,0,112,0,,,,,,,,,,,,,,,,,,,,,,,,,,,,,,,,,,,,,,,,,,,,,,,,,,,,,1097.1382703999989,None,,,,,,,,,,,,,,,,,,,,,,,,,,,,,,,,,,,science,86,113,aloud,white,1095.1364588001743,None,None,1095.1364588001743,None,,,,,,,,,,,,,,,,,,,,,,,,,,,,,,23NE,001,2023_Mar_10_1223,ExactRep-v3-final,2021.2.3,59.83573896034783,
,,,,,,,,113,0,113,0,,,,,,,,,,,,,,,,,,,,,,,,,,,,,,,,,,,,,,,,,,,,,,,,,,,,,1099.6574909000192,None,,,,,,,,,,,,,,,,,,,,,,,,,,,,,,,,,,,blood,98,114,aloud,white,1097.6482554001268,None,None,1097.6482554001268,None,,,,,,,,,,,,,,,,,,,,,,,,,,,,,,23NE,001,2023_Mar_10_1223,ExactRep-v3-final,2021.2.3,59.83573896034783,
,,,,,,,,114,0,114,0,,,,,,,,,,,,,,,,,,,,,,,,,,,,,,,,,,,,,,,,,,,,,,,,,,,,,1102.1766478000209,None,,,,,,,,,,,,,,,,,,,,,,,,,,,,,,,,,,,method,110,115,aloud,white,1100.1628477000631,None,None,1100.1628477000631,None,,,,,,,,,,,,,,,,,,,,,,,,,,,,,,23NE,001,2023_Mar_10_1223,ExactRep-v3-final,2021.2.3,59.83573896034783,
,,,,,,,,115,0,115,0,,,,,,,,,,,,,,,,,,,,,,,,,,,,,,,,,,,,,,,,,,,,,,,,,,,,,1104.6792175001465,None,,,,,,,,,,,,,,,,,,,,,,,,,,,,,,,,,,,lake,47,116,silent,red,1102.6769572000485,None,None,1102.6769572000485,None,,,,,,,,,,,,,,,,,,,,,,,,,,,,,,23NE,001,2023_Mar_10_1223,ExactRep-v3-final,2021.2.3,59.83573896034783,
,,,,,,,,116,0,116,0,,,,,,,,,,,,,,,,,,,,,,,,,,,,,,,,,,,,,,,,,,,,,,,,,,,,,1107.1816598000005,None,,,,,,,,,,,,,,,,,,,,,,,,,,,,,,,,,,,corn,30,117,sing,blue,1105.1818128000014,None,None,1105.1818128000014,None,,,,,,,,,,,,,,,,,,,,,,,,,,,,,,23NE,001,2023_Mar_10_1223,ExactRep-v3-final,2021.2.3,59.83573896034783,
,,,,,,,,117,0,117,0,,,,,,,,,,,,,,,,,,,,,,,,,,,,,,,,,,,,,,,,,,,,,,,,,,,,,1109.6839759000577,None,,,,,,,,,,,,,,,,,,,,,,,,,,,,,,,,,,,toy,78,118,silent,red,1107.6832278000657,None,None,1107.6832278000657,None,,,,,,,,,,,,,,,,,,,,,,,,,,,,,,23NE,001,2023_Mar_10_1223,ExactRep-v3-final,2021.2.3,59.83573896034783,
,,,,,,,,118,0,118,0,,,,,,,,,,,,,,,,,,,,,,,,,,,,,,,,,,,,,,,,,,,,,,,,,,,,,1112.2034066000488,None,,,,,,,,,,,,,,,,,,,,,,,,,,,,,,,,,,,style,4,119,sing,blue,1110.1882231000345,None,None,1110.1882231000345,None,,,,,,,,,,,,,,,,,,,,,,,,,,,,,,23NE,001,2023_Mar_10_1223,ExactRep-v3-final,2021.2.3,59.83573896034783,
,,,,,,,,119,0,119,0,,,,,,,,,,,,,,,,,,,,,,,,,,,,,,,,,,,,,,,,,,,,,,,,,,,,,1114.7225093999878,None,,,,,,,,,,,,,,,,,,,,,,,,,,,,,,,,,,,avenue,5,120,sing,blue,1112.7099056001753,None,None,1112.7099056001753,None,,,,,,,,,,,,,,,,,,,,,,,,,,,,,,23NE,001,2023_Mar_10_1223,ExactRep-v3-final,2021.2.3,59.83573896034783,
,,,,,,,,,,,,,,,,,,,,,,,,,,,,,,,,,,,,,,,,,,,,,,,,,,,,,,,,,,,,,,,,,,,,,,,,,,,,,,,,,,,,,,,,,,,,,,,,,,,,,,,,,,,,,,1115.2245658000465,None,space,0.15609410009346902,1125.2010192000307,None,,,,,,,,,,,,,,,,,,,,,,,,23NE,001,2023_Mar_10_1223,ExactRep-v3-final,2021.2.3,59.83573896034783,
,,,,,,,,,,,,,,,,,,,,,,,,,,,,,,,,,,,,,,,,,,,,,,,,,,,,,,,,,,,,,,,,,,,,,,,,,,,,,,,,,,,,,,,,,,,,,,,,,,,,,,,,,,,,,,,,,,,,1125.3849653999787,None,space,23.220241700066254,1135.3609168000985,None,,,,,,,,,,,,,,,,,,23NE,001,2023_Mar_10_1223,ExactRep-v3-final,2021.2.3,59.83573896034783,
,,,,,,,,,,,,0,0,0,0,,,,,,,,,,,,,,,,,,,,,,,,,,,,,,,,,,,,,,,,,,,,,,,,,1165.022592100082,None,,,,,,,,,,,,,,,,,,,,,,,,,,,,,,,,,,,,,,,,,,,,,,,,,,,,,,,,,devil,6,1,sing,old,yellow,1159.1100858000573,None,y,1159.1100858000573,None,"['y', 'return']","[3.630574200069532, 5.8705500001087785]",1159.1100858000573,None,,,23NE,001,2023_Mar_10_1223,ExactRep-v3-final,2021.2.3,59.83573896034783,
,,,,,,,,,,,,1,0,1,0,,,,,,,,,,,,,,,,,,,,,,,,,,,,,,,,,,,,,,,,,,,,,,,,,1169.3770253001712,None,,,,,,,,,,,,,,,,,,,,,,,,,,,,,,,,,,,,,,,,,,,,,,,,,,,,,,,,,diamond,13,2,sing,old,yellow,1165.5363717,None,y,1165.5363717,None,"['y', 'return']","[2.420812599826604, 3.796281299786642]",1165.5363717,None,,,23NE,001,2023_Mar_10_1223,ExactRep-v3-final,2021.2.3,59.83573896034783,
,,,,,,,,,,,,2,0,2,0,,,,,,,,,,,,,,,,,,,,,,,,,,,,,,,,,,,,,,,,,,,,,,,,,1173.6312776000705,None,,,,,,,,,,,,,,,,,,,,,,,,,,,,,,,,,,,,,,,,,,,,,,,,,,,,,,,,,hour,166,3,aloud,new,yellow,1169.8914038999937,None,n,1169.8914038999937,None,"['n', 'return']","[2.521510799881071, 3.6972290999256074]",1169.8914038999937,None,,,23NE,001,2023_Mar_10_1223,ExactRep-v3-final,2021.2.3,59.83573896034783,
,,,,,,,,,,,,3,0,3,0,,,,,,,,,,,,,,,,,,,,,,,,,,,,,,,,,,,,,,,,,,,,,,,,,1179.086754300166,None,,,,,,,,,,,,,,,,,,,,,,,,,,,,,,,,,,,,,,,,,,,,,,,,,,,,,,,,,blossom,164,4,aloud,new,yellow,1174.1464766999707,None,n,1174.1464766999707,None,"['n', 'return']","[3.1701382000464946, 4.898152699926868]",1174.1464766999707,None,,,23NE,001,2023_Mar_10_1223,ExactRep-v3-final,2021.2.3,59.83573896034783,
,,,,,,,,,,,,4,0,4,0,,,,,,,,,,,,,,,,,,,,,,,,,,,,,,,,,,,,,,,,,,,,,,,,,1182.1397182999644,None,,,,,,,,,,,,,,,,,,,,,,,,,,,,,,,,,,,,,,,,,,,,,,,,,,,,,,,,,silence,76,5,silent,old,yellow,1179.596642700024,None,y,1179.596642700024,None,"['y', 'return']","[1.3921256000176072, 2.504044800065458]",1179.596642700024,None,,,23NE,001,2023_Mar_10_1223,ExactRep-v3-final,2021.2.3,59.83573896034783,
,,,,,,,,,,,,5,0,5,0,,,,,,,,,,,,,,,,,,,,,,,,,,,,,,,,,,,,,,,,,,,,,,,,,1185.1133650001138,None,,,,,,,,,,,,,,,,,,,,,,,,,,,,,,,,,,,,,,,,,,,,,,,,,,,,,,,,,coast,217,6,sing,new,yellow,1182.6460049001034,None,y,1182.6460049001034,None,"['y', 'return']","[1.4786439000163227, 2.4225910999812186]",1182.6460049001034,None,,,23NE,001,2023_Mar_10_1223,ExactRep-v3-final,2021.2.3,59.83573896034783,
,,,,,,,,,,,,6,0,6,0,,,,,,,,,,,,,,,,,,,,,,,,,,,,,,,,,,,,,,,,,,,,,,,,,1187.8286991999485,None,,,,,,,,,,,,,,,,,,,,,,,,,,,,,,,,,,,,,,,,,,,,,,,,,,,,,,,,,square,1,7,sing,old,yellow,1185.6421074001119,None,y,1185.6421074001119,None,"['y', 'return']","[1.2264477000571787, 2.14655250008218]",1185.6421074001119,None,,,23NE,001,2023_Mar_10_1223,ExactRep-v3-final,2021.2.3,59.83573896034783,
,,,,,,,,,,,,7,0,7,0,,,,,,,,,,,,,,,,,,,,,,,,,,,,,,,,,,,,,,,,,,,,,,,,,1191.7327011001762,None,,,,,,,,,,,,,,,,,,,,,,,,,,,,,,,,,,,,,,,,,,,,,,,,,,,,,,,,,rock,128,8,silent,new,yellow,1188.338757300051,None,y,1188.338757300051,None,"['y', 'return']","[2.153874699957669, 3.361827200045809]",1188.338757300051,None,,,23NE,001,2023_Mar_10_1223,ExactRep-v3-final,2021.2.3,59.83573896034783,
,,,,,,,,,,,,8,0,8,0,,,,,,,,,,,,,,,,,,,,,,,,,,,,,,,,,,,,,,,,,,,,,,,,,1198.259502200177,None,,,,,,,,,,,,,,,,,,,,,,,,,,,,,,,,,,,,,,,,,,,,,,,,,,,,,,,,,moral,194,9,aloud,new,yellow,1192.2433279000688,None,y,1192.2433279000688,None,"['y', 'return']","[5.025327100185677, 5.969290900044143]",1192.2433279000688,None,,,23NE,001,2023_Mar_10_1223,ExactRep-v3-final,2021.2.3,59.83573896034783,
,,,,,,,,,,,,9,0,9,0,,,,,,,,,,,,,,,,,,,,,,,,,,,,,,,,,,,,,,,,,,,,,,,,,1200.9419382000342,None,,,,,,,,,,,,,,,,,,,,,,,,,,,,,,,,,,,,,,,,,,,,,,,,,,,,,,,,,fire,174,10,aloud,new,yellow,1198.7829372000415,None,y,1198.7829372000415,None,"['y', 'return']","[1.37377559999004, 2.125957200070843]",1198.7829372000415,None,,,23NE,001,2023_Mar_10_1223,ExactRep-v3-final,2021.2.3,59.83573896034783,
,,,,,,,,,,,,10,0,10,0,,,,,,,,,,,,,,,,,,,,,,,,,,,,,,,,,,,,,,,,,,,,,,,,,1203.4777885000221,None,,,,,,,,,,,,,,,,,,,,,,,,,,,,,,,,,,,,,,,,,,,,,,,,,,,,,,,,,sea,45,11,silent,old,yellow,1201.453445600113,None,y,1201.453445600113,None,"['y', 'return']","[1.2152662998996675, 1.9832425999920815]",1201.453445600113,None,,,23NE,001,2023_Mar_10_1223,ExactRep-v3-final,2021.2.3,59.83573896034783,
,,,,,,,,,,,,11,0,11,0,,,,,,,,,,,,,,,,,,,,,,,,,,,,,,,,,,,,,,,,,,,,,,,,,1207.4149909000844,None,,,,,,,,,,,,,,,,,,,,,,,,,,,,,,,,,,,,,,,,,,,,,,,,,,,,,,,,,student,139,12,silent,new,yellow,1203.9873179001734,None,n,1203.9873179001734,None,"['n', 'return']","[2.8254773998633027, 3.3853668000083417]",1203.9873179001734,None,,,23NE,001,2023_Mar_10_1223,ExactRep-v3-final,2021.2.3,59.83573896034783,
,,,,,,,,,,,,12,0,12,0,,,,,,,,,,,,,,,,,,,,,,,,,,,,,,,,,,,,,,,,,,,,,,,,,1210.5180953000672,None,,,,,,,,,,,,,,,,,,,,,,,,,,,,,,,,,,,,,,,,,,,,,,,,,,,,,,,,,palace,18,13,sing,old,yellow,1207.9233793001622,None,y,1207.9233793001622,None,"['y', 'return']","[1.5775941999163479, 2.5613074998836964]",1207.9233793001622,None,,,23NE,001,2023_Mar_10_1223,ExactRep-v3-final,2021.2.3,59.83573896034783,
,,,,,,,,,,,,13,0,13,0,,,,,,,,,,,,,,,,,,,,,,,,,,,,,,,,,,,,,,,,,,,,,,,,,1212.887137599988,None,,,,,,,,,,,,,,,,,,,,,,,,,,,,,,,,,,,,,,,,,,,,,,,,,,,,,,,,,storm,118,14,aloud,old,yellow,1211.0292859999463,None,y,1211.0292859999463,None,"['y', 'return']","[1.1114834998734295, 1.823388199787587]",1211.0292859999463,None,,,23NE,001,2023_Mar_10_1223,ExactRep-v3-final,2021.2.3,59.83573896034783,
,,,,,,,,,,,,14,0,14,0,,,,,,,,,,,,,,,,,,,,,,,,,,,,,,,,,,,,,,,,,,,,,,,,,1215.1395446001552,None,,,,,,,,,,,,,,,,,,,,,,,,,,,,,,,,,,,,,,,,,,,,,,,,,,,,,,,,,board,55,15,silent,old,yellow,1213.3954104001168,None,y,1213.3954104001168,None,"['y', 'return']","[0.9215636998414993, 1.697353099938482]",1213.3954104001168,None,,,23NE,001,2023_Mar_10_1223,ExactRep-v3-final,2021.2.3,59.83573896034783,
,,,,,,,,,,,,15,0,15,0,,,,,,,,,,,,,,,,,,,,,,,,,,,,,,,,,,,,,,,,,,,,,,,,,1218.4093190000858,None,,,,,,,,,,,,,,,,,,,,,,,,,,,,,,,,,,,,,,,,,,,,,,,,,,,,,,,,,shoes,69,16,silent,old,yellow,1215.643482600106,None,y,1215.643482600106,None,"['y', 'return']","[1.9133226999547333, 2.72926629986614]",1215.643482600106,None,,,23NE,001,2023_Mar_10_1223,ExactRep-v3-final,2021.2.3,59.83573896034783,
,,,,,,,,,,,,16,0,16,0,,,,,,,,,,,,,,,,,,,,,,,,,,,,,,,,,,,,,,,,,,,,,,,,,1221.462404299993,None,,,,,,,,,,,,,,,,,,,,,,,,,,,,,,,,,,,,,,,,,,,,,,,,,,,,,,,,,passion,227,17,sing,new,yellow,1218.9175432000775,None,y,1218.9175432000775,None,"['y', 'return']","[1.719095499953255, 2.5111165000125766]",1218.9175432000775,None,,,23NE,001,2023_Mar_10_1223,ExactRep-v3-final,2021.2.3,59.83573896034783,
,,,,,,,,,,,,17,0,17,0,,,,,,,,,,,,,,,,,,,,,,,,,,,,,,,,,,,,,,,,,,,,,,,,,1223.748195799999,None,,,,,,,,,,,,,,,,,,,,,,,,,,,,,,,,,,,,,,,,,,,,,,,,,,,,,,,,,crime,48,18,silent,old,yellow,1221.971051499946,None,y,1221.971051499946,None,"['y', 'return']","[1.0098868000786752, 1.7456889001186937]",1221.971051499946,None,,,23NE,001,2023_Mar_10_1223,ExactRep-v3-final,2021.2.3,59.83573896034783,
,,,,,,,,,,,,18,0,18,0,,,,,,,,,,,,,,,,,,,,,,,,,,,,,,,,,,,,,,,,,,,,,,,,,1225.9002205000725,None,,,,,,,,,,,,,,,,,,,,,,,,,,,,,,,,,,,,,,,,,,,,,,,,,,,,,,,,,custom,63,19,silent,old,yellow,1224.2613162000198,None,y,1224.2613162000198,None,"['y', 'return']","[0.9033673000521958, 1.5994041000958532]",1224.2613162000198,None,,,23NE,001,2023_Mar_10_1223,ExactRep-v3-final,2021.2.3,59.83573896034783,
,,,,,,,,,,,,19,0,19,0,,,,,,,,,,,,,,,,,,,,,,,,,,,,,,,,,,,,,,,,,,,,,,,,,1228.2359814001247,None,,,,,,,,,,,,,,,,,,,,,,,,,,,,,,,,,,,,,,,,,,,,,,,,,,,,,,,,,deed,138,20,silent,new,yellow,1226.4091507000849,None,y,1226.4091507000849,None,"['y', 'return']","[1.0276887000072747, 1.7795780000742525]",1226.4091507000849,None,,,23NE,001,2023_Mar_10_1223,ExactRep-v3-final,2021.2.3,59.83573896034783,
,,,,,,,,,,,,20,0,20,0,,,,,,,,,,,,,,,,,,,,,,,,,,,,,,,,,,,,,,,,,,,,,,,,,1230.454685700126,None,,,,,,,,,,,,,,,,,,,,,,,,,,,,,,,,,,,,,,,,,,,,,,,,,,,,,,,,,flesh,136,21,silent,new,yellow,1228.7492116000503,None,y,1228.7492116000503,None,"['y', 'return']","[0.9594797999598086, 1.6633854999672621]",1228.7492116000503,None,,,23NE,001,2023_Mar_10_1223,ExactRep-v3-final,2021.2.3,59.83573896034783,
,,,,,,,,,,,,21,0,21,0,,,,,,,,,,,,,,,,,,,,,,,,,,,,,,,,,,,,,,,,,,,,,,,,,1232.6234665000811,None,,,,,,,,,,,,,,,,,,,,,,,,,,,,,,,,,,,,,,,,,,,,,,,,,,,,,,,,,flag,117,22,aloud,old,yellow,1230.9625309000257,None,y,1230.9625309000257,None,"['y', 'return']","[1.0103068000171334, 1.618086100090295]",1230.9625309000257,None,,,23NE,001,2023_Mar_10_1223,ExactRep-v3-final,2021.2.3,59.83573896034783,
,,,,,,,,,,,,22,0,22,0,,,,,,,,,,,,,,,,,,,,,,,,,,,,,,,,,,,,,,,,,,,,,,,,,1234.9593619999941,None,,,,,,,,,,,,,,,,,,,,,,,,,,,,,,,,,,,,,,,,,,,,,,,,,,,,,,,,,king,173,23,sing,new,yellow,1233.1242104000412,None,n,1233.1242104000412,None,"['n', 'return']","[1.2566702000331134, 1.7925448000896722]",1233.1242104000412,None,,,23NE,001,2023_Mar_10_1223,ExactRep-v3-final,2021.2.3,59.83573896034783,
,,,,,,,,,,,,23,0,23,0,,,,,,,,,,,,,,,,,,,,,,,,,,,,,,,,,,,,,,,,,,,,,,,,,1237.8120057000779,None,,,,,,,,,,,,,,,,,,,,,,,,,,,,,,,,,,,,,,,,,,,,,,,,,,,,,,,,,excuse,25,24,sing,old,yellow,1235.4731432001572,None,n,1235.4731432001572,None,"['n', 'return']","[1.6755291998852044, 2.291743899928406]",1235.4731432001572,None,,,23NE,001,2023_Mar_10_1223,ExactRep-v3-final,2021.2.3,59.83573896034783,
,,,,,,,,,,,,24,0,24,0,,,,,,,,,,,,,,,,,,,,,,,,,,,,,,,,,,,,,,,,,,,,,,,,,1240.5648068999872,None,,,,,,,,,,,,,,,,,,,,,,,,,,,,,,,,,,,,,,,,,,,,,,,,,,,,,,,,,fact,27,25,sing,old,yellow,1238.3141268000472,None,n,1238.3141268000472,None,"['n', 'return']","[1.6425656001083553, 2.202638000017032]",1238.3141268000472,None,,,23NE,001,2023_Mar_10_1223,ExactRep-v3-final,2021.2.3,59.83573896034783,
,,,,,,,,,,,,25,0,25,0,,,,,,,,,,,,,,,,,,,,,,,,,,,,,,,,,,,,,,,,,,,,,,,,,1242.8837888000999,None,,,,,,,,,,,,,,,,,,,,,,,,,,,,,,,,,,,,,,,,,,,,,,,,,,,,,,,,,cattle,40,26,silent,old,yellow,1241.0746921000537,None,y,1241.0746921000537,None,"['y', 'return']","[1.0180149001535028, 1.7620858000591397]",1241.0746921000537,None,,,23NE,001,2023_Mar_10_1223,ExactRep-v3-final,2021.2.3,59.83573896034783,
,,,,,,,,,,,,26,0,26,0,,,,,,,,,,,,,,,,,,,,,,,,,,,,,,,,,,,,,,,,,,,,,,,,,1245.2195425999817,None,,,,,,,,,,,,,,,,,,,,,,,,,,,,,,,,,,,,,,,,,,,,,,,,,,,,,,,,,world,176,27,aloud,new,yellow,1243.3934557000175,None,y,1243.3934557000175,None,"['y', 'return']","[1.091249599820003, 1.7792709998320788]",1243.3934557000175,None,,,23NE,001,2023_Mar_10_1223,ExactRep-v3-final,2021.2.3,59.83573896034783,
,,,,,,,,,,,,27,0,27,0,,,,,,,,,,,,,,,,,,,,,,,,,,,,,,,,,,,,,,,,,,,,,,,,,1247.8222322000656,None,,,,,,,,,,,,,,,,,,,,,,,,,,,,,,,,,,,,,,,,,,,,,,,,,,,,,,,,,time,183,28,sing,new,yellow,1245.7319594,None,n,1245.7319594,None,"['n', 'return']","[1.4247556999325752, 2.056671599857509]",1245.7319594,None,,,23NE,001,2023_Mar_10_1223,ExactRep-v3-final,2021.2.3,59.83573896034783,
,,,,,,,,,,,,28,0,28,0,,,,,,,,,,,,,,,,,,,,,,,,,,,,,,,,,,,,,,,,,,,,,,,,,1250.7416735000443,None,,,,,,,,,,,,,,,,,,,,,,,,,,,,,,,,,,,,,,,,,,,,,,,,,,,,,,,,,air,129,29,silent,new,yellow,1248.329152500024,None,y,1248.329152500024,None,"['y', 'return']","[1.5075739999301732, 2.371677099959925]",1248.329152500024,None,,,23NE,001,2023_Mar_10_1223,ExactRep-v3-final,2021.2.3,59.83573896034783,
,,,,,,,,,,,,29,0,29,0,,,,,,,,,,,,,,,,,,,,,,,,,,,,,,,,,,,,,,,,,,,,,,,,,1255.5966562000103,None,,,,,,,,,,,,,,,,,,,,,,,,,,,,,,,,,,,,,,,,,,,,,,,,,,,,,,,,,dress,205,30,sing,new,yellow,1251.242189800134,None,y,1251.242189800134,None,"['y', 'return']","[3.6106728999875486, 4.314554099924862]",1251.242189800134,None,,,23NE,001,2023_Mar_10_1223,ExactRep-v3-final,2021.2.3,59.83573896034783,
,,,,,,,,,,,,30,0,30,0,,,,,,,,,,,,,,,,,,,,,,,,,,,,,,,,,,,,,,,,,,,,,,,,,1259.066638099961,None,,,,,,,,,,,,,,,,,,,,,,,,,,,,,,,,,,,,,,,,,,,,,,,,,,,,,,,,,college,130,31,silent,new,yellow,1256.1116999001242,None,n,1256.1116999001242,None,"['n', 'return']","[2.325052000116557, 2.917060400126502]",1256.1116999001242,None,,,23NE,001,2023_Mar_10_1223,ExactRep-v3-final,2021.2.3,59.83573896034783,
,,,,,,,,,,,,31,0,31,0,,,,,,,,,,,,,,,,,,,,,,,,,,,,,,,,,,,,,,,,,,,,,,,,,1261.419208999956,None,,,,,,,,,,,,,,,,,,,,,,,,,,,,,,,,,,,,,,,,,,,,,,,,,,,,,,,,,book,24,32,sing,old,yellow,1259.5671077000443,None,y,1259.5671077000443,None,"['y', 'return']","[1.21370799979195, 1.8057070998474956]",1259.5671077000443,None,,,23NE,001,2023_Mar_10_1223,ExactRep-v3-final,2021.2.3,59.83573896034783,
,,,,,,,,,,,,32,0,32,0,,,,,,,,,,,,,,,,,,,,,,,,,,,,,,,,,,,,,,,,,,,,,,,,,1264.4721216000617,None,,,,,,,,,,,,,,,,,,,,,,,,,,,,,,,,,,,,,,,,,,,,,,,,,,,,,,,,,hope,182,33,aloud,new,yellow,1261.9196727001108,None,y,1261.9196727001108,None,"['y', 'return']","[1.5250709999818355, 2.517168099991977]",1261.9196727001108,None,,,23NE,001,2023_Mar_10_1223,ExactRep-v3-final,2021.2.3,59.83573896034783,
,,,,,,,,,,,,33,0,33,0,,,,,,,,,,,,,,,,,,,,,,,,,,,,,,,,,,,,,,,,,,,,,,,,,1267.0079874000512,None,,,,,,,,,,,,,,,,,,,,,,,,,,,,,,,,,,,,,,,,,,,,,,,,,,,,,,,,,cost,3,34,sing,old,yellow,1264.981257500127,None,y,1264.981257500127,None,"['y', 'return']","[1.3033513999544084, 1.991567299934104]",1264.981257500127,None,,,23NE,001,2023_Mar_10_1223,ExactRep-v3-final,2021.2.3,59.83573896034783,
,,,,,,,,,,,,34,0,34,0,,,,,,,,,,,,,,,,,,,,,,,,,,,,,,,,,,,,,,,,,,,,,,,,,1269.0433378999587,None,,,,,,,,,,,,,,,,,,,,,,,,,,,,,,,,,,,,,,,,,,,,,,,,,,,,,,,,,tool,94,35,aloud,old,yellow,1267.5189465000294,None,y,1267.5189465000294,None,"['y', 'return']","[0.8698368000332266, 1.485819200053811]",1267.5189465000294,None,,,23NE,001,2023_Mar_10_1223,ExactRep-v3-final,2021.2.3,59.83573896034783,
,,,,,,,,,,,,35,0,35,0,,,,,,,,,,,,,,,,,,,,,,,,,,,,,,,,,,,,,,,,,,,,,,,,,1271.2288333999459,None,,,,,,,,,,,,,,,,,,,,,,,,,,,,,,,,,,,,,,,,,,,,,,,,,,,,,,,,,woman,38,36,sing,old,yellow,1269.5547957001254,None,y,1269.5547957001254,None,"['y', 'return']","[0.9380902999546379, 1.6419490999542177]",1269.5547957001254,None,,,23NE,001,2023_Mar_10_1223,ExactRep-v3-final,2021.2.3,59.83573896034783,
,,,,,,,,,,,,36,0,36,0,,,,,,,,,,,,,,,,,,,,,,,,,,,,,,,,,,,,,,,,,,,,,,,,,1273.5645429000724,None,,,,,,,,,,,,,,,,,,,,,,,,,,,,,,,,,,,,,,,,,,,,,,,,,,,,,,,,,hall,66,37,silent,old,yellow,1271.7363553000614,None,y,1271.7363553000614,None,"['y', 'return']","[1.0123887001536787, 1.788395200157538]",1271.7363553000614,None,,,23NE,001,2023_Mar_10_1223,ExactRep-v3-final,2021.2.3,59.83573896034783,
,,,,,,,,,,,,37,0,37,0,,,,,,,,,,,,,,,,,,,,,,,,,,,,,,,,,,,,,,,,,,,,,,,,,1277.0679884001147,None,,,,,,,,,,,,,,,,,,,,,,,,,,,,,,,,,,,,,,,,,,,,,,,,,,,,,,,,,arm,179,38,sing,new,yellow,1274.077779600164,None,y,1274.077779600164,None,"['y', 'return']","[2.3590490000788122, 2.9430211998987943]",1274.077779600164,None,,,23NE,001,2023_Mar_10_1223,ExactRep-v3-final,2021.2.3,59.83573896034783,
,,,,,,,,,,,,38,0,38,0,,,,,,,,,,,,,,,,,,,,,,,,,,,,,,,,,,,,,,,,,,,,,,,,,1279.8709364000242,None,,,,,,,,,,,,,,,,,,,,,,,,,,,,,,,,,,,,,,,,,,,,,,,,,,,,,,,,,market,46,39,silent,old,yellow,1277.5737149999477,None,n,1277.5737149999477,None,"['n', 'return']","[1.751072800019756, 2.255038399947807]",1277.5737149999477,None,,,23NE,001,2023_Mar_10_1223,ExactRep-v3-final,2021.2.3,59.83573896034783,
,,,,,,,,,,,,39,0,39,0,,,,,,,,,,,,,,,,,,,,,,,,,,,,,,,,,,,,,,,,,,,,,,,,,1283.140690700151,None,,,,,,,,,,,,,,,,,,,,,,,,,,,,,,,,,,,,,,,,,,,,,,,,,,,,,,,,,toy,78,40,silent,old,yellow,1280.3779875000473,None,y,1280.3779875000473,None,"['y', 'return']","[2.1868876998778433, 2.7227961998432875]",1280.3779875000473,None,,,23NE,001,2023_Mar_10_1223,ExactRep-v3-final,2021.2.3,59.83573896034783,
,,,,,,,,,,,,40,0,40,0,,,,,,,,,,,,,,,,,,,,,,,,,,,,,,,,,,,,,,,,,,,,,,,,,1285.3095752999652,None,,,,,,,,,,,,,,,,,,,,,,,,,,,,,,,,,,,,,,,,,,,,,,,,,,,,,,,,,victory,99,41,aloud,old,yellow,1283.6527335001156,None,y,1283.6527335001156,None,"['y', 'return']","[0.9763191000092775, 1.6238937000744045]",1283.6527335001156,None,,,23NE,001,2023_Mar_10_1223,ExactRep-v3-final,2021.2.3,59.83573896034783,
,,,,,,,,,,,,41,0,41,0,,,,,,,,,,,,,,,,,,,,,,,,,,,,,,,,,,,,,,,,,,,,,,,,,1290.2312135000248,None,,,,,,,,,,,,,,,,,,,,,,,,,,,,,,,,,,,,,,,,,,,,,,,,,,,,,,,,,seat,2,42,sing,old,yellow,1285.8210800001398,None,y,1285.8210800001398,None,"['y', 'return']","[3.2877519000321627, 4.367659599985927]",1285.8210800001398,None,,,23NE,001,2023_Mar_10_1223,ExactRep-v3-final,2021.2.3,59.83573896034783,
,,,,,,,,,,,,42,0,42,0,,,,,,,,,,,,,,,,,,,,,,,,,,,,,,,,,,,,,,,,,,,,,,,,,1293.0507006000262,None,,,,,,,,,,,,,,,,,,,,,,,,,,,,,,,,,,,,,,,,,,,,,,,,,,,,,,,,,apple,7,43,sing,old,yellow,1290.7435427000746,None,n,1290.7435427000746,None,"['n', 'return']","[1.3972783000208437, 2.261305599939078]",1290.7435427000746,None,,,23NE,001,2023_Mar_10_1223,ExactRep-v3-final,2021.2.3,59.83573896034783,
,,,,,,,,,,,,43,0,43,0,,,,,,,,,,,,,,,,,,,,,,,,,,,,,,,,,,,,,,,,,,,,,,,,,1295.4197367001325,None,,,,,,,,,,,,,,,,,,,,,,,,,,,,,,,,,,,,,,,,,,,,,,,,,,,,,,,,,meadow,189,44,sing,new,yellow,1293.5627735999878,None,y,1293.5627735999878,None,"['y', 'return']","[1.3059028999414295, 1.8180605000816286]",1293.5627735999878,None,,,23NE,001,2023_Mar_10_1223,ExactRep-v3-final,2021.2.3,59.83573896034783,
,,,,,,,,,,,,44,0,44,0,,,,,,,,,,,,,,,,,,,,,,,,,,,,,,,,,,,,,,,,,,,,,,,,,1297.7718507000245,None,,,,,,,,,,,,,,,,,,,,,,,,,,,,,,,,,,,,,,,,,,,,,,,,,,,,,,,,,stone,195,45,sing,new,yellow,1295.927004000172,None,y,1295.927004000172,None,"['y', 'return']","[1.213665199931711, 1.8057753997854888]",1295.927004000172,None,,,23NE,001,2023_Mar_10_1223,ExactRep-v3-final,2021.2.3,59.83573896034783,
,,,,,,,,,,,,45,0,45,0,,,,,,,,,,,,,,,,,,,,,,,,,,,,,,,,,,,,,,,,,,,,,,,,,1300.507846500026,None,,,,,,,,,,,,,,,,,,,,,,,,,,,,,,,,,,,,,,,,,,,,,,,,,,,,,,,,,ticket,222,46,aloud,new,yellow,1298.2761036001612,None,n,1298.2761036001612,None,"['n', 'return']","[1.6485821001697332, 2.192694599973038]",1298.2761036001612,None,,,23NE,001,2023_Mar_10_1223,ExactRep-v3-final,2021.2.3,59.83573896034783,
,,,,,,,,,,,,46,0,46,0,,,,,,,,,,,,,,,,,,,,,,,,,,,,,,,,,,,,,,,,,,,,,,,,,1303.010642300127,None,,,,,,,,,,,,,,,,,,,,,,,,,,,,,,,,,,,,,,,,,,,,,,,,,,,,,,,,,safety,9,47,sing,old,yellow,1301.0162537000142,None,y,1301.0162537000142,None,"['y', 'return']","[1.276499600149691, 1.956626300001517]",1301.0162537000142,None,,,23NE,001,2023_Mar_10_1223,ExactRep-v3-final,2021.2.3,59.83573896034783,
,,,,,,,,,,,,47,0,47,0,,,,,,,,,,,,,,,,,,,,,,,,,,,,,,,,,,,,,,,,,,,,,,,,,1305.3629948999733,None,,,,,,,,,,,,,,,,,,,,,,,,,,,,,,,,,,,,,,,,,,,,,,,,,,,,,,,,,officer,21,48,sing,old,yellow,1303.5174202001654,None,y,1303.5174202001654,None,"['y', 'return']","[1.1354763999115676, 1.8074258998967707]",1303.5174202001654,None,,,23NE,001,2023_Mar_10_1223,ExactRep-v3-final,2021.2.3,59.83573896034783,
,,,,,,,,,,,,48,0,48,0,,,,,,,,,,,,,,,,,,,,,,,,,,,,,,,,,,,,,,,,,,,,,,,,,1307.515021899948,None,,,,,,,,,,,,,,,,,,,,,,,,,,,,,,,,,,,,,,,,,,,,,,,,,,,,,,,,,temple,43,49,silent,old,yellow,1305.8728736001067,None,y,1305.8728736001067,None,"['y', 'return']","[0.9078486999496818, 1.5958771000150591]",1305.8728736001067,None,,,23NE,001,2023_Mar_10_1223,ExactRep-v3-final,2021.2.3,59.83573896034783,
,,,,,,,,,,,,49,0,49,0,,,,,,,,,,,,,,,,,,,,,,,,,,,,,,,,,,,,,,,,,,,,,,,,,1310.7351435001474,None,,,,,,,,,,,,,,,,,,,,,,,,,,,,,,,,,,,,,,,,,,,,,,,,,,,,,,,,,power,215,50,sing,new,yellow,1308.0234109000303,None,y,1308.0234109000303,None,"['y', 'return']","[0.8934452999383211, 2.6693665999919176]",1308.0234109000303,None,,,23NE,001,2023_Mar_10_1223,ExactRep-v3-final,2021.2.3,59.83573896034783,
,,,,,,,,,,,,50,0,50,0,,,,,,,,,,,,,,,,,,,,,,,,,,,,,,,,,,,,,,,,,,,,,,,,,1313.4042984000407,None,,,,,,,,,,,,,,,,,,,,,,,,,,,,,,,,,,,,,,,,,,,,,,,,,,,,,,,,,answer,199,51,sing,new,yellow,1311.244779100176,None,n,1311.244779100176,None,"['n', 'return']","[1.592056900030002, 2.1200353000313044]",1311.244779100176,None,,,23NE,001,2023_Mar_10_1223,ExactRep-v3-final,2021.2.3,59.83573896034783,
,,,,,,,,,,,,51,0,51,0,,,,,,,,,,,,,,,,,,,,,,,,,,,,,,,,,,,,,,,,,,,,,,,,,1316.0236778999679,None,,,,,,,,,,,,,,,,,,,,,,,,,,,,,,,,,,,,,,,,,,,,,,,,,,,,,,,,,length,42,52,silent,old,yellow,1313.9165366000962,None,y,1313.9165366000962,None,"['y', 'return']","[0.9762823998462409, 2.072163299890235]",1313.9165366000962,None,,,23NE,001,2023_Mar_10_1223,ExactRep-v3-final,2021.2.3,59.83573896034783,
,,,,,,,,,,,,52,0,52,0,,,,,,,,,,,,,,,,,,,,,,,,,,,,,,,,,,,,,,,,,,,,,,,,,1318.4760653001722,None,,,,,,,,,,,,,,,,,,,,,,,,,,,,,,,,,,,,,,,,,,,,,,,,,,,,,,,,,avenue,5,53,sing,old,yellow,1316.524782099994,None,y,1316.524782099994,None,"['y', 'return']","[1.2960008999798447, 1.9040600000880659]",1316.524782099994,None,,,23NE,001,2023_Mar_10_1223,ExactRep-v3-final,2021.2.3,59.83573896034783,
,,,,,,,,,,,,53,0,53,0,,,,,,,,,,,,,,,,,,,,,,,,,,,,,,,,,,,,,,,,,,,,,,,,,1321.2288071999792,None,,,,,,,,,,,,,,,,,,,,,,,,,,,,,,,,,,,,,,,,,,,,,,,,,,,,,,,,,vision,163,54,sing,new,yellow,1318.9876621000003,None,y,1318.9876621000003,None,"['y', 'return']","[1.6170928999781609, 2.2090634999331087]",1318.9876621000003,None,,,23NE,001,2023_Mar_10_1223,ExactRep-v3-final,2021.2.3,59.83573896034783,
,,,,,,,,,,,,54,0,54,0,,,,,,,,,,,,,,,,,,,,,,,,,,,,,,,,,,,,,,,,,,,,,,,,,1323.3811131999828,None,,,,,,,,,,,,,,,,,,,,,,,,,,,,,,,,,,,,,,,,,,,,,,,,,,,,,,,,,dawn,131,55,silent,new,yellow,1321.7362836000975,None,n,1321.7362836000975,None,"['n', 'return']","[1.0846009000670165, 1.6045292001217604]",1321.7362836000975,None,,,23NE,001,2023_Mar_10_1223,ExactRep-v3-final,2021.2.3,59.83573896034783,
,,,,,,,,,,,,55,0,55,0,,,,,,,,,,,,,,,,,,,,,,,,,,,,,,,,,,,,,,,,,,,,,,,,,1325.3998206001706,None,,,,,,,,,,,,,,,,,,,,,,,,,,,,,,,,,,,,,,,,,,,,,,,,,,,,,,,,,chief,105,56,aloud,old,yellow,1323.8882335000671,None,y,1323.8882335000671,None,"['y', 'return']","[0.9486205000430346, 1.4684959000442177]",1323.8882335000671,None,,,23NE,001,2023_Mar_10_1223,ExactRep-v3-final,2021.2.3,59.83573896034783,
,,,,,,,,,,,,56,0,56,0,,,,,,,,,,,,,,,,,,,,,,,,,,,,,,,,,,,,,,,,,,,,,,,,,1328.6362330000848,None,,,,,,,,,,,,,,,,,,,,,,,,,,,,,,,,,,,,,,,,,,,,,,,,,,,,,,,,,window,124,57,silent,new,yellow,1325.9142657001503,None,n,1325.9142657001503,None,"['n', 'return']","[2.2106013000011444, 2.690605100011453]",1325.9142657001503,None,,,23NE,001,2023_Mar_10_1223,ExactRep-v3-final,2021.2.3,59.83573896034783,
,,,,,,,,,,,,57,0,57,0,,,,,,,,,,,,,,,,,,,,,,,,,,,,,,,,,,,,,,,,,,,,,,,,,1331.4056426000316,None,,,,,,,,,,,,,,,,,,,,,,,,,,,,,,,,,,,,,,,,,,,,,,,,,,,,,,,,,star,204,58,aloud,new,yellow,1329.1448966001626,None,y,1329.1448966001626,None,"['y', 'return']","[1.7158902999944985, 2.2277674002107233]",1329.1448966001626,None,,,23NE,001,2023_Mar_10_1223,ExactRep-v3-final,2021.2.3,59.83573896034783,
,,,,,,,,,,,,58,0,58,0,,,,,,,,,,,,,,,,,,,,,,,,,,,,,,,,,,,,,,,,,,,,,,,,,1333.3077059001662,None,,,,,,,,,,,,,,,,,,,,,,,,,,,,,,,,,,,,,,,,,,,,,,,,,,,,,,,,,mind,158,59,silent,new,yellow,1331.9147294999566,None,y,1331.9147294999566,None,"['y', 'return']","[0.898001299938187, 1.346164499875158]",1331.9147294999566,None,,,23NE,001,2023_Mar_10_1223,ExactRep-v3-final,2021.2.3,59.83573896034783,
,,,,,,,,,,,,59,0,59,0,,,,,,,,,,,,,,,,,,,,,,,,,,,,,,,,,,,,,,,,,,,,,,,,,1335.3095994000323,None,,,,,,,,,,,,,,,,,,,,,,,,,,,,,,,,,,,,,,,,,,,,,,,,,,,,,,,,,disease,90,60,aloud,old,yellow,1333.8178729000501,None,y,1333.8178729000501,None,"['y', 'return']","[0.9149575000628829, 1.458896700059995]",1333.8178729000501,None,,,23NE,001,2023_Mar_10_1223,ExactRep-v3-final,2021.2.3,59.83573896034783,
,,,,,,,,,,,,60,0,60,0,,,,,,,,,,,,,,,,,,,,,,,,,,,,,,,,,,,,,,,,,,,,,,,,,1337.2948563999962,None,,,,,,,,,,,,,,,,,,,,,,,,,,,,,,,,,,,,,,,,,,,,,,,,,,,,,,,,,justice,149,61,silent,new,yellow,1335.8140758001246,None,y,1335.8140758001246,None,"['y', 'return']","[0.9187298000324517, 1.438760600052774]",1335.8140758001246,None,,,23NE,001,2023_Mar_10_1223,ExactRep-v3-final,2021.2.3,59.83573896034783,
,,,,,,,,,,,,61,0,61,0,,,,,,,,,,,,,,,,,,,,,,,,,,,,,,,,,,,,,,,,,,,,,,,,,1339.3969873001333,None,,,,,,,,,,,,,,,,,,,,,,,,,,,,,,,,,,,,,,,,,,,,,,,,,,,,,,,,,vessel,11,62,sing,old,yellow,1337.797900600126,None,y,1337.797900600126,None,"['y', 'return']","[0.9429401999805123, 1.558970500016585]",1337.797900600126,None,,,23NE,001,2023_Mar_10_1223,ExactRep-v3-final,2021.2.3,59.83573896034783,
,,,,,,,,,,,,62,0,62,0,,,,,,,,,,,,,,,,,,,,,,,,,,,,,,,,,,,,,,,,,,,,,,,,,1341.6325324999634,None,,,,,,,,,,,,,,,,,,,,,,,,,,,,,,,,,,,,,,,,,,,,,,,,,,,,,,,,,owner,219,63,sing,new,yellow,1339.9060009999666,None,y,1339.9060009999666,None,"['y', 'return']","[1.1551387999206781, 1.6827660000417382]",1339.9060009999666,None,,,23NE,001,2023_Mar_10_1223,ExactRep-v3-final,2021.2.3,59.83573896034783,
,,,,,,,,,,,,63,0,63,0,,,,,,,,,,,,,,,,,,,,,,,,,,,,,,,,,,,,,,,,,,,,,,,,,1343.6678874001373,None,,,,,,,,,,,,,,,,,,,,,,,,,,,,,,,,,,,,,,,,,,,,,,,,,,,,,,,,,lake,47,64,silent,old,yellow,1342.1415475001559,None,y,1342.1415475001559,None,"['y', 'return']","[0.9834139999002218, 1.4872780998703092]",1342.1415475001559,None,,,23NE,001,2023_Mar_10_1223,ExactRep-v3-final,2021.2.3,59.83573896034783,
,,,,,,,,,,,,64,0,64,0,,,,,,,,,,,,,,,,,,,,,,,,,,,,,,,,,,,,,,,,,,,,,,,,,1346.1705690999515,None,,,,,,,,,,,,,,,,,,,,,,,,,,,,,,,,,,,,,,,,,,,,,,,,,,,,,,,,,nail,180,65,aloud,new,yellow,1344.169617800042,None,n,1344.169617800042,None,"['n', 'return']","[1.499167599948123, 1.9553030000533909]",1344.169617800042,None,,,23NE,001,2023_Mar_10_1223,ExactRep-v3-final,2021.2.3,59.83573896034783,
,,,,,,,,,,,,65,0,65,0,,,,,,,,,,,,,,,,,,,,,,,,,,,,,,,,,,,,,,,,,,,,,,,,,1349.4069934000727,None,,,,,,,,,,,,,,,,,,,,,,,,,,,,,,,,,,,,,,,,,,,,,,,,,,,,,,,,,machine,15,66,sing,old,yellow,1346.6804709001444,None,y,1346.6804709001444,None,"['y', 'return']","[1.9084736998192966, 2.684528899844736]",1346.6804709001444,None,,,23NE,001,2023_Mar_10_1223,ExactRep-v3-final,2021.2.3,59.83573896034783,
,,,,,,,,,,,,66,0,66,0,,,,,,,,,,,,,,,,,,,,,,,,,,,,,,,,,,,,,,,,,,,,,,,,,1352.1098593000788,None,,,,,,,,,,,,,,,,,,,,,,,,,,,,,,,,,,,,,,,,,,,,,,,,,,,,,,,,,spirit,64,67,silent,old,yellow,1349.9168520001695,None,y,1349.9168520001695,None,"['y', 'return']","[1.7682647001929581, 2.1598291001282632]",1349.9168520001695,None,,,23NE,001,2023_Mar_10_1223,ExactRep-v3-final,2021.2.3,59.83573896034783,
,,,,,,,,,,,,67,0,67,0,,,,,,,,,,,,,,,,,,,,,,,,,,,,,,,,,,,,,,,,,,,,,,,,,1353.978382700123,None,,,,,,,,,,,,,,,,,,,,,,,,,,,,,,,,,,,,,,,,,,,,,,,,,,,,,,,,,fault,32,68,sing,old,yellow,1352.62175270007,None,y,1352.62175270007,None,"['y', 'return']","[0.7830469000618905, 1.3190355999395251]",1352.62175270007,None,,,23NE,001,2023_Mar_10_1223,ExactRep-v3-final,2021.2.3,59.83573896034783,
,,,,,,,,,,,,68,0,68,0,,,,,,,,,,,,,,,,,,,,,,,,,,,,,,,,,,,,,,,,,,,,,,,,,1355.513179200003,None,,,,,,,,,,,,,,,,,,,,,,,,,,,,,,,,,,,,,,,,,,,,,,,,,,,,,,,,,amount,127,69,silent,new,yellow,1354.4841559999622,None,y,1354.4841559999622,None,"['y', 'return']","[0.512601199792698, 0.9927394997794181]",1354.4841559999622,None,,,23NE,001,2023_Mar_10_1223,ExactRep-v3-final,2021.2.3,59.83573896034783,
,,,,,,,,,,,,69,0,69,0,,,,,,,,,,,,,,,,,,,,,,,,,,,,,,,,,,,,,,,,,,,,,,,,,1357.2815253001172,None,,,,,,,,,,,,,,,,,,,,,,,,,,,,,,,,,,,,,,,,,,,,,,,,,,,,,,,,,freedom,186,70,aloud,new,yellow,1356.0256948000751,None,y,1356.0256948000751,None,"['y', 'return']","[0.8272834999952465, 1.2191686001606286]",1356.0256948000751,None,,,23NE,001,2023_Mar_10_1223,ExactRep-v3-final,2021.2.3,59.83573896034783,
,,,,,,,,,,,,70,0,70,0,,,,,,,,,,,,,,,,,,,,,,,,,,,,,,,,,,,,,,,,,,,,,,,,,1361.33566540014,None,,,,,,,,,,,,,,,,,,,,,,,,,,,,,,,,,,,,,,,,,,,,,,,,,,,,,,,,,woods,184,71,aloud,new,yellow,1357.792173200054,None,n,1357.792173200054,None,"['n', 'return']","[3.116706399945542, 3.508634499972686]",1357.792173200054,None,,,23NE,001,2023_Mar_10_1223,ExactRep-v3-final,2021.2.3,59.83573896034783,
,,,,,,,,,,,,71,0,71,0,,,,,,,,,,,,,,,,,,,,,,,,,,,,,,,,,,,,,,,,,,,,,,,,,1363.3711664001457,None,,,,,,,,,,,,,,,,,,,,,,,,,,,,,,,,,,,,,,,,,,,,,,,,,,,,,,,,,party,17,72,sing,old,yellow,1361.842795799952,None,n,1361.842795799952,None,"['n', 'return']","[0.9461277001537383, 1.4820995000191033]",1361.842795799952,None,,,23NE,001,2023_Mar_10_1223,ExactRep-v3-final,2021.2.3,59.83573896034783,
,,,,,,,,,,,,72,0,72,0,,,,,,,,,,,,,,,,,,,,,,,,,,,,,,,,,,,,,,,,,,,,,,,,,1365.2563463000115,None,,,,,,,,,,,,,,,,,,,,,,,,,,,,,,,,,,,,,,,,,,,,,,,,,,,,,,,,,kiss,35,73,sing,old,yellow,1363.8784509000834,None,y,1363.8784509000834,None,"['y', 'return']","[1.0144128000829369, 1.3342802999541163]",1363.8784509000834,None,,,23NE,001,2023_Mar_10_1223,ExactRep-v3-final,2021.2.3,59.83573896034783,
,,,,,,,,,,,,73,0,73,0,,,,,,,,,,,,,,,,,,,,,,,,,,,,,,,,,,,,,,,,,,,,,,,,,1368.5429497000296,None,,,,,,,,,,,,,,,,,,,,,,,,,,,,,,,,,,,,,,,,,,,,,,,,,,,,,,,,,house,140,74,silent,new,yellow,1365.7621186999604,None,n,1365.7621186999604,None,"['n', 'return']","[2.402795000001788, 2.7468469999730587]",1365.7621186999604,None,,,23NE,001,2023_Mar_10_1223,ExactRep-v3-final,2021.2.3,59.83573896034783,
,,,,,,,,,,,,74,0,74,0,,,,,,,,,,,,,,,,,,,,,,,,,,,,,,,,,,,,,,,,,,,,,,,,,1370.5615752001759,None,,,,,,,,,,,,,,,,,,,,,,,,,,,,,,,,,,,,,,,,,,,,,,,,,,,,,,,,,journal,114,75,aloud,old,yellow,1369.0538645000197,None,y,1369.0538645000197,None,"['y', 'return']","[1.0470700000878423, 1.462870400166139]",1369.0538645000197,None,,,23NE,001,2023_Mar_10_1223,ExactRep-v3-final,2021.2.3,59.83573896034783,
,,,,,,,,,,,,75,0,75,0,,,,,,,,,,,,,,,,,,,,,,,,,,,,,,,,,,,,,,,,,,,,,,,,,1373.881675099954,None,,,,,,,,,,,,,,,,,,,,,,,,,,,,,,,,,,,,,,,,,,,,,,,,,,,,,,,,,cabin,202,76,aloud,new,yellow,1371.0684070000425,None,y,1371.0684070000425,None,"['y', 'return']","[1.8006693001370877, 2.7684464000631124]",1371.0684070000425,None,,,23NE,001,2023_Mar_10_1223,ExactRep-v3-final,2021.2.3,59.83573896034783,
,,,,,,,,,,,,76,0,76,0,,,,,,,,,,,,,,,,,,,,,,,,,,,,,,,,,,,,,,,,,,,,,,,,,1376.3692591001745,None,,,,,,,,,,,,,,,,,,,,,,,,,,,,,,,,,,,,,,,,,,,,,,,,,,,,,,,,,potato,88,77,aloud,old,yellow,1374.389144100016,None,y,1374.389144100016,None,"['y', 'return']","[1.5596137000247836, 1.9435928999446332]",1374.389144100016,None,,,23NE,001,2023_Mar_10_1223,ExactRep-v3-final,2021.2.3,59.83573896034783,
,,,,,,,,,,,,77,0,77,0,,,,,,,,,,,,,,,,,,,,,,,,,,,,,,,,,,,,,,,,,,,,,,,,,1378.1858159000985,None,,,,,,,,,,,,,,,,,,,,,,,,,,,,,,,,,,,,,,,,,,,,,,,,,,,,,,,,,colony,19,78,sing,old,yellow,1376.8925405000336,None,y,1376.8925405000336,None,"['y', 'return']","[0.9442642999347299, 1.2483151000924408]",1376.8925405000336,None,,,23NE,001,2023_Mar_10_1223,ExactRep-v3-final,2021.2.3,59.83573896034783,
,,,,,,,,,,,,78,0,78,0,,,,,,,,,,,,,,,,,,,,,,,,,,,,,,,,,,,,,,,,,,,,,,,,,1380.3719620001502,None,,,,,,,,,,,,,,,,,,,,,,,,,,,,,,,,,,,,,,,,,,,,,,,,,,,,,,,,,car,234,79,aloud,new,yellow,1378.6950246000197,None,n,1378.6950246000197,None,"['n', 'return']","[1.3578461001161486, 1.6380243999883533]",1378.6950246000197,None,,,23NE,001,2023_Mar_10_1223,ExactRep-v3-final,2021.2.3,59.83573896034783,
,,,,,,,,,,,,79,0,79,0,,,,,,,,,,,,,,,,,,,,,,,,,,,,,,,,,,,,,,,,,,,,,,,,,1382.4234154000878,None,,,,,,,,,,,,,,,,,,,,,,,,,,,,,,,,,,,,,,,,,,,,,,,,,,,,,,,,,blood,98,80,aloud,old,yellow,1380.883854900021,None,y,1380.883854900021,None,"['y', 'return']","[1.1851321998983622, 1.497005800018087]",1380.883854900021,None,,,23NE,001,2023_Mar_10_1223,ExactRep-v3-final,2021.2.3,59.83573896034783,
,,,,,,,,,,,,80,0,80,0,,,,,,,,,,,,,,,,,,,,,,,,,,,,,,,,,,,,,,,,,,,,,,,,,1384.5921557999682,None,,,,,,,,,,,,,,,,,,,,,,,,,,,,,,,,,,,,,,,,,,,,,,,,,,,,,,,,,series,231,81,sing,new,yellow,1382.940412600059,None,y,1382.940412600059,None,"['y', 'return']","[1.2326142000965774, 1.6165374999400228]",1382.940412600059,None,,,23NE,001,2023_Mar_10_1223,ExactRep-v3-final,2021.2.3,59.83573896034783,
,,,,,,,,,,,,81,0,81,0,,,,,,,,,,,,,,,,,,,,,,,,,,,,,,,,,,,,,,,,,,,,,,,,,1387.5952675000299,None,,,,,,,,,,,,,,,,,,,,,,,,,,,,,,,,,,,,,,,,,,,,,,,,,,,,,,,,,tree,92,82,aloud,old,yellow,1385.101055700099,None,y,1385.101055700099,None,"['y', 'return']","[1.7678077998571098, 2.447813799837604]",1385.101055700099,None,,,23NE,001,2023_Mar_10_1223,ExactRep-v3-final,2021.2.3,59.83573896034783,
,,,,,,,,,,,,82,0,82,0,,,,,,,,,,,,,,,,,,,,,,,,,,,,,,,,,,,,,,,,,,,,,,,,,1389.5138787000906,None,,,,,,,,,,,,,,,,,,,,,,,,,,,,,,,,,,,,,,,,,,,,,,,,,,,,,,,,,judge,31,83,sing,old,yellow,1388.1023162000347,None,y,1388.1023162000347,None,"['y', 'return']","[0.8706193999387324, 1.37466279999353]",1388.1023162000347,None,,,23NE,001,2023_Mar_10_1223,ExactRep-v3-final,2021.2.3,59.83573896034783,
,,,,,,,,,,,,83,0,83,0,,,,,,,,,,,,,,,,,,,,,,,,,,,,,,,,,,,,,,,,,,,,,,,,,1392.0331189001445,None,,,,,,,,,,,,,,,,,,,,,,,,,,,,,,,,,,,,,,,,,,,,,,,,,,,,,,,,,meat,112,84,aloud,old,yellow,1390.0246413999703,None,y,1390.0246413999703,None,"['y', 'return']","[1.6441571998875588, 1.964178399881348]",1390.0246413999703,None,,,23NE,001,2023_Mar_10_1223,ExactRep-v3-final,2021.2.3,59.83573896034783,
,,,,,,,,,,,,84,0,84,0,,,,,,,,,,,,,,,,,,,,,,,,,,,,,,,,,,,,,,,,,,,,,,,,,1394.018277300056,None,,,,,,,,,,,,,,,,,,,,,,,,,,,,,,,,,,,,,,,,,,,,,,,,,,,,,,,,,bowl,29,85,sing,old,yellow,1392.5414754999802,None,y,1392.5414754999802,None,"['y', 'return']","[1.0315298000350595, 1.4394511999562383]",1392.5414754999802,None,,,23NE,001,2023_Mar_10_1223,ExactRep-v3-final,2021.2.3,59.83573896034783,
,,,,,,,,,,,,85,0,85,0,,,,,,,,,,,,,,,,,,,,,,,,,,,,,,,,,,,,,,,,,,,,,,,,,1396.1537282001227,None,,,,,,,,,,,,,,,,,,,,,,,,,,,,,,,,,,,,,,,,,,,,,,,,,,,,,,,,,memory,0,86,sing,old,yellow,1394.529983600136,None,y,1394.529983600136,None,"['y', 'return']","[1.2109383000060916, 1.5869730999693274]",1394.529983600136,None,,,23NE,001,2023_Mar_10_1223,ExactRep-v3-final,2021.2.3,59.83573896034783,
,,,,,,,,,,,,86,0,86,0,,,,,,,,,,,,,,,,,,,,,,,,,,,,,,,,,,,,,,,,,,,,,,,,,1398.85664490005,None,,,,,,,,,,,,,,,,,,,,,,,,,,,,,,,,,,,,,,,,,,,,,,,,,,,,,,,,,truth,87,87,aloud,old,yellow,1396.6636204000097,None,y,1396.6636204000097,None,"['y', 'return']","[1.837563500041142, 2.149255499942228]",1396.6636204000097,None,,,23NE,001,2023_Mar_10_1223,ExactRep-v3-final,2021.2.3,59.83573896034783,
,,,,,,,,,,,,87,0,87,0,,,,,,,,,,,,,,,,,,,,,,,,,,,,,,,,,,,,,,,,,,,,,,,,,1401.4758991999552,None,,,,,,,,,,,,,,,,,,,,,,,,,,,,,,,,,,,,,,,,,,,,,,,,,,,,,,,,,salary,165,88,sing,new,yellow,1399.3658623001538,None,n,1399.3658623001538,None,"['n', 'return']","[1.735003300011158, 2.063027499942109]",1399.3658623001538,None,,,23NE,001,2023_Mar_10_1223,ExactRep-v3-final,2021.2.3,59.83573896034783,
,,,,,,,,,,,,88,0,88,0,,,,,,,,,,,,,,,,,,,,,,,,,,,,,,,,,,,,,,,,,,,,,,,,,1403.2775294000749,None,,,,,,,,,,,,,,,,,,,,,,,,,,,,,,,,,,,,,,,,,,,,,,,,,,,,,,,,,engine,121,89,silent,new,yellow,1401.9832572001033,None,n,1401.9832572001033,None,"['n', 'return']","[0.8855596000794321, 1.2615839999634773]",1401.9832572001033,None,,,23NE,001,2023_Mar_10_1223,ExactRep-v3-final,2021.2.3,59.83573896034783,
,,,,,,,,,,,,89,0,89,0,,,,,,,,,,,,,,,,,,,,,,,,,,,,,,,,,,,,,,,,,,,,,,,,,1405.112903600093,None,,,,,,,,,,,,,,,,,,,,,,,,,,,,,,,,,,,,,,,,,,,,,,,,,,,,,,,,,sky,65,90,silent,old,yellow,1403.7877837000415,None,y,1403.7877837000415,None,"['y', 'return']","[0.9931407999247313, 1.281082300003618]",1403.7877837000415,None,,,23NE,001,2023_Mar_10_1223,ExactRep-v3-final,2021.2.3,59.83573896034783,
,,,,,,,,,,,,90,0,90,0,,,,,,,,,,,,,,,,,,,,,,,,,,,,,,,,,,,,,,,,,,,,,,,,,1407.0479393999558,None,,,,,,,,,,,,,,,,,,,,,,,,,,,,,,,,,,,,,,,,,,,,,,,,,,,,,,,,,wheat,51,91,silent,old,yellow,1405.6250832001679,None,n,1405.6250832001679,None,"['n', 'return']","[1.0917909999843687, 1.3798758999910206]",1405.6250832001679,None,,,23NE,001,2023_Mar_10_1223,ExactRep-v3-final,2021.2.3,59.83573896034783,
,,,,,,,,,,,,91,0,91,0,,,,,,,,,,,,,,,,,,,,,,,,,,,,,,,,,,,,,,,,,,,,,,,,,1408.916643799981,None,,,,,,,,,,,,,,,,,,,,,,,,,,,,,,,,,,,,,,,,,,,,,,,,,,,,,,,,,origin,74,92,silent,old,yellow,1407.5523531001527,None,y,1407.5523531001527,None,"['y', 'return']","[1.0926551001612097, 1.3246349999681115]",1407.5523531001527,None,,,23NE,001,2023_Mar_10_1223,ExactRep-v3-final,2021.2.3,59.83573896034783,
,,,,,,,,,,,,92,0,92,0,,,,,,,,,,,,,,,,,,,,,,,,,,,,,,,,,,,,,,,,,,,,,,,,,1410.6210962000769,None,,,,,,,,,,,,,,,,,,,,,,,,,,,,,,,,,,,,,,,,,,,,,,,,,,,,,,,,,prayer,187,93,sing,new,yellow,1409.4263844001107,None,y,1409.4263844001107,None,"['y', 'return']","[0.9064316998701543, 1.1544689999427646]",1409.4263844001107,None,,,23NE,001,2023_Mar_10_1223,ExactRep-v3-final,2021.2.3,59.83573896034783,
,,,,,,,,,,,,93,0,93,0,,,,,,,,,,,,,,,,,,,,,,,,,,,,,,,,,,,,,,,,,,,,,,,,,1412.8370658999775,None,,,,,,,,,,,,,,,,,,,,,,,,,,,,,,,,,,,,,,,,,,,,,,,,,,,,,,,,,law,169,94,sing,new,yellow,1411.142639100086,None,y,1411.142639100086,None,"['y', 'return']","[1.3742733001708984, 1.6623141001909971]",1411.142639100086,None,,,23NE,001,2023_Mar_10_1223,ExactRep-v3-final,2021.2.3,59.83573896034783,
,,,,,,,,,,,,94,0,94,0,,,,,,,,,,,,,,,,,,,,,,,,,,,,,,,,,,,,,,,,,,,,,,,,,1414.872447700007,None,,,,,,,,,,,,,,,,,,,,,,,,,,,,,,,,,,,,,,,,,,,,,,,,,,,,,,,,,metal,170,95,aloud,new,yellow,1413.3485467999708,None,n,1413.3485467999708,None,"['n', 'return']","[1.0164065998978913, 1.488439799984917]",1413.3485467999708,None,,,23NE,001,2023_Mar_10_1223,ExactRep-v3-final,2021.2.3,59.83573896034783,
,,,,,,,,,,,,95,0,95,0,,,,,,,,,,,,,,,,,,,,,,,,,,,,,,,,,,,,,,,,,,,,,,,,,1417.8087178000715,None,,,,,,,,,,,,,,,,,,,,,,,,,,,,,,,,,,,,,,,,,,,,,,,,,,,,,,,,,body,203,96,sing,new,yellow,1415.3755312000867,None,y,1415.3755312000867,None,"['y', 'return']","[2.1413411998655647, 2.397367399884388]",1415.3755312000867,None,,,23NE,001,2023_Mar_10_1223,ExactRep-v3-final,2021.2.3,59.83573896034783,
,,,,,,,,,,,,96,0,96,0,,,,,,,,,,,,,,,,,,,,,,,,,,,,,,,,,,,,,,,,,,,,,,,,,1420.1110406001098,None,,,,,,,,,,,,,,,,,,,,,,,,,,,,,,,,,,,,,,,,,,,,,,,,,,,,,,,,,brain,146,97,silent,new,yellow,1418.320095299976,None,n,1418.320095299976,None,"['n', 'return']","[1.388737800065428, 1.7489569999743253]",1418.320095299976,None,,,23NE,001,2023_Mar_10_1223,ExactRep-v3-final,2021.2.3,59.83573896034783,
,,,,,,,,,,,,97,0,97,0,,,,,,,,,,,,,,,,,,,,,,,,,,,,,,,,,,,,,,,,,,,,,,,,,1422.1630612001754,None,,,,,,,,,,,,,,,,,,,,,,,,,,,,,,,,,,,,,,,,,,,,,,,,,,,,,,,,,method,110,98,aloud,old,yellow,1420.6224510001484,None,n,1420.6224510001484,None,"['n', 'return']","[0.9265579001512378, 1.502525000134483]",1420.6224510001484,None,,,23NE,001,2023_Mar_10_1223,ExactRep-v3-final,2021.2.3,59.83573896034783,
,,,,,,,,,,,,98,0,98,0,,,,,,,,,,,,,,,,,,,,,,,,,,,,,,,,,,,,,,,,,,,,,,,,,1424.215300800046,None,,,,,,,,,,,,,,,,,,,,,,,,,,,,,,,,,,,,,,,,,,,,,,,,,,,,,,,,,beast,214,99,aloud,new,yellow,1422.6729743999895,None,n,1422.6729743999895,None,"['n', 'return']","[1.187901700148359, 1.5082493000663817]",1422.6729743999895,None,,,23NE,001,2023_Mar_10_1223,ExactRep-v3-final,2021.2.3,59.83573896034783,
,,,,,,,,,,,,99,0,99,0,,,,,,,,,,,,,,,,,,,,,,,,,,,,,,,,,,,,,,,,,,,,,,,,,1426.5175842000172,None,,,,,,,,,,,,,,,,,,,,,,,,,,,,,,,,,,,,,,,,,,,,,,,,,,,,,,,,,lip,218,100,aloud,new,yellow,1424.7253002000507,None,n,1424.7253002000507,None,"['n', 'return']","[1.2875980001408607, 1.7517185001634061]",1424.7253002000507,None,,,23NE,001,2023_Mar_10_1223,ExactRep-v3-final,2021.2.3,59.83573896034783,
,,,,,,,,,,,,100,0,100,0,,,,,,,,,,,,,,,,,,,,,,,,,,,,,,,,,,,,,,,,,,,,,,,,,1428.686240100069,None,,,,,,,,,,,,,,,,,,,,,,,,,,,,,,,,,,,,,,,,,,,,,,,,,,,,,,,,,child,172,101,aloud,new,yellow,1427.027649300173,None,y,1427.027649300173,None,"['y', 'return']","[1.4013676000759006, 1.6252655000425875]",1427.027649300173,None,,,23NE,001,2023_Mar_10_1223,ExactRep-v3-final,2021.2.3,59.83573896034783,
,,,,,,,,,,,,101,0,101,0,,,,,,,,,,,,,,,,,,,,,,,,,,,,,,,,,,,,,,,,,,,,,,,,,1431.0051790999714,None,,,,,,,,,,,,,,,,,,,,,,,,,,,,,,,,,,,,,,,,,,,,,,,,,,,,,,,,,wine,225,102,sing,new,yellow,1429.193838499952,None,y,1429.193838499952,None,"['y', 'return']","[1.4670999001245946, 1.7790505001321435]",1429.193838499952,None,,,23NE,001,2023_Mar_10_1223,ExactRep-v3-final,2021.2.3,59.83573896034783,
,,,,,,,,,,,,102,0,102,0,,,,,,,,,,,,,,,,,,,,,,,,,,,,,,,,,,,,,,,,,,,,,,,,,1433.9081705000717,None,,,,,,,,,,,,,,,,,,,,,,,,,,,,,,,,,,,,,,,,,,,,,,,,,,,,,,,,,charm,145,103,silent,new,yellow,1431.5139970001765,None,n,1431.5139970001765,None,"['n', 'return']","[1.2270261000376195, 2.3550672999117523]",1431.5139970001765,None,,,23NE,001,2023_Mar_10_1223,ExactRep-v3-final,2021.2.3,59.83573896034783,
,,,,,,,,,,,,103,0,103,0,,,,,,,,,,,,,,,,,,,,,,,,,,,,,,,,,,,,,,,,,,,,,,,,,1436.9446696001105,None,,,,,,,,,,,,,,,,,,,,,,,,,,,,,,,,,,,,,,,,,,,,,,,,,,,,,,,,,moment,196,104,aloud,new,yellow,1434.4219649001025,None,n,1434.4219649001025,None,"['n', 'return']","[1.8308549001812935, 2.4868972999975085]",1434.4219649001025,None,,,23NE,001,2023_Mar_10_1223,ExactRep-v3-final,2021.2.3,59.83573896034783,
,,,,,,,,,,,,104,0,104,0,,,,,,,,,,,,,,,,,,,,,,,,,,,,,,,,,,,,,,,,,,,,,,,,,1438.946686600102,None,,,,,,,,,,,,,,,,,,,,,,,,,,,,,,,,,,,,,,,,,,,,,,,,,,,,,,,,,person,207,105,sing,new,yellow,1437.4528761000838,None,n,1437.4528761000838,None,"['n', 'return']","[0.8402762999758124, 1.4481921999249607]",1437.4528761000838,None,,,23NE,001,2023_Mar_10_1223,ExactRep-v3-final,2021.2.3,59.83573896034783,
,,,,,,,,,,,,105,0,105,0,,,,,,,,,,,,,,,,,,,,,,,,,,,,,,,,,,,,,,,,,,,,,,,,,1441.6158500001766,None,,,,,,,,,,,,,,,,,,,,,,,,,,,,,,,,,,,,,,,,,,,,,,,,,,,,,,,,,street,50,106,silent,old,yellow,1439.4562570000999,None,y,1439.4562570000999,None,"['y', 'y', 'return']","[1.3324959999881685, 1.3804977999534458, 2.1245875998865813]",1439.4562570000999,None,,,23NE,001,2023_Mar_10_1223,ExactRep-v3-final,2021.2.3,59.83573896034783,
,,,,,,,,,,,,106,0,106,0,,,,,,,,,,,,,,,,,,,,,,,,,,,,,,,,,,,,,,,,,,,,,,,,,1444.0854001999833,None,,,,,,,,,,,,,,,,,,,,,,,,,,,,,,,,,,,,,,,,,,,,,,,,,,,,,,,,,coin,229,107,sing,new,yellow,1442.1234806999564,None,n,1442.1234806999564,None,"['n', 'return']","[1.1934757998678833, 1.9294799999333918]",1442.1234806999564,None,,,23NE,001,2023_Mar_10_1223,ExactRep-v3-final,2021.2.3,59.83573896034783,
,,,,,,,,,,,,107,0,107,0,,,,,,,,,,,,,,,,,,,,,,,,,,,,,,,,,,,,,,,,,,,,,,,,,1446.4876157001127,None,,,,,,,,,,,,,,,,,,,,,,,,,,,,,,,,,,,,,,,,,,,,,,,,,,,,,,,,,product,41,108,silent,old,yellow,1444.59484470007,None,y,1444.59484470007,None,"['y', 'return']","[1.178050999995321, 1.8580265000928193]",1444.59484470007,None,,,23NE,001,2023_Mar_10_1223,ExactRep-v3-final,2021.2.3,59.83573896034783,
,,,,,,,,,,,,108,0,108,0,,,,,,,,,,,,,,,,,,,,,,,,,,,,,,,,,,,,,,,,,,,,,,,,,1448.672904000152,None,,,,,,,,,,,,,,,,,,,,,,,,,,,,,,,,,,,,,,,,,,,,,,,,,,,,,,,,,lad,210,109,aloud,new,yellow,1446.999097400112,None,n,1446.999097400112,None,"['n', 'return']","[1.101683699991554, 1.6297244001179934]",1446.999097400112,None,,,23NE,001,2023_Mar_10_1223,ExactRep-v3-final,2021.2.3,59.83573896034783,
,,,,,,,,,,,,109,0,109,0,,,,,,,,,,,,,,,,,,,,,,,,,,,,,,,,,,,,,,,,,,,,,,,,,1450.875359900063,None,,,,,,,,,,,,,,,,,,,,,,,,,,,,,,,,,,,,,,,,,,,,,,,,,,,,,,,,,grass,10,110,sing,old,yellow,1449.1956631999929,None,y,1449.1956631999929,None,"['y', 'return']","[1.0332325999625027, 1.641257100040093]",1449.1956631999929,None,,,23NE,001,2023_Mar_10_1223,ExactRep-v3-final,2021.2.3,59.83573896034783,
,,,,,,,,,,,,110,0,110,0,,,,,,,,,,,,,,,,,,,,,,,,,,,,,,,,,,,,,,,,,,,,,,,,,1453.844915300142,None,,,,,,,,,,,,,,,,,,,,,,,,,,,,,,,,,,,,,,,,,,,,,,,,,,,,,,,,,advice,143,111,silent,new,yellow,1451.3861108000856,None,n,1451.3861108000856,None,"['n', 'return']","[1.7067422000691295, 2.4267873000353575]",1451.3861108000856,None,,,23NE,001,2023_Mar_10_1223,ExactRep-v3-final,2021.2.3,59.83573896034783,
,,,,,,,,,,,,111,0,111,0,,,,,,,,,,,,,,,,,,,,,,,,,,,,,,,,,,,,,,,,,,,,,,,,,1456.2805198000278,None,,,,,,,,,,,,,,,,,,,,,,,,,,,,,,,,,,,,,,,,,,,,,,,,,,,,,,,,,cotton,161,112,sing,new,yellow,1454.3547026000451,None,n,1454.3547026000451,None,"['n', 'return']","[1.10658899997361, 1.8903983999043703]",1454.3547026000451,None,,,23NE,001,2023_Mar_10_1223,ExactRep-v3-final,2021.2.3,59.83573896034783,
,,,,,,,,,,,,112,0,112,0,,,,,,,,,,,,,,,,,,,,,,,,,,,,,,,,,,,,,,,,,,,,,,,,,1458.5327545001637,None,,,,,,,,,,,,,,,,,,,,,,,,,,,,,,,,,,,,,,,,,,,,,,,,,,,,,,,,,form,147,113,silent,new,yellow,1456.7890935000032,None,y,1456.7890935000032,None,"['y', 'return']","[1.1518292999826372, 1.711796100018546]",1456.7890935000032,None,,,23NE,001,2023_Mar_10_1223,ExactRep-v3-final,2021.2.3,59.83573896034783,
,,,,,,,,,,,,113,0,113,0,,,,,,,,,,,,,,,,,,,,,,,,,,,,,,,,,,,,,,,,,,,,,,,,,1461.1686599000823,None,,,,,,,,,,,,,,,,,,,,,,,,,,,,,,,,,,,,,,,,,,,,,,,,,,,,,,,,,library,62,114,silent,old,yellow,1459.04067090014,None,y,1459.04067090014,None,"['y', 'return']","[1.420252300100401, 2.0842293000314385]",1459.04067090014,None,,,23NE,001,2023_Mar_10_1223,ExactRep-v3-final,2021.2.3,59.83573896034783,
,,,,,,,,,,,,114,0,114,0,,,,,,,,,,,,,,,,,,,,,,,,,,,,,,,,,,,,,,,,,,,,,,,,,1463.67123990017,None,,,,,,,,,,,,,,,,,,,,,,,,,,,,,,,,,,,,,,,,,,,,,,,,,,,,,,,,,master,16,115,sing,old,yellow,1461.6822888001334,None,y,1461.6822888001334,None,"['y', 'return']","[1.2826228998601437, 1.9546131000388414]",1461.6822888001334,None,,,23NE,001,2023_Mar_10_1223,ExactRep-v3-final,2021.2.3,59.83573896034783,
,,,,,,,,,,,,115,0,115,0,,,,,,,,,,,,,,,,,,,,,,,,,,,,,,,,,,,,,,,,,,,,,,,,,1465.8735206001438,None,,,,,,,,,,,,,,,,,,,,,,,,,,,,,,,,,,,,,,,,,,,,,,,,,,,,,,,,,cash,54,116,silent,old,yellow,1464.1787491999567,None,y,1464.1787491999567,None,"['y', 'return']","[1.0582012000959367, 1.6581862999591976]",1464.1787491999567,None,,,23NE,001,2023_Mar_10_1223,ExactRep-v3-final,2021.2.3,59.83573896034783,
,,,,,,,,,,,,116,0,116,0,,,,,,,,,,,,,,,,,,,,,,,,,,,,,,,,,,,,,,,,,,,,,,,,,1467.8587738000788,None,,,,,,,,,,,,,,,,,,,,,,,,,,,,,,,,,,,,,,,,,,,,,,,,,,,,,,,,,science,86,117,aloud,old,yellow,1466.3830971000716,None,y,1466.3830971000716,None,"['y', 'return']","[0.7978177000768483, 1.4299153999891132]",1466.3830971000716,None,,,23NE,001,2023_Mar_10_1223,ExactRep-v3-final,2021.2.3,59.83573896034783,
,,,,,,,,,,,,117,0,117,0,,,,,,,,,,,,,,,,,,,,,,,,,,,,,,,,,,,,,,,,,,,,,,,,,1470.5281253000721,None,,,,,,,,,,,,,,,,,,,,,,,,,,,,,,,,,,,,,,,,,,,,,,,,,,,,,,,,,quality,181,118,sing,new,yellow,1468.365286400076,None,y,1468.365286400076,None,"['y', 'return']","[1.4076593001373112, 2.1277562000323087]",1468.365286400076,None,,,23NE,001,2023_Mar_10_1223,ExactRep-v3-final,2021.2.3,59.83573896034783,
,,,,,,,,,,,,118,0,118,0,,,,,,,,,,,,,,,,,,,,,,,,,,,,,,,,,,,,,,,,,,,,,,,,,1473.6980207001325,None,,,,,,,,,,,,,,,,,,,,,,,,,,,,,,,,,,,,,,,,,,,,,,,,,,,,,,,,,rod,53,119,silent,old,yellow,1471.032555700047,None,y,1471.032555700047,None,"['y', 'return']","[1.6524729998782277, 2.620388299925253]",1471.032555700047,None,,,23NE,001,2023_Mar_10_1223,ExactRep-v3-final,2021.2.3,59.83573896034783,
,,,,,,,,,,,,119,0,119,0,,,,,,,,,,,,,,,,,,,,,,,,,,,,,,,,,,,,,,,,,,,,,,,,,1475.9502412001602,None,,,,,,,,,,,,,,,,,,,,,,,,,,,,,,,,,,,,,,,,,,,,,,,,,,,,,,,,,corn,30,120,sing,old,yellow,1474.2122975001112,None,n,1474.2122975001112,None,"['n', 'return']","[1.216933500021696, 1.6966781001538038]",1474.2122975001112,None,,,23NE,001,2023_Mar_10_1223,ExactRep-v3-final,2021.2.3,59.83573896034783,
,,,,,,,,,,,,120,0,120,0,,,,,,,,,,,,,,,,,,,,,,,,,,,,,,,,,,,,,,,,,,,,,,,,,1478.3192533999681,None,,,,,,,,,,,,,,,,,,,,,,,,,,,,,,,,,,,,,,,,,,,,,,,,,,,,,,,,,bird,133,121,silent,new,yellow,1476.4580053000245,None,n,1476.4580053000245,None,"['n', 'return']","[1.2828734000213444, 1.818849400151521]",1476.4580053000245,None,,,23NE,001,2023_Mar_10_1223,ExactRep-v3-final,2021.2.3,59.83573896034783,
,,,,,,,,,,,,121,0,121,0,,,,,,,,,,,,,,,,,,,,,,,,,,,,,,,,,,,,,,,,,,,,,,,,,1480.38802770013,None,,,,,,,,,,,,,,,,,,,,,,,,,,,,,,,,,,,,,,,,,,,,,,,,,,,,,,,,,leader,85,122,aloud,old,yellow,1478.8316862999927,None,n,1478.8316862999927,None,"['n', 'return']","[0.8934643000829965, 1.5092535999137908]",1478.8316862999927,None,,,23NE,001,2023_Mar_10_1223,ExactRep-v3-final,2021.2.3,59.83573896034783,
,,,,,,,,,,,,122,0,122,0,,,,,,,,,,,,,,,,,,,,,,,,,,,,,,,,,,,,,,,,,,,,,,,,,1482.8404252000619,None,,,,,,,,,,,,,,,,,,,,,,,,,,,,,,,,,,,,,,,,,,,,,,,,,,,,,,,,,slave,144,123,silent,new,yellow,1480.8997053001076,None,n,1480.8997053001076,None,"['n', 'return']","[1.2334775000344962, 1.9053520001471043]",1480.8997053001076,None,,,23NE,001,2023_Mar_10_1223,ExactRep-v3-final,2021.2.3,59.83573896034783,
,,,,,,,,,,,,123,0,123,0,,,,,,,,,,,,,,,,,,,,,,,,,,,,,,,,,,,,,,,,,,,,,,,,,1485.126204200089,None,,,,,,,,,,,,,,,,,,,,,,,,,,,,,,,,,,,,,,,,,,,,,,,,,,,,,,,,,death,33,124,sing,old,yellow,1483.3487994000316,None,y,1483.3487994000316,None,"['y', 'return']","[1.1041427000891417, 1.7361777001060545]",1483.3487994000316,None,,,23NE,001,2023_Mar_10_1223,ExactRep-v3-final,2021.2.3,59.83573896034783,
,,,,,,,,,,,,124,0,124,0,,,,,,,,,,,,,,,,,,,,,,,,,,,,,,,,,,,,,,,,,,,,,,,,,1487.5452162001748,None,,,,,,,,,,,,,,,,,,,,,,,,,,,,,,,,,,,,,,,,,,,,,,,,,,,,,,,,,winter,142,125,silent,new,yellow,1485.634624300059,None,n,1485.634624300059,None,"['n', 'return']","[1.4103850999381393, 1.8743483999278396]",1485.634624300059,None,,,23NE,001,2023_Mar_10_1223,ExactRep-v3-final,2021.2.3,59.83573896034783,
,,,,,,,,,,,,125,0,125,0,,,,,,,,,,,,,,,,,,,,,,,,,,,,,,,,,,,,,,,,,,,,,,,,,1491.3989701000974,None,,,,,,,,,,,,,,,,,,,,,,,,,,,,,,,,,,,,,,,,,,,,,,,,,,,,,,,,,river,28,126,sing,old,yellow,1488.0497237001546,None,y,1488.0497237001546,None,"['y', 'return']","[2.643235999858007, 3.3072925999294966]",1488.0497237001546,None,,,23NE,001,2023_Mar_10_1223,ExactRep-v3-final,2021.2.3,59.83573896034783,
,,,,,,,,,,,,126,0,126,0,,,,,,,,,,,,,,,,,,,,,,,,,,,,,,,,,,,,,,,,,,,,,,,,,1493.9014727999456,None,,,,,,,,,,,,,,,,,,,,,,,,,,,,,,,,,,,,,,,,,,,,,,,,,,,,,,,,,village,213,127,sing,new,yellow,1491.9136648999993,None,y,1491.9136648999993,None,"['y', 'return']","[1.1153765998315066, 1.9552811000030488]",1491.9136648999993,None,,,23NE,001,2023_Mar_10_1223,ExactRep-v3-final,2021.2.3,59.83573896034783,
,,,,,,,,,,,,127,0,127,0,,,,,,,,,,,,,,,,,,,,,,,,,,,,,,,,,,,,,,,,,,,,,,,,,1496.654506500112,None,,,,,,,,,,,,,,,,,,,,,,,,,,,,,,,,,,,,,,,,,,,,,,,,,,,,,,,,,dollar,224,128,aloud,new,yellow,1494.410325099947,None,n,1494.410325099947,None,"['n', 'return']","[1.5307018000166863, 2.202672100160271]",1494.410325099947,None,,,23NE,001,2023_Mar_10_1223,ExactRep-v3-final,2021.2.3,59.83573896034783,
,,,,,,,,,,,,128,0,128,0,,,,,,,,,,,,,,,,,,,,,,,,,,,,,,,,,,,,,,,,,,,,,,,,,1498.9732360001653,None,,,,,,,,,,,,,,,,,,,,,,,,,,,,,,,,,,,,,,,,,,,,,,,,,,,,,,,,,friend,238,129,aloud,new,yellow,1497.1648021000437,None,n,1497.1648021000437,None,"['n', 'return']","[1.1281433999538422, 1.768215499818325]",1497.1648021000437,None,,,23NE,001,2023_Mar_10_1223,ExactRep-v3-final,2021.2.3,59.83573896034783,
,,,,,,,,,,,,129,0,129,0,,,,,,,,,,,,,,,,,,,,,,,,,,,,,,,,,,,,,,,,,,,,,,,,,1502.126375199994,None,,,,,,,,,,,,,,,,,,,,,,,,,,,,,,,,,,,,,,,,,,,,,,,,,,,,,,,,,meeting,71,130,silent,old,yellow,1499.4829337000847,None,y,1499.4829337000847,None,"['y', 'return']","[2.0099261000286788, 2.6099618999287486]",1499.4829337000847,None,,,23NE,001,2023_Mar_10_1223,ExactRep-v3-final,2021.2.3,59.83573896034783,
