trials_fam.thisRepN,trials_fam.thisTrialN,trials_fam.thisN,trials_fam.thisIndex,trials_prc.thisRepN,trials_prc.thisTrialN,trials_prc.thisN,trials_prc.thisIndex,StudyLoop.thisRepN,StudyLoop.thisTrialN,StudyLoop.thisN,StudyLoop.thisIndex,TestLoop.thisRepN,TestLoop.thisTrialN,TestLoop.thisN,TestLoop.thisIndex,text_colortest.started,text_colortest.stopped,key_colortest.keys,key_colortest.rt,key_colortest.started,key_colortest.stopped,textCondition.started,textCondition.stopped,keyCondition.keys,keyCondition.rt,keyCondition.started,keyCondition.stopped,Condition_between,Condition_counterbal,keyWelcome.keys,keyWelcome.rt,keyWelcome.started,keyWelcome.stopped,welcome_a.started,welcome_a.stopped,welcome_b.started,welcome_b.stopped,welcome_c.started,welcome_c.stopped,welcome_d.started,welcome_d.stopped,welcome_e.started,welcome_e.stopped,welcome_f.started,welcome_f.stopped,key_resp_fam_inst.keys,key_resp_fam_inst.rt,key_resp_fam_inst.started,key_resp_fam_inst.stopped,fam_a.started,fam_a.stopped,fam_b.started,fam_b.stopped,fam_c.started,fam_c.stopped,fam_d.started,fam_d.stopped,fam_e.started,fam_e.stopped,fam_f.started,fam_f.stopped,text_famil.started,text_famil.stopped,textBlank500.started,textBlank500.stopped,key_resp_prc_inst.keys,key_resp_prc_inst.rt,key_resp_prc_inst.started,key_resp_prc_inst.stopped,prac_a.started,prac_a.stopped,prac_b.started,prac_b.stopped,prac_c.started,prac_c.stopped,prac_d.started,prac_d.stopped,prac_e.started,prac_e.stopped,prac_f.started,prac_f.stopped,text_prc_trial.started,text_prc_trial.stopped,key_resp_study_inst.keys,key_resp_study_inst.rt,key_resp_study_inst.started,key_resp_study_inst.stopped,crit_a.started,crit_a.stopped,crit_b.started,crit_b.stopped,crit_c.started,crit_c.stopped,crit_d.started,crit_d.stopped,crit_e.started,crit_e.stopped,crit_f.started,crit_f.stopped,study_word,study_num,study_order,study_type,word_color,textStudy.started,textStudy.stopped,keyStudy.keys,keyStudy.started,keyStudy.stopped,post_study.started,post_study.stopped,key_resp_post_study.keys,key_resp_post_study.rt,key_resp_post_study.started,key_resp_post_study.stopped,test_inst.started,test_inst.stopped,key_resp_test_inst.keys,key_resp_test_inst.rt,key_resp_test_inst.started,key_resp_test_inst.stopped,test_word,test_num,test_order,test_condition,old_new_test,word_color_test,textConf.started,textConf.stopped,Participant Response,textInput.started,textInput.stopped,keyResp.keys,keyResp.rt,keyResp.started,keyResp.stopped,textEnd.started,textEnd.stopped,participant,session,date,expName,psychopyVersion,frameRate,
,,,,,,,,,,,,,,,,19.050668799784034,None,n,1.9358780002221465,19.050668799784034,None,,,,,,,,,,,,,,,,,,,,,,,,,,,,,,,,,,,,,,,,,,,,,,,,,,,,,,,,,,,,,,,,,,,,,,,,,,,,,,,,,,,,,,,,,,,,,,,,,,,,,,,,,,,,,,,,,,,,,,24,001,2023_Mar_22_1150,ExactRep-v3-final,2021.2.3,59.95103190344348,
,,,,,,,,,,,,,,,,,,,,,,21.013888999819756,None,f,0.4687192002311349,21.013888999819756,None,,,,,,,,,,,,,,,,,,,,,,,,,,,,,,,,,,,,,,,,,,,,,,,,,,,,,,,,,,,,,,,,,,,,,,,,,,,,,,,,,,,,,,,,,,,,,,,,,,,,,,,,,,,,,,,,24,001,2023_Mar_22_1150,ExactRep-v3-final,2021.2.3,59.95103190344348,
,,,,,,,,,,,,,,,,,,,,,,,,,,,,whitefoils,f,space,433.1906257001683,31.636480399873108,None,,,,,,,,,,,,,,,,,,,,,,,,,,,,,,,,,,,,,,,,,,,,,,,,,,,,,,,,,,,,,,,,,,,,,,,,,,,,,,,,,,,,,,,,,,,,,,,,,,,,,,,,,,24,001,2023_Mar_22_1150,ExactRep-v3-final,2021.2.3,59.95103190344348,
,,,,,,,,,,,,,,,,,,,,,,,,,,,,,,,,,,21.71600619982928,None,21.71600619982928,None,21.71600619982928,None,21.71600619982928,None,21.71600619982928,None,21.71600619982928,None,space,14.98769270023331,475.0070385998115,None,,,,,,,,,,,,,,,,,,,,,,,,,,,,,,,,,,,,,,,,,,,,,,,,,,,,,,,,,,,,,,,,,,,,,,,,,,,,,,,,,,,,,,,,,,24,001,2023_Mar_22_1150,ExactRep-v3-final,2021.2.3,59.95103190344348,
0,0,0,0,,,,,,,,,,,,,,,,,,,,,,,,,,,,,,,,,,,,,,,,,,,,,,,464.98452739976346,None,464.98452739976346,None,464.98452739976346,None,464.98452739976346,None,464.98452739976346,None,464.98452739976346,None,490.12818499980494,None,492.11804480012506,None,,,,,,,,,,,,,,,,,,,,,,,,,,,,,,,,,,,,,,,,,,,,,,,,,,,,,,,,,,,,,,,,,,,,,,,,,,24,001,2023_Mar_22_1150,ExactRep-v3-final,2021.2.3,59.95103190344348,
1,0,1,0,,,,,,,,,,,,,,,,,,,,,,,,,,,,,,,,,,,,,,,,,,,,,,,,,,,,,,,,,,,492.62320759985596,None,494.6373791000806,None,,,,,,,,,,,,,,,,,,,,,,,,,,,,,,,,,,,,,,,,,,,,,,,,,,,,,,,,,,,,,,,,,,,,,,,,,,24,001,2023_Mar_22_1150,ExactRep-v3-final,2021.2.3,59.95103190344348,
2,0,2,0,,,,,,,,,,,,,,,,,,,,,,,,,,,,,,,,,,,,,,,,,,,,,,,,,,,,,,,,,,,495.13801770005375,None,497.139871600084,None,,,,,,,,,,,,,,,,,,,,,,,,,,,,,,,,,,,,,,,,,,,,,,,,,,,,,,,,,,,,,,,,,,,,,,,,,,24,001,2023_Mar_22_1150,ExactRep-v3-final,2021.2.3,59.95103190344348,
3,0,3,0,,,,,,,,,,,,,,,,,,,,,,,,,,,,,,,,,,,,,,,,,,,,,,,,,,,,,,,,,,,497.65095729986206,None,499.65913819987327,None,,,,,,,,,,,,,,,,,,,,,,,,,,,,,,,,,,,,,,,,,,,,,,,,,,,,,,,,,,,,,,,,,,,,,,,,,,24,001,2023_Mar_22_1150,ExactRep-v3-final,2021.2.3,59.95103190344348,
4,0,4,0,,,,,,,,,,,,,,,,,,,,,,,,,,,,,,,,,,,,,,,,,,,,,,,,,,,,,,,,,,,500.1664371001534,None,502.16165470005944,None,,,,,,,,,,,,,,,,,,,,,,,,,,,,,,,,,,,,,,,,,,,,,,,,,,,,,,,,,,,,,,,,,,,,,,,,,,24,001,2023_Mar_22_1150,ExactRep-v3-final,2021.2.3,59.95103190344348,
5,0,5,0,,,,,,,,,,,,,,,,,,,,,,,,,,,,,,,,,,,,,,,,,,,,,,,,,,,,,,,,,,,502.6621244000271,None,504.66418229974806,None,,,,,,,,,,,,,,,,,,,,,,,,,,,,,,,,,,,,,,,,,,,,,,,,,,,,,,,,,,,,,,,,,,,,,,,,,,24,001,2023_Mar_22_1150,ExactRep-v3-final,2021.2.3,59.95103190344348,
6,0,6,0,,,,,,,,,,,,,,,,,,,,,,,,,,,,,,,,,,,,,,,,,,,,,,,,,,,,,,,,,,,505.1686801998876,None,507.18328909995034,None,,,,,,,,,,,,,,,,,,,,,,,,,,,,,,,,,,,,,,,,,,,,,,,,,,,,,,,,,,,,,,,,,,,,,,,,,,24,001,2023_Mar_22_1150,ExactRep-v3-final,2021.2.3,59.95103190344348,
7,0,7,0,,,,,,,,,,,,,,,,,,,,,,,,,,,,,,,,,,,,,,,,,,,,,,,,,,,,,,,,,,,507.6836187997833,None,509.68580400012434,None,,,,,,,,,,,,,,,,,,,,,,,,,,,,,,,,,,,,,,,,,,,,,,,,,,,,,,,,,,,,,,,,,,,,,,,,,,24,001,2023_Mar_22_1150,ExactRep-v3-final,2021.2.3,59.95103190344348,
8,0,8,0,,,,,,,,,,,,,,,,,,,,,,,,,,,,,,,,,,,,,,,,,,,,,,,,,,,,,,,,,,,510.1899111997336,None,512.2049894998781,None,,,,,,,,,,,,,,,,,,,,,,,,,,,,,,,,,,,,,,,,,,,,,,,,,,,,,,,,,,,,,,,,,,,,,,,,,,24,001,2023_Mar_22_1150,ExactRep-v3-final,2021.2.3,59.95103190344348,
9,0,9,0,,,,,,,,,,,,,,,,,,,,,,,,,,,,,,,,,,,,,,,,,,,,,,,,,,,,,,,,,,,512.7077126000077,None,514.7076412001625,None,,,,,,,,,,,,,,,,,,,,,,,,,,,,,,,,,,,,,,,,,,,,,,,,,,,,,,,,,,,,,,,,,,,,,,,,,,24,001,2023_Mar_22_1150,ExactRep-v3-final,2021.2.3,59.95103190344348,
10,0,10,0,,,,,,,,,,,,,,,,,,,,,,,,,,,,,,,,,,,,,,,,,,,,,,,,,,,,,,,,,,,515.2081601000391,None,517.2099966998212,None,,,,,,,,,,,,,,,,,,,,,,,,,,,,,,,,,,,,,,,,,,,,,,,,,,,,,,,,,,,,,,,,,,,,,,,,,,24,001,2023_Mar_22_1150,ExactRep-v3-final,2021.2.3,59.95103190344348,
11,0,11,0,,,,,,,,,,,,,,,,,,,,,,,,,,,,,,,,,,,,,,,,,,,,,,,,,,,,,,,,,,,517.7104865000583,None,519.7124447999522,None,,,,,,,,,,,,,,,,,,,,,,,,,,,,,,,,,,,,,,,,,,,,,,,,,,,,,,,,,,,,,,,,,,,,,,,,,,24,001,2023_Mar_22_1150,ExactRep-v3-final,2021.2.3,59.95103190344348,
12,0,12,0,,,,,,,,,,,,,,,,,,,,,,,,,,,,,,,,,,,,,,,,,,,,,,,,,,,,,,,,,,,520.2146552000195,None,522.215026000049,None,,,,,,,,,,,,,,,,,,,,,,,,,,,,,,,,,,,,,,,,,,,,,,,,,,,,,,,,,,,,,,,,,,,,,,,,,,24,001,2023_Mar_22_1150,ExactRep-v3-final,2021.2.3,59.95103190344348,
13,0,13,0,,,,,,,,,,,,,,,,,,,,,,,,,,,,,,,,,,,,,,,,,,,,,,,,,,,,,,,,,,,522.7188240997493,None,524.7340219998732,None,,,,,,,,,,,,,,,,,,,,,,,,,,,,,,,,,,,,,,,,,,,,,,,,,,,,,,,,,,,,,,,,,,,,,,,,,,24,001,2023_Mar_22_1150,ExactRep-v3-final,2021.2.3,59.95103190344348,
14,0,14,0,,,,,,,,,,,,,,,,,,,,,,,,,,,,,,,,,,,,,,,,,,,,,,,,,,,,,,,,,,,525.241616900079,None,527.2532548001036,None,,,,,,,,,,,,,,,,,,,,,,,,,,,,,,,,,,,,,,,,,,,,,,,,,,,,,,,,,,,,,,,,,,,,,,,,,,24,001,2023_Mar_22_1150,ExactRep-v3-final,2021.2.3,59.95103190344348,
,,,,,,,,,,,,,,,,,,,,,,,,,,,,,,,,,,,,,,,,,,,,,,,,,,,,,,,,,,,,,,,,,,space,17.77617699978873,537.8669656999409,None,,,,,,,,,,,,,,,,,,,,,,,,,,,,,,,,,,,,,,,,,,,,,,,,,,,,,,,,,,,,,,,,,,,,,,24,001,2023_Mar_22_1150,ExactRep-v3-final,2021.2.3,59.95103190344348,
,,,,0,0,0,0,,,,,,,,,,,,,,,,,,,,,,,,,,,,,,,,,,,,,,,,,,,,,,,,,,,,,,,,,557.7172224000096,None,,,,,527.8834958998486,None,527.8834958998486,None,527.8834958998486,None,527.8834958998486,None,527.8834958998486,None,527.8834958998486,None,555.7060408000834,None,,,,,,,,,,,,,,,,,,,,,,,,,,,,,,,,,,,,,,,,,,,,,,,,,,,,,,,,24,001,2023_Mar_22_1150,ExactRep-v3-final,2021.2.3,59.95103190344348,
,,,,1,0,1,0,,,,,,,,,,,,,,,,,,,,,,,,,,,,,,,,,,,,,,,,,,,,,,,,,,,,,,,,,560.2197928000242,None,,,,,,,,,,,,,,,,,558.2176371999085,None,,,,,,,,,,,,,,,,,,,,,,,,,,,,,,,,,,,,,,,,,,,,,,,,,,,,,,,,24,001,2023_Mar_22_1150,ExactRep-v3-final,2021.2.3,59.95103190344348,
,,,,2,0,2,0,,,,,,,,,,,,,,,,,,,,,,,,,,,,,,,,,,,,,,,,,,,,,,,,,,,,,,,,,562.7220684001222,None,,,,,,,,,,,,,,,,,560.720023999922,None,,,,,,,,,,,,,,,,,,,,,,,,,,,,,,,,,,,,,,,,,,,,,,,,,,,,,,,,24,001,2023_Mar_22_1150,ExactRep-v3-final,2021.2.3,59.95103190344348,
,,,,3,0,3,0,,,,,,,,,,,,,,,,,,,,,,,,,,,,,,,,,,,,,,,,,,,,,,,,,,,,,,,,,565.2246806998737,None,,,,,,,,,,,,,,,,,563.222600299865,None,,,,,,,,,,,,,,,,,,,,,,,,,,,,,,,,,,,,,,,,,,,,,,,,,,,,,,,,24,001,2023_Mar_22_1150,ExactRep-v3-final,2021.2.3,59.95103190344348,
,,,,4,0,4,0,,,,,,,,,,,,,,,,,,,,,,,,,,,,,,,,,,,,,,,,,,,,,,,,,,,,,,,,,567.7271953001618,None,,,,,,,,,,,,,,,,,565.7252166997641,None,,,,,,,,,,,,,,,,,,,,,,,,,,,,,,,,,,,,,,,,,,,,,,,,,,,,,,,,24,001,2023_Mar_22_1150,ExactRep-v3-final,2021.2.3,59.95103190344348,
,,,,5,0,5,0,,,,,,,,,,,,,,,,,,,,,,,,,,,,,,,,,,,,,,,,,,,,,,,,,,,,,,,,,570.2297235997394,None,,,,,,,,,,,,,,,,,568.2277036998421,None,,,,,,,,,,,,,,,,,,,,,,,,,,,,,,,,,,,,,,,,,,,,,,,,,,,,,,,,24,001,2023_Mar_22_1150,ExactRep-v3-final,2021.2.3,59.95103190344348,
,,,,6,0,6,0,,,,,,,,,,,,,,,,,,,,,,,,,,,,,,,,,,,,,,,,,,,,,,,,,,,,,,,,,572.7320167999715,None,,,,,,,,,,,,,,,,,570.7302268999629,None,,,,,,,,,,,,,,,,,,,,,,,,,,,,,,,,,,,,,,,,,,,,,,,,,,,,,,,,24,001,2023_Mar_22_1150,ExactRep-v3-final,2021.2.3,59.95103190344348,
,,,,7,0,7,0,,,,,,,,,,,,,,,,,,,,,,,,,,,,,,,,,,,,,,,,,,,,,,,,,,,,,,,,,575.234713899903,None,,,,,,,,,,,,,,,,,573.2325490000658,None,,,,,,,,,,,,,,,,,,,,,,,,,,,,,,,,,,,,,,,,,,,,,,,,,,,,,,,,24,001,2023_Mar_22_1150,ExactRep-v3-final,2021.2.3,59.95103190344348,
,,,,8,0,8,0,,,,,,,,,,,,,,,,,,,,,,,,,,,,,,,,,,,,,,,,,,,,,,,,,,,,,,,,,577.7372165000997,None,,,,,,,,,,,,,,,,,575.7352269999683,None,,,,,,,,,,,,,,,,,,,,,,,,,,,,,,,,,,,,,,,,,,,,,,,,,,,,,,,,24,001,2023_Mar_22_1150,ExactRep-v3-final,2021.2.3,59.95103190344348,
,,,,9,0,9,0,,,,,,,,,,,,,,,,,,,,,,,,,,,,,,,,,,,,,,,,,,,,,,,,,,,,,,,,,580.2397190998308,None,,,,,,,,,,,,,,,,,578.2377240997739,None,,,,,,,,,,,,,,,,,,,,,,,,,,,,,,,,,,,,,,,,,,,,,,,,,,,,,,,,24,001,2023_Mar_22_1150,ExactRep-v3-final,2021.2.3,59.95103190344348,
,,,,10,0,10,0,,,,,,,,,,,,,,,,,,,,,,,,,,,,,,,,,,,,,,,,,,,,,,,,,,,,,,,,,582.7422202997841,None,,,,,,,,,,,,,,,,,580.7402476998977,None,,,,,,,,,,,,,,,,,,,,,,,,,,,,,,,,,,,,,,,,,,,,,,,,,,,,,,,,24,001,2023_Mar_22_1150,ExactRep-v3-final,2021.2.3,59.95103190344348,
,,,,11,0,11,0,,,,,,,,,,,,,,,,,,,,,,,,,,,,,,,,,,,,,,,,,,,,,,,,,,,,,,,,,585.2447373000905,None,,,,,,,,,,,,,,,,,583.2426887997426,None,,,,,,,,,,,,,,,,,,,,,,,,,,,,,,,,,,,,,,,,,,,,,,,,,,,,,,,,24,001,2023_Mar_22_1150,ExactRep-v3-final,2021.2.3,59.95103190344348,
,,,,12,0,12,0,,,,,,,,,,,,,,,,,,,,,,,,,,,,,,,,,,,,,,,,,,,,,,,,,,,,,,,,,587.7472084998153,None,,,,,,,,,,,,,,,,,585.7453401000239,None,,,,,,,,,,,,,,,,,,,,,,,,,,,,,,,,,,,,,,,,,,,,,,,,,,,,,,,,24,001,2023_Mar_22_1150,ExactRep-v3-final,2021.2.3,59.95103190344348,
,,,,13,0,13,0,,,,,,,,,,,,,,,,,,,,,,,,,,,,,,,,,,,,,,,,,,,,,,,,,,,,,,,,,590.2498142998666,None,,,,,,,,,,,,,,,,,588.2477505998686,None,,,,,,,,,,,,,,,,,,,,,,,,,,,,,,,,,,,,,,,,,,,,,,,,,,,,,,,,24,001,2023_Mar_22_1150,ExactRep-v3-final,2021.2.3,59.95103190344348,
,,,,14,0,14,0,,,,,,,,,,,,,,,,,,,,,,,,,,,,,,,,,,,,,,,,,,,,,,,,,,,,,,,,,592.7522279000841,None,,,,,,,,,,,,,,,,,590.75095829973,None,,,,,,,,,,,,,,,,,,,,,,,,,,,,,,,,,,,,,,,,,,,,,,,,,,,,,,,,24,001,2023_Mar_22_1150,ExactRep-v3-final,2021.2.3,59.95103190344348,
,,,,,,,,,,,,,,,,,,,,,,,,,,,,,,,,,,,,,,,,,,,,,,,,,,,,,,,,,,,,,,,,,,,,,,,,,,,,,,,,,,,,space,23.33711489988491,603.3698561000638,None,,,,,,,,,,,,,,,,,,,,,,,,,,,,,,,,,,,,,,,,,,,,,,,,,,,,24,001,2023_Mar_22_1150,ExactRep-v3-final,2021.2.3,59.95103190344348,
,,,,,,,,0,0,0,0,,,,,,,,,,,,,,,,,,,,,,,,,,,,,,,,,,,,,,,,,,,,,,,,,,,,,628.8214559997432,None,,,,,,,,,,,,,,,,,,,,,,,593.4048377997242,None,593.4048377997242,None,593.4048377997242,None,593.4048377997242,None,593.4048377997242,None,593.4048377997242,None,leader,102,1,aloud,white,626.8191303000785,None,None,626.8191303000785,None,,,,,,,,,,,,,,,,,,,,,,,,,,,,,,24,001,2023_Mar_22_1150,ExactRep-v3-final,2021.2.3,59.95103190344348,
,,,,,,,,1,0,1,0,,,,,,,,,,,,,,,,,,,,,,,,,,,,,,,,,,,,,,,,,,,,,,,,,,,,,631.3408622997813,None,,,,,,,,,,,,,,,,,,,,,,,,,,,,,,,,,,,mind,101,2,aloud,white,629.3316898997873,None,None,629.3316898997873,None,,,,,,,,,,,,,,,,,,,,,,,,,,,,,,24,001,2023_Mar_22_1150,ExactRep-v3-final,2021.2.3,59.95103190344348,
,,,,,,,,2,0,2,0,,,,,,,,,,,,,,,,,,,,,,,,,,,,,,,,,,,,,,,,,,,,,,,,,,,,,633.8598591997288,None,,,,,,,,,,,,,,,,,,,,,,,,,,,,,,,,,,,sea,64,3,silent,blue,631.8470181999728,None,None,631.8470181999728,None,,,,,,,,,,,,,,,,,,,,,,,,,,,,,,24,001,2023_Mar_22_1150,ExactRep-v3-final,2021.2.3,59.95103190344348,
,,,,,,,,3,0,3,0,,,,,,,,,,,,,,,,,,,,,,,,,,,,,,,,,,,,,,,,,,,,,,,,,,,,,636.3788767997175,None,,,,,,,,,,,,,,,,,,,,,,,,,,,,,,,,,,,heaven,27,4,sing,red,634.368681800086,None,None,634.368681800086,None,,,,,,,,,,,,,,,,,,,,,,,,,,,,,,24,001,2023_Mar_22_1150,ExactRep-v3-final,2021.2.3,59.95103190344348,
,,,,,,,,4,0,4,0,,,,,,,,,,,,,,,,,,,,,,,,,,,,,,,,,,,,,,,,,,,,,,,,,,,,,638.8817060999572,None,,,,,,,,,,,,,,,,,,,,,,,,,,,,,,,,,,,master,106,5,aloud,white,636.8796577998437,None,None,636.8796577998437,None,,,,,,,,,,,,,,,,,,,,,,,,,,,,,,24,001,2023_Mar_22_1150,ExactRep-v3-final,2021.2.3,59.95103190344348,
,,,,,,,,5,0,5,0,,,,,,,,,,,,,,,,,,,,,,,,,,,,,,,,,,,,,,,,,,,,,,,,,,,,,641.3841924997978,None,,,,,,,,,,,,,,,,,,,,,,,,,,,,,,,,,,,student,42,6,silent,blue,639.3850107998587,None,None,639.3850107998587,None,,,,,,,,,,,,,,,,,,,,,,,,,,,,,,24,001,2023_Mar_22_1150,ExactRep-v3-final,2021.2.3,59.95103190344348,
,,,,,,,,6,0,6,0,,,,,,,,,,,,,,,,,,,,,,,,,,,,,,,,,,,,,,,,,,,,,,,,,,,,,643.9034357001074,None,,,,,,,,,,,,,,,,,,,,,,,,,,,,,,,,,,,meeting,112,7,aloud,white,641.8930592001416,None,None,641.8930592001416,None,,,,,,,,,,,,,,,,,,,,,,,,,,,,,,24,001,2023_Mar_22_1150,ExactRep-v3-final,2021.2.3,59.95103190344348,
,,,,,,,,7,0,7,0,,,,,,,,,,,,,,,,,,,,,,,,,,,,,,,,,,,,,,,,,,,,,,,,,,,,,646.4059150000103,None,,,,,,,,,,,,,,,,,,,,,,,,,,,,,,,,,,,avenue,100,8,aloud,white,644.4036806998774,None,None,644.4036806998774,None,,,,,,,,,,,,,,,,,,,,,,,,,,,,,,24,001,2023_Mar_22_1150,ExactRep-v3-final,2021.2.3,59.95103190344348,
,,,,,,,,8,0,8,0,,,,,,,,,,,,,,,,,,,,,,,,,,,,,,,,,,,,,,,,,,,,,,,,,,,,,648.9083668999374,None,,,,,,,,,,,,,,,,,,,,,,,,,,,,,,,,,,,lad,79,9,sing,red,646.9089994998649,None,None,646.9089994998649,None,,,,,,,,,,,,,,,,,,,,,,,,,,,,,,24,001,2023_Mar_22_1150,ExactRep-v3-final,2021.2.3,59.95103190344348,
,,,,,,,,9,0,9,0,,,,,,,,,,,,,,,,,,,,,,,,,,,,,,,,,,,,,,,,,,,,,,,,,,,,,651.427433999721,None,,,,,,,,,,,,,,,,,,,,,,,,,,,,,,,,,,,grief,49,10,silent,blue,649.4135108999908,None,None,649.4135108999908,None,,,,,,,,,,,,,,,,,,,,,,,,,,,,,,24,001,2023_Mar_22_1150,ExactRep-v3-final,2021.2.3,59.95103190344348,
,,,,,,,,10,0,10,0,,,,,,,,,,,,,,,,,,,,,,,,,,,,,,,,,,,,,,,,,,,,,,,,,,,,,653.9467167998664,None,,,,,,,,,,,,,,,,,,,,,,,,,,,,,,,,,,,speech,103,11,aloud,white,651.942465600092,None,None,651.942465600092,None,,,,,,,,,,,,,,,,,,,,,,,,,,,,,,24,001,2023_Mar_22_1150,ExactRep-v3-final,2021.2.3,59.95103190344348,
,,,,,,,,11,0,11,0,,,,,,,,,,,,,,,,,,,,,,,,,,,,,,,,,,,,,,,,,,,,,,,,,,,,,656.4659807998687,None,,,,,,,,,,,,,,,,,,,,,,,,,,,,,,,,,,,shadow,33,12,sing,red,654.456540599931,None,None,654.456540599931,None,,,,,,,,,,,,,,,,,,,,,,,,,,,,,,24,001,2023_Mar_22_1150,ExactRep-v3-final,2021.2.3,59.95103190344348,
,,,,,,,,12,0,12,0,,,,,,,,,,,,,,,,,,,,,,,,,,,,,,,,,,,,,,,,,,,,,,,,,,,,,658.9683392997831,None,,,,,,,,,,,,,,,,,,,,,,,,,,,,,,,,,,,thought,65,13,silent,blue,656.9664169000462,None,None,656.9664169000462,None,,,,,,,,,,,,,,,,,,,,,,,,,,,,,,24,001,2023_Mar_22_1150,ExactRep-v3-final,2021.2.3,59.95103190344348,
,,,,,,,,13,0,13,0,,,,,,,,,,,,,,,,,,,,,,,,,,,,,,,,,,,,,,,,,,,,,,,,,,,,,661.471029299777,None,,,,,,,,,,,,,,,,,,,,,,,,,,,,,,,,,,,sugar,11,14,sing,red,659.4688758999109,None,None,659.4688758999109,None,,,,,,,,,,,,,,,,,,,,,,,,,,,,,,24,001,2023_Mar_22_1150,ExactRep-v3-final,2021.2.3,59.95103190344348,
,,,,,,,,14,0,14,0,,,,,,,,,,,,,,,,,,,,,,,,,,,,,,,,,,,,,,,,,,,,,,,,,,,,,663.9901294000447,None,,,,,,,,,,,,,,,,,,,,,,,,,,,,,,,,,,,ticket,1,15,sing,red,661.9802906997502,None,None,661.9802906997502,None,,,,,,,,,,,,,,,,,,,,,,,,,,,,,,24,001,2023_Mar_22_1150,ExactRep-v3-final,2021.2.3,59.95103190344348,
,,,,,,,,15,0,15,0,,,,,,,,,,,,,,,,,,,,,,,,,,,,,,,,,,,,,,,,,,,,,,,,,,,,,666.5096927997656,None,,,,,,,,,,,,,,,,,,,,,,,,,,,,,,,,,,,window,83,16,aloud,white,664.4942044001073,None,None,664.4942044001073,None,,,,,,,,,,,,,,,,,,,,,,,,,,,,,,24,001,2023_Mar_22_1150,ExactRep-v3-final,2021.2.3,59.95103190344348,
,,,,,,,,16,0,16,0,,,,,,,,,,,,,,,,,,,,,,,,,,,,,,,,,,,,,,,,,,,,,,,,,,,,,669.0118048000149,None,,,,,,,,,,,,,,,,,,,,,,,,,,,,,,,,,,,animal,118,17,aloud,white,667.0113089997321,None,None,667.0113089997321,None,,,,,,,,,,,,,,,,,,,,,,,,,,,,,,24,001,2023_Mar_22_1150,ExactRep-v3-final,2021.2.3,59.95103190344348,
,,,,,,,,17,0,17,0,,,,,,,,,,,,,,,,,,,,,,,,,,,,,,,,,,,,,,,,,,,,,,,,,,,,,671.5141169000417,None,,,,,,,,,,,,,,,,,,,,,,,,,,,,,,,,,,,chief,98,18,aloud,white,669.5145919998176,None,None,669.5145919998176,None,,,,,,,,,,,,,,,,,,,,,,,,,,,,,,24,001,2023_Mar_22_1150,ExactRep-v3-final,2021.2.3,59.95103190344348,
,,,,,,,,18,0,18,0,,,,,,,,,,,,,,,,,,,,,,,,,,,,,,,,,,,,,,,,,,,,,,,,,,,,,674.0334278000519,None,,,,,,,,,,,,,,,,,,,,,,,,,,,,,,,,,,,memory,17,19,sing,red,672.0187927000225,None,None,672.0187927000225,None,,,,,,,,,,,,,,,,,,,,,,,,,,,,,,24,001,2023_Mar_22_1150,ExactRep-v3-final,2021.2.3,59.95103190344348,
,,,,,,,,19,0,19,0,,,,,,,,,,,,,,,,,,,,,,,,,,,,,,,,,,,,,,,,,,,,,,,,,,,,,676.5360606000759,None,,,,,,,,,,,,,,,,,,,,,,,,,,,,,,,,,,,square,62,20,silent,blue,674.5367723000236,None,None,674.5367723000236,None,,,,,,,,,,,,,,,,,,,,,,,,,,,,,,24,001,2023_Mar_22_1150,ExactRep-v3-final,2021.2.3,59.95103190344348,
,,,,,,,,20,0,20,0,,,,,,,,,,,,,,,,,,,,,,,,,,,,,,,,,,,,,,,,,,,,,,,,,,,,,679.0384626998566,None,,,,,,,,,,,,,,,,,,,,,,,,,,,,,,,,,,,stone,57,21,silent,blue,677.0391571000218,None,None,677.0391571000218,None,,,,,,,,,,,,,,,,,,,,,,,,,,,,,,24,001,2023_Mar_22_1150,ExactRep-v3-final,2021.2.3,59.95103190344348,
,,,,,,,,21,0,21,0,,,,,,,,,,,,,,,,,,,,,,,,,,,,,,,,,,,,,,,,,,,,,,,,,,,,,681.5598800000735,None,,,,,,,,,,,,,,,,,,,,,,,,,,,,,,,,,,,sky,38,22,sing,red,679.5466122999787,None,None,679.5466122999787,None,,,,,,,,,,,,,,,,,,,,,,,,,,,,,,24,001,2023_Mar_22_1150,ExactRep-v3-final,2021.2.3,59.95103190344348,
,,,,,,,,22,0,22,0,,,,,,,,,,,,,,,,,,,,,,,,,,,,,,,,,,,,,,,,,,,,,,,,,,,,,684.0602661999874,None,,,,,,,,,,,,,,,,,,,,,,,,,,,,,,,,,,,seat,110,23,aloud,white,682.061268999707,None,None,682.061268999707,None,,,,,,,,,,,,,,,,,,,,,,,,,,,,,,24,001,2023_Mar_22_1150,ExactRep-v3-final,2021.2.3,59.95103190344348,
,,,,,,,,23,0,23,0,,,,,,,,,,,,,,,,,,,,,,,,,,,,,,,,,,,,,,,,,,,,,,,,,,,,,686.562673300039,None,,,,,,,,,,,,,,,,,,,,,,,,,,,,,,,,,,,disease,97,24,aloud,white,684.5618087998591,None,None,684.5618087998591,None,,,,,,,,,,,,,,,,,,,,,,,,,,,,,,24,001,2023_Mar_22_1150,ExactRep-v3-final,2021.2.3,59.95103190344348,
,,,,,,,,24,0,24,0,,,,,,,,,,,,,,,,,,,,,,,,,,,,,,,,,,,,,,,,,,,,,,,,,,,,,689.0817317999899,None,,,,,,,,,,,,,,,,,,,,,,,,,,,,,,,,,,,letter,19,25,sing,red,687.0684412000701,None,None,687.0684412000701,None,,,,,,,,,,,,,,,,,,,,,,,,,,,,,,24,001,2023_Mar_22_1150,ExactRep-v3-final,2021.2.3,59.95103190344348,
,,,,,,,,25,0,25,0,,,,,,,,,,,,,,,,,,,,,,,,,,,,,,,,,,,,,,,,,,,,,,,,,,,,,691.5844164998271,None,,,,,,,,,,,,,,,,,,,,,,,,,,,,,,,,,,,health,92,26,aloud,white,689.5821714000776,None,None,689.5821714000776,None,,,,,,,,,,,,,,,,,,,,,,,,,,,,,,24,001,2023_Mar_22_1150,ExactRep-v3-final,2021.2.3,59.95103190344348,
,,,,,,,,26,0,26,0,,,,,,,,,,,,,,,,,,,,,,,,,,,,,,,,,,,,,,,,,,,,,,,,,,,,,694.0866811997257,None,,,,,,,,,,,,,,,,,,,,,,,,,,,,,,,,,,,vision,24,27,sing,red,692.0877376999706,None,None,692.0877376999706,None,,,,,,,,,,,,,,,,,,,,,,,,,,,,,,24,001,2023_Mar_22_1150,ExactRep-v3-final,2021.2.3,59.95103190344348,
,,,,,,,,27,0,27,0,,,,,,,,,,,,,,,,,,,,,,,,,,,,,,,,,,,,,,,,,,,,,,,,,,,,,696.5892301001586,None,,,,,,,,,,,,,,,,,,,,,,,,,,,,,,,,,,,answer,40,28,silent,blue,694.5889588999562,None,None,694.5889588999562,None,,,,,,,,,,,,,,,,,,,,,,,,,,,,,,24,001,2023_Mar_22_1150,ExactRep-v3-final,2021.2.3,59.95103190344348,
,,,,,,,,28,0,28,0,,,,,,,,,,,,,,,,,,,,,,,,,,,,,,,,,,,,,,,,,,,,,,,,,,,,,699.1084859999828,None,,,,,,,,,,,,,,,,,,,,,,,,,,,,,,,,,,,clock,23,29,sing,red,697.0928297997452,None,None,697.0928297997452,None,,,,,,,,,,,,,,,,,,,,,,,,,,,,,,24,001,2023_Mar_22_1150,ExactRep-v3-final,2021.2.3,59.95103190344348,
,,,,,,,,29,0,29,0,,,,,,,,,,,,,,,,,,,,,,,,,,,,,,,,,,,,,,,,,,,,,,,,,,,,,701.6276635001414,None,,,,,,,,,,,,,,,,,,,,,,,,,,,,,,,,,,,slave,114,30,aloud,white,699.6124070999213,None,None,699.6124070999213,None,,,,,,,,,,,,,,,,,,,,,,,,,,,,,,24,001,2023_Mar_22_1150,ExactRep-v3-final,2021.2.3,59.95103190344348,
,,,,,,,,30,0,30,0,,,,,,,,,,,,,,,,,,,,,,,,,,,,,,,,,,,,,,,,,,,,,,,,,,,,,704.1303424998187,None,,,,,,,,,,,,,,,,,,,,,,,,,,,,,,,,,,,grass,47,31,silent,blue,702.1281054001302,None,None,702.1281054001302,None,,,,,,,,,,,,,,,,,,,,,,,,,,,,,,24,001,2023_Mar_22_1150,ExactRep-v3-final,2021.2.3,59.95103190344348,
,,,,,,,,31,0,31,0,,,,,,,,,,,,,,,,,,,,,,,,,,,,,,,,,,,,,,,,,,,,,,,,,,,,,706.6327550001442,None,,,,,,,,,,,,,,,,,,,,,,,,,,,,,,,,,,,woman,20,32,sing,red,704.6336436998099,None,None,704.6336436998099,None,,,,,,,,,,,,,,,,,,,,,,,,,,,,,,24,001,2023_Mar_22_1150,ExactRep-v3-final,2021.2.3,59.95103190344348,
,,,,,,,,32,0,32,0,,,,,,,,,,,,,,,,,,,,,,,,,,,,,,,,,,,,,,,,,,,,,,,,,,,,,709.1519272997975,None,,,,,,,,,,,,,,,,,,,,,,,,,,,,,,,,,,,tree,86,33,aloud,white,707.1414501001127,None,None,707.1414501001127,None,,,,,,,,,,,,,,,,,,,,,,,,,,,,,,24,001,2023_Mar_22_1150,ExactRep-v3-final,2021.2.3,59.95103190344348,
,,,,,,,,33,0,33,0,,,,,,,,,,,,,,,,,,,,,,,,,,,,,,,,,,,,,,,,,,,,,,,,,,,,,711.6543962997384,None,,,,,,,,,,,,,,,,,,,,,,,,,,,,,,,,,,,city,77,34,silent,blue,709.6530992998742,None,None,709.6530992998742,None,,,,,,,,,,,,,,,,,,,,,,,,,,,,,,24,001,2023_Mar_22_1150,ExactRep-v3-final,2021.2.3,59.95103190344348,
,,,,,,,,34,0,34,0,,,,,,,,,,,,,,,,,,,,,,,,,,,,,,,,,,,,,,,,,,,,,,,,,,,,,714.1568519999273,None,,,,,,,,,,,,,,,,,,,,,,,,,,,,,,,,,,,officer,117,35,aloud,white,712.1574265998788,None,None,712.1574265998788,None,,,,,,,,,,,,,,,,,,,,,,,,,,,,,,24,001,2023_Mar_22_1150,ExactRep-v3-final,2021.2.3,59.95103190344348,
,,,,,,,,35,0,35,0,,,,,,,,,,,,,,,,,,,,,,,,,,,,,,,,,,,,,,,,,,,,,,,,,,,,,716.6595581001602,None,,,,,,,,,,,,,,,,,,,,,,,,,,,,,,,,,,,murder,26,36,sing,red,714.6573561998084,None,None,714.6573561998084,None,,,,,,,,,,,,,,,,,,,,,,,,,,,,,,24,001,2023_Mar_22_1150,ExactRep-v3-final,2021.2.3,59.95103190344348,
,,,,,,,,36,0,36,0,,,,,,,,,,,,,,,,,,,,,,,,,,,,,,,,,,,,,,,,,,,,,,,,,,,,,719.1786031001247,None,,,,,,,,,,,,,,,,,,,,,,,,,,,,,,,,,,,death,69,37,silent,blue,717.1630158000626,None,None,717.1630158000626,None,,,,,,,,,,,,,,,,,,,,,,,,,,,,,,24,001,2023_Mar_22_1150,ExactRep-v3-final,2021.2.3,59.95103190344348,
,,,,,,,,37,0,37,0,,,,,,,,,,,,,,,,,,,,,,,,,,,,,,,,,,,,,,,,,,,,,,,,,,,,,721.6976876999252,None,,,,,,,,,,,,,,,,,,,,,,,,,,,,,,,,,,,glory,88,38,aloud,white,719.6821733997203,None,None,719.6821733997203,None,,,,,,,,,,,,,,,,,,,,,,,,,,,,,,24,001,2023_Mar_22_1150,ExactRep-v3-final,2021.2.3,59.95103190344348,
,,,,,,,,38,0,38,0,,,,,,,,,,,,,,,,,,,,,,,,,,,,,,,,,,,,,,,,,,,,,,,,,,,,,724.2169828000478,None,,,,,,,,,,,,,,,,,,,,,,,,,,,,,,,,,,,present,9,39,sing,red,722.2058716998436,None,None,722.2058716998436,None,,,,,,,,,,,,,,,,,,,,,,,,,,,,,,24,001,2023_Mar_22_1150,ExactRep-v3-final,2021.2.3,59.95103190344348,
,,,,,,,,39,0,39,0,,,,,,,,,,,,,,,,,,,,,,,,,,,,,,,,,,,,,,,,,,,,,,,,,,,,,726.7221479001455,None,,,,,,,,,,,,,,,,,,,,,,,,,,,,,,,,,,,fun,71,40,silent,blue,724.7184967999347,None,None,724.7184967999347,None,,,,,,,,,,,,,,,,,,,,,,,,,,,,,,24,001,2023_Mar_22_1150,ExactRep-v3-final,2021.2.3,59.95103190344348,
,,,,,,,,40,0,40,0,,,,,,,,,,,,,,,,,,,,,,,,,,,,,,,,,,,,,,,,,,,,,,,,,,,,,729.2553905998357,None,,,,,,,,,,,,,,,,,,,,,,,,,,,,,,,,,,,board,60,41,silent,blue,727.2427693000063,None,None,727.2427693000063,None,,,,,,,,,,,,,,,,,,,,,,,,,,,,,,24,001,2023_Mar_22_1150,ExactRep-v3-final,2021.2.3,59.95103190344348,
,,,,,,,,41,0,41,0,,,,,,,,,,,,,,,,,,,,,,,,,,,,,,,,,,,,,,,,,,,,,,,,,,,,,731.7578777000308,None,,,,,,,,,,,,,,,,,,,,,,,,,,,,,,,,,,,corner,52,42,silent,blue,729.7570589999668,None,None,729.7570589999668,None,,,,,,,,,,,,,,,,,,,,,,,,,,,,,,24,001,2023_Mar_22_1150,ExactRep-v3-final,2021.2.3,59.95103190344348,
,,,,,,,,42,0,42,0,,,,,,,,,,,,,,,,,,,,,,,,,,,,,,,,,,,,,,,,,,,,,,,,,,,,,734.2770305001177,None,,,,,,,,,,,,,,,,,,,,,,,,,,,,,,,,,,,steam,30,43,sing,red,732.2641086000949,None,None,732.2641086000949,None,,,,,,,,,,,,,,,,,,,,,,,,,,,,,,24,001,2023_Mar_22_1150,ExactRep-v3-final,2021.2.3,59.95103190344348,
,,,,,,,,43,0,43,0,,,,,,,,,,,,,,,,,,,,,,,,,,,,,,,,,,,,,,,,,,,,,,,,,,,,,736.7795501998626,None,,,,,,,,,,,,,,,,,,,,,,,,,,,,,,,,,,,market,15,44,sing,red,734.7787790000439,None,None,734.7787790000439,None,,,,,,,,,,,,,,,,,,,,,,,,,,,,,,24,001,2023_Mar_22_1150,ExactRep-v3-final,2021.2.3,59.95103190344348,
,,,,,,,,44,0,44,0,,,,,,,,,,,,,,,,,,,,,,,,,,,,,,,,,,,,,,,,,,,,,,,,,,,,,739.2820345000364,None,,,,,,,,,,,,,,,,,,,,,,,,,,,,,,,,,,,wine,115,45,aloud,white,737.2825486999936,None,None,737.2825486999936,None,,,,,,,,,,,,,,,,,,,,,,,,,,,,,,24,001,2023_Mar_22_1150,ExactRep-v3-final,2021.2.3,59.95103190344348,
,,,,,,,,45,0,45,0,,,,,,,,,,,,,,,,,,,,,,,,,,,,,,,,,,,,,,,,,,,,,,,,,,,,,741.7844337997958,None,,,,,,,,,,,,,,,,,,,,,,,,,,,,,,,,,,,power,75,46,silent,blue,739.7842852999456,None,None,739.7842852999456,None,,,,,,,,,,,,,,,,,,,,,,,,,,,,,,24,001,2023_Mar_22_1150,ExactRep-v3-final,2021.2.3,59.95103190344348,
,,,,,,,,46,0,46,0,,,,,,,,,,,,,,,,,,,,,,,,,,,,,,,,,,,,,,,,,,,,,,,,,,,,,744.2869401001371,None,,,,,,,,,,,,,,,,,,,,,,,,,,,,,,,,,,,humour,108,47,aloud,white,742.2866948000155,None,None,742.2866948000155,None,,,,,,,,,,,,,,,,,,,,,,,,,,,,,,24,001,2023_Mar_22_1150,ExactRep-v3-final,2021.2.3,59.95103190344348,
,,,,,,,,47,0,47,0,,,,,,,,,,,,,,,,,,,,,,,,,,,,,,,,,,,,,,,,,,,,,,,,,,,,,746.789593799971,None,,,,,,,,,,,,,,,,,,,,,,,,,,,,,,,,,,,amount,4,48,sing,red,744.7900974997319,None,None,744.7900974997319,None,,,,,,,,,,,,,,,,,,,,,,,,,,,,,,24,001,2023_Mar_22_1150,ExactRep-v3-final,2021.2.3,59.95103190344348,
,,,,,,,,48,0,48,0,,,,,,,,,,,,,,,,,,,,,,,,,,,,,,,,,,,,,,,,,,,,,,,,,,,,,749.3088162001222,None,,,,,,,,,,,,,,,,,,,,,,,,,,,,,,,,,,,lip,22,49,sing,red,747.2932382998988,None,None,747.2932382998988,None,,,,,,,,,,,,,,,,,,,,,,,,,,,,,,24,001,2023_Mar_22_1150,ExactRep-v3-final,2021.2.3,59.95103190344348,
,,,,,,,,49,0,49,0,,,,,,,,,,,,,,,,,,,,,,,,,,,,,,,,,,,,,,,,,,,,,,,,,,,,,751.811307599768,None,,,,,,,,,,,,,,,,,,,,,,,,,,,,,,,,,,,water,85,50,aloud,white,749.809125599917,None,None,749.809125599917,None,,,,,,,,,,,,,,,,,,,,,,,,,,,,,,24,001,2023_Mar_22_1150,ExactRep-v3-final,2021.2.3,59.95103190344348,
,,,,,,,,50,0,50,0,,,,,,,,,,,,,,,,,,,,,,,,,,,,,,,,,,,,,,,,,,,,,,,,,,,,,754.3302803998813,None,,,,,,,,,,,,,,,,,,,,,,,,,,,,,,,,,,,boy,55,51,silent,blue,752.3162078000605,None,None,752.3162078000605,None,,,,,,,,,,,,,,,,,,,,,,,,,,,,,,24,001,2023_Mar_22_1150,ExactRep-v3-final,2021.2.3,59.95103190344348,
,,,,,,,,51,0,51,0,,,,,,,,,,,,,,,,,,,,,,,,,,,,,,,,,,,,,,,,,,,,,,,,,,,,,756.8329634000547,None,,,,,,,,,,,,,,,,,,,,,,,,,,,,,,,,,,,shore,32,52,sing,red,754.8308795997873,None,None,754.8308795997873,None,,,,,,,,,,,,,,,,,,,,,,,,,,,,,,24,001,2023_Mar_22_1150,ExactRep-v3-final,2021.2.3,59.95103190344348,
,,,,,,,,52,0,52,0,,,,,,,,,,,,,,,,,,,,,,,,,,,,,,,,,,,,,,,,,,,,,,,,,,,,,759.3521413998678,None,,,,,,,,,,,,,,,,,,,,,,,,,,,,,,,,,,,justice,87,53,aloud,white,757.3371981000528,None,None,757.3371981000528,None,,,,,,,,,,,,,,,,,,,,,,,,,,,,,,24,001,2023_Mar_22_1150,ExactRep-v3-final,2021.2.3,59.95103190344348,
,,,,,,,,53,0,53,0,,,,,,,,,,,,,,,,,,,,,,,,,,,,,,,,,,,,,,,,,,,,,,,,,,,,,761.8546859999187,None,,,,,,,,,,,,,,,,,,,,,,,,,,,,,,,,,,,table,56,54,silent,blue,759.8549219998531,None,None,759.8549219998531,None,,,,,,,,,,,,,,,,,,,,,,,,,,,,,,24,001,2023_Mar_22_1150,ExactRep-v3-final,2021.2.3,59.95103190344348,
,,,,,,,,54,0,54,0,,,,,,,,,,,,,,,,,,,,,,,,,,,,,,,,,,,,,,,,,,,,,,,,,,,,,764.3738707001321,None,,,,,,,,,,,,,,,,,,,,,,,,,,,,,,,,,,,cabin,10,55,sing,red,762.3651302000508,None,None,762.3651302000508,None,,,,,,,,,,,,,,,,,,,,,,,,,,,,,,24,001,2023_Mar_22_1150,ExactRep-v3-final,2021.2.3,59.95103190344348,
,,,,,,,,55,0,55,0,,,,,,,,,,,,,,,,,,,,,,,,,,,,,,,,,,,,,,,,,,,,,,,,,,,,,766.8761180997826,None,,,,,,,,,,,,,,,,,,,,,,,,,,,,,,,,,,,opinion,82,56,aloud,white,764.8743239999749,None,None,764.8743239999749,None,,,,,,,,,,,,,,,,,,,,,,,,,,,,,,24,001,2023_Mar_22_1150,ExactRep-v3-final,2021.2.3,59.95103190344348,
,,,,,,,,56,0,56,0,,,,,,,,,,,,,,,,,,,,,,,,,,,,,,,,,,,,,,,,,,,,,,,,,,,,,769.3788751000538,None,,,,,,,,,,,,,,,,,,,,,,,,,,,,,,,,,,,safety,119,57,aloud,white,767.3766210000031,None,None,767.3766210000031,None,,,,,,,,,,,,,,,,,,,,,,,,,,,,,,24,001,2023_Mar_22_1150,ExactRep-v3-final,2021.2.3,59.95103190344348,
,,,,,,,,57,0,57,0,,,,,,,,,,,,,,,,,,,,,,,,,,,,,,,,,,,,,,,,,,,,,,,,,,,,,771.8812762997113,None,,,,,,,,,,,,,,,,,,,,,,,,,,,,,,,,,,,home,111,58,aloud,white,769.88097429974,None,None,769.88097429974,None,,,,,,,,,,,,,,,,,,,,,,,,,,,,,,24,001,2023_Mar_22_1150,ExactRep-v3-final,2021.2.3,59.95103190344348,
,,,,,,,,58,0,58,0,,,,,,,,,,,,,,,,,,,,,,,,,,,,,,,,,,,,,,,,,,,,,,,,,,,,,774.4005543999374,None,,,,,,,,,,,,,,,,,,,,,,,,,,,,,,,,,,,college,44,59,silent,blue,772.3864084999077,None,None,772.3864084999077,None,,,,,,,,,,,,,,,,,,,,,,,,,,,,,,24,001,2023_Mar_22_1150,ExactRep-v3-final,2021.2.3,59.95103190344348,
,,,,,,,,59,0,59,0,,,,,,,,,,,,,,,,,,,,,,,,,,,,,,,,,,,,,,,,,,,,,,,,,,,,,776.9030343997292,None,,,,,,,,,,,,,,,,,,,,,,,,,,,,,,,,,,,bowl,105,60,aloud,white,774.9022210999392,None,None,774.9022210999392,None,,,,,,,,,,,,,,,,,,,,,,,,,,,,,,24,001,2023_Mar_22_1150,ExactRep-v3-final,2021.2.3,59.95103190344348,
,,,,,,,,60,0,60,0,,,,,,,,,,,,,,,,,,,,,,,,,,,,,,,,,,,,,,,,,,,,,,,,,,,,,779.4222393999808,None,,,,,,,,,,,,,,,,,,,,,,,,,,,,,,,,,,,queen,28,61,sing,red,777.4094452001154,None,None,777.4094452001154,None,,,,,,,,,,,,,,,,,,,,,,,,,,,,,,24,001,2023_Mar_22_1150,ExactRep-v3-final,2021.2.3,59.95103190344348,
,,,,,,,,61,0,61,0,,,,,,,,,,,,,,,,,,,,,,,,,,,,,,,,,,,,,,,,,,,,,,,,,,,,,781.9247133000754,None,,,,,,,,,,,,,,,,,,,,,,,,,,,,,,,,,,,fate,72,62,silent,blue,779.9255454000086,None,None,779.9255454000086,None,,,,,,,,,,,,,,,,,,,,,,,,,,,,,,24,001,2023_Mar_22_1150,ExactRep-v3-final,2021.2.3,59.95103190344348,
,,,,,,,,62,0,62,0,,,,,,,,,,,,,,,,,,,,,,,,,,,,,,,,,,,,,,,,,,,,,,,,,,,,,784.4295049998909,None,,,,,,,,,,,,,,,,,,,,,,,,,,,,,,,,,,,car,51,63,silent,blue,782.4273640997708,None,None,782.4273640997708,None,,,,,,,,,,,,,,,,,,,,,,,,,,,,,,24,001,2023_Mar_22_1150,ExactRep-v3-final,2021.2.3,59.95103190344348,
,,,,,,,,63,0,63,0,,,,,,,,,,,,,,,,,,,,,,,,,,,,,,,,,,,,,,,,,,,,,,,,,,,,,786.9463678998873,None,,,,,,,,,,,,,,,,,,,,,,,,,,,,,,,,,,,passion,12,64,sing,red,784.9449804998003,None,None,784.9449804998003,None,,,,,,,,,,,,,,,,,,,,,,,,,,,,,,24,001,2023_Mar_22_1150,ExactRep-v3-final,2021.2.3,59.95103190344348,
,,,,,,,,64,0,64,0,,,,,,,,,,,,,,,,,,,,,,,,,,,,,,,,,,,,,,,,,,,,,,,,,,,,,789.4655550001189,None,,,,,,,,,,,,,,,,,,,,,,,,,,,,,,,,,,,gift,6,65,sing,red,787.450977599714,None,None,787.450977599714,None,,,,,,,,,,,,,,,,,,,,,,,,,,,,,,24,001,2023_Mar_22_1150,ExactRep-v3-final,2021.2.3,59.95103190344348,
,,,,,,,,65,0,65,0,,,,,,,,,,,,,,,,,,,,,,,,,,,,,,,,,,,,,,,,,,,,,,,,,,,,,791.9680686001666,None,,,,,,,,,,,,,,,,,,,,,,,,,,,,,,,,,,,engine,48,66,silent,blue,789.966031699907,None,None,789.966031699907,None,,,,,,,,,,,,,,,,,,,,,,,,,,,,,,24,001,2023_Mar_22_1150,ExactRep-v3-final,2021.2.3,59.95103190344348,
,,,,,,,,66,0,66,0,,,,,,,,,,,,,,,,,,,,,,,,,,,,,,,,,,,,,,,,,,,,,,,,,,,,,794.4872272997163,None,,,,,,,,,,,,,,,,,,,,,,,,,,,,,,,,,,,star,68,67,silent,blue,792.4770634998567,None,None,792.4770634998567,None,,,,,,,,,,,,,,,,,,,,,,,,,,,,,,24,001,2023_Mar_22_1150,ExactRep-v3-final,2021.2.3,59.95103190344348,
,,,,,,,,67,0,67,0,,,,,,,,,,,,,,,,,,,,,,,,,,,,,,,,,,,,,,,,,,,,,,,,,,,,,796.9898231001571,None,,,,,,,,,,,,,,,,,,,,,,,,,,,,,,,,,,,honour,0,68,sing,red,794.9895215998404,None,None,794.9895215998404,None,,,,,,,,,,,,,,,,,,,,,,,,,,,,,,24,001,2023_Mar_22_1150,ExactRep-v3-final,2021.2.3,59.95103190344348,
,,,,,,,,68,0,68,0,,,,,,,,,,,,,,,,,,,,,,,,,,,,,,,,,,,,,,,,,,,,,,,,,,,,,799.4923529997468,None,,,,,,,,,,,,,,,,,,,,,,,,,,,,,,,,,,,book,113,69,aloud,white,797.4922357001342,None,None,797.4922357001342,None,,,,,,,,,,,,,,,,,,,,,,,,,,,,,,24,001,2023_Mar_22_1150,ExactRep-v3-final,2021.2.3,59.95103190344348,
,,,,,,,,69,0,69,0,,,,,,,,,,,,,,,,,,,,,,,,,,,,,,,,,,,,,,,,,,,,,,,,,,,,,801.9948082999326,None,,,,,,,,,,,,,,,,,,,,,,,,,,,,,,,,,,,insect,3,70,sing,red,799.992642799858,None,None,799.992642799858,None,,,,,,,,,,,,,,,,,,,,,,,,,,,,,,24,001,2023_Mar_22_1150,ExactRep-v3-final,2021.2.3,59.95103190344348,
,,,,,,,,70,0,70,0,,,,,,,,,,,,,,,,,,,,,,,,,,,,,,,,,,,,,,,,,,,,,,,,,,,,,804.5139951999299,None,,,,,,,,,,,,,,,,,,,,,,,,,,,,,,,,,,,garden,36,71,sing,red,802.4997072997503,None,None,802.4997072997503,None,,,,,,,,,,,,,,,,,,,,,,,,,,,,,,24,001,2023_Mar_22_1150,ExactRep-v3-final,2021.2.3,59.95103190344348,
,,,,,,,,71,0,71,0,,,,,,,,,,,,,,,,,,,,,,,,,,,,,,,,,,,,,,,,,,,,,,,,,,,,,807.0164903998375,None,,,,,,,,,,,,,,,,,,,,,,,,,,,,,,,,,,,coast,37,72,sing,red,805.0144448000938,None,None,805.0144448000938,None,,,,,,,,,,,,,,,,,,,,,,,,,,,,,,24,001,2023_Mar_22_1150,ExactRep-v3-final,2021.2.3,59.95103190344348,
,,,,,,,,72,0,72,0,,,,,,,,,,,,,,,,,,,,,,,,,,,,,,,,,,,,,,,,,,,,,,,,,,,,,809.5355545999482,None,,,,,,,,,,,,,,,,,,,,,,,,,,,,,,,,,,,virtue,41,73,silent,blue,807.5226699998602,None,None,807.5226699998602,None,,,,,,,,,,,,,,,,,,,,,,,,,,,,,,24,001,2023_Mar_22_1150,ExactRep-v3-final,2021.2.3,59.95103190344348,
,,,,,,,,73,0,73,0,,,,,,,,,,,,,,,,,,,,,,,,,,,,,,,,,,,,,,,,,,,,,,,,,,,,,812.0380251999013,None,,,,,,,,,,,,,,,,,,,,,,,,,,,,,,,,,,,prison,104,74,aloud,white,810.0360121000558,None,None,810.0360121000558,None,,,,,,,,,,,,,,,,,,,,,,,,,,,,,,24,001,2023_Mar_22_1150,ExactRep-v3-final,2021.2.3,59.95103190344348,
,,,,,,,,74,0,74,0,,,,,,,,,,,,,,,,,,,,,,,,,,,,,,,,,,,,,,,,,,,,,,,,,,,,,814.5407019997947,None,,,,,,,,,,,,,,,,,,,,,,,,,,,,,,,,,,,tool,21,75,sing,red,812.538512900006,None,None,812.538512900006,None,,,,,,,,,,,,,,,,,,,,,,,,,,,,,,24,001,2023_Mar_22_1150,ExactRep-v3-final,2021.2.3,59.95103190344348,
,,,,,,,,75,0,75,0,,,,,,,,,,,,,,,,,,,,,,,,,,,,,,,,,,,,,,,,,,,,,,,,,,,,,817.0597648997791,None,,,,,,,,,,,,,,,,,,,,,,,,,,,,,,,,,,,breast,109,76,aloud,white,815.0509632998146,None,None,815.0509632998146,None,,,,,,,,,,,,,,,,,,,,,,,,,,,,,,24,001,2023_Mar_22_1150,ExactRep-v3-final,2021.2.3,59.95103190344348,
,,,,,,,,76,0,76,0,,,,,,,,,,,,,,,,,,,,,,,,,,,,,,,,,,,,,,,,,,,,,,,,,,,,,819.5621680999175,None,,,,,,,,,,,,,,,,,,,,,,,,,,,,,,,,,,,hour,59,77,silent,blue,817.5628774999641,None,None,817.5628774999641,None,,,,,,,,,,,,,,,,,,,,,,,,,,,,,,24,001,2023_Mar_22_1150,ExactRep-v3-final,2021.2.3,59.95103190344348,
,,,,,,,,77,0,77,0,,,,,,,,,,,,,,,,,,,,,,,,,,,,,,,,,,,,,,,,,,,,,,,,,,,,,822.0659730997868,None,,,,,,,,,,,,,,,,,,,,,,,,,,,,,,,,,,,church,74,78,silent,blue,820.0627187998034,None,None,820.0627187998034,None,,,,,,,,,,,,,,,,,,,,,,,,,,,,,,24,001,2023_Mar_22_1150,ExactRep-v3-final,2021.2.3,59.95103190344348,
,,,,,,,,78,0,78,0,,,,,,,,,,,,,,,,,,,,,,,,,,,,,,,,,,,,,,,,,,,,,,,,,,,,,824.5671447999775,None,,,,,,,,,,,,,,,,,,,,,,,,,,,,,,,,,,,cat,18,79,sing,red,822.5651694000699,None,None,822.5651694000699,None,,,,,,,,,,,,,,,,,,,,,,,,,,,,,,24,001,2023_Mar_22_1150,ExactRep-v3-final,2021.2.3,59.95103190344348,
,,,,,,,,79,0,79,0,,,,,,,,,,,,,,,,,,,,,,,,,,,,,,,,,,,,,,,,,,,,,,,,,,,,,827.0864980998449,None,,,,,,,,,,,,,,,,,,,,,,,,,,,,,,,,,,,diamond,66,80,silent,blue,825.0863749999553,None,None,825.0863749999553,None,,,,,,,,,,,,,,,,,,,,,,,,,,,,,,24,001,2023_Mar_22_1150,ExactRep-v3-final,2021.2.3,59.95103190344348,
,,,,,,,,80,0,80,0,,,,,,,,,,,,,,,,,,,,,,,,,,,,,,,,,,,,,,,,,,,,,,,,,,,,,829.5890645999461,None,,,,,,,,,,,,,,,,,,,,,,,,,,,,,,,,,,,doctor,14,81,sing,red,827.5884241997264,None,None,827.5884241997264,None,,,,,,,,,,,,,,,,,,,,,,,,,,,,,,24,001,2023_Mar_22_1150,ExactRep-v3-final,2021.2.3,59.95103190344348,
,,,,,,,,81,0,81,0,,,,,,,,,,,,,,,,,,,,,,,,,,,,,,,,,,,,,,,,,,,,,,,,,,,,,832.0915969000198,None,,,,,,,,,,,,,,,,,,,,,,,,,,,,,,,,,,,party,53,82,silent,blue,830.0893783997744,None,None,830.0893783997744,None,,,,,,,,,,,,,,,,,,,,,,,,,,,,,,24,001,2023_Mar_22_1150,ExactRep-v3-final,2021.2.3,59.95103190344348,
,,,,,,,,82,0,82,0,,,,,,,,,,,,,,,,,,,,,,,,,,,,,,,,,,,,,,,,,,,,,,,,,,,,,834.5940505997278,None,,,,,,,,,,,,,,,,,,,,,,,,,,,,,,,,,,,science,5,83,sing,red,832.5937780998647,None,None,832.5937780998647,None,,,,,,,,,,,,,,,,,,,,,,,,,,,,,,24,001,2023_Mar_22_1150,ExactRep-v3-final,2021.2.3,59.95103190344348,
,,,,,,,,83,0,83,0,,,,,,,,,,,,,,,,,,,,,,,,,,,,,,,,,,,,,,,,,,,,,,,,,,,,,837.096557199955,None,,,,,,,,,,,,,,,,,,,,,,,,,,,,,,,,,,,effort,13,84,sing,red,835.0965386000462,None,None,835.0965386000462,None,,,,,,,,,,,,,,,,,,,,,,,,,,,,,,24,001,2023_Mar_22_1150,ExactRep-v3-final,2021.2.3,59.95103190344348,
,,,,,,,,84,0,84,0,,,,,,,,,,,,,,,,,,,,,,,,,,,,,,,,,,,,,,,,,,,,,,,,,,,,,839.6155969998799,None,,,,,,,,,,,,,,,,,,,,,,,,,,,,,,,,,,,artist,16,85,sing,red,837.6057015000843,None,None,837.6057015000843,None,,,,,,,,,,,,,,,,,,,,,,,,,,,,,,24,001,2023_Mar_22_1150,ExactRep-v3-final,2021.2.3,59.95103190344348,
,,,,,,,,85,0,85,0,,,,,,,,,,,,,,,,,,,,,,,,,,,,,,,,,,,,,,,,,,,,,,,,,,,,,842.1181537001394,None,,,,,,,,,,,,,,,,,,,,,,,,,,,,,,,,,,,bottle,45,86,silent,blue,840.1162213999778,None,None,840.1162213999778,None,,,,,,,,,,,,,,,,,,,,,,,,,,,,,,24,001,2023_Mar_22_1150,ExactRep-v3-final,2021.2.3,59.95103190344348,
,,,,,,,,86,0,86,0,,,,,,,,,,,,,,,,,,,,,,,,,,,,,,,,,,,,,,,,,,,,,,,,,,,,,844.6207954999991,None,,,,,,,,,,,,,,,,,,,,,,,,,,,,,,,,,,,teacher,93,87,aloud,white,842.6186008001678,None,None,842.6186008001678,None,,,,,,,,,,,,,,,,,,,,,,,,,,,,,,24,001,2023_Mar_22_1150,ExactRep-v3-final,2021.2.3,59.95103190344348,
,,,,,,,,87,0,87,0,,,,,,,,,,,,,,,,,,,,,,,,,,,,,,,,,,,,,,,,,,,,,,,,,,,,,847.1230381000787,None,,,,,,,,,,,,,,,,,,,,,,,,,,,,,,,,,,,mother,54,88,silent,blue,845.1229626000859,None,None,845.1229626000859,None,,,,,,,,,,,,,,,,,,,,,,,,,,,,,,24,001,2023_Mar_22_1150,ExactRep-v3-final,2021.2.3,59.95103190344348,
,,,,,,,,88,0,88,0,,,,,,,,,,,,,,,,,,,,,,,,,,,,,,,,,,,,,,,,,,,,,,,,,,,,,849.6421885997988,None,,,,,,,,,,,,,,,,,,,,,,,,,,,,,,,,,,,chair,39,89,silent,blue,847.6335928998888,None,None,847.6335928998888,None,,,,,,,,,,,,,,,,,,,,,,,,,,,,,,24,001,2023_Mar_22_1150,ExactRep-v3-final,2021.2.3,59.95103190344348,
,,,,,,,,89,0,89,0,,,,,,,,,,,,,,,,,,,,,,,,,,,,,,,,,,,,,,,,,,,,,,,,,,,,,852.1449396000244,None,,,,,,,,,,,,,,,,,,,,,,,,,,,,,,,,,,,circle,58,90,silent,blue,850.1454602000304,None,None,850.1454602000304,None,,,,,,,,,,,,,,,,,,,,,,,,,,,,,,24,001,2023_Mar_22_1150,ExactRep-v3-final,2021.2.3,59.95103190344348,
,,,,,,,,90,0,90,0,,,,,,,,,,,,,,,,,,,,,,,,,,,,,,,,,,,,,,,,,,,,,,,,,,,,,854.6641270997934,None,,,,,,,,,,,,,,,,,,,,,,,,,,,,,,,,,,,vessel,84,91,aloud,white,852.6485755001195,None,None,852.6485755001195,None,,,,,,,,,,,,,,,,,,,,,,,,,,,,,,24,001,2023_Mar_22_1150,ExactRep-v3-final,2021.2.3,59.95103190344348,
,,,,,,,,91,0,91,0,,,,,,,,,,,,,,,,,,,,,,,,,,,,,,,,,,,,,,,,,,,,,,,,,,,,,857.1833178000525,None,,,,,,,,,,,,,,,,,,,,,,,,,,,,,,,,,,,product,80,92,aloud,white,855.1677708998322,None,None,855.1677708998322,None,,,,,,,,,,,,,,,,,,,,,,,,,,,,,,24,001,2023_Mar_22_1150,ExactRep-v3-final,2021.2.3,59.95103190344348,
,,,,,,,,92,0,92,0,,,,,,,,,,,,,,,,,,,,,,,,,,,,,,,,,,,,,,,,,,,,,,,,,,,,,859.7025929000229,None,,,,,,,,,,,,,,,,,,,,,,,,,,,,,,,,,,,flesh,90,93,aloud,white,857.6905368999578,None,None,857.6905368999578,None,,,,,,,,,,,,,,,,,,,,,,,,,,,,,,24,001,2023_Mar_22_1150,ExactRep-v3-final,2021.2.3,59.95103190344348,
,,,,,,,,93,0,93,0,,,,,,,,,,,,,,,,,,,,,,,,,,,,,,,,,,,,,,,,,,,,,,,,,,,,,862.2049795999192,None,,,,,,,,,,,,,,,,,,,,,,,,,,,,,,,,,,,owner,50,94,silent,blue,860.2049179999158,None,None,860.2049179999158,None,,,,,,,,,,,,,,,,,,,,,,,,,,,,,,24,001,2023_Mar_22_1150,ExactRep-v3-final,2021.2.3,59.95103190344348,
,,,,,,,,94,0,94,0,,,,,,,,,,,,,,,,,,,,,,,,,,,,,,,,,,,,,,,,,,,,,,,,,,,,,864.7075386997312,None,,,,,,,,,,,,,,,,,,,,,,,,,,,,,,,,,,,child,91,95,aloud,white,862.7067992999218,None,None,862.7067992999218,None,,,,,,,,,,,,,,,,,,,,,,,,,,,,,,24,001,2023_Mar_22_1150,ExactRep-v3-final,2021.2.3,59.95103190344348,
,,,,,,,,95,0,95,0,,,,,,,,,,,,,,,,,,,,,,,,,,,,,,,,,,,,,,,,,,,,,,,,,,,,,867.2101130997762,None,,,,,,,,,,,,,,,,,,,,,,,,,,,,,,,,,,,theory,81,96,aloud,white,865.2110787997954,None,None,865.2110787997954,None,,,,,,,,,,,,,,,,,,,,,,,,,,,,,,24,001,2023_Mar_22_1150,ExactRep-v3-final,2021.2.3,59.95103190344348,
,,,,,,,,96,0,96,0,,,,,,,,,,,,,,,,,,,,,,,,,,,,,,,,,,,,,,,,,,,,,,,,,,,,,869.728986799717,None,,,,,,,,,,,,,,,,,,,,,,,,,,,,,,,,,,,pipe,116,97,aloud,white,867.7148583000526,None,None,867.7148583000526,None,,,,,,,,,,,,,,,,,,,,,,,,,,,,,,24,001,2023_Mar_22_1150,ExactRep-v3-final,2021.2.3,59.95103190344348,
,,,,,,,,97,0,97,0,,,,,,,,,,,,,,,,,,,,,,,,,,,,,,,,,,,,,,,,,,,,,,,,,,,,,872.2482619998045,None,,,,,,,,,,,,,,,,,,,,,,,,,,,,,,,,,,,form,78,98,silent,blue,870.2344610998407,None,None,870.2344610998407,None,,,,,,,,,,,,,,,,,,,,,,,,,,,,,,24,001,2023_Mar_22_1150,ExactRep-v3-final,2021.2.3,59.95103190344348,
,,,,,,,,98,0,98,0,,,,,,,,,,,,,,,,,,,,,,,,,,,,,,,,,,,,,,,,,,,,,,,,,,,,,874.7675457000732,None,,,,,,,,,,,,,,,,,,,,,,,,,,,,,,,,,,,factory,73,99,silent,blue,872.7525450997055,None,None,872.7525450997055,None,,,,,,,,,,,,,,,,,,,,,,,,,,,,,,24,001,2023_Mar_22_1150,ExactRep-v3-final,2021.2.3,59.95103190344348,
,,,,,,,,99,0,99,0,,,,,,,,,,,,,,,,,,,,,,,,,,,,,,,,,,,,,,,,,,,,,,,,,,,,,877.2700800001621,None,,,,,,,,,,,,,,,,,,,,,,,,,,,,,,,,,,,custom,46,100,silent,blue,875.2679146998562,None,None,875.2679146998562,None,,,,,,,,,,,,,,,,,,,,,,,,,,,,,,24,001,2023_Mar_22_1150,ExactRep-v3-final,2021.2.3,59.95103190344348,
,,,,,,,,100,0,100,0,,,,,,,,,,,,,,,,,,,,,,,,,,,,,,,,,,,,,,,,,,,,,,,,,,,,,879.7892983001657,None,,,,,,,,,,,,,,,,,,,,,,,,,,,,,,,,,,,meadow,99,101,aloud,white,877.7746731000952,None,None,877.7746731000952,None,,,,,,,,,,,,,,,,,,,,,,,,,,,,,,24,001,2023_Mar_22_1150,ExactRep-v3-final,2021.2.3,59.95103190344348,
,,,,,,,,101,0,101,0,,,,,,,,,,,,,,,,,,,,,,,,,,,,,,,,,,,,,,,,,,,,,,,,,,,,,882.2917388998903,None,,,,,,,,,,,,,,,,,,,,,,,,,,,,,,,,,,,door,76,102,silent,blue,880.292401699815,None,None,880.292401699815,None,,,,,,,,,,,,,,,,,,,,,,,,,,,,,,24,001,2023_Mar_22_1150,ExactRep-v3-final,2021.2.3,59.95103190344348,
,,,,,,,,102,0,102,0,,,,,,,,,,,,,,,,,,,,,,,,,,,,,,,,,,,,,,,,,,,,,,,,,,,,,884.8109603999183,None,,,,,,,,,,,,,,,,,,,,,,,,,,,,,,,,,,,plant,43,103,silent,blue,882.7973540001549,None,None,882.7973540001549,None,,,,,,,,,,,,,,,,,,,,,,,,,,,,,,24,001,2023_Mar_22_1150,ExactRep-v3-final,2021.2.3,59.95103190344348,
,,,,,,,,103,0,103,0,,,,,,,,,,,,,,,,,,,,,,,,,,,,,,,,,,,,,,,,,,,,,,,,,,,,,887.3134269998409,None,,,,,,,,,,,,,,,,,,,,,,,,,,,,,,,,,,,metal,25,104,sing,red,885.3124498999678,None,None,885.3124498999678,None,,,,,,,,,,,,,,,,,,,,,,,,,,,,,,24,001,2023_Mar_22_1150,ExactRep-v3-final,2021.2.3,59.95103190344348,
,,,,,,,,104,0,104,0,,,,,,,,,,,,,,,,,,,,,,,,,,,,,,,,,,,,,,,,,,,,,,,,,,,,,889.8325815000571,None,,,,,,,,,,,,,,,,,,,,,,,,,,,,,,,,,,,kiss,61,105,silent,blue,887.8246379001066,None,None,887.8246379001066,None,,,,,,,,,,,,,,,,,,,,,,,,,,,,,,24,001,2023_Mar_22_1150,ExactRep-v3-final,2021.2.3,59.95103190344348,
,,,,,,,,105,0,105,0,,,,,,,,,,,,,,,,,,,,,,,,,,,,,,,,,,,,,,,,,,,,,,,,,,,,,892.3349677999504,None,,,,,,,,,,,,,,,,,,,,,,,,,,,,,,,,,,,meat,67,106,silent,blue,890.3355195997283,None,None,890.3355195997283,None,,,,,,,,,,,,,,,,,,,,,,,,,,,,,,24,001,2023_Mar_22_1150,ExactRep-v3-final,2021.2.3,59.95103190344348,
,,,,,,,,106,0,106,0,,,,,,,,,,,,,,,,,,,,,,,,,,,,,,,,,,,,,,,,,,,,,,,,,,,,,894.837463799864,None,,,,,,,,,,,,,,,,,,,,,,,,,,,,,,,,,,,storm,34,107,sing,red,892.835551599972,None,None,892.835551599972,None,,,,,,,,,,,,,,,,,,,,,,,,,,,,,,24,001,2023_Mar_22_1150,ExactRep-v3-final,2021.2.3,59.95103190344348,
,,,,,,,,107,0,107,0,,,,,,,,,,,,,,,,,,,,,,,,,,,,,,,,,,,,,,,,,,,,,,,,,,,,,897.3568734000437,None,,,,,,,,,,,,,,,,,,,,,,,,,,,,,,,,,,,mercy,70,108,silent,blue,895.3478421997279,None,None,895.3478421997279,None,,,,,,,,,,,,,,,,,,,,,,,,,,,,,,24,001,2023_Mar_22_1150,ExactRep-v3-final,2021.2.3,59.95103190344348,
,,,,,,,,108,0,108,0,,,,,,,,,,,,,,,,,,,,,,,,,,,,,,,,,,,,,,,,,,,,,,,,,,,,,899.8592691998929,None,,,,,,,,,,,,,,,,,,,,,,,,,,,,,,,,,,,lord,95,109,aloud,white,897.8582259998657,None,None,897.8582259998657,None,,,,,,,,,,,,,,,,,,,,,,,,,,,,,,24,001,2023_Mar_22_1150,ExactRep-v3-final,2021.2.3,59.95103190344348,
,,,,,,,,109,0,109,0,,,,,,,,,,,,,,,,,,,,,,,,,,,,,,,,,,,,,,,,,,,,,,,,,,,,,902.3615282000974,None,,,,,,,,,,,,,,,,,,,,,,,,,,,,,,,,,,,gold,94,110,aloud,white,900.36175739998,None,None,900.36175739998,None,,,,,,,,,,,,,,,,,,,,,,,,,,,,,,24,001,2023_Mar_22_1150,ExactRep-v3-final,2021.2.3,59.95103190344348,
,,,,,,,,110,0,110,0,,,,,,,,,,,,,,,,,,,,,,,,,,,,,,,,,,,,,,,,,,,,,,,,,,,,,904.8641413999721,None,,,,,,,,,,,,,,,,,,,,,,,,,,,,,,,,,,,money,35,111,sing,red,902.8623442999087,None,None,902.8623442999087,None,,,,,,,,,,,,,,,,,,,,,,,,,,,,,,24,001,2023_Mar_22_1150,ExactRep-v3-final,2021.2.3,59.95103190344348,
,,,,,,,,111,0,111,0,,,,,,,,,,,,,,,,,,,,,,,,,,,,,,,,,,,,,,,,,,,,,,,,,,,,,907.3835398000665,None,,,,,,,,,,,,,,,,,,,,,,,,,,,,,,,,,,,pupil,89,112,aloud,white,905.3732414999977,None,None,905.3732414999977,None,,,,,,,,,,,,,,,,,,,,,,,,,,,,,,24,001,2023_Mar_22_1150,ExactRep-v3-final,2021.2.3,59.95103190344348,
,,,,,,,,112,0,112,0,,,,,,,,,,,,,,,,,,,,,,,,,,,,,,,,,,,,,,,,,,,,,,,,,,,,,909.8860879000276,None,,,,,,,,,,,,,,,,,,,,,,,,,,,,,,,,,,,fact,31,113,sing,red,907.8838538001291,None,None,907.8838538001291,None,,,,,,,,,,,,,,,,,,,,,,,,,,,,,,24,001,2023_Mar_22_1150,ExactRep-v3-final,2021.2.3,59.95103190344348,
,,,,,,,,113,0,113,0,,,,,,,,,,,,,,,,,,,,,,,,,,,,,,,,,,,,,,,,,,,,,,,,,,,,,912.4049983997829,None,,,,,,,,,,,,,,,,,,,,,,,,,,,,,,,,,,,lake,29,114,sing,red,910.3921568999067,None,None,910.3921568999067,None,,,,,,,,,,,,,,,,,,,,,,,,,,,,,,24,001,2023_Mar_22_1150,ExactRep-v3-final,2021.2.3,59.95103190344348,
,,,,,,,,114,0,114,0,,,,,,,,,,,,,,,,,,,,,,,,,,,,,,,,,,,,,,,,,,,,,,,,,,,,,914.907542699948,None,,,,,,,,,,,,,,,,,,,,,,,,,,,,,,,,,,,picture,2,115,sing,red,912.9055232997052,None,None,912.9055232997052,None,,,,,,,,,,,,,,,,,,,,,,,,,,,,,,24,001,2023_Mar_22_1150,ExactRep-v3-final,2021.2.3,59.95103190344348,
,,,,,,,,115,0,115,0,,,,,,,,,,,,,,,,,,,,,,,,,,,,,,,,,,,,,,,,,,,,,,,,,,,,,917.4101951001212,None,,,,,,,,,,,,,,,,,,,,,,,,,,,,,,,,,,,plain,8,116,sing,red,915.4101622998714,None,None,915.4101622998714,None,,,,,,,,,,,,,,,,,,,,,,,,,,,,,,24,001,2023_Mar_22_1150,ExactRep-v3-final,2021.2.3,59.95103190344348,
,,,,,,,,116,0,116,0,,,,,,,,,,,,,,,,,,,,,,,,,,,,,,,,,,,,,,,,,,,,,,,,,,,,,919.9126999997534,None,,,,,,,,,,,,,,,,,,,,,,,,,,,,,,,,,,,priest,7,117,sing,red,917.913650999777,None,None,917.913650999777,None,,,,,,,,,,,,,,,,,,,,,,,,,,,,,,24,001,2023_Mar_22_1150,ExactRep-v3-final,2021.2.3,59.95103190344348,
,,,,,,,,117,0,117,0,,,,,,,,,,,,,,,,,,,,,,,,,,,,,,,,,,,,,,,,,,,,,,,,,,,,,922.4319011000916,None,,,,,,,,,,,,,,,,,,,,,,,,,,,,,,,,,,,arm,96,118,aloud,white,920.4164943997748,None,None,920.4164943997748,None,,,,,,,,,,,,,,,,,,,,,,,,,,,,,,24,001,2023_Mar_22_1150,ExactRep-v3-final,2021.2.3,59.95103190344348,
,,,,,,,,118,0,118,0,,,,,,,,,,,,,,,,,,,,,,,,,,,,,,,,,,,,,,,,,,,,,,,,,,,,,924.9509803997353,None,,,,,,,,,,,,,,,,,,,,,,,,,,,,,,,,,,,author,63,119,silent,blue,922.93550160015,None,None,922.93550160015,None,,,,,,,,,,,,,,,,,,,,,,,,,,,,,,24,001,2023_Mar_22_1150,ExactRep-v3-final,2021.2.3,59.95103190344348,
,,,,,,,,119,0,119,0,,,,,,,,,,,,,,,,,,,,,,,,,,,,,,,,,,,,,,,,,,,,,,,,,,,,,927.4536068998277,None,,,,,,,,,,,,,,,,,,,,,,,,,,,,,,,,,,,library,107,120,aloud,white,925.4524052999914,None,None,925.4524052999914,None,,,,,,,,,,,,,,,,,,,,,,,,,,,,,,24,001,2023_Mar_22_1150,ExactRep-v3-final,2021.2.3,59.95103190344348,
,,,,,,,,,,,,,,,,,,,,,,,,,,,,,,,,,,,,,,,,,,,,,,,,,,,,,,,,,,,,,,,,,,,,,,,,,,,,,,,,,,,,,,,,,,,,,,,,,,,,,,,,,,,,,,927.9556398997083,None,space,3.6076022000052035,937.9320630999282,None,,,,,,,,,,,,,,,,,,,,,,,,24,001,2023_Mar_22_1150,ExactRep-v3-final,2021.2.3,59.95103190344348,
,,,,,,,,,,,,,,,,,,,,,,,,,,,,,,,,,,,,,,,,,,,,,,,,,,,,,,,,,,,,,,,,,,,,,,,,,,,,,,,,,,,,,,,,,,,,,,,,,,,,,,,,,,,,,,,,,,,,941.5694766999222,None,space,30.217869999818504,951.5457425001077,None,,,,,,,,,,,,,,,,,,24,001,2023_Mar_22_1150,ExactRep-v3-final,2021.2.3,59.95103190344348,
,,,,,,,,,,,,0,0,0,0,,,,,,,,,,,,,,,,,,,,,,,,,,,,,,,,,,,,,,,,,,,,,,,,,986.4454994997941,None,,,,,,,,,,,,,,,,,,,,,,,,,,,,,,,,,,,,,,,,,,,,,,,,,,,,,,,,,journal,219,1,sing,new,yellow,982.3071431000717,None,n,982.3071431000717,None,"['n', 'return']","[2.168289199937135, 4.104128899984062]",982.3071431000717,None,,,24,001,2023_Mar_22_1150,ExactRep-v3-final,2021.2.3,59.95103190344348,
,,,,,,,,,,,,1,0,1,0,,,,,,,,,,,,,,,,,,,,,,,,,,,,,,,,,,,,,,,,,,,,,,,,,988.9816732001491,None,,,,,,,,,,,,,,,,,,,,,,,,,,,,,,,,,,,,,,,,,,,,,,,,,,,,,,,,,tool,21,2,sing,old,yellow,986.9487507999875,None,y,986.9487507999875,None,"['y', 'return']","[1.3186927000060678, 1.9986576000228524]",986.9487507999875,None,,,24,001,2023_Mar_22_1150,ExactRep-v3-final,2021.2.3,59.95103190344348,
,,,,,,,,,,,,2,0,2,0,,,,,,,,,,,,,,,,,,,,,,,,,,,,,,,,,,,,,,,,,,,,,,,,,990.716618699953,None,,,,,,,,,,,,,,,,,,,,,,,,,,,,,,,,,,,,,,,,,,,,,,,,,,,,,,,,,gold,94,3,aloud,old,yellow,989.4903914998285,None,y,989.4903914998285,None,"['y', 'return']","[0.8089035996235907, 1.184956300072372]",989.4903914998285,None,,,24,001,2023_Mar_22_1150,ExactRep-v3-final,2021.2.3,59.95103190344348,
,,,,,,,,,,,,3,0,3,0,,,,,,,,,,,,,,,,,,,,,,,,,,,,,,,,,,,,,,,,,,,,,,,,,993.0688579999842,None,,,,,,,,,,,,,,,,,,,,,,,,,,,,,,,,,,,,,,,,,,,,,,,,,,,,,,,,,fur,217,4,sing,new,yellow,991.2258787997998,None,n,991.2258787997998,None,"['n', 'return']","[1.4017546996474266, 1.8093848996795714]",991.2258787997998,None,,,24,001,2023_Mar_22_1150,ExactRep-v3-final,2021.2.3,59.95103190344348,
,,,,,,,,,,,,4,0,4,0,,,,,,,,,,,,,,,,,,,,,,,,,,,,,,,,,,,,,,,,,,,,,,,,,994.8207296999171,None,,,,,,,,,,,,,,,,,,,,,,,,,,,,,,,,,,,,,,,,,,,,,,,,,,,,,,,,,hall,208,5,aloud,new,yellow,993.5785678001121,None,n,993.5785678001121,None,"['n', 'return']","[0.8730434998869896, 1.2087646001018584]",993.5785678001121,None,,,24,001,2023_Mar_22_1150,ExactRep-v3-final,2021.2.3,59.95103190344348,
,,,,,,,,,,,,5,0,5,0,,,,,,,,,,,,,,,,,,,,,,,,,,,,,,,,,,,,,,,,,,,,,,,,,998.4910619999282,None,,,,,,,,,,,,,,,,,,,,,,,,,,,,,,,,,,,,,,,,,,,,,,,,,,,,,,,,,method,164,6,aloud,new,yellow,995.3285320997238,None,y,995.3285320997238,None,"['y', 'return']","[2.7630703998729587, 3.114856599830091]",995.3285320997238,None,,,24,001,2023_Mar_22_1150,ExactRep-v3-final,2021.2.3,59.95103190344348,
,,,,,,,,,,,,6,0,6,0,,,,,,,,,,,,,,,,,,,,,,,,,,,,,,,,,,,,,,,,,,,,,,,,,1000.7600607001223,None,,,,,,,,,,,,,,,,,,,,,,,,,,,,,,,,,,,,,,,,,,,,,,,,,,,,,,,,,rock,173,7,sing,new,yellow,999.0030338000506,None,n,999.0030338000506,None,"['n', 'return']","[1.1202972996979952, 1.7122895997017622]",999.0030338000506,None,,,24,001,2023_Mar_22_1150,ExactRep-v3-final,2021.2.3,59.95103190344348,
,,,,,,,,,,,,7,0,7,0,,,,,,,,,,,,,,,,,,,,,,,,,,,,,,,,,,,,,,,,,,,,,,,,,1002.5964057999663,None,,,,,,,,,,,,,,,,,,,,,,,,,,,,,,,,,,,,,,,,,,,,,,,,,,,,,,,,,cotton,162,8,aloud,new,yellow,1001.2716592000797,None,n,1001.2716592000797,None,"['n', 'return']","[0.8756828000769019, 1.275726200081408]",1001.2716592000797,None,,,24,001,2023_Mar_22_1150,ExactRep-v3-final,2021.2.3,59.95103190344348,
,,,,,,,,,,,,8,0,8,0,,,,,,,,,,,,,,,,,,,,,,,,,,,,,,,,,,,,,,,,,,,,,,,,,1005.3480499000289,None,,,,,,,,,,,,,,,,,,,,,,,,,,,,,,,,,,,,,,,,,,,,,,,,,,,,,,,,,lord,95,9,aloud,old,yellow,1003.0984169999138,None,y,1003.0984169999138,None,"['y', 'return']","[0.6409816001541913, 2.2089359001256526]",1003.0984169999138,None,,,24,001,2023_Mar_22_1150,ExactRep-v3-final,2021.2.3,59.95103190344348,
,,,,,,,,,,,,9,0,9,0,,,,,,,,,,,,,,,,,,,,,,,,,,,,,,,,,,,,,,,,,,,,,,,,,1006.9328482998535,None,,,,,,,,,,,,,,,,,,,,,,,,,,,,,,,,,,,,,,,,,,,,,,,,,,,,,,,,,letter,19,10,sing,old,yellow,1005.8561780001037,None,y,1005.8561780001037,None,"['y', 'return']","[0.683326099999249, 1.0351521000266075]",1005.8561780001037,None,,,24,001,2023_Mar_22_1150,ExactRep-v3-final,2021.2.3,59.95103190344348,
,,,,,,,,,,,,10,0,10,0,,,,,,,,,,,,,,,,,,,,,,,,,,,,,,,,,,,,,,,,,,,,,,,,,1009.0184705001302,None,,,,,,,,,,,,,,,,,,,,,,,,,,,,,,,,,,,,,,,,,,,,,,,,,,,,,,,,,anger,190,11,aloud,new,yellow,1007.4356901999563,None,n,1007.4356901999563,None,"['n', 'return']","[1.0556801999919116, 1.5357761001214385]",1007.4356901999563,None,,,24,001,2023_Mar_22_1150,ExactRep-v3-final,2021.2.3,59.95103190344348,
,,,,,,,,,,,,11,0,11,0,,,,,,,,,,,,,,,,,,,,,,,,,,,,,,,,,,,,,,,,,,,,,,,,,1013.7396440999582,None,,,,,,,,,,,,,,,,,,,,,,,,,,,,,,,,,,,,,,,,,,,,,,,,,,,,,,,,,arm,96,12,aloud,old,yellow,1009.5259559000842,None,y,1009.5259559000842,None,"['y', 'return']","[2.7334397002123296, 4.181591200176626]",1009.5259559000842,None,,,24,001,2023_Mar_22_1150,ExactRep-v3-final,2021.2.3,59.95103190344348,
,,,,,,,,,,,,12,0,12,0,,,,,,,,,,,,,,,,,,,,,,,,,,,,,,,,,,,,,,,,,,,,,,,,,1015.4414090998471,None,,,,,,,,,,,,,,,,,,,,,,,,,,,,,,,,,,,,,,,,,,,,,,,,,,,,,,,,,salary,161,13,sing,new,yellow,1014.2535501001403,None,n,1014.2535501001403,None,"['n', 'return']","[0.7900566998869181, 1.1498702000826597]",1014.2535501001403,None,,,24,001,2023_Mar_22_1150,ExactRep-v3-final,2021.2.3,59.95103190344348,
,,,,,,,,,,,,13,0,13,0,,,,,,,,,,,,,,,,,,,,,,,,,,,,,,,,,,,,,,,,,,,,,,,,,1017.2443634998053,None,,,,,,,,,,,,,,,,,,,,,,,,,,,,,,,,,,,,,,,,,,,,,,,,,,,,,,,,,weapon,205,14,sing,new,yellow,1015.9523215997033,None,n,1015.9523215997033,None,"['n', 'return']","[0.9390165000222623, 1.259165700059384]",1015.9523215997033,None,,,24,001,2023_Mar_22_1150,ExactRep-v3-final,2021.2.3,59.95103190344348,
,,,,,,,,,,,,14,0,14,0,,,,,,,,,,,,,,,,,,,,,,,,,,,,,,,,,,,,,,,,,,,,,,,,,1020.664866999723,None,,,,,,,,,,,,,,,,,,,,,,,,,,,,,,,,,,,,,,,,,,,,,,,,,,,,,,,,,forest,203,15,sing,new,yellow,1017.746661900077,None,n,1017.746661900077,None,"['n', 'return']","[2.5046937000006437, 2.8807169999927282]",1017.746661900077,None,,,24,001,2023_Mar_22_1150,ExactRep-v3-final,2021.2.3,59.95103190344348,
,,,,,,,,,,,,15,0,15,0,,,,,,,,,,,,,,,,,,,,,,,,,,,,,,,,,,,,,,,,,,,,,,,,,1022.1314984001219,None,,,,,,,,,,,,,,,,,,,,,,,,,,,,,,,,,,,,,,,,,,,,,,,,,,,,,,,,,student,42,16,silent,old,yellow,1021.1761146001518,None,y,1021.1761146001518,None,"['y', 'return']","[0.5954172997735441, 0.9232207997702062]",1021.1761146001518,None,,,24,001,2023_Mar_22_1150,ExactRep-v3-final,2021.2.3,59.95103190344348,
,,,,,,,,,,,,16,0,16,0,,,,,,,,,,,,,,,,,,,,,,,,,,,,,,,,,,,,,,,,,,,,,,,,,1023.6330543998629,None,,,,,,,,,,,,,,,,,,,,,,,,,,,,,,,,,,,,,,,,,,,,,,,,,,,,,,,,,bowl,105,17,aloud,old,yellow,1022.64124180004,None,y,1022.64124180004,None,"['y', 'return']","[0.6019766996614635, 0.9461862999014556]",1022.64124180004,None,,,24,001,2023_Mar_22_1150,ExactRep-v3-final,2021.2.3,59.95103190344348,
,,,,,,,,,,,,17,0,17,0,,,,,,,,,,,,,,,,,,,,,,,,,,,,,,,,,,,,,,,,,,,,,,,,,1027.5368539998308,None,,,,,,,,,,,,,,,,,,,,,,,,,,,,,,,,,,,,,,,,,,,,,,,,,,,,,,,,,bottle,45,18,silent,old,yellow,1024.1453403998166,None,n,1024.1453403998166,None,"['n', 'y', 'return']","[1.3060444998554885, 2.2420299001969397, 3.346127700060606]",1024.1453403998166,None,,,24,001,2023_Mar_22_1150,ExactRep-v3-final,2021.2.3,59.95103190344348,
,,,,,,,,,,,,18,0,18,0,,,,,,,,,,,,,,,,,,,,,,,,,,,,,,,,,,,,,,,,,,,,,,,,,1030.189503800124,None,,,,,,,,,,,,,,,,,,,,,,,,,,,,,,,,,,,,,,,,,,,,,,,,,,,,,,,,,troops,192,19,aloud,new,yellow,1028.0461500999518,None,n,1028.0461500999518,None,"['n', 'return']","[1.1094231000170112, 2.109161799773574]",1028.0461500999518,None,,,24,001,2023_Mar_22_1150,ExactRep-v3-final,2021.2.3,59.95103190344348,
,,,,,,,,,,,,19,0,19,0,,,,,,,,,,,,,,,,,,,,,,,,,,,,,,,,,,,,,,,,,,,,,,,,,1031.9078255998902,None,,,,,,,,,,,,,,,,,,,,,,,,,,,,,,,,,,,,,,,,,,,,,,,,,,,,,,,,,power,75,20,silent,old,yellow,1030.6975658000447,None,y,1030.6975658000447,None,"['y', 'return']","[0.7699857000261545, 1.1778595000505447]",1030.6975658000447,None,,,24,001,2023_Mar_22_1150,ExactRep-v3-final,2021.2.3,59.95103190344348,
,,,,,,,,,,,,20,0,20,0,,,,,,,,,,,,,,,,,,,,,,,,,,,,,,,,,,,,,,,,,,,,,,,,,1033.8764639999717,None,,,,,,,,,,,,,,,,,,,,,,,,,,,,,,,,,,,,,,,,,,,,,,,,,,,,,,,,,body,194,21,aloud,new,yellow,1032.4168651001528,None,y,1032.4168651001528,None,"['y', 'return']","[1.05050989985466, 1.418525899760425]",1032.4168651001528,None,,,24,001,2023_Mar_22_1150,ExactRep-v3-final,2021.2.3,59.95103190344348,
,,,,,,,,,,,,21,0,21,0,,,,,,,,,,,,,,,,,,,,,,,,,,,,,,,,,,,,,,,,,,,,,,,,,1035.4781277999282,None,,,,,,,,,,,,,,,,,,,,,,,,,,,,,,,,,,,,,,,,,,,,,,,,,,,,,,,,,home,111,22,aloud,old,yellow,1034.387299399823,None,y,1034.387299399823,None,"['y', 'return']","[0.6882831999100745, 1.0482084001414478]",1034.387299399823,None,,,24,001,2023_Mar_22_1150,ExactRep-v3-final,2021.2.3,59.95103190344348,
,,,,,,,,,,,,22,0,22,0,,,,,,,,,,,,,,,,,,,,,,,,,,,,,,,,,,,,,,,,,,,,,,,,,1037.3301253998652,None,,,,,,,,,,,,,,,,,,,,,,,,,,,,,,,,,,,,,,,,,,,,,,,,,,,,,,,,,sky,38,23,sing,old,yellow,1035.98966880003,None,y,1035.98966880003,None,"['y', 'return']","[0.9898248999379575, 1.30188599973917]",1035.98966880003,None,,,24,001,2023_Mar_22_1150,ExactRep-v3-final,2021.2.3,59.95103190344348,
,,,,,,,,,,,,23,0,23,0,,,,,,,,,,,,,,,,,,,,,,,,,,,,,,,,,,,,,,,,,,,,,,,,,1042.5518781999126,None,,,,,,,,,,,,,,,,,,,,,,,,,,,,,,,,,,,,,,,,,,,,,,,,,,,,,,,,,house,142,24,silent,new,yellow,1037.8362871999852,None,y,1037.8362871999852,None,"['y', 'return']","[1.9910710998810828, 4.6711026998236775]",1037.8362871999852,None,,,24,001,2023_Mar_22_1150,ExactRep-v3-final,2021.2.3,59.95103190344348,
,,,,,,,,,,,,24,0,24,0,,,,,,,,,,,,,,,,,,,,,,,,,,,,,,,,,,,,,,,,,,,,,,,,,1047.273167999927,None,,,,,,,,,,,,,,,,,,,,,,,,,,,,,,,,,,,,,,,,,,,,,,,,,,,,,,,,,queen,28,25,sing,old,yellow,1043.0618658000603,None,y,1043.0618658000603,None,"['y', 'return']","[2.3414867999963462, 4.165612599812448]",1043.0618658000603,None,,,24,001,2023_Mar_22_1150,ExactRep-v3-final,2021.2.3,59.95103190344348,
,,,,,,,,,,,,25,0,25,0,,,,,,,,,,,,,,,,,,,,,,,,,,,,,,,,,,,,,,,,,,,,,,,,,1049.9591923998669,None,,,,,,,,,,,,,,,,,,,,,,,,,,,,,,,,,,,,,,,,,,,,,,,,,,,,,,,,,disease,97,26,aloud,old,yellow,1047.7864882997237,None,n,1047.7864882997237,None,"['n', 'return']","[1.3370253997854888, 2.1369567001238465]",1047.7864882997237,None,,,24,001,2023_Mar_22_1150,ExactRep-v3-final,2021.2.3,59.95103190344348,
,,,,,,,,,,,,26,0,26,0,,,,,,,,,,,,,,,,,,,,,,,,,,,,,,,,,,,,,,,,,,,,,,,,,1051.7110387999564,None,,,,,,,,,,,,,,,,,,,,,,,,,,,,,,,,,,,,,,,,,,,,,,,,,,,,,,,,,nail,138,27,silent,new,yellow,1050.4681086000055,None,n,1050.4681086000055,None,"['n', 'return']","[0.9594644997268915, 1.199281099718064]",1050.4681086000055,None,,,24,001,2023_Mar_22_1150,ExactRep-v3-final,2021.2.3,59.95103190344348,
,,,,,,,,,,,,27,0,27,0,,,,,,,,,,,,,,,,,,,,,,,,,,,,,,,,,,,,,,,,,,,,,,,,,1053.9132964001037,None,,,,,,,,,,,,,,,,,,,,,,,,,,,,,,,,,,,,,,,,,,,,,,,,,,,,,,,,,blood,180,28,aloud,new,yellow,1052.2268993998878,None,n,1052.2268993998878,None,"['n', 'return']","[1.1843711002729833, 1.6404961002990603]",1052.2268993998878,None,,,24,001,2023_Mar_22_1150,ExactRep-v3-final,2021.2.3,59.95103190344348,
,,,,,,,,,,,,28,0,28,0,,,,,,,,,,,,,,,,,,,,,,,,,,,,,,,,,,,,,,,,,,,,,,,,,1055.464930600021,None,,,,,,,,,,,,,,,,,,,,,,,,,,,,,,,,,,,,,,,,,,,,,,,,,,,,,,,,,law,167,29,sing,new,yellow,1054.4202458998188,None,y,1054.4202458998188,None,"['y', 'return']","[0.583241299726069, 0.9992331000976264]",1054.4202458998188,None,,,24,001,2023_Mar_22_1150,ExactRep-v3-final,2021.2.3,59.95103190344348,
,,,,,,,,,,,,29,0,29,0,,,,,,,,,,,,,,,,,,,,,,,,,,,,,,,,,,,,,,,,,,,,,,,,,1057.0663234000094,None,,,,,,,,,,,,,,,,,,,,,,,,,,,,,,,,,,,,,,,,,,,,,,,,,,,,,,,,,opinion,82,30,aloud,old,yellow,1055.9705686001107,None,y,1055.9705686001107,None,"['y', 'return']","[0.6888294997625053, 1.056851000059396]",1055.9705686001107,None,,,24,001,2023_Mar_22_1150,ExactRep-v3-final,2021.2.3,59.95103190344348,
,,,,,,,,,,,,30,0,30,0,,,,,,,,,,,,,,,,,,,,,,,,,,,,,,,,,,,,,,,,,,,,,,,,,1058.7012714999728,None,,,,,,,,,,,,,,,,,,,,,,,,,,,,,,,,,,,,,,,,,,,,,,,,,,,,,,,,,market,15,31,sing,old,yellow,1057.5772122000344,None,y,1057.5772122000344,None,"['y', 'return']","[0.8102450999431312, 1.090202999766916]",1057.5772122000344,None,,,24,001,2023_Mar_22_1150,ExactRep-v3-final,2021.2.3,59.95103190344348,
,,,,,,,,,,,,31,0,31,0,,,,,,,,,,,,,,,,,,,,,,,,,,,,,,,,,,,,,,,,,,,,,,,,,1061.0203506997786,None,,,,,,,,,,,,,,,,,,,,,,,,,,,,,,,,,,,,,,,,,,,,,,,,,,,,,,,,,earth,133,32,silent,new,yellow,1059.2096040998586,None,n,1059.2096040998586,None,"['n', 'return']","[1.2979788999073207, 1.7780146999284625]",1059.2096040998586,None,,,24,001,2023_Mar_22_1150,ExactRep-v3-final,2021.2.3,59.95103190344348,
,,,,,,,,,,,,32,0,32,0,,,,,,,,,,,,,,,,,,,,,,,,,,,,,,,,,,,,,,,,,,,,,,,,,1062.7885292000137,None,,,,,,,,,,,,,,,,,,,,,,,,,,,,,,,,,,,,,,,,,,,,,,,,,,,,,,,,,duty,215,33,sing,new,yellow,1061.5296320999041,None,n,1061.5296320999041,None,"['n', 'return']","[0.9300069003365934, 1.2259883000515401]",1061.5296320999041,None,,,24,001,2023_Mar_22_1150,ExactRep-v3-final,2021.2.3,59.95103190344348,
,,,,,,,,,,,,33,0,33,0,,,,,,,,,,,,,,,,,,,,,,,,,,,,,,,,,,,,,,,,,,,,,,,,,1065.141126099974,None,,,,,,,,,,,,,,,,,,,,,,,,,,,,,,,,,,,,,,,,,,,,,,,,,,,,,,,,,advice,171,34,sing,new,yellow,1063.2941328999586,None,y,1063.2941328999586,None,"['y', 'return']","[0.7011935003101826, 1.813240600284189]",1063.2941328999586,None,,,24,001,2023_Mar_22_1150,ExactRep-v3-final,2021.2.3,59.95103190344348,
,,,,,,,,,,,,34,0,34,0,,,,,,,,,,,,,,,,,,,,,,,,,,,,,,,,,,,,,,,,,,,,,,,,,1068.7446694001555,None,,,,,,,,,,,,,,,,,,,,,,,,,,,,,,,,,,,,,,,,,,,,,,,,,,,,,,,,,series,120,35,silent,new,yellow,1065.6489793001674,None,n,1065.6489793001674,None,"['n', 'return']","[2.4265077002346516, 3.0584495002403855]",1065.6489793001674,None,,,24,001,2023_Mar_22_1150,ExactRep-v3-final,2021.2.3,59.95103190344348,
,,,,,,,,,,,,35,0,35,0,,,,,,,,,,,,,,,,,,,,,,,,,,,,,,,,,,,,,,,,,,,,,,,,,1070.913495999761,None,,,,,,,,,,,,,,,,,,,,,,,,,,,,,,,,,,,,,,,,,,,,,,,,,,,,,,,,,board,60,36,silent,old,yellow,1069.247532499954,None,y,1069.247532499954,None,"['y', 'return']","[1.2761136996559799, 1.6280315998010337]",1069.247532499954,None,,,24,001,2023_Mar_22_1150,ExactRep-v3-final,2021.2.3,59.95103190344348,
,,,,,,,,,,,,36,0,36,0,,,,,,,,,,,,,,,,,,,,,,,,,,,,,,,,,,,,,,,,,,,,,,,,,1073.9665660001338,None,,,,,,,,,,,,,,,,,,,,,,,,,,,,,,,,,,,,,,,,,,,,,,,,,,,,,,,,,ability,197,37,sing,new,yellow,1071.4222173001617,None,n,1071.4222173001617,None,"['n', 'return']","[2.1331841996870935, 2.5013354998081923]",1071.4222173001617,None,,,24,001,2023_Mar_22_1150,ExactRep-v3-final,2021.2.3,59.95103190344348,
,,,,,,,,,,,,37,0,37,0,,,,,,,,,,,,,,,,,,,,,,,,,,,,,,,,,,,,,,,,,,,,,,,,,1076.6025267001241,None,,,,,,,,,,,,,,,,,,,,,,,,,,,,,,,,,,,,,,,,,,,,,,,,,,,,,,,,,star,68,38,silent,old,yellow,1074.4836324998178,None,n,1074.4836324998178,None,"['n', 'return']","[1.711805900093168, 2.0718102999962866]",1074.4836324998178,None,,,24,001,2023_Mar_22_1150,ExactRep-v3-final,2021.2.3,59.95103190344348,
,,,,,,,,,,,,38,0,38,0,,,,,,,,,,,,,,,,,,,,,,,,,,,,,,,,,,,,,,,,,,,,,,,,,1078.3042099000886,None,,,,,,,,,,,,,,,,,,,,,,,,,,,,,,,,,,,,,,,,,,,,,,,,,,,,,,,,,cabin,10,39,sing,old,yellow,1077.1126659000292,None,y,1077.1126659000292,None,"['y', 'return']","[0.7308041001670063, 1.154827400110662]",1077.1126659000292,None,,,24,001,2023_Mar_22_1150,ExactRep-v3-final,2021.2.3,59.95103190344348,
,,,,,,,,,,,,39,0,39,0,,,,,,,,,,,,,,,,,,,,,,,,,,,,,,,,,,,,,,,,,,,,,,,,,1079.8389059999026,None,,,,,,,,,,,,,,,,,,,,,,,,,,,,,,,,,,,,,,,,,,,,,,,,,,,,,,,,,vessel,84,40,aloud,old,yellow,1078.8170340000652,None,y,1078.8170340000652,None,"['y', 'return']","[0.5943466001190245, 0.9783499999903142]",1078.8170340000652,None,,,24,001,2023_Mar_22_1150,ExactRep-v3-final,2021.2.3,59.95103190344348,
,,,,,,,,,,,,40,0,40,0,,,,,,,,,,,,,,,,,,,,,,,,,,,,,,,,,,,,,,,,,,,,,,,,,1083.843010199722,None,,,,,,,,,,,,,,,,,,,,,,,,,,,,,,,,,,,,,,,,,,,,,,,,,,,,,,,,,victory,137,41,silent,new,yellow,1080.3493169001304,None,y,1080.3493169001304,None,"['n', 'y', 'backspace', 'y', 'return']","[1.3022620002739131, 1.8224062002263963, 2.918253800366074, 3.1339989001862705, 3.4541476001031697]",1080.3493169001304,None,,,24,001,2023_Mar_22_1150,ExactRep-v3-final,2021.2.3,59.95103190344348,
,,,,,,,,,,,,41,0,41,0,,,,,,,,,,,,,,,,,,,,,,,,,,,,,,,,,,,,,,,,,,,,,,,,,1086.4290086999536,None,,,,,,,,,,,,,,,,,,,,,,,,,,,,,,,,,,,,,,,,,,,,,,,,,,,,,,,,,wine,115,42,aloud,old,yellow,1084.3593330997974,None,n,1084.3593330997974,None,"['n', 'return']","[1.4282405995763838, 2.028175899758935]",1084.3593330997974,None,,,24,001,2023_Mar_22_1150,ExactRep-v3-final,2021.2.3,59.95103190344348,
,,,,,,,,,,,,42,0,42,0,,,,,,,,,,,,,,,,,,,,,,,,,,,,,,,,,,,,,,,,,,,,,,,,,1088.9649597001262,None,,,,,,,,,,,,,,,,,,,,,,,,,,,,,,,,,,,,,,,,,,,,,,,,,,,,,,,,,moral,220,43,aloud,new,yellow,1086.9427169999108,None,n,1086.9427169999108,None,"['n', 'return']","[1.3887537000700831, 1.9808108997531235]",1086.9427169999108,None,,,24,001,2023_Mar_22_1150,ExactRep-v3-final,2021.2.3,59.95103190344348,
,,,,,,,,,,,,43,0,43,0,,,,,,,,,,,,,,,,,,,,,,,,,,,,,,,,,,,,,,,,,,,,,,,,,1090.5164596000686,None,,,,,,,,,,,,,,,,,,,,,,,,,,,,,,,,,,,,,,,,,,,,,,,,,,,,,,,,,temple,175,44,sing,new,yellow,1089.4759957999922,None,y,1089.4759957999922,None,"['y', 'return']","[0.559407299850136, 1.0074598998762667]",1089.4759957999922,None,,,24,001,2023_Mar_22_1150,ExactRep-v3-final,2021.2.3,59.95103190344348,
,,,,,,,,,,,,44,0,44,0,,,,,,,,,,,,,,,,,,,,,,,,,,,,,,,,,,,,,,,,,,,,,,,,,1092.6352695999667,None,,,,,,,,,,,,,,,,,,,,,,,,,,,,,,,,,,,,,,,,,,,,,,,,,,,,,,,,,meat,67,45,silent,old,yellow,1091.0269812000915,None,n,1091.0269812000915,None,"['n', 'return']","[1.1364871002733707, 1.5604950999841094]",1091.0269812000915,None,,,24,001,2023_Mar_22_1150,ExactRep-v3-final,2021.2.3,59.95103190344348,
,,,,,,,,,,,,45,0,45,0,,,,,,,,,,,,,,,,,,,,,,,,,,,,,,,,,,,,,,,,,,,,,,,,,1094.2036711000837,None,,,,,,,,,,,,,,,,,,,,,,,,,,,,,,,,,,,,,,,,,,,,,,,,,,,,,,,,,lip,22,46,sing,old,yellow,1093.149120300077,None,y,1093.149120300077,None,"['y', 'return']","[0.6623077997937799, 1.0143535998649895]",1093.149120300077,None,,,24,001,2023_Mar_22_1150,ExactRep-v3-final,2021.2.3,59.95103190344348,
,,,,,,,,,,,,46,0,46,0,,,,,,,,,,,,,,,,,,,,,,,,,,,,,,,,,,,,,,,,,,,,,,,,,1098.9415560998023,None,,,,,,,,,,,,,,,,,,,,,,,,,,,,,,,,,,,,,,,,,,,,,,,,,,,,,,,,,trouble,206,47,aloud,new,yellow,1094.7186150001362,None,n,1094.7186150001362,None,"['n', 'return']","[2.4688709997572005, 4.1808274001814425]",1094.7186150001362,None,,,24,001,2023_Mar_22_1150,ExactRep-v3-final,2021.2.3,59.95103190344348,
,,,,,,,,,,,,47,0,47,0,,,,,,,,,,,,,,,,,,,,,,,,,,,,,,,,,,,,,,,,,,,,,,,,,1101.6109385997988,None,,,,,,,,,,,,,,,,,,,,,,,,,,,,,,,,,,,,,,,,,,,,,,,,,,,,,,,,,hope,183,48,sing,new,yellow,1099.4444395997562,None,y,1099.4444395997562,None,"['y', 'return']","[1.6471540001221001, 2.118997999932617]",1099.4444395997562,None,,,24,001,2023_Mar_22_1150,ExactRep-v3-final,2021.2.3,59.95103190344348,
,,,,,,,,,,,,48,0,48,0,,,,,,,,,,,,,,,,,,,,,,,,,,,,,,,,,,,,,,,,,,,,,,,,,1105.5148992999457,None,,,,,,,,,,,,,,,,,,,,,,,,,,,,,,,,,,,,,,,,,,,,,,,,,,,,,,,,,safety,119,49,aloud,old,yellow,1102.1205303999595,None,y,1102.1205303999595,None,"['y', 'return']","[1.162981000263244, 3.346957900095731]",1102.1205303999595,None,,,24,001,2023_Mar_22_1150,ExactRep-v3-final,2021.2.3,59.95103190344348,
,,,,,,,,,,,,49,0,49,0,,,,,,,,,,,,,,,,,,,,,,,,,,,,,,,,,,,,,,,,,,,,,,,,,1107.2498428998515,None,,,,,,,,,,,,,,,,,,,,,,,,,,,,,,,,,,,,,,,,,,,,,,,,,,,,,,,,,vision,24,50,sing,old,yellow,1106.027143899817,None,y,1106.027143899817,None,"['y', 'return']","[0.7843940001912415, 1.184338599909097]",1106.027143899817,None,,,24,001,2023_Mar_22_1150,ExactRep-v3-final,2021.2.3,59.95103190344348,
,,,,,,,,,,,,50,0,50,0,,,,,,,,,,,,,,,,,,,,,,,,,,,,,,,,,,,,,,,,,,,,,,,,,1110.5700268000364,None,,,,,,,,,,,,,,,,,,,,,,,,,,,,,,,,,,,,,,,,,,,,,,,,,,,,,,,,,speech,103,51,aloud,old,yellow,1107.7673893999308,None,n,1107.7673893999308,None,"['n', 'return']","[2.036252399906516, 2.764114299789071]",1107.7673893999308,None,,,24,001,2023_Mar_22_1150,ExactRep-v3-final,2021.2.3,59.95103190344348,
,,,,,,,,,,,,51,0,51,0,,,,,,,,,,,,,,,,,,,,,,,,,,,,,,,,,,,,,,,,,,,,,,,,,1114.507131499704,None,,,,,,,,,,,,,,,,,,,,,,,,,,,,,,,,,,,,,,,,,,,,,,,,,,,,,,,,,kiss,61,52,silent,old,yellow,1111.0737970001064,None,n,1111.0737970001064,None,"['n', 'return']","[2.4177430998533964, 3.393735199701041]",1111.0737970001064,None,,,24,001,2023_Mar_22_1150,ExactRep-v3-final,2021.2.3,59.95103190344348,
,,,,,,,,,,,,52,0,52,0,,,,,,,,,,,,,,,,,,,,,,,,,,,,,,,,,,,,,,,,,,,,,,,,,1117.0597092998214,None,,,,,,,,,,,,,,,,,,,,,,,,,,,,,,,,,,,,,,,,,,,,,,,,,,,,,,,,,devil,234,53,aloud,new,yellow,1115.0210120999254,None,n,1115.0210120999254,None,"['n', 'return']","[1.3184127998538315, 1.9984431001357734]",1115.0210120999254,None,,,24,001,2023_Mar_22_1150,ExactRep-v3-final,2021.2.3,59.95103190344348,
,,,,,,,,,,,,53,0,53,0,,,,,,,,,,,,,,,,,,,,,,,,,,,,,,,,,,,,,,,,,,,,,,,,,1121.6308860001154,None,,,,,,,,,,,,,,,,,,,,,,,,,,,,,,,,,,,,,,,,,,,,,,,,,,,,,,,,,hide,155,54,silent,new,yellow,1117.5649915998802,None,n,1117.5649915998802,None,"['n', 'return']","[3.6866085999645293, 4.022458399645984]",1117.5649915998802,None,,,24,001,2023_Mar_22_1150,ExactRep-v3-final,2021.2.3,59.95103190344348,
,,,,,,,,,,,,54,0,54,0,,,,,,,,,,,,,,,,,,,,,,,,,,,,,,,,,,,,,,,,,,,,,,,,,1123.2159066000022,None,,,,,,,,,,,,,,,,,,,,,,,,,,,,,,,,,,,,,,,,,,,,,,,,,,,,,,,,,plain,8,55,sing,old,yellow,1122.1385706998408,None,y,1122.1385706998408,None,"['y', 'return']","[0.6250580004416406, 1.0410611000843346]",1122.1385706998408,None,,,24,001,2023_Mar_22_1150,ExactRep-v3-final,2021.2.3,59.95103190344348,
,,,,,,,,,,,,55,0,55,0,,,,,,,,,,,,,,,,,,,,,,,,,,,,,,,,,,,,,,,,,,,,,,,,,1125.8686088998802,None,,,,,,,,,,,,,,,,,,,,,,,,,,,,,,,,,,,,,,,,,,,,,,,,,,,,,,,,,valley,210,56,aloud,new,yellow,1123.7251701997593,None,y,1123.7251701997593,None,"['y', 'return']","[0.6623080000281334, 2.1103206002153456]",1123.7251701997593,None,,,24,001,2023_Mar_22_1150,ExactRep-v3-final,2021.2.3,59.95103190344348,
,,,,,,,,,,,,56,0,56,0,,,,,,,,,,,,,,,,,,,,,,,,,,,,,,,,,,,,,,,,,,,,,,,,,1129.1885281000286,None,,,,,,,,,,,,,,,,,,,,,,,,,,,,,,,,,,,,,,,,,,,,,,,,,,,,,,,,,circle,58,57,silent,old,yellow,1126.3794820997864,None,n,1126.3794820997864,None,"['n', 'return']","[2.4722599000670016, 2.775968899950385]",1126.3794820997864,None,,,24,001,2023_Mar_22_1150,ExactRep-v3-final,2021.2.3,59.95103190344348,
,,,,,,,,,,,,57,0,57,0,,,,,,,,,,,,,,,,,,,,,,,,,,,,,,,,,,,,,,,,,,,,,,,,,1132.3917221999727,None,,,,,,,,,,,,,,,,,,,,,,,,,,,,,,,,,,,,,,,,,,,,,,,,,,,,,,,,,diamond,66,58,silent,old,yellow,1129.6921236999333,None,n,1129.6921236999333,None,"['n', 'return']","[2.3433805997483432, 2.6553369001485407]",1129.6921236999333,None,,,24,001,2023_Mar_22_1150,ExactRep-v3-final,2021.2.3,59.95103190344348,
,,,,,,,,,,,,58,0,58,0,,,,,,,,,,,,,,,,,,,,,,,,,,,,,,,,,,,,,,,,,,,,,,,,,1134.2101314999163,None,,,,,,,,,,,,,,,,,,,,,,,,,,,,,,,,,,,,,,,,,,,,,,,,,,,,,,,,,ship,177,59,sing,new,yellow,1132.89561960008,None,y,1132.89561960008,None,"['y', 'return']","[0.9158470002003014, 1.2758872001431882]",1132.89561960008,None,,,24,001,2023_Mar_22_1150,ExactRep-v3-final,2021.2.3,59.95103190344348,
,,,,,,,,,,,,59,0,59,0,,,,,,,,,,,,,,,,,,,,,,,,,,,,,,,,,,,,,,,,,,,,,,,,,1136.145415400155,None,,,,,,,,,,,,,,,,,,,,,,,,,,,,,,,,,,,,,,,,,,,,,,,,,,,,,,,,,boulder,141,60,silent,new,yellow,1134.71413019998,None,n,1134.71413019998,None,"['n', 'return']","[0.9854397997260094, 1.3854509997181594]",1134.71413019998,None,,,24,001,2023_Mar_22_1150,ExactRep-v3-final,2021.2.3,59.95103190344348,
,,,,,,,,,,,,60,0,60,0,,,,,,,,,,,,,,,,,,,,,,,,,,,,,,,,,,,,,,,,,,,,,,,,,1137.913899499923,None,,,,,,,,,,,,,,,,,,,,,,,,,,,,,,,,,,,,,,,,,,,,,,,,,,,,,,,,,fate,72,61,silent,old,yellow,1136.6565732001327,None,n,1136.6565732001327,None,"['n', 'return']","[1.027096299920231, 1.2190435999073088]",1136.6565732001327,None,,,24,001,2023_Mar_22_1150,ExactRep-v3-final,2021.2.3,59.95103190344348,
,,,,,,,,,,,,61,0,61,0,,,,,,,,,,,,,,,,,,,,,,,,,,,,,,,,,,,,,,,,,,,,,,,,,1139.6656442997046,None,,,,,,,,,,,,,,,,,,,,,,,,,,,,,,,,,,,,,,,,,,,,,,,,,,,,,,,,,flood,144,62,silent,new,yellow,1138.4257335998118,None,y,1138.4257335998118,None,"['y', 'return']","[0.8818004000931978, 1.193756999913603]",1138.4257335998118,None,,,24,001,2023_Mar_22_1150,ExactRep-v3-final,2021.2.3,59.95103190344348,
,,,,,,,,,,,,62,0,62,0,,,,,,,,,,,,,,,,,,,,,,,,,,,,,,,,,,,,,,,,,,,,,,,,,1143.63627430005,None,,,,,,,,,,,,,,,,,,,,,,,,,,,,,,,,,,,,,,,,,,,,,,,,,,,,,,,,,cat,18,63,sing,old,yellow,1140.1726999999955,None,y,1140.1726999999955,None,"['n', 'backspace', 'y', 'return']","[1.4228417999111116, 3.0709056998603046, 3.2307588001713157, 3.4229123000986874]",1140.1726999999955,None,,,24,001,2023_Mar_22_1150,ExactRep-v3-final,2021.2.3,59.95103190344348,
,,,,,,,,,,,,63,0,63,0,,,,,,,,,,,,,,,,,,,,,,,,,,,,,,,,,,,,,,,,,,,,,,,,,1145.5381382997148,None,,,,,,,,,,,,,,,,,,,,,,,,,,,,,,,,,,,,,,,,,,,,,,,,,,,,,,,,,woman,20,64,sing,old,yellow,1144.1369151999243,None,n,1144.1369151999243,None,"['n', 'return']","[1.0587593000382185, 1.354655500035733]",1144.1369151999243,None,,,24,001,2023_Mar_22_1150,ExactRep-v3-final,2021.2.3,59.95103190344348,
,,,,,,,,,,,,64,0,64,0,,,,,,,,,,,,,,,,,,,,,,,,,,,,,,,,,,,,,,,,,,,,,,,,,1148.0407046000473,None,,,,,,,,,,,,,,,,,,,,,,,,,,,,,,,,,,,,,,,,,,,,,,,,,,,,,,,,,book,113,65,aloud,old,yellow,1146.048726200126,None,n,1146.048726200126,None,"['n', 'return']","[1.7707914002239704, 1.9468207000754774]",1146.048726200126,None,,,24,001,2023_Mar_22_1150,ExactRep-v3-final,2021.2.3,59.95103190344348,
,,,,,,,,,,,,65,0,65,0,,,,,,,,,,,,,,,,,,,,,,,,,,,,,,,,,,,,,,,,,,,,,,,,,1155.1478439001366,None,,,,,,,,,,,,,,,,,,,,,,,,,,,,,,,,,,,,,,,,,,,,,,,,,,,,,,,,,judge,150,66,silent,new,yellow,1148.5513557000086,None,n,1148.5513557000086,None,"['n', 'return']","[5.924205199815333, 6.564173500053585]",1148.5513557000086,None,,,24,001,2023_Mar_22_1150,ExactRep-v3-final,2021.2.3,59.95103190344348,
,,,,,,,,,,,,66,0,66,0,,,,,,,,,,,,,,,,,,,,,,,,,,,,,,,,,,,,,,,,,,,,,,,,,1161.6377141997218,None,,,,,,,,,,,,,,,,,,,,,,,,,,,,,,,,,,,,,,,,,,,,,,,,,,,,,,,,,history,130,67,silent,new,yellow,1155.657706100028,None,y,1155.657706100028,None,"['n', 'backspace', 'y', 'return']","[1.2578083002008498, 2.761940199881792, 3.002016399987042, 5.93775840010494]",1155.657706100028,None,,,24,001,2023_Mar_22_1150,ExactRep-v3-final,2021.2.3,59.95103190344348,
,,,,,,,,,,,,67,0,67,0,,,,,,,,,,,,,,,,,,,,,,,,,,,,,,,,,,,,,,,,,,,,,,,,,1163.4099619998597,None,,,,,,,,,,,,,,,,,,,,,,,,,,,,,,,,,,,,,,,,,,,,,,,,,,,,,,,,,time,125,68,silent,new,yellow,1162.1461666999385,None,n,1162.1461666999385,None,"['n', 'return']","[0.8573214001953602, 1.2173136002384126]",1162.1461666999385,None,,,24,001,2023_Mar_22_1150,ExactRep-v3-final,2021.2.3,59.95103190344348,
,,,,,,,,,,,,68,0,68,0,,,,,,,,,,,,,,,,,,,,,,,,,,,,,,,,,,,,,,,,,,,,,,,,,1166.6659472999163,None,,,,,,,,,,,,,,,,,,,,,,,,,,,,,,,,,,,,,,,,,,,,,,,,,,,,,,,,,machine,199,69,sing,new,yellow,1163.9315452999435,None,n,1163.9315452999435,None,"['n', 'return']","[1.560224300250411, 2.680045800283551]",1163.9315452999435,None,,,24,001,2023_Mar_22_1150,ExactRep-v3-final,2021.2.3,59.95103190344348,
,,,,,,,,,,,,69,0,69,0,,,,,,,,,,,,,,,,,,,,,,,,,,,,,,,,,,,,,,,,,,,,,,,,,1169.5621337997727,None,,,,,,,,,,,,,,,,,,,,,,,,,,,,,,,,,,,,,,,,,,,,,,,,,,,,,,,,,colony,188,70,aloud,new,yellow,1167.1929405997507,None,n,1167.1929405997507,None,"['n', 'return']","[0.8025871999561787, 2.3305871998891234]",1167.1929405997507,None,,,24,001,2023_Mar_22_1150,ExactRep-v3-final,2021.2.3,59.95103190344348,
,,,,,,,,,,,,70,0,70,0,,,,,,,,,,,,,,,,,,,,,,,,,,,,,,,,,,,,,,,,,,,,,,,,,1171.4974424997345,None,,,,,,,,,,,,,,,,,,,,,,,,,,,,,,,,,,,,,,,,,,,,,,,,,,,,,,,,,glory,88,71,aloud,old,yellow,1170.0630036001094,None,y,1170.0630036001094,None,"['y', 'return']","[0.7645183997228742, 1.3965706997551024]",1170.0630036001094,None,,,24,001,2023_Mar_22_1150,ExactRep-v3-final,2021.2.3,59.95103190344348,
,,,,,,,,,,,,71,0,71,0,,,,,,,,,,,,,,,,,,,,,,,,,,,,,,,,,,,,,,,,,,,,,,,,,1173.2326181000099,None,,,,,,,,,,,,,,,,,,,,,,,,,,,,,,,,,,,,,,,,,,,,,,,,,,,,,,,,,humour,108,72,aloud,old,yellow,1172.0094538000412,None,y,1172.0094538000412,None,"['y', 'return']","[0.5780388000421226, 1.1860643001273274]",1172.0094538000412,None,,,24,001,2023_Mar_22_1150,ExactRep-v3-final,2021.2.3,59.95103190344348,
,,,,,,,,,,,,72,0,72,0,,,,,,,,,,,,,,,,,,,,,,,,,,,,,,,,,,,,,,,,,,,,,,,,,1174.8843052997254,None,,,,,,,,,,,,,,,,,,,,,,,,,,,,,,,,,,,,,,,,,,,,,,,,,,,,,,,,,health,92,73,aloud,old,yellow,1173.740133000072,None,y,1173.740133000072,None,"['y', 'return']","[0.5752825997769833, 1.1112957000732422]",1173.740133000072,None,,,24,001,2023_Mar_22_1150,ExactRep-v3-final,2021.2.3,59.95103190344348,
,,,,,,,,,,,,73,0,73,0,,,,,,,,,,,,,,,,,,,,,,,,,,,,,,,,,,,,,,,,,,,,,,,,,1176.9528680001386,None,,,,,,,,,,,,,,,,,,,,,,,,,,,,,,,,,,,,,,,,,,,,,,,,,,,,,,,,,pupil,89,74,aloud,old,yellow,1175.392468399834,None,n,1175.392468399834,None,"['n', 'return']","[1.1950647002086043, 1.5231551001779735]",1175.392468399834,None,,,24,001,2023_Mar_22_1150,ExactRep-v3-final,2021.2.3,59.95103190344348,
,,,,,,,,,,,,74,0,74,0,,,,,,,,,,,,,,,,,,,,,,,,,,,,,,,,,,,,,,,,,,,,,,,,,1180.5065921000205,None,,,,,,,,,,,,,,,,,,,,,,,,,,,,,,,,,,,,,,,,,,,,,,,,,,,,,,,,,engine,48,75,silent,old,yellow,1177.462337399833,None,n,1177.462337399833,None,"['n', 'return']","[2.333172899670899, 3.0053212996572256]",1177.462337399833,None,,,24,001,2023_Mar_22_1150,ExactRep-v3-final,2021.2.3,59.95103190344348,
,,,,,,,,,,,,75,0,75,0,,,,,,,,,,,,,,,,,,,,,,,,,,,,,,,,,,,,,,,,,,,,,,,,,1182.091330899857,None,,,,,,,,,,,,,,,,,,,,,,,,,,,,,,,,,,,,,,,,,,,,,,,,,,,,,,,,,coffee,198,76,aloud,new,yellow,1181.0188637999818,None,n,1181.0188637999818,None,"['n', 'return']","[0.808751399628818, 1.0407331995666027]",1181.0188637999818,None,,,24,001,2023_Mar_22_1150,ExactRep-v3-final,2021.2.3,59.95103190344348,
,,,,,,,,,,,,76,0,76,0,,,,,,,,,,,,,,,,,,,,,,,,,,,,,,,,,,,,,,,,,,,,,,,,,1183.576238699723,None,,,,,,,,,,,,,,,,,,,,,,,,,,,,,,,,,,,,,,,,,,,,,,,,,,,,,,,,,form,78,77,silent,old,yellow,1182.5997655997053,None,y,1182.5997655997053,None,"['y', 'return']","[0.635743800085038, 0.9317319998517632]",1182.5997655997053,None,,,24,001,2023_Mar_22_1150,ExactRep-v3-final,2021.2.3,59.95103190344348,
,,,,,,,,,,,,77,0,77,0,,,,,,,,,,,,,,,,,,,,,,,,,,,,,,,,,,,,,,,,,,,,,,,,,1185.0111543000676,None,,,,,,,,,,,,,,,,,,,,,,,,,,,,,,,,,,,,,,,,,,,,,,,,,,,,,,,,,master,106,78,aloud,old,yellow,1184.0855429000221,None,y,1184.0855429000221,None,"['y', 'return']","[0.5902022998780012, 0.8940483997575939]",1184.0855429000221,None,,,24,001,2023_Mar_22_1150,ExactRep-v3-final,2021.2.3,59.95103190344348,
,,,,,,,,,,,,78,0,78,0,,,,,,,,,,,,,,,,,,,,,,,,,,,,,,,,,,,,,,,,,,,,,,,,,1187.1464752997272,None,,,,,,,,,,,,,,,,,,,,,,,,,,,,,,,,,,,,,,,,,,,,,,,,,,,,,,,,,dollar,204,79,aloud,new,yellow,1185.521905099973,None,n,1185.521905099973,None,"['n', 'return']","[1.2656065998598933, 1.5777476001530886]",1185.521905099973,None,,,24,001,2023_Mar_22_1150,ExactRep-v3-final,2021.2.3,59.95103190344348,
,,,,,,,,,,,,79,0,79,0,,,,,,,,,,,,,,,,,,,,,,,,,,,,,,,,,,,,,,,,,,,,,,,,,1189.1651491997764,None,,,,,,,,,,,,,,,,,,,,,,,,,,,,,,,,,,,,,,,,,,,,,,,,,,,,,,,,,picture,2,80,sing,old,yellow,1187.650182500016,None,y,1187.650182500016,None,"['y', 'return']","[1.1534930001944304, 1.4734025998041034]",1187.650182500016,None,,,24,001,2023_Mar_22_1150,ExactRep-v3-final,2021.2.3,59.95103190344348,
,,,,,,,,,,,,80,0,80,0,,,,,,,,,,,,,,,,,,,,,,,,,,,,,,,,,,,,,,,,,,,,,,,,,1190.8834516000934,None,,,,,,,,,,,,,,,,,,,,,,,,,,,,,,,,,,,,,,,,,,,,,,,,,,,,,,,,,pipe,116,81,aloud,old,yellow,1189.6742254998535,None,y,1189.6742254998535,None,"['y', 'return']","[0.6093083997257054, 1.1614501997828484]",1189.6742254998535,None,,,24,001,2023_Mar_22_1150,ExactRep-v3-final,2021.2.3,59.95103190344348,
,,,,,,,,,,,,81,0,81,0,,,,,,,,,,,,,,,,,,,,,,,,,,,,,,,,,,,,,,,,,,,,,,,,,1195.1378619000316,None,,,,,,,,,,,,,,,,,,,,,,,,,,,,,,,,,,,,,,,,,,,,,,,,,,,,,,,,,meeting,112,82,aloud,old,yellow,1191.3930556997657,None,y,1191.3930556997657,None,"['n', 'backspace', 'y', 'return']","[1.1226371000520885, 3.266620900016278, 3.514931000303477, 3.6988055002875626]",1191.3930556997657,None,,,24,001,2023_Mar_22_1150,ExactRep-v3-final,2021.2.3,59.95103190344348,
,,,,,,,,,,,,82,0,82,0,,,,,,,,,,,,,,,,,,,,,,,,,,,,,,,,,,,,,,,,,,,,,,,,,1198.9248969000764,None,,,,,,,,,,,,,,,,,,,,,,,,,,,,,,,,,,,,,,,,,,,,,,,,,,,,,,,,,king,158,83,silent,new,yellow,1195.648320700042,None,n,1195.648320700042,None,"['n', 'backspace', 'n', 'return']","[1.2591936001554132, 2.451253100298345, 2.955324400216341, 3.2352324002422392]",1195.648320700042,None,,,24,001,2023_Mar_22_1150,ExactRep-v3-final,2021.2.3,59.95103190344348,
,,,,,,,,,,,,83,0,83,0,,,,,,,,,,,,,,,,,,,,,,,,,,,,,,,,,,,,,,,,,,,,,,,,,1200.8434476000257,None,,,,,,,,,,,,,,,,,,,,,,,,,,,,,,,,,,,,,,,,,,,,,,,,,,,,,,,,,square,62,84,silent,old,yellow,1199.4445764999837,None,n,1199.4445764999837,None,"['n', 'return']","[1.0549252000637352, 1.3590246997773647]",1199.4445764999837,None,,,24,001,2023_Mar_22_1150,ExactRep-v3-final,2021.2.3,59.95103190344348,
,,,,,,,,,,,,84,0,84,0,,,,,,,,,,,,,,,,,,,,,,,,,,,,,,,,,,,,,,,,,,,,,,,,,1202.3783887000754,None,,,,,,,,,,,,,,,,,,,,,,,,,,,,,,,,,,,,,,,,,,,,,,,,,,,,,,,,,library,107,85,aloud,old,yellow,1201.3527506999671,None,y,1201.3527506999671,None,"['y', 'return']","[0.611119500361383, 0.9869382004253566]",1201.3527506999671,None,,,24,001,2023_Mar_22_1150,ExactRep-v3-final,2021.2.3,59.95103190344348,
,,,,,,,,,,,,85,0,85,0,,,,,,,,,,,,,,,,,,,,,,,,,,,,,,,,,,,,,,,,,,,,,,,,,1203.8132267999463,None,,,,,,,,,,,,,,,,,,,,,,,,,,,,,,,,,,,,,,,,,,,,,,,,,,,,,,,,,freedom,193,86,sing,new,yellow,1202.8885257998481,None,y,1202.8885257998481,None,"['y', 'return']","[0.5551666002720594, 0.8910195003263652]",1202.8885257998481,None,,,24,001,2023_Mar_22_1150,ExactRep-v3-final,2021.2.3,59.95103190344348,
,,,,,,,,,,,,86,0,86,0,,,,,,,,,,,,,,,,,,,,,,,,,,,,,,,,,,,,,,,,,,,,,,,,,1205.3146375999786,None,,,,,,,,,,,,,,,,,,,,,,,,,,,,,,,,,,,,,,,,,,,,,,,,,,,,,,,,,product,80,87,aloud,old,yellow,1204.3328364999034,None,y,1204.3328364999034,None,"['y', 'return']","[0.598626300226897, 0.9427761002443731]",1204.3328364999034,None,,,24,001,2023_Mar_22_1150,ExactRep-v3-final,2021.2.3,59.95103190344348,
,,,,,,,,,,,,87,0,87,0,,,,,,,,,,,,,,,,,,,,,,,,,,,,,,,,,,,,,,,,,,,,,,,,,1206.999661799986,None,,,,,,,,,,,,,,,,,,,,,,,,,,,,,,,,,,,,,,,,,,,,,,,,,,,,,,,,,storm,34,88,sing,old,yellow,1205.8255686997436,None,n,1205.8255686997436,None,"['n', 'return']","[0.8019536002539098, 1.1299315001815557]",1205.8255686997436,None,,,24,001,2023_Mar_22_1150,ExactRep-v3-final,2021.2.3,59.95103190344348,
,,,,,,,,,,,,88,0,88,0,,,,,,,,,,,,,,,,,,,,,,,,,,,,,,,,,,,,,,,,,,,,,,,,,1209.0016030999832,None,,,,,,,,,,,,,,,,,,,,,,,,,,,,,,,,,,,,,,,,,,,,,,,,,,,,,,,,,deed,169,89,sing,new,yellow,1207.5113286999986,None,n,1207.5113286999986,None,"['n', 'return']","[1.100219199899584, 1.4442325001582503]",1207.5113286999986,None,,,24,001,2023_Mar_22_1150,ExactRep-v3-final,2021.2.3,59.95103190344348,
,,,,,,,,,,,,89,0,89,0,,,,,,,,,,,,,,,,,,,,,,,,,,,,,,,,,,,,,,,,,,,,,,,,,1210.5365402000025,None,,,,,,,,,,,,,,,,,,,,,,,,,,,,,,,,,,,,,,,,,,,,,,,,,,,,,,,,,mother,54,90,silent,old,yellow,1209.5107712997124,None,n,1209.5107712997124,None,"['n', 'return']","[0.7089913999661803, 0.9890928999520838]",1209.5107712997124,None,,,24,001,2023_Mar_22_1150,ExactRep-v3-final,2021.2.3,59.95103190344348,
,,,,,,,,,,,,90,0,90,0,,,,,,,,,,,,,,,,,,,,,,,,,,,,,,,,,,,,,,,,,,,,,,,,,1215.2912908997387,None,,,,,,,,,,,,,,,,,,,,,,,,,,,,,,,,,,,,,,,,,,,,,,,,,,,,,,,,,mercy,70,91,silent,old,yellow,1211.0482660001144,None,y,1211.0482660001144,None,"['n', 'backspace', 'y', 'return']","[0.6272684000432491, 3.659378600306809, 3.8912013000808656, 4.21131160017103]",1211.0482660001144,None,,,24,001,2023_Mar_22_1150,ExactRep-v3-final,2021.2.3,59.95103190344348,
,,,,,,,,,,,,91,0,91,0,,,,,,,,,,,,,,,,,,,,,,,,,,,,,,,,,,,,,,,,,,,,,,,,,1216.997138899751,None,,,,,,,,,,,,,,,,,,,,,,,,,,,,,,,,,,,,,,,,,,,,,,,,,,,,,,,,,steam,30,92,sing,old,yellow,1215.7996191000566,None,y,1215.7996191000566,None,"['y', 'return']","[0.8600614997558296, 1.148001799825579]",1215.7996191000566,None,,,24,001,2023_Mar_22_1150,ExactRep-v3-final,2021.2.3,59.95103190344348,
,,,,,,,,,,,,92,0,92,0,,,,,,,,,,,,,,,,,,,,,,,,,,,,,,,,,,,,,,,,,,,,,,,,,1218.5945887998678,None,,,,,,,,,,,,,,,,,,,,,,,,,,,,,,,,,,,,,,,,,,,,,,,,,,,,,,,,,tree,86,93,aloud,old,yellow,1217.513477199711,None,n,1217.513477199711,None,"['n', 'return']","[0.7621921999379992, 1.0341993998736143]",1217.513477199711,None,,,24,001,2023_Mar_22_1150,ExactRep-v3-final,2021.2.3,59.95103190344348,
,,,,,,,,,,,,93,0,93,0,,,,,,,,,,,,,,,,,,,,,,,,,,,,,,,,,,,,,,,,,,,,,,,,,1220.8134041000158,None,,,,,,,,,,,,,,,,,,,,,,,,,,,,,,,,,,,,,,,,,,,,,,,,,,,,,,,,,fact,31,94,sing,old,yellow,1219.1026469999924,None,n,1219.1026469999924,None,"['n', 'return']","[0.9329447997733951, 1.6689253998920321]",1219.1026469999924,None,,,24,001,2023_Mar_22_1150,ExactRep-v3-final,2021.2.3,59.95103190344348,
,,,,,,,,,,,,94,0,94,0,,,,,,,,,,,,,,,,,,,,,,,,,,,,,,,,,,,,,,,,,,,,,,,,,1222.5652262000367,None,,,,,,,,,,,,,,,,,,,,,,,,,,,,,,,,,,,,,,,,,,,,,,,,,,,,,,,,,ocean,212,95,aloud,new,yellow,1221.3213248997927,None,n,1221.3213248997927,None,"['n', 'return']","[0.7702848999761045, 1.2023496003821492]",1221.3213248997927,None,,,24,001,2023_Mar_22_1150,ExactRep-v3-final,2021.2.3,59.95103190344348,
,,,,,,,,,,,,95,0,95,0,,,,,,,,,,,,,,,,,,,,,,,,,,,,,,,,,,,,,,,,,,,,,,,,,1223.933247799985,None,,,,,,,,,,,,,,,,,,,,,,,,,,,,,,,,,,,,,,,,,,,,,,,,,,,,,,,,,dawn,139,96,silent,new,yellow,1223.0769799998961,None,n,1223.0769799998961,None,"['n', 'return']","[0.5745732998475432, 0.8146642995998263]",1223.0769799998961,None,,,24,001,2023_Mar_22_1150,ExactRep-v3-final,2021.2.3,59.95103190344348,
,,,,,,,,,,,,96,0,96,0,,,,,,,,,,,,,,,,,,,,,,,,,,,,,,,,,,,,,,,,,,,,,,,,,1225.4848307999782,None,,,,,,,,,,,,,,,,,,,,,,,,,,,,,,,,,,,,,,,,,,,,,,,,,,,,,,,,,seat,110,97,aloud,old,yellow,1224.4424907001667,None,y,1224.4424907001667,None,"['y', 'return']","[0.7931933999061584, 1.0011084000580013]",1224.4424907001667,None,,,24,001,2023_Mar_22_1150,ExactRep-v3-final,2021.2.3,59.95103190344348,
,,,,,,,,,,,,97,0,97,0,,,,,,,,,,,,,,,,,,,,,,,,,,,,,,,,,,,,,,,,,,,,,,,,,1226.92452029977,None,,,,,,,,,,,,,,,,,,,,,,,,,,,,,,,,,,,,,,,,,,,,,,,,,,,,,,,,,idea,132,98,silent,new,yellow,1225.9961354001425,None,n,1225.9961354001425,None,"['n', 'return']","[0.7195069002918899, 0.8794228001497686]",1225.9961354001425,None,,,24,001,2023_Mar_22_1150,ExactRep-v3-final,2021.2.3,59.95103190344348,
,,,,,,,,,,,,98,0,98,0,,,,,,,,,,,,,,,,,,,,,,,,,,,,,,,,,,,,,,,,,,,,,,,,,1228.521124099847,None,,,,,,,,,,,,,,,,,,,,,,,,,,,,,,,,,,,,,,,,,,,,,,,,,,,,,,,,,person,185,99,sing,new,yellow,1227.444863599725,None,n,1227.444863599725,None,"['n', 'return']","[0.8307815999723971, 1.0388148999772966]",1227.444863599725,None,,,24,001,2023_Mar_22_1150,ExactRep-v3-final,2021.2.3,59.95103190344348,
,,,,,,,,,,,,99,0,99,0,,,,,,,,,,,,,,,,,,,,,,,,,,,,,,,,,,,,,,,,,,,,,,,,,1230.8401334998198,None,,,,,,,,,,,,,,,,,,,,,,,,,,,,,,,,,,,,,,,,,,,,,,,,,,,,,,,,,grass,47,100,silent,old,yellow,1229.0302631999366,None,n,1229.0302631999366,None,"['n', 'return']","[0.6213541999459267, 1.7733725998550653]",1229.0302631999366,None,,,24,001,2023_Mar_22_1150,ExactRep-v3-final,2021.2.3,59.95103190344348,
,,,,,,,,,,,,100,0,100,0,,,,,,,,,,,,,,,,,,,,,,,,,,,,,,,,,,,,,,,,,,,,,,,,,1232.3083147997968,None,,,,,,,,,,,,,,,,,,,,,,,,,,,,,,,,,,,,,,,,,,,,,,,,,,,,,,,,,flower,182,101,aloud,new,yellow,1231.3501225998625,None,n,1231.3501225998625,None,"['n', 'return']","[0.6456878003664315, 0.9253989001736045]",1231.3501225998625,None,,,24,001,2023_Mar_22_1150,ExactRep-v3-final,2021.2.3,59.95103190344348,
,,,,,,,,,,,,101,0,101,0,,,,,,,,,,,,,,,,,,,,,,,,,,,,,,,,,,,,,,,,,,,,,,,,,1235.2445541000925,None,,,,,,,,,,,,,,,,,,,,,,,,,,,,,,,,,,,,,,,,,,,,,,,,,,,,,,,,,style,214,102,aloud,new,yellow,1232.818199600093,None,n,1232.818199600093,None,"['n', 'return']","[1.841288400348276, 2.3853964000009]",1232.818199600093,None,,,24,001,2023_Mar_22_1150,ExactRep-v3-final,2021.2.3,59.95103190344348,
,,,,,,,,,,,,102,0,102,0,,,,,,,,,,,,,,,,,,,,,,,,,,,,,,,,,,,,,,,,,,,,,,,,,1237.2466548001394,None,,,,,,,,,,,,,,,,,,,,,,,,,,,,,,,,,,,,,,,,,,,,,,,,,,,,,,,,,animal,118,103,aloud,old,yellow,1235.7516048001125,None,y,1235.7516048001125,None,"['y', 'return']","[1.2360327998176217, 1.4599905996583402]",1235.7516048001125,None,,,24,001,2023_Mar_22_1150,ExactRep-v3-final,2021.2.3,59.95103190344348,
,,,,,,,,,,,,103,0,103,0,,,,,,,,,,,,,,,,,,,,,,,,,,,,,,,,,,,,,,,,,,,,,,,,,1238.7814373997971,None,,,,,,,,,,,,,,,,,,,,,,,,,,,,,,,,,,,,,,,,,,,,,,,,,,,,,,,,,truth,186,104,aloud,new,yellow,1237.7597922999412,None,n,1237.7597922999412,None,"['n', 'return']","[0.7158531998284161, 0.9877758999355137]",1237.7597922999412,None,,,24,001,2023_Mar_22_1150,ExactRep-v3-final,2021.2.3,59.95103190344348,
,,,,,,,,,,,,104,0,104,0,,,,,,,,,,,,,,,,,,,,,,,,,,,,,,,,,,,,,,,,,,,,,,,,,1240.549879499711,None,,,,,,,,,,,,,,,,,,,,,,,,,,,,,,,,,,,,,,,,,,,,,,,,,,,,,,,,,table,56,105,silent,old,yellow,1239.2892817999236,None,n,1239.2892817999236,None,"['n', 'return']","[0.9463148000650108, 1.226398800034076]",1239.2892817999236,None,,,24,001,2023_Mar_22_1150,ExactRep-v3-final,2021.2.3,59.95103190344348,
,,,,,,,,,,,,105,0,105,0,,,,,,,,,,,,,,,,,,,,,,,,,,,,,,,,,,,,,,,,,,,,,,,,,1242.351669699885,None,,,,,,,,,,,,,,,,,,,,,,,,,,,,,,,,,,,,,,,,,,,,,,,,,,,,,,,,,horse,154,106,silent,new,yellow,1241.0630653998815,None,n,1241.0630653998815,None,"['n', 'return']","[0.94083740003407, 1.2445205999538302]",1241.0630653998815,None,,,24,001,2023_Mar_22_1150,ExactRep-v3-final,2021.2.3,59.95103190344348,
,,,,,,,,,,,,106,0,106,0,,,,,,,,,,,,,,,,,,,,,,,,,,,,,,,,,,,,,,,,,,,,,,,,,1243.9867841000669,None,,,,,,,,,,,,,,,,,,,,,,,,,,,,,,,,,,,,,,,,,,,,,,,,,,,,,,,,,passion,12,107,sing,old,yellow,1242.8627074998803,None,y,1242.8627074998803,None,"['y', 'return']","[0.6368689001537859, 1.0769319999963045]",1242.8627074998803,None,,,24,001,2023_Mar_22_1150,ExactRep-v3-final,2021.2.3,59.95103190344348,
,,,,,,,,,,,,107,0,107,0,,,,,,,,,,,,,,,,,,,,,,,,,,,,,,,,,,,,,,,,,,,,,,,,,1245.7382604000159,None,,,,,,,,,,,,,,,,,,,,,,,,,,,,,,,,,,,,,,,,,,,,,,,,,,,,,,,,,justice,87,108,aloud,old,yellow,1244.4909247998148,None,y,1244.4909247998148,None,"['y', 'return']","[0.8649491998367012, 1.2087706001475453]",1244.4909247998148,None,,,24,001,2023_Mar_22_1150,ExactRep-v3-final,2021.2.3,59.95103190344348,
,,,,,,,,,,,,108,0,108,0,,,,,,,,,,,,,,,,,,,,,,,,,,,,,,,,,,,,,,,,,,,,,,,,,1248.9748796001077,None,,,,,,,,,,,,,,,,,,,,,,,,,,,,,,,,,,,,,,,,,,,,,,,,,,,,,,,,,cost,201,109,sing,new,yellow,1246.2471026997082,None,n,1246.2471026997082,None,"['y', 'backspace', 'n', 'return']","[0.9724908000789583, 2.364622900262475, 2.5327217001467943, 2.692616700194776]",1246.2471026997082,None,,,24,001,2023_Mar_22_1150,ExactRep-v3-final,2021.2.3,59.95103190344348,
,,,,,,,,,,,,109,0,109,0,,,,,,,,,,,,,,,,,,,,,,,,,,,,,,,,,,,,,,,,,,,,,,,,,1250.8101491001435,None,,,,,,,,,,,,,,,,,,,,,,,,,,,,,,,,,,,,,,,,,,,,,,,,,,,,,,,,,poet,231,110,sing,new,yellow,1249.484954399988,None,n,1249.484954399988,None,"['n', 'return']","[1.0628245999105275, 1.2787359999492764]",1249.484954399988,None,,,24,001,2023_Mar_22_1150,ExactRep-v3-final,2021.2.3,59.95103190344348,
,,,,,,,,,,,,110,0,110,0,,,,,,,,,,,,,,,,,,,,,,,,,,,,,,,,,,,,,,,,,,,,,,,,,1252.294875800144,None,,,,,,,,,,,,,,,,,,,,,,,,,,,,,,,,,,,,,,,,,,,,,,,,,,,,,,,,,hotel,149,111,silent,new,yellow,1251.3294430999085,None,n,1251.3294430999085,None,"['n', 'return']","[0.7141570001840591, 0.9221065999008715]",1251.3294430999085,None,,,24,001,2023_Mar_22_1150,ExactRep-v3-final,2021.2.3,59.95103190344348,
,,,,,,,,,,,,111,0,111,0,,,,,,,,,,,,,,,,,,,,,,,,,,,,,,,,,,,,,,,,,,,,,,,,,1253.7629788001068,None,,,,,,,,,,,,,,,,,,,,,,,,,,,,,,,,,,,,,,,,,,,,,,,,,,,,,,,,,avenue,100,112,aloud,old,yellow,1252.8042501998134,None,y,1252.8042501998134,None,"['y', 'return']","[0.5913146999664605, 0.927341700065881]",1252.8042501998134,None,,,24,001,2023_Mar_22_1150,ExactRep-v3-final,2021.2.3,59.95103190344348,
,,,,,,,,,,,,112,0,112,0,,,,,,,,,,,,,,,,,,,,,,,,,,,,,,,,,,,,,,,,,,,,,,,,,1256.9495401000604,None,,,,,,,,,,,,,,,,,,,,,,,,,,,,,,,,,,,,,,,,,,,,,,,,,,,,,,,,,woods,226,113,aloud,new,yellow,1254.2729962999001,None,n,1254.2729962999001,None,"['n', 'return']","[2.3705751998350024, 2.64259390020743]",1254.2729962999001,None,,,24,001,2023_Mar_22_1150,ExactRep-v3-final,2021.2.3,59.95103190344348,
,,,,,,,,,,,,113,0,113,0,,,,,,,,,,,,,,,,,,,,,,,,,,,,,,,,,,,,,,,,,,,,,,,,,1259.0183307998814,None,,,,,,,,,,,,,,,,,,,,,,,,,,,,,,,,,,,,,,,,,,,,,,,,,,,,,,,,,coin,148,114,silent,new,yellow,1257.4527917001396,None,n,1257.4527917001396,None,"['n', 'return']","[0.6467933999374509, 1.5269285002723336]",1257.4527917001396,None,,,24,001,2023_Mar_22_1150,ExactRep-v3-final,2021.2.3,59.95103190344348,
,,,,,,,,,,,,114,0,114,0,,,,,,,,,,,,,,,,,,,,,,,,,,,,,,,,,,,,,,,,,,,,,,,,,1260.2861929000355,None,,,,,,,,,,,,,,,,,,,,,,,,,,,,,,,,,,,,,,,,,,,,,,,,,,,,,,,,,doll,170,115,aloud,new,yellow,1259.5267588999122,None,n,1259.5267588999122,None,"['n', 'return']","[0.5647684000432491, 0.7168628997169435]",1259.5267588999122,None,,,24,001,2023_Mar_22_1150,ExactRep-v3-final,2021.2.3,59.95103190344348,
,,,,,,,,,,,,115,0,115,0,,,,,,,,,,,,,,,,,,,,,,,,,,,,,,,,,,,,,,,,,,,,,,,,,1263.255912499968,None,,,,,,,,,,,,,,,,,,,,,,,,,,,,,,,,,,,,,,,,,,,,,,,,,,,,,,,,,volume,121,116,silent,new,yellow,1260.7999614998698,None,n,1260.7999614998698,None,"['n', 'return']","[2.2596809999085963, 2.4200515002012253]",1260.7999614998698,None,,,24,001,2023_Mar_22_1150,ExactRep-v3-final,2021.2.3,59.95103190344348,
,,,,,,,,,,,,116,0,116,0,,,,,,,,,,,,,,,,,,,,,,,,,,,,,,,,,,,,,,,,,,,,,,,,,1265.9099881998263,None,,,,,,,,,,,,,,,,,,,,,,,,,,,,,,,,,,,,,,,,,,,,,,,,,,,,,,,,,lake,29,117,sing,old,yellow,1263.7604323001578,None,y,1263.7604323001578,None,"['n', 'y', 'backspace', 'y', 'return']","[0.9710551002062857, 1.067057500127703, 1.7951619001105428, 1.8992411000654101, 2.115211999975145]",1263.7604323001578,None,,,24,001,2023_Mar_22_1150,ExactRep-v3-final,2021.2.3,59.95103190344348,
,,,,,,,,,,,,117,0,117,0,,,,,,,,,,,,,,,,,,,,,,,,,,,,,,,,,,,,,,,,,,,,,,,,,1267.343439300079,None,,,,,,,,,,,,,,,,,,,,,,,,,,,,,,,,,,,,,,,,,,,,,,,,,,,,,,,,,heaven,27,118,sing,old,yellow,1266.4194946000353,None,y,1266.4194946000353,None,"['y', 'return']","[0.5441893003880978, 0.8800511001609266]",1266.4194946000353,None,,,24,001,2023_Mar_22_1150,ExactRep-v3-final,2021.2.3,59.95103190344348,
,,,,,,,,,,,,118,0,118,0,,,,,,,,,,,,,,,,,,,,,,,,,,,,,,,,,,,,,,,,,,,,,,,,,1268.978365899995,None,,,,,,,,,,,,,,,,,,,,,,,,,,,,,,,,,,,,,,,,,,,,,,,,,,,,,,,,,blossom,156,119,silent,new,yellow,1267.8528522998095,None,n,1267.8528522998095,None,"['n', 'return']","[0.7669331999495625, 1.0787884998135269]",1267.8528522998095,None,,,24,001,2023_Mar_22_1150,ExactRep-v3-final,2021.2.3,59.95103190344348,
,,,,,,,,,,,,119,0,119,0,,,,,,,,,,,,,,,,,,,,,,,,,,,,,,,,,,,,,,,,,,,,,,,,,1270.4965574000962,None,,,,,,,,,,,,,,,,,,,,,,,,,,,,,,,,,,,,,,,,,,,,,,,,,,,,,,,,,church,74,120,silent,old,yellow,1269.4943061000668,None,y,1269.4943061000668,None,"['y', 'return']","[0.5733473999425769, 0.9572757999412715]",1269.4943061000668,None,,,24,001,2023_Mar_22_1150,ExactRep-v3-final,2021.2.3,59.95103190344348,
,,,,,,,,,,,,120,0,120,0,,,,,,,,,,,,,,,,,,,,,,,,,,,,,,,,,,,,,,,,,,,,,,,,,1271.947909399867,None,,,,,,,,,,,,,,,,,,,,,,,,,,,,,,,,,,,,,,,,,,,,,,,,,,,,,,,,,boy,55,121,silent,old,yellow,1271.0017677000724,None,n,1271.0017677000724,None,"['n', 'return']","[0.6098452997393906, 0.9060108996927738]",1271.0017677000724,None,,,24,001,2023_Mar_22_1150,ExactRep-v3-final,2021.2.3,59.95103190344348,
,,,,,,,,,,,,121,0,121,0,,,,,,,,,,,,,,,,,,,,,,,,,,,,,,,,,,,,,,,,,,,,,,,,,1273.6330403997563,None,,,,,,,,,,,,,,,,,,,,,,,,,,,,,,,,,,,,,,,,,,,,,,,,,,,,,,,,,brain,143,122,silent,new,yellow,1272.4604456000961,None,n,1272.4604456000961,None,"['n', 'return']","[0.7832347000949085, 1.135242700111121]",1272.4604456000961,None,,,24,001,2023_Mar_22_1150,ExactRep-v3-final,2021.2.3,59.95103190344348,
,,,,,,,,,,,,122,0,122,0,,,,,,,,,,,,,,,,,,,,,,,,,,,,,,,,,,,,,,,,,,,,,,,,,1275.1510263001546,None,,,,,,,,,,,,,,,,,,,,,,,,,,,,,,,,,,,,,,,,,,,,,,,,,,,,,,,,,moment,147,123,silent,new,yellow,1274.1441326998174,None,y,1274.1441326998174,None,"['y', 'return']","[0.6114889001473784, 0.9633971001021564]",1274.1441326998174,None,,,24,001,2023_Mar_22_1150,ExactRep-v3-final,2021.2.3,59.95103190344348,
,,,,,,,,,,,,123,0,123,0,,,,,,,,,,,,,,,,,,,,,,,,,,,,,,,,,,,,,,,,,,,,,,,,,1276.8360974998213,None,,,,,,,,,,,,,,,,,,,,,,,,,,,,,,,,,,,,,,,,,,,,,,,,,,,,,,,,,insect,3,124,sing,old,yellow,1275.6604295000434,None,y,1275.6604295000434,None,"['y', 'return']","[0.7272864999249578, 1.135119500104338]",1275.6604295000434,None,,,24,001,2023_Mar_22_1150,ExactRep-v3-final,2021.2.3,59.95103190344348,
,,,,,,,,,,,,124,0,124,0,,,,,,,,,,,,,,,,,,,,,,,,,,,,,,,,,,,,,,,,,,,,,,,,,1278.9717145999894,None,,,,,,,,,,,,,,,,,,,,,,,,,,,,,,,,,,,,,,,,,,,,,,,,,,,,,,,,,author,63,125,silent,old,yellow,1277.344504199922,None,y,1277.344504199922,None,"['y', 'return']","[1.2431151000782847, 1.5871747001074255]",1277.344504199922,None,,,24,001,2023_Mar_22_1150,ExactRep-v3-final,2021.2.3,59.95103190344348,
,,,,,,,,,,,,125,0,125,0,,,,,,,,,,,,,,,,,,,,,,,,,,,,,,,,,,,,,,,,,,,,,,,,,1282.6252039000392,None,,,,,,,,,,,,,,,,,,,,,,,,,,,,,,,,,,,,,,,,,,,,,,,,,,,,,,,,,water,85,126,aloud,old,yellow,1279.4823555001058,None,y,1279.4823555001058,None,"['y', 'return']","[0.9054109998978674, 3.097304899711162]",1279.4823555001058,None,,,24,001,2023_Mar_22_1150,ExactRep-v3-final,2021.2.3,59.95103190344348,
,,,,,,,,,,,,126,0,126,0,,,,,,,,,,,,,,,,,,,,,,,,,,,,,,,,,,,,,,,,,,,,,,,,,1284.059993899893,None,,,,,,,,,,,,,,,,,,,,,,,,,,,,,,,,,,,,,,,,,,,,,,,,,,,,,,,,,wife,127,127,silent,new,yellow,1283.1284109000117,None,n,1283.1284109000117,None,"['n', 'return']","[0.6432663998566568, 0.8912912998348475]",1283.1284109000117,None,,,24,001,2023_Mar_22_1150,ExactRep-v3-final,2021.2.3,59.95103190344348,
,,,,,,,,,,,,127,0,127,0,,,,,,,,,,,,,,,,,,,,,,,,,,,,,,,,,,,,,,,,,,,,,,,,,1285.8285543001257,None,,,,,,,,,,,,,,,,,,,,,,,,,,,,,,,,,,,,,,,,,,,,,,,,,,,,,,,,,city,77,128,silent,old,yellow,1284.5689113000408,None,n,1284.5689113000408,None,"['n', 'return']","[0.8908675997518003, 1.218756599817425]",1284.5689113000408,None,,,24,001,2023_Mar_22_1150,ExactRep-v3-final,2021.2.3,59.95103190344348,
,,,,,,,,,,,,128,0,128,0,,,,,,,,,,,,,,,,,,,,,,,,,,,,,,,,,,,,,,,,,,,,,,,,,1287.329834799748,None,,,,,,,,,,,,,,,,,,,,,,,,,,,,,,,,,,,,,,,,,,,,,,,,,,,,,,,,,breast,109,129,aloud,old,yellow,1286.3358006998897,None,y,1286.3358006998897,None,"['y', 'return']","[0.6198311001062393, 0.9477214999496937]",1286.3358006998897,None,,,24,001,2023_Mar_22_1150,ExactRep-v3-final,2021.2.3,59.95103190344348,
,,,,,,,,,,,,129,0,129,0,,,,,,,,,,,,,,,,,,,,,,,,,,,,,,,,,,,,,,,,,,,,,,,,,1292.2349633998238,None,,,,,,,,,,,,,,,,,,,,,,,,,,,,,,,,,,,,,,,,,,,,,,,,,,,,,,,,,window,83,130,aloud,old,yellow,1287.8396930000745,None,n,1287.8396930000745,None,"['n', 'return']","[3.6678988998755813, 4.356011100113392]",1287.8396930000745,None,,,24,001,2023_Mar_22_1150,ExactRep-v3-final,2021.2.3,59.95103190344348,
,,,,,,,,,,,,130,0,130,0,,,,,,,,,,,,,,,,,,,,,,,,,,,,,,,,,,,,,,,,,,,,,,,,,1293.786546499934,None,,,,,,,,,,,,,,,,,,,,,,,,,,,,,,,,,,,,,,,,,,,,,,,,,,,,,,,,,thought,65,131,silent,old,yellow,1292.738868500106,None,y,1292.738868500106,None,"['y', 'return']","[0.7047606999985874, 1.0008691996335983]",1292.738868500106,None,,,24,001,2023_Mar_22_1150,ExactRep-v3-final,2021.2.3,59.95103190344348,
