trials_fam.thisRepN,trials_fam.thisTrialN,trials_fam.thisN,trials_fam.thisIndex,trials_prc.thisRepN,trials_prc.thisTrialN,trials_prc.thisN,trials_prc.thisIndex,StudyLoop.thisRepN,StudyLoop.thisTrialN,StudyLoop.thisN,StudyLoop.thisIndex,TestLoop.thisRepN,TestLoop.thisTrialN,TestLoop.thisN,TestLoop.thisIndex,text_colortest.started,text_colortest.stopped,key_colortest.keys,key_colortest.rt,key_colortest.started,key_colortest.stopped,textCondition.started,textCondition.stopped,keyCondition.keys,keyCondition.rt,keyCondition.started,keyCondition.stopped,Condition_between,Condition_counterbal,keyWelcome.keys,keyWelcome.rt,keyWelcome.started,keyWelcome.stopped,welcome_a.started,welcome_a.stopped,welcome_b.started,welcome_b.stopped,welcome_c.started,welcome_c.stopped,welcome_d.started,welcome_d.stopped,welcome_e.started,welcome_e.stopped,welcome_f.started,welcome_f.stopped,key_resp_fam_inst.keys,key_resp_fam_inst.rt,key_resp_fam_inst.started,key_resp_fam_inst.stopped,fam_a.started,fam_a.stopped,fam_b.started,fam_b.stopped,fam_c.started,fam_c.stopped,fam_d.started,fam_d.stopped,fam_e.started,fam_e.stopped,fam_f.started,fam_f.stopped,text_famil.started,text_famil.stopped,textBlank500.started,textBlank500.stopped,key_resp_prc_inst.keys,key_resp_prc_inst.rt,key_resp_prc_inst.started,key_resp_prc_inst.stopped,prac_a.started,prac_a.stopped,prac_b.started,prac_b.stopped,prac_c.started,prac_c.stopped,prac_d.started,prac_d.stopped,prac_e.started,prac_e.stopped,prac_f.started,prac_f.stopped,text_prc_trial.started,text_prc_trial.stopped,key_resp_study_inst.keys,key_resp_study_inst.rt,key_resp_study_inst.started,key_resp_study_inst.stopped,crit_a.started,crit_a.stopped,crit_b.started,crit_b.stopped,crit_c.started,crit_c.stopped,crit_d.started,crit_d.stopped,crit_e.started,crit_e.stopped,crit_f.started,crit_f.stopped,study_word,study_num,study_order,study_type,word_color,textStudy.started,textStudy.stopped,keyStudy.keys,keyStudy.started,keyStudy.stopped,post_study.started,post_study.stopped,key_resp_post_study.keys,key_resp_post_study.rt,key_resp_post_study.started,key_resp_post_study.stopped,test_inst.started,test_inst.stopped,key_resp_test_inst.keys,key_resp_test_inst.rt,key_resp_test_inst.started,key_resp_test_inst.stopped,test_word,test_num,test_order,test_condition,old_new_test,word_color_test,textConf.started,textConf.stopped,Participant Response,textInput.started,textInput.stopped,keyResp.keys,keyResp.rt,keyResp.started,keyResp.stopped,textEnd.started,textEnd.stopped,participant,session,date,expName,psychopyVersion,frameRate,
,,,,,,,,,,,,,,,,18.35770060028881,None,y,3.0111990002915263,18.35770060028881,None,,,,,,,,,,,,,,,,,,,,,,,,,,,,,,,,,,,,,,,,,,,,,,,,,,,,,,,,,,,,,,,,,,,,,,,,,,,,,,,,,,,,,,,,,,,,,,,,,,,,,,,,,,,,,,,,,,,,,,25YA,001,2023_Mar_22_1507,ExactRep-v3-final,2021.2.3,59.90646207711588,
,,,,,,,,,,,,,,,,,,,,,,21.397237800061703,None,a,1.1397047997452319,21.397237800061703,None,,,,,,,,,,,,,,,,,,,,,,,,,,,,,,,,,,,,,,,,,,,,,,,,,,,,,,,,,,,,,,,,,,,,,,,,,,,,,,,,,,,,,,,,,,,,,,,,,,,,,,,,,,,,,,,,25YA,001,2023_Mar_22_1507,ExactRep-v3-final,2021.2.3,59.90646207711588,
,,,,,,,,,,,,,,,,,,,,,,,,,,,,colorfoils,a,space,973.8731379001401,32.688653100281954,None,,,,,,,,,,,,,,,,,,,,,,,,,,,,,,,,,,,,,,,,,,,,,,,,,,,,,,,,,,,,,,,,,,,,,,,,,,,,,,,,,,,,,,,,,,,,,,,,,,,,,,,,,,25YA,001,2023_Mar_22_1507,ExactRep-v3-final,2021.2.3,59.90646207711588,
,,,,,,,,,,,,,,,,,,,,,,,,,,,,,,,,,,22.734255800023675,None,22.734255800023675,None,22.734255800023675,None,22.734255800023675,None,22.734255800023675,None,22.734255800023675,None,space,33.12313640024513,1016.7508773002774,None,,,,,,,,,,,,,,,,,,,,,,,,,,,,,,,,,,,,,,,,,,,,,,,,,,,,,,,,,,,,,,,,,,,,,,,,,,,,,,,,,,,,,,,,,,25YA,001,2023_Mar_22_1507,ExactRep-v3-final,2021.2.3,59.90646207711588,
0,0,0,0,,,,,,,,,,,,,,,,,,,,,,,,,,,,,,,,,,,,,,,,,,,,,,,1006.8052527001128,None,1006.8052527001128,None,1006.8052527001128,None,1006.8052527001128,None,1006.8052527001128,None,1006.8052527001128,None,1049.9639298999682,None,1051.9611329003237,None,,,,,,,,,,,,,,,,,,,,,,,,,,,,,,,,,,,,,,,,,,,,,,,,,,,,,,,,,,,,,,,,,,,,,,,,,,25YA,001,2023_Mar_22_1507,ExactRep-v3-final,2021.2.3,59.90646207711588,
1,0,1,0,,,,,,,,,,,,,,,,,,,,,,,,,,,,,,,,,,,,,,,,,,,,,,,,,,,,,,,,,,,1052.4850115003064,None,1054.4803333003074,None,,,,,,,,,,,,,,,,,,,,,,,,,,,,,,,,,,,,,,,,,,,,,,,,,,,,,,,,,,,,,,,,,,,,,,,,,,25YA,001,2023_Mar_22_1507,ExactRep-v3-final,2021.2.3,59.90646207711588,
2,0,2,0,,,,,,,,,,,,,,,,,,,,,,,,,,,,,,,,,,,,,,,,,,,,,,,,,,,,,,,,,,,1054.9887566999532,None,1056.9994902000763,None,,,,,,,,,,,,,,,,,,,,,,,,,,,,,,,,,,,,,,,,,,,,,,,,,,,,,,,,,,,,,,,,,,,,,,,,,,25YA,001,2023_Mar_22_1507,ExactRep-v3-final,2021.2.3,59.90646207711588,
3,0,3,0,,,,,,,,,,,,,,,,,,,,,,,,,,,,,,,,,,,,,,,,,,,,,,,,,,,,,,,,,,,1057.5001616002992,None,1059.5021732002497,None,,,,,,,,,,,,,,,,,,,,,,,,,,,,,,,,,,,,,,,,,,,,,,,,,,,,,,,,,,,,,,,,,,,,,,,,,,25YA,001,2023_Mar_22_1507,ExactRep-v3-final,2021.2.3,59.90646207711588,
4,0,4,0,,,,,,,,,,,,,,,,,,,,,,,,,,,,,,,,,,,,,,,,,,,,,,,,,,,,,,,,,,,1060.0051736002788,None,1062.0047829002142,None,,,,,,,,,,,,,,,,,,,,,,,,,,,,,,,,,,,,,,,,,,,,,,,,,,,,,,,,,,,,,,,,,,,,,,,,,,25YA,001,2023_Mar_22_1507,ExactRep-v3-final,2021.2.3,59.90646207711588,
5,0,5,0,,,,,,,,,,,,,,,,,,,,,,,,,,,,,,,,,,,,,,,,,,,,,,,,,,,,,,,,,,,1062.5082594999112,None,1064.5071507003158,None,,,,,,,,,,,,,,,,,,,,,,,,,,,,,,,,,,,,,,,,,,,,,,,,,,,,,,,,,,,,,,,,,,,,,,,,,,25YA,001,2023_Mar_22_1507,ExactRep-v3-final,2021.2.3,59.90646207711588,
6,0,6,0,,,,,,,,,,,,,,,,,,,,,,,,,,,,,,,,,,,,,,,,,,,,,,,,,,,,,,,,,,,1065.007443500217,None,1067.0096076000482,None,,,,,,,,,,,,,,,,,,,,,,,,,,,,,,,,,,,,,,,,,,,,,,,,,,,,,,,,,,,,,,,,,,,,,,,,,,25YA,001,2023_Mar_22_1507,ExactRep-v3-final,2021.2.3,59.90646207711588,
7,0,7,0,,,,,,,,,,,,,,,,,,,,,,,,,,,,,,,,,,,,,,,,,,,,,,,,,,,,,,,,,,,1067.5119699002244,None,1069.5121088000014,None,,,,,,,,,,,,,,,,,,,,,,,,,,,,,,,,,,,,,,,,,,,,,,,,,,,,,,,,,,,,,,,,,,,,,,,,,,25YA,001,2023_Mar_22_1507,ExactRep-v3-final,2021.2.3,59.90646207711588,
8,0,8,0,,,,,,,,,,,,,,,,,,,,,,,,,,,,,,,,,,,,,,,,,,,,,,,,,,,,,,,,,,,1070.0145471002907,None,1072.0145923001692,None,,,,,,,,,,,,,,,,,,,,,,,,,,,,,,,,,,,,,,,,,,,,,,,,,,,,,,,,,,,,,,,,,,,,,,,,,,25YA,001,2023_Mar_22_1507,ExactRep-v3-final,2021.2.3,59.90646207711588,
9,0,9,0,,,,,,,,,,,,,,,,,,,,,,,,,,,,,,,,,,,,,,,,,,,,,,,,,,,,,,,,,,,1072.5171370003372,None,1074.517324599903,None,,,,,,,,,,,,,,,,,,,,,,,,,,,,,,,,,,,,,,,,,,,,,,,,,,,,,,,,,,,,,,,,,,,,,,,,,,25YA,001,2023_Mar_22_1507,ExactRep-v3-final,2021.2.3,59.90646207711588,
10,0,10,0,,,,,,,,,,,,,,,,,,,,,,,,,,,,,,,,,,,,,,,,,,,,,,,,,,,,,,,,,,,1075.0211767000146,None,1077.036341900006,None,,,,,,,,,,,,,,,,,,,,,,,,,,,,,,,,,,,,,,,,,,,,,,,,,,,,,,,,,,,,,,,,,,,,,,,,,,25YA,001,2023_Mar_22_1507,ExactRep-v3-final,2021.2.3,59.90646207711588,
11,0,11,0,,,,,,,,,,,,,,,,,,,,,,,,,,,,,,,,,,,,,,,,,,,,,,,,,,,,,,,,,,,1077.5366838001646,None,1079.538625500165,None,,,,,,,,,,,,,,,,,,,,,,,,,,,,,,,,,,,,,,,,,,,,,,,,,,,,,,,,,,,,,,,,,,,,,,,,,,25YA,001,2023_Mar_22_1507,ExactRep-v3-final,2021.2.3,59.90646207711588,
12,0,12,0,,,,,,,,,,,,,,,,,,,,,,,,,,,,,,,,,,,,,,,,,,,,,,,,,,,,,,,,,,,1080.0392460003495,None,1082.0413105003536,None,,,,,,,,,,,,,,,,,,,,,,,,,,,,,,,,,,,,,,,,,,,,,,,,,,,,,,,,,,,,,,,,,,,,,,,,,,25YA,001,2023_Mar_22_1507,ExactRep-v3-final,2021.2.3,59.90646207711588,
13,0,13,0,,,,,,,,,,,,,,,,,,,,,,,,,,,,,,,,,,,,,,,,,,,,,,,,,,,,,,,,,,,1082.544021599926,None,1084.5439332001843,None,,,,,,,,,,,,,,,,,,,,,,,,,,,,,,,,,,,,,,,,,,,,,,,,,,,,,,,,,,,,,,,,,,,,,,,,,,25YA,001,2023_Mar_22_1507,ExactRep-v3-final,2021.2.3,59.90646207711588,
14,0,14,0,,,,,,,,,,,,,,,,,,,,,,,,,,,,,,,,,,,,,,,,,,,,,,,,,,,,,,,,,,,1085.0503020002507,None,1087.0632021999918,None,,,,,,,,,,,,,,,,,,,,,,,,,,,,,,,,,,,,,,,,,,,,,,,,,,,,,,,,,,,,,,,,,,,,,,,,,,25YA,001,2023_Mar_22_1507,ExactRep-v3-final,2021.2.3,59.90646207711588,
,,,,,,,,,,,,,,,,,,,,,,,,,,,,,,,,,,,,,,,,,,,,,,,,,,,,,,,,,,,,,,,,,,space,47.46009470010176,1097.7018535002135,None,,,,,,,,,,,,,,,,,,,,,,,,,,,,,,,,,,,,,,,,,,,,,,,,,,,,,,,,,,,,,,,,,,,,,,25YA,001,2023_Mar_22_1507,ExactRep-v3-final,2021.2.3,59.90646207711588,
,,,,0,0,0,0,,,,,,,,,,,,,,,,,,,,,,,,,,,,,,,,,,,,,,,,,,,,,,,,,,,,,,,,,1147.2732283002697,None,,,,,1087.7344986000098,None,1087.7344986000098,None,1087.7344986000098,None,1087.7344986000098,None,1087.7344986000098,None,1087.7344986000098,None,1145.2630914002657,None,,,,,,,,,,,,,,,,,,,,,,,,,,,,,,,,,,,,,,,,,,,,,,,,,,,,,,,,25YA,001,2023_Mar_22_1507,ExactRep-v3-final,2021.2.3,59.90646207711588,
,,,,1,0,1,0,,,,,,,,,,,,,,,,,,,,,,,,,,,,,,,,,,,,,,,,,,,,,,,,,,,,,,,,,1149.7753435000777,None,,,,,,,,,,,,,,,,,1147.773736400064,None,,,,,,,,,,,,,,,,,,,,,,,,,,,,,,,,,,,,,,,,,,,,,,,,,,,,,,,,25YA,001,2023_Mar_22_1507,ExactRep-v3-final,2021.2.3,59.90646207711588,
,,,,2,0,2,0,,,,,,,,,,,,,,,,,,,,,,,,,,,,,,,,,,,,,,,,,,,,,,,,,,,,,,,,,1152.277910800185,None,,,,,,,,,,,,,,,,,1150.2760968999937,None,,,,,,,,,,,,,,,,,,,,,,,,,,,,,,,,,,,,,,,,,,,,,,,,,,,,,,,,25YA,001,2023_Mar_22_1507,ExactRep-v3-final,2021.2.3,59.90646207711588,
,,,,3,0,3,0,,,,,,,,,,,,,,,,,,,,,,,,,,,,,,,,,,,,,,,,,,,,,,,,,,,,,,,,,1154.7803778001107,None,,,,,,,,,,,,,,,,,1152.7786761000752,None,,,,,,,,,,,,,,,,,,,,,,,,,,,,,,,,,,,,,,,,,,,,,,,,,,,,,,,,25YA,001,2023_Mar_22_1507,ExactRep-v3-final,2021.2.3,59.90646207711588,
,,,,4,0,4,0,,,,,,,,,,,,,,,,,,,,,,,,,,,,,,,,,,,,,,,,,,,,,,,,,,,,,,,,,1157.2833859999664,None,,,,,,,,,,,,,,,,,1155.2812449000776,None,,,,,,,,,,,,,,,,,,,,,,,,,,,,,,,,,,,,,,,,,,,,,,,,,,,,,,,,25YA,001,2023_Mar_22_1507,ExactRep-v3-final,2021.2.3,59.90646207711588,
,,,,5,0,5,0,,,,,,,,,,,,,,,,,,,,,,,,,,,,,,,,,,,,,,,,,,,,,,,,,,,,,,,,,1159.7857007002458,None,,,,,,,,,,,,,,,,,1157.7836679001339,None,,,,,,,,,,,,,,,,,,,,,,,,,,,,,,,,,,,,,,,,,,,,,,,,,,,,,,,,25YA,001,2023_Mar_22_1507,ExactRep-v3-final,2021.2.3,59.90646207711588,
,,,,6,0,6,0,,,,,,,,,,,,,,,,,,,,,,,,,,,,,,,,,,,,,,,,,,,,,,,,,,,,,,,,,1162.2882227003574,None,,,,,,,,,,,,,,,,,1160.2861995999701,None,,,,,,,,,,,,,,,,,,,,,,,,,,,,,,,,,,,,,,,,,,,,,,,,,,,,,,,,25YA,001,2023_Mar_22_1507,ExactRep-v3-final,2021.2.3,59.90646207711588,
,,,,7,0,7,0,,,,,,,,,,,,,,,,,,,,,,,,,,,,,,,,,,,,,,,,,,,,,,,,,,,,,,,,,1164.7907376000658,None,,,,,,,,,,,,,,,,,1162.7887091999874,None,,,,,,,,,,,,,,,,,,,,,,,,,,,,,,,,,,,,,,,,,,,,,,,,,,,,,,,,25YA,001,2023_Mar_22_1507,ExactRep-v3-final,2021.2.3,59.90646207711588,
,,,,8,0,8,0,,,,,,,,,,,,,,,,,,,,,,,,,,,,,,,,,,,,,,,,,,,,,,,,,,,,,,,,,1167.2930847001262,None,,,,,,,,,,,,,,,,,1165.2913969000801,None,,,,,,,,,,,,,,,,,,,,,,,,,,,,,,,,,,,,,,,,,,,,,,,,,,,,,,,,25YA,001,2023_Mar_22_1507,ExactRep-v3-final,2021.2.3,59.90646207711588,
,,,,9,0,9,0,,,,,,,,,,,,,,,,,,,,,,,,,,,,,,,,,,,,,,,,,,,,,,,,,,,,,,,,,1169.7955367001705,None,,,,,,,,,,,,,,,,,1167.7936209999025,None,,,,,,,,,,,,,,,,,,,,,,,,,,,,,,,,,,,,,,,,,,,,,,,,,,,,,,,,25YA,001,2023_Mar_22_1507,ExactRep-v3-final,2021.2.3,59.90646207711588,
,,,,10,0,10,0,,,,,,,,,,,,,,,,,,,,,,,,,,,,,,,,,,,,,,,,,,,,,,,,,,,,,,,,,1172.298206300009,None,,,,,,,,,,,,,,,,,1170.2962993001565,None,,,,,,,,,,,,,,,,,,,,,,,,,,,,,,,,,,,,,,,,,,,,,,,,,,,,,,,,25YA,001,2023_Mar_22_1507,ExactRep-v3-final,2021.2.3,59.90646207711588,
,,,,11,0,11,0,,,,,,,,,,,,,,,,,,,,,,,,,,,,,,,,,,,,,,,,,,,,,,,,,,,,,,,,,1174.8007441000082,None,,,,,,,,,,,,,,,,,1172.7985950000584,None,,,,,,,,,,,,,,,,,,,,,,,,,,,,,,,,,,,,,,,,,,,,,,,,,,,,,,,,25YA,001,2023_Mar_22_1507,ExactRep-v3-final,2021.2.3,59.90646207711588,
,,,,12,0,12,0,,,,,,,,,,,,,,,,,,,,,,,,,,,,,,,,,,,,,,,,,,,,,,,,,,,,,,,,,1177.3032491002232,None,,,,,,,,,,,,,,,,,1175.3012855001725,None,,,,,,,,,,,,,,,,,,,,,,,,,,,,,,,,,,,,,,,,,,,,,,,,,,,,,,,,25YA,001,2023_Mar_22_1507,ExactRep-v3-final,2021.2.3,59.90646207711588,
,,,,13,0,13,0,,,,,,,,,,,,,,,,,,,,,,,,,,,,,,,,,,,,,,,,,,,,,,,,,,,,,,,,,1179.8057321002707,None,,,,,,,,,,,,,,,,,1177.8039063001052,None,,,,,,,,,,,,,,,,,,,,,,,,,,,,,,,,,,,,,,,,,,,,,,,,,,,,,,,,25YA,001,2023_Mar_22_1507,ExactRep-v3-final,2021.2.3,59.90646207711588,
,,,,14,0,14,0,,,,,,,,,,,,,,,,,,,,,,,,,,,,,,,,,,,,,,,,,,,,,,,,,,,,,,,,,1182.3084411001764,None,,,,,,,,,,,,,,,,,1180.3062561000697,None,,,,,,,,,,,,,,,,,,,,,,,,,,,,,,,,,,,,,,,,,,,,,,,,,,,,,,,,25YA,001,2023_Mar_22_1507,ExactRep-v3-final,2021.2.3,59.90646207711588,
,,,,,,,,,,,,,,,,,,,,,,,,,,,,,,,,,,,,,,,,,,,,,,,,,,,,,,,,,,,,,,,,,,,,,,,,,,,,,,,,,,,,space,28.35698159970343,1192.9090625001118,None,,,,,,,,,,,,,,,,,,,,,,,,,,,,,,,,,,,,,,,,,,,,,,,,,,,,25YA,001,2023_Mar_22_1507,ExactRep-v3-final,2021.2.3,59.90646207711588,
,,,,,,,,0,0,0,0,,,,,,,,,,,,,,,,,,,,,,,,,,,,,,,,,,,,,,,,,,,,,,,,,,,,,1223.3660488999449,None,,,,,,,,,,,,,,,,,,,,,,,1182.9843782000244,None,1182.9843782000244,None,1182.9843782000244,None,1182.9843782000244,None,1182.9843782000244,None,1182.9843782000244,None,tree,69,1,silent,blue,1221.364976900164,None,None,1221.364976900164,None,,,,,,,,,,,,,,,,,,,,,,,,,,,,,,25YA,001,2023_Mar_22_1507,ExactRep-v3-final,2021.2.3,59.90646207711588,
,,,,,,,,1,0,1,0,,,,,,,,,,,,,,,,,,,,,,,,,,,,,,,,,,,,,,,,,,,,,,,,,,,,,1225.8850654000416,None,,,,,,,,,,,,,,,,,,,,,,,,,,,,,,,,,,,insect,53,2,silent,blue,1223.875829800032,None,None,1223.875829800032,None,,,,,,,,,,,,,,,,,,,,,,,,,,,,,,25YA,001,2023_Mar_22_1507,ExactRep-v3-final,2021.2.3,59.90646207711588,
,,,,,,,,2,0,2,0,,,,,,,,,,,,,,,,,,,,,,,,,,,,,,,,,,,,,,,,,,,,,,,,,,,,,1228.387549099978,None,,,,,,,,,,,,,,,,,,,,,,,,,,,,,,,,,,,table,76,3,silent,blue,1226.3855063999072,None,None,1226.3855063999072,None,,,,,,,,,,,,,,,,,,,,,,,,,,,,,,25YA,001,2023_Mar_22_1507,ExactRep-v3-final,2021.2.3,59.90646207711588,
,,,,,,,,3,0,3,0,,,,,,,,,,,,,,,,,,,,,,,,,,,,,,,,,,,,,,,,,,,,,,,,,,,,,1230.906742400024,None,,,,,,,,,,,,,,,,,,,,,,,,,,,,,,,,,,,plant,58,4,silent,blue,1228.903439800255,None,None,1228.903439800255,None,,,,,,,,,,,,,,,,,,,,,,,,,,,,,,25YA,001,2023_Mar_22_1507,ExactRep-v3-final,2021.2.3,59.90646207711588,
,,,,,,,,4,0,4,0,,,,,,,,,,,,,,,,,,,,,,,,,,,,,,,,,,,,,,,,,,,,,,,,,,,,,1233.4091819003224,None,,,,,,,,,,,,,,,,,,,,,,,,,,,,,,,,,,,corn,110,5,aloud,red,1231.407219500281,None,None,1231.407219500281,None,,,,,,,,,,,,,,,,,,,,,,,,,,,,,,25YA,001,2023_Mar_22_1507,ExactRep-v3-final,2021.2.3,59.90646207711588,
,,,,,,,,5,0,5,0,,,,,,,,,,,,,,,,,,,,,,,,,,,,,,,,,,,,,,,,,,,,,,,,,,,,,1235.911632000003,None,,,,,,,,,,,,,,,,,,,,,,,,,,,,,,,,,,,lad,60,6,silent,blue,1233.909498100169,None,None,1233.909498100169,None,,,,,,,,,,,,,,,,,,,,,,,,,,,,,,25YA,001,2023_Mar_22_1507,ExactRep-v3-final,2021.2.3,59.90646207711588,
,,,,,,,,6,0,6,0,,,,,,,,,,,,,,,,,,,,,,,,,,,,,,,,,,,,,,,,,,,,,,,,,,,,,1238.4141414002515,None,,,,,,,,,,,,,,,,,,,,,,,,,,,,,,,,,,,bottle,112,7,aloud,red,1236.4134089001454,None,None,1236.4134089001454,None,,,,,,,,,,,,,,,,,,,,,,,,,,,,,,25YA,001,2023_Mar_22_1507,ExactRep-v3-final,2021.2.3,59.90646207711588,
,,,,,,,,7,0,7,0,,,,,,,,,,,,,,,,,,,,,,,,,,,,,,,,,,,,,,,,,,,,,,,,,,,,,1240.9331962000579,None,,,,,,,,,,,,,,,,,,,,,,,,,,,,,,,,,,,humour,43,8,silent,blue,1238.9197912001982,None,None,1238.9197912001982,None,,,,,,,,,,,,,,,,,,,,,,,,,,,,,,25YA,001,2023_Mar_22_1507,ExactRep-v3-final,2021.2.3,59.90646207711588,
,,,,,,,,8,0,8,0,,,,,,,,,,,,,,,,,,,,,,,,,,,,,,,,,,,,,,,,,,,,,,,,,,,,,1243.4527622000314,None,,,,,,,,,,,,,,,,,,,,,,,,,,,,,,,,,,,grass,51,9,silent,blue,1241.439704600256,None,None,1241.439704600256,None,,,,,,,,,,,,,,,,,,,,,,,,,,,,,,25YA,001,2023_Mar_22_1507,ExactRep-v3-final,2021.2.3,59.90646207711588,
,,,,,,,,9,0,9,0,,,,,,,,,,,,,,,,,,,,,,,,,,,,,,,,,,,,,,,,,,,,,,,,,,,,,1245.9719104999676,None,,,,,,,,,,,,,,,,,,,,,,,,,,,,,,,,,,,storm,4,10,sing,white,1243.9624113999307,None,None,1243.9624113999307,None,,,,,,,,,,,,,,,,,,,,,,,,,,,,,,25YA,001,2023_Mar_22_1507,ExactRep-v3-final,2021.2.3,59.90646207711588,
,,,,,,,,10,0,10,0,,,,,,,,,,,,,,,,,,,,,,,,,,,,,,,,,,,,,,,,,,,,,,,,,,,,,1248.4910707003437,None,,,,,,,,,,,,,,,,,,,,,,,,,,,,,,,,,,,fortune,94,11,aloud,red,1246.475559500046,None,None,1246.475559500046,None,,,,,,,,,,,,,,,,,,,,,,,,,,,,,,25YA,001,2023_Mar_22_1507,ExactRep-v3-final,2021.2.3,59.90646207711588,
,,,,,,,,11,0,11,0,,,,,,,,,,,,,,,,,,,,,,,,,,,,,,,,,,,,,,,,,,,,,,,,,,,,,1251.0102556999773,None,,,,,,,,,,,,,,,,,,,,,,,,,,,,,,,,,,,valley,40,12,silent,blue,1248.9963277000934,None,None,1248.9963277000934,None,,,,,,,,,,,,,,,,,,,,,,,,,,,,,,25YA,001,2023_Mar_22_1507,ExactRep-v3-final,2021.2.3,59.90646207711588,
,,,,,,,,12,0,12,0,,,,,,,,,,,,,,,,,,,,,,,,,,,,,,,,,,,,,,,,,,,,,,,,,,,,,1253.5313240000978,None,,,,,,,,,,,,,,,,,,,,,,,,,,,,,,,,,,,skin,9,13,sing,white,1251.5156509000808,None,None,1251.5156509000808,None,,,,,,,,,,,,,,,,,,,,,,,,,,,,,,25YA,001,2023_Mar_22_1507,ExactRep-v3-final,2021.2.3,59.90646207711588,
,,,,,,,,13,0,13,0,,,,,,,,,,,,,,,,,,,,,,,,,,,,,,,,,,,,,,,,,,,,,,,,,,,,,1256.048657400068,None,,,,,,,,,,,,,,,,,,,,,,,,,,,,,,,,,,,nail,78,14,silent,blue,1254.0356677002273,None,None,1254.0356677002273,None,,,,,,,,,,,,,,,,,,,,,,,,,,,,,,25YA,001,2023_Mar_22_1507,ExactRep-v3-final,2021.2.3,59.90646207711588,
,,,,,,,,14,0,14,0,,,,,,,,,,,,,,,,,,,,,,,,,,,,,,,,,,,,,,,,,,,,,,,,,,,,,1258.5675635002553,None,,,,,,,,,,,,,,,,,,,,,,,,,,,,,,,,,,,victory,74,15,silent,blue,1256.5530290002935,None,None,1256.5530290002935,None,,,,,,,,,,,,,,,,,,,,,,,,,,,,,,25YA,001,2023_Mar_22_1507,ExactRep-v3-final,2021.2.3,59.90646207711588,
,,,,,,,,15,0,15,0,,,,,,,,,,,,,,,,,,,,,,,,,,,,,,,,,,,,,,,,,,,,,,,,,,,,,1261.0872077001259,None,,,,,,,,,,,,,,,,,,,,,,,,,,,,,,,,,,,ability,16,16,sing,white,1259.0767910000868,None,None,1259.0767910000868,None,,,,,,,,,,,,,,,,,,,,,,,,,,,,,,25YA,001,2023_Mar_22_1507,ExactRep-v3-final,2021.2.3,59.90646207711588,
,,,,,,,,16,0,16,0,,,,,,,,,,,,,,,,,,,,,,,,,,,,,,,,,,,,,,,,,,,,,,,,,,,,,1263.605988100171,None,,,,,,,,,,,,,,,,,,,,,,,,,,,,,,,,,,,paper,25,17,sing,white,1261.5968601000495,None,None,1261.5968601000495,None,,,,,,,,,,,,,,,,,,,,,,,,,,,,,,25YA,001,2023_Mar_22_1507,ExactRep-v3-final,2021.2.3,59.90646207711588,
,,,,,,,,17,0,17,0,,,,,,,,,,,,,,,,,,,,,,,,,,,,,,,,,,,,,,,,,,,,,,,,,,,,,1266.1252183001488,None,,,,,,,,,,,,,,,,,,,,,,,,,,,,,,,,,,,soil,38,18,sing,white,1264.116532899905,None,None,1264.116532899905,None,,,,,,,,,,,,,,,,,,,,,,,,,,,,,,25YA,001,2023_Mar_22_1507,ExactRep-v3-final,2021.2.3,59.90646207711588,
,,,,,,,,18,0,18,0,,,,,,,,,,,,,,,,,,,,,,,,,,,,,,,,,,,,,,,,,,,,,,,,,,,,,1268.627746900078,None,,,,,,,,,,,,,,,,,,,,,,,,,,,,,,,,,,,wife,84,19,aloud,red,1266.6272485000081,None,None,1266.6272485000081,None,,,,,,,,,,,,,,,,,,,,,,,,,,,,,,25YA,001,2023_Mar_22_1507,ExactRep-v3-final,2021.2.3,59.90646207711588,
,,,,,,,,19,0,19,0,,,,,,,,,,,,,,,,,,,,,,,,,,,,,,,,,,,,,,,,,,,,,,,,,,,,,1271.1300979000516,None,,,,,,,,,,,,,,,,,,,,,,,,,,,,,,,,,,,palace,13,20,sing,white,1269.1284829000942,None,None,1269.1284829000942,None,,,,,,,,,,,,,,,,,,,,,,,,,,,,,,25YA,001,2023_Mar_22_1507,ExactRep-v3-final,2021.2.3,59.90646207711588,
,,,,,,,,20,0,20,0,,,,,,,,,,,,,,,,,,,,,,,,,,,,,,,,,,,,,,,,,,,,,,,,,,,,,1273.6495898999274,None,,,,,,,,,,,,,,,,,,,,,,,,,,,,,,,,,,,pole,85,21,aloud,red,1271.638812100049,None,None,1271.638812100049,None,,,,,,,,,,,,,,,,,,,,,,,,,,,,,,25YA,001,2023_Mar_22_1507,ExactRep-v3-final,2021.2.3,59.90646207711588,
,,,,,,,,21,0,21,0,,,,,,,,,,,,,,,,,,,,,,,,,,,,,,,,,,,,,,,,,,,,,,,,,,,,,1276.1517145000398,None,,,,,,,,,,,,,,,,,,,,,,,,,,,,,,,,,,,pipe,18,22,sing,white,1274.1511622001417,None,None,1274.1511622001417,None,,,,,,,,,,,,,,,,,,,,,,,,,,,,,,25YA,001,2023_Mar_22_1507,ExactRep-v3-final,2021.2.3,59.90646207711588,
,,,,,,,,22,0,22,0,,,,,,,,,,,,,,,,,,,,,,,,,,,,,,,,,,,,,,,,,,,,,,,,,,,,,1278.6546241999604,None,,,,,,,,,,,,,,,,,,,,,,,,,,,,,,,,,,,salary,61,23,silent,blue,1276.6524404003285,None,None,1276.6524404003285,None,,,,,,,,,,,,,,,,,,,,,,,,,,,,,,25YA,001,2023_Mar_22_1507,ExactRep-v3-final,2021.2.3,59.90646207711588,
,,,,,,,,23,0,23,0,,,,,,,,,,,,,,,,,,,,,,,,,,,,,,,,,,,,,,,,,,,,,,,,,,,,,1281.1569370003417,None,,,,,,,,,,,,,,,,,,,,,,,,,,,,,,,,,,,officer,104,24,aloud,red,1279.1549586001784,None,None,1279.1549586001784,None,,,,,,,,,,,,,,,,,,,,,,,,,,,,,,25YA,001,2023_Mar_22_1507,ExactRep-v3-final,2021.2.3,59.90646207711588,
,,,,,,,,24,0,24,0,,,,,,,,,,,,,,,,,,,,,,,,,,,,,,,,,,,,,,,,,,,,,,,,,,,,,1283.6594047001563,None,,,,,,,,,,,,,,,,,,,,,,,,,,,,,,,,,,,factory,86,25,aloud,red,1281.6573904003017,None,None,1281.6573904003017,None,,,,,,,,,,,,,,,,,,,,,,,,,,,,,,25YA,001,2023_Mar_22_1507,ExactRep-v3-final,2021.2.3,59.90646207711588,
,,,,,,,,25,0,25,0,,,,,,,,,,,,,,,,,,,,,,,,,,,,,,,,,,,,,,,,,,,,,,,,,,,,,1286.1619521002285,None,,,,,,,,,,,,,,,,,,,,,,,,,,,,,,,,,,,air,6,26,sing,white,1284.1599441003054,None,None,1284.1599441003054,None,,,,,,,,,,,,,,,,,,,,,,,,,,,,,,25YA,001,2023_Mar_22_1507,ExactRep-v3-final,2021.2.3,59.90646207711588,
,,,,,,,,26,0,26,0,,,,,,,,,,,,,,,,,,,,,,,,,,,,,,,,,,,,,,,,,,,,,,,,,,,,,1288.6644394001924,None,,,,,,,,,,,,,,,,,,,,,,,,,,,,,,,,,,,rod,57,27,silent,blue,1286.6624762001447,None,None,1286.6624762001447,None,,,,,,,,,,,,,,,,,,,,,,,,,,,,,,25YA,001,2023_Mar_22_1507,ExactRep-v3-final,2021.2.3,59.90646207711588,
,,,,,,,,27,0,27,0,,,,,,,,,,,,,,,,,,,,,,,,,,,,,,,,,,,,,,,,,,,,,,,,,,,,,1291.1670833001845,None,,,,,,,,,,,,,,,,,,,,,,,,,,,,,,,,,,,priest,5,28,sing,white,1289.1649508001283,None,None,1289.1649508001283,None,,,,,,,,,,,,,,,,,,,,,,,,,,,,,,25YA,001,2023_Mar_22_1507,ExactRep-v3-final,2021.2.3,59.90646207711588,
,,,,,,,,28,0,28,0,,,,,,,,,,,,,,,,,,,,,,,,,,,,,,,,,,,,,,,,,,,,,,,,,,,,,1293.6697996002622,None,,,,,,,,,,,,,,,,,,,,,,,,,,,,,,,,,,,pupil,44,29,silent,blue,1291.670796399936,None,None,1291.670796399936,None,,,,,,,,,,,,,,,,,,,,,,,,,,,,,,25YA,001,2023_Mar_22_1507,ExactRep-v3-final,2021.2.3,59.90646207711588,
,,,,,,,,29,0,29,0,,,,,,,,,,,,,,,,,,,,,,,,,,,,,,,,,,,,,,,,,,,,,,,,,,,,,1296.1734120002948,None,,,,,,,,,,,,,,,,,,,,,,,,,,,,,,,,,,,freedom,26,30,sing,white,1294.1700853002258,None,None,1294.1700853002258,None,,,,,,,,,,,,,,,,,,,,,,,,,,,,,,25YA,001,2023_Mar_22_1507,ExactRep-v3-final,2021.2.3,59.90646207711588,
,,,,,,,,30,0,30,0,,,,,,,,,,,,,,,,,,,,,,,,,,,,,,,,,,,,,,,,,,,,,,,,,,,,,1298.6912791999057,None,,,,,,,,,,,,,,,,,,,,,,,,,,,,,,,,,,,shore,108,31,aloud,red,1296.677950900048,None,None,1296.677950900048,None,,,,,,,,,,,,,,,,,,,,,,,,,,,,,,25YA,001,2023_Mar_22_1507,ExactRep-v3-final,2021.2.3,59.90646207711588,
,,,,,,,,31,0,31,0,,,,,,,,,,,,,,,,,,,,,,,,,,,,,,,,,,,,,,,,,,,,,,,,,,,,,1301.2105682003312,None,,,,,,,,,,,,,,,,,,,,,,,,,,,,,,,,,,,present,90,32,aloud,red,1299.2032091999426,None,None,1299.2032091999426,None,,,,,,,,,,,,,,,,,,,,,,,,,,,,,,25YA,001,2023_Mar_22_1507,ExactRep-v3-final,2021.2.3,59.90646207711588,
,,,,,,,,32,0,32,0,,,,,,,,,,,,,,,,,,,,,,,,,,,,,,,,,,,,,,,,,,,,,,,,,,,,,1303.7128171999939,None,,,,,,,,,,,,,,,,,,,,,,,,,,,,,,,,,,,money,89,33,aloud,red,1301.7135312999599,None,None,1301.7135312999599,None,,,,,,,,,,,,,,,,,,,,,,,,,,,,,,25YA,001,2023_Mar_22_1507,ExactRep-v3-final,2021.2.3,59.90646207711588,
,,,,,,,,33,0,33,0,,,,,,,,,,,,,,,,,,,,,,,,,,,,,,,,,,,,,,,,,,,,,,,,,,,,,1306.215517600067,None,,,,,,,,,,,,,,,,,,,,,,,,,,,,,,,,,,,moral,36,34,sing,white,1304.213337100111,None,None,1304.213337100111,None,,,,,,,,,,,,,,,,,,,,,,,,,,,,,,25YA,001,2023_Mar_22_1507,ExactRep-v3-final,2021.2.3,59.90646207711588,
,,,,,,,,34,0,34,0,,,,,,,,,,,,,,,,,,,,,,,,,,,,,,,,,,,,,,,,,,,,,,,,,,,,,1308.7180206002668,None,,,,,,,,,,,,,,,,,,,,,,,,,,,,,,,,,,,blood,93,35,aloud,red,1306.7183078001253,None,None,1306.7183078001253,None,,,,,,,,,,,,,,,,,,,,,,,,,,,,,,25YA,001,2023_Mar_22_1507,ExactRep-v3-final,2021.2.3,59.90646207711588,
,,,,,,,,35,0,35,0,,,,,,,,,,,,,,,,,,,,,,,,,,,,,,,,,,,,,,,,,,,,,,,,,,,,,1311.237160100136,None,,,,,,,,,,,,,,,,,,,,,,,,,,,,,,,,,,,beast,103,36,aloud,red,1309.225643900223,None,None,1309.225643900223,None,,,,,,,,,,,,,,,,,,,,,,,,,,,,,,25YA,001,2023_Mar_22_1507,ExactRep-v3-final,2021.2.3,59.90646207711588,
,,,,,,,,36,0,36,0,,,,,,,,,,,,,,,,,,,,,,,,,,,,,,,,,,,,,,,,,,,,,,,,,,,,,1313.739668500144,None,,,,,,,,,,,,,,,,,,,,,,,,,,,,,,,,,,,boy,3,37,sing,white,1311.7376665002666,None,None,1311.7376665002666,None,,,,,,,,,,,,,,,,,,,,,,,,,,,,,,25YA,001,2023_Mar_22_1507,ExactRep-v3-final,2021.2.3,59.90646207711588,
,,,,,,,,37,0,37,0,,,,,,,,,,,,,,,,,,,,,,,,,,,,,,,,,,,,,,,,,,,,,,,,,,,,,1316.242217299994,None,,,,,,,,,,,,,,,,,,,,,,,,,,,,,,,,,,,flower,23,38,sing,white,1314.2419806001708,None,None,1314.2419806001708,None,,,,,,,,,,,,,,,,,,,,,,,,,,,,,,25YA,001,2023_Mar_22_1507,ExactRep-v3-final,2021.2.3,59.90646207711588,
,,,,,,,,38,0,38,0,,,,,,,,,,,,,,,,,,,,,,,,,,,,,,,,,,,,,,,,,,,,,,,,,,,,,1318.7614065003581,None,,,,,,,,,,,,,,,,,,,,,,,,,,,,,,,,,,,woods,114,39,aloud,red,1316.7479868000373,None,None,1316.7479868000373,None,,,,,,,,,,,,,,,,,,,,,,,,,,,,,,25YA,001,2023_Mar_22_1507,ExactRep-v3-final,2021.2.3,59.90646207711588,
,,,,,,,,39,0,39,0,,,,,,,,,,,,,,,,,,,,,,,,,,,,,,,,,,,,,,,,,,,,,,,,,,,,,1321.2804267001338,None,,,,,,,,,,,,,,,,,,,,,,,,,,,,,,,,,,,cotton,95,40,aloud,red,1319.2671433999203,None,None,1319.2671433999203,None,,,,,,,,,,,,,,,,,,,,,,,,,,,,,,25YA,001,2023_Mar_22_1507,ExactRep-v3-final,2021.2.3,59.90646207711588,
,,,,,,,,40,0,40,0,,,,,,,,,,,,,,,,,,,,,,,,,,,,,,,,,,,,,,,,,,,,,,,,,,,,,1323.7830827003345,None,,,,,,,,,,,,,,,,,,,,,,,,,,,,,,,,,,,hour,119,41,aloud,red,1321.7810796000995,None,None,1321.7810796000995,None,,,,,,,,,,,,,,,,,,,,,,,,,,,,,,25YA,001,2023_Mar_22_1507,ExactRep-v3-final,2021.2.3,59.90646207711588,
,,,,,,,,41,0,41,0,,,,,,,,,,,,,,,,,,,,,,,,,,,,,,,,,,,,,,,,,,,,,,,,,,,,,1326.3021363001317,None,,,,,,,,,,,,,,,,,,,,,,,,,,,,,,,,,,,fun,29,42,sing,white,1324.2894951999187,None,None,1324.2894951999187,None,,,,,,,,,,,,,,,,,,,,,,,,,,,,,,25YA,001,2023_Mar_22_1507,ExactRep-v3-final,2021.2.3,59.90646207711588,
,,,,,,,,42,0,42,0,,,,,,,,,,,,,,,,,,,,,,,,,,,,,,,,,,,,,,,,,,,,,,,,,,,,,1328.8045415002853,None,,,,,,,,,,,,,,,,,,,,,,,,,,,,,,,,,,,effort,11,43,sing,white,1326.8026042003185,None,None,1326.8026042003185,None,,,,,,,,,,,,,,,,,,,,,,,,,,,,,,25YA,001,2023_Mar_22_1507,ExactRep-v3-final,2021.2.3,59.90646207711588,
,,,,,,,,43,0,43,0,,,,,,,,,,,,,,,,,,,,,,,,,,,,,,,,,,,,,,,,,,,,,,,,,,,,,1331.3247140999883,None,,,,,,,,,,,,,,,,,,,,,,,,,,,,,,,,,,,passion,21,44,sing,white,1329.3091188999824,None,None,1329.3091188999824,None,,,,,,,,,,,,,,,,,,,,,,,,,,,,,,25YA,001,2023_Mar_22_1507,ExactRep-v3-final,2021.2.3,59.90646207711588,
,,,,,,,,44,0,44,0,,,,,,,,,,,,,,,,,,,,,,,,,,,,,,,,,,,,,,,,,,,,,,,,,,,,,1333.8431534003466,None,,,,,,,,,,,,,,,,,,,,,,,,,,,,,,,,,,,trouble,105,45,aloud,red,1331.8308681999333,None,None,1331.8308681999333,None,,,,,,,,,,,,,,,,,,,,,,,,,,,,,,25YA,001,2023_Mar_22_1507,ExactRep-v3-final,2021.2.3,59.90646207711588,
,,,,,,,,45,0,45,0,,,,,,,,,,,,,,,,,,,,,,,,,,,,,,,,,,,,,,,,,,,,,,,,,,,,,1336.3621537000872,None,,,,,,,,,,,,,,,,,,,,,,,,,,,,,,,,,,,journal,87,46,aloud,red,1334.3540642000735,None,None,1334.3540642000735,None,,,,,,,,,,,,,,,,,,,,,,,,,,,,,,25YA,001,2023_Mar_22_1507,ExactRep-v3-final,2021.2.3,59.90646207711588,
,,,,,,,,46,0,46,0,,,,,,,,,,,,,,,,,,,,,,,,,,,,,,,,,,,,,,,,,,,,,,,,,,,,,1338.8814726001583,None,,,,,,,,,,,,,,,,,,,,,,,,,,,,,,,,,,,string,42,47,silent,blue,1336.8702875003219,None,None,1336.8702875003219,None,,,,,,,,,,,,,,,,,,,,,,,,,,,,,,25YA,001,2023_Mar_22_1507,ExactRep-v3-final,2021.2.3,59.90646207711588,
,,,,,,,,47,0,47,0,,,,,,,,,,,,,,,,,,,,,,,,,,,,,,,,,,,,,,,,,,,,,,,,,,,,,1341.3839524001814,None,,,,,,,,,,,,,,,,,,,,,,,,,,,,,,,,,,,iron,27,48,sing,white,1339.3826896003447,None,None,1339.3826896003447,None,,,,,,,,,,,,,,,,,,,,,,,,,,,,,,25YA,001,2023_Mar_22_1507,ExactRep-v3-final,2021.2.3,59.90646207711588,
,,,,,,,,48,0,48,0,,,,,,,,,,,,,,,,,,,,,,,,,,,,,,,,,,,,,,,,,,,,,,,,,,,,,1343.902980899904,None,,,,,,,,,,,,,,,,,,,,,,,,,,,,,,,,,,,excuse,8,49,sing,white,1341.8918530000374,None,None,1341.8918530000374,None,,,,,,,,,,,,,,,,,,,,,,,,,,,,,,25YA,001,2023_Mar_22_1507,ExactRep-v3-final,2021.2.3,59.90646207711588,
,,,,,,,,49,0,49,0,,,,,,,,,,,,,,,,,,,,,,,,,,,,,,,,,,,,,,,,,,,,,,,,,,,,,1346.4060794999823,None,,,,,,,,,,,,,,,,,,,,,,,,,,,,,,,,,,,meat,56,50,silent,blue,1344.4035348999314,None,None,1344.4035348999314,None,,,,,,,,,,,,,,,,,,,,,,,,,,,,,,25YA,001,2023_Mar_22_1507,ExactRep-v3-final,2021.2.3,59.90646207711588,
,,,,,,,,50,0,50,0,,,,,,,,,,,,,,,,,,,,,,,,,,,,,,,,,,,,,,,,,,,,,,,,,,,,,1348.9079879000783,None,,,,,,,,,,,,,,,,,,,,,,,,,,,,,,,,,,,flesh,64,51,silent,blue,1346.9076394001022,None,None,1346.9076394001022,None,,,,,,,,,,,,,,,,,,,,,,,,,,,,,,25YA,001,2023_Mar_22_1507,ExactRep-v3-final,2021.2.3,59.90646207711588,
,,,,,,,,51,0,51,0,,,,,,,,,,,,,,,,,,,,,,,,,,,,,,,,,,,,,,,,,,,,,,,,,,,,,1351.4106777003035,None,,,,,,,,,,,,,,,,,,,,,,,,,,,,,,,,,,,chair,109,52,aloud,red,1349.409971300047,None,None,1349.409971300047,None,,,,,,,,,,,,,,,,,,,,,,,,,,,,,,25YA,001,2023_Mar_22_1507,ExactRep-v3-final,2021.2.3,59.90646207711588,
,,,,,,,,52,0,52,0,,,,,,,,,,,,,,,,,,,,,,,,,,,,,,,,,,,,,,,,,,,,,,,,,,,,,1353.929773000069,None,,,,,,,,,,,,,,,,,,,,,,,,,,,,,,,,,,,weapon,7,53,sing,white,1351.9141279999167,None,None,1351.9141279999167,None,,,,,,,,,,,,,,,,,,,,,,,,,,,,,,25YA,001,2023_Mar_22_1507,ExactRep-v3-final,2021.2.3,59.90646207711588,
,,,,,,,,53,0,53,0,,,,,,,,,,,,,,,,,,,,,,,,,,,,,,,,,,,,,,,,,,,,,,,,,,,,,1356.4490610999055,None,,,,,,,,,,,,,,,,,,,,,,,,,,,,,,,,,,,quality,96,54,aloud,red,1354.439844300039,None,None,1354.439844300039,None,,,,,,,,,,,,,,,,,,,,,,,,,,,,,,25YA,001,2023_Mar_22_1507,ExactRep-v3-final,2021.2.3,59.90646207711588,
,,,,,,,,54,0,54,0,,,,,,,,,,,,,,,,,,,,,,,,,,,,,,,,,,,,,,,,,,,,,,,,,,,,,1358.9515833002515,None,,,,,,,,,,,,,,,,,,,,,,,,,,,,,,,,,,,blossom,34,55,sing,white,1356.9519044999033,None,None,1356.9519044999033,None,,,,,,,,,,,,,,,,,,,,,,,,,,,,,,25YA,001,2023_Mar_22_1507,ExactRep-v3-final,2021.2.3,59.90646207711588,
,,,,,,,,55,0,55,0,,,,,,,,,,,,,,,,,,,,,,,,,,,,,,,,,,,,,,,,,,,,,,,,,,,,,1361.4707414000295,None,,,,,,,,,,,,,,,,,,,,,,,,,,,,,,,,,,,church,67,56,silent,blue,1359.4551496999338,None,None,1359.4551496999338,None,,,,,,,,,,,,,,,,,,,,,,,,,,,,,,25YA,001,2023_Mar_22_1507,ExactRep-v3-final,2021.2.3,59.90646207711588,
,,,,,,,,56,0,56,0,,,,,,,,,,,,,,,,,,,,,,,,,,,,,,,,,,,,,,,,,,,,,,,,,,,,,1363.989763200283,None,,,,,,,,,,,,,,,,,,,,,,,,,,,,,,,,,,,market,15,57,sing,white,1361.9809114001691,None,None,1361.9809114001691,None,,,,,,,,,,,,,,,,,,,,,,,,,,,,,,25YA,001,2023_Mar_22_1507,ExactRep-v3-final,2021.2.3,59.90646207711588,
,,,,,,,,57,0,57,0,,,,,,,,,,,,,,,,,,,,,,,,,,,,,,,,,,,,,,,,,,,,,,,,,,,,,1366.4924584003165,None,,,,,,,,,,,,,,,,,,,,,,,,,,,,,,,,,,,flood,73,58,silent,blue,1364.490296300035,None,None,1364.490296300035,None,,,,,,,,,,,,,,,,,,,,,,,,,,,,,,25YA,001,2023_Mar_22_1507,ExactRep-v3-final,2021.2.3,59.90646207711588,
,,,,,,,,58,0,58,0,,,,,,,,,,,,,,,,,,,,,,,,,,,,,,,,,,,,,,,,,,,,,,,,,,,,,1368.9950109003112,None,,,,,,,,,,,,,,,,,,,,,,,,,,,,,,,,,,,arm,24,59,sing,white,1366.9948249999434,None,None,1366.9948249999434,None,,,,,,,,,,,,,,,,,,,,,,,,,,,,,,25YA,001,2023_Mar_22_1507,ExactRep-v3-final,2021.2.3,59.90646207711588,
,,,,,,,,59,0,59,0,,,,,,,,,,,,,,,,,,,,,,,,,,,,,,,,,,,,,,,,,,,,,,,,,,,,,1371.497490100097,None,,,,,,,,,,,,,,,,,,,,,,,,,,,,,,,,,,,chance,66,60,silent,blue,1369.4953052001074,None,None,1369.4953052001074,None,,,,,,,,,,,,,,,,,,,,,,,,,,,,,,25YA,001,2023_Mar_22_1507,ExactRep-v3-final,2021.2.3,59.90646207711588,
,,,,,,,,60,0,60,0,,,,,,,,,,,,,,,,,,,,,,,,,,,,,,,,,,,,,,,,,,,,,,,,,,,,,1373.9999045003206,None,,,,,,,,,,,,,,,,,,,,,,,,,,,,,,,,,,,house,116,61,aloud,red,1372.000863800291,None,None,1372.000863800291,None,,,,,,,,,,,,,,,,,,,,,,,,,,,,,,25YA,001,2023_Mar_22_1507,ExactRep-v3-final,2021.2.3,59.90646207711588,
,,,,,,,,61,0,61,0,,,,,,,,,,,,,,,,,,,,,,,,,,,,,,,,,,,,,,,,,,,,,,,,,,,,,1376.5024557001889,None,,,,,,,,,,,,,,,,,,,,,,,,,,,,,,,,,,,charm,88,62,aloud,red,1374.502352999989,None,None,1374.502352999989,None,,,,,,,,,,,,,,,,,,,,,,,,,,,,,,25YA,001,2023_Mar_22_1507,ExactRep-v3-final,2021.2.3,59.90646207711588,
,,,,,,,,62,0,62,0,,,,,,,,,,,,,,,,,,,,,,,,,,,,,,,,,,,,,,,,,,,,,,,,,,,,,1379.0049152001739,None,,,,,,,,,,,,,,,,,,,,,,,,,,,,,,,,,,,mercy,83,63,aloud,red,1377.005879000295,None,None,1377.005879000295,None,,,,,,,,,,,,,,,,,,,,,,,,,,,,,,25YA,001,2023_Mar_22_1507,ExactRep-v3-final,2021.2.3,59.90646207711588,
,,,,,,,,63,0,63,0,,,,,,,,,,,,,,,,,,,,,,,,,,,,,,,,,,,,,,,,,,,,,,,,,,,,,1381.5242183003575,None,,,,,,,,,,,,,,,,,,,,,,,,,,,,,,,,,,,dress,65,64,silent,blue,1379.5089501002803,None,None,1379.5089501002803,None,,,,,,,,,,,,,,,,,,,,,,,,,,,,,,25YA,001,2023_Mar_22_1507,ExactRep-v3-final,2021.2.3,59.90646207711588,
,,,,,,,,64,0,64,0,,,,,,,,,,,,,,,,,,,,,,,,,,,,,,,,,,,,,,,,,,,,,,,,,,,,,1384.026674600318,None,,,,,,,,,,,,,,,,,,,,,,,,,,,,,,,,,,,gift,102,65,aloud,red,1382.0246003000066,None,None,1382.0246003000066,None,,,,,,,,,,,,,,,,,,,,,,,,,,,,,,25YA,001,2023_Mar_22_1507,ExactRep-v3-final,2021.2.3,59.90646207711588,
,,,,,,,,65,0,65,0,,,,,,,,,,,,,,,,,,,,,,,,,,,,,,,,,,,,,,,,,,,,,,,,,,,,,1386.545901699923,None,,,,,,,,,,,,,,,,,,,,,,,,,,,,,,,,,,,history,92,66,aloud,red,1384.5313115003519,None,None,1384.5313115003519,None,,,,,,,,,,,,,,,,,,,,,,,,,,,,,,25YA,001,2023_Mar_22_1507,ExactRep-v3-final,2021.2.3,59.90646207711588,
,,,,,,,,66,0,66,0,,,,,,,,,,,,,,,,,,,,,,,,,,,,,,,,,,,,,,,,,,,,,,,,,,,,,1389.0483456999063,None,,,,,,,,,,,,,,,,,,,,,,,,,,,,,,,,,,,child,80,67,aloud,red,1387.0462048999034,None,None,1387.0462048999034,None,,,,,,,,,,,,,,,,,,,,,,,,,,,,,,25YA,001,2023_Mar_22_1507,ExactRep-v3-final,2021.2.3,59.90646207711588,
,,,,,,,,67,0,67,0,,,,,,,,,,,,,,,,,,,,,,,,,,,,,,,,,,,,,,,,,,,,,,,,,,,,,1391.5675777001306,None,,,,,,,,,,,,,,,,,,,,,,,,,,,,,,,,,,,mother,62,68,silent,blue,1389.5522306999192,None,None,1389.5522306999192,None,,,,,,,,,,,,,,,,,,,,,,,,,,,,,,25YA,001,2023_Mar_22_1507,ExactRep-v3-final,2021.2.3,59.90646207711588,
,,,,,,,,68,0,68,0,,,,,,,,,,,,,,,,,,,,,,,,,,,,,,,,,,,,,,,,,,,,,,,,,,,,,1394.0867322999984,None,,,,,,,,,,,,,,,,,,,,,,,,,,,,,,,,,,,spirit,31,69,sing,white,1392.072635800112,None,None,1392.072635800112,None,,,,,,,,,,,,,,,,,,,,,,,,,,,,,,25YA,001,2023_Mar_22_1507,ExactRep-v3-final,2021.2.3,59.90646207711588,
,,,,,,,,69,0,69,0,,,,,,,,,,,,,,,,,,,,,,,,,,,,,,,,,,,,,,,,,,,,,,,,,,,,,1396.5891865999438,None,,,,,,,,,,,,,,,,,,,,,,,,,,,,,,,,,,,rock,48,70,silent,blue,1394.588336400222,None,None,1394.588336400222,None,,,,,,,,,,,,,,,,,,,,,,,,,,,,,,25YA,001,2023_Mar_22_1507,ExactRep-v3-final,2021.2.3,59.90646207711588,
,,,,,,,,70,0,70,0,,,,,,,,,,,,,,,,,,,,,,,,,,,,,,,,,,,,,,,,,,,,,,,,,,,,,1399.0915051000193,None,,,,,,,,,,,,,,,,,,,,,,,,,,,,,,,,,,,winter,33,71,sing,white,1397.0912767001428,None,None,1397.0912767001428,None,,,,,,,,,,,,,,,,,,,,,,,,,,,,,,25YA,001,2023_Mar_22_1507,ExactRep-v3-final,2021.2.3,59.90646207711588,
,,,,,,,,71,0,71,0,,,,,,,,,,,,,,,,,,,,,,,,,,,,,,,,,,,,,,,,,,,,,,,,,,,,,1401.5941276000813,None,,,,,,,,,,,,,,,,,,,,,,,,,,,,,,,,,,,kiss,41,72,silent,blue,1399.592097000219,None,None,1399.592097000219,None,,,,,,,,,,,,,,,,,,,,,,,,,,,,,,25YA,001,2023_Mar_22_1507,ExactRep-v3-final,2021.2.3,59.90646207711588,
,,,,,,,,72,0,72,0,,,,,,,,,,,,,,,,,,,,,,,,,,,,,,,,,,,,,,,,,,,,,,,,,,,,,1404.1134160002694,None,,,,,,,,,,,,,,,,,,,,,,,,,,,,,,,,,,,law,49,73,silent,blue,1402.1006344002672,None,None,1402.1006344002672,None,,,,,,,,,,,,,,,,,,,,,,,,,,,,,,25YA,001,2023_Mar_22_1507,ExactRep-v3-final,2021.2.3,59.90646207711588,
,,,,,,,,73,0,73,0,,,,,,,,,,,,,,,,,,,,,,,,,,,,,,,,,,,,,,,,,,,,,,,,,,,,,1406.6160062002018,None,,,,,,,,,,,,,,,,,,,,,,,,,,,,,,,,,,,car,28,74,sing,white,1404.6139114000835,None,None,1404.6139114000835,None,,,,,,,,,,,,,,,,,,,,,,,,,,,,,,25YA,001,2023_Mar_22_1507,ExactRep-v3-final,2021.2.3,59.90646207711588,
,,,,,,,,74,0,74,0,,,,,,,,,,,,,,,,,,,,,,,,,,,,,,,,,,,,,,,,,,,,,,,,,,,,,1409.11816990003,None,,,,,,,,,,,,,,,,,,,,,,,,,,,,,,,,,,,window,97,75,aloud,red,1407.1162247001193,None,None,1407.1162247001193,None,,,,,,,,,,,,,,,,,,,,,,,,,,,,,,25YA,001,2023_Mar_22_1507,ExactRep-v3-final,2021.2.3,59.90646207711588,
,,,,,,,,75,0,75,0,,,,,,,,,,,,,,,,,,,,,,,,,,,,,,,,,,,,,,,,,,,,,,,,,,,,,1411.6208830000833,None,,,,,,,,,,,,,,,,,,,,,,,,,,,,,,,,,,,master,46,76,silent,blue,1409.6207878002897,None,None,1409.6207878002897,None,,,,,,,,,,,,,,,,,,,,,,,,,,,,,,25YA,001,2023_Mar_22_1507,ExactRep-v3-final,2021.2.3,59.90646207711588,
,,,,,,,,76,0,76,0,,,,,,,,,,,,,,,,,,,,,,,,,,,,,,,,,,,,,,,,,,,,,,,,,,,,,1414.1426121001132,None,,,,,,,,,,,,,,,,,,,,,,,,,,,,,,,,,,,college,50,77,silent,blue,1412.1283844001591,None,None,1412.1283844001591,None,,,,,,,,,,,,,,,,,,,,,,,,,,,,,,25YA,001,2023_Mar_22_1507,ExactRep-v3-final,2021.2.3,59.90646207711588,
,,,,,,,,77,0,77,0,,,,,,,,,,,,,,,,,,,,,,,,,,,,,,,,,,,,,,,,,,,,,,,,,,,,,1416.6592359999195,None,,,,,,,,,,,,,,,,,,,,,,,,,,,,,,,,,,,crime,68,78,silent,blue,1414.6438179002143,None,None,1414.6438179002143,None,,,,,,,,,,,,,,,,,,,,,,,,,,,,,,25YA,001,2023_Mar_22_1507,ExactRep-v3-final,2021.2.3,59.90646207711588,
,,,,,,,,78,0,78,0,,,,,,,,,,,,,,,,,,,,,,,,,,,,,,,,,,,,,,,,,,,,,,,,,,,,,1419.1618352001533,None,,,,,,,,,,,,,,,,,,,,,,,,,,,,,,,,,,,chief,100,79,aloud,red,1417.1597808003426,None,None,1417.1597808003426,None,,,,,,,,,,,,,,,,,,,,,,,,,,,,,,25YA,001,2023_Mar_22_1507,ExactRep-v3-final,2021.2.3,59.90646207711588,
,,,,,,,,79,0,79,0,,,,,,,,,,,,,,,,,,,,,,,,,,,,,,,,,,,,,,,,,,,,,,,,,,,,,1421.6642565000802,None,,,,,,,,,,,,,,,,,,,,,,,,,,,,,,,,,,,murder,35,80,sing,white,1419.6638629999943,None,None,1419.6638629999943,None,,,,,,,,,,,,,,,,,,,,,,,,,,,,,,25YA,001,2023_Mar_22_1507,ExactRep-v3-final,2021.2.3,59.90646207711588,
,,,,,,,,80,0,80,0,,,,,,,,,,,,,,,,,,,,,,,,,,,,,,,,,,,,,,,,,,,,,,,,,,,,,1424.1832683002576,None,,,,,,,,,,,,,,,,,,,,,,,,,,,,,,,,,,,memory,113,81,aloud,red,1422.1704098000191,None,None,1422.1704098000191,None,,,,,,,,,,,,,,,,,,,,,,,,,,,,,,25YA,001,2023_Mar_22_1507,ExactRep-v3-final,2021.2.3,59.90646207711588,
,,,,,,,,81,0,81,0,,,,,,,,,,,,,,,,,,,,,,,,,,,,,,,,,,,,,,,,,,,,,,,,,,,,,1426.6910834000446,None,,,,,,,,,,,,,,,,,,,,,,,,,,,,,,,,,,,colony,99,82,aloud,red,1424.6837941999547,None,None,1424.6837941999547,None,,,,,,,,,,,,,,,,,,,,,,,,,,,,,,25YA,001,2023_Mar_22_1507,ExactRep-v3-final,2021.2.3,59.90646207711588,
,,,,,,,,82,0,82,0,,,,,,,,,,,,,,,,,,,,,,,,,,,,,,,,,,,,,,,,,,,,,,,,,,,,,1429.2048435001634,None,,,,,,,,,,,,,,,,,,,,,,,,,,,,,,,,,,,hall,118,83,aloud,red,1427.2041505002417,None,None,1427.2041505002417,None,,,,,,,,,,,,,,,,,,,,,,,,,,,,,,25YA,001,2023_Mar_22_1507,ExactRep-v3-final,2021.2.3,59.90646207711588,
,,,,,,,,83,0,83,0,,,,,,,,,,,,,,,,,,,,,,,,,,,,,,,,,,,,,,,,,,,,,,,,,,,,,1431.7245114003308,None,,,,,,,,,,,,,,,,,,,,,,,,,,,,,,,,,,,product,55,84,silent,blue,1429.713532899972,None,None,1429.713532899972,None,,,,,,,,,,,,,,,,,,,,,,,,,,,,,,25YA,001,2023_Mar_22_1507,ExactRep-v3-final,2021.2.3,59.90646207711588,
,,,,,,,,84,0,84,0,,,,,,,,,,,,,,,,,,,,,,,,,,,,,,,,,,,,,,,,,,,,,,,,,,,,,1434.2268211999908,None,,,,,,,,,,,,,,,,,,,,,,,,,,,,,,,,,,,wine,117,85,aloud,red,1432.2257658001035,None,None,1432.2257658001035,None,,,,,,,,,,,,,,,,,,,,,,,,,,,,,,25YA,001,2023_Mar_22_1507,ExactRep-v3-final,2021.2.3,59.90646207711588,
,,,,,,,,85,0,85,0,,,,,,,,,,,,,,,,,,,,,,,,,,,,,,,,,,,,,,,,,,,,,,,,,,,,,1436.745925300289,None,,,,,,,,,,,,,,,,,,,,,,,,,,,,,,,,,,,student,111,86,aloud,red,1434.7305813999847,None,None,1434.7305813999847,None,,,,,,,,,,,,,,,,,,,,,,,,,,,,,,25YA,001,2023_Mar_22_1507,ExactRep-v3-final,2021.2.3,59.90646207711588,
,,,,,,,,86,0,86,0,,,,,,,,,,,,,,,,,,,,,,,,,,,,,,,,,,,,,,,,,,,,,,,,,,,,,1439.2485048002563,None,,,,,,,,,,,,,,,,,,,,,,,,,,,,,,,,,,,tool,10,87,sing,white,1437.2473413003609,None,None,1437.2473413003609,None,,,,,,,,,,,,,,,,,,,,,,,,,,,,,,25YA,001,2023_Mar_22_1507,ExactRep-v3-final,2021.2.3,59.90646207711588,
,,,,,,,,87,0,87,0,,,,,,,,,,,,,,,,,,,,,,,,,,,,,,,,,,,,,,,,,,,,,,,,,,,,,1441.767688699998,None,,,,,,,,,,,,,,,,,,,,,,,,,,,,,,,,,,,cabin,17,88,sing,white,1439.7524143001065,None,None,1439.7524143001065,None,,,,,,,,,,,,,,,,,,,,,,,,,,,,,,25YA,001,2023_Mar_22_1507,ExactRep-v3-final,2021.2.3,59.90646207711588,
,,,,,,,,88,0,88,0,,,,,,,,,,,,,,,,,,,,,,,,,,,,,,,,,,,,,,,,,,,,,,,,,,,,,1444.2702167001553,None,,,,,,,,,,,,,,,,,,,,,,,,,,,,,,,,,,,ship,91,89,aloud,red,1442.2680315999314,None,None,1442.2680315999314,None,,,,,,,,,,,,,,,,,,,,,,,,,,,,,,25YA,001,2023_Mar_22_1507,ExactRep-v3-final,2021.2.3,59.90646207711588,
,,,,,,,,89,0,89,0,,,,,,,,,,,,,,,,,,,,,,,,,,,,,,,,,,,,,,,,,,,,,,,,,,,,,1446.7726865001023,None,,,,,,,,,,,,,,,,,,,,,,,,,,,,,,,,,,,clock,77,90,silent,blue,1444.7709421003237,None,None,1444.7709421003237,None,,,,,,,,,,,,,,,,,,,,,,,,,,,,,,25YA,001,2023_Mar_22_1507,ExactRep-v3-final,2021.2.3,59.90646207711588,
,,,,,,,,90,0,90,0,,,,,,,,,,,,,,,,,,,,,,,,,,,,,,,,,,,,,,,,,,,,,,,,,,,,,1449.275164199993,None,,,,,,,,,,,,,,,,,,,,,,,,,,,,,,,,,,,shame,70,91,silent,blue,1447.2731854002923,None,None,1447.2731854002923,None,,,,,,,,,,,,,,,,,,,,,,,,,,,,,,25YA,001,2023_Mar_22_1507,ExactRep-v3-final,2021.2.3,59.90646207711588,
,,,,,,,,91,0,91,0,,,,,,,,,,,,,,,,,,,,,,,,,,,,,,,,,,,,,,,,,,,,,,,,,,,,,1451.7774304002523,None,,,,,,,,,,,,,,,,,,,,,,,,,,,,,,,,,,,girl,101,92,aloud,red,1449.7757918001153,None,None,1449.7757918001153,None,,,,,,,,,,,,,,,,,,,,,,,,,,,,,,25YA,001,2023_Mar_22_1507,ExactRep-v3-final,2021.2.3,59.90646207711588,
,,,,,,,,92,0,92,0,,,,,,,,,,,,,,,,,,,,,,,,,,,,,,,,,,,,,,,,,,,,,,,,,,,,,1454.296990999952,None,,,,,,,,,,,,,,,,,,,,,,,,,,,,,,,,,,,apple,39,93,silent,blue,1452.282085500192,None,None,1452.282085500192,None,,,,,,,,,,,,,,,,,,,,,,,,,,,,,,25YA,001,2023_Mar_22_1507,ExactRep-v3-final,2021.2.3,59.90646207711588,
,,,,,,,,93,0,93,0,,,,,,,,,,,,,,,,,,,,,,,,,,,,,,,,,,,,,,,,,,,,,,,,,,,,,1456.7994253002107,None,,,,,,,,,,,,,,,,,,,,,,,,,,,,,,,,,,,duty,115,94,aloud,red,1454.7999249002896,None,None,1454.7999249002896,None,,,,,,,,,,,,,,,,,,,,,,,,,,,,,,25YA,001,2023_Mar_22_1507,ExactRep-v3-final,2021.2.3,59.90646207711588,
,,,,,,,,94,0,94,0,,,,,,,,,,,,,,,,,,,,,,,,,,,,,,,,,,,,,,,,,,,,,,,,,,,,,1459.3046631002799,None,,,,,,,,,,,,,,,,,,,,,,,,,,,,,,,,,,,fur,0,95,sing,white,1457.2997623002157,None,None,1457.2997623002157,None,,,,,,,,,,,,,,,,,,,,,,,,,,,,,,25YA,001,2023_Mar_22_1507,ExactRep-v3-final,2021.2.3,59.90646207711588,
,,,,,,,,95,0,95,0,,,,,,,,,,,,,,,,,,,,,,,,,,,,,,,,,,,,,,,,,,,,,,,,,,,,,1461.8211079002358,None,,,,,,,,,,,,,,,,,,,,,,,,,,,,,,,,,,,lake,12,96,sing,white,1459.8189185000956,None,None,1459.8189185000956,None,,,,,,,,,,,,,,,,,,,,,,,,,,,,,,25YA,001,2023_Mar_22_1507,ExactRep-v3-final,2021.2.3,59.90646207711588,
,,,,,,,,96,0,96,0,,,,,,,,,,,,,,,,,,,,,,,,,,,,,,,,,,,,,,,,,,,,,,,,,,,,,1464.3402545000426,None,,,,,,,,,,,,,,,,,,,,,,,,,,,,,,,,,,,toy,71,97,silent,blue,1462.3251767000183,None,None,1462.3251767000183,None,,,,,,,,,,,,,,,,,,,,,,,,,,,,,,25YA,001,2023_Mar_22_1507,ExactRep-v3-final,2021.2.3,59.90646207711588,
,,,,,,,,97,0,97,0,,,,,,,,,,,,,,,,,,,,,,,,,,,,,,,,,,,,,,,,,,,,,,,,,,,,,1466.85935410019,None,,,,,,,,,,,,,,,,,,,,,,,,,,,,,,,,,,,cottage,14,98,sing,white,1464.8467522999272,None,None,1464.8467522999272,None,,,,,,,,,,,,,,,,,,,,,,,,,,,,,,25YA,001,2023_Mar_22_1507,ExactRep-v3-final,2021.2.3,59.90646207711588,
,,,,,,,,98,0,98,0,,,,,,,,,,,,,,,,,,,,,,,,,,,,,,,,,,,,,,,,,,,,,,,,,,,,,1469.3620069003664,None,,,,,,,,,,,,,,,,,,,,,,,,,,,,,,,,,,,science,52,99,silent,blue,1467.359813600313,None,None,1467.359813600313,None,,,,,,,,,,,,,,,,,,,,,,,,,,,,,,25YA,001,2023_Mar_22_1507,ExactRep-v3-final,2021.2.3,59.90646207711588,
,,,,,,,,99,0,99,0,,,,,,,,,,,,,,,,,,,,,,,,,,,,,,,,,,,,,,,,,,,,,,,,,,,,,1471.8811466000043,None,,,,,,,,,,,,,,,,,,,,,,,,,,,,,,,,,,,time,98,100,aloud,red,1469.8682534000836,None,None,1469.8682534000836,None,,,,,,,,,,,,,,,,,,,,,,,,,,,,,,25YA,001,2023_Mar_22_1507,ExactRep-v3-final,2021.2.3,59.90646207711588,
,,,,,,,,100,0,100,0,,,,,,,,,,,,,,,,,,,,,,,,,,,,,,,,,,,,,,,,,,,,,,,,,,,,,1474.3836357002147,None,,,,,,,,,,,,,,,,,,,,,,,,,,,,,,,,,,,forest,2,101,sing,white,1472.3825035002083,None,None,1472.3825035002083,None,,,,,,,,,,,,,,,,,,,,,,,,,,,,,,25YA,001,2023_Mar_22_1507,ExactRep-v3-final,2021.2.3,59.90646207711588,
,,,,,,,,101,0,101,0,,,,,,,,,,,,,,,,,,,,,,,,,,,,,,,,,,,,,,,,,,,,,,,,,,,,,1476.886168899946,None,,,,,,,,,,,,,,,,,,,,,,,,,,,,,,,,,,,door,22,102,sing,white,1474.8858853001148,None,None,1474.8858853001148,None,,,,,,,,,,,,,,,,,,,,,,,,,,,,,,25YA,001,2023_Mar_22_1507,ExactRep-v3-final,2021.2.3,59.90646207711588,
,,,,,,,,102,0,102,0,,,,,,,,,,,,,,,,,,,,,,,,,,,,,,,,,,,,,,,,,,,,,,,,,,,,,1479.405306099914,None,,,,,,,,,,,,,,,,,,,,,,,,,,,,,,,,,,,butter,37,103,sing,white,1477.3898008000106,None,None,1477.3898008000106,None,,,,,,,,,,,,,,,,,,,,,,,,,,,,,,25YA,001,2023_Mar_22_1507,ExactRep-v3-final,2021.2.3,59.90646207711588,
,,,,,,,,103,0,103,0,,,,,,,,,,,,,,,,,,,,,,,,,,,,,,,,,,,,,,,,,,,,,,,,,,,,,1481.9076835000888,None,,,,,,,,,,,,,,,,,,,,,,,,,,,,,,,,,,,artist,1,104,sing,white,1479.906867499929,None,None,1479.906867499929,None,,,,,,,,,,,,,,,,,,,,,,,,,,,,,,25YA,001,2023_Mar_22_1507,ExactRep-v3-final,2021.2.3,59.90646207711588,
,,,,,,,,104,0,104,0,,,,,,,,,,,,,,,,,,,,,,,,,,,,,,,,,,,,,,,,,,,,,,,,,,,,,1484.4104014001787,None,,,,,,,,,,,,,,,,,,,,,,,,,,,,,,,,,,,cost,72,105,silent,blue,1482.4081942001358,None,None,1482.4081942001358,None,,,,,,,,,,,,,,,,,,,,,,,,,,,,,,25YA,001,2023_Mar_22_1507,ExactRep-v3-final,2021.2.3,59.90646207711588,
,,,,,,,,105,0,105,0,,,,,,,,,,,,,,,,,,,,,,,,,,,,,,,,,,,,,,,,,,,,,,,,,,,,,1486.9128312002867,None,,,,,,,,,,,,,,,,,,,,,,,,,,,,,,,,,,,season,19,106,sing,white,1484.9107365002856,None,None,1484.9107365002856,None,,,,,,,,,,,,,,,,,,,,,,,,,,,,,,25YA,001,2023_Mar_22_1507,ExactRep-v3-final,2021.2.3,59.90646207711588,
,,,,,,,,106,0,106,0,,,,,,,,,,,,,,,,,,,,,,,,,,,,,,,,,,,,,,,,,,,,,,,,,,,,,1489.4319933000952,None,,,,,,,,,,,,,,,,,,,,,,,,,,,,,,,,,,,avenue,54,107,silent,blue,1487.4198449999094,None,None,1487.4198449999094,None,,,,,,,,,,,,,,,,,,,,,,,,,,,,,,25YA,001,2023_Mar_22_1507,ExactRep-v3-final,2021.2.3,59.90646207711588,
,,,,,,,,107,0,107,0,,,,,,,,,,,,,,,,,,,,,,,,,,,,,,,,,,,,,,,,,,,,,,,,,,,,,1491.9344977000728,None,,,,,,,,,,,,,,,,,,,,,,,,,,,,,,,,,,,sugar,63,108,silent,blue,1489.9324028999545,None,None,1489.9324028999545,None,,,,,,,,,,,,,,,,,,,,,,,,,,,,,,25YA,001,2023_Mar_22_1507,ExactRep-v3-final,2021.2.3,59.90646207711588,
,,,,,,,,108,0,108,0,,,,,,,,,,,,,,,,,,,,,,,,,,,,,,,,,,,,,,,,,,,,,,,,,,,,,1494.4370261002332,None,,,,,,,,,,,,,,,,,,,,,,,,,,,,,,,,,,,wheat,82,109,aloud,red,1492.4370019002818,None,None,1492.4370019002818,None,,,,,,,,,,,,,,,,,,,,,,,,,,,,,,25YA,001,2023_Mar_22_1507,ExactRep-v3-final,2021.2.3,59.90646207711588,
,,,,,,,,109,0,109,0,,,,,,,,,,,,,,,,,,,,,,,,,,,,,,,,,,,,,,,,,,,,,,,,,,,,,1496.956199000124,None,,,,,,,,,,,,,,,,,,,,,,,,,,,,,,,,,,,brain,106,110,aloud,red,1494.9470450999215,None,None,1494.9470450999215,None,,,,,,,,,,,,,,,,,,,,,,,,,,,,,,25YA,001,2023_Mar_22_1507,ExactRep-v3-final,2021.2.3,59.90646207711588,
,,,,,,,,110,0,110,0,,,,,,,,,,,,,,,,,,,,,,,,,,,,,,,,,,,,,,,,,,,,,,,,,,,,,1499.458744500298,None,,,,,,,,,,,,,,,,,,,,,,,,,,,,,,,,,,,prison,79,111,sing,white,1497.4566957000643,None,None,1497.4566957000643,None,,,,,,,,,,,,,,,,,,,,,,,,,,,,,,25YA,001,2023_Mar_22_1507,ExactRep-v3-final,2021.2.3,59.90646207711588,
,,,,,,,,111,0,111,0,,,,,,,,,,,,,,,,,,,,,,,,,,,,,,,,,,,,,,,,,,,,,,,,,,,,,1501.977961699944,None,,,,,,,,,,,,,,,,,,,,,,,,,,,,,,,,,,,owner,107,112,aloud,red,1499.9638173999265,None,None,1499.9638173999265,None,,,,,,,,,,,,,,,,,,,,,,,,,,,,,,25YA,001,2023_Mar_22_1507,ExactRep-v3-final,2021.2.3,59.90646207711588,
,,,,,,,,112,0,112,0,,,,,,,,,,,,,,,,,,,,,,,,,,,,,,,,,,,,,,,,,,,,,,,,,,,,,1504.480454900302,None,,,,,,,,,,,,,,,,,,,,,,,,,,,,,,,,,,,safety,20,113,sing,white,1502.4812561003491,None,None,1502.4812561003491,None,,,,,,,,,,,,,,,,,,,,,,,,,,,,,,25YA,001,2023_Mar_22_1507,ExactRep-v3-final,2021.2.3,59.90646207711588,
,,,,,,,,113,0,113,0,,,,,,,,,,,,,,,,,,,,,,,,,,,,,,,,,,,,,,,,,,,,,,,,,,,,,1506.999436700251,None,,,,,,,,,,,,,,,,,,,,,,,,,,,,,,,,,,,coffee,32,114,sing,white,1504.9905145000666,None,None,1504.9905145000666,None,,,,,,,,,,,,,,,,,,,,,,,,,,,,,,25YA,001,2023_Mar_22_1507,ExactRep-v3-final,2021.2.3,59.90646207711588,
,,,,,,,,114,0,114,0,,,,,,,,,,,,,,,,,,,,,,,,,,,,,,,,,,,,,,,,,,,,,,,,,,,,,1509.5187774002552,None,,,,,,,,,,,,,,,,,,,,,,,,,,,,,,,,,,,answer,81,115,aloud,red,1507.5045699002221,None,None,1507.5045699002221,None,,,,,,,,,,,,,,,,,,,,,,,,,,,,,,25YA,001,2023_Mar_22_1507,ExactRep-v3-final,2021.2.3,59.90646207711588,
,,,,,,,,115,0,115,0,,,,,,,,,,,,,,,,,,,,,,,,,,,,,,,,,,,,,,,,,,,,,,,,,,,,,1512.0209898003377,None,,,,,,,,,,,,,,,,,,,,,,,,,,,,,,,,,,,length,47,116,silent,blue,1510.0192062002607,None,None,1510.0192062002607,None,,,,,,,,,,,,,,,,,,,,,,,,,,,,,,25YA,001,2023_Mar_22_1507,ExactRep-v3-final,2021.2.3,59.90646207711588,
,,,,,,,,116,0,116,0,,,,,,,,,,,,,,,,,,,,,,,,,,,,,,,,,,,,,,,,,,,,,,,,,,,,,1514.5404841001146,None,,,,,,,,,,,,,,,,,,,,,,,,,,,,,,,,,,,thought,45,117,silent,blue,1512.525969200302,None,None,1512.525969200302,None,,,,,,,,,,,,,,,,,,,,,,,,,,,,,,25YA,001,2023_Mar_22_1507,ExactRep-v3-final,2021.2.3,59.90646207711588,
,,,,,,,,117,0,117,0,,,,,,,,,,,,,,,,,,,,,,,,,,,,,,,,,,,,,,,,,,,,,,,,,,,,,1517.0595888001844,None,,,,,,,,,,,,,,,,,,,,,,,,,,,,,,,,,,,world,59,118,silent,blue,1515.0440372000448,None,None,1515.0440372000448,None,,,,,,,,,,,,,,,,,,,,,,,,,,,,,,25YA,001,2023_Mar_22_1507,ExactRep-v3-final,2021.2.3,59.90646207711588,
,,,,,,,,118,0,118,0,,,,,,,,,,,,,,,,,,,,,,,,,,,,,,,,,,,,,,,,,,,,,,,,,,,,,1519.5788072003052,None,,,,,,,,,,,,,,,,,,,,,,,,,,,,,,,,,,,seat,75,119,silent,blue,1517.567465600092,None,None,1517.567465600092,None,,,,,,,,,,,,,,,,,,,,,,,,,,,,,,25YA,001,2023_Mar_22_1507,ExactRep-v3-final,2021.2.3,59.90646207711588,
,,,,,,,,119,0,119,0,,,,,,,,,,,,,,,,,,,,,,,,,,,,,,,,,,,,,,,,,,,,,,,,,,,,,1522.0813923003152,None,,,,,,,,,,,,,,,,,,,,,,,,,,,,,,,,,,,hope,30,120,sing,white,1520.079347600229,None,None,1520.079347600229,None,,,,,,,,,,,,,,,,,,,,,,,,,,,,,,25YA,001,2023_Mar_22_1507,ExactRep-v3-final,2021.2.3,59.90646207711588,
,,,,,,,,,,,,,,,,,,,,,,,,,,,,,,,,,,,,,,,,,,,,,,,,,,,,,,,,,,,,,,,,,,,,,,,,,,,,,,,,,,,,,,,,,,,,,,,,,,,,,,,,,,,,,,1522.5833962000906,None,space,2.4028639001771808,1532.5598603002727,None,,,,,,,,,,,,,,,,,,,,,,,,25YA,001,2023_Mar_22_1507,ExactRep-v3-final,2021.2.3,59.90646207711588,
,,,,,,,,,,,,,,,,,,,,,,,,,,,,,,,,,,,,,,,,,,,,,,,,,,,,,,,,,,,,,,,,,,,,,,,,,,,,,,,,,,,,,,,,,,,,,,,,,,,,,,,,,,,,,,,,,,,,1534.9793642000295,None,space,33.0473643001169,1544.9557717000134,None,,,,,,,,,,,,,,,,,,25YA,001,2023_Mar_22_1507,ExactRep-v3-final,2021.2.3,59.90646207711588,
,,,,,,,,,,,,0,0,0,0,,,,,,,,,,,,,,,,,,,,,,,,,,,,,,,,,,,,,,,,,,,,,,,,,1584.660552599933,None,,,,,,,,,,,,,,,,,,,,,,,,,,,,,,,,,,,,,,,,,,,,,,,,,,,,,,,,,nail,78,1,silent,old,blue,1578.5433630999178,None,n,1578.5433630999178,None,"['n', 'return']","[4.219028799794614, 6.083038099575788]",1578.5433630999178,None,,,25YA,001,2023_Mar_22_1507,ExactRep-v3-final,2021.2.3,59.90646207711588,
,,,,,,,,,,,,1,0,1,0,,,,,,,,,,,,,,,,,,,,,,,,,,,,,,,,,,,,,,,,,,,,,,,,,1586.9294488001615,None,,,,,,,,,,,,,,,,,,,,,,,,,,,,,,,,,,,,,,,,,,,,,,,,,,,,,,,,,soul,175,2,sing,new,white,1585.1662329002284,None,n,1585.1662329002284,None,"['n', 'return']","[1.3161775995977223, 1.7242164998315275]",1585.1662329002284,None,,,25YA,001,2023_Mar_22_1507,ExactRep-v3-final,2021.2.3,59.90646207711588,
,,,,,,,,,,,,2,0,2,0,,,,,,,,,,,,,,,,,,,,,,,,,,,,,,,,,,,,,,,,,,,,,,,,,1590.6164152002893,None,,,,,,,,,,,,,,,,,,,,,,,,,,,,,,,,,,,,,,,,,,,,,,,,,,,,,,,,,colony,99,3,aloud,old,red,1587.4371521999128,None,y,1587.4371521999128,None,"['y', 'return']","[2.021319600287825, 3.1413130001164973]",1587.4371521999128,None,,,25YA,001,2023_Mar_22_1507,ExactRep-v3-final,2021.2.3,59.90646207711588,
,,,,,,,,,,,,3,0,3,0,,,,,,,,,,,,,,,,,,,,,,,,,,,,,,,,,,,,,,,,,,,,,,,,,1592.9520622999407,None,,,,,,,,,,,,,,,,,,,,,,,,,,,,,,,,,,,,,,,,,,,,,,,,,,,,,,,,,seat,75,4,silent,old,blue,1591.123723700177,None,n,1591.123723700177,None,"['n', 'return']","[1.3506728000938892, 1.782720800023526]",1591.123723700177,None,,,25YA,001,2023_Mar_22_1507,ExactRep-v3-final,2021.2.3,59.90646207711588,
,,,,,,,,,,,,4,0,4,0,,,,,,,,,,,,,,,,,,,,,,,,,,,,,,,,,,,,,,,,,,,,,,,,,1595.020818900317,None,,,,,,,,,,,,,,,,,,,,,,,,,,,,,,,,,,,,,,,,,,,,,,,,,,,,,,,,,earth,133,5,silent,new,blue,1593.4617178002372,None,n,1593.4617178002372,None,"['n', 'return']","[1.1648621000349522, 1.5167168001644313]",1593.4617178002372,None,,,25YA,001,2023_Mar_22_1507,ExactRep-v3-final,2021.2.3,59.90646207711588,
,,,,,,,,,,,,5,0,5,0,,,,,,,,,,,,,,,,,,,,,,,,,,,,,,,,,,,,,,,,,,,,,,,,,1597.6068367999978,None,,,,,,,,,,,,,,,,,,,,,,,,,,,,,,,,,,,,,,,,,,,,,,,,,,,,,,,,,lip,227,6,sing,new,white,1595.5325271002948,None,n,1595.5325271002948,None,"['n', 'return']","[1.0700944000855088, 2.037902600131929]",1595.5325271002948,None,,,25YA,001,2023_Mar_22_1507,ExactRep-v3-final,2021.2.3,59.90646207711588,
,,,,,,,,,,,,6,0,6,0,,,,,,,,,,,,,,,,,,,,,,,,,,,,,,,,,,,,,,,,,,,,,,,,,1599.6421320000663,None,,,,,,,,,,,,,,,,,,,,,,,,,,,,,,,,,,,,,,,,,,,,,,,,,,,,,,,,,idea,189,7,sing,new,white,1598.1072530001402,None,y,1598.1072530001402,None,"['y', 'return']","[1.1593041000887752, 1.495184099767357]",1598.1072530001402,None,,,25YA,001,2023_Mar_22_1507,ExactRep-v3-final,2021.2.3,59.90646207711588,
,,,,,,,,,,,,7,0,7,0,,,,,,,,,,,,,,,,,,,,,,,,,,,,,,,,,,,,,,,,,,,,,,,,,1601.7108392999507,None,,,,,,,,,,,,,,,,,,,,,,,,,,,,,,,,,,,,,,,,,,,,,,,,,,,,,,,,,shore,108,8,aloud,old,red,1600.1543137002736,None,y,1600.1543137002736,None,"['y', 'return']","[1.192169999703765, 1.512065399903804]",1600.1543137002736,None,,,25YA,001,2023_Mar_22_1507,ExactRep-v3-final,2021.2.3,59.90646207711588,
,,,,,,,,,,,,8,0,8,0,,,,,,,,,,,,,,,,,,,,,,,,,,,,,,,,,,,,,,,,,,,,,,,,,1604.3468424999155,None,,,,,,,,,,,,,,,,,,,,,,,,,,,,,,,,,,,,,,,,,,,,,,,,,,,,,,,,,crime,68,9,silent,old,blue,1602.224958400242,None,n,1602.224958400242,None,"['n', 'return']","[1.7856143000535667, 2.089525999967009]",1602.224958400242,None,,,25YA,001,2023_Mar_22_1507,ExactRep-v3-final,2021.2.3,59.90646207711588,
,,,,,,,,,,,,9,0,9,0,,,,,,,,,,,,,,,,,,,,,,,,,,,,,,,,,,,,,,,,,,,,,,,,,1607.2998005002737,None,,,,,,,,,,,,,,,,,,,,,,,,,,,,,,,,,,,,,,,,,,,,,,,,,,,,,,,,,theory,132,10,silent,new,blue,1604.856096399948,None,y,1604.856096399948,None,"['y', 'return']","[2.106331500224769, 2.410304100252688]",1604.856096399948,None,,,25YA,001,2023_Mar_22_1507,ExactRep-v3-final,2021.2.3,59.90646207711588,
,,,,,,,,,,,,10,0,10,0,,,,,,,,,,,,,,,,,,,,,,,,,,,,,,,,,,,,,,,,,,,,,,,,,1609.251763800159,None,,,,,,,,,,,,,,,,,,,,,,,,,,,,,,,,,,,,,,,,,,,,,,,,,,,,,,,,,market,15,11,sing,old,white,1607.813395400066,None,y,1607.813395400066,None,"['y', 'return']","[1.1170460004359484, 1.397075700107962]",1607.813395400066,None,,,25YA,001,2023_Mar_22_1507,ExactRep-v3-final,2021.2.3,59.90646207711588,
,,,,,,,,,,,,11,0,11,0,,,,,,,,,,,,,,,,,,,,,,,,,,,,,,,,,,,,,,,,,,,,,,,,,1611.2202837001532,None,,,,,,,,,,,,,,,,,,,,,,,,,,,,,,,,,,,,,,,,,,,,,,,,,,,,,,,,,potato,159,12,silent,new,blue,1609.760789200198,None,n,1609.760789200198,None,"['n', 'return']","[1.1296993996948004, 1.4256959999911487]",1609.760789200198,None,,,25YA,001,2023_Mar_22_1507,ExactRep-v3-final,2021.2.3,59.90646207711588,
,,,,,,,,,,,,12,0,12,0,,,,,,,,,,,,,,,,,,,,,,,,,,,,,,,,,,,,,,,,,,,,,,,,,1613.7895806003362,None,,,,,,,,,,,,,,,,,,,,,,,,,,,,,,,,,,,,,,,,,,,,,,,,,,,,,,,,,deed,180,13,aloud,new,red,1611.7328391000628,None,n,1611.7328391000628,None,"['n', 'return']","[1.7417048001661897, 2.0135058001615107]",1611.7328391000628,None,,,25YA,001,2023_Mar_22_1507,ExactRep-v3-final,2021.2.3,59.90646207711588,
,,,,,,,,,,,,13,0,13,0,,,,,,,,,,,,,,,,,,,,,,,,,,,,,,,,,,,,,,,,,,,,,,,,,1615.8584235999733,None,,,,,,,,,,,,,,,,,,,,,,,,,,,,,,,,,,,,,,,,,,,,,,,,,,,,,,,,,winter,33,14,sing,old,white,1614.2925970000215,None,y,1614.2925970000215,None,"['y', 'return']","[1.2218657997436821, 1.5259861000813544]",1614.2925970000215,None,,,25YA,001,2023_Mar_22_1507,ExactRep-v3-final,2021.2.3,59.90646207711588,
,,,,,,,,,,,,14,0,14,0,,,,,,,,,,,,,,,,,,,,,,,,,,,,,,,,,,,,,,,,,,,,,,,,,1617.7268010000698,None,,,,,,,,,,,,,,,,,,,,,,,,,,,,,,,,,,,,,,,,,,,,,,,,,,,,,,,,,cabin,17,15,sing,old,white,1616.3653688002378,None,y,1616.3653688002378,None,"['y', 'return']","[0.9971855999901891, 1.3170718001201749]",1616.3653688002378,None,,,25YA,001,2023_Mar_22_1507,ExactRep-v3-final,2021.2.3,59.90646207711588,
,,,,,,,,,,,,15,0,15,0,,,,,,,,,,,,,,,,,,,,,,,,,,,,,,,,,,,,,,,,,,,,,,,,,1619.5620177001692,None,,,,,,,,,,,,,,,,,,,,,,,,,,,,,,,,,,,,,,,,,,,,,,,,,,,,,,,,,thought,45,16,silent,old,blue,1618.2355726002716,None,n,1618.2355726002716,None,"['n', 'return']","[1.030900000128895, 1.2949362001381814]",1618.2355726002716,None,,,25YA,001,2023_Mar_22_1507,ExactRep-v3-final,2021.2.3,59.90646207711588,
,,,,,,,,,,,,16,0,16,0,,,,,,,,,,,,,,,,,,,,,,,,,,,,,,,,,,,,,,,,,,,,,,,,,1622.7652532001957,None,,,,,,,,,,,,,,,,,,,,,,,,,,,,,,,,,,,,,,,,,,,,,,,,,,,,,,,,,breast,166,17,aloud,new,red,1620.0717783002183,None,n,1620.0717783002183,None,"['n', 'return']","[2.3626474998891354, 2.658581600058824]",1620.0717783002183,None,,,25YA,001,2023_Mar_22_1507,ExactRep-v3-final,2021.2.3,59.90646207711588,
,,,,,,,,,,,,17,0,17,0,,,,,,,,,,,,,,,,,,,,,,,,,,,,,,,,,,,,,,,,,,,,,,,,,1624.6003459002823,None,,,,,,,,,,,,,,,,,,,,,,,,,,,,,,,,,,,,,,,,,,,,,,,,,,,,,,,,,science,52,18,silent,old,blue,1623.2800449002534,None,n,1623.2800449002534,None,"['n', 'return']","[1.0263805999420583, 1.2745325998403132]",1623.2800449002534,None,,,25YA,001,2023_Mar_22_1507,ExactRep-v3-final,2021.2.3,59.90646207711588,
,,,,,,,,,,,,18,0,18,0,,,,,,,,,,,,,,,,,,,,,,,,,,,,,,,,,,,,,,,,,,,,,,,,,1626.4356204001233,None,,,,,,,,,,,,,,,,,,,,,,,,,,,,,,,,,,,,,,,,,,,,,,,,,,,,,,,,,hide,198,19,aloud,new,red,1625.1111771003343,None,n,1625.1111771003343,None,"['n', 'return']","[1.0272785001434386, 1.291392299812287]",1625.1111771003343,None,,,25YA,001,2023_Mar_22_1507,ExactRep-v3-final,2021.2.3,59.90646207711588,
,,,,,,,,,,,,19,0,19,0,,,,,,,,,,,,,,,,,,,,,,,,,,,,,,,,,,,,,,,,,,,,,,,,,1628.23727470031,None,,,,,,,,,,,,,,,,,,,,,,,,,,,,,,,,,,,,,,,,,,,,,,,,,,,,,,,,,fortune,94,20,aloud,old,red,1626.944700000342,None,y,1626.944700000342,None,"['y', 'return']","[0.9537403997965157, 1.2577084000222385]",1626.944700000342,None,,,25YA,001,2023_Mar_22_1507,ExactRep-v3-final,2021.2.3,59.90646207711588,
,,,,,,,,,,,,20,0,20,0,,,,,,,,,,,,,,,,,,,,,,,,,,,,,,,,,,,,,,,,,,,,,,,,,1630.3894748999737,None,,,,,,,,,,,,,,,,,,,,,,,,,,,,,,,,,,,,,,,,,,,,,,,,,,,,,,,,,paper,25,21,sing,old,white,1628.7462968002073,None,y,1628.7462968002073,None,"['y', 'return']","[1.3682129997760057, 1.6081600999459624]",1628.7462968002073,None,,,25YA,001,2023_Mar_22_1507,ExactRep-v3-final,2021.2.3,59.90646207711588,
,,,,,,,,,,,,21,0,21,0,,,,,,,,,,,,,,,,,,,,,,,,,,,,,,,,,,,,,,,,,,,,,,,,,1632.091277900152,None,,,,,,,,,,,,,,,,,,,,,,,,,,,,,,,,,,,,,,,,,,,,,,,,,,,,,,,,,cat,125,22,silent,new,blue,1630.892602399923,None,n,1630.892602399923,None,"['n', 'return']","[0.9099916997365654, 1.157872200012207]",1630.892602399923,None,,,25YA,001,2023_Mar_22_1507,ExactRep-v3-final,2021.2.3,59.90646207711588,
,,,,,,,,,,,,22,0,22,0,,,,,,,,,,,,,,,,,,,,,,,,,,,,,,,,,,,,,,,,,,,,,,,,,1633.84300310025,None,,,,,,,,,,,,,,,,,,,,,,,,,,,,,,,,,,,,,,,,,,,,,,,,,,,,,,,,,meadow,120,23,silent,new,blue,1632.6045212000608,None,n,1632.6045212000608,None,"['n', 'return']","[0.9739028001204133, 1.1980197001248598]",1632.6045212000608,None,,,25YA,001,2023_Mar_22_1507,ExactRep-v3-final,2021.2.3,59.90646207711588,
,,,,,,,,,,,,23,0,23,0,,,,,,,,,,,,,,,,,,,,,,,,,,,,,,,,,,,,,,,,,,,,,,,,,1635.8616260001436,None,,,,,,,,,,,,,,,,,,,,,,,,,,,,,,,,,,,,,,,,,,,,,,,,,,,,,,,,,water,222,24,aloud,new,red,1634.3571111001074,None,y,1634.3571111001074,None,"['y', 'return']","[0.9815725004300475, 1.4695295002311468]",1634.3571111001074,None,,,25YA,001,2023_Mar_22_1507,ExactRep-v3-final,2021.2.3,59.90646207711588,
,,,,,,,,,,,,24,0,24,0,,,,,,,,,,,,,,,,,,,,,,,,,,,,,,,,,,,,,,,,,,,,,,,,,1637.5799873000942,None,,,,,,,,,,,,,,,,,,,,,,,,,,,,,,,,,,,,,,,,,,,,,,,,,,,,,,,,,iron,27,25,sing,old,white,1636.3851521001197,None,y,1636.3851521001197,None,"['y', 'return']","[0.8973968997597694, 1.1533739999867976]",1636.3851521001197,None,,,25YA,001,2023_Mar_22_1507,ExactRep-v3-final,2021.2.3,59.90646207711588,
,,,,,,,,,,,,25,0,25,0,,,,,,,,,,,,,,,,,,,,,,,,,,,,,,,,,,,,,,,,,,,,,,,,,1639.2650079000741,None,,,,,,,,,,,,,,,,,,,,,,,,,,,,,,,,,,,,,,,,,,,,,,,,,,,,,,,,,street,136,26,silent,new,blue,1638.0897792000324,None,n,1638.0897792000324,None,"['n', 'return']","[0.8886727001518011, 1.1291408999823034]",1638.0897792000324,None,,,25YA,001,2023_Mar_22_1507,ExactRep-v3-final,2021.2.3,59.90646207711588,
,,,,,,,,,,,,26,0,26,0,,,,,,,,,,,,,,,,,,,,,,,,,,,,,,,,,,,,,,,,,,,,,,,,,1641.750779000111,None,,,,,,,,,,,,,,,,,,,,,,,,,,,,,,,,,,,,,,,,,,,,,,,,,,,,,,,,,mind,164,27,aloud,new,red,1639.7736957999878,None,n,1639.7736957999878,None,"['n', 'return']","[1.66889589978382, 1.932639299891889]",1639.7736957999878,None,,,25YA,001,2023_Mar_22_1507,ExactRep-v3-final,2021.2.3,59.90646207711588,
,,,,,,,,,,,,27,0,27,0,,,,,,,,,,,,,,,,,,,,,,,,,,,,,,,,,,,,,,,,,,,,,,,,,1643.3858723002486,None,,,,,,,,,,,,,,,,,,,,,,,,,,,,,,,,,,,,,,,,,,,,,,,,,,,,,,,,,doll,233,28,sing,new,white,1642.2593030999415,None,n,1642.2593030999415,None,"['n', 'return']","[0.863179000094533, 1.0871997000649571]",1642.2593030999415,None,,,25YA,001,2023_Mar_22_1507,ExactRep-v3-final,2021.2.3,59.90646207711588,
,,,,,,,,,,,,28,0,28,0,,,,,,,,,,,,,,,,,,,,,,,,,,,,,,,,,,,,,,,,,,,,,,,,,1645.2877001003362,None,,,,,,,,,,,,,,,,,,,,,,,,,,,,,,,,,,,,,,,,,,,,,,,,,,,,,,,,,time,98,29,aloud,old,red,1643.8946429002099,None,y,1643.8946429002099,None,"['y', 'return']","[1.1238462002947927, 1.3558398000895977]",1643.8946429002099,None,,,25YA,001,2023_Mar_22_1507,ExactRep-v3-final,2021.2.3,59.90646207711588,
,,,,,,,,,,,,29,0,29,0,,,,,,,,,,,,,,,,,,,,,,,,,,,,,,,,,,,,,,,,,,,,,,,,,1646.9394399002194,None,,,,,,,,,,,,,,,,,,,,,,,,,,,,,,,,,,,,,,,,,,,,,,,,,,,,,,,,,world,59,30,silent,old,blue,1645.807165400125,None,n,1645.807165400125,None,"['n', 'return']","[0.9072831999510527, 1.0913089998066425]",1645.807165400125,None,,,25YA,001,2023_Mar_22_1507,ExactRep-v3-final,2021.2.3,59.90646207711588,
,,,,,,,,,,,,30,0,30,0,,,,,,,,,,,,,,,,,,,,,,,,,,,,,,,,,,,,,,,,,,,,,,,,,1648.3908108002506,None,,,,,,,,,,,,,,,,,,,,,,,,,,,,,,,,,,,,,,,,,,,,,,,,,,,,,,,,,sea,128,31,silent,new,blue,1647.4486310002394,None,n,1647.4486310002394,None,"['n', 'return']","[0.7298945998772979, 0.9059691997244954]",1647.4486310002394,None,,,25YA,001,2023_Mar_22_1507,ExactRep-v3-final,2021.2.3,59.90646207711588,
,,,,,,,,,,,,31,0,31,0,,,,,,,,,,,,,,,,,,,,,,,,,,,,,,,,,,,,,,,,,,,,,,,,,1650.20928979991,None,,,,,,,,,,,,,,,,,,,,,,,,,,,,,,,,,,,,,,,,,,,,,,,,,,,,,,,,,mercy,83,32,aloud,old,red,1648.9019920001738,None,y,1648.9019920001738,None,"['y', 'return']","[1.0364675000309944, 1.268514099996537]",1648.9019920001738,None,,,25YA,001,2023_Mar_22_1507,ExactRep-v3-final,2021.2.3,59.90646207711588,
,,,,,,,,,,,,32,0,32,0,,,,,,,,,,,,,,,,,,,,,,,,,,,,,,,,,,,,,,,,,,,,,,,,,1651.9610395999625,None,,,,,,,,,,,,,,,,,,,,,,,,,,,,,,,,,,,,,,,,,,,,,,,,,,,,,,,,,skin,9,33,sing,old,white,1650.7192851002328,None,y,1650.7192851002328,None,"['y', 'return']","[0.9632572000846267, 1.2032428998500109]",1650.7192851002328,None,,,25YA,001,2023_Mar_22_1507,ExactRep-v3-final,2021.2.3,59.90646207711588,
,,,,,,,,,,,,33,0,33,0,,,,,,,,,,,,,,,,,,,,,,,,,,,,,,,,,,,,,,,,,,,,,,,,,1653.7128527001478,None,,,,,,,,,,,,,,,,,,,,,,,,,,,,,,,,,,,,,,,,,,,,,,,,,,,,,,,,,pipe,18,34,sing,old,white,1652.471217900049,None,n,1652.471217900049,None,"['n', 'return']","[0.9713564999401569, 1.1952661001123488]",1652.471217900049,None,,,25YA,001,2023_Mar_22_1507,ExactRep-v3-final,2021.2.3,59.90646207711588,
,,,,,,,,,,,,34,0,34,0,,,,,,,,,,,,,,,,,,,,,,,,,,,,,,,,,,,,,,,,,,,,,,,,,1655.5480834003538,None,,,,,,,,,,,,,,,,,,,,,,,,,,,,,,,,,,,,,,,,,,,,,,,,,,,,,,,,,horse,126,35,silent,new,blue,1654.2192433001474,None,y,1654.2192433001474,None,"['y', 'return']","[1.02342260023579, 1.2872252999804914]",1654.2192433001474,None,,,25YA,001,2023_Mar_22_1507,ExactRep-v3-final,2021.2.3,59.90646207711588,
,,,,,,,,,,,,35,0,35,0,,,,,,,,,,,,,,,,,,,,,,,,,,,,,,,,,,,,,,,,,,,,,,,,,1657.28307030024,None,,,,,,,,,,,,,,,,,,,,,,,,,,,,,,,,,,,,,,,,,,,,,,,,,,,,,,,,,pride,162,36,aloud,new,red,1656.057688199915,None,y,1656.057688199915,None,"['y', 'return']","[0.9368122997693717, 1.1847839998081326]",1656.057688199915,None,,,25YA,001,2023_Mar_22_1507,ExactRep-v3-final,2021.2.3,59.90646207711588,
,,,,,,,,,,,,36,0,36,0,,,,,,,,,,,,,,,,,,,,,,,,,,,,,,,,,,,,,,,,,,,,,,,,,1659.0014304001816,None,,,,,,,,,,,,,,,,,,,,,,,,,,,,,,,,,,,,,,,,,,,,,,,,,,,,,,,,,pole,85,37,aloud,old,red,1657.7914197999053,None,n,1657.7914197999053,None,"['n', 'return']","[0.9312176001258194, 1.1711478000506759]",1657.7914197999053,None,,,25YA,001,2023_Mar_22_1507,ExactRep-v3-final,2021.2.3,59.90646207711588,
,,,,,,,,,,,,37,0,37,0,,,,,,,,,,,,,,,,,,,,,,,,,,,,,,,,,,,,,,,,,,,,,,,,,1660.6531513999216,None,,,,,,,,,,,,,,,,,,,,,,,,,,,,,,,,,,,,,,,,,,,,,,,,,,,,,,,,,party,209,38,sing,new,white,1659.5123653002083,None,n,1659.5123653002083,None,"['n', 'return']","[0.882103799842298, 1.106096399948001]",1659.5123653002083,None,,,25YA,001,2023_Mar_22_1507,ExactRep-v3-final,2021.2.3,59.90646207711588,
,,,,,,,,,,,,38,0,38,0,,,,,,,,,,,,,,,,,,,,,,,,,,,,,,,,,,,,,,,,,,,,,,,,,1662.3380752000958,None,,,,,,,,,,,,,,,,,,,,,,,,,,,,,,,,,,,,,,,,,,,,,,,,,,,,,,,,,life,150,39,silent,new,blue,1661.1617833003402,None,n,1661.1617833003402,None,"['n', 'return']","[0.9368071998469532, 1.1286979001015425]",1661.1617833003402,None,,,25YA,001,2023_Mar_22_1507,ExactRep-v3-final,2021.2.3,59.90646207711588,
,,,,,,,,,,,,39,0,39,0,,,,,,,,,,,,,,,,,,,,,,,,,,,,,,,,,,,,,,,,,,,,,,,,,1664.3066972000524,None,,,,,,,,,,,,,,,,,,,,,,,,,,,,,,,,,,,,,,,,,,,,,,,,,,,,,,,,,factory,86,40,aloud,old,red,1662.847557300236,None,y,1662.847557300236,None,"['y', 'return']","[1.0908758998848498, 1.4189764996990561]",1662.847557300236,None,,,25YA,001,2023_Mar_22_1507,ExactRep-v3-final,2021.2.3,59.90646207711588,
,,,,,,,,,,,,40,0,40,0,,,,,,,,,,,,,,,,,,,,,,,,,,,,,,,,,,,,,,,,,,,,,,,,,1666.4923745002598,None,,,,,,,,,,,,,,,,,,,,,,,,,,,,,,,,,,,,,,,,,,,,,,,,,,,,,,,,,amount,168,41,aloud,new,red,1664.8165158000775,None,n,1664.8165158000775,None,"['n', 'return']","[1.4099699002690613, 1.634013700298965]",1664.8165158000775,None,,,25YA,001,2023_Mar_22_1507,ExactRep-v3-final,2021.2.3,59.90646207711588,
,,,,,,,,,,,,41,0,41,0,,,,,,,,,,,,,,,,,,,,,,,,,,,,,,,,,,,,,,,,,,,,,,,,,1668.3273924002424,None,,,,,,,,,,,,,,,,,,,,,,,,,,,,,,,,,,,,,,,,,,,,,,,,,,,,,,,,,corn,110,42,aloud,old,red,1666.999776800163,None,y,1666.999776800163,None,"['y', 'return']","[1.0829015001654625, 1.2909401003271341]",1666.999776800163,None,,,25YA,001,2023_Mar_22_1507,ExactRep-v3-final,2021.2.3,59.90646207711588,
,,,,,,,,,,,,42,0,42,0,,,,,,,,,,,,,,,,,,,,,,,,,,,,,,,,,,,,,,,,,,,,,,,,,1670.0124180000275,None,,,,,,,,,,,,,,,,,,,,,,,,,,,,,,,,,,,,,,,,,,,,,,,,,,,,,,,,,boulder,170,43,aloud,new,red,1668.8367961002514,None,n,1668.8367961002514,None,"['n', 'return']","[0.941639699973166, 1.1337358998134732]",1668.8367961002514,None,,,25YA,001,2023_Mar_22_1507,ExactRep-v3-final,2021.2.3,59.90646207711588,
,,,,,,,,,,,,43,0,43,0,,,,,,,,,,,,,,,,,,,,,,,,,,,,,,,,,,,,,,,,,,,,,,,,,1672.481598299928,None,,,,,,,,,,,,,,,,,,,,,,,,,,,,,,,,,,,,,,,,,,,,,,,,,,,,,,,,,city,215,44,sing,new,white,1670.525087499991,None,n,1670.525087499991,None,"['n', 'return']","[0.8934151004068553, 1.9095461000688374]",1670.525087499991,None,,,25YA,001,2023_Mar_22_1507,ExactRep-v3-final,2021.2.3,59.90646207711588,
,,,,,,,,,,,,44,0,44,0,,,,,,,,,,,,,,,,,,,,,,,,,,,,,,,,,,,,,,,,,,,,,,,,,1674.2500780001283,None,,,,,,,,,,,,,,,,,,,,,,,,,,,,,,,,,,,,,,,,,,,,,,,,,,,,,,,,,flood,73,45,silent,old,blue,1672.99244440021,None,n,1672.99244440021,None,"['n', 'return']","[1.0260916999541223, 1.2180677000433207]",1672.99244440021,None,,,25YA,001,2023_Mar_22_1507,ExactRep-v3-final,2021.2.3,59.90646207711588,
,,,,,,,,,,,,45,0,45,0,,,,,,,,,,,,,,,,,,,,,,,,,,,,,,,,,,,,,,,,,,,,,,,,,1676.5691913003102,None,,,,,,,,,,,,,,,,,,,,,,,,,,,,,,,,,,,,,,,,,,,,,,,,,,,,,,,,,friend,206,46,aloud,new,red,1674.7593245999888,None,y,1674.7593245999888,None,"['y', 'return']","[1.5713117998093367, 1.771263999864459]",1674.7593245999888,None,,,25YA,001,2023_Mar_22_1507,ExactRep-v3-final,2021.2.3,59.90646207711588,
,,,,,,,,,,,,46,0,46,0,,,,,,,,,,,,,,,,,,,,,,,,,,,,,,,,,,,,,,,,,,,,,,,,,1678.237391800154,None,,,,,,,,,,,,,,,,,,,,,,,,,,,,,,,,,,,,,,,,,,,,,,,,,,,,,,,,,coast,151,47,silent,new,blue,1677.0767760002054,None,n,1677.0767760002054,None,"['n', 'return']","[0.909763100091368, 1.1177446004003286]",1677.0767760002054,None,,,25YA,001,2023_Mar_22_1507,ExactRep-v3-final,2021.2.3,59.90646207711588,
,,,,,,,,,,,,47,0,47,0,,,,,,,,,,,,,,,,,,,,,,,,,,,,,,,,,,,,,,,,,,,,,,,,,1680.94025720004,None,,,,,,,,,,,,,,,,,,,,,,,,,,,,,,,,,,,,,,,,,,,,,,,,,,,,,,,,,boy,3,48,sing,old,white,1678.7413721000776,None,n,1678.7413721000776,None,"['n', 'return']","[1.4772116001695395, 2.1651531998068094]",1678.7413721000776,None,,,25YA,001,2023_Mar_22_1507,ExactRep-v3-final,2021.2.3,59.90646207711588,
,,,,,,,,,,,,48,0,48,0,,,,,,,,,,,,,,,,,,,,,,,,,,,,,,,,,,,,,,,,,,,,,,,,,1682.641969700344,None,,,,,,,,,,,,,,,,,,,,,,,,,,,,,,,,,,,,,,,,,,,,,,,,,,,,,,,,,string,42,49,silent,old,blue,1681.448387000244,None,n,1681.448387000244,None,"['n', 'return']","[0.8343075001612306, 1.1461697001941502]",1681.448387000244,None,,,25YA,001,2023_Mar_22_1507,ExactRep-v3-final,2021.2.3,59.90646207711588,
,,,,,,,,,,,,49,0,49,0,,,,,,,,,,,,,,,,,,,,,,,,,,,,,,,,,,,,,,,,,,,,,,,,,1684.226655300241,None,,,,,,,,,,,,,,,,,,,,,,,,,,,,,,,,,,,,,,,,,,,,,,,,,,,,,,,,,speech,138,50,silent,new,blue,1683.1536842002533,None,n,1683.1536842002533,None,"['n', 'return']","[0.7769434000365436, 1.0248314999043941]",1683.1536842002533,None,,,25YA,001,2023_Mar_22_1507,ExactRep-v3-final,2021.2.3,59.90646207711588,
,,,,,,,,,,,,50,0,50,0,,,,,,,,,,,,,,,,,,,,,,,,,,,,,,,,,,,,,,,,,,,,,,,,,1686.428952400107,None,,,,,,,,,,,,,,,,,,,,,,,,,,,,,,,,,,,,,,,,,,,,,,,,,,,,,,,,,window,97,51,aloud,old,red,1684.7350969002582,None,y,1684.7350969002582,None,"['y', 'return']","[1.379425199702382, 1.6594186997972429]",1684.7350969002582,None,,,25YA,001,2023_Mar_22_1507,ExactRep-v3-final,2021.2.3,59.90646207711588,
,,,,,,,,,,,,51,0,51,0,,,,,,,,,,,,,,,,,,,,,,,,,,,,,,,,,,,,,,,,,,,,,,,,,1688.1639077002183,None,,,,,,,,,,,,,,,,,,,,,,,,,,,,,,,,,,,,,,,,,,,,,,,,,,,,,,,,,history,92,52,aloud,old,red,1686.9409453002736,None,y,1686.9409453002736,None,"['y', 'return']","[0.9495488000102341, 1.1816218998283148]",1686.9409453002736,None,,,25YA,001,2023_Mar_22_1507,ExactRep-v3-final,2021.2.3,59.90646207711588,
,,,,,,,,,,,,52,0,52,0,,,,,,,,,,,,,,,,,,,,,,,,,,,,,,,,,,,,,,,,,,,,,,,,,1689.8989538000897,None,,,,,,,,,,,,,,,,,,,,,,,,,,,,,,,,,,,,,,,,,,,,,,,,,,,,,,,,,advice,223,53,sing,new,white,1688.6755888001062,None,n,1688.6755888001062,None,"['n', 'return']","[0.9269604999572039, 1.1830458999611437]",1688.6755888001062,None,,,25YA,001,2023_Mar_22_1507,ExactRep-v3-final,2021.2.3,59.90646207711588,
,,,,,,,,,,,,53,0,53,0,,,,,,,,,,,,,,,,,,,,,,,,,,,,,,,,,,,,,,,,,,,,,,,,,1691.5173382000066,None,,,,,,,,,,,,,,,,,,,,,,,,,,,,,,,,,,,,,,,,,,,,,,,,,,,,,,,,,gold,123,54,silent,new,blue,1690.407338500023,None,n,1690.407338500023,None,"['n', 'return']","[0.8352397000417113, 1.0752069000154734]",1690.407338500023,None,,,25YA,001,2023_Mar_22_1507,ExactRep-v3-final,2021.2.3,59.90646207711588,
,,,,,,,,,,,,54,0,54,0,,,,,,,,,,,,,,,,,,,,,,,,,,,,,,,,,,,,,,,,,,,,,,,,,1693.3358237002976,None,,,,,,,,,,,,,,,,,,,,,,,,,,,,,,,,,,,,,,,,,,,,,,,,,,,,,,,,,virtue,122,55,silent,new,blue,1692.0265738000162,None,n,1692.0265738000162,None,"['n', 'return']","[0.8961152997799218, 1.2639695000834763]",1692.0265738000162,None,,,25YA,001,2023_Mar_22_1507,ExactRep-v3-final,2021.2.3,59.90646207711588,
,,,,,,,,,,,,55,0,55,0,,,,,,,,,,,,,,,,,,,,,,,,,,,,,,,,,,,,,,,,,,,,,,,,,1694.9707865002565,None,,,,,,,,,,,,,,,,,,,,,,,,,,,,,,,,,,,,,,,,,,,,,,,,,,,,,,,,,fact,237,56,sing,new,white,1693.8399332002737,None,n,1693.8399332002737,None,"['n', 'return']","[0.8426771000958979, 1.0906656002625823]",1693.8399332002737,None,,,25YA,001,2023_Mar_22_1507,ExactRep-v3-final,2021.2.3,59.90646207711588,
,,,,,,,,,,,,56,0,56,0,,,,,,,,,,,,,,,,,,,,,,,,,,,,,,,,,,,,,,,,,,,,,,,,,1696.555624099914,None,,,,,,,,,,,,,,,,,,,,,,,,,,,,,,,,,,,,,,,,,,,,,,,,,,,,,,,,,spirit,31,57,sing,old,white,1695.4847335000522,None,n,1695.4847335000522,None,"['n', 'return']","[0.8058210997842252, 1.0378548000007868]",1695.4847335000522,None,,,25YA,001,2023_Mar_22_1507,ExactRep-v3-final,2021.2.3,59.90646207711588,
,,,,,,,,,,,,57,0,57,0,,,,,,,,,,,,,,,,,,,,,,,,,,,,,,,,,,,,,,,,,,,,,,,,,1698.607823499944,None,,,,,,,,,,,,,,,,,,,,,,,,,,,,,,,,,,,,,,,,,,,,,,,,,,,,,,,,,palace,13,58,sing,old,white,1697.0680394000374,None,y,1697.0680394000374,None,"['y', 'return']","[1.2624189001508057, 1.5025837998837233]",1697.0680394000374,None,,,25YA,001,2023_Mar_22_1507,ExactRep-v3-final,2021.2.3,59.90646207711588,
,,,,,,,,,,,,58,0,58,0,,,,,,,,,,,,,,,,,,,,,,,,,,,,,,,,,,,,,,,,,,,,,,,,,1700.309487900231,None,,,,,,,,,,,,,,,,,,,,,,,,,,,,,,,,,,,,,,,,,,,,,,,,,,,,,,,,,chance,66,59,silent,old,blue,1699.1187331001274,None,n,1699.1187331001274,None,"['n', 'return']","[0.8838303000666201, 1.1558568999171257]",1699.1187331001274,None,,,25YA,001,2023_Mar_22_1507,ExactRep-v3-final,2021.2.3,59.90646207711588,
,,,,,,,,,,,,59,0,59,0,,,,,,,,,,,,,,,,,,,,,,,,,,,,,,,,,,,,,,,,,,,,,,,,,1702.1613314002752,None,,,,,,,,,,,,,,,,,,,,,,,,,,,,,,,,,,,,,,,,,,,,,,,,,,,,,,,,,memory,113,60,aloud,old,red,1700.823715900071,None,y,1700.823715900071,None,"['y', 'return']","[1.0586729003116488, 1.2906649000942707]",1700.823715900071,None,,,25YA,001,2023_Mar_22_1507,ExactRep-v3-final,2021.2.3,59.90646207711588,
,,,,,,,,,,,,60,0,60,0,,,,,,,,,,,,,,,,,,,,,,,,,,,,,,,,,,,,,,,,,,,,,,,,,1704.0631495001726,None,,,,,,,,,,,,,,,,,,,,,,,,,,,,,,,,,,,,,,,,,,,,,,,,,,,,,,,,,flesh,64,61,silent,old,blue,1702.6739628999494,None,n,1702.6739628999494,None,"['n', 'return']","[1.0967240002937615, 1.3526097000576556]",1702.6739628999494,None,,,25YA,001,2023_Mar_22_1507,ExactRep-v3-final,2021.2.3,59.90646207711588,
,,,,,,,,,,,,61,0,61,0,,,,,,,,,,,,,,,,,,,,,,,,,,,,,,,,,,,,,,,,,,,,,,,,,1705.7815330000594,None,,,,,,,,,,,,,,,,,,,,,,,,,,,,,,,,,,,,,,,,,,,,,,,,,,,,,,,,,power,200,62,aloud,new,red,1704.5727662001736,None,y,1704.5727662001736,None,"['y', 'return']","[0.9258732004091144, 1.173781200312078]",1704.5727662001736,None,,,25YA,001,2023_Mar_22_1507,ExactRep-v3-final,2021.2.3,59.90646207711588,
,,,,,,,,,,,,62,0,62,0,,,,,,,,,,,,,,,,,,,,,,,,,,,,,,,,,,,,,,,,,,,,,,,,,1707.6001297002658,None,,,,,,,,,,,,,,,,,,,,,,,,,,,,,,,,,,,,,,,,,,,,,,,,,,,,,,,,,product,55,63,silent,old,blue,1706.2922991001979,None,y,1706.2922991001979,None,"['y', 'return']","[1.0144070000387728, 1.262323800008744]",1706.2922991001979,None,,,25YA,001,2023_Mar_22_1507,ExactRep-v3-final,2021.2.3,59.90646207711588,
,,,,,,,,,,,,63,0,63,0,,,,,,,,,,,,,,,,,,,,,,,,,,,,,,,,,,,,,,,,,,,,,,,,,1709.2850307002664,None,,,,,,,,,,,,,,,,,,,,,,,,,,,,,,,,,,,,,,,,,,,,,,,,,,,,,,,,,leader,225,64,sing,new,white,1708.1150909001008,None,y,1708.1150909001008,None,"['y', 'return']","[0.9114596000872552, 1.1274422998540103]",1708.1150909001008,None,,,25YA,001,2023_Mar_22_1507,ExactRep-v3-final,2021.2.3,59.90646207711588,
,,,,,,,,,,,,64,0,64,0,,,,,,,,,,,,,,,,,,,,,,,,,,,,,,,,,,,,,,,,,,,,,,,,,1711.0869176001288,None,,,,,,,,,,,,,,,,,,,,,,,,,,,,,,,,,,,,,,,,,,,,,,,,,,,,,,,,,square,171,65,sing,new,white,1709.8033296000212,None,n,1709.8033296000212,None,"['n', 'return']","[1.0232822000980377, 1.2471834002062678]",1709.8033296000212,None,,,25YA,001,2023_Mar_22_1507,ExactRep-v3-final,2021.2.3,59.90646207711588,
,,,,,,,,,,,,65,0,65,0,,,,,,,,,,,,,,,,,,,,,,,,,,,,,,,,,,,,,,,,,,,,,,,,,1713.3391662999056,None,,,,,,,,,,,,,,,,,,,,,,,,,,,,,,,,,,,,,,,,,,,,,,,,,,,,,,,,,door,22,66,sing,old,white,1711.6013394999318,None,y,1711.6013394999318,None,"['y', 'return']","[1.441312000155449, 1.69734220020473]",1711.6013394999318,None,,,25YA,001,2023_Mar_22_1507,ExactRep-v3-final,2021.2.3,59.90646207711588,
,,,,,,,,,,,,66,0,66,0,,,,,,,,,,,,,,,,,,,,,,,,,,,,,,,,,,,,,,,,,,,,,,,,,1714.9073295001872,None,,,,,,,,,,,,,,,,,,,,,,,,,,,,,,,,,,,,,,,,,,,,,,,,,,,,,,,,,air,6,67,sing,old,white,1713.8544439002872,None,n,1713.8544439002872,None,"['n', 'return']","[0.8281435999087989, 1.0122293001040816]",1713.8544439002872,None,,,25YA,001,2023_Mar_22_1507,ExactRep-v3-final,2021.2.3,59.90646207711588,
,,,,,,,,,,,,67,0,67,0,,,,,,,,,,,,,,,,,,,,,,,,,,,,,,,,,,,,,,,,,,,,,,,,,1716.4256359003484,None,,,,,,,,,,,,,,,,,,,,,,,,,,,,,,,,,,,,,,,,,,,,,,,,,,,,,,,,,fun,29,68,sing,old,white,1715.4214078001678,None,n,1715.4214078001678,None,"['n', 'return']","[0.7572832000441849, 0.9652498997747898]",1715.4214078001678,None,,,25YA,001,2023_Mar_22_1507,ExactRep-v3-final,2021.2.3,59.90646207711588,
,,,,,,,,,,,,68,0,68,0,,,,,,,,,,,,,,,,,,,,,,,,,,,,,,,,,,,,,,,,,,,,,,,,,1718.0939179002307,None,,,,,,,,,,,,,,,,,,,,,,,,,,,,,,,,,,,,,,,,,,,,,,,,,,,,,,,,,doctor,207,69,sing,new,white,1716.9392202002928,None,n,1716.9392202002928,None,"['n', 'return']","[0.8872697995975614, 1.1194042996503413]",1716.9392202002928,None,,,25YA,001,2023_Mar_22_1507,ExactRep-v3-final,2021.2.3,59.90646207711588,
,,,,,,,,,,,,69,0,69,0,,,,,,,,,,,,,,,,,,,,,,,,,,,,,,,,,,,,,,,,,,,,,,,,,1720.0959137002937,None,,,,,,,,,,,,,,,,,,,,,,,,,,,,,,,,,,,,,,,,,,,,,,,,,,,,,,,,,money,89,70,aloud,old,red,1718.6005758000538,None,y,1718.6005758000538,None,"['y', 'return']","[1.1380814998410642, 1.4580512000247836]",1718.6005758000538,None,,,25YA,001,2023_Mar_22_1507,ExactRep-v3-final,2021.2.3,59.90646207711588,
,,,,,,,,,,,,70,0,70,0,,,,,,,,,,,,,,,,,,,,,,,,,,,,,,,,,,,,,,,,,,,,,,,,,1721.9810595000163,None,,,,,,,,,,,,,,,,,,,,,,,,,,,,,,,,,,,,,,,,,,,,,,,,,,,,,,,,,butter,37,71,sing,old,white,1720.6090844003484,None,y,1720.6090844003484,None,"['y', 'return']","[1.081612200010568, 1.3375897998921573]",1720.6090844003484,None,,,25YA,001,2023_Mar_22_1507,ExactRep-v3-final,2021.2.3,59.90646207711588,
,,,,,,,,,,,,71,0,71,0,,,,,,,,,,,,,,,,,,,,,,,,,,,,,,,,,,,,,,,,,,,,,,,,,1725.3011684999801,None,,,,,,,,,,,,,,,,,,,,,,,,,,,,,,,,,,,,,,,,,,,,,,,,,,,,,,,,,bar,149,72,silent,new,blue,1722.4902487001382,None,n,1722.4902487001382,None,"['return', 'n', 'return']","[1.1682908004149795, 2.4964241003617644, 2.7762703001499176]",1722.4902487001382,None,,,25YA,001,2023_Mar_22_1507,ExactRep-v3-final,2021.2.3,59.90646207711588,
,,,,,,,,,,,,72,0,72,0,,,,,,,,,,,,,,,,,,,,,,,,,,,,,,,,,,,,,,,,,,,,,,,,,1726.9027964002453,None,,,,,,,,,,,,,,,,,,,,,,,,,,,,,,,,,,,,,,,,,,,,,,,,,,,,,,,,,hope,30,73,sing,old,white,1725.809991300106,None,n,1725.809991300106,None,"['n', 'return']","[0.7685799999162555, 1.0567294997163117]",1725.809991300106,None,,,25YA,001,2023_Mar_22_1507,ExactRep-v3-final,2021.2.3,59.90646207711588,
,,,,,,,,,,,,73,0,73,0,,,,,,,,,,,,,,,,,,,,,,,,,,,,,,,,,,,,,,,,,,,,,,,,,1728.5376488002948,None,,,,,,,,,,,,,,,,,,,,,,,,,,,,,,,,,,,,,,,,,,,,,,,,,,,,,,,,,weapon,7,74,sing,old,white,1727.4144512000494,None,n,1727.4144512000494,None,"['n', 'return']","[0.7802287000231445, 1.0761446999385953]",1727.4144512000494,None,,,25YA,001,2023_Mar_22_1507,ExactRep-v3-final,2021.2.3,59.90646207711588,
,,,,,,,,,,,,74,0,74,0,,,,,,,,,,,,,,,,,,,,,,,,,,,,,,,,,,,,,,,,,,,,,,,,,1730.7066005999222,None,,,,,,,,,,,,,,,,,,,,,,,,,,,,,,,,,,,,,,,,,,,,,,,,,,,,,,,,,tree,69,75,silent,old,blue,1729.0469066002406,None,n,1729.0469066002406,None,"['n', 'return']","[1.379634799901396, 1.6278677000664175]",1729.0469066002406,None,,,25YA,001,2023_Mar_22_1507,ExactRep-v3-final,2021.2.3,59.90646207711588,
,,,,,,,,,,,,75,0,75,0,,,,,,,,,,,,,,,,,,,,,,,,,,,,,,,,,,,,,,,,,,,,,,,,,1732.510310899932,None,,,,,,,,,,,,,,,,,,,,,,,,,,,,,,,,,,,,,,,,,,,,,,,,,,,,,,,,,death,142,76,silent,new,blue,1731.212973400019,None,n,1731.212973400019,None,"['n', 'return']","[1.005475000012666, 1.2615807000547647]",1731.212973400019,None,,,25YA,001,2023_Mar_22_1507,ExactRep-v3-final,2021.2.3,59.90646207711588,
,,,,,,,,,,,,76,0,76,0,,,,,,,,,,,,,,,,,,,,,,,,,,,,,,,,,,,,,,,,,,,,,,,,,1734.2767757000402,None,,,,,,,,,,,,,,,,,,,,,,,,,,,,,,,,,,,,,,,,,,,,,,,,,,,,,,,,,volume,155,77,silent,new,blue,1733.030920600053,None,n,1733.030920600053,None,"['n', 'return']","[0.9077468998730183, 1.2116303998045623]",1733.030920600053,None,,,25YA,001,2023_Mar_22_1507,ExactRep-v3-final,2021.2.3,59.90646207711588,
,,,,,,,,,,,,77,0,77,0,,,,,,,,,,,,,,,,,,,,,,,,,,,,,,,,,,,,,,,,,,,,,,,,,1736.0951735000126,None,,,,,,,,,,,,,,,,,,,,,,,,,,,,,,,,,,,,,,,,,,,,,,,,,,,,,,,,,gift,102,78,aloud,old,red,1734.7876754002646,None,y,1734.7876754002646,None,"['y', 'return']","[1.0148693001829088, 1.2709776000119746]",1734.7876754002646,None,,,25YA,001,2023_Mar_22_1507,ExactRep-v3-final,2021.2.3,59.90646207711588,
,,,,,,,,,,,,78,0,78,0,,,,,,,,,,,,,,,,,,,,,,,,,,,,,,,,,,,,,,,,,,,,,,,,,1738.1139398999512,None,,,,,,,,,,,,,,,,,,,,,,,,,,,,,,,,,,,,,,,,,,,,,,,,,,,,,,,,,maiden,160,79,aloud,new,red,1736.608882700093,None,y,1736.608882700093,None,"['y', 'return']","[1.185722999740392, 1.457733599934727]",1736.608882700093,None,,,25YA,001,2023_Mar_22_1507,ExactRep-v3-final,2021.2.3,59.90646207711588,
,,,,,,,,,,,,79,0,79,0,,,,,,,,,,,,,,,,,,,,,,,,,,,,,,,,,,,,,,,,,,,,,,,,,1739.8991698003374,None,,,,,,,,,,,,,,,,,,,,,,,,,,,,,,,,,,,,,,,,,,,,,,,,,,,,,,,,,table,76,80,silent,old,blue,1738.6315919999033,None,y,1738.6315919999033,None,"['y', 'return']","[0.9869808000512421, 1.2270021000877023]",1738.6315919999033,None,,,25YA,001,2023_Mar_22_1507,ExactRep-v3-final,2021.2.3,59.90646207711588,
,,,,,,,,,,,,80,0,80,0,,,,,,,,,,,,,,,,,,,,,,,,,,,,,,,,,,,,,,,,,,,,,,,,,1741.6509203999303,None,,,,,,,,,,,,,,,,,,,,,,,,,,,,,,,,,,,,,,,,,,,,,,,,,,,,,,,,,event,203,81,sing,new,white,1740.409264500253,None,n,1740.409264500253,None,"['n', 'return']","[0.8973482996225357, 1.1933907996863127]",1740.409264500253,None,,,25YA,001,2023_Mar_22_1507,ExactRep-v3-final,2021.2.3,59.90646207711588,
,,,,,,,,,,,,81,0,81,0,,,,,,,,,,,,,,,,,,,,,,,,,,,,,,,,,,,,,,,,,,,,,,,,,1743.3192531000823,None,,,,,,,,,,,,,,,,,,,,,,,,,,,,,,,,,,,,,,,,,,,,,,,,,,,,,,,,,mother,62,82,silent,old,blue,1742.158749199938,None,y,1742.158749199938,None,"['y', 'return']","[0.8519399999640882, 1.1239685001783073]",1742.158749199938,None,,,25YA,001,2023_Mar_22_1507,ExactRep-v3-final,2021.2.3,59.90646207711588,
,,,,,,,,,,,,82,0,82,0,,,,,,,,,,,,,,,,,,,,,,,,,,,,,,,,,,,,,,,,,,,,,,,,,1745.071749499999,None,,,,,,,,,,,,,,,,,,,,,,,,,,,,,,,,,,,,,,,,,,,,,,,,,,,,,,,,,shock,169,83,sing,new,white,1743.8244429002516,None,n,1743.8244429002516,None,"['n', 'return']","[0.9301618998870254, 1.2020457996986806]",1743.8244429002516,None,,,25YA,001,2023_Mar_22_1507,ExactRep-v3-final,2021.2.3,59.90646207711588,
,,,,,,,,,,,,83,0,83,0,,,,,,,,,,,,,,,,,,,,,,,,,,,,,,,,,,,,,,,,,,,,,,,,,1746.7559199002571,None,,,,,,,,,,,,,,,,,,,,,,,,,,,,,,,,,,,,,,,,,,,,,,,,,,,,,,,,,steam,177,84,sing,new,white,1745.583237099927,None,n,1745.583237099927,None,"['n', 'return']","[0.8673584000207484, 1.139455100055784]",1745.583237099927,None,,,25YA,001,2023_Mar_22_1507,ExactRep-v3-final,2021.2.3,59.90646207711588,
,,,,,,,,,,,,84,0,84,0,,,,,,,,,,,,,,,,,,,,,,,,,,,,,,,,,,,,,,,,,,,,,,,,,1748.27412690036,None,,,,,,,,,,,,,,,,,,,,,,,,,,,,,,,,,,,,,,,,,,,,,,,,,,,,,,,,,star,144,85,silent,new,blue,1747.2643500003032,None,n,1747.2643500003032,None,"['n', 'return']","[0.7225139001384377, 0.9622670998796821]",1747.2643500003032,None,,,25YA,001,2023_Mar_22_1507,ExactRep-v3-final,2021.2.3,59.90646207711588,
,,,,,,,,,,,,85,0,85,0,,,,,,,,,,,,,,,,,,,,,,,,,,,,,,,,,,,,,,,,,,,,,,,,,1750.0091475001536,None,,,,,,,,,,,,,,,,,,,,,,,,,,,,,,,,,,,,,,,,,,,,,,,,,,,,,,,,,bottle,112,86,aloud,old,red,1748.7820160002448,None,y,1748.7820160002448,None,"['y', 'return']","[0.9487044000998139, 1.188556700013578]",1748.7820160002448,None,,,25YA,001,2023_Mar_22_1507,ExactRep-v3-final,2021.2.3,59.90646207711588,
,,,,,,,,,,,,86,0,86,0,,,,,,,,,,,,,,,,,,,,,,,,,,,,,,,,,,,,,,,,,,,,,,,,,1751.6274534999393,None,,,,,,,,,,,,,,,,,,,,,,,,,,,,,,,,,,,,,,,,,,,,,,,,,,,,,,,,,brain,106,87,aloud,old,red,1750.5241240002215,None,y,1750.5241240002215,None,"['y', 'return']","[0.8465419998392463, 1.0624734000302851]",1750.5241240002215,None,,,25YA,001,2023_Mar_22_1507,ExactRep-v3-final,2021.2.3,59.90646207711588,
,,,,,,,,,,,,87,0,87,0,,,,,,,,,,,,,,,,,,,,,,,,,,,,,,,,,,,,,,,,,,,,,,,,,1753.17900130013,None,,,,,,,,,,,,,,,,,,,,,,,,,,,,,,,,,,,,,,,,,,,,,,,,,,,,,,,,,book,178,88,aloud,new,red,1752.1370326001197,None,y,1752.1370326001197,None,"['y', 'return']","[0.7854222003370523, 1.0015847999602556]",1752.1370326001197,None,,,25YA,001,2023_Mar_22_1507,ExactRep-v3-final,2021.2.3,59.90646207711588,
,,,,,,,,,,,,88,0,88,0,,,,,,,,,,,,,,,,,,,,,,,,,,,,,,,,,,,,,,,,,,,,,,,,,1755.0644609001465,None,,,,,,,,,,,,,,,,,,,,,,,,,,,,,,,,,,,,,,,,,,,,,,,,,,,,,,,,,person,229,89,sing,new,white,1753.683514600154,None,y,1753.683514600154,None,"['y', 'return']","[1.1350845997221768, 1.3430670998059213]",1753.683514600154,None,,,25YA,001,2023_Mar_22_1507,ExactRep-v3-final,2021.2.3,59.90646207711588,
,,,,,,,,,,,,89,0,89,0,,,,,,,,,,,,,,,,,,,,,,,,,,,,,,,,,,,,,,,,,,,,,,,,,1756.732541800011,None,,,,,,,,,,,,,,,,,,,,,,,,,,,,,,,,,,,,,,,,,,,,,,,,,,,,,,,,,wheat,82,90,aloud,old,red,1755.5664738002233,None,y,1755.5664738002233,None,"['y', 'return']","[0.8601080002263188, 1.1241621999070048]",1755.5664738002233,None,,,25YA,001,2023_Mar_22_1507,ExactRep-v3-final,2021.2.3,59.90646207711588,
,,,,,,,,,,,,90,0,90,0,,,,,,,,,,,,,,,,,,,,,,,,,,,,,,,,,,,,,,,,,,,,,,,,,1758.3841270999983,None,,,,,,,,,,,,,,,,,,,,,,,,,,,,,,,,,,,,,,,,,,,,,,,,,,,,,,,,,opinion,218,91,aloud,new,red,1757.2429861999117,None,n,1757.2429861999117,None,"['n', 'return']","[0.8316910997964442, 1.0956760998815298]",1757.2429861999117,None,,,25YA,001,2023_Mar_22_1507,ExactRep-v3-final,2021.2.3,59.90646207711588,
,,,,,,,,,,,,91,0,91,0,,,,,,,,,,,,,,,,,,,,,,,,,,,,,,,,,,,,,,,,,,,,,,,,,1760.1193198002875,None,,,,,,,,,,,,,,,,,,,,,,,,,,,,,,,,,,,,,,,,,,,,,,,,,,,,,,,,,priest,5,92,sing,old,white,1758.8966844999231,None,y,1758.8966844999231,None,"['y', 'return']","[0.9139132997952402, 1.1778535000048578]",1758.8966844999231,None,,,25YA,001,2023_Mar_22_1507,ExactRep-v3-final,2021.2.3,59.90646207711588,
,,,,,,,,,,,,92,0,92,0,,,,,,,,,,,,,,,,,,,,,,,,,,,,,,,,,,,,,,,,,,,,,,,,,1761.871007699985,None,,,,,,,,,,,,,,,,,,,,,,,,,,,,,,,,,,,,,,,,,,,,,,,,,,,,,,,,,animal,193,93,sing,new,white,1760.6290222001262,None,n,1760.6290222001262,None,"['n', 'return']","[0.9656729004345834, 1.205680400133133]",1760.6290222001262,None,,,25YA,001,2023_Mar_22_1507,ExactRep-v3-final,2021.2.3,59.90646207711588,
,,,,,,,,,,,,93,0,93,0,,,,,,,,,,,,,,,,,,,,,,,,,,,,,,,,,,,,,,,,,,,,,,,,,1763.739570400212,None,,,,,,,,,,,,,,,,,,,,,,,,,,,,,,,,,,,,,,,,,,,,,,,,,,,,,,,,,hour,119,94,aloud,old,red,1762.3763315002434,None,y,1762.3763315002434,None,"['y', 'return']","[1.0663287998177111, 1.3222588999196887]",1762.3763315002434,None,,,25YA,001,2023_Mar_22_1507,ExactRep-v3-final,2021.2.3,59.90646207711588,
,,,,,,,,,,,,94,0,94,0,,,,,,,,,,,,,,,,,,,,,,,,,,,,,,,,,,,,,,,,,,,,,,,,,1765.3410851000808,None,,,,,,,,,,,,,,,,,,,,,,,,,,,,,,,,,,,,,,,,,,,,,,,,,,,,,,,,,shadow,238,95,aloud,new,red,1764.2554371003062,None,n,1764.2554371003062,None,"['n', 'return']","[0.8431846001185477, 1.0431160000152886]",1764.2554371003062,None,,,25YA,001,2023_Mar_22_1507,ExactRep-v3-final,2021.2.3,59.90646207711588,
,,,,,,,,,,,,95,0,95,0,,,,,,,,,,,,,,,,,,,,,,,,,,,,,,,,,,,,,,,,,,,,,,,,,1767.1764676002786,None,,,,,,,,,,,,,,,,,,,,,,,,,,,,,,,,,,,,,,,,,,,,,,,,,,,,,,,,,murder,35,96,sing,old,white,1765.8487191000022,None,y,1765.8487191000022,None,"['y', 'return']","[1.0498903999105096, 1.2898237998597324]",1765.8487191000022,None,,,25YA,001,2023_Mar_22_1507,ExactRep-v3-final,2021.2.3,59.90646207711588,
,,,,,,,,,,,,96,0,96,0,,,,,,,,,,,,,,,,,,,,,,,,,,,,,,,,,,,,,,,,,,,,,,,,,1768.978249200154,None,,,,,,,,,,,,,,,,,,,,,,,,,,,,,,,,,,,,,,,,,,,,,,,,,,,,,,,,,wine,117,97,aloud,old,red,1767.6852116999216,None,y,1767.6852116999216,None,"['y', 'return']","[1.0213578999973834, 1.2534737000241876]",1767.6852116999216,None,,,25YA,001,2023_Mar_22_1507,ExactRep-v3-final,2021.2.3,59.90646207711588,
,,,,,,,,,,,,97,0,97,0,,,,,,,,,,,,,,,,,,,,,,,,,,,,,,,,,,,,,,,,,,,,,,,,,1771.0468195001595,None,,,,,,,,,,,,,,,,,,,,,,,,,,,,,,,,,,,,,,,,,,,,,,,,,,,,,,,,,tool,10,98,sing,old,white,1769.4810298001394,None,y,1769.4810298001394,None,"['y', 'return']","[1.2737592002376914, 1.5297314003109932]",1769.4810298001394,None,,,25YA,001,2023_Mar_22_1507,ExactRep-v3-final,2021.2.3,59.90646207711588,
,,,,,,,,,,,,98,0,98,0,,,,,,,,,,,,,,,,,,,,,,,,,,,,,,,,,,,,,,,,,,,,,,,,,1772.6984486002475,None,,,,,,,,,,,,,,,,,,,,,,,,,,,,,,,,,,,,,,,,,,,,,,,,,,,,,,,,,salary,61,99,silent,old,blue,1771.559036300052,None,y,1771.559036300052,None,"['y', 'return']","[0.8755977996625006, 1.1076071998104453]",1771.559036300052,None,,,25YA,001,2023_Mar_22_1507,ExactRep-v3-final,2021.2.3,59.90646207711588,
,,,,,,,,,,,,99,0,99,0,,,,,,,,,,,,,,,,,,,,,,,,,,,,,,,,,,,,,,,,,,,,,,,,,1774.3334888000973,None,,,,,,,,,,,,,,,,,,,,,,,,,,,,,,,,,,,,,,,,,,,,,,,,,,,,,,,,,origin,172,100,aloud,new,red,1773.2081932001747,None,n,1773.2081932001747,None,"['n', 'return']","[0.8264894997701049, 1.0823948001489043]",1773.2081932001747,None,,,25YA,001,2023_Mar_22_1507,ExactRep-v3-final,2021.2.3,59.90646207711588,
,,,,,,,,,,,,100,0,100,0,,,,,,,,,,,,,,,,,,,,,,,,,,,,,,,,,,,,,,,,,,,,,,,,,1775.9017807999626,None,,,,,,,,,,,,,,,,,,,,,,,,,,,,,,,,,,,,,,,,,,,,,,,,,,,,,,,,,storm,4,101,sing,old,white,1774.8439086000435,None,n,1774.8439086000435,None,"['n', 'return']","[0.7668046001344919, 1.0227668001316488]",1774.8439086000435,None,,,25YA,001,2023_Mar_22_1507,ExactRep-v3-final,2021.2.3,59.90646207711588,
,,,,,,,,,,,,101,0,101,0,,,,,,,,,,,,,,,,,,,,,,,,,,,,,,,,,,,,,,,,,,,,,,,,,1777.6200312003493,None,,,,,,,,,,,,,,,,,,,,,,,,,,,,,,,,,,,,,,,,,,,,,,,,,,,,,,,,,forest,2,102,sing,old,white,1776.4096999000758,None,y,1776.4096999000758,None,"['y', 'return']","[0.944964200258255, 1.1769268000498414]",1776.4096999000758,None,,,25YA,001,2023_Mar_22_1507,ExactRep-v3-final,2021.2.3,59.90646207711588,
,,,,,,,,,,,,102,0,102,0,,,,,,,,,,,,,,,,,,,,,,,,,,,,,,,,,,,,,,,,,,,,,,,,,1779.3550551002845,None,,,,,,,,,,,,,,,,,,,,,,,,,,,,,,,,,,,,,,,,,,,,,,,,,,,,,,,,,college,50,103,silent,old,blue,1778.132340000011,None,n,1778.132340000011,None,"['n', 'return']","[0.9343401999212801, 1.1902909995988011]",1778.132340000011,None,,,25YA,001,2023_Mar_22_1507,ExactRep-v3-final,2021.2.3,59.90646207711588,
,,,,,,,,,,,,103,0,103,0,,,,,,,,,,,,,,,,,,,,,,,,,,,,,,,,,,,,,,,,,,,,,,,,,1780.990066200029,None,,,,,,,,,,,,,,,,,,,,,,,,,,,,,,,,,,,,,,,,,,,,,,,,,,,,,,,,,health,173,104,sing,new,white,1779.8655080003664,None,n,1779.8655080003664,None,"['n', 'return']","[0.8493081000633538, 1.0892537999898195]",1779.8655080003664,None,,,25YA,001,2023_Mar_22_1507,ExactRep-v3-final,2021.2.3,59.90646207711588,
,,,,,,,,,,,,104,0,104,0,,,,,,,,,,,,,,,,,,,,,,,,,,,,,,,,,,,,,,,,,,,,,,,,,1782.8587282001972,None,,,,,,,,,,,,,,,,,,,,,,,,,,,,,,,,,,,,,,,,,,,,,,,,,,,,,,,,,freedom,26,105,sing,old,white,1781.5039572999813,None,y,1781.5039572999813,None,"['y', 'return']","[1.074771299958229, 1.3227486000396311]",1781.5039572999813,None,,,25YA,001,2023_Mar_22_1507,ExactRep-v3-final,2021.2.3,59.90646207711588,
,,,,,,,,,,,,105,0,105,0,,,,,,,,,,,,,,,,,,,,,,,,,,,,,,,,,,,,,,,,,,,,,,,,,1784.4101614002138,None,,,,,,,,,,,,,,,,,,,,,,,,,,,,,,,,,,,,,,,,,,,,,,,,,,,,,,,,,arm,24,106,sing,old,white,1783.3678308003582,None,n,1783.3678308003582,None,"['n', 'return']","[0.77873450005427, 1.0108358999714255]",1783.3678308003582,None,,,25YA,001,2023_Mar_22_1507,ExactRep-v3-final,2021.2.3,59.90646207711588,
,,,,,,,,,,,,106,0,106,0,,,,,,,,,,,,,,,,,,,,,,,,,,,,,,,,,,,,,,,,,,,,,,,,,1786.161983200349,None,,,,,,,,,,,,,,,,,,,,,,,,,,,,,,,,,,,,,,,,,,,,,,,,,,,,,,,,,fault,186,107,aloud,new,red,1784.922227800358,None,n,1784.922227800358,None,"['n', 'return']","[0.9523887997493148, 1.1924112997949123]",1784.922227800358,None,,,25YA,001,2023_Mar_22_1507,ExactRep-v3-final,2021.2.3,59.90646207711588,
,,,,,,,,,,,,107,0,107,0,,,,,,,,,,,,,,,,,,,,,,,,,,,,,,,,,,,,,,,,,,,,,,,,,1787.9471042999066,None,,,,,,,,,,,,,,,,,,,,,,,,,,,,,,,,,,,,,,,,,,,,,,,,,,,,,,,,,diamond,211,108,sing,new,white,1786.670844499953,None,n,1786.670844499953,None,"['n', 'return']","[0.9718204000964761, 1.235897300299257]",1786.670844499953,None,,,25YA,001,2023_Mar_22_1507,ExactRep-v3-final,2021.2.3,59.90646207711588,
,,,,,,,,,,,,108,0,108,0,,,,,,,,,,,,,,,,,,,,,,,,,,,,,,,,,,,,,,,,,,,,,,,,,1789.6820656000637,None,,,,,,,,,,,,,,,,,,,,,,,,,,,,,,,,,,,,,,,,,,,,,,,,,,,,,,,,,soil,38,109,sing,old,white,1788.4627235000953,None,y,1788.4627235000953,None,"['y', 'return']","[0.9398994999937713, 1.1717296000570059]",1788.4627235000953,None,,,25YA,001,2023_Mar_22_1507,ExactRep-v3-final,2021.2.3,59.90646207711588,
,,,,,,,,,,,,109,0,109,0,,,,,,,,,,,,,,,,,,,,,,,,,,,,,,,,,,,,,,,,,,,,,,,,,1791.2837706999853,None,,,,,,,,,,,,,,,,,,,,,,,,,,,,,,,,,,,,,,,,,,,,,,,,,,,,,,,,,silence,156,110,silent,new,blue,1790.1837091003545,None,n,1790.1837091003545,None,"['n', 'return']","[0.8509910004213452, 1.0671066003851593]",1790.1837091003545,None,,,25YA,001,2023_Mar_22_1507,ExactRep-v3-final,2021.2.3,59.90646207711588,
,,,,,,,,,,,,110,0,110,0,,,,,,,,,,,,,,,,,,,,,,,,,,,,,,,,,,,,,,,,,,,,,,,,,1792.7184560000896,None,,,,,,,,,,,,,,,,,,,,,,,,,,,,,,,,,,,,,,,,,,,,,,,,,,,,,,,,,victory,74,111,silent,old,blue,1791.7973501002416,None,n,1791.7973501002416,None,"['n', 'return']","[0.7013071002438664, 0.8772317999973893]",1791.7973501002416,None,,,25YA,001,2023_Mar_22_1507,ExactRep-v3-final,2021.2.3,59.90646207711588,
,,,,,,,,,,,,111,0,111,0,,,,,,,,,,,,,,,,,,,,,,,,,,,,,,,,,,,,,,,,,,,,,,,,,1794.1865862999111,None,,,,,,,,,,,,,,,,,,,,,,,,,,,,,,,,,,,,,,,,,,,,,,,,,,,,,,,,,grass,51,112,silent,old,blue,1793.2280981000513,None,n,1793.2280981000513,None,"['n', 'return']","[0.7028697999194264, 0.918662799987942]",1793.2280981000513,None,,,25YA,001,2023_Mar_22_1507,ExactRep-v3-final,2021.2.3,59.90646207711588,
,,,,,,,,,,,,112,0,112,0,,,,,,,,,,,,,,,,,,,,,,,,,,,,,,,,,,,,,,,,,,,,,,,,,1795.9218534999527,None,,,,,,,,,,,,,,,,,,,,,,,,,,,,,,,,,,,,,,,,,,,,,,,,,,,,,,,,,temple,221,113,sing,new,white,1794.6989679001272,None,n,1794.6989679001272,None,"['n', 'return']","[0.9276577001437545, 1.1756771001964808]",1794.6989679001272,None,,,25YA,001,2023_Mar_22_1507,ExactRep-v3-final,2021.2.3,59.90646207711588,
,,,,,,,,,,,,113,0,113,0,,,,,,,,,,,,,,,,,,,,,,,,,,,,,,,,,,,,,,,,,,,,,,,,,1797.506630500313,None,,,,,,,,,,,,,,,,,,,,,,,,,,,,,,,,,,,,,,,,,,,,,,,,,,,,,,,,,house,116,114,aloud,old,red,1796.4350256999023,None,y,1796.4350256999023,None,"['y', 'return']","[0.8316816999576986, 1.0395880998112261]",1796.4350256999023,None,,,25YA,001,2023_Mar_22_1507,ExactRep-v3-final,2021.2.3,59.90646207711588,
,,,,,,,,,,,,114,0,114,0,,,,,,,,,,,,,,,,,,,,,,,,,,,,,,,,,,,,,,,,,,,,,,,,,1799.2750233002007,None,,,,,,,,,,,,,,,,,,,,,,,,,,,,,,,,,,,,,,,,,,,,,,,,,,,,,,,,,vessel,137,115,silent,new,blue,1798.023512400221,None,n,1798.023512400221,None,"['n', 'return']","[0.9551559998653829, 1.2192464000545442]",1798.023512400221,None,,,25YA,001,2023_Mar_22_1507,ExactRep-v3-final,2021.2.3,59.90646207711588,
,,,,,,,,,,,,115,0,115,0,,,,,,,,,,,,,,,,,,,,,,,,,,,,,,,,,,,,,,,,,,,,,,,,,1801.393828399945,None,,,,,,,,,,,,,,,,,,,,,,,,,,,,,,,,,,,,,,,,,,,,,,,,,,,,,,,,,hall,118,116,aloud,old,red,1799.7841620002873,None,y,1799.7841620002873,None,"['y', 'return']","[1.3146832999773324, 1.5624983999878168]",1799.7841620002873,None,,,25YA,001,2023_Mar_22_1507,ExactRep-v3-final,2021.2.3,59.90646207711588,
,,,,,,,,,,,,116,0,116,0,,,,,,,,,,,,,,,,,,,,,,,,,,,,,,,,,,,,,,,,,,,,,,,,,1803.3624486001208,None,,,,,,,,,,,,,,,,,,,,,,,,,,,,,,,,,,,,,,,,,,,,,,,,,,,,,,,,,grief,226,117,aloud,new,red,1801.8974240003154,None,y,1801.8974240003154,None,"['y', 'return']","[1.1294292001985013, 1.417371400166303]",1801.8974240003154,None,,,25YA,001,2023_Mar_22_1507,ExactRep-v3-final,2021.2.3,59.90646207711588,
,,,,,,,,,,,,117,0,117,0,,,,,,,,,,,,,,,,,,,,,,,,,,,,,,,,,,,,,,,,,,,,,,,,,1805.1308913002722,None,,,,,,,,,,,,,,,,,,,,,,,,,,,,,,,,,,,,,,,,,,,,,,,,,,,,,,,,,devil,176,118,aloud,new,red,1803.8679784000851,None,n,1803.8679784000851,None,"['n', 'return']","[0.9348963000811636, 1.2227464998140931]",1803.8679784000851,None,,,25YA,001,2023_Mar_22_1507,ExactRep-v3-final,2021.2.3,59.90646207711588,
,,,,,,,,,,,,118,0,118,0,,,,,,,,,,,,,,,,,,,,,,,,,,,,,,,,,,,,,,,,,,,,,,,,,1807.2497388003394,None,,,,,,,,,,,,,,,,,,,,,,,,,,,,,,,,,,,,,,,,,,,,,,,,,,,,,,,,,moral,36,119,sing,old,white,1805.6394410002977,None,n,1805.6394410002977,None,"['n', 'return']","[1.3151918998919427, 1.5632003997452557]",1805.6394410002977,None,,,25YA,001,2023_Mar_22_1507,ExactRep-v3-final,2021.2.3,59.90646207711588,
,,,,,,,,,,,,119,0,119,0,,,,,,,,,,,,,,,,,,,,,,,,,,,,,,,,,,,,,,,,,,,,,,,,,1810.6866202000529,None,,,,,,,,,,,,,,,,,,,,,,,,,,,,,,,,,,,,,,,,,,,,,,,,,,,,,,,,,officer,104,120,aloud,old,red,1807.753672200255,None,n,1807.753672200255,None,"['n', 'return']","[2.6656133998185396, 2.888954599853605]",1807.753672200255,None,,,25YA,001,2023_Mar_22_1507,ExactRep-v3-final,2021.2.3,59.90646207711588,
,,,,,,,,,,,,120,0,120,0,,,,,,,,,,,,,,,,,,,,,,,,,,,,,,,,,,,,,,,,,,,,,,,,,1812.171254100278,None,,,,,,,,,,,,,,,,,,,,,,,,,,,,,,,,,,,,,,,,,,,,,,,,,,,,,,,,,dress,65,121,silent,old,blue,1811.197904500179,None,n,1811.197904500179,None,"['n', 'return']","[0.7247096998617053, 0.9406981999054551]",1811.197904500179,None,,,25YA,001,2023_Mar_22_1507,ExactRep-v3-final,2021.2.3,59.90646207711588,
,,,,,,,,,,,,121,0,121,0,,,,,,,,,,,,,,,,,,,,,,,,,,,,,,,,,,,,,,,,,,,,,,,,,1813.7228322001174,None,,,,,,,,,,,,,,,,,,,,,,,,,,,,,,,,,,,,,,,,,,,,,,,,,,,,,,,,,honour,140,122,silent,new,blue,1812.6813747002743,None,n,1812.6813747002743,None,"['n', 'return']","[0.7933104997500777, 1.001269199885428]",1812.6813747002743,None,,,25YA,001,2023_Mar_22_1507,ExactRep-v3-final,2021.2.3,59.90646207711588,
,,,,,,,,,,,,122,0,122,0,,,,,,,,,,,,,,,,,,,,,,,,,,,,,,,,,,,,,,,,,,,,,,,,,1815.3746092999354,None,,,,,,,,,,,,,,,,,,,,,,,,,,,,,,,,,,,,,,,,,,,,,,,,,,,,,,,,,trouble,105,123,aloud,old,red,1814.2359564001672,None,n,1814.2359564001672,None,"['n', 'return']","[0.8546795998699963, 1.0946500999853015]",1814.2359564001672,None,,,25YA,001,2023_Mar_22_1507,ExactRep-v3-final,2021.2.3,59.90646207711588,
,,,,,,,,,,,,123,0,123,0,,,,,,,,,,,,,,,,,,,,,,,,,,,,,,,,,,,,,,,,,,,,,,,,,1817.2429869002663,None,,,,,,,,,,,,,,,,,,,,,,,,,,,,,,,,,,,,,,,,,,,,,,,,,,,,,,,,,insect,53,124,silent,old,blue,1815.8854374000803,None,n,1815.8854374000803,None,"['n', 'return']","[0.8133223997429013, 1.3173805000260472]",1815.8854374000803,None,,,25YA,001,2023_Mar_22_1507,ExactRep-v3-final,2021.2.3,59.90646207711588,
,,,,,,,,,,,,124,0,124,0,,,,,,,,,,,,,,,,,,,,,,,,,,,,,,,,,,,,,,,,,,,,,,,,,1819.7623737002723,None,,,,,,,,,,,,,,,,,,,,,,,,,,,,,,,,,,,,,,,,,,,,,,,,,,,,,,,,,dust,131,125,silent,new,blue,1817.7495043999515,None,n,1817.7495043999515,None,"['n', 'return']","[1.7332933000288904, 1.9812309998087585]",1817.7495043999515,None,,,25YA,001,2023_Mar_22_1507,ExactRep-v3-final,2021.2.3,59.90646207711588,
,,,,,,,,,,,,125,0,125,0,,,,,,,,,,,,,,,,,,,,,,,,,,,,,,,,,,,,,,,,,,,,,,,,,1821.4638861999847,None,,,,,,,,,,,,,,,,,,,,,,,,,,,,,,,,,,,,,,,,,,,,,,,,,,,,,,,,,ticket,179,126,sing,new,white,1820.2731208000332,None,n,1820.2731208000332,None,"['n', 'return']","[0.8735222998075187, 1.153644499834627]",1820.2731208000332,None,,,25YA,001,2023_Mar_22_1507,ExactRep-v3-final,2021.2.3,59.90646207711588,
,,,,,,,,,,,,126,0,126,0,,,,,,,,,,,,,,,,,,,,,,,,,,,,,,,,,,,,,,,,,,,,,,,,,1822.9820636003278,None,,,,,,,,,,,,,,,,,,,,,,,,,,,,,,,,,,,,,,,,,,,,,,,,,,,,,,,,,lord,157,127,silent,new,blue,1821.9738960000686,None,n,1821.9738960000686,None,"['n', 'return']","[0.7488396000117064, 0.9729857002384961]",1821.9738960000686,None,,,25YA,001,2023_Mar_22_1507,ExactRep-v3-final,2021.2.3,59.90646207711588,
,,,,,,,,,,,,127,0,127,0,,,,,,,,,,,,,,,,,,,,,,,,,,,,,,,,,,,,,,,,,,,,,,,,,1824.7338090003468,None,,,,,,,,,,,,,,,,,,,,,,,,,,,,,,,,,,,,,,,,,,,,,,,,,,,,,,,,,moment,135,128,silent,new,blue,1823.5025364002213,None,y,1823.5025364002213,None,"['y', 'return']","[0.956149899866432, 1.1881113001145422]",1823.5025364002213,None,,,25YA,001,2023_Mar_22_1507,ExactRep-v3-final,2021.2.3,59.90646207711588,
,,,,,,,,,,,,128,0,128,0,,,,,,,,,,,,,,,,,,,,,,,,,,,,,,,,,,,,,,,,,,,,,,,,,1827.2863682000898,None,,,,,,,,,,,,,,,,,,,,,,,,,,,,,,,,,,,,,,,,,,,,,,,,,,,,,,,,,beast,103,129,aloud,old,red,1825.240838299971,None,y,1825.240838299971,None,"['y', 'return']","[1.697874499950558, 2.0099169998429716]",1825.240838299971,None,,,25YA,001,2023_Mar_22_1507,ExactRep-v3-final,2021.2.3,59.90646207711588,
,,,,,,,,,,,,129,0,129,0,,,,,,,,,,,,,,,,,,,,,,,,,,,,,,,,,,,,,,,,,,,,,,,,,1828.7544585000724,None,,,,,,,,,,,,,,,,,,,,,,,,,,,,,,,,,,,,,,,,,,,,,,,,,,,,,,,,,dawn,139,130,silent,new,blue,1827.7950912001543,None,n,1827.7950912001543,None,"['n', 'return']","[0.6877450998872519, 0.9196786000393331]",1827.7950912001543,None,,,25YA,001,2023_Mar_22_1507,ExactRep-v3-final,2021.2.3,59.90646207711588,
