trials_fam.thisRepN,trials_fam.thisTrialN,trials_fam.thisN,trials_fam.thisIndex,trials_prc.thisRepN,trials_prc.thisTrialN,trials_prc.thisN,trials_prc.thisIndex,StudyLoop.thisRepN,StudyLoop.thisTrialN,StudyLoop.thisN,StudyLoop.thisIndex,TestLoop.thisRepN,TestLoop.thisTrialN,TestLoop.thisN,TestLoop.thisIndex,text_colortest.started,text_colortest.stopped,key_colortest.keys,key_colortest.rt,key_colortest.started,key_colortest.stopped,textCondition.started,textCondition.stopped,keyCondition.keys,keyCondition.rt,keyCondition.started,keyCondition.stopped,Condition_between,Condition_counterbal,keyWelcome.keys,keyWelcome.rt,keyWelcome.started,keyWelcome.stopped,welcome_a.started,welcome_a.stopped,welcome_b.started,welcome_b.stopped,welcome_c.started,welcome_c.stopped,welcome_d.started,welcome_d.stopped,welcome_e.started,welcome_e.stopped,welcome_f.started,welcome_f.stopped,key_resp_fam_inst.keys,key_resp_fam_inst.rt,key_resp_fam_inst.started,key_resp_fam_inst.stopped,fam_a.started,fam_a.stopped,fam_b.started,fam_b.stopped,fam_c.started,fam_c.stopped,fam_d.started,fam_d.stopped,fam_e.started,fam_e.stopped,fam_f.started,fam_f.stopped,text_famil.started,text_famil.stopped,textBlank500.started,textBlank500.stopped,key_resp_prc_inst.keys,key_resp_prc_inst.rt,key_resp_prc_inst.started,key_resp_prc_inst.stopped,prac_a.started,prac_a.stopped,prac_b.started,prac_b.stopped,prac_c.started,prac_c.stopped,prac_d.started,prac_d.stopped,prac_e.started,prac_e.stopped,prac_f.started,prac_f.stopped,text_prc_trial.started,text_prc_trial.stopped,key_resp_study_inst.keys,key_resp_study_inst.rt,key_resp_study_inst.started,key_resp_study_inst.stopped,crit_a.started,crit_a.stopped,crit_b.started,crit_b.stopped,crit_c.started,crit_c.stopped,crit_d.started,crit_d.stopped,crit_e.started,crit_e.stopped,crit_f.started,crit_f.stopped,study_word,study_num,study_order,study_type,word_color,textStudy.started,textStudy.stopped,keyStudy.keys,keyStudy.started,keyStudy.stopped,post_study.started,post_study.stopped,key_resp_post_study.keys,key_resp_post_study.rt,key_resp_post_study.started,key_resp_post_study.stopped,test_inst.started,test_inst.stopped,key_resp_test_inst.keys,key_resp_test_inst.rt,key_resp_test_inst.started,key_resp_test_inst.stopped,test_word,test_num,test_order,test_condition,old_new_test,word_color_test,textConf.started,textConf.stopped,Participant Response,textInput.started,textInput.stopped,keyResp.keys,keyResp.rt,keyResp.started,keyResp.stopped,textEnd.started,textEnd.stopped,participant,session,date,expName,psychopyVersion,frameRate,
,,,,,,,,,,,,,,,,21.36956989997998,None,y,1.259158100001514,21.36956989997998,None,,,,,,,,,,,,,,,,,,,,,,,,,,,,,,,,,,,,,,,,,,,,,,,,,,,,,,,,,,,,,,,,,,,,,,,,,,,,,,,,,,,,,,,,,,,,,,,,,,,,,,,,,,,,,,,,,,,,,,26YB,001,2023_Mar_22_1745,ExactRep-v3-final,2021.2.3,59.951103870284015,
,,,,,,,,,,,,,,,,,,,,,,22.654564199969172,None,b,1.126220699865371,22.654564199969172,None,,,,,,,,,,,,,,,,,,,,,,,,,,,,,,,,,,,,,,,,,,,,,,,,,,,,,,,,,,,,,,,,,,,,,,,,,,,,,,,,,,,,,,,,,,,,,,,,,,,,,,,,,,,,,,,,26YB,001,2023_Mar_22_1745,ExactRep-v3-final,2021.2.3,59.951103870284015,
,,,,,,,,,,,,,,,,,,,,,,,,,,,,colorfoils,b,space,2466.223602300044,33.895567200146616,None,,,,,,,,,,,,,,,,,,,,,,,,,,,,,,,,,,,,,,,,,,,,,,,,,,,,,,,,,,,,,,,,,,,,,,,,,,,,,,,,,,,,,,,,,,,,,,,,,,,,,,,,,,26YB,001,2023_Mar_22_1745,ExactRep-v3-final,2021.2.3,59.951103870284015,
,,,,,,,,,,,,,,,,,,,,,,,,,,,,,,,,,,23.949268899857998,None,23.949268899857998,None,23.949268899857998,None,23.949268899857998,None,23.949268899857998,None,23.949268899857998,None,space,65.98677550023422,2510.2926668999717,None,,,,,,,,,,,,,,,,,,,,,,,,,,,,,,,,,,,,,,,,,,,,,,,,,,,,,,,,,,,,,,,,,,,,,,,,,,,,,,,,,,,,,,,,,,26YB,001,2023_Mar_22_1745,ExactRep-v3-final,2021.2.3,59.951103870284015,
0,0,0,0,,,,,,,,,,,,,,,,,,,,,,,,,,,,,,,,,,,,,,,,,,,,,,,2500.323331099935,None,2500.323331099935,None,2500.323331099935,None,2500.323331099935,None,2500.323331099935,None,2500.323331099935,None,2576.351511300076,None,2578.343877499923,None,,,,,,,,,,,,,,,,,,,,,,,,,,,,,,,,,,,,,,,,,,,,,,,,,,,,,,,,,,,,,,,,,,,,,,,,,,26YB,001,2023_Mar_22_1745,ExactRep-v3-final,2021.2.3,59.951103870284015,
1,0,1,0,,,,,,,,,,,,,,,,,,,,,,,,,,,,,,,,,,,,,,,,,,,,,,,,,,,,,,,,,,,2578.868574500084,None,2580.8629487999715,None,,,,,,,,,,,,,,,,,,,,,,,,,,,,,,,,,,,,,,,,,,,,,,,,,,,,,,,,,,,,,,,,,,,,,,,,,,26YB,001,2023_Mar_22_1745,ExactRep-v3-final,2021.2.3,59.951103870284015,
2,0,2,0,,,,,,,,,,,,,,,,,,,,,,,,,,,,,,,,,,,,,,,,,,,,,,,,,,,,,,,,,,,2581.3633234999143,None,2583.3653414999135,None,,,,,,,,,,,,,,,,,,,,,,,,,,,,,,,,,,,,,,,,,,,,,,,,,,,,,,,,,,,,,,,,,,,,,,,,,,26YB,001,2023_Mar_22_1745,ExactRep-v3-final,2021.2.3,59.951103870284015,
3,0,3,0,,,,,,,,,,,,,,,,,,,,,,,,,,,,,,,,,,,,,,,,,,,,,,,,,,,,,,,,,,,2583.8659179001115,None,2585.8680309001356,None,,,,,,,,,,,,,,,,,,,,,,,,,,,,,,,,,,,,,,,,,,,,,,,,,,,,,,,,,,,,,,,,,,,,,,,,,,26YB,001,2023_Mar_22_1745,ExactRep-v3-final,2021.2.3,59.951103870284015,
4,0,4,0,,,,,,,,,,,,,,,,,,,,,,,,,,,,,,,,,,,,,,,,,,,,,,,,,,,,,,,,,,,2586.37022899976,None,2588.3701999001205,None,,,,,,,,,,,,,,,,,,,,,,,,,,,,,,,,,,,,,,,,,,,,,,,,,,,,,,,,,,,,,,,,,,,,,,,,,,26YB,001,2023_Mar_22_1745,ExactRep-v3-final,2021.2.3,59.951103870284015,
5,0,5,0,,,,,,,,,,,,,,,,,,,,,,,,,,,,,,,,,,,,,,,,,,,,,,,,,,,,,,,,,,,2588.8847382999957,None,2590.889508899767,None,,,,,,,,,,,,,,,,,,,,,,,,,,,,,,,,,,,,,,,,,,,,,,,,,,,,,,,,,,,,,,,,,,,,,,,,,,26YB,001,2023_Mar_22_1745,ExactRep-v3-final,2021.2.3,59.951103870284015,
6,0,6,0,,,,,,,,,,,,,,,,,,,,,,,,,,,,,,,,,,,,,,,,,,,,,,,,,,,,,,,,,,,2591.3979898998514,None,2593.4088113000616,None,,,,,,,,,,,,,,,,,,,,,,,,,,,,,,,,,,,,,,,,,,,,,,,,,,,,,,,,,,,,,,,,,,,,,,,,,,26YB,001,2023_Mar_22_1745,ExactRep-v3-final,2021.2.3,59.951103870284015,
7,0,7,0,,,,,,,,,,,,,,,,,,,,,,,,,,,,,,,,,,,,,,,,,,,,,,,,,,,,,,,,,,,2593.9138000998646,None,2595.928058099933,None,,,,,,,,,,,,,,,,,,,,,,,,,,,,,,,,,,,,,,,,,,,,,,,,,,,,,,,,,,,,,,,,,,,,,,,,,,26YB,001,2023_Mar_22_1745,ExactRep-v3-final,2021.2.3,59.951103870284015,
8,0,8,0,,,,,,,,,,,,,,,,,,,,,,,,,,,,,,,,,,,,,,,,,,,,,,,,,,,,,,,,,,,2596.4314496000297,None,2598.4305318999104,None,,,,,,,,,,,,,,,,,,,,,,,,,,,,,,,,,,,,,,,,,,,,,,,,,,,,,,,,,,,,,,,,,,,,,,,,,,26YB,001,2023_Mar_22_1745,ExactRep-v3-final,2021.2.3,59.951103870284015,
9,0,9,0,,,,,,,,,,,,,,,,,,,,,,,,,,,,,,,,,,,,,,,,,,,,,,,,,,,,,,,,,,,2598.9315256997943,None,2600.93310080003,None,,,,,,,,,,,,,,,,,,,,,,,,,,,,,,,,,,,,,,,,,,,,,,,,,,,,,,,,,,,,,,,,,,,,,,,,,,26YB,001,2023_Mar_22_1745,ExactRep-v3-final,2021.2.3,59.951103870284015,
10,0,10,0,,,,,,,,,,,,,,,,,,,,,,,,,,,,,,,,,,,,,,,,,,,,,,,,,,,,,,,,,,,2601.435396200046,None,2603.4353502001613,None,,,,,,,,,,,,,,,,,,,,,,,,,,,,,,,,,,,,,,,,,,,,,,,,,,,,,,,,,,,,,,,,,,,,,,,,,,26YB,001,2023_Mar_22_1745,ExactRep-v3-final,2021.2.3,59.951103870284015,
11,0,11,0,,,,,,,,,,,,,,,,,,,,,,,,,,,,,,,,,,,,,,,,,,,,,,,,,,,,,,,,,,,2603.941598400008,None,2605.95464910008,None,,,,,,,,,,,,,,,,,,,,,,,,,,,,,,,,,,,,,,,,,,,,,,,,,,,,,,,,,,,,,,,,,,,,,,,,,,26YB,001,2023_Mar_22_1745,ExactRep-v3-final,2021.2.3,59.951103870284015,
12,0,12,0,,,,,,,,,,,,,,,,,,,,,,,,,,,,,,,,,,,,,,,,,,,,,,,,,,,,,,,,,,,2606.4550703000277,None,2608.4570172000676,None,,,,,,,,,,,,,,,,,,,,,,,,,,,,,,,,,,,,,,,,,,,,,,,,,,,,,,,,,,,,,,,,,,,,,,,,,,26YB,001,2023_Mar_22_1745,ExactRep-v3-final,2021.2.3,59.951103870284015,
13,0,13,0,,,,,,,,,,,,,,,,,,,,,,,,,,,,,,,,,,,,,,,,,,,,,,,,,,,,,,,,,,,2608.9577743997797,None,2610.959635999985,None,,,,,,,,,,,,,,,,,,,,,,,,,,,,,,,,,,,,,,,,,,,,,,,,,,,,,,,,,,,,,,,,,,,,,,,,,,26YB,001,2023_Mar_22_1745,ExactRep-v3-final,2021.2.3,59.951103870284015,
14,0,14,0,,,,,,,,,,,,,,,,,,,,,,,,,,,,,,,,,,,,,,,,,,,,,,,,,,,,,,,,,,,2611.460093599744,None,2613.462063100189,None,,,,,,,,,,,,,,,,,,,,,,,,,,,,,,,,,,,,,,,,,,,,,,,,,,,,,,,,,,,,,,,,,,,,,,,,,,26YB,001,2023_Mar_22_1745,ExactRep-v3-final,2021.2.3,59.951103870284015,
,,,,,,,,,,,,,,,,,,,,,,,,,,,,,,,,,,,,,,,,,,,,,,,,,,,,,,,,,,,,,,,,,,space,34.68212949996814,2624.0935494001023,None,,,,,,,,,,,,,,,,,,,,,,,,,,,,,,,,,,,,,,,,,,,,,,,,,,,,,,,,,,,,,,,,,,,,,,26YB,001,2023_Mar_22_1745,ExactRep-v3-final,2021.2.3,59.951103870284015,
,,,,0,0,0,0,,,,,,,,,,,,,,,,,,,,,,,,,,,,,,,,,,,,,,,,,,,,,,,,,,,,,,,,,2660.842913399916,None,,,,,2614.0839269999415,None,2614.0839269999415,None,2614.0839269999415,None,2614.0839269999415,None,2614.0839269999415,None,2614.0839269999415,None,2658.836002700031,None,,,,,,,,,,,,,,,,,,,,,,,,,,,,,,,,,,,,,,,,,,,,,,,,,,,,,,,,26YB,001,2023_Mar_22_1745,ExactRep-v3-final,2021.2.3,59.951103870284015,
,,,,1,0,1,0,,,,,,,,,,,,,,,,,,,,,,,,,,,,,,,,,,,,,,,,,,,,,,,,,,,,,,,,,2663.3455882999115,None,,,,,,,,,,,,,,,,,2661.3432160997763,None,,,,,,,,,,,,,,,,,,,,,,,,,,,,,,,,,,,,,,,,,,,,,,,,,,,,,,,,26YB,001,2023_Mar_22_1745,ExactRep-v3-final,2021.2.3,59.951103870284015,
,,,,2,0,2,0,,,,,,,,,,,,,,,,,,,,,,,,,,,,,,,,,,,,,,,,,,,,,,,,,,,,,,,,,2665.847581299953,None,,,,,,,,,,,,,,,,,2663.846163399983,None,,,,,,,,,,,,,,,,,,,,,,,,,,,,,,,,,,,,,,,,,,,,,,,,,,,,,,,,26YB,001,2023_Mar_22_1745,ExactRep-v3-final,2021.2.3,59.951103870284015,
,,,,3,0,3,0,,,,,,,,,,,,,,,,,,,,,,,,,,,,,,,,,,,,,,,,,,,,,,,,,,,,,,,,,2668.350271599833,None,,,,,,,,,,,,,,,,,2666.348513400182,None,,,,,,,,,,,,,,,,,,,,,,,,,,,,,,,,,,,,,,,,,,,,,,,,,,,,,,,,26YB,001,2023_Mar_22_1745,ExactRep-v3-final,2021.2.3,59.951103870284015,
,,,,4,0,4,0,,,,,,,,,,,,,,,,,,,,,,,,,,,,,,,,,,,,,,,,,,,,,,,,,,,,,,,,,2670.8528664000332,None,,,,,,,,,,,,,,,,,2668.8509888998233,None,,,,,,,,,,,,,,,,,,,,,,,,,,,,,,,,,,,,,,,,,,,,,,,,,,,,,,,,26YB,001,2023_Mar_22_1745,ExactRep-v3-final,2021.2.3,59.951103870284015,
,,,,5,0,5,0,,,,,,,,,,,,,,,,,,,,,,,,,,,,,,,,,,,,,,,,,,,,,,,,,,,,,,,,,2673.355261299759,None,,,,,,,,,,,,,,,,,2671.3534486000426,None,,,,,,,,,,,,,,,,,,,,,,,,,,,,,,,,,,,,,,,,,,,,,,,,,,,,,,,,26YB,001,2023_Mar_22_1745,ExactRep-v3-final,2021.2.3,59.951103870284015,
,,,,6,0,6,0,,,,,,,,,,,,,,,,,,,,,,,,,,,,,,,,,,,,,,,,,,,,,,,,,,,,,,,,,2675.8577960999683,None,,,,,,,,,,,,,,,,,2673.855969300028,None,,,,,,,,,,,,,,,,,,,,,,,,,,,,,,,,,,,,,,,,,,,,,,,,,,,,,,,,26YB,001,2023_Mar_22_1745,ExactRep-v3-final,2021.2.3,59.951103870284015,
,,,,7,0,7,0,,,,,,,,,,,,,,,,,,,,,,,,,,,,,,,,,,,,,,,,,,,,,,,,,,,,,,,,,2678.360600799788,None,,,,,,,,,,,,,,,,,2676.3582987999544,None,,,,,,,,,,,,,,,,,,,,,,,,,,,,,,,,,,,,,,,,,,,,,,,,,,,,,,,,26YB,001,2023_Mar_22_1745,ExactRep-v3-final,2021.2.3,59.951103870284015,
,,,,8,0,8,0,,,,,,,,,,,,,,,,,,,,,,,,,,,,,,,,,,,,,,,,,,,,,,,,,,,,,,,,,2680.8627852997743,None,,,,,,,,,,,,,,,,,2678.8609751998447,None,,,,,,,,,,,,,,,,,,,,,,,,,,,,,,,,,,,,,,,,,,,,,,,,,,,,,,,,26YB,001,2023_Mar_22_1745,ExactRep-v3-final,2021.2.3,59.951103870284015,
,,,,9,0,9,0,,,,,,,,,,,,,,,,,,,,,,,,,,,,,,,,,,,,,,,,,,,,,,,,,,,,,,,,,2683.3654465000145,None,,,,,,,,,,,,,,,,,2681.3636269997805,None,,,,,,,,,,,,,,,,,,,,,,,,,,,,,,,,,,,,,,,,,,,,,,,,,,,,,,,,26YB,001,2023_Mar_22_1745,ExactRep-v3-final,2021.2.3,59.951103870284015,
,,,,10,0,10,0,,,,,,,,,,,,,,,,,,,,,,,,,,,,,,,,,,,,,,,,,,,,,,,,,,,,,,,,,2685.868029799778,None,,,,,,,,,,,,,,,,,2683.866002299823,None,,,,,,,,,,,,,,,,,,,,,,,,,,,,,,,,,,,,,,,,,,,,,,,,,,,,,,,,26YB,001,2023_Mar_22_1745,ExactRep-v3-final,2021.2.3,59.951103870284015,
,,,,11,0,11,0,,,,,,,,,,,,,,,,,,,,,,,,,,,,,,,,,,,,,,,,,,,,,,,,,,,,,,,,,2688.370508099906,None,,,,,,,,,,,,,,,,,2686.3685376998037,None,,,,,,,,,,,,,,,,,,,,,,,,,,,,,,,,,,,,,,,,,,,,,,,,,,,,,,,,26YB,001,2023_Mar_22_1745,ExactRep-v3-final,2021.2.3,59.951103870284015,
,,,,12,0,12,0,,,,,,,,,,,,,,,,,,,,,,,,,,,,,,,,,,,,,,,,,,,,,,,,,,,,,,,,,2690.8729437999427,None,,,,,,,,,,,,,,,,,2688.8708389000967,None,,,,,,,,,,,,,,,,,,,,,,,,,,,,,,,,,,,,,,,,,,,,,,,,,,,,,,,,26YB,001,2023_Mar_22_1745,ExactRep-v3-final,2021.2.3,59.951103870284015,
,,,,13,0,13,0,,,,,,,,,,,,,,,,,,,,,,,,,,,,,,,,,,,,,,,,,,,,,,,,,,,,,,,,,2693.3754273001105,None,,,,,,,,,,,,,,,,,2691.373448899947,None,,,,,,,,,,,,,,,,,,,,,,,,,,,,,,,,,,,,,,,,,,,,,,,,,,,,,,,,26YB,001,2023_Mar_22_1745,ExactRep-v3-final,2021.2.3,59.951103870284015,
,,,,14,0,14,0,,,,,,,,,,,,,,,,,,,,,,,,,,,,,,,,,,,,,,,,,,,,,,,,,,,,,,,,,2695.8779343999922,None,,,,,,,,,,,,,,,,,2693.875965899788,None,,,,,,,,,,,,,,,,,,,,,,,,,,,,,,,,,,,,,,,,,,,,,,,,,,,,,,,,26YB,001,2023_Mar_22_1745,ExactRep-v3-final,2021.2.3,59.951103870284015,
,,,,,,,,,,,,,,,,,,,,,,,,,,,,,,,,,,,,,,,,,,,,,,,,,,,,,,,,,,,,,,,,,,,,,,,,,,,,,,,,,,,,space,31.602724500000477,2706.4687097999267,None,,,,,,,,,,,,,,,,,,,,,,,,,,,,,,,,,,,,,,,,,,,,,,,,,,,,26YB,001,2023_Mar_22_1745,ExactRep-v3-final,2021.2.3,59.951103870284015,
,,,,,,,,0,0,0,0,,,,,,,,,,,,,,,,,,,,,,,,,,,,,,,,,,,,,,,,,,,,,,,,,,,,,2740.172052899841,None,,,,,,,,,,,,,,,,,,,,,,,2696.5278338999487,None,2696.5278338999487,None,2696.5278338999487,None,2696.5278338999487,None,2696.5278338999487,None,2696.5278338999487,None,colony,44,1,silent,white,2738.165208199993,None,None,2738.165208199993,None,,,,,,,,,,,,,,,,,,,,,,,,,,,,,,26YB,001,2023_Mar_22_1745,ExactRep-v3-final,2021.2.3,59.951103870284015,
,,,,,,,,1,0,1,0,,,,,,,,,,,,,,,,,,,,,,,,,,,,,,,,,,,,,,,,,,,,,,,,,,,,,2742.6748135997914,None,,,,,,,,,,,,,,,,,,,,,,,,,,,,,,,,,,,science,92,2,aloud,red,2740.672896400094,None,None,2740.672896400094,None,,,,,,,,,,,,,,,,,,,,,,,,,,,,,,26YB,001,2023_Mar_22_1745,ExactRep-v3-final,2021.2.3,59.951103870284015,
,,,,,,,,2,0,2,0,,,,,,,,,,,,,,,,,,,,,,,,,,,,,,,,,,,,,,,,,,,,,,,,,,,,,2745.1939872000366,None,,,,,,,,,,,,,,,,,,,,,,,,,,,,,,,,,,,friend,87,3,aloud,red,2743.1871036998928,None,None,2743.1871036998928,None,,,,,,,,,,,,,,,,,,,,,,,,,,,,,,26YB,001,2023_Mar_22_1745,ExactRep-v3-final,2021.2.3,59.951103870284015,
,,,,,,,,3,0,3,0,,,,,,,,,,,,,,,,,,,,,,,,,,,,,,,,,,,,,,,,,,,,,,,,,,,,,2747.7131211999804,None,,,,,,,,,,,,,,,,,,,,,,,,,,,,,,,,,,,hall,26,4,sing,blue,2745.7029948998243,None,None,2745.7029948998243,None,,,,,,,,,,,,,,,,,,,,,,,,,,,,,,26YB,001,2023_Mar_22_1745,ExactRep-v3-final,2021.2.3,59.951103870284015,
,,,,,,,,4,0,4,0,,,,,,,,,,,,,,,,,,,,,,,,,,,,,,,,,,,,,,,,,,,,,,,,,,,,,2750.2321156999096,None,,,,,,,,,,,,,,,,,,,,,,,,,,,,,,,,,,,dress,60,5,silent,white,2748.217519499827,None,None,2748.217519499827,None,,,,,,,,,,,,,,,,,,,,,,,,,,,,,,26YB,001,2023_Mar_22_1745,ExactRep-v3-final,2021.2.3,59.951103870284015,
,,,,,,,,5,0,5,0,,,,,,,,,,,,,,,,,,,,,,,,,,,,,,,,,,,,,,,,,,,,,,,,,,,,,2752.734817299992,None,,,,,,,,,,,,,,,,,,,,,,,,,,,,,,,,,,,tool,71,6,silent,white,2750.7326426999643,None,None,2750.7326426999643,None,,,,,,,,,,,,,,,,,,,,,,,,,,,,,,26YB,001,2023_Mar_22_1745,ExactRep-v3-final,2021.2.3,59.951103870284015,
,,,,,,,,6,0,6,0,,,,,,,,,,,,,,,,,,,,,,,,,,,,,,,,,,,,,,,,,,,,,,,,,,,,,2755.2539695999585,None,,,,,,,,,,,,,,,,,,,,,,,,,,,,,,,,,,,owner,77,7,silent,white,2753.2384571000002,None,None,2753.2384571000002,None,,,,,,,,,,,,,,,,,,,,,,,,,,,,,,26YB,001,2023_Mar_22_1745,ExactRep-v3-final,2021.2.3,59.951103870284015,
,,,,,,,,7,0,7,0,,,,,,,,,,,,,,,,,,,,,,,,,,,,,,,,,,,,,,,,,,,,,,,,,,,,,2757.7732418999076,None,,,,,,,,,,,,,,,,,,,,,,,,,,,,,,,,,,,devil,58,8,silent,white,2755.7617905000225,None,None,2755.7617905000225,None,,,,,,,,,,,,,,,,,,,,,,,,,,,,,,26YB,001,2023_Mar_22_1745,ExactRep-v3-final,2021.2.3,59.951103870284015,
,,,,,,,,8,0,8,0,,,,,,,,,,,,,,,,,,,,,,,,,,,,,,,,,,,,,,,,,,,,,,,,,,,,,2760.2922212998383,None,,,,,,,,,,,,,,,,,,,,,,,,,,,,,,,,,,,village,91,9,aloud,red,2758.2805149997585,None,None,2758.2805149997585,None,,,,,,,,,,,,,,,,,,,,,,,,,,,,,,26YB,001,2023_Mar_22_1745,ExactRep-v3-final,2021.2.3,59.951103870284015,
,,,,,,,,9,0,9,0,,,,,,,,,,,,,,,,,,,,,,,,,,,,,,,,,,,,,,,,,,,,,,,,,,,,,2762.7947606998496,None,,,,,,,,,,,,,,,,,,,,,,,,,,,,,,,,,,,pride,99,10,aloud,red,2760.795535299927,None,None,2760.795535299927,None,,,,,,,,,,,,,,,,,,,,,,,,,,,,,,26YB,001,2023_Mar_22_1745,ExactRep-v3-final,2021.2.3,59.951103870284015,
,,,,,,,,10,0,10,0,,,,,,,,,,,,,,,,,,,,,,,,,,,,,,,,,,,,,,,,,,,,,,,,,,,,,2765.3140879999846,None,,,,,,,,,,,,,,,,,,,,,,,,,,,,,,,,,,,rock,33,11,sing,blue,2763.30007989984,None,None,2763.30007989984,None,,,,,,,,,,,,,,,,,,,,,,,,,,,,,,26YB,001,2023_Mar_22_1745,ExactRep-v3-final,2021.2.3,59.951103870284015,
,,,,,,,,11,0,11,0,,,,,,,,,,,,,,,,,,,,,,,,,,,,,,,,,,,,,,,,,,,,,,,,,,,,,2767.816552199889,None,,,,,,,,,,,,,,,,,,,,,,,,,,,,,,,,,,,pupil,93,12,aloud,red,2765.814562099986,None,None,2765.814562099986,None,,,,,,,,,,,,,,,,,,,,,,,,,,,,,,26YB,001,2023_Mar_22_1745,ExactRep-v3-final,2021.2.3,59.951103870284015,
,,,,,,,,12,0,12,0,,,,,,,,,,,,,,,,,,,,,,,,,,,,,,,,,,,,,,,,,,,,,,,,,,,,,2770.3187382998876,None,,,,,,,,,,,,,,,,,,,,,,,,,,,,,,,,,,,window,109,13,aloud,red,2768.319611799903,None,None,2768.319611799903,None,,,,,,,,,,,,,,,,,,,,,,,,,,,,,,26YB,001,2023_Mar_22_1745,ExactRep-v3-final,2021.2.3,59.951103870284015,
,,,,,,,,13,0,13,0,,,,,,,,,,,,,,,,,,,,,,,,,,,,,,,,,,,,,,,,,,,,,,,,,,,,,2772.8392516998574,None,,,,,,,,,,,,,,,,,,,,,,,,,,,,,,,,,,,mother,78,14,silent,white,2770.83511229977,None,None,2770.83511229977,None,,,,,,,,,,,,,,,,,,,,,,,,,,,,,,26YB,001,2023_Mar_22_1745,ExactRep-v3-final,2021.2.3,59.951103870284015,
,,,,,,,,14,0,14,0,,,,,,,,,,,,,,,,,,,,,,,,,,,,,,,,,,,,,,,,,,,,,,,,,,,,,2775.340776800178,None,,,,,,,,,,,,,,,,,,,,,,,,,,,,,,,,,,,coffee,69,15,silent,white,2773.3392432997935,None,None,2773.3392432997935,None,,,,,,,,,,,,,,,,,,,,,,,,,,,,,,26YB,001,2023_Mar_22_1745,ExactRep-v3-final,2021.2.3,59.951103870284015,
,,,,,,,,15,0,15,0,,,,,,,,,,,,,,,,,,,,,,,,,,,,,,,,,,,,,,,,,,,,,,,,,,,,,2777.860001400113,None,,,,,,,,,,,,,,,,,,,,,,,,,,,,,,,,,,,table,64,16,silent,white,2775.84435810009,None,None,2775.84435810009,None,,,,,,,,,,,,,,,,,,,,,,,,,,,,,,26YB,001,2023_Mar_22_1745,ExactRep-v3-final,2021.2.3,59.951103870284015,
,,,,,,,,16,0,16,0,,,,,,,,,,,,,,,,,,,,,,,,,,,,,,,,,,,,,,,,,,,,,,,,,,,,,2780.362203499768,None,,,,,,,,,,,,,,,,,,,,,,,,,,,,,,,,,,,apple,23,17,sing,blue,2778.360119899735,None,None,2778.360119899735,None,,,,,,,,,,,,,,,,,,,,,,,,,,,,,,26YB,001,2023_Mar_22_1745,ExactRep-v3-final,2021.2.3,59.951103870284015,
,,,,,,,,17,0,17,0,,,,,,,,,,,,,,,,,,,,,,,,,,,,,,,,,,,,,,,,,,,,,,,,,,,,,2782.88179650018,None,,,,,,,,,,,,,,,,,,,,,,,,,,,,,,,,,,,student,11,18,sing,blue,2780.8661031997763,None,None,2780.8661031997763,None,,,,,,,,,,,,,,,,,,,,,,,,,,,,,,26YB,001,2023_Mar_22_1745,ExactRep-v3-final,2021.2.3,59.951103870284015,
,,,,,,,,18,0,18,0,,,,,,,,,,,,,,,,,,,,,,,,,,,,,,,,,,,,,,,,,,,,,,,,,,,,,2785.3842107998207,None,,,,,,,,,,,,,,,,,,,,,,,,,,,,,,,,,,,flesh,19,19,sing,blue,2783.383382599801,None,None,2783.383382599801,None,,,,,,,,,,,,,,,,,,,,,,,,,,,,,,26YB,001,2023_Mar_22_1745,ExactRep-v3-final,2021.2.3,59.951103870284015,
,,,,,,,,19,0,19,0,,,,,,,,,,,,,,,,,,,,,,,,,,,,,,,,,,,,,,,,,,,,,,,,,,,,,2787.903277799953,None,,,,,,,,,,,,,,,,,,,,,,,,,,,,,,,,,,,breast,70,20,silent,white,2785.8892107000574,None,None,2785.8892107000574,None,,,,,,,,,,,,,,,,,,,,,,,,,,,,,,26YB,001,2023_Mar_22_1745,ExactRep-v3-final,2021.2.3,59.951103870284015,
,,,,,,,,20,0,20,0,,,,,,,,,,,,,,,,,,,,,,,,,,,,,,,,,,,,,,,,,,,,,,,,,,,,,2790.405813700054,None,,,,,,,,,,,,,,,,,,,,,,,,,,,,,,,,,,,victory,27,21,sing,blue,2788.405411900021,None,None,2788.405411900021,None,,,,,,,,,,,,,,,,,,,,,,,,,,,,,,26YB,001,2023_Mar_22_1745,ExactRep-v3-final,2021.2.3,59.951103870284015,
,,,,,,,,21,0,21,0,,,,,,,,,,,,,,,,,,,,,,,,,,,,,,,,,,,,,,,,,,,,,,,,,,,,,2792.925550200045,None,,,,,,,,,,,,,,,,,,,,,,,,,,,,,,,,,,,passion,94,22,aloud,red,2790.910274699796,None,None,2790.910274699796,None,,,,,,,,,,,,,,,,,,,,,,,,,,,,,,26YB,001,2023_Mar_22_1745,ExactRep-v3-final,2021.2.3,59.951103870284015,
,,,,,,,,22,0,22,0,,,,,,,,,,,,,,,,,,,,,,,,,,,,,,,,,,,,,,,,,,,,,,,,,,,,,2795.444170500152,None,,,,,,,,,,,,,,,,,,,,,,,,,,,,,,,,,,,child,22,23,sing,blue,2793.4354424998164,None,None,2793.4354424998164,None,,,,,,,,,,,,,,,,,,,,,,,,,,,,,,26YB,001,2023_Mar_22_1745,ExactRep-v3-final,2021.2.3,59.951103870284015,
,,,,,,,,23,0,23,0,,,,,,,,,,,,,,,,,,,,,,,,,,,,,,,,,,,,,,,,,,,,,,,,,,,,,2797.964156100061,None,,,,,,,,,,,,,,,,,,,,,,,,,,,,,,,,,,,garden,66,24,silent,white,2795.949641000014,None,None,2795.949641000014,None,,,,,,,,,,,,,,,,,,,,,,,,,,,,,,26YB,001,2023_Mar_22_1745,ExactRep-v3-final,2021.2.3,59.951103870284015,
,,,,,,,,24,0,24,0,,,,,,,,,,,,,,,,,,,,,,,,,,,,,,,,,,,,,,,,,,,,,,,,,,,,,2800.465876100119,None,,,,,,,,,,,,,,,,,,,,,,,,,,,,,,,,,,,gift,5,25,sing,blue,2798.4637194001116,None,None,2798.4637194001116,None,,,,,,,,,,,,,,,,,,,,,,,,,,,,,,26YB,001,2023_Mar_22_1745,ExactRep-v3-final,2021.2.3,59.951103870284015,
,,,,,,,,25,0,25,0,,,,,,,,,,,,,,,,,,,,,,,,,,,,,,,,,,,,,,,,,,,,,,,,,,,,,2802.9848716999404,None,,,,,,,,,,,,,,,,,,,,,,,,,,,,,,,,,,,beast,17,26,sing,blue,2800.9707889999263,None,None,2800.9707889999263,None,,,,,,,,,,,,,,,,,,,,,,,,,,,,,,26YB,001,2023_Mar_22_1745,ExactRep-v3-final,2021.2.3,59.951103870284015,
,,,,,,,,26,0,26,0,,,,,,,,,,,,,,,,,,,,,,,,,,,,,,,,,,,,,,,,,,,,,,,,,,,,,2805.4876648001373,None,,,,,,,,,,,,,,,,,,,,,,,,,,,,,,,,,,,method,79,27,sing,blue,2803.4856813000515,None,None,2803.4856813000515,None,,,,,,,,,,,,,,,,,,,,,,,,,,,,,,26YB,001,2023_Mar_22_1745,ExactRep-v3-final,2021.2.3,59.951103870284015,
,,,,,,,,27,0,27,0,,,,,,,,,,,,,,,,,,,,,,,,,,,,,,,,,,,,,,,,,,,,,,,,,,,,,2807.989767699968,None,,,,,,,,,,,,,,,,,,,,,,,,,,,,,,,,,,,seat,31,28,sing,blue,2805.9902483997867,None,None,2805.9902483997867,None,,,,,,,,,,,,,,,,,,,,,,,,,,,,,,26YB,001,2023_Mar_22_1745,ExactRep-v3-final,2021.2.3,59.951103870284015,
,,,,,,,,28,0,28,0,,,,,,,,,,,,,,,,,,,,,,,,,,,,,,,,,,,,,,,,,,,,,,,,,,,,,2810.5092366999015,None,,,,,,,,,,,,,,,,,,,,,,,,,,,,,,,,,,,cost,1,29,sing,blue,2808.4976830999367,None,None,2808.4976830999367,None,,,,,,,,,,,,,,,,,,,,,,,,,,,,,,26YB,001,2023_Mar_22_1745,ExactRep-v3-final,2021.2.3,59.951103870284015,
,,,,,,,,29,0,29,0,,,,,,,,,,,,,,,,,,,,,,,,,,,,,,,,,,,,,,,,,,,,,,,,,,,,,2813.0117652998306,None,,,,,,,,,,,,,,,,,,,,,,,,,,,,,,,,,,,memory,72,30,silent,white,2811.012392700184,None,None,2811.012392700184,None,,,,,,,,,,,,,,,,,,,,,,,,,,,,,,26YB,001,2023_Mar_22_1745,ExactRep-v3-final,2021.2.3,59.951103870284015,
,,,,,,,,30,0,30,0,,,,,,,,,,,,,,,,,,,,,,,,,,,,,,,,,,,,,,,,,,,,,,,,,,,,,2815.5309954998083,None,,,,,,,,,,,,,,,,,,,,,,,,,,,,,,,,,,,power,3,31,sing,blue,2813.5177229000255,None,None,2813.5177229000255,None,,,,,,,,,,,,,,,,,,,,,,,,,,,,,,26YB,001,2023_Mar_22_1745,ExactRep-v3-final,2021.2.3,59.951103870284015,
,,,,,,,,31,0,31,0,,,,,,,,,,,,,,,,,,,,,,,,,,,,,,,,,,,,,,,,,,,,,,,,,,,,,2818.0334537001327,None,,,,,,,,,,,,,,,,,,,,,,,,,,,,,,,,,,,pole,52,32,silent,white,2816.0342820999213,None,None,2816.0342820999213,None,,,,,,,,,,,,,,,,,,,,,,,,,,,,,,26YB,001,2023_Mar_22_1745,ExactRep-v3-final,2021.2.3,59.951103870284015,
,,,,,,,,32,0,32,0,,,,,,,,,,,,,,,,,,,,,,,,,,,,,,,,,,,,,,,,,,,,,,,,,,,,,2820.552714199759,None,,,,,,,,,,,,,,,,,,,,,,,,,,,,,,,,,,,slave,30,33,sing,blue,2818.537567100022,None,None,2818.537567100022,None,,,,,,,,,,,,,,,,,,,,,,,,,,,,,,26YB,001,2023_Mar_22_1745,ExactRep-v3-final,2021.2.3,59.951103870284015,
,,,,,,,,33,0,33,0,,,,,,,,,,,,,,,,,,,,,,,,,,,,,,,,,,,,,,,,,,,,,,,,,,,,,2823.0718013001606,None,,,,,,,,,,,,,,,,,,,,,,,,,,,,,,,,,,,cabin,74,34,silent,white,2821.063021000009,None,None,2821.063021000009,None,,,,,,,,,,,,,,,,,,,,,,,,,,,,,,26YB,001,2023_Mar_22_1745,ExactRep-v3-final,2021.2.3,59.951103870284015,
,,,,,,,,34,0,34,0,,,,,,,,,,,,,,,,,,,,,,,,,,,,,,,,,,,,,,,,,,,,,,,,,,,,,2825.5742966001853,None,,,,,,,,,,,,,,,,,,,,,,,,,,,,,,,,,,,shadow,49,35,silent,white,2823.5732204001397,None,None,2823.5732204001397,None,,,,,,,,,,,,,,,,,,,,,,,,,,,,,,26YB,001,2023_Mar_22_1745,ExactRep-v3-final,2021.2.3,59.951103870284015,
,,,,,,,,35,0,35,0,,,,,,,,,,,,,,,,,,,,,,,,,,,,,,,,,,,,,,,,,,,,,,,,,,,,,2828.093314900063,None,,,,,,,,,,,,,,,,,,,,,,,,,,,,,,,,,,,string,86,36,aloud,red,2826.08230060013,None,None,2826.08230060013,None,,,,,,,,,,,,,,,,,,,,,,,,,,,,,,26YB,001,2023_Mar_22_1745,ExactRep-v3-final,2021.2.3,59.951103870284015,
,,,,,,,,36,0,36,0,,,,,,,,,,,,,,,,,,,,,,,,,,,,,,,,,,,,,,,,,,,,,,,,,,,,,2830.596028099768,None,,,,,,,,,,,,,,,,,,,,,,,,,,,,,,,,,,,person,56,37,silent,white,2828.594013299793,None,None,2828.594013299793,None,,,,,,,,,,,,,,,,,,,,,,,,,,,,,,26YB,001,2023_Mar_22_1745,ExactRep-v3-final,2021.2.3,59.951103870284015,
,,,,,,,,37,0,37,0,,,,,,,,,,,,,,,,,,,,,,,,,,,,,,,,,,,,,,,,,,,,,,,,,,,,,2833.098338100128,None,,,,,,,,,,,,,,,,,,,,,,,,,,,,,,,,,,,lip,8,38,sing,blue,2831.099164799787,None,None,2831.099164799787,None,,,,,,,,,,,,,,,,,,,,,,,,,,,,,,26YB,001,2023_Mar_22_1745,ExactRep-v3-final,2021.2.3,59.951103870284015,
,,,,,,,,38,0,38,0,,,,,,,,,,,,,,,,,,,,,,,,,,,,,,,,,,,,,,,,,,,,,,,,,,,,,2835.617690499872,None,,,,,,,,,,,,,,,,,,,,,,,,,,,,,,,,,,,library,59,39,silent,white,2833.6024060999043,None,None,2833.6024060999043,None,,,,,,,,,,,,,,,,,,,,,,,,,,,,,,26YB,001,2023_Mar_22_1745,ExactRep-v3-final,2021.2.3,59.951103870284015,
,,,,,,,,39,0,39,0,,,,,,,,,,,,,,,,,,,,,,,,,,,,,,,,,,,,,,,,,,,,,,,,,,,,,2838.1200036997907,None,,,,,,,,,,,,,,,,,,,,,,,,,,,,,,,,,,,hour,21,40,sing,blue,2836.1188368997537,None,None,2836.1188368997537,None,,,,,,,,,,,,,,,,,,,,,,,,,,,,,,26YB,001,2023_Mar_22_1745,ExactRep-v3-final,2021.2.3,59.951103870284015,
,,,,,,,,40,0,40,0,,,,,,,,,,,,,,,,,,,,,,,,,,,,,,,,,,,,,,,,,,,,,,,,,,,,,2840.6396069000475,None,,,,,,,,,,,,,,,,,,,,,,,,,,,,,,,,,,,chief,88,41,aloud,red,2838.625127799809,None,None,2838.625127799809,None,,,,,,,,,,,,,,,,,,,,,,,,,,,,,,26YB,001,2023_Mar_22_1745,ExactRep-v3-final,2021.2.3,59.951103870284015,
,,,,,,,,41,0,41,0,,,,,,,,,,,,,,,,,,,,,,,,,,,,,,,,,,,,,,,,,,,,,,,,,,,,,2843.141944900155,None,,,,,,,,,,,,,,,,,,,,,,,,,,,,,,,,,,,corner,25,42,sing,blue,2841.1401423998177,None,None,2841.1401423998177,None,,,,,,,,,,,,,,,,,,,,,,,,,,,,,,26YB,001,2023_Mar_22_1745,ExactRep-v3-final,2021.2.3,59.951103870284015,
,,,,,,,,42,0,42,0,,,,,,,,,,,,,,,,,,,,,,,,,,,,,,,,,,,,,,,,,,,,,,,,,,,,,2845.6608966998756,None,,,,,,,,,,,,,,,,,,,,,,,,,,,,,,,,,,,master,6,43,sing,blue,2843.65366789978,None,None,2843.65366789978,None,,,,,,,,,,,,,,,,,,,,,,,,,,,,,,26YB,001,2023_Mar_22_1745,ExactRep-v3-final,2021.2.3,59.951103870284015,
,,,,,,,,43,0,43,0,,,,,,,,,,,,,,,,,,,,,,,,,,,,,,,,,,,,,,,,,,,,,,,,,,,,,2848.1636244999245,None,,,,,,,,,,,,,,,,,,,,,,,,,,,,,,,,,,,king,29,44,sing,blue,2846.161410300061,None,None,2846.161410300061,None,,,,,,,,,,,,,,,,,,,,,,,,,,,,,,26YB,001,2023_Mar_22_1745,ExactRep-v3-final,2021.2.3,59.951103870284015,
,,,,,,,,44,0,44,0,,,,,,,,,,,,,,,,,,,,,,,,,,,,,,,,,,,,,,,,,,,,,,,,,,,,,2850.682619200088,None,,,,,,,,,,,,,,,,,,,,,,,,,,,,,,,,,,,quality,85,45,aloud,red,2848.677531399764,None,None,2848.677531399764,None,,,,,,,,,,,,,,,,,,,,,,,,,,,,,,26YB,001,2023_Mar_22_1745,ExactRep-v3-final,2021.2.3,59.951103870284015,
,,,,,,,,45,0,45,0,,,,,,,,,,,,,,,,,,,,,,,,,,,,,,,,,,,,,,,,,,,,,,,,,,,,,2853.185339599848,None,,,,,,,,,,,,,,,,,,,,,,,,,,,,,,,,,,,moral,68,46,silent,white,2851.183231699746,None,None,2851.183231699746,None,,,,,,,,,,,,,,,,,,,,,,,,,,,,,,26YB,001,2023_Mar_22_1745,ExactRep-v3-final,2021.2.3,59.951103870284015,
,,,,,,,,46,0,46,0,,,,,,,,,,,,,,,,,,,,,,,,,,,,,,,,,,,,,,,,,,,,,,,,,,,,,2855.704542600084,None,,,,,,,,,,,,,,,,,,,,,,,,,,,,,,,,,,,woods,38,47,sing,blue,2853.689314499963,None,None,2853.689314499963,None,,,,,,,,,,,,,,,,,,,,,,,,,,,,,,26YB,001,2023_Mar_22_1745,ExactRep-v3-final,2021.2.3,59.951103870284015,
,,,,,,,,47,0,47,0,,,,,,,,,,,,,,,,,,,,,,,,,,,,,,,,,,,,,,,,,,,,,,,,,,,,,2858.206958499737,None,,,,,,,,,,,,,,,,,,,,,,,,,,,,,,,,,,,virtue,117,48,aloud,red,2856.204936500173,None,None,2856.204936500173,None,,,,,,,,,,,,,,,,,,,,,,,,,,,,,,26YB,001,2023_Mar_22_1745,ExactRep-v3-final,2021.2.3,59.951103870284015,
,,,,,,,,48,0,48,0,,,,,,,,,,,,,,,,,,,,,,,,,,,,,,,,,,,,,,,,,,,,,,,,,,,,,2860.7261692998,None,,,,,,,,,,,,,,,,,,,,,,,,,,,,,,,,,,,flower,4,49,sing,blue,2858.711995900143,None,None,2858.711995900143,None,,,,,,,,,,,,,,,,,,,,,,,,,,,,,,26YB,001,2023_Mar_22_1745,ExactRep-v3-final,2021.2.3,59.951103870284015,
,,,,,,,,49,0,49,0,,,,,,,,,,,,,,,,,,,,,,,,,,,,,,,,,,,,,,,,,,,,,,,,,,,,,2863.2453296999447,None,,,,,,,,,,,,,,,,,,,,,,,,,,,,,,,,,,,mercy,13,50,sing,blue,2861.2355236001313,None,None,2861.2355236001313,None,,,,,,,,,,,,,,,,,,,,,,,,,,,,,,26YB,001,2023_Mar_22_1745,ExactRep-v3-final,2021.2.3,59.951103870284015,
,,,,,,,,50,0,50,0,,,,,,,,,,,,,,,,,,,,,,,,,,,,,,,,,,,,,,,,,,,,,,,,,,,,,2865.7476886999793,None,,,,,,,,,,,,,,,,,,,,,,,,,,,,,,,,,,,market,15,51,sing,blue,2863.745685500093,None,None,2863.745685500093,None,,,,,,,,,,,,,,,,,,,,,,,,,,,,,,26YB,001,2023_Mar_22_1745,ExactRep-v3-final,2021.2.3,59.951103870284015,
,,,,,,,,51,0,51,0,,,,,,,,,,,,,,,,,,,,,,,,,,,,,,,,,,,,,,,,,,,,,,,,,,,,,2868.2500036000274,None,,,,,,,,,,,,,,,,,,,,,,,,,,,,,,,,,,,love,108,52,aloud,red,2866.248186599929,None,None,2866.248186599929,None,,,,,,,,,,,,,,,,,,,,,,,,,,,,,,26YB,001,2023_Mar_22_1745,ExactRep-v3-final,2021.2.3,59.951103870284015,
,,,,,,,,52,0,52,0,,,,,,,,,,,,,,,,,,,,,,,,,,,,,,,,,,,,,,,,,,,,,,,,,,,,,2870.7693075998686,None,,,,,,,,,,,,,,,,,,,,,,,,,,,,,,,,,,,grass,28,53,sing,blue,2868.754842299968,None,None,2868.754842299968,None,,,,,,,,,,,,,,,,,,,,,,,,,,,,,,26YB,001,2023_Mar_22_1745,ExactRep-v3-final,2021.2.3,59.951103870284015,
,,,,,,,,53,0,53,0,,,,,,,,,,,,,,,,,,,,,,,,,,,,,,,,,,,,,,,,,,,,,,,,,,,,,2873.272166599985,None,,,,,,,,,,,,,,,,,,,,,,,,,,,,,,,,,,,origin,61,54,silent,white,2871.269944100175,None,None,2871.269944100175,None,,,,,,,,,,,,,,,,,,,,,,,,,,,,,,26YB,001,2023_Mar_22_1745,ExactRep-v3-final,2021.2.3,59.951103870284015,
,,,,,,,,54,0,54,0,,,,,,,,,,,,,,,,,,,,,,,,,,,,,,,,,,,,,,,,,,,,,,,,,,,,,2875.7911113998853,None,,,,,,,,,,,,,,,,,,,,,,,,,,,,,,,,,,,world,83,55,aloud,red,2873.780919900164,None,None,2873.780919900164,None,,,,,,,,,,,,,,,,,,,,,,,,,,,,,,26YB,001,2023_Mar_22_1745,ExactRep-v3-final,2021.2.3,59.951103870284015,
,,,,,,,,55,0,55,0,,,,,,,,,,,,,,,,,,,,,,,,,,,,,,,,,,,,,,,,,,,,,,,,,,,,,2878.2935238000937,None,,,,,,,,,,,,,,,,,,,,,,,,,,,,,,,,,,,brain,9,56,sing,blue,2876.2923097000457,None,None,2876.2923097000457,None,,,,,,,,,,,,,,,,,,,,,,,,,,,,,,26YB,001,2023_Mar_22_1745,ExactRep-v3-final,2021.2.3,59.951103870284015,
,,,,,,,,56,0,56,0,,,,,,,,,,,,,,,,,,,,,,,,,,,,,,,,,,,,,,,,,,,,,,,,,,,,,2880.81289270008,None,,,,,,,,,,,,,,,,,,,,,,,,,,,,,,,,,,,house,20,57,sing,blue,2878.8057895000093,None,None,2878.8057895000093,None,,,,,,,,,,,,,,,,,,,,,,,,,,,,,,26YB,001,2023_Mar_22_1745,ExactRep-v3-final,2021.2.3,59.951103870284015,
,,,,,,,,57,0,57,0,,,,,,,,,,,,,,,,,,,,,,,,,,,,,,,,,,,,,,,,,,,,,,,,,,,,,2883.315257499926,None,,,,,,,,,,,,,,,,,,,,,,,,,,,,,,,,,,,rod,65,58,silent,white,2881.3149195997976,None,None,2881.3149195997976,None,,,,,,,,,,,,,,,,,,,,,,,,,,,,,,26YB,001,2023_Mar_22_1745,ExactRep-v3-final,2021.2.3,59.951103870284015,
,,,,,,,,58,0,58,0,,,,,,,,,,,,,,,,,,,,,,,,,,,,,,,,,,,,,,,,,,,,,,,,,,,,,2885.8178142001852,None,,,,,,,,,,,,,,,,,,,,,,,,,,,,,,,,,,,stone,62,59,silent,white,2883.8175531998277,None,None,2883.8175531998277,None,,,,,,,,,,,,,,,,,,,,,,,,,,,,,,26YB,001,2023_Mar_22_1745,ExactRep-v3-final,2021.2.3,59.951103870284015,
,,,,,,,,59,0,59,0,,,,,,,,,,,,,,,,,,,,,,,,,,,,,,,,,,,,,,,,,,,,,,,,,,,,,2888.3370829997584,None,,,,,,,,,,,,,,,,,,,,,,,,,,,,,,,,,,,troops,14,60,sing,blue,2886.3218792001717,None,None,2886.3218792001717,None,,,,,,,,,,,,,,,,,,,,,,,,,,,,,,26YB,001,2023_Mar_22_1745,ExactRep-v3-final,2021.2.3,59.951103870284015,
,,,,,,,,60,0,60,0,,,,,,,,,,,,,,,,,,,,,,,,,,,,,,,,,,,,,,,,,,,,,,,,,,,,,2890.839576699771,None,,,,,,,,,,,,,,,,,,,,,,,,,,,,,,,,,,,humour,89,61,aloud,red,2888.8375705000944,None,None,2888.8375705000944,None,,,,,,,,,,,,,,,,,,,,,,,,,,,,,,26YB,001,2023_Mar_22_1745,ExactRep-v3-final,2021.2.3,59.951103870284015,
,,,,,,,,61,0,61,0,,,,,,,,,,,,,,,,,,,,,,,,,,,,,,,,,,,,,,,,,,,,,,,,,,,,,2893.35860450007,None,,,,,,,,,,,,,,,,,,,,,,,,,,,,,,,,,,,soul,112,62,aloud,red,2891.3451354000717,None,None,2891.3451354000717,None,,,,,,,,,,,,,,,,,,,,,,,,,,,,,,26YB,001,2023_Mar_22_1745,ExactRep-v3-final,2021.2.3,59.951103870284015,
,,,,,,,,62,0,62,0,,,,,,,,,,,,,,,,,,,,,,,,,,,,,,,,,,,,,,,,,,,,,,,,,,,,,2895.8610316999257,None,,,,,,,,,,,,,,,,,,,,,,,,,,,,,,,,,,,sky,118,63,aloud,red,2893.859113499988,None,None,2893.859113499988,None,,,,,,,,,,,,,,,,,,,,,,,,,,,,,,26YB,001,2023_Mar_22_1745,ExactRep-v3-final,2021.2.3,59.951103870284015,
,,,,,,,,63,0,63,0,,,,,,,,,,,,,,,,,,,,,,,,,,,,,,,,,,,,,,,,,,,,,,,,,,,,,2898.3637580000795,None,,,,,,,,,,,,,,,,,,,,,,,,,,,,,,,,,,,kiss,102,64,aloud,red,2896.3617440997623,None,None,2896.3617440997623,None,,,,,,,,,,,,,,,,,,,,,,,,,,,,,,26YB,001,2023_Mar_22_1745,ExactRep-v3-final,2021.2.3,59.951103870284015,
,,,,,,,,64,0,64,0,,,,,,,,,,,,,,,,,,,,,,,,,,,,,,,,,,,,,,,,,,,,,,,,,,,,,2900.882825799752,None,,,,,,,,,,,,,,,,,,,,,,,,,,,,,,,,,,,health,40,65,silent,white,2898.8703251001425,None,None,2898.8703251001425,None,,,,,,,,,,,,,,,,,,,,,,,,,,,,,,26YB,001,2023_Mar_22_1745,ExactRep-v3-final,2021.2.3,59.951103870284015,
,,,,,,,,65,0,65,0,,,,,,,,,,,,,,,,,,,,,,,,,,,,,,,,,,,,,,,,,,,,,,,,,,,,,2903.385535799898,None,,,,,,,,,,,,,,,,,,,,,,,,,,,,,,,,,,,shock,16,66,sing,blue,2901.3832621998154,None,None,2901.3832621998154,None,,,,,,,,,,,,,,,,,,,,,,,,,,,,,,26YB,001,2023_Mar_22_1745,ExactRep-v3-final,2021.2.3,59.951103870284015,
,,,,,,,,66,0,66,0,,,,,,,,,,,,,,,,,,,,,,,,,,,,,,,,,,,,,,,,,,,,,,,,,,,,,2905.90469929995,None,,,,,,,,,,,,,,,,,,,,,,,,,,,,,,,,,,,dollar,111,67,aloud,red,2903.893347499892,None,None,2903.893347499892,None,,,,,,,,,,,,,,,,,,,,,,,,,,,,,,26YB,001,2023_Mar_22_1745,ExactRep-v3-final,2021.2.3,59.951103870284015,
,,,,,,,,67,0,67,0,,,,,,,,,,,,,,,,,,,,,,,,,,,,,,,,,,,,,,,,,,,,,,,,,,,,,2908.406954200007,None,,,,,,,,,,,,,,,,,,,,,,,,,,,,,,,,,,,lad,2,68,sing,blue,2906.406530899927,None,None,2906.406530899927,None,,,,,,,,,,,,,,,,,,,,,,,,,,,,,,26YB,001,2023_Mar_22_1745,ExactRep-v3-final,2021.2.3,59.951103870284015,
,,,,,,,,68,0,68,0,,,,,,,,,,,,,,,,,,,,,,,,,,,,,,,,,,,,,,,,,,,,,,,,,,,,,2910.926203500014,None,,,,,,,,,,,,,,,,,,,,,,,,,,,,,,,,,,,bar,50,69,silent,white,2908.9164327997714,None,None,2908.9164327997714,None,,,,,,,,,,,,,,,,,,,,,,,,,,,,,,26YB,001,2023_Mar_22_1745,ExactRep-v3-final,2021.2.3,59.951103870284015,
,,,,,,,,69,0,69,0,,,,,,,,,,,,,,,,,,,,,,,,,,,,,,,,,,,,,,,,,,,,,,,,,,,,,2913.4288812000304,None,,,,,,,,,,,,,,,,,,,,,,,,,,,,,,,,,,,valley,116,70,aloud,red,2911.4269769997336,None,None,2911.4269769997336,None,,,,,,,,,,,,,,,,,,,,,,,,,,,,,,26YB,001,2023_Mar_22_1745,ExactRep-v3-final,2021.2.3,59.951103870284015,
,,,,,,,,70,0,70,0,,,,,,,,,,,,,,,,,,,,,,,,,,,,,,,,,,,,,,,,,,,,,,,,,,,,,2915.949712499976,None,,,,,,,,,,,,,,,,,,,,,,,,,,,,,,,,,,,death,113,71,aloud,red,2913.933727500029,None,None,2913.933727500029,None,,,,,,,,,,,,,,,,,,,,,,,,,,,,,,26YB,001,2023_Mar_22_1745,ExactRep-v3-final,2021.2.3,59.951103870284015,
,,,,,,,,71,0,71,0,,,,,,,,,,,,,,,,,,,,,,,,,,,,,,,,,,,,,,,,,,,,,,,,,,,,,2918.4503502999432,None,,,,,,,,,,,,,,,,,,,,,,,,,,,,,,,,,,,forest,67,72,silent,white,2916.448381199967,None,None,2916.448381199967,None,,,,,,,,,,,,,,,,,,,,,,,,,,,,,,26YB,001,2023_Mar_22_1745,ExactRep-v3-final,2021.2.3,59.951103870284015,
,,,,,,,,72,0,72,0,,,,,,,,,,,,,,,,,,,,,,,,,,,,,,,,,,,,,,,,,,,,,,,,,,,,,2920.9695166000165,None,,,,,,,,,,,,,,,,,,,,,,,,,,,,,,,,,,,honour,7,73,sing,blue,2918.959869199898,None,None,2918.959869199898,None,,,,,,,,,,,,,,,,,,,,,,,,,,,,,,26YB,001,2023_Mar_22_1745,ExactRep-v3-final,2021.2.3,59.951103870284015,
,,,,,,,,73,0,73,0,,,,,,,,,,,,,,,,,,,,,,,,,,,,,,,,,,,,,,,,,,,,,,,,,,,,,2923.4888928001747,None,,,,,,,,,,,,,,,,,,,,,,,,,,,,,,,,,,,arm,24,74,sing,blue,2921.479904800188,None,None,2921.479904800188,None,,,,,,,,,,,,,,,,,,,,,,,,,,,,,,26YB,001,2023_Mar_22_1745,ExactRep-v3-final,2021.2.3,59.951103870284015,
,,,,,,,,74,0,74,0,,,,,,,,,,,,,,,,,,,,,,,,,,,,,,,,,,,,,,,,,,,,,,,,,,,,,2925.9912739000283,None,,,,,,,,,,,,,,,,,,,,,,,,,,,,,,,,,,,effort,95,75,aloud,red,2923.991457399912,None,None,2923.991457399912,None,,,,,,,,,,,,,,,,,,,,,,,,,,,,,,26YB,001,2023_Mar_22_1745,ExactRep-v3-final,2021.2.3,59.951103870284015,
,,,,,,,,75,0,75,0,,,,,,,,,,,,,,,,,,,,,,,,,,,,,,,,,,,,,,,,,,,,,,,,,,,,,2928.510570600163,None,,,,,,,,,,,,,,,,,,,,,,,,,,,,,,,,,,,shoes,43,76,silent,white,2926.4953013998456,None,None,2926.4953013998456,None,,,,,,,,,,,,,,,,,,,,,,,,,,,,,,26YB,001,2023_Mar_22_1745,ExactRep-v3-final,2021.2.3,59.951103870284015,
,,,,,,,,76,0,76,0,,,,,,,,,,,,,,,,,,,,,,,,,,,,,,,,,,,,,,,,,,,,,,,,,,,,,2931.029697299935,None,,,,,,,,,,,,,,,,,,,,,,,,,,,,,,,,,,,avenue,100,77,aloud,red,2929.015086399857,None,None,2929.015086399857,None,,,,,,,,,,,,,,,,,,,,,,,,,,,,,,26YB,001,2023_Mar_22_1745,ExactRep-v3-final,2021.2.3,59.951103870284015,
,,,,,,,,77,0,77,0,,,,,,,,,,,,,,,,,,,,,,,,,,,,,,,,,,,,,,,,,,,,,,,,,,,,,2933.5338806998916,None,,,,,,,,,,,,,,,,,,,,,,,,,,,,,,,,,,,body,39,78,silent,white,2931.531385099981,None,None,2931.531385099981,None,,,,,,,,,,,,,,,,,,,,,,,,,,,,,,26YB,001,2023_Mar_22_1745,ExactRep-v3-final,2021.2.3,59.951103870284015,
,,,,,,,,78,0,78,0,,,,,,,,,,,,,,,,,,,,,,,,,,,,,,,,,,,,,,,,,,,,,,,,,,,,,2936.05146470014,None,,,,,,,,,,,,,,,,,,,,,,,,,,,,,,,,,,,lord,10,79,sing,blue,2934.040057899896,None,None,2934.040057899896,None,,,,,,,,,,,,,,,,,,,,,,,,,,,,,,26YB,001,2023_Mar_22_1745,ExactRep-v3-final,2021.2.3,59.951103870284015,
,,,,,,,,79,0,79,0,,,,,,,,,,,,,,,,,,,,,,,,,,,,,,,,,,,,,,,,,,,,,,,,,,,,,2938.5708272000775,None,,,,,,,,,,,,,,,,,,,,,,,,,,,,,,,,,,,spirit,47,80,silent,white,2936.5569174000993,None,None,2936.5569174000993,None,,,,,,,,,,,,,,,,,,,,,,,,,,,,,,26YB,001,2023_Mar_22_1745,ExactRep-v3-final,2021.2.3,59.951103870284015,
,,,,,,,,80,0,80,0,,,,,,,,,,,,,,,,,,,,,,,,,,,,,,,,,,,,,,,,,,,,,,,,,,,,,2941.0729967001826,None,,,,,,,,,,,,,,,,,,,,,,,,,,,,,,,,,,,trouble,73,81,silent,white,2939.071946399752,None,None,2939.071946399752,None,,,,,,,,,,,,,,,,,,,,,,,,,,,,,,26YB,001,2023_Mar_22_1745,ExactRep-v3-final,2021.2.3,59.951103870284015,
,,,,,,,,81,0,81,0,,,,,,,,,,,,,,,,,,,,,,,,,,,,,,,,,,,,,,,,,,,,,,,,,,,,,2943.5756763000973,None,,,,,,,,,,,,,,,,,,,,,,,,,,,,,,,,,,,steam,57,82,silent,white,2941.573506999761,None,None,2941.573506999761,None,,,,,,,,,,,,,,,,,,,,,,,,,,,,,,26YB,001,2023_Mar_22_1745,ExactRep-v3-final,2021.2.3,59.951103870284015,
,,,,,,,,82,0,82,0,,,,,,,,,,,,,,,,,,,,,,,,,,,,,,,,,,,,,,,,,,,,,,,,,,,,,2946.0948840999044,None,,,,,,,,,,,,,,,,,,,,,,,,,,,,,,,,,,,ship,107,83,aloud,red,2944.080800499767,None,None,2944.080800499767,None,,,,,,,,,,,,,,,,,,,,,,,,,,,,,,26YB,001,2023_Mar_22_1745,ExactRep-v3-final,2021.2.3,59.951103870284015,
,,,,,,,,83,0,83,0,,,,,,,,,,,,,,,,,,,,,,,,,,,,,,,,,,,,,,,,,,,,,,,,,,,,,2948.614070000127,None,,,,,,,,,,,,,,,,,,,,,,,,,,,,,,,,,,,star,36,84,sing,blue,2946.5987602998503,None,None,2946.5987602998503,None,,,,,,,,,,,,,,,,,,,,,,,,,,,,,,26YB,001,2023_Mar_22_1745,ExactRep-v3-final,2021.2.3,59.951103870284015,
,,,,,,,,84,0,84,0,,,,,,,,,,,,,,,,,,,,,,,,,,,,,,,,,,,,,,,,,,,,,,,,,,,,,2951.11658560019,None,,,,,,,,,,,,,,,,,,,,,,,,,,,,,,,,,,,book,34,85,sing,blue,2949.117497799918,None,None,2949.117497799918,None,,,,,,,,,,,,,,,,,,,,,,,,,,,,,,26YB,001,2023_Mar_22_1745,ExactRep-v3-final,2021.2.3,59.951103870284015,
,,,,,,,,85,0,85,0,,,,,,,,,,,,,,,,,,,,,,,,,,,,,,,,,,,,,,,,,,,,,,,,,,,,,2953.6190913999453,None,,,,,,,,,,,,,,,,,,,,,,,,,,,,,,,,,,,car,104,86,aloud,red,2951.6168180997483,None,None,2951.6168180997483,None,,,,,,,,,,,,,,,,,,,,,,,,,,,,,,26YB,001,2023_Mar_22_1745,ExactRep-v3-final,2021.2.3,59.951103870284015,
,,,,,,,,86,0,86,0,,,,,,,,,,,,,,,,,,,,,,,,,,,,,,,,,,,,,,,,,,,,,,,,,,,,,2956.1382205998525,None,,,,,,,,,,,,,,,,,,,,,,,,,,,,,,,,,,,maiden,76,87,silent,white,2954.1229147999547,None,None,2954.1229147999547,None,,,,,,,,,,,,,,,,,,,,,,,,,,,,,,26YB,001,2023_Mar_22_1745,ExactRep-v3-final,2021.2.3,59.951103870284015,
,,,,,,,,87,0,87,0,,,,,,,,,,,,,,,,,,,,,,,,,,,,,,,,,,,,,,,,,,,,,,,,,,,,,2958.6405507000163,None,,,,,,,,,,,,,,,,,,,,,,,,,,,,,,,,,,,door,41,88,silent,white,2956.6396551001817,None,None,2956.6396551001817,None,,,,,,,,,,,,,,,,,,,,,,,,,,,,,,26YB,001,2023_Mar_22_1745,ExactRep-v3-final,2021.2.3,59.951103870284015,
,,,,,,,,88,0,88,0,,,,,,,,,,,,,,,,,,,,,,,,,,,,,,,,,,,,,,,,,,,,,,,,,,,,,2961.143153999932,None,,,,,,,,,,,,,,,,,,,,,,,,,,,,,,,,,,,nail,90,89,aloud,red,2959.1409184001386,None,None,2959.1409184001386,None,,,,,,,,,,,,,,,,,,,,,,,,,,,,,,26YB,001,2023_Mar_22_1745,ExactRep-v3-final,2021.2.3,59.951103870284015,
,,,,,,,,89,0,89,0,,,,,,,,,,,,,,,,,,,,,,,,,,,,,,,,,,,,,,,,,,,,,,,,,,,,,2963.6622750000097,None,,,,,,,,,,,,,,,,,,,,,,,,,,,,,,,,,,,series,80,90,aloud,red,2961.6594094000757,None,None,2961.6594094000757,None,,,,,,,,,,,,,,,,,,,,,,,,,,,,,,26YB,001,2023_Mar_22_1745,ExactRep-v3-final,2021.2.3,59.951103870284015,
,,,,,,,,90,0,90,0,,,,,,,,,,,,,,,,,,,,,,,,,,,,,,,,,,,,,,,,,,,,,,,,,,,,,2966.1816801000386,None,,,,,,,,,,,,,,,,,,,,,,,,,,,,,,,,,,,excuse,114,91,aloud,red,2964.1680050999857,None,None,2964.1680050999857,None,,,,,,,,,,,,,,,,,,,,,,,,,,,,,,26YB,001,2023_Mar_22_1745,ExactRep-v3-final,2021.2.3,59.951103870284015,
,,,,,,,,91,0,91,0,,,,,,,,,,,,,,,,,,,,,,,,,,,,,,,,,,,,,,,,,,,,,,,,,,,,,2968.6841102000326,None,,,,,,,,,,,,,,,,,,,,,,,,,,,,,,,,,,,clock,32,92,sing,blue,2966.6820760997944,None,None,2966.6820760997944,None,,,,,,,,,,,,,,,,,,,,,,,,,,,,,,26YB,001,2023_Mar_22_1745,ExactRep-v3-final,2021.2.3,59.951103870284015,
,,,,,,,,92,0,92,0,,,,,,,,,,,,,,,,,,,,,,,,,,,,,,,,,,,,,,,,,,,,,,,,,,,,,2971.2034319997765,None,,,,,,,,,,,,,,,,,,,,,,,,,,,,,,,,,,,law,84,93,aloud,red,2969.1883847997524,None,None,2969.1883847997524,None,,,,,,,,,,,,,,,,,,,,,,,,,,,,,,26YB,001,2023_Mar_22_1745,ExactRep-v3-final,2021.2.3,59.951103870284015,
,,,,,,,,93,0,93,0,,,,,,,,,,,,,,,,,,,,,,,,,,,,,,,,,,,,,,,,,,,,,,,,,,,,,2973.705926499795,None,,,,,,,,,,,,,,,,,,,,,,,,,,,,,,,,,,,ability,115,94,aloud,red,2971.703658899758,None,None,2971.703658899758,None,,,,,,,,,,,,,,,,,,,,,,,,,,,,,,26YB,001,2023_Mar_22_1745,ExactRep-v3-final,2021.2.3,59.951103870284015,
,,,,,,,,94,0,94,0,,,,,,,,,,,,,,,,,,,,,,,,,,,,,,,,,,,,,,,,,,,,,,,,,,,,,2976.22499339981,None,,,,,,,,,,,,,,,,,,,,,,,,,,,,,,,,,,,dust,106,95,aloud,red,2974.2164798998274,None,None,2974.2164798998274,None,,,,,,,,,,,,,,,,,,,,,,,,,,,,,,26YB,001,2023_Mar_22_1745,ExactRep-v3-final,2021.2.3,59.951103870284015,
,,,,,,,,95,0,95,0,,,,,,,,,,,,,,,,,,,,,,,,,,,,,,,,,,,,,,,,,,,,,,,,,,,,,2978.7274668999016,None,,,,,,,,,,,,,,,,,,,,,,,,,,,,,,,,,,,fact,48,96,silent,white,2976.725498800166,None,None,2976.725498800166,None,,,,,,,,,,,,,,,,,,,,,,,,,,,,,,26YB,001,2023_Mar_22_1745,ExactRep-v3-final,2021.2.3,59.951103870284015,
,,,,,,,,96,0,96,0,,,,,,,,,,,,,,,,,,,,,,,,,,,,,,,,,,,,,,,,,,,,,,,,,,,,,2981.229862799868,None,,,,,,,,,,,,,,,,,,,,,,,,,,,,,,,,,,,fur,54,97,silent,white,2979.2305410001427,None,None,2979.2305410001427,None,,,,,,,,,,,,,,,,,,,,,,,,,,,,,,26YB,001,2023_Mar_22_1745,ExactRep-v3-final,2021.2.3,59.951103870284015,
,,,,,,,,97,0,97,0,,,,,,,,,,,,,,,,,,,,,,,,,,,,,,,,,,,,,,,,,,,,,,,,,,,,,2983.7491318997927,None,,,,,,,,,,,,,,,,,,,,,,,,,,,,,,,,,,,cattle,97,98,aloud,red,2981.7419881001115,None,None,2981.7419881001115,None,,,,,,,,,,,,,,,,,,,,,,,,,,,,,,26YB,001,2023_Mar_22_1745,ExactRep-v3-final,2021.2.3,59.951103870284015,
,,,,,,,,98,0,98,0,,,,,,,,,,,,,,,,,,,,,,,,,,,,,,,,,,,,,,,,,,,,,,,,,,,,,2986.2517868001014,None,,,,,,,,,,,,,,,,,,,,,,,,,,,,,,,,,,,winter,55,99,silent,white,2984.2501825997606,None,None,2984.2501825997606,None,,,,,,,,,,,,,,,,,,,,,,,,,,,,,,26YB,001,2023_Mar_22_1745,ExactRep-v3-final,2021.2.3,59.951103870284015,
,,,,,,,,99,0,99,0,,,,,,,,,,,,,,,,,,,,,,,,,,,,,,,,,,,,,,,,,,,,,,,,,,,,,2988.770707699936,None,,,,,,,,,,,,,,,,,,,,,,,,,,,,,,,,,,,deed,53,100,silent,white,2986.7605789997615,None,None,2986.7605789997615,None,,,,,,,,,,,,,,,,,,,,,,,,,,,,,,26YB,001,2023_Mar_22_1745,ExactRep-v3-final,2021.2.3,59.951103870284015,
,,,,,,,,100,0,100,0,,,,,,,,,,,,,,,,,,,,,,,,,,,,,,,,,,,,,,,,,,,,,,,,,,,,,2991.273506999947,None,,,,,,,,,,,,,,,,,,,,,,,,,,,,,,,,,,,artist,119,101,aloud,red,2989.2713286001235,None,None,2989.2713286001235,None,,,,,,,,,,,,,,,,,,,,,,,,,,,,,,26YB,001,2023_Mar_22_1745,ExactRep-v3-final,2021.2.3,59.951103870284015,
,,,,,,,,101,0,101,0,,,,,,,,,,,,,,,,,,,,,,,,,,,,,,,,,,,,,,,,,,,,,,,,,,,,,2993.7927043000236,None,,,,,,,,,,,,,,,,,,,,,,,,,,,,,,,,,,,wheat,51,102,silent,white,2991.7777256998233,None,None,2991.7777256998233,None,,,,,,,,,,,,,,,,,,,,,,,,,,,,,,26YB,001,2023_Mar_22_1745,ExactRep-v3-final,2021.2.3,59.951103870284015,
,,,,,,,,102,0,102,0,,,,,,,,,,,,,,,,,,,,,,,,,,,,,,,,,,,,,,,,,,,,,,,,,,,,,2996.3157244999893,None,,,,,,,,,,,,,,,,,,,,,,,,,,,,,,,,,,,truth,105,103,aloud,red,2994.296477600001,None,None,2994.296477600001,None,,,,,,,,,,,,,,,,,,,,,,,,,,,,,,26YB,001,2023_Mar_22_1745,ExactRep-v3-final,2021.2.3,59.951103870284015,
,,,,,,,,103,0,103,0,,,,,,,,,,,,,,,,,,,,,,,,,,,,,,,,,,,,,,,,,,,,,,,,,,,,,2998.8308969000354,None,,,,,,,,,,,,,,,,,,,,,,,,,,,,,,,,,,,justice,101,104,aloud,red,2996.8172524999827,None,None,2996.8172524999827,None,,,,,,,,,,,,,,,,,,,,,,,,,,,,,,26YB,001,2023_Mar_22_1745,ExactRep-v3-final,2021.2.3,59.951103870284015,
,,,,,,,,104,0,104,0,,,,,,,,,,,,,,,,,,,,,,,,,,,,,,,,,,,,,,,,,,,,,,,,,,,,,3001.3333860998973,None,,,,,,,,,,,,,,,,,,,,,,,,,,,,,,,,,,,life,37,105,sing,blue,2999.3314191000536,None,None,2999.3314191000536,None,,,,,,,,,,,,,,,,,,,,,,,,,,,,,,26YB,001,2023_Mar_22_1745,ExactRep-v3-final,2021.2.3,59.951103870284015,
,,,,,,,,105,0,105,0,,,,,,,,,,,,,,,,,,,,,,,,,,,,,,,,,,,,,,,,,,,,,,,,,,,,,3003.835977899842,None,,,,,,,,,,,,,,,,,,,,,,,,,,,,,,,,,,,butter,110,106,aloud,red,3001.8353185998276,None,None,3001.8353185998276,None,,,,,,,,,,,,,,,,,,,,,,,,,,,,,,26YB,001,2023_Mar_22_1745,ExactRep-v3-final,2021.2.3,59.951103870284015,
,,,,,,,,106,0,106,0,,,,,,,,,,,,,,,,,,,,,,,,,,,,,,,,,,,,,,,,,,,,,,,,,,,,,3006.355097599793,None,,,,,,,,,,,,,,,,,,,,,,,,,,,,,,,,,,,doctor,35,107,sing,blue,3004.346429000143,None,None,3004.346429000143,None,,,,,,,,,,,,,,,,,,,,,,,,,,,,,,26YB,001,2023_Mar_22_1745,ExactRep-v3-final,2021.2.3,59.951103870284015,
,,,,,,,,107,0,107,0,,,,,,,,,,,,,,,,,,,,,,,,,,,,,,,,,,,,,,,,,,,,,,,,,,,,,3008.8576019001193,None,,,,,,,,,,,,,,,,,,,,,,,,,,,,,,,,,,,dawn,75,108,silent,white,3006.855593699962,None,None,3006.855593699962,None,,,,,,,,,,,,,,,,,,,,,,,,,,,,,,26YB,001,2023_Mar_22_1745,ExactRep-v3-final,2021.2.3,59.951103870284015,
,,,,,,,,108,0,108,0,,,,,,,,,,,,,,,,,,,,,,,,,,,,,,,,,,,,,,,,,,,,,,,,,,,,,3011.360111599788,None,,,,,,,,,,,,,,,,,,,,,,,,,,,,,,,,,,,money,98,109,aloud,red,3009.359674300067,None,None,3009.359674300067,None,,,,,,,,,,,,,,,,,,,,,,,,,,,,,,26YB,001,2023_Mar_22_1745,ExactRep-v3-final,2021.2.3,59.951103870284015,
,,,,,,,,109,0,109,0,,,,,,,,,,,,,,,,,,,,,,,,,,,,,,,,,,,,,,,,,,,,,,,,,,,,,3013.8800111999735,None,,,,,,,,,,,,,,,,,,,,,,,,,,,,,,,,,,,sea,63,110,silent,white,3011.864204700105,None,None,3011.864204700105,None,,,,,,,,,,,,,,,,,,,,,,,,,,,,,,26YB,001,2023_Mar_22_1745,ExactRep-v3-final,2021.2.3,59.951103870284015,
,,,,,,,,110,0,110,0,,,,,,,,,,,,,,,,,,,,,,,,,,,,,,,,,,,,,,,,,,,,,,,,,,,,,3016.398303099908,None,,,,,,,,,,,,,,,,,,,,,,,,,,,,,,,,,,,storm,42,111,silent,white,3014.3879848001525,None,None,3014.3879848001525,None,,,,,,,,,,,,,,,,,,,,,,,,,,,,,,26YB,001,2023_Mar_22_1745,ExactRep-v3-final,2021.2.3,59.951103870284015,
,,,,,,,,111,0,111,0,,,,,,,,,,,,,,,,,,,,,,,,,,,,,,,,,,,,,,,,,,,,,,,,,,,,,3018.9178038998507,None,,,,,,,,,,,,,,,,,,,,,,,,,,,,,,,,,,,anger,81,112,aloud,red,3016.9038824997842,None,None,3016.9038824997842,None,,,,,,,,,,,,,,,,,,,,,,,,,,,,,,26YB,001,2023_Mar_22_1745,ExactRep-v3-final,2021.2.3,59.951103870284015,
,,,,,,,,112,0,112,0,,,,,,,,,,,,,,,,,,,,,,,,,,,,,,,,,,,,,,,,,,,,,,,,,,,,,3021.420073499903,None,,,,,,,,,,,,,,,,,,,,,,,,,,,,,,,,,,,skin,103,113,aloud,red,3019.4178679999895,None,None,3019.4178679999895,None,,,,,,,,,,,,,,,,,,,,,,,,,,,,,,26YB,001,2023_Mar_22_1745,ExactRep-v3-final,2021.2.3,59.951103870284015,
,,,,,,,,113,0,113,0,,,,,,,,,,,,,,,,,,,,,,,,,,,,,,,,,,,,,,,,,,,,,,,,,,,,,3023.9227579999715,None,,,,,,,,,,,,,,,,,,,,,,,,,,,,,,,,,,,board,82,114,aloud,red,3021.920552200172,None,None,3021.920552200172,None,,,,,,,,,,,,,,,,,,,,,,,,,,,,,,26YB,001,2023_Mar_22_1745,ExactRep-v3-final,2021.2.3,59.951103870284015,
,,,,,,,,114,0,114,0,,,,,,,,,,,,,,,,,,,,,,,,,,,,,,,,,,,,,,,,,,,,,,,,,,,,,3026.424969899934,None,,,,,,,,,,,,,,,,,,,,,,,,,,,,,,,,,,,prison,96,115,aloud,red,3024.4231206001714,None,None,3024.4231206001714,None,,,,,,,,,,,,,,,,,,,,,,,,,,,,,,26YB,001,2023_Mar_22_1745,ExactRep-v3-final,2021.2.3,59.951103870284015,
,,,,,,,,115,0,115,0,,,,,,,,,,,,,,,,,,,,,,,,,,,,,,,,,,,,,,,,,,,,,,,,,,,,,3028.929489799775,None,,,,,,,,,,,,,,,,,,,,,,,,,,,,,,,,,,,cotton,46,116,silent,white,3026.9254978001118,None,None,3026.9254978001118,None,,,,,,,,,,,,,,,,,,,,,,,,,,,,,,26YB,001,2023_Mar_22_1745,ExactRep-v3-final,2021.2.3,59.951103870284015,
,,,,,,,,116,0,116,0,,,,,,,,,,,,,,,,,,,,,,,,,,,,,,,,,,,,,,,,,,,,,,,,,,,,,3031.463403100148,None,,,,,,,,,,,,,,,,,,,,,,,,,,,,,,,,,,,factory,18,117,sing,blue,3029.451445200015,None,None,3029.451445200015,None,,,,,,,,,,,,,,,,,,,,,,,,,,,,,,26YB,001,2023_Mar_22_1745,ExactRep-v3-final,2021.2.3,59.951103870284015,
,,,,,,,,117,0,117,0,,,,,,,,,,,,,,,,,,,,,,,,,,,,,,,,,,,,,,,,,,,,,,,,,,,,,3033.982536499854,None,,,,,,,,,,,,,,,,,,,,,,,,,,,,,,,,,,,plant,12,118,sing,blue,3031.9720016000792,None,None,3031.9720016000792,None,,,,,,,,,,,,,,,,,,,,,,,,,,,,,,26YB,001,2023_Mar_22_1745,ExactRep-v3-final,2021.2.3,59.951103870284015,
,,,,,,,,118,0,118,0,,,,,,,,,,,,,,,,,,,,,,,,,,,,,,,,,,,,,,,,,,,,,,,,,,,,,3036.502009899821,None,,,,,,,,,,,,,,,,,,,,,,,,,,,,,,,,,,,insect,45,119,silent,white,3034.489624999929,None,None,3034.489624999929,None,,,,,,,,,,,,,,,,,,,,,,,,,,,,,,26YB,001,2023_Mar_22_1745,ExactRep-v3-final,2021.2.3,59.951103870284015,
,,,,,,,,119,0,119,0,,,,,,,,,,,,,,,,,,,,,,,,,,,,,,,,,,,,,,,,,,,,,,,,,,,,,3039.020929099992,None,,,,,,,,,,,,,,,,,,,,,,,,,,,,,,,,,,,idea,0,120,sing,blue,3037.0052501000464,None,None,3037.0052501000464,None,,,,,,,,,,,,,,,,,,,,,,,,,,,,,,26YB,001,2023_Mar_22_1745,ExactRep-v3-final,2021.2.3,59.951103870284015,
,,,,,,,,,,,,,,,,,,,,,,,,,,,,,,,,,,,,,,,,,,,,,,,,,,,,,,,,,,,,,,,,,,,,,,,,,,,,,,,,,,,,,,,,,,,,,,,,,,,,,,,,,,,,,,3039.5232822997496,None,space,26.588812900241464,3049.499193099793,None,,,,,,,,,,,,,,,,,,,,,,,,26YB,001,2023_Mar_22_1745,ExactRep-v3-final,2021.2.3,59.951103870284015,
,,,,,,,,,,,,,,,,,,,,,,,,,,,,,,,,,,,,,,,,,,,,,,,,,,,,,,,,,,,,,,,,,,,,,,,,,,,,,,,,,,,,,,,,,,,,,,,,,,,,,,,,,,,,,,,,,,,,3076.109883000143,None,space,28.169834000058472,3086.086259599775,None,,,,,,,,,,,,,,,,,,26YB,001,2023_Mar_22_1745,ExactRep-v3-final,2021.2.3,59.951103870284015,
,,,,,,,,,,,,0,0,0,0,,,,,,,,,,,,,,,,,,,,,,,,,,,,,,,,,,,,,,,,,,,,,,,,,3122.1041107000783,None,,,,,,,,,,,,,,,,,,,,,,,,,,,,,,,,,,,,,,,,,,,,,,,,,,,,,,,,,army,210,1,aloud,new,red,3114.80051810015,None,n,3114.80051810015,None,"['n', 'return']","[5.951351299881935, 7.271410699933767]",3114.80051810015,None,,,26YB,001,2023_Mar_22_1745,ExactRep-v3-final,2021.2.3,59.951103870284015,
,,,,,,,,,,,,1,0,1,0,,,,,,,,,,,,,,,,,,,,,,,,,,,,,,,,,,,,,,,,,,,,,,,,,3125.0736055001616,None,,,,,,,,,,,,,,,,,,,,,,,,,,,,,,,,,,,,,,,,,,,,,,,,,,,,,,,,,diamond,218,2,aloud,new,red,3122.6165995001793,None,n,3122.6165995001793,None,"['n', 'return']","[1.2711265999823809, 2.415293399710208]",3122.6165995001793,None,,,26YB,001,2023_Mar_22_1745,ExactRep-v3-final,2021.2.3,59.951103870284015,
,,,,,,,,,,,,2,0,2,0,,,,,,,,,,,,,,,,,,,,,,,,,,,,,,,,,,,,,,,,,,,,,,,,,3130.1121510998346,None,,,,,,,,,,,,,,,,,,,,,,,,,,,,,,,,,,,,,,,,,,,,,,,,,,,,,,,,,mind,155,3,silent,new,white,3125.5822136998177,None,y,3125.5822136998177,None,"['y', 'return']","[3.065660400316119, 4.4896925003267825]",3125.5822136998177,None,,,26YB,001,2023_Mar_22_1745,ExactRep-v3-final,2021.2.3,59.951103870284015,
,,,,,,,,,,,,3,0,3,0,,,,,,,,,,,,,,,,,,,,,,,,,,,,,,,,,,,,,,,,,,,,,,,,,3133.732283699792,None,,,,,,,,,,,,,,,,,,,,,,,,,,,,,,,,,,,,,,,,,,,,,,,,,,,,,,,,,gift,5,4,sing,old,blue,3130.6211906997487,None,n,3130.6211906997487,None,"['n', 'return']","[1.77865509968251, 3.0747217000462115]",3130.6211906997487,None,,,26YB,001,2023_Mar_22_1745,ExactRep-v3-final,2021.2.3,59.951103870284015,
,,,,,,,,,,,,4,0,4,0,,,,,,,,,,,,,,,,,,,,,,,,,,,,,,,,,,,,,,,,,,,,,,,,,3137.5362140997313,None,,,,,,,,,,,,,,,,,,,,,,,,,,,,,,,,,,,,,,,,,,,,,,,,,,,,,,,,,gold,212,5,aloud,new,red,3134.235524499789,None,n,3134.235524499789,None,"['n', 'return']","[2.164552199654281, 3.260416999924928]",3134.235524499789,None,,,26YB,001,2023_Mar_22_1745,ExactRep-v3-final,2021.2.3,59.951103870284015,
,,,,,,,,,,,,5,0,5,0,,,,,,,,,,,,,,,,,,,,,,,,,,,,,,,,,,,,,,,,,,,,,,,,,3141.52362179989,None,,,,,,,,,,,,,,,,,,,,,,,,,,,,,,,,,,,,,,,,,,,,,,,,,,,,,,,,,devil,58,6,silent,old,white,3138.0443063997664,None,y,3138.0443063997664,None,"['y', 'return']","[2.5478596999309957, 3.435542299877852]",3138.0443063997664,None,,,26YB,001,2023_Mar_22_1745,ExactRep-v3-final,2021.2.3,59.951103870284015,
,,,,,,,,,,,,6,0,6,0,,,,,,,,,,,,,,,,,,,,,,,,,,,,,,,,,,,,,,,,,,,,,,,,,3146.6954175997525,None,,,,,,,,,,,,,,,,,,,,,,,,,,,,,,,,,,,,,,,,,,,,,,,,,,,,,,,,,house,20,7,sing,old,blue,3142.0342553998344,None,y,3142.0342553998344,None,"['y', 'return']","[3.3896230002865195, 4.621652300003916]",3142.0342553998344,None,,,26YB,001,2023_Mar_22_1745,ExactRep-v3-final,2021.2.3,59.951103870284015,
,,,,,,,,,,,,7,0,7,0,,,,,,,,,,,,,,,,,,,,,,,,,,,,,,,,,,,,,,,,,,,,,,,,,3149.8317263000645,None,,,,,,,,,,,,,,,,,,,,,,,,,,,,,,,,,,,,,,,,,,,,,,,,,,,,,,,,,insect,45,8,silent,old,white,3147.204040599987,None,y,3147.204040599987,None,"['y', 'return']","[1.5958262998610735, 2.5879060002043843]",3147.204040599987,None,,,26YB,001,2023_Mar_22_1745,ExactRep-v3-final,2021.2.3,59.951103870284015,
,,,,,,,,,,,,8,0,8,0,,,,,,,,,,,,,,,,,,,,,,,,,,,,,,,,,,,,,,,,,,,,,,,,,3153.4352929000743,None,,,,,,,,,,,,,,,,,,,,,,,,,,,,,,,,,,,,,,,,,,,,,,,,,,,,,,,,,cat,151,9,silent,new,white,3150.3472675997764,None,n,3150.3472675997764,None,"['n', 'return']","[2.0926157999783754, 3.044569400139153]",3150.3472675997764,None,,,26YB,001,2023_Mar_22_1745,ExactRep-v3-final,2021.2.3,59.951103870284015,
,,,,,,,,,,,,9,0,9,0,,,,,,,,,,,,,,,,,,,,,,,,,,,,,,,,,,,,,,,,,,,,,,,,,3160.3756570001133,None,,,,,,,,,,,,,,,,,,,,,,,,,,,,,,,,,,,,,,,,,,,,,,,,,,,,,,,,,method,79,10,sing,old,blue,3153.9465724998154,None,y,3153.9465724998154,None,"['y', 'return']","[3.4932778999209404, 6.381296900101006]",3153.9465724998154,None,,,26YB,001,2023_Mar_22_1745,ExactRep-v3-final,2021.2.3,59.951103870284015,
,,,,,,,,,,,,10,0,10,0,,,,,,,,,,,,,,,,,,,,,,,,,,,,,,,,,,,,,,,,,,,,,,,,,3164.880074799992,None,,,,,,,,,,,,,,,,,,,,,,,,,,,,,,,,,,,,,,,,,,,,,,,,,,,,,,,,,pole,52,11,silent,old,white,3160.87897589989,None,y,3160.87897589989,None,"['y', 'return']","[3.2409124998375773, 3.9689592998474836]",3160.87897589989,None,,,26YB,001,2023_Mar_22_1745,ExactRep-v3-final,2021.2.3,59.951103870284015,
,,,,,,,,,,,,11,0,11,0,,,,,,,,,,,,,,,,,,,,,,,,,,,,,,,,,,,,,,,,,,,,,,,,,3168.433835600037,None,,,,,,,,,,,,,,,,,,,,,,,,,,,,,,,,,,,,,,,,,,,,,,,,,,,,,,,,,volume,209,12,sing,new,blue,3165.3890061001293,None,n,3165.3890061001293,None,"['n', 'return']","[2.1308776000514627, 3.010862300172448]",3165.3890061001293,None,,,26YB,001,2023_Mar_22_1745,ExactRep-v3-final,2021.2.3,59.951103870284015,
,,,,,,,,,,,,12,0,12,0,,,,,,,,,,,,,,,,,,,,,,,,,,,,,,,,,,,,,,,,,,,,,,,,,3172.2374372999184,None,,,,,,,,,,,,,,,,,,,,,,,,,,,,,,,,,,,,,,,,,,,,,,,,,,,,,,,,,shore,202,13,aloud,new,red,3168.9434762997553,None,n,3168.9434762997553,None,"['n', 'return']","[2.432382000144571, 3.2484653000719845]",3168.9434762997553,None,,,26YB,001,2023_Mar_22_1745,ExactRep-v3-final,2021.2.3,59.951103870284015,
,,,,,,,,,,,,13,0,13,0,,,,,,,,,,,,,,,,,,,,,,,,,,,,,,,,,,,,,,,,,,,,,,,,,3175.3572534001432,None,,,,,,,,,,,,,,,,,,,,,,,,,,,,,,,,,,,,,,,,,,,,,,,,,,,,,,,,,truth,105,14,aloud,old,red,3172.7413230999373,None,y,3172.7413230999373,None,"['y', 'return']","[1.762629599776119, 2.5786651000380516]",3172.7413230999373,None,,,26YB,001,2023_Mar_22_1745,ExactRep-v3-final,2021.2.3,59.951103870284015,
,,,,,,,,,,,,14,0,14,0,,,,,,,,,,,,,,,,,,,,,,,,,,,,,,,,,,,,,,,,,,,,,,,,,3178.393584200181,None,,,,,,,,,,,,,,,,,,,,,,,,,,,,,,,,,,,,,,,,,,,,,,,,,,,,,,,,,meadow,127,15,silent,new,white,3175.866495399736,None,y,3175.866495399736,None,"['y', 'return']","[1.7093759002164006, 2.4854125999845564]",3175.866495399736,None,,,26YB,001,2023_Mar_22_1745,ExactRep-v3-final,2021.2.3,59.951103870284015,
,,,,,,,,,,,,15,0,15,0,,,,,,,,,,,,,,,,,,,,,,,,,,,,,,,,,,,,,,,,,,,,,,,,,3181.3965982999653,None,,,,,,,,,,,,,,,,,,,,,,,,,,,,,,,,,,,,,,,,,,,,,,,,,,,,,,,,,prison,96,16,aloud,old,red,3178.9082395001315,None,y,3178.9082395001315,None,"['y', 'return']","[1.3076812997460365, 2.443669999949634]",3178.9082395001315,None,,,26YB,001,2023_Mar_22_1745,ExactRep-v3-final,2021.2.3,59.951103870284015,
,,,,,,,,,,,,16,0,16,0,,,,,,,,,,,,,,,,,,,,,,,,,,,,,,,,,,,,,,,,,,,,,,,,,3184.1326937000267,None,,,,,,,,,,,,,,,,,,,,,,,,,,,,,,,,,,,,,,,,,,,,,,,,,,,,,,,,,hall,26,17,sing,old,blue,3181.904903799761,None,y,3181.904903799761,None,"['y', 'return']","[1.5031590997241437, 2.1910981996916234]",3181.904903799761,None,,,26YB,001,2023_Mar_22_1745,ExactRep-v3-final,2021.2.3,59.951103870284015,
,,,,,,,,,,,,17,0,17,0,,,,,,,,,,,,,,,,,,,,,,,,,,,,,,,,,,,,,,,,,,,,,,,,,3188.153353100177,None,,,,,,,,,,,,,,,,,,,,,,,,,,,,,,,,,,,,,,,,,,,,,,,,,,,,,,,,,shadow,49,18,silent,old,white,3184.640577999875,None,y,3184.640577999875,None,"['y', 'return']","[2.623527000192553, 3.479357300326228]",3184.640577999875,None,,,26YB,001,2023_Mar_22_1745,ExactRep-v3-final,2021.2.3,59.951103870284015,
,,,,,,,,,,,,18,0,18,0,,,,,,,,,,,,,,,,,,,,,,,,,,,,,,,,,,,,,,,,,,,,,,,,,3191.90725679975,None,,,,,,,,,,,,,,,,,,,,,,,,,,,,,,,,,,,,,,,,,,,,,,,,,,,,,,,,,amount,152,19,silent,new,white,3188.6572376000695,None,n,3188.6572376000695,None,"['n', 'return']","[2.206674000248313, 3.2147758998908103]",3188.6572376000695,None,,,26YB,001,2023_Mar_22_1745,ExactRep-v3-final,2021.2.3,59.951103870284015,
,,,,,,,,,,,,19,0,19,0,,,,,,,,,,,,,,,,,,,,,,,,,,,,,,,,,,,,,,,,,,,,,,,,,3196.0447881999426,None,,,,,,,,,,,,,,,,,,,,,,,,,,,,,,,,,,,,,,,,,,,,,,,,,,,,,,,,,fire,166,20,aloud,new,red,3192.415982400067,None,n,3192.415982400067,None,"['n', 'return']","[2.8159998999908566, 3.5921412999741733]",3192.415982400067,None,,,26YB,001,2023_Mar_22_1745,ExactRep-v3-final,2021.2.3,59.951103870284015,
,,,,,,,,,,,,20,0,20,0,,,,,,,,,,,,,,,,,,,,,,,,,,,,,,,,,,,,,,,,,,,,,,,,,3200.4157531000674,None,,,,,,,,,,,,,,,,,,,,,,,,,,,,,,,,,,,,,,,,,,,,,,,,,,,,,,,,,colony,44,21,silent,old,white,3196.550936799962,None,y,3196.550936799962,None,"['y', 'return']","[2.385026100091636, 3.817141099832952]",3196.550936799962,None,,,26YB,001,2023_Mar_22_1745,ExactRep-v3-final,2021.2.3,59.951103870284015,
,,,,,,,,,,,,21,0,21,0,,,,,,,,,,,,,,,,,,,,,,,,,,,,,,,,,,,,,,,,,,,,,,,,,3207.472729700152,None,,,,,,,,,,,,,,,,,,,,,,,,,,,,,,,,,,,,,,,,,,,,,,,,,,,,,,,,,shock,16,22,sing,old,blue,3200.936563800089,None,n,3200.936563800089,None,"['n', 'return']","[4.455532400403172, 6.4953637002035975]",3200.936563800089,None,,,26YB,001,2023_Mar_22_1745,ExactRep-v3-final,2021.2.3,59.951103870284015,
,,,,,,,,,,,,22,0,22,0,,,,,,,,,,,,,,,,,,,,,,,,,,,,,,,,,,,,,,,,,,,,,,,,,3210.7759726997465,None,,,,,,,,,,,,,,,,,,,,,,,,,,,,,,,,,,,,,,,,,,,,,,,,,,,,,,,,,door,41,23,silent,old,white,3207.9814476999454,None,y,3207.9814476999454,None,"['y', 'return']","[1.8824645997956395, 2.7545068999752402]",3207.9814476999454,None,,,26YB,001,2023_Mar_22_1745,ExactRep-v3-final,2021.2.3,59.951103870284015,
,,,,,,,,,,,,23,0,23,0,,,,,,,,,,,,,,,,,,,,,,,,,,,,,,,,,,,,,,,,,,,,,,,,,3214.0293700001203,None,,,,,,,,,,,,,,,,,,,,,,,,,,,,,,,,,,,,,,,,,,,,,,,,,,,,,,,,,lord,10,24,sing,old,blue,3211.2863282999024,None,y,3211.2863282999024,None,"['y', 'return']","[1.577578800264746, 2.697642399929464]",3211.2863282999024,None,,,26YB,001,2023_Mar_22_1745,ExactRep-v3-final,2021.2.3,59.951103870284015,
,,,,,,,,,,,,24,0,24,0,,,,,,,,,,,,,,,,,,,,,,,,,,,,,,,,,,,,,,,,,,,,,,,,,3223.321873900015,None,,,,,,,,,,,,,,,,,,,,,,,,,,,,,,,,,,,,,,,,,,,,,,,,,,,,,,,,,moral,68,25,silent,old,white,3214.5367062999867,None,y,3214.5367062999867,None,"['y', 'return']","[8.03948049992323, 8.743331499863416]",3214.5367062999867,None,,,26YB,001,2023_Mar_22_1745,ExactRep-v3-final,2021.2.3,59.951103870284015,
,,,,,,,,,,,,25,0,25,0,,,,,,,,,,,,,,,,,,,,,,,,,,,,,,,,,,,,,,,,,,,,,,,,,3226.1914054998197,None,,,,,,,,,,,,,,,,,,,,,,,,,,,,,,,,,,,,,,,,,,,,,,,,,,,,,,,,,series,80,26,aloud,old,red,3223.8331629000604,None,y,3223.8331629000604,None,"['y', 'return']","[1.3588306000456214, 2.3108137999661267]",3223.8331629000604,None,,,26YB,001,2023_Mar_22_1745,ExactRep-v3-final,2021.2.3,59.951103870284015,
,,,,,,,,,,,,26,0,26,0,,,,,,,,,,,,,,,,,,,,,,,,,,,,,,,,,,,,,,,,,,,,,,,,,3232.5143848001026,None,,,,,,,,,,,,,,,,,,,,,,,,,,,,,,,,,,,,,,,,,,,,,,,,,,,,,,,,,child,22,27,sing,old,blue,3226.701669999864,None,n,3226.701669999864,None,"['n', 'return']","[4.994245899841189, 5.778276800177991]",3226.701669999864,None,,,26YB,001,2023_Mar_22_1745,ExactRep-v3-final,2021.2.3,59.951103870284015,
,,,,,,,,,,,,27,0,27,0,,,,,,,,,,,,,,,,,,,,,,,,,,,,,,,,,,,,,,,,,,,,,,,,,3235.2839632001705,None,,,,,,,,,,,,,,,,,,,,,,,,,,,,,,,,,,,,,,,,,,,,,,,,,,,,,,,,,girl,197,28,sing,new,blue,3233.023814499844,None,n,3233.023814499844,None,"['n', 'return']","[1.560089800041169, 2.216163400094956]",3233.023814499844,None,,,26YB,001,2023_Mar_22_1745,ExactRep-v3-final,2021.2.3,59.951103870284015,
,,,,,,,,,,,,28,0,28,0,,,,,,,,,,,,,,,,,,,,,,,,,,,,,,,,,,,,,,,,,,,,,,,,,3237.853068300057,None,,,,,,,,,,,,,,,,,,,,,,,,,,,,,,,,,,,,,,,,,,,,,,,,,,,,,,,,,queen,211,29,sing,new,blue,3235.7950842999853,None,n,3235.7950842999853,None,"['n', 'return']","[1.2928538997657597, 2.0129478997550905]",3235.7950842999853,None,,,26YB,001,2023_Mar_22_1745,ExactRep-v3-final,2021.2.3,59.951103870284015,
,,,,,,,,,,,,29,0,29,0,,,,,,,,,,,,,,,,,,,,,,,,,,,,,,,,,,,,,,,,,,,,,,,,,3240.755954099819,None,,,,,,,,,,,,,,,,,,,,,,,,,,,,,,,,,,,,,,,,,,,,,,,,,,,,,,,,,quality,85,30,aloud,old,red,3238.366951600183,None,y,3238.366951600183,None,"['y', 'return']","[1.489092499949038, 2.353059899993241]",3238.366951600183,None,,,26YB,001,2023_Mar_22_1745,ExactRep-v3-final,2021.2.3,59.951103870284015,
,,,,,,,,,,,,30,0,30,0,,,,,,,,,,,,,,,,,,,,,,,,,,,,,,,,,,,,,,,,,,,,,,,,,3244.7934000999667,None,,,,,,,,,,,,,,,,,,,,,,,,,,,,,,,,,,,,,,,,,,,,,,,,,,,,,,,,,flood,168,31,aloud,new,red,3241.2655047001317,None,n,3241.2655047001317,None,"['n', 'return']","[2.726536799687892, 3.4865521998144686]",3241.2655047001317,None,,,26YB,001,2023_Mar_22_1745,ExactRep-v3-final,2021.2.3,59.951103870284015,
,,,,,,,,,,,,31,0,31,0,,,,,,,,,,,,,,,,,,,,,,,,,,,,,,,,,,,,,,,,,,,,,,,,,3247.6630298998207,None,,,,,,,,,,,,,,,,,,,,,,,,,,,,,,,,,,,,,,,,,,,,,,,,,,,,,,,,,owner,77,32,silent,old,white,3245.3063113000244,None,y,3245.3063113000244,None,"['y', 'return']","[1.5019076000899076, 2.309693899936974]",3245.3063113000244,None,,,26YB,001,2023_Mar_22_1745,ExactRep-v3-final,2021.2.3,59.951103870284015,
,,,,,,,,,,,,32,0,32,0,,,,,,,,,,,,,,,,,,,,,,,,,,,,,,,,,,,,,,,,,,,,,,,,,3250.5991397998296,None,,,,,,,,,,,,,,,,,,,,,,,,,,,,,,,,,,,,,,,,,,,,,,,,,,,,,,,,,dream,223,33,sing,new,blue,3248.179210399743,None,n,3248.179210399743,None,"['n', 'return']","[1.3647757000289857, 2.3727773996070027]",3248.179210399743,None,,,26YB,001,2023_Mar_22_1745,ExactRep-v3-final,2021.2.3,59.951103870284015,
,,,,,,,,,,,,33,0,33,0,,,,,,,,,,,,,,,,,,,,,,,,,,,,,,,,,,,,,,,,,,,,,,,,,3253.1350126001053,None,,,,,,,,,,,,,,,,,,,,,,,,,,,,,,,,,,,,,,,,,,,,,,,,,,,,,,,,,slave,30,34,sing,old,blue,3251.103972699959,None,y,3251.103972699959,None,"['y', 'return']","[1.3522421000525355, 1.9840591996908188]",3251.103972699959,None,,,26YB,001,2023_Mar_22_1745,ExactRep-v3-final,2021.2.3,59.951103870284015,
,,,,,,,,,,,,34,0,34,0,,,,,,,,,,,,,,,,,,,,,,,,,,,,,,,,,,,,,,,,,,,,,,,,,3255.7711319997907,None,,,,,,,,,,,,,,,,,,,,,,,,,,,,,,,,,,,,,,,,,,,,,,,,,,,,,,,,,valley,116,35,aloud,old,red,3253.6395315998234,None,y,3253.6395315998234,None,"['y', 'return']","[1.384746600408107, 2.0964808999560773]",3253.6395315998234,None,,,26YB,001,2023_Mar_22_1745,ExactRep-v3-final,2021.2.3,59.951103870284015,
,,,,,,,,,,,,35,0,35,0,,,,,,,,,,,,,,,,,,,,,,,,,,,,,,,,,,,,,,,,,,,,,,,,,3259.141194200143,None,,,,,,,,,,,,,,,,,,,,,,,,,,,,,,,,,,,,,,,,,,,,,,,,,,,,,,,,,garden,66,36,silent,old,white,3256.284982900135,None,y,3256.284982900135,None,"['y', 'return']","[2.003028600011021, 2.811129900161177]",3256.284982900135,None,,,26YB,001,2023_Mar_22_1745,ExactRep-v3-final,2021.2.3,59.951103870284015,
,,,,,,,,,,,,36,0,36,0,,,,,,,,,,,,,,,,,,,,,,,,,,,,,,,,,,,,,,,,,,,,,,,,,3267.265800999943,None,,,,,,,,,,,,,,,,,,,,,,,,,,,,,,,,,,,,,,,,,,,,,,,,,,,,,,,,,troops,14,37,sing,old,blue,3259.6536131999455,None,n,3259.6536131999455,None,"['n', 'return']","[6.970415199641138, 7.570558100007474]",3259.6536131999455,None,,,26YB,001,2023_Mar_22_1745,ExactRep-v3-final,2021.2.3,59.951103870284015,
,,,,,,,,,,,,37,0,37,0,,,,,,,,,,,,,,,,,,,,,,,,,,,,,,,,,,,,,,,,,,,,,,,,,3271.5868612998165,None,,,,,,,,,,,,,,,,,,,,,,,,,,,,,,,,,,,,,,,,,,,,,,,,,,,,,,,,,palace,186,38,aloud,new,red,3267.78425269993,None,n,3267.78425269993,None,"['n', 'return']","[3.199897499755025, 3.7678128997795284]",3267.78425269993,None,,,26YB,001,2023_Mar_22_1745,ExactRep-v3-final,2021.2.3,59.951103870284015,
,,,,,,,,,,,,38,0,38,0,,,,,,,,,,,,,,,,,,,,,,,,,,,,,,,,,,,,,,,,,,,,,,,,,3277.309377899859,None,,,,,,,,,,,,,,,,,,,,,,,,,,,,,,,,,,,,,,,,,,,,,,,,,,,,,,,,,spirit,47,39,silent,old,white,3272.0972143001854,None,y,3272.0972143001854,None,"['y', 'return']","[4.694759999867529, 5.166829099878669]",3272.0972143001854,None,,,26YB,001,2023_Mar_22_1745,ExactRep-v3-final,2021.2.3,59.951103870284015,
,,,,,,,,,,,,39,0,39,0,,,,,,,,,,,,,,,,,,,,,,,,,,,,,,,,,,,,,,,,,,,,,,,,,3279.828575700056,None,,,,,,,,,,,,,,,,,,,,,,,,,,,,,,,,,,,,,,,,,,,,,,,,,,,,,,,,,picture,133,40,silent,new,white,3277.8234019000083,None,n,3277.8234019000083,None,"['n', 'return']","[1.2885827999562025, 1.9605871001258492]",3277.8234019000083,None,,,26YB,001,2023_Mar_22_1745,ExactRep-v3-final,2021.2.3,59.951103870284015,
,,,,,,,,,,,,40,0,40,0,,,,,,,,,,,,,,,,,,,,,,,,,,,,,,,,,,,,,,,,,,,,,,,,,3282.364237399772,None,,,,,,,,,,,,,,,,,,,,,,,,,,,,,,,,,,,,,,,,,,,,,,,,,,,,,,,,,passion,94,41,aloud,old,red,3280.339257000014,None,y,3280.339257000014,None,"['y', 'return']","[1.2847907999530435, 1.9807322998531163]",3280.339257000014,None,,,26YB,001,2023_Mar_22_1745,ExactRep-v3-final,2021.2.3,59.951103870284015,
,,,,,,,,,,,,41,0,41,0,,,,,,,,,,,,,,,,,,,,,,,,,,,,,,,,,,,,,,,,,,,,,,,,,3287.7364325001836,None,,,,,,,,,,,,,,,,,,,,,,,,,,,,,,,,,,,,,,,,,,,,,,,,,,,,,,,,,meat,134,42,silent,new,white,3282.8760664998554,None,n,3282.8760664998554,None,"['return', 'n', 'return']","[1.8279845002107322, 3.844169999938458, 4.82800680026412]",3282.8760664998554,None,,,26YB,001,2023_Mar_22_1745,ExactRep-v3-final,2021.2.3,59.951103870284015,
,,,,,,,,,,,,42,0,42,0,,,,,,,,,,,,,,,,,,,,,,,,,,,,,,,,,,,,,,,,,,,,,,,,,3290.7559540001675,None,,,,,,,,,,,,,,,,,,,,,,,,,,,,,,,,,,,,,,,,,,,,,,,,,,,,,,,,,boy,184,43,aloud,new,red,3288.237856300082,None,n,3288.237856300082,None,"['n', 'return']","[1.6421652999706566, 2.4822692000307143]",3288.237856300082,None,,,26YB,001,2023_Mar_22_1745,ExactRep-v3-final,2021.2.3,59.951103870284015,
,,,,,,,,,,,,43,0,43,0,,,,,,,,,,,,,,,,,,,,,,,,,,,,,,,,,,,,,,,,,,,,,,,,,3293.6588682001457,None,,,,,,,,,,,,,,,,,,,,,,,,,,,,,,,,,,,,,,,,,,,,,,,,,,,,,,,,,shame,167,44,sing,new,blue,3291.2632165001705,None,n,3291.2632165001705,None,"['n', 'return']","[1.512741600163281, 2.3608162999153137]",3291.2632165001705,None,,,26YB,001,2023_Mar_22_1745,ExactRep-v3-final,2021.2.3,59.951103870284015,
,,,,,,,,,,,,44,0,44,0,,,,,,,,,,,,,,,,,,,,,,,,,,,,,,,,,,,,,,,,,,,,,,,,,3297.746277899947,None,,,,,,,,,,,,,,,,,,,,,,,,,,,,,,,,,,,,,,,,,,,,,,,,,,,,,,,,,soul,112,45,aloud,old,red,3294.1677136998624,None,n,3294.1677136998624,None,"['n', 'return']","[2.912369600031525, 3.5442548003047705]",3294.1677136998624,None,,,26YB,001,2023_Mar_22_1745,ExactRep-v3-final,2021.2.3,59.951103870284015,
,,,,,,,,,,,,45,0,45,0,,,,,,,,,,,,,,,,,,,,,,,,,,,,,,,,,,,,,,,,,,,,,,,,,3300.5826846999116,None,,,,,,,,,,,,,,,,,,,,,,,,,,,,,,,,,,,,,,,,,,,,,,,,,,,,,,,,,safety,179,46,sing,new,blue,3298.2565699000843,None,n,3298.2565699000843,None,"['n', 'return']","[1.6795979999005795, 2.279492999892682]",3298.2565699000843,None,,,26YB,001,2023_Mar_22_1745,ExactRep-v3-final,2021.2.3,59.951103870284015,
,,,,,,,,,,,,46,0,46,0,,,,,,,,,,,,,,,,,,,,,,,,,,,,,,,,,,,,,,,,,,,,,,,,,3304.1861351998523,None,,,,,,,,,,,,,,,,,,,,,,,,,,,,,,,,,,,,,,,,,,,,,,,,,,,,,,,,,camp,126,47,silent,new,white,3301.0914111998864,None,n,3301.0914111998864,None,"['n', 'return']","[2.372837300412357, 3.060665300115943]",3301.0914111998864,None,,,26YB,001,2023_Mar_22_1745,ExactRep-v3-final,2021.2.3,59.951103870284015,
,,,,,,,,,,,,47,0,47,0,,,,,,,,,,,,,,,,,,,,,,,,,,,,,,,,,,,,,,,,,,,,,,,,,3306.972262599971,None,,,,,,,,,,,,,,,,,,,,,,,,,,,,,,,,,,,,,,,,,,,,,,,,,,,,,,,,,sugar,175,48,sing,new,blue,3304.7017687000334,None,n,3304.7017687000334,None,"['n', 'return']","[1.6102526998147368, 2.2262522000819445]",3304.7017687000334,None,,,26YB,001,2023_Mar_22_1745,ExactRep-v3-final,2021.2.3,59.951103870284015,
,,,,,,,,,,,,48,0,48,0,,,,,,,,,,,,,,,,,,,,,,,,,,,,,,,,,,,,,,,,,,,,,,,,,3309.891754399985,None,,,,,,,,,,,,,,,,,,,,,,,,,,,,,,,,,,,,,,,,,,,,,,,,,,,,,,,,,factory,18,49,sing,old,blue,3307.484744399786,None,y,3307.484744399786,None,"['y', 'return']","[1.21929100016132, 2.3632569001056254]",3307.484744399786,None,,,26YB,001,2023_Mar_22_1745,ExactRep-v3-final,2021.2.3,59.951103870284015,
,,,,,,,,,,,,49,0,49,0,,,,,,,,,,,,,,,,,,,,,,,,,,,,,,,,,,,,,,,,,,,,,,,,,3312.6945778997615,None,,,,,,,,,,,,,,,,,,,,,,,,,,,,,,,,,,,,,,,,,,,,,,,,,,,,,,,,,mercy,13,50,sing,old,blue,3310.40162099991,None,n,3310.40162099991,None,"['n', 'return']","[1.7184500000439584, 2.2544814003631473]",3310.40162099991,None,,,26YB,001,2023_Mar_22_1745,ExactRep-v3-final,2021.2.3,59.951103870284015,
,,,,,,,,,,,,50,0,50,0,,,,,,,,,,,,,,,,,,,,,,,,,,,,,,,,,,,,,,,,,,,,,,,,,3317.332628299948,None,,,,,,,,,,,,,,,,,,,,,,,,,,,,,,,,,,,,,,,,,,,,,,,,,,,,,,,,,style,154,51,silent,new,white,3313.206598599907,None,n,3313.206598599907,None,"['n', 'return']","[3.433441299945116, 4.089491299819201]",3313.206598599907,None,,,26YB,001,2023_Mar_22_1745,ExactRep-v3-final,2021.2.3,59.951103870284015,
,,,,,,,,,,,,51,0,51,0,,,,,,,,,,,,,,,,,,,,,,,,,,,,,,,,,,,,,,,,,,,,,,,,,3319.6515978998505,None,,,,,,,,,,,,,,,,,,,,,,,,,,,,,,,,,,,,,,,,,,,,,,,,,,,,,,,,,engine,142,52,silent,new,white,3317.8434735001065,None,n,3317.8434735001065,None,"['n', 'return']","[1.2448595999740064, 1.7644960000179708]",3317.8434735001065,None,,,26YB,001,2023_Mar_22_1745,ExactRep-v3-final,2021.2.3,59.951103870284015,
,,,,,,,,,,,,52,0,52,0,,,,,,,,,,,,,,,,,,,,,,,,,,,,,,,,,,,,,,,,,,,,,,,,,3322.921508700121,None,,,,,,,,,,,,,,,,,,,,,,,,,,,,,,,,,,,,,,,,,,,,,,,,,,,,,,,,,friend,87,53,aloud,old,red,3320.1671525998972,None,y,3320.1671525998972,None,"['y', 'return']","[1.7849635002203286, 2.7209144001826644]",3320.1671525998972,None,,,26YB,001,2023_Mar_22_1745,ExactRep-v3-final,2021.2.3,59.951103870284015,
,,,,,,,,,,,,53,0,53,0,,,,,,,,,,,,,,,,,,,,,,,,,,,,,,,,,,,,,,,,,,,,,,,,,3325.6074878000654,None,,,,,,,,,,,,,,,,,,,,,,,,,,,,,,,,,,,,,,,,,,,,,,,,,,,,,,,,,apple,23,54,sing,old,blue,3323.4220620999113,None,n,3323.4220620999113,None,"['n', 'return']","[1.5942218997515738, 2.138036099728197]",3323.4220620999113,None,,,26YB,001,2023_Mar_22_1745,ExactRep-v3-final,2021.2.3,59.951103870284015,
,,,,,,,,,,,,54,0,54,0,,,,,,,,,,,,,,,,,,,,,,,,,,,,,,,,,,,,,,,,,,,,,,,,,3329.327925699763,None,,,,,,,,,,,,,,,,,,,,,,,,,,,,,,,,,,,,,,,,,,,,,,,,,,,,,,,,,vision,135,55,silent,new,white,3326.1105390000157,None,n,3326.1105390000157,None,"['n', 'return']","[2.705498700030148, 3.1855969997122884]",3326.1105390000157,None,,,26YB,001,2023_Mar_22_1745,ExactRep-v3-final,2021.2.3,59.951103870284015,
,,,,,,,,,,,,55,0,55,0,,,,,,,,,,,,,,,,,,,,,,,,,,,,,,,,,,,,,,,,,,,,,,,,,3332.2475366001017,None,,,,,,,,,,,,,,,,,,,,,,,,,,,,,,,,,,,,,,,,,,,,,,,,,,,,,,,,,teacher,136,56,silent,new,white,3329.8363735000603,None,n,3329.8363735000603,None,"['n', 'return']","[1.827527199871838, 2.3716918998397887]",3329.8363735000603,None,,,26YB,001,2023_Mar_22_1745,ExactRep-v3-final,2021.2.3,59.951103870284015,
,,,,,,,,,,,,56,0,56,0,,,,,,,,,,,,,,,,,,,,,,,,,,,,,,,,,,,,,,,,,,,,,,,,,3335.2004390000366,None,,,,,,,,,,,,,,,,,,,,,,,,,,,,,,,,,,,,,,,,,,,,,,,,,,,,,,,,,opinion,141,57,silent,new,white,3332.7540337000974,None,n,3332.7540337000974,None,"['n', 'return']","[1.6860589003190398, 2.414179100189358]",3332.7540337000974,None,,,26YB,001,2023_Mar_22_1745,ExactRep-v3-final,2021.2.3,59.951103870284015,
,,,,,,,,,,,,57,0,57,0,,,,,,,,,,,,,,,,,,,,,,,,,,,,,,,,,,,,,,,,,,,,,,,,,3337.936577499844,None,,,,,,,,,,,,,,,,,,,,,,,,,,,,,,,,,,,,,,,,,,,,,,,,,,,,,,,,,murder,225,58,sing,new,blue,3335.71349549992,None,n,3335.71349549992,None,"['n', 'return']","[1.6145588997751474, 2.1904818997718394]",3335.71349549992,None,,,26YB,001,2023_Mar_22_1745,ExactRep-v3-final,2021.2.3,59.951103870284015,
,,,,,,,,,,,,58,0,58,0,,,,,,,,,,,,,,,,,,,,,,,,,,,,,,,,,,,,,,,,,,,,,,,,,3345.36065089982,None,,,,,,,,,,,,,,,,,,,,,,,,,,,,,,,,,,,,,,,,,,,,,,,,,,,,,,,,,bottle,187,59,sing,new,blue,3338.448738399893,None,n,3338.448738399893,None,"['n', 'return']","[6.391314100008458, 6.879368800204247]",3338.448738399893,None,,,26YB,001,2023_Mar_22_1745,ExactRep-v3-final,2021.2.3,59.951103870284015,
,,,,,,,,,,,,59,0,59,0,,,,,,,,,,,,,,,,,,,,,,,,,,,,,,,,,,,,,,,,,,,,,,,,,3348.7140338001773,None,,,,,,,,,,,,,,,,,,,,,,,,,,,,,,,,,,,,,,,,,,,,,,,,,,,,,,,,,world,83,60,aloud,old,red,3345.8732241997495,None,n,3345.8732241997495,None,"['n', 'return']","[2.2788122999481857, 2.8068062998354435]",3345.8732241997495,None,,,26YB,001,2023_Mar_22_1745,ExactRep-v3-final,2021.2.3,59.951103870284015,
,,,,,,,,,,,,60,0,60,0,,,,,,,,,,,,,,,,,,,,,,,,,,,,,,,,,,,,,,,,,,,,,,,,,3351.7002797997557,None,,,,,,,,,,,,,,,,,,,,,,,,,,,,,,,,,,,,,,,,,,,,,,,,,,,,,,,,,kiss,102,61,aloud,old,red,3349.2219098000787,None,n,3349.2219098000787,None,"['n', 'return']","[1.6502680997364223, 2.442231100052595]",3349.2219098000787,None,,,26YB,001,2023_Mar_22_1745,ExactRep-v3-final,2021.2.3,59.951103870284015,
,,,,,,,,,,,,61,0,61,0,,,,,,,,,,,,,,,,,,,,,,,,,,,,,,,,,,,,,,,,,,,,,,,,,3356.2715443000197,None,,,,,,,,,,,,,,,,,,,,,,,,,,,,,,,,,,,,,,,,,,,,,,,,,,,,,,,,,avenue,100,62,aloud,old,red,3352.2041354998946,None,y,3352.2041354998946,None,"['y', 'return']","[3.4520116997882724, 4.019968799781054]",3352.2041354998946,None,,,26YB,001,2023_Mar_22_1745,ExactRep-v3-final,2021.2.3,59.951103870284015,
,,,,,,,,,,,,62,0,62,0,,,,,,,,,,,,,,,,,,,,,,,,,,,,,,,,,,,,,,,,,,,,,,,,,3358.857378900051,None,,,,,,,,,,,,,,,,,,,,,,,,,,,,,,,,,,,,,,,,,,,,,,,,,,,,,,,,,animal,180,63,aloud,new,red,3356.7806703997776,None,n,3356.7806703997776,None,"['n', 'return']","[1.3716851002536714, 2.0354716000147164]",3356.7806703997776,None,,,26YB,001,2023_Mar_22_1745,ExactRep-v3-final,2021.2.3,59.951103870284015,
,,,,,,,,,,,,63,0,63,0,,,,,,,,,,,,,,,,,,,,,,,,,,,,,,,,,,,,,,,,,,,,,,,,,3361.3599982997403,None,,,,,,,,,,,,,,,,,,,,,,,,,,,,,,,,,,,,,,,,,,,,,,,,,,,,,,,,,flag,190,64,aloud,new,red,3359.3652761997655,None,n,3359.3652761997655,None,"['n', 'return']","[1.4428079999051988, 1.962848600000143]",3359.3652761997655,None,,,26YB,001,2023_Mar_22_1745,ExactRep-v3-final,2021.2.3,59.951103870284015,
,,,,,,,,,,,,64,0,64,0,,,,,,,,,,,,,,,,,,,,,,,,,,,,,,,,,,,,,,,,,,,,,,,,,3363.734820699785,None,,,,,,,,,,,,,,,,,,,,,,,,,,,,,,,,,,,,,,,,,,,,,,,,,,,,,,,,,grief,169,65,sing,new,blue,3361.8726721997373,None,n,3361.8726721997373,None,"['n', 'return']","[1.2554739997722208, 1.7994375000707805]",3361.8726721997373,None,,,26YB,001,2023_Mar_22_1745,ExactRep-v3-final,2021.2.3,59.951103870284015,
,,,,,,,,,,,,65,0,65,0,,,,,,,,,,,,,,,,,,,,,,,,,,,,,,,,,,,,,,,,,,,,,,,,,3371.3031950001605,None,,,,,,,,,,,,,,,,,,,,,,,,,,,,,,,,,,,,,,,,,,,,,,,,,,,,,,,,,plant,12,66,sing,old,blue,3364.2582304999232,None,y,3364.2582304999232,None,"['n', 'backspace', 'y', 'return']","[1.4140949002467096, 5.589850900229067, 6.42196760000661, 6.997886800207198]",3364.2582304999232,None,,,26YB,001,2023_Mar_22_1745,ExactRep-v3-final,2021.2.3,59.951103870284015,
,,,,,,,,,,,,66,0,66,0,,,,,,,,,,,,,,,,,,,,,,,,,,,,,,,,,,,,,,,,,,,,,,,,,3374.673311999999,None,,,,,,,,,,,,,,,,,,,,,,,,,,,,,,,,,,,,,,,,,,,,,,,,,,,,,,,,,king,29,67,sing,old,blue,3371.8077555997297,None,n,3371.8077555997297,None,"['n', 'return']","[2.2163646002300084, 2.8324448000639677]",3371.8077555997297,None,,,26YB,001,2023_Mar_22_1745,ExactRep-v3-final,2021.2.3,59.951103870284015,
,,,,,,,,,,,,67,0,67,0,,,,,,,,,,,,,,,,,,,,,,,,,,,,,,,,,,,,,,,,,,,,,,,,,3379.0777342999354,None,,,,,,,,,,,,,,,,,,,,,,,,,,,,,,,,,,,,,,,,,,,,,,,,,,,,,,,,,beast,17,68,sing,old,blue,3375.1879008999094,None,y,3375.1879008999094,None,"['y', 'return']","[3.124204100109637, 3.8444090001285076]",3375.1879008999094,None,,,26YB,001,2023_Mar_22_1745,ExactRep-v3-final,2021.2.3,59.951103870284015,
,,,,,,,,,,,,68,0,68,0,,,,,,,,,,,,,,,,,,,,,,,,,,,,,,,,,,,,,,,,,,,,,,,,,3381.430055500008,None,,,,,,,,,,,,,,,,,,,,,,,,,,,,,,,,,,,,,,,,,,,,,,,,,,,,,,,,,potato,228,69,aloud,new,red,3379.5872059999965,None,n,3379.5872059999965,None,"['n', 'return']","[1.3172313999384642, 1.8049808996729553]",3379.5872059999965,None,,,26YB,001,2023_Mar_22_1745,ExactRep-v3-final,2021.2.3,59.951103870284015,
,,,,,,,,,,,,69,0,69,0,,,,,,,,,,,,,,,,,,,,,,,,,,,,,,,,,,,,,,,,,,,,,,,,,3383.815768199973,None,,,,,,,,,,,,,,,,,,,,,,,,,,,,,,,,,,,,,,,,,,,,,,,,,,,,,,,,,lad,2,70,sing,old,blue,3381.9436290999874,None,y,3381.9436290999874,None,"['y', 'return']","[1.2806985001079738, 1.8405181001871824]",3381.9436290999874,None,,,26YB,001,2023_Mar_22_1745,ExactRep-v3-final,2021.2.3,59.951103870284015,
,,,,,,,,,,,,70,0,70,0,,,,,,,,,,,,,,,,,,,,,,,,,,,,,,,,,,,,,,,,,,,,,,,,,3386.218230600003,None,,,,,,,,,,,,,,,,,,,,,,,,,,,,,,,,,,,,,,,,,,,,,,,,,,,,,,,,,party,198,71,aloud,new,red,3384.3272218001075,None,n,3384.3272218001075,None,"['n', 'return']","[1.2809918001294136, 1.8569095004349947]",3384.3272218001075,None,,,26YB,001,2023_Mar_22_1745,ExactRep-v3-final,2021.2.3,59.951103870284015,
,,,,,,,,,,,,71,0,71,0,,,,,,,,,,,,,,,,,,,,,,,,,,,,,,,,,,,,,,,,,,,,,,,,,3388.6371765001677,None,,,,,,,,,,,,,,,,,,,,,,,,,,,,,,,,,,,,,,,,,,,,,,,,,,,,,,,,,silence,222,72,aloud,new,red,3386.7269540000707,None,n,3386.7269540000707,None,"['n', 'return']","[1.249101399909705, 1.8732133000157773]",3386.7269540000707,None,,,26YB,001,2023_Mar_22_1745,ExactRep-v3-final,2021.2.3,59.951103870284015,
,,,,,,,,,,,,72,0,72,0,,,,,,,,,,,,,,,,,,,,,,,,,,,,,,,,,,,,,,,,,,,,,,,,,3390.8729901998304,None,,,,,,,,,,,,,,,,,,,,,,,,,,,,,,,,,,,,,,,,,,,,,,,,,,,,,,,,,hope,200,73,aloud,new,red,3389.146597099956,None,n,3389.146597099956,None,"['n', 'return']","[1.1414553001523018, 1.6934942998923361]",3389.146597099956,None,,,26YB,001,2023_Mar_22_1745,ExactRep-v3-final,2021.2.3,59.951103870284015,
,,,,,,,,,,,,73,0,73,0,,,,,,,,,,,,,,,,,,,,,,,,,,,,,,,,,,,,,,,,,,,,,,,,,3393.0916320001706,None,,,,,,,,,,,,,,,,,,,,,,,,,,,,,,,,,,,,,,,,,,,,,,,,,,,,,,,,,circle,233,74,sing,new,blue,3391.3824104000814,None,n,3391.3824104000814,None,"['n', 'return']","[1.193726500030607, 1.6737506999634206]",3391.3824104000814,None,,,26YB,001,2023_Mar_22_1745,ExactRep-v3-final,2021.2.3,59.951103870284015,
,,,,,,,,,,,,74,0,74,0,,,,,,,,,,,,,,,,,,,,,,,,,,,,,,,,,,,,,,,,,,,,,,,,,3396.4450066001154,None,,,,,,,,,,,,,,,,,,,,,,,,,,,,,,,,,,,,,,,,,,,,,,,,,,,,,,,,,officer,204,75,aloud,new,red,3393.6014519999735,None,n,3393.6014519999735,None,"['n', 'return']","[2.3586567998863757, 2.7987221996299922]",3393.6014519999735,None,,,26YB,001,2023_Mar_22_1745,ExactRep-v3-final,2021.2.3,59.951103870284015,
,,,,,,,,,,,,75,0,75,0,,,,,,,,,,,,,,,,,,,,,,,,,,,,,,,,,,,,,,,,,,,,,,,,,3399.8484248998575,None,,,,,,,,,,,,,,,,,,,,,,,,,,,,,,,,,,,,,,,,,,,,,,,,,,,,,,,,,table,64,76,silent,old,white,3396.953970800154,None,y,3396.953970800154,None,"['y', 'return']","[2.4782242998480797, 2.862229600083083]",3396.953970800154,None,,,26YB,001,2023_Mar_22_1745,ExactRep-v3-final,2021.2.3,59.951103870284015,
,,,,,,,,,,,,76,0,76,0,,,,,,,,,,,,,,,,,,,,,,,,,,,,,,,,,,,,,,,,,,,,,,,,,3402.2843228001148,None,,,,,,,,,,,,,,,,,,,,,,,,,,,,,,,,,,,,,,,,,,,,,,,,,,,,,,,,,blossom,232,77,aloud,new,red,3400.3565850998275,None,n,3400.3565850998275,None,"['n', 'return']","[1.4357391996309161, 1.8915907996706665]",3400.3565850998275,None,,,26YB,001,2023_Mar_22_1745,ExactRep-v3-final,2021.2.3,59.951103870284015,
,,,,,,,,,,,,77,0,77,0,,,,,,,,,,,,,,,,,,,,,,,,,,,,,,,,,,,,,,,,,,,,,,,,,3408.106922800187,None,,,,,,,,,,,,,,,,,,,,,,,,,,,,,,,,,,,,,,,,,,,,,,,,,,,,,,,,,excuse,114,78,aloud,old,red,3402.788220100105,None,y,3402.788220100105,None,"['y', 'return']","[3.916021100245416, 5.27594880014658]",3402.788220100105,None,,,26YB,001,2023_Mar_22_1745,ExactRep-v3-final,2021.2.3,59.951103870284015,
,,,,,,,,,,,,78,0,78,0,,,,,,,,,,,,,,,,,,,,,,,,,,,,,,,,,,,,,,,,,,,,,,,,,3411.5768904997967,None,,,,,,,,,,,,,,,,,,,,,,,,,,,,,,,,,,,,,,,,,,,,,,,,,,,,,,,,,breast,70,79,silent,old,white,3408.616607700009,None,y,3408.616607700009,None,"['y', 'return']","[2.0875323000364006, 2.919553800020367]",3408.616607700009,None,,,26YB,001,2023_Mar_22_1745,ExactRep-v3-final,2021.2.3,59.951103870284015,
,,,,,,,,,,,,79,0,79,0,,,,,,,,,,,,,,,,,,,,,,,,,,,,,,,,,,,,,,,,,,,,,,,,,3415.547561099753,None,,,,,,,,,,,,,,,,,,,,,,,,,,,,,,,,,,,,,,,,,,,,,,,,,,,,,,,,,month,181,80,sing,new,blue,3412.084416099824,None,n,3412.084416099824,None,"['n', 'return']","[2.5637432001531124, 3.419702500104904]",3412.084416099824,None,,,26YB,001,2023_Mar_22_1745,ExactRep-v3-final,2021.2.3,59.951103870284015,
,,,,,,,,,,,,80,0,80,0,,,,,,,,,,,,,,,,,,,,,,,,,,,,,,,,,,,,,,,,,,,,,,,,,3418.20006809989,None,,,,,,,,,,,,,,,,,,,,,,,,,,,,,,,,,,,,,,,,,,,,,,,,,,,,,,,,,time,215,81,sing,new,blue,3416.0592157999054,None,n,3416.0592157999054,None,"['n', 'return']","[1.6450437000021338, 2.1010261001065373]",3416.0592157999054,None,,,26YB,001,2023_Mar_22_1745,ExactRep-v3-final,2021.2.3,59.951103870284015,
,,,,,,,,,,,,81,0,81,0,,,,,,,,,,,,,,,,,,,,,,,,,,,,,,,,,,,,,,,,,,,,,,,,,3421.8704429999925,None,,,,,,,,,,,,,,,,,,,,,,,,,,,,,,,,,,,,,,,,,,,,,,,,,,,,,,,,,ticket,143,82,silent,new,white,3418.7110060001723,None,n,3418.7110060001723,None,"['n', 'return']","[2.7613001000136137, 3.121167799923569]",3418.7110060001723,None,,,26YB,001,2023_Mar_22_1745,ExactRep-v3-final,2021.2.3,59.951103870284015,
,,,,,,,,,,,,82,0,82,0,,,,,,,,,,,,,,,,,,,,,,,,,,,,,,,,,,,,,,,,,,,,,,,,,3425.807682099752,None,,,,,,,,,,,,,,,,,,,,,,,,,,,,,,,,,,,,,,,,,,,,,,,,,,,,,,,,,memory,72,83,silent,old,white,3422.378715099767,None,y,3422.378715099767,None,"['y', 'return']","[2.989477099850774, 3.381471900269389]",3422.378715099767,None,,,26YB,001,2023_Mar_22_1745,ExactRep-v3-final,2021.2.3,59.951103870284015,
,,,,,,,,,,,,83,0,83,0,,,,,,,,,,,,,,,,,,,,,,,,,,,,,,,,,,,,,,,,,,,,,,,,,3427.776437399909,None,,,,,,,,,,,,,,,,,,,,,,,,,,,,,,,,,,,,,,,,,,,,,,,,,,,,,,,,,church,123,84,silent,new,white,3426.3200660999864,None,n,3426.3200660999864,None,"['n', 'return']","[1.0801005996763706, 1.4161712997592986]",3426.3200660999864,None,,,26YB,001,2023_Mar_22_1745,ExactRep-v3-final,2021.2.3,59.951103870284015,
,,,,,,,,,,,,84,0,84,0,,,,,,,,,,,,,,,,,,,,,,,,,,,,,,,,,,,,,,,,,,,,,,,,,3430.5291120000184,None,,,,,,,,,,,,,,,,,,,,,,,,,,,,,,,,,,,,,,,,,,,,,,,,,,,,,,,,,duty,121,85,silent,new,white,3428.2906607999466,None,y,3428.2906607999466,None,"['y', 'return']","[1.90969830006361, 2.197499700356275]",3428.2906607999466,None,,,26YB,001,2023_Mar_22_1745,ExactRep-v3-final,2021.2.3,59.951103870284015,
,,,,,,,,,,,,85,0,85,0,,,,,,,,,,,,,,,,,,,,,,,,,,,,,,,,,,,,,,,,,,,,,,,,,3432.932675200049,None,,,,,,,,,,,,,,,,,,,,,,,,,,,,,,,,,,,,,,,,,,,,,,,,,,,,,,,,,honour,7,86,sing,old,blue,3431.0359192001633,None,y,3431.0359192001633,None,"['y', 'return']","[1.5163378003053367, 1.8603246002458036]",3431.0359192001633,None,,,26YB,001,2023_Mar_22_1745,ExactRep-v3-final,2021.2.3,59.951103870284015,
,,,,,,,,,,,,86,0,86,0,,,,,,,,,,,,,,,,,,,,,,,,,,,,,,,,,,,,,,,,,,,,,,,,,3435.8510652999394,None,,,,,,,,,,,,,,,,,,,,,,,,,,,,,,,,,,,,,,,,,,,,,,,,,,,,,,,,,wine,172,87,aloud,new,red,3433.4394017001614,None,n,3433.4394017001614,None,"['n', 'return']","[1.9129543998278677, 2.3688160995952785]",3433.4394017001614,None,,,26YB,001,2023_Mar_22_1745,ExactRep-v3-final,2021.2.3,59.951103870284015,
,,,,,,,,,,,,87,0,87,0,,,,,,,,,,,,,,,,,,,,,,,,,,,,,,,,,,,,,,,,,,,,,,,,,3438.0032131001353,None,,,,,,,,,,,,,,,,,,,,,,,,,,,,,,,,,,,,,,,,,,,,,,,,,,,,,,,,,disease,217,88,sing,new,blue,3436.36220509978,None,n,3436.36220509978,None,"['n', 'return']","[1.181996500119567, 1.5978747000917792]",3436.36220509978,None,,,26YB,001,2023_Mar_22_1745,ExactRep-v3-final,2021.2.3,59.951103870284015,
,,,,,,,,,,,,88,0,88,0,,,,,,,,,,,,,,,,,,,,,,,,,,,,,,,,,,,,,,,,,,,,,,,,,3440.522402000148,None,,,,,,,,,,,,,,,,,,,,,,,,,,,,,,,,,,,,,,,,,,,,,,,,,,,,,,,,,science,92,89,aloud,old,red,3438.513398400042,None,y,3438.513398400042,None,"['y', 'return']","[1.2228461997583508, 1.9747526999562979]",3438.513398400042,None,,,26YB,001,2023_Mar_22_1745,ExactRep-v3-final,2021.2.3,59.951103870284015,
,,,,,,,,,,,,89,0,89,0,,,,,,,,,,,,,,,,,,,,,,,,,,,,,,,,,,,,,,,,,,,,,,,,,3442.7247458999045,None,,,,,,,,,,,,,,,,,,,,,,,,,,,,,,,,,,,,,,,,,,,,,,,,,,,,,,,,,metal,206,90,aloud,new,red,3441.032647300046,None,n,3441.032647300046,None,"['n', 'return']","[1.079541000071913, 1.6555808000266552]",3441.032647300046,None,,,26YB,001,2023_Mar_22_1745,ExactRep-v3-final,2021.2.3,59.951103870284015,
,,,,,,,,,,,,90,0,90,0,,,,,,,,,,,,,,,,,,,,,,,,,,,,,,,,,,,,,,,,,,,,,,,,,3447.9464845000766,None,,,,,,,,,,,,,,,,,,,,,,,,,,,,,,,,,,,,,,,,,,,,,,,,,,,,,,,,,coffee,69,91,silent,old,white,3443.2285194997676,None,n,3443.2285194997676,None,"['y', 'backspace', 'n', 'return']","[2.587674899958074, 3.5636654002591968, 3.9395969002507627, 4.675689999945462]",3443.2285194997676,None,,,26YB,001,2023_Mar_22_1745,ExactRep-v3-final,2021.2.3,59.951103870284015,
,,,,,,,,,,,,91,0,91,0,,,,,,,,,,,,,,,,,,,,,,,,,,,,,,,,,,,,,,,,,,,,,,,,,3452.384317799937,None,,,,,,,,,,,,,,,,,,,,,,,,,,,,,,,,,,,,,,,,,,,,,,,,,,,,,,,,,trouble,73,92,silent,old,white,3448.4568215999752,None,n,3448.4568215999752,None,"['n', 'return']","[3.351377499755472, 3.879446899984032]",3448.4568215999752,None,,,26YB,001,2023_Mar_22_1745,ExactRep-v3-final,2021.2.3,59.951103870284015,
,,,,,,,,,,,,92,0,92,0,,,,,,,,,,,,,,,,,,,,,,,,,,,,,,,,,,,,,,,,,,,,,,,,,3455.704279200174,None,,,,,,,,,,,,,,,,,,,,,,,,,,,,,,,,,,,,,,,,,,,,,,,,,,,,,,,,,dawn,75,93,silent,old,white,3452.901101999916,None,y,3452.901101999916,None,"['y', 'return']","[2.099115800112486, 2.77104949997738]",3452.901101999916,None,,,26YB,001,2023_Mar_22_1745,ExactRep-v3-final,2021.2.3,59.951103870284015,
,,,,,,,,,,,,93,0,93,0,,,,,,,,,,,,,,,,,,,,,,,,,,,,,,,,,,,,,,,,,,,,,,,,,3458.940819500014,None,,,,,,,,,,,,,,,,,,,,,,,,,,,,,,,,,,,,,,,,,,,,,,,,,,,,,,,,,arm,24,94,sing,old,blue,3456.2137758000754,None,n,3456.2137758000754,None,"['n', 'return']","[2.338400499895215, 2.6902830000035465]",3456.2137758000754,None,,,26YB,001,2023_Mar_22_1745,ExactRep-v3-final,2021.2.3,59.951103870284015,
,,,,,,,,,,,,94,0,94,0,,,,,,,,,,,,,,,,,,,,,,,,,,,,,,,,,,,,,,,,,,,,,,,,,3464.146162699908,None,,,,,,,,,,,,,,,,,,,,,,,,,,,,,,,,,,,,,,,,,,,,,,,,,,,,,,,,,library,59,95,silent,old,white,3459.4478271999396,None,y,3459.4478271999396,None,"['n', 'backspace', 'y', 'return']","[2.184352499898523, 3.9923181999474764, 4.392368999775499, 4.66434649983421]",3459.4478271999396,None,,,26YB,001,2023_Mar_22_1745,ExactRep-v3-final,2021.2.3,59.951103870284015,
,,,,,,,,,,,,95,0,95,0,,,,,,,,,,,,,,,,,,,,,,,,,,,,,,,,,,,,,,,,,,,,,,,,,3466.665223099757,None,,,,,,,,,,,,,,,,,,,,,,,,,,,,,,,,,,,,,,,,,,,,,,,,,,,,,,,,,stone,62,96,silent,old,white,3464.655944299884,None,n,3464.655944299884,None,"['n', 'return']","[1.5684958999045193, 1.968261200003326]",3464.655944299884,None,,,26YB,001,2023_Mar_22_1745,ExactRep-v3-final,2021.2.3,59.951103870284015,
,,,,,,,,,,,,96,0,96,0,,,,,,,,,,,,,,,,,,,,,,,,,,,,,,,,,,,,,,,,,,,,,,,,,3469.35124190012,None,,,,,,,,,,,,,,,,,,,,,,,,,,,,,,,,,,,,,,,,,,,,,,,,,,,,,,,,,college,188,97,aloud,new,red,3467.1763904001564,None,n,3467.1763904001564,None,"['n', 'return']","[1.7517952998168766, 2.135841100011021]",3467.1763904001564,None,,,26YB,001,2023_Mar_22_1745,ExactRep-v3-final,2021.2.3,59.951103870284015,
,,,,,,,,,,,,97,0,97,0,,,,,,,,,,,,,,,,,,,,,,,,,,,,,,,,,,,,,,,,,,,,,,,,,3471.3867232999764,None,,,,,,,,,,,,,,,,,,,,,,,,,,,,,,,,,,,,,,,,,,,,,,,,,,,,,,,,,bowl,165,98,sing,new,blue,3469.8545780000277,None,n,3469.8545780000277,None,"['n', 'return']","[1.0737202004529536, 1.4898259001784027]",3469.8545780000277,None,,,26YB,001,2023_Mar_22_1745,ExactRep-v3-final,2021.2.3,59.951103870284015,
,,,,,,,,,,,,98,0,98,0,,,,,,,,,,,,,,,,,,,,,,,,,,,,,,,,,,,,,,,,,,,,,,,,,3473.9894213001244,None,,,,,,,,,,,,,,,,,,,,,,,,,,,,,,,,,,,,,,,,,,,,,,,,,,,,,,,,,moment,183,99,sing,new,blue,3471.895000100136,None,n,3471.895000100136,None,"['n', 'return']","[1.7212832001969218, 2.0572446999140084]",3471.895000100136,None,,,26YB,001,2023_Mar_22_1745,ExactRep-v3-final,2021.2.3,59.951103870284015,
,,,,,,,,,,,,99,0,99,0,,,,,,,,,,,,,,,,,,,,,,,,,,,,,,,,,,,,,,,,,,,,,,,,,3477.45951610012,None,,,,,,,,,,,,,,,,,,,,,,,,,,,,,,,,,,,,,,,,,,,,,,,,,,,,,,,,,butter,110,100,aloud,old,red,3474.5036646998487,None,y,3474.5036646998487,None,"['y', 'return']","[1.5446395999751985, 2.9206956000998616]",3474.5036646998487,None,,,26YB,001,2023_Mar_22_1745,ExactRep-v3-final,2021.2.3,59.951103870284015,
,,,,,,,,,,,,100,0,100,0,,,,,,,,,,,,,,,,,,,,,,,,,,,,,,,,,,,,,,,,,,,,,,,,,3479.928484899923,None,,,,,,,,,,,,,,,,,,,,,,,,,,,,,,,,,,,,,,,,,,,,,,,,,,,,,,,,,health,40,101,silent,old,white,3477.9697953001596,None,y,3477.9697953001596,None,"['y', 'return']","[1.318412299733609, 1.9184127999469638]",3477.9697953001596,None,,,26YB,001,2023_Mar_22_1745,ExactRep-v3-final,2021.2.3,59.951103870284015,
,,,,,,,,,,,,101,0,101,0,,,,,,,,,,,,,,,,,,,,,,,,,,,,,,,,,,,,,,,,,,,,,,,,,3484.666539900005,None,,,,,,,,,,,,,,,,,,,,,,,,,,,,,,,,,,,,,,,,,,,,,,,,,,,,,,,,,coin,199,102,sing,new,blue,3480.4362920997664,None,n,3480.4362920997664,None,"['n', 'return']","[3.900090499781072, 4.1879839999601245]",3480.4362920997664,None,,,26YB,001,2023_Mar_22_1745,ExactRep-v3-final,2021.2.3,59.951103870284015,
,,,,,,,,,,,,102,0,102,0,,,,,,,,,,,,,,,,,,,,,,,,,,,,,,,,,,,,,,,,,,,,,,,,,3487.619483700022,None,,,,,,,,,,,,,,,,,,,,,,,,,,,,,,,,,,,,,,,,,,,,,,,,,,,,,,,,,city,160,103,aloud,new,red,3485.1694955001585,None,n,3485.1694955001585,None,"['n', 'return']","[2.102847000118345, 2.4067664998583496]",3485.1694955001585,None,,,26YB,001,2023_Mar_22_1745,ExactRep-v3-final,2021.2.3,59.951103870284015,
,,,,,,,,,,,,103,0,103,0,,,,,,,,,,,,,,,,,,,,,,,,,,,,,,,,,,,,,,,,,,,,,,,,,3489.6882436997257,None,,,,,,,,,,,,,,,,,,,,,,,,,,,,,,,,,,,,,,,,,,,,,,,,,,,,,,,,,length,229,104,sing,new,blue,3488.1297344998457,None,n,3488.1297344998457,None,"['n', 'return']","[1.1904167998582125, 1.5184816997498274]",3488.1297344998457,None,,,26YB,001,2023_Mar_22_1745,ExactRep-v3-final,2021.2.3,59.951103870284015,
,,,,,,,,,,,,104,0,104,0,,,,,,,,,,,,,,,,,,,,,,,,,,,,,,,,,,,,,,,,,,,,,,,,,3491.8236977998167,None,,,,,,,,,,,,,,,,,,,,,,,,,,,,,,,,,,,,,,,,,,,,,,,,,,,,,,,,,custom,219,105,sing,new,blue,3490.1959258997813,None,n,3490.1959258997813,None,"['n', 'return']","[1.140297600068152, 1.5884799002669752]",3490.1959258997813,None,,,26YB,001,2023_Mar_22_1745,ExactRep-v3-final,2021.2.3,59.951103870284015,
,,,,,,,,,,,,105,0,105,0,,,,,,,,,,,,,,,,,,,,,,,,,,,,,,,,,,,,,,,,,,,,,,,,,3494.109461300075,None,,,,,,,,,,,,,,,,,,,,,,,,,,,,,,,,,,,,,,,,,,,,,,,,,,,,,,,,,doctor,35,106,sing,old,blue,3492.328237600159,None,y,3492.328237600159,None,"['y', 'return']","[1.3281260002404451, 1.7359510003589094]",3492.328237600159,None,,,26YB,001,2023_Mar_22_1745,ExactRep-v3-final,2021.2.3,59.951103870284015,
,,,,,,,,,,,,106,0,106,0,,,,,,,,,,,,,,,,,,,,,,,,,,,,,,,,,,,,,,,,,,,,,,,,,3497.0622780998237,None,,,,,,,,,,,,,,,,,,,,,,,,,,,,,,,,,,,,,,,,,,,,,,,,,,,,,,,,,pupil,93,107,aloud,old,red,3494.620543200057,None,n,3494.620543200057,None,"['n', 'return']","[1.7558065000921488, 2.4037480000406504]",3494.620543200057,None,,,26YB,001,2023_Mar_22_1745,ExactRep-v3-final,2021.2.3,59.951103870284015,
,,,,,,,,,,,,107,0,107,0,,,,,,,,,,,,,,,,,,,,,,,,,,,,,,,,,,,,,,,,,,,,,,,,,3499.915383600164,None,,,,,,,,,,,,,,,,,,,,,,,,,,,,,,,,,,,,,,,,,,,,,,,,,,,,,,,,,sea,63,108,silent,old,white,3497.577789799776,None,y,3497.577789799776,None,"['y', 'return']","[1.494547300040722, 2.3024019999429584]",3497.577789799776,None,,,26YB,001,2023_Mar_22_1745,ExactRep-v3-final,2021.2.3,59.951103870284015,
,,,,,,,,,,,,108,0,108,0,,,,,,,,,,,,,,,,,,,,,,,,,,,,,,,,,,,,,,,,,,,,,,,,,3505.3706986997277,None,,,,,,,,,,,,,,,,,,,,,,,,,,,,,,,,,,,,,,,,,,,,,,,,,,,,,,,,,chair,173,109,sing,new,blue,3500.4221977000125,None,n,3500.4221977000125,None,"['n', 'return']","[4.122147700283676, 4.914005700033158]",3500.4221977000125,None,,,26YB,001,2023_Mar_22_1745,ExactRep-v3-final,2021.2.3,59.951103870284015,
,,,,,,,,,,,,109,0,109,0,,,,,,,,,,,,,,,,,,,,,,,,,,,,,,,,,,,,,,,,,,,,,,,,,3510.976264799945,None,,,,,,,,,,,,,,,,,,,,,,,,,,,,,,,,,,,,,,,,,,,,,,,,,,,,,,,,,author,122,110,silent,new,white,3505.8750867997296,None,n,3505.8750867997296,None,"['n', 'return']","[4.573127799667418, 5.069151799660176]",3505.8750867997296,None,,,26YB,001,2023_Mar_22_1745,ExactRep-v3-final,2021.2.3,59.951103870284015,
,,,,,,,,,,,,110,0,110,0,,,,,,,,,,,,,,,,,,,,,,,,,,,,,,,,,,,,,,,,,,,,,,,,,3513.295231100172,None,,,,,,,,,,,,,,,,,,,,,,,,,,,,,,,,,,,,,,,,,,,,,,,,,,,,,,,,,corn,201,111,sing,new,blue,3511.4855384998955,None,n,3511.4855384998955,None,"['n', 'return']","[1.362683399580419, 1.7707197996787727]",3511.4855384998955,None,,,26YB,001,2023_Mar_22_1745,ExactRep-v3-final,2021.2.3,59.951103870284015,
,,,,,,,,,,,,111,0,111,0,,,,,,,,,,,,,,,,,,,,,,,,,,,,,,,,,,,,,,,,,,,,,,,,,3515.5640982999466,None,,,,,,,,,,,,,,,,,,,,,,,,,,,,,,,,,,,,,,,,,,,,,,,,,,,,,,,,,village,91,112,aloud,old,red,3513.7984198001213,None,y,3513.7984198001213,None,"['y', 'return']","[1.3219256000593305, 1.729928799904883]",3513.7984198001213,None,,,26YB,001,2023_Mar_22_1745,ExactRep-v3-final,2021.2.3,59.951103870284015,
,,,,,,,,,,,,112,0,112,0,,,,,,,,,,,,,,,,,,,,,,,,,,,,,,,,,,,,,,,,,,,,,,,,,3521.820266599767,None,,,,,,,,,,,,,,,,,,,,,,,,,,,,,,,,,,,,,,,,,,,,,,,,,,,,,,,,,letter,235,113,sing,new,blue,3516.0762721998617,None,n,3516.0762721998617,None,"['n', 'return']","[5.115983199793845, 5.699943500105292]",3516.0762721998617,None,,,26YB,001,2023_Mar_22_1745,ExactRep-v3-final,2021.2.3,59.951103870284015,
,,,,,,,,,,,,113,0,113,0,,,,,,,,,,,,,,,,,,,,,,,,,,,,,,,,,,,,,,,,,,,,,,,,,3524.072750200052,None,,,,,,,,,,,,,,,,,,,,,,,,,,,,,,,,,,,,,,,,,,,,,,,,,,,,,,,,,death,113,114,aloud,old,red,3522.328445499763,None,y,3522.328445499763,None,"['y', 'return']","[1.2799020996317267, 1.7117993999272585]",3522.328445499763,None,,,26YB,001,2023_Mar_22_1745,ExactRep-v3-final,2021.2.3,59.951103870284015,
,,,,,,,,,,,,114,0,114,0,,,,,,,,,,,,,,,,,,,,,,,,,,,,,,,,,,,,,,,,,,,,,,,,,3526.892100200057,None,,,,,,,,,,,,,,,,,,,,,,,,,,,,,,,,,,,,,,,,,,,,,,,,,,,,,,,,,fun,239,115,sing,new,blue,3524.582648999989,None,n,3524.582648999989,None,"['n', 'return']","[1.8016093000769615, 2.26560329971835]",3524.582648999989,None,,,26YB,001,2023_Mar_22_1745,ExactRep-v3-final,2021.2.3,59.951103870284015,
,,,,,,,,,,,,115,0,115,0,,,,,,,,,,,,,,,,,,,,,,,,,,,,,,,,,,,,,,,,,,,,,,,,,3529.5116384997964,None,,,,,,,,,,,,,,,,,,,,,,,,,,,,,,,,,,,,,,,,,,,,,,,,,,,,,,,,,effort,95,116,aloud,old,red,3527.4042464001104,None,y,3527.4042464001104,None,"['y', 'return']","[1.6440465999767184, 2.0680070002563298]",3527.4042464001104,None,,,26YB,001,2023_Mar_22_1745,ExactRep-v3-final,2021.2.3,59.951103870284015,
,,,,,,,,,,,,116,0,116,0,,,,,,,,,,,,,,,,,,,,,,,,,,,,,,,,,,,,,,,,,,,,,,,,,3531.6969209997915,None,,,,,,,,,,,,,,,,,,,,,,,,,,,,,,,,,,,,,,,,,,,,,,,,,,,,,,,,,chance,221,117,sing,new,blue,3530.021915299818,None,n,3530.021915299818,None,"['n', 'return']","[1.2663352000527084, 1.6344420998357236]",3530.021915299818,None,,,26YB,001,2023_Mar_22_1745,ExactRep-v3-final,2021.2.3,59.951103870284015,
,,,,,,,,,,,,117,0,117,0,,,,,,,,,,,,,,,,,,,,,,,,,,,,,,,,,,,,,,,,,,,,,,,,,3534.1493604998104,None,,,,,,,,,,,,,,,,,,,,,,,,,,,,,,,,,,,,,,,,,,,,,,,,,,,,,,,,,humour,89,118,aloud,old,red,3532.211532500107,None,y,3532.211532500107,None,"['y', 'return']","[1.2527354997582734, 1.892791399732232]",3532.211532500107,None,,,26YB,001,2023_Mar_22_1745,ExactRep-v3-final,2021.2.3,59.951103870284015,
,,,,,,,,,,,,118,0,118,0,,,,,,,,,,,,,,,,,,,,,,,,,,,,,,,,,,,,,,,,,,,,,,,,,3536.3015095000155,None,,,,,,,,,,,,,,,,,,,,,,,,,,,,,,,,,,,,,,,,,,,,,,,,,,,,,,,,,forest,67,119,silent,old,white,3534.6651755999774,None,y,3534.6651755999774,None,"['y', 'return']","[1.2151442002505064, 1.5989872002974153]",3534.6651755999774,None,,,26YB,001,2023_Mar_22_1745,ExactRep-v3-final,2021.2.3,59.951103870284015,
,,,,,,,,,,,,119,0,119,0,,,,,,,,,,,,,,,,,,,,,,,,,,,,,,,,,,,,,,,,,,,,,,,,,3539.5716002001427,None,,,,,,,,,,,,,,,,,,,,,,,,,,,,,,,,,,,,,,,,,,,,,,,,,,,,,,,,,boulder,178,120,aloud,new,red,3536.80571269989,None,n,3536.80571269989,None,"['n', 'return']","[2.426672300323844, 2.7306001000106335]",3536.80571269989,None,,,26YB,001,2023_Mar_22_1745,ExactRep-v3-final,2021.2.3,59.951103870284015,
,,,,,,,,,,,,120,0,120,0,,,,,,,,,,,,,,,,,,,,,,,,,,,,,,,,,,,,,,,,,,,,,,,,,3541.57361089997,None,,,,,,,,,,,,,,,,,,,,,,,,,,,,,,,,,,,,,,,,,,,,,,,,,,,,,,,,,ocean,203,121,sing,new,blue,3540.0810186997987,None,n,3540.0810186997987,None,"['n', 'return']","[1.1432624999433756, 1.4473049999214709]",3540.0810186997987,None,,,26YB,001,2023_Mar_22_1745,ExactRep-v3-final,2021.2.3,59.951103870284015,
,,,,,,,,,,,,121,0,121,0,,,,,,,,,,,,,,,,,,,,,,,,,,,,,,,,,,,,,,,,,,,,,,,,,3544.2929655998014,None,,,,,,,,,,,,,,,,,,,,,,,,,,,,,,,,,,,,,,,,,,,,,,,,,,,,,,,,,fortune,149,122,silent,new,white,3542.0970409000292,None,y,3542.0970409000292,None,"['y', 'return']","[1.5592677998356521, 2.1512034996412694]",3542.0970409000292,None,,,26YB,001,2023_Mar_22_1745,ExactRep-v3-final,2021.2.3,59.951103870284015,
,,,,,,,,,,,,122,0,122,0,,,,,,,,,,,,,,,,,,,,,,,,,,,,,,,,,,,,,,,,,,,,,,,,,3547.112327300012,None,,,,,,,,,,,,,,,,,,,,,,,,,,,,,,,,,,,,,,,,,,,,,,,,,,,,,,,,,rock,33,123,sing,old,blue,3544.805369900074,None,y,3544.805369900074,None,"['y', 'return']","[1.890974000096321, 2.275031500030309]",3544.805369900074,None,,,26YB,001,2023_Mar_22_1745,ExactRep-v3-final,2021.2.3,59.951103870284015,
,,,,,,,,,,,,123,0,123,0,,,,,,,,,,,,,,,,,,,,,,,,,,,,,,,,,,,,,,,,,,,,,,,,,3551.7002491997555,None,,,,,,,,,,,,,,,,,,,,,,,,,,,,,,,,,,,,,,,,,,,,,,,,,,,,,,,,,pipe,216,124,aloud,new,red,3547.621391300112,None,n,3547.621391300112,None,"['n', 'return']","[3.6509007001295686, 4.042938100174069]",3547.621391300112,None,,,26YB,001,2023_Mar_22_1745,ExactRep-v3-final,2021.2.3,59.951103870284015,
,,,,,,,,,,,,124,0,124,0,,,,,,,,,,,,,,,,,,,,,,,,,,,,,,,,,,,,,,,,,,,,,,,,,3553.75231549982,None,,,,,,,,,,,,,,,,,,,,,,,,,,,,,,,,,,,,,,,,,,,,,,,,,,,,,,,,,board,82,125,aloud,old,red,3552.2100945999846,None,y,3552.2100945999846,None,"['y', 'return']","[1.1182455997914076, 1.5102041000500321]",3552.2100945999846,None,,,26YB,001,2023_Mar_22_1745,ExactRep-v3-final,2021.2.3,59.951103870284015,
,,,,,,,,,,,,125,0,125,0,,,,,,,,,,,,,,,,,,,,,,,,,,,,,,,,,,,,,,,,,,,,,,,,,3556.088142400142,None,,,,,,,,,,,,,,,,,,,,,,,,,,,,,,,,,,,,,,,,,,,,,,,,,,,,,,,,,air,144,126,silent,new,white,3554.2635515001602,None,y,3554.2635515001602,None,"['y', 'return']","[1.1847681002691388, 1.7927962001413107]",3554.2635515001602,None,,,26YB,001,2023_Mar_22_1745,ExactRep-v3-final,2021.2.3,59.951103870284015,
,,,,,,,,,,,,126,0,126,0,,,,,,,,,,,,,,,,,,,,,,,,,,,,,,,,,,,,,,,,,,,,,,,,,3558.507043499965,None,,,,,,,,,,,,,,,,,,,,,,,,,,,,,,,,,,,,,,,,,,,,,,,,,,,,,,,,,bar,50,127,silent,old,white,3556.597383500077,None,n,3556.597383500077,None,"['n', 'return']","[1.2669078996405005, 1.8748361999168992]",3556.597383500077,None,,,26YB,001,2023_Mar_22_1745,ExactRep-v3-final,2021.2.3,59.951103870284015,
,,,,,,,,,,,,127,0,127,0,,,,,,,,,,,,,,,,,,,,,,,,,,,,,,,,,,,,,,,,,,,,,,,,,3561.9117040000856,None,,,,,,,,,,,,,,,,,,,,,,,,,,,,,,,,,,,,,,,,,,,,,,,,,,,,,,,,,charm,124,128,silent,new,white,3559.0149934999645,None,y,3559.0149934999645,None,"['y', 'return']","[2.3772530001588166, 2.8493138002231717]",3559.0149934999645,None,,,26YB,001,2023_Mar_22_1745,ExactRep-v3-final,2021.2.3,59.951103870284015,
,,,,,,,,,,,,128,0,128,0,,,,,,,,,,,,,,,,,,,,,,,,,,,,,,,,,,,,,,,,,,,,,,,,,3564.664940599818,None,,,,,,,,,,,,,,,,,,,,,,,,,,,,,,,,,,,,,,,,,,,,,,,,,,,,,,,,,lake,189,129,sing,new,blue,3562.418347099796,None,n,3562.418347099796,None,"['n', 'return']","[1.957938500214368, 2.205868899822235]",3562.418347099796,None,,,26YB,001,2023_Mar_22_1745,ExactRep-v3-final,2021.2.3,59.951103870284015,
,,,,,,,,,,,,129,0,129,0,,,,,,,,,,,,,,,,,,,,,,,,,,,,,,,,,,,,,,,,,,,,,,,,,3566.565245800186,None,,,,,,,,,,,,,,,,,,,,,,,,,,,,,,,,,,,,,,,,,,,,,,,,,,,,,,,,,justice,101,130,aloud,old,red,3565.1751693999395,None,y,3565.1751693999395,None,"['y', 'return']","[1.049125500023365, 1.3531780000776052]",3565.1751693999395,None,,,26YB,001,2023_Mar_22_1745,ExactRep-v3-final,2021.2.3,59.951103870284015,
