trials_fam.thisRepN,trials_fam.thisTrialN,trials_fam.thisN,trials_fam.thisIndex,trials_prc.thisRepN,trials_prc.thisTrialN,trials_prc.thisN,trials_prc.thisIndex,StudyLoop.thisRepN,StudyLoop.thisTrialN,StudyLoop.thisN,StudyLoop.thisIndex,TestLoop.thisRepN,TestLoop.thisTrialN,TestLoop.thisN,TestLoop.thisIndex,text_colortest.started,text_colortest.stopped,key_colortest.keys,key_colortest.rt,key_colortest.started,key_colortest.stopped,textCondition.started,textCondition.stopped,keyCondition.keys,keyCondition.rt,keyCondition.started,keyCondition.stopped,Condition_between,Condition_counterbal,keyWelcome.keys,keyWelcome.rt,keyWelcome.started,keyWelcome.stopped,welcome_a.started,welcome_a.stopped,welcome_b.started,welcome_b.stopped,welcome_c.started,welcome_c.stopped,welcome_d.started,welcome_d.stopped,welcome_e.started,welcome_e.stopped,welcome_f.started,welcome_f.stopped,key_resp_fam_inst.keys,key_resp_fam_inst.rt,key_resp_fam_inst.started,key_resp_fam_inst.stopped,fam_a.started,fam_a.stopped,fam_b.started,fam_b.stopped,fam_c.started,fam_c.stopped,fam_d.started,fam_d.stopped,fam_e.started,fam_e.stopped,fam_f.started,fam_f.stopped,text_famil.started,text_famil.stopped,textBlank500.started,textBlank500.stopped,key_resp_prc_inst.keys,key_resp_prc_inst.rt,key_resp_prc_inst.started,key_resp_prc_inst.stopped,prac_a.started,prac_a.stopped,prac_b.started,prac_b.stopped,prac_c.started,prac_c.stopped,prac_d.started,prac_d.stopped,prac_e.started,prac_e.stopped,prac_f.started,prac_f.stopped,text_prc_trial.started,text_prc_trial.stopped,key_resp_study_inst.keys,key_resp_study_inst.rt,key_resp_study_inst.started,key_resp_study_inst.stopped,crit_a.started,crit_a.stopped,crit_b.started,crit_b.stopped,crit_c.started,crit_c.stopped,crit_d.started,crit_d.stopped,crit_e.started,crit_e.stopped,crit_f.started,crit_f.stopped,study_word,study_num,study_order,study_type,word_color,textStudy.started,textStudy.stopped,keyStudy.keys,keyStudy.started,keyStudy.stopped,post_study.started,post_study.stopped,key_resp_post_study.keys,key_resp_post_study.rt,key_resp_post_study.started,key_resp_post_study.stopped,test_inst.started,test_inst.stopped,key_resp_test_inst.keys,key_resp_test_inst.rt,key_resp_test_inst.started,key_resp_test_inst.stopped,test_word,test_num,test_order,test_condition,old_new_test,word_color_test,textConf.started,textConf.stopped,Participant Response,textInput.started,textInput.stopped,keyResp.keys,keyResp.rt,keyResp.started,keyResp.stopped,textEnd.started,textEnd.stopped,participant,session,date,expName,psychopyVersion,frameRate,
,,,,,,,,,,,,,,,,20.06215180037543,None,y,6.294351099990308,20.06215180037543,None,,,,,,,,,,,,,,,,,,,,,,,,,,,,,,,,,,,,,,,,,,,,,,,,,,,,,,,,,,,,,,,,,,,,,,,,,,,,,,,,,,,,,,,,,,,,,,,,,,,,,,,,,,,,,,,,,,,,,,27,001,2023_Mar_27_1152,ExactRep-v3-final,2021.2.3,59.92541683035127,
,,,,,,,,,,,,,,,,,,,,,,26.385398300364614,None,c,0.7229023999534547,26.385398300364614,None,,,,,,,,,,,,,,,,,,,,,,,,,,,,,,,,,,,,,,,,,,,,,,,,,,,,,,,,,,,,,,,,,,,,,,,,,,,,,,,,,,,,,,,,,,,,,,,,,,,,,,,,,,,,,,,,27,001,2023_Mar_27_1152,ExactRep-v3-final,2021.2.3,59.92541683035127,
,,,,,,,,,,,,,,,,,,,,,,,,,,,,colorfoils,c,space,219.05281720031053,37.29555150028318,None,,,,,,,,,,,,,,,,,,,,,,,,,,,,,,,,,,,,,,,,,,,,,,,,,,,,,,,,,,,,,,,,,,,,,,,,,,,,,,,,,,,,,,,,,,,,,,,,,,,,,,,,,,27,001,2023_Mar_27_1152,ExactRep-v3-final,2021.2.3,59.92541683035127,
,,,,,,,,,,,,,,,,,,,,,,,,,,,,,,,,,,27.33154939999804,None,27.33154939999804,None,27.33154939999804,None,27.33154939999804,None,27.33154939999804,None,27.33154939999804,None,space,19.870296500157565,266.53406670037657,None,,,,,,,,,,,,,,,,,,,,,,,,,,,,,,,,,,,,,,,,,,,,,,,,,,,,,,,,,,,,,,,,,,,,,,,,,,,,,,,,,,,,,,,,,,27,001,2023_Mar_27_1152,ExactRep-v3-final,2021.2.3,59.92541683035127,
0,0,0,0,,,,,,,,,,,,,,,,,,,,,,,,,,,,,,,,,,,,,,,,,,,,,,,256.5858907001093,None,256.5858907001093,None,256.5858907001093,None,256.5858907001093,None,256.5858907001093,None,256.5858907001093,None,286.52383670024574,None,288.5142549001612,None,,,,,,,,,,,,,,,,,,,,,,,,,,,,,,,,,,,,,,,,,,,,,,,,,,,,,,,,,,,,,,,,,,,,,,,,,,27,001,2023_Mar_27_1152,ExactRep-v3-final,2021.2.3,59.92541683035127,
1,0,1,0,,,,,,,,,,,,,,,,,,,,,,,,,,,,,,,,,,,,,,,,,,,,,,,,,,,,,,,,,,,289.03035380039364,None,291.03334630001336,None,,,,,,,,,,,,,,,,,,,,,,,,,,,,,,,,,,,,,,,,,,,,,,,,,,,,,,,,,,,,,,,,,,,,,,,,,,27,001,2023_Mar_27_1152,ExactRep-v3-final,2021.2.3,59.92541683035127,
2,0,2,0,,,,,,,,,,,,,,,,,,,,,,,,,,,,,,,,,,,,,,,,,,,,,,,,,,,,,,,,,,,291.53393270028755,None,293.53566120006144,None,,,,,,,,,,,,,,,,,,,,,,,,,,,,,,,,,,,,,,,,,,,,,,,,,,,,,,,,,,,,,,,,,,,,,,,,,,27,001,2023_Mar_27_1152,ExactRep-v3-final,2021.2.3,59.92541683035127,
3,0,3,0,,,,,,,,,,,,,,,,,,,,,,,,,,,,,,,,,,,,,,,,,,,,,,,,,,,,,,,,,,,294.0361276003532,None,296.0385321001522,None,,,,,,,,,,,,,,,,,,,,,,,,,,,,,,,,,,,,,,,,,,,,,,,,,,,,,,,,,,,,,,,,,,,,,,,,,,27,001,2023_Mar_27_1152,ExactRep-v3-final,2021.2.3,59.92541683035127,
4,0,4,0,,,,,,,,,,,,,,,,,,,,,,,,,,,,,,,,,,,,,,,,,,,,,,,,,,,,,,,,,,,296.53905890043825,None,298.5409405003302,None,,,,,,,,,,,,,,,,,,,,,,,,,,,,,,,,,,,,,,,,,,,,,,,,,,,,,,,,,,,,,,,,,,,,,,,,,,27,001,2023_Mar_27_1152,ExactRep-v3-final,2021.2.3,59.92541683035127,
5,0,5,0,,,,,,,,,,,,,,,,,,,,,,,,,,,,,,,,,,,,,,,,,,,,,,,,,,,,,,,,,,,299.04186400026083,None,301.0433426001109,None,,,,,,,,,,,,,,,,,,,,,,,,,,,,,,,,,,,,,,,,,,,,,,,,,,,,,,,,,,,,,,,,,,,,,,,,,,27,001,2023_Mar_27_1152,ExactRep-v3-final,2021.2.3,59.92541683035127,
6,0,6,0,,,,,,,,,,,,,,,,,,,,,,,,,,,,,,,,,,,,,,,,,,,,,,,,,,,,,,,,,,,301.54472130024806,None,303.545769800432,None,,,,,,,,,,,,,,,,,,,,,,,,,,,,,,,,,,,,,,,,,,,,,,,,,,,,,,,,,,,,,,,,,,,,,,,,,,27,001,2023_Mar_27_1152,ExactRep-v3-final,2021.2.3,59.92541683035127,
7,0,7,0,,,,,,,,,,,,,,,,,,,,,,,,,,,,,,,,,,,,,,,,,,,,,,,,,,,,,,,,,,,304.056355800014,None,306.0651099001989,None,,,,,,,,,,,,,,,,,,,,,,,,,,,,,,,,,,,,,,,,,,,,,,,,,,,,,,,,,,,,,,,,,,,,,,,,,,27,001,2023_Mar_27_1152,ExactRep-v3-final,2021.2.3,59.92541683035127,
8,0,8,0,,,,,,,,,,,,,,,,,,,,,,,,,,,,,,,,,,,,,,,,,,,,,,,,,,,,,,,,,,,306.5656661000103,None,308.567480600439,None,,,,,,,,,,,,,,,,,,,,,,,,,,,,,,,,,,,,,,,,,,,,,,,,,,,,,,,,,,,,,,,,,,,,,,,,,,27,001,2023_Mar_27_1152,ExactRep-v3-final,2021.2.3,59.92541683035127,
9,0,9,0,,,,,,,,,,,,,,,,,,,,,,,,,,,,,,,,,,,,,,,,,,,,,,,,,,,,,,,,,,,309.0831834003329,None,311.08686740044504,None,,,,,,,,,,,,,,,,,,,,,,,,,,,,,,,,,,,,,,,,,,,,,,,,,,,,,,,,,,,,,,,,,,,,,,,,,,27,001,2023_Mar_27_1152,ExactRep-v3-final,2021.2.3,59.92541683035127,
10,0,10,0,,,,,,,,,,,,,,,,,,,,,,,,,,,,,,,,,,,,,,,,,,,,,,,,,,,,,,,,,,,311.5947617003694,None,313.60547910025343,None,,,,,,,,,,,,,,,,,,,,,,,,,,,,,,,,,,,,,,,,,,,,,,,,,,,,,,,,,,,,,,,,,,,,,,,,,,27,001,2023_Mar_27_1152,ExactRep-v3-final,2021.2.3,59.92541683035127,
11,0,11,0,,,,,,,,,,,,,,,,,,,,,,,,,,,,,,,,,,,,,,,,,,,,,,,,,,,,,,,,,,,314.11131860036403,None,316.12534500006586,None,,,,,,,,,,,,,,,,,,,,,,,,,,,,,,,,,,,,,,,,,,,,,,,,,,,,,,,,,,,,,,,,,,,,,,,,,,27,001,2023_Mar_27_1152,ExactRep-v3-final,2021.2.3,59.92541683035127,
12,0,12,0,,,,,,,,,,,,,,,,,,,,,,,,,,,,,,,,,,,,,,,,,,,,,,,,,,,,,,,,,,,316.6257205000147,None,318.62772120023146,None,,,,,,,,,,,,,,,,,,,,,,,,,,,,,,,,,,,,,,,,,,,,,,,,,,,,,,,,,,,,,,,,,,,,,,,,,,27,001,2023_Mar_27_1152,ExactRep-v3-final,2021.2.3,59.92541683035127,
13,0,13,0,,,,,,,,,,,,,,,,,,,,,,,,,,,,,,,,,,,,,,,,,,,,,,,,,,,,,,,,,,,319.12818400003016,None,321.13002880010754,None,,,,,,,,,,,,,,,,,,,,,,,,,,,,,,,,,,,,,,,,,,,,,,,,,,,,,,,,,,,,,,,,,,,,,,,,,,27,001,2023_Mar_27_1152,ExactRep-v3-final,2021.2.3,59.92541683035127,
14,0,14,0,,,,,,,,,,,,,,,,,,,,,,,,,,,,,,,,,,,,,,,,,,,,,,,,,,,,,,,,,,,321.63084560027346,None,323.6328493002802,None,,,,,,,,,,,,,,,,,,,,,,,,,,,,,,,,,,,,,,,,,,,,,,,,,,,,,,,,,,,,,,,,,,,,,,,,,,27,001,2023_Mar_27_1152,ExactRep-v3-final,2021.2.3,59.92541683035127,
,,,,,,,,,,,,,,,,,,,,,,,,,,,,,,,,,,,,,,,,,,,,,,,,,,,,,,,,,,,,,,,,,,space,17.141572599764913,334.26289020013064,None,,,,,,,,,,,,,,,,,,,,,,,,,,,,,,,,,,,,,,,,,,,,,,,,,,,,,,,,,,,,,,,,,,,,,,27,001,2023_Mar_27_1152,ExactRep-v3-final,2021.2.3,59.92541683035127,
,,,,0,0,0,0,,,,,,,,,,,,,,,,,,,,,,,,,,,,,,,,,,,,,,,,,,,,,,,,,,,,,,,,,353.4959405004047,None,,,,,324.29559420002624,None,324.29559420002624,None,324.29559420002624,None,324.29559420002624,None,324.29559420002624,None,324.29559420002624,None,351.4887160002254,None,,,,,,,,,,,,,,,,,,,,,,,,,,,,,,,,,,,,,,,,,,,,,,,,,,,,,,,,27,001,2023_Mar_27_1152,ExactRep-v3-final,2021.2.3,59.92541683035127,
,,,,1,0,1,0,,,,,,,,,,,,,,,,,,,,,,,,,,,,,,,,,,,,,,,,,,,,,,,,,,,,,,,,,355.99839730001986,None,,,,,,,,,,,,,,,,,353.99630430014804,None,,,,,,,,,,,,,,,,,,,,,,,,,,,,,,,,,,,,,,,,,,,,,,,,,,,,,,,,27,001,2023_Mar_27_1152,ExactRep-v3-final,2021.2.3,59.92541683035127,
,,,,2,0,2,0,,,,,,,,,,,,,,,,,,,,,,,,,,,,,,,,,,,,,,,,,,,,,,,,,,,,,,,,,358.5008815000765,None,,,,,,,,,,,,,,,,,356.4987559001893,None,,,,,,,,,,,,,,,,,,,,,,,,,,,,,,,,,,,,,,,,,,,,,,,,,,,,,,,,27,001,2023_Mar_27_1152,ExactRep-v3-final,2021.2.3,59.92541683035127,
,,,,3,0,3,0,,,,,,,,,,,,,,,,,,,,,,,,,,,,,,,,,,,,,,,,,,,,,,,,,,,,,,,,,361.00339600024745,None,,,,,,,,,,,,,,,,,359.0012566000223,None,,,,,,,,,,,,,,,,,,,,,,,,,,,,,,,,,,,,,,,,,,,,,,,,,,,,,,,,27,001,2023_Mar_27_1152,ExactRep-v3-final,2021.2.3,59.92541683035127,
,,,,4,0,4,0,,,,,,,,,,,,,,,,,,,,,,,,,,,,,,,,,,,,,,,,,,,,,,,,,,,,,,,,,363.50580400042236,None,,,,,,,,,,,,,,,,,361.50371560035273,None,,,,,,,,,,,,,,,,,,,,,,,,,,,,,,,,,,,,,,,,,,,,,,,,,,,,,,,,27,001,2023_Mar_27_1152,ExactRep-v3-final,2021.2.3,59.92541683035127,
,,,,5,0,5,0,,,,,,,,,,,,,,,,,,,,,,,,,,,,,,,,,,,,,,,,,,,,,,,,,,,,,,,,,366.0085042002611,None,,,,,,,,,,,,,,,,,364.00653720041737,None,,,,,,,,,,,,,,,,,,,,,,,,,,,,,,,,,,,,,,,,,,,,,,,,,,,,,,,,27,001,2023_Mar_27_1152,ExactRep-v3-final,2021.2.3,59.92541683035127,
,,,,6,0,6,0,,,,,,,,,,,,,,,,,,,,,,,,,,,,,,,,,,,,,,,,,,,,,,,,,,,,,,,,,368.511072400026,None,,,,,,,,,,,,,,,,,366.5087763001211,None,,,,,,,,,,,,,,,,,,,,,,,,,,,,,,,,,,,,,,,,,,,,,,,,,,,,,,,,27,001,2023_Mar_27_1152,ExactRep-v3-final,2021.2.3,59.92541683035127,
,,,,7,0,7,0,,,,,,,,,,,,,,,,,,,,,,,,,,,,,,,,,,,,,,,,,,,,,,,,,,,,,,,,,371.0135711003095,None,,,,,,,,,,,,,,,,,369.0115381004289,None,,,,,,,,,,,,,,,,,,,,,,,,,,,,,,,,,,,,,,,,,,,,,,,,,,,,,,,,27,001,2023_Mar_27_1152,ExactRep-v3-final,2021.2.3,59.92541683035127,
,,,,8,0,8,0,,,,,,,,,,,,,,,,,,,,,,,,,,,,,,,,,,,,,,,,,,,,,,,,,,,,,,,,,373.516062900424,None,,,,,,,,,,,,,,,,,371.51405580015853,None,,,,,,,,,,,,,,,,,,,,,,,,,,,,,,,,,,,,,,,,,,,,,,,,,,,,,,,,27,001,2023_Mar_27_1152,ExactRep-v3-final,2021.2.3,59.92541683035127,
,,,,9,0,9,0,,,,,,,,,,,,,,,,,,,,,,,,,,,,,,,,,,,,,,,,,,,,,,,,,,,,,,,,,376.0184333003126,None,,,,,,,,,,,,,,,,,374.0165554000996,None,,,,,,,,,,,,,,,,,,,,,,,,,,,,,,,,,,,,,,,,,,,,,,,,,,,,,,,,27,001,2023_Mar_27_1152,ExactRep-v3-final,2021.2.3,59.92541683035127,
,,,,10,0,10,0,,,,,,,,,,,,,,,,,,,,,,,,,,,,,,,,,,,,,,,,,,,,,,,,,,,,,,,,,378.5209905002266,None,,,,,,,,,,,,,,,,,376.5189904002473,None,,,,,,,,,,,,,,,,,,,,,,,,,,,,,,,,,,,,,,,,,,,,,,,,,,,,,,,,27,001,2023_Mar_27_1152,ExactRep-v3-final,2021.2.3,59.92541683035127,
,,,,11,0,11,0,,,,,,,,,,,,,,,,,,,,,,,,,,,,,,,,,,,,,,,,,,,,,,,,,,,,,,,,,381.0232691001147,None,,,,,,,,,,,,,,,,,379.0215119002387,None,,,,,,,,,,,,,,,,,,,,,,,,,,,,,,,,,,,,,,,,,,,,,,,,,,,,,,,,27,001,2023_Mar_27_1152,ExactRep-v3-final,2021.2.3,59.92541683035127,
,,,,12,0,12,0,,,,,,,,,,,,,,,,,,,,,,,,,,,,,,,,,,,,,,,,,,,,,,,,,,,,,,,,,383.52590820007026,None,,,,,,,,,,,,,,,,,381.52404350042343,None,,,,,,,,,,,,,,,,,,,,,,,,,,,,,,,,,,,,,,,,,,,,,,,,,,,,,,,,27,001,2023_Mar_27_1152,ExactRep-v3-final,2021.2.3,59.92541683035127,
,,,,13,0,13,0,,,,,,,,,,,,,,,,,,,,,,,,,,,,,,,,,,,,,,,,,,,,,,,,,,,,,,,,,386.0284562003799,None,,,,,,,,,,,,,,,,,384.02641520043835,None,,,,,,,,,,,,,,,,,,,,,,,,,,,,,,,,,,,,,,,,,,,,,,,,,,,,,,,,27,001,2023_Mar_27_1152,ExactRep-v3-final,2021.2.3,59.92541683035127,
,,,,14,0,14,0,,,,,,,,,,,,,,,,,,,,,,,,,,,,,,,,,,,,,,,,,,,,,,,,,,,,,,,,,388.5309912003577,None,,,,,,,,,,,,,,,,,386.5289487000555,None,,,,,,,,,,,,,,,,,,,,,,,,,,,,,,,,,,,,,,,,,,,,,,,,,,,,,,,,27,001,2023_Mar_27_1152,ExactRep-v3-final,2021.2.3,59.92541683035127,
,,,,,,,,,,,,,,,,,,,,,,,,,,,,,,,,,,,,,,,,,,,,,,,,,,,,,,,,,,,,,,,,,,,,,,,,,,,,,,,,,,,,space,24.095476699993014,399.12513290019706,None,,,,,,,,,,,,,,,,,,,,,,,,,,,,,,,,,,,,,,,,,,,,,,,,,,,,27,001,2023_Mar_27_1152,ExactRep-v3-final,2021.2.3,59.92541683035127,
,,,,,,,,0,0,0,0,,,,,,,,,,,,,,,,,,,,,,,,,,,,,,,,,,,,,,,,,,,,,,,,,,,,,425.30206110002473,None,,,,,,,,,,,,,,,,,,,,,,,389.18828980019316,None,389.18828980019316,None,389.18828980019316,None,389.18828980019316,None,389.18828980019316,None,389.18828980019316,None,honour,98,1,aloud,blue,423.3009520000778,None,None,423.3009520000778,None,,,,,,,,,,,,,,,,,,,,,,,,,,,,,,27,001,2023_Mar_27_1152,ExactRep-v3-final,2021.2.3,59.92541683035127,
,,,,,,,,1,0,1,0,,,,,,,,,,,,,,,,,,,,,,,,,,,,,,,,,,,,,,,,,,,,,,,,,,,,,427.82009410019964,None,,,,,,,,,,,,,,,,,,,,,,,,,,,,,,,,,,,virtue,72,2,silent,red,425.80459640035406,None,None,425.80459640035406,None,,,,,,,,,,,,,,,,,,,,,,,,,,,,,,27,001,2023_Mar_27_1152,ExactRep-v3-final,2021.2.3,59.92541683035127,
,,,,,,,,2,0,2,0,,,,,,,,,,,,,,,,,,,,,,,,,,,,,,,,,,,,,,,,,,,,,,,,,,,,,430.33944550016895,None,,,,,,,,,,,,,,,,,,,,,,,,,,,,,,,,,,,power,111,3,aloud,blue,428.3338600001298,None,None,428.3338600001298,None,,,,,,,,,,,,,,,,,,,,,,,,,,,,,,27,001,2023_Mar_27_1152,ExactRep-v3-final,2021.2.3,59.92541683035127,
,,,,,,,,3,0,3,0,,,,,,,,,,,,,,,,,,,,,,,,,,,,,,,,,,,,,,,,,,,,,,,,,,,,,432.84191350033507,None,,,,,,,,,,,,,,,,,,,,,,,,,,,,,,,,,,,opinion,87,4,aloud,blue,430.8426686003804,None,None,430.8426686003804,None,,,,,,,,,,,,,,,,,,,,,,,,,,,,,,27,001,2023_Mar_27_1152,ExactRep-v3-final,2021.2.3,59.92541683035127,
,,,,,,,,4,0,4,0,,,,,,,,,,,,,,,,,,,,,,,,,,,,,,,,,,,,,,,,,,,,,,,,,,,,,435.3611053000204,None,,,,,,,,,,,,,,,,,,,,,,,,,,,,,,,,,,,church,28,5,sing,white,433.3465475002304,None,None,433.3465475002304,None,,,,,,,,,,,,,,,,,,,,,,,,,,,,,,27,001,2023_Mar_27_1152,ExactRep-v3-final,2021.2.3,59.92541683035127,
,,,,,,,,5,0,5,0,,,,,,,,,,,,,,,,,,,,,,,,,,,,,,,,,,,,,,,,,,,,,,,,,,,,,437.8636557003483,None,,,,,,,,,,,,,,,,,,,,,,,,,,,,,,,,,,,trouble,58,6,silent,red,435.86254270002246,None,None,435.86254270002246,None,,,,,,,,,,,,,,,,,,,,,,,,,,,,,,27,001,2023_Mar_27_1152,ExactRep-v3-final,2021.2.3,59.92541683035127,
,,,,,,,,6,0,6,0,,,,,,,,,,,,,,,,,,,,,,,,,,,,,,,,,,,,,,,,,,,,,,,,,,,,,440.3659825003706,None,,,,,,,,,,,,,,,,,,,,,,,,,,,,,,,,,,,toy,38,7,sing,white,438.3669247003272,None,None,438.3669247003272,None,,,,,,,,,,,,,,,,,,,,,,,,,,,,,,27,001,2023_Mar_27_1152,ExactRep-v3-final,2021.2.3,59.92541683035127,
,,,,,,,,7,0,7,0,,,,,,,,,,,,,,,,,,,,,,,,,,,,,,,,,,,,,,,,,,,,,,,,,,,,,442.8852864000946,None,,,,,,,,,,,,,,,,,,,,,,,,,,,,,,,,,,,artist,84,8,aloud,blue,440.87345380010083,None,None,440.87345380010083,None,,,,,,,,,,,,,,,,,,,,,,,,,,,,,,27,001,2023_Mar_27_1152,ExactRep-v3-final,2021.2.3,59.92541683035127,
,,,,,,,,8,0,8,0,,,,,,,,,,,,,,,,,,,,,,,,,,,,,,,,,,,,,,,,,,,,,,,,,,,,,445.3877840000205,None,,,,,,,,,,,,,,,,,,,,,,,,,,,,,,,,,,,hall,42,9,silent,red,443.38584880018607,None,None,443.38584880018607,None,,,,,,,,,,,,,,,,,,,,,,,,,,,,,,27,001,2023_Mar_27_1152,ExactRep-v3-final,2021.2.3,59.92541683035127,
,,,,,,,,9,0,9,0,,,,,,,,,,,,,,,,,,,,,,,,,,,,,,,,,,,,,,,,,,,,,,,,,,,,,447.9069784004241,None,,,,,,,,,,,,,,,,,,,,,,,,,,,,,,,,,,,thought,106,10,aloud,blue,445.89160400023684,None,None,445.89160400023684,None,,,,,,,,,,,,,,,,,,,,,,,,,,,,,,27,001,2023_Mar_27_1152,ExactRep-v3-final,2021.2.3,59.92541683035127,
,,,,,,,,10,0,10,0,,,,,,,,,,,,,,,,,,,,,,,,,,,,,,,,,,,,,,,,,,,,,,,,,,,,,450.42612680001184,None,,,,,,,,,,,,,,,,,,,,,,,,,,,,,,,,,,,cash,23,11,sing,white,448.4106849003583,None,None,448.4106849003583,None,,,,,,,,,,,,,,,,,,,,,,,,,,,,,,27,001,2023_Mar_27_1152,ExactRep-v3-final,2021.2.3,59.92541683035127,
,,,,,,,,11,0,11,0,,,,,,,,,,,,,,,,,,,,,,,,,,,,,,,,,,,,,,,,,,,,,,,,,,,,,452.92853350006044,None,,,,,,,,,,,,,,,,,,,,,,,,,,,,,,,,,,,anger,83,12,aloud,blue,450.9276678003371,None,None,450.9276678003371,None,,,,,,,,,,,,,,,,,,,,,,,,,,,,,,27,001,2023_Mar_27_1152,ExactRep-v3-final,2021.2.3,59.92541683035127,
,,,,,,,,12,0,12,0,,,,,,,,,,,,,,,,,,,,,,,,,,,,,,,,,,,,,,,,,,,,,,,,,,,,,455.4310003002174,None,,,,,,,,,,,,,,,,,,,,,,,,,,,,,,,,,,,valley,117,13,aloud,blue,453.4289699001238,None,None,453.4289699001238,None,,,,,,,,,,,,,,,,,,,,,,,,,,,,,,27,001,2023_Mar_27_1152,ExactRep-v3-final,2021.2.3,59.92541683035127,
,,,,,,,,13,0,13,0,,,,,,,,,,,,,,,,,,,,,,,,,,,,,,,,,,,,,,,,,,,,,,,,,,,,,457.93368500005454,None,,,,,,,,,,,,,,,,,,,,,,,,,,,,,,,,,,,village,52,14,silent,red,455.931737200357,None,None,455.931737200357,None,,,,,,,,,,,,,,,,,,,,,,,,,,,,,,27,001,2023_Mar_27_1152,ExactRep-v3-final,2021.2.3,59.92541683035127,
,,,,,,,,14,0,14,0,,,,,,,,,,,,,,,,,,,,,,,,,,,,,,,,,,,,,,,,,,,,,,,,,,,,,460.45286750001833,None,,,,,,,,,,,,,,,,,,,,,,,,,,,,,,,,,,,leader,41,15,silent,red,458.4374351003207,None,None,458.4374351003207,None,,,,,,,,,,,,,,,,,,,,,,,,,,,,,,27,001,2023_Mar_27_1152,ExactRep-v3-final,2021.2.3,59.92541683035127,
,,,,,,,,15,0,15,0,,,,,,,,,,,,,,,,,,,,,,,,,,,,,,,,,,,,,,,,,,,,,,,,,,,,,462.97209340007976,None,,,,,,,,,,,,,,,,,,,,,,,,,,,,,,,,,,,freedom,91,16,aloud,blue,460.9599089003168,None,None,460.9599089003168,None,,,,,,,,,,,,,,,,,,,,,,,,,,,,,,27,001,2023_Mar_27_1152,ExactRep-v3-final,2021.2.3,59.92541683035127,
,,,,,,,,16,0,16,0,,,,,,,,,,,,,,,,,,,,,,,,,,,,,,,,,,,,,,,,,,,,,,,,,,,,,465.4912147000432,None,,,,,,,,,,,,,,,,,,,,,,,,,,,,,,,,,,,picture,82,17,aloud,blue,463.4756577000953,None,None,463.4756577000953,None,,,,,,,,,,,,,,,,,,,,,,,,,,,,,,27,001,2023_Mar_27_1152,ExactRep-v3-final,2021.2.3,59.92541683035127,
,,,,,,,,17,0,17,0,,,,,,,,,,,,,,,,,,,,,,,,,,,,,,,,,,,,,,,,,,,,,,,,,,,,,467.993467300199,None,,,,,,,,,,,,,,,,,,,,,,,,,,,,,,,,,,,quality,71,18,silent,red,465.9942464004271,None,None,465.9942464004271,None,,,,,,,,,,,,,,,,,,,,,,,,,,,,,,27,001,2023_Mar_27_1152,ExactRep-v3-final,2021.2.3,59.92541683035127,
,,,,,,,,18,0,18,0,,,,,,,,,,,,,,,,,,,,,,,,,,,,,,,,,,,,,,,,,,,,,,,,,,,,,470.4962540999986,None,,,,,,,,,,,,,,,,,,,,,,,,,,,,,,,,,,,flower,81,19,aloud,blue,468.49610630003735,None,None,468.49610630003735,None,,,,,,,,,,,,,,,,,,,,,,,,,,,,,,27,001,2023_Mar_27_1152,ExactRep-v3-final,2021.2.3,59.92541683035127,
,,,,,,,,19,0,19,0,,,,,,,,,,,,,,,,,,,,,,,,,,,,,,,,,,,,,,,,,,,,,,,,,,,,,473.0154543002136,None,,,,,,,,,,,,,,,,,,,,,,,,,,,,,,,,,,,brain,74,20,silent,red,471.000005800277,None,None,471.000005800277,None,,,,,,,,,,,,,,,,,,,,,,,,,,,,,,27,001,2023_Mar_27_1152,ExactRep-v3-final,2021.2.3,59.92541683035127,
,,,,,,,,20,0,20,0,,,,,,,,,,,,,,,,,,,,,,,,,,,,,,,,,,,,,,,,,,,,,,,,,,,,,475.5177477002144,None,,,,,,,,,,,,,,,,,,,,,,,,,,,,,,,,,,,queen,109,21,aloud,blue,473.5171798001975,None,None,473.5171798001975,None,,,,,,,,,,,,,,,,,,,,,,,,,,,,,,27,001,2023_Mar_27_1152,ExactRep-v3-final,2021.2.3,59.92541683035127,
,,,,,,,,21,0,21,0,,,,,,,,,,,,,,,,,,,,,,,,,,,,,,,,,,,,,,,,,,,,,,,,,,,,,478.02040910022333,None,,,,,,,,,,,,,,,,,,,,,,,,,,,,,,,,,,,woman,100,22,aloud,blue,476.0214386000298,None,None,476.0214386000298,None,,,,,,,,,,,,,,,,,,,,,,,,,,,,,,27,001,2023_Mar_27_1152,ExactRep-v3-final,2021.2.3,59.92541683035127,
,,,,,,,,22,0,22,0,,,,,,,,,,,,,,,,,,,,,,,,,,,,,,,,,,,,,,,,,,,,,,,,,,,,,480.5229865000583,None,,,,,,,,,,,,,,,,,,,,,,,,,,,,,,,,,,,ship,35,23,sing,white,478.52294789999723,None,None,478.52294789999723,None,,,,,,,,,,,,,,,,,,,,,,,,,,,,,,27,001,2023_Mar_27_1152,ExactRep-v3-final,2021.2.3,59.92541683035127,
,,,,,,,,23,0,23,0,,,,,,,,,,,,,,,,,,,,,,,,,,,,,,,,,,,,,,,,,,,,,,,,,,,,,483.0419719000347,None,,,,,,,,,,,,,,,,,,,,,,,,,,,,,,,,,,,winter,33,24,sing,white,481.02913570031524,None,None,481.02913570031524,None,,,,,,,,,,,,,,,,,,,,,,,,,,,,,,27,001,2023_Mar_27_1152,ExactRep-v3-final,2021.2.3,59.92541683035127,
,,,,,,,,24,0,24,0,,,,,,,,,,,,,,,,,,,,,,,,,,,,,,,,,,,,,,,,,,,,,,,,,,,,,485.54448020039126,None,,,,,,,,,,,,,,,,,,,,,,,,,,,,,,,,,,,heaven,36,25,sing,white,483.54387460043654,None,None,483.54387460043654,None,,,,,,,,,,,,,,,,,,,,,,,,,,,,,,27,001,2023_Mar_27_1152,ExactRep-v3-final,2021.2.3,59.92541683035127,
,,,,,,,,25,0,25,0,,,,,,,,,,,,,,,,,,,,,,,,,,,,,,,,,,,,,,,,,,,,,,,,,,,,,488.0470389002003,None,,,,,,,,,,,,,,,,,,,,,,,,,,,,,,,,,,,series,47,26,silent,red,486.04512260016054,None,None,486.04512260016054,None,,,,,,,,,,,,,,,,,,,,,,,,,,,,,,27,001,2023_Mar_27_1152,ExactRep-v3-final,2021.2.3,59.92541683035127,
,,,,,,,,26,0,26,0,,,,,,,,,,,,,,,,,,,,,,,,,,,,,,,,,,,,,,,,,,,,,,,,,,,,,490.5496313003823,None,,,,,,,,,,,,,,,,,,,,,,,,,,,,,,,,,,,dawn,18,27,sing,white,488.54749790020287,None,None,488.54749790020287,None,,,,,,,,,,,,,,,,,,,,,,,,,,,,,,27,001,2023_Mar_27_1152,ExactRep-v3-final,2021.2.3,59.92541683035127,
,,,,,,,,27,0,27,0,,,,,,,,,,,,,,,,,,,,,,,,,,,,,,,,,,,,,,,,,,,,,,,,,,,,,493.0521124000661,None,,,,,,,,,,,,,,,,,,,,,,,,,,,,,,,,,,,army,101,28,aloud,blue,491.04995610006154,None,None,491.04995610006154,None,,,,,,,,,,,,,,,,,,,,,,,,,,,,,,27,001,2023_Mar_27_1152,ExactRep-v3-final,2021.2.3,59.92541683035127,
,,,,,,,,28,0,28,0,,,,,,,,,,,,,,,,,,,,,,,,,,,,,,,,,,,,,,,,,,,,,,,,,,,,,495.55469740042463,None,,,,,,,,,,,,,,,,,,,,,,,,,,,,,,,,,,,cottage,2,29,sing,white,493.55232860008255,None,None,493.55232860008255,None,,,,,,,,,,,,,,,,,,,,,,,,,,,,,,27,001,2023_Mar_27_1152,ExactRep-v3-final,2021.2.3,59.92541683035127,
,,,,,,,,29,0,29,0,,,,,,,,,,,,,,,,,,,,,,,,,,,,,,,,,,,,,,,,,,,,,,,,,,,,,498.07372340001166,None,,,,,,,,,,,,,,,,,,,,,,,,,,,,,,,,,,,chance,59,30,silent,red,496.05934160016477,None,None,496.05934160016477,None,,,,,,,,,,,,,,,,,,,,,,,,,,,,,,27,001,2023_Mar_27_1152,ExactRep-v3-final,2021.2.3,59.92541683035127,
,,,,,,,,30,0,30,0,,,,,,,,,,,,,,,,,,,,,,,,,,,,,,,,,,,,,,,,,,,,,,,,,,,,,500.5762066002935,None,,,,,,,,,,,,,,,,,,,,,,,,,,,,,,,,,,,glory,70,31,silent,red,498.57420910010114,None,None,498.57420910010114,None,,,,,,,,,,,,,,,,,,,,,,,,,,,,,,27,001,2023_Mar_27_1152,ExactRep-v3-final,2021.2.3,59.92541683035127,
,,,,,,,,31,0,31,0,,,,,,,,,,,,,,,,,,,,,,,,,,,,,,,,,,,,,,,,,,,,,,,,,,,,,503.078789500054,None,,,,,,,,,,,,,,,,,,,,,,,,,,,,,,,,,,,shadow,55,32,silent,red,501.07664140034467,None,None,501.07664140034467,None,,,,,,,,,,,,,,,,,,,,,,,,,,,,,,27,001,2023_Mar_27_1152,ExactRep-v3-final,2021.2.3,59.92541683035127,
,,,,,,,,32,0,32,0,,,,,,,,,,,,,,,,,,,,,,,,,,,,,,,,,,,,,,,,,,,,,,,,,,,,,505.5812871004455,None,,,,,,,,,,,,,,,,,,,,,,,,,,,,,,,,,,,maiden,48,33,silent,red,503.57947030011564,None,None,503.57947030011564,None,,,,,,,,,,,,,,,,,,,,,,,,,,,,,,27,001,2023_Mar_27_1152,ExactRep-v3-final,2021.2.3,59.92541683035127,
,,,,,,,,33,0,33,0,,,,,,,,,,,,,,,,,,,,,,,,,,,,,,,,,,,,,,,,,,,,,,,,,,,,,508.08376880036667,None,,,,,,,,,,,,,,,,,,,,,,,,,,,,,,,,,,,tool,102,34,aloud,blue,506.0836205002852,None,None,506.0836205002852,None,,,,,,,,,,,,,,,,,,,,,,,,,,,,,,27,001,2023_Mar_27_1152,ExactRep-v3-final,2021.2.3,59.92541683035127,
,,,,,,,,34,0,34,0,,,,,,,,,,,,,,,,,,,,,,,,,,,,,,,,,,,,,,,,,,,,,,,,,,,,,510.60299970023334,None,,,,,,,,,,,,,,,,,,,,,,,,,,,,,,,,,,,cotton,19,35,sing,white,508.593962199986,None,None,508.593962199986,None,,,,,,,,,,,,,,,,,,,,,,,,,,,,,,27,001,2023_Mar_27_1152,ExactRep-v3-final,2021.2.3,59.92541683035127,
,,,,,,,,35,0,35,0,,,,,,,,,,,,,,,,,,,,,,,,,,,,,,,,,,,,,,,,,,,,,,,,,,,,,513.1055219001137,None,,,,,,,,,,,,,,,,,,,,,,,,,,,,,,,,,,,amount,20,36,sing,white,511.1047477000393,None,None,511.1047477000393,None,,,,,,,,,,,,,,,,,,,,,,,,,,,,,,27,001,2023_Mar_27_1152,ExactRep-v3-final,2021.2.3,59.92541683035127,
,,,,,,,,36,0,36,0,,,,,,,,,,,,,,,,,,,,,,,,,,,,,,,,,,,,,,,,,,,,,,,,,,,,,515.6080313003622,None,,,,,,,,,,,,,,,,,,,,,,,,,,,,,,,,,,,meeting,43,37,silent,red,513.6090431003831,None,None,513.6090431003831,None,,,,,,,,,,,,,,,,,,,,,,,,,,,,,,27,001,2023_Mar_27_1152,ExactRep-v3-final,2021.2.3,59.92541683035127,
,,,,,,,,37,0,37,0,,,,,,,,,,,,,,,,,,,,,,,,,,,,,,,,,,,,,,,,,,,,,,,,,,,,,518.1105031003244,None,,,,,,,,,,,,,,,,,,,,,,,,,,,,,,,,,,,fortune,80,38,aloud,blue,516.1104562003165,None,None,516.1104562003165,None,,,,,,,,,,,,,,,,,,,,,,,,,,,,,,27,001,2023_Mar_27_1152,ExactRep-v3-final,2021.2.3,59.92541683035127,
,,,,,,,,38,0,38,0,,,,,,,,,,,,,,,,,,,,,,,,,,,,,,,,,,,,,,,,,,,,,,,,,,,,,520.613008600194,None,,,,,,,,,,,,,,,,,,,,,,,,,,,,,,,,,,,form,37,39,sing,white,518.6132423002273,None,None,518.6132423002273,None,,,,,,,,,,,,,,,,,,,,,,,,,,,,,,27,001,2023_Mar_27_1152,ExactRep-v3-final,2021.2.3,59.92541683035127,
,,,,,,,,39,0,39,0,,,,,,,,,,,,,,,,,,,,,,,,,,,,,,,,,,,,,,,,,,,,,,,,,,,,,523.1155149000697,None,,,,,,,,,,,,,,,,,,,,,,,,,,,,,,,,,,,letter,66,40,silent,red,521.1156323002651,None,None,521.1156323002651,None,,,,,,,,,,,,,,,,,,,,,,,,,,,,,,27,001,2023_Mar_27_1152,ExactRep-v3-final,2021.2.3,59.92541683035127,
,,,,,,,,40,0,40,0,,,,,,,,,,,,,,,,,,,,,,,,,,,,,,,,,,,,,,,,,,,,,,,,,,,,,525.6347317001782,None,,,,,,,,,,,,,,,,,,,,,,,,,,,,,,,,,,,market,10,41,sing,white,523.6265874002129,None,None,523.6265874002129,None,,,,,,,,,,,,,,,,,,,,,,,,,,,,,,27,001,2023_Mar_27_1152,ExactRep-v3-final,2021.2.3,59.92541683035127,
,,,,,,,,41,0,41,0,,,,,,,,,,,,,,,,,,,,,,,,,,,,,,,,,,,,,,,,,,,,,,,,,,,,,528.153804700356,None,,,,,,,,,,,,,,,,,,,,,,,,,,,,,,,,,,,excuse,97,42,aloud,blue,526.1393194003031,None,None,526.1393194003031,None,,,,,,,,,,,,,,,,,,,,,,,,,,,,,,27,001,2023_Mar_27_1152,ExactRep-v3-final,2021.2.3,59.92541683035127,
,,,,,,,,42,0,42,0,,,,,,,,,,,,,,,,,,,,,,,,,,,,,,,,,,,,,,,,,,,,,,,,,,,,,530.6564868004061,None,,,,,,,,,,,,,,,,,,,,,,,,,,,,,,,,,,,effort,17,43,sing,white,528.6544376001693,None,None,528.6544376001693,None,,,,,,,,,,,,,,,,,,,,,,,,,,,,,,27,001,2023_Mar_27_1152,ExactRep-v3-final,2021.2.3,59.92541683035127,
,,,,,,,,43,0,43,0,,,,,,,,,,,,,,,,,,,,,,,,,,,,,,,,,,,,,,,,,,,,,,,,,,,,,533.1754846000113,None,,,,,,,,,,,,,,,,,,,,,,,,,,,,,,,,,,,science,6,44,sing,white,531.1622092002071,None,None,531.1622092002071,None,,,,,,,,,,,,,,,,,,,,,,,,,,,,,,27,001,2023_Mar_27_1152,ExactRep-v3-final,2021.2.3,59.92541683035127,
,,,,,,,,44,0,44,0,,,,,,,,,,,,,,,,,,,,,,,,,,,,,,,,,,,,,,,,,,,,,,,,,,,,,535.6781053002924,None,,,,,,,,,,,,,,,,,,,,,,,,,,,,,,,,,,,bowl,96,45,aloud,blue,533.6760158003308,None,None,533.6760158003308,None,,,,,,,,,,,,,,,,,,,,,,,,,,,,,,27,001,2023_Mar_27_1152,ExactRep-v3-final,2021.2.3,59.92541683035127,
,,,,,,,,45,0,45,0,,,,,,,,,,,,,,,,,,,,,,,,,,,,,,,,,,,,,,,,,,,,,,,,,,,,,538.180686400272,None,,,,,,,,,,,,,,,,,,,,,,,,,,,,,,,,,,,troops,21,46,sing,white,536.180455100257,None,None,536.180455100257,None,,,,,,,,,,,,,,,,,,,,,,,,,,,,,,27,001,2023_Mar_27_1152,ExactRep-v3-final,2021.2.3,59.92541683035127,
,,,,,,,,46,0,46,0,,,,,,,,,,,,,,,,,,,,,,,,,,,,,,,,,,,,,,,,,,,,,,,,,,,,,540.6831096000969,None,,,,,,,,,,,,,,,,,,,,,,,,,,,,,,,,,,,avenue,95,47,aloud,blue,538.6840100004338,None,None,538.6840100004338,None,,,,,,,,,,,,,,,,,,,,,,,,,,,,,,27,001,2023_Mar_27_1152,ExactRep-v3-final,2021.2.3,59.92541683035127,
,,,,,,,,47,0,47,0,,,,,,,,,,,,,,,,,,,,,,,,,,,,,,,,,,,,,,,,,,,,,,,,,,,,,543.1854758001864,None,,,,,,,,,,,,,,,,,,,,,,,,,,,,,,,,,,,money,31,48,sing,white,541.1854016003199,None,None,541.1854016003199,None,,,,,,,,,,,,,,,,,,,,,,,,,,,,,,27,001,2023_Mar_27_1152,ExactRep-v3-final,2021.2.3,59.92541683035127,
,,,,,,,,48,0,48,0,,,,,,,,,,,,,,,,,,,,,,,,,,,,,,,,,,,,,,,,,,,,,,,,,,,,,545.6879662000574,None,,,,,,,,,,,,,,,,,,,,,,,,,,,,,,,,,,,table,89,49,aloud,blue,543.6864100000821,None,None,543.6864100000821,None,,,,,,,,,,,,,,,,,,,,,,,,,,,,,,27,001,2023_Mar_27_1152,ExactRep-v3-final,2021.2.3,59.92541683035127,
,,,,,,,,49,0,49,0,,,,,,,,,,,,,,,,,,,,,,,,,,,,,,,,,,,,,,,,,,,,,,,,,,,,,548.1904494003393,None,,,,,,,,,,,,,,,,,,,,,,,,,,,,,,,,,,,world,90,50,aloud,blue,546.1896811001934,None,None,546.1896811001934,None,,,,,,,,,,,,,,,,,,,,,,,,,,,,,,27,001,2023_Mar_27_1152,ExactRep-v3-final,2021.2.3,59.92541683035127,
,,,,,,,,50,0,50,0,,,,,,,,,,,,,,,,,,,,,,,,,,,,,,,,,,,,,,,,,,,,,,,,,,,,,550.7097835000604,None,,,,,,,,,,,,,,,,,,,,,,,,,,,,,,,,,,,forest,79,51,sing,white,548.6976928003132,None,None,548.6976928003132,None,,,,,,,,,,,,,,,,,,,,,,,,,,,,,,27,001,2023_Mar_27_1152,ExactRep-v3-final,2021.2.3,59.92541683035127,
,,,,,,,,51,0,51,0,,,,,,,,,,,,,,,,,,,,,,,,,,,,,,,,,,,,,,,,,,,,,,,,,,,,,553.2123217000626,None,,,,,,,,,,,,,,,,,,,,,,,,,,,,,,,,,,,safety,56,52,silent,red,551.2113474002108,None,None,551.2113474002108,None,,,,,,,,,,,,,,,,,,,,,,,,,,,,,,27,001,2023_Mar_27_1152,ExactRep-v3-final,2021.2.3,59.92541683035127,
,,,,,,,,52,0,52,0,,,,,,,,,,,,,,,,,,,,,,,,,,,,,,,,,,,,,,,,,,,,,,,,,,,,,555.7148040002212,None,,,,,,,,,,,,,,,,,,,,,,,,,,,,,,,,,,,colony,12,53,sing,white,553.7160093002021,None,None,553.7160093002021,None,,,,,,,,,,,,,,,,,,,,,,,,,,,,,,27,001,2023_Mar_27_1152,ExactRep-v3-final,2021.2.3,59.92541683035127,
,,,,,,,,53,0,53,0,,,,,,,,,,,,,,,,,,,,,,,,,,,,,,,,,,,,,,,,,,,,,,,,,,,,,558.2171793002635,None,,,,,,,,,,,,,,,,,,,,,,,,,,,,,,,,,,,cabin,85,54,aloud,blue,556.2171702003106,None,None,556.2171702003106,None,,,,,,,,,,,,,,,,,,,,,,,,,,,,,,27,001,2023_Mar_27_1152,ExactRep-v3-final,2021.2.3,59.92541683035127,
,,,,,,,,54,0,54,0,,,,,,,,,,,,,,,,,,,,,,,,,,,,,,,,,,,,,,,,,,,,,,,,,,,,,560.7364390003495,None,,,,,,,,,,,,,,,,,,,,,,,,,,,,,,,,,,,volume,103,55,aloud,blue,558.7248412002809,None,None,558.7248412002809,None,,,,,,,,,,,,,,,,,,,,,,,,,,,,,,27,001,2023_Mar_27_1152,ExactRep-v3-final,2021.2.3,59.92541683035127,
,,,,,,,,55,0,55,0,,,,,,,,,,,,,,,,,,,,,,,,,,,,,,,,,,,,,,,,,,,,,,,,,,,,,563.2557101002894,None,,,,,,,,,,,,,,,,,,,,,,,,,,,,,,,,,,,style,16,56,sing,white,561.2408762001432,None,None,561.2408762001432,None,,,,,,,,,,,,,,,,,,,,,,,,,,,,,,27,001,2023_Mar_27_1152,ExactRep-v3-final,2021.2.3,59.92541683035127,
,,,,,,,,56,0,56,0,,,,,,,,,,,,,,,,,,,,,,,,,,,,,,,,,,,,,,,,,,,,,,,,,,,,,565.7579976003617,None,,,,,,,,,,,,,,,,,,,,,,,,,,,,,,,,,,,doll,50,57,silent,red,563.7589529003017,None,None,563.7589529003017,None,,,,,,,,,,,,,,,,,,,,,,,,,,,,,,27,001,2023_Mar_27_1152,ExactRep-v3-final,2021.2.3,59.92541683035127,
,,,,,,,,57,0,57,0,,,,,,,,,,,,,,,,,,,,,,,,,,,,,,,,,,,,,,,,,,,,,,,,,,,,,568.2772028003819,None,,,,,,,,,,,,,,,,,,,,,,,,,,,,,,,,,,,doctor,8,58,sing,white,566.2629437004216,None,None,566.2629437004216,None,,,,,,,,,,,,,,,,,,,,,,,,,,,,,,27,001,2023_Mar_27_1152,ExactRep-v3-final,2021.2.3,59.92541683035127,
,,,,,,,,58,0,58,0,,,,,,,,,,,,,,,,,,,,,,,,,,,,,,,,,,,,,,,,,,,,,,,,,,,,,570.779811900109,None,,,,,,,,,,,,,,,,,,,,,,,,,,,,,,,,,,,earth,93,59,aloud,blue,568.7786651002243,None,None,568.7786651002243,None,,,,,,,,,,,,,,,,,,,,,,,,,,,,,,27,001,2023_Mar_27_1152,ExactRep-v3-final,2021.2.3,59.92541683035127,
,,,,,,,,59,0,59,0,,,,,,,,,,,,,,,,,,,,,,,,,,,,,,,,,,,,,,,,,,,,,,,,,,,,,573.2823383002542,None,,,,,,,,,,,,,,,,,,,,,,,,,,,,,,,,,,,plain,67,60,silent,red,571.2819044003263,None,None,571.2819044003263,None,,,,,,,,,,,,,,,,,,,,,,,,,,,,,,27,001,2023_Mar_27_1152,ExactRep-v3-final,2021.2.3,59.92541683035127,
,,,,,,,,60,0,60,0,,,,,,,,,,,,,,,,,,,,,,,,,,,,,,,,,,,,,,,,,,,,,,,,,,,,,575.7847877000459,None,,,,,,,,,,,,,,,,,,,,,,,,,,,,,,,,,,,victory,94,61,aloud,blue,573.784470200073,None,None,573.784470200073,None,,,,,,,,,,,,,,,,,,,,,,,,,,,,,,27,001,2023_Mar_27_1152,ExactRep-v3-final,2021.2.3,59.92541683035127,
,,,,,,,,61,0,61,0,,,,,,,,,,,,,,,,,,,,,,,,,,,,,,,,,,,,,,,,,,,,,,,,,,,,,578.2873397003859,None,,,,,,,,,,,,,,,,,,,,,,,,,,,,,,,,,,,palace,118,62,aloud,blue,576.2851863000542,None,None,576.2851863000542,None,,,,,,,,,,,,,,,,,,,,,,,,,,,,,,27,001,2023_Mar_27_1152,ExactRep-v3-final,2021.2.3,59.92541683035127,
,,,,,,,,62,0,62,0,,,,,,,,,,,,,,,,,,,,,,,,,,,,,,,,,,,,,,,,,,,,,,,,,,,,,580.8064457001165,None,,,,,,,,,,,,,,,,,,,,,,,,,,,,,,,,,,,arm,105,63,aloud,blue,578.7936920002103,None,None,578.7936920002103,None,,,,,,,,,,,,,,,,,,,,,,,,,,,,,,27,001,2023_Mar_27_1152,ExactRep-v3-final,2021.2.3,59.92541683035127,
,,,,,,,,63,0,63,0,,,,,,,,,,,,,,,,,,,,,,,,,,,,,,,,,,,,,,,,,,,,,,,,,,,,,583.3267604000866,None,,,,,,,,,,,,,,,,,,,,,,,,,,,,,,,,,,,meat,3,64,sing,white,581.3117442000657,None,None,581.3117442000657,None,,,,,,,,,,,,,,,,,,,,,,,,,,,,,,27,001,2023_Mar_27_1152,ExactRep-v3-final,2021.2.3,59.92541683035127,
,,,,,,,,64,0,64,0,,,,,,,,,,,,,,,,,,,,,,,,,,,,,,,,,,,,,,,,,,,,,,,,,,,,,585.8281184001826,None,,,,,,,,,,,,,,,,,,,,,,,,,,,,,,,,,,,animal,54,65,silent,red,583.8283058004454,None,None,583.8283058004454,None,,,,,,,,,,,,,,,,,,,,,,,,,,,,,,27,001,2023_Mar_27_1152,ExactRep-v3-final,2021.2.3,59.92541683035127,
,,,,,,,,65,0,65,0,,,,,,,,,,,,,,,,,,,,,,,,,,,,,,,,,,,,,,,,,,,,,,,,,,,,,588.3307231003419,None,,,,,,,,,,,,,,,,,,,,,,,,,,,,,,,,,,,plant,113,66,aloud,blue,586.3285738001578,None,None,586.3285738001578,None,,,,,,,,,,,,,,,,,,,,,,,,,,,,,,27,001,2023_Mar_27_1152,ExactRep-v3-final,2021.2.3,59.92541683035127,
,,,,,,,,66,0,66,0,,,,,,,,,,,,,,,,,,,,,,,,,,,,,,,,,,,,,,,,,,,,,,,,,,,,,590.8496912000701,None,,,,,,,,,,,,,,,,,,,,,,,,,,,,,,,,,,,speech,9,67,sing,white,588.8342857002281,None,None,588.8342857002281,None,,,,,,,,,,,,,,,,,,,,,,,,,,,,,,27,001,2023_Mar_27_1152,ExactRep-v3-final,2021.2.3,59.92541683035127,
,,,,,,,,67,0,67,0,,,,,,,,,,,,,,,,,,,,,,,,,,,,,,,,,,,,,,,,,,,,,,,,,,,,,593.3525932002813,None,,,,,,,,,,,,,,,,,,,,,,,,,,,,,,,,,,,kiss,14,68,sing,white,591.3502419004217,None,None,591.3502419004217,None,,,,,,,,,,,,,,,,,,,,,,,,,,,,,,27,001,2023_Mar_27_1152,ExactRep-v3-final,2021.2.3,59.92541683035127,
,,,,,,,,68,0,68,0,,,,,,,,,,,,,,,,,,,,,,,,,,,,,,,,,,,,,,,,,,,,,,,,,,,,,595.8721668003127,None,,,,,,,,,,,,,,,,,,,,,,,,,,,,,,,,,,,answer,30,69,sing,white,593.8564502000809,None,None,593.8564502000809,None,,,,,,,,,,,,,,,,,,,,,,,,,,,,,,27,001,2023_Mar_27_1152,ExactRep-v3-final,2021.2.3,59.92541683035127,
,,,,,,,,69,0,69,0,,,,,,,,,,,,,,,,,,,,,,,,,,,,,,,,,,,,,,,,,,,,,,,,,,,,,598.3740670001134,None,,,,,,,,,,,,,,,,,,,,,,,,,,,,,,,,,,,gold,15,70,sing,white,596.3719245004468,None,None,596.3719245004468,None,,,,,,,,,,,,,,,,,,,,,,,,,,,,,,27,001,2023_Mar_27_1152,ExactRep-v3-final,2021.2.3,59.92541683035127,
,,,,,,,,70,0,70,0,,,,,,,,,,,,,,,,,,,,,,,,,,,,,,,,,,,,,,,,,,,,,,,,,,,,,600.8765818001702,None,,,,,,,,,,,,,,,,,,,,,,,,,,,,,,,,,,,potato,4,71,sing,white,598.8753394000232,None,None,598.8753394000232,None,,,,,,,,,,,,,,,,,,,,,,,,,,,,,,27,001,2023_Mar_27_1152,ExactRep-v3-final,2021.2.3,59.92541683035127,
,,,,,,,,71,0,71,0,,,,,,,,,,,,,,,,,,,,,,,,,,,,,,,,,,,,,,,,,,,,,,,,,,,,,603.395657800138,None,,,,,,,,,,,,,,,,,,,,,,,,,,,,,,,,,,,sea,46,72,silent,red,601.38608700037,None,None,601.38608700037,None,,,,,,,,,,,,,,,,,,,,,,,,,,,,,,27,001,2023_Mar_27_1152,ExactRep-v3-final,2021.2.3,59.92541683035127,
,,,,,,,,72,0,72,0,,,,,,,,,,,,,,,,,,,,,,,,,,,,,,,,,,,,,,,,,,,,,,,,,,,,,605.8982866001315,None,,,,,,,,,,,,,,,,,,,,,,,,,,,,,,,,,,,slave,88,73,aloud,blue,603.896155200433,None,None,603.896155200433,None,,,,,,,,,,,,,,,,,,,,,,,,,,,,,,27,001,2023_Mar_27_1152,ExactRep-v3-final,2021.2.3,59.92541683035127,
,,,,,,,,73,0,73,0,,,,,,,,,,,,,,,,,,,,,,,,,,,,,,,,,,,,,,,,,,,,,,,,,,,,,608.4008170003071,None,,,,,,,,,,,,,,,,,,,,,,,,,,,,,,,,,,,pupil,115,74,aloud,blue,606.4003089000471,None,None,606.4003089000471,None,,,,,,,,,,,,,,,,,,,,,,,,,,,,,,27,001,2023_Mar_27_1152,ExactRep-v3-final,2021.2.3,59.92541683035127,
,,,,,,,,74,0,74,0,,,,,,,,,,,,,,,,,,,,,,,,,,,,,,,,,,,,,,,,,,,,,,,,,,,,,610.9198906002566,None,,,,,,,,,,,,,,,,,,,,,,,,,,,,,,,,,,,dollar,61,75,silent,red,608.9044906003401,None,None,608.9044906003401,None,,,,,,,,,,,,,,,,,,,,,,,,,,,,,,27,001,2023_Mar_27_1152,ExactRep-v3-final,2021.2.3,59.92541683035127,
,,,,,,,,75,0,75,0,,,,,,,,,,,,,,,,,,,,,,,,,,,,,,,,,,,,,,,,,,,,,,,,,,,,,613.4226281000301,None,,,,,,,,,,,,,,,,,,,,,,,,,,,,,,,,,,,window,34,76,sing,white,611.420364800375,None,None,611.420364800375,None,,,,,,,,,,,,,,,,,,,,,,,,,,,,,,27,001,2023_Mar_27_1152,ExactRep-v3-final,2021.2.3,59.92541683035127,
,,,,,,,,76,0,76,0,,,,,,,,,,,,,,,,,,,,,,,,,,,,,,,,,,,,,,,,,,,,,,,,,,,,,615.9435966000892,None,,,,,,,,,,,,,,,,,,,,,,,,,,,,,,,,,,,grass,22,77,sing,white,613.9312123004347,None,None,613.9312123004347,None,,,,,,,,,,,,,,,,,,,,,,,,,,,,,,27,001,2023_Mar_27_1152,ExactRep-v3-final,2021.2.3,59.92541683035127,
,,,,,,,,77,0,77,0,,,,,,,,,,,,,,,,,,,,,,,,,,,,,,,,,,,,,,,,,,,,,,,,,,,,,618.4441920001991,None,,,,,,,,,,,,,,,,,,,,,,,,,,,,,,,,,,,king,24,78,sing,white,616.4419586001895,None,None,616.4419586001895,None,,,,,,,,,,,,,,,,,,,,,,,,,,,,,,27,001,2023_Mar_27_1152,ExactRep-v3-final,2021.2.3,59.92541683035127,
,,,,,,,,78,0,78,0,,,,,,,,,,,,,,,,,,,,,,,,,,,,,,,,,,,,,,,,,,,,,,,,,,,,,620.9466850003228,None,,,,,,,,,,,,,,,,,,,,,,,,,,,,,,,,,,,event,7,79,sing,white,618.9465742004104,None,None,618.9465742004104,None,,,,,,,,,,,,,,,,,,,,,,,,,,,,,,27,001,2023_Mar_27_1152,ExactRep-v3-final,2021.2.3,59.92541683035127,
,,,,,,,,79,0,79,0,,,,,,,,,,,,,,,,,,,,,,,,,,,,,,,,,,,,,,,,,,,,,,,,,,,,,623.449178900104,None,,,,,,,,,,,,,,,,,,,,,,,,,,,,,,,,,,,coffee,78,80,silent,red,621.4501581001095,None,None,621.4501581001095,None,,,,,,,,,,,,,,,,,,,,,,,,,,,,,,27,001,2023_Mar_27_1152,ExactRep-v3-final,2021.2.3,59.92541683035127,
,,,,,,,,80,0,80,0,,,,,,,,,,,,,,,,,,,,,,,,,,,,,,,,,,,,,,,,,,,,,,,,,,,,,625.968255800195,None,,,,,,,,,,,,,,,,,,,,,,,,,,,,,,,,,,,journal,69,81,silent,red,623.956726200413,None,None,623.956726200413,None,,,,,,,,,,,,,,,,,,,,,,,,,,,,,,27,001,2023_Mar_27_1152,ExactRep-v3-final,2021.2.3,59.92541683035127,
,,,,,,,,81,0,81,0,,,,,,,,,,,,,,,,,,,,,,,,,,,,,,,,,,,,,,,,,,,,,,,,,,,,,628.470832800027,None,,,,,,,,,,,,,,,,,,,,,,,,,,,,,,,,,,,theory,0,82,sing,white,626.4686834001914,None,None,626.4686834001914,None,,,,,,,,,,,,,,,,,,,,,,,,,,,,,,27,001,2023_Mar_27_1152,ExactRep-v3-final,2021.2.3,59.92541683035127,
,,,,,,,,82,0,82,0,,,,,,,,,,,,,,,,,,,,,,,,,,,,,,,,,,,,,,,,,,,,,,,,,,,,,630.9733342002146,None,,,,,,,,,,,,,,,,,,,,,,,,,,,,,,,,,,,lake,13,83,sing,white,628.9720711000264,None,None,628.9720711000264,None,,,,,,,,,,,,,,,,,,,,,,,,,,,,,,27,001,2023_Mar_27_1152,ExactRep-v3-final,2021.2.3,59.92541683035127,
,,,,,,,,83,0,83,0,,,,,,,,,,,,,,,,,,,,,,,,,,,,,,,,,,,,,,,,,,,,,,,,,,,,,633.492415800225,None,,,,,,,,,,,,,,,,,,,,,,,,,,,,,,,,,,,clock,25,84,sing,white,631.4774790001102,None,None,631.4774790001102,None,,,,,,,,,,,,,,,,,,,,,,,,,,,,,,27,001,2023_Mar_27_1152,ExactRep-v3-final,2021.2.3,59.92541683035127,
,,,,,,,,84,0,84,0,,,,,,,,,,,,,,,,,,,,,,,,,,,,,,,,,,,,,,,,,,,,,,,,,,,,,635.9950360003859,None,,,,,,,,,,,,,,,,,,,,,,,,,,,,,,,,,,,party,1,85,sing,white,633.9929278003983,None,None,633.9929278003983,None,,,,,,,,,,,,,,,,,,,,,,,,,,,,,,27,001,2023_Mar_27_1152,ExactRep-v3-final,2021.2.3,59.92541683035127,
,,,,,,,,85,0,85,0,,,,,,,,,,,,,,,,,,,,,,,,,,,,,,,,,,,,,,,,,,,,,,,,,,,,,638.4988854001276,None,,,,,,,,,,,,,,,,,,,,,,,,,,,,,,,,,,,factory,49,86,silent,red,636.4984719003551,None,None,636.4984719003551,None,,,,,,,,,,,,,,,,,,,,,,,,,,,,,,27,001,2023_Mar_27_1152,ExactRep-v3-final,2021.2.3,59.92541683035127,
,,,,,,,,86,0,86,0,,,,,,,,,,,,,,,,,,,,,,,,,,,,,,,,,,,,,,,,,,,,,,,,,,,,,641.0000340002589,None,,,,,,,,,,,,,,,,,,,,,,,,,,,,,,,,,,,pole,107,87,aloud,blue,638.998135200236,None,None,638.998135200236,None,,,,,,,,,,,,,,,,,,,,,,,,,,,,,,27,001,2023_Mar_27_1152,ExactRep-v3-final,2021.2.3,59.92541683035127,
,,,,,,,,87,0,87,0,,,,,,,,,,,,,,,,,,,,,,,,,,,,,,,,,,,,,,,,,,,,,,,,,,,,,643.502628300339,None,,,,,,,,,,,,,,,,,,,,,,,,,,,,,,,,,,,life,73,88,silent,red,641.5005617002025,None,None,641.5005617002025,None,,,,,,,,,,,,,,,,,,,,,,,,,,,,,,27,001,2023_Mar_27_1152,ExactRep-v3-final,2021.2.3,59.92541683035127,
,,,,,,,,88,0,88,0,,,,,,,,,,,,,,,,,,,,,,,,,,,,,,,,,,,,,,,,,,,,,,,,,,,,,646.0052389004268,None,,,,,,,,,,,,,,,,,,,,,,,,,,,,,,,,,,,sugar,26,89,sing,white,644.0050118002109,None,None,644.0050118002109,None,,,,,,,,,,,,,,,,,,,,,,,,,,,,,,27,001,2023_Mar_27_1152,ExactRep-v3-final,2021.2.3,59.92541683035127,
,,,,,,,,89,0,89,0,,,,,,,,,,,,,,,,,,,,,,,,,,,,,,,,,,,,,,,,,,,,,,,,,,,,,648.507432400249,None,,,,,,,,,,,,,,,,,,,,,,,,,,,,,,,,,,,seat,65,90,silent,red,646.5054363003001,None,None,646.5054363003001,None,,,,,,,,,,,,,,,,,,,,,,,,,,,,,,27,001,2023_Mar_27_1152,ExactRep-v3-final,2021.2.3,59.92541683035127,
,,,,,,,,90,0,90,0,,,,,,,,,,,,,,,,,,,,,,,,,,,,,,,,,,,,,,,,,,,,,,,,,,,,,651.0266067003831,None,,,,,,,,,,,,,,,,,,,,,,,,,,,,,,,,,,,corn,45,91,silent,red,649.0142471003346,None,None,649.0142471003346,None,,,,,,,,,,,,,,,,,,,,,,,,,,,,,,27,001,2023_Mar_27_1152,ExactRep-v3-final,2021.2.3,59.92541683035127,
,,,,,,,,91,0,91,0,,,,,,,,,,,,,,,,,,,,,,,,,,,,,,,,,,,,,,,,,,,,,,,,,,,,,653.5293900002725,None,,,,,,,,,,,,,,,,,,,,,,,,,,,,,,,,,,,gift,77,92,silent,red,651.5271417000331,None,None,651.5271417000331,None,,,,,,,,,,,,,,,,,,,,,,,,,,,,,,27,001,2023_Mar_27_1152,ExactRep-v3-final,2021.2.3,59.92541683035127,
,,,,,,,,92,0,92,0,,,,,,,,,,,,,,,,,,,,,,,,,,,,,,,,,,,,,,,,,,,,,,,,,,,,,656.0319087002426,None,,,,,,,,,,,,,,,,,,,,,,,,,,,,,,,,,,,season,108,93,aloud,blue,654.0296079004183,None,None,654.0296079004183,None,,,,,,,,,,,,,,,,,,,,,,,,,,,,,,27,001,2023_Mar_27_1152,ExactRep-v3-final,2021.2.3,59.92541683035127,
,,,,,,,,93,0,93,0,,,,,,,,,,,,,,,,,,,,,,,,,,,,,,,,,,,,,,,,,,,,,,,,,,,,,658.5343226999976,None,,,,,,,,,,,,,,,,,,,,,,,,,,,,,,,,,,,fact,110,94,aloud,blue,656.533011100255,None,None,656.533011100255,None,,,,,,,,,,,,,,,,,,,,,,,,,,,,,,27,001,2023_Mar_27_1152,ExactRep-v3-final,2021.2.3,59.92541683035127,
,,,,,,,,94,0,94,0,,,,,,,,,,,,,,,,,,,,,,,,,,,,,,,,,,,,,,,,,,,,,,,,,,,,,661.0535123003647,None,,,,,,,,,,,,,,,,,,,,,,,,,,,,,,,,,,,coast,75,95,silent,red,659.038336200174,None,None,659.038336200174,None,,,,,,,,,,,,,,,,,,,,,,,,,,,,,,27,001,2023_Mar_27_1152,ExactRep-v3-final,2021.2.3,59.92541683035127,
,,,,,,,,95,0,95,0,,,,,,,,,,,,,,,,,,,,,,,,,,,,,,,,,,,,,,,,,,,,,,,,,,,,,663.5559507003054,None,,,,,,,,,,,,,,,,,,,,,,,,,,,,,,,,,,,bottle,86,96,aloud,blue,661.5539110000245,None,None,661.5539110000245,None,,,,,,,,,,,,,,,,,,,,,,,,,,,,,,27,001,2023_Mar_27_1152,ExactRep-v3-final,2021.2.3,59.92541683035127,
,,,,,,,,96,0,96,0,,,,,,,,,,,,,,,,,,,,,,,,,,,,,,,,,,,,,,,,,,,,,,,,,,,,,666.0585096003488,None,,,,,,,,,,,,,,,,,,,,,,,,,,,,,,,,,,,dust,11,97,sing,white,664.0568922003731,None,None,664.0568922003731,None,,,,,,,,,,,,,,,,,,,,,,,,,,,,,,27,001,2023_Mar_27_1152,ExactRep-v3-final,2021.2.3,59.92541683035127,
,,,,,,,,97,0,97,0,,,,,,,,,,,,,,,,,,,,,,,,,,,,,,,,,,,,,,,,,,,,,,,,,,,,,668.5774715002626,None,,,,,,,,,,,,,,,,,,,,,,,,,,,,,,,,,,,hotel,92,98,aloud,blue,666.5631143003702,None,None,666.5631143003702,None,,,,,,,,,,,,,,,,,,,,,,,,,,,,,,27,001,2023_Mar_27_1152,ExactRep-v3-final,2021.2.3,59.92541683035127,
,,,,,,,,98,0,98,0,,,,,,,,,,,,,,,,,,,,,,,,,,,,,,,,,,,,,,,,,,,,,,,,,,,,,671.0803993004374,None,,,,,,,,,,,,,,,,,,,,,,,,,,,,,,,,,,,cost,27,99,sing,white,669.0779941002838,None,None,669.0779941002838,None,,,,,,,,,,,,,,,,,,,,,,,,,,,,,,27,001,2023_Mar_27_1152,ExactRep-v3-final,2021.2.3,59.92541683035127,
,,,,,,,,99,0,99,0,,,,,,,,,,,,,,,,,,,,,,,,,,,,,,,,,,,,,,,,,,,,,,,,,,,,,673.5827789003961,None,,,,,,,,,,,,,,,,,,,,,,,,,,,,,,,,,,,ability,76,100,silent,red,671.5824494999833,None,None,671.5824494999833,None,,,,,,,,,,,,,,,,,,,,,,,,,,,,,,27,001,2023_Mar_27_1152,ExactRep-v3-final,2021.2.3,59.92541683035127,
,,,,,,,,100,0,100,0,,,,,,,,,,,,,,,,,,,,,,,,,,,,,,,,,,,,,,,,,,,,,,,,,,,,,676.0851456001401,None,,,,,,,,,,,,,,,,,,,,,,,,,,,,,,,,,,,ocean,29,101,sing,white,674.0847847000696,None,None,674.0847847000696,None,,,,,,,,,,,,,,,,,,,,,,,,,,,,,,27,001,2023_Mar_27_1152,ExactRep-v3-final,2021.2.3,59.92541683035127,
,,,,,,,,101,0,101,0,,,,,,,,,,,,,,,,,,,,,,,,,,,,,,,,,,,,,,,,,,,,,,,,,,,,,678.6043421002105,None,,,,,,,,,,,,,,,,,,,,,,,,,,,,,,,,,,,silence,119,102,aloud,blue,676.591656500008,None,None,676.591656500008,None,,,,,,,,,,,,,,,,,,,,,,,,,,,,,,27,001,2023_Mar_27_1152,ExactRep-v3-final,2021.2.3,59.92541683035127,
,,,,,,,,102,0,102,0,,,,,,,,,,,,,,,,,,,,,,,,,,,,,,,,,,,,,,,,,,,,,,,,,,,,,681.1233040001243,None,,,,,,,,,,,,,,,,,,,,,,,,,,,,,,,,,,,dress,63,103,silent,red,679.1115415003151,None,None,679.1115415003151,None,,,,,,,,,,,,,,,,,,,,,,,,,,,,,,27,001,2023_Mar_27_1152,ExactRep-v3-final,2021.2.3,59.92541683035127,
,,,,,,,,103,0,103,0,,,,,,,,,,,,,,,,,,,,,,,,,,,,,,,,,,,,,,,,,,,,,,,,,,,,,683.6258591003716,None,,,,,,,,,,,,,,,,,,,,,,,,,,,,,,,,,,,blood,39,104,silent,red,681.6240249001421,None,None,681.6240249001421,None,,,,,,,,,,,,,,,,,,,,,,,,,,,,,,27,001,2023_Mar_27_1152,ExactRep-v3-final,2021.2.3,59.92541683035127,
,,,,,,,,104,0,104,0,,,,,,,,,,,,,,,,,,,,,,,,,,,,,,,,,,,,,,,,,,,,,,,,,,,,,686.1285135000944,None,,,,,,,,,,,,,,,,,,,,,,,,,,,,,,,,,,,month,53,105,silent,red,684.1263571004383,None,None,684.1263571004383,None,,,,,,,,,,,,,,,,,,,,,,,,,,,,,,27,001,2023_Mar_27_1152,ExactRep-v3-final,2021.2.3,59.92541683035127,
,,,,,,,,105,0,105,0,,,,,,,,,,,,,,,,,,,,,,,,,,,,,,,,,,,,,,,,,,,,,,,,,,,,,688.6477312003262,None,,,,,,,,,,,,,,,,,,,,,,,,,,,,,,,,,,,coin,44,106,silent,red,686.6358492001891,None,None,686.6358492001891,None,,,,,,,,,,,,,,,,,,,,,,,,,,,,,,27,001,2023_Mar_27_1152,ExactRep-v3-final,2021.2.3,59.92541683035127,
,,,,,,,,106,0,106,0,,,,,,,,,,,,,,,,,,,,,,,,,,,,,,,,,,,,,,,,,,,,,,,,,,,,,691.1525130001828,None,,,,,,,,,,,,,,,,,,,,,,,,,,,,,,,,,,,square,99,107,aloud,blue,689.148288000375,None,None,689.148288000375,None,,,,,,,,,,,,,,,,,,,,,,,,,,,,,,27,001,2023_Mar_27_1152,ExactRep-v3-final,2021.2.3,59.92541683035127,
,,,,,,,,107,0,107,0,,,,,,,,,,,,,,,,,,,,,,,,,,,,,,,,,,,,,,,,,,,,,,,,,,,,,693.6860836003907,None,,,,,,,,,,,,,,,,,,,,,,,,,,,,,,,,,,,memory,60,108,silent,red,691.6708130002953,None,None,691.6708130002953,None,,,,,,,,,,,,,,,,,,,,,,,,,,,,,,27,001,2023_Mar_27_1152,ExactRep-v3-final,2021.2.3,59.92541683035127,
,,,,,,,,108,0,108,0,,,,,,,,,,,,,,,,,,,,,,,,,,,,,,,,,,,,,,,,,,,,,,,,,,,,,696.205155200325,None,,,,,,,,,,,,,,,,,,,,,,,,,,,,,,,,,,,circle,104,109,aloud,blue,694.1948676002212,None,None,694.1948676002212,None,,,,,,,,,,,,,,,,,,,,,,,,,,,,,,27,001,2023_Mar_27_1152,ExactRep-v3-final,2021.2.3,59.92541683035127,
,,,,,,,,109,0,109,0,,,,,,,,,,,,,,,,,,,,,,,,,,,,,,,,,,,,,,,,,,,,,,,,,,,,,698.7077864999883,None,,,,,,,,,,,,,,,,,,,,,,,,,,,,,,,,,,,hour,32,110,sing,white,696.7056696000509,None,None,696.7056696000509,None,,,,,,,,,,,,,,,,,,,,,,,,,,,,,,27,001,2023_Mar_27_1152,ExactRep-v3-final,2021.2.3,59.92541683035127,
,,,,,,,,110,0,110,0,,,,,,,,,,,,,,,,,,,,,,,,,,,,,,,,,,,,,,,,,,,,,,,,,,,,,701.2102904003114,None,,,,,,,,,,,,,,,,,,,,,,,,,,,,,,,,,,,friend,40,111,silent,red,699.2112490003929,None,None,699.2112490003929,None,,,,,,,,,,,,,,,,,,,,,,,,,,,,,,27,001,2023_Mar_27_1152,ExactRep-v3-final,2021.2.3,59.92541683035127,
,,,,,,,,111,0,111,0,,,,,,,,,,,,,,,,,,,,,,,,,,,,,,,,,,,,,,,,,,,,,,,,,,,,,703.712776100263,None,,,,,,,,,,,,,,,,,,,,,,,,,,,,,,,,,,,insect,68,112,silent,red,701.7110177003779,None,None,701.7110177003779,None,,,,,,,,,,,,,,,,,,,,,,,,,,,,,,27,001,2023_Mar_27_1152,ExactRep-v3-final,2021.2.3,59.92541683035127,
,,,,,,,,112,0,112,0,,,,,,,,,,,,,,,,,,,,,,,,,,,,,,,,,,,,,,,,,,,,,,,,,,,,,706.2153412001207,None,,,,,,,,,,,,,,,,,,,,,,,,,,,,,,,,,,,fur,64,113,silent,red,704.2155983000994,None,None,704.2155983000994,None,,,,,,,,,,,,,,,,,,,,,,,,,,,,,,27,001,2023_Mar_27_1152,ExactRep-v3-final,2021.2.3,59.92541683035127,
,,,,,,,,113,0,113,0,,,,,,,,,,,,,,,,,,,,,,,,,,,,,,,,,,,,,,,,,,,,,,,,,,,,,708.7343275002204,None,,,,,,,,,,,,,,,,,,,,,,,,,,,,,,,,,,,moment,57,114,silent,red,706.7194211003371,None,None,706.7194211003371,None,,,,,,,,,,,,,,,,,,,,,,,,,,,,,,27,001,2023_Mar_27_1152,ExactRep-v3-final,2021.2.3,59.92541683035127,
,,,,,,,,114,0,114,0,,,,,,,,,,,,,,,,,,,,,,,,,,,,,,,,,,,,,,,,,,,,,,,,,,,,,711.2373367003165,None,,,,,,,,,,,,,,,,,,,,,,,,,,,,,,,,,,,cat,112,115,aloud,blue,709.2349588000216,None,None,709.2349588000216,None,,,,,,,,,,,,,,,,,,,,,,,,,,,,,,27,001,2023_Mar_27_1152,ExactRep-v3-final,2021.2.3,59.92541683035127,
,,,,,,,,115,0,115,0,,,,,,,,,,,,,,,,,,,,,,,,,,,,,,,,,,,,,,,,,,,,,,,,,,,,,713.7560741002671,None,,,,,,,,,,,,,,,,,,,,,,,,,,,,,,,,,,,child,51,116,silent,red,711.7457270002924,None,None,711.7457270002924,None,,,,,,,,,,,,,,,,,,,,,,,,,,,,,,27,001,2023_Mar_27_1152,ExactRep-v3-final,2021.2.3,59.92541683035127,
,,,,,,,,116,0,116,0,,,,,,,,,,,,,,,,,,,,,,,,,,,,,,,,,,,,,,,,,,,,,,,,,,,,,716.2585156001151,None,,,,,,,,,,,,,,,,,,,,,,,,,,,,,,,,,,,judge,5,117,sing,white,714.2565828002989,None,None,714.2565828002989,None,,,,,,,,,,,,,,,,,,,,,,,,,,,,,,27,001,2023_Mar_27_1152,ExactRep-v3-final,2021.2.3,59.92541683035127,
,,,,,,,,117,0,117,0,,,,,,,,,,,,,,,,,,,,,,,,,,,,,,,,,,,,,,,,,,,,,,,,,,,,,718.7777313003317,None,,,,,,,,,,,,,,,,,,,,,,,,,,,,,,,,,,,devil,62,118,silent,red,716.771226500161,None,None,716.771226500161,None,,,,,,,,,,,,,,,,,,,,,,,,,,,,,,27,001,2023_Mar_27_1152,ExactRep-v3-final,2021.2.3,59.92541683035127,
,,,,,,,,118,0,118,0,,,,,,,,,,,,,,,,,,,,,,,,,,,,,,,,,,,,,,,,,,,,,,,,,,,,,721.2804949004203,None,,,,,,,,,,,,,,,,,,,,,,,,,,,,,,,,,,,beast,114,119,aloud,blue,719.2783083003014,None,None,719.2783083003014,None,,,,,,,,,,,,,,,,,,,,,,,,,,,,,,27,001,2023_Mar_27_1152,ExactRep-v3-final,2021.2.3,59.92541683035127,
,,,,,,,,119,0,119,0,,,,,,,,,,,,,,,,,,,,,,,,,,,,,,,,,,,,,,,,,,,,,,,,,,,,,723.7828781004064,None,,,,,,,,,,,,,,,,,,,,,,,,,,,,,,,,,,,shore,116,120,aloud,blue,721.7813662001863,None,None,721.7813662001863,None,,,,,,,,,,,,,,,,,,,,,,,,,,,,,,27,001,2023_Mar_27_1152,ExactRep-v3-final,2021.2.3,59.92541683035127,
,,,,,,,,,,,,,,,,,,,,,,,,,,,,,,,,,,,,,,,,,,,,,,,,,,,,,,,,,,,,,,,,,,,,,,,,,,,,,,,,,,,,,,,,,,,,,,,,,,,,,,,,,,,,,,724.2848958000541,None,space,11.728157199919224,734.2611881000921,None,,,,,,,,,,,,,,,,,,,,,,,,27,001,2023_Mar_27_1152,ExactRep-v3-final,2021.2.3,59.92541683035127,
,,,,,,,,,,,,,,,,,,,,,,,,,,,,,,,,,,,,,,,,,,,,,,,,,,,,,,,,,,,,,,,,,,,,,,,,,,,,,,,,,,,,,,,,,,,,,,,,,,,,,,,,,,,,,,,,,,,,746.0068818000145,None,space,35.062304500024766,755.9831495000981,None,,,,,,,,,,,,,,,,,,27,001,2023_Mar_27_1152,ExactRep-v3-final,2021.2.3,59.92541683035127,
,,,,,,,,,,,,0,0,0,0,,,,,,,,,,,,,,,,,,,,,,,,,,,,,,,,,,,,,,,,,,,,,,,,,798.4072889001109,None,,,,,,,,,,,,,,,,,,,,,,,,,,,,,,,,,,,,,,,,,,,,,,,,,,,,,,,,,trouble,58,1,silent,old,red,791.5820325003006,None,n,791.5820325003006,None,"['n', 'return']","[4.286765600088984, 6.790865499991924]",791.5820325003006,None,,,27,001,2023_Mar_27_1152,ExactRep-v3-final,2021.2.3,59.92541683035127,
,,,,,,,,,,,,1,0,1,0,,,,,,,,,,,,,,,,,,,,,,,,,,,,,,,,,,,,,,,,,,,,,,,,,806.4988189004362,None,,,,,,,,,,,,,,,,,,,,,,,,,,,,,,,,,,,,,,,,,,,,,,,,,,,,,,,,,window,34,2,sing,old,white,798.9138528001495,None,y,798.9138528001495,None,"['y', 'return']","[6.083027600310743, 7.539155600126833]",798.9138528001495,None,,,27,001,2023_Mar_27_1152,ExactRep-v3-final,2021.2.3,59.92541683035127,
,,,,,,,,,,,,2,0,2,0,,,,,,,,,,,,,,,,,,,,,,,,,,,,,,,,,,,,,,,,,,,,,,,,,811.52039600024,None,,,,,,,,,,,,,,,,,,,,,,,,,,,,,,,,,,,,,,,,,,,,,,,,,,,,,,,,,coffee,78,3,silent,old,red,807.0058959000744,None,n,807.0058959000744,None,"['n', 'return']","[3.5830428996123374, 4.471074000000954]",807.0058959000744,None,,,27,001,2023_Mar_27_1152,ExactRep-v3-final,2021.2.3,59.92541683035127,
,,,,,,,,,,,,3,0,3,0,,,,,,,,,,,,,,,,,,,,,,,,,,,,,,,,,,,,,,,,,,,,,,,,,814.389997899998,None,,,,,,,,,,,,,,,,,,,,,,,,,,,,,,,,,,,,,,,,,,,,,,,,,,,,,,,,,judge,5,4,sing,old,white,812.0249869003892,None,y,812.0249869003892,None,"['y', 'return']","[1.5638971999287605, 2.3239782000891864]",812.0249869003892,None,,,27,001,2023_Mar_27_1152,ExactRep-v3-final,2021.2.3,59.92541683035127,
,,,,,,,,,,,,4,0,4,0,,,,,,,,,,,,,,,,,,,,,,,,,,,,,,,,,,,,,,,,,,,,,,,,,818.2606896003708,None,,,,,,,,,,,,,,,,,,,,,,,,,,,,,,,,,,,,,,,,,,,,,,,,,,,,,,,,,life,73,5,silent,old,red,814.8974348003976,None,n,814.8974348003976,None,"['n', 'return']","[2.6595442998223007, 3.3235181998461485]",814.8974348003976,None,,,27,001,2023_Mar_27_1152,ExactRep-v3-final,2021.2.3,59.92541683035127,
,,,,,,,,,,,,5,0,5,0,,,,,,,,,,,,,,,,,,,,,,,,,,,,,,,,,,,,,,,,,,,,,,,,,821.9977022004314,None,,,,,,,,,,,,,,,,,,,,,,,,,,,,,,,,,,,,,,,,,,,,,,,,,,,,,,,,,apple,236,6,aloud,new,blue,818.768796000164,None,n,818.768796000164,None,"['n', 'return']","[2.4683171999640763, 3.1882340000011027]",818.768796000164,None,,,27,001,2023_Mar_27_1152,ExactRep-v3-final,2021.2.3,59.92541683035127,
,,,,,,,,,,,,6,0,6,0,,,,,,,,,,,,,,,,,,,,,,,,,,,,,,,,,,,,,,,,,,,,,,,,,824.6502035004087,None,,,,,,,,,,,,,,,,,,,,,,,,,,,,,,,,,,,,,,,,,,,,,,,,,,,,,,,,,doctor,8,7,sing,old,white,822.505685900338,None,y,822.505685900338,None,"['y', 'return']","[1.2752403998747468, 2.0993591002188623]",822.505685900338,None,,,27,001,2023_Mar_27_1152,ExactRep-v3-final,2021.2.3,59.92541683035127,
,,,,,,,,,,,,7,0,7,0,,,,,,,,,,,,,,,,,,,,,,,,,,,,,,,,,,,,,,,,,,,,,,,,,829.6051512002014,None,,,,,,,,,,,,,,,,,,,,,,,,,,,,,,,,,,,,,,,,,,,,,,,,,,,,,,,,,time,151,8,silent,new,red,825.1588212000206,None,n,825.1588212000206,None,"['n', 'return']","[3.702335699927062, 4.398193100001663]",825.1588212000206,None,,,27,001,2023_Mar_27_1152,ExactRep-v3-final,2021.2.3,59.92541683035127,
,,,,,,,,,,,,8,0,8,0,,,,,,,,,,,,,,,,,,,,,,,,,,,,,,,,,,,,,,,,,,,,,,,,,832.9418961000629,None,,,,,,,,,,,,,,,,,,,,,,,,,,,,,,,,,,,,,,,,,,,,,,,,,,,,,,,,,hope,227,9,sing,new,white,830.1129295001738,None,n,830.1129295001738,None,"['n', 'return']","[2.124173200223595, 2.7959896000102162]",830.1129295001738,None,,,27,001,2023_Mar_27_1152,ExactRep-v3-final,2021.2.3,59.92541683035127,
,,,,,,,,,,,,9,0,9,0,,,,,,,,,,,,,,,,,,,,,,,,,,,,,,,,,,,,,,,,,,,,,,,,,837.7132594999857,None,,,,,,,,,,,,,,,,,,,,,,,,,,,,,,,,,,,,,,,,,,,,,,,,,,,,,,,,,market,10,10,sing,old,white,833.4537881002761,None,n,833.4537881002761,None,"['n', 'return']","[3.5512255001813173, 4.215175500139594]",833.4537881002761,None,,,27,001,2023_Mar_27_1152,ExactRep-v3-final,2021.2.3,59.92541683035127,
,,,,,,,,,,,,10,0,10,0,,,,,,,,,,,,,,,,,,,,,,,,,,,,,,,,,,,,,,,,,,,,,,,,,840.8497247002088,None,,,,,,,,,,,,,,,,,,,,,,,,,,,,,,,,,,,,,,,,,,,,,,,,,,,,,,,,,truth,132,11,silent,new,red,838.2229102002457,None,n,838.2229102002457,None,"['n', 'return']","[2.046193499583751, 2.581996999680996]",838.2229102002457,None,,,27,001,2023_Mar_27_1152,ExactRep-v3-final,2021.2.3,59.92541683035127,
,,,,,,,,,,,,11,0,11,0,,,,,,,,,,,,,,,,,,,,,,,,,,,,,,,,,,,,,,,,,,,,,,,,,843.0520171001554,None,,,,,,,,,,,,,,,,,,,,,,,,,,,,,,,,,,,,,,,,,,,,,,,,,,,,,,,,,boulder,225,12,sing,new,white,841.3605411001481,None,n,841.3605411001481,None,"['n', 'return']","[1.1403919998556376, 1.6445546001195908]",841.3605411001481,None,,,27,001,2023_Mar_27_1152,ExactRep-v3-final,2021.2.3,59.92541683035127,
,,,,,,,,,,,,12,0,12,0,,,,,,,,,,,,,,,,,,,,,,,,,,,,,,,,,,,,,,,,,,,,,,,,,847.5398262003437,None,,,,,,,,,,,,,,,,,,,,,,,,,,,,,,,,,,,,,,,,,,,,,,,,,,,,,,,,,health,178,13,aloud,new,blue,843.5624299002811,None,n,843.5624299002811,None,"['n', 'return']","[3.538599899969995, 3.9385990002192557]",843.5624299002811,None,,,27,001,2023_Mar_27_1152,ExactRep-v3-final,2021.2.3,59.92541683035127,
,,,,,,,,,,,,13,0,13,0,,,,,,,,,,,,,,,,,,,,,,,,,,,,,,,,,,,,,,,,,,,,,,,,,851.3435579002835,None,,,,,,,,,,,,,,,,,,,,,,,,,,,,,,,,,,,,,,,,,,,,,,,,,,,,,,,,,steam,235,14,sing,new,white,848.0507110999897,None,n,848.0507110999897,None,"['n', 'return']","[2.6182578997686505, 3.25044329976663]",848.0507110999897,None,,,27,001,2023_Mar_27_1152,ExactRep-v3-final,2021.2.3,59.92541683035127,
,,,,,,,,,,,,14,0,14,0,,,,,,,,,,,,,,,,,,,,,,,,,,,,,,,,,,,,,,,,,,,,,,,,,856.2986473999918,None,,,,,,,,,,,,,,,,,,,,,,,,,,,,,,,,,,,,,,,,,,,,,,,,,,,,,,,,,house,176,15,aloud,new,blue,851.8514132001437,None,y,851.8514132001437,None,"['y', 'return']","[3.9295565001666546, 4.401488800067455]",851.8514132001437,None,,,27,001,2023_Mar_27_1152,ExactRep-v3-final,2021.2.3,59.92541683035127,
,,,,,,,,,,,,15,0,15,0,,,,,,,,,,,,,,,,,,,,,,,,,,,,,,,,,,,,,,,,,,,,,,,,,858.484037599992,None,,,,,,,,,,,,,,,,,,,,,,,,,,,,,,,,,,,,,,,,,,,,,,,,,,,,,,,,,colony,12,16,sing,old,white,856.8211544002406,None,y,856.8211544002406,None,"['y', 'return']","[1.21575600001961, 1.6158564002253115]",856.8211544002406,None,,,27,001,2023_Mar_27_1152,ExactRep-v3-final,2021.2.3,59.92541683035127,
,,,,,,,,,,,,16,0,16,0,,,,,,,,,,,,,,,,,,,,,,,,,,,,,,,,,,,,,,,,,,,,,,,,,860.7696352000348,None,,,,,,,,,,,,,,,,,,,,,,,,,,,,,,,,,,,,,,,,,,,,,,,,,,,,,,,,,woman,100,17,aloud,old,blue,858.9974377001636,None,y,858.9974377001636,None,"['y', 'return']","[1.2396132997237146, 1.7275831000879407]",858.9974377001636,None,,,27,001,2023_Mar_27_1152,ExactRep-v3-final,2021.2.3,59.92541683035127,
,,,,,,,,,,,,17,0,17,0,,,,,,,,,,,,,,,,,,,,,,,,,,,,,,,,,,,,,,,,,,,,,,,,,864.5901423003525,None,,,,,,,,,,,,,,,,,,,,,,,,,,,,,,,,,,,,,,,,,,,,,,,,,,,,,,,,,journal,69,18,silent,old,red,861.2786152004264,None,n,861.2786152004264,None,"['n', 'return']","[2.662440999876708, 3.270421899855137]",861.2786152004264,None,,,27,001,2023_Mar_27_1152,ExactRep-v3-final,2021.2.3,59.92541683035127,
,,,,,,,,,,,,18,0,18,0,,,,,,,,,,,,,,,,,,,,,,,,,,,,,,,,,,,,,,,,,,,,,,,,,867.1927079004236,None,,,,,,,,,,,,,,,,,,,,,,,,,,,,,,,,,,,,,,,,,,,,,,,,,,,,,,,,,garden,156,19,silent,new,red,865.1002132003196,None,n,865.1002132003196,None,"['n', 'return']","[1.528776700142771, 2.048804299905896]",865.1002132003196,None,,,27,001,2023_Mar_27_1152,ExactRep-v3-final,2021.2.3,59.92541683035127,
,,,,,,,,,,,,19,0,19,0,,,,,,,,,,,,,,,,,,,,,,,,,,,,,,,,,,,,,,,,,,,,,,,,,871.49711270025,None,,,,,,,,,,,,,,,,,,,,,,,,,,,,,,,,,,,,,,,,,,,,,,,,,,,,,,,,,home,133,20,silent,new,red,867.6999910003506,None,n,867.6999910003506,None,"['n', 'return']","[3.2570210001431406, 3.76102240011096]",867.6999910003506,None,,,27,001,2023_Mar_27_1152,ExactRep-v3-final,2021.2.3,59.92541683035127,
,,,,,,,,,,,,20,0,20,0,,,,,,,,,,,,,,,,,,,,,,,,,,,,,,,,,,,,,,,,,,,,,,,,,877.1695504002273,None,,,,,,,,,,,,,,,,,,,,,,,,,,,,,,,,,,,,,,,,,,,,,,,,,,,,,,,,,body,169,21,sing,new,white,872.0047997003421,None,y,872.0047997003421,None,"['y', 'return']","[4.496166200377047, 5.1201615002937615]",872.0047997003421,None,,,27,001,2023_Mar_27_1152,ExactRep-v3-final,2021.2.3,59.92541683035127,
,,,,,,,,,,,,21,0,21,0,,,,,,,,,,,,,,,,,,,,,,,,,,,,,,,,,,,,,,,,,,,,,,,,,880.7230085004121,None,,,,,,,,,,,,,,,,,,,,,,,,,,,,,,,,,,,,,,,,,,,,,,,,,,,,,,,,,bar,239,22,sing,new,white,877.678008900024,None,n,877.678008900024,None,"['n', 'return']","[2.559279200155288, 2.999088999815285]",877.678008900024,None,,,27,001,2023_Mar_27_1152,ExactRep-v3-final,2021.2.3,59.92541683035127,
,,,,,,,,,,,,22,0,22,0,,,,,,,,,,,,,,,,,,,,,,,,,,,,,,,,,,,,,,,,,,,,,,,,,883.3422236000188,None,,,,,,,,,,,,,,,,,,,,,,,,,,,,,,,,,,,,,,,,,,,,,,,,,,,,,,,,,potato,4,23,sing,old,white,881.2363110003062,None,y,881.2363110003062,None,"['y', 'return']","[1.6887658000923693, 2.0647415001876652]",881.2363110003062,None,,,27,001,2023_Mar_27_1152,ExactRep-v3-final,2021.2.3,59.92541683035127,
,,,,,,,,,,,,23,0,23,0,,,,,,,,,,,,,,,,,,,,,,,,,,,,,,,,,,,,,,,,,,,,,,,,,887.0293678003363,None,,,,,,,,,,,,,,,,,,,,,,,,,,,,,,,,,,,,,,,,,,,,,,,,,,,,,,,,,water,193,24,sing,new,white,883.8521085004322,None,n,883.8521085004322,None,"['n', 'return']","[2.744932500179857, 3.128847500309348]",883.8521085004322,None,,,27,001,2023_Mar_27_1152,ExactRep-v3-final,2021.2.3,59.92541683035127,
,,,,,,,,,,,,24,0,24,0,,,,,,,,,,,,,,,,,,,,,,,,,,,,,,,,,,,,,,,,,,,,,,,,,889.0479240003042,None,,,,,,,,,,,,,,,,,,,,,,,,,,,,,,,,,,,,,,,,,,,,,,,,,,,,,,,,,lad,144,25,silent,new,red,887.5397108001634,None,n,887.5397108001634,None,"['n', 'return']","[1.1695984997786582, 1.4734096000902355]",887.5397108001634,None,,,27,001,2023_Mar_27_1152,ExactRep-v3-final,2021.2.3,59.92541683035127,
,,,,,,,,,,,,25,0,25,0,,,,,,,,,,,,,,,,,,,,,,,,,,,,,,,,,,,,,,,,,,,,,,,,,891.366943300236,None,,,,,,,,,,,,,,,,,,,,,,,,,,,,,,,,,,,,,,,,,,,,,,,,,,,,,,,,,table,89,26,aloud,old,blue,889.5580060002394,None,y,889.5580060002394,None,"['y', 'return']","[1.34309639967978, 1.767023699823767]",889.5580060002394,None,,,27,001,2023_Mar_27_1152,ExactRep-v3-final,2021.2.3,59.92541683035127,
,,,,,,,,,,,,26,0,26,0,,,,,,,,,,,,,,,,,,,,,,,,,,,,,,,,,,,,,,,,,,,,,,,,,895.4710826002993,None,,,,,,,,,,,,,,,,,,,,,,,,,,,,,,,,,,,,,,,,,,,,,,,,,,,,,,,,,maiden,48,27,silent,old,red,891.8775448002852,None,n,891.8775448002852,None,"['n', 'return']","[2.951514100190252, 3.559610600117594]",891.8775448002852,None,,,27,001,2023_Mar_27_1152,ExactRep-v3-final,2021.2.3,59.92541683035127,
,,,,,,,,,,,,27,0,27,0,,,,,,,,,,,,,,,,,,,,,,,,,,,,,,,,,,,,,,,,,,,,,,,,,898.4574347003363,None,,,,,,,,,,,,,,,,,,,,,,,,,,,,,,,,,,,,,,,,,,,,,,,,,,,,,,,,,shock,159,28,silent,new,red,895.9807224003598,None,n,895.9807224003598,None,"['n', 'return']","[2.008253399748355, 2.440319299697876]",895.9807224003598,None,,,27,001,2023_Mar_27_1152,ExactRep-v3-final,2021.2.3,59.92541683035127,
,,,,,,,,,,,,28,0,28,0,,,,,,,,,,,,,,,,,,,,,,,,,,,,,,,,,,,,,,,,,,,,,,,,,902.7950807004236,None,,,,,,,,,,,,,,,,,,,,,,,,,,,,,,,,,,,,,,,,,,,,,,,,,,,,,,,,,city,206,29,aloud,new,blue,898.9632341000251,None,n,898.9632341000251,None,"['n', 'return']","[3.2977538001723588, 3.793842200189829]",898.9632341000251,None,,,27,001,2023_Mar_27_1152,ExactRep-v3-final,2021.2.3,59.92541683035127,
,,,,,,,,,,,,29,0,29,0,,,,,,,,,,,,,,,,,,,,,,,,,,,,,,,,,,,,,,,,,,,,,,,,,906.3988470002078,None,,,,,,,,,,,,,,,,,,,,,,,,,,,,,,,,,,,,,,,,,,,,,,,,,,,,,,,,,chief,147,30,silent,new,red,903.3035945002921,None,n,903.3035945002921,None,"['n', 'return']","[2.653566500172019, 3.06145490007475]",903.3035945002921,None,,,27,001,2023_Mar_27_1152,ExactRep-v3-final,2021.2.3,59.92541683035127,
,,,,,,,,,,,,30,0,30,0,,,,,,,,,,,,,,,,,,,,,,,,,,,,,,,,,,,,,,,,,,,,,,,,,908.6175824003294,None,,,,,,,,,,,,,,,,,,,,,,,,,,,,,,,,,,,,,,,,,,,,,,,,,,,,,,,,,doll,50,31,silent,old,red,906.9086505002342,None,n,906.9086505002342,None,"['n', 'return']","[1.2084583998657763, 1.6724934000521898]",906.9086505002342,None,,,27,001,2023_Mar_27_1152,ExactRep-v3-final,2021.2.3,59.92541683035127,
,,,,,,,,,,,,31,0,31,0,,,,,,,,,,,,,,,,,,,,,,,,,,,,,,,,,,,,,,,,,,,,,,,,,914.5069331000559,None,,,,,,,,,,,,,,,,,,,,,,,,,,,,,,,,,,,,,,,,,,,,,,,,,,,,,,,,,cat,112,32,aloud,old,blue,909.1273194001988,None,n,909.1273194001988,None,"['n', 'return']","[4.789780099876225, 5.341736200265586]",909.1273194001988,None,,,27,001,2023_Mar_27_1152,ExactRep-v3-final,2021.2.3,59.92541683035127,
,,,,,,,,,,,,32,0,32,0,,,,,,,,,,,,,,,,,,,,,,,,,,,,,,,,,,,,,,,,,,,,,,,,,917.7600458003581,None,,,,,,,,,,,,,,,,,,,,,,,,,,,,,,,,,,,,,,,,,,,,,,,,,,,,,,,,,horse,233,33,sing,new,white,915.0192198003642,None,n,915.0192198003642,None,"['n', 'return']","[2.3298010998405516, 2.6978181996382773]",915.0192198003642,None,,,27,001,2023_Mar_27_1152,ExactRep-v3-final,2021.2.3,59.92541683035127,
,,,,,,,,,,,,33,0,33,0,,,,,,,,,,,,,,,,,,,,,,,,,,,,,,,,,,,,,,,,,,,,,,,,,921.3136210003868,None,,,,,,,,,,,,,,,,,,,,,,,,,,,,,,,,,,,,,,,,,,,,,,,,,,,,,,,,,death,160,34,aloud,new,blue,918.2688501002267,None,n,918.2688501002267,None,"['n', 'return']","[2.616196599788964, 3.0001810998655856]",918.2688501002267,None,,,27,001,2023_Mar_27_1152,ExactRep-v3-final,2021.2.3,59.92541683035127,
,,,,,,,,,,,,34,0,34,0,,,,,,,,,,,,,,,,,,,,,,,,,,,,,,,,,,,,,,,,,,,,,,,,,925.2342089000158,None,,,,,,,,,,,,,,,,,,,,,,,,,,,,,,,,,,,,,,,,,,,,,,,,,,,,,,,,,lord,188,35,aloud,new,blue,921.8208907004446,None,n,921.8208907004446,None,"['n', 'return']","[2.9280639002099633, 3.3682659002952278]",921.8208907004446,None,,,27,001,2023_Mar_27_1152,ExactRep-v3-final,2021.2.3,59.92541683035127,
,,,,,,,,,,,,35,0,35,0,,,,,,,,,,,,,,,,,,,,,,,,,,,,,,,,,,,,,,,,,,,,,,,,,927.286250400357,None,,,,,,,,,,,,,,,,,,,,,,,,,,,,,,,,,,,,,,,,,,,,,,,,,,,,,,,,,silence,119,36,aloud,old,blue,925.745364700444,None,y,925.745364700444,None,"['y', 'return']","[1.1398264998570085, 1.5078353001736104]",925.745364700444,None,,,27,001,2023_Mar_27_1152,ExactRep-v3-final,2021.2.3,59.92541683035127,
,,,,,,,,,,,,36,0,36,0,,,,,,,,,,,,,,,,,,,,,,,,,,,,,,,,,,,,,,,,,,,,,,,,,930.6229126001708,None,,,,,,,,,,,,,,,,,,,,,,,,,,,,,,,,,,,,,,,,,,,,,,,,,,,,,,,,,power,111,37,aloud,old,blue,927.7999278004281,None,y,927.7999278004281,None,"['y', 'return']","[2.1972550000064075, 2.78910840023309]",927.7999278004281,None,,,27,001,2023_Mar_27_1152,ExactRep-v3-final,2021.2.3,59.92541683035127,
,,,,,,,,,,,,37,0,37,0,,,,,,,,,,,,,,,,,,,,,,,,,,,,,,,,,,,,,,,,,,,,,,,,,934.0095633002929,None,,,,,,,,,,,,,,,,,,,,,,,,,,,,,,,,,,,,,,,,,,,,,,,,,,,,,,,,,skin,171,38,sing,new,white,931.1329062003642,None,n,931.1329062003642,None,"['n', 'return']","[2.3842070000246167, 2.8321758997626603]",931.1329062003642,None,,,27,001,2023_Mar_27_1152,ExactRep-v3-final,2021.2.3,59.92541683035127,
,,,,,,,,,,,,38,0,38,0,,,,,,,,,,,,,,,,,,,,,,,,,,,,,,,,,,,,,,,,,,,,,,,,,936.6790603003465,None,,,,,,,,,,,,,,,,,,,,,,,,,,,,,,,,,,,,,,,,,,,,,,,,,,,,,,,,,wine,196,39,aloud,new,blue,934.5185791002586,None,n,934.5185791002586,None,"['n', 'return']","[1.5105789001099765, 2.1265579001046717]",934.5185791002586,None,,,27,001,2023_Mar_27_1152,ExactRep-v3-final,2021.2.3,59.92541683035127,
,,,,,,,,,,,,39,0,39,0,,,,,,,,,,,,,,,,,,,,,,,,,,,,,,,,,,,,,,,,,,,,,,,,,939.948828600347,None,,,,,,,,,,,,,,,,,,,,,,,,,,,,,,,,,,,,,,,,,,,,,,,,,,,,,,,,,love,165,40,sing,new,white,937.1875652000308,None,n,937.1875652000308,None,"['n', 'return']","[2.169536200352013, 2.7295487001538277]",937.1875652000308,None,,,27,001,2023_Mar_27_1152,ExactRep-v3-final,2021.2.3,59.92541683035127,
,,,,,,,,,,,,40,0,40,0,,,,,,,,,,,,,,,,,,,,,,,,,,,,,,,,,,,,,,,,,,,,,,,,,942.5681762001477,None,,,,,,,,,,,,,,,,,,,,,,,,,,,,,,,,,,,,,,,,,,,,,,,,,,,,,,,,,soul,202,41,aloud,new,blue,940.4578676000237,None,n,940.4578676000237,None,"['n', 'return']","[1.5552354999817908, 2.0752166998572648]",940.4578676000237,None,,,27,001,2023_Mar_27_1152,ExactRep-v3-final,2021.2.3,59.92541683035127,
,,,,,,,,,,,,41,0,41,0,,,,,,,,,,,,,,,,,,,,,,,,,,,,,,,,,,,,,,,,,,,,,,,,,946.4720358001068,None,,,,,,,,,,,,,,,,,,,,,,,,,,,,,,,,,,,,,,,,,,,,,,,,,,,,,,,,,quality,71,42,silent,old,red,943.0777588002384,None,n,943.0777588002384,None,"['n', 'return']","[2.8795328000560403, 3.359382400289178]",943.0777588002384,None,,,27,001,2023_Mar_27_1152,ExactRep-v3-final,2021.2.3,59.92541683035127,
,,,,,,,,,,,,42,0,42,0,,,,,,,,,,,,,,,,,,,,,,,,,,,,,,,,,,,,,,,,,,,,,,,,,950.6596785001457,None,,,,,,,,,,,,,,,,,,,,,,,,,,,,,,,,,,,,,,,,,,,,,,,,,,,,,,,,,advice,137,43,silent,new,red,946.9818963003345,None,n,946.9818963003345,None,"['n', 'return']","[1.511198100168258, 3.6311240000650287]",946.9818963003345,None,,,27,001,2023_Mar_27_1152,ExactRep-v3-final,2021.2.3,59.92541683035127,
,,,,,,,,,,,,43,0,43,0,,,,,,,,,,,,,,,,,,,,,,,,,,,,,,,,,,,,,,,,,,,,,,,,,952.7616627002135,None,,,,,,,,,,,,,,,,,,,,,,,,,,,,,,,,,,,,,,,,,,,,,,,,,,,,,,,,,cattle,125,44,silent,new,red,951.1664896002039,None,n,951.1664896002039,None,"['n', 'return']","[1.1586326998658478, 1.5586713999509811]",951.1664896002039,None,,,27,001,2023_Mar_27_1152,ExactRep-v3-final,2021.2.3,59.92541683035127,
,,,,,,,,,,,,44,0,44,0,,,,,,,,,,,,,,,,,,,,,,,,,,,,,,,,,,,,,,,,,,,,,,,,,955.3309098002501,None,,,,,,,,,,,,,,,,,,,,,,,,,,,,,,,,,,,,,,,,,,,,,,,,,,,,,,,,,arm,105,45,aloud,old,blue,953.2706354004331,None,y,953.2706354004331,None,"['y', 'return']","[1.518817000091076, 2.022483699955046]",953.2706354004331,None,,,27,001,2023_Mar_27_1152,ExactRep-v3-final,2021.2.3,59.92541683035127,
,,,,,,,,,,,,45,0,45,0,,,,,,,,,,,,,,,,,,,,,,,,,,,,,,,,,,,,,,,,,,,,,,,,,959.1182223004289,None,,,,,,,,,,,,,,,,,,,,,,,,,,,,,,,,,,,,,,,,,,,,,,,,,,,,,,,,,green,177,46,sing,new,white,955.8422497999854,None,n,955.8422497999854,None,"['n', 'return']","[2.762868800200522, 3.234889400191605]",955.8422497999854,None,,,27,001,2023_Mar_27_1152,ExactRep-v3-final,2021.2.3,59.92541683035127,
,,,,,,,,,,,,46,0,46,0,,,,,,,,,,,,,,,,,,,,,,,,,,,,,,,,,,,,,,,,,,,,,,,,,961.4370512003079,None,,,,,,,,,,,,,,,,,,,,,,,,,,,,,,,,,,,,,,,,,,,,,,,,,,,,,,,,,pipe,130,47,silent,new,red,959.6341939000413,None,n,959.6341939000413,None,"['n', 'return']","[1.2749196998775005, 1.7629252998158336]",959.6341939000413,None,,,27,001,2023_Mar_27_1152,ExactRep-v3-final,2021.2.3,59.92541683035127,
,,,,,,,,,,,,47,0,47,0,,,,,,,,,,,,,,,,,,,,,,,,,,,,,,,,,,,,,,,,,,,,,,,,,965.8914374001324,None,,,,,,,,,,,,,,,,,,,,,,,,,,,,,,,,,,,,,,,,,,,,,,,,,,,,,,,,,fate,222,48,aloud,new,blue,961.9467989001423,None,n,961.9467989001423,None,"['n', 'return']","[3.138479399960488, 3.898357199970633]",961.9467989001423,None,,,27,001,2023_Mar_27_1152,ExactRep-v3-final,2021.2.3,59.92541683035127,
,,,,,,,,,,,,48,0,48,0,,,,,,,,,,,,,,,,,,,,,,,,,,,,,,,,,,,,,,,,,,,,,,,,,969.9123194003478,None,,,,,,,,,,,,,,,,,,,,,,,,,,,,,,,,,,,,,,,,,,,,,,,,,,,,,,,,,factory,49,49,silent,old,red,966.3999446001835,None,n,966.3999446001835,None,"['n', 'return']","[2.741150200366974, 3.469158099964261]",966.3999446001835,None,,,27,001,2023_Mar_27_1152,ExactRep-v3-final,2021.2.3,59.92541683035127,
,,,,,,,,,,,,49,0,49,0,,,,,,,,,,,,,,,,,,,,,,,,,,,,,,,,,,,,,,,,,,,,,,,,,973.5992556000128,None,,,,,,,,,,,,,,,,,,,,,,,,,,,,,,,,,,,,,,,,,,,,,,,,,,,,,,,,,hide,127,50,silent,new,red,970.4236891004257,None,n,970.4236891004257,None,"['n', 'return']","[2.589600299950689, 3.1414405000396073]",970.4236891004257,None,,,27,001,2023_Mar_27_1152,ExactRep-v3-final,2021.2.3,59.92541683035127,
,,,,,,,,,,,,50,0,50,0,,,,,,,,,,,,,,,,,,,,,,,,,,,,,,,,,,,,,,,,,,,,,,,,,976.952378500253,None,,,,,,,,,,,,,,,,,,,,,,,,,,,,,,,,,,,,,,,,,,,,,,,,,,,,,,,,,poet,180,51,aloud,new,blue,974.1105690002441,None,n,974.1105690002441,None,"['n', 'return']","[2.4225217001512647, 2.7984482999891043]",974.1105690002441,None,,,27,001,2023_Mar_27_1152,ExactRep-v3-final,2021.2.3,59.92541683035127,
,,,,,,,,,,,,51,0,51,0,,,,,,,,,,,,,,,,,,,,,,,,,,,,,,,,,,,,,,,,,,,,,,,,,980.5730082001537,None,,,,,,,,,,,,,,,,,,,,,,,,,,,,,,,,,,,,,,,,,,,,,,,,,,,,,,,,,shadow,55,52,silent,old,red,977.4594331001863,None,n,977.4594331001863,None,"['n', 'return']","[2.5936842998489738, 3.0816998998634517]",977.4594331001863,None,,,27,001,2023_Mar_27_1152,ExactRep-v3-final,2021.2.3,59.92541683035127,
,,,,,,,,,,,,52,0,52,0,,,,,,,,,,,,,,,,,,,,,,,,,,,,,,,,,,,,,,,,,,,,,,,,,982.9585204999894,None,,,,,,,,,,,,,,,,,,,,,,,,,,,,,,,,,,,,,,,,,,,,,,,,,,,,,,,,,queen,109,53,aloud,old,blue,981.0810727002099,None,y,981.0810727002099,None,"['y', 'return']","[1.3243444003164768, 1.8360776999033988]",981.0810727002099,None,,,27,001,2023_Mar_27_1152,ExactRep-v3-final,2021.2.3,59.92541683035127,
,,,,,,,,,,,,53,0,53,0,,,,,,,,,,,,,,,,,,,,,,,,,,,,,,,,,,,,,,,,,,,,,,,,,986.6956718000583,None,,,,,,,,,,,,,,,,,,,,,,,,,,,,,,,,,,,,,,,,,,,,,,,,,,,,,,,,,machine,220,54,aloud,new,blue,983.465436800383,None,n,983.465436800383,None,"['n', 'return']","[2.8756904997862875, 3.1956792999990284]",983.465436800383,None,,,27,001,2023_Mar_27_1152,ExactRep-v3-final,2021.2.3,59.92541683035127,
,,,,,,,,,,,,54,0,54,0,,,,,,,,,,,,,,,,,,,,,,,,,,,,,,,,,,,,,,,,,,,,,,,,,990.0155753004365,None,,,,,,,,,,,,,,,,,,,,,,,,,,,,,,,,,,,,,,,,,,,,,,,,,,,,,,,,,square,99,55,aloud,old,blue,987.206134499982,None,n,987.206134499982,None,"['n', 'return']","[2.3430417999625206, 2.7670360999181867]",987.206134499982,None,,,27,001,2023_Mar_27_1152,ExactRep-v3-final,2021.2.3,59.92541683035127,
,,,,,,,,,,,,55,0,55,0,,,,,,,,,,,,,,,,,,,,,,,,,,,,,,,,,,,,,,,,,,,,,,,,,993.4690162003972,None,,,,,,,,,,,,,,,,,,,,,,,,,,,,,,,,,,,,,,,,,,,,,,,,,,,,,,,,,paper,131,56,silent,new,red,990.525187600404,None,n,990.525187600404,None,"['n', 'return']","[2.4320034999400377, 2.911950799636543]",990.525187600404,None,,,27,001,2023_Mar_27_1152,ExactRep-v3-final,2021.2.3,59.92541683035127,
,,,,,,,,,,,,56,0,56,0,,,,,,,,,,,,,,,,,,,,,,,,,,,,,,,,,,,,,,,,,,,,,,,,,996.2885893001221,None,,,,,,,,,,,,,,,,,,,,,,,,,,,,,,,,,,,,,,,,,,,,,,,,,,,,,,,,,excuse,97,57,aloud,old,blue,993.9817989002913,None,n,993.9817989002913,None,"['n', 'return']","[1.8314320002682507, 2.2634686999954283]",993.9817989002913,None,,,27,001,2023_Mar_27_1152,ExactRep-v3-final,2021.2.3,59.92541683035127,
,,,,,,,,,,,,57,0,57,0,,,,,,,,,,,,,,,,,,,,,,,,,,,,,,,,,,,,,,,,,,,,,,,,,1000.0589836002328,None,,,,,,,,,,,,,,,,,,,,,,,,,,,,,,,,,,,,,,,,,,,,,,,,,,,,,,,,,tree,139,58,silent,new,red,996.8006870001554,None,n,996.8006870001554,None,"['n', 'return']","[2.6684758001938462, 3.2123887999914587]",996.8006870001554,None,,,27,001,2023_Mar_27_1152,ExactRep-v3-final,2021.2.3,59.92541683035127,
,,,,,,,,,,,,58,0,58,0,,,,,,,,,,,,,,,,,,,,,,,,,,,,,,,,,,,,,,,,,,,,,,,,,1004.07963390043,None,,,,,,,,,,,,,,,,,,,,,,,,,,,,,,,,,,,,,,,,,,,,,,,,,,,,,,,,,camp,129,59,silent,new,red,1000.5664097000845,None,n,1000.5664097000845,None,"['n', 'return']","[3.1186592001467943, 3.470719600096345]",1000.5664097000845,None,,,27,001,2023_Mar_27_1152,ExactRep-v3-final,2021.2.3,59.92541683035127,
,,,,,,,,,,,,59,0,59,0,,,,,,,,,,,,,,,,,,,,,,,,,,,,,,,,,,,,,,,,,,,,,,,,,1010.7864111000672,None,,,,,,,,,,,,,,,,,,,,,,,,,,,,,,,,,,,,,,,,,,,,,,,,,,,,,,,,,mother,223,60,sing,new,white,1004.588092900347,None,y,1004.588092900347,None,"['y', 'return']","[5.785077100154012, 6.15311020007357]",1004.588092900347,None,,,27,001,2023_Mar_27_1152,ExactRep-v3-final,2021.2.3,59.92541683035127,
,,,,,,,,,,,,60,0,60,0,,,,,,,,,,,,,,,,,,,,,,,,,,,,,,,,,,,,,,,,,,,,,,,,,1014.1231602001935,None,,,,,,,,,,,,,,,,,,,,,,,,,,,,,,,,,,,,,,,,,,,,,,,,,,,,,,,,,meeting,43,61,silent,old,red,1011.2958853002638,None,n,1011.2958853002638,None,"['n', 'return']","[2.277255999855697, 2.7813550997525454]",1011.2958853002638,None,,,27,001,2023_Mar_27_1152,ExactRep-v3-final,2021.2.3,59.92541683035127,
,,,,,,,,,,,,61,0,61,0,,,,,,,,,,,,,,,,,,,,,,,,,,,,,,,,,,,,,,,,,,,,,,,,,1017.4596171001904,None,,,,,,,,,,,,,,,,,,,,,,,,,,,,,,,,,,,,,,,,,,,,,,,,,,,,,,,,,college,146,62,silent,new,red,1014.6338527002372,None,n,1014.6338527002372,None,"['n', 'return']","[2.1955543998628855, 2.7874015998095274]",1014.6338527002372,None,,,27,001,2023_Mar_27_1152,ExactRep-v3-final,2021.2.3,59.92541683035127,
,,,,,,,,,,,,62,0,62,0,,,,,,,,,,,,,,,,,,,,,,,,,,,,,,,,,,,,,,,,,,,,,,,,,1024.0496408999898,None,,,,,,,,,,,,,,,,,,,,,,,,,,,,,,,,,,,,,,,,,,,,,,,,,,,,,,,,,anger,83,63,aloud,old,blue,1017.9688408002257,None,n,1017.9688408002257,None,"['n', 'return']","[5.724360299762338, 6.0363242998719215]",1017.9688408002257,None,,,27,001,2023_Mar_27_1152,ExactRep-v3-final,2021.2.3,59.92541683035127,
,,,,,,,,,,,,63,0,63,0,,,,,,,,,,,,,,,,,,,,,,,,,,,,,,,,,,,,,,,,,,,,,,,,,1026.3853207002394,None,,,,,,,,,,,,,,,,,,,,,,,,,,,,,,,,,,,,,,,,,,,,,,,,,,,,,,,,,opinion,87,64,aloud,old,blue,1024.5512069002725,None,y,1024.5512069002725,None,"['y', 'return']","[1.3499301001429558, 1.7980511002242565]",1024.5512069002725,None,,,27,001,2023_Mar_27_1152,ExactRep-v3-final,2021.2.3,59.92541683035127,
,,,,,,,,,,,,64,0,64,0,,,,,,,,,,,,,,,,,,,,,,,,,,,,,,,,,,,,,,,,,,,,,,,,,1029.7719939001836,None,,,,,,,,,,,,,,,,,,,,,,,,,,,,,,,,,,,,,,,,,,,,,,,,,,,,,,,,,history,186,65,aloud,new,blue,1026.8947185003199,None,n,1026.8947185003199,None,"['n', 'return']","[2.5185929997824132, 2.830529499799013]",1026.8947185003199,None,,,27,001,2023_Mar_27_1152,ExactRep-v3-final,2021.2.3,59.92541683035127,
,,,,,,,,,,,,65,0,65,0,,,,,,,,,,,,,,,,,,,,,,,,,,,,,,,,,,,,,,,,,,,,,,,,,1035.7511912002228,None,,,,,,,,,,,,,,,,,,,,,,,,,,,,,,,,,,,,,,,,,,,,,,,,,,,,,,,,,lake,13,66,sing,old,white,1030.2835185001604,None,n,1030.2835185001604,None,"['n', 'return']","[5.129538199864328, 5.417585199698806]",1030.2835185001604,None,,,27,001,2023_Mar_27_1152,ExactRep-v3-final,2021.2.3,59.92541683035127,
,,,,,,,,,,,,66,0,66,0,,,,,,,,,,,,,,,,,,,,,,,,,,,,,,,,,,,,,,,,,,,,,,,,,1038.9645071001723,None,,,,,,,,,,,,,,,,,,,,,,,,,,,,,,,,,,,,,,,,,,,,,,,,,,,,,,,,,nail,205,67,sing,new,white,1036.2779793003574,None,n,1036.2779793003574,None,"['n', 'return']","[2.199081900063902, 2.647201200015843]",1036.2779793003574,None,,,27,001,2023_Mar_27_1152,ExactRep-v3-final,2021.2.3,59.92541683035127,
,,,,,,,,,,,,67,0,67,0,,,,,,,,,,,,,,,,,,,,,,,,,,,,,,,,,,,,,,,,,,,,,,,,,1042.0843523000367,None,,,,,,,,,,,,,,,,,,,,,,,,,,,,,,,,,,,,,,,,,,,,,,,,,,,,,,,,,sea,46,68,silent,old,red,1039.4772900003009,None,n,1039.4772900003009,None,"['n', 'return']","[2.071854699868709, 2.559929999988526]",1039.4772900003009,None,,,27,001,2023_Mar_27_1152,ExactRep-v3-final,2021.2.3,59.92541683035127,
,,,,,,,,,,,,68,0,68,0,,,,,,,,,,,,,,,,,,,,,,,,,,,,,,,,,,,,,,,,,,,,,,,,,1047.8067815001123,None,,,,,,,,,,,,,,,,,,,,,,,,,,,,,,,,,,,,,,,,,,,,,,,,,,,,,,,,,answer,30,69,sing,old,white,1042.5860257004388,None,n,1042.5860257004388,None,"['n', 'return']","[4.803149400278926, 5.179262700024992]",1042.5860257004388,None,,,27,001,2023_Mar_27_1152,ExactRep-v3-final,2021.2.3,59.92541683035127,
,,,,,,,,,,,,69,0,69,0,,,,,,,,,,,,,,,,,,,,,,,,,,,,,,,,,,,,,,,,,,,,,,,,,1050.5771347000264,None,,,,,,,,,,,,,,,,,,,,,,,,,,,,,,,,,,,,,,,,,,,,,,,,,,,,,,,,,grief,124,70,silent,new,red,1048.3171276003122,None,n,1048.3171276003122,None,"['n', 'return']","[1.7922526001930237, 2.2241087001748383]",1048.3171276003122,None,,,27,001,2023_Mar_27_1152,ExactRep-v3-final,2021.2.3,59.92541683035127,
,,,,,,,,,,,,70,0,70,0,,,,,,,,,,,,,,,,,,,,,,,,,,,,,,,,,,,,,,,,,,,,,,,,,1056.3651018003002,None,,,,,,,,,,,,,,,,,,,,,,,,,,,,,,,,,,,,,,,,,,,,,,,,,,,,,,,,,circle,104,71,aloud,old,blue,1051.0885842000134,None,y,1051.0885842000134,None,"['y', 'return']","[4.580821600276977, 5.244733300060034]",1051.0885842000134,None,,,27,001,2023_Mar_27_1152,ExactRep-v3-final,2021.2.3,59.92541683035127,
,,,,,,,,,,,,71,0,71,0,,,,,,,,,,,,,,,,,,,,,,,,,,,,,,,,,,,,,,,,,,,,,,,,,1060.1356863002293,None,,,,,,,,,,,,,,,,,,,,,,,,,,,,,,,,,,,,,,,,,,,,,,,,,,,,,,,,,toy,38,72,sing,old,white,1056.8711911002174,None,y,1056.8711911002174,None,"['y', 'return']","[2.4380520000122488, 3.2299999999813735]",1056.8711911002174,None,,,27,001,2023_Mar_27_1152,ExactRep-v3-final,2021.2.3,59.92541683035127,
,,,,,,,,,,,,72,0,72,0,,,,,,,,,,,,,,,,,,,,,,,,,,,,,,,,,,,,,,,,,,,,,,,,,1063.0219729002565,None,,,,,,,,,,,,,,,,,,,,,,,,,,,,,,,,,,,,,,,,,,,,,,,,,,,,,,,,,meat,3,73,sing,old,white,1060.6441665003076,None,y,1060.6441665003076,None,"['y', 'return']","[1.9530326998792589, 2.3370576999150217]",1060.6441665003076,None,,,27,001,2023_Mar_27_1152,ExactRep-v3-final,2021.2.3,59.92541683035127,
,,,,,,,,,,,,73,0,73,0,,,,,,,,,,,,,,,,,,,,,,,,,,,,,,,,,,,,,,,,,,,,,,,,,1065.17407310009,None,,,,,,,,,,,,,,,,,,,,,,,,,,,,,,,,,,,,,,,,,,,,,,,,,,,,,,,,,butter,230,74,aloud,new,blue,1063.5298578003421,None,n,1063.5298578003421,None,"['n', 'return']","[1.1793910996057093, 1.6033985996618867]",1063.5298578003421,None,,,27,001,2023_Mar_27_1152,ExactRep-v3-final,2021.2.3,59.92541683035127,
,,,,,,,,,,,,74,0,74,0,,,,,,,,,,,,,,,,,,,,,,,,,,,,,,,,,,,,,,,,,,,,,,,,,1067.3262193002738,None,,,,,,,,,,,,,,,,,,,,,,,,,,,,,,,,,,,,,,,,,,,,,,,,,,,,,,,,,vessel,175,75,sing,new,white,1065.6835650000721,None,n,1065.6835650000721,None,"['n', 'return']","[1.1298471000045538, 1.601806300226599]",1065.6835650000721,None,,,27,001,2023_Mar_27_1152,ExactRep-v3-final,2021.2.3,59.92541683035127,
,,,,,,,,,,,,75,0,75,0,,,,,,,,,,,,,,,,,,,,,,,,,,,,,,,,,,,,,,,,,,,,,,,,,1069.8789080004208,None,,,,,,,,,,,,,,,,,,,,,,,,,,,,,,,,,,,,,,,,,,,,,,,,,,,,,,,,,cost,27,76,sing,old,white,1067.838762700092,None,y,1067.838762700092,None,"['y', 'return']","[1.6067975000478327, 1.99840799998492]",1067.838762700092,None,,,27,001,2023_Mar_27_1152,ExactRep-v3-final,2021.2.3,59.92541683035127,
,,,,,,,,,,,,76,0,76,0,,,,,,,,,,,,,,,,,,,,,,,,,,,,,,,,,,,,,,,,,,,,,,,,,1072.2478048000485,None,,,,,,,,,,,,,,,,,,,,,,,,,,,,,,,,,,,,,,,,,,,,,,,,,,,,,,,,,effort,17,77,sing,old,white,1070.3857077001594,None,y,1070.3857077001594,None,"['y', 'return']","[1.3074927004054189, 1.8274871003814042]",1070.3857077001594,None,,,27,001,2023_Mar_27_1152,ExactRep-v3-final,2021.2.3,59.92541683035127,
,,,,,,,,,,,,77,0,77,0,,,,,,,,,,,,,,,,,,,,,,,,,,,,,,,,,,,,,,,,,,,,,,,,,1075.0358808999881,None,,,,,,,,,,,,,,,,,,,,,,,,,,,,,,,,,,,,,,,,,,,,,,,,,,,,,,,,,forest,79,78,sing,old,white,1072.7641494004056,None,y,1072.7641494004056,None,"['y', 'return']","[1.8891141996718943, 2.233136899769306]",1072.7641494004056,None,,,27,001,2023_Mar_27_1152,ExactRep-v3-final,2021.2.3,59.92541683035127,
,,,,,,,,,,,,78,0,78,0,,,,,,,,,,,,,,,,,,,,,,,,,,,,,,,,,,,,,,,,,,,,,,,,,1077.603151400108,None,,,,,,,,,,,,,,,,,,,,,,,,,,,,,,,,,,,,,,,,,,,,,,,,,,,,,,,,,series,47,79,silent,old,red,1075.5593061000109,None,n,1075.5593061000109,None,"['n', 'return']","[1.4620448998175561, 2.006040900014341]",1075.5593061000109,None,,,27,001,2023_Mar_27_1152,ExactRep-v3-final,2021.2.3,59.92541683035127,
,,,,,,,,,,,,79,0,79,0,,,,,,,,,,,,,,,,,,,,,,,,,,,,,,,,,,,,,,,,,,,,,,,,,1079.9888604003936,None,,,,,,,,,,,,,,,,,,,,,,,,,,,,,,,,,,,,,,,,,,,,,,,,,,,,,,,,,officer,212,80,aloud,new,blue,1078.1101403003559,None,n,1078.1101403003559,None,"['n', 'return']","[1.3751296000555158, 1.847150200046599]",1078.1101403003559,None,,,27,001,2023_Mar_27_1152,ExactRep-v3-final,2021.2.3,59.92541683035127,
,,,,,,,,,,,,80,0,80,0,,,,,,,,,,,,,,,,,,,,,,,,,,,,,,,,,,,,,,,,,,,,,,,,,1082.5748246000148,None,,,,,,,,,,,,,,,,,,,,,,,,,,,,,,,,,,,,,,,,,,,,,,,,,,,,,,,,,amount,20,81,sing,old,white,1080.501571000088,None,n,1080.501571000088,None,"['n', 'return']","[1.7199206002987921, 2.039664600044489]",1080.501571000088,None,,,27,001,2023_Mar_27_1152,ExactRep-v3-final,2021.2.3,59.92541683035127,
,,,,,,,,,,,,81,0,81,0,,,,,,,,,,,,,,,,,,,,,,,,,,,,,,,,,,,,,,,,,,,,,,,,,1085.027467300184,None,,,,,,,,,,,,,,,,,,,,,,,,,,,,,,,,,,,,,,,,,,,,,,,,,,,,,,,,,fun,229,82,sing,new,white,1083.0753543004394,None,n,1083.0753543004394,None,"['n', 'return']","[1.5302765001542866, 1.913954900112003]",1083.0753543004394,None,,,27,001,2023_Mar_27_1152,ExactRep-v3-final,2021.2.3,59.92541683035127,
,,,,,,,,,,,,82,0,82,0,,,,,,,,,,,,,,,,,,,,,,,,,,,,,,,,,,,,,,,,,,,,,,,,,1088.3973052999936,None,,,,,,,,,,,,,,,,,,,,,,,,,,,,,,,,,,,,,,,,,,,,,,,,,,,,,,,,,avenue,95,83,aloud,old,blue,1085.5339212003164,None,y,1085.5339212003164,None,"['y', 'return']","[2.527315199840814, 2.8313205000013113]",1085.5339212003164,None,,,27,001,2023_Mar_27_1152,ExactRep-v3-final,2021.2.3,59.92541683035127,
,,,,,,,,,,,,83,0,83,0,,,,,,,,,,,,,,,,,,,,,,,,,,,,,,,,,,,,,,,,,,,,,,,,,1090.8999796002172,None,,,,,,,,,,,,,,,,,,,,,,,,,,,,,,,,,,,,,,,,,,,,,,,,,,,,,,,,,justice,201,84,sing,new,white,1088.9103005002253,None,n,1088.9103005002253,None,"['n', 'return']","[1.54296680027619, 1.9429748998954892]",1088.9103005002253,None,,,27,001,2023_Mar_27_1152,ExactRep-v3-final,2021.2.3,59.92541683035127,
,,,,,,,,,,,,84,0,84,0,,,,,,,,,,,,,,,,,,,,,,,,,,,,,,,,,,,,,,,,,,,,,,,,,1093.1854067002423,None,,,,,,,,,,,,,,,,,,,,,,,,,,,,,,,,,,,,,,,,,,,,,,,,,,,,,,,,,artist,84,85,aloud,old,blue,1091.4016348002478,None,n,1091.4016348002478,None,"['n', 'return']","[1.163743400014937, 1.7477053999900818]",1091.4016348002478,None,,,27,001,2023_Mar_27_1152,ExactRep-v3-final,2021.2.3,59.92541683035127,
,,,,,,,,,,,,85,0,85,0,,,,,,,,,,,,,,,,,,,,,,,,,,,,,,,,,,,,,,,,,,,,,,,,,1095.554440300446,None,,,,,,,,,,,,,,,,,,,,,,,,,,,,,,,,,,,,,,,,,,,,,,,,,,,,,,,,,diamond,185,86,sing,new,white,1093.6937077003531,None,n,1093.6937077003531,None,"['n', 'return']","[1.4076637998223305, 1.8155449000187218]",1093.6937077003531,None,,,27,001,2023_Mar_27_1152,ExactRep-v3-final,2021.2.3,59.92541683035127,
,,,,,,,,,,,,86,0,86,0,,,,,,,,,,,,,,,,,,,,,,,,,,,,,,,,,,,,,,,,,,,,,,,,,1099.0080872001126,None,,,,,,,,,,,,,,,,,,,,,,,,,,,,,,,,,,,,,,,,,,,,,,,,,,,,,,,,,valley,117,87,aloud,old,blue,1096.063005800359,None,n,1096.063005800359,None,"['n', 'return']","[2.5822504996322095, 2.9101587999612093]",1096.063005800359,None,,,27,001,2023_Mar_27_1152,ExactRep-v3-final,2021.2.3,59.92541683035127,
,,,,,,,,,,,,87,0,87,0,,,,,,,,,,,,,,,,,,,,,,,,,,,,,,,,,,,,,,,,,,,,,,,,,1102.0610881000757,None,,,,,,,,,,,,,,,,,,,,,,,,,,,,,,,,,,,,,,,,,,,,,,,,,,,,,,,,,spirit,167,88,sing,new,white,1099.5201405002736,None,n,1099.5201405002736,None,"['n', 'return']","[2.1013078996911645, 2.4931220998987556]",1099.5201405002736,None,,,27,001,2023_Mar_27_1152,ExactRep-v3-final,2021.2.3,59.92541683035127,
,,,,,,,,,,,,88,0,88,0,,,,,,,,,,,,,,,,,,,,,,,,,,,,,,,,,,,,,,,,,,,,,,,,,1105.1807434000075,None,,,,,,,,,,,,,,,,,,,,,,,,,,,,,,,,,,,,,,,,,,,,,,,,,,,,,,,,,safety,56,89,silent,old,red,1102.5738360001706,None,n,1102.5738360001706,None,"['n', 'return']","[2.0713496999815106, 2.559395999647677]",1102.5738360001706,None,,,27,001,2023_Mar_27_1152,ExactRep-v3-final,2021.2.3,59.92541683035127,
,,,,,,,,,,,,89,0,89,0,,,,,,,,,,,,,,,,,,,,,,,,,,,,,,,,,,,,,,,,,,,,,,,,,1107.2160726999864,None,,,,,,,,,,,,,,,,,,,,,,,,,,,,,,,,,,,,,,,,,,,,,,,,,,,,,,,,,moral,155,90,silent,new,red,1105.6906293001957,None,n,1105.6906293001957,None,"['n', 'return']","[1.0426144003868103, 1.4825837002135813]",1105.6906293001957,None,,,27,001,2023_Mar_27_1152,ExactRep-v3-final,2021.2.3,59.92541683035127,
,,,,,,,,,,,,90,0,90,0,,,,,,,,,,,,,,,,,,,,,,,,,,,,,,,,,,,,,,,,,,,,,,,,,1110.0356587003917,None,,,,,,,,,,,,,,,,,,,,,,,,,,,,,,,,,,,,,,,,,,,,,,,,,,,,,,,,,troops,21,91,sing,old,white,1107.729846900329,None,n,1107.729846900329,None,"['n', 'return']","[1.8595298998989165, 2.2674575997516513]",1107.729846900329,None,,,27,001,2023_Mar_27_1152,ExactRep-v3-final,2021.2.3,59.92541683035127,
,,,,,,,,,,,,91,0,91,0,,,,,,,,,,,,,,,,,,,,,,,,,,,,,,,,,,,,,,,,,,,,,,,,,1114.7404664000496,None,,,,,,,,,,,,,,,,,,,,,,,,,,,,,,,,,,,,,,,,,,,,,,,,,,,,,,,,,virtue,72,92,silent,old,red,1110.5452141002752,None,n,1110.5452141002752,None,"['n', 'return']","[3.8040300998836756, 4.156129200011492]",1110.5452141002752,None,,,27,001,2023_Mar_27_1152,ExactRep-v3-final,2021.2.3,59.92541683035127,
,,,,,,,,,,,,92,0,92,0,,,,,,,,,,,,,,,,,,,,,,,,,,,,,,,,,,,,,,,,,,,,,,,,,1118.6274993000552,None,,,,,,,,,,,,,,,,,,,,,,,,,,,,,,,,,,,,,,,,,,,,,,,,,,,,,,,,,custom,217,93,sing,new,white,1115.251116800122,None,n,1115.251116800122,None,"['n', 'return']","[2.8901302996091545, 3.3302221996709704]",1115.251116800122,None,,,27,001,2023_Mar_27_1152,ExactRep-v3-final,2021.2.3,59.92541683035127,
,,,,,,,,,,,,93,0,93,0,,,,,,,,,,,,,,,,,,,,,,,,,,,,,,,,,,,,,,,,,,,,,,,,,1121.8318722001277,None,,,,,,,,,,,,,,,,,,,,,,,,,,,,,,,,,,,,,,,,,,,,,,,,,,,,,,,,,fortune,80,94,aloud,old,blue,1119.1356834000908,None,y,1119.1356834000908,None,"['y', 'return']","[2.2058737999759614, 2.661568899638951]",1119.1356834000908,None,,,27,001,2023_Mar_27_1152,ExactRep-v3-final,2021.2.3,59.92541683035127,
,,,,,,,,,,,,94,0,94,0,,,,,,,,,,,,,,,,,,,,,,,,,,,,,,,,,,,,,,,,,,,,,,,,,1124.8504151003435,None,,,,,,,,,,,,,,,,,,,,,,,,,,,,,,,,,,,,,,,,,,,,,,,,,,,,,,,,,letter,66,95,silent,old,red,1122.3349258000962,None,n,1122.3349258000962,None,"['n', 'return']","[2.0623380998149514, 2.47837630007416]",1122.3349258000962,None,,,27,001,2023_Mar_27_1152,ExactRep-v3-final,2021.2.3,59.92541683035127,
,,,,,,,,,,,,95,0,95,0,,,,,,,,,,,,,,,,,,,,,,,,,,,,,,,,,,,,,,,,,,,,,,,,,1127.7533784001134,None,,,,,,,,,,,,,,,,,,,,,,,,,,,,,,,,,,,,,,,,,,,,,,,,,,,,,,,,,woods,166,96,aloud,new,blue,1125.3656361000612,None,n,1125.3656361000612,None,"['n', 'return']","[1.9356132000684738, 2.343577700201422]",1125.3656361000612,None,,,27,001,2023_Mar_27_1152,ExactRep-v3-final,2021.2.3,59.92541683035127,
,,,,,,,,,,,,96,0,96,0,,,,,,,,,,,,,,,,,,,,,,,,,,,,,,,,,,,,,,,,,,,,,,,,,1130.4394132001325,None,,,,,,,,,,,,,,,,,,,,,,,,,,,,,,,,,,,,,,,,,,,,,,,,,,,,,,,,,stone,173,97,sing,new,white,1128.263149900362,None,n,1128.263149900362,None,"['n', 'return']","[1.6941351001150906, 2.142134199850261]",1128.263149900362,None,,,27,001,2023_Mar_27_1152,ExactRep-v3-final,2021.2.3,59.92541683035127,
,,,,,,,,,,,,97,0,97,0,,,,,,,,,,,,,,,,,,,,,,,,,,,,,,,,,,,,,,,,,,,,,,,,,1136.578799100127,None,,,,,,,,,,,,,,,,,,,,,,,,,,,,,,,,,,,,,,,,,,,,,,,,,,,,,,,,,bottle,86,98,aloud,old,blue,1130.956438000314,None,y,1130.956438000314,None,"['y', 'return']","[5.048856600187719, 5.576849200297147]",1130.956438000314,None,,,27,001,2023_Mar_27_1152,ExactRep-v3-final,2021.2.3,59.92541683035127,
,,,,,,,,,,,,98,0,98,0,,,,,,,,,,,,,,,,,,,,,,,,,,,,,,,,,,,,,,,,,,,,,,,,,1139.0646189004183,None,,,,,,,,,,,,,,,,,,,,,,,,,,,,,,,,,,,,,,,,,,,,,,,,,,,,,,,,,disease,200,99,aloud,new,blue,1137.0884856004268,None,n,1137.0884856004268,None,"['n', 'return']","[1.4926598998717964, 1.932772499974817]",1137.0884856004268,None,,,27,001,2023_Mar_27_1152,ExactRep-v3-final,2021.2.3,59.92541683035127,
,,,,,,,,,,,,99,0,99,0,,,,,,,,,,,,,,,,,,,,,,,,,,,,,,,,,,,,,,,,,,,,,,,,,1143.068632800132,None,,,,,,,,,,,,,,,,,,,,,,,,,,,,,,,,,,,,,,,,,,,,,,,,,,,,,,,,,seat,65,100,silent,old,red,1139.573644600343,None,n,1139.573644600343,None,"['n', 'return']","[1.9675330999307334, 3.4636530997231603]",1139.573644600343,None,,,27,001,2023_Mar_27_1152,ExactRep-v3-final,2021.2.3,59.92541683035127,
,,,,,,,,,,,,100,0,100,0,,,,,,,,,,,,,,,,,,,,,,,,,,,,,,,,,,,,,,,,,,,,,,,,,1145.8881080001593,None,,,,,,,,,,,,,,,,,,,,,,,,,,,,,,,,,,,,,,,,,,,,,,,,,,,,,,,,,rod,211,101,sing,new,white,1143.5777513002977,None,n,1143.5777513002977,None,"['n', 'return']","[1.6355229001492262, 2.2675817999988794]",1143.5777513002977,None,,,27,001,2023_Mar_27_1152,ExactRep-v3-final,2021.2.3,59.92541683035127,
,,,,,,,,,,,,101,0,101,0,,,,,,,,,,,,,,,,,,,,,,,,,,,,,,,,,,,,,,,,,,,,,,,,,1150.4094223002903,None,,,,,,,,,,,,,,,,,,,,,,,,,,,,,,,,,,,,,,,,,,,,,,,,,,,,,,,,,winter,33,102,sing,old,white,1146.3938285000622,None,y,1146.3938285000622,None,"['y', 'return']","[3.4834673004224896, 3.9714372004382312]",1146.3938285000622,None,,,27,001,2023_Mar_27_1152,ExactRep-v3-final,2021.2.3,59.92541683035127,
,,,,,,,,,,,,102,0,102,0,,,,,,,,,,,,,,,,,,,,,,,,,,,,,,,,,,,,,,,,,,,,,,,,,1153.7960113002919,None,,,,,,,,,,,,,,,,,,,,,,,,,,,,,,,,,,,,,,,,,,,,,,,,,,,,,,,,,gift,77,103,silent,old,red,1150.9109801002778,None,n,1150.9109801002778,None,"['n', 'return']","[2.1983130001462996, 2.84632629994303]",1150.9109801002778,None,,,27,001,2023_Mar_27_1152,ExactRep-v3-final,2021.2.3,59.92541683035127,
,,,,,,,,,,,,103,0,103,0,,,,,,,,,,,,,,,,,,,,,,,,,,,,,,,,,,,,,,,,,,,,,,,,,1156.715709200129,None,,,,,,,,,,,,,,,,,,,,,,,,,,,,,,,,,,,,,,,,,,,,,,,,,,,,,,,,,idea,143,104,silent,new,red,1154.3057000003755,None,n,1154.3057000003755,None,"['n', 'return']","[1.931713099591434, 2.3716355999931693]",1154.3057000003755,None,,,27,001,2023_Mar_27_1152,ExactRep-v3-final,2021.2.3,59.92541683035127,
,,,,,,,,,,,,104,0,104,0,,,,,,,,,,,,,,,,,,,,,,,,,,,,,,,,,,,,,,,,,,,,,,,,,1161.1200804002583,None,,,,,,,,,,,,,,,,,,,,,,,,,,,,,,,,,,,,,,,,,,,,,,,,,,,,,,,,,season,108,105,aloud,old,blue,1157.2231959002092,None,n,1157.2231959002092,None,"['n', 'return']","[3.365977699868381, 3.854045399930328]",1157.2231959002092,None,,,27,001,2023_Mar_27_1152,ExactRep-v3-final,2021.2.3,59.92541683035127,
,,,,,,,,,,,,105,0,105,0,,,,,,,,,,,,,,,,,,,,,,,,,,,,,,,,,,,,,,,,,,,,,,,,,1164.0563127002679,None,,,,,,,,,,,,,,,,,,,,,,,,,,,,,,,,,,,,,,,,,,,,,,,,,,,,,,,,,hotel,92,106,aloud,old,blue,1161.6280236002058,None,n,1161.6280236002058,None,"['n', 'return']","[1.9373316001147032, 2.385400999803096]",1161.6280236002058,None,,,27,001,2023_Mar_27_1152,ExactRep-v3-final,2021.2.3,59.92541683035127,
,,,,,,,,,,,,106,0,106,0,,,,,,,,,,,,,,,,,,,,,,,,,,,,,,,,,,,,,,,,,,,,,,,,,1166.542225399986,None,,,,,,,,,,,,,,,,,,,,,,,,,,,,,,,,,,,,,,,,,,,,,,,,,,,,,,,,,deed,122,107,silent,new,red,1164.5661601000465,None,n,1164.5661601000465,None,"['n', 'return']","[1.519204800017178, 1.9430801002308726]",1164.5661601000465,None,,,27,001,2023_Mar_27_1152,ExactRep-v3-final,2021.2.3,59.92541683035127,
,,,,,,,,,,,,107,0,107,0,,,,,,,,,,,,,,,,,,,,,,,,,,,,,,,,,,,,,,,,,,,,,,,,,1169.6120475004427,None,,,,,,,,,,,,,,,,,,,,,,,,,,,,,,,,,,,,,,,,,,,,,,,,,,,,,,,,,dollar,61,108,silent,old,red,1167.0519450004213,None,n,1167.0519450004213,None,"['n', 'return']","[2.153394099790603, 2.5133948996663094]",1167.0519450004213,None,,,27,001,2023_Mar_27_1152,ExactRep-v3-final,2021.2.3,59.92541683035127,
,,,,,,,,,,,,108,0,108,0,,,,,,,,,,,,,,,,,,,,,,,,,,,,,,,,,,,,,,,,,,,,,,,,,1172.548158199992,None,,,,,,,,,,,,,,,,,,,,,,,,,,,,,,,,,,,,,,,,,,,,,,,,,,,,,,,,,present,128,109,silent,new,red,1170.1212027003057,None,n,1170.1212027003057,None,"['n', 'return']","[1.9803333999589086, 2.388195099774748]",1170.1212027003057,None,,,27,001,2023_Mar_27_1152,ExactRep-v3-final,2021.2.3,59.92541683035127,
,,,,,,,,,,,,109,0,109,0,,,,,,,,,,,,,,,,,,,,,,,,,,,,,,,,,,,,,,,,,,,,,,,,,1178.020394500345,None,,,,,,,,,,,,,,,,,,,,,,,,,,,,,,,,,,,,,,,,,,,,,,,,,,,,,,,,,month,53,110,silent,old,red,1173.0519264000468,None,n,1173.0519264000468,None,"['n', 'return']","[4.569398599676788, 4.929420500062406]",1173.0519264000468,None,,,27,001,2023_Mar_27_1152,ExactRep-v3-final,2021.2.3,59.92541683035127,
,,,,,,,,,,,,110,0,110,0,,,,,,,,,,,,,,,,,,,,,,,,,,,,,,,,,,,,,,,,,,,,,,,,,1182.8251170003787,None,,,,,,,,,,,,,,,,,,,,,,,,,,,,,,,,,,,,,,,,,,,,,,,,,,,,,,,,,king,24,111,sing,old,white,1178.5272106002085,None,y,1178.5272106002085,None,"['y', 'return']","[3.7981042000465095, 4.25407399982214]",1178.5272106002085,None,,,27,001,2023_Mar_27_1152,ExactRep-v3-final,2021.2.3,59.92541683035127,
,,,,,,,,,,,,111,0,111,0,,,,,,,,,,,,,,,,,,,,,,,,,,,,,,,,,,,,,,,,,,,,,,,,,1186.0450870003551,None,,,,,,,,,,,,,,,,,,,,,,,,,,,,,,,,,,,,,,,,,,,,,,,,,,,,,,,,,storm,237,112,sing,new,white,1183.3257771003991,None,n,1183.3257771003991,None,"['n', 'return']","[2.279655100312084, 2.6717552999034524]",1183.3257771003991,None,,,27,001,2023_Mar_27_1152,ExactRep-v3-final,2021.2.3,59.92541683035127,
,,,,,,,,,,,,112,0,112,0,,,,,,,,,,,,,,,,,,,,,,,,,,,,,,,,,,,,,,,,,,,,,,,,,1189.3333155000582,None,,,,,,,,,,,,,,,,,,,,,,,,,,,,,,,,,,,,,,,,,,,,,,,,,,,,,,,,,animal,54,113,silent,old,red,1186.55346309999,None,n,1186.55346309999,None,"['n', 'return']","[2.220078700222075, 2.7319461000151932]",1186.55346309999,None,,,27,001,2023_Mar_27_1152,ExactRep-v3-final,2021.2.3,59.92541683035127,
,,,,,,,,,,,,113,0,113,0,,,,,,,,,,,,,,,,,,,,,,,,,,,,,,,,,,,,,,,,,,,,,,,,,1193.1687336000614,None,,,,,,,,,,,,,,,,,,,,,,,,,,,,,,,,,,,,,,,,,,,,,,,,,,,,,,,,,metal,204,114,aloud,new,blue,1189.8487987001427,None,n,1189.8487987001427,None,"['n', 'return']","[2.764837299939245, 3.284848799929023]",1189.8487987001427,None,,,27,001,2023_Mar_27_1152,ExactRep-v3-final,2021.2.3,59.92541683035127,
,,,,,,,,,,,,114,0,114,0,,,,,,,,,,,,,,,,,,,,,,,,,,,,,,,,,,,,,,,,,,,,,,,,,1196.2552268002182,None,,,,,,,,,,,,,,,,,,,,,,,,,,,,,,,,,,,,,,,,,,,,,,,,,,,,,,,,,person,215,115,sing,new,white,1193.6795467003249,None,n,1193.6795467003249,None,"['n', 'return']","[2.102021500002593, 2.541844400111586]",1193.6795467003249,None,,,27,001,2023_Mar_27_1152,ExactRep-v3-final,2021.2.3,59.92541683035127,
,,,,,,,,,,,,115,0,115,0,,,,,,,,,,,,,,,,,,,,,,,,,,,,,,,,,,,,,,,,,,,,,,,,,1199.5085807000287,None,,,,,,,,,,,,,,,,,,,,,,,,,,,,,,,,,,,,,,,,,,,,,,,,,,,,,,,,,car,158,116,silent,new,red,1196.7570121004246,None,n,1196.7570121004246,None,"['n', 'return']","[2.2243480002507567, 2.7043651998974383]",1196.7570121004246,None,,,27,001,2023_Mar_27_1152,ExactRep-v3-final,2021.2.3,59.92541683035127,
,,,,,,,,,,,,116,0,116,0,,,,,,,,,,,,,,,,,,,,,,,,,,,,,,,,,,,,,,,,,,,,,,,,,1204.9472416001372,None,,,,,,,,,,,,,,,,,,,,,,,,,,,,,,,,,,,,,,,,,,,,,,,,,,,,,,,,,prison,208,117,aloud,new,blue,1200.0198126002215,None,n,1200.0198126002215,None,"['n', 'return']","[3.1457209000363946, 4.8895979998633265]",1200.0198126002215,None,,,27,001,2023_Mar_27_1152,ExactRep-v3-final,2021.2.3,59.92541683035127,
,,,,,,,,,,,,117,0,117,0,,,,,,,,,,,,,,,,,,,,,,,,,,,,,,,,,,,,,,,,,,,,,,,,,1208.4007171001285,None,,,,,,,,,,,,,,,,,,,,,,,,,,,,,,,,,,,,,,,,,,,,,,,,,,,,,,,,,thought,106,118,aloud,old,blue,1205.4588949000463,None,y,1205.4588949000463,None,"['y', 'return']","[2.458402399905026, 2.898353800177574]",1205.4588949000463,None,,,27,001,2023_Mar_27_1152,ExactRep-v3-final,2021.2.3,59.92541683035127,
,,,,,,,,,,,,118,0,118,0,,,,,,,,,,,,,,,,,,,,,,,,,,,,,,,,,,,,,,,,,,,,,,,,,1211.153384000063,None,,,,,,,,,,,,,,,,,,,,,,,,,,,,,,,,,,,,,,,,,,,,,,,,,,,,,,,,,blood,39,119,silent,old,red,1208.908116100356,None,n,1208.908116100356,None,"['n', 'return']","[1.5292744003236294, 2.209286500234157]",1208.908116100356,None,,,27,001,2023_Mar_27_1152,ExactRep-v3-final,2021.2.3,59.92541683035127,
,,,,,,,,,,,,119,0,119,0,,,,,,,,,,,,,,,,,,,,,,,,,,,,,,,,,,,,,,,,,,,,,,,,,1215.4578092000447,None,,,,,,,,,,,,,,,,,,,,,,,,,,,,,,,,,,,,,,,,,,,,,,,,,,,,,,,,,party,1,120,sing,old,white,1211.6643251003698,None,y,1211.6643251003698,None,"['y', 'return']","[3.1010418999940157, 3.75725830020383]",1211.6643251003698,None,,,27,001,2023_Mar_27_1152,ExactRep-v3-final,2021.2.3,59.92541683035127,
,,,,,,,,,,,,120,0,120,0,,,,,,,,,,,,,,,,,,,,,,,,,,,,,,,,,,,,,,,,,,,,,,,,,1218.2437983001582,None,,,,,,,,,,,,,,,,,,,,,,,,,,,,,,,,,,,,,,,,,,,,,,,,,,,,,,,,,temple,157,121,silent,new,red,1215.9733986002393,None,n,1215.9733986002393,None,"['n', 'return']","[1.6079378998838365, 2.231940899975598]",1215.9733986002393,None,,,27,001,2023_Mar_27_1152,ExactRep-v3-final,2021.2.3,59.92541683035127,
,,,,,,,,,,,,121,0,121,0,,,,,,,,,,,,,,,,,,,,,,,,,,,,,,,,,,,,,,,,,,,,,,,,,1220.9130983003415,None,,,,,,,,,,,,,,,,,,,,,,,,,,,,,,,,,,,,,,,,,,,,,,,,,,,,,,,,,ability,76,122,silent,old,red,1218.7530926000327,None,n,1218.7530926000327,None,"['n', 'return']","[1.7882654997520149, 2.1243163999170065]",1218.7530926000327,None,,,27,001,2023_Mar_27_1152,ExactRep-v3-final,2021.2.3,59.92541683035127,
,,,,,,,,,,,,122,0,122,0,,,,,,,,,,,,,,,,,,,,,,,,,,,,,,,,,,,,,,,,,,,,,,,,,1223.8494367999956,None,,,,,,,,,,,,,,,,,,,,,,,,,,,,,,,,,,,,,,,,,,,,,,,,,,,,,,,,,bowl,96,123,aloud,old,blue,1221.4276783000678,None,n,1221.4276783000678,None,"['n', 'return']","[1.8897161995992064, 2.385708199813962]",1221.4276783000678,None,,,27,001,2023_Mar_27_1152,ExactRep-v3-final,2021.2.3,59.92541683035127,
,,,,,,,,,,,,123,0,123,0,,,,,,,,,,,,,,,,,,,,,,,,,,,,,,,,,,,,,,,,,,,,,,,,,1227.0360078001395,None,,,,,,,,,,,,,,,,,,,,,,,,,,,,,,,,,,,,,,,,,,,,,,,,,,,,,,,,,palace,118,124,aloud,old,blue,1224.3569567003287,None,n,1224.3569567003287,None,"['n', 'return']","[2.2484118002466857, 2.640456000342965]",1224.3569567003287,None,,,27,001,2023_Mar_27_1152,ExactRep-v3-final,2021.2.3,59.92541683035127,
,,,,,,,,,,,,124,0,124,0,,,,,,,,,,,,,,,,,,,,,,,,,,,,,,,,,,,,,,,,,,,,,,,,,1230.806363100186,None,,,,,,,,,,,,,,,,,,,,,,,,,,,,,,,,,,,,,,,,,,,,,,,,,,,,,,,,,duty,126,125,silent,new,red,1227.5447830003686,None,n,1227.5447830003686,None,"['n', 'return']","[2.6366182998754084, 3.2287802998907864]",1227.5447830003686,None,,,27,001,2023_Mar_27_1152,ExactRep-v3-final,2021.2.3,59.92541683035127,
,,,,,,,,,,,,125,0,125,0,,,,,,,,,,,,,,,,,,,,,,,,,,,,,,,,,,,,,,,,,,,,,,,,,1237.2294555003755,None,,,,,,,,,,,,,,,,,,,,,,,,,,,,,,,,,,,,,,,,,,,,,,,,,,,,,,,,,insect,68,126,silent,old,red,1231.3163975002244,None,y,1231.3163975002244,None,"['n', 'y', 'backspace', 'y', 'return']","[1.8892342001199722, 3.321229800116271, 4.321249800268561, 5.081210300326347, 5.865086799953133]",1231.3163975002244,None,,,27,001,2023_Mar_27_1152,ExactRep-v3-final,2021.2.3,59.92541683035127,
,,,,,,,,,,,,126,0,126,0,,,,,,,,,,,,,,,,,,,,,,,,,,,,,,,,,,,,,,,,,,,,,,,,,1240.4660281003453,None,,,,,,,,,,,,,,,,,,,,,,,,,,,,,,,,,,,,,,,,,,,,,,,,,,,,,,,,,tool,102,127,aloud,old,blue,1237.7375158001669,None,y,1237.7375158001669,None,"['y', 'return']","[2.2438198002055287, 2.6918820003047585]",1237.7375158001669,None,,,27,001,2023_Mar_27_1152,ExactRep-v3-final,2021.2.3,59.92541683035127,
,,,,,,,,,,,,127,0,127,0,,,,,,,,,,,,,,,,,,,,,,,,,,,,,,,,,,,,,,,,,,,,,,,,,1243.435652400367,None,,,,,,,,,,,,,,,,,,,,,,,,,,,,,,,,,,,,,,,,,,,,,,,,,,,,,,,,,dream,153,128,silent,new,red,1240.9743113000877,None,n,1240.9743113000877,None,"['n', 'return']","[1.9430633001029491, 2.4231234001927078]",1240.9743113000877,None,,,27,001,2023_Mar_27_1152,ExactRep-v3-final,2021.2.3,59.92541683035127,
,,,,,,,,,,,,128,0,128,0,,,,,,,,,,,,,,,,,,,,,,,,,,,,,,,,,,,,,,,,,,,,,,,,,1246.3552415003069,None,,,,,,,,,,,,,,,,,,,,,,,,,,,,,,,,,,,,,,,,,,,,,,,,,,,,,,,,,flood,148,129,silent,new,red,1243.952569400426,None,y,1243.952569400426,None,"['y', 'return']","[1.8048439999110997, 2.3648497997783124]",1243.952569400426,None,,,27,001,2023_Mar_27_1152,ExactRep-v3-final,2021.2.3,59.92541683035127,
,,,,,,,,,,,,129,0,129,0,,,,,,,,,,,,,,,,,,,,,,,,,,,,,,,,,,,,,,,,,,,,,,,,,1249.224778600037,None,,,,,,,,,,,,,,,,,,,,,,,,,,,,,,,,,,,,,,,,,,,,,,,,,,,,,,,,,humour,224,130,aloud,new,blue,1246.8591068000533,None,n,1246.8591068000533,None,"['n', 'return']","[1.8583345003426075, 2.3223042003810406]",1246.8591068000533,None,,,27,001,2023_Mar_27_1152,ExactRep-v3-final,2021.2.3,59.92541683035127,
,,,,,,,,,,,,130,0,130,0,,,,,,,,,,,,,,,,,,,,,,,,,,,,,,,,,,,,,,,,,,,,,,,,,1252.244650900364,None,,,,,,,,,,,,,,,,,,,,,,,,,,,,,,,,,,,,,,,,,,,,,,,,,,,,,,,,,owner,149,131,silent,new,red,1249.7352210003883,None,n,1249.7352210003883,None,"['n', 'return']","[1.9583446001634002, 2.4622156000696123]",1249.7352210003883,None,,,27,001,2023_Mar_27_1152,ExactRep-v3-final,2021.2.3,59.92541683035127,
,,,,,,,,,,,,131,0,131,0,,,,,,,,,,,,,,,,,,,,,,,,,,,,,,,,,,,,,,,,,,,,,,,,,1257.0159189002588,None,,,,,,,,,,,,,,,,,,,,,,,,,,,,,,,,,,,,,,,,,,,,,,,,,,,,,,,,,board,136,132,silent,new,red,1252.7483270000666,None,n,1252.7483270000666,None,"['n', 'return']","[3.7210683999583125, 4.233047099784017]",1252.7483270000666,None,,,27,001,2023_Mar_27_1152,ExactRep-v3-final,2021.2.3,59.92541683035127,
,,,,,,,,,,,,132,0,132,0,,,,,,,,,,,,,,,,,,,,,,,,,,,,,,,,,,,,,,,,,,,,,,,,,1259.8689071000554,None,,,,,,,,,,,,,,,,,,,,,,,,,,,,,,,,,,,,,,,,,,,,,,,,,,,,,,,,,iron,123,133,silent,new,red,1257.523233300075,None,n,1257.523233300075,None,"['n', 'return']","[1.8023608000949025, 2.2982692001387477]",1257.523233300075,None,,,27,001,2023_Mar_27_1152,ExactRep-v3-final,2021.2.3,59.92541683035127,
