trials_fam.thisRepN,trials_fam.thisTrialN,trials_fam.thisN,trials_fam.thisIndex,trials_prc.thisRepN,trials_prc.thisTrialN,trials_prc.thisN,trials_prc.thisIndex,StudyLoop.thisRepN,StudyLoop.thisTrialN,StudyLoop.thisN,StudyLoop.thisIndex,TestLoop.thisRepN,TestLoop.thisTrialN,TestLoop.thisN,TestLoop.thisIndex,text_colortest.started,text_colortest.stopped,key_colortest.keys,key_colortest.rt,key_colortest.started,key_colortest.stopped,textCondition.started,textCondition.stopped,keyCondition.keys,keyCondition.rt,keyCondition.started,keyCondition.stopped,Condition_between,Condition_counterbal,keyWelcome.keys,keyWelcome.rt,keyWelcome.started,keyWelcome.stopped,welcome_a.started,welcome_a.stopped,welcome_b.started,welcome_b.stopped,welcome_c.started,welcome_c.stopped,welcome_d.started,welcome_d.stopped,welcome_e.started,welcome_e.stopped,welcome_f.started,welcome_f.stopped,key_resp_fam_inst.keys,key_resp_fam_inst.rt,key_resp_fam_inst.started,key_resp_fam_inst.stopped,fam_a.started,fam_a.stopped,fam_b.started,fam_b.stopped,fam_c.started,fam_c.stopped,fam_d.started,fam_d.stopped,fam_e.started,fam_e.stopped,fam_f.started,fam_f.stopped,text_famil.started,text_famil.stopped,textBlank500.started,textBlank500.stopped,key_resp_prc_inst.keys,key_resp_prc_inst.rt,key_resp_prc_inst.started,key_resp_prc_inst.stopped,prac_a.started,prac_a.stopped,prac_b.started,prac_b.stopped,prac_c.started,prac_c.stopped,prac_d.started,prac_d.stopped,prac_e.started,prac_e.stopped,prac_f.started,prac_f.stopped,text_prc_trial.started,text_prc_trial.stopped,key_resp_study_inst.keys,key_resp_study_inst.rt,key_resp_study_inst.started,key_resp_study_inst.stopped,crit_a.started,crit_a.stopped,crit_b.started,crit_b.stopped,crit_c.started,crit_c.stopped,crit_d.started,crit_d.stopped,crit_e.started,crit_e.stopped,crit_f.started,crit_f.stopped,study_word,study_num,study_order,study_type,word_color,textStudy.started,textStudy.stopped,keyStudy.keys,keyStudy.started,keyStudy.stopped,post_study.started,post_study.stopped,key_resp_post_study.keys,key_resp_post_study.rt,key_resp_post_study.started,key_resp_post_study.stopped,test_inst.started,test_inst.stopped,key_resp_test_inst.keys,key_resp_test_inst.rt,key_resp_test_inst.started,key_resp_test_inst.stopped,test_word,test_num,test_order,test_condition,old_new_test,word_color_test,textConf.started,textConf.stopped,Participant Response,textInput.started,textInput.stopped,keyResp.keys,keyResp.rt,keyResp.started,keyResp.stopped,textEnd.started,textEnd.stopped,participant,session,date,expName,psychopyVersion,frameRate,
,,,,,,,,,,,,,,,,13.295462400186807,None,y,0.6502848002128303,13.295462400186807,None,,,,,,,,,,,,,,,,,,,,,,,,,,,,,,,,,,,,,,,,,,,,,,,,,,,,,,,,,,,,,,,,,,,,,,,,,,,,,,,,,,,,,,,,,,,,,,,,,,,,,,,,,,,,,,,,,,,,,,28,001,2023_Mar_27_1245,ExactRep-v3-final,2021.2.3,59.97238886496926,
,,,,,,,,,,,,,,,,,,,,,,13.967453700024635,None,d,0.5942287999205291,13.967453700024635,None,,,,,,,,,,,,,,,,,,,,,,,,,,,,,,,,,,,,,,,,,,,,,,,,,,,,,,,,,,,,,,,,,,,,,,,,,,,,,,,,,,,,,,,,,,,,,,,,,,,,,,,,,,,,,,,,28,001,2023_Mar_27_1245,ExactRep-v3-final,2021.2.3,59.97238886496926,
,,,,,,,,,,,,,,,,,,,,,,,,,,,,colorfoils,d,space,810.147349299863,24.694879199843854,None,,,,,,,,,,,,,,,,,,,,,,,,,,,,,,,,,,,,,,,,,,,,,,,,,,,,,,,,,,,,,,,,,,,,,,,,,,,,,,,,,,,,,,,,,,,,,,,,,,,,,,,,,,28,001,2023_Mar_27_1245,ExactRep-v3-final,2021.2.3,59.97238886496926,
,,,,,,,,,,,,,,,,,,,,,,,,,,,,,,,,,,14.753190599847585,None,14.753190599847585,None,14.753190599847585,None,14.753190599847585,None,14.753190599847585,None,14.753190599847585,None,space,16.897745499853045,845.0084687001072,None,,,,,,,,,,,,,,,,,,,,,,,,,,,,,,,,,,,,,,,,,,,,,,,,,,,,,,,,,,,,,,,,,,,,,,,,,,,,,,,,,,,,,,,,,,28,001,2023_Mar_27_1245,ExactRep-v3-final,2021.2.3,59.97238886496926,
0,0,0,0,,,,,,,,,,,,,,,,,,,,,,,,,,,,,,,,,,,,,,,,,,,,,,,835.0320020001382,None,835.0320020001382,None,835.0320020001382,None,835.0320020001382,None,835.0320020001382,None,835.0320020001382,None,861.9927364001051,None,864.0007595000789,None,,,,,,,,,,,,,,,,,,,,,,,,,,,,,,,,,,,,,,,,,,,,,,,,,,,,,,,,,,,,,,,,,,,,,,,,,,28,001,2023_Mar_27_1245,ExactRep-v3-final,2021.2.3,59.97238886496926,
1,0,1,0,,,,,,,,,,,,,,,,,,,,,,,,,,,,,,,,,,,,,,,,,,,,,,,,,,,,,,,,,,,864.5011607999913,None,866.5033891000785,None,,,,,,,,,,,,,,,,,,,,,,,,,,,,,,,,,,,,,,,,,,,,,,,,,,,,,,,,,,,,,,,,,,,,,,,,,,28,001,2023_Mar_27_1245,ExactRep-v3-final,2021.2.3,59.97238886496926,
2,0,2,0,,,,,,,,,,,,,,,,,,,,,,,,,,,,,,,,,,,,,,,,,,,,,,,,,,,,,,,,,,,867.0039019999094,None,869.0057475999929,None,,,,,,,,,,,,,,,,,,,,,,,,,,,,,,,,,,,,,,,,,,,,,,,,,,,,,,,,,,,,,,,,,,,,,,,,,,28,001,2023_Mar_27_1245,ExactRep-v3-final,2021.2.3,59.97238886496926,
3,0,3,0,,,,,,,,,,,,,,,,,,,,,,,,,,,,,,,,,,,,,,,,,,,,,,,,,,,,,,,,,,,869.5245806002058,None,871.5249322000891,None,,,,,,,,,,,,,,,,,,,,,,,,,,,,,,,,,,,,,,,,,,,,,,,,,,,,,,,,,,,,,,,,,,,,,,,,,,28,001,2023_Mar_27_1245,ExactRep-v3-final,2021.2.3,59.97238886496926,
4,0,4,0,,,,,,,,,,,,,,,,,,,,,,,,,,,,,,,,,,,,,,,,,,,,,,,,,,,,,,,,,,,872.0252835000865,None,874.0274140001275,None,,,,,,,,,,,,,,,,,,,,,,,,,,,,,,,,,,,,,,,,,,,,,,,,,,,,,,,,,,,,,,,,,,,,,,,,,,28,001,2023_Mar_27_1245,ExactRep-v3-final,2021.2.3,59.97238886496926,
5,0,5,0,,,,,,,,,,,,,,,,,,,,,,,,,,,,,,,,,,,,,,,,,,,,,,,,,,,,,,,,,,,874.5277864001691,None,876.5299662002362,None,,,,,,,,,,,,,,,,,,,,,,,,,,,,,,,,,,,,,,,,,,,,,,,,,,,,,,,,,,,,,,,,,,,,,,,,,,28,001,2023_Mar_27_1245,ExactRep-v3-final,2021.2.3,59.97238886496926,
6,0,6,0,,,,,,,,,,,,,,,,,,,,,,,,,,,,,,,,,,,,,,,,,,,,,,,,,,,,,,,,,,,877.0304320002906,None,879.0324320001528,None,,,,,,,,,,,,,,,,,,,,,,,,,,,,,,,,,,,,,,,,,,,,,,,,,,,,,,,,,,,,,,,,,,,,,,,,,,28,001,2023_Mar_27_1245,ExactRep-v3-final,2021.2.3,59.97238886496926,
7,0,7,0,,,,,,,,,,,,,,,,,,,,,,,,,,,,,,,,,,,,,,,,,,,,,,,,,,,,,,,,,,,879.5329455002211,None,881.5348550998606,None,,,,,,,,,,,,,,,,,,,,,,,,,,,,,,,,,,,,,,,,,,,,,,,,,,,,,,,,,,,,,,,,,,,,,,,,,,28,001,2023_Mar_27_1245,ExactRep-v3-final,2021.2.3,59.97238886496926,
8,0,8,0,,,,,,,,,,,,,,,,,,,,,,,,,,,,,,,,,,,,,,,,,,,,,,,,,,,,,,,,,,,882.0476595000364,None,884.0541051998734,None,,,,,,,,,,,,,,,,,,,,,,,,,,,,,,,,,,,,,,,,,,,,,,,,,,,,,,,,,,,,,,,,,,,,,,,,,,28,001,2023_Mar_27_1245,ExactRep-v3-final,2021.2.3,59.97238886496926,
9,0,9,0,,,,,,,,,,,,,,,,,,,,,,,,,,,,,,,,,,,,,,,,,,,,,,,,,,,,,,,,,,,884.5547472001053,None,886.5565812001005,None,,,,,,,,,,,,,,,,,,,,,,,,,,,,,,,,,,,,,,,,,,,,,,,,,,,,,,,,,,,,,,,,,,,,,,,,,,28,001,2023_Mar_27_1245,ExactRep-v3-final,2021.2.3,59.97238886496926,
10,0,10,0,,,,,,,,,,,,,,,,,,,,,,,,,,,,,,,,,,,,,,,,,,,,,,,,,,,,,,,,,,,887.0569560001604,None,889.059212999884,None,,,,,,,,,,,,,,,,,,,,,,,,,,,,,,,,,,,,,,,,,,,,,,,,,,,,,,,,,,,,,,,,,,,,,,,,,,28,001,2023_Mar_27_1245,ExactRep-v3-final,2021.2.3,59.97238886496926,
11,0,11,0,,,,,,,,,,,,,,,,,,,,,,,,,,,,,,,,,,,,,,,,,,,,,,,,,,,,,,,,,,,889.5671874000691,None,891.5784257999621,None,,,,,,,,,,,,,,,,,,,,,,,,,,,,,,,,,,,,,,,,,,,,,,,,,,,,,,,,,,,,,,,,,,,,,,,,,,28,001,2023_Mar_27_1245,ExactRep-v3-final,2021.2.3,59.97238886496926,
12,0,12,0,,,,,,,,,,,,,,,,,,,,,,,,,,,,,,,,,,,,,,,,,,,,,,,,,,,,,,,,,,,892.0940614999272,None,894.097425899934,None,,,,,,,,,,,,,,,,,,,,,,,,,,,,,,,,,,,,,,,,,,,,,,,,,,,,,,,,,,,,,,,,,,,,,,,,,,28,001,2023_Mar_27_1245,ExactRep-v3-final,2021.2.3,59.97238886496926,
13,0,13,0,,,,,,,,,,,,,,,,,,,,,,,,,,,,,,,,,,,,,,,,,,,,,,,,,,,,,,,,,,,894.5977965998463,None,896.5998300001957,None,,,,,,,,,,,,,,,,,,,,,,,,,,,,,,,,,,,,,,,,,,,,,,,,,,,,,,,,,,,,,,,,,,,,,,,,,,28,001,2023_Mar_27_1245,ExactRep-v3-final,2021.2.3,59.97238886496926,
14,0,14,0,,,,,,,,,,,,,,,,,,,,,,,,,,,,,,,,,,,,,,,,,,,,,,,,,,,,,,,,,,,897.1004392001778,None,899.1024398999289,None,,,,,,,,,,,,,,,,,,,,,,,,,,,,,,,,,,,,,,,,,,,,,,,,,,,,,,,,,,,,,,,,,,,,,,,,,,28,001,2023_Mar_27_1245,ExactRep-v3-final,2021.2.3,59.97238886496926,
,,,,,,,,,,,,,,,,,,,,,,,,,,,,,,,,,,,,,,,,,,,,,,,,,,,,,,,,,,,,,,,,,,space,19.997052900027484,909.7177091999911,None,,,,,,,,,,,,,,,,,,,,,,,,,,,,,,,,,,,,,,,,,,,,,,,,,,,,,,,,,,,,,,,,,,,,,,28,001,2023_Mar_27_1245,ExactRep-v3-final,2021.2.3,59.97238886496926,
,,,,0,0,0,0,,,,,,,,,,,,,,,,,,,,,,,,,,,,,,,,,,,,,,,,,,,,,,,,,,,,,,,,,931.7851549000479,None,,,,,899.7770227002911,None,899.7770227002911,None,899.7770227002911,None,899.7770227002911,None,899.7770227002911,None,899.7770227002911,None,929.7793459999375,None,,,,,,,,,,,,,,,,,,,,,,,,,,,,,,,,,,,,,,,,,,,,,,,,,,,,,,,,28,001,2023_Mar_27_1245,ExactRep-v3-final,2021.2.3,59.97238886496926,
,,,,1,0,1,0,,,,,,,,,,,,,,,,,,,,,,,,,,,,,,,,,,,,,,,,,,,,,,,,,,,,,,,,,934.2876817001961,None,,,,,,,,,,,,,,,,,932.2855267999694,None,,,,,,,,,,,,,,,,,,,,,,,,,,,,,,,,,,,,,,,,,,,,,,,,,,,,,,,,28,001,2023_Mar_27_1245,ExactRep-v3-final,2021.2.3,59.97238886496926,
,,,,2,0,2,0,,,,,,,,,,,,,,,,,,,,,,,,,,,,,,,,,,,,,,,,,,,,,,,,,,,,,,,,,936.7900173999369,None,,,,,,,,,,,,,,,,,934.7882126001641,None,,,,,,,,,,,,,,,,,,,,,,,,,,,,,,,,,,,,,,,,,,,,,,,,,,,,,,,,28,001,2023_Mar_27_1245,ExactRep-v3-final,2021.2.3,59.97238886496926,
,,,,3,0,3,0,,,,,,,,,,,,,,,,,,,,,,,,,,,,,,,,,,,,,,,,,,,,,,,,,,,,,,,,,939.2922896998934,None,,,,,,,,,,,,,,,,,937.2907159999013,None,,,,,,,,,,,,,,,,,,,,,,,,,,,,,,,,,,,,,,,,,,,,,,,,,,,,,,,,28,001,2023_Mar_27_1245,ExactRep-v3-final,2021.2.3,59.97238886496926,
,,,,4,0,4,0,,,,,,,,,,,,,,,,,,,,,,,,,,,,,,,,,,,,,,,,,,,,,,,,,,,,,,,,,941.8119748001918,None,,,,,,,,,,,,,,,,,939.7964738002047,None,,,,,,,,,,,,,,,,,,,,,,,,,,,,,,,,,,,,,,,,,,,,,,,,,,,,,,,,28,001,2023_Mar_27_1245,ExactRep-v3-final,2021.2.3,59.97238886496926,
,,,,5,0,5,0,,,,,,,,,,,,,,,,,,,,,,,,,,,,,,,,,,,,,,,,,,,,,,,,,,,,,,,,,944.3144184001721,None,,,,,,,,,,,,,,,,,942.3122006999329,None,,,,,,,,,,,,,,,,,,,,,,,,,,,,,,,,,,,,,,,,,,,,,,,,,,,,,,,,28,001,2023_Mar_27_1245,ExactRep-v3-final,2021.2.3,59.97238886496926,
,,,,6,0,6,0,,,,,,,,,,,,,,,,,,,,,,,,,,,,,,,,,,,,,,,,,,,,,,,,,,,,,,,,,946.8168434998952,None,,,,,,,,,,,,,,,,,944.8148715998977,None,,,,,,,,,,,,,,,,,,,,,,,,,,,,,,,,,,,,,,,,,,,,,,,,,,,,,,,,28,001,2023_Mar_27_1245,ExactRep-v3-final,2021.2.3,59.97238886496926,
,,,,7,0,7,0,,,,,,,,,,,,,,,,,,,,,,,,,,,,,,,,,,,,,,,,,,,,,,,,,,,,,,,,,949.3194015999325,None,,,,,,,,,,,,,,,,,947.3173739002086,None,,,,,,,,,,,,,,,,,,,,,,,,,,,,,,,,,,,,,,,,,,,,,,,,,,,,,,,,28,001,2023_Mar_27_1245,ExactRep-v3-final,2021.2.3,59.97238886496926,
,,,,8,0,8,0,,,,,,,,,,,,,,,,,,,,,,,,,,,,,,,,,,,,,,,,,,,,,,,,,,,,,,,,,951.821904799901,None,,,,,,,,,,,,,,,,,949.8199404999614,None,,,,,,,,,,,,,,,,,,,,,,,,,,,,,,,,,,,,,,,,,,,,,,,,,,,,,,,,28,001,2023_Mar_27_1245,ExactRep-v3-final,2021.2.3,59.97238886496926,
,,,,9,0,9,0,,,,,,,,,,,,,,,,,,,,,,,,,,,,,,,,,,,,,,,,,,,,,,,,,,,,,,,,,954.3243523999117,None,,,,,,,,,,,,,,,,,952.3222381998785,None,,,,,,,,,,,,,,,,,,,,,,,,,,,,,,,,,,,,,,,,,,,,,,,,,,,,,,,,28,001,2023_Mar_27_1245,ExactRep-v3-final,2021.2.3,59.97238886496926,
,,,,10,0,10,0,,,,,,,,,,,,,,,,,,,,,,,,,,,,,,,,,,,,,,,,,,,,,,,,,,,,,,,,,956.8268959000707,None,,,,,,,,,,,,,,,,,954.8249226999469,None,,,,,,,,,,,,,,,,,,,,,,,,,,,,,,,,,,,,,,,,,,,,,,,,,,,,,,,,28,001,2023_Mar_27_1245,ExactRep-v3-final,2021.2.3,59.97238886496926,
,,,,11,0,11,0,,,,,,,,,,,,,,,,,,,,,,,,,,,,,,,,,,,,,,,,,,,,,,,,,,,,,,,,,959.3293786998838,None,,,,,,,,,,,,,,,,,957.3272303002886,None,,,,,,,,,,,,,,,,,,,,,,,,,,,,,,,,,,,,,,,,,,,,,,,,,,,,,,,,28,001,2023_Mar_27_1245,ExactRep-v3-final,2021.2.3,59.97238886496926,
,,,,12,0,12,0,,,,,,,,,,,,,,,,,,,,,,,,,,,,,,,,,,,,,,,,,,,,,,,,,,,,,,,,,961.8319101002999,None,,,,,,,,,,,,,,,,,959.8298089001328,None,,,,,,,,,,,,,,,,,,,,,,,,,,,,,,,,,,,,,,,,,,,,,,,,,,,,,,,,28,001,2023_Mar_27_1245,ExactRep-v3-final,2021.2.3,59.97238886496926,
,,,,13,0,13,0,,,,,,,,,,,,,,,,,,,,,,,,,,,,,,,,,,,,,,,,,,,,,,,,,,,,,,,,,964.3343643001281,None,,,,,,,,,,,,,,,,,962.3324294001795,None,,,,,,,,,,,,,,,,,,,,,,,,,,,,,,,,,,,,,,,,,,,,,,,,,,,,,,,,28,001,2023_Mar_27_1245,ExactRep-v3-final,2021.2.3,59.97238886496926,
,,,,14,0,14,0,,,,,,,,,,,,,,,,,,,,,,,,,,,,,,,,,,,,,,,,,,,,,,,,,,,,,,,,,966.8368645999581,None,,,,,,,,,,,,,,,,,964.8347201002762,None,,,,,,,,,,,,,,,,,,,,,,,,,,,,,,,,,,,,,,,,,,,,,,,,,,,,,,,,28,001,2023_Mar_27_1245,ExactRep-v3-final,2021.2.3,59.97238886496926,
,,,,,,,,,,,,,,,,,,,,,,,,,,,,,,,,,,,,,,,,,,,,,,,,,,,,,,,,,,,,,,,,,,,,,,,,,,,,,,,,,,,,space,25.463276300113648,977.4510492999107,None,,,,,,,,,,,,,,,,,,,,,,,,,,,,,,,,,,,,,,,,,,,,,,,,,,,,28,001,2023_Mar_27_1245,ExactRep-v3-final,2021.2.3,59.97238886496926,
,,,,,,,,0,0,0,0,,,,,,,,,,,,,,,,,,,,,,,,,,,,,,,,,,,,,,,,,,,,,,,,,,,,,1004.9750014999881,None,,,,,,,,,,,,,,,,,,,,,,,967.4996003000997,None,967.4996003000997,None,967.4996003000997,None,967.4996003000997,None,967.4996003000997,None,967.4996003000997,None,string,45,1,silent,white,1002.972489300184,None,None,1002.972489300184,None,,,,,,,,,,,,,,,,,,,,,,,,,,,,,,28,001,2023_Mar_27_1245,ExactRep-v3-final,2021.2.3,59.97238886496926,
,,,,,,,,1,0,1,0,,,,,,,,,,,,,,,,,,,,,,,,,,,,,,,,,,,,,,,,,,,,,,,,,,,,,1007.4941060999408,None,,,,,,,,,,,,,,,,,,,,,,,,,,,,,,,,,,,excuse,1,2,sing,red,1005.4823278002441,None,None,1005.4823278002441,None,,,,,,,,,,,,,,,,,,,,,,,,,,,,,,28,001,2023_Mar_27_1245,ExactRep-v3-final,2021.2.3,59.97238886496926,
,,,,,,,,2,0,2,0,,,,,,,,,,,,,,,,,,,,,,,,,,,,,,,,,,,,,,,,,,,,,,,,,,,,,1009.9966555000283,None,,,,,,,,,,,,,,,,,,,,,,,,,,,,,,,,,,,product,38,3,sing,red,1007.9951309999451,None,None,1007.9951309999451,None,,,,,,,,,,,,,,,,,,,,,,,,,,,,,,28,001,2023_Mar_27_1245,ExactRep-v3-final,2021.2.3,59.97238886496926,
,,,,,,,,3,0,3,0,,,,,,,,,,,,,,,,,,,,,,,,,,,,,,,,,,,,,,,,,,,,,,,,,,,,,1012.5156840998679,None,,,,,,,,,,,,,,,,,,,,,,,,,,,,,,,,,,,bar,112,4,aloud,blue,1010.5045735002495,None,None,1010.5045735002495,None,,,,,,,,,,,,,,,,,,,,,,,,,,,,,,28,001,2023_Mar_27_1245,ExactRep-v3-final,2021.2.3,59.97238886496926,
,,,,,,,,4,0,4,0,,,,,,,,,,,,,,,,,,,,,,,,,,,,,,,,,,,,,,,,,,,,,,,,,,,,,1015.0183141999878,None,,,,,,,,,,,,,,,,,,,,,,,,,,,,,,,,,,,garden,58,5,silent,white,1013.0163521999493,None,None,1013.0163521999493,None,,,,,,,,,,,,,,,,,,,,,,,,,,,,,,28,001,2023_Mar_27_1245,ExactRep-v3-final,2021.2.3,59.97238886496926,
,,,,,,,,5,0,5,0,,,,,,,,,,,,,,,,,,,,,,,,,,,,,,,,,,,,,,,,,,,,,,,,,,,,,1017.5375614999793,None,,,,,,,,,,,,,,,,,,,,,,,,,,,,,,,,,,,ocean,73,6,silent,white,1015.5263574998826,None,None,1015.5263574998826,None,,,,,,,,,,,,,,,,,,,,,,,,,,,,,,28,001,2023_Mar_27_1245,ExactRep-v3-final,2021.2.3,59.97238886496926,
,,,,,,,,6,0,6,0,,,,,,,,,,,,,,,,,,,,,,,,,,,,,,,,,,,,,,,,,,,,,,,,,,,,,1020.0565762999468,None,,,,,,,,,,,,,,,,,,,,,,,,,,,,,,,,,,,charm,68,7,silent,white,1018.0489623001777,None,None,1018.0489623001777,None,,,,,,,,,,,,,,,,,,,,,,,,,,,,,,28,001,2023_Mar_27_1245,ExactRep-v3-final,2021.2.3,59.97238886496926,
,,,,,,,,7,0,7,0,,,,,,,,,,,,,,,,,,,,,,,,,,,,,,,,,,,,,,,,,,,,,,,,,,,,,1022.5593135003,None,,,,,,,,,,,,,,,,,,,,,,,,,,,,,,,,,,,toy,2,8,sing,red,1020.5571723999456,None,None,1020.5571723999456,None,,,,,,,,,,,,,,,,,,,,,,,,,,,,,,28,001,2023_Mar_27_1245,ExactRep-v3-final,2021.2.3,59.97238886496926,
,,,,,,,,8,0,8,0,,,,,,,,,,,,,,,,,,,,,,,,,,,,,,,,,,,,,,,,,,,,,,,,,,,,,1025.0784645001404,None,,,,,,,,,,,,,,,,,,,,,,,,,,,,,,,,,,,journal,49,9,silent,white,1023.0659254002385,None,None,1023.0659254002385,None,,,,,,,,,,,,,,,,,,,,,,,,,,,,,,28,001,2023_Mar_27_1245,ExactRep-v3-final,2021.2.3,59.97238886496926,
,,,,,,,,9,0,9,0,,,,,,,,,,,,,,,,,,,,,,,,,,,,,,,,,,,,,,,,,,,,,,,,,,,,,1027.597659099847,None,,,,,,,,,,,,,,,,,,,,,,,,,,,,,,,,,,,owner,10,10,sing,red,1025.5842991000973,None,None,1025.5842991000973,None,,,,,,,,,,,,,,,,,,,,,,,,,,,,,,28,001,2023_Mar_27_1245,ExactRep-v3-final,2021.2.3,59.97238886496926,
,,,,,,,,10,0,10,0,,,,,,,,,,,,,,,,,,,,,,,,,,,,,,,,,,,,,,,,,,,,,,,,,,,,,1030.100204099901,None,,,,,,,,,,,,,,,,,,,,,,,,,,,,,,,,,,,sugar,36,11,sing,red,1028.1004184000194,None,None,1028.1004184000194,None,,,,,,,,,,,,,,,,,,,,,,,,,,,,,,28,001,2023_Mar_27_1245,ExactRep-v3-final,2021.2.3,59.97238886496926,
,,,,,,,,11,0,11,0,,,,,,,,,,,,,,,,,,,,,,,,,,,,,,,,,,,,,,,,,,,,,,,,,,,,,1032.6195094999857,None,,,,,,,,,,,,,,,,,,,,,,,,,,,,,,,,,,,soul,12,12,sing,red,1030.6074685002677,None,None,1030.6074685002677,None,,,,,,,,,,,,,,,,,,,,,,,,,,,,,,28,001,2023_Mar_27_1245,ExactRep-v3-final,2021.2.3,59.97238886496926,
,,,,,,,,12,0,12,0,,,,,,,,,,,,,,,,,,,,,,,,,,,,,,,,,,,,,,,,,,,,,,,,,,,,,1035.1383801000193,None,,,,,,,,,,,,,,,,,,,,,,,,,,,,,,,,,,,advice,99,13,aloud,blue,1033.1236605001613,None,None,1033.1236605001613,None,,,,,,,,,,,,,,,,,,,,,,,,,,,,,,28,001,2023_Mar_27_1245,ExactRep-v3-final,2021.2.3,59.97238886496926,
,,,,,,,,13,0,13,0,,,,,,,,,,,,,,,,,,,,,,,,,,,,,,,,,,,,,,,,,,,,,,,,,,,,,1037.6578029002994,None,,,,,,,,,,,,,,,,,,,,,,,,,,,,,,,,,,,potato,7,14,sing,red,1035.6454223999754,None,None,1035.6454223999754,None,,,,,,,,,,,,,,,,,,,,,,,,,,,,,,28,001,2023_Mar_27_1245,ExactRep-v3-final,2021.2.3,59.97238886496926,
,,,,,,,,14,0,14,0,,,,,,,,,,,,,,,,,,,,,,,,,,,,,,,,,,,,,,,,,,,,,,,,,,,,,1040.1601793002337,None,,,,,,,,,,,,,,,,,,,,,,,,,,,,,,,,,,,arm,9,15,sing,red,1038.160658699926,None,None,1038.160658699926,None,,,,,,,,,,,,,,,,,,,,,,,,,,,,,,28,001,2023_Mar_27_1245,ExactRep-v3-final,2021.2.3,59.97238886496926,
,,,,,,,,15,0,15,0,,,,,,,,,,,,,,,,,,,,,,,,,,,,,,,,,,,,,,,,,,,,,,,,,,,,,1042.679241000209,None,,,,,,,,,,,,,,,,,,,,,,,,,,,,,,,,,,,science,66,16,silent,white,1040.6671914998442,None,None,1040.6671914998442,None,,,,,,,,,,,,,,,,,,,,,,,,,,,,,,28,001,2023_Mar_27_1245,ExactRep-v3-final,2021.2.3,59.97238886496926,
,,,,,,,,16,0,16,0,,,,,,,,,,,,,,,,,,,,,,,,,,,,,,,,,,,,,,,,,,,,,,,,,,,,,1045.1985428002663,None,,,,,,,,,,,,,,,,,,,,,,,,,,,,,,,,,,,prison,72,17,silent,white,1043.184429100249,None,None,1043.184429100249,None,,,,,,,,,,,,,,,,,,,,,,,,,,,,,,28,001,2023_Mar_27_1245,ExactRep-v3-final,2021.2.3,59.97238886496926,
,,,,,,,,17,0,17,0,,,,,,,,,,,,,,,,,,,,,,,,,,,,,,,,,,,,,,,,,,,,,,,,,,,,,1047.717775200028,None,,,,,,,,,,,,,,,,,,,,,,,,,,,,,,,,,,,seat,65,18,silent,white,1045.703266300261,None,None,1045.703266300261,None,,,,,,,,,,,,,,,,,,,,,,,,,,,,,,28,001,2023_Mar_27_1245,ExactRep-v3-final,2021.2.3,59.97238886496926,
,,,,,,,,18,0,18,0,,,,,,,,,,,,,,,,,,,,,,,,,,,,,,,,,,,,,,,,,,,,,,,,,,,,,1050.222240100149,None,,,,,,,,,,,,,,,,,,,,,,,,,,,,,,,,,,,apple,104,19,aloud,blue,1048.2191440002061,None,None,1048.2191440002061,None,,,,,,,,,,,,,,,,,,,,,,,,,,,,,,28,001,2023_Mar_27_1245,ExactRep-v3-final,2021.2.3,59.97238886496926,
,,,,,,,,19,0,19,0,,,,,,,,,,,,,,,,,,,,,,,,,,,,,,,,,,,,,,,,,,,,,,,,,,,,,1052.7392580001615,None,,,,,,,,,,,,,,,,,,,,,,,,,,,,,,,,,,,woods,39,20,silent,white,1050.738907400053,None,None,1050.738907400053,None,,,,,,,,,,,,,,,,,,,,,,,,,,,,,,28,001,2023_Mar_27_1245,ExactRep-v3-final,2021.2.3,59.97238886496926,
,,,,,,,,20,0,20,0,,,,,,,,,,,,,,,,,,,,,,,,,,,,,,,,,,,,,,,,,,,,,,,,,,,,,1055.2420546002686,None,,,,,,,,,,,,,,,,,,,,,,,,,,,,,,,,,,,troops,110,21,aloud,blue,1053.2431022999808,None,None,1053.2431022999808,None,,,,,,,,,,,,,,,,,,,,,,,,,,,,,,28,001,2023_Mar_27_1245,ExactRep-v3-final,2021.2.3,59.97238886496926,
,,,,,,,,21,0,21,0,,,,,,,,,,,,,,,,,,,,,,,,,,,,,,,,,,,,,,,,,,,,,,,,,,,,,1057.7444382002577,None,,,,,,,,,,,,,,,,,,,,,,,,,,,,,,,,,,,engine,71,22,silent,white,1055.745323699899,None,None,1055.745323699899,None,,,,,,,,,,,,,,,,,,,,,,,,,,,,,,28,001,2023_Mar_27_1245,ExactRep-v3-final,2021.2.3,59.97238886496926,
,,,,,,,,22,0,22,0,,,,,,,,,,,,,,,,,,,,,,,,,,,,,,,,,,,,,,,,,,,,,,,,,,,,,1060.2636124002747,None,,,,,,,,,,,,,,,,,,,,,,,,,,,,,,,,,,,avenue,81,23,aloud,blue,1058.2543234000914,None,None,1058.2543234000914,None,,,,,,,,,,,,,,,,,,,,,,,,,,,,,,28,001,2023_Mar_27_1245,ExactRep-v3-final,2021.2.3,59.97238886496926,
,,,,,,,,23,0,23,0,,,,,,,,,,,,,,,,,,,,,,,,,,,,,,,,,,,,,,,,,,,,,,,,,,,,,1062.7659820001572,None,,,,,,,,,,,,,,,,,,,,,,,,,,,,,,,,,,,dust,27,24,sing,red,1060.7640606998466,None,None,1060.7640606998466,None,,,,,,,,,,,,,,,,,,,,,,,,,,,,,,28,001,2023_Mar_27_1245,ExactRep-v3-final,2021.2.3,59.97238886496926,
,,,,,,,,24,0,24,0,,,,,,,,,,,,,,,,,,,,,,,,,,,,,,,,,,,,,,,,,,,,,,,,,,,,,1065.2857874999754,None,,,,,,,,,,,,,,,,,,,,,,,,,,,,,,,,,,,village,67,25,silent,white,1063.2698832000606,None,None,1063.2698832000606,None,,,,,,,,,,,,,,,,,,,,,,,,,,,,,,28,001,2023_Mar_27_1245,ExactRep-v3-final,2021.2.3,59.97238886496926,
,,,,,,,,25,0,25,0,,,,,,,,,,,,,,,,,,,,,,,,,,,,,,,,,,,,,,,,,,,,,,,,,,,,,1067.7877931999974,None,,,,,,,,,,,,,,,,,,,,,,,,,,,,,,,,,,,cat,93,26,aloud,blue,1065.7858057999983,None,None,1065.7858057999983,None,,,,,,,,,,,,,,,,,,,,,,,,,,,,,,28,001,2023_Mar_27_1245,ExactRep-v3-final,2021.2.3,59.97238886496926,
,,,,,,,,26,0,26,0,,,,,,,,,,,,,,,,,,,,,,,,,,,,,,,,,,,,,,,,,,,,,,,,,,,,,1070.3068710998632,None,,,,,,,,,,,,,,,,,,,,,,,,,,,,,,,,,,,forest,115,27,aloud,blue,1068.3007185999304,None,None,1068.3007185999304,None,,,,,,,,,,,,,,,,,,,,,,,,,,,,,,28,001,2023_Mar_27_1245,ExactRep-v3-final,2021.2.3,59.97238886496926,
,,,,,,,,27,0,27,0,,,,,,,,,,,,,,,,,,,,,,,,,,,,,,,,,,,,,,,,,,,,,,,,,,,,,1072.809616100043,None,,,,,,,,,,,,,,,,,,,,,,,,,,,,,,,,,,,paper,88,28,aloud,blue,1070.8075771001168,None,None,1070.8075771001168,None,,,,,,,,,,,,,,,,,,,,,,,,,,,,,,28,001,2023_Mar_27_1245,ExactRep-v3-final,2021.2.3,59.97238886496926,
,,,,,,,,28,0,28,0,,,,,,,,,,,,,,,,,,,,,,,,,,,,,,,,,,,,,,,,,,,,,,,,,,,,,1075.3287347001024,None,,,,,,,,,,,,,,,,,,,,,,,,,,,,,,,,,,,fact,57,29,silent,white,1073.3209903002717,None,None,1073.3209903002717,None,,,,,,,,,,,,,,,,,,,,,,,,,,,,,,28,001,2023_Mar_27_1245,ExactRep-v3-final,2021.2.3,59.97238886496926,
,,,,,,,,29,0,29,0,,,,,,,,,,,,,,,,,,,,,,,,,,,,,,,,,,,,,,,,,,,,,,,,,,,,,1077.8313775002025,None,,,,,,,,,,,,,,,,,,,,,,,,,,,,,,,,,,,honour,62,30,silent,white,1075.830629200209,None,None,1075.830629200209,None,,,,,,,,,,,,,,,,,,,,,,,,,,,,,,28,001,2023_Mar_27_1245,ExactRep-v3-final,2021.2.3,59.97238886496926,
,,,,,,,,30,0,30,0,,,,,,,,,,,,,,,,,,,,,,,,,,,,,,,,,,,,,,,,,,,,,,,,,,,,,1080.3337501999922,None,,,,,,,,,,,,,,,,,,,,,,,,,,,,,,,,,,,amount,84,31,aloud,blue,1078.3316633999348,None,None,1078.3316633999348,None,,,,,,,,,,,,,,,,,,,,,,,,,,,,,,28,001,2023_Mar_27_1245,ExactRep-v3-final,2021.2.3,59.97238886496926,
,,,,,,,,31,0,31,0,,,,,,,,,,,,,,,,,,,,,,,,,,,,,,,,,,,,,,,,,,,,,,,,,,,,,1082.852988500148,None,,,,,,,,,,,,,,,,,,,,,,,,,,,,,,,,,,,pole,61,32,silent,white,1080.8380269999616,None,None,1080.8380269999616,None,,,,,,,,,,,,,,,,,,,,,,,,,,,,,,28,001,2023_Mar_27_1245,ExactRep-v3-final,2021.2.3,59.97238886496926,
,,,,,,,,32,0,32,0,,,,,,,,,,,,,,,,,,,,,,,,,,,,,,,,,,,,,,,,,,,,,,,,,,,,,1085.3553693001159,None,,,,,,,,,,,,,,,,,,,,,,,,,,,,,,,,,,,maiden,3,33,sing,red,1083.353326600045,None,None,1083.353326600045,None,,,,,,,,,,,,,,,,,,,,,,,,,,,,,,28,001,2023_Mar_27_1245,ExactRep-v3-final,2021.2.3,59.97238886496926,
,,,,,,,,33,0,33,0,,,,,,,,,,,,,,,,,,,,,,,,,,,,,,,,,,,,,,,,,,,,,,,,,,,,,1087.8745691999793,None,,,,,,,,,,,,,,,,,,,,,,,,,,,,,,,,,,,theory,24,34,sing,red,1085.8595584998839,None,None,1085.8595584998839,None,,,,,,,,,,,,,,,,,,,,,,,,,,,,,,28,001,2023_Mar_27_1245,ExactRep-v3-final,2021.2.3,59.97238886496926,
,,,,,,,,34,0,34,0,,,,,,,,,,,,,,,,,,,,,,,,,,,,,,,,,,,,,,,,,,,,,,,,,,,,,1090.3770889001898,None,,,,,,,,,,,,,,,,,,,,,,,,,,,,,,,,,,,opinion,101,35,aloud,blue,1088.3760951999575,None,None,1088.3760951999575,None,,,,,,,,,,,,,,,,,,,,,,,,,,,,,,28,001,2023_Mar_27_1245,ExactRep-v3-final,2021.2.3,59.97238886496926,
,,,,,,,,35,0,35,0,,,,,,,,,,,,,,,,,,,,,,,,,,,,,,,,,,,,,,,,,,,,,,,,,,,,,1092.896304300055,None,,,,,,,,,,,,,,,,,,,,,,,,,,,,,,,,,,,master,41,36,silent,white,1090.8818073999137,None,None,1090.8818073999137,None,,,,,,,,,,,,,,,,,,,,,,,,,,,,,,28,001,2023_Mar_27_1245,ExactRep-v3-final,2021.2.3,59.97238886496926,
,,,,,,,,36,0,36,0,,,,,,,,,,,,,,,,,,,,,,,,,,,,,,,,,,,,,,,,,,,,,,,,,,,,,1095.3987761000171,None,,,,,,,,,,,,,,,,,,,,,,,,,,,,,,,,,,,door,89,37,aloud,blue,1093.3980259001255,None,None,1093.3980259001255,None,,,,,,,,,,,,,,,,,,,,,,,,,,,,,,28,001,2023_Mar_27_1245,ExactRep-v3-final,2021.2.3,59.97238886496926,
,,,,,,,,37,0,37,0,,,,,,,,,,,,,,,,,,,,,,,,,,,,,,,,,,,,,,,,,,,,,,,,,,,,,1097.9180025998503,None,,,,,,,,,,,,,,,,,,,,,,,,,,,,,,,,,,,present,94,38,aloud,blue,1095.9036743999459,None,None,1095.9036743999459,None,,,,,,,,,,,,,,,,,,,,,,,,,,,,,,28,001,2023_Mar_27_1245,ExactRep-v3-final,2021.2.3,59.97238886496926,
,,,,,,,,38,0,38,0,,,,,,,,,,,,,,,,,,,,,,,,,,,,,,,,,,,,,,,,,,,,,,,,,,,,,1100.4369462002069,None,,,,,,,,,,,,,,,,,,,,,,,,,,,,,,,,,,,answer,63,39,silent,white,1098.42554249987,None,None,1098.42554249987,None,,,,,,,,,,,,,,,,,,,,,,,,,,,,,,28,001,2023_Mar_27_1245,ExactRep-v3-final,2021.2.3,59.97238886496926,
,,,,,,,,39,0,39,0,,,,,,,,,,,,,,,,,,,,,,,,,,,,,,,,,,,,,,,,,,,,,,,,,,,,,1102.9562845998444,None,,,,,,,,,,,,,,,,,,,,,,,,,,,,,,,,,,,disease,119,40,aloud,blue,1100.9455698998645,None,None,1100.9455698998645,None,,,,,,,,,,,,,,,,,,,,,,,,,,,,,,28,001,2023_Mar_27_1245,ExactRep-v3-final,2021.2.3,59.97238886496926,
,,,,,,,,40,0,40,0,,,,,,,,,,,,,,,,,,,,,,,,,,,,,,,,,,,,,,,,,,,,,,,,,,,,,1105.4755220999941,None,,,,,,,,,,,,,,,,,,,,,,,,,,,,,,,,,,,blood,46,41,silent,white,1103.4677853998728,None,None,1103.4677853998728,None,,,,,,,,,,,,,,,,,,,,,,,,,,,,,,28,001,2023_Mar_27_1245,ExactRep-v3-final,2021.2.3,59.97238886496926,
,,,,,,,,41,0,41,0,,,,,,,,,,,,,,,,,,,,,,,,,,,,,,,,,,,,,,,,,,,,,,,,,,,,,1107.99512650026,None,,,,,,,,,,,,,,,,,,,,,,,,,,,,,,,,,,,artist,107,42,aloud,blue,1105.9847614001483,None,None,1105.9847614001483,None,,,,,,,,,,,,,,,,,,,,,,,,,,,,,,28,001,2023_Mar_27_1245,ExactRep-v3-final,2021.2.3,59.97238886496926,
,,,,,,,,42,0,42,0,,,,,,,,,,,,,,,,,,,,,,,,,,,,,,,,,,,,,,,,,,,,,,,,,,,,,1110.497029399965,None,,,,,,,,,,,,,,,,,,,,,,,,,,,,,,,,,,,pupil,34,43,sing,red,1108.495116500184,None,None,1108.495116500184,None,,,,,,,,,,,,,,,,,,,,,,,,,,,,,,28,001,2023_Mar_27_1245,ExactRep-v3-final,2021.2.3,59.97238886496926,
,,,,,,,,43,0,43,0,,,,,,,,,,,,,,,,,,,,,,,,,,,,,,,,,,,,,,,,,,,,,,,,,,,,,1113.0164020000957,None,,,,,,,,,,,,,,,,,,,,,,,,,,,,,,,,,,,grief,0,44,sing,red,1111.0037409001961,None,None,1111.0037409001961,None,,,,,,,,,,,,,,,,,,,,,,,,,,,,,,28,001,2023_Mar_27_1245,ExactRep-v3-final,2021.2.3,59.97238886496926,
,,,,,,,,44,0,44,0,,,,,,,,,,,,,,,,,,,,,,,,,,,,,,,,,,,,,,,,,,,,,,,,,,,,,1115.5356196002103,None,,,,,,,,,,,,,,,,,,,,,,,,,,,,,,,,,,,bowl,76,45,silent,white,1113.5216931002215,None,None,1113.5216931002215,None,,,,,,,,,,,,,,,,,,,,,,,,,,,,,,28,001,2023_Mar_27_1245,ExactRep-v3-final,2021.2.3,59.97238886496926,
,,,,,,,,45,0,45,0,,,,,,,,,,,,,,,,,,,,,,,,,,,,,,,,,,,,,,,,,,,,,,,,,,,,,1118.0545415002853,None,,,,,,,,,,,,,,,,,,,,,,,,,,,,,,,,,,,queen,6,46,sing,red,1116.046390700154,None,None,1116.046390700154,None,,,,,,,,,,,,,,,,,,,,,,,,,,,,,,28,001,2023_Mar_27_1245,ExactRep-v3-final,2021.2.3,59.97238886496926,
,,,,,,,,46,0,46,0,,,,,,,,,,,,,,,,,,,,,,,,,,,,,,,,,,,,,,,,,,,,,,,,,,,,,1120.5738865998574,None,,,,,,,,,,,,,,,,,,,,,,,,,,,,,,,,,,,ship,48,47,silent,white,1118.5645595998503,None,None,1118.5645595998503,None,,,,,,,,,,,,,,,,,,,,,,,,,,,,,,28,001,2023_Mar_27_1245,ExactRep-v3-final,2021.2.3,59.97238886496926,
,,,,,,,,47,0,47,0,,,,,,,,,,,,,,,,,,,,,,,,,,,,,,,,,,,,,,,,,,,,,,,,,,,,,1123.076405200176,None,,,,,,,,,,,,,,,,,,,,,,,,,,,,,,,,,,,chance,8,48,sing,red,1121.074413599912,None,None,1121.074413599912,None,,,,,,,,,,,,,,,,,,,,,,,,,,,,,,28,001,2023_Mar_27_1245,ExactRep-v3-final,2021.2.3,59.97238886496926,
,,,,,,,,48,0,48,0,,,,,,,,,,,,,,,,,,,,,,,,,,,,,,,,,,,,,,,,,,,,,,,,,,,,,1125.5956429000944,None,,,,,,,,,,,,,,,,,,,,,,,,,,,,,,,,,,,factory,26,49,sing,red,1123.581615400035,None,None,1123.581615400035,None,,,,,,,,,,,,,,,,,,,,,,,,,,,,,,28,001,2023_Mar_27_1245,ExactRep-v3-final,2021.2.3,59.97238886496926,
,,,,,,,,49,0,49,0,,,,,,,,,,,,,,,,,,,,,,,,,,,,,,,,,,,,,,,,,,,,,,,,,,,,,1128.0980783998966,None,,,,,,,,,,,,,,,,,,,,,,,,,,,,,,,,,,,officer,55,50,silent,white,1126.0984203000553,None,None,1126.0984203000553,None,,,,,,,,,,,,,,,,,,,,,,,,,,,,,,28,001,2023_Mar_27_1245,ExactRep-v3-final,2021.2.3,59.97238886496926,
,,,,,,,,50,0,50,0,,,,,,,,,,,,,,,,,,,,,,,,,,,,,,,,,,,,,,,,,,,,,,,,,,,,,1130.600655599963,None,,,,,,,,,,,,,,,,,,,,,,,,,,,,,,,,,,,child,33,51,sing,red,1128.5984213999473,None,None,1128.5984213999473,None,,,,,,,,,,,,,,,,,,,,,,,,,,,,,,28,001,2023_Mar_27_1245,ExactRep-v3-final,2021.2.3,59.97238886496926,
,,,,,,,,51,0,51,0,,,,,,,,,,,,,,,,,,,,,,,,,,,,,,,,,,,,,,,,,,,,,,,,,,,,,1133.1198332998902,None,,,,,,,,,,,,,,,,,,,,,,,,,,,,,,,,,,,house,106,52,aloud,blue,1131.104389499873,None,None,1131.104389499873,None,,,,,,,,,,,,,,,,,,,,,,,,,,,,,,28,001,2023_Mar_27_1245,ExactRep-v3-final,2021.2.3,59.97238886496926,
,,,,,,,,52,0,52,0,,,,,,,,,,,,,,,,,,,,,,,,,,,,,,,,,,,,,,,,,,,,,,,,,,,,,1135.6390897003002,None,,,,,,,,,,,,,,,,,,,,,,,,,,,,,,,,,,,thought,51,53,silent,white,1133.628231300041,None,None,1133.628231300041,None,,,,,,,,,,,,,,,,,,,,,,,,,,,,,,28,001,2023_Mar_27_1245,ExactRep-v3-final,2021.2.3,59.97238886496926,
,,,,,,,,53,0,53,0,,,,,,,,,,,,,,,,,,,,,,,,,,,,,,,,,,,,,,,,,,,,,,,,,,,,,1138.1413838998415,None,,,,,,,,,,,,,,,,,,,,,,,,,,,,,,,,,,,author,79,54,sing,red,1136.1393305002712,None,None,1136.1393305002712,None,,,,,,,,,,,,,,,,,,,,,,,,,,,,,,28,001,2023_Mar_27_1245,ExactRep-v3-final,2021.2.3,59.97238886496926,
,,,,,,,,54,0,54,0,,,,,,,,,,,,,,,,,,,,,,,,,,,,,,,,,,,,,,,,,,,,,,,,,,,,,1140.6440163999796,None,,,,,,,,,,,,,,,,,,,,,,,,,,,,,,,,,,,college,70,55,silent,white,1138.6418336001225,None,None,1138.6418336001225,None,,,,,,,,,,,,,,,,,,,,,,,,,,,,,,28,001,2023_Mar_27_1245,ExactRep-v3-final,2021.2.3,59.97238886496926,
,,,,,,,,55,0,55,0,,,,,,,,,,,,,,,,,,,,,,,,,,,,,,,,,,,,,,,,,,,,,,,,,,,,,1143.1652390998788,None,,,,,,,,,,,,,,,,,,,,,,,,,,,,,,,,,,,beast,32,56,sing,red,1141.147990200203,None,None,1141.147990200203,None,,,,,,,,,,,,,,,,,,,,,,,,,,,,,,28,001,2023_Mar_27_1245,ExactRep-v3-final,2021.2.3,59.97238886496926,
,,,,,,,,56,0,56,0,,,,,,,,,,,,,,,,,,,,,,,,,,,,,,,,,,,,,,,,,,,,,,,,,,,,,1145.6824994999915,None,,,,,,,,,,,,,,,,,,,,,,,,,,,,,,,,,,,home,20,57,sing,red,1143.6690714000724,None,None,1143.6690714000724,None,,,,,,,,,,,,,,,,,,,,,,,,,,,,,,28,001,2023_Mar_27_1245,ExactRep-v3-final,2021.2.3,59.97238886496926,
,,,,,,,,57,0,57,0,,,,,,,,,,,,,,,,,,,,,,,,,,,,,,,,,,,,,,,,,,,,,,,,,,,,,1148.1849374002777,None,,,,,,,,,,,,,,,,,,,,,,,,,,,,,,,,,,,meat,80,58,aloud,blue,1146.182664600201,None,None,1146.182664600201,None,,,,,,,,,,,,,,,,,,,,,,,,,,,,,,28,001,2023_Mar_27_1245,ExactRep-v3-final,2021.2.3,59.97238886496926,
,,,,,,,,58,0,58,0,,,,,,,,,,,,,,,,,,,,,,,,,,,,,,,,,,,,,,,,,,,,,,,,,,,,,1150.7040606001392,None,,,,,,,,,,,,,,,,,,,,,,,,,,,,,,,,,,,board,28,59,sing,red,1148.6895218999125,None,None,1148.6895218999125,None,,,,,,,,,,,,,,,,,,,,,,,,,,,,,,28,001,2023_Mar_27_1245,ExactRep-v3-final,2021.2.3,59.97238886496926,
,,,,,,,,59,0,59,0,,,,,,,,,,,,,,,,,,,,,,,,,,,,,,,,,,,,,,,,,,,,,,,,,,,,,1153.2065701000392,None,,,,,,,,,,,,,,,,,,,,,,,,,,,,,,,,,,,world,118,60,aloud,blue,1151.2058112998493,None,None,1151.2058112998493,None,,,,,,,,,,,,,,,,,,,,,,,,,,,,,,28,001,2023_Mar_27_1245,ExactRep-v3-final,2021.2.3,59.97238886496926,
,,,,,,,,60,0,60,0,,,,,,,,,,,,,,,,,,,,,,,,,,,,,,,,,,,,,,,,,,,,,,,,,,,,,1155.7258180999197,None,,,,,,,,,,,,,,,,,,,,,,,,,,,,,,,,,,,quality,59,61,silent,white,1153.7102969000116,None,None,1153.7102969000116,None,,,,,,,,,,,,,,,,,,,,,,,,,,,,,,28,001,2023_Mar_27_1245,ExactRep-v3-final,2021.2.3,59.97238886496926,
,,,,,,,,61,0,61,0,,,,,,,,,,,,,,,,,,,,,,,,,,,,,,,,,,,,,,,,,,,,,,,,,,,,,1158.2283219001256,None,,,,,,,,,,,,,,,,,,,,,,,,,,,,,,,,,,,girl,78,62,silent,white,1156.226242700126,None,None,1156.226242700126,None,,,,,,,,,,,,,,,,,,,,,,,,,,,,,,28,001,2023_Mar_27_1245,ExactRep-v3-final,2021.2.3,59.97238886496926,
,,,,,,,,62,0,62,0,,,,,,,,,,,,,,,,,,,,,,,,,,,,,,,,,,,,,,,,,,,,,,,,,,,,,1160.7475057002157,None,,,,,,,,,,,,,,,,,,,,,,,,,,,,,,,,,,,ability,16,63,sing,red,1158.7321168002672,None,None,1158.7321168002672,None,,,,,,,,,,,,,,,,,,,,,,,,,,,,,,28,001,2023_Mar_27_1245,ExactRep-v3-final,2021.2.3,59.97238886496926,
,,,,,,,,63,0,63,0,,,,,,,,,,,,,,,,,,,,,,,,,,,,,,,,,,,,,,,,,,,,,,,,,,,,,1163.249959200155,None,,,,,,,,,,,,,,,,,,,,,,,,,,,,,,,,,,,silence,37,64,sing,red,1161.2479664999992,None,None,1161.2479664999992,None,,,,,,,,,,,,,,,,,,,,,,,,,,,,,,28,001,2023_Mar_27_1245,ExactRep-v3-final,2021.2.3,59.97238886496926,
,,,,,,,,64,0,64,0,,,,,,,,,,,,,,,,,,,,,,,,,,,,,,,,,,,,,,,,,,,,,,,,,,,,,1165.769142200239,None,,,,,,,,,,,,,,,,,,,,,,,,,,,,,,,,,,,winter,31,65,sing,red,1163.7557423003018,None,None,1163.7557423003018,None,,,,,,,,,,,,,,,,,,,,,,,,,,,,,,28,001,2023_Mar_27_1245,ExactRep-v3-final,2021.2.3,59.97238886496926,
,,,,,,,,65,0,65,0,,,,,,,,,,,,,,,,,,,,,,,,,,,,,,,,,,,,,,,,,,,,,,,,,,,,,1168.2716663000174,None,,,,,,,,,,,,,,,,,,,,,,,,,,,,,,,,,,,justice,111,66,aloud,blue,1166.2714370000176,None,None,1166.2714370000176,None,,,,,,,,,,,,,,,,,,,,,,,,,,,,,,28,001,2023_Mar_27_1245,ExactRep-v3-final,2021.2.3,59.97238886496926,
,,,,,,,,66,0,66,0,,,,,,,,,,,,,,,,,,,,,,,,,,,,,,,,,,,,,,,,,,,,,,,,,,,,,1170.790720500052,None,,,,,,,,,,,,,,,,,,,,,,,,,,,,,,,,,,,letter,97,67,aloud,blue,1168.7815777002834,None,None,1168.7815777002834,None,,,,,,,,,,,,,,,,,,,,,,,,,,,,,,28,001,2023_Mar_27_1245,ExactRep-v3-final,2021.2.3,59.97238886496926,
,,,,,,,,67,0,67,0,,,,,,,,,,,,,,,,,,,,,,,,,,,,,,,,,,,,,,,,,,,,,,,,,,,,,1173.2933836998418,None,,,,,,,,,,,,,,,,,,,,,,,,,,,,,,,,,,,plain,103,68,aloud,blue,1171.2912409002893,None,None,1171.2912409002893,None,,,,,,,,,,,,,,,,,,,,,,,,,,,,,,28,001,2023_Mar_27_1245,ExactRep-v3-final,2021.2.3,59.97238886496926,
,,,,,,,,68,0,68,0,,,,,,,,,,,,,,,,,,,,,,,,,,,,,,,,,,,,,,,,,,,,,,,,,,,,,1175.7956703002565,None,,,,,,,,,,,,,,,,,,,,,,,,,,,,,,,,,,,prayer,109,69,aloud,blue,1173.7958967001177,None,None,1173.7958967001177,None,,,,,,,,,,,,,,,,,,,,,,,,,,,,,,28,001,2023_Mar_27_1245,ExactRep-v3-final,2021.2.3,59.97238886496926,
,,,,,,,,69,0,69,0,,,,,,,,,,,,,,,,,,,,,,,,,,,,,,,,,,,,,,,,,,,,,,,,,,,,,1178.298194800038,None,,,,,,,,,,,,,,,,,,,,,,,,,,,,,,,,,,,fortune,95,70,aloud,blue,1176.2972305999137,None,None,1176.2972305999137,None,,,,,,,,,,,,,,,,,,,,,,,,,,,,,,28,001,2023_Mar_27_1245,ExactRep-v3-final,2021.2.3,59.97238886496926,
,,,,,,,,70,0,70,0,,,,,,,,,,,,,,,,,,,,,,,,,,,,,,,,,,,,,,,,,,,,,,,,,,,,,1180.8173553999513,None,,,,,,,,,,,,,,,,,,,,,,,,,,,,,,,,,,,priest,116,71,aloud,blue,1178.8082353002392,None,None,1178.8082353002392,None,,,,,,,,,,,,,,,,,,,,,,,,,,,,,,28,001,2023_Mar_27_1245,ExactRep-v3-final,2021.2.3,59.97238886496926,
,,,,,,,,71,0,71,0,,,,,,,,,,,,,,,,,,,,,,,,,,,,,,,,,,,,,,,,,,,,,,,,,,,,,1183.3199678002857,None,,,,,,,,,,,,,,,,,,,,,,,,,,,,,,,,,,,tool,96,72,aloud,blue,1181.3178262999281,None,None,1181.3178262999281,None,,,,,,,,,,,,,,,,,,,,,,,,,,,,,,28,001,2023_Mar_27_1245,ExactRep-v3-final,2021.2.3,59.97238886496926,
,,,,,,,,72,0,72,0,,,,,,,,,,,,,,,,,,,,,,,,,,,,,,,,,,,,,,,,,,,,,,,,,,,,,1185.8225139002316,None,,,,,,,,,,,,,,,,,,,,,,,,,,,,,,,,,,,party,75,73,silent,white,1183.8210813999176,None,None,1183.8210813999176,None,,,,,,,,,,,,,,,,,,,,,,,,,,,,,,28,001,2023_Mar_27_1245,ExactRep-v3-final,2021.2.3,59.97238886496926,
,,,,,,,,73,0,73,0,,,,,,,,,,,,,,,,,,,,,,,,,,,,,,,,,,,,,,,,,,,,,,,,,,,,,1188.3248792998493,None,,,,,,,,,,,,,,,,,,,,,,,,,,,,,,,,,,,time,64,74,silent,white,1186.3250221000053,None,None,1186.3250221000053,None,,,,,,,,,,,,,,,,,,,,,,,,,,,,,,28,001,2023_Mar_27_1245,ExactRep-v3-final,2021.2.3,59.97238886496926,
,,,,,,,,74,0,74,0,,,,,,,,,,,,,,,,,,,,,,,,,,,,,,,,,,,,,,,,,,,,,,,,,,,,,1190.8276472999714,None,,,,,,,,,,,,,,,,,,,,,,,,,,,,,,,,,,,city,30,75,sing,red,1188.827670500148,None,None,1188.827670500148,None,,,,,,,,,,,,,,,,,,,,,,,,,,,,,,28,001,2023_Mar_27_1245,ExactRep-v3-final,2021.2.3,59.97238886496926,
,,,,,,,,75,0,75,0,,,,,,,,,,,,,,,,,,,,,,,,,,,,,,,,,,,,,,,,,,,,,,,,,,,,,1193.3465060000308,None,,,,,,,,,,,,,,,,,,,,,,,,,,,,,,,,,,,machine,42,76,silent,white,1191.3316008001566,None,None,1191.3316008001566,None,,,,,,,,,,,,,,,,,,,,,,,,,,,,,,28,001,2023_Mar_27_1245,ExactRep-v3-final,2021.2.3,59.97238886496926,
,,,,,,,,76,0,76,0,,,,,,,,,,,,,,,,,,,,,,,,,,,,,,,,,,,,,,,,,,,,,,,,,,,,,1195.8492485000752,None,,,,,,,,,,,,,,,,,,,,,,,,,,,,,,,,,,,trouble,102,77,aloud,blue,1193.849895699881,None,None,1193.849895699881,None,,,,,,,,,,,,,,,,,,,,,,,,,,,,,,28,001,2023_Mar_27_1245,ExactRep-v3-final,2021.2.3,59.97238886496926,
,,,,,,,,77,0,77,0,,,,,,,,,,,,,,,,,,,,,,,,,,,,,,,,,,,,,,,,,,,,,,,,,,,,,1198.368370700162,None,,,,,,,,,,,,,,,,,,,,,,,,,,,,,,,,,,,vessel,83,78,aloud,blue,1196.3532929001376,None,None,1196.3532929001376,None,,,,,,,,,,,,,,,,,,,,,,,,,,,,,,28,001,2023_Mar_27_1245,ExactRep-v3-final,2021.2.3,59.97238886496926,
,,,,,,,,78,0,78,0,,,,,,,,,,,,,,,,,,,,,,,,,,,,,,,,,,,,,,,,,,,,,,,,,,,,,1200.887535800226,None,,,,,,,,,,,,,,,,,,,,,,,,,,,,,,,,,,,glory,69,79,silent,white,1198.8754278998822,None,None,1198.8754278998822,None,,,,,,,,,,,,,,,,,,,,,,,,,,,,,,28,001,2023_Mar_27_1245,ExactRep-v3-final,2021.2.3,59.97238886496926,
,,,,,,,,79,0,79,0,,,,,,,,,,,,,,,,,,,,,,,,,,,,,,,,,,,,,,,,,,,,,,,,,,,,,1203.4065749999136,None,,,,,,,,,,,,,,,,,,,,,,,,,,,,,,,,,,,death,47,80,silent,white,1201.3945340001956,None,None,1201.3945340001956,None,,,,,,,,,,,,,,,,,,,,,,,,,,,,,,28,001,2023_Mar_27_1245,ExactRep-v3-final,2021.2.3,59.97238886496926,
,,,,,,,,80,0,80,0,,,,,,,,,,,,,,,,,,,,,,,,,,,,,,,,,,,,,,,,,,,,,,,,,,,,,1205.9093051999807,None,,,,,,,,,,,,,,,,,,,,,,,,,,,,,,,,,,,breast,74,81,silent,white,1203.9071440999396,None,None,1203.9071440999396,None,,,,,,,,,,,,,,,,,,,,,,,,,,,,,,28,001,2023_Mar_27_1245,ExactRep-v3-final,2021.2.3,59.97238886496926,
,,,,,,,,81,0,81,0,,,,,,,,,,,,,,,,,,,,,,,,,,,,,,,,,,,,,,,,,,,,,,,,,,,,,1208.411602200009,None,,,,,,,,,,,,,,,,,,,,,,,,,,,,,,,,,,,cotton,53,82,silent,white,1206.4097833000124,None,None,1206.4097833000124,None,,,,,,,,,,,,,,,,,,,,,,,,,,,,,,28,001,2023_Mar_27_1245,ExactRep-v3-final,2021.2.3,59.97238886496926,
,,,,,,,,82,0,82,0,,,,,,,,,,,,,,,,,,,,,,,,,,,,,,,,,,,,,,,,,,,,,,,,,,,,,1210.914295699913,None,,,,,,,,,,,,,,,,,,,,,,,,,,,,,,,,,,,blossom,90,83,aloud,blue,1208.915324300062,None,None,1208.915324300062,None,,,,,,,,,,,,,,,,,,,,,,,,,,,,,,28,001,2023_Mar_27_1245,ExactRep-v3-final,2021.2.3,59.97238886496926,
,,,,,,,,83,0,83,0,,,,,,,,,,,,,,,,,,,,,,,,,,,,,,,,,,,,,,,,,,,,,,,,,,,,,1213.4334738999605,None,,,,,,,,,,,,,,,,,,,,,,,,,,,,,,,,,,,street,25,84,sing,red,1211.4216314000078,None,None,1211.4216314000078,None,,,,,,,,,,,,,,,,,,,,,,,,,,,,,,28,001,2023_Mar_27_1245,ExactRep-v3-final,2021.2.3,59.97238886496926,
,,,,,,,,84,0,84,0,,,,,,,,,,,,,,,,,,,,,,,,,,,,,,,,,,,,,,,,,,,,,,,,,,,,,1215.9360491000116,None,,,,,,,,,,,,,,,,,,,,,,,,,,,,,,,,,,,rod,35,85,sing,red,1213.9337655999698,None,None,1213.9337655999698,None,,,,,,,,,,,,,,,,,,,,,,,,,,,,,,28,001,2023_Mar_27_1245,ExactRep-v3-final,2021.2.3,59.97238886496926,
,,,,,,,,85,0,85,0,,,,,,,,,,,,,,,,,,,,,,,,,,,,,,,,,,,,,,,,,,,,,,,,,,,,,1218.4384973002598,None,,,,,,,,,,,,,,,,,,,,,,,,,,,,,,,,,,,crime,18,86,sing,red,1216.437838899903,None,None,1216.437838899903,None,,,,,,,,,,,,,,,,,,,,,,,,,,,,,,28,001,2023_Mar_27_1245,ExactRep-v3-final,2021.2.3,59.97238886496926,
,,,,,,,,86,0,86,0,,,,,,,,,,,,,,,,,,,,,,,,,,,,,,,,,,,,,,,,,,,,,,,,,,,,,1220.9576527001336,None,,,,,,,,,,,,,,,,,,,,,,,,,,,,,,,,,,,skin,56,87,silent,white,1218.9458200000226,None,None,1218.9458200000226,None,,,,,,,,,,,,,,,,,,,,,,,,,,,,,,28,001,2023_Mar_27_1245,ExactRep-v3-final,2021.2.3,59.97238886496926,
,,,,,,,,87,0,87,0,,,,,,,,,,,,,,,,,,,,,,,,,,,,,,,,,,,,,,,,,,,,,,,,,,,,,1223.4600718999282,None,,,,,,,,,,,,,,,,,,,,,,,,,,,,,,,,,,,tree,14,88,sing,red,1221.459477700293,None,None,1221.459477700293,None,,,,,,,,,,,,,,,,,,,,,,,,,,,,,,28,001,2023_Mar_27_1245,ExactRep-v3-final,2021.2.3,59.97238886496926,
,,,,,,,,88,0,88,0,,,,,,,,,,,,,,,,,,,,,,,,,,,,,,,,,,,,,,,,,,,,,,,,,,,,,1225.962487200275,None,,,,,,,,,,,,,,,,,,,,,,,,,,,,,,,,,,,steam,17,89,sing,red,1223.9622084000148,None,None,1223.9622084000148,None,,,,,,,,,,,,,,,,,,,,,,,,,,,,,,28,001,2023_Mar_27_1245,ExactRep-v3-final,2021.2.3,59.97238886496926,
,,,,,,,,89,0,89,0,,,,,,,,,,,,,,,,,,,,,,,,,,,,,,,,,,,,,,,,,,,,,,,,,,,,,1228.4818339999765,None,,,,,,,,,,,,,,,,,,,,,,,,,,,,,,,,,,,flag,19,90,sing,red,1226.4724612999707,None,None,1226.4724612999707,None,,,,,,,,,,,,,,,,,,,,,,,,,,,,,,28,001,2023_Mar_27_1245,ExactRep-v3-final,2021.2.3,59.97238886496926,
,,,,,,,,90,0,90,0,,,,,,,,,,,,,,,,,,,,,,,,,,,,,,,,,,,,,,,,,,,,,,,,,,,,,1230.9843200002797,None,,,,,,,,,,,,,,,,,,,,,,,,,,,,,,,,,,,library,77,91,silent,white,1228.9823312000372,None,None,1228.9823312000372,None,,,,,,,,,,,,,,,,,,,,,,,,,,,,,,28,001,2023_Mar_27_1245,ExactRep-v3-final,2021.2.3,59.97238886496926,
,,,,,,,,91,0,91,0,,,,,,,,,,,,,,,,,,,,,,,,,,,,,,,,,,,,,,,,,,,,,,,,,,,,,1233.4866690002382,None,,,,,,,,,,,,,,,,,,,,,,,,,,,,,,,,,,,army,86,92,aloud,blue,1231.4852924002334,None,None,1231.4852924002334,None,,,,,,,,,,,,,,,,,,,,,,,,,,,,,,28,001,2023_Mar_27_1245,ExactRep-v3-final,2021.2.3,59.97238886496926,
,,,,,,,,92,0,92,0,,,,,,,,,,,,,,,,,,,,,,,,,,,,,,,,,,,,,,,,,,,,,,,,,,,,,1235.9894063998945,None,,,,,,,,,,,,,,,,,,,,,,,,,,,,,,,,,,,memory,117,93,aloud,blue,1233.987285000272,None,None,1233.987285000272,None,,,,,,,,,,,,,,,,,,,,,,,,,,,,,,28,001,2023_Mar_27_1245,ExactRep-v3-final,2021.2.3,59.97238886496926,
,,,,,,,,93,0,93,0,,,,,,,,,,,,,,,,,,,,,,,,,,,,,,,,,,,,,,,,,,,,,,,,,,,,,1238.5090955002233,None,,,,,,,,,,,,,,,,,,,,,,,,,,,,,,,,,,,salary,92,94,aloud,blue,1236.4960659001954,None,None,1236.4960659001954,None,,,,,,,,,,,,,,,,,,,,,,,,,,,,,,28,001,2023_Mar_27_1245,ExactRep-v3-final,2021.2.3,59.97238886496926,
,,,,,,,,94,0,94,0,,,,,,,,,,,,,,,,,,,,,,,,,,,,,,,,,,,,,,,,,,,,,,,,,,,,,1241.0276826000772,None,,,,,,,,,,,,,,,,,,,,,,,,,,,,,,,,,,,palace,15,95,sing,red,1239.021105099935,None,None,1239.021105099935,None,,,,,,,,,,,,,,,,,,,,,,,,,,,,,,28,001,2023_Mar_27_1245,ExactRep-v3-final,2021.2.3,59.97238886496926,
,,,,,,,,95,0,95,0,,,,,,,,,,,,,,,,,,,,,,,,,,,,,,,,,,,,,,,,,,,,,,,,,,,,,1243.530280600302,None,,,,,,,,,,,,,,,,,,,,,,,,,,,,,,,,,,,weapon,114,96,aloud,blue,1241.5290788998827,None,None,1241.5290788998827,None,,,,,,,,,,,,,,,,,,,,,,,,,,,,,,28,001,2023_Mar_27_1245,ExactRep-v3-final,2021.2.3,59.97238886496926,
,,,,,,,,96,0,96,0,,,,,,,,,,,,,,,,,,,,,,,,,,,,,,,,,,,,,,,,,,,,,,,,,,,,,1246.0328571000136,None,,,,,,,,,,,,,,,,,,,,,,,,,,,,,,,,,,,health,4,97,sing,red,1244.032455000095,None,None,1244.032455000095,None,,,,,,,,,,,,,,,,,,,,,,,,,,,,,,28,001,2023_Mar_27_1245,ExactRep-v3-final,2021.2.3,59.97238886496926,
,,,,,,,,97,0,97,0,,,,,,,,,,,,,,,,,,,,,,,,,,,,,,,,,,,,,,,,,,,,,,,,,,,,,1248.5351523999125,None,,,,,,,,,,,,,,,,,,,,,,,,,,,,,,,,,,,life,50,98,silent,white,1246.5342616001144,None,None,1246.5342616001144,None,,,,,,,,,,,,,,,,,,,,,,,,,,,,,,28,001,2023_Mar_27_1245,ExactRep-v3-final,2021.2.3,59.97238886496926,
,,,,,,,,98,0,98,0,,,,,,,,,,,,,,,,,,,,,,,,,,,,,,,,,,,,,,,,,,,,,,,,,,,,,1251.0377625999972,None,,,,,,,,,,,,,,,,,,,,,,,,,,,,,,,,,,,animal,108,99,aloud,blue,1249.0355600002222,None,None,1249.0355600002222,None,,,,,,,,,,,,,,,,,,,,,,,,,,,,,,28,001,2023_Mar_27_1245,ExactRep-v3-final,2021.2.3,59.97238886496926,
,,,,,,,,99,0,99,0,,,,,,,,,,,,,,,,,,,,,,,,,,,,,,,,,,,,,,,,,,,,,,,,,,,,,1253.556922700256,None,,,,,,,,,,,,,,,,,,,,,,,,,,,,,,,,,,,storm,98,100,aloud,blue,1251.5413215002045,None,None,1251.5413215002045,None,,,,,,,,,,,,,,,,,,,,,,,,,,,,,,28,001,2023_Mar_27_1245,ExactRep-v3-final,2021.2.3,59.97238886496926,
,,,,,,,,100,0,100,0,,,,,,,,,,,,,,,,,,,,,,,,,,,,,,,,,,,,,,,,,,,,,,,,,,,,,1256.0592439002357,None,,,,,,,,,,,,,,,,,,,,,,,,,,,,,,,,,,,cash,29,101,sing,red,1254.0587416999042,None,None,1254.0587416999042,None,,,,,,,,,,,,,,,,,,,,,,,,,,,,,,28,001,2023_Mar_27_1245,ExactRep-v3-final,2021.2.3,59.97238886496926,
,,,,,,,,101,0,101,0,,,,,,,,,,,,,,,,,,,,,,,,,,,,,,,,,,,,,,,,,,,,,,,,,,,,,1258.578453599941,None,,,,,,,,,,,,,,,,,,,,,,,,,,,,,,,,,,,chair,11,102,sing,red,1256.5697222999297,None,None,1256.5697222999297,None,,,,,,,,,,,,,,,,,,,,,,,,,,,,,,28,001,2023_Mar_27_1245,ExactRep-v3-final,2021.2.3,59.97238886496926,
,,,,,,,,102,0,102,0,,,,,,,,,,,,,,,,,,,,,,,,,,,,,,,,,,,,,,,,,,,,,,,,,,,,,1261.0811127000488,None,,,,,,,,,,,,,,,,,,,,,,,,,,,,,,,,,,,form,60,103,silent,white,1259.08069790015,None,None,1259.08069790015,None,,,,,,,,,,,,,,,,,,,,,,,,,,,,,,28,001,2023_Mar_27_1245,ExactRep-v3-final,2021.2.3,59.97238886496926,
,,,,,,,,103,0,103,0,,,,,,,,,,,,,,,,,,,,,,,,,,,,,,,,,,,,,,,,,,,,,,,,,,,,,1263.5909541002475,None,,,,,,,,,,,,,,,,,,,,,,,,,,,,,,,,,,,boulder,87,104,aloud,blue,1261.5813644002192,None,None,1261.5813644002192,None,,,,,,,,,,,,,,,,,,,,,,,,,,,,,,28,001,2023_Mar_27_1245,ExactRep-v3-final,2021.2.3,59.97238886496926,
,,,,,,,,104,0,104,0,,,,,,,,,,,,,,,,,,,,,,,,,,,,,,,,,,,,,,,,,,,,,,,,,,,,,1266.1194405001588,None,,,,,,,,,,,,,,,,,,,,,,,,,,,,,,,,,,,fault,100,105,aloud,blue,1264.105845999904,None,None,1264.105845999904,None,,,,,,,,,,,,,,,,,,,,,,,,,,,,,,28,001,2023_Mar_27_1245,ExactRep-v3-final,2021.2.3,59.97238886496926,
,,,,,,,,105,0,105,0,,,,,,,,,,,,,,,,,,,,,,,,,,,,,,,,,,,,,,,,,,,,,,,,,,,,,1268.638694500085,None,,,,,,,,,,,,,,,,,,,,,,,,,,,,,,,,,,,diamond,105,106,aloud,blue,1266.6262846002355,None,None,1266.6262846002355,None,,,,,,,,,,,,,,,,,,,,,,,,,,,,,,28,001,2023_Mar_27_1245,ExactRep-v3-final,2021.2.3,59.97238886496926,
,,,,,,,,106,0,106,0,,,,,,,,,,,,,,,,,,,,,,,,,,,,,,,,,,,,,,,,,,,,,,,,,,,,,1271.1412257999182,None,,,,,,,,,,,,,,,,,,,,,,,,,,,,,,,,,,,safety,40,107,silent,white,1269.1391223999672,None,None,1269.1391223999672,None,,,,,,,,,,,,,,,,,,,,,,,,,,,,,,28,001,2023_Mar_27_1245,ExactRep-v3-final,2021.2.3,59.97238886496926,
,,,,,,,,107,0,107,0,,,,,,,,,,,,,,,,,,,,,,,,,,,,,,,,,,,,,,,,,,,,,,,,,,,,,1273.6605517002754,None,,,,,,,,,,,,,,,,,,,,,,,,,,,,,,,,,,,dollar,43,108,silent,white,1271.6479603000917,None,None,1271.6479603000917,None,,,,,,,,,,,,,,,,,,,,,,,,,,,,,,28,001,2023_Mar_27_1245,ExactRep-v3-final,2021.2.3,59.97238886496926,
,,,,,,,,108,0,108,0,,,,,,,,,,,,,,,,,,,,,,,,,,,,,,,,,,,,,,,,,,,,,,,,,,,,,1276.1795725002885,None,,,,,,,,,,,,,,,,,,,,,,,,,,,,,,,,,,,love,44,109,silent,white,1274.1658807001077,None,None,1274.1658807001077,None,,,,,,,,,,,,,,,,,,,,,,,,,,,,,,28,001,2023_Mar_27_1245,ExactRep-v3-final,2021.2.3,59.97238886496926,
,,,,,,,,109,0,109,0,,,,,,,,,,,,,,,,,,,,,,,,,,,,,,,,,,,,,,,,,,,,,,,,,,,,,1278.6821380001493,None,,,,,,,,,,,,,,,,,,,,,,,,,,,,,,,,,,,body,82,110,aloud,blue,1276.6800401001237,None,None,1276.6800401001237,None,,,,,,,,,,,,,,,,,,,,,,,,,,,,,,28,001,2023_Mar_27_1245,ExactRep-v3-final,2021.2.3,59.97238886496926,
,,,,,,,,110,0,110,0,,,,,,,,,,,,,,,,,,,,,,,,,,,,,,,,,,,,,,,,,,,,,,,,,,,,,1281.1846082000993,None,,,,,,,,,,,,,,,,,,,,,,,,,,,,,,,,,,,car,23,111,sing,red,1279.1852033999749,None,None,1279.1852033999749,None,,,,,,,,,,,,,,,,,,,,,,,,,,,,,,28,001,2023_Mar_27_1245,ExactRep-v3-final,2021.2.3,59.97238886496926,
,,,,,,,,111,0,111,0,,,,,,,,,,,,,,,,,,,,,,,,,,,,,,,,,,,,,,,,,,,,,,,,,,,,,1283.6871124999598,None,,,,,,,,,,,,,,,,,,,,,,,,,,,,,,,,,,,insect,85,112,aloud,blue,1281.6869876999408,None,None,1281.6869876999408,None,,,,,,,,,,,,,,,,,,,,,,,,,,,,,,28,001,2023_Mar_27_1245,ExactRep-v3-final,2021.2.3,59.97238886496926,
,,,,,,,,112,0,112,0,,,,,,,,,,,,,,,,,,,,,,,,,,,,,,,,,,,,,,,,,,,,,,,,,,,,,1286.2062182999216,None,,,,,,,,,,,,,,,,,,,,,,,,,,,,,,,,,,,water,13,113,sing,red,1284.1907583000138,None,None,1284.1907583000138,None,,,,,,,,,,,,,,,,,,,,,,,,,,,,,,28,001,2023_Mar_27_1245,ExactRep-v3-final,2021.2.3,59.97238886496926,
,,,,,,,,113,0,113,0,,,,,,,,,,,,,,,,,,,,,,,,,,,,,,,,,,,,,,,,,,,,,,,,,,,,,1288.7087734001689,None,,,,,,,,,,,,,,,,,,,,,,,,,,,,,,,,,,,history,113,114,aloud,blue,1286.708740199916,None,None,1286.708740199916,None,,,,,,,,,,,,,,,,,,,,,,,,,,,,,,28,001,2023_Mar_27_1245,ExactRep-v3-final,2021.2.3,59.97238886496926,
,,,,,,,,114,0,114,0,,,,,,,,,,,,,,,,,,,,,,,,,,,,,,,,,,,,,,,,,,,,,,,,,,,,,1291.2279141000472,None,,,,,,,,,,,,,,,,,,,,,,,,,,,,,,,,,,,ticket,91,115,aloud,blue,1289.2127326000482,None,None,1289.2127326000482,None,,,,,,,,,,,,,,,,,,,,,,,,,,,,,,28,001,2023_Mar_27_1245,ExactRep-v3-final,2021.2.3,59.97238886496926,
,,,,,,,,115,0,115,0,,,,,,,,,,,,,,,,,,,,,,,,,,,,,,,,,,,,,,,,,,,,,,,,,,,,,1293.7304175999016,None,,,,,,,,,,,,,,,,,,,,,,,,,,,,,,,,,,,teacher,22,116,sing,red,1291.7293540001847,None,None,1291.7293540001847,None,,,,,,,,,,,,,,,,,,,,,,,,,,,,,,28,001,2023_Mar_27_1245,ExactRep-v3-final,2021.2.3,59.97238886496926,
,,,,,,,,116,0,116,0,,,,,,,,,,,,,,,,,,,,,,,,,,,,,,,,,,,,,,,,,,,,,,,,,,,,,1296.2329314001836,None,,,,,,,,,,,,,,,,,,,,,,,,,,,,,,,,,,,judge,54,117,silent,white,1294.2324287001975,None,None,1294.2324287001975,None,,,,,,,,,,,,,,,,,,,,,,,,,,,,,,28,001,2023_Mar_27_1245,ExactRep-v3-final,2021.2.3,59.97238886496926,
,,,,,,,,117,0,117,0,,,,,,,,,,,,,,,,,,,,,,,,,,,,,,,,,,,,,,,,,,,,,,,,,,,,,1298.7354383999482,None,,,,,,,,,,,,,,,,,,,,,,,,,,,,,,,,,,,picture,5,118,sing,red,1296.7363467002288,None,None,1296.7363467002288,None,,,,,,,,,,,,,,,,,,,,,,,,,,,,,,28,001,2023_Mar_27_1245,ExactRep-v3-final,2021.2.3,59.97238886496926,
,,,,,,,,118,0,118,0,,,,,,,,,,,,,,,,,,,,,,,,,,,,,,,,,,,,,,,,,,,,,,,,,,,,,1301.254427799955,None,,,,,,,,,,,,,,,,,,,,,,,,,,,,,,,,,,,month,52,119,silent,white,1299.2407992002554,None,None,1299.2407992002554,None,,,,,,,,,,,,,,,,,,,,,,,,,,,,,,28,001,2023_Mar_27_1245,ExactRep-v3-final,2021.2.3,59.97238886496926,
,,,,,,,,119,0,119,0,,,,,,,,,,,,,,,,,,,,,,,,,,,,,,,,,,,,,,,,,,,,,,,,,,,,,1303.7738026999868,None,,,,,,,,,,,,,,,,,,,,,,,,,,,,,,,,,,,length,21,120,sing,red,1301.7601852002554,None,None,1301.7601852002554,None,,,,,,,,,,,,,,,,,,,,,,,,,,,,,,28,001,2023_Mar_27_1245,ExactRep-v3-final,2021.2.3,59.97238886496926,
,,,,,,,,,,,,,,,,,,,,,,,,,,,,,,,,,,,,,,,,,,,,,,,,,,,,,,,,,,,,,,,,,,,,,,,,,,,,,,,,,,,,,,,,,,,,,,,,,,,,,,,,,,,,,,1304.2758277999237,None,space,5.606648999731988,1314.2522721001878,None,,,,,,,,,,,,,,,,,,,,,,,,28,001,2023_Mar_27_1245,ExactRep-v3-final,2021.2.3,59.97238886496926,
,,,,,,,,,,,,,,,,,,,,,,,,,,,,,,,,,,,,,,,,,,,,,,,,,,,,,,,,,,,,,,,,,,,,,,,,,,,,,,,,,,,,,,,,,,,,,,,,,,,,,,,,,,,,,,,,,,,,1319.8749327003025,None,space,30.839701700024307,1329.851384700276,None,,,,,,,,,,,,,,,,,,28,001,2023_Mar_27_1245,ExactRep-v3-final,2021.2.3,59.97238886496926,
,,,,,,,,,,,,0,0,0,0,,,,,,,,,,,,,,,,,,,,,,,,,,,,,,,,,,,,,,,,,,,,,,,,,1365.2517452999018,None,,,,,,,,,,,,,,,,,,,,,,,,,,,,,,,,,,,,,,,,,,,,,,,,,,,,,,,,,child,33,1,sing,old,red,1361.2255559000187,None,y,1361.2255559000187,None,"['y', 'return']","[2.337197099812329, 3.9850837998092175]",1361.2255559000187,None,,,28,001,2023_Mar_27_1245,ExactRep-v3-final,2021.2.3,59.97238886496926,
,,,,,,,,,,,,1,0,1,0,,,,,,,,,,,,,,,,,,,,,,,,,,,,,,,,,,,,,,,,,,,,,,,,,1374.3943075998686,None,,,,,,,,,,,,,,,,,,,,,,,,,,,,,,,,,,,,,,,,,,,,,,,,,,,,,,,,,window,184,2,aloud,new,blue,1365.7621542001143,None,n,1365.7621542001143,None,"['n', 'return']","[7.848516100086272, 8.600563599728048]",1365.7621542001143,None,,,28,001,2023_Mar_27_1245,ExactRep-v3-final,2021.2.3,59.97238886496926,
,,,,,,,,,,,,2,0,2,0,,,,,,,,,,,,,,,,,,,,,,,,,,,,,,,,,,,,,,,,,,,,,,,,,1376.9634382999502,None,,,,,,,,,,,,,,,,,,,,,,,,,,,,,,,,,,,,,,,,,,,,,,,,,,,,,,,,,college,70,3,silent,old,white,1374.9042492001317,None,y,1374.9042492001317,None,"['y', 'y', 'return']","[1.4666196997277439, 1.5624612998217344, 2.026324599981308]",1374.9042492001317,None,,,28,001,2023_Mar_27_1245,ExactRep-v3-final,2021.2.3,59.97238886496926,
,,,,,,,,,,,,3,0,3,0,,,,,,,,,,,,,,,,,,,,,,,,,,,,,,,,,,,,,,,,,,,,,,,,,1378.982136100065,None,,,,,,,,,,,,,,,,,,,,,,,,,,,,,,,,,,,,,,,,,,,,,,,,,,,,,,,,,artist,107,4,aloud,old,blue,1377.4719269000925,None,y,1377.4719269000925,None,"['y', 'return']","[1.1227827002294362, 1.4748833002522588]",1377.4719269000925,None,,,28,001,2023_Mar_27_1245,ExactRep-v3-final,2021.2.3,59.97238886496926,
,,,,,,,,,,,,4,0,4,0,,,,,,,,,,,,,,,,,,,,,,,,,,,,,,,,,,,,,,,,,,,,,,,,,1381.3511816002429,None,,,,,,,,,,,,,,,,,,,,,,,,,,,,,,,,,,,,,,,,,,,,,,,,,,,,,,,,,dawn,175,5,sing,new,red,1379.502484400291,None,n,1379.502484400291,None,"['n', 'return']","[1.1162867001257837, 1.8122136001475155]",1379.502484400291,None,,,28,001,2023_Mar_27_1245,ExactRep-v3-final,2021.2.3,59.97238886496926,
,,,,,,,,,,,,5,0,5,0,,,,,,,,,,,,,,,,,,,,,,,,,,,,,,,,,,,,,,,,,,,,,,,,,1383.386544200126,None,,,,,,,,,,,,,,,,,,,,,,,,,,,,,,,,,,,,,,,,,,,,,,,,,,,,,,,,,cotton,53,6,silent,old,white,1381.8634142000228,None,y,1381.8634142000228,None,"['y', 'return']","[1.0193483997136354, 1.4753457000479102]",1381.8634142000228,None,,,28,001,2023_Mar_27_1245,ExactRep-v3-final,2021.2.3,59.97238886496926,
,,,,,,,,,,,,6,0,6,0,,,,,,,,,,,,,,,,,,,,,,,,,,,,,,,,,,,,,,,,,,,,,,,,,1386.656540399883,None,,,,,,,,,,,,,,,,,,,,,,,,,,,,,,,,,,,,,,,,,,,,,,,,,,,,,,,,,machine,42,7,silent,old,white,1383.8919083001092,None,n,1383.8919083001092,None,"['n', 'return']","[2.062842399813235, 2.726800300180912]",1383.8919083001092,None,,,28,001,2023_Mar_27_1245,ExactRep-v3-final,2021.2.3,59.97238886496926,
,,,,,,,,,,,,7,0,7,0,,,,,,,,,,,,,,,,,,,,,,,,,,,,,,,,,,,,,,,,,,,,,,,,,1388.6584820002317,None,,,,,,,,,,,,,,,,,,,,,,,,,,,,,,,,,,,,,,,,,,,,,,,,,,,,,,,,,maiden,3,8,sing,old,red,1387.168344100006,None,y,1387.168344100006,None,"['y', 'return']","[1.0504334000870585, 1.4503807998262346]",1387.168344100006,None,,,28,001,2023_Mar_27_1245,ExactRep-v3-final,2021.2.3,59.97238886496926,
,,,,,,,,,,,,8,0,8,0,,,,,,,,,,,,,,,,,,,,,,,,,,,,,,,,,,,,,,,,,,,,,,,,,1390.6940737999976,None,,,,,,,,,,,,,,,,,,,,,,,,,,,,,,,,,,,,,,,,,,,,,,,,,,,,,,,,,grief,0,9,sing,old,red,1389.1722556999885,None,y,1389.1722556999885,None,"['y', 'return']","[1.1345807001926005, 1.486754100304097]",1389.1722556999885,None,,,28,001,2023_Mar_27_1245,ExactRep-v3-final,2021.2.3,59.97238886496926,
,,,,,,,,,,,,9,0,9,0,,,,,,,,,,,,,,,,,,,,,,,,,,,,,,,,,,,,,,,,,,,,,,,,,1392.4789641001262,None,,,,,,,,,,,,,,,,,,,,,,,,,,,,,,,,,,,,,,,,,,,,,,,,,,,,,,,,,tool,96,10,aloud,old,blue,1391.2063531000167,None,y,1391.2063531000167,None,"['y', 'return']","[0.6924696997739375, 1.2364094997756183]",1391.2063531000167,None,,,28,001,2023_Mar_27_1245,ExactRep-v3-final,2021.2.3,59.97238886496926,
,,,,,,,,,,,,10,0,10,0,,,,,,,,,,,,,,,,,,,,,,,,,,,,,,,,,,,,,,,,,,,,,,,,,1394.3976215999573,None,,,,,,,,,,,,,,,,,,,,,,,,,,,,,,,,,,,,,,,,,,,,,,,,,,,,,,,,,coast,193,11,sing,new,red,1392.9869828000665,None,n,1392.9869828000665,None,"['n', 'return']","[0.9919255999848247, 1.367851700168103]",1392.9869828000665,None,,,28,001,2023_Mar_27_1245,ExactRep-v3-final,2021.2.3,59.97238886496926,
,,,,,,,,,,,,11,0,11,0,,,,,,,,,,,,,,,,,,,,,,,,,,,,,,,,,,,,,,,,,,,,,,,,,1396.4662939999253,None,,,,,,,,,,,,,,,,,,,,,,,,,,,,,,,,,,,,,,,,,,,,,,,,,,,,,,,,,star,188,12,aloud,new,blue,1394.9106577001512,None,n,1394.9106577001512,None,"['n', 'return']","[1.1722213001921773, 1.5080222999677062]",1394.9106577001512,None,,,28,001,2023_Mar_27_1245,ExactRep-v3-final,2021.2.3,59.97238886496926,
,,,,,,,,,,,,12,0,12,0,,,,,,,,,,,,,,,,,,,,,,,,,,,,,,,,,,,,,,,,,,,,,,,,,1398.2349163000472,None,,,,,,,,,,,,,,,,,,,,,,,,,,,,,,,,,,,,,,,,,,,,,,,,,,,,,,,,,troops,110,13,aloud,old,blue,1396.9759861002676,None,y,1396.9759861002676,None,"['y', 'return']","[0.8586726002395153, 1.210702400188893]",1396.9759861002676,None,,,28,001,2023_Mar_27_1245,ExactRep-v3-final,2021.2.3,59.97238886496926,
,,,,,,,,,,,,13,0,13,0,,,,,,,,,,,,,,,,,,,,,,,,,,,,,,,,,,,,,,,,,,,,,,,,,1400.0698997001164,None,,,,,,,,,,,,,,,,,,,,,,,,,,,,,,,,,,,,,,,,,,,,,,,,,,,,,,,,,cabin,171,14,sing,new,red,1398.742699299939,None,n,1398.742699299939,None,"['n', 'return']","[0.9800742999650538, 1.2921545002609491]",1398.742699299939,None,,,28,001,2023_Mar_27_1245,ExactRep-v3-final,2021.2.3,59.97238886496926,
,,,,,,,,,,,,14,0,14,0,,,,,,,,,,,,,,,,,,,,,,,,,,,,,,,,,,,,,,,,,,,,,,,,,1404.2908783000894,None,,,,,,,,,,,,,,,,,,,,,,,,,,,,,,,,,,,,,,,,,,,,,,,,,,,,,,,,,apple,104,15,aloud,old,blue,1400.5828940998763,None,n,1400.5828940998763,None,"['n', 'return']","[1.2998560001142323, 3.6678455998189747]",1400.5828940998763,None,,,28,001,2023_Mar_27_1245,ExactRep-v3-final,2021.2.3,59.97238886496926,
,,,,,,,,,,,,15,0,15,0,,,,,,,,,,,,,,,,,,,,,,,,,,,,,,,,,,,,,,,,,,,,,,,,,1406.1593233998865,None,,,,,,,,,,,,,,,,,,,,,,,,,,,,,,,,,,,,,,,,,,,,,,,,,,,,,,,,,friend,134,16,silent,new,white,1404.8015666999854,None,n,1404.8015666999854,None,"['n', 'return']","[0.937260300386697, 1.3131067003123462]",1404.8015666999854,None,,,28,001,2023_Mar_27_1245,ExactRep-v3-final,2021.2.3,59.97238886496926,
,,,,,,,,,,,,16,0,16,0,,,,,,,,,,,,,,,,,,,,,,,,,,,,,,,,,,,,,,,,,,,,,,,,,1408.0779741001315,None,,,,,,,,,,,,,,,,,,,,,,,,,,,,,,,,,,,,,,,,,,,,,,,,,,,,,,,,,earth,199,17,sing,new,red,1406.6708996999077,None,n,1406.6708996999077,None,"['n', 'return']","[1.0358034996315837, 1.371899999678135]",1406.6708996999077,None,,,28,001,2023_Mar_27_1245,ExactRep-v3-final,2021.2.3,59.97238886496926,
,,,,,,,,,,,,17,0,17,0,,,,,,,,,,,,,,,,,,,,,,,,,,,,,,,,,,,,,,,,,,,,,,,,,1409.7797019002028,None,,,,,,,,,,,,,,,,,,,,,,,,,,,,,,,,,,,,,,,,,,,,,,,,,,,,,,,,,army,86,18,aloud,old,blue,1408.5869042002596,None,y,1408.5869042002596,None,"['y', 'return']","[0.74382199998945, 1.159946299623698]",1408.5869042002596,None,,,28,001,2023_Mar_27_1245,ExactRep-v3-final,2021.2.3,59.97238886496926,
,,,,,,,,,,,,18,0,18,0,,,,,,,,,,,,,,,,,,,,,,,,,,,,,,,,,,,,,,,,,,,,,,,,,1411.5146623002365,None,,,,,,,,,,,,,,,,,,,,,,,,,,,,,,,,,,,,,,,,,,,,,,,,,,,,,,,,,rod,35,19,sing,old,red,1410.2884975001216,None,y,1410.2884975001216,None,"['y', 'return']","[0.7703462997451425, 1.1862971996888518]",1410.2884975001216,None,,,28,001,2023_Mar_27_1245,ExactRep-v3-final,2021.2.3,59.97238886496926,
,,,,,,,,,,,,19,0,19,0,,,,,,,,,,,,,,,,,,,,,,,,,,,,,,,,,,,,,,,,,,,,,,,,,1413.566879299935,None,,,,,,,,,,,,,,,,,,,,,,,,,,,,,,,,,,,,,,,,,,,,,,,,,,,,,,,,,origin,227,20,sing,new,red,1412.0245755002834,None,n,1412.0245755002834,None,"['n', 'return']","[1.154300400055945, 1.5061721000820398]",1412.0245755002834,None,,,28,001,2023_Mar_27_1245,ExactRep-v3-final,2021.2.3,59.97238886496926,
,,,,,,,,,,,,20,0,20,0,,,,,,,,,,,,,,,,,,,,,,,,,,,,,,,,,,,,,,,,,,,,,,,,,1415.7857058001682,None,,,,,,,,,,,,,,,,,,,,,,,,,,,,,,,,,,,,,,,,,,,,,,,,,,,,,,,,,love,44,21,silent,old,white,1414.0770963998511,None,n,1414.0770963998511,None,"['n', 'return']","[1.397708899807185, 1.6696756999008358]",1414.0770963998511,None,,,28,001,2023_Mar_27_1245,ExactRep-v3-final,2021.2.3,59.97238886496926,
,,,,,,,,,,,,21,0,21,0,,,,,,,,,,,,,,,,,,,,,,,,,,,,,,,,,,,,,,,,,,,,,,,,,1418.6551704001613,None,,,,,,,,,,,,,,,,,,,,,,,,,,,,,,,,,,,,,,,,,,,,,,,,,,,,,,,,,church,192,22,aloud,new,blue,1416.293769000098,None,y,1416.293769000098,None,"['y', 'return']","[1.3329846998676658, 2.3169487002305686]",1416.293769000098,None,,,28,001,2023_Mar_27_1245,ExactRep-v3-final,2021.2.3,59.97238886496926,
,,,,,,,,,,,,22,0,22,0,,,,,,,,,,,,,,,,,,,,,,,,,,,,,,,,,,,,,,,,,,,,,,,,,1420.2400867999531,None,,,,,,,,,,,,,,,,,,,,,,,,,,,,,,,,,,,,,,,,,,,,,,,,,,,,,,,,,lad,200,23,aloud,new,blue,1419.1626164000481,None,n,1419.1626164000481,None,"['n', 'return']","[0.8161170003004372, 1.032166600227356]",1419.1626164000481,None,,,28,001,2023_Mar_27_1245,ExactRep-v3-final,2021.2.3,59.97238886496926,
,,,,,,,,,,,,23,0,23,0,,,,,,,,,,,,,,,,,,,,,,,,,,,,,,,,,,,,,,,,,,,,,,,,,1422.642458899878,None,,,,,,,,,,,,,,,,,,,,,,,,,,,,,,,,,,,,,,,,,,,,,,,,,,,,,,,,,quality,59,24,silent,old,white,1420.7482985998504,None,n,1420.7482985998504,None,"['n', 'return']","[1.4145845002494752, 1.8624459998682141]",1420.7482985998504,None,,,28,001,2023_Mar_27_1245,ExactRep-v3-final,2021.2.3,59.97238886496926,
,,,,,,,,,,,,24,0,24,0,,,,,,,,,,,,,,,,,,,,,,,,,,,,,,,,,,,,,,,,,,,,,,,,,1424.6111820000224,None,,,,,,,,,,,,,,,,,,,,,,,,,,,,,,,,,,,,,,,,,,,,,,,,,,,,,,,,,justice,111,25,aloud,old,blue,1423.1496441001073,None,y,1423.1496441001073,None,"['y', 'return']","[1.0770608000457287, 1.4211011999286711]",1423.1496441001073,None,,,28,001,2023_Mar_27_1245,ExactRep-v3-final,2021.2.3,59.97238886496926,
,,,,,,,,,,,,25,0,25,0,,,,,,,,,,,,,,,,,,,,,,,,,,,,,,,,,,,,,,,,,,,,,,,,,1426.0793488002382,None,,,,,,,,,,,,,,,,,,,,,,,,,,,,,,,,,,,,,,,,,,,,,,,,,,,,,,,,,disease,119,26,aloud,old,blue,1425.1179896001704,None,y,1425.1179896001704,None,"['y', 'return']","[0.5968667999841273, 0.9247842999175191]",1425.1179896001704,None,,,28,001,2023_Mar_27_1245,ExactRep-v3-final,2021.2.3,59.97238886496926,
,,,,,,,,,,,,26,0,26,0,,,,,,,,,,,,,,,,,,,,,,,,,,,,,,,,,,,,,,,,,,,,,,,,,1427.7143971999176,None,,,,,,,,,,,,,,,,,,,,,,,,,,,,,,,,,,,,,,,,,,,,,,,,,,,,,,,,,river,162,27,aloud,new,blue,1426.5890498999506,None,n,1426.5890498999506,None,"['n', 'return']","[0.7896893001161516, 1.0776627999730408]",1426.5890498999506,None,,,28,001,2023_Mar_27_1245,ExactRep-v3-final,2021.2.3,59.97238886496926,
,,,,,,,,,,,,27,0,27,0,,,,,,,,,,,,,,,,,,,,,,,,,,,,,,,,,,,,,,,,,,,,,,,,,1431.7349177002907,None,,,,,,,,,,,,,,,,,,,,,,,,,,,,,,,,,,,,,,,,,,,,,,,,,,,,,,,,,air,195,28,sing,new,red,1428.2234081998467,None,y,1428.2234081998467,None,"['y', 'return']","[2.9553224998526275, 3.4672701000235975]",1428.2234081998467,None,,,28,001,2023_Mar_27_1245,ExactRep-v3-final,2021.2.3,59.97238886496926,
,,,,,,,,,,,,28,0,28,0,,,,,,,,,,,,,,,,,,,,,,,,,,,,,,,,,,,,,,,,,,,,,,,,,1434.320810300298,None,,,,,,,,,,,,,,,,,,,,,,,,,,,,,,,,,,,,,,,,,,,,,,,,,,,,,,,,,silence,37,29,sing,old,red,1432.246595100034,None,y,1432.246595100034,None,"['y', 'return']","[1.7082687998190522, 2.0282461997121572]",1432.246595100034,None,,,28,001,2023_Mar_27_1245,ExactRep-v3-final,2021.2.3,59.97238886496926,
,,,,,,,,,,,,29,0,29,0,,,,,,,,,,,,,,,,,,,,,,,,,,,,,,,,,,,,,,,,,,,,,,,,,1436.9068070999347,None,,,,,,,,,,,,,,,,,,,,,,,,,,,,,,,,,,,,,,,,,,,,,,,,,,,,,,,,,cattle,160,30,aloud,new,blue,1434.8305100002326,None,n,1434.8305100002326,None,"['n', 'return']","[1.6684390003792942, 2.036315900273621]",1434.8305100002326,None,,,28,001,2023_Mar_27_1245,ExactRep-v3-final,2021.2.3,59.97238886496926,
,,,,,,,,,,,,30,0,30,0,,,,,,,,,,,,,,,,,,,,,,,,,,,,,,,,,,,,,,,,,,,,,,,,,1439.2924696002156,None,,,,,,,,,,,,,,,,,,,,,,,,,,,,,,,,,,,,,,,,,,,,,,,,,,,,,,,,,officer,55,31,silent,old,white,1437.4223064999096,None,n,1437.4223064999096,None,"['n', 'return']","[1.5007463996298611, 1.8365106000564992]",1437.4223064999096,None,,,28,001,2023_Mar_27_1245,ExactRep-v3-final,2021.2.3,59.97238886496926,
,,,,,,,,,,,,31,0,31,0,,,,,,,,,,,,,,,,,,,,,,,,,,,,,,,,,,,,,,,,,,,,,,,,,1441.978627699893,None,,,,,,,,,,,,,,,,,,,,,,,,,,,,,,,,,,,,,,,,,,,,,,,,,,,,,,,,,freedom,137,32,silent,new,white,1439.806638999842,None,n,1439.806638999842,None,"['n', 'return']","[1.772097900044173, 2.1321343001909554]",1439.806638999842,None,,,28,001,2023_Mar_27_1245,ExactRep-v3-final,2021.2.3,59.97238886496926,
,,,,,,,,,,,,32,0,32,0,,,,,,,,,,,,,,,,,,,,,,,,,,,,,,,,,,,,,,,,,,,,,,,,,1443.7303777001798,None,,,,,,,,,,,,,,,,,,,,,,,,,,,,,,,,,,,,,,,,,,,,,,,,,,,,,,,,,hall,166,33,aloud,new,blue,1442.4861639002338,None,n,1442.4861639002338,None,"['n', 'return']","[0.8528323997743428, 1.212635099887848]",1442.4861639002338,None,,,28,001,2023_Mar_27_1245,ExactRep-v3-final,2021.2.3,59.97238886496926,
,,,,,,,,,,,,33,0,33,0,,,,,,,,,,,,,,,,,,,,,,,,,,,,,,,,,,,,,,,,,,,,,,,,,1445.4687029002234,None,,,,,,,,,,,,,,,,,,,,,,,,,,,,,,,,,,,,,,,,,,,,,,,,,,,,,,,,,thought,51,34,silent,old,white,1444.2386884000152,None,n,1444.2386884000152,None,"['n', 'return']","[0.8203759002499282, 1.1882780999876559]",1444.2386884000152,None,,,28,001,2023_Mar_27_1245,ExactRep-v3-final,2021.2.3,59.97238886496926,
,,,,,,,,,,,,34,0,34,0,,,,,,,,,,,,,,,,,,,,,,,,,,,,,,,,,,,,,,,,,,,,,,,,,1448.0845583002083,None,,,,,,,,,,,,,,,,,,,,,,,,,,,,,,,,,,,,,,,,,,,,,,,,,,,,,,,,,shadow,210,35,aloud,new,blue,1445.9930509999394,None,n,1445.9930509999394,None,"['n', 'return']","[1.7137834001332521, 2.057760300114751]",1445.9930509999394,None,,,28,001,2023_Mar_27_1245,ExactRep-v3-final,2021.2.3,59.97238886496926,
,,,,,,,,,,,,35,0,35,0,,,,,,,,,,,,,,,,,,,,,,,,,,,,,,,,,,,,,,,,,,,,,,,,,1449.7864343002439,None,,,,,,,,,,,,,,,,,,,,,,,,,,,,,,,,,,,,,,,,,,,,,,,,,,,,,,,,,flower,145,36,silent,new,white,1448.596201099921,None,y,1448.596201099921,None,"['y', 'return']","[0.7910429001785815, 1.1506630000658333]",1448.596201099921,None,,,28,001,2023_Mar_27_1245,ExactRep-v3-final,2021.2.3,59.97238886496926,
,,,,,,,,,,,,36,0,36,0,,,,,,,,,,,,,,,,,,,,,,,,,,,,,,,,,,,,,,,,,,,,,,,,,1451.588274499867,None,,,,,,,,,,,,,,,,,,,,,,,,,,,,,,,,,,,,,,,,,,,,,,,,,,,,,,,,,camp,207,37,sing,new,red,1450.2954233000055,None,n,1450.2954233000055,None,"['n', 'return']","[0.8915097001008689, 1.2513065999373794]",1450.2954233000055,None,,,28,001,2023_Mar_27_1245,ExactRep-v3-final,2021.2.3,59.97238886496926,
,,,,,,,,,,,,37,0,37,0,,,,,,,,,,,,,,,,,,,,,,,,,,,,,,,,,,,,,,,,,,,,,,,,,1453.5235055000521,None,,,,,,,,,,,,,,,,,,,,,,,,,,,,,,,,,,,,,,,,,,,,,,,,,,,,,,,,,form,60,38,silent,old,white,1452.0980491000228,None,n,1452.0980491000228,None,"['n', 'return']","[1.0167032997123897, 1.3847197000868618]",1452.0980491000228,None,,,28,001,2023_Mar_27_1245,ExactRep-v3-final,2021.2.3,59.97238886496926,
,,,,,,,,,,,,38,0,38,0,,,,,,,,,,,,,,,,,,,,,,,,,,,,,,,,,,,,,,,,,,,,,,,,,1455.1583934002556,None,,,,,,,,,,,,,,,,,,,,,,,,,,,,,,,,,,,,,,,,,,,,,,,,,,,,,,,,,coin,219,39,sing,new,red,1454.034432400018,None,n,1454.034432400018,None,"['n', 'return']","[0.7363764001056552, 1.0884242998436093]",1454.034432400018,None,,,28,001,2023_Mar_27_1245,ExactRep-v3-final,2021.2.3,59.97238886496926,
,,,,,,,,,,,,39,0,39,0,,,,,,,,,,,,,,,,,,,,,,,,,,,,,,,,,,,,,,,,,,,,,,,,,1456.8601028001867,None,,,,,,,,,,,,,,,,,,,,,,,,,,,,,,,,,,,,,,,,,,,,,,,,,,,,,,,,,style,237,40,sing,new,red,1455.6695854999125,None,n,1455.6695854999125,None,"['n', 'return']","[0.7413264000788331, 1.1571992002427578]",1455.6695854999125,None,,,28,001,2023_Mar_27_1245,ExactRep-v3-final,2021.2.3,59.97238886496926,
,,,,,,,,,,,,40,0,40,0,,,,,,,,,,,,,,,,,,,,,,,,,,,,,,,,,,,,,,,,,,,,,,,,,1460.4302643998526,None,,,,,,,,,,,,,,,,,,,,,,,,,,,,,,,,,,,,,,,,,,,,,,,,,,,,,,,,,dollar,43,41,silent,old,white,1457.3666405999102,None,n,1457.3666405999102,None,"['n', 'return']","[2.6362575995735824, 3.0201362995430827]",1457.3666405999102,None,,,28,001,2023_Mar_27_1245,ExactRep-v3-final,2021.2.3,59.97238886496926,
,,,,,,,,,,,,41,0,41,0,,,,,,,,,,,,,,,,,,,,,,,,,,,,,,,,,,,,,,,,,,,,,,,,,1462.3321517002769,None,,,,,,,,,,,,,,,,,,,,,,,,,,,,,,,,,,,,,,,,,,,,,,,,,,,,,,,,,boy,144,42,silent,new,white,1460.9389714999124,None,n,1460.9389714999124,None,"['n', 'return']","[1.0400847997516394, 1.359930300153792]",1460.9389714999124,None,,,28,001,2023_Mar_27_1245,ExactRep-v3-final,2021.2.3,59.97238886496926,
,,,,,,,,,,,,42,0,42,0,,,,,,,,,,,,,,,,,,,,,,,,,,,,,,,,,,,,,,,,,,,,,,,,,1465.3520145001821,None,,,,,,,,,,,,,,,,,,,,,,,,,,,,,,,,,,,,,,,,,,,,,,,,,,,,,,,,,pupil,34,43,sing,old,red,1462.8447678000666,None,n,1462.8447678000666,None,"['n', 'return']","[1.918074999935925, 2.469965700060129]",1462.8447678000666,None,,,28,001,2023_Mar_27_1245,ExactRep-v3-final,2021.2.3,59.97238886496926,
,,,,,,,,,,,,43,0,43,0,,,,,,,,,,,,,,,,,,,,,,,,,,,,,,,,,,,,,,,,,,,,,,,,,1466.8533498998731,None,,,,,,,,,,,,,,,,,,,,,,,,,,,,,,,,,,,,,,,,,,,,,,,,,,,,,,,,,blossom,90,44,aloud,old,blue,1465.8600516002625,None,y,1465.8600516002625,None,"['y', 'return']","[0.7028411999344826, 0.9587363000027835]",1465.8600516002625,None,,,28,001,2023_Mar_27_1245,ExactRep-v3-final,2021.2.3,59.97238886496926,
,,,,,,,,,,,,44,0,44,0,,,,,,,,,,,,,,,,,,,,,,,,,,,,,,,,,,,,,,,,,,,,,,,,,1468.7386469002813,None,,,,,,,,,,,,,,,,,,,,,,,,,,,,,,,,,,,,,,,,,,,,,,,,,,,,,,,,,heaven,221,45,sing,new,red,1467.366273399908,None,n,1467.366273399908,None,"['n', 'return']","[1.092495699878782, 1.3325126999989152]",1467.366273399908,None,,,28,001,2023_Mar_27_1245,ExactRep-v3-final,2021.2.3,59.97238886496926,
,,,,,,,,,,,,45,0,45,0,,,,,,,,,,,,,,,,,,,,,,,,,,,,,,,,,,,,,,,,,,,,,,,,,1477.4308867002837,None,,,,,,,,,,,,,,,,,,,,,,,,,,,,,,,,,,,,,,,,,,,,,,,,,,,,,,,,,flesh,172,46,aloud,new,blue,1469.2686670999974,None,y,1469.2686670999974,None,"['n', 'backspace', 'y', 'return']","[2.142116399947554, 7.246105200145394, 7.718218700028956, 8.11803220026195]",1469.2686670999974,None,,,28,001,2023_Mar_27_1245,ExactRep-v3-final,2021.2.3,59.97238886496926,
,,,,,,,,,,,,46,0,46,0,,,,,,,,,,,,,,,,,,,,,,,,,,,,,,,,,,,,,,,,,,,,,,,,,1479.4994049998932,None,,,,,,,,,,,,,,,,,,,,,,,,,,,,,,,,,,,,,,,,,,,,,,,,,,,,,,,,,bird,235,47,sing,new,red,1477.9438010999002,None,n,1477.9438010999002,None,"['n', 'return']","[1.1711165001615882, 1.5150411003269255]",1477.9438010999002,None,,,28,001,2023_Mar_27_1245,ExactRep-v3-final,2021.2.3,59.97238886496926,
,,,,,,,,,,,,47,0,47,0,,,,,,,,,,,,,,,,,,,,,,,,,,,,,,,,,,,,,,,,,,,,,,,,,1482.6191087001935,None,,,,,,,,,,,,,,,,,,,,,,,,,,,,,,,,,,,,,,,,,,,,,,,,,,,,,,,,,mercy,135,48,silent,new,white,1480.0132611002773,None,n,1480.0132611002773,None,"['n', 'return']","[1.565644099842757, 2.56558830011636]",1480.0132611002773,None,,,28,001,2023_Mar_27_1245,ExactRep-v3-final,2021.2.3,59.97238886496926,
,,,,,,,,,,,,48,0,48,0,,,,,,,,,,,,,,,,,,,,,,,,,,,,,,,,,,,,,,,,,,,,,,,,,1484.2207700000145,None,,,,,,,,,,,,,,,,,,,,,,,,,,,,,,,,,,,,,,,,,,,,,,,,,,,,,,,,,author,79,49,sing,old,red,1483.1377945002168,None,y,1483.1377945002168,None,"['y', 'return']","[0.7691629002802074, 1.0490427003242075]",1483.1377945002168,None,,,28,001,2023_Mar_27_1245,ExactRep-v3-final,2021.2.3,59.97238886496926,
,,,,,,,,,,,,49,0,49,0,,,,,,,,,,,,,,,,,,,,,,,,,,,,,,,,,,,,,,,,,,,,,,,,,1485.7388999001123,None,,,,,,,,,,,,,,,,,,,,,,,,,,,,,,,,,,,,,,,,,,,,,,,,,,,,,,,,,memory,117,50,aloud,old,blue,1484.7276568999514,None,y,1484.7276568999514,None,"['y', 'return']","[0.6432044003158808, 0.9792324001900852]",1484.7276568999514,None,,,28,001,2023_Mar_27_1245,ExactRep-v3-final,2021.2.3,59.97238886496926,
,,,,,,,,,,,,50,0,50,0,,,,,,,,,,,,,,,,,,,,,,,,,,,,,,,,,,,,,,,,,,,,,,,,,1487.657619100064,None,,,,,,,,,,,,,,,,,,,,,,,,,,,,,,,,,,,,,,,,,,,,,,,,,,,,,,,,,avenue,81,51,aloud,old,blue,1486.2521648001857,None,y,1486.2521648001857,None,"['y', 'return']","[0.966743600089103, 1.3666862999089062]",1486.2521648001857,None,,,28,001,2023_Mar_27_1245,ExactRep-v3-final,2021.2.3,59.97238886496926,
,,,,,,,,,,,,51,0,51,0,,,,,,,,,,,,,,,,,,,,,,,,,,,,,,,,,,,,,,,,,,,,,,,,,1489.1089363000356,None,,,,,,,,,,,,,,,,,,,,,,,,,,,,,,,,,,,,,,,,,,,,,,,,,,,,,,,,,queen,6,52,sing,old,red,1488.171237200033,None,y,1488.171237200033,None,"['y', 'return']","[0.5996087002567947, 0.9035622999072075]",1488.171237200033,None,,,28,001,2023_Mar_27_1245,ExactRep-v3-final,2021.2.3,59.97238886496926,
,,,,,,,,,,,,52,0,52,0,,,,,,,,,,,,,,,,,,,,,,,,,,,,,,,,,,,,,,,,,,,,,,,,,1493.1796325002797,None,,,,,,,,,,,,,,,,,,,,,,,,,,,,,,,,,,,,,,,,,,,,,,,,,,,,,,,,,cottage,158,53,silent,new,white,1489.6179729001597,None,y,1489.6179729001597,None,"['y', 'return']","[3.1208361997269094, 3.5287798000499606]",1489.6179729001597,None,,,28,001,2023_Mar_27_1245,ExactRep-v3-final,2021.2.3,59.97238886496926,
,,,,,,,,,,,,53,0,53,0,,,,,,,,,,,,,,,,,,,,,,,,,,,,,,,,,,,,,,,,,,,,,,,,,1494.9481558999978,None,,,,,,,,,,,,,,,,,,,,,,,,,,,,,,,,,,,,,,,,,,,,,,,,,,,,,,,,,string,45,54,silent,old,white,1493.6895524002612,None,y,1493.6895524002612,None,"['y', 'return']","[0.9933086996898055, 1.2253527999855578]",1493.6895524002612,None,,,28,001,2023_Mar_27_1245,ExactRep-v3-final,2021.2.3,59.97238886496926,
,,,,,,,,,,,,54,0,54,0,,,,,,,,,,,,,,,,,,,,,,,,,,,,,,,,,,,,,,,,,,,,,,,,,1497.5174187999219,None,,,,,,,,,,,,,,,,,,,,,,,,,,,,,,,,,,,,,,,,,,,,,,,,,,,,,,,,,person,152,55,silent,new,white,1495.4579799999483,None,n,1495.4579799999483,None,"['n', 'return']","[1.7368302000686526, 2.0168731999583542]",1495.4579799999483,None,,,28,001,2023_Mar_27_1245,ExactRep-v3-final,2021.2.3,59.97238886496926,
,,,,,,,,,,,,55,0,55,0,,,,,,,,,,,,,,,,,,,,,,,,,,,,,,,,,,,,,,,,,,,,,,,,,1499.1523104999214,None,,,,,,,,,,,,,,,,,,,,,,,,,,,,,,,,,,,,,,,,,,,,,,,,,,,,,,,,,nail,228,56,aloud,new,blue,1498.02713830024,None,n,1498.02713830024,None,"['n', 'return']","[0.8797391997650266, 1.087747700046748]",1498.02713830024,None,,,28,001,2023_Mar_27_1245,ExactRep-v3-final,2021.2.3,59.97238886496926,
,,,,,,,,,,,,56,0,56,0,,,,,,,,,,,,,,,,,,,,,,,,,,,,,,,,,,,,,,,,,,,,,,,,,1502.6059193001129,None,,,,,,,,,,,,,,,,,,,,,,,,,,,,,,,,,,,,,,,,,,,,,,,,,,,,,,,,,lake,209,57,sing,new,red,1499.6632345002145,None,n,1499.6632345002145,None,"['n', 'return']","[2.6357650998979807, 2.907601499930024]",1499.6632345002145,None,,,28,001,2023_Mar_27_1245,ExactRep-v3-final,2021.2.3,59.97238886496926,
,,,,,,,,,,,,57,0,57,0,,,,,,,,,,,,,,,,,,,,,,,,,,,,,,,,,,,,,,,,,,,,,,,,,1505.1250112000853,None,,,,,,,,,,,,,,,,,,,,,,,,,,,,,,,,,,,,,,,,,,,,,,,,,,,,,,,,,student,231,58,sing,new,red,1503.1140691000037,None,n,1503.1140691000037,None,"['n', 'return']","[1.632776899728924, 1.9767797999083996]",1503.1140691000037,None,,,28,001,2023_Mar_27_1245,ExactRep-v3-final,2021.2.3,59.97238886496926,
,,,,,,,,,,,,58,0,58,0,,,,,,,,,,,,,,,,,,,,,,,,,,,,,,,,,,,,,,,,,,,,,,,,,1506.9434299999848,None,,,,,,,,,,,,,,,,,,,,,,,,,,,,,,,,,,,,,,,,,,,,,,,,,,,,,,,,,fur,178,59,aloud,new,blue,1505.6354964999482,None,n,1505.6354964999482,None,"['n', 'return']","[0.9916863003745675, 1.2715521999634802]",1505.6354964999482,None,,,28,001,2023_Mar_27_1245,ExactRep-v3-final,2021.2.3,59.97238886496926,
,,,,,,,,,,,,59,0,59,0,,,,,,,,,,,,,,,,,,,,,,,,,,,,,,,,,,,,,,,,,,,,,,,,,1508.6952542001382,None,,,,,,,,,,,,,,,,,,,,,,,,,,,,,,,,,,,,,,,,,,,,,,,,,,,,,,,,,bottle,125,60,silent,new,white,1507.453315900173,None,n,1507.453315900173,None,"['n', 'return']","[0.9016692996956408, 1.197573899757117]",1507.453315900173,None,,,28,001,2023_Mar_27_1245,ExactRep-v3-final,2021.2.3,59.97238886496926,
,,,,,,,,,,,,60,0,60,0,,,,,,,,,,,,,,,,,,,,,,,,,,,,,,,,,,,,,,,,,,,,,,,,,1510.2967991000041,None,,,,,,,,,,,,,,,,,,,,,,,,,,,,,,,,,,,,,,,,,,,,,,,,,,,,,,,,,passion,186,61,aloud,new,blue,1509.2088152002543,None,n,1509.2088152002543,None,"['n', 'return']","[0.7700459999032319, 1.0421066996641457]",1509.2088152002543,None,,,28,001,2023_Mar_27_1245,ExactRep-v3-final,2021.2.3,59.97238886496926,
,,,,,,,,,,,,61,0,61,0,,,,,,,,,,,,,,,,,,,,,,,,,,,,,,,,,,,,,,,,,,,,,,,,,1512.1986782001331,None,,,,,,,,,,,,,,,,,,,,,,,,,,,,,,,,,,,,,,,,,,,,,,,,,,,,,,,,,steam,17,62,sing,old,red,1510.8107598000206,None,y,1510.8107598000206,None,"['y', 'return']","[1.1040537999942899, 1.3522628000937402]",1510.8107598000206,None,,,28,001,2023_Mar_27_1245,ExactRep-v3-final,2021.2.3,59.97238886496926,
,,,,,,,,,,,,62,0,62,0,,,,,,,,,,,,,,,,,,,,,,,,,,,,,,,,,,,,,,,,,,,,,,,,,1513.8005257002078,None,,,,,,,,,,,,,,,,,,,,,,,,,,,,,,,,,,,,,,,,,,,,,,,,,,,,,,,,,idea,129,63,silent,new,white,1512.7174269002862,None,n,1512.7174269002862,None,"['n', 'return']","[0.8375372001901269, 1.037428299896419]",1512.7174269002862,None,,,28,001,2023_Mar_27_1245,ExactRep-v3-final,2021.2.3,59.97238886496926,
,,,,,,,,,,,,63,0,63,0,,,,,,,,,,,,,,,,,,,,,,,,,,,,,,,,,,,,,,,,,,,,,,,,,1515.6021632002667,None,,,,,,,,,,,,,,,,,,,,,,,,,,,,,,,,,,,,,,,,,,,,,,,,,,,,,,,,,factory,26,64,sing,old,red,1514.3114948999137,None,y,1514.3114948999137,None,"['y', 'return']","[1.027395199984312, 1.2513669999316335]",1514.3114948999137,None,,,28,001,2023_Mar_27_1245,ExactRep-v3-final,2021.2.3,59.97238886496926,
,,,,,,,,,,,,64,0,64,0,,,,,,,,,,,,,,,,,,,,,,,,,,,,,,,,,,,,,,,,,,,,,,,,,1517.1035871002823,None,,,,,,,,,,,,,,,,,,,,,,,,,,,,,,,,,,,,,,,,,,,,,,,,,,,,,,,,,sugar,36,65,sing,old,red,1516.1120667001233,None,y,1516.1120667001233,None,"['y', 'return']","[0.7067360002547503, 0.9548189998604357]",1516.1120667001233,None,,,28,001,2023_Mar_27_1245,ExactRep-v3-final,2021.2.3,59.97238886496926,
,,,,,,,,,,,,65,0,65,0,,,,,,,,,,,,,,,,,,,,,,,,,,,,,,,,,,,,,,,,,,,,,,,,,1518.7219532001764,None,,,,,,,,,,,,,,,,,,,,,,,,,,,,,,,,,,,,,,,,,,,,,,,,,,,,,,,,,chance,8,66,sing,old,red,1517.6136854002252,None,y,1517.6136854002252,None,"['y', 'return']","[0.7812851998023689, 1.0691788997501135]",1517.6136854002252,None,,,28,001,2023_Mar_27_1245,ExactRep-v3-final,2021.2.3,59.97238886496926,
,,,,,,,,,,,,66,0,66,0,,,,,,,,,,,,,,,,,,,,,,,,,,,,,,,,,,,,,,,,,,,,,,,,,1520.2901845001616,None,,,,,,,,,,,,,,,,,,,,,,,,,,,,,,,,,,,,,,,,,,,,,,,,,,,,,,,,,board,28,67,sing,old,red,1519.2357009002008,None,y,1519.2357009002008,None,"['y', 'return']","[0.7752350000664592, 1.0151530001312494]",1519.2357009002008,None,,,28,001,2023_Mar_27_1245,ExactRep-v3-final,2021.2.3,59.97238886496926,
,,,,,,,,,,,,67,0,67,0,,,,,,,,,,,,,,,,,,,,,,,,,,,,,,,,,,,,,,,,,,,,,,,,,1521.891820400022,None,,,,,,,,,,,,,,,,,,,,,,,,,,,,,,,,,,,,,,,,,,,,,,,,,,,,,,,,,blood,46,68,silent,old,white,1520.7998762000352,None,y,1520.7998762000352,None,"['y', 'return']","[0.8029564996249974, 1.0590952998027205]",1520.7998762000352,None,,,28,001,2023_Mar_27_1245,ExactRep-v3-final,2021.2.3,59.97238886496926,
,,,,,,,,,,,,68,0,68,0,,,,,,,,,,,,,,,,,,,,,,,,,,,,,,,,,,,,,,,,,,,,,,,,,1524.127355699893,None,,,,,,,,,,,,,,,,,,,,,,,,,,,,,,,,,,,,,,,,,,,,,,,,,,,,,,,,,garden,58,69,silent,old,white,1522.394847900141,None,y,1522.394847900141,None,"['y', 'return']","[1.3520041001029313, 1.6879396997392178]",1522.394847900141,None,,,28,001,2023_Mar_27_1245,ExactRep-v3-final,2021.2.3,59.97238886496926,
,,,,,,,,,,,,69,0,69,0,,,,,,,,,,,,,,,,,,,,,,,,,,,,,,,,,,,,,,,,,,,,,,,,,1525.8457547002472,None,,,,,,,,,,,,,,,,,,,,,,,,,,,,,,,,,,,,,,,,,,,,,,,,,,,,,,,,,diamond,105,70,aloud,old,blue,1524.636971199885,None,y,1524.636971199885,None,"['y', 'return']","[0.8779978002421558, 1.1738328002393246]",1524.636971199885,None,,,28,001,2023_Mar_27_1245,ExactRep-v3-final,2021.2.3,59.97238886496926,
,,,,,,,,,,,,70,0,70,0,,,,,,,,,,,,,,,,,,,,,,,,,,,,,,,,,,,,,,,,,,,,,,,,,1527.497549599968,None,,,,,,,,,,,,,,,,,,,,,,,,,,,,,,,,,,,,,,,,,,,,,,,,,,,,,,,,,trouble,102,71,aloud,old,blue,1526.3498065001331,None,y,1526.3498065001331,None,"['y', 'return']","[0.6611077003180981, 1.1090736999176443]",1526.3498065001331,None,,,28,001,2023_Mar_27_1245,ExactRep-v3-final,2021.2.3,59.97238886496926,
,,,,,,,,,,,,71,0,71,0,,,,,,,,,,,,,,,,,,,,,,,,,,,,,,,,,,,,,,,,,,,,,,,,,1529.2658307999372,None,,,,,,,,,,,,,,,,,,,,,,,,,,,,,,,,,,,,,,,,,,,,,,,,,,,,,,,,,horse,217,72,sing,new,red,1528.0072647002526,None,n,1528.0072647002526,None,"['n', 'return']","[0.9155859001912177, 1.2116506998427212]",1528.0072647002526,None,,,28,001,2023_Mar_27_1245,ExactRep-v3-final,2021.2.3,59.97238886496926,
,,,,,,,,,,,,72,0,72,0,,,,,,,,,,,,,,,,,,,,,,,,,,,,,,,,,,,,,,,,,,,,,,,,,1532.152063800022,None,,,,,,,,,,,,,,,,,,,,,,,,,,,,,,,,,,,,,,,,,,,,,,,,,,,,,,,,,toy,2,73,sing,old,red,1529.7802053000778,None,y,1529.7802053000778,None,"['y', 'return']","[2.1347479997202754, 2.334688199684024]",1529.7802053000778,None,,,28,001,2023_Mar_27_1245,ExactRep-v3-final,2021.2.3,59.97238886496926,
,,,,,,,,,,,,73,0,73,0,,,,,,,,,,,,,,,,,,,,,,,,,,,,,,,,,,,,,,,,,,,,,,,,,1533.620178299956,None,,,,,,,,,,,,,,,,,,,,,,,,,,,,,,,,,,,,,,,,,,,,,,,,,,,,,,,,,priest,116,74,aloud,old,blue,1532.6620030999184,None,y,1532.6620030999184,None,"['y', 'return']","[0.708880000282079, 0.924817600287497]",1532.6620030999184,None,,,28,001,2023_Mar_27_1245,ExactRep-v3-final,2021.2.3,59.97238886496926,
,,,,,,,,,,,,74,0,74,0,,,,,,,,,,,,,,,,,,,,,,,,,,,,,,,,,,,,,,,,,,,,,,,,,1538.0578741002828,None,,,,,,,,,,,,,,,,,,,,,,,,,,,,,,,,,,,,,,,,,,,,,,,,,,,,,,,,,journal,49,75,silent,old,white,1534.1319303000346,None,y,1534.1319303000346,None,"['y', 'return']","[2.7109360001049936, 3.8790559000335634]",1534.1319303000346,None,,,28,001,2023_Mar_27_1245,ExactRep-v3-final,2021.2.3,59.97238886496926,
,,,,,,,,,,,,75,0,75,0,,,,,,,,,,,,,,,,,,,,,,,,,,,,,,,,,,,,,,,,,,,,,,,,,1539.5929216002114,None,,,,,,,,,,,,,,,,,,,,,,,,,,,,,,,,,,,,,,,,,,,,,,,,,,,,,,,,,cat,93,76,aloud,old,blue,1538.5669426000677,None,y,1538.5669426000677,None,"['y', 'return']","[0.7398998001590371, 0.9799839002080262]",1538.5669426000677,None,,,28,001,2023_Mar_27_1245,ExactRep-v3-final,2021.2.3,59.97238886496926,
,,,,,,,,,,,,76,0,76,0,,,,,,,,,,,,,,,,,,,,,,,,,,,,,,,,,,,,,,,,,,,,,,,,,1541.8952152999118,None,,,,,,,,,,,,,,,,,,,,,,,,,,,,,,,,,,,,,,,,,,,,,,,,,,,,,,,,,dress,138,77,silent,new,white,1540.1027227998711,None,n,1540.1027227998711,None,"['n', 'return']","[1.4602728998288512, 1.748159899841994]",1540.1027227998711,None,,,28,001,2023_Mar_27_1245,ExactRep-v3-final,2021.2.3,59.97238886496926,
,,,,,,,,,,,,77,0,77,0,,,,,,,,,,,,,,,,,,,,,,,,,,,,,,,,,,,,,,,,,,,,,,,,,1543.7470557000488,None,,,,,,,,,,,,,,,,,,,,,,,,,,,,,,,,,,,,,,,,,,,,,,,,,,,,,,,,,plant,232,78,aloud,new,blue,1542.4090312998742,None,n,1542.4090312998742,None,"['n', 'return']","[1.065863000229001, 1.28992519993335]",1542.4090312998742,None,,,28,001,2023_Mar_27_1245,ExactRep-v3-final,2021.2.3,59.97238886496926,
,,,,,,,,,,,,78,0,78,0,,,,,,,,,,,,,,,,,,,,,,,,,,,,,,,,,,,,,,,,,,,,,,,,,1546.3661785000004,None,,,,,,,,,,,,,,,,,,,,,,,,,,,,,,,,,,,,,,,,,,,,,,,,,,,,,,,,,pipe,155,79,silent,new,white,1544.2561381002888,None,n,1544.2561381002888,None,"['n', 'return']","[1.786991700064391, 2.066760200075805]",1544.2561381002888,None,,,28,001,2023_Mar_27_1245,ExactRep-v3-final,2021.2.3,59.97238886496926,
,,,,,,,,,,,,79,0,79,0,,,,,,,,,,,,,,,,,,,,,,,,,,,,,,,,,,,,,,,,,,,,,,,,,1550.1201582001522,None,,,,,,,,,,,,,,,,,,,,,,,,,,,,,,,,,,,,,,,,,,,,,,,,,,,,,,,,,moment,187,80,sing,new,red,1546.8820358002558,None,n,1546.8820358002558,None,"['n', 'return']","[2.9369879998266697, 3.1928972001187503]",1546.8820358002558,None,,,28,001,2023_Mar_27_1245,ExactRep-v3-final,2021.2.3,59.97238886496926,
,,,,,,,,,,,,80,0,80,0,,,,,,,,,,,,,,,,,,,,,,,,,,,,,,,,,,,,,,,,,,,,,,,,,1553.3732242002152,None,,,,,,,,,,,,,,,,,,,,,,,,,,,,,,,,,,,,,,,,,,,,,,,,,,,,,,,,,party,75,81,silent,old,white,1550.6242506001145,None,n,1550.6242506001145,None,"['n', 'return']","[2.5067670000717044, 2.714622300118208]",1550.6242506001145,None,,,28,001,2023_Mar_27_1245,ExactRep-v3-final,2021.2.3,59.97238886496926,
,,,,,,,,,,,,81,0,81,0,,,,,,,,,,,,,,,,,,,,,,,,,,,,,,,,,,,,,,,,,,,,,,,,,1557.3773063002154,None,,,,,,,,,,,,,,,,,,,,,,,,,,,,,,,,,,,,,,,,,,,,,,,,,,,,,,,,,hour,127,82,silent,new,white,1553.882442300208,None,n,1553.882442300208,None,"['n', 'return']","[2.6087707998231053, 3.456539399921894]",1553.882442300208,None,,,28,001,2023_Mar_27_1245,ExactRep-v3-final,2021.2.3,59.97238886496926,
,,,,,,,,,,,,82,0,82,0,,,,,,,,,,,,,,,,,,,,,,,,,,,,,,,,,,,,,,,,,,,,,,,,,1558.845505699981,None,,,,,,,,,,,,,,,,,,,,,,,,,,,,,,,,,,,,,,,,,,,,,,,,,,,,,,,,,honour,62,83,silent,old,white,1557.8871097001247,None,y,1557.8871097001247,None,"['y', 'return']","[0.6997541999444366, 0.9157735998742282]",1557.8871097001247,None,,,28,001,2023_Mar_27_1245,ExactRep-v3-final,2021.2.3,59.97238886496926,
,,,,,,,,,,,,83,0,83,0,,,,,,,,,,,,,,,,,,,,,,,,,,,,,,,,,,,,,,,,,,,,,,,,,1562.3154690000229,None,,,,,,,,,,,,,,,,,,,,,,,,,,,,,,,,,,,,,,,,,,,,,,,,,,,,,,,,,master,41,84,silent,old,white,1559.3551846998744,None,n,1559.3551846998744,None,"['n', 'return']","[2.6317607001401484, 2.9197194003500044]",1559.3551846998744,None,,,28,001,2023_Mar_27_1245,ExactRep-v3-final,2021.2.3,59.97238886496926,
,,,,,,,,,,,,84,0,84,0,,,,,,,,,,,,,,,,,,,,,,,,,,,,,,,,,,,,,,,,,,,,,,,,,1564.1507895998657,None,,,,,,,,,,,,,,,,,,,,,,,,,,,,,,,,,,,,,,,,,,,,,,,,,,,,,,,,,flood,128,85,silent,new,white,1562.8276169002056,None,n,1562.8276169002056,None,"['n', 'return']","[0.9592794999480247, 1.2791968998499215]",1562.8276169002056,None,,,28,001,2023_Mar_27_1245,ExactRep-v3-final,2021.2.3,59.97238886496926,
,,,,,,,,,,,,85,0,85,0,,,,,,,,,,,,,,,,,,,,,,,,,,,,,,,,,,,,,,,,,,,,,,,,,1565.8357182000764,None,,,,,,,,,,,,,,,,,,,,,,,,,,,,,,,,,,,,,,,,,,,,,,,,,,,,,,,,,body,82,86,aloud,old,blue,1564.6621437002905,None,y,1564.6621437002905,None,"['y', 'return']","[0.804808400105685, 1.1407192000187933]",1564.6621437002905,None,,,28,001,2023_Mar_27_1245,ExactRep-v3-final,2021.2.3,59.97238886496926,
,,,,,,,,,,,,86,0,86,0,,,,,,,,,,,,,,,,,,,,,,,,,,,,,,,,,,,,,,,,,,,,,,,,,1567.854484200012,None,,,,,,,,,,,,,,,,,,,,,,,,,,,,,,,,,,,,,,,,,,,,,,,,,,,,,,,,,table,147,87,silent,new,white,1566.3377580000088,None,n,1566.3377580000088,None,"['n', 'return']","[1.1691223997622728, 1.473253299947828]",1566.3377580000088,None,,,28,001,2023_Mar_27_1245,ExactRep-v3-final,2021.2.3,59.97238886496926,
,,,,,,,,,,,,87,0,87,0,,,,,,,,,,,,,,,,,,,,,,,,,,,,,,,,,,,,,,,,,,,,,,,,,1569.722945699934,None,,,,,,,,,,,,,,,,,,,,,,,,,,,,,,,,,,,,,,,,,,,,,,,,,,,,,,,,,effort,234,88,aloud,new,blue,1568.3637375002727,None,n,1568.3637375002727,None,"['n', 'return']","[1.039177100174129, 1.3191721001639962]",1568.3637375002727,None,,,28,001,2023_Mar_27_1245,ExactRep-v3-final,2021.2.3,59.97238886496926,
,,,,,,,,,,,,88,0,88,0,,,,,,,,,,,,,,,,,,,,,,,,,,,,,,,,,,,,,,,,,,,,,,,,,1571.3580749002285,None,,,,,,,,,,,,,,,,,,,,,,,,,,,,,,,,,,,,,,,,,,,,,,,,,,,,,,,,,pole,61,89,silent,old,white,1570.230832300149,None,n,1570.230832300149,None,"['n', 'return']","[0.8361309003084898, 1.0921118003316224]",1570.230832300149,None,,,28,001,2023_Mar_27_1245,ExactRep-v3-final,2021.2.3,59.97238886496926,
,,,,,,,,,,,,89,0,89,0,,,,,,,,,,,,,,,,,,,,,,,,,,,,,,,,,,,,,,,,,,,,,,,,,1572.9094883999787,None,,,,,,,,,,,,,,,,,,,,,,,,,,,,,,,,,,,,,,,,,,,,,,,,,,,,,,,,,green,121,90,silent,new,white,1571.8715587002225,None,n,1571.8715587002225,None,"['n', 'return']","[0.7553572999313474, 1.003323799930513]",1571.8715587002225,None,,,28,001,2023_Mar_27_1245,ExactRep-v3-final,2021.2.3,59.97238886496926,
,,,,,,,,,,,,90,0,90,0,,,,,,,,,,,,,,,,,,,,,,,,,,,,,,,,,,,,,,,,,,,,,,,,,1576.1960318000056,None,,,,,,,,,,,,,,,,,,,,,,,,,,,,,,,,,,,,,,,,,,,,,,,,,,,,,,,,,paper,88,91,aloud,old,blue,1573.4250362999737,None,n,1573.4250362999737,None,"['n', 'return']","[2.4737551999278367, 2.737900400068611]",1573.4250362999737,None,,,28,001,2023_Mar_27_1245,ExactRep-v3-final,2021.2.3,59.97238886496926,
,,,,,,,,,,,,91,0,91,0,,,,,,,,,,,,,,,,,,,,,,,,,,,,,,,,,,,,,,,,,,,,,,,,,1579.5660490998998,None,,,,,,,,,,,,,,,,,,,,,,,,,,,,,,,,,,,,,,,,,,,,,,,,,,,,,,,,,woods,39,92,silent,old,white,1576.7043436001986,None,n,1576.7043436001986,None,"['n', 'return']","[2.4585648998618126, 2.8185139996930957]",1576.7043436001986,None,,,28,001,2023_Mar_27_1245,ExactRep-v3-final,2021.2.3,59.97238886496926,
,,,,,,,,,,,,92,0,92,0,,,,,,,,,,,,,,,,,,,,,,,,,,,,,,,,,,,,,,,,,,,,,,,,,1581.067772100214,None,,,,,,,,,,,,,,,,,,,,,,,,,,,,,,,,,,,,,,,,,,,,,,,,,,,,,,,,,winter,31,93,sing,old,red,1580.0798896001652,None,y,1580.0798896001652,None,"['y', 'return']","[0.7151191998273134, 0.9548980998806655]",1580.0798896001652,None,,,28,001,2023_Mar_27_1245,ExactRep-v3-final,2021.2.3,59.97238886496926,
,,,,,,,,,,,,93,0,93,0,,,,,,,,,,,,,,,,,,,,,,,,,,,,,,,,,,,,,,,,,,,,,,,,,1583.0195992998779,None,,,,,,,,,,,,,,,,,,,,,,,,,,,,,,,,,,,,,,,,,,,,,,,,,,,,,,,,,shame,123,94,silent,new,white,1581.5773447002284,None,n,1581.5773447002284,None,"['n', 'return']","[1.153868599794805, 1.4015962998382747]",1581.5773447002284,None,,,28,001,2023_Mar_27_1245,ExactRep-v3-final,2021.2.3,59.97238886496926,
,,,,,,,,,,,,94,0,94,0,,,,,,,,,,,,,,,,,,,,,,,,,,,,,,,,,,,,,,,,,,,,,,,,,1584.9549965001643,None,,,,,,,,,,,,,,,,,,,,,,,,,,,,,,,,,,,,,,,,,,,,,,,,,,,,,,,,,present,94,95,aloud,old,blue,1583.5326952999458,None,y,1583.5326952999458,None,"['y', 'return']","[1.062314699869603, 1.3742366996593773]",1583.5326952999458,None,,,28,001,2023_Mar_27_1245,ExactRep-v3-final,2021.2.3,59.97238886496926,
,,,,,,,,,,,,95,0,95,0,,,,,,,,,,,,,,,,,,,,,,,,,,,,,,,,,,,,,,,,,,,,,,,,,1587.1236919001676,None,,,,,,,,,,,,,,,,,,,,,,,,,,,,,,,,,,,,,,,,,,,,,,,,,,,,,,,,,kiss,157,96,silent,new,white,1585.4650516998954,None,n,1585.4650516998954,None,"['n', 'return']","[1.3618886996991932, 1.6179054998792708]",1585.4650516998954,None,,,28,001,2023_Mar_27_1245,ExactRep-v3-final,2021.2.3,59.97238886496926,
,,,,,,,,,,,,96,0,96,0,,,,,,,,,,,,,,,,,,,,,,,,,,,,,,,,,,,,,,,,,,,,,,,,,1589.1590547999367,None,,,,,,,,,,,,,,,,,,,,,,,,,,,,,,,,,,,,,,,,,,,,,,,,,,,,,,,,,event,182,97,aloud,new,blue,1587.6366055002436,None,n,1587.6366055002436,None,"['n', 'return']","[1.2222953997552395, 1.4863958996720612]",1587.6366055002436,None,,,28,001,2023_Mar_27_1245,ExactRep-v3-final,2021.2.3,59.97238886496926,
,,,,,,,,,,,,97,0,97,0,,,,,,,,,,,,,,,,,,,,,,,,,,,,,,,,,,,,,,,,,,,,,,,,,1593.0963662001304,None,,,,,,,,,,,,,,,,,,,,,,,,,,,,,,,,,,,,,,,,,,,,,,,,,,,,,,,,,salary,92,98,aloud,old,blue,1589.6633907998912,None,y,1589.6633907998912,None,"['y', 'return']","[3.147421299945563, 3.387412100099027]",1589.6633907998912,None,,,28,001,2023_Mar_27_1245,ExactRep-v3-final,2021.2.3,59.97238886496926,
,,,,,,,,,,,,98,0,98,0,,,,,,,,,,,,,,,,,,,,,,,,,,,,,,,,,,,,,,,,,,,,,,,,,1594.7145092999563,None,,,,,,,,,,,,,,,,,,,,,,,,,,,,,,,,,,,,,,,,,,,,,,,,,,,,,,,,,engine,71,99,silent,old,white,1593.6059011002071,None,n,1593.6059011002071,None,"['n', 'return']","[0.8933290001004934, 1.0610221000388265]",1593.6059011002071,None,,,28,001,2023_Mar_27_1245,ExactRep-v3-final,2021.2.3,59.97238886496926,
,,,,,,,,,,,,99,0,99,0,,,,,,,,,,,,,,,,,,,,,,,,,,,,,,,,,,,,,,,,,,,,,,,,,1597.0175696001388,None,,,,,,,,,,,,,,,,,,,,,,,,,,,,,,,,,,,,,,,,,,,,,,,,,,,,,,,,,life,50,100,silent,old,white,1595.2178958998993,None,n,1595.2178958998993,None,"['n', 'return']","[1.384914199821651, 1.7531197001226246]",1595.2178958998993,None,,,28,001,2023_Mar_27_1245,ExactRep-v3-final,2021.2.3,59.97238886496926,
,,,,,,,,,,,,100,0,100,0,,,,,,,,,,,,,,,,,,,,,,,,,,,,,,,,,,,,,,,,,,,,,,,,,1599.4025530000217,None,,,,,,,,,,,,,,,,,,,,,,,,,,,,,,,,,,,,,,,,,,,,,,,,,,,,,,,,,humour,169,101,sing,new,red,1597.5264531001449,None,n,1597.5264531001449,None,"['n', 'return']","[1.4206202998757362, 1.8445478999055922]",1597.5264531001449,None,,,28,001,2023_Mar_27_1245,ExactRep-v3-final,2021.2.3,59.97238886496926,
,,,,,,,,,,,,101,0,101,0,,,,,,,,,,,,,,,,,,,,,,,,,,,,,,,,,,,,,,,,,,,,,,,,,1603.1563865002245,None,,,,,,,,,,,,,,,,,,,,,,,,,,,,,,,,,,,,,,,,,,,,,,,,,,,,,,,,,library,77,102,silent,old,white,1599.9177502999082,None,n,1599.9177502999082,None,"['n', 'return']","[3.005415600258857, 3.2051079999655485]",1599.9177502999082,None,,,28,001,2023_Mar_27_1245,ExactRep-v3-final,2021.2.3,59.97238886496926,
,,,,,,,,,,,,102,0,102,0,,,,,,,,,,,,,,,,,,,,,,,,,,,,,,,,,,,,,,,,,,,,,,,,,1606.7099410998635,None,,,,,,,,,,,,,,,,,,,,,,,,,,,,,,,,,,,,,,,,,,,,,,,,,,,,,,,,,science,66,103,silent,old,white,1603.6725746998563,None,y,1603.6725746998563,None,"['y', 'return']","[2.722517699934542, 3.002368800342083]",1603.6725746998563,None,,,28,001,2023_Mar_27_1245,ExactRep-v3-final,2021.2.3,59.97238886496926,
,,,,,,,,,,,,103,0,103,0,,,,,,,,,,,,,,,,,,,,,,,,,,,,,,,,,,,,,,,,,,,,,,,,,1609.2125876001082,None,,,,,,,,,,,,,,,,,,,,,,,,,,,,,,,,,,,,,,,,,,,,,,,,,,,,,,,,,dust,27,104,sing,old,red,1607.217013800051,None,n,1607.217013800051,None,"['n', 'return']","[1.666016099974513, 1.9539896002970636]",1607.217013800051,None,,,28,001,2023_Mar_27_1245,ExactRep-v3-final,2021.2.3,59.97238886496926,
,,,,,,,,,,,,104,0,104,0,,,,,,,,,,,,,,,,,,,,,,,,,,,,,,,,,,,,,,,,,,,,,,,,,1610.8141049002297,None,,,,,,,,,,,,,,,,,,,,,,,,,,,,,,,,,,,,,,,,,,,,,,,,,,,,,,,,,gift,223,105,sing,new,red,1609.7282115998678,None,n,1609.7282115998678,None,"['n', 'return']","[0.8110403004102409, 1.0507883001118898]",1609.7282115998678,None,,,28,001,2023_Mar_27_1245,ExactRep-v3-final,2021.2.3,59.97238886496926,
,,,,,,,,,,,,105,0,105,0,,,,,,,,,,,,,,,,,,,,,,,,,,,,,,,,,,,,,,,,,,,,,,,,,1612.3154776999727,None,,,,,,,,,,,,,,,,,,,,,,,,,,,,,,,,,,,,,,,,,,,,,,,,,,,,,,,,,spirit,213,106,sing,new,red,1611.323077400215,None,n,1611.323077400215,None,"['n', 'return']","[0.7599195996299386, 0.9598578996956348]",1611.323077400215,None,,,28,001,2023_Mar_27_1245,ExactRep-v3-final,2021.2.3,59.97238886496926,
,,,,,,,,,,,,106,0,106,0,,,,,,,,,,,,,,,,,,,,,,,,,,,,,,,,,,,,,,,,,,,,,,,,,1614.884805300273,None,,,,,,,,,,,,,,,,,,,,,,,,,,,,,,,,,,,,,,,,,,,,,,,,,,,,,,,,,fortune,95,107,aloud,old,blue,1612.8257762002759,None,y,1612.8257762002759,None,"['y', 'return']","[1.7532186997123063, 2.0172695997171104]",1612.8257762002759,None,,,28,001,2023_Mar_27_1245,ExactRep-v3-final,2021.2.3,59.97238886496926,
,,,,,,,,,,,,107,0,107,0,,,,,,,,,,,,,,,,,,,,,,,,,,,,,,,,,,,,,,,,,,,,,,,,,1616.569770200178,None,,,,,,,,,,,,,,,,,,,,,,,,,,,,,,,,,,,,,,,,,,,,,,,,,,,,,,,,,butter,215,108,sing,new,red,1615.4039620999247,None,n,1615.4039620999247,None,"['n', 'return']","[0.8790775998495519, 1.1269931001588702]",1615.4039620999247,None,,,28,001,2023_Mar_27_1245,ExactRep-v3-final,2021.2.3,59.97238886496926,
,,,,,,,,,,,,108,0,108,0,,,,,,,,,,,,,,,,,,,,,,,,,,,,,,,,,,,,,,,,,,,,,,,,,1618.571740299929,None,,,,,,,,,,,,,,,,,,,,,,,,,,,,,,,,,,,,,,,,,,,,,,,,,,,,,,,,,coffee,130,109,silent,new,white,1617.0820058998652,None,n,1617.0820058998652,None,"['n', 'return']","[1.2489684000611305, 1.456967500038445]",1617.0820058998652,None,,,28,001,2023_Mar_27_1245,ExactRep-v3-final,2021.2.3,59.97238886496926,
,,,,,,,,,,,,109,0,109,0,,,,,,,,,,,,,,,,,,,,,,,,,,,,,,,,,,,,,,,,,,,,,,,,,1620.3401671000756,None,,,,,,,,,,,,,,,,,,,,,,,,,,,,,,,,,,,,,,,,,,,,,,,,,,,,,,,,,murder,153,110,silent,new,white,1619.081122700125,None,n,1619.081122700125,None,"['n', 'return']","[1.0019927001558244, 1.2258783001452684]",1619.081122700125,None,,,28,001,2023_Mar_27_1245,ExactRep-v3-final,2021.2.3,59.97238886496926,
,,,,,,,,,,,,110,0,110,0,,,,,,,,,,,,,,,,,,,,,,,,,,,,,,,,,,,,,,,,,,,,,,,,,1622.3088782001287,None,,,,,,,,,,,,,,,,,,,,,,,,,,,,,,,,,,,,,,,,,,,,,,,,,,,,,,,,,judge,54,111,silent,old,white,1620.857039600145,None,y,1620.857039600145,None,"['y', 'return']","[1.1860918998718262, 1.410001200158149]",1620.857039600145,None,,,28,001,2023_Mar_27_1245,ExactRep-v3-final,2021.2.3,59.97238886496926,
,,,,,,,,,,,,111,0,111,0,,,,,,,,,,,,,,,,,,,,,,,,,,,,,,,,,,,,,,,,,,,,,,,,,1624.060580499936,None,,,,,,,,,,,,,,,,,,,,,,,,,,,,,,,,,,,,,,,,,,,,,,,,,,,,,,,,,mind,191,112,sing,new,red,1622.8172753001563,None,n,1622.8172753001563,None,"['n', 'return']","[1.0176749997772276, 1.2016925001516938]",1622.8172753001563,None,,,28,001,2023_Mar_27_1245,ExactRep-v3-final,2021.2.3,59.97238886496926,
,,,,,,,,,,,,112,0,112,0,,,,,,,,,,,,,,,,,,,,,,,,,,,,,,,,,,,,,,,,,,,,,,,,,1626.5631339000538,None,,,,,,,,,,,,,,,,,,,,,,,,,,,,,,,,,,,,,,,,,,,,,,,,,,,,,,,,,season,222,113,aloud,new,blue,1624.5766099998727,None,n,1624.5766099998727,None,"['n', 'return']","[1.7942939000204206, 1.954538400284946]",1624.5766099998727,None,,,28,001,2023_Mar_27_1245,ExactRep-v3-final,2021.2.3,59.97238886496926,
,,,,,,,,,,,,113,0,113,0,,,,,,,,,,,,,,,,,,,,,,,,,,,,,,,,,,,,,,,,,,,,,,,,,1628.5651459000073,None,,,,,,,,,,,,,,,,,,,,,,,,,,,,,,,,,,,,,,,,,,,,,,,,,,,,,,,,,house,106,114,aloud,old,blue,1627.0807938999496,None,n,1627.0807938999496,None,"['n', 'return']","[1.1780774998478591, 1.442246399819851]",1627.0807938999496,None,,,28,001,2023_Mar_27_1245,ExactRep-v3-final,2021.2.3,59.97238886496926,
,,,,,,,,,,,,114,0,114,0,,,,,,,,,,,,,,,,,,,,,,,,,,,,,,,,,,,,,,,,,,,,,,,,,1630.467293099966,None,,,,,,,,,,,,,,,,,,,,,,,,,,,,,,,,,,,,,,,,,,,,,,,,,,,,,,,,,shore,177,115,sing,new,red,1629.074865499977,None,n,1629.074865499977,None,"['n', 'return']","[0.9122437001205981, 1.3521485002711415]",1629.074865499977,None,,,28,001,2023_Mar_27_1245,ExactRep-v3-final,2021.2.3,59.97238886496926,
,,,,,,,,,,,,115,0,115,0,,,,,,,,,,,,,,,,,,,,,,,,,,,,,,,,,,,,,,,,,,,,,,,,,1632.3689434002154,None,,,,,,,,,,,,,,,,,,,,,,,,,,,,,,,,,,,,,,,,,,,,,,,,,,,,,,,,,teacher,22,116,sing,old,red,1630.9723713998683,None,n,1630.9723713998683,None,"['n', 'return']","[1.0787577000446618, 1.3586486000567675]",1630.9723713998683,None,,,28,001,2023_Mar_27_1245,ExactRep-v3-final,2021.2.3,59.97238886496926,
,,,,,,,,,,,,116,0,116,0,,,,,,,,,,,,,,,,,,,,,,,,,,,,,,,,,,,,,,,,,,,,,,,,,1634.2373965000734,None,,,,,,,,,,,,,,,,,,,,,,,,,,,,,,,,,,,,,,,,,,,,,,,,,,,,,,,,,arm,9,117,sing,old,red,1632.8780777002685,None,y,1632.8780777002685,None,"['y', 'return']","[1.1010749000124633, 1.3248712001368403]",1632.8780777002685,None,,,28,001,2023_Mar_27_1245,ExactRep-v3-final,2021.2.3,59.97238886496926,
,,,,,,,,,,,,117,0,117,0,,,,,,,,,,,,,,,,,,,,,,,,,,,,,,,,,,,,,,,,,,,,,,,,,1636.0392678002827,None,,,,,,,,,,,,,,,,,,,,,,,,,,,,,,,,,,,,,,,,,,,,,,,,,,,,,,,,,prayer,109,118,aloud,old,blue,1634.7415598998778,None,y,1634.7415598998778,None,"['y', 'return']","[1.0214420999400318, 1.2533223000355065]",1634.7415598998778,None,,,28,001,2023_Mar_27_1245,ExactRep-v3-final,2021.2.3,59.97238886496926,
,,,,,,,,,,,,118,0,118,0,,,,,,,,,,,,,,,,,,,,,,,,,,,,,,,,,,,,,,,,,,,,,,,,,1637.774323800113,None,,,,,,,,,,,,,,,,,,,,,,,,,,,,,,,,,,,,,,,,,,,,,,,,,,,,,,,,,custom,131,119,silent,new,white,1636.5491194999777,None,n,1636.5491194999777,None,"['n', 'return']","[0.9018371999263763, 1.1900447001680732]",1636.5491194999777,None,,,28,001,2023_Mar_27_1245,ExactRep-v3-final,2021.2.3,59.97238886496926,
,,,,,,,,,,,,119,0,119,0,,,,,,,,,,,,,,,,,,,,,,,,,,,,,,,,,,,,,,,,,,,,,,,,,1639.6262123999186,None,,,,,,,,,,,,,,,,,,,,,,,,,,,,,,,,,,,,,,,,,,,,,,,,,,,,,,,,,forest,115,120,aloud,old,blue,1638.2855523000471,None,y,1638.2855523000471,None,"['y', 'return']","[1.0217250999994576, 1.29346190020442]",1638.2855523000471,None,,,28,001,2023_Mar_27_1245,ExactRep-v3-final,2021.2.3,59.97238886496926,
,,,,,,,,,,,,120,0,120,0,,,,,,,,,,,,,,,,,,,,,,,,,,,,,,,,,,,,,,,,,,,,,,,,,1641.2277863002382,None,,,,,,,,,,,,,,,,,,,,,,,,,,,,,,,,,,,,,,,,,,,,,,,,,,,,,,,,,brain,151,121,silent,new,white,1640.135919000022,None,n,1640.135919000022,None,"['n', 'return']","[0.8350372002460063, 1.0590041000396013]",1640.135919000022,None,,,28,001,2023_Mar_27_1245,ExactRep-v3-final,2021.2.3,59.97238886496926,
,,,,,,,,,,,,121,0,121,0,,,,,,,,,,,,,,,,,,,,,,,,,,,,,,,,,,,,,,,,,,,,,,,,,1643.6969130998477,None,,,,,,,,,,,,,,,,,,,,,,,,,,,,,,,,,,,,,,,,,,,,,,,,,,,,,,,,,weapon,114,122,aloud,old,blue,1641.741300099995,None,n,1641.741300099995,None,"['n', 'return']","[1.6856659003533423, 1.9177791001275182]",1641.741300099995,None,,,28,001,2023_Mar_27_1245,ExactRep-v3-final,2021.2.3,59.97238886496926,
,,,,,,,,,,,,122,0,122,0,,,,,,,,,,,,,,,,,,,,,,,,,,,,,,,,,,,,,,,,,,,,,,,,,1645.6490197000094,None,,,,,,,,,,,,,,,,,,,,,,,,,,,,,,,,,,,,,,,,,,,,,,,,,,,,,,,,,charm,68,123,silent,old,white,1644.2071175002493,None,n,1644.2071175002493,None,"['n', 'return']","[1.211948599666357, 1.3959717000834644]",1644.2071175002493,None,,,28,001,2023_Mar_27_1245,ExactRep-v3-final,2021.2.3,59.97238886496926,
,,,,,,,,,,,,123,0,123,0,,,,,,,,,,,,,,,,,,,,,,,,,,,,,,,,,,,,,,,,,,,,,,,,,1647.250445799902,None,,,,,,,,,,,,,,,,,,,,,,,,,,,,,,,,,,,,,,,,,,,,,,,,,,,,,,,,,grass,230,124,aloud,new,blue,1646.1581937000155,None,n,1646.1581937000155,None,"['n', 'return']","[0.8448656997643411, 1.0527828997001052]",1646.1581937000155,None,,,28,001,2023_Mar_27_1245,ExactRep-v3-final,2021.2.3,59.97238886496926,
,,,,,,,,,,,,124,0,124,0,,,,,,,,,,,,,,,,,,,,,,,,,,,,,,,,,,,,,,,,,,,,,,,,,1653.1908650998957,None,,,,,,,,,,,,,,,,,,,,,,,,,,,,,,,,,,,,,,,,,,,,,,,,,,,,,,,,,chair,11,125,sing,old,red,1647.7575642000884,None,y,1647.7575642000884,None,"['y', 'return']","[5.045507699716836, 5.397426399867982]",1647.7575642000884,None,,,28,001,2023_Mar_27_1245,ExactRep-v3-final,2021.2.3,59.97238886496926,
,,,,,,,,,,,,125,0,125,0,,,,,,,,,,,,,,,,,,,,,,,,,,,,,,,,,,,,,,,,,,,,,,,,,1654.7746812002733,None,,,,,,,,,,,,,,,,,,,,,,,,,,,,,,,,,,,,,,,,,,,,,,,,,,,,,,,,,ability,16,126,sing,old,red,1653.6992748999037,None,n,1653.6992748999037,None,"['n', 'return']","[0.7755700997076929, 1.0316184000112116]",1653.6992748999037,None,,,28,001,2023_Mar_27_1245,ExactRep-v3-final,2021.2.3,59.97238886496926,
,,,,,,,,,,,,126,0,126,0,,,,,,,,,,,,,,,,,,,,,,,,,,,,,,,,,,,,,,,,,,,,,,,,,1656.5098104001954,None,,,,,,,,,,,,,,,,,,,,,,,,,,,,,,,,,,,,,,,,,,,,,,,,,,,,,,,,,time,64,127,silent,old,white,1655.2837136001326,None,n,1655.2837136001326,None,"['n', 'return']","[0.9674182999879122, 1.1832826002500951]",1655.2837136001326,None,,,28,001,2023_Mar_27_1245,ExactRep-v3-final,2021.2.3,59.97238886496926,
,,,,,,,,,,,,127,0,127,0,,,,,,,,,,,,,,,,,,,,,,,,,,,,,,,,,,,,,,,,,,,,,,,,,1658.6451421002857,None,,,,,,,,,,,,,,,,,,,,,,,,,,,,,,,,,,,,,,,,,,,,,,,,,,,,,,,,,soul,12,128,sing,old,red,1657.0216035000049,None,y,1657.0216035000049,None,"['y', 'return']","[1.1815431001596153, 1.5813683001324534]",1657.0216035000049,None,,,28,001,2023_Mar_27_1245,ExactRep-v3-final,2021.2.3,59.97238886496926,
,,,,,,,,,,,,128,0,128,0,,,,,,,,,,,,,,,,,,,,,,,,,,,,,,,,,,,,,,,,,,,,,,,,,1662.8495312002487,None,,,,,,,,,,,,,,,,,,,,,,,,,,,,,,,,,,,,,,,,,,,,,,,,,,,,,,,,,hide,238,129,aloud,new,blue,1659.1514560002834,None,n,1659.1514560002834,None,"['n', 'return']","[3.395663000177592, 3.659623000305146]",1659.1514560002834,None,,,28,001,2023_Mar_27_1245,ExactRep-v3-final,2021.2.3,59.97238886496926,
,,,,,,,,,,,,129,0,129,0,,,,,,,,,,,,,,,,,,,,,,,,,,,,,,,,,,,,,,,,,,,,,,,,,1664.584960100241,None,,,,,,,,,,,,,,,,,,,,,,,,,,,,,,,,,,,,,,,,,,,,,,,,,,,,,,,,,flag,19,130,sing,old,red,1663.367738599889,None,n,1663.367738599889,None,"['n', 'return']","[0.9072811999358237, 1.1794071001932025]",1663.367738599889,None,,,28,001,2023_Mar_27_1245,ExactRep-v3-final,2021.2.3,59.97238886496926,
,,,,,,,,,,,,130,0,130,0,,,,,,,,,,,,,,,,,,,,,,,,,,,,,,,,,,,,,,,,,,,,,,,,,1666.4029719000682,None,,,,,,,,,,,,,,,,,,,,,,,,,,,,,,,,,,,,,,,,,,,,,,,,,,,,,,,,,power,239,131,sing,new,red,1665.0980369001627,None,n,1665.0980369001627,None,"['n', 'return']","[0.9609611998312175, 1.2729608998633921]",1665.0980369001627,None,,,28,001,2023_Mar_27_1245,ExactRep-v3-final,2021.2.3,59.97238886496926,
,,,,,,,,,,,,131,0,131,0,,,,,,,,,,,,,,,,,,,,,,,,,,,,,,,,,,,,,,,,,,,,,,,,,1668.0879796999507,None,,,,,,,,,,,,,,,,,,,,,,,,,,,,,,,,,,,,,,,,,,,,,,,,,,,,,,,,,potato,7,132,sing,old,red,1666.915689200163,None,y,1666.915689200163,None,"['y', 'return']","[0.8793168999254704, 1.1353215998969972]",1666.915689200163,None,,,28,001,2023_Mar_27_1245,ExactRep-v3-final,2021.2.3,59.97238886496926,
