trials_fam.thisRepN,trials_fam.thisTrialN,trials_fam.thisN,trials_fam.thisIndex,trials_prc.thisRepN,trials_prc.thisTrialN,trials_prc.thisN,trials_prc.thisIndex,StudyLoop.thisRepN,StudyLoop.thisTrialN,StudyLoop.thisN,StudyLoop.thisIndex,TestLoop.thisRepN,TestLoop.thisTrialN,TestLoop.thisN,TestLoop.thisIndex,text_colortest.started,text_colortest.stopped,key_colortest.keys,key_colortest.rt,key_colortest.started,key_colortest.stopped,textCondition.started,textCondition.stopped,keyCondition.keys,keyCondition.rt,keyCondition.started,keyCondition.stopped,Condition_between,Condition_counterbal,keyWelcome.keys,keyWelcome.rt,keyWelcome.started,keyWelcome.stopped,welcome_a.started,welcome_a.stopped,welcome_b.started,welcome_b.stopped,welcome_c.started,welcome_c.stopped,welcome_d.started,welcome_d.stopped,welcome_e.started,welcome_e.stopped,welcome_f.started,welcome_f.stopped,key_resp_fam_inst.keys,key_resp_fam_inst.rt,key_resp_fam_inst.started,key_resp_fam_inst.stopped,fam_a.started,fam_a.stopped,fam_b.started,fam_b.stopped,fam_c.started,fam_c.stopped,fam_d.started,fam_d.stopped,fam_e.started,fam_e.stopped,fam_f.started,fam_f.stopped,text_famil.started,text_famil.stopped,textBlank500.started,textBlank500.stopped,key_resp_prc_inst.keys,key_resp_prc_inst.rt,key_resp_prc_inst.started,key_resp_prc_inst.stopped,prac_a.started,prac_a.stopped,prac_b.started,prac_b.stopped,prac_c.started,prac_c.stopped,prac_d.started,prac_d.stopped,prac_e.started,prac_e.stopped,prac_f.started,prac_f.stopped,text_prc_trial.started,text_prc_trial.stopped,key_resp_study_inst.keys,key_resp_study_inst.rt,key_resp_study_inst.started,key_resp_study_inst.stopped,crit_a.started,crit_a.stopped,crit_b.started,crit_b.stopped,crit_c.started,crit_c.stopped,crit_d.started,crit_d.stopped,crit_e.started,crit_e.stopped,crit_f.started,crit_f.stopped,study_word,study_num,study_order,study_type,word_color,textStudy.started,textStudy.stopped,keyStudy.keys,keyStudy.started,keyStudy.stopped,post_study.started,post_study.stopped,key_resp_post_study.keys,key_resp_post_study.rt,key_resp_post_study.started,key_resp_post_study.stopped,test_inst.started,test_inst.stopped,key_resp_test_inst.keys,key_resp_test_inst.rt,key_resp_test_inst.started,key_resp_test_inst.stopped,test_word,test_num,test_order,test_condition,old_new_test,word_color_test,textConf.started,textConf.stopped,Participant Response,textInput.started,textInput.stopped,keyResp.keys,keyResp.rt,keyResp.started,keyResp.stopped,textEnd.started,textEnd.stopped,participant,session,date,expName,psychopyVersion,frameRate,
,,,,,,,,,,,,,,,,17.71553419996053,None,y,4.750844799913466,17.71553419996053,None,,,,,,,,,,,,,,,,,,,,,,,,,,,,,,,,,,,,,,,,,,,,,,,,,,,,,,,,,,,,,,,,,,,,,,,,,,,,,,,,,,,,,,,,,,,,,,,,,,,,,,,,,,,,,,,,,,,,,,29YE,001,2023_Mar_29_1523,ExactRep-v3-final,2021.2.3,59.95922769391484,
,,,,,,,,,,,,,,,,,,,,,,22.49194520013407,None,e,2.8224352998659015,22.49194520013407,None,,,,,,,,,,,,,,,,,,,,,,,,,,,,,,,,,,,,,,,,,,,,,,,,,,,,,,,,,,,,,,,,,,,,,,,,,,,,,,,,,,,,,,,,,,,,,,,,,,,,,,,,,,,,,,,,29YE,001,2023_Mar_29_1523,ExactRep-v3-final,2021.2.3,59.95922769391484,
,,,,,,,,,,,,,,,,,,,,,,,,,,,,colorfoils,e,space,287.6791359996423,35.451410999987274,None,,,,,,,,,,,,,,,,,,,,,,,,,,,,,,,,,,,,,,,,,,,,,,,,,,,,,,,,,,,,,,,,,,,,,,,,,,,,,,,,,,,,,,,,,,,,,,,,,,,,,,,,,,29YE,001,2023_Mar_29_1523,ExactRep-v3-final,2021.2.3,59.95922769391484,
,,,,,,,,,,,,,,,,,,,,,,,,,,,,,,,,,,25.53161679999903,None,25.53161679999903,None,25.53161679999903,None,25.53161679999903,None,25.53161679999903,None,25.53161679999903,None,space,16.66545070009306,333.33724670019,None,,,,,,,,,,,,,,,,,,,,,,,,,,,,,,,,,,,,,,,,,,,,,,,,,,,,,,,,,,,,,,,,,,,,,,,,,,,,,,,,,,,,,,,,,,29YE,001,2023_Mar_29_1523,ExactRep-v3-final,2021.2.3,59.95922769391484,
0,0,0,0,,,,,,,,,,,,,,,,,,,,,,,,,,,,,,,,,,,,,,,,,,,,,,,323.36362820025533,None,323.36362820025533,None,323.36362820025533,None,323.36362820025533,None,323.36362820025533,None,323.36362820025533,None,350.0832748999819,None,352.07133009983227,None,,,,,,,,,,,,,,,,,,,,,,,,,,,,,,,,,,,,,,,,,,,,,,,,,,,,,,,,,,,,,,,,,,,,,,,,,,29YE,001,2023_Mar_29_1523,ExactRep-v3-final,2021.2.3,59.95922769391484,
1,0,1,0,,,,,,,,,,,,,,,,,,,,,,,,,,,,,,,,,,,,,,,,,,,,,,,,,,,,,,,,,,,352.57664979994297,None,354.5905411001295,None,,,,,,,,,,,,,,,,,,,,,,,,,,,,,,,,,,,,,,,,,,,,,,,,,,,,,,,,,,,,,,,,,,,,,,,,,,29YE,001,2023_Mar_29_1523,ExactRep-v3-final,2021.2.3,59.95922769391484,
2,0,2,0,,,,,,,,,,,,,,,,,,,,,,,,,,,,,,,,,,,,,,,,,,,,,,,,,,,,,,,,,,,355.0912283998914,None,357.09309330023825,None,,,,,,,,,,,,,,,,,,,,,,,,,,,,,,,,,,,,,,,,,,,,,,,,,,,,,,,,,,,,,,,,,,,,,,,,,,29YE,001,2023_Mar_29_1523,ExactRep-v3-final,2021.2.3,59.95922769391484,
3,0,3,0,,,,,,,,,,,,,,,,,,,,,,,,,,,,,,,,,,,,,,,,,,,,,,,,,,,,,,,,,,,357.5957162999548,None,359.59558100020513,None,,,,,,,,,,,,,,,,,,,,,,,,,,,,,,,,,,,,,,,,,,,,,,,,,,,,,,,,,,,,,,,,,,,,,,,,,,29YE,001,2023_Mar_29_1523,ExactRep-v3-final,2021.2.3,59.95922769391484,
4,0,4,0,,,,,,,,,,,,,,,,,,,,,,,,,,,,,,,,,,,,,,,,,,,,,,,,,,,,,,,,,,,360.1099220998585,None,362.1146146999672,None,,,,,,,,,,,,,,,,,,,,,,,,,,,,,,,,,,,,,,,,,,,,,,,,,,,,,,,,,,,,,,,,,,,,,,,,,,29YE,001,2023_Mar_29_1523,ExactRep-v3-final,2021.2.3,59.95922769391484,
5,0,5,0,,,,,,,,,,,,,,,,,,,,,,,,,,,,,,,,,,,,,,,,,,,,,,,,,,,,,,,,,,,362.6153116999194,None,364.61726040020585,None,,,,,,,,,,,,,,,,,,,,,,,,,,,,,,,,,,,,,,,,,,,,,,,,,,,,,,,,,,,,,,,,,,,,,,,,,,29YE,001,2023_Mar_29_1523,ExactRep-v3-final,2021.2.3,59.95922769391484,
6,0,6,0,,,,,,,,,,,,,,,,,,,,,,,,,,,,,,,,,,,,,,,,,,,,,,,,,,,,,,,,,,,365.11963699990883,None,367.11992060020566,None,,,,,,,,,,,,,,,,,,,,,,,,,,,,,,,,,,,,,,,,,,,,,,,,,,,,,,,,,,,,,,,,,,,,,,,,,,29YE,001,2023_Mar_29_1523,ExactRep-v3-final,2021.2.3,59.95922769391484,
7,0,7,0,,,,,,,,,,,,,,,,,,,,,,,,,,,,,,,,,,,,,,,,,,,,,,,,,,,,,,,,,,,367.62763240002096,None,369.6391170001589,None,,,,,,,,,,,,,,,,,,,,,,,,,,,,,,,,,,,,,,,,,,,,,,,,,,,,,,,,,,,,,,,,,,,,,,,,,,29YE,001,2023_Mar_29_1523,ExactRep-v3-final,2021.2.3,59.95922769391484,
8,0,8,0,,,,,,,,,,,,,,,,,,,,,,,,,,,,,,,,,,,,,,,,,,,,,,,,,,,,,,,,,,,370.1515234000981,None,372.15782300010324,None,,,,,,,,,,,,,,,,,,,,,,,,,,,,,,,,,,,,,,,,,,,,,,,,,,,,,,,,,,,,,,,,,,,,,,,,,,29YE,001,2023_Mar_29_1523,ExactRep-v3-final,2021.2.3,59.95922769391484,
9,0,9,0,,,,,,,,,,,,,,,,,,,,,,,,,,,,,,,,,,,,,,,,,,,,,,,,,,,,,,,,,,,372.6588344001211,None,374.66069679986686,None,,,,,,,,,,,,,,,,,,,,,,,,,,,,,,,,,,,,,,,,,,,,,,,,,,,,,,,,,,,,,,,,,,,,,,,,,,29YE,001,2023_Mar_29_1523,ExactRep-v3-final,2021.2.3,59.95922769391484,
10,0,10,0,,,,,,,,,,,,,,,,,,,,,,,,,,,,,,,,,,,,,,,,,,,,,,,,,,,,,,,,,,,375.1627211002633,None,377.16296770004556,None,,,,,,,,,,,,,,,,,,,,,,,,,,,,,,,,,,,,,,,,,,,,,,,,,,,,,,,,,,,,,,,,,,,,,,,,,,29YE,001,2023_Mar_29_1523,ExactRep-v3-final,2021.2.3,59.95922769391484,
11,0,11,0,,,,,,,,,,,,,,,,,,,,,,,,,,,,,,,,,,,,,,,,,,,,,,,,,,,,,,,,,,,377.66689890017733,None,379.68215919984505,None,,,,,,,,,,,,,,,,,,,,,,,,,,,,,,,,,,,,,,,,,,,,,,,,,,,,,,,,,,,,,,,,,,,,,,,,,,29YE,001,2023_Mar_29_1523,ExactRep-v3-final,2021.2.3,59.95922769391484,
12,0,12,0,,,,,,,,,,,,,,,,,,,,,,,,,,,,,,,,,,,,,,,,,,,,,,,,,,,,,,,,,,,380.1854966999963,None,382.18479260010645,None,,,,,,,,,,,,,,,,,,,,,,,,,,,,,,,,,,,,,,,,,,,,,,,,,,,,,,,,,,,,,,,,,,,,,,,,,,29YE,001,2023_Mar_29_1523,ExactRep-v3-final,2021.2.3,59.95922769391484,
13,0,13,0,,,,,,,,,,,,,,,,,,,,,,,,,,,,,,,,,,,,,,,,,,,,,,,,,,,,,,,,,,,382.68649340001866,None,384.6872983998619,None,,,,,,,,,,,,,,,,,,,,,,,,,,,,,,,,,,,,,,,,,,,,,,,,,,,,,,,,,,,,,,,,,,,,,,,,,,29YE,001,2023_Mar_29_1523,ExactRep-v3-final,2021.2.3,59.95922769391484,
14,0,14,0,,,,,,,,,,,,,,,,,,,,,,,,,,,,,,,,,,,,,,,,,,,,,,,,,,,,,,,,,,,385.19500890001655,None,387.20651359995827,None,,,,,,,,,,,,,,,,,,,,,,,,,,,,,,,,,,,,,,,,,,,,,,,,,,,,,,,,,,,,,,,,,,,,,,,,,,29YE,001,2023_Mar_29_1523,ExactRep-v3-final,2021.2.3,59.95922769391484,
,,,,,,,,,,,,,,,,,,,,,,,,,,,,,,,,,,,,,,,,,,,,,,,,,,,,,,,,,,,,,,,,,,space,24.876645599957556,397.82187069999054,None,,,,,,,,,,,,,,,,,,,,,,,,,,,,,,,,,,,,,,,,,,,,,,,,,,,,,,,,,,,,,,,,,,,,,,29YE,001,2023_Mar_29_1523,ExactRep-v3-final,2021.2.3,59.95922769391484,
,,,,0,0,0,0,,,,,,,,,,,,,,,,,,,,,,,,,,,,,,,,,,,,,,,,,,,,,,,,,,,,,,,,,424.8607955998741,None,,,,,387.864797399845,None,387.864797399845,None,387.864797399845,None,387.864797399845,None,387.864797399845,None,387.864797399845,None,422.8571979999542,None,,,,,,,,,,,,,,,,,,,,,,,,,,,,,,,,,,,,,,,,,,,,,,,,,,,,,,,,29YE,001,2023_Mar_29_1523,ExactRep-v3-final,2021.2.3,59.95922769391484,
,,,,1,0,1,0,,,,,,,,,,,,,,,,,,,,,,,,,,,,,,,,,,,,,,,,,,,,,,,,,,,,,,,,,427.3633209001273,None,,,,,,,,,,,,,,,,,425.3612692002207,None,,,,,,,,,,,,,,,,,,,,,,,,,,,,,,,,,,,,,,,,,,,,,,,,,,,,,,,,29YE,001,2023_Mar_29_1523,ExactRep-v3-final,2021.2.3,59.95922769391484,
,,,,2,0,2,0,,,,,,,,,,,,,,,,,,,,,,,,,,,,,,,,,,,,,,,,,,,,,,,,,,,,,,,,,429.86582370009273,None,,,,,,,,,,,,,,,,,427.86373359989375,None,,,,,,,,,,,,,,,,,,,,,,,,,,,,,,,,,,,,,,,,,,,,,,,,,,,,,,,,29YE,001,2023_Mar_29_1523,ExactRep-v3-final,2021.2.3,59.95922769391484,
,,,,3,0,3,0,,,,,,,,,,,,,,,,,,,,,,,,,,,,,,,,,,,,,,,,,,,,,,,,,,,,,,,,,432.3684849999845,None,,,,,,,,,,,,,,,,,430.366282499861,None,,,,,,,,,,,,,,,,,,,,,,,,,,,,,,,,,,,,,,,,,,,,,,,,,,,,,,,,29YE,001,2023_Mar_29_1523,ExactRep-v3-final,2021.2.3,59.95922769391484,
,,,,4,0,4,0,,,,,,,,,,,,,,,,,,,,,,,,,,,,,,,,,,,,,,,,,,,,,,,,,,,,,,,,,434.87095770007,None,,,,,,,,,,,,,,,,,432.868892100174,None,,,,,,,,,,,,,,,,,,,,,,,,,,,,,,,,,,,,,,,,,,,,,,,,,,,,,,,,29YE,001,2023_Mar_29_1523,ExactRep-v3-final,2021.2.3,59.95922769391484,
,,,,5,0,5,0,,,,,,,,,,,,,,,,,,,,,,,,,,,,,,,,,,,,,,,,,,,,,,,,,,,,,,,,,437.3733585001901,None,,,,,,,,,,,,,,,,,435.3712476999499,None,,,,,,,,,,,,,,,,,,,,,,,,,,,,,,,,,,,,,,,,,,,,,,,,,,,,,,,,29YE,001,2023_Mar_29_1523,ExactRep-v3-final,2021.2.3,59.95922769391484,
,,,,6,0,6,0,,,,,,,,,,,,,,,,,,,,,,,,,,,,,,,,,,,,,,,,,,,,,,,,,,,,,,,,,439.8758423998952,None,,,,,,,,,,,,,,,,,437.873864099849,None,,,,,,,,,,,,,,,,,,,,,,,,,,,,,,,,,,,,,,,,,,,,,,,,,,,,,,,,29YE,001,2023_Mar_29_1523,ExactRep-v3-final,2021.2.3,59.95922769391484,
,,,,7,0,7,0,,,,,,,,,,,,,,,,,,,,,,,,,,,,,,,,,,,,,,,,,,,,,,,,,,,,,,,,,442.3781846999191,None,,,,,,,,,,,,,,,,,440.3761987001635,None,,,,,,,,,,,,,,,,,,,,,,,,,,,,,,,,,,,,,,,,,,,,,,,,,,,,,,,,29YE,001,2023_Mar_29_1523,ExactRep-v3-final,2021.2.3,59.95922769391484,
,,,,8,0,8,0,,,,,,,,,,,,,,,,,,,,,,,,,,,,,,,,,,,,,,,,,,,,,,,,,,,,,,,,,444.8807318001054,None,,,,,,,,,,,,,,,,,442.87892339983955,None,,,,,,,,,,,,,,,,,,,,,,,,,,,,,,,,,,,,,,,,,,,,,,,,,,,,,,,,29YE,001,2023_Mar_29_1523,ExactRep-v3-final,2021.2.3,59.95922769391484,
,,,,9,0,9,0,,,,,,,,,,,,,,,,,,,,,,,,,,,,,,,,,,,,,,,,,,,,,,,,,,,,,,,,,447.38334510009736,None,,,,,,,,,,,,,,,,,445.3814584999345,None,,,,,,,,,,,,,,,,,,,,,,,,,,,,,,,,,,,,,,,,,,,,,,,,,,,,,,,,29YE,001,2023_Mar_29_1523,ExactRep-v3-final,2021.2.3,59.95922769391484,
,,,,10,0,10,0,,,,,,,,,,,,,,,,,,,,,,,,,,,,,,,,,,,,,,,,,,,,,,,,,,,,,,,,,449.88587949983776,None,,,,,,,,,,,,,,,,,447.88395320018753,None,,,,,,,,,,,,,,,,,,,,,,,,,,,,,,,,,,,,,,,,,,,,,,,,,,,,,,,,29YE,001,2023_Mar_29_1523,ExactRep-v3-final,2021.2.3,59.95922769391484,
,,,,11,0,11,0,,,,,,,,,,,,,,,,,,,,,,,,,,,,,,,,,,,,,,,,,,,,,,,,,,,,,,,,,452.38835579995066,None,,,,,,,,,,,,,,,,,450.3863452998921,None,,,,,,,,,,,,,,,,,,,,,,,,,,,,,,,,,,,,,,,,,,,,,,,,,,,,,,,,29YE,001,2023_Mar_29_1523,ExactRep-v3-final,2021.2.3,59.95922769391484,
,,,,12,0,12,0,,,,,,,,,,,,,,,,,,,,,,,,,,,,,,,,,,,,,,,,,,,,,,,,,,,,,,,,,454.89073379989713,None,,,,,,,,,,,,,,,,,452.88887250004336,None,,,,,,,,,,,,,,,,,,,,,,,,,,,,,,,,,,,,,,,,,,,,,,,,,,,,,,,,29YE,001,2023_Mar_29_1523,ExactRep-v3-final,2021.2.3,59.95922769391484,
,,,,13,0,13,0,,,,,,,,,,,,,,,,,,,,,,,,,,,,,,,,,,,,,,,,,,,,,,,,,,,,,,,,,457.3934312001802,None,,,,,,,,,,,,,,,,,455.39144220016897,None,,,,,,,,,,,,,,,,,,,,,,,,,,,,,,,,,,,,,,,,,,,,,,,,,,,,,,,,29YE,001,2023_Mar_29_1523,ExactRep-v3-final,2021.2.3,59.95922769391484,
,,,,14,0,14,0,,,,,,,,,,,,,,,,,,,,,,,,,,,,,,,,,,,,,,,,,,,,,,,,,,,,,,,,,459.8959260000847,None,,,,,,,,,,,,,,,,,457.89396400004625,None,,,,,,,,,,,,,,,,,,,,,,,,,,,,,,,,,,,,,,,,,,,,,,,,,,,,,,,,29YE,001,2023_Mar_29_1523,ExactRep-v3-final,2021.2.3,59.95922769391484,
,,,,,,,,,,,,,,,,,,,,,,,,,,,,,,,,,,,,,,,,,,,,,,,,,,,,,,,,,,,,,,,,,,,,,,,,,,,,,,,,,,,,space,33.666606900282204,470.4800368999131,None,,,,,,,,,,,,,,,,,,,,,,,,,,,,,,,,,,,,,,,,,,,,,,,,,,,,29YE,001,2023_Mar_29_1523,ExactRep-v3-final,2021.2.3,59.95922769391484,
,,,,,,,,0,0,0,0,,,,,,,,,,,,,,,,,,,,,,,,,,,,,,,,,,,,,,,,,,,,,,,,,,,,,506.2587080001831,None,,,,,,,,,,,,,,,,,,,,,,,460.5561628001742,None,460.5561628001742,None,460.5561628001742,None,460.5561628001742,None,460.5561628001742,None,460.5561628001742,None,honour,59,1,silent,red,504.2473536999896,None,None,504.2473536999896,None,,,,,,,,,,,,,,,,,,,,,,,,,,,,,,29YE,001,2023_Mar_29_1523,ExactRep-v3-final,2021.2.3,59.95922769391484,
,,,,,,,,1,0,1,0,,,,,,,,,,,,,,,,,,,,,,,,,,,,,,,,,,,,,,,,,,,,,,,,,,,,,508.77808670001104,None,,,,,,,,,,,,,,,,,,,,,,,,,,,,,,,,,,,ship,12,2,sing,blue,506.76253340020776,None,None,506.76253340020776,None,,,,,,,,,,,,,,,,,,,,,,,,,,,,,,29YE,001,2023_Mar_29_1523,ExactRep-v3-final,2021.2.3,59.95922769391484,
,,,,,,,,2,0,2,0,,,,,,,,,,,,,,,,,,,,,,,,,,,,,,,,,,,,,,,,,,,,,,,,,,,,,511.280595399905,None,,,,,,,,,,,,,,,,,,,,,,,,,,,,,,,,,,,safety,55,3,silent,red,509.2815129002556,None,None,509.2815129002556,None,,,,,,,,,,,,,,,,,,,,,,,,,,,,,,29YE,001,2023_Mar_29_1523,ExactRep-v3-final,2021.2.3,59.95922769391484,
,,,,,,,,3,0,3,0,,,,,,,,,,,,,,,,,,,,,,,,,,,,,,,,,,,,,,,,,,,,,,,,,,,,,513.7996133002453,None,,,,,,,,,,,,,,,,,,,,,,,,,,,,,,,,,,,slave,49,4,silent,red,511.7867418001406,None,None,511.7867418001406,None,,,,,,,,,,,,,,,,,,,,,,,,,,,,,,29YE,001,2023_Mar_29_1523,ExactRep-v3-final,2021.2.3,59.95922769391484,
,,,,,,,,4,0,4,0,,,,,,,,,,,,,,,,,,,,,,,,,,,,,,,,,,,,,,,,,,,,,,,,,,,,,516.3190393000841,None,,,,,,,,,,,,,,,,,,,,,,,,,,,,,,,,,,,ocean,16,5,sing,blue,514.3052461999469,None,None,514.3052461999469,None,,,,,,,,,,,,,,,,,,,,,,,,,,,,,,29YE,001,2023_Mar_29_1523,ExactRep-v3-final,2021.2.3,59.95922769391484,
,,,,,,,,5,0,5,0,,,,,,,,,,,,,,,,,,,,,,,,,,,,,,,,,,,,,,,,,,,,,,,,,,,,,518.8381619001739,None,,,,,,,,,,,,,,,,,,,,,,,,,,,,,,,,,,,method,43,6,silent,red,516.828118099831,None,None,516.828118099831,None,,,,,,,,,,,,,,,,,,,,,,,,,,,,,,29YE,001,2023_Mar_29_1523,ExactRep-v3-final,2021.2.3,59.95922769391484,
,,,,,,,,6,0,6,0,,,,,,,,,,,,,,,,,,,,,,,,,,,,,,,,,,,,,,,,,,,,,,,,,,,,,521.340441300068,None,,,,,,,,,,,,,,,,,,,,,,,,,,,,,,,,,,,cotton,63,7,silent,red,519.3384380000643,None,None,519.3384380000643,None,,,,,,,,,,,,,,,,,,,,,,,,,,,,,,29YE,001,2023_Mar_29_1523,ExactRep-v3-final,2021.2.3,59.95922769391484,
,,,,,,,,7,0,7,0,,,,,,,,,,,,,,,,,,,,,,,,,,,,,,,,,,,,,,,,,,,,,,,,,,,,,523.843230499886,None,,,,,,,,,,,,,,,,,,,,,,,,,,,,,,,,,,,glory,15,8,sing,blue,521.8426341000013,None,None,521.8426341000013,None,,,,,,,,,,,,,,,,,,,,,,,,,,,,,,29YE,001,2023_Mar_29_1523,ExactRep-v3-final,2021.2.3,59.95922769391484,
,,,,,,,,8,0,8,0,,,,,,,,,,,,,,,,,,,,,,,,,,,,,,,,,,,,,,,,,,,,,,,,,,,,,526.345456100069,None,,,,,,,,,,,,,,,,,,,,,,,,,,,,,,,,,,,season,94,9,aloud,white,524.3450306002051,None,None,524.3450306002051,None,,,,,,,,,,,,,,,,,,,,,,,,,,,,,,29YE,001,2023_Mar_29_1523,ExactRep-v3-final,2021.2.3,59.95922769391484,
,,,,,,,,9,0,9,0,,,,,,,,,,,,,,,,,,,,,,,,,,,,,,,,,,,,,,,,,,,,,,,,,,,,,528.848135100212,None,,,,,,,,,,,,,,,,,,,,,,,,,,,,,,,,,,,boulder,107,10,aloud,white,526.8459006999619,None,None,526.8459006999619,None,,,,,,,,,,,,,,,,,,,,,,,,,,,,,,29YE,001,2023_Mar_29_1523,ExactRep-v3-final,2021.2.3,59.95922769391484,
,,,,,,,,10,0,10,0,,,,,,,,,,,,,,,,,,,,,,,,,,,,,,,,,,,,,,,,,,,,,,,,,,,,,531.3505321000703,None,,,,,,,,,,,,,,,,,,,,,,,,,,,,,,,,,,,heaven,54,11,silent,red,529.3507373998873,None,None,529.3507373998873,None,,,,,,,,,,,,,,,,,,,,,,,,,,,,,,29YE,001,2023_Mar_29_1523,ExactRep-v3-final,2021.2.3,59.95922769391484,
,,,,,,,,11,0,11,0,,,,,,,,,,,,,,,,,,,,,,,,,,,,,,,,,,,,,,,,,,,,,,,,,,,,,533.8531762999482,None,,,,,,,,,,,,,,,,,,,,,,,,,,,,,,,,,,,flesh,2,12,sing,blue,531.8536092001013,None,None,531.8536092001013,None,,,,,,,,,,,,,,,,,,,,,,,,,,,,,,29YE,001,2023_Mar_29_1523,ExactRep-v3-final,2021.2.3,59.95922769391484,
,,,,,,,,12,0,12,0,,,,,,,,,,,,,,,,,,,,,,,,,,,,,,,,,,,,,,,,,,,,,,,,,,,,,536.3555888999254,None,,,,,,,,,,,,,,,,,,,,,,,,,,,,,,,,,,,present,104,13,aloud,white,534.3567988998257,None,None,534.3567988998257,None,,,,,,,,,,,,,,,,,,,,,,,,,,,,,,29YE,001,2023_Mar_29_1523,ExactRep-v3-final,2021.2.3,59.95922769391484,
,,,,,,,,13,0,13,0,,,,,,,,,,,,,,,,,,,,,,,,,,,,,,,,,,,,,,,,,,,,,,,,,,,,,538.87470080005,None,,,,,,,,,,,,,,,,,,,,,,,,,,,,,,,,,,,answer,99,14,aloud,white,536.8594081001356,None,None,536.8594081001356,None,,,,,,,,,,,,,,,,,,,,,,,,,,,,,,29YE,001,2023_Mar_29_1523,ExactRep-v3-final,2021.2.3,59.95922769391484,
,,,,,,,,14,0,14,0,,,,,,,,,,,,,,,,,,,,,,,,,,,,,,,,,,,,,,,,,,,,,,,,,,,,,541.3938286001794,None,,,,,,,,,,,,,,,,,,,,,,,,,,,,,,,,,,,hide,96,15,aloud,white,539.384835400153,None,None,539.384835400153,None,,,,,,,,,,,,,,,,,,,,,,,,,,,,,,29YE,001,2023_Mar_29_1523,ExactRep-v3-final,2021.2.3,59.95922769391484,
,,,,,,,,15,0,15,0,,,,,,,,,,,,,,,,,,,,,,,,,,,,,,,,,,,,,,,,,,,,,,,,,,,,,543.8963466002606,None,,,,,,,,,,,,,,,,,,,,,,,,,,,,,,,,,,,ability,114,16,aloud,white,541.8948091999628,None,None,541.8948091999628,None,,,,,,,,,,,,,,,,,,,,,,,,,,,,,,29YE,001,2023_Mar_29_1523,ExactRep-v3-final,2021.2.3,59.95922769391484,
,,,,,,,,16,0,16,0,,,,,,,,,,,,,,,,,,,,,,,,,,,,,,,,,,,,,,,,,,,,,,,,,,,,,546.400075700134,None,,,,,,,,,,,,,,,,,,,,,,,,,,,,,,,,,,,world,19,17,sing,blue,544.3985918001272,None,None,544.3985918001272,None,,,,,,,,,,,,,,,,,,,,,,,,,,,,,,29YE,001,2023_Mar_29_1523,ExactRep-v3-final,2021.2.3,59.95922769391484,
,,,,,,,,17,0,17,0,,,,,,,,,,,,,,,,,,,,,,,,,,,,,,,,,,,,,,,,,,,,,,,,,,,,,548.9015131001361,None,,,,,,,,,,,,,,,,,,,,,,,,,,,,,,,,,,,nail,106,18,aloud,white,546.9016754999757,None,None,546.9016754999757,None,,,,,,,,,,,,,,,,,,,,,,,,,,,,,,29YE,001,2023_Mar_29_1523,ExactRep-v3-final,2021.2.3,59.95922769391484,
,,,,,,,,18,0,18,0,,,,,,,,,,,,,,,,,,,,,,,,,,,,,,,,,,,,,,,,,,,,,,,,,,,,,551.4041337999515,None,,,,,,,,,,,,,,,,,,,,,,,,,,,,,,,,,,,camp,86,19,aloud,white,549.4021363998763,None,None,549.4021363998763,None,,,,,,,,,,,,,,,,,,,,,,,,,,,,,,29YE,001,2023_Mar_29_1523,ExactRep-v3-final,2021.2.3,59.95922769391484,
,,,,,,,,19,0,19,0,,,,,,,,,,,,,,,,,,,,,,,,,,,,,,,,,,,,,,,,,,,,,,,,,,,,,553.9233043999411,None,,,,,,,,,,,,,,,,,,,,,,,,,,,,,,,,,,,pride,58,20,silent,red,551.9079292002134,None,None,551.9079292002134,None,,,,,,,,,,,,,,,,,,,,,,,,,,,,,,29YE,001,2023_Mar_29_1523,ExactRep-v3-final,2021.2.3,59.95922769391484,
,,,,,,,,20,0,20,0,,,,,,,,,,,,,,,,,,,,,,,,,,,,,,,,,,,,,,,,,,,,,,,,,,,,,556.4255925999023,None,,,,,,,,,,,,,,,,,,,,,,,,,,,,,,,,,,,steam,0,21,sing,blue,554.4258985002525,None,None,554.4258985002525,None,,,,,,,,,,,,,,,,,,,,,,,,,,,,,,29YE,001,2023_Mar_29_1523,ExactRep-v3-final,2021.2.3,59.95922769391484,
,,,,,,,,21,0,21,0,,,,,,,,,,,,,,,,,,,,,,,,,,,,,,,,,,,,,,,,,,,,,,,,,,,,,558.9449334000237,None,,,,,,,,,,,,,,,,,,,,,,,,,,,,,,,,,,,pupil,87,22,aloud,white,556.9318770999089,None,None,556.9318770999089,None,,,,,,,,,,,,,,,,,,,,,,,,,,,,,,29YE,001,2023_Mar_29_1523,ExactRep-v3-final,2021.2.3,59.95922769391484,
,,,,,,,,22,0,22,0,,,,,,,,,,,,,,,,,,,,,,,,,,,,,,,,,,,,,,,,,,,,,,,,,,,,,561.447503299918,None,,,,,,,,,,,,,,,,,,,,,,,,,,,,,,,,,,,health,44,23,silent,red,559.4452642002143,None,None,559.4452642002143,None,,,,,,,,,,,,,,,,,,,,,,,,,,,,,,29YE,001,2023_Mar_29_1523,ExactRep-v3-final,2021.2.3,59.95922769391484,
,,,,,,,,23,0,23,0,,,,,,,,,,,,,,,,,,,,,,,,,,,,,,,,,,,,,,,,,,,,,,,,,,,,,563.9664501999505,None,,,,,,,,,,,,,,,,,,,,,,,,,,,,,,,,,,,cattle,81,24,aloud,white,561.954841800034,None,None,561.954841800034,None,,,,,,,,,,,,,,,,,,,,,,,,,,,,,,29YE,001,2023_Mar_29_1523,ExactRep-v3-final,2021.2.3,59.95922769391484,
,,,,,,,,24,0,24,0,,,,,,,,,,,,,,,,,,,,,,,,,,,,,,,,,,,,,,,,,,,,,,,,,,,,,566.4691878999583,None,,,,,,,,,,,,,,,,,,,,,,,,,,,,,,,,,,,arm,39,25,silent,red,564.4669830999337,None,None,564.4669830999337,None,,,,,,,,,,,,,,,,,,,,,,,,,,,,,,29YE,001,2023_Mar_29_1523,ExactRep-v3-final,2021.2.3,59.95922769391484,
,,,,,,,,25,0,25,0,,,,,,,,,,,,,,,,,,,,,,,,,,,,,,,,,,,,,,,,,,,,,,,,,,,,,568.988340599928,None,,,,,,,,,,,,,,,,,,,,,,,,,,,,,,,,,,,dress,92,26,aloud,white,566.9741230001673,None,None,566.9741230001673,None,,,,,,,,,,,,,,,,,,,,,,,,,,,,,,29YE,001,2023_Mar_29_1523,ExactRep-v3-final,2021.2.3,59.95922769391484,
,,,,,,,,26,0,26,0,,,,,,,,,,,,,,,,,,,,,,,,,,,,,,,,,,,,,,,,,,,,,,,,,,,,,571.4909272999503,None,,,,,,,,,,,,,,,,,,,,,,,,,,,,,,,,,,,board,9,27,sing,blue,569.4912319001742,None,None,569.4912319001742,None,,,,,,,,,,,,,,,,,,,,,,,,,,,,,,29YE,001,2023_Mar_29_1523,ExactRep-v3-final,2021.2.3,59.95922769391484,
,,,,,,,,27,0,27,0,,,,,,,,,,,,,,,,,,,,,,,,,,,,,,,,,,,,,,,,,,,,,,,,,,,,,574.0099594001658,None,,,,,,,,,,,,,,,,,,,,,,,,,,,,,,,,,,,judge,83,28,aloud,white,571.9955561999232,None,None,571.9955561999232,None,,,,,,,,,,,,,,,,,,,,,,,,,,,,,,29YE,001,2023_Mar_29_1523,ExactRep-v3-final,2021.2.3,59.95922769391484,
,,,,,,,,28,0,28,0,,,,,,,,,,,,,,,,,,,,,,,,,,,,,,,,,,,,,,,,,,,,,,,,,,,,,576.5289948000573,None,,,,,,,,,,,,,,,,,,,,,,,,,,,,,,,,,,,letter,111,29,aloud,white,574.5215304000303,None,None,574.5215304000303,None,,,,,,,,,,,,,,,,,,,,,,,,,,,,,,29YE,001,2023_Mar_29_1523,ExactRep-v3-final,2021.2.3,59.95922769391484,
,,,,,,,,29,0,29,0,,,,,,,,,,,,,,,,,,,,,,,,,,,,,,,,,,,,,,,,,,,,,,,,,,,,,579.0316777001135,None,,,,,,,,,,,,,,,,,,,,,,,,,,,,,,,,,,,factory,78,30,silent,red,577.0304935998283,None,None,577.0304935998283,None,,,,,,,,,,,,,,,,,,,,,,,,,,,,,,29YE,001,2023_Mar_29_1523,ExactRep-v3-final,2021.2.3,59.95922769391484,
,,,,,,,,30,0,30,0,,,,,,,,,,,,,,,,,,,,,,,,,,,,,,,,,,,,,,,,,,,,,,,,,,,,,581.534150400199,None,,,,,,,,,,,,,,,,,,,,,,,,,,,,,,,,,,,grass,42,31,silent,red,579.5334926000796,None,None,579.5334926000796,None,,,,,,,,,,,,,,,,,,,,,,,,,,,,,,29YE,001,2023_Mar_29_1523,ExactRep-v3-final,2021.2.3,59.95922769391484,
,,,,,,,,31,0,31,0,,,,,,,,,,,,,,,,,,,,,,,,,,,,,,,,,,,,,,,,,,,,,,,,,,,,,584.0366821000353,None,,,,,,,,,,,,,,,,,,,,,,,,,,,,,,,,,,,circle,13,32,sing,blue,582.0348920999095,None,None,582.0348920999095,None,,,,,,,,,,,,,,,,,,,,,,,,,,,,,,29YE,001,2023_Mar_29_1523,ExactRep-v3-final,2021.2.3,59.95922769391484,
,,,,,,,,32,0,32,0,,,,,,,,,,,,,,,,,,,,,,,,,,,,,,,,,,,,,,,,,,,,,,,,,,,,,586.5558993001468,None,,,,,,,,,,,,,,,,,,,,,,,,,,,,,,,,,,,idea,76,33,silent,red,584.5472189998254,None,None,584.5472189998254,None,,,,,,,,,,,,,,,,,,,,,,,,,,,,,,29YE,001,2023_Mar_29_1523,ExactRep-v3-final,2021.2.3,59.95922769391484,
,,,,,,,,33,0,33,0,,,,,,,,,,,,,,,,,,,,,,,,,,,,,,,,,,,,,,,,,,,,,,,,,,,,,589.0583641002886,None,,,,,,,,,,,,,,,,,,,,,,,,,,,,,,,,,,,grief,53,34,silent,red,587.0573042002507,None,None,587.0573042002507,None,,,,,,,,,,,,,,,,,,,,,,,,,,,,,,29YE,001,2023_Mar_29_1523,ExactRep-v3-final,2021.2.3,59.95922769391484,
,,,,,,,,34,0,34,0,,,,,,,,,,,,,,,,,,,,,,,,,,,,,,,,,,,,,,,,,,,,,,,,,,,,,591.5608653998934,None,,,,,,,,,,,,,,,,,,,,,,,,,,,,,,,,,,,string,73,35,silent,red,589.5617327000946,None,None,589.5617327000946,None,,,,,,,,,,,,,,,,,,,,,,,,,,,,,,29YE,001,2023_Mar_29_1523,ExactRep-v3-final,2021.2.3,59.95922769391484,
,,,,,,,,35,0,35,0,,,,,,,,,,,,,,,,,,,,,,,,,,,,,,,,,,,,,,,,,,,,,,,,,,,,,594.0633776001632,None,,,,,,,,,,,,,,,,,,,,,,,,,,,,,,,,,,,fun,97,36,aloud,white,592.0641676001251,None,None,592.0641676001251,None,,,,,,,,,,,,,,,,,,,,,,,,,,,,,,29YE,001,2023_Mar_29_1523,ExactRep-v3-final,2021.2.3,59.95922769391484,
,,,,,,,,36,0,36,0,,,,,,,,,,,,,,,,,,,,,,,,,,,,,,,,,,,,,,,,,,,,,,,,,,,,,596.5658637001179,None,,,,,,,,,,,,,,,,,,,,,,,,,,,,,,,,,,,fortune,98,37,aloud,white,594.5667417999357,None,None,594.5667417999357,None,,,,,,,,,,,,,,,,,,,,,,,,,,,,,,29YE,001,2023_Mar_29_1523,ExactRep-v3-final,2021.2.3,59.95922769391484,
,,,,,,,,37,0,37,0,,,,,,,,,,,,,,,,,,,,,,,,,,,,,,,,,,,,,,,,,,,,,,,,,,,,,599.0683858999982,None,,,,,,,,,,,,,,,,,,,,,,,,,,,,,,,,,,,chief,57,38,silent,red,597.069262099918,None,None,597.069262099918,None,,,,,,,,,,,,,,,,,,,,,,,,,,,,,,29YE,001,2023_Mar_29_1523,ExactRep-v3-final,2021.2.3,59.95922769391484,
,,,,,,,,38,0,38,0,,,,,,,,,,,,,,,,,,,,,,,,,,,,,,,,,,,,,,,,,,,,,,,,,,,,,601.5708691002801,None,,,,,,,,,,,,,,,,,,,,,,,,,,,,,,,,,,,temple,10,39,sing,blue,599.5717394002713,None,None,599.5717394002713,None,,,,,,,,,,,,,,,,,,,,,,,,,,,,,,29YE,001,2023_Mar_29_1523,ExactRep-v3-final,2021.2.3,59.95922769391484,
,,,,,,,,39,0,39,0,,,,,,,,,,,,,,,,,,,,,,,,,,,,,,,,,,,,,,,,,,,,,,,,,,,,,604.0733858998865,None,,,,,,,,,,,,,,,,,,,,,,,,,,,,,,,,,,,form,25,40,sing,blue,602.0733853001148,None,None,602.0733853001148,None,,,,,,,,,,,,,,,,,,,,,,,,,,,,,,29YE,001,2023_Mar_29_1523,ExactRep-v3-final,2021.2.3,59.95922769391484,
,,,,,,,,40,0,40,0,,,,,,,,,,,,,,,,,,,,,,,,,,,,,,,,,,,,,,,,,,,,,,,,,,,,,606.5927375000902,None,,,,,,,,,,,,,,,,,,,,,,,,,,,,,,,,,,,student,88,41,aloud,white,604.5815297998488,None,None,604.5815297998488,None,,,,,,,,,,,,,,,,,,,,,,,,,,,,,,29YE,001,2023_Mar_29_1523,ExactRep-v3-final,2021.2.3,59.95922769391484,
,,,,,,,,41,0,41,0,,,,,,,,,,,,,,,,,,,,,,,,,,,,,,,,,,,,,,,,,,,,,,,,,,,,,609.1117736999877,None,,,,,,,,,,,,,,,,,,,,,,,,,,,,,,,,,,,shadow,60,42,silent,red,607.0966960000806,None,None,607.0966960000806,None,,,,,,,,,,,,,,,,,,,,,,,,,,,,,,29YE,001,2023_Mar_29_1523,ExactRep-v3-final,2021.2.3,59.95922769391484,
,,,,,,,,42,0,42,0,,,,,,,,,,,,,,,,,,,,,,,,,,,,,,,,,,,,,,,,,,,,,,,,,,,,,611.6143165002577,None,,,,,,,,,,,,,,,,,,,,,,,,,,,,,,,,,,,law,24,43,sing,blue,609.6124694002792,None,None,609.6124694002792,None,,,,,,,,,,,,,,,,,,,,,,,,,,,,,,29YE,001,2023_Mar_29_1523,ExactRep-v3-final,2021.2.3,59.95922769391484,
,,,,,,,,43,0,43,0,,,,,,,,,,,,,,,,,,,,,,,,,,,,,,,,,,,,,,,,,,,,,,,,,,,,,614.1334354002029,None,,,,,,,,,,,,,,,,,,,,,,,,,,,,,,,,,,,table,8,44,sing,blue,612.1183604998514,None,None,612.1183604998514,None,,,,,,,,,,,,,,,,,,,,,,,,,,,,,,29YE,001,2023_Mar_29_1523,ExactRep-v3-final,2021.2.3,59.95922769391484,
,,,,,,,,44,0,44,0,,,,,,,,,,,,,,,,,,,,,,,,,,,,,,,,,,,,,,,,,,,,,,,,,,,,,616.6526756002568,None,,,,,,,,,,,,,,,,,,,,,,,,,,,,,,,,,,,life,93,45,aloud,white,614.6395914000459,None,None,614.6395914000459,None,,,,,,,,,,,,,,,,,,,,,,,,,,,,,,29YE,001,2023_Mar_29_1523,ExactRep-v3-final,2021.2.3,59.95922769391484,
,,,,,,,,45,0,45,0,,,,,,,,,,,,,,,,,,,,,,,,,,,,,,,,,,,,,,,,,,,,,,,,,,,,,619.1552669000812,None,,,,,,,,,,,,,,,,,,,,,,,,,,,,,,,,,,,journal,56,46,silent,red,617.1531601999886,None,None,617.1531601999886,None,,,,,,,,,,,,,,,,,,,,,,,,,,,,,,29YE,001,2023_Mar_29_1523,ExactRep-v3-final,2021.2.3,59.95922769391484,
,,,,,,,,46,0,46,0,,,,,,,,,,,,,,,,,,,,,,,,,,,,,,,,,,,,,,,,,,,,,,,,,,,,,621.6577106998302,None,,,,,,,,,,,,,,,,,,,,,,,,,,,,,,,,,,,cabin,35,47,sing,blue,619.6571598001756,None,None,619.6571598001756,None,,,,,,,,,,,,,,,,,,,,,,,,,,,,,,29YE,001,2023_Mar_29_1523,ExactRep-v3-final,2021.2.3,59.95922769391484,
,,,,,,,,47,0,47,0,,,,,,,,,,,,,,,,,,,,,,,,,,,,,,,,,,,,,,,,,,,,,,,,,,,,,624.1600127001293,None,,,,,,,,,,,,,,,,,,,,,,,,,,,,,,,,,,,butter,32,48,sing,blue,622.1600755001418,None,None,622.1600755001418,None,,,,,,,,,,,,,,,,,,,,,,,,,,,,,,29YE,001,2023_Mar_29_1523,ExactRep-v3-final,2021.2.3,59.95922769391484,
,,,,,,,,48,0,48,0,,,,,,,,,,,,,,,,,,,,,,,,,,,,,,,,,,,,,,,,,,,,,,,,,,,,,626.6624765000306,None,,,,,,,,,,,,,,,,,,,,,,,,,,,,,,,,,,,gold,67,49,silent,red,624.6604726999067,None,None,624.6604726999067,None,,,,,,,,,,,,,,,,,,,,,,,,,,,,,,29YE,001,2023_Mar_29_1523,ExactRep-v3-final,2021.2.3,59.95922769391484,
,,,,,,,,49,0,49,0,,,,,,,,,,,,,,,,,,,,,,,,,,,,,,,,,,,,,,,,,,,,,,,,,,,,,629.1651586000808,None,,,,,,,,,,,,,,,,,,,,,,,,,,,,,,,,,,,mother,101,50,aloud,white,627.1630086000077,None,None,627.1630086000077,None,,,,,,,,,,,,,,,,,,,,,,,,,,,,,,29YE,001,2023_Mar_29_1523,ExactRep-v3-final,2021.2.3,59.95922769391484,
,,,,,,,,50,0,50,0,,,,,,,,,,,,,,,,,,,,,,,,,,,,,,,,,,,,,,,,,,,,,,,,,,,,,631.6843512002379,None,,,,,,,,,,,,,,,,,,,,,,,,,,,,,,,,,,,dawn,7,51,sing,blue,629.6737315002829,None,None,629.6737315002829,None,,,,,,,,,,,,,,,,,,,,,,,,,,,,,,29YE,001,2023_Mar_29_1523,ExactRep-v3-final,2021.2.3,59.95922769391484,
,,,,,,,,51,0,51,0,,,,,,,,,,,,,,,,,,,,,,,,,,,,,,,,,,,,,,,,,,,,,,,,,,,,,634.1868258002214,None,,,,,,,,,,,,,,,,,,,,,,,,,,,,,,,,,,,paper,34,52,sing,blue,632.1869525001384,None,None,632.1869525001384,None,,,,,,,,,,,,,,,,,,,,,,,,,,,,,,29YE,001,2023_Mar_29_1523,ExactRep-v3-final,2021.2.3,59.95922769391484,
,,,,,,,,52,0,52,0,,,,,,,,,,,,,,,,,,,,,,,,,,,,,,,,,,,,,,,,,,,,,,,,,,,,,636.6893215999007,None,,,,,,,,,,,,,,,,,,,,,,,,,,,,,,,,,,,amount,109,53,aloud,white,634.689180499874,None,None,634.689180499874,None,,,,,,,,,,,,,,,,,,,,,,,,,,,,,,29YE,001,2023_Mar_29_1523,ExactRep-v3-final,2021.2.3,59.95922769391484,
,,,,,,,,53,0,53,0,,,,,,,,,,,,,,,,,,,,,,,,,,,,,,,,,,,,,,,,,,,,,,,,,,,,,639.2085118000396,None,,,,,,,,,,,,,,,,,,,,,,,,,,,,,,,,,,,engine,65,54,silent,red,637.1929993000813,None,None,637.1929993000813,None,,,,,,,,,,,,,,,,,,,,,,,,,,,,,,29YE,001,2023_Mar_29_1523,ExactRep-v3-final,2021.2.3,59.95922769391484,
,,,,,,,,54,0,54,0,,,,,,,,,,,,,,,,,,,,,,,,,,,,,,,,,,,,,,,,,,,,,,,,,,,,,641.7140792999417,None,,,,,,,,,,,,,,,,,,,,,,,,,,,,,,,,,,,style,64,55,silent,red,639.7098500998691,None,None,639.7098500998691,None,,,,,,,,,,,,,,,,,,,,,,,,,,,,,,29YE,001,2023_Mar_29_1523,ExactRep-v3-final,2021.2.3,59.95922769391484,
,,,,,,,,55,0,55,0,,,,,,,,,,,,,,,,,,,,,,,,,,,,,,,,,,,,,,,,,,,,,,,,,,,,,644.246905699838,None,,,,,,,,,,,,,,,,,,,,,,,,,,,,,,,,,,,potato,89,56,aloud,white,642.2375483000651,None,None,642.2375483000651,None,,,,,,,,,,,,,,,,,,,,,,,,,,,,,,29YE,001,2023_Mar_29_1523,ExactRep-v3-final,2021.2.3,59.95922769391484,
,,,,,,,,56,0,56,0,,,,,,,,,,,,,,,,,,,,,,,,,,,,,,,,,,,,,,,,,,,,,,,,,,,,,646.7661013999023,None,,,,,,,,,,,,,,,,,,,,,,,,,,,,,,,,,,,garden,21,57,sing,blue,644.7537364000455,None,None,644.7537364000455,None,,,,,,,,,,,,,,,,,,,,,,,,,,,,,,29YE,001,2023_Mar_29_1523,ExactRep-v3-final,2021.2.3,59.95922769391484,
,,,,,,,,57,0,57,0,,,,,,,,,,,,,,,,,,,,,,,,,,,,,,,,,,,,,,,,,,,,,,,,,,,,,649.2686369000003,None,,,,,,,,,,,,,,,,,,,,,,,,,,,,,,,,,,,mercy,29,58,sing,blue,647.2685619001277,None,None,647.2685619001277,None,,,,,,,,,,,,,,,,,,,,,,,,,,,,,,29YE,001,2023_Mar_29_1523,ExactRep-v3-final,2021.2.3,59.95922769391484,
,,,,,,,,58,0,58,0,,,,,,,,,,,,,,,,,,,,,,,,,,,,,,,,,,,,,,,,,,,,,,,,,,,,,651.7877723001875,None,,,,,,,,,,,,,,,,,,,,,,,,,,,,,,,,,,,justice,72,59,silent,red,649.7759965001605,None,None,649.7759965001605,None,,,,,,,,,,,,,,,,,,,,,,,,,,,,,,29YE,001,2023_Mar_29_1523,ExactRep-v3-final,2021.2.3,59.95922769391484,
,,,,,,,,59,0,59,0,,,,,,,,,,,,,,,,,,,,,,,,,,,,,,,,,,,,,,,,,,,,,,,,,,,,,654.2900975998491,None,,,,,,,,,,,,,,,,,,,,,,,,,,,,,,,,,,,plant,95,60,aloud,white,652.2881297999993,None,None,652.2881297999993,None,,,,,,,,,,,,,,,,,,,,,,,,,,,,,,29YE,001,2023_Mar_29_1523,ExactRep-v3-final,2021.2.3,59.95922769391484,
,,,,,,,,60,0,60,0,,,,,,,,,,,,,,,,,,,,,,,,,,,,,,,,,,,,,,,,,,,,,,,,,,,,,656.792775799986,None,,,,,,,,,,,,,,,,,,,,,,,,,,,,,,,,,,,iron,103,61,aloud,white,654.7908235001378,None,None,654.7908235001378,None,,,,,,,,,,,,,,,,,,,,,,,,,,,,,,29YE,001,2023_Mar_29_1523,ExactRep-v3-final,2021.2.3,59.95922769391484,
,,,,,,,,61,0,61,0,,,,,,,,,,,,,,,,,,,,,,,,,,,,,,,,,,,,,,,,,,,,,,,,,,,,,659.2952894000337,None,,,,,,,,,,,,,,,,,,,,,,,,,,,,,,,,,,,truth,112,62,aloud,white,657.2935039000586,None,None,657.2935039000586,None,,,,,,,,,,,,,,,,,,,,,,,,,,,,,,29YE,001,2023_Mar_29_1523,ExactRep-v3-final,2021.2.3,59.95922769391484,
,,,,,,,,62,0,62,0,,,,,,,,,,,,,,,,,,,,,,,,,,,,,,,,,,,,,,,,,,,,,,,,,,,,,661.7977761002257,None,,,,,,,,,,,,,,,,,,,,,,,,,,,,,,,,,,,star,28,63,sing,blue,659.7976895002648,None,None,659.7976895002648,None,,,,,,,,,,,,,,,,,,,,,,,,,,,,,,29YE,001,2023_Mar_29_1523,ExactRep-v3-final,2021.2.3,59.95922769391484,
,,,,,,,,63,0,63,0,,,,,,,,,,,,,,,,,,,,,,,,,,,,,,,,,,,,,,,,,,,,,,,,,,,,,664.3170051001944,None,,,,,,,,,,,,,,,,,,,,,,,,,,,,,,,,,,,sky,1,64,sing,blue,662.3065088000149,None,None,662.3065088000149,None,,,,,,,,,,,,,,,,,,,,,,,,,,,,,,29YE,001,2023_Mar_29_1523,ExactRep-v3-final,2021.2.3,59.95922769391484,
,,,,,,,,64,0,64,0,,,,,,,,,,,,,,,,,,,,,,,,,,,,,,,,,,,,,,,,,,,,,,,,,,,,,666.8195163002238,None,,,,,,,,,,,,,,,,,,,,,,,,,,,,,,,,,,,river,68,65,silent,red,664.8186070001684,None,None,664.8186070001684,None,,,,,,,,,,,,,,,,,,,,,,,,,,,,,,29YE,001,2023_Mar_29_1523,ExactRep-v3-final,2021.2.3,59.95922769391484,
,,,,,,,,65,0,65,0,,,,,,,,,,,,,,,,,,,,,,,,,,,,,,,,,,,,,,,,,,,,,,,,,,,,,669.3386885998771,None,,,,,,,,,,,,,,,,,,,,,,,,,,,,,,,,,,,queen,75,66,silent,red,667.3317308998667,None,None,667.3317308998667,None,,,,,,,,,,,,,,,,,,,,,,,,,,,,,,29YE,001,2023_Mar_29_1523,ExactRep-v3-final,2021.2.3,59.95922769391484,
,,,,,,,,66,0,66,0,,,,,,,,,,,,,,,,,,,,,,,,,,,,,,,,,,,,,,,,,,,,,,,,,,,,,671.8410801999271,None,,,,,,,,,,,,,,,,,,,,,,,,,,,,,,,,,,,opinion,5,67,sing,blue,669.8416372998618,None,None,669.8416372998618,None,,,,,,,,,,,,,,,,,,,,,,,,,,,,,,29YE,001,2023_Mar_29_1523,ExactRep-v3-final,2021.2.3,59.95922769391484,
,,,,,,,,67,0,67,0,,,,,,,,,,,,,,,,,,,,,,,,,,,,,,,,,,,,,,,,,,,,,,,,,,,,,674.3436952000484,None,,,,,,,,,,,,,,,,,,,,,,,,,,,,,,,,,,,corner,91,68,aloud,white,672.3427797998302,None,None,672.3427797998302,None,,,,,,,,,,,,,,,,,,,,,,,,,,,,,,29YE,001,2023_Mar_29_1523,ExactRep-v3-final,2021.2.3,59.95922769391484,
,,,,,,,,68,0,68,0,,,,,,,,,,,,,,,,,,,,,,,,,,,,,,,,,,,,,,,,,,,,,,,,,,,,,676.8461891999468,None,,,,,,,,,,,,,,,,,,,,,,,,,,,,,,,,,,,chair,40,69,silent,red,674.8440370000899,None,None,674.8440370000899,None,,,,,,,,,,,,,,,,,,,,,,,,,,,,,,29YE,001,2023_Mar_29_1523,ExactRep-v3-final,2021.2.3,59.95922769391484,
,,,,,,,,69,0,69,0,,,,,,,,,,,,,,,,,,,,,,,,,,,,,,,,,,,,,,,,,,,,,,,,,,,,,679.365344400052,None,,,,,,,,,,,,,,,,,,,,,,,,,,,,,,,,,,,body,20,70,sing,blue,677.350868199952,None,None,677.350868199952,None,,,,,,,,,,,,,,,,,,,,,,,,,,,,,,29YE,001,2023_Mar_29_1523,ExactRep-v3-final,2021.2.3,59.95922769391484,
,,,,,,,,70,0,70,0,,,,,,,,,,,,,,,,,,,,,,,,,,,,,,,,,,,,,,,,,,,,,,,,,,,,,681.8678203001618,None,,,,,,,,,,,,,,,,,,,,,,,,,,,,,,,,,,,flag,17,71,sing,blue,679.8658115998842,None,None,679.8658115998842,None,,,,,,,,,,,,,,,,,,,,,,,,,,,,,,29YE,001,2023_Mar_29_1523,ExactRep-v3-final,2021.2.3,59.95922769391484,
,,,,,,,,71,0,71,0,,,,,,,,,,,,,,,,,,,,,,,,,,,,,,,,,,,,,,,,,,,,,,,,,,,,,684.3703451999463,None,,,,,,,,,,,,,,,,,,,,,,,,,,,,,,,,,,,love,108,72,aloud,white,682.3690327000804,None,None,682.3690327000804,None,,,,,,,,,,,,,,,,,,,,,,,,,,,,,,29YE,001,2023_Mar_29_1523,ExactRep-v3-final,2021.2.3,59.95922769391484,
,,,,,,,,72,0,72,0,,,,,,,,,,,,,,,,,,,,,,,,,,,,,,,,,,,,,,,,,,,,,,,,,,,,,686.872694300022,None,,,,,,,,,,,,,,,,,,,,,,,,,,,,,,,,,,,hope,38,73,sing,blue,684.87068560021,None,None,684.87068560021,None,,,,,,,,,,,,,,,,,,,,,,,,,,,,,,29YE,001,2023_Mar_29_1523,ExactRep-v3-final,2021.2.3,59.95922769391484,
,,,,,,,,73,0,73,0,,,,,,,,,,,,,,,,,,,,,,,,,,,,,,,,,,,,,,,,,,,,,,,,,,,,,689.3754068999551,None,,,,,,,,,,,,,,,,,,,,,,,,,,,,,,,,,,,theory,84,74,aloud,white,687.3733395999297,None,None,687.3733395999297,None,,,,,,,,,,,,,,,,,,,,,,,,,,,,,,29YE,001,2023_Mar_29_1523,ExactRep-v3-final,2021.2.3,59.95922769391484,
,,,,,,,,74,0,74,0,,,,,,,,,,,,,,,,,,,,,,,,,,,,,,,,,,,,,,,,,,,,,,,,,,,,,691.8778611999005,None,,,,,,,,,,,,,,,,,,,,,,,,,,,,,,,,,,,moral,6,75,sing,blue,689.8757155002095,None,None,689.8757155002095,None,,,,,,,,,,,,,,,,,,,,,,,,,,,,,,29YE,001,2023_Mar_29_1523,ExactRep-v3-final,2021.2.3,59.95922769391484,
,,,,,,,,75,0,75,0,,,,,,,,,,,,,,,,,,,,,,,,,,,,,,,,,,,,,,,,,,,,,,,,,,,,,694.3970273998566,None,,,,,,,,,,,,,,,,,,,,,,,,,,,,,,,,,,,money,105,76,aloud,white,692.381628899835,None,None,692.381628899835,None,,,,,,,,,,,,,,,,,,,,,,,,,,,,,,29YE,001,2023_Mar_29_1523,ExactRep-v3-final,2021.2.3,59.95922769391484,
,,,,,,,,76,0,76,0,,,,,,,,,,,,,,,,,,,,,,,,,,,,,,,,,,,,,,,,,,,,,,,,,,,,,696.9160620002076,None,,,,,,,,,,,,,,,,,,,,,,,,,,,,,,,,,,,square,118,77,aloud,white,694.9070394001901,None,None,694.9070394001901,None,,,,,,,,,,,,,,,,,,,,,,,,,,,,,,29YE,001,2023_Mar_29_1523,ExactRep-v3-final,2021.2.3,59.95922769391484,
,,,,,,,,77,0,77,0,,,,,,,,,,,,,,,,,,,,,,,,,,,,,,,,,,,,,,,,,,,,,,,,,,,,,699.4352347999811,None,,,,,,,,,,,,,,,,,,,,,,,,,,,,,,,,,,,tool,37,78,sing,blue,697.4253425002098,None,None,697.4253425002098,None,,,,,,,,,,,,,,,,,,,,,,,,,,,,,,29YE,001,2023_Mar_29_1523,ExactRep-v3-final,2021.2.3,59.95922769391484,
,,,,,,,,78,0,78,0,,,,,,,,,,,,,,,,,,,,,,,,,,,,,,,,,,,,,,,,,,,,,,,,,,,,,701.9378165001981,None,,,,,,,,,,,,,,,,,,,,,,,,,,,,,,,,,,,wheat,14,79,sing,blue,699.9357497999445,None,None,699.9357497999445,None,,,,,,,,,,,,,,,,,,,,,,,,,,,,,,29YE,001,2023_Mar_29_1523,ExactRep-v3-final,2021.2.3,59.95922769391484,
,,,,,,,,79,0,79,0,,,,,,,,,,,,,,,,,,,,,,,,,,,,,,,,,,,,,,,,,,,,,,,,,,,,,704.4402838000096,None,,,,,,,,,,,,,,,,,,,,,,,,,,,,,,,,,,,pipe,61,80,silent,red,702.4404533999041,None,None,702.4404533999041,None,,,,,,,,,,,,,,,,,,,,,,,,,,,,,,29YE,001,2023_Mar_29_1523,ExactRep-v3-final,2021.2.3,59.95922769391484,
,,,,,,,,80,0,80,0,,,,,,,,,,,,,,,,,,,,,,,,,,,,,,,,,,,,,,,,,,,,,,,,,,,,,706.942988499999,None,,,,,,,,,,,,,,,,,,,,,,,,,,,,,,,,,,,bird,70,81,silent,red,704.9424205999821,None,None,704.9424205999821,None,,,,,,,,,,,,,,,,,,,,,,,,,,,,,,29YE,001,2023_Mar_29_1523,ExactRep-v3-final,2021.2.3,59.95922769391484,
,,,,,,,,81,0,81,0,,,,,,,,,,,,,,,,,,,,,,,,,,,,,,,,,,,,,,,,,,,,,,,,,,,,,709.4632641002536,None,,,,,,,,,,,,,,,,,,,,,,,,,,,,,,,,,,,prison,80,82,aloud,white,707.4500414999202,None,None,707.4500414999202,None,,,,,,,,,,,,,,,,,,,,,,,,,,,,,,29YE,001,2023_Mar_29_1523,ExactRep-v3-final,2021.2.3,59.95922769391484,
,,,,,,,,82,0,82,0,,,,,,,,,,,,,,,,,,,,,,,,,,,,,,,,,,,,,,,,,,,,,,,,,,,,,711.9647488002665,None,,,,,,,,,,,,,,,,,,,,,,,,,,,,,,,,,,,dust,62,83,silent,red,709.9626231002621,None,None,709.9626231002621,None,,,,,,,,,,,,,,,,,,,,,,,,,,,,,,29YE,001,2023_Mar_29_1523,ExactRep-v3-final,2021.2.3,59.95922769391484,
,,,,,,,,83,0,83,0,,,,,,,,,,,,,,,,,,,,,,,,,,,,,,,,,,,,,,,,,,,,,,,,,,,,,714.4670955999754,None,,,,,,,,,,,,,,,,,,,,,,,,,,,,,,,,,,,party,113,84,aloud,white,712.4653302999213,None,None,712.4653302999213,None,,,,,,,,,,,,,,,,,,,,,,,,,,,,,,29YE,001,2023_Mar_29_1523,ExactRep-v3-final,2021.2.3,59.95922769391484,
,,,,,,,,84,0,84,0,,,,,,,,,,,,,,,,,,,,,,,,,,,,,,,,,,,,,,,,,,,,,,,,,,,,,716.9696309999563,None,,,,,,,,,,,,,,,,,,,,,,,,,,,,,,,,,,,bowl,46,85,silent,red,714.9692385001108,None,None,714.9692385001108,None,,,,,,,,,,,,,,,,,,,,,,,,,,,,,,29YE,001,2023_Mar_29_1523,ExactRep-v3-final,2021.2.3,59.95922769391484,
,,,,,,,,85,0,85,0,,,,,,,,,,,,,,,,,,,,,,,,,,,,,,,,,,,,,,,,,,,,,,,,,,,,,719.4888118002564,None,,,,,,,,,,,,,,,,,,,,,,,,,,,,,,,,,,,lad,117,86,aloud,white,717.4799160002731,None,None,717.4799160002731,None,,,,,,,,,,,,,,,,,,,,,,,,,,,,,,29YE,001,2023_Mar_29_1523,ExactRep-v3-final,2021.2.3,59.95922769391484,
,,,,,,,,86,0,86,0,,,,,,,,,,,,,,,,,,,,,,,,,,,,,,,,,,,,,,,,,,,,,,,,,,,,,722.0080405999906,None,,,,,,,,,,,,,,,,,,,,,,,,,,,,,,,,,,,death,27,87,sing,blue,719.995824099984,None,None,719.995824099984,None,,,,,,,,,,,,,,,,,,,,,,,,,,,,,,29YE,001,2023_Mar_29_1523,ExactRep-v3-final,2021.2.3,59.95922769391484,
,,,,,,,,87,0,87,0,,,,,,,,,,,,,,,,,,,,,,,,,,,,,,,,,,,,,,,,,,,,,,,,,,,,,724.5104962000623,None,,,,,,,,,,,,,,,,,,,,,,,,,,,,,,,,,,,blood,4,88,sing,blue,722.510654900223,None,None,722.510654900223,None,,,,,,,,,,,,,,,,,,,,,,,,,,,,,,29YE,001,2023_Mar_29_1523,ExactRep-v3-final,2021.2.3,59.95922769391484,
,,,,,,,,88,0,88,0,,,,,,,,,,,,,,,,,,,,,,,,,,,,,,,,,,,,,,,,,,,,,,,,,,,,,727.0297257001512,None,,,,,,,,,,,,,,,,,,,,,,,,,,,,,,,,,,,bottle,11,89,sing,blue,725.0207218001597,None,None,725.0207218001597,None,,,,,,,,,,,,,,,,,,,,,,,,,,,,,,29YE,001,2023_Mar_29_1523,ExactRep-v3-final,2021.2.3,59.95922769391484,
,,,,,,,,89,0,89,0,,,,,,,,,,,,,,,,,,,,,,,,,,,,,,,,,,,,,,,,,,,,,,,,,,,,,729.5488439002074,None,,,,,,,,,,,,,,,,,,,,,,,,,,,,,,,,,,,wine,66,90,silent,red,727.5364188002422,None,None,727.5364188002422,None,,,,,,,,,,,,,,,,,,,,,,,,,,,,,,29YE,001,2023_Mar_29_1523,ExactRep-v3-final,2021.2.3,59.95922769391484,
,,,,,,,,90,0,90,0,,,,,,,,,,,,,,,,,,,,,,,,,,,,,,,,,,,,,,,,,,,,,,,,,,,,,732.0513778999448,None,,,,,,,,,,,,,,,,,,,,,,,,,,,,,,,,,,,maiden,30,91,sing,blue,730.049380000215,None,None,730.049380000215,None,,,,,,,,,,,,,,,,,,,,,,,,,,,,,,29YE,001,2023_Mar_29_1523,ExactRep-v3-final,2021.2.3,59.95922769391484,
,,,,,,,,91,0,91,0,,,,,,,,,,,,,,,,,,,,,,,,,,,,,,,,,,,,,,,,,,,,,,,,,,,,,734.5705711999908,None,,,,,,,,,,,,,,,,,,,,,,,,,,,,,,,,,,,deed,102,92,aloud,white,732.5592514001764,None,None,732.5592514001764,None,,,,,,,,,,,,,,,,,,,,,,,,,,,,,,29YE,001,2023_Mar_29_1523,ExactRep-v3-final,2021.2.3,59.95922769391484,
,,,,,,,,92,0,92,0,,,,,,,,,,,,,,,,,,,,,,,,,,,,,,,,,,,,,,,,,,,,,,,,,,,,,737.0769342002459,None,,,,,,,,,,,,,,,,,,,,,,,,,,,,,,,,,,,science,119,93,aloud,white,735.0721408999525,None,None,735.0721408999525,None,,,,,,,,,,,,,,,,,,,,,,,,,,,,,,29YE,001,2023_Mar_29_1523,ExactRep-v3-final,2021.2.3,59.95922769391484,
,,,,,,,,93,0,93,0,,,,,,,,,,,,,,,,,,,,,,,,,,,,,,,,,,,,,,,,,,,,,,,,,,,,,739.5920269000344,None,,,,,,,,,,,,,,,,,,,,,,,,,,,,,,,,,,,library,110,94,aloud,white,737.5900832000189,None,None,737.5900832000189,None,,,,,,,,,,,,,,,,,,,,,,,,,,,,,,29YE,001,2023_Mar_29_1523,ExactRep-v3-final,2021.2.3,59.95922769391484,
,,,,,,,,94,0,94,0,,,,,,,,,,,,,,,,,,,,,,,,,,,,,,,,,,,,,,,,,,,,,,,,,,,,,742.1114329001866,None,,,,,,,,,,,,,,,,,,,,,,,,,,,,,,,,,,,anger,48,95,silent,red,740.0961580001749,None,None,740.0961580001749,None,,,,,,,,,,,,,,,,,,,,,,,,,,,,,,29YE,001,2023_Mar_29_1523,ExactRep-v3-final,2021.2.3,59.95922769391484,
,,,,,,,,95,0,95,0,,,,,,,,,,,,,,,,,,,,,,,,,,,,,,,,,,,,,,,,,,,,,,,,,,,,,744.6139450999908,None,,,,,,,,,,,,,,,,,,,,,,,,,,,,,,,,,,,virtue,52,96,silent,red,742.6128144999966,None,None,742.6128144999966,None,,,,,,,,,,,,,,,,,,,,,,,,,,,,,,29YE,001,2023_Mar_29_1523,ExactRep-v3-final,2021.2.3,59.95922769391484,
,,,,,,,,96,0,96,0,,,,,,,,,,,,,,,,,,,,,,,,,,,,,,,,,,,,,,,,,,,,,,,,,,,,,747.1331249000505,None,,,,,,,,,,,,,,,,,,,,,,,,,,,,,,,,,,,teacher,85,97,aloud,white,745.1176167000085,None,None,745.1176167000085,None,,,,,,,,,,,,,,,,,,,,,,,,,,,,,,29YE,001,2023_Mar_29_1523,ExactRep-v3-final,2021.2.3,59.95922769391484,
,,,,,,,,97,0,97,0,,,,,,,,,,,,,,,,,,,,,,,,,,,,,,,,,,,,,,,,,,,,,,,,,,,,,749.6354046999477,None,,,,,,,,,,,,,,,,,,,,,,,,,,,,,,,,,,,length,100,98,aloud,white,747.6334631000645,None,None,747.6334631000645,None,,,,,,,,,,,,,,,,,,,,,,,,,,,,,,29YE,001,2023_Mar_29_1523,ExactRep-v3-final,2021.2.3,59.95922769391484,
,,,,,,,,98,0,98,0,,,,,,,,,,,,,,,,,,,,,,,,,,,,,,,,,,,,,,,,,,,,,,,,,,,,,752.13823339995,None,,,,,,,,,,,,,,,,,,,,,,,,,,,,,,,,,,,window,79,99,sing,blue,750.138434200082,None,None,750.138434200082,None,,,,,,,,,,,,,,,,,,,,,,,,,,,,,,29YE,001,2023_Mar_29_1523,ExactRep-v3-final,2021.2.3,59.95922769391484,
,,,,,,,,99,0,99,0,,,,,,,,,,,,,,,,,,,,,,,,,,,,,,,,,,,,,,,,,,,,,,,,,,,,,754.6406141002662,None,,,,,,,,,,,,,,,,,,,,,,,,,,,,,,,,,,,apple,22,100,sing,blue,752.6409626002423,None,None,752.6409626002423,None,,,,,,,,,,,,,,,,,,,,,,,,,,,,,,29YE,001,2023_Mar_29_1523,ExactRep-v3-final,2021.2.3,59.95922769391484,
,,,,,,,,100,0,100,0,,,,,,,,,,,,,,,,,,,,,,,,,,,,,,,,,,,,,,,,,,,,,,,,,,,,,757.1597942002118,None,,,,,,,,,,,,,,,,,,,,,,,,,,,,,,,,,,,shoes,90,101,aloud,white,755.1441629999317,None,None,755.1441629999317,None,,,,,,,,,,,,,,,,,,,,,,,,,,,,,,29YE,001,2023_Mar_29_1523,ExactRep-v3-final,2021.2.3,59.95922769391484,
,,,,,,,,101,0,101,0,,,,,,,,,,,,,,,,,,,,,,,,,,,,,,,,,,,,,,,,,,,,,,,,,,,,,759.66233620001,None,,,,,,,,,,,,,,,,,,,,,,,,,,,,,,,,,,,beast,71,102,silent,red,757.6620495002717,None,None,757.6620495002717,None,,,,,,,,,,,,,,,,,,,,,,,,,,,,,,29YE,001,2023_Mar_29_1523,ExactRep-v3-final,2021.2.3,59.95922769391484,
,,,,,,,,102,0,102,0,,,,,,,,,,,,,,,,,,,,,,,,,,,,,,,,,,,,,,,,,,,,,,,,,,,,,762.1814704001881,None,,,,,,,,,,,,,,,,,,,,,,,,,,,,,,,,,,,freedom,77,103,silent,red,760.167060600128,None,None,760.167060600128,None,,,,,,,,,,,,,,,,,,,,,,,,,,,,,,29YE,001,2023_Mar_29_1523,ExactRep-v3-final,2021.2.3,59.95922769391484,
,,,,,,,,103,0,103,0,,,,,,,,,,,,,,,,,,,,,,,,,,,,,,,,,,,,,,,,,,,,,,,,,,,,,764.7006683000363,None,,,,,,,,,,,,,,,,,,,,,,,,,,,,,,,,,,,clock,82,104,aloud,white,762.685553399846,None,None,762.685553399846,None,,,,,,,,,,,,,,,,,,,,,,,,,,,,,,29YE,001,2023_Mar_29_1523,ExactRep-v3-final,2021.2.3,59.95922769391484,
,,,,,,,,104,0,104,0,,,,,,,,,,,,,,,,,,,,,,,,,,,,,,,,,,,,,,,,,,,,,,,,,,,,,767.2029412998818,None,,,,,,,,,,,,,,,,,,,,,,,,,,,,,,,,,,,leader,23,105,sing,blue,765.2020584000275,None,None,765.2020584000275,None,,,,,,,,,,,,,,,,,,,,,,,,,,,,,,29YE,001,2023_Mar_29_1523,ExactRep-v3-final,2021.2.3,59.95922769391484,
,,,,,,,,105,0,105,0,,,,,,,,,,,,,,,,,,,,,,,,,,,,,,,,,,,,,,,,,,,,,,,,,,,,,769.7223602002487,None,,,,,,,,,,,,,,,,,,,,,,,,,,,,,,,,,,,valley,18,106,sing,blue,767.7081422000192,None,None,767.7081422000192,None,,,,,,,,,,,,,,,,,,,,,,,,,,,,,,29YE,001,2023_Mar_29_1523,ExactRep-v3-final,2021.2.3,59.95922769391484,
,,,,,,,,106,0,106,0,,,,,,,,,,,,,,,,,,,,,,,,,,,,,,,,,,,,,,,,,,,,,,,,,,,,,772.2420926000923,None,,,,,,,,,,,,,,,,,,,,,,,,,,,,,,,,,,,door,26,107,sing,blue,770.2320043002255,None,None,770.2320043002255,None,,,,,,,,,,,,,,,,,,,,,,,,,,,,,,29YE,001,2023_Mar_29_1523,ExactRep-v3-final,2021.2.3,59.95922769391484,
,,,,,,,,107,0,107,0,,,,,,,,,,,,,,,,,,,,,,,,,,,,,,,,,,,,,,,,,,,,,,,,,,,,,774.7439465001225,None,,,,,,,,,,,,,,,,,,,,,,,,,,,,,,,,,,,lake,47,108,silent,red,772.7418646002188,None,None,772.7418646002188,None,,,,,,,,,,,,,,,,,,,,,,,,,,,,,,29YE,001,2023_Mar_29_1523,ExactRep-v3-final,2021.2.3,59.95922769391484,
,,,,,,,,108,0,108,0,,,,,,,,,,,,,,,,,,,,,,,,,,,,,,,,,,,,,,,,,,,,,,,,,,,,,777.2466004001908,None,,,,,,,,,,,,,,,,,,,,,,,,,,,,,,,,,,,sugar,115,109,aloud,white,775.2444040002301,None,None,775.2444040002301,None,,,,,,,,,,,,,,,,,,,,,,,,,,,,,,29YE,001,2023_Mar_29_1523,ExactRep-v3-final,2021.2.3,59.95922769391484,
,,,,,,,,109,0,109,0,,,,,,,,,,,,,,,,,,,,,,,,,,,,,,,,,,,,,,,,,,,,,,,,,,,,,779.7655927999876,None,,,,,,,,,,,,,,,,,,,,,,,,,,,,,,,,,,,church,51,110,silent,red,777.7512397998944,None,None,777.7512397998944,None,,,,,,,,,,,,,,,,,,,,,,,,,,,,,,29YE,001,2023_Mar_29_1523,ExactRep-v3-final,2021.2.3,59.95922769391484,
,,,,,,,,110,0,110,0,,,,,,,,,,,,,,,,,,,,,,,,,,,,,,,,,,,,,,,,,,,,,,,,,,,,,782.268286400009,None,,,,,,,,,,,,,,,,,,,,,,,,,,,,,,,,,,,fire,116,111,aloud,white,780.2661398998462,None,None,780.2661398998462,None,,,,,,,,,,,,,,,,,,,,,,,,,,,,,,29YE,001,2023_Mar_29_1523,ExactRep-v3-final,2021.2.3,59.95922769391484,
,,,,,,,,111,0,111,0,,,,,,,,,,,,,,,,,,,,,,,,,,,,,,,,,,,,,,,,,,,,,,,,,,,,,784.7874427000061,None,,,,,,,,,,,,,,,,,,,,,,,,,,,,,,,,,,,dollar,69,112,silent,red,782.7723427000456,None,None,782.7723427000456,None,,,,,,,,,,,,,,,,,,,,,,,,,,,,,,29YE,001,2023_Mar_29_1523,ExactRep-v3-final,2021.2.3,59.95922769391484,
,,,,,,,,112,0,112,0,,,,,,,,,,,,,,,,,,,,,,,,,,,,,,,,,,,,,,,,,,,,,,,,,,,,,787.2899533002637,None,,,,,,,,,,,,,,,,,,,,,,,,,,,,,,,,,,,water,36,113,sing,blue,785.2900735000148,None,None,785.2900735000148,None,,,,,,,,,,,,,,,,,,,,,,,,,,,,,,29YE,001,2023_Mar_29_1523,ExactRep-v3-final,2021.2.3,59.95922769391484,
,,,,,,,,113,0,113,0,,,,,,,,,,,,,,,,,,,,,,,,,,,,,,,,,,,,,,,,,,,,,,,,,,,,,789.8089140001684,None,,,,,,,,,,,,,,,,,,,,,,,,,,,,,,,,,,,soil,74,114,silent,red,787.7950452002697,None,None,787.7950452002697,None,,,,,,,,,,,,,,,,,,,,,,,,,,,,,,29YE,001,2023_Mar_29_1523,ExactRep-v3-final,2021.2.3,59.95922769391484,
,,,,,,,,114,0,114,0,,,,,,,,,,,,,,,,,,,,,,,,,,,,,,,,,,,,,,,,,,,,,,,,,,,,,792.3324178000912,None,,,,,,,,,,,,,,,,,,,,,,,,,,,,,,,,,,,storm,3,115,sing,blue,790.3223569002002,None,None,790.3223569002002,None,,,,,,,,,,,,,,,,,,,,,,,,,,,,,,29YE,001,2023_Mar_29_1523,ExactRep-v3-final,2021.2.3,59.95922769391484,
,,,,,,,,115,0,115,0,,,,,,,,,,,,,,,,,,,,,,,,,,,,,,,,,,,,,,,,,,,,,,,,,,,,,794.8308453001082,None,,,,,,,,,,,,,,,,,,,,,,,,,,,,,,,,,,,horse,45,116,silent,red,792.8286669999361,None,None,792.8286669999361,None,,,,,,,,,,,,,,,,,,,,,,,,,,,,,,29YE,001,2023_Mar_29_1523,ExactRep-v3-final,2021.2.3,59.95922769391484,
,,,,,,,,116,0,116,0,,,,,,,,,,,,,,,,,,,,,,,,,,,,,,,,,,,,,,,,,,,,,,,,,,,,,797.3497019000351,None,,,,,,,,,,,,,,,,,,,,,,,,,,,,,,,,,,,moment,31,117,sing,blue,795.3368482999504,None,None,795.3368482999504,None,,,,,,,,,,,,,,,,,,,,,,,,,,,,,,29YE,001,2023_Mar_29_1523,ExactRep-v3-final,2021.2.3,59.95922769391484,
,,,,,,,,117,0,117,0,,,,,,,,,,,,,,,,,,,,,,,,,,,,,,,,,,,,,,,,,,,,,,,,,,,,,799.8525856002234,None,,,,,,,,,,,,,,,,,,,,,,,,,,,,,,,,,,,palace,50,118,silent,red,797.8527154000476,None,None,797.8527154000476,None,,,,,,,,,,,,,,,,,,,,,,,,,,,,,,29YE,001,2023_Mar_29_1523,ExactRep-v3-final,2021.2.3,59.95922769391484,
,,,,,,,,118,0,118,0,,,,,,,,,,,,,,,,,,,,,,,,,,,,,,,,,,,,,,,,,,,,,,,,,,,,,802.371785200201,None,,,,,,,,,,,,,,,,,,,,,,,,,,,,,,,,,,,devil,33,119,sing,blue,800.3566211001016,None,None,800.3566211001016,None,,,,,,,,,,,,,,,,,,,,,,,,,,,,,,29YE,001,2023_Mar_29_1523,ExactRep-v3-final,2021.2.3,59.95922769391484,
,,,,,,,,119,0,119,0,,,,,,,,,,,,,,,,,,,,,,,,,,,,,,,,,,,,,,,,,,,,,,,,,,,,,804.8909165998921,None,,,,,,,,,,,,,,,,,,,,,,,,,,,,,,,,,,,village,41,120,silent,red,802.8775955000892,None,None,802.8775955000892,None,,,,,,,,,,,,,,,,,,,,,,,,,,,,,,29YE,001,2023_Mar_29_1523,ExactRep-v3-final,2021.2.3,59.95922769391484,
,,,,,,,,,,,,,,,,,,,,,,,,,,,,,,,,,,,,,,,,,,,,,,,,,,,,,,,,,,,,,,,,,,,,,,,,,,,,,,,,,,,,,,,,,,,,,,,,,,,,,,,,,,,,,,805.3929623002186,None,space,1.9380967998877168,815.3693381999619,None,,,,,,,,,,,,,,,,,,,,,,,,29YE,001,2023_Mar_29_1523,ExactRep-v3-final,2021.2.3,59.95922769391484,
,,,,,,,,,,,,,,,,,,,,,,,,,,,,,,,,,,,,,,,,,,,,,,,,,,,,,,,,,,,,,,,,,,,,,,,,,,,,,,,,,,,,,,,,,,,,,,,,,,,,,,,,,,,,,,,,,,,,817.3384568002075,None,space,25.072587199974805,827.3146199998446,None,,,,,,,,,,,,,,,,,,29YE,001,2023_Mar_29_1523,ExactRep-v3-final,2021.2.3,59.95922769391484,
,,,,,,,,,,,,0,0,0,0,,,,,,,,,,,,,,,,,,,,,,,,,,,,,,,,,,,,,,,,,,,,,,,,,859.3953456999734,None,,,,,,,,,,,,,,,,,,,,,,,,,,,,,,,,,,,,,,,,,,,,,,,,,,,,,,,,,thought,165,1,sing,new,blue,852.9151098001748,None,y,852.9151098001748,None,"['y', 'return']","[3.895948499906808, 6.439913500100374]",852.9151098001748,None,,,29YE,001,2023_Mar_29_1523,ExactRep-v3-final,2021.2.3,59.95922769391484,
,,,,,,,,,,,,1,0,1,0,,,,,,,,,,,,,,,,,,,,,,,,,,,,,,,,,,,,,,,,,,,,,,,,,872.1579427001998,None,,,,,,,,,,,,,,,,,,,,,,,,,,,,,,,,,,,,,,,,,,,,,,,,,,,,,,,,,law,24,2,sing,old,blue,859.9061481999233,None,y,859.9061481999233,None,"['y', 'return']","[1.305240800138563, 12.208925600163639]",859.9061481999233,None,,,29YE,001,2023_Mar_29_1523,ExactRep-v3-final,2021.2.3,59.95922769391484,
,,,,,,,,,,,,2,0,2,0,,,,,,,,,,,,,,,,,,,,,,,,,,,,,,,,,,,,,,,,,,,,,,,,,877.58012960013,None,,,,,,,,,,,,,,,,,,,,,,,,,,,,,,,,,,,,,,,,,,,,,,,,,,,,,,,,,lad,117,3,aloud,old,white,872.6678432999179,None,y,872.6678432999179,None,"['y', 'return']","[0.8632338000461459, 4.879281300120056]",872.6678432999179,None,,,29YE,001,2023_Mar_29_1523,ExactRep-v3-final,2021.2.3,59.95922769391484,
,,,,,,,,,,,,3,0,3,0,,,,,,,,,,,,,,,,,,,,,,,,,,,,,,,,,,,,,,,,,,,,,,,,,879.6821333998814,None,,,,,,,,,,,,,,,,,,,,,,,,,,,,,,,,,,,,,,,,,,,,,,,,,,,,,,,,,bottle,11,4,sing,old,blue,878.0888074999675,None,y,878.0888074999675,None,"['y', 'return']","[1.082248100079596, 1.546380900312215]",878.0888074999675,None,,,29YE,001,2023_Mar_29_1523,ExactRep-v3-final,2021.2.3,59.95922769391484,
,,,,,,,,,,,,4,0,4,0,,,,,,,,,,,,,,,,,,,,,,,,,,,,,,,,,,,,,,,,,,,,,,,,,882.0513168000616,None,,,,,,,,,,,,,,,,,,,,,,,,,,,,,,,,,,,,,,,,,,,,,,,,,,,,,,,,,machine,226,5,aloud,new,white,880.192121299915,None,n,880.192121299915,None,"['n', 'return']","[1.4751637000590563, 1.8109503001905978]",880.192121299915,None,,,29YE,001,2023_Mar_29_1523,ExactRep-v3-final,2021.2.3,59.95922769391484,
,,,,,,,,,,,,5,0,5,0,,,,,,,,,,,,,,,,,,,,,,,,,,,,,,,,,,,,,,,,,,,,,,,,,884.0698065999895,None,,,,,,,,,,,,,,,,,,,,,,,,,,,,,,,,,,,,,,,,,,,,,,,,,,,,,,,,,clock,82,6,aloud,old,white,882.5593802998774,None,y,882.5593802998774,None,"['y', 'return']","[1.107808300293982, 1.4756903001107275]",882.5593802998774,None,,,29YE,001,2023_Mar_29_1523,ExactRep-v3-final,2021.2.3,59.95922769391484,
,,,,,,,,,,,,6,0,6,0,,,,,,,,,,,,,,,,,,,,,,,,,,,,,,,,,,,,,,,,,,,,,,,,,886.3890423001722,None,,,,,,,,,,,,,,,,,,,,,,,,,,,,,,,,,,,,,,,,,,,,,,,,,,,,,,,,,teacher,85,7,aloud,old,white,884.5727146998979,None,y,884.5727146998979,None,"['y', 'return']","[1.3983824998140335, 1.7744529000483453]",884.5727146998979,None,,,29YE,001,2023_Mar_29_1523,ExactRep-v3-final,2021.2.3,59.95922769391484,
,,,,,,,,,,,,7,0,7,0,,,,,,,,,,,,,,,,,,,,,,,,,,,,,,,,,,,,,,,,,,,,,,,,,888.1405417001806,None,,,,,,,,,,,,,,,,,,,,,,,,,,,,,,,,,,,,,,,,,,,,,,,,,,,,,,,,,woman,189,8,sing,new,blue,886.898726799991,None,y,886.898726799991,None,"['y', 'return']","[0.8245281996205449, 1.2003440000116825]",886.898726799991,None,,,29YE,001,2023_Mar_29_1523,ExactRep-v3-final,2021.2.3,59.95922769391484,
,,,,,,,,,,,,8,0,8,0,,,,,,,,,,,,,,,,,,,,,,,,,,,,,,,,,,,,,,,,,,,,,,,,,890.1759449001402,None,,,,,,,,,,,,,,,,,,,,,,,,,,,,,,,,,,,,,,,,,,,,,,,,,,,,,,,,,answer,99,9,aloud,old,white,888.6414156001993,None,y,888.6414156001993,None,"['y', 'return']","[1.1618325002491474, 1.4897398999892175]",888.6414156001993,None,,,29YE,001,2023_Mar_29_1523,ExactRep-v3-final,2021.2.3,59.95922769391484,
,,,,,,,,,,,,9,0,9,0,,,,,,,,,,,,,,,,,,,,,,,,,,,,,,,,,,,,,,,,,,,,,,,,,891.6941677001305,None,,,,,,,,,,,,,,,,,,,,,,,,,,,,,,,,,,,,,,,,,,,,,,,,,,,,,,,,,ocean,16,10,sing,old,blue,890.6851297998801,None,y,890.6851297998801,None,"['y', 'return']","[0.646013599820435, 0.9658534000627697]",890.6851297998801,None,,,29YE,001,2023_Mar_29_1523,ExactRep-v3-final,2021.2.3,59.95922769391484,
,,,,,,,,,,,,10,0,10,0,,,,,,,,,,,,,,,,,,,,,,,,,,,,,,,,,,,,,,,,,,,,,,,,,894.8475183001719,None,,,,,,,,,,,,,,,,,,,,,,,,,,,,,,,,,,,,,,,,,,,,,,,,,,,,,,,,,money,105,11,aloud,old,white,892.2040705000982,None,y,892.2040705000982,None,"['y', 'return']","[2.406999600119889, 2.598968599922955]",892.2040705000982,None,,,29YE,001,2023_Mar_29_1523,ExactRep-v3-final,2021.2.3,59.95922769391484,
,,,,,,,,,,,,11,0,11,0,,,,,,,,,,,,,,,,,,,,,,,,,,,,,,,,,,,,,,,,,,,,,,,,,896.9160318002105,None,,,,,,,,,,,,,,,,,,,,,,,,,,,,,,,,,,,,,,,,,,,,,,,,,,,,,,,,,forest,157,12,silent,new,red,895.3621010999195,None,n,895.3621010999195,None,"['n', 'return']","[1.2009645998477936, 1.5130545999854803]",895.3621010999195,None,,,29YE,001,2023_Mar_29_1523,ExactRep-v3-final,2021.2.3,59.95922769391484,
,,,,,,,,,,,,12,0,12,0,,,,,,,,,,,,,,,,,,,,,,,,,,,,,,,,,,,,,,,,,,,,,,,,,899.8357635000721,None,,,,,,,,,,,,,,,,,,,,,,,,,,,,,,,,,,,,,,,,,,,,,,,,,,,,,,,,,boulder,107,13,aloud,old,white,897.4318051999435,None,y,897.4318051999435,None,"['y', 'return']","[2.1072766999714077, 2.371242600027472]",897.4318051999435,None,,,29YE,001,2023_Mar_29_1523,ExactRep-v3-final,2021.2.3,59.95922769391484,
,,,,,,,,,,,,13,0,13,0,,,,,,,,,,,,,,,,,,,,,,,,,,,,,,,,,,,,,,,,,,,,,,,,,902.85545059992,None,,,,,,,,,,,,,,,,,,,,,,,,,,,,,,,,,,,,,,,,,,,,,,,,,,,,,,,,,honour,59,14,silent,old,red,900.3451518998481,None,n,900.3451518998481,None,"['n', 'return']","[2.169943300075829, 2.465870500076562]",900.3451518998481,None,,,29YE,001,2023_Mar_29_1523,ExactRep-v3-final,2021.2.3,59.95922769391484,
,,,,,,,,,,,,14,0,14,0,,,,,,,,,,,,,,,,,,,,,,,,,,,,,,,,,,,,,,,,,,,,,,,,,904.3067808002234,None,,,,,,,,,,,,,,,,,,,,,,,,,,,,,,,,,,,,,,,,,,,,,,,,,,,,,,,,,iron,103,15,aloud,old,white,903.3639857000671,None,y,903.3639857000671,None,"['y', 'return']","[0.6072056000120938, 0.9030793001875281]",903.3639857000671,None,,,29YE,001,2023_Mar_29_1523,ExactRep-v3-final,2021.2.3,59.95922769391484,
,,,,,,,,,,,,15,0,15,0,,,,,,,,,,,,,,,,,,,,,,,,,,,,,,,,,,,,,,,,,,,,,,,,,906.3923372998834,None,,,,,,,,,,,,,,,,,,,,,,,,,,,,,,,,,,,,,,,,,,,,,,,,,,,,,,,,,rock,167,16,sing,new,blue,904.8193430001847,None,n,904.8193430001847,None,"['n', 'return']","[1.2157644000835717, 1.53576419968158]",904.8193430001847,None,,,29YE,001,2023_Mar_29_1523,ExactRep-v3-final,2021.2.3,59.95922769391484,
,,,,,,,,,,,,16,0,16,0,,,,,,,,,,,,,,,,,,,,,,,,,,,,,,,,,,,,,,,,,,,,,,,,,908.2440995001234,None,,,,,,,,,,,,,,,,,,,,,,,,,,,,,,,,,,,,,,,,,,,,,,,,,,,,,,,,,opinion,5,17,sing,old,blue,906.9030198999681,None,y,906.9030198999681,None,"['y', 'return']","[0.9882175996899605, 1.3080172999761999]",906.9030198999681,None,,,29YE,001,2023_Mar_29_1523,ExactRep-v3-final,2021.2.3,59.95922769391484,
,,,,,,,,,,,,17,0,17,0,,,,,,,,,,,,,,,,,,,,,,,,,,,,,,,,,,,,,,,,,,,,,,,,,912.1145601999015,None,,,,,,,,,,,,,,,,,,,,,,,,,,,,,,,,,,,,,,,,,,,,,,,,,,,,,,,,,history,158,18,silent,new,red,908.7530033001676,None,n,908.7530033001676,None,"['n', 'return']","[3.0661726999096572, 3.3221168001182377]",908.7530033001676,None,,,29YE,001,2023_Mar_29_1523,ExactRep-v3-final,2021.2.3,59.95922769391484,
,,,,,,,,,,,,18,0,18,0,,,,,,,,,,,,,,,,,,,,,,,,,,,,,,,,,,,,,,,,,,,,,,,,,914.6840194002725,None,,,,,,,,,,,,,,,,,,,,,,,,,,,,,,,,,,,,,,,,,,,,,,,,,,,,,,,,,plant,95,19,aloud,old,white,912.6223297002725,None,y,912.6223297002725,None,"['y', 'return']","[1.7248821998946369, 2.020799200050533]",912.6223297002725,None,,,29YE,001,2023_Mar_29_1523,ExactRep-v3-final,2021.2.3,59.95922769391484,
,,,,,,,,,,,,19,0,19,0,,,,,,,,,,,,,,,,,,,,,,,,,,,,,,,,,,,,,,,,,,,,,,,,,916.7191658001393,None,,,,,,,,,,,,,,,,,,,,,,,,,,,,,,,,,,,,,,,,,,,,,,,,,,,,,,,,,gold,67,20,silent,old,red,915.1926779001951,None,n,915.1926779001951,None,"['n', 'return']","[1.1705563003197312, 1.4904491999186575]",915.1926779001951,None,,,29YE,001,2023_Mar_29_1523,ExactRep-v3-final,2021.2.3,59.95922769391484,
,,,,,,,,,,,,20,0,20,0,,,,,,,,,,,,,,,,,,,,,,,,,,,,,,,,,,,,,,,,,,,,,,,,,919.0048503000289,None,,,,,,,,,,,,,,,,,,,,,,,,,,,,,,,,,,,,,,,,,,,,,,,,,,,,,,,,,memory,135,21,silent,new,red,917.2234570002183,None,y,917.2234570002183,None,"['y', 'return']","[1.427514599636197, 1.7476184996776283]",917.2234570002183,None,,,29YE,001,2023_Mar_29_1523,ExactRep-v3-final,2021.2.3,59.95922769391484,
,,,,,,,,,,,,21,0,21,0,,,,,,,,,,,,,,,,,,,,,,,,,,,,,,,,,,,,,,,,,,,,,,,,,922.1246692999266,None,,,,,,,,,,,,,,,,,,,,,,,,,,,,,,,,,,,,,,,,,,,,,,,,,,,,,,,,,village,41,22,silent,old,red,919.5077990000136,None,n,919.5077990000136,None,"['n', 'return']","[2.143279400188476, 2.583253299817443]",919.5077990000136,None,,,29YE,001,2023_Mar_29_1523,ExactRep-v3-final,2021.2.3,59.95922769391484,
,,,,,,,,,,,,22,0,22,0,,,,,,,,,,,,,,,,,,,,,,,,,,,,,,,,,,,,,,,,,,,,,,,,,923.9599064001814,None,,,,,,,,,,,,,,,,,,,,,,,,,,,,,,,,,,,,,,,,,,,,,,,,,,,,,,,,,passion,155,23,silent,new,red,922.6368355001323,None,n,922.6368355001323,None,"['n', 'return']","[0.9823215999640524, 1.2783218999393284]",922.6368355001323,None,,,29YE,001,2023_Mar_29_1523,ExactRep-v3-final,2021.2.3,59.95922769391484,
,,,,,,,,,,,,23,0,23,0,,,,,,,,,,,,,,,,,,,,,,,,,,,,,,,,,,,,,,,,,,,,,,,,,926.0639015999623,None,,,,,,,,,,,,,,,,,,,,,,,,,,,,,,,,,,,,,,,,,,,,,,,,,,,,,,,,,master,206,24,aloud,new,white,924.4696411001496,None,n,924.4696411001496,None,"['return', 'n', 'return']","[0.1974097997881472, 1.2456104001030326, 1.5575270997360349]",924.4696411001496,None,,,29YE,001,2023_Mar_29_1523,ExactRep-v3-final,2021.2.3,59.95922769391484,
,,,,,,,,,,,,24,0,24,0,,,,,,,,,,,,,,,,,,,,,,,,,,,,,,,,,,,,,,,,,,,,,,,,,928.1140347998589,None,,,,,,,,,,,,,,,,,,,,,,,,,,,,,,,,,,,,,,,,,,,,,,,,,,,,,,,,,time,134,25,silent,new,red,926.5884770001285,None,n,926.5884770001285,None,"['n', 'return']","[1.2305363998748362, 1.4790060999803245]",926.5884770001285,None,,,29YE,001,2023_Mar_29_1523,ExactRep-v3-final,2021.2.3,59.95922769391484,
,,,,,,,,,,,,25,0,25,0,,,,,,,,,,,,,,,,,,,,,,,,,,,,,,,,,,,,,,,,,,,,,,,,,929.6654527001083,None,,,,,,,,,,,,,,,,,,,,,,,,,,,,,,,,,,,,,,,,,,,,,,,,,,,,,,,,,steam,0,26,sing,old,blue,928.6219790000468,None,y,928.6219790000468,None,"['y', 'return']","[0.7249996997416019, 0.9971992000937462]",928.6219790000468,None,,,29YE,001,2023_Mar_29_1523,ExactRep-v3-final,2021.2.3,59.95922769391484,
,,,,,,,,,,,,26,0,26,0,,,,,,,,,,,,,,,,,,,,,,,,,,,,,,,,,,,,,,,,,,,,,,,,,931.5173228001222,None,,,,,,,,,,,,,,,,,,,,,,,,,,,,,,,,,,,,,,,,,,,,,,,,,,,,,,,,,arm,39,27,silent,old,red,930.172585000284,None,n,930.172585000284,None,"['n', 'return']","[0.9986153999343514, 1.3026076001115143]",930.172585000284,None,,,29YE,001,2023_Mar_29_1523,ExactRep-v3-final,2021.2.3,59.95922769391484,
,,,,,,,,,,,,27,0,27,0,,,,,,,,,,,,,,,,,,,,,,,,,,,,,,,,,,,,,,,,,,,,,,,,,934.6706393002532,None,,,,,,,,,,,,,,,,,,,,,,,,,,,,,,,,,,,,,,,,,,,,,,,,,,,,,,,,,murder,156,28,silent,new,red,932.0287272999994,None,n,932.0287272999994,None,"['n', 'return']","[2.342484500259161, 2.606631699949503]",932.0287272999994,None,,,29YE,001,2023_Mar_29_1523,ExactRep-v3-final,2021.2.3,59.95922769391484,
,,,,,,,,,,,,28,0,28,0,,,,,,,,,,,,,,,,,,,,,,,,,,,,,,,,,,,,,,,,,,,,,,,,,936.0551693998277,None,,,,,,,,,,,,,,,,,,,,,,,,,,,,,,,,,,,,,,,,,,,,,,,,,,,,,,,,,leader,23,29,sing,old,blue,935.1711817001924,None,y,935.1711817001924,None,"['y', 'return']","[0.5440766997635365, 0.8398882998153567]",935.1711817001924,None,,,29YE,001,2023_Mar_29_1523,ExactRep-v3-final,2021.2.3,59.95922769391484,
,,,,,,,,,,,,29,0,29,0,,,,,,,,,,,,,,,,,,,,,,,,,,,,,,,,,,,,,,,,,,,,,,,,,937.9737654998899,None,,,,,,,,,,,,,,,,,,,,,,,,,,,,,,,,,,,,,,,,,,,,,,,,,,,,,,,,,fault,187,30,sing,new,blue,936.5635726000182,None,y,936.5635726000182,None,"['y', 'return']","[1.01553659979254, 1.3754686997272074]",936.5635726000182,None,,,29YE,001,2023_Mar_29_1523,ExactRep-v3-final,2021.2.3,59.95922769391484,
,,,,,,,,,,,,30,0,30,0,,,,,,,,,,,,,,,,,,,,,,,,,,,,,,,,,,,,,,,,,,,,,,,,,939.7757139001042,None,,,,,,,,,,,,,,,,,,,,,,,,,,,,,,,,,,,,,,,,,,,,,,,,,,,,,,,,,pipe,61,31,silent,old,red,938.4825034998357,None,n,938.4825034998357,None,"['n', 'return']","[1.0006841998547316, 1.2485199999064207]",938.4825034998357,None,,,29YE,001,2023_Mar_29_1523,ExactRep-v3-final,2021.2.3,59.95922769391484,
,,,,,,,,,,,,31,0,31,0,,,,,,,,,,,,,,,,,,,,,,,,,,,,,,,,,,,,,,,,,,,,,,,,,941.4273618999869,None,,,,,,,,,,,,,,,,,,,,,,,,,,,,,,,,,,,,,,,,,,,,,,,,,,,,,,,,,anger,48,32,silent,old,red,940.2835780000314,None,y,940.2835780000314,None,"['y', 'return']","[0.8239339999854565, 1.1035770997405052]",940.2835780000314,None,,,29YE,001,2023_Mar_29_1523,ExactRep-v3-final,2021.2.3,59.95922769391484,
,,,,,,,,,,,,32,0,32,0,,,,,,,,,,,,,,,,,,,,,,,,,,,,,,,,,,,,,,,,,,,,,,,,,943.3623982998542,None,,,,,,,,,,,,,,,,,,,,,,,,,,,,,,,,,,,,,,,,,,,,,,,,,,,,,,,,,friend,229,33,sing,new,blue,941.9407116998918,None,n,941.9407116998918,None,"['n', 'return']","[1.0944092003628612, 1.3824986000545323]",941.9407116998918,None,,,29YE,001,2023_Mar_29_1523,ExactRep-v3-final,2021.2.3,59.95922769391484,
,,,,,,,,,,,,33,0,33,0,,,,,,,,,,,,,,,,,,,,,,,,,,,,,,,,,,,,,,,,,,,,,,,,,944.8473681998439,None,,,,,,,,,,,,,,,,,,,,,,,,,,,,,,,,,,,,,,,,,,,,,,,,,,,,,,,,,chief,57,34,silent,old,red,943.8730488000438,None,y,943.8730488000438,None,"['y', 'return']","[0.6260969000868499, 0.9381055003032088]",943.8730488000438,None,,,29YE,001,2023_Mar_29_1523,ExactRep-v3-final,2021.2.3,59.95922769391484,
,,,,,,,,,,,,34,0,34,0,,,,,,,,,,,,,,,,,,,,,,,,,,,,,,,,,,,,,,,,,,,,,,,,,946.7158396001905,None,,,,,,,,,,,,,,,,,,,,,,,,,,,,,,,,,,,,,,,,,,,,,,,,,,,,,,,,,series,139,35,silent,new,red,945.3541931998916,None,n,945.3541931998916,None,"['n', 'return']","[1.0649610003456473, 1.3209778000600636]",945.3541931998916,None,,,29YE,001,2023_Mar_29_1523,ExactRep-v3-final,2021.2.3,59.95922769391484,
,,,,,,,,,,,,35,0,35,0,,,,,,,,,,,,,,,,,,,,,,,,,,,,,,,,,,,,,,,,,,,,,,,,,948.183958500158,None,,,,,,,,,,,,,,,,,,,,,,,,,,,,,,,,,,,,,,,,,,,,,,,,,,,,,,,,,moment,31,36,sing,old,blue,947.2363172001205,None,y,947.2363172001205,None,"['y', 'return']","[0.5989731000736356, 0.9108283999375999]",947.2363172001205,None,,,29YE,001,2023_Mar_29_1523,ExactRep-v3-final,2021.2.3,59.95922769391484,
,,,,,,,,,,,,36,0,36,0,,,,,,,,,,,,,,,,,,,,,,,,,,,,,,,,,,,,,,,,,,,,,,,,,950.085838300176,None,,,,,,,,,,,,,,,,,,,,,,,,,,,,,,,,,,,,,,,,,,,,,,,,,,,,,,,,,lake,47,37,silent,old,red,948.6937656002119,None,y,948.6937656002119,None,"['y', 'return']","[1.1014331998303533, 1.3572138999588788]",948.6937656002119,None,,,29YE,001,2023_Mar_29_1523,ExactRep-v3-final,2021.2.3,59.95922769391484,
,,,,,,,,,,,,37,0,37,0,,,,,,,,,,,,,,,,,,,,,,,,,,,,,,,,,,,,,,,,,,,,,,,,,952.0878666001372,None,,,,,,,,,,,,,,,,,,,,,,,,,,,,,,,,,,,,,,,,,,,,,,,,,,,,,,,,,army,170,38,aloud,new,white,950.595897400286,None,n,950.595897400286,None,"['n', 'return']","[1.111271200235933, 1.4472331004217267]",950.595897400286,None,,,29YE,001,2023_Mar_29_1523,ExactRep-v3-final,2021.2.3,59.95922769391484,
,,,,,,,,,,,,38,0,38,0,,,,,,,,,,,,,,,,,,,,,,,,,,,,,,,,,,,,,,,,,,,,,,,,,954.3234430998564,None,,,,,,,,,,,,,,,,,,,,,,,,,,,,,,,,,,,,,,,,,,,,,,,,,,,,,,,,,breast,191,39,sing,new,blue,952.5973657998256,None,n,952.5973657998256,None,"['n', 'return']","[1.4617934999987483, 1.6937951003201306]",952.5973657998256,None,,,29YE,001,2023_Mar_29_1523,ExactRep-v3-final,2021.2.3,59.95922769391484,
,,,,,,,,,,,,39,0,39,0,,,,,,,,,,,,,,,,,,,,,,,,,,,,,,,,,,,,,,,,,,,,,,,,,956.642419999931,None,,,,,,,,,,,,,,,,,,,,,,,,,,,,,,,,,,,,,,,,,,,,,,,,,,,,,,,,,quality,193,40,sing,new,blue,954.8324682000093,None,n,954.8324682000093,None,"['n', 'return']","[1.4747572001069784, 1.7707454999908805]",954.8324682000093,None,,,29YE,001,2023_Mar_29_1523,ExactRep-v3-final,2021.2.3,59.95922769391484,
,,,,,,,,,,,,40,0,40,0,,,,,,,,,,,,,,,,,,,,,,,,,,,,,,,,,,,,,,,,,,,,,,,,,959.2285104999319,None,,,,,,,,,,,,,,,,,,,,,,,,,,,,,,,,,,,,,,,,,,,,,,,,,,,,,,,,,apple,22,41,sing,old,blue,957.1499839001335,None,n,957.1499839001335,None,"['n', 'y', 'return']","[0.8132084999233484, 1.645123299676925, 2.0372418998740613]",957.1499839001335,None,,,29YE,001,2023_Mar_29_1523,ExactRep-v3-final,2021.2.3,59.95922769391484,
,,,,,,,,,,,,41,0,41,0,,,,,,,,,,,,,,,,,,,,,,,,,,,,,,,,,,,,,,,,,,,,,,,,,966.1854671002366,None,,,,,,,,,,,,,,,,,,,,,,,,,,,,,,,,,,,,,,,,,,,,,,,,,,,,,,,,,hotel,161,42,sing,new,blue,959.7383799999952,None,n,959.7383799999952,None,"['backspace', 'n', 'return']","[1.2727332999929786, 6.160731700249016, 6.4087403998710215]",959.7383799999952,None,,,29YE,001,2023_Mar_29_1523,ExactRep-v3-final,2021.2.3,59.95922769391484,
,,,,,,,,,,,,42,0,42,0,,,,,,,,,,,,,,,,,,,,,,,,,,,,,,,,,,,,,,,,,,,,,,,,,968.6377500998788,None,,,,,,,,,,,,,,,,,,,,,,,,,,,,,,,,,,,,,,,,,,,,,,,,,,,,,,,,,shore,192,43,aloud,new,white,966.6987156998366,None,n,966.6987156998366,None,"['n', 'n', 'return']","[1.4644248997792602, 1.528400399722159, 1.8964505000039935]",966.6987156998366,None,,,29YE,001,2023_Mar_29_1523,ExactRep-v3-final,2021.2.3,59.95922769391484,
,,,,,,,,,,,,43,0,43,0,,,,,,,,,,,,,,,,,,,,,,,,,,,,,,,,,,,,,,,,,,,,,,,,,970.623264899943,None,,,,,,,,,,,,,,,,,,,,,,,,,,,,,,,,,,,,,,,,,,,,,,,,,,,,,,,,,style,64,44,silent,old,red,969.147580999881,None,y,969.147580999881,None,"['y', 'return']","[1.0955714001320302, 1.439580800011754]",969.147580999881,None,,,29YE,001,2023_Mar_29_1523,ExactRep-v3-final,2021.2.3,59.95922769391484,
,,,,,,,,,,,,44,0,44,0,,,,,,,,,,,,,,,,,,,,,,,,,,,,,,,,,,,,,,,,,,,,,,,,,972.4250246002339,None,,,,,,,,,,,,,,,,,,,,,,,,,,,,,,,,,,,,,,,,,,,,,,,,,,,,,,,,,meadow,216,45,aloud,new,white,971.1305157998577,None,y,971.1305157998577,None,"['y', 'return']","[0.9685826003551483, 1.248698300216347]",971.1305157998577,None,,,29YE,001,2023_Mar_29_1523,ExactRep-v3-final,2021.2.3,59.95922769391484,
,,,,,,,,,,,,45,0,45,0,,,,,,,,,,,,,,,,,,,,,,,,,,,,,,,,,,,,,,,,,,,,,,,,,973.9763941001147,None,,,,,,,,,,,,,,,,,,,,,,,,,,,,,,,,,,,,,,,,,,,,,,,,,,,,,,,,,fun,97,46,aloud,old,white,972.9379882002249,None,y,972.9379882002249,None,"['y', 'return']","[0.6651767999865115, 0.9931872999295592]",972.9379882002249,None,,,29YE,001,2023_Mar_29_1523,ExactRep-v3-final,2021.2.3,59.95922769391484,
,,,,,,,,,,,,46,0,46,0,,,,,,,,,,,,,,,,,,,,,,,,,,,,,,,,,,,,,,,,,,,,,,,,,977.2296739001758,None,,,,,,,,,,,,,,,,,,,,,,,,,,,,,,,,,,,,,,,,,,,,,,,,,,,,,,,,,corn,199,47,sing,new,blue,974.4829572001472,None,n,974.4829572001472,None,"['n', 'return']","[2.3682662998326123, 2.712164099793881]",974.4829572001472,None,,,29YE,001,2023_Mar_29_1523,ExactRep-v3-final,2021.2.3,59.95922769391484,
,,,,,,,,,,,,47,0,47,0,,,,,,,,,,,,,,,,,,,,,,,,,,,,,,,,,,,,,,,,,,,,,,,,,978.6813539001159,None,,,,,,,,,,,,,,,,,,,,,,,,,,,,,,,,,,,,,,,,,,,,,,,,,,,,,,,,,justice,72,48,silent,old,red,977.7487592999823,None,y,977.7487592999823,None,"['y', 'return']","[0.5663588000461459, 0.8944386001676321]",977.7487592999823,None,,,29YE,001,2023_Mar_29_1523,ExactRep-v3-final,2021.2.3,59.95922769391484,
,,,,,,,,,,,,48,0,48,0,,,,,,,,,,,,,,,,,,,,,,,,,,,,,,,,,,,,,,,,,,,,,,,,,980.3828274002299,None,,,,,,,,,,,,,,,,,,,,,,,,,,,,,,,,,,,,,,,,,,,,,,,,,,,,,,,,,hide,96,49,aloud,old,white,979.1824627998285,None,y,979.1824627998285,None,"['y', 'return']","[0.9086751001887023, 1.1647115000523627]",979.1824627998285,None,,,29YE,001,2023_Mar_29_1523,ExactRep-v3-final,2021.2.3,59.95922769391484,
,,,,,,,,,,,,49,0,49,0,,,,,,,,,,,,,,,,,,,,,,,,,,,,,,,,,,,,,,,,,,,,,,,,,982.3347773998976,None,,,,,,,,,,,,,,,,,,,,,,,,,,,,,,,,,,,,,,,,,,,,,,,,,,,,,,,,,prayer,233,50,sing,new,blue,980.8911596001126,None,n,980.8911596001126,None,"['n', 'return']","[1.1281515001319349, 1.408036499749869]",980.8911596001126,None,,,29YE,001,2023_Mar_29_1523,ExactRep-v3-final,2021.2.3,59.95922769391484,
,,,,,,,,,,,,50,0,50,0,,,,,,,,,,,,,,,,,,,,,,,,,,,,,,,,,,,,,,,,,,,,,,,,,983.9532333002426,None,,,,,,,,,,,,,,,,,,,,,,,,,,,,,,,,,,,,,,,,,,,,,,,,,,,,,,,,,slave,49,51,silent,old,red,982.8469616998918,None,n,982.8469616998918,None,"['n', 'return']","[0.8123898999765515, 1.0682373000308871]",982.8469616998918,None,,,29YE,001,2023_Mar_29_1523,ExactRep-v3-final,2021.2.3,59.95922769391484,
,,,,,,,,,,,,51,0,51,0,,,,,,,,,,,,,,,,,,,,,,,,,,,,,,,,,,,,,,,,,,,,,,,,,985.6380926002748,None,,,,,,,,,,,,,,,,,,,,,,,,,,,,,,,,,,,,,,,,,,,,,,,,,,,,,,,,,safety,55,52,silent,old,red,984.4625458000228,None,y,984.4625458000228,None,"['y', 'return']","[0.8207318000495434, 1.140563900116831]",984.4625458000228,None,,,29YE,001,2023_Mar_29_1523,ExactRep-v3-final,2021.2.3,59.95922769391484,
,,,,,,,,,,,,52,0,52,0,,,,,,,,,,,,,,,,,,,,,,,,,,,,,,,,,,,,,,,,,,,,,,,,,987.5565543002449,None,,,,,,,,,,,,,,,,,,,,,,,,,,,,,,,,,,,,,,,,,,,,,,,,,,,,,,,,,spirit,147,53,silent,new,red,986.1481967000291,None,n,986.1481967000291,None,"['n', 'return']","[1.0230103000067174, 1.3748838999308646]",986.1481967000291,None,,,29YE,001,2023_Mar_29_1523,ExactRep-v3-final,2021.2.3,59.95922769391484,
,,,,,,,,,,,,53,0,53,0,,,,,,,,,,,,,,,,,,,,,,,,,,,,,,,,,,,,,,,,,,,,,,,,,989.4419085001573,None,,,,,,,,,,,,,,,,,,,,,,,,,,,,,,,,,,,,,,,,,,,,,,,,,,,,,,,,,meat,159,54,silent,new,red,988.0658823000267,None,n,988.0658823000267,None,"['n', 'return']","[1.0414983998052776, 1.337335899937898]",988.0658823000267,None,,,29YE,001,2023_Mar_29_1523,ExactRep-v3-final,2021.2.3,59.95922769391484,
,,,,,,,,,,,,54,0,54,0,,,,,,,,,,,,,,,,,,,,,,,,,,,,,,,,,,,,,,,,,,,,,,,,,991.1602769000456,None,,,,,,,,,,,,,,,,,,,,,,,,,,,,,,,,,,,,,,,,,,,,,,,,,,,,,,,,,power,215,55,sing,new,blue,989.957193700131,None,y,989.957193700131,None,"['y', 'return']","[0.9018943002447486, 1.157977799884975]",989.957193700131,None,,,29YE,001,2023_Mar_29_1523,ExactRep-v3-final,2021.2.3,59.95922769391484,
,,,,,,,,,,,,55,0,55,0,,,,,,,,,,,,,,,,,,,,,,,,,,,,,,,,,,,,,,,,,,,,,,,,,992.6786225000396,None,,,,,,,,,,,,,,,,,,,,,,,,,,,,,,,,,,,,,,,,,,,,,,,,,,,,,,,,,fire,116,56,aloud,old,white,991.6708706999198,None,y,991.6708706999198,None,"['y', 'return']","[0.7083831997588277, 0.9725132999010384]",991.6708706999198,None,,,29YE,001,2023_Mar_29_1523,ExactRep-v3-final,2021.2.3,59.95922769391484,
,,,,,,,,,,,,56,0,56,0,,,,,,,,,,,,,,,,,,,,,,,,,,,,,,,,,,,,,,,,,,,,,,,,,994.1632758998312,None,,,,,,,,,,,,,,,,,,,,,,,,,,,,,,,,,,,,,,,,,,,,,,,,,,,,,,,,,humour,214,57,aloud,new,white,993.1959095001221,None,y,993.1959095001221,None,"['y', 'return']","[0.6796031002886593, 0.9272515000775456]",993.1959095001221,None,,,29YE,001,2023_Mar_29_1523,ExactRep-v3-final,2021.2.3,59.95922769391484,
,,,,,,,,,,,,57,0,57,0,,,,,,,,,,,,,,,,,,,,,,,,,,,,,,,,,,,,,,,,,,,,,,,,,996.1819591000676,None,,,,,,,,,,,,,,,,,,,,,,,,,,,,,,,,,,,,,,,,,,,,,,,,,,,,,,,,,flower,172,58,aloud,new,white,994.6713996999897,None,y,994.6713996999897,None,"['y', 'return']","[1.2198679000139236, 1.4677594997920096]",994.6713996999897,None,,,29YE,001,2023_Mar_29_1523,ExactRep-v3-final,2021.2.3,59.95922769391484,
,,,,,,,,,,,,58,0,58,0,,,,,,,,,,,,,,,,,,,,,,,,,,,,,,,,,,,,,,,,,,,,,,,,,998.2841397002339,None,,,,,,,,,,,,,,,,,,,,,,,,,,,,,,,,,,,,,,,,,,,,,,,,,,,,,,,,,event,210,59,aloud,new,white,996.691866400186,None,n,996.691866400186,None,"['return', 'n', 'return']","[0.09531530039384961, 1.2154308003373444, 1.5512745999731123]",996.691866400186,None,,,29YE,001,2023_Mar_29_1523,ExactRep-v3-final,2021.2.3,59.95922769391484,
,,,,,,,,,,,,59,0,59,0,,,,,,,,,,,,,,,,,,,,,,,,,,,,,,,,,,,,,,,,,,,,,,,,,999.9858674998395,None,,,,,,,,,,,,,,,,,,,,,,,,,,,,,,,,,,,,,,,,,,,,,,,,,,,,,,,,,book,137,60,silent,new,red,998.7849699999206,None,n,998.7849699999206,None,"['n', 'return']","[0.8422554996795952, 1.1622624997980893]",998.7849699999206,None,,,29YE,001,2023_Mar_29_1523,ExactRep-v3-final,2021.2.3,59.95922769391484,
,,,,,,,,,,,,60,0,60,0,,,,,,,,,,,,,,,,,,,,,,,,,,,,,,,,,,,,,,,,,,,,,,,,,1001.6374210002832,None,,,,,,,,,,,,,,,,,,,,,,,,,,,,,,,,,,,,,,,,,,,,,,,,,,,,,,,,,author,179,61,sing,new,blue,1000.4952052002773,None,y,1000.4952052002773,None,"['y', 'return']","[0.8280528001487255, 1.1000159000977874]",1000.4952052002773,None,,,29YE,001,2023_Mar_29_1523,ExactRep-v3-final,2021.2.3,59.95922769391484,
,,,,,,,,,,,,61,0,61,0,,,,,,,,,,,,,,,,,,,,,,,,,,,,,,,,,,,,,,,,,,,,,,,,,1003.5559513000771,None,,,,,,,,,,,,,,,,,,,,,,,,,,,,,,,,,,,,,,,,,,,,,,,,,,,,,,,,,palace,50,62,silent,old,red,1002.1467287000269,None,y,1002.1467287000269,None,"['y', 'return']","[1.0885955998674035, 1.3764924998395145]",1002.1467287000269,None,,,29YE,001,2023_Mar_29_1523,ExactRep-v3-final,2021.2.3,59.95922769391484,
,,,,,,,,,,,,62,0,62,0,,,,,,,,,,,,,,,,,,,,,,,,,,,,,,,,,,,,,,,,,,,,,,,,,1005.6747950999998,None,,,,,,,,,,,,,,,,,,,,,,,,,,,,,,,,,,,,,,,,,,,,,,,,,,,,,,,,,car,183,63,sing,new,blue,1004.0640909001231,None,n,1004.0640909001231,None,"['n', 'return']","[1.2670988999307156, 1.5631276001222432]",1004.0640909001231,None,,,29YE,001,2023_Mar_29_1523,ExactRep-v3-final,2021.2.3,59.95922769391484,
,,,,,,,,,,,,63,0,63,0,,,,,,,,,,,,,,,,,,,,,,,,,,,,,,,,,,,,,,,,,,,,,,,,,1008.3442814000882,None,,,,,,,,,,,,,,,,,,,,,,,,,,,,,,,,,,,,,,,,,,,,,,,,,,,,,,,,,cotton,63,64,silent,old,red,1006.1849012002349,None,y,1006.1849012002349,None,"['y', 'return']","[1.8824126003310084, 2.1142246001400054]",1006.1849012002349,None,,,29YE,001,2023_Mar_29_1523,ExactRep-v3-final,2021.2.3,59.95922769391484,
,,,,,,,,,,,,64,0,64,0,,,,,,,,,,,,,,,,,,,,,,,,,,,,,,,,,,,,,,,,,,,,,,,,,1011.0802728999406,None,,,,,,,,,,,,,,,,,,,,,,,,,,,,,,,,,,,,,,,,,,,,,,,,,,,,,,,,,green,221,65,sing,new,blue,1008.8495085998438,None,n,1008.8495085998438,None,"['n', 'return']","[1.857663500122726, 2.193694000132382]",1008.8495085998438,None,,,29YE,001,2023_Mar_29_1523,ExactRep-v3-final,2021.2.3,59.95922769391484,
,,,,,,,,,,,,65,0,65,0,,,,,,,,,,,,,,,,,,,,,,,,,,,,,,,,,,,,,,,,,,,,,,,,,1012.815400400199,None,,,,,,,,,,,,,,,,,,,,,,,,,,,,,,,,,,,,,,,,,,,,,,,,,,,,,,,,,fate,186,66,aloud,new,white,1011.5928712999448,None,n,1011.5928712999448,None,"['n', 'return']","[0.8903207001276314, 1.1862344001419842]",1011.5928712999448,None,,,29YE,001,2023_Mar_29_1523,ExactRep-v3-final,2021.2.3,59.95922769391484,
,,,,,,,,,,,,66,0,66,0,,,,,,,,,,,,,,,,,,,,,,,,,,,,,,,,,,,,,,,,,,,,,,,,,1014.9674153998494,None,,,,,,,,,,,,,,,,,,,,,,,,,,,,,,,,,,,,,,,,,,,,,,,,,,,,,,,,,temple,10,67,sing,old,blue,1013.3277079002,None,n,1013.3277079002,None,"['n', 'return']","[1.3636030000634491, 1.5954446997493505]",1013.3277079002,None,,,29YE,001,2023_Mar_29_1523,ExactRep-v3-final,2021.2.3,59.95922769391484,
,,,,,,,,,,,,67,0,67,0,,,,,,,,,,,,,,,,,,,,,,,,,,,,,,,,,,,,,,,,,,,,,,,,,1016.5036085001193,None,,,,,,,,,,,,,,,,,,,,,,,,,,,,,,,,,,,,,,,,,,,,,,,,,,,,,,,,,wine,66,68,silent,old,red,1015.4802577998489,None,n,1015.4802577998489,None,"['n', 'return']","[0.6429661000147462, 0.9788768999278545]",1015.4802577998489,None,,,29YE,001,2023_Mar_29_1523,ExactRep-v3-final,2021.2.3,59.95922769391484,
,,,,,,,,,,,,68,0,68,0,,,,,,,,,,,,,,,,,,,,,,,,,,,,,,,,,,,,,,,,,,,,,,,,,1018.470921699889,None,,,,,,,,,,,,,,,,,,,,,,,,,,,,,,,,,,,,,,,,,,,,,,,,,,,,,,,,,vision,217,69,sing,new,blue,1017.0121380002238,None,y,1017.0121380002238,None,"['y', 'return']","[1.1030362998135388, 1.4150131000205874]",1017.0121380002238,None,,,29YE,001,2023_Mar_29_1523,ExactRep-v3-final,2021.2.3,59.95922769391484,
,,,,,,,,,,,,69,0,69,0,,,,,,,,,,,,,,,,,,,,,,,,,,,,,,,,,,,,,,,,,,,,,,,,,1019.9891762002371,None,,,,,,,,,,,,,,,,,,,,,,,,,,,,,,,,,,,,,,,,,,,,,,,,,,,,,,,,,student,88,70,aloud,old,white,1018.9746995000169,None,y,1018.9746995000169,None,"['y', 'return']","[0.6845740000717342, 0.980479400139302]",1018.9746995000169,None,,,29YE,001,2023_Mar_29_1523,ExactRep-v3-final,2021.2.3,59.95922769391484,
,,,,,,,,,,,,70,0,70,0,,,,,,,,,,,,,,,,,,,,,,,,,,,,,,,,,,,,,,,,,,,,,,,,,1021.7575377002358,None,,,,,,,,,,,,,,,,,,,,,,,,,,,,,,,,,,,,,,,,,,,,,,,,,,,,,,,,,length,100,71,aloud,old,white,1020.4926811000332,None,y,1020.4926811000332,None,"['y', 'return']","[0.9905141997151077, 1.2226084000431001]",1020.4926811000332,None,,,29YE,001,2023_Mar_29_1523,ExactRep-v3-final,2021.2.3,59.95922769391484,
,,,,,,,,,,,,71,0,71,0,,,,,,,,,,,,,,,,,,,,,,,,,,,,,,,,,,,,,,,,,,,,,,,,,1023.1589358998463,None,,,,,,,,,,,,,,,,,,,,,,,,,,,,,,,,,,,,,,,,,,,,,,,,,,,,,,,,,camp,86,72,aloud,old,white,1022.267363099847,None,y,1022.267363099847,None,"['y', 'return']","[0.5917007997632027, 0.8477672999724746]",1022.267363099847,None,,,29YE,001,2023_Mar_29_1523,ExactRep-v3-final,2021.2.3,59.95922769391484,
,,,,,,,,,,,,72,0,72,0,,,,,,,,,,,,,,,,,,,,,,,,,,,,,,,,,,,,,,,,,,,,,,,,,1024.710483000148,None,,,,,,,,,,,,,,,,,,,,,,,,,,,,,,,,,,,,,,,,,,,,,,,,,,,,,,,,,volume,212,73,aloud,new,white,1023.6772167999297,None,y,1023.6772167999297,None,"['y', 'return']","[0.7340150000527501, 0.9899311000481248]",1023.6772167999297,None,,,29YE,001,2023_Mar_29_1523,ExactRep-v3-final,2021.2.3,59.95922769391484,
,,,,,,,,,,,,73,0,73,0,,,,,,,,,,,,,,,,,,,,,,,,,,,,,,,,,,,,,,,,,,,,,,,,,1026.8461196999997,None,,,,,,,,,,,,,,,,,,,,,,,,,,,,,,,,,,,,,,,,,,,,,,,,,,,,,,,,,crime,227,74,sing,new,blue,1025.218823700212,None,n,1025.218823700212,None,"['n', 'return']","[1.2486138003878295, 1.5924344002269208]",1025.218823700212,None,,,29YE,001,2023_Mar_29_1523,ExactRep-v3-final,2021.2.3,59.95922769391484,
,,,,,,,,,,,,74,0,74,0,,,,,,,,,,,,,,,,,,,,,,,,,,,,,,,,,,,,,,,,,,,,,,,,,1030.149264700245,None,,,,,,,,,,,,,,,,,,,,,,,,,,,,,,,,,,,,,,,,,,,,,,,,,,,,,,,,,hope,38,75,sing,old,blue,1027.3557058000006,None,y,1027.3557058000006,None,"['y', 'return']","[2.583587299566716, 2.759540599770844]",1027.3557058000006,None,,,29YE,001,2023_Mar_29_1523,ExactRep-v3-final,2021.2.3,59.95922769391484,
,,,,,,,,,,,,75,0,75,0,,,,,,,,,,,,,,,,,,,,,,,,,,,,,,,,,,,,,,,,,,,,,,,,,1031.7843018001877,None,,,,,,,,,,,,,,,,,,,,,,,,,,,,,,,,,,,,,,,,,,,,,,,,,,,,,,,,,shadow,60,76,silent,old,red,1030.663732800167,None,y,1030.663732800167,None,"['y', 'return']","[0.8033654000610113, 1.083464200142771]",1030.663732800167,None,,,29YE,001,2023_Mar_29_1523,ExactRep-v3-final,2021.2.3,59.95922769391484,
,,,,,,,,,,,,76,0,76,0,,,,,,,,,,,,,,,,,,,,,,,,,,,,,,,,,,,,,,,,,,,,,,,,,1033.235675400123,None,,,,,,,,,,,,,,,,,,,,,,,,,,,,,,,,,,,,,,,,,,,,,,,,,,,,,,,,,heaven,54,77,silent,old,red,1032.292852899991,None,y,1032.292852899991,None,"['y', 'return']","[0.622376499697566, 0.9103596000932157]",1032.292852899991,None,,,29YE,001,2023_Mar_29_1523,ExactRep-v3-final,2021.2.3,59.95922769391484,
,,,,,,,,,,,,77,0,77,0,,,,,,,,,,,,,,,,,,,,,,,,,,,,,,,,,,,,,,,,,,,,,,,,,1034.5536608002149,None,,,,,,,,,,,,,,,,,,,,,,,,,,,,,,,,,,,,,,,,,,,,,,,,,,,,,,,,,love,108,78,aloud,old,white,1033.7361837001517,None,y,1033.7361837001517,None,"['y', 'return']","[0.49103099992498755, 0.7790520996786654]",1033.7361837001517,None,,,29YE,001,2023_Mar_29_1523,ExactRep-v3-final,2021.2.3,59.95922769391484,
,,,,,,,,,,,,78,0,78,0,,,,,,,,,,,,,,,,,,,,,,,,,,,,,,,,,,,,,,,,,,,,,,,,,1035.9050296000205,None,,,,,,,,,,,,,,,,,,,,,,,,,,,,,,,,,,,,,,,,,,,,,,,,,,,,,,,,,prison,80,79,aloud,old,white,1035.0634043999016,None,y,1035.0634043999016,None,"['y', 'return']","[0.556144000031054, 0.7958856001496315]",1035.0634043999016,None,,,29YE,001,2023_Mar_29_1523,ExactRep-v3-final,2021.2.3,59.95922769391484,
,,,,,,,,,,,,79,0,79,0,,,,,,,,,,,,,,,,,,,,,,,,,,,,,,,,,,,,,,,,,,,,,,,,,1037.8903402001597,None,,,,,,,,,,,,,,,,,,,,,,,,,,,,,,,,,,,,,,,,,,,,,,,,,,,,,,,,,flag,17,80,sing,old,blue,1036.4165484998375,None,n,1036.4165484998375,None,"['n', 'return']","[1.0106275002472103, 1.4267020002007484]",1036.4165484998375,None,,,29YE,001,2023_Mar_29_1523,ExactRep-v3-final,2021.2.3,59.95922769391484,
,,,,,,,,,,,,80,0,80,0,,,,,,,,,,,,,,,,,,,,,,,,,,,,,,,,,,,,,,,,,,,,,,,,,1039.9257677998394,None,,,,,,,,,,,,,,,,,,,,,,,,,,,,,,,,,,,,,,,,,,,,,,,,,,,,,,,,,wheat,14,81,sing,old,blue,1038.3943448001519,None,n,1038.3943448001519,None,"['n', 'return']","[1.2007276001386344, 1.496803100220859]",1038.3943448001519,None,,,29YE,001,2023_Mar_29_1523,ExactRep-v3-final,2021.2.3,59.95922769391484,
,,,,,,,,,,,,81,0,81,0,,,,,,,,,,,,,,,,,,,,,,,,,,,,,,,,,,,,,,,,,,,,,,,,,1042.4784134998918,None,,,,,,,,,,,,,,,,,,,,,,,,,,,,,,,,,,,,,,,,,,,,,,,,,,,,,,,,,earth,239,82,sing,new,blue,1040.4332713000476,None,n,1040.4332713000476,None,"['n', 'return']","[1.6580640999600291, 2.0019702999852598]",1040.4332713000476,None,,,29YE,001,2023_Mar_29_1523,ExactRep-v3-final,2021.2.3,59.95922769391484,
,,,,,,,,,,,,82,0,82,0,,,,,,,,,,,,,,,,,,,,,,,,,,,,,,,,,,,,,,,,,,,,,,,,,1048.3841675999574,None,,,,,,,,,,,,,,,,,,,,,,,,,,,,,,,,,,,,,,,,,,,,,,,,,,,,,,,,,trouble,204,83,aloud,new,white,1042.9906703000888,None,n,1042.9906703000888,None,"['return', 'n', 'return']","[0.14063559984788299, 5.068555099889636, 5.356594500131905]",1042.9906703000888,None,,,29YE,001,2023_Mar_29_1523,ExactRep-v3-final,2021.2.3,59.95922769391484,
,,,,,,,,,,,,83,0,83,0,,,,,,,,,,,,,,,,,,,,,,,,,,,,,,,,,,,,,,,,,,,,,,,,,1050.169241500087,None,,,,,,,,,,,,,,,,,,,,,,,,,,,,,,,,,,,,,,,,,,,,,,,,,,,,,,,,,pupil,87,84,aloud,old,white,1048.8898009001277,None,y,1048.8898009001277,None,"['y', 'return']","[1.0255291000939906, 1.2335290000773966]",1048.8898009001277,None,,,29YE,001,2023_Mar_29_1523,ExactRep-v3-final,2021.2.3,59.95922769391484,
,,,,,,,,,,,,84,0,84,0,,,,,,,,,,,,,,,,,,,,,,,,,,,,,,,,,,,,,,,,,,,,,,,,,1052.1045582001098,None,,,,,,,,,,,,,,,,,,,,,,,,,,,,,,,,,,,,,,,,,,,,,,,,,,,,,,,,,bird,70,85,silent,old,red,1050.6758146001957,None,n,1050.6758146001957,None,"['n', 'return']","[1.0955322002992034, 1.383480700198561]",1050.6758146001957,None,,,29YE,001,2023_Mar_29_1523,ExactRep-v3-final,2021.2.3,59.95922769391484,
,,,,,,,,,,,,85,0,85,0,,,,,,,,,,,,,,,,,,,,,,,,,,,,,,,,,,,,,,,,,,,,,,,,,1054.4736731001176,None,,,,,,,,,,,,,,,,,,,,,,,,,,,,,,,,,,,,,,,,,,,,,,,,,,,,,,,,,body,20,86,sing,old,blue,1052.6161801000126,None,y,1052.6161801000126,None,"['y', 'return']","[1.5389956999570131, 1.8190927999094129]",1052.6161801000126,None,,,29YE,001,2023_Mar_29_1523,ExactRep-v3-final,2021.2.3,59.95922769391484,
,,,,,,,,,,,,86,0,86,0,,,,,,,,,,,,,,,,,,,,,,,,,,,,,,,,,,,,,,,,,,,,,,,,,1058.844565300271,None,,,,,,,,,,,,,,,,,,,,,,,,,,,,,,,,,,,,,,,,,,,,,,,,,,,,,,,,,chair,40,87,silent,old,red,1054.9785441998392,None,y,1054.9785441998392,None,"['n', 'y', 'y', 'backspace', 'y', 'return']","[1.0650875000283122, 2.256793700158596, 2.6885835002176464, 3.3608313002623618, 3.4650437999516726, 3.8246992002241313]",1054.9785441998392,None,,,29YE,001,2023_Mar_29_1523,ExactRep-v3-final,2021.2.3,59.95922769391484,
,,,,,,,,,,,,87,0,87,0,,,,,,,,,,,,,,,,,,,,,,,,,,,,,,,,,,,,,,,,,,,,,,,,,1060.579867400229,None,,,,,,,,,,,,,,,,,,,,,,,,,,,,,,,,,,,,,,,,,,,,,,,,,,,,,,,,,vessel,196,88,aloud,new,white,1059.3545527998358,None,n,1059.3545527998358,None,"['n', 'return']","[0.864726500120014, 1.1847534999251366]",1059.3545527998358,None,,,29YE,001,2023_Mar_29_1523,ExactRep-v3-final,2021.2.3,59.95922769391484,
,,,,,,,,,,,,88,0,88,0,,,,,,,,,,,,,,,,,,,,,,,,,,,,,,,,,,,,,,,,,,,,,,,,,1062.431744299829,None,,,,,,,,,,,,,,,,,,,,,,,,,,,,,,,,,,,,,,,,,,,,,,,,,,,,,,,,,flesh,2,89,sing,old,blue,1061.0901774000376,None,y,1061.0901774000376,None,"['y', 'return']","[1.033167399931699, 1.297040400095284]",1061.0901774000376,None,,,29YE,001,2023_Mar_29_1523,ExactRep-v3-final,2021.2.3,59.95922769391484,
,,,,,,,,,,,,89,0,89,0,,,,,,,,,,,,,,,,,,,,,,,,,,,,,,,,,,,,,,,,,,,,,,,,,1064.883985800203,None,,,,,,,,,,,,,,,,,,,,,,,,,,,,,,,,,,,,,,,,,,,,,,,,,,,,,,,,,city,207,90,sing,new,blue,1062.9413904999383,None,n,1062.9413904999383,None,"['return', 'n', 'return']","[0.0939863002859056, 1.509941500145942, 1.909966400358826]",1062.9413904999383,None,,,29YE,001,2023_Mar_29_1523,ExactRep-v3-final,2021.2.3,59.95922769391484,
,,,,,,,,,,,,90,0,90,0,,,,,,,,,,,,,,,,,,,,,,,,,,,,,,,,,,,,,,,,,,,,,,,,,1066.3688181000762,None,,,,,,,,,,,,,,,,,,,,,,,,,,,,,,,,,,,,,,,,,,,,,,,,,,,,,,,,,maiden,30,91,sing,old,blue,1065.3923777998425,None,y,1065.3923777998425,None,"['y', 'return']","[0.6590030998922884, 0.9308931999839842]",1065.3923777998425,None,,,29YE,001,2023_Mar_29_1523,ExactRep-v3-final,2021.2.3,59.95922769391484,
,,,,,,,,,,,,91,0,91,0,,,,,,,,,,,,,,,,,,,,,,,,,,,,,,,,,,,,,,,,,,,,,,,,,1072.2582295001484,None,,,,,,,,,,,,,,,,,,,,,,,,,,,,,,,,,,,,,,,,,,,,,,,,,,,,,,,,,gift,223,92,sing,new,blue,1066.8763254000805,None,n,1066.8763254000805,None,"['n', 'return']","[5.079025799874216, 5.342990099918097]",1066.8763254000805,None,,,29YE,001,2023_Mar_29_1523,ExactRep-v3-final,2021.2.3,59.95922769391484,
,,,,,,,,,,,,92,0,92,0,,,,,,,,,,,,,,,,,,,,,,,,,,,,,,,,,,,,,,,,,,,,,,,,,1074.0933672999963,None,,,,,,,,,,,,,,,,,,,,,,,,,,,,,,,,,,,,,,,,,,,,,,,,,,,,,,,,,college,133,93,silent,new,red,1072.7688553002663,None,n,1072.7688553002663,None,"['n', 'return']","[1.0585711998865008, 1.2905240003019571]",1072.7688553002663,None,,,29YE,001,2023_Mar_29_1523,ExactRep-v3-final,2021.2.3,59.95922769391484,
,,,,,,,,,,,,93,0,93,0,,,,,,,,,,,,,,,,,,,,,,,,,,,,,,,,,,,,,,,,,,,,,,,,,1075.946150700096,None,,,,,,,,,,,,,,,,,,,,,,,,,,,,,,,,,,,,,,,,,,,,,,,,,,,,,,,,,wife,162,94,aloud,new,white,1074.6047137998976,None,n,1074.6047137998976,None,"['n', 'return']","[0.8945741001516581, 1.2946660001762211]",1074.6047137998976,None,,,29YE,001,2023_Mar_29_1523,ExactRep-v3-final,2021.2.3,59.95922769391484,
,,,,,,,,,,,,94,0,94,0,,,,,,,,,,,,,,,,,,,,,,,,,,,,,,,,,,,,,,,,,,,,,,,,,1077.3131126002409,None,,,,,,,,,,,,,,,,,,,,,,,,,,,,,,,,,,,,,,,,,,,,,,,,,,,,,,,,,library,110,95,aloud,old,white,1076.4541333001107,None,y,1076.4541333001107,None,"['y', 'return']","[0.605162600055337, 0.8212349996902049]",1076.4541333001107,None,,,29YE,001,2023_Mar_29_1523,ExactRep-v3-final,2021.2.3,59.95922769391484,
,,,,,,,,,,,,95,0,95,0,,,,,,,,,,,,,,,,,,,,,,,,,,,,,,,,,,,,,,,,,,,,,,,,,1078.964765300043,None,,,,,,,,,,,,,,,,,,,,,,,,,,,,,,,,,,,,,,,,,,,,,,,,,,,,,,,,,nail,106,96,aloud,old,white,1077.8206449998543,None,y,1077.8206449998543,None,"['y', 'return']","[0.8547469000332057, 1.1105672996491194]",1077.8206449998543,None,,,29YE,001,2023_Mar_29_1523,ExactRep-v3-final,2021.2.3,59.95922769391484,
,,,,,,,,,,,,96,0,96,0,,,,,,,,,,,,,,,,,,,,,,,,,,,,,,,,,,,,,,,,,,,,,,,,,1080.9500921000727,None,,,,,,,,,,,,,,,,,,,,,,,,,,,,,,,,,,,,,,,,,,,,,,,,,,,,,,,,,officer,190,97,aloud,new,white,1079.4747544000857,None,n,1079.4747544000857,None,"['n', 'return']","[1.1044802996329963, 1.4324697996489704]",1079.4747544000857,None,,,29YE,001,2023_Mar_29_1523,ExactRep-v3-final,2021.2.3,59.95922769391484,
,,,,,,,,,,,,97,0,97,0,,,,,,,,,,,,,,,,,,,,,,,,,,,,,,,,,,,,,,,,,,,,,,,,,1083.1023682001978,None,,,,,,,,,,,,,,,,,,,,,,,,,,,,,,,,,,,,,,,,,,,,,,,,,,,,,,,,,speech,130,98,silent,new,red,1081.4587142001837,None,n,1081.4587142001837,None,"['n', 'return']","[1.3685194998979568, 1.6085961000062525]",1081.4587142001837,None,,,29YE,001,2023_Mar_29_1523,ExactRep-v3-final,2021.2.3,59.95922769391484,
,,,,,,,,,,,,98,0,98,0,,,,,,,,,,,,,,,,,,,,,,,,,,,,,,,,,,,,,,,,,,,,,,,,,1085.3544852002524,None,,,,,,,,,,,,,,,,,,,,,,,,,,,,,,,,,,,,,,,,,,,,,,,,,,,,,,,,,blood,4,99,sing,old,blue,1083.606385299936,None,y,1083.606385299936,None,"['y', 'return']","[1.3890587999485433, 1.7009507999755442]",1083.606385299936,None,,,29YE,001,2023_Mar_29_1523,ExactRep-v3-final,2021.2.3,59.95922769391484,
,,,,,,,,,,,,99,0,99,0,,,,,,,,,,,,,,,,,,,,,,,,,,,,,,,,,,,,,,,,,,,,,,,,,1087.5068812998943,None,,,,,,,,,,,,,,,,,,,,,,,,,,,,,,,,,,,,,,,,,,,,,,,,,,,,,,,,,pole,230,100,aloud,new,white,1085.8644881001674,None,n,1085.8644881001674,None,"['n', 'return']","[1.3308780998922884, 1.6029055998660624]",1085.8644881001674,None,,,29YE,001,2023_Mar_29_1523,ExactRep-v3-final,2021.2.3,59.95922769391484,
,,,,,,,,,,,,100,0,100,0,,,,,,,,,,,,,,,,,,,,,,,,,,,,,,,,,,,,,,,,,,,,,,,,,1088.974749600049,None,,,,,,,,,,,,,,,,,,,,,,,,,,,,,,,,,,,,,,,,,,,,,,,,,,,,,,,,,potato,89,101,aloud,old,white,1088.0219430001453,None,y,1088.0219430001453,None,"['y', 'return']","[0.6053059003315866, 0.9173828000202775]",1088.0219430001453,None,,,29YE,001,2023_Mar_29_1523,ExactRep-v3-final,2021.2.3,59.95922769391484,
,,,,,,,,,,,,101,0,101,0,,,,,,,,,,,,,,,,,,,,,,,,,,,,,,,,,,,,,,,,,,,,,,,,,1090.8934144000523,None,,,,,,,,,,,,,,,,,,,,,,,,,,,,,,,,,,,,,,,,,,,,,,,,,,,,,,,,,artist,185,102,sing,new,blue,1089.4835785999894,None,n,1089.4835785999894,None,"['n', 'return']","[1.0956655000336468, 1.3677141997031868]",1089.4835785999894,None,,,29YE,001,2023_Mar_29_1523,ExactRep-v3-final,2021.2.3,59.95922769391484,
,,,,,,,,,,,,102,0,102,0,,,,,,,,,,,,,,,,,,,,,,,,,,,,,,,,,,,,,,,,,,,,,,,,,1092.5783615000546,None,,,,,,,,,,,,,,,,,,,,,,,,,,,,,,,,,,,,,,,,,,,,,,,,,,,,,,,,,ability,114,103,aloud,old,white,1091.4045577999204,None,y,1091.4045577999204,None,"['y', 'return']","[0.8867386998608708, 1.134814899880439]",1091.4045577999204,None,,,29YE,001,2023_Mar_29_1523,ExactRep-v3-final,2021.2.3,59.95922769391484,
,,,,,,,,,,,,103,0,103,0,,,,,,,,,,,,,,,,,,,,,,,,,,,,,,,,,,,,,,,,,,,,,,,,,1094.263531200122,None,,,,,,,,,,,,,,,,,,,,,,,,,,,,,,,,,,,,,,,,,,,,,,,,,,,,,,,,,victory,150,104,silent,new,red,1093.0886049000546,None,y,1093.0886049000546,None,"['y', 'return']","[0.8427069000899792, 1.1387633001431823]",1093.0886049000546,None,,,29YE,001,2023_Mar_29_1523,ExactRep-v3-final,2021.2.3,59.95922769391484,
,,,,,,,,,,,,104,0,104,0,,,,,,,,,,,,,,,,,,,,,,,,,,,,,,,,,,,,,,,,,,,,,,,,,1096.0651524001732,None,,,,,,,,,,,,,,,,,,,,,,,,,,,,,,,,,,,,,,,,,,,,,,,,,,,,,,,,,ticket,178,105,aloud,new,white,1094.7748283999972,None,n,1094.7748283999972,None,"['n', 'return']","[0.9325031000189483, 1.252581600099802]",1094.7748283999972,None,,,29YE,001,2023_Mar_29_1523,ExactRep-v3-final,2021.2.3,59.95922769391484,
,,,,,,,,,,,,105,0,105,0,,,,,,,,,,,,,,,,,,,,,,,,,,,,,,,,,,,,,,,,,,,,,,,,,1097.766884600278,None,,,,,,,,,,,,,,,,,,,,,,,,,,,,,,,,,,,,,,,,,,,,,,,,,,,,,,,,,coast,123,106,silent,new,red,1096.5760755999945,None,n,1096.5760755999945,None,"['n', 'return']","[0.8352884002961218, 1.1554050003178418]",1096.5760755999945,None,,,29YE,001,2023_Mar_29_1523,ExactRep-v3-final,2021.2.3,59.95922769391484,
,,,,,,,,,,,,106,0,106,0,,,,,,,,,,,,,,,,,,,,,,,,,,,,,,,,,,,,,,,,,,,,,,,,,1100.5029461001977,None,,,,,,,,,,,,,,,,,,,,,,,,,,,,,,,,,,,,,,,,,,,,,,,,,,,,,,,,,diamond,177,107,sing,new,blue,1098.277586299926,None,y,1098.277586299926,None,"['y', 'return']","[1.8936517001129687, 2.189701100345701]",1098.277586299926,None,,,29YE,001,2023_Mar_29_1523,ExactRep-v3-final,2021.2.3,59.95922769391484,
,,,,,,,,,,,,107,0,107,0,,,,,,,,,,,,,,,,,,,,,,,,,,,,,,,,,,,,,,,,,,,,,,,,,1102.9053469002247,None,,,,,,,,,,,,,,,,,,,,,,,,,,,,,,,,,,,,,,,,,,,,,,,,,,,,,,,,,person,200,108,aloud,new,white,1101.012969000265,None,n,1101.012969000265,None,"['n', 'return']","[1.4304671003483236, 1.8463771003298461]",1101.012969000265,None,,,29YE,001,2023_Mar_29_1523,ExactRep-v3-final,2021.2.3,59.95922769391484,
,,,,,,,,,,,,108,0,108,0,,,,,,,,,,,,,,,,,,,,,,,,,,,,,,,,,,,,,,,,,,,,,,,,,1104.306790899951,None,,,,,,,,,,,,,,,,,,,,,,,,,,,,,,,,,,,,,,,,,,,,,,,,,,,,,,,,,science,119,109,aloud,old,white,1103.4159810999408,None,y,1103.4159810999408,None,"['y', 'return']","[0.5792034999467432, 0.8513404000550508]",1103.4159810999408,None,,,29YE,001,2023_Mar_29_1523,ExactRep-v3-final,2021.2.3,59.95922769391484,
,,,,,,,,,,,,109,0,109,0,,,,,,,,,,,,,,,,,,,,,,,,,,,,,,,,,,,,,,,,,,,,,,,,,1106.2753989999183,None,,,,,,,,,,,,,,,,,,,,,,,,,,,,,,,,,,,,,,,,,,,,,,,,,,,,,,,,,seat,205,110,sing,new,blue,1104.8168974001892,None,n,1104.8168974001892,None,"['n', 'return']","[1.122736900113523, 1.4264229000546038]",1104.8168974001892,None,,,29YE,001,2023_Mar_29_1523,ExactRep-v3-final,2021.2.3,59.95922769391484,
,,,,,,,,,,,,110,0,110,0,,,,,,,,,,,,,,,,,,,,,,,,,,,,,,,,,,,,,,,,,,,,,,,,,1107.9436302999966,None,,,,,,,,,,,,,,,,,,,,,,,,,,,,,,,,,,,,,,,,,,,,,,,,,,,,,,,,,disease,188,111,aloud,new,white,1106.7852310002781,None,n,1106.7852310002781,None,"['n', 'return']","[0.8740568999201059, 1.1219223998486996]",1106.7852310002781,None,,,29YE,001,2023_Mar_29_1523,ExactRep-v3-final,2021.2.3,59.95922769391484,
,,,,,,,,,,,,111,0,111,0,,,,,,,,,,,,,,,,,,,,,,,,,,,,,,,,,,,,,,,,,,,,,,,,,1109.7791585000232,None,,,,,,,,,,,,,,,,,,,,,,,,,,,,,,,,,,,,,,,,,,,,,,,,,,,,,,,,,metal,149,112,silent,new,red,1108.4551921999082,None,y,1108.4551921999082,None,"['y', 'return']","[0.9881664998829365, 1.2841258998960257]",1108.4551921999082,None,,,29YE,001,2023_Mar_29_1523,ExactRep-v3-final,2021.2.3,59.95922769391484,
,,,,,,,,,,,,112,0,112,0,,,,,,,,,,,,,,,,,,,,,,,,,,,,,,,,,,,,,,,,,,,,,,,,,1112.1312536001205,None,,,,,,,,,,,,,,,,,,,,,,,,,,,,,,,,,,,,,,,,,,,,,,,,,,,,,,,,,queen,75,113,silent,old,red,1110.2879555001855,None,n,1110.2879555001855,None,"['n', 'return']","[1.5554970996454358, 1.8113541998900473]",1110.2879555001855,None,,,29YE,001,2023_Mar_29_1523,ExactRep-v3-final,2021.2.3,59.95922769391484,
,,,,,,,,,,,,113,0,113,0,,,,,,,,,,,,,,,,,,,,,,,,,,,,,,,,,,,,,,,,,,,,,,,,,1113.933179799933,None,,,,,,,,,,,,,,,,,,,,,,,,,,,,,,,,,,,,,,,,,,,,,,,,,,,,,,,,,owner,213,114,sing,new,blue,1112.6379458000883,None,n,1112.6379458000883,None,"['n', 'return']","[1.0054020001553, 1.2613289998844266]",1112.6379458000883,None,,,29YE,001,2023_Mar_29_1523,ExactRep-v3-final,2021.2.3,59.95922769391484,
,,,,,,,,,,,,114,0,114,0,,,,,,,,,,,,,,,,,,,,,,,,,,,,,,,,,,,,,,,,,,,,,,,,,1115.4848323999904,None,,,,,,,,,,,,,,,,,,,,,,,,,,,,,,,,,,,,,,,,,,,,,,,,,,,,,,,,,cost,153,115,silent,new,red,1114.438512600027,None,n,1114.438512600027,None,"['n', 'return']","[0.7569673997350037, 1.0128421001136303]",1114.438512600027,None,,,29YE,001,2023_Mar_29_1523,ExactRep-v3-final,2021.2.3,59.95922769391484,
,,,,,,,,,,,,115,0,115,0,,,,,,,,,,,,,,,,,,,,,,,,,,,,,,,,,,,,,,,,,,,,,,,,,1117.5033662002534,None,,,,,,,,,,,,,,,,,,,,,,,,,,,,,,,,,,,,,,,,,,,,,,,,,,,,,,,,,advice,224,116,aloud,new,white,1115.994943300262,None,n,1115.994943300262,None,"['n', 'return']","[1.2803893997333944, 1.464325999841094]",1115.994943300262,None,,,29YE,001,2023_Mar_29_1523,ExactRep-v3-final,2021.2.3,59.95922769391484,
,,,,,,,,,,,,116,0,116,0,,,,,,,,,,,,,,,,,,,,,,,,,,,,,,,,,,,,,,,,,,,,,,,,,1118.921460499987,None,,,,,,,,,,,,,,,,,,,,,,,,,,,,,,,,,,,,,,,,,,,,,,,,,,,,,,,,,grief,53,117,silent,old,red,1118.014009800274,None,y,1118.014009800274,None,"['y', 'return']","[0.6134685999713838, 0.8613005001097918]",1118.014009800274,None,,,29YE,001,2023_Mar_29_1523,ExactRep-v3-final,2021.2.3,59.95922769391484,
,,,,,,,,,,,,117,0,117,0,,,,,,,,,,,,,,,,,,,,,,,,,,,,,,,,,,,,,,,,,,,,,,,,,1120.4562351000495,None,,,,,,,,,,,,,,,,,,,,,,,,,,,,,,,,,,,,,,,,,,,,,,,,,,,,,,,,,shoes,90,118,aloud,old,white,1119.434235200286,None,y,1119.434235200286,None,"['y', 'return']","[0.7369770999066532, 0.9850973999127746]",1119.434235200286,None,,,29YE,001,2023_Mar_29_1523,ExactRep-v3-final,2021.2.3,59.95922769391484,
,,,,,,,,,,,,118,0,118,0,,,,,,,,,,,,,,,,,,,,,,,,,,,,,,,,,,,,,,,,,,,,,,,,,1121.8577491999604,None,,,,,,,,,,,,,,,,,,,,,,,,,,,,,,,,,,,,,,,,,,,,,,,,,,,,,,,,,dawn,7,119,sing,old,blue,1120.9689211999066,None,y,1120.9689211999066,None,"['y', 'return']","[0.5864759995602071, 0.8504044995643198]",1120.9689211999066,None,,,29YE,001,2023_Mar_29_1523,ExactRep-v3-final,2021.2.3,59.95922769391484,
,,,,,,,,,,,,119,0,119,0,,,,,,,,,,,,,,,,,,,,,,,,,,,,,,,,,,,,,,,,,,,,,,,,,1123.7267948002554,None,,,,,,,,,,,,,,,,,,,,,,,,,,,,,,,,,,,,,,,,,,,,,,,,,,,,,,,,,poet,208,120,aloud,new,white,1122.3681946001016,None,n,1122.3681946001016,None,"['n', 'return']","[1.0352296000346541, 1.315155299846083]",1122.3681946001016,None,,,29YE,001,2023_Mar_29_1523,ExactRep-v3-final,2021.2.3,59.95922769391484,
,,,,,,,,,,,,120,0,120,0,,,,,,,,,,,,,,,,,,,,,,,,,,,,,,,,,,,,,,,,,,,,,,,,,1125.3280024998821,None,,,,,,,,,,,,,,,,,,,,,,,,,,,,,,,,,,,,,,,,,,,,,,,,,,,,,,,,,house,222,121,aloud,new,white,1124.2361416001804,None,n,1124.2361416001804,None,"['n', 'return']","[0.8153105000965297, 1.0471063000150025]",1124.2361416001804,None,,,29YE,001,2023_Mar_29_1523,ExactRep-v3-final,2021.2.3,59.95922769391484,
,,,,,,,,,,,,121,0,121,0,,,,,,,,,,,,,,,,,,,,,,,,,,,,,,,,,,,,,,,,,,,,,,,,,1126.7459366000257,None,,,,,,,,,,,,,,,,,,,,,,,,,,,,,,,,,,,,,,,,,,,,,,,,,,,,,,,,,priest,202,122,aloud,new,white,1125.8385842000134,None,n,1125.8385842000134,None,"['n', 'return']","[0.596705500036478, 0.8687530001625419]",1125.8385842000134,None,,,29YE,001,2023_Mar_29_1523,ExactRep-v3-final,2021.2.3,59.95922769391484,
,,,,,,,,,,,,122,0,122,0,,,,,,,,,,,,,,,,,,,,,,,,,,,,,,,,,,,,,,,,,,,,,,,,,1130.2328820000403,None,,,,,,,,,,,,,,,,,,,,,,,,,,,,,,,,,,,,,,,,,,,,,,,,,,,,,,,,,hour,142,123,silent,new,red,1127.2529795998707,None,n,1127.2529795998707,None,"['n', 'return']","[2.774411499965936, 2.9345996999181807]",1127.2529795998707,None,,,29YE,001,2023_Mar_29_1523,ExactRep-v3-final,2021.2.3,59.95922769391484,
,,,,,,,,,,,,123,0,123,0,,,,,,,,,,,,,,,,,,,,,,,,,,,,,,,,,,,,,,,,,,,,,,,,,1131.7510258001275,None,,,,,,,,,,,,,,,,,,,,,,,,,,,,,,,,,,,,,,,,,,,,,,,,,,,,,,,,,coffee,164,124,aloud,new,white,1130.7458283002488,None,n,1130.7458283002488,None,"['n', 'return']","[0.7456046999432147, 0.9695926997810602]",1130.7458283002488,None,,,29YE,001,2023_Mar_29_1523,ExactRep-v3-final,2021.2.3,59.95922769391484,
,,,,,,,,,,,,124,0,124,0,,,,,,,,,,,,,,,,,,,,,,,,,,,,,,,,,,,,,,,,,,,,,,,,,1133.2691418998875,None,,,,,,,,,,,,,,,,,,,,,,,,,,,,,,,,,,,,,,,,,,,,,,,,,,,,,,,,,truth,112,125,aloud,old,white,1132.2578289001249,None,y,1132.2578289001249,None,"['y', 'return']","[0.7134541999548674, 0.9774760999716818]",1132.2578289001249,None,,,29YE,001,2023_Mar_29_1523,ExactRep-v3-final,2021.2.3,59.95922769391484,
,,,,,,,,,,,,125,0,125,0,,,,,,,,,,,,,,,,,,,,,,,,,,,,,,,,,,,,,,,,,,,,,,,,,1134.7874552998692,None,,,,,,,,,,,,,,,,,,,,,,,,,,,,,,,,,,,,,,,,,,,,,,,,,,,,,,,,,square,118,126,aloud,old,white,1133.7774155000225,None,n,1133.7774155000225,None,"['n', 'return']","[0.7059113997966051, 0.9699033997021616]",1133.7774155000225,None,,,29YE,001,2023_Mar_29_1523,ExactRep-v3-final,2021.2.3,59.95922769391484,
,,,,,,,,,,,,126,0,126,0,,,,,,,,,,,,,,,,,,,,,,,,,,,,,,,,,,,,,,,,,,,,,,,,,1136.1719522001222,None,,,,,,,,,,,,,,,,,,,,,,,,,,,,,,,,,,,,,,,,,,,,,,,,,,,,,,,,,method,43,127,silent,old,red,1135.303858499974,None,y,1135.303858499974,None,"['y', 'return']","[0.5234370999969542, 0.8354035001248121]",1135.303858499974,None,,,29YE,001,2023_Mar_29_1523,ExactRep-v3-final,2021.2.3,59.95922769391484,
,,,,,,,,,,,,127,0,127,0,,,,,,,,,,,,,,,,,,,,,,,,,,,,,,,,,,,,,,,,,,,,,,,,,1137.873666500207,None,,,,,,,,,,,,,,,,,,,,,,,,,,,,,,,,,,,,,,,,,,,,,,,,,,,,,,,,,dress,92,128,aloud,old,white,1136.6880947998725,None,y,1136.6880947998725,None,"['y', 'return']","[0.8672000002115965, 1.1473078997805715]",1136.6880947998725,None,,,29YE,001,2023_Mar_29_1523,ExactRep-v3-final,2021.2.3,59.95922769391484,
,,,,,,,,,,,,128,0,128,0,,,,,,,,,,,,,,,,,,,,,,,,,,,,,,,,,,,,,,,,,,,,,,,,,1139.2750682998449,None,,,,,,,,,,,,,,,,,,,,,,,,,,,,,,,,,,,,,,,,,,,,,,,,,,,,,,,,,mercy,29,129,sing,old,blue,1138.3808222999796,None,y,1138.3808222999796,None,"['y', 'return']","[0.622660499997437, 0.862527399789542]",1138.3808222999796,None,,,29YE,001,2023_Mar_29_1523,ExactRep-v3-final,2021.2.3,59.95922769391484,
,,,,,,,,,,,,129,0,129,0,,,,,,,,,,,,,,,,,,,,,,,,,,,,,,,,,,,,,,,,,,,,,,,,,1140.6264518001117,None,,,,,,,,,,,,,,,,,,,,,,,,,,,,,,,,,,,,,,,,,,,,,,,,,,,,,,,,,fortune,98,130,aloud,old,white,1139.7841068999842,None,y,1139.7841068999842,None,"['y', 'return']","[0.5632911999709904, 0.7953045000322163]",1139.7841068999842,None,,,29YE,001,2023_Mar_29_1523,ExactRep-v3-final,2021.2.3,59.95922769391484,
,,,,,,,,,,,,130,0,130,0,,,,,,,,,,,,,,,,,,,,,,,,,,,,,,,,,,,,,,,,,,,,,,,,,1141.8609656002373,None,,,,,,,,,,,,,,,,,,,,,,,,,,,,,,,,,,,,,,,,,,,,,,,,,,,,,,,,,cabin,35,131,sing,old,blue,1141.1361159002408,None,y,1141.1361159002408,None,"['y', 'return']","[0.4671681998297572, 0.6831935001537204]",1141.1361159002408,None,,,29YE,001,2023_Mar_29_1523,ExactRep-v3-final,2021.2.3,59.95922769391484,
