trials_fam.thisRepN,trials_fam.thisTrialN,trials_fam.thisN,trials_fam.thisIndex,trials_prc.thisRepN,trials_prc.thisTrialN,trials_prc.thisN,trials_prc.thisIndex,StudyLoop.thisRepN,StudyLoop.thisTrialN,StudyLoop.thisN,StudyLoop.thisIndex,TestLoop.thisRepN,TestLoop.thisTrialN,TestLoop.thisN,TestLoop.thisIndex,text_colortest.started,text_colortest.stopped,key_colortest.keys,key_colortest.rt,key_colortest.started,key_colortest.stopped,textCondition.started,textCondition.stopped,keyCondition.keys,keyCondition.rt,keyCondition.started,keyCondition.stopped,Condition_between,Condition_counterbal,keyWelcome.keys,keyWelcome.rt,keyWelcome.started,keyWelcome.stopped,welcome_a.started,welcome_a.stopped,welcome_b.started,welcome_b.stopped,welcome_c.started,welcome_c.stopped,welcome_d.started,welcome_d.stopped,welcome_e.started,welcome_e.stopped,welcome_f.started,welcome_f.stopped,key_resp_fam_inst.keys,key_resp_fam_inst.rt,key_resp_fam_inst.started,key_resp_fam_inst.stopped,fam_a.started,fam_a.stopped,fam_b.started,fam_b.stopped,fam_c.started,fam_c.stopped,fam_d.started,fam_d.stopped,fam_e.started,fam_e.stopped,fam_f.started,fam_f.stopped,text_famil.started,text_famil.stopped,textBlank500.started,textBlank500.stopped,key_resp_prc_inst.keys,key_resp_prc_inst.rt,key_resp_prc_inst.started,key_resp_prc_inst.stopped,prac_a.started,prac_a.stopped,prac_b.started,prac_b.stopped,prac_c.started,prac_c.stopped,prac_d.started,prac_d.stopped,prac_e.started,prac_e.stopped,prac_f.started,prac_f.stopped,text_prc_trial.started,text_prc_trial.stopped,key_resp_study_inst.keys,key_resp_study_inst.rt,key_resp_study_inst.started,key_resp_study_inst.stopped,crit_a.started,crit_a.stopped,crit_b.started,crit_b.stopped,crit_c.started,crit_c.stopped,crit_d.started,crit_d.stopped,crit_e.started,crit_e.stopped,crit_f.started,crit_f.stopped,study_word,study_num,study_order,study_type,word_color,textStudy.started,textStudy.stopped,keyStudy.keys,keyStudy.started,keyStudy.stopped,post_study.started,post_study.stopped,key_resp_post_study.keys,key_resp_post_study.rt,key_resp_post_study.started,key_resp_post_study.stopped,test_inst.started,test_inst.stopped,key_resp_test_inst.keys,key_resp_test_inst.rt,key_resp_test_inst.started,key_resp_test_inst.stopped,test_word,test_num,test_order,test_condition,old_new_test,word_color_test,textConf.started,textConf.stopped,Participant Response,textInput.started,textInput.stopped,keyResp.keys,keyResp.rt,keyResp.started,keyResp.stopped,textEnd.started,textEnd.stopped,participant,session,date,expName,psychopyVersion,frameRate,
,,,,,,,,,,,,,,,,35.98723940004129,None,y,2.891711500007659,35.98723940004129,None,,,,,,,,,,,,,,,,,,,,,,,,,,,,,,,,,,,,,,,,,,,,,,,,,,,,,,,,,,,,,,,,,,,,,,,,,,,,,,,,,,,,,,,,,,,,,,,,,,,,,,,,,,,,,,,,,,,,,,2,001,2023_Jan_30_1016,ExactRep-v3-final,2021.2.3,59.91112781189719,
,,,,,,,,,,,,,,,,,,,,,,38.895303900004365,None,b,2.6315345000475645,38.895303900004365,None,,,,,,,,,,,,,,,,,,,,,,,,,,,,,,,,,,,,,,,,,,,,,,,,,,,,,,,,,,,,,,,,,,,,,,,,,,,,,,,,,,,,,,,,,,,,,,,,,,,,,,,,,,,,,,,,2,001,2023_Jan_30_1016,ExactRep-v3-final,2021.2.3,59.91112781189719,
,,,,,,,,,,,,,,,,,,,,,,,,,,,,colorfoils,b,space,602.269852999947,51.713038700050674,None,,,,,,,,,,,,,,,,,,,,,,,,,,,,,,,,,,,,,,,,,,,,,,,,,,,,,,,,,,,,,,,,,,,,,,,,,,,,,,,,,,,,,,,,,,,,,,,,,,,,,,,,,,2,001,2023_Jan_30_1016,ExactRep-v3-final,2021.2.3,59.91112781189719,
,,,,,,,,,,,,,,,,,,,,,,,,,,,,,,,,,,41.730277900001965,None,41.730277900001965,None,41.730277900001965,None,41.730277900001965,None,41.730277900001965,None,41.730277900001965,None,space,17.103177900076844,664.1677561999531,None,,,,,,,,,,,,,,,,,,,,,,,,,,,,,,,,,,,,,,,,,,,,,,,,,,,,,,,,,,,,,,,,,,,,,,,,,,,,,,,,,,,,,,,,,,2,001,2023_Jan_30_1016,ExactRep-v3-final,2021.2.3,59.91112781189719,
0,0,0,0,,,,,,,,,,,,,,,,,,,,,,,,,,,,,,,,,,,,,,,,,,,,,,,654.2210299000144,None,654.2210299000144,None,654.2210299000144,None,654.2210299000144,None,654.2210299000144,None,654.2210299000144,None,681.3797687999904,None,683.3803000999615,None,,,,,,,,,,,,,,,,,,,,,,,,,,,,,,,,,,,,,,,,,,,,,,,,,,,,,,,,,,,,,,,,,,,,,,,,,,2,001,2023_Jan_30_1016,ExactRep-v3-final,2021.2.3,59.91112781189719,
1,0,1,0,,,,,,,,,,,,,,,,,,,,,,,,,,,,,,,,,,,,,,,,,,,,,,,,,,,,,,,,,,,683.8799273000332,None,685.8927541000303,None,,,,,,,,,,,,,,,,,,,,,,,,,,,,,,,,,,,,,,,,,,,,,,,,,,,,,,,,,,,,,,,,,,,,,,,,,,2,001,2023_Jan_30_1016,ExactRep-v3-final,2021.2.3,59.91112781189719,
2,0,2,0,,,,,,,,,,,,,,,,,,,,,,,,,,,,,,,,,,,,,,,,,,,,,,,,,,,,,,,,,,,686.3932415000163,None,688.3953129999572,None,,,,,,,,,,,,,,,,,,,,,,,,,,,,,,,,,,,,,,,,,,,,,,,,,,,,,,,,,,,,,,,,,,,,,,,,,,2,001,2023_Jan_30_1016,ExactRep-v3-final,2021.2.3,59.91112781189719,
3,0,3,0,,,,,,,,,,,,,,,,,,,,,,,,,,,,,,,,,,,,,,,,,,,,,,,,,,,,,,,,,,,688.9084758999525,None,690.9145617999602,None,,,,,,,,,,,,,,,,,,,,,,,,,,,,,,,,,,,,,,,,,,,,,,,,,,,,,,,,,,,,,,,,,,,,,,,,,,2,001,2023_Jan_30_1016,ExactRep-v3-final,2021.2.3,59.91112781189719,
4,0,4,0,,,,,,,,,,,,,,,,,,,,,,,,,,,,,,,,,,,,,,,,,,,,,,,,,,,,,,,,,,,691.4150862999959,None,693.4170591000002,None,,,,,,,,,,,,,,,,,,,,,,,,,,,,,,,,,,,,,,,,,,,,,,,,,,,,,,,,,,,,,,,,,,,,,,,,,,2,001,2023_Jan_30_1016,ExactRep-v3-final,2021.2.3,59.91112781189719,
5,0,5,0,,,,,,,,,,,,,,,,,,,,,,,,,,,,,,,,,,,,,,,,,,,,,,,,,,,,,,,,,,,693.9177606999874,None,695.9195537000196,None,,,,,,,,,,,,,,,,,,,,,,,,,,,,,,,,,,,,,,,,,,,,,,,,,,,,,,,,,,,,,,,,,,,,,,,,,,2,001,2023_Jan_30_1016,ExactRep-v3-final,2021.2.3,59.91112781189719,
6,0,6,0,,,,,,,,,,,,,,,,,,,,,,,,,,,,,,,,,,,,,,,,,,,,,,,,,,,,,,,,,,,696.420078999945,None,698.4219786999747,None,,,,,,,,,,,,,,,,,,,,,,,,,,,,,,,,,,,,,,,,,,,,,,,,,,,,,,,,,,,,,,,,,,,,,,,,,,2,001,2023_Jan_30_1016,ExactRep-v3-final,2021.2.3,59.91112781189719,
7,0,7,0,,,,,,,,,,,,,,,,,,,,,,,,,,,,,,,,,,,,,,,,,,,,,,,,,,,,,,,,,,,698.9239939999534,None,700.9246441000141,None,,,,,,,,,,,,,,,,,,,,,,,,,,,,,,,,,,,,,,,,,,,,,,,,,,,,,,,,,,,,,,,,,,,,,,,,,,2,001,2023_Jan_30_1016,ExactRep-v3-final,2021.2.3,59.91112781189719,
8,0,8,0,,,,,,,,,,,,,,,,,,,,,,,,,,,,,,,,,,,,,,,,,,,,,,,,,,,,,,,,,,,701.425276300055,None,703.4268214999465,None,,,,,,,,,,,,,,,,,,,,,,,,,,,,,,,,,,,,,,,,,,,,,,,,,,,,,,,,,,,,,,,,,,,,,,,,,,2,001,2023_Jan_30_1016,ExactRep-v3-final,2021.2.3,59.91112781189719,
9,0,9,0,,,,,,,,,,,,,,,,,,,,,,,,,,,,,,,,,,,,,,,,,,,,,,,,,,,,,,,,,,,703.937591199996,None,705.9461930999532,None,,,,,,,,,,,,,,,,,,,,,,,,,,,,,,,,,,,,,,,,,,,,,,,,,,,,,,,,,,,,,,,,,,,,,,,,,,2,001,2023_Jan_30_1016,ExactRep-v3-final,2021.2.3,59.91112781189719,
10,0,10,0,,,,,,,,,,,,,,,,,,,,,,,,,,,,,,,,,,,,,,,,,,,,,,,,,,,,,,,,,,,706.4481474000495,None,708.4488962000469,None,,,,,,,,,,,,,,,,,,,,,,,,,,,,,,,,,,,,,,,,,,,,,,,,,,,,,,,,,,,,,,,,,,,,,,,,,,2,001,2023_Jan_30_1016,ExactRep-v3-final,2021.2.3,59.91112781189719,
11,0,11,0,,,,,,,,,,,,,,,,,,,,,,,,,,,,,,,,,,,,,,,,,,,,,,,,,,,,,,,,,,,708.9592241999926,None,710.9680654000258,None,,,,,,,,,,,,,,,,,,,,,,,,,,,,,,,,,,,,,,,,,,,,,,,,,,,,,,,,,,,,,,,,,,,,,,,,,,2,001,2023_Jan_30_1016,ExactRep-v3-final,2021.2.3,59.91112781189719,
12,0,12,0,,,,,,,,,,,,,,,,,,,,,,,,,,,,,,,,,,,,,,,,,,,,,,,,,,,,,,,,,,,711.4684176000301,None,713.4706126999808,None,,,,,,,,,,,,,,,,,,,,,,,,,,,,,,,,,,,,,,,,,,,,,,,,,,,,,,,,,,,,,,,,,,,,,,,,,,2,001,2023_Jan_30_1016,ExactRep-v3-final,2021.2.3,59.91112781189719,
13,0,13,0,,,,,,,,,,,,,,,,,,,,,,,,,,,,,,,,,,,,,,,,,,,,,,,,,,,,,,,,,,,713.9723935000366,None,715.9731004999485,None,,,,,,,,,,,,,,,,,,,,,,,,,,,,,,,,,,,,,,,,,,,,,,,,,,,,,,,,,,,,,,,,,,,,,,,,,,2,001,2023_Jan_30_1016,ExactRep-v3-final,2021.2.3,59.91112781189719,
14,0,14,0,,,,,,,,,,,,,,,,,,,,,,,,,,,,,,,,,,,,,,,,,,,,,,,,,,,,,,,,,,,716.4823086999822,None,718.4921352999518,None,,,,,,,,,,,,,,,,,,,,,,,,,,,,,,,,,,,,,,,,,,,,,,,,,,,,,,,,,,,,,,,,,,,,,,,,,,2,001,2023_Jan_30_1016,ExactRep-v3-final,2021.2.3,59.91112781189719,
,,,,,,,,,,,,,,,,,,,,,,,,,,,,,,,,,,,,,,,,,,,,,,,,,,,,,,,,,,,,,,,,,,space,22.13041650003288,729.0683370999759,None,,,,,,,,,,,,,,,,,,,,,,,,,,,,,,,,,,,,,,,,,,,,,,,,,,,,,,,,,,,,,,,,,,,,,,2,001,2023_Jan_30_1016,ExactRep-v3-final,2021.2.3,59.91112781189719,
,,,,0,0,0,0,,,,,,,,,,,,,,,,,,,,,,,,,,,,,,,,,,,,,,,,,,,,,,,,,,,,,,,,,753.2934835000196,None,,,,,719.1351102000335,None,719.1351102000335,None,719.1351102000335,None,719.1351102000335,None,719.1351102000335,None,719.1351102000335,None,751.2840565999504,None,,,,,,,,,,,,,,,,,,,,,,,,,,,,,,,,,,,,,,,,,,,,,,,,,,,,,,,,2,001,2023_Jan_30_1016,ExactRep-v3-final,2021.2.3,59.91112781189719,
,,,,1,0,1,0,,,,,,,,,,,,,,,,,,,,,,,,,,,,,,,,,,,,,,,,,,,,,,,,,,,,,,,,,755.7959389999742,None,,,,,,,,,,,,,,,,,753.794167199987,None,,,,,,,,,,,,,,,,,,,,,,,,,,,,,,,,,,,,,,,,,,,,,,,,,,,,,,,,2,001,2023_Jan_30_1016,ExactRep-v3-final,2021.2.3,59.91112781189719,
,,,,2,0,2,0,,,,,,,,,,,,,,,,,,,,,,,,,,,,,,,,,,,,,,,,,,,,,,,,,,,,,,,,,758.2985183999408,None,,,,,,,,,,,,,,,,,756.2965849000029,None,,,,,,,,,,,,,,,,,,,,,,,,,,,,,,,,,,,,,,,,,,,,,,,,,,,,,,,,2,001,2023_Jan_30_1016,ExactRep-v3-final,2021.2.3,59.91112781189719,
,,,,3,0,3,0,,,,,,,,,,,,,,,,,,,,,,,,,,,,,,,,,,,,,,,,,,,,,,,,,,,,,,,,,760.8010588999605,None,,,,,,,,,,,,,,,,,758.7990108999657,None,,,,,,,,,,,,,,,,,,,,,,,,,,,,,,,,,,,,,,,,,,,,,,,,,,,,,,,,2,001,2023_Jan_30_1016,ExactRep-v3-final,2021.2.3,59.91112781189719,
,,,,4,0,4,0,,,,,,,,,,,,,,,,,,,,,,,,,,,,,,,,,,,,,,,,,,,,,,,,,,,,,,,,,763.3034999000374,None,,,,,,,,,,,,,,,,,761.3015857000137,None,,,,,,,,,,,,,,,,,,,,,,,,,,,,,,,,,,,,,,,,,,,,,,,,,,,,,,,,2,001,2023_Jan_30_1016,ExactRep-v3-final,2021.2.3,59.91112781189719,
,,,,5,0,5,0,,,,,,,,,,,,,,,,,,,,,,,,,,,,,,,,,,,,,,,,,,,,,,,,,,,,,,,,,765.8061164000537,None,,,,,,,,,,,,,,,,,763.8040458000032,None,,,,,,,,,,,,,,,,,,,,,,,,,,,,,,,,,,,,,,,,,,,,,,,,,,,,,,,,2,001,2023_Jan_30_1016,ExactRep-v3-final,2021.2.3,59.91112781189719,
,,,,6,0,6,0,,,,,,,,,,,,,,,,,,,,,,,,,,,,,,,,,,,,,,,,,,,,,,,,,,,,,,,,,768.3084951000055,None,,,,,,,,,,,,,,,,,766.3066515000537,None,,,,,,,,,,,,,,,,,,,,,,,,,,,,,,,,,,,,,,,,,,,,,,,,,,,,,,,,2,001,2023_Jan_30_1016,ExactRep-v3-final,2021.2.3,59.91112781189719,
,,,,7,0,7,0,,,,,,,,,,,,,,,,,,,,,,,,,,,,,,,,,,,,,,,,,,,,,,,,,,,,,,,,,770.8110092999414,None,,,,,,,,,,,,,,,,,768.8090174000245,None,,,,,,,,,,,,,,,,,,,,,,,,,,,,,,,,,,,,,,,,,,,,,,,,,,,,,,,,2,001,2023_Jan_30_1016,ExactRep-v3-final,2021.2.3,59.91112781189719,
,,,,8,0,8,0,,,,,,,,,,,,,,,,,,,,,,,,,,,,,,,,,,,,,,,,,,,,,,,,,,,,,,,,,773.3134975000285,None,,,,,,,,,,,,,,,,,771.3115509999916,None,,,,,,,,,,,,,,,,,,,,,,,,,,,,,,,,,,,,,,,,,,,,,,,,,,,,,,,,2,001,2023_Jan_30_1016,ExactRep-v3-final,2021.2.3,59.91112781189719,
,,,,9,0,9,0,,,,,,,,,,,,,,,,,,,,,,,,,,,,,,,,,,,,,,,,,,,,,,,,,,,,,,,,,775.8159677999793,None,,,,,,,,,,,,,,,,,773.8140608000103,None,,,,,,,,,,,,,,,,,,,,,,,,,,,,,,,,,,,,,,,,,,,,,,,,,,,,,,,,2,001,2023_Jan_30_1016,ExactRep-v3-final,2021.2.3,59.91112781189719,
,,,,10,0,10,0,,,,,,,,,,,,,,,,,,,,,,,,,,,,,,,,,,,,,,,,,,,,,,,,,,,,,,,,,778.3184416999575,None,,,,,,,,,,,,,,,,,776.316760799964,None,,,,,,,,,,,,,,,,,,,,,,,,,,,,,,,,,,,,,,,,,,,,,,,,,,,,,,,,2,001,2023_Jan_30_1016,ExactRep-v3-final,2021.2.3,59.91112781189719,
,,,,11,0,11,0,,,,,,,,,,,,,,,,,,,,,,,,,,,,,,,,,,,,,,,,,,,,,,,,,,,,,,,,,780.8210165000055,None,,,,,,,,,,,,,,,,,778.8191109000472,None,,,,,,,,,,,,,,,,,,,,,,,,,,,,,,,,,,,,,,,,,,,,,,,,,,,,,,,,2,001,2023_Jan_30_1016,ExactRep-v3-final,2021.2.3,59.91112781189719,
,,,,12,0,12,0,,,,,,,,,,,,,,,,,,,,,,,,,,,,,,,,,,,,,,,,,,,,,,,,,,,,,,,,,783.3236024000216,None,,,,,,,,,,,,,,,,,781.3214966000523,None,,,,,,,,,,,,,,,,,,,,,,,,,,,,,,,,,,,,,,,,,,,,,,,,,,,,,,,,2,001,2023_Jan_30_1016,ExactRep-v3-final,2021.2.3,59.91112781189719,
,,,,13,0,13,0,,,,,,,,,,,,,,,,,,,,,,,,,,,,,,,,,,,,,,,,,,,,,,,,,,,,,,,,,785.8260126999812,None,,,,,,,,,,,,,,,,,783.8241669000126,None,,,,,,,,,,,,,,,,,,,,,,,,,,,,,,,,,,,,,,,,,,,,,,,,,,,,,,,,2,001,2023_Jan_30_1016,ExactRep-v3-final,2021.2.3,59.91112781189719,
,,,,14,0,14,0,,,,,,,,,,,,,,,,,,,,,,,,,,,,,,,,,,,,,,,,,,,,,,,,,,,,,,,,,788.328583399998,None,,,,,,,,,,,,,,,,,786.3264664999442,None,,,,,,,,,,,,,,,,,,,,,,,,,,,,,,,,,,,,,,,,,,,,,,,,,,,,,,,,2,001,2023_Jan_30_1016,ExactRep-v3-final,2021.2.3,59.91112781189719,
,,,,,,,,,,,,,,,,,,,,,,,,,,,,,,,,,,,,,,,,,,,,,,,,,,,,,,,,,,,,,,,,,,,,,,,,,,,,,,,,,,,,space,22.84188239998184,798.9969876999967,None,,,,,,,,,,,,,,,,,,,,,,,,,,,,,,,,,,,,,,,,,,,,,,,,,,,,2,001,2023_Jan_30_1016,ExactRep-v3-final,2021.2.3,59.91112781189719,
,,,,,,,,0,0,0,0,,,,,,,,,,,,,,,,,,,,,,,,,,,,,,,,,,,,,,,,,,,,,,,,,,,,,823.9651038999436,None,,,,,,,,,,,,,,,,,,,,,,,789.0171936999541,None,789.0171936999541,None,789.0171936999541,None,789.0171936999541,None,789.0171936999541,None,789.0171936999541,None,pupil,54,1,silent,white,821.9518266000086,None,None,821.9518266000086,None,,,,,,,,,,,,,,,,,,,,,,,,,,,,,,2,001,2023_Jan_30_1016,ExactRep-v3-final,2021.2.3,59.91112781189719,
,,,,,,,,1,0,1,0,,,,,,,,,,,,,,,,,,,,,,,,,,,,,,,,,,,,,,,,,,,,,,,,,,,,,826.4832173000323,None,,,,,,,,,,,,,,,,,,,,,,,,,,,,,,,,,,,metal,73,2,silent,white,824.4783806999912,None,None,824.4783806999912,None,,,,,,,,,,,,,,,,,,,,,,,,,,,,,,2,001,2023_Jan_30_1016,ExactRep-v3-final,2021.2.3,59.91112781189719,
,,,,,,,,2,0,2,0,,,,,,,,,,,,,,,,,,,,,,,,,,,,,,,,,,,,,,,,,,,,,,,,,,,,,829.0024889999768,None,,,,,,,,,,,,,,,,,,,,,,,,,,,,,,,,,,,amount,56,3,silent,white,826.9946265999461,None,None,826.9946265999461,None,,,,,,,,,,,,,,,,,,,,,,,,,,,,,,2,001,2023_Jan_30_1016,ExactRep-v3-final,2021.2.3,59.91112781189719,
,,,,,,,,3,0,3,0,,,,,,,,,,,,,,,,,,,,,,,,,,,,,,,,,,,,,,,,,,,,,,,,,,,,,831.5216805000091,None,,,,,,,,,,,,,,,,,,,,,,,,,,,,,,,,,,,time,24,4,sing,blue,829.5119580000173,None,None,829.5119580000173,None,,,,,,,,,,,,,,,,,,,,,,,,,,,,,,2,001,2023_Jan_30_1016,ExactRep-v3-final,2021.2.3,59.91112781189719,
,,,,,,,,4,0,4,0,,,,,,,,,,,,,,,,,,,,,,,,,,,,,,,,,,,,,,,,,,,,,,,,,,,,,834.040834399988,None,,,,,,,,,,,,,,,,,,,,,,,,,,,,,,,,,,,water,96,5,aloud,red,832.0262018999783,None,None,832.0262018999783,None,,,,,,,,,,,,,,,,,,,,,,,,,,,,,,2,001,2023_Jan_30_1016,ExactRep-v3-final,2021.2.3,59.91112781189719,
,,,,,,,,5,0,5,0,,,,,,,,,,,,,,,,,,,,,,,,,,,,,,,,,,,,,,,,,,,,,,,,,,,,,836.5599792000139,None,,,,,,,,,,,,,,,,,,,,,,,,,,,,,,,,,,,lip,111,6,aloud,red,834.5472664999543,None,None,834.5472664999543,None,,,,,,,,,,,,,,,,,,,,,,,,,,,,,,2,001,2023_Jan_30_1016,ExactRep-v3-final,2021.2.3,59.91112781189719,
,,,,,,,,6,0,6,0,,,,,,,,,,,,,,,,,,,,,,,,,,,,,,,,,,,,,,,,,,,,,,,,,,,,,839.0623952000169,None,,,,,,,,,,,,,,,,,,,,,,,,,,,,,,,,,,,temple,38,7,sing,blue,837.0605468000285,None,None,837.0605468000285,None,,,,,,,,,,,,,,,,,,,,,,,,,,,,,,2,001,2023_Jan_30_1016,ExactRep-v3-final,2021.2.3,59.91112781189719,
,,,,,,,,7,0,7,0,,,,,,,,,,,,,,,,,,,,,,,,,,,,,,,,,,,,,,,,,,,,,,,,,,,,,841.5650005999487,None,,,,,,,,,,,,,,,,,,,,,,,,,,,,,,,,,,,college,58,8,silent,white,839.5639077000087,None,None,839.5639077000087,None,,,,,,,,,,,,,,,,,,,,,,,,,,,,,,2,001,2023_Jan_30_1016,ExactRep-v3-final,2021.2.3,59.91112781189719,
,,,,,,,,8,0,8,0,,,,,,,,,,,,,,,,,,,,,,,,,,,,,,,,,,,,,,,,,,,,,,,,,,,,,844.0842340999516,None,,,,,,,,,,,,,,,,,,,,,,,,,,,,,,,,,,,science,18,9,sing,blue,842.0719966000179,None,None,842.0719966000179,None,,,,,,,,,,,,,,,,,,,,,,,,,,,,,,2,001,2023_Jan_30_1016,ExactRep-v3-final,2021.2.3,59.91112781189719,
,,,,,,,,9,0,9,0,,,,,,,,,,,,,,,,,,,,,,,,,,,,,,,,,,,,,,,,,,,,,,,,,,,,,846.6033400000306,None,,,,,,,,,,,,,,,,,,,,,,,,,,,,,,,,,,,chair,65,10,silent,white,844.5886330000358,None,None,844.5886330000358,None,,,,,,,,,,,,,,,,,,,,,,,,,,,,,,2,001,2023_Jan_30_1016,ExactRep-v3-final,2021.2.3,59.91112781189719,
,,,,,,,,10,0,10,0,,,,,,,,,,,,,,,,,,,,,,,,,,,,,,,,,,,,,,,,,,,,,,,,,,,,,849.1058479000349,None,,,,,,,,,,,,,,,,,,,,,,,,,,,,,,,,,,,law,59,11,silent,white,847.1038421000121,None,None,847.1038421000121,None,,,,,,,,,,,,,,,,,,,,,,,,,,,,,,2,001,2023_Jan_30_1016,ExactRep-v3-final,2021.2.3,59.91112781189719,
,,,,,,,,11,0,11,0,,,,,,,,,,,,,,,,,,,,,,,,,,,,,,,,,,,,,,,,,,,,,,,,,,,,,851.6083736999426,None,,,,,,,,,,,,,,,,,,,,,,,,,,,,,,,,,,,fate,19,12,sing,blue,849.6077140000416,None,None,849.6077140000416,None,,,,,,,,,,,,,,,,,,,,,,,,,,,,,,2,001,2023_Jan_30_1016,ExactRep-v3-final,2021.2.3,59.91112781189719,
,,,,,,,,12,0,12,0,,,,,,,,,,,,,,,,,,,,,,,,,,,,,,,,,,,,,,,,,,,,,,,,,,,,,854.1109613999724,None,,,,,,,,,,,,,,,,,,,,,,,,,,,,,,,,,,,speech,117,13,aloud,red,852.1110310000367,None,None,852.1110310000367,None,,,,,,,,,,,,,,,,,,,,,,,,,,,,,,2,001,2023_Jan_30_1016,ExactRep-v3-final,2021.2.3,59.91112781189719,
,,,,,,,,13,0,13,0,,,,,,,,,,,,,,,,,,,,,,,,,,,,,,,,,,,,,,,,,,,,,,,,,,,,,856.6133548000362,None,,,,,,,,,,,,,,,,,,,,,,,,,,,,,,,,,,,library,77,14,silent,white,854.6140275000362,None,None,854.6140275000362,None,,,,,,,,,,,,,,,,,,,,,,,,,,,,,,2,001,2023_Jan_30_1016,ExactRep-v3-final,2021.2.3,59.91112781189719,
,,,,,,,,14,0,14,0,,,,,,,,,,,,,,,,,,,,,,,,,,,,,,,,,,,,,,,,,,,,,,,,,,,,,859.1158811999485,None,,,,,,,,,,,,,,,,,,,,,,,,,,,,,,,,,,,leader,102,15,aloud,red,857.115443799994,None,None,857.115443799994,None,,,,,,,,,,,,,,,,,,,,,,,,,,,,,,2,001,2023_Jan_30_1016,ExactRep-v3-final,2021.2.3,59.91112781189719,
,,,,,,,,15,0,15,0,,,,,,,,,,,,,,,,,,,,,,,,,,,,,,,,,,,,,,,,,,,,,,,,,,,,,861.6350574999815,None,,,,,,,,,,,,,,,,,,,,,,,,,,,,,,,,,,,village,7,16,sing,blue,859.6217172000324,None,None,859.6217172000324,None,,,,,,,,,,,,,,,,,,,,,,,,,,,,,,2,001,2023_Jan_30_1016,ExactRep-v3-final,2021.2.3,59.91112781189719,
,,,,,,,,16,0,16,0,,,,,,,,,,,,,,,,,,,,,,,,,,,,,,,,,,,,,,,,,,,,,,,,,,,,,864.1542844000505,None,,,,,,,,,,,,,,,,,,,,,,,,,,,,,,,,,,,air,50,17,silent,white,862.1460008999566,None,None,862.1460008999566,None,,,,,,,,,,,,,,,,,,,,,,,,,,,,,,2,001,2023_Jan_30_1016,ExactRep-v3-final,2021.2.3,59.91112781189719,
,,,,,,,,17,0,17,0,,,,,,,,,,,,,,,,,,,,,,,,,,,,,,,,,,,,,,,,,,,,,,,,,,,,,866.6734707000433,None,,,,,,,,,,,,,,,,,,,,,,,,,,,,,,,,,,,pipe,39,18,silent,white,864.6581297999946,None,None,864.6581297999946,None,,,,,,,,,,,,,,,,,,,,,,,,,,,,,,2,001,2023_Jan_30_1016,ExactRep-v3-final,2021.2.3,59.91112781189719,
,,,,,,,,18,0,18,0,,,,,,,,,,,,,,,,,,,,,,,,,,,,,,,,,,,,,,,,,,,,,,,,,,,,,869.175851500011,None,,,,,,,,,,,,,,,,,,,,,,,,,,,,,,,,,,,tool,37,19,sing,blue,867.1739400000079,None,None,867.1739400000079,None,,,,,,,,,,,,,,,,,,,,,,,,,,,,,,2,001,2023_Jan_30_1016,ExactRep-v3-final,2021.2.3,59.91112781189719,
,,,,,,,,19,0,19,0,,,,,,,,,,,,,,,,,,,,,,,,,,,,,,,,,,,,,,,,,,,,,,,,,,,,,871.695162500022,None,,,,,,,,,,,,,,,,,,,,,,,,,,,,,,,,,,,priest,27,20,sing,blue,869.6798284000251,None,None,869.6798284000251,None,,,,,,,,,,,,,,,,,,,,,,,,,,,,,,2,001,2023_Jan_30_1016,ExactRep-v3-final,2021.2.3,59.91112781189719,
,,,,,,,,20,0,20,0,,,,,,,,,,,,,,,,,,,,,,,,,,,,,,,,,,,,,,,,,,,,,,,,,,,,,874.1979414999951,None,,,,,,,,,,,,,,,,,,,,,,,,,,,,,,,,,,,hope,32,21,sing,blue,872.1957349999575,None,None,872.1957349999575,None,,,,,,,,,,,,,,,,,,,,,,,,,,,,,,2,001,2023_Jan_30_1016,ExactRep-v3-final,2021.2.3,59.91112781189719,
,,,,,,,,21,0,21,0,,,,,,,,,,,,,,,,,,,,,,,,,,,,,,,,,,,,,,,,,,,,,,,,,,,,,876.6999245999614,None,,,,,,,,,,,,,,,,,,,,,,,,,,,,,,,,,,,friend,15,22,sing,blue,874.698681000038,None,None,874.698681000038,None,,,,,,,,,,,,,,,,,,,,,,,,,,,,,,2,001,2023_Jan_30_1016,ExactRep-v3-final,2021.2.3,59.91112781189719,
,,,,,,,,22,0,22,0,,,,,,,,,,,,,,,,,,,,,,,,,,,,,,,,,,,,,,,,,,,,,,,,,,,,,879.2026537000202,None,,,,,,,,,,,,,,,,,,,,,,,,,,,,,,,,,,,fun,87,23,aloud,red,877.2027575999964,None,None,877.2027575999964,None,,,,,,,,,,,,,,,,,,,,,,,,,,,,,,2,001,2023_Jan_30_1016,ExactRep-v3-final,2021.2.3,59.91112781189719,
,,,,,,,,23,0,23,0,,,,,,,,,,,,,,,,,,,,,,,,,,,,,,,,,,,,,,,,,,,,,,,,,,,,,881.7049714999739,None,,,,,,,,,,,,,,,,,,,,,,,,,,,,,,,,,,,boy,1,24,sing,blue,879.7053460000316,None,None,879.7053460000316,None,,,,,,,,,,,,,,,,,,,,,,,,,,,,,,2,001,2023_Jan_30_1016,ExactRep-v3-final,2021.2.3,59.91112781189719,
,,,,,,,,24,0,24,0,,,,,,,,,,,,,,,,,,,,,,,,,,,,,,,,,,,,,,,,,,,,,,,,,,,,,884.2075515999459,None,,,,,,,,,,,,,,,,,,,,,,,,,,,,,,,,,,,spirit,2,25,sing,blue,882.2081181999529,None,None,882.2081181999529,None,,,,,,,,,,,,,,,,,,,,,,,,,,,,,,2,001,2023_Jan_30_1016,ExactRep-v3-final,2021.2.3,59.91112781189719,
,,,,,,,,25,0,25,0,,,,,,,,,,,,,,,,,,,,,,,,,,,,,,,,,,,,,,,,,,,,,,,,,,,,,886.7268142000539,None,,,,,,,,,,,,,,,,,,,,,,,,,,,,,,,,,,,bird,104,26,aloud,red,884.714411700028,None,None,884.714411700028,None,,,,,,,,,,,,,,,,,,,,,,,,,,,,,,2,001,2023_Jan_30_1016,ExactRep-v3-final,2021.2.3,59.91112781189719,
,,,,,,,,26,0,26,0,,,,,,,,,,,,,,,,,,,,,,,,,,,,,,,,,,,,,,,,,,,,,,,,,,,,,889.2460910000373,None,,,,,,,,,,,,,,,,,,,,,,,,,,,,,,,,,,,justice,85,27,aloud,red,887.2490367999999,None,None,887.2490367999999,None,,,,,,,,,,,,,,,,,,,,,,,,,,,,,,2,001,2023_Jan_30_1016,ExactRep-v3-final,2021.2.3,59.91112781189719,
,,,,,,,,27,0,27,0,,,,,,,,,,,,,,,,,,,,,,,,,,,,,,,,,,,,,,,,,,,,,,,,,,,,,891.7651628999738,None,,,,,,,,,,,,,,,,,,,,,,,,,,,,,,,,,,,opinion,57,28,silent,white,889.7544705000473,None,None,889.7544705000473,None,,,,,,,,,,,,,,,,,,,,,,,,,,,,,,2,001,2023_Jan_30_1016,ExactRep-v3-final,2021.2.3,59.91112781189719,
,,,,,,,,28,0,28,0,,,,,,,,,,,,,,,,,,,,,,,,,,,,,,,,,,,,,,,,,,,,,,,,,,,,,894.2843509999802,None,,,,,,,,,,,,,,,,,,,,,,,,,,,,,,,,,,,market,51,29,silent,white,892.2875372000271,None,None,892.2875372000271,None,,,,,,,,,,,,,,,,,,,,,,,,,,,,,,2,001,2023_Jan_30_1016,ExactRep-v3-final,2021.2.3,59.91112781189719,
,,,,,,,,29,0,29,0,,,,,,,,,,,,,,,,,,,,,,,,,,,,,,,,,,,,,,,,,,,,,,,,,,,,,896.7869292000541,None,,,,,,,,,,,,,,,,,,,,,,,,,,,,,,,,,,,brain,71,30,silent,white,894.7858900999418,None,None,894.7858900999418,None,,,,,,,,,,,,,,,,,,,,,,,,,,,,,,2,001,2023_Jan_30_1016,ExactRep-v3-final,2021.2.3,59.91112781189719,
,,,,,,,,30,0,30,0,,,,,,,,,,,,,,,,,,,,,,,,,,,,,,,,,,,,,,,,,,,,,,,,,,,,,899.2894610000076,None,,,,,,,,,,,,,,,,,,,,,,,,,,,,,,,,,,,ability,80,31,aloud,red,897.2886494999984,None,None,897.2886494999984,None,,,,,,,,,,,,,,,,,,,,,,,,,,,,,,2,001,2023_Jan_30_1016,ExactRep-v3-final,2021.2.3,59.91112781189719,
,,,,,,,,31,0,31,0,,,,,,,,,,,,,,,,,,,,,,,,,,,,,,,,,,,,,,,,,,,,,,,,,,,,,901.8084845000412,None,,,,,,,,,,,,,,,,,,,,,,,,,,,,,,,,,,,pole,17,32,sing,blue,899.7948238999816,None,None,899.7948238999816,None,,,,,,,,,,,,,,,,,,,,,,,,,,,,,,2,001,2023_Jan_30_1016,ExactRep-v3-final,2021.2.3,59.91112781189719,
,,,,,,,,32,0,32,0,,,,,,,,,,,,,,,,,,,,,,,,,,,,,,,,,,,,,,,,,,,,,,,,,,,,,904.3116886999924,None,,,,,,,,,,,,,,,,,,,,,,,,,,,,,,,,,,,shame,0,33,sing,blue,902.3091080000158,None,None,902.3091080000158,None,,,,,,,,,,,,,,,,,,,,,,,,,,,,,,2,001,2023_Jan_30_1016,ExactRep-v3-final,2021.2.3,59.91112781189719,
,,,,,,,,33,0,33,0,,,,,,,,,,,,,,,,,,,,,,,,,,,,,,,,,,,,,,,,,,,,,,,,,,,,,906.8134812000208,None,,,,,,,,,,,,,,,,,,,,,,,,,,,,,,,,,,,shoes,43,34,silent,white,904.811518499977,None,None,904.811518499977,None,,,,,,,,,,,,,,,,,,,,,,,,,,,,,,2,001,2023_Jan_30_1016,ExactRep-v3-final,2021.2.3,59.91112781189719,
,,,,,,,,34,0,34,0,,,,,,,,,,,,,,,,,,,,,,,,,,,,,,,,,,,,,,,,,,,,,,,,,,,,,909.3327481000451,None,,,,,,,,,,,,,,,,,,,,,,,,,,,,,,,,,,,clock,84,35,aloud,red,907.3229813999496,None,None,907.3229813999496,None,,,,,,,,,,,,,,,,,,,,,,,,,,,,,,2,001,2023_Jan_30_1016,ExactRep-v3-final,2021.2.3,59.91112781189719,
,,,,,,,,35,0,35,0,,,,,,,,,,,,,,,,,,,,,,,,,,,,,,,,,,,,,,,,,,,,,,,,,,,,,911.835256600054,None,,,,,,,,,,,,,,,,,,,,,,,,,,,,,,,,,,,factory,46,36,silent,white,909.8332413999597,None,None,909.8332413999597,None,,,,,,,,,,,,,,,,,,,,,,,,,,,,,,2,001,2023_Jan_30_1016,ExactRep-v3-final,2021.2.3,59.91112781189719,
,,,,,,,,36,0,36,0,,,,,,,,,,,,,,,,,,,,,,,,,,,,,,,,,,,,,,,,,,,,,,,,,,,,,914.3544668999966,None,,,,,,,,,,,,,,,,,,,,,,,,,,,,,,,,,,,city,93,37,aloud,red,912.3390987999737,None,None,912.3390987999737,None,,,,,,,,,,,,,,,,,,,,,,,,,,,,,,2,001,2023_Jan_30_1016,ExactRep-v3-final,2021.2.3,59.91112781189719,
,,,,,,,,37,0,37,0,,,,,,,,,,,,,,,,,,,,,,,,,,,,,,,,,,,,,,,,,,,,,,,,,,,,,916.8568881000392,None,,,,,,,,,,,,,,,,,,,,,,,,,,,,,,,,,,,arm,6,38,sing,blue,914.8560423000017,None,None,914.8560423000017,None,,,,,,,,,,,,,,,,,,,,,,,,,,,,,,2,001,2023_Jan_30_1016,ExactRep-v3-final,2021.2.3,59.91112781189719,
,,,,,,,,38,0,38,0,,,,,,,,,,,,,,,,,,,,,,,,,,,,,,,,,,,,,,,,,,,,,,,,,,,,,919.3761171000078,None,,,,,,,,,,,,,,,,,,,,,,,,,,,,,,,,,,,hour,110,39,aloud,red,917.3605740000494,None,None,917.3605740000494,None,,,,,,,,,,,,,,,,,,,,,,,,,,,,,,2,001,2023_Jan_30_1016,ExactRep-v3-final,2021.2.3,59.91112781189719,
,,,,,,,,39,0,39,0,,,,,,,,,,,,,,,,,,,,,,,,,,,,,,,,,,,,,,,,,,,,,,,,,,,,,921.8952630000422,None,,,,,,,,,,,,,,,,,,,,,,,,,,,,,,,,,,,picture,98,40,aloud,red,919.8811410999624,None,None,919.8811410999624,None,,,,,,,,,,,,,,,,,,,,,,,,,,,,,,2,001,2023_Jan_30_1016,ExactRep-v3-final,2021.2.3,59.91112781189719,
,,,,,,,,40,0,40,0,,,,,,,,,,,,,,,,,,,,,,,,,,,,,,,,,,,,,,,,,,,,,,,,,,,,,924.4144549999619,None,,,,,,,,,,,,,,,,,,,,,,,,,,,,,,,,,,,rod,90,41,aloud,red,922.4040078000398,None,None,922.4040078000398,None,,,,,,,,,,,,,,,,,,,,,,,,,,,,,,2,001,2023_Jan_30_1016,ExactRep-v3-final,2021.2.3,59.91112781189719,
,,,,,,,,41,0,41,0,,,,,,,,,,,,,,,,,,,,,,,,,,,,,,,,,,,,,,,,,,,,,,,,,,,,,926.9169213999994,None,,,,,,,,,,,,,,,,,,,,,,,,,,,,,,,,,,,wife,119,42,aloud,red,924.9149393000407,None,None,924.9149393000407,None,,,,,,,,,,,,,,,,,,,,,,,,,,,,,,2,001,2023_Jan_30_1016,ExactRep-v3-final,2021.2.3,59.91112781189719,
,,,,,,,,42,0,42,0,,,,,,,,,,,,,,,,,,,,,,,,,,,,,,,,,,,,,,,,,,,,,,,,,,,,,929.4194331000326,None,,,,,,,,,,,,,,,,,,,,,,,,,,,,,,,,,,,rock,28,43,sing,blue,927.4187011000467,None,None,927.4187011000467,None,,,,,,,,,,,,,,,,,,,,,,,,,,,,,,2,001,2023_Jan_30_1016,ExactRep-v3-final,2021.2.3,59.91112781189719,
,,,,,,,,43,0,43,0,,,,,,,,,,,,,,,,,,,,,,,,,,,,,,,,,,,,,,,,,,,,,,,,,,,,,931.9386549999472,None,,,,,,,,,,,,,,,,,,,,,,,,,,,,,,,,,,,green,114,44,aloud,red,929.9289308999432,None,None,929.9289308999432,None,,,,,,,,,,,,,,,,,,,,,,,,,,,,,,2,001,2023_Jan_30_1016,ExactRep-v3-final,2021.2.3,59.91112781189719,
,,,,,,,,44,0,44,0,,,,,,,,,,,,,,,,,,,,,,,,,,,,,,,,,,,,,,,,,,,,,,,,,,,,,934.4411629999522,None,,,,,,,,,,,,,,,,,,,,,,,,,,,,,,,,,,,blood,29,45,sing,blue,932.4407759000314,None,None,932.4407759000314,None,,,,,,,,,,,,,,,,,,,,,,,,,,,,,,2,001,2023_Jan_30_1016,ExactRep-v3-final,2021.2.3,59.91112781189719,
,,,,,,,,45,0,45,0,,,,,,,,,,,,,,,,,,,,,,,,,,,,,,,,,,,,,,,,,,,,,,,,,,,,,936.9434585999697,None,,,,,,,,,,,,,,,,,,,,,,,,,,,,,,,,,,,boulder,14,46,sing,blue,934.9416180000408,None,None,934.9416180000408,None,,,,,,,,,,,,,,,,,,,,,,,,,,,,,,2,001,2023_Jan_30_1016,ExactRep-v3-final,2021.2.3,59.91112781189719,
,,,,,,,,46,0,46,0,,,,,,,,,,,,,,,,,,,,,,,,,,,,,,,,,,,,,,,,,,,,,,,,,,,,,939.4463195999851,None,,,,,,,,,,,,,,,,,,,,,,,,,,,,,,,,,,,animal,13,47,sing,blue,937.4446775000542,None,None,937.4446775000542,None,,,,,,,,,,,,,,,,,,,,,,,,,,,,,,2,001,2023_Jan_30_1016,ExactRep-v3-final,2021.2.3,59.91112781189719,
,,,,,,,,47,0,47,0,,,,,,,,,,,,,,,,,,,,,,,,,,,,,,,,,,,,,,,,,,,,,,,,,,,,,941.9654051000252,None,,,,,,,,,,,,,,,,,,,,,,,,,,,,,,,,,,,book,35,48,sing,blue,939.9585275000427,None,None,939.9585275000427,None,,,,,,,,,,,,,,,,,,,,,,,,,,,,,,2,001,2023_Jan_30_1016,ExactRep-v3-final,2021.2.3,59.91112781189719,
,,,,,,,,48,0,48,0,,,,,,,,,,,,,,,,,,,,,,,,,,,,,,,,,,,,,,,,,,,,,,,,,,,,,944.4849834999768,None,,,,,,,,,,,,,,,,,,,,,,,,,,,,,,,,,,,teacher,68,49,silent,white,942.4731159999501,None,None,942.4731159999501,None,,,,,,,,,,,,,,,,,,,,,,,,,,,,,,2,001,2023_Jan_30_1016,ExactRep-v3-final,2021.2.3,59.91112781189719,
,,,,,,,,49,0,49,0,,,,,,,,,,,,,,,,,,,,,,,,,,,,,,,,,,,,,,,,,,,,,,,,,,,,,947.0036732000299,None,,,,,,,,,,,,,,,,,,,,,,,,,,,,,,,,,,,mother,76,50,silent,white,944.9941841999535,None,None,944.9941841999535,None,,,,,,,,,,,,,,,,,,,,,,,,,,,,,,2,001,2023_Jan_30_1016,ExactRep-v3-final,2021.2.3,59.91112781189719,
,,,,,,,,50,0,50,0,,,,,,,,,,,,,,,,,,,,,,,,,,,,,,,,,,,,,,,,,,,,,,,,,,,,,949.5228861999931,None,,,,,,,,,,,,,,,,,,,,,,,,,,,,,,,,,,,crime,100,51,aloud,red,947.5140737999463,None,None,947.5140737999463,None,,,,,,,,,,,,,,,,,,,,,,,,,,,,,,2,001,2023_Jan_30_1016,ExactRep-v3-final,2021.2.3,59.91112781189719,
,,,,,,,,51,0,51,0,,,,,,,,,,,,,,,,,,,,,,,,,,,,,,,,,,,,,,,,,,,,,,,,,,,,,952.0420369999483,None,,,,,,,,,,,,,,,,,,,,,,,,,,,,,,,,,,,house,5,52,sing,blue,950.0312187999953,None,None,950.0312187999953,None,,,,,,,,,,,,,,,,,,,,,,,,,,,,,,2,001,2023_Jan_30_1016,ExactRep-v3-final,2021.2.3,59.91112781189719,
,,,,,,,,52,0,52,0,,,,,,,,,,,,,,,,,,,,,,,,,,,,,,,,,,,,,,,,,,,,,,,,,,,,,954.5445713000372,None,,,,,,,,,,,,,,,,,,,,,,,,,,,,,,,,,,,wheat,70,53,silent,white,952.542566100019,None,None,952.542566100019,None,,,,,,,,,,,,,,,,,,,,,,,,,,,,,,2,001,2023_Jan_30_1016,ExactRep-v3-final,2021.2.3,59.91112781189719,
,,,,,,,,53,0,53,0,,,,,,,,,,,,,,,,,,,,,,,,,,,,,,,,,,,,,,,,,,,,,,,,,,,,,957.0637518999865,None,,,,,,,,,,,,,,,,,,,,,,,,,,,,,,,,,,,moment,103,54,aloud,red,955.0561189999571,None,None,955.0561189999571,None,,,,,,,,,,,,,,,,,,,,,,,,,,,,,,2,001,2023_Jan_30_1016,ExactRep-v3-final,2021.2.3,59.91112781189719,
,,,,,,,,54,0,54,0,,,,,,,,,,,,,,,,,,,,,,,,,,,,,,,,,,,,,,,,,,,,,,,,,,,,,959.5829758000327,None,,,,,,,,,,,,,,,,,,,,,,,,,,,,,,,,,,,fact,44,55,silent,white,957.5708836000413,None,None,957.5708836000413,None,,,,,,,,,,,,,,,,,,,,,,,,,,,,,,2,001,2023_Jan_30_1016,ExactRep-v3-final,2021.2.3,59.91112781189719,
,,,,,,,,55,0,55,0,,,,,,,,,,,,,,,,,,,,,,,,,,,,,,,,,,,,,,,,,,,,,,,,,,,,,962.0855261000106,None,,,,,,,,,,,,,,,,,,,,,,,,,,,,,,,,,,,deed,45,56,silent,white,960.0843050000258,None,None,960.0843050000258,None,,,,,,,,,,,,,,,,,,,,,,,,,,,,,,2,001,2023_Jan_30_1016,ExactRep-v3-final,2021.2.3,59.91112781189719,
,,,,,,,,56,0,56,0,,,,,,,,,,,,,,,,,,,,,,,,,,,,,,,,,,,,,,,,,,,,,,,,,,,,,964.6047645000508,None,,,,,,,,,,,,,,,,,,,,,,,,,,,,,,,,,,,mind,16,57,sing,blue,962.5933342999779,None,None,962.5933342999779,None,,,,,,,,,,,,,,,,,,,,,,,,,,,,,,2,001,2023_Jan_30_1016,ExactRep-v3-final,2021.2.3,59.91112781189719,
,,,,,,,,57,0,57,0,,,,,,,,,,,,,,,,,,,,,,,,,,,,,,,,,,,,,,,,,,,,,,,,,,,,,967.1071512999479,None,,,,,,,,,,,,,,,,,,,,,,,,,,,,,,,,,,,season,91,58,aloud,red,965.1077465000562,None,None,965.1077465000562,None,,,,,,,,,,,,,,,,,,,,,,,,,,,,,,2,001,2023_Jan_30_1016,ExactRep-v3-final,2021.2.3,59.91112781189719,
,,,,,,,,58,0,58,0,,,,,,,,,,,,,,,,,,,,,,,,,,,,,,,,,,,,,,,,,,,,,,,,,,,,,969.6263638000237,None,,,,,,,,,,,,,,,,,,,,,,,,,,,,,,,,,,,circle,97,59,aloud,red,967.6119562999811,None,None,967.6119562999811,None,,,,,,,,,,,,,,,,,,,,,,,,,,,,,,2,001,2023_Jan_30_1016,ExactRep-v3-final,2021.2.3,59.91112781189719,
,,,,,,,,59,0,59,0,,,,,,,,,,,,,,,,,,,,,,,,,,,,,,,,,,,,,,,,,,,,,,,,,,,,,972.1454363999655,None,,,,,,,,,,,,,,,,,,,,,,,,,,,,,,,,,,,chance,118,60,aloud,red,970.1303373000119,None,None,970.1303373000119,None,,,,,,,,,,,,,,,,,,,,,,,,,,,,,,2,001,2023_Jan_30_1016,ExactRep-v3-final,2021.2.3,59.91112781189719,
,,,,,,,,60,0,60,0,,,,,,,,,,,,,,,,,,,,,,,,,,,,,,,,,,,,,,,,,,,,,,,,,,,,,974.6480132000288,None,,,,,,,,,,,,,,,,,,,,,,,,,,,,,,,,,,,plain,88,61,aloud,red,972.645980500034,None,None,972.645980500034,None,,,,,,,,,,,,,,,,,,,,,,,,,,,,,,2,001,2023_Jan_30_1016,ExactRep-v3-final,2021.2.3,59.91112781189719,
,,,,,,,,61,0,61,0,,,,,,,,,,,,,,,,,,,,,,,,,,,,,,,,,,,,,,,,,,,,,,,,,,,,,977.1671930999728,None,,,,,,,,,,,,,,,,,,,,,,,,,,,,,,,,,,,woods,115,62,aloud,red,975.1550317000365,None,None,975.1550317000365,None,,,,,,,,,,,,,,,,,,,,,,,,,,,,,,2,001,2023_Jan_30_1016,ExactRep-v3-final,2021.2.3,59.91112781189719,
,,,,,,,,62,0,62,0,,,,,,,,,,,,,,,,,,,,,,,,,,,,,,,,,,,,,,,,,,,,,,,,,,,,,979.6696223999606,None,,,,,,,,,,,,,,,,,,,,,,,,,,,,,,,,,,,shock,63,63,silent,white,977.6675484000007,None,None,977.6675484000007,None,,,,,,,,,,,,,,,,,,,,,,,,,,,,,,2,001,2023_Jan_30_1016,ExactRep-v3-final,2021.2.3,59.91112781189719,
,,,,,,,,63,0,63,0,,,,,,,,,,,,,,,,,,,,,,,,,,,,,,,,,,,,,,,,,,,,,,,,,,,,,982.1888604999986,None,,,,,,,,,,,,,,,,,,,,,,,,,,,,,,,,,,,palace,108,64,aloud,red,980.1740464000031,None,None,980.1740464000031,None,,,,,,,,,,,,,,,,,,,,,,,,,,,,,,2,001,2023_Jan_30_1016,ExactRep-v3-final,2021.2.3,59.91112781189719,
,,,,,,,,64,0,64,0,,,,,,,,,,,,,,,,,,,,,,,,,,,,,,,,,,,,,,,,,,,,,,,,,,,,,984.6914211000549,None,,,,,,,,,,,,,,,,,,,,,,,,,,,,,,,,,,,flesh,52,65,silent,white,982.6899819000391,None,None,982.6899819000391,None,,,,,,,,,,,,,,,,,,,,,,,,,,,,,,2,001,2023_Jan_30_1016,ExactRep-v3-final,2021.2.3,59.91112781189719,
,,,,,,,,65,0,65,0,,,,,,,,,,,,,,,,,,,,,,,,,,,,,,,,,,,,,,,,,,,,,,,,,,,,,987.193547999952,None,,,,,,,,,,,,,,,,,,,,,,,,,,,,,,,,,,,shore,30,66,sing,blue,985.1918802999426,None,None,985.1918802999426,None,,,,,,,,,,,,,,,,,,,,,,,,,,,,,,2,001,2023_Jan_30_1016,ExactRep-v3-final,2021.2.3,59.91112781189719,
,,,,,,,,66,0,66,0,,,,,,,,,,,,,,,,,,,,,,,,,,,,,,,,,,,,,,,,,,,,,,,,,,,,,989.6963619999588,None,,,,,,,,,,,,,,,,,,,,,,,,,,,,,,,,,,,master,22,67,sing,blue,987.6941167999757,None,None,987.6941167999757,None,,,,,,,,,,,,,,,,,,,,,,,,,,,,,,2,001,2023_Jan_30_1016,ExactRep-v3-final,2021.2.3,59.91112781189719,
,,,,,,,,67,0,67,0,,,,,,,,,,,,,,,,,,,,,,,,,,,,,,,,,,,,,,,,,,,,,,,,,,,,,992.2154660000233,None,,,,,,,,,,,,,,,,,,,,,,,,,,,,,,,,,,,plant,66,68,silent,white,990.2002726000501,None,None,990.2002726000501,None,,,,,,,,,,,,,,,,,,,,,,,,,,,,,,2,001,2023_Jan_30_1016,ExactRep-v3-final,2021.2.3,59.91112781189719,
,,,,,,,,68,0,68,0,,,,,,,,,,,,,,,,,,,,,,,,,,,,,,,,,,,,,,,,,,,,,,,,,,,,,994.7180275999708,None,,,,,,,,,,,,,,,,,,,,,,,,,,,,,,,,,,,excuse,107,69,aloud,red,992.7165292999707,None,None,992.7165292999707,None,,,,,,,,,,,,,,,,,,,,,,,,,,,,,,2,001,2023_Jan_30_1016,ExactRep-v3-final,2021.2.3,59.91112781189719,
,,,,,,,,69,0,69,0,,,,,,,,,,,,,,,,,,,,,,,,,,,,,,,,,,,,,,,,,,,,,,,,,,,,,997.2205471999478,None,,,,,,,,,,,,,,,,,,,,,,,,,,,,,,,,,,,theory,10,70,sing,blue,995.2185322999721,None,None,995.2185322999721,None,,,,,,,,,,,,,,,,,,,,,,,,,,,,,,2,001,2023_Jan_30_1016,ExactRep-v3-final,2021.2.3,59.91112781189719,
,,,,,,,,70,0,70,0,,,,,,,,,,,,,,,,,,,,,,,,,,,,,,,,,,,,,,,,,,,,,,,,,,,,,999.7230314000044,None,,,,,,,,,,,,,,,,,,,,,,,,,,,,,,,,,,,form,11,71,sing,blue,997.7226291999687,None,None,997.7226291999687,None,,,,,,,,,,,,,,,,,,,,,,,,,,,,,,2,001,2023_Jan_30_1016,ExactRep-v3-final,2021.2.3,59.91112781189719,
,,,,,,,,71,0,71,0,,,,,,,,,,,,,,,,,,,,,,,,,,,,,,,,,,,,,,,,,,,,,,,,,,,,,1002.2422380000353,None,,,,,,,,,,,,,,,,,,,,,,,,,,,,,,,,,,,meadow,105,72,aloud,red,1000.2299372999696,None,None,1000.2299372999696,None,,,,,,,,,,,,,,,,,,,,,,,,,,,,,,2,001,2023_Jan_30_1016,ExactRep-v3-final,2021.2.3,59.91112781189719,
,,,,,,,,72,0,72,0,,,,,,,,,,,,,,,,,,,,,,,,,,,,,,,,,,,,,,,,,,,,,,,,,,,,,1004.7448320999974,None,,,,,,,,,,,,,,,,,,,,,,,,,,,,,,,,,,,garden,94,73,aloud,red,1002.7427730000345,None,None,1002.7427730000345,None,,,,,,,,,,,,,,,,,,,,,,,,,,,,,,2,001,2023_Jan_30_1016,ExactRep-v3-final,2021.2.3,59.91112781189719,
,,,,,,,,73,0,73,0,,,,,,,,,,,,,,,,,,,,,,,,,,,,,,,,,,,,,,,,,,,,,,,,,,,,,1007.2472271999577,None,,,,,,,,,,,,,,,,,,,,,,,,,,,,,,,,,,,salary,75,74,silent,white,1005.248259200016,None,None,1005.248259200016,None,,,,,,,,,,,,,,,,,,,,,,,,,,,,,,2,001,2023_Jan_30_1016,ExactRep-v3-final,2021.2.3,59.91112781189719,
,,,,,,,,74,0,74,0,,,,,,,,,,,,,,,,,,,,,,,,,,,,,,,,,,,,,,,,,,,,,,,,,,,,,1009.7498047000263,None,,,,,,,,,,,,,,,,,,,,,,,,,,,,,,,,,,,forest,69,75,silent,white,1007.7504335000413,None,None,1007.7504335000413,None,,,,,,,,,,,,,,,,,,,,,,,,,,,,,,2,001,2023_Jan_30_1016,ExactRep-v3-final,2021.2.3,59.91112781189719,
,,,,,,,,75,0,75,0,,,,,,,,,,,,,,,,,,,,,,,,,,,,,,,,,,,,,,,,,,,,,,,,,,,,,1012.262564899982,None,,,,,,,,,,,,,,,,,,,,,,,,,,,,,,,,,,,iron,25,76,sing,blue,1010.2517326000379,None,None,1010.2517326000379,None,,,,,,,,,,,,,,,,,,,,,,,,,,,,,,2,001,2023_Jan_30_1016,ExactRep-v3-final,2021.2.3,59.91112781189719,
,,,,,,,,76,0,76,0,,,,,,,,,,,,,,,,,,,,,,,,,,,,,,,,,,,,,,,,,,,,,,,,,,,,,1014.7714750999585,None,,,,,,,,,,,,,,,,,,,,,,,,,,,,,,,,,,,insect,42,77,silent,white,1012.7693888000213,None,None,1012.7693888000213,None,,,,,,,,,,,,,,,,,,,,,,,,,,,,,,2,001,2023_Jan_30_1016,ExactRep-v3-final,2021.2.3,59.91112781189719,
,,,,,,,,77,0,77,0,,,,,,,,,,,,,,,,,,,,,,,,,,,,,,,,,,,,,,,,,,,,,,,,,,,,,1017.2910685000243,None,,,,,,,,,,,,,,,,,,,,,,,,,,,,,,,,,,,kiss,72,78,silent,white,1015.28050480003,None,None,1015.28050480003,None,,,,,,,,,,,,,,,,,,,,,,,,,,,,,,2,001,2023_Jan_30_1016,ExactRep-v3-final,2021.2.3,59.91112781189719,
,,,,,,,,78,0,78,0,,,,,,,,,,,,,,,,,,,,,,,,,,,,,,,,,,,,,,,,,,,,,,,,,,,,,1019.7931271999842,None,,,,,,,,,,,,,,,,,,,,,,,,,,,,,,,,,,,king,33,79,sing,blue,1017.7908593999455,None,None,1017.7908593999455,None,,,,,,,,,,,,,,,,,,,,,,,,,,,,,,2,001,2023_Jan_30_1016,ExactRep-v3-final,2021.2.3,59.91112781189719,
,,,,,,,,79,0,79,0,,,,,,,,,,,,,,,,,,,,,,,,,,,,,,,,,,,,,,,,,,,,,,,,,,,,,1022.3123342000181,None,,,,,,,,,,,,,,,,,,,,,,,,,,,,,,,,,,,meeting,106,80,aloud,red,1020.2993095000274,None,None,1020.2993095000274,None,,,,,,,,,,,,,,,,,,,,,,,,,,,,,,2,001,2023_Jan_30_1016,ExactRep-v3-final,2021.2.3,59.91112781189719,
,,,,,,,,80,0,80,0,,,,,,,,,,,,,,,,,,,,,,,,,,,,,,,,,,,,,,,,,,,,,,,,,,,,,1024.831508900039,None,,,,,,,,,,,,,,,,,,,,,,,,,,,,,,,,,,,church,99,81,aloud,red,1022.8208778999979,None,None,1022.8208778999979,None,,,,,,,,,,,,,,,,,,,,,,,,,,,,,,2,001,2023_Jan_30_1016,ExactRep-v3-final,2021.2.3,59.91112781189719,
,,,,,,,,81,0,81,0,,,,,,,,,,,,,,,,,,,,,,,,,,,,,,,,,,,,,,,,,,,,,,,,,,,,,1027.3340336000547,None,,,,,,,,,,,,,,,,,,,,,,,,,,,,,,,,,,,body,112,82,aloud,red,1025.3334781000158,None,None,1025.3334781000158,None,,,,,,,,,,,,,,,,,,,,,,,,,,,,,,2,001,2023_Jan_30_1016,ExactRep-v3-final,2021.2.3,59.91112781189719,
,,,,,,,,82,0,82,0,,,,,,,,,,,,,,,,,,,,,,,,,,,,,,,,,,,,,,,,,,,,,,,,,,,,,1029.8365412000567,None,,,,,,,,,,,,,,,,,,,,,,,,,,,,,,,,,,,officer,89,83,aloud,red,1027.837510399986,None,None,1027.837510399986,None,,,,,,,,,,,,,,,,,,,,,,,,,,,,,,2,001,2023_Jan_30_1016,ExactRep-v3-final,2021.2.3,59.91112781189719,
,,,,,,,,83,0,83,0,,,,,,,,,,,,,,,,,,,,,,,,,,,,,,,,,,,,,,,,,,,,,,,,,,,,,1032.3556454000063,None,,,,,,,,,,,,,,,,,,,,,,,,,,,,,,,,,,,river,79,84,sing,blue,1030.3422528000083,None,None,1030.3422528000083,None,,,,,,,,,,,,,,,,,,,,,,,,,,,,,,2,001,2023_Jan_30_1016,ExactRep-v3-final,2021.2.3,59.91112781189719,
,,,,,,,,84,0,84,0,,,,,,,,,,,,,,,,,,,,,,,,,,,,,,,,,,,,,,,,,,,,,,,,,,,,,1034.8748491000151,None,,,,,,,,,,,,,,,,,,,,,,,,,,,,,,,,,,,charm,78,85,silent,white,1032.8634358999552,None,None,1032.8634358999552,None,,,,,,,,,,,,,,,,,,,,,,,,,,,,,,2,001,2023_Jan_30_1016,ExactRep-v3-final,2021.2.3,59.91112781189719,
,,,,,,,,85,0,85,0,,,,,,,,,,,,,,,,,,,,,,,,,,,,,,,,,,,,,,,,,,,,,,,,,,,,,1037.3940397000406,None,,,,,,,,,,,,,,,,,,,,,,,,,,,,,,,,,,,potato,64,86,silent,white,1035.3786819999805,None,None,1035.3786819999805,None,,,,,,,,,,,,,,,,,,,,,,,,,,,,,,2,001,2023_Jan_30_1016,ExactRep-v3-final,2021.2.3,59.91112781189719,
,,,,,,,,86,0,86,0,,,,,,,,,,,,,,,,,,,,,,,,,,,,,,,,,,,,,,,,,,,,,,,,,,,,,1039.8964880000567,None,,,,,,,,,,,,,,,,,,,,,,,,,,,,,,,,,,,toy,34,87,sing,blue,1037.8964084000327,None,None,1037.8964084000327,None,,,,,,,,,,,,,,,,,,,,,,,,,,,,,,2,001,2023_Jan_30_1016,ExactRep-v3-final,2021.2.3,59.91112781189719,
,,,,,,,,87,0,87,0,,,,,,,,,,,,,,,,,,,,,,,,,,,,,,,,,,,,,,,,,,,,,,,,,,,,,1042.3989881000016,None,,,,,,,,,,,,,,,,,,,,,,,,,,,,,,,,,,,dawn,53,88,silent,white,1040.3986625999678,None,None,1040.3986625999678,None,,,,,,,,,,,,,,,,,,,,,,,,,,,,,,2,001,2023_Jan_30_1016,ExactRep-v3-final,2021.2.3,59.91112781189719,
,,,,,,,,88,0,88,0,,,,,,,,,,,,,,,,,,,,,,,,,,,,,,,,,,,,,,,,,,,,,,,,,,,,,1044.901539399987,None,,,,,,,,,,,,,,,,,,,,,,,,,,,,,,,,,,,car,67,89,silent,white,1042.8995522999903,None,None,1042.8995522999903,None,,,,,,,,,,,,,,,,,,,,,,,,,,,,,,2,001,2023_Jan_30_1016,ExactRep-v3-final,2021.2.3,59.91112781189719,
,,,,,,,,89,0,89,0,,,,,,,,,,,,,,,,,,,,,,,,,,,,,,,,,,,,,,,,,,,,,,,,,,,,,1047.4209407999879,None,,,,,,,,,,,,,,,,,,,,,,,,,,,,,,,,,,,window,60,90,silent,white,1045.4054692999925,None,None,1045.4054692999925,None,,,,,,,,,,,,,,,,,,,,,,,,,,,,,,2,001,2023_Jan_30_1016,ExactRep-v3-final,2021.2.3,59.91112781189719,
,,,,,,,,90,0,90,0,,,,,,,,,,,,,,,,,,,,,,,,,,,,,,,,,,,,,,,,,,,,,,,,,,,,,1049.939900199999,None,,,,,,,,,,,,,,,,,,,,,,,,,,,,,,,,,,,avenue,92,91,aloud,red,1047.9305077999597,None,None,1047.9305077999597,None,,,,,,,,,,,,,,,,,,,,,,,,,,,,,,2,001,2023_Jan_30_1016,ExactRep-v3-final,2021.2.3,59.91112781189719,
,,,,,,,,91,0,91,0,,,,,,,,,,,,,,,,,,,,,,,,,,,,,,,,,,,,,,,,,,,,,,,,,,,,,1052.4424683999969,None,,,,,,,,,,,,,,,,,,,,,,,,,,,,,,,,,,,heaven,47,92,silent,white,1050.4421156999888,None,None,1050.4421156999888,None,,,,,,,,,,,,,,,,,,,,,,,,,,,,,,2,001,2023_Jan_30_1016,ExactRep-v3-final,2021.2.3,59.91112781189719,
,,,,,,,,92,0,92,0,,,,,,,,,,,,,,,,,,,,,,,,,,,,,,,,,,,,,,,,,,,,,,,,,,,,,1054.9616081999848,None,,,,,,,,,,,,,,,,,,,,,,,,,,,,,,,,,,,glory,95,93,aloud,red,1052.9473252999596,None,None,1052.9473252999596,None,,,,,,,,,,,,,,,,,,,,,,,,,,,,,,2,001,2023_Jan_30_1016,ExactRep-v3-final,2021.2.3,59.91112781189719,
,,,,,,,,93,0,93,0,,,,,,,,,,,,,,,,,,,,,,,,,,,,,,,,,,,,,,,,,,,,,,,,,,,,,1057.4807141999481,None,,,,,,,,,,,,,,,,,,,,,,,,,,,,,,,,,,,method,40,94,silent,white,1055.4658694999525,None,None,1055.4658694999525,None,,,,,,,,,,,,,,,,,,,,,,,,,,,,,,2,001,2023_Jan_30_1016,ExactRep-v3-final,2021.2.3,59.91112781189719,
,,,,,,,,94,0,94,0,,,,,,,,,,,,,,,,,,,,,,,,,,,,,,,,,,,,,,,,,,,,,,,,,,,,,1059.9832798000425,None,,,,,,,,,,,,,,,,,,,,,,,,,,,,,,,,,,,coast,21,95,sing,blue,1057.9812268000096,None,None,1057.9812268000096,None,,,,,,,,,,,,,,,,,,,,,,,,,,,,,,2,001,2023_Jan_30_1016,ExactRep-v3-final,2021.2.3,59.91112781189719,
,,,,,,,,95,0,95,0,,,,,,,,,,,,,,,,,,,,,,,,,,,,,,,,,,,,,,,,,,,,,,,,,,,,,1062.5036035999656,None,,,,,,,,,,,,,,,,,,,,,,,,,,,,,,,,,,,gold,8,96,sing,blue,1060.492951399996,None,None,1060.492951399996,None,,,,,,,,,,,,,,,,,,,,,,,,,,,,,,2,001,2023_Jan_30_1016,ExactRep-v3-final,2021.2.3,59.91112781189719,
,,,,,,,,96,0,96,0,,,,,,,,,,,,,,,,,,,,,,,,,,,,,,,,,,,,,,,,,,,,,,,,,,,,,1065.0049115000293,None,,,,,,,,,,,,,,,,,,,,,,,,,,,,,,,,,,,present,86,97,aloud,red,1063.003056299989,None,None,1063.003056299989,None,,,,,,,,,,,,,,,,,,,,,,,,,,,,,,2,001,2023_Jan_30_1016,ExactRep-v3-final,2021.2.3,59.91112781189719,
,,,,,,,,97,0,97,0,,,,,,,,,,,,,,,,,,,,,,,,,,,,,,,,,,,,,,,,,,,,,,,,,,,,,1067.507417100016,None,,,,,,,,,,,,,,,,,,,,,,,,,,,,,,,,,,,truth,74,98,silent,white,1065.5059044000227,None,None,1065.5059044000227,None,,,,,,,,,,,,,,,,,,,,,,,,,,,,,,2,001,2023_Jan_30_1016,ExactRep-v3-final,2021.2.3,59.91112781189719,
,,,,,,,,98,0,98,0,,,,,,,,,,,,,,,,,,,,,,,,,,,,,,,,,,,,,,,,,,,,,,,,,,,,,1070.0100513000507,None,,,,,,,,,,,,,,,,,,,,,,,,,,,,,,,,,,,storm,62,99,silent,white,1068.0094621999888,None,None,1068.0094621999888,None,,,,,,,,,,,,,,,,,,,,,,,,,,,,,,2,001,2023_Jan_30_1016,ExactRep-v3-final,2021.2.3,59.91112781189719,
,,,,,,,,99,0,99,0,,,,,,,,,,,,,,,,,,,,,,,,,,,,,,,,,,,,,,,,,,,,,,,,,,,,,1072.5124722999753,None,,,,,,,,,,,,,,,,,,,,,,,,,,,,,,,,,,,cost,81,100,aloud,red,1070.5133919999935,None,None,1070.5133919999935,None,,,,,,,,,,,,,,,,,,,,,,,,,,,,,,2,001,2023_Jan_30_1016,ExactRep-v3-final,2021.2.3,59.91112781189719,
,,,,,,,,100,0,100,0,,,,,,,,,,,,,,,,,,,,,,,,,,,,,,,,,,,,,,,,,,,,,,,,,,,,,1075.0149920999538,None,,,,,,,,,,,,,,,,,,,,,,,,,,,,,,,,,,,corn,31,101,sing,blue,1073.015134199988,None,None,1073.015134199988,None,,,,,,,,,,,,,,,,,,,,,,,,,,,,,,2,001,2023_Jan_30_1016,ExactRep-v3-final,2021.2.3,59.91112781189719,
,,,,,,,,101,0,101,0,,,,,,,,,,,,,,,,,,,,,,,,,,,,,,,,,,,,,,,,,,,,,,,,,,,,,1077.5359915000154,None,,,,,,,,,,,,,,,,,,,,,,,,,,,,,,,,,,,lord,83,102,aloud,red,1075.520017300034,None,None,1075.520017300034,None,,,,,,,,,,,,,,,,,,,,,,,,,,,,,,2,001,2023_Jan_30_1016,ExactRep-v3-final,2021.2.3,59.91112781189719,
,,,,,,,,102,0,102,0,,,,,,,,,,,,,,,,,,,,,,,,,,,,,,,,,,,,,,,,,,,,,,,,,,,,,1080.0530816999963,None,,,,,,,,,,,,,,,,,,,,,,,,,,,,,,,,,,,blossom,41,103,silent,white,1078.0377276999643,None,None,1078.0377276999643,None,,,,,,,,,,,,,,,,,,,,,,,,,,,,,,2,001,2023_Jan_30_1016,ExactRep-v3-final,2021.2.3,59.91112781189719,
,,,,,,,,103,0,103,0,,,,,,,,,,,,,,,,,,,,,,,,,,,,,,,,,,,,,,,,,,,,,,,,,,,,,1082.572576000006,None,,,,,,,,,,,,,,,,,,,,,,,,,,,,,,,,,,,murder,61,104,silent,white,1080.563389100018,None,None,1080.563389100018,None,,,,,,,,,,,,,,,,,,,,,,,,,,,,,,2,001,2023_Jan_30_1016,ExactRep-v3-final,2021.2.3,59.91112781189719,
,,,,,,,,104,0,104,0,,,,,,,,,,,,,,,,,,,,,,,,,,,,,,,,,,,,,,,,,,,,,,,,,,,,,1085.0916591000278,None,,,,,,,,,,,,,,,,,,,,,,,,,,,,,,,,,,,doctor,109,105,aloud,red,1083.0821858999552,None,None,1083.0821858999552,None,,,,,,,,,,,,,,,,,,,,,,,,,,,,,,2,001,2023_Jan_30_1016,ExactRep-v3-final,2021.2.3,59.91112781189719,
,,,,,,,,105,0,105,0,,,,,,,,,,,,,,,,,,,,,,,,,,,,,,,,,,,,,,,,,,,,,,,,,,,,,1087.6110797999427,None,,,,,,,,,,,,,,,,,,,,,,,,,,,,,,,,,,,tree,12,106,sing,blue,1085.6000870999414,None,None,1085.6000870999414,None,,,,,,,,,,,,,,,,,,,,,,,,,,,,,,2,001,2023_Jan_30_1016,ExactRep-v3-final,2021.2.3,59.91112781189719,
,,,,,,,,106,0,106,0,,,,,,,,,,,,,,,,,,,,,,,,,,,,,,,,,,,,,,,,,,,,,,,,,,,,,1090.1134038999444,None,,,,,,,,,,,,,,,,,,,,,,,,,,,,,,,,,,,love,101,107,aloud,red,1088.1113974000327,None,None,1088.1113974000327,None,,,,,,,,,,,,,,,,,,,,,,,,,,,,,,2,001,2023_Jan_30_1016,ExactRep-v3-final,2021.2.3,59.91112781189719,
,,,,,,,,107,0,107,0,,,,,,,,,,,,,,,,,,,,,,,,,,,,,,,,,,,,,,,,,,,,,,,,,,,,,1092.6159552000463,None,,,,,,,,,,,,,,,,,,,,,,,,,,,,,,,,,,,girl,23,108,sing,blue,1090.6157519000117,None,None,1090.6157519000117,None,,,,,,,,,,,,,,,,,,,,,,,,,,,,,,2,001,2023_Jan_30_1016,ExactRep-v3-final,2021.2.3,59.91112781189719,
,,,,,,,,108,0,108,0,,,,,,,,,,,,,,,,,,,,,,,,,,,,,,,,,,,,,,,,,,,,,,,,,,,,,1095.118484799983,None,,,,,,,,,,,,,,,,,,,,,,,,,,,,,,,,,,,vessel,116,109,aloud,red,1093.1185693000443,None,None,1093.1185693000443,None,,,,,,,,,,,,,,,,,,,,,,,,,,,,,,2,001,2023_Jan_30_1016,ExactRep-v3-final,2021.2.3,59.91112781189719,
,,,,,,,,109,0,109,0,,,,,,,,,,,,,,,,,,,,,,,,,,,,,,,,,,,,,,,,,,,,,,,,,,,,,1097.6376501000486,None,,,,,,,,,,,,,,,,,,,,,,,,,,,,,,,,,,,colony,82,110,aloud,red,1095.6240494999802,None,None,1095.6240494999802,None,,,,,,,,,,,,,,,,,,,,,,,,,,,,,,2,001,2023_Jan_30_1016,ExactRep-v3-final,2021.2.3,59.91112781189719,
,,,,,,,,110,0,110,0,,,,,,,,,,,,,,,,,,,,,,,,,,,,,,,,,,,,,,,,,,,,,,,,,,,,,1100.1400577999884,None,,,,,,,,,,,,,,,,,,,,,,,,,,,,,,,,,,,camp,4,111,sing,blue,1098.1380496999482,None,None,1098.1380496999482,None,,,,,,,,,,,,,,,,,,,,,,,,,,,,,,2,001,2023_Jan_30_1016,ExactRep-v3-final,2021.2.3,59.91112781189719,
,,,,,,,,111,0,111,0,,,,,,,,,,,,,,,,,,,,,,,,,,,,,,,,,,,,,,,,,,,,,,,,,,,,,1102.6593257000204,None,,,,,,,,,,,,,,,,,,,,,,,,,,,,,,,,,,,judge,26,112,sing,blue,1100.644875900005,None,None,1100.644875900005,None,,,,,,,,,,,,,,,,,,,,,,,,,,,,,,2,001,2023_Jan_30_1016,ExactRep-v3-final,2021.2.3,59.91112781189719,
,,,,,,,,112,0,112,0,,,,,,,,,,,,,,,,,,,,,,,,,,,,,,,,,,,,,,,,,,,,,,,,,,,,,1105.1782105000457,None,,,,,,,,,,,,,,,,,,,,,,,,,,,,,,,,,,,party,49,113,silent,white,1103.1631502000382,None,None,1103.1631502000382,None,,,,,,,,,,,,,,,,,,,,,,,,,,,,,,2,001,2023_Jan_30_1016,ExactRep-v3-final,2021.2.3,59.91112781189719,
,,,,,,,,113,0,113,0,,,,,,,,,,,,,,,,,,,,,,,,,,,,,,,,,,,,,,,,,,,,,,,,,,,,,1107.6809265000047,None,,,,,,,,,,,,,,,,,,,,,,,,,,,,,,,,,,,dust,48,114,silent,white,1105.6789592000423,None,None,1105.6789592000423,None,,,,,,,,,,,,,,,,,,,,,,,,,,,,,,2,001,2023_Jan_30_1016,ExactRep-v3-final,2021.2.3,59.91112781189719,
,,,,,,,,114,0,114,0,,,,,,,,,,,,,,,,,,,,,,,,,,,,,,,,,,,,,,,,,,,,,,,,,,,,,1110.2000524000032,None,,,,,,,,,,,,,,,,,,,,,,,,,,,,,,,,,,,history,113,115,aloud,red,1108.1865344999824,None,None,1108.1865344999824,None,,,,,,,,,,,,,,,,,,,,,,,,,,,,,,2,001,2023_Jan_30_1016,ExactRep-v3-final,2021.2.3,59.91112781189719,
,,,,,,,,115,0,115,0,,,,,,,,,,,,,,,,,,,,,,,,,,,,,,,,,,,,,,,,,,,,,,,,,,,,,1112.7035966999829,None,,,,,,,,,,,,,,,,,,,,,,,,,,,,,,,,,,,grass,20,116,sing,blue,1110.7020937999478,None,None,1110.7020937999478,None,,,,,,,,,,,,,,,,,,,,,,,,,,,,,,2,001,2023_Jan_30_1016,ExactRep-v3-final,2021.2.3,59.91112781189719,
,,,,,,,,116,0,116,0,,,,,,,,,,,,,,,,,,,,,,,,,,,,,,,,,,,,,,,,,,,,,,,,,,,,,1115.2218414000235,None,,,,,,,,,,,,,,,,,,,,,,,,,,,,,,,,,,,victory,55,117,silent,white,1113.2132931000087,None,None,1113.2132931000087,None,,,,,,,,,,,,,,,,,,,,,,,,,,,,,,2,001,2023_Jan_30_1016,ExactRep-v3-final,2021.2.3,59.91112781189719,
,,,,,,,,117,0,117,0,,,,,,,,,,,,,,,,,,,,,,,,,,,,,,,,,,,,,,,,,,,,,,,,,,,,,1117.724362900015,None,,,,,,,,,,,,,,,,,,,,,,,,,,,,,,,,,,,volume,9,118,sing,blue,1115.7228178000078,None,None,1115.7228178000078,None,,,,,,,,,,,,,,,,,,,,,,,,,,,,,,2,001,2023_Jan_30_1016,ExactRep-v3-final,2021.2.3,59.91112781189719,
,,,,,,,,118,0,118,0,,,,,,,,,,,,,,,,,,,,,,,,,,,,,,,,,,,,,,,,,,,,,,,,,,,,,1120.2436745000305,None,,,,,,,,,,,,,,,,,,,,,,,,,,,,,,,,,,,cabin,36,119,sing,blue,1118.2294210999971,None,None,1118.2294210999971,None,,,,,,,,,,,,,,,,,,,,,,,,,,,,,,2,001,2023_Jan_30_1016,ExactRep-v3-final,2021.2.3,59.91112781189719,
,,,,,,,,119,0,119,0,,,,,,,,,,,,,,,,,,,,,,,,,,,,,,,,,,,,,,,,,,,,,,,,,,,,,1122.745882499963,None,,,,,,,,,,,,,,,,,,,,,,,,,,,,,,,,,,,letter,3,120,sing,blue,1120.7448818000266,None,None,1120.7448818000266,None,,,,,,,,,,,,,,,,,,,,,,,,,,,,,,2,001,2023_Jan_30_1016,ExactRep-v3-final,2021.2.3,59.91112781189719,
,,,,,,,,,,,,,,,,,,,,,,,,,,,,,,,,,,,,,,,,,,,,,,,,,,,,,,,,,,,,,,,,,,,,,,,,,,,,,,,,,,,,,,,,,,,,,,,,,,,,,,,,,,,,,,1123.2482356999535,None,space,14.638643800048158,1133.2244596000528,None,,,,,,,,,,,,,,,,,,,,,,,,2,001,2023_Jan_30_1016,ExactRep-v3-final,2021.2.3,59.91112781189719,
,,,,,,,,,,,,,,,,,,,,,,,,,,,,,,,,,,,,,,,,,,,,,,,,,,,,,,,,,,,,,,,,,,,,,,,,,,,,,,,,,,,,,,,,,,,,,,,,,,,,,,,,,,,,,,,,,,,,1147.8894994000439,None,space,41.98967319994699,1157.8658568999963,None,,,,,,,,,,,,,,,,,,2,001,2023_Jan_30_1016,ExactRep-v3-final,2021.2.3,59.91112781189719,
,,,,,,,,,,,,0,0,0,0,,,,,,,,,,,,,,,,,,,,,,,,,,,,,,,,,,,,,,,,,,,,,,,,,1204.1792113999836,None,,,,,,,,,,,,,,,,,,,,,,,,,,,,,,,,,,,,,,,,,,,,,,,,,,,,,,,,,woman,229,1,sing,new,blue,1200.3862131000496,None,n,1200.3862131000496,None,"['n', 'return']","[2.3567156000062823, 3.756629800074734]",1200.3862131000496,None,,,2,001,2023_Jan_30_1016,ExactRep-v3-final,2021.2.3,59.91112781189719,
,,,,,,,,,,,,1,0,1,0,,,,,,,,,,,,,,,,,,,,,,,,,,,,,,,,,,,,,,,,,,,,,,,,,1209.2656925000483,None,,,,,,,,,,,,,,,,,,,,,,,,,,,,,,,,,,,,,,,,,,,,,,,,,,,,,,,,,picture,98,2,aloud,old,red,1204.7060732999817,None,y,1204.7060732999817,None,"['y', 'return']","[3.2767298000399023, 4.516701600048691]",1204.7060732999817,None,,,2,001,2023_Jan_30_1016,ExactRep-v3-final,2021.2.3,59.91112781189719,
,,,,,,,,,,,,2,0,2,0,,,,,,,,,,,,,,,,,,,,,,,,,,,,,,,,,,,,,,,,,,,,,,,,,1212.6360457000555,None,,,,,,,,,,,,,,,,,,,,,,,,,,,,,,,,,,,,,,,,,,,,,,,,,,,,,,,,,product,121,3,silent,new,white,1209.7723806999857,None,n,1209.7723806999857,None,"['n', 'return']","[1.7864112000679597, 2.818509600008838]",1209.7723806999857,None,,,2,001,2023_Jan_30_1016,ExactRep-v3-final,2021.2.3,59.91112781189719,
,,,,,,,,,,,,3,0,3,0,,,,,,,,,,,,,,,,,,,,,,,,,,,,,,,,,,,,,,,,,,,,,,,,,1216.4395674000261,None,,,,,,,,,,,,,,,,,,,,,,,,,,,,,,,,,,,,,,,,,,,,,,,,,,,,,,,,,chair,65,4,silent,old,white,1213.1425717000384,None,n,1213.1425717000384,None,"['n', 'return']","[2.392293500015512, 3.264253899920732]",1213.1425717000384,None,,,2,001,2023_Jan_30_1016,ExactRep-v3-final,2021.2.3,59.91112781189719,
,,,,,,,,,,,,4,0,4,0,,,,,,,,,,,,,,,,,,,,,,,,,,,,,,,,,,,,,,,,,,,,,,,,,1219.5771407999564,None,,,,,,,,,,,,,,,,,,,,,,,,,,,,,,,,,,,,,,,,,,,,,,,,,,,,,,,,,virtue,208,5,aloud,new,red,1216.951142600039,None,n,1216.951142600039,None,"['n', 'return']","[1.7038115999894217, 2.5918018999509513]",1216.951142600039,None,,,2,001,2023_Jan_30_1016,ExactRep-v3-final,2021.2.3,59.91112781189719,
,,,,,,,,,,,,5,0,5,0,,,,,,,,,,,,,,,,,,,,,,,,,,,,,,,,,,,,,,,,,,,,,,,,,1223.0305724999635,None,,,,,,,,,,,,,,,,,,,,,,,,,,,,,,,,,,,,,,,,,,,,,,,,,,,,,,,,,moral,176,6,aloud,new,red,1220.0912146000192,None,n,1220.0912146000192,None,"['n', 'return']","[2.0036679999902844, 2.8996282999869436]",1220.0912146000192,None,,,2,001,2023_Jan_30_1016,ExactRep-v3-final,2021.2.3,59.91112781189719,
,,,,,,,,,,,,6,0,6,0,,,,,,,,,,,,,,,,,,,,,,,,,,,,,,,,,,,,,,,,,,,,,,,,,1226.299410799984,None,,,,,,,,,,,,,,,,,,,,,,,,,,,,,,,,,,,,,,,,,,,,,,,,,,,,,,,,,college,58,7,silent,old,white,1223.5475443999749,None,n,1223.5475443999749,None,"['n', 'return']","[1.7713289000093937, 2.7072943000821397]",1223.5475443999749,None,,,2,001,2023_Jan_30_1016,ExactRep-v3-final,2021.2.3,59.91112781189719,
,,,,,,,,,,,,7,0,7,0,,,,,,,,,,,,,,,,,,,,,,,,,,,,,,,,,,,,,,,,,,,,,,,,,1229.9196845999686,None,,,,,,,,,,,,,,,,,,,,,,,,,,,,,,,,,,,,,,,,,,,,,,,,,,,,,,,,,heaven,47,8,silent,old,white,1226.8076376999961,None,n,1226.8076376999961,None,"['n', 'return']","[2.303366999956779, 3.0791902999626473]",1226.8076376999961,None,,,2,001,2023_Jan_30_1016,ExactRep-v3-final,2021.2.3,59.91112781189719,
,,,,,,,,,,,,8,0,8,0,,,,,,,,,,,,,,,,,,,,,,,,,,,,,,,,,,,,,,,,,,,,,,,,,1234.691196299973,None,,,,,,,,,,,,,,,,,,,,,,,,,,,,,,,,,,,,,,,,,,,,,,,,,,,,,,,,,speech,117,9,aloud,old,red,1230.4277058000444,None,n,1230.4277058000444,None,"['n', 'return']","[3.4431484999367967, 4.21911619999446]",1230.4277058000444,None,,,2,001,2023_Jan_30_1016,ExactRep-v3-final,2021.2.3,59.91112781189719,
,,,,,,,,,,,,9,0,9,0,,,,,,,,,,,,,,,,,,,,,,,,,,,,,,,,,,,,,,,,,,,,,,,,,1237.7108063000487,None,,,,,,,,,,,,,,,,,,,,,,,,,,,,,,,,,,,,,,,,,,,,,,,,,,,,,,,,,hall,155,10,silent,new,white,1235.2064559999853,None,n,1235.2064559999853,None,"['n', 'return']","[1.6323626999510452, 2.4564200999448076]",1235.2064559999853,None,,,2,001,2023_Jan_30_1016,ExactRep-v3-final,2021.2.3,59.91112781189719,
,,,,,,,,,,,,10,0,10,0,,,,,,,,,,,,,,,,,,,,,,,,,,,,,,,,,,,,,,,,,,,,,,,,,1240.9974295999855,None,,,,,,,,,,,,,,,,,,,,,,,,,,,,,,,,,,,,,,,,,,,,,,,,,,,,,,,,,sugar,170,11,aloud,new,red,1238.2203619000502,None,n,1238.2203619000502,None,"['n', 'return']","[1.898464500089176, 2.7385172001086175]",1238.2203619000502,None,,,2,001,2023_Jan_30_1016,ExactRep-v3-final,2021.2.3,59.91112781189719,
,,,,,,,,,,,,11,0,11,0,,,,,,,,,,,,,,,,,,,,,,,,,,,,,,,,,,,,,,,,,,,,,,,,,1244.5843376000412,None,,,,,,,,,,,,,,,,,,,,,,,,,,,,,,,,,,,,,,,,,,,,,,,,,,,,,,,,,salary,75,12,silent,old,white,1241.5094283999642,None,n,1241.5094283999642,None,"['n', 'return']","[2.3615321000106633, 3.033475600066595]",1241.5094283999642,None,,,2,001,2023_Jan_30_1016,ExactRep-v3-final,2021.2.3,59.91112781189719,
,,,,,,,,,,,,12,0,12,0,,,,,,,,,,,,,,,,,,,,,,,,,,,,,,,,,,,,,,,,,,,,,,,,,1247.9044333000202,None,,,,,,,,,,,,,,,,,,,,,,,,,,,,,,,,,,,,,,,,,,,,,,,,,,,,,,,,,steam,123,13,silent,new,white,1245.092211500043,None,n,1245.092211500043,None,"['n', 'return']","[1.9866696000099182, 2.778717300039716]",1245.092211500043,None,,,2,001,2023_Jan_30_1016,ExactRep-v3-final,2021.2.3,59.91112781189719,
,,,,,,,,,,,,13,0,13,0,,,,,,,,,,,,,,,,,,,,,,,,,,,,,,,,,,,,,,,,,,,,,,,,,1250.3578669000417,None,,,,,,,,,,,,,,,,,,,,,,,,,,,,,,,,,,,,,,,,,,,,,,,,,,,,,,,,,weapon,235,14,sing,new,blue,1248.4158859000308,None,n,1248.4158859000308,None,"['n', 'return']","[1.3988713000435382, 1.9030857000034302]",1248.4158859000308,None,,,2,001,2023_Jan_30_1016,ExactRep-v3-final,2021.2.3,59.91112781189719,
,,,,,,,,,,,,14,0,14,0,,,,,,,,,,,,,,,,,,,,,,,,,,,,,,,,,,,,,,,,,,,,,,,,,1253.8602706999518,None,,,,,,,,,,,,,,,,,,,,,,,,,,,,,,,,,,,,,,,,,,,,,,,,,,,,,,,,,priest,27,15,sing,old,blue,1250.868081200053,None,y,1250.868081200053,None,"['y', 'return']","[2.1227556000230834, 2.954809300019406]",1250.868081200053,None,,,2,001,2023_Jan_30_1016,ExactRep-v3-final,2021.2.3,59.91112781189719,
,,,,,,,,,,,,15,0,15,0,,,,,,,,,,,,,,,,,,,,,,,,,,,,,,,,,,,,,,,,,,,,,,,,,1256.5129680000246,None,,,,,,,,,,,,,,,,,,,,,,,,,,,,,,,,,,,,,,,,,,,,,,,,,,,,,,,,,village,7,16,sing,old,blue,1254.3705273000523,None,y,1254.3705273000523,None,"['y', 'return']","[1.3883685999317095, 2.1083090999163687]",1254.3705273000523,None,,,2,001,2023_Jan_30_1016,ExactRep-v3-final,2021.2.3,59.91112781189719,
,,,,,,,,,,,,16,0,16,0,,,,,,,,,,,,,,,,,,,,,,,,,,,,,,,,,,,,,,,,,,,,,,,,,1259.1988921000157,None,,,,,,,,,,,,,,,,,,,,,,,,,,,,,,,,,,,,,,,,,,,,,,,,,,,,,,,,,iron,25,17,sing,old,blue,1257.0219351999694,None,y,1257.0219351999694,None,"['y', 'return']","[1.4169432000489905, 2.1291359000606462]",1257.0219351999694,None,,,2,001,2023_Jan_30_1016,ExactRep-v3-final,2021.2.3,59.91112781189719,
,,,,,,,,,,,,17,0,17,0,,,,,,,,,,,,,,,,,,,,,,,,,,,,,,,,,,,,,,,,,,,,,,,,,1262.0184055999853,None,,,,,,,,,,,,,,,,,,,,,,,,,,,,,,,,,,,,,,,,,,,,,,,,,,,,,,,,,girl,23,18,sing,old,blue,1259.7080985000357,None,y,1259.7080985000357,None,"['y', 'return']","[1.6347569999052212, 2.2747874999186024]",1259.7080985000357,None,,,2,001,2023_Jan_30_1016,ExactRep-v3-final,2021.2.3,59.91112781189719,
,,,,,,,,,,,,18,0,18,0,,,,,,,,,,,,,,,,,,,,,,,,,,,,,,,,,,,,,,,,,,,,,,,,,1264.5710877999663,None,,,,,,,,,,,,,,,,,,,,,,,,,,,,,,,,,,,,,,,,,,,,,,,,,,,,,,,,,fortune,181,19,sing,new,blue,1262.5254434000235,None,n,1262.5254434000235,None,"['n', 'return']","[1.265553200035356, 2.009496800019406]",1262.5254434000235,None,,,2,001,2023_Jan_30_1016,ExactRep-v3-final,2021.2.3,59.91112781189719,
,,,,,,,,,,,,19,0,19,0,,,,,,,,,,,,,,,,,,,,,,,,,,,,,,,,,,,,,,,,,,,,,,,,,1268.107848100015,None,,,,,,,,,,,,,,,,,,,,,,,,,,,,,,,,,,,,,,,,,,,,,,,,,,,,,,,,,money,196,20,aloud,new,red,1265.0819388000527,None,n,1265.0819388000527,None,"['n', 'return']","[2.2049594999989495, 2.9889107000781223]",1265.0819388000527,None,,,2,001,2023_Jan_30_1016,ExactRep-v3-final,2021.2.3,59.91112781189719,
,,,,,,,,,,,,20,0,20,0,,,,,,,,,,,,,,,,,,,,,,,,,,,,,,,,,,,,,,,,,,,,,,,,,1271.2443306000205,None,,,,,,,,,,,,,,,,,,,,,,,,,,,,,,,,,,,,,,,,,,,,,,,,,,,,,,,,,doll,237,21,sing,new,blue,1268.619320299942,None,n,1268.619320299942,None,"['n', 'return']","[1.9316251000855118, 2.579594900016673]",1268.619320299942,None,,,2,001,2023_Jan_30_1016,ExactRep-v3-final,2021.2.3,59.91112781189719,
,,,,,,,,,,,,21,0,21,0,,,,,,,,,,,,,,,,,,,,,,,,,,,,,,,,,,,,,,,,,,,,,,,,,1273.5466013000114,None,,,,,,,,,,,,,,,,,,,,,,,,,,,,,,,,,,,,,,,,,,,,,,,,,,,,,,,,,health,201,22,sing,new,blue,1271.7585801000241,None,n,1271.7585801000241,None,"['n', 'return']","[1.21615400002338, 1.7442371000070125]",1271.7585801000241,None,,,2,001,2023_Jan_30_1016,ExactRep-v3-final,2021.2.3,59.91112781189719,
,,,,,,,,,,,,22,0,22,0,,,,,,,,,,,,,,,,,,,,,,,,,,,,,,,,,,,,,,,,,,,,,,,,,1276.167984199943,None,,,,,,,,,,,,,,,,,,,,,,,,,,,,,,,,,,,,,,,,,,,,,,,,,,,,,,,,,tool,37,23,sing,old,blue,1274.048186799977,None,y,1274.048186799977,None,"['y', 'return']","[1.2946024000411853, 2.0706139999674633]",1274.048186799977,None,,,2,001,2023_Jan_30_1016,ExactRep-v3-final,2021.2.3,59.91112781189719,
,,,,,,,,,,,,23,0,23,0,,,,,,,,,,,,,,,,,,,,,,,,,,,,,,,,,,,,,,,,,,,,,,,,,1279.1355525000254,None,,,,,,,,,,,,,,,,,,,,,,,,,,,,,,,,,,,,,,,,,,,,,,,,,,,,,,,,,river,79,24,sing,old,blue,1276.6830830000108,None,y,1276.6830830000108,None,"['y', 'return']","[1.5958876999793574, 2.419723799917847]",1276.6830830000108,None,,,2,001,2023_Jan_30_1016,ExactRep-v3-final,2021.2.3,59.91112781189719,
,,,,,,,,,,,,24,0,24,0,,,,,,,,,,,,,,,,,,,,,,,,,,,,,,,,,,,,,,,,,,,,,,,,,1281.9720513999928,None,,,,,,,,,,,,,,,,,,,,,,,,,,,,,,,,,,,,,,,,,,,,,,,,,,,,,,,,,child,228,25,aloud,new,red,1279.6481711999513,None,n,1279.6481711999513,None,"['n', 'return']","[1.7506655000615865, 2.28670040005818]",1279.6481711999513,None,,,2,001,2023_Jan_30_1016,ExactRep-v3-final,2021.2.3,59.91112781189719,
,,,,,,,,,,,,25,0,25,0,,,,,,,,,,,,,,,,,,,,,,,,,,,,,,,,,,,,,,,,,,,,,,,,,1284.5411041999469,None,,,,,,,,,,,,,,,,,,,,,,,,,,,,,,,,,,,,,,,,,,,,,,,,,,,,,,,,,grief,190,26,aloud,new,red,1282.4825385999866,None,n,1282.4825385999866,None,"['n', 'return']","[1.5323291999520734, 2.020334900007583]",1282.4825385999866,None,,,2,001,2023_Jan_30_1016,ExactRep-v3-final,2021.2.3,59.91112781189719,
,,,,,,,,,,,,26,0,26,0,,,,,,,,,,,,,,,,,,,,,,,,,,,,,,,,,,,,,,,,,,,,,,,,,1287.1279916999629,None,,,,,,,,,,,,,,,,,,,,,,,,,,,,,,,,,,,,,,,,,,,,,,,,,,,,,,,,,church,99,27,aloud,old,red,1285.0510452999733,None,y,1285.0510452999733,None,"['y', 'return']","[1.5958639000309631, 2.043878299999051]",1285.0510452999733,None,,,2,001,2023_Jan_30_1016,ExactRep-v3-final,2021.2.3,59.91112781189719,
,,,,,,,,,,,,27,0,27,0,,,,,,,,,,,,,,,,,,,,,,,,,,,,,,,,,,,,,,,,,,,,,,,,,1289.846234299941,None,,,,,,,,,,,,,,,,,,,,,,,,,,,,,,,,,,,,,,,,,,,,,,,,,,,,,,,,,month,180,28,aloud,new,red,1287.634904799983,None,n,1287.634904799983,None,"['n', 'return']","[1.4999137000413612, 2.1640219000400975]",1287.634904799983,None,,,2,001,2023_Jan_30_1016,ExactRep-v3-final,2021.2.3,59.91112781189719,
,,,,,,,,,,,,28,0,28,0,,,,,,,,,,,,,,,,,,,,,,,,,,,,,,,,,,,,,,,,,,,,,,,,,1292.6834371000296,None,,,,,,,,,,,,,,,,,,,,,,,,,,,,,,,,,,,,,,,,,,,,,,,,,,,,,,,,,paper,165,29,sing,new,blue,1290.359590500011,None,n,1290.359590500011,None,"['n', 'return']","[1.743323199916631, 2.2792424999643117]",1290.359590500011,None,,,2,001,2023_Jan_30_1016,ExactRep-v3-final,2021.2.3,59.91112781189719,
,,,,,,,,,,,,29,0,29,0,,,,,,,,,,,,,,,,,,,,,,,,,,,,,,,,,,,,,,,,,,,,,,,,,1295.702080499963,None,,,,,,,,,,,,,,,,,,,,,,,,,,,,,,,,,,,,,,,,,,,,,,,,,,,,,,,,,charm,78,30,silent,old,white,1293.1935671999818,None,n,1293.1935671999818,None,"['n', 'return']","[1.997303800075315, 2.469305800041184]",1293.1935671999818,None,,,2,001,2023_Jan_30_1016,ExactRep-v3-final,2021.2.3,59.91112781189719,
,,,,,,,,,,,,30,0,30,0,,,,,,,,,,,,,,,,,,,,,,,,,,,,,,,,,,,,,,,,,,,,,,,,,1299.2723178999731,None,,,,,,,,,,,,,,,,,,,,,,,,,,,,,,,,,,,,,,,,,,,,,,,,,,,,,,,,,opinion,57,31,silent,old,white,1296.214829399949,None,n,1296.214829399949,None,"['n', 'return']","[2.24808910000138, 3.0241220999741927]",1296.214829399949,None,,,2,001,2023_Jan_30_1016,ExactRep-v3-final,2021.2.3,59.91112781189719,
,,,,,,,,,,,,31,0,31,0,,,,,,,,,,,,,,,,,,,,,,,,,,,,,,,,,,,,,,,,,,,,,,,,,1303.9269954999909,None,,,,,,,,,,,,,,,,,,,,,,,,,,,,,,,,,,,,,,,,,,,,,,,,,,,,,,,,,chief,186,32,aloud,new,red,1299.781205700012,None,n,1299.781205700012,None,"['n', 'return']","[3.3457481999648735, 4.0978573999600485]",1299.781205700012,None,,,2,001,2023_Jan_30_1016,ExactRep-v3-final,2021.2.3,59.91112781189719,
,,,,,,,,,,,,32,0,32,0,,,,,,,,,,,,,,,,,,,,,,,,,,,,,,,,,,,,,,,,,,,,,,,,,1306.4648348999908,None,,,,,,,,,,,,,,,,,,,,,,,,,,,,,,,,,,,,,,,,,,,,,,,,,,,,,,,,,excuse,107,33,aloud,old,red,1304.4402937999694,None,y,1304.4402937999694,None,"['y', 'return']","[1.2065573999425396, 1.9905201999936253]",1304.4402937999694,None,,,2,001,2023_Jan_30_1016,ExactRep-v3-final,2021.2.3,59.91112781189719,
,,,,,,,,,,,,33,0,33,0,,,,,,,,,,,,,,,,,,,,,,,,,,,,,,,,,,,,,,,,,,,,,,,,,1308.9988144000527,None,,,,,,,,,,,,,,,,,,,,,,,,,,,,,,,,,,,,,,,,,,,,,,,,,,,,,,,,,toy,34,34,sing,old,blue,1306.9908358999528,None,y,1306.9908358999528,None,"['y', 'return']","[1.216061499901116, 1.9680646999040619]",1306.9908358999528,None,,,2,001,2023_Jan_30_1016,ExactRep-v3-final,2021.2.3,59.91112781189719,
,,,,,,,,,,,,34,0,34,0,,,,,,,,,,,,,,,,,,,,,,,,,,,,,,,,,,,,,,,,,,,,,,,,,1312.7703900999622,None,,,,,,,,,,,,,,,,,,,,,,,,,,,,,,,,,,,,,,,,,,,,,,,,,,,,,,,,,cash,136,35,silent,new,white,1309.504480100004,None,n,1309.504480100004,None,"['n', 'return']","[2.1025013000471517, 3.2304404000751674]",1309.504480100004,None,,,2,001,2023_Jan_30_1016,ExactRep-v3-final,2021.2.3,59.91112781189719,
,,,,,,,,,,,,35,0,35,0,,,,,,,,,,,,,,,,,,,,,,,,,,,,,,,,,,,,,,,,,,,,,,,,,1315.6064110000152,None,,,,,,,,,,,,,,,,,,,,,,,,,,,,,,,,,,,,,,,,,,,,,,,,,,,,,,,,,duty,192,36,aloud,new,red,1313.2761266999878,None,n,1313.2761266999878,None,"['n', 'return']","[1.5708409000653774, 2.2908903000643477]",1313.2761266999878,None,,,2,001,2023_Jan_30_1016,ExactRep-v3-final,2021.2.3,59.91112781189719,
,,,,,,,,,,,,36,0,36,0,,,,,,,,,,,,,,,,,,,,,,,,,,,,,,,,,,,,,,,,,,,,,,,,,1318.3914231000235,None,,,,,,,,,,,,,,,,,,,,,,,,,,,,,,,,,,,,,,,,,,,,,,,,,,,,,,,,,method,40,37,silent,old,white,1316.1149191999575,None,y,1316.1149191999575,None,"['y', 'return']","[1.5879144000355154, 2.2439727000892162]",1316.1149191999575,None,,,2,001,2023_Jan_30_1016,ExactRep-v3-final,2021.2.3,59.91112781189719,
,,,,,,,,,,,,37,0,37,0,,,,,,,,,,,,,,,,,,,,,,,,,,,,,,,,,,,,,,,,,,,,,,,,,1321.5109188000206,None,,,,,,,,,,,,,,,,,,,,,,,,,,,,,,,,,,,,,,,,,,,,,,,,,,,,,,,,,dream,166,38,aloud,new,red,1318.9016810000176,None,n,1318.9016810000176,None,"['n', 'return']","[1.8891184999374673, 2.577110099955462]",1318.9016810000176,None,,,2,001,2023_Jan_30_1016,ExactRep-v3-final,2021.2.3,59.91112781189719,
,,,,,,,,,,,,38,0,38,0,,,,,,,,,,,,,,,,,,,,,,,,,,,,,,,,,,,,,,,,,,,,,,,,,1325.5162448999472,None,,,,,,,,,,,,,,,,,,,,,,,,,,,,,,,,,,,,,,,,,,,,,,,,,,,,,,,,,truth,74,39,silent,old,white,1322.0190256000496,None,y,1322.0190256000496,None,"['y', 'return']","[2.219892799970694, 3.4518387999851257]",1322.0190256000496,None,,,2,001,2023_Jan_30_1016,ExactRep-v3-final,2021.2.3,59.91112781189719,
,,,,,,,,,,,,39,0,39,0,,,,,,,,,,,,,,,,,,,,,,,,,,,,,,,,,,,,,,,,,,,,,,,,,1328.45148040005,None,,,,,,,,,,,,,,,,,,,,,,,,,,,,,,,,,,,,,,,,,,,,,,,,,,,,,,,,,trouble,223,40,sing,new,blue,1326.0231683000457,None,n,1326.0231683000457,None,"['n', 'return']","[1.6477771999780089, 2.391755499993451]",1326.0231683000457,None,,,2,001,2023_Jan_30_1016,ExactRep-v3-final,2021.2.3,59.91112781189719,
,,,,,,,,,,,,40,0,40,0,,,,,,,,,,,,,,,,,,,,,,,,,,,,,,,,,,,,,,,,,,,,,,,,,1331.454475400038,None,,,,,,,,,,,,,,,,,,,,,,,,,,,,,,,,,,,,,,,,,,,,,,,,,,,,,,,,,owner,224,41,aloud,new,red,1328.9597206000471,None,n,1328.9597206000471,None,"['n', 'return']","[1.7753908999729902, 2.4471751999808475]",1328.9597206000471,None,,,2,001,2023_Jan_30_1016,ExactRep-v3-final,2021.2.3,59.91112781189719,
,,,,,,,,,,,,41,0,41,0,,,,,,,,,,,,,,,,,,,,,,,,,,,,,,,,,,,,,,,,,,,,,,,,,1334.3740642999765,None,,,,,,,,,,,,,,,,,,,,,,,,,,,,,,,,,,,,,,,,,,,,,,,,,,,,,,,,,science,18,42,sing,old,blue,1331.9572984999977,None,y,1331.9572984999977,None,"['y', 'return']","[1.6015269999625161, 2.3696080999216065]",1331.9572984999977,None,,,2,001,2023_Jan_30_1016,ExactRep-v3-final,2021.2.3,59.91112781189719,
,,,,,,,,,,,,42,0,42,0,,,,,,,,,,,,,,,,,,,,,,,,,,,,,,,,,,,,,,,,,,,,,,,,,1337.5772944999626,None,,,,,,,,,,,,,,,,,,,,,,,,,,,,,,,,,,,,,,,,,,,,,,,,,,,,,,,,,fault,188,43,aloud,new,red,1334.8828408999834,None,n,1334.8828408999834,None,"['n', 'return']","[1.9320504000643268, 2.6520728999748826]",1334.8828408999834,None,,,2,001,2023_Jan_30_1016,ExactRep-v3-final,2021.2.3,59.91112781189719,
,,,,,,,,,,,,43,0,43,0,,,,,,,,,,,,,,,,,,,,,,,,,,,,,,,,,,,,,,,,,,,,,,,,,1340.4635088000214,None,,,,,,,,,,,,,,,,,,,,,,,,,,,,,,,,,,,,,,,,,,,,,,,,,,,,,,,,,chance,118,44,aloud,old,red,1338.084066499956,None,y,1338.084066499956,None,"['y', 'return']","[1.6987779999617487, 2.338841799995862]",1338.084066499956,None,,,2,001,2023_Jan_30_1016,ExactRep-v3-final,2021.2.3,59.91112781189719,
,,,,,,,,,,,,44,0,44,0,,,,,,,,,,,,,,,,,,,,,,,,,,,,,,,,,,,,,,,,,,,,,,,,,1343.5165463000303,None,,,,,,,,,,,,,,,,,,,,,,,,,,,,,,,,,,,,,,,,,,,,,,,,,,,,,,,,,vision,225,45,sing,new,blue,1340.9708153000101,None,n,1340.9708153000101,None,"['n', 'return']","[1.9481669999659061, 2.5081527000293136]",1340.9708153000101,None,,,2,001,2023_Jan_30_1016,ExactRep-v3-final,2021.2.3,59.91112781189719,
,,,,,,,,,,,,45,0,45,0,,,,,,,,,,,,,,,,,,,,,,,,,,,,,,,,,,,,,,,,,,,,,,,,,1346.6874628999503,None,,,,,,,,,,,,,,,,,,,,,,,,,,,,,,,,,,,,,,,,,,,,,,,,,,,,,,,,,wine,152,46,silent,new,white,1344.0279310999904,None,n,1344.0279310999904,None,"['n', 'return']","[2.0429298999952152, 2.618953000055626]",1344.0279310999904,None,,,2,001,2023_Jan_30_1016,ExactRep-v3-final,2021.2.3,59.91112781189719,
,,,,,,,,,,,,46,0,46,0,,,,,,,,,,,,,,,,,,,,,,,,,,,,,,,,,,,,,,,,,,,,,,,,,1350.0897683999501,None,,,,,,,,,,,,,,,,,,,,,,,,,,,,,,,,,,,,,,,,,,,,,,,,,,,,,,,,,judge,26,47,sing,old,blue,1347.202101200004,None,n,1347.202101200004,None,"['n', 'return']","[1.9168065999401733, 2.844755999976769]",1347.202101200004,None,,,2,001,2023_Jan_30_1016,ExactRep-v3-final,2021.2.3,59.91112781189719,
,,,,,,,,,,,,47,0,47,0,,,,,,,,,,,,,,,,,,,,,,,,,,,,,,,,,,,,,,,,,,,,,,,,,1352.6757276999997,None,,,,,,,,,,,,,,,,,,,,,,,,,,,,,,,,,,,,,,,,,,,,,,,,,,,,,,,,,troops,197,48,sing,new,blue,1350.5926545000402,None,n,1350.5926545000402,None,"['n', 'return']","[1.3580917000072077, 2.046258599963039]",1350.5926545000402,None,,,2,001,2023_Jan_30_1016,ExactRep-v3-final,2021.2.3,59.91112781189719,
,,,,,,,,,,,,48,0,48,0,,,,,,,,,,,,,,,,,,,,,,,,,,,,,,,,,,,,,,,,,,,,,,,,,1355.495144900051,None,,,,,,,,,,,,,,,,,,,,,,,,,,,,,,,,,,,,,,,,,,,,,,,,,,,,,,,,,insect,42,49,silent,old,white,1353.177242500009,None,y,1353.177242500009,None,"['y', 'return']","[1.453791999956593, 2.2857012999011204]",1353.177242500009,None,,,2,001,2023_Jan_30_1016,ExactRep-v3-final,2021.2.3,59.91112781189719,
,,,,,,,,,,,,49,0,49,0,,,,,,,,,,,,,,,,,,,,,,,,,,,,,,,,,,,,,,,,,,,,,,,,,1358.1978876000503,None,,,,,,,,,,,,,,,,,,,,,,,,,,,,,,,,,,,,,,,,,,,,,,,,,,,,,,,,,dawn,53,50,silent,old,white,1356.009180999943,None,y,1356.009180999943,None,"['y', 'return']","[1.541853400063701, 2.1417105000000447]",1356.009180999943,None,,,2,001,2023_Jan_30_1016,ExactRep-v3-final,2021.2.3,59.91112781189719,
,,,,,,,,,,,,50,0,50,0,,,,,,,,,,,,,,,,,,,,,,,,,,,,,,,,,,,,,,,,,,,,,,,,,1360.6836697000545,None,,,,,,,,,,,,,,,,,,,,,,,,,,,,,,,,,,,,,,,,,,,,,,,,,,,,,,,,,vessel,116,51,aloud,old,red,1358.70931559999,None,y,1358.70931559999,None,"['y', 'return']","[1.2575061999959871, 1.937557200086303]",1358.70931559999,None,,,2,001,2023_Jan_30_1016,ExactRep-v3-final,2021.2.3,59.91112781189719,
,,,,,,,,,,,,51,0,51,0,,,,,,,,,,,,,,,,,,,,,,,,,,,,,,,,,,,,,,,,,,,,,,,,,1363.4531320000533,None,,,,,,,,,,,,,,,,,,,,,,,,,,,,,,,,,,,,,,,,,,,,,,,,,,,,,,,,,woods,115,52,aloud,old,red,1361.199909799965,None,n,1361.199909799965,None,"['n', 'return']","[1.791121100075543, 2.2149972000624985]",1361.199909799965,None,,,2,001,2023_Jan_30_1016,ExactRep-v3-final,2021.2.3,59.91112781189719,
,,,,,,,,,,,,52,0,52,0,,,,,,,,,,,,,,,,,,,,,,,,,,,,,,,,,,,,,,,,,,,,,,,,,1366.322733500041,None,,,,,,,,,,,,,,,,,,,,,,,,,,,,,,,,,,,,,,,,,,,,,,,,,,,,,,,,,prison,149,53,silent,new,white,1363.9639574999455,None,n,1363.9639574999455,None,"['n', 'return']","[1.9149621999822557, 2.314867899985984]",1363.9639574999455,None,,,2,001,2023_Jan_30_1016,ExactRep-v3-final,2021.2.3,59.91112781189719,
,,,,,,,,,,,,53,0,53,0,,,,,,,,,,,,,,,,,,,,,,,,,,,,,,,,,,,,,,,,,,,,,,,,,1371.494659399963,None,,,,,,,,,,,,,,,,,,,,,,,,,,,,,,,,,,,,,,,,,,,,,,,,,,,,,,,,,king,33,54,sing,old,blue,1366.830136399949,None,y,1366.830136399949,None,"['y', 'return']","[4.256739600095898, 4.63277900009416]",1366.830136399949,None,,,2,001,2023_Jan_30_1016,ExactRep-v3-final,2021.2.3,59.91112781189719,
,,,,,,,,,,,,54,0,54,0,,,,,,,,,,,,,,,,,,,,,,,,,,,,,,,,,,,,,,,,,,,,,,,,,1373.8468095000135,None,,,,,,,,,,,,,,,,,,,,,,,,,,,,,,,,,,,,,,,,,,,,,,,,,,,,,,,,,metal,73,55,silent,old,white,1372.0052330000326,None,y,1372.0052330000326,None,"['y', 'return']","[1.3697833000915125, 1.809777400107123]",1372.0052330000326,None,,,2,001,2023_Jan_30_1016,ExactRep-v3-final,2021.2.3,59.91112781189719,
,,,,,,,,,,,,55,0,55,0,,,,,,,,,,,,,,,,,,,,,,,,,,,,,,,,,,,,,,,,,,,,,,,,,1376.165847199969,None,,,,,,,,,,,,,,,,,,,,,,,,,,,,,,,,,,,,,,,,,,,,,,,,,,,,,,,,,idea,206,56,aloud,new,red,1374.3606029000366,None,n,1374.3606029000366,None,"['n', 'return']","[1.2382766000228003, 1.7583349000196904]",1374.3606029000366,None,,,2,001,2023_Jan_30_1016,ExactRep-v3-final,2021.2.3,59.91112781189719,
,,,,,,,,,,,,56,0,56,0,,,,,,,,,,,,,,,,,,,,,,,,,,,,,,,,,,,,,,,,,,,,,,,,,1378.801781599992,None,,,,,,,,,,,,,,,,,,,,,,,,,,,,,,,,,,,,,,,,,,,,,,,,,,,,,,,,,advice,221,57,sing,new,blue,1376.6794352999423,None,n,1376.6794352999423,None,"['n', 'return']","[1.6395607999293134, 2.0794338999548927]",1376.6794352999423,None,,,2,001,2023_Jan_30_1016,ExactRep-v3-final,2021.2.3,59.91112781189719,
,,,,,,,,,,,,57,0,57,0,,,,,,,,,,,,,,,,,,,,,,,,,,,,,,,,,,,,,,,,,,,,,,,,,1381.7715068999678,None,,,,,,,,,,,,,,,,,,,,,,,,,,,,,,,,,,,,,,,,,,,,,,,,,,,,,,,,,garden,94,58,aloud,old,red,1379.314230500022,None,n,1379.314230500022,None,"['n', 'return']","[1.8526617999887094, 2.420676799956709]",1379.314230500022,None,,,2,001,2023_Jan_30_1016,ExactRep-v3-final,2021.2.3,59.91112781189719,
,,,,,,,,,,,,58,0,58,0,,,,,,,,,,,,,,,,,,,,,,,,,,,,,,,,,,,,,,,,,,,,,,,,,1384.807815899956,None,,,,,,,,,,,,,,,,,,,,,,,,,,,,,,,,,,,,,,,,,,,,,,,,,,,,,,,,,justice,85,59,aloud,old,red,1382.2716774999863,None,n,1382.2716774999863,None,"['n', 'return']","[2.0553680999437347, 2.503231000038795]",1382.2716774999863,None,,,2,001,2023_Jan_30_1016,ExactRep-v3-final,2021.2.3,59.91112781189719,
,,,,,,,,,,,,59,0,59,0,,,,,,,,,,,,,,,,,,,,,,,,,,,,,,,,,,,,,,,,,,,,,,,,,1387.7106796000153,None,,,,,,,,,,,,,,,,,,,,,,,,,,,,,,,,,,,,,,,,,,,,,,,,,,,,,,,,,fate,19,60,sing,old,blue,1385.316256799968,None,n,1385.316256799968,None,"['n', 'return']","[1.8588670999743044, 2.36268270004075]",1385.316256799968,None,,,2,001,2023_Jan_30_1016,ExactRep-v3-final,2021.2.3,59.91112781189719,
,,,,,,,,,,,,60,0,60,0,,,,,,,,,,,,,,,,,,,,,,,,,,,,,,,,,,,,,,,,,,,,,,,,,1390.3132852000417,None,,,,,,,,,,,,,,,,,,,,,,,,,,,,,,,,,,,,,,,,,,,,,,,,,,,,,,,,,fur,157,61,silent,new,white,1388.2240161000518,None,n,1388.2240161000518,None,"['n', 'return']","[1.6228651000419632, 2.0467928000725806]",1388.2240161000518,None,,,2,001,2023_Jan_30_1016,ExactRep-v3-final,2021.2.3,59.91112781189719,
,,,,,,,,,,,,61,0,61,0,,,,,,,,,,,,,,,,,,,,,,,,,,,,,,,,,,,,,,,,,,,,,,,,,1395.5852405000478,None,,,,,,,,,,,,,,,,,,,,,,,,,,,,,,,,,,,,,,,,,,,,,,,,,,,,,,,,,custom,226,62,aloud,new,red,1390.826459200005,None,n,1390.826459200005,None,"['n', 'return']","[4.116615700069815, 4.716456100111827]",1390.826459200005,None,,,2,001,2023_Jan_30_1016,ExactRep-v3-final,2021.2.3,59.91112781189719,
,,,,,,,,,,,,62,0,62,0,,,,,,,,,,,,,,,,,,,,,,,,,,,,,,,,,,,,,,,,,,,,,,,,,1398.3212844999507,None,,,,,,,,,,,,,,,,,,,,,,,,,,,,,,,,,,,,,,,,,,,,,,,,,,,,,,,,,coffee,217,63,sing,new,blue,1396.0948428000556,None,n,1396.0948428000556,None,"['n', 'return']","[1.688061400083825, 2.1842722001019865]",1396.0948428000556,None,,,2,001,2023_Jan_30_1016,ExactRep-v3-final,2021.2.3,59.91112781189719,
,,,,,,,,,,,,63,0,63,0,,,,,,,,,,,,,,,,,,,,,,,,,,,,,,,,,,,,,,,,,,,,,,,,,1402.6590214000316,None,,,,,,,,,,,,,,,,,,,,,,,,,,,,,,,,,,,,,,,,,,,,,,,,,,,,,,,,,avenue,92,64,aloud,old,red,1398.8354527000338,None,y,1398.8354527000338,None,"['y', 'return']","[2.979439999908209, 3.787462699925527]",1398.8354527000338,None,,,2,001,2023_Jan_30_1016,ExactRep-v3-final,2021.2.3,59.91112781189719,
,,,,,,,,,,,,64,0,64,0,,,,,,,,,,,,,,,,,,,,,,,,,,,,,,,,,,,,,,,,,,,,,,,,,1405.2481393000344,None,,,,,,,,,,,,,,,,,,,,,,,,,,,,,,,,,,,,,,,,,,,,,,,,,,,,,,,,,devil,211,65,sing,new,blue,1403.16910119995,None,n,1403.16910119995,None,"['n', 'return']","[1.5177669000113383, 2.037775699980557]",1403.16910119995,None,,,2,001,2023_Jan_30_1016,ExactRep-v3-final,2021.2.3,59.91112781189719,
,,,,,,,,,,,,65,0,65,0,,,,,,,,,,,,,,,,,,,,,,,,,,,,,,,,,,,,,,,,,,,,,,,,,1407.7140571000054,None,,,,,,,,,,,,,,,,,,,,,,,,,,,,,,,,,,,,,,,,,,,,,,,,,,,,,,,,,blood,29,66,sing,old,blue,1405.7684942999622,None,y,1405.7684942999622,None,"['y', 'return']","[1.438373800017871, 1.9103981999214739]",1405.7684942999622,None,,,2,001,2023_Jan_30_1016,ExactRep-v3-final,2021.2.3,59.91112781189719,
,,,,,,,,,,,,66,0,66,0,,,,,,,,,,,,,,,,,,,,,,,,,,,,,,,,,,,,,,,,,,,,,,,,,1411.9185842999723,None,,,,,,,,,,,,,,,,,,,,,,,,,,,,,,,,,,,,,,,,,,,,,,,,,,,,,,,,,glory,95,67,aloud,old,red,1408.2303276000312,None,y,1408.2303276000312,None,"['y', 'return']","[2.4725888000102714, 3.6406130000250414]",1408.2303276000312,None,,,2,001,2023_Jan_30_1016,ExactRep-v3-final,2021.2.3,59.91112781189719,
,,,,,,,,,,,,67,0,67,0,,,,,,,,,,,,,,,,,,,,,,,,,,,,,,,,,,,,,,,,,,,,,,,,,1414.253837700002,None,,,,,,,,,,,,,,,,,,,,,,,,,,,,,,,,,,,,,,,,,,,,,,,,,,,,,,,,,winter,128,68,silent,new,white,1412.4184102000436,None,n,1412.4184102000436,None,"['n', 'return']","[1.3644657999975607, 1.7965488999616355]",1412.4184102000436,None,,,2,001,2023_Jan_30_1016,ExactRep-v3-final,2021.2.3,59.91112781189719,
,,,,,,,,,,,,68,0,68,0,,,,,,,,,,,,,,,,,,,,,,,,,,,,,,,,,,,,,,,,,,,,,,,,,1416.7563792000292,None,,,,,,,,,,,,,,,,,,,,,,,,,,,,,,,,,,,,,,,,,,,,,,,,,,,,,,,,,shock,63,69,silent,old,white,1414.7658108000178,None,y,1414.7658108000178,None,"['y', 'return']","[1.513005799963139, 1.9530748999677598]",1414.7658108000178,None,,,2,001,2023_Jan_30_1016,ExactRep-v3-final,2021.2.3,59.91112781189719,
,,,,,,,,,,,,69,0,69,0,,,,,,,,,,,,,,,,,,,,,,,,,,,,,,,,,,,,,,,,,,,,,,,,,1420.2431868000422,None,,,,,,,,,,,,,,,,,,,,,,,,,,,,,,,,,,,,,,,,,,,,,,,,,,,,,,,,,ticket,120,70,silent,new,white,1417.2684349999763,None,n,1417.2684349999763,None,"['n', 'return']","[2.4504924999782816, 2.9384956000139937]",1417.2684349999763,None,,,2,001,2023_Jan_30_1016,ExactRep-v3-final,2021.2.3,59.91112781189719,
,,,,,,,,,,,,70,0,70,0,,,,,,,,,,,,,,,,,,,,,,,,,,,,,,,,,,,,,,,,,,,,,,,,,1424.531823999947,None,,,,,,,,,,,,,,,,,,,,,,,,,,,,,,,,,,,,,,,,,,,,,,,,,,,,,,,,,journal,215,71,sing,new,blue,1420.7583585999673,None,n,1420.7583585999673,None,"['n', 'return']","[3.080577499931678, 3.7365558999590576]",1420.7583585999673,None,,,2,001,2023_Jan_30_1016,ExactRep-v3-final,2021.2.3,59.91112781189719,
,,,,,,,,,,,,71,0,71,0,,,,,,,,,,,,,,,,,,,,,,,,,,,,,,,,,,,,,,,,,,,,,,,,,1427.6339585999958,None,,,,,,,,,,,,,,,,,,,,,,,,,,,,,,,,,,,,,,,,,,,,,,,,,,,,,,,,,home,230,72,aloud,new,red,1425.0404656999744,None,n,1425.0404656999744,None,"['n', 'return']","[2.0785721000283957, 2.5504084000131115]",1425.0404656999744,None,,,2,001,2023_Jan_30_1016,ExactRep-v3-final,2021.2.3,59.91112781189719,
,,,,,,,,,,,,72,0,72,0,,,,,,,,,,,,,,,,,,,,,,,,,,,,,,,,,,,,,,,,,,,,,,,,,1430.8371117999777,None,,,,,,,,,,,,,,,,,,,,,,,,,,,,,,,,,,,,,,,,,,,,,,,,,,,,,,,,,rock,28,73,sing,old,blue,1428.1447633999633,None,y,1428.1447633999633,None,"['y', 'return']","[1.94213540002238, 2.6541630000574514]",1428.1447633999633,None,,,2,001,2023_Jan_30_1016,ExactRep-v3-final,2021.2.3,59.91112781189719,
,,,,,,,,,,,,73,0,73,0,,,,,,,,,,,,,,,,,,,,,,,,,,,,,,,,,,,,,,,,,,,,,,,,,1433.906859699986,None,,,,,,,,,,,,,,,,,,,,,,,,,,,,,,,,,,,,,,,,,,,,,,,,,,,,,,,,,hope,32,74,sing,old,blue,1431.3507681000046,None,n,1431.3507681000046,None,"['n', 'return']","[2.152242600102909, 2.5120967000257224]",1431.3507681000046,None,,,2,001,2023_Jan_30_1016,ExactRep-v3-final,2021.2.3,59.91112781189719,
,,,,,,,,,,,,74,0,74,0,,,,,,,,,,,,,,,,,,,,,,,,,,,,,,,,,,,,,,,,,,,,,,,,,1436.4593924999936,None,,,,,,,,,,,,,,,,,,,,,,,,,,,,,,,,,,,,,,,,,,,,,,,,,,,,,,,,,mercy,183,75,sing,new,blue,1434.4199870999437,None,n,1434.4199870999437,None,"['n', 'return']","[1.5708562000654638, 2.0029256000416353]",1434.4199870999437,None,,,2,001,2023_Jan_30_1016,ExactRep-v3-final,2021.2.3,59.91112781189719,
,,,,,,,,,,,,75,0,75,0,,,,,,,,,,,,,,,,,,,,,,,,,,,,,,,,,,,,,,,,,,,,,,,,,1438.9298019000562,None,,,,,,,,,,,,,,,,,,,,,,,,,,,,,,,,,,,,,,,,,,,,,,,,,,,,,,,,,wife,119,76,aloud,old,red,1436.970398799982,None,n,1436.970398799982,None,"['n', 'return']","[1.4366938000312075, 1.9165106000145897]",1436.970398799982,None,,,2,001,2023_Jan_30_1016,ExactRep-v3-final,2021.2.3,59.91112781189719,
,,,,,,,,,,,,76,0,76,0,,,,,,,,,,,,,,,,,,,,,,,,,,,,,,,,,,,,,,,,,,,,,,,,,1441.4477796000428,None,,,,,,,,,,,,,,,,,,,,,,,,,,,,,,,,,,,,,,,,,,,,,,,,,,,,,,,,,pole,17,77,sing,old,blue,1439.4363913000561,None,y,1439.4363913000561,None,"['y', 'return']","[1.2505331999855116, 1.9784227999625728]",1439.4363913000561,None,,,2,001,2023_Jan_30_1016,ExactRep-v3-final,2021.2.3,59.91112781189719,
,,,,,,,,,,,,77,0,77,0,,,,,,,,,,,,,,,,,,,,,,,,,,,,,,,,,,,,,,,,,,,,,,,,,1444.1171583000105,None,,,,,,,,,,,,,,,,,,,,,,,,,,,,,,,,,,,,,,,,,,,,,,,,,,,,,,,,,circle,97,78,aloud,old,red,1441.9518420000095,None,n,1441.9518420000095,None,"['n', 'return']","[1.6950792000861838, 2.1270362000213936]",1441.9518420000095,None,,,2,001,2023_Jan_30_1016,ExactRep-v3-final,2021.2.3,59.91112781189719,
,,,,,,,,,,,,78,0,78,0,,,,,,,,,,,,,,,,,,,,,,,,,,,,,,,,,,,,,,,,,,,,,,,,,1446.836434100056,None,,,,,,,,,,,,,,,,,,,,,,,,,,,,,,,,,,,,,,,,,,,,,,,,,,,,,,,,,coin,198,79,aloud,new,red,1444.6262323999545,None,n,1444.6262323999545,None,"['n', 'return']","[1.8048119000159204, 2.164730800082907]",1444.6262323999545,None,,,2,001,2023_Jan_30_1016,ExactRep-v3-final,2021.2.3,59.91112781189719,
,,,,,,,,,,,,79,0,79,0,,,,,,,,,,,,,,,,,,,,,,,,,,,,,,,,,,,,,,,,,,,,,,,,,1451.3575849999906,None,,,,,,,,,,,,,,,,,,,,,,,,,,,,,,,,,,,,,,,,,,,,,,,,,,,,,,,,,origin,175,80,sing,new,blue,1447.3463804000057,None,n,1447.3463804000057,None,"['n', 'return']","[3.356644499930553, 3.9725809999508783]",1447.3463804000057,None,,,2,001,2023_Jan_30_1016,ExactRep-v3-final,2021.2.3,59.91112781189719,
,,,,,,,,,,,,80,0,80,0,,,,,,,,,,,,,,,,,,,,,,,,,,,,,,,,,,,,,,,,,,,,,,,,,1454.1437202000525,None,,,,,,,,,,,,,,,,,,,,,,,,,,,,,,,,,,,,,,,,,,,,,,,,,,,,,,,,,earth,238,81,aloud,new,red,1451.8658351999475,None,n,1451.8658351999475,None,"['n', 'return']","[1.7090673999628052, 2.2371096999850124]",1451.8658351999475,None,,,2,001,2023_Jan_30_1016,ExactRep-v3-final,2021.2.3,59.91112781189719,
,,,,,,,,,,,,81,0,81,0,,,,,,,,,,,,,,,,,,,,,,,,,,,,,,,,,,,,,,,,,,,,,,,,,1456.612927100039,None,,,,,,,,,,,,,,,,,,,,,,,,,,,,,,,,,,,,,,,,,,,,,,,,,,,,,,,,,market,51,82,silent,old,white,1454.6489645000547,None,y,1454.6489645000547,None,"['y', 'return']","[1.477965599973686, 1.9180019999621436]",1454.6489645000547,None,,,2,001,2023_Jan_30_1016,ExactRep-v3-final,2021.2.3,59.91112781189719,
,,,,,,,,,,,,82,0,82,0,,,,,,,,,,,,,,,,,,,,,,,,,,,,,,,,,,,,,,,,,,,,,,,,,1459.6170006999746,None,,,,,,,,,,,,,,,,,,,,,,,,,,,,,,,,,,,,,,,,,,,,,,,,,,,,,,,,,square,213,83,sing,new,blue,1457.1343865999952,None,n,1457.1343865999952,None,"['n', 'return']","[2.0485220999689773, 2.4405309000285342]",1457.1343865999952,None,,,2,001,2023_Jan_30_1016,ExactRep-v3-final,2021.2.3,59.91112781189719,
,,,,,,,,,,,,83,0,83,0,,,,,,,,,,,,,,,,,,,,,,,,,,,,,,,,,,,,,,,,,,,,,,,,,1462.7189614999807,None,,,,,,,,,,,,,,,,,,,,,,,,,,,,,,,,,,,,,,,,,,,,,,,,,,,,,,,,,officer,89,84,aloud,old,red,1460.1259940000018,None,y,1460.1259940000018,None,"['y', 'return']","[1.6648582000052556, 2.552963300026022]",1460.1259940000018,None,,,2,001,2023_Jan_30_1016,ExactRep-v3-final,2021.2.3,59.91112781189719,
,,,,,,,,,,,,84,0,84,0,,,,,,,,,,,,,,,,,,,,,,,,,,,,,,,,,,,,,,,,,,,,,,,,,1466.0723158000037,None,,,,,,,,,,,,,,,,,,,,,,,,,,,,,,,,,,,,,,,,,,,,,,,,,,,,,,,,,camp,4,85,sing,old,blue,1463.2321210999507,None,y,1463.2321210999507,None,"['y', 'return']","[2.254650600021705, 2.7987887000199407]",1463.2321210999507,None,,,2,001,2023_Jan_30_1016,ExactRep-v3-final,2021.2.3,59.91112781189719,
,,,,,,,,,,,,85,0,85,0,,,,,,,,,,,,,,,,,,,,,,,,,,,,,,,,,,,,,,,,,,,,,,,,,1468.8420311999507,None,,,,,,,,,,,,,,,,,,,,,,,,,,,,,,,,,,,,,,,,,,,,,,,,,,,,,,,,,crime,100,86,aloud,old,red,1466.5801457000198,None,n,1466.5801457000198,None,"['n', 'return']","[1.794760699965991, 2.218781300005503]",1466.5801457000198,None,,,2,001,2023_Jan_30_1016,ExactRep-v3-final,2021.2.3,59.91112781189719,
,,,,,,,,,,,,86,0,86,0,,,,,,,,,,,,,,,,,,,,,,,,,,,,,,,,,,,,,,,,,,,,,,,,,1471.1773207000224,None,,,,,,,,,,,,,,,,,,,,,,,,,,,,,,,,,,,,,,,,,,,,,,,,,,,,,,,,,diamond,178,87,aloud,new,red,1469.3453837999841,None,n,1469.3453837999841,None,"['n', 'return']","[1.2775504000019282, 1.797466199961491]",1469.3453837999841,None,,,2,001,2023_Jan_30_1016,ExactRep-v3-final,2021.2.3,59.91112781189719,
,,,,,,,,,,,,87,0,87,0,,,,,,,,,,,,,,,,,,,,,,,,,,,,,,,,,,,,,,,,,,,,,,,,,1473.980286099948,None,,,,,,,,,,,,,,,,,,,,,,,,,,,,,,,,,,,,,,,,,,,,,,,,,,,,,,,,,humour,191,88,sing,new,blue,1471.687239299994,None,n,1471.687239299994,None,"['n', 'return']","[1.7836583000607789, 2.2556656999513507]",1471.687239299994,None,,,2,001,2023_Jan_30_1016,ExactRep-v3-final,2021.2.3,59.91112781189719,
,,,,,,,,,,,,88,0,88,0,,,,,,,,,,,,,,,,,,,,,,,,,,,,,,,,,,,,,,,,,,,,,,,,,1477.6839313999517,None,,,,,,,,,,,,,,,,,,,,,,,,,,,,,,,,,,,,,,,,,,,,,,,,,,,,,,,,,author,204,89,aloud,new,red,1474.4944975000108,None,n,1474.4944975000108,None,"['n', 'return']","[2.7765831000870094, 3.1524152000201866]",1474.4944975000108,None,,,2,001,2023_Jan_30_1016,ExactRep-v3-final,2021.2.3,59.91112781189719,
,,,,,,,,,,,,89,0,89,0,,,,,,,,,,,,,,,,,,,,,,,,,,,,,,,,,,,,,,,,,,,,,,,,,1480.319850699976,None,,,,,,,,,,,,,,,,,,,,,,,,,,,,,,,,,,,,,,,,,,,,,,,,,,,,,,,,,ocean,140,90,silent,new,white,1478.1904807999963,None,y,1478.1904807999963,None,"['y', 'return']","[1.6244775999803096, 2.0885085000190884]",1478.1904807999963,None,,,2,001,2023_Jan_30_1016,ExactRep-v3-final,2021.2.3,59.91112781189719,
,,,,,,,,,,,,90,0,90,0,,,,,,,,,,,,,,,,,,,,,,,,,,,,,,,,,,,,,,,,,,,,,,,,,1487.8273898999905,None,,,,,,,,,,,,,,,,,,,,,,,,,,,,,,,,,,,,,,,,,,,,,,,,,,,,,,,,,boy,1,91,sing,old,blue,1480.8307770000538,None,n,1480.8307770000538,None,"['n', 'return']","[3.1204279999947175, 6.952086800010875]",1480.8307770000538,None,,,2,001,2023_Jan_30_1016,ExactRep-v3-final,2021.2.3,59.91112781189719,
,,,,,,,,,,,,91,0,91,0,,,,,,,,,,,,,,,,,,,,,,,,,,,,,,,,,,,,,,,,,,,,,,,,,1490.7803354000207,None,,,,,,,,,,,,,,,,,,,,,,,,,,,,,,,,,,,,,,,,,,,,,,,,,,,,,,,,,power,239,92,sing,new,blue,1488.3349822999444,None,n,1488.3349822999444,None,"['n', 'return']","[1.7919700000202283, 2.399976999964565]",1488.3349822999444,None,,,2,001,2023_Jan_30_1016,ExactRep-v3-final,2021.2.3,59.91112781189719,
,,,,,,,,,,,,92,0,92,0,,,,,,,,,,,,,,,,,,,,,,,,,,,,,,,,,,,,,,,,,,,,,,,,,1493.5664605000056,None,,,,,,,,,,,,,,,,,,,,,,,,,,,,,,,,,,,,,,,,,,,,,,,,,,,,,,,,,person,216,93,aloud,new,red,1491.2900379999774,None,n,1491.2900379999774,None,"['n', 'return']","[1.6927806000458077, 2.2369181000394747]",1491.2900379999774,None,,,2,001,2023_Jan_30_1016,ExactRep-v3-final,2021.2.3,59.91112781189719,
,,,,,,,,,,,,93,0,93,0,,,,,,,,,,,,,,,,,,,,,,,,,,,,,,,,,,,,,,,,,,,,,,,,,1496.1356957999524,None,,,,,,,,,,,,,,,,,,,,,,,,,,,,,,,,,,,,,,,,,,,,,,,,,,,,,,,,,effort,219,94,sing,new,blue,1494.0740012000315,None,n,1494.0740012000315,None,"['n', 'return']","[1.5170470000011846, 2.028834700002335]",1494.0740012000315,None,,,2,001,2023_Jan_30_1016,ExactRep-v3-final,2021.2.3,59.91112781189719,
,,,,,,,,,,,,94,0,94,0,,,,,,,,,,,,,,,,,,,,,,,,,,,,,,,,,,,,,,,,,,,,,,,,,1501.2574783000164,None,,,,,,,,,,,,,,,,,,,,,,,,,,,,,,,,,,,,,,,,,,,,,,,,,,,,,,,,,machine,163,95,sing,new,blue,1496.642401900026,None,n,1496.642401900026,None,"['n', 'return']","[2.7645744000328705, 4.580474899965338]",1496.642401900026,None,,,2,001,2023_Jan_30_1016,ExactRep-v3-final,2021.2.3,59.91112781189719,
,,,,,,,,,,,,95,0,95,0,,,,,,,,,,,,,,,,,,,,,,,,,,,,,,,,,,,,,,,,,,,,,,,,,1504.4115533999866,None,,,,,,,,,,,,,,,,,,,,,,,,,,,,,,,,,,,,,,,,,,,,,,,,,,,,,,,,,shadow,212,96,aloud,new,red,1501.7704440000234,None,n,1501.7704440000234,None,"['n', 'return']","[2.1964051999384537, 2.60463630000595]",1501.7704440000234,None,,,2,001,2023_Jan_30_1016,ExactRep-v3-final,2021.2.3,59.91112781189719,
,,,,,,,,,,,,96,0,96,0,,,,,,,,,,,,,,,,,,,,,,,,,,,,,,,,,,,,,,,,,,,,,,,,,1509.0485992999747,None,,,,,,,,,,,,,,,,,,,,,,,,,,,,,,,,,,,,,,,,,,,,,,,,,,,,,,,,,sky,210,97,aloud,new,red,1504.9211252999958,None,n,1504.9211252999958,None,"['n', 'return']","[3.6538271999452263, 4.085827199975029]",1504.9211252999958,None,,,2,001,2023_Jan_30_1016,ExactRep-v3-final,2021.2.3,59.91112781189719,
,,,,,,,,,,,,97,0,97,0,,,,,,,,,,,,,,,,,,,,,,,,,,,,,,,,,,,,,,,,,,,,,,,,,1512.0516104999697,None,,,,,,,,,,,,,,,,,,,,,,,,,,,,,,,,,,,,,,,,,,,,,,,,,,,,,,,,,fun,87,98,aloud,old,red,1509.5556132999482,None,n,1509.5556132999482,None,"['n', 'return']","[1.8512850999832153, 2.4593384999316186]",1509.5556132999482,None,,,2,001,2023_Jan_30_1016,ExactRep-v3-final,2021.2.3,59.91112781189719,
,,,,,,,,,,,,98,0,98,0,,,,,,,,,,,,,,,,,,,,,,,,,,,,,,,,,,,,,,,,,,,,,,,,,1514.5875197000569,None,,,,,,,,,,,,,,,,,,,,,,,,,,,,,,,,,,,,,,,,,,,,,,,,,,,,,,,,,soil,232,99,aloud,new,red,1512.5608137999661,None,n,1512.5608137999661,None,"['n', 'return']","[1.4220893000019714, 1.9821932000340894]",1512.5608137999661,None,,,2,001,2023_Jan_30_1016,ExactRep-v3-final,2021.2.3,59.91112781189719,
,,,,,,,,,,,,99,0,99,0,,,,,,,,,,,,,,,,,,,,,,,,,,,,,,,,,,,,,,,,,,,,,,,,,1517.0899828999536,None,,,,,,,,,,,,,,,,,,,,,,,,,,,,,,,,,,,,,,,,,,,,,,,,,,,,,,,,,rod,90,100,aloud,old,red,1515.0944179999642,None,n,1515.0944179999642,None,"['n', 'return']","[1.416567699983716, 1.9605168999405578]",1515.0944179999642,None,,,2,001,2023_Jan_30_1016,ExactRep-v3-final,2021.2.3,59.91112781189719,
,,,,,,,,,,,,100,0,100,0,,,,,,,,,,,,,,,,,,,,,,,,,,,,,,,,,,,,,,,,,,,,,,,,,1520.4266493000323,None,,,,,,,,,,,,,,,,,,,,,,,,,,,,,,,,,,,,,,,,,,,,,,,,,,,,,,,,,law,59,101,silent,old,white,1517.6102128999773,None,y,1517.6102128999773,None,"['y', 'return']","[2.3646867000497878, 2.780823400011286]",1517.6102128999773,None,,,2,001,2023_Jan_30_1016,ExactRep-v3-final,2021.2.3,59.91112781189719,
,,,,,,,,,,,,101,0,101,0,,,,,,,,,,,,,,,,,,,,,,,,,,,,,,,,,,,,,,,,,,,,,,,,,1522.8791296000127,None,,,,,,,,,,,,,,,,,,,,,,,,,,,,,,,,,,,,,,,,,,,,,,,,,,,,,,,,,shore,30,102,sing,old,blue,1520.9413868000265,None,y,1520.9413868000265,None,"['y', 'return']","[1.4735624000895768, 1.8895985000999644]",1520.9413868000265,None,,,2,001,2023_Jan_30_1016,ExactRep-v3-final,2021.2.3,59.91112781189719,
,,,,,,,,,,,,102,0,102,0,,,,,,,,,,,,,,,,,,,,,,,,,,,,,,,,,,,,,,,,,,,,,,,,,1526.9665381000377,None,,,,,,,,,,,,,,,,,,,,,,,,,,,,,,,,,,,,,,,,,,,,,,,,,,,,,,,,,clock,84,103,aloud,old,red,1523.389968100004,None,n,1523.389968100004,None,"['n', 'return']","[2.9690187999513, 3.528952999971807]",1523.389968100004,None,,,2,001,2023_Jan_30_1016,ExactRep-v3-final,2021.2.3,59.91112781189719,
,,,,,,,,,,,,103,0,103,0,,,,,,,,,,,,,,,,,,,,,,,,,,,,,,,,,,,,,,,,,,,,,,,,,1531.0373134999536,None,,,,,,,,,,,,,,,,,,,,,,,,,,,,,,,,,,,,,,,,,,,,,,,,,,,,,,,,,body,112,104,aloud,old,red,1527.4789861999452,None,y,1527.4789861999452,None,"['y', 'return']","[2.791909800027497, 3.5199367000022903]",1527.4789861999452,None,,,2,001,2023_Jan_30_1016,ExactRep-v3-final,2021.2.3,59.91112781189719,
,,,,,,,,,,,,104,0,104,0,,,,,,,,,,,,,,,,,,,,,,,,,,,,,,,,,,,,,,,,,,,,,,,,,1533.3728446000023,None,,,,,,,,,,,,,,,,,,,,,,,,,,,,,,,,,,,,,,,,,,,,,,,,,,,,,,,,,anger,233,105,sing,new,blue,1531.5441132000415,None,n,1531.5441132000415,None,"['n', 'return']","[1.302810899913311, 1.7906948999734595]",1531.5441132000415,None,,,2,001,2023_Jan_30_1016,ExactRep-v3-final,2021.2.3,59.91112781189719,
,,,,,,,,,,,,105,0,105,0,,,,,,,,,,,,,,,,,,,,,,,,,,,,,,,,,,,,,,,,,,,,,,,,,1535.8253462000284,None,,,,,,,,,,,,,,,,,,,,,,,,,,,,,,,,,,,,,,,,,,,,,,,,,,,,,,,,,door,122,106,silent,new,white,1533.8820487000048,None,y,1533.8820487000048,None,"['y', 'return']","[1.3568309999536723, 1.9009080999530852]",1533.8820487000048,None,,,2,001,2023_Jan_30_1016,ExactRep-v3-final,2021.2.3,59.91112781189719,
,,,,,,,,,,,,106,0,106,0,,,,,,,,,,,,,,,,,,,,,,,,,,,,,,,,,,,,,,,,,,,,,,,,,1538.4946747999638,None,,,,,,,,,,,,,,,,,,,,,,,,,,,,,,,,,,,,,,,,,,,,,,,,,,,,,,,,,stone,236,107,aloud,new,red,1536.3355418000137,None,n,1536.3355418000137,None,"['n', 'return']","[1.6474412999814376, 2.1194260000484064]",1536.3355418000137,None,,,2,001,2023_Jan_30_1016,ExactRep-v3-final,2021.2.3,59.91112781189719,
,,,,,,,,,,,,107,0,107,0,,,,,,,,,,,,,,,,,,,,,,,,,,,,,,,,,,,,,,,,,,,,,,,,,1540.9636033000425,None,,,,,,,,,,,,,,,,,,,,,,,,,,,,,,,,,,,,,,,,,,,,,,,,,,,,,,,,,meadow,105,108,aloud,old,red,1539.0071615000488,None,y,1539.0071615000488,None,"['y', 'return']","[1.2557019999949262, 1.9198153000324965]",1539.0071615000488,None,,,2,001,2023_Jan_30_1016,ExactRep-v3-final,2021.2.3,59.91112781189719,
,,,,,,,,,,,,108,0,108,0,,,,,,,,,,,,,,,,,,,,,,,,,,,,,,,,,,,,,,,,,,,,,,,,,1543.4997021999443,None,,,,,,,,,,,,,,,,,,,,,,,,,,,,,,,,,,,,,,,,,,,,,,,,,,,,,,,,,freedom,160,109,aloud,new,red,1541.4758044000482,None,n,1541.4758044000482,None,"['n', 'return']","[1.3549653000663966, 1.9870794001035392]",1541.4758044000482,None,,,2,001,2023_Jan_30_1016,ExactRep-v3-final,2021.2.3,59.91112781189719,
,,,,,,,,,,,,109,0,109,0,,,,,,,,,,,,,,,,,,,,,,,,,,,,,,,,,,,,,,,,,,,,,,,,,1546.2023805000354,None,,,,,,,,,,,,,,,,,,,,,,,,,,,,,,,,,,,,,,,,,,,,,,,,,,,,,,,,,boulder,14,110,sing,old,blue,1544.0119678999763,None,y,1544.0119678999763,None,"['y', 'return']","[1.5070088000502437, 2.155046800035052]",1544.0119678999763,None,,,2,001,2023_Jan_30_1016,ExactRep-v3-final,2021.2.3,59.91112781189719,
,,,,,,,,,,,,110,0,110,0,,,,,,,,,,,,,,,,,,,,,,,,,,,,,,,,,,,,,,,,,,,,,,,,,1548.6381189000094,None,,,,,,,,,,,,,,,,,,,,,,,,,,,,,,,,,,,,,,,,,,,,,,,,,,,,,,,,,death,234,111,aloud,new,red,1546.7143335000146,None,n,1546.7143335000146,None,"['n', 'return']","[1.4606956000206992, 1.8846547999419272]",1546.7143335000146,None,,,2,001,2023_Jan_30_1016,ExactRep-v3-final,2021.2.3,59.91112781189719,
,,,,,,,,,,,,111,0,111,0,,,,,,,,,,,,,,,,,,,,,,,,,,,,,,,,,,,,,,,,,,,,,,,,,1551.1084071999649,None,,,,,,,,,,,,,,,,,,,,,,,,,,,,,,,,,,,,,,,,,,,,,,,,,,,,,,,,,pipe,39,112,silent,old,white,1549.1469594000373,None,y,1549.1469594000373,None,"['y', 'return']","[1.484098399989307, 1.9239956999663264]",1549.1469594000373,None,,,2,001,2023_Jan_30_1016,ExactRep-v3-final,2021.2.3,59.91112781189719,
,,,,,,,,,,,,112,0,112,0,,,,,,,,,,,,,,,,,,,,,,,,,,,,,,,,,,,,,,,,,,,,,,,,,1553.6931722000008,None,,,,,,,,,,,,,,,,,,,,,,,,,,,,,,,,,,,,,,,,,,,,,,,,,,,,,,,,,meeting,106,113,aloud,old,red,1551.6186403000029,None,n,1551.6186403000029,None,"['n', 'return']","[1.516303800046444, 2.0283339000307024]",1551.6186403000029,None,,,2,001,2023_Jan_30_1016,ExactRep-v3-final,2021.2.3,59.91112781189719,
,,,,,,,,,,,,113,0,113,0,,,,,,,,,,,,,,,,,,,,,,,,,,,,,,,,,,,,,,,,,,,,,,,,,1556.2123707999708,None,,,,,,,,,,,,,,,,,,,,,,,,,,,,,,,,,,,,,,,,,,,,,,,,,,,,,,,,,string,214,114,aloud,new,red,1554.2035390000092,None,n,1554.2035390000092,None,"['n', 'return']","[1.4673528999555856, 1.9633832999970764]",1554.2035390000092,None,,,2,001,2023_Jan_30_1016,ExactRep-v3-final,2021.2.3,59.91112781189719,
,,,,,,,,,,,,114,0,114,0,,,,,,,,,,,,,,,,,,,,,,,,,,,,,,,,,,,,,,,,,,,,,,,,,1558.9818622999592,None,,,,,,,,,,,,,,,,,,,,,,,,,,,,,,,,,,,,,,,,,,,,,,,,,,,,,,,,,beast,146,115,silent,new,white,1556.723970400053,None,n,1556.723970400053,None,"['n', 'return']","[1.626991800032556, 2.2109562000259757]",1556.723970400053,None,,,2,001,2023_Jan_30_1016,ExactRep-v3-final,2021.2.3,59.91112781189719,
,,,,,,,,,,,,115,0,115,0,,,,,,,,,,,,,,,,,,,,,,,,,,,,,,,,,,,,,,,,,,,,,,,,,1565.2547588000307,None,,,,,,,,,,,,,,,,,,,,,,,,,,,,,,,,,,,,,,,,,,,,,,,,,,,,,,,,,prayer,158,116,silent,new,white,1559.4921536999755,None,n,1559.4921536999755,None,"['n', 'return']","[5.002770300023258, 5.730765599990264]",1559.4921536999755,None,,,2,001,2023_Jan_30_1016,ExactRep-v3-final,2021.2.3,59.91112781189719,
,,,,,,,,,,,,116,0,116,0,,,,,,,,,,,,,,,,,,,,,,,,,,,,,,,,,,,,,,,,,,,,,,,,,1568.5414373000385,None,,,,,,,,,,,,,,,,,,,,,,,,,,,,,,,,,,,,,,,,,,,,,,,,,,,,,,,,,shame,0,117,sing,old,blue,1565.7647595000453,None,n,1565.7647595000453,None,"['n', 'return']","[2.3862499999813735, 2.738160099950619]",1565.7647595000453,None,,,2,001,2023_Jan_30_1016,ExactRep-v3-final,2021.2.3,59.91112781189719,
,,,,,,,,,,,,117,0,117,0,,,,,,,,,,,,,,,,,,,,,,,,,,,,,,,,,,,,,,,,,,,,,,,,,1572.1114818999777,None,,,,,,,,,,,,,,,,,,,,,,,,,,,,,,,,,,,,,,,,,,,,,,,,,,,,,,,,,book,35,118,sing,old,blue,1569.0531348000513,None,n,1569.0531348000513,None,"['n', 'return']","[2.641949500073679, 3.0178190000588074]",1569.0531348000513,None,,,2,001,2023_Jan_30_1016,ExactRep-v3-final,2021.2.3,59.91112781189719,
,,,,,,,,,,,,118,0,118,0,,,,,,,,,,,,,,,,,,,,,,,,,,,,,,,,,,,,,,,,,,,,,,,,,1574.7976420000196,None,,,,,,,,,,,,,,,,,,,,,,,,,,,,,,,,,,,,,,,,,,,,,,,,,,,,,,,,,soul,218,119,aloud,new,red,1572.62075979996,None,n,1572.62075979996,None,"['n', 'return']","[1.4182121999328956, 2.138202399946749]",1572.62075979996,None,,,2,001,2023_Jan_30_1016,ExactRep-v3-final,2021.2.3,59.91112781189719,
,,,,,,,,,,,,119,0,119,0,,,,,,,,,,,,,,,,,,,,,,,,,,,,,,,,,,,,,,,,,,,,,,,,,1578.8350020999787,None,,,,,,,,,,,,,,,,,,,,,,,,,,,,,,,,,,,,,,,,,,,,,,,,,,,,,,,,,potato,64,120,silent,old,white,1575.3052722000284,None,y,1575.3052722000284,None,"['y', 'return']","[3.0937997000291944, 3.4856487000361085]",1575.3052722000284,None,,,2,001,2023_Jan_30_1016,ExactRep-v3-final,2021.2.3,59.91112781189719,
,,,,,,,,,,,,120,0,120,0,,,,,,,,,,,,,,,,,,,,,,,,,,,,,,,,,,,,,,,,,,,,,,,,,1581.5709998999955,None,,,,,,,,,,,,,,,,,,,,,,,,,,,,,,,,,,,,,,,,,,,,,,,,,,,,,,,,,street,147,121,silent,new,white,1579.3452717999462,None,y,1579.3452717999462,None,"['y', 'return']","[1.7976342999609187, 2.1896473999368027]",1579.3452717999462,None,,,2,001,2023_Jan_30_1016,ExactRep-v3-final,2021.2.3,59.91112781189719,
,,,,,,,,,,,,121,0,121,0,,,,,,,,,,,,,,,,,,,,,,,,,,,,,,,,,,,,,,,,,,,,,,,,,1585.1246151999803,None,,,,,,,,,,,,,,,,,,,,,,,,,,,,,,,,,,,,,,,,,,,,,,,,,,,,,,,,,victory,55,122,silent,old,white,1582.0811699000187,None,y,1582.0811699000187,None,"['y', 'return']","[2.2857509999303147, 2.9978418999817222]",1582.0811699000187,None,,,2,001,2023_Jan_30_1016,ExactRep-v3-final,2021.2.3,59.91112781189719,
,,,,,,,,,,,,122,0,122,0,,,,,,,,,,,,,,,,,,,,,,,,,,,,,,,,,,,,,,,,,,,,,,,,,1587.3267914999742,None,,,,,,,,,,,,,,,,,,,,,,,,,,,,,,,,,,,,,,,,,,,,,,,,,,,,,,,,,kiss,72,123,silent,old,white,1585.6366665000096,None,n,1585.6366665000096,None,"['n', 'return']","[1.0261954999295995, 1.6502643999410793]",1585.6366665000096,None,,,2,001,2023_Jan_30_1016,ExactRep-v3-final,2021.2.3,59.91112781189719,
,,,,,,,,,,,,123,0,123,0,,,,,,,,,,,,,,,,,,,,,,,,,,,,,,,,,,,,,,,,,,,,,,,,,1590.6303779999726,None,,,,,,,,,,,,,,,,,,,,,,,,,,,,,,,,,,,,,,,,,,,,,,,,,,,,,,,,,animal,13,124,sing,old,blue,1587.8367413999513,None,n,1587.8367413999513,None,"['n', 'return']","[2.330221000011079, 2.7461936000036076]",1587.8367413999513,None,,,2,001,2023_Jan_30_1016,ExactRep-v3-final,2021.2.3,59.91112781189719,
,,,,,,,,,,,,124,0,124,0,,,,,,,,,,,,,,,,,,,,,,,,,,,,,,,,,,,,,,,,,,,,,,,,,1592.982540500001,None,,,,,,,,,,,,,,,,,,,,,,,,,,,,,,,,,,,,,,,,,,,,,,,,,,,,,,,,,ship,174,125,aloud,new,red,1591.1469928999431,None,n,1591.1469928999431,None,"['n', 'n', 'return']","[1.2199552000965923, 1.267900700098835, 1.7959307000273839]",1591.1469928999431,None,,,2,001,2023_Jan_30_1016,ExactRep-v3-final,2021.2.3,59.91112781189719,
,,,,,,,,,,,,125,0,125,0,,,,,,,,,,,,,,,,,,,,,,,,,,,,,,,,,,,,,,,,,,,,,,,,,1597.2366617999505,None,,,,,,,,,,,,,,,,,,,,,,,,,,,,,,,,,,,,,,,,,,,,,,,,,,,,,,,,,poet,231,126,sing,new,blue,1593.4912871000124,None,n,1593.4912871000124,None,"['n', 'return']","[2.4995433000149205, 3.6997151999967173]",1593.4912871000124,None,,,2,001,2023_Jan_30_1016,ExactRep-v3-final,2021.2.3,59.91112781189719,
,,,,,,,,,,,,126,0,126,0,,,,,,,,,,,,,,,,,,,,,,,,,,,,,,,,,,,,,,,,,,,,,,,,,1599.889352899976,None,,,,,,,,,,,,,,,,,,,,,,,,,,,,,,,,,,,,,,,,,,,,,,,,,,,,,,,,,hide,142,127,silent,new,white,1597.7453824999975,None,n,1597.7453824999975,None,"['n', 'return']","[1.7014576999936253, 2.101529899984598]",1597.7453824999975,None,,,2,001,2023_Jan_30_1016,ExactRep-v3-final,2021.2.3,59.91112781189719,
,,,,,,,,,,,,127,0,127,0,,,,,,,,,,,,,,,,,,,,,,,,,,,,,,,,,,,,,,,,,,,,,,,,,1602.608739700052,None,,,,,,,,,,,,,,,,,,,,,,,,,,,,,,,,,,,,,,,,,,,,,,,,,,,,,,,,,sea,162,128,aloud,new,red,1600.392283400055,None,n,1600.392283400055,None,"['n', 'return']","[1.7826681999722496, 2.1746414999943227]",1600.392283400055,None,,,2,001,2023_Jan_30_1016,ExactRep-v3-final,2021.2.3,59.91112781189719,
,,,,,,,,,,,,128,0,128,0,,,,,,,,,,,,,,,,,,,,,,,,,,,,,,,,,,,,,,,,,,,,,,,,,1605.4449046000373,None,,,,,,,,,,,,,,,,,,,,,,,,,,,,,,,,,,,,,,,,,,,,,,,,,,,,,,,,,event,205,129,sing,new,blue,1603.1174745999742,None,n,1603.1174745999742,None,"['n', 'return']","[1.7934764999663457, 2.28947259997949]",1603.1174745999742,None,,,2,001,2023_Jan_30_1016,ExactRep-v3-final,2021.2.3,59.91112781189719,
,,,,,,,,,,,,129,0,129,0,,,,,,,,,,,,,,,,,,,,,,,,,,,,,,,,,,,,,,,,,,,,,,,,,1609.4490277000004,None,,,,,,,,,,,,,,,,,,,,,,,,,,,,,,,,,,,,,,,,,,,,,,,,,,,,,,,,,queen,129,130,silent,new,white,1605.9472421000246,None,n,1605.9472421000246,None,"['n', 'return']","[2.963682599947788, 3.467682199901901]",1605.9472421000246,None,,,2,001,2023_Jan_30_1016,ExactRep-v3-final,2021.2.3,59.91112781189719,
,,,,,,,,,,,,130,0,130,0,,,,,,,,,,,,,,,,,,,,,,,,,,,,,,,,,,,,,,,,,,,,,,,,,1612.8689890999813,None,,,,,,,,,,,,,,,,,,,,,,,,,,,,,,,,,,,,,,,,,,,,,,,,,,,,,,,,,dress,220,131,aloud,new,red,1609.9595195000293,None,n,1609.9595195000293,None,"['n', 'return']","[2.3594027999788523, 2.8634653000626713]",1609.9595195000293,None,,,2,001,2023_Jan_30_1016,ExactRep-v3-final,2021.2.3,59.91112781189719,
,,,,,,,,,,,,131,0,131,0,,,,,,,,,,,,,,,,,,,,,,,,,,,,,,,,,,,,,,,,,,,,,,,,,1615.338155400008,None,,,,,,,,,,,,,,,,,,,,,,,,,,,,,,,,,,,,,,,,,,,,,,,,,,,,,,,,,palace,108,132,aloud,old,red,1613.3791226999601,None,y,1613.3791226999601,None,"['y', 'return']","[1.5079090000363067, 1.9158429000526667]",1613.3791226999601,None,,,2,001,2023_Jan_30_1016,ExactRep-v3-final,2021.2.3,59.91112781189719,
,,,,,,,,,,,,132,0,132,0,,,,,,,,,,,,,,,,,,,,,,,,,,,,,,,,,,,,,,,,,,,,,,,,,1618.7081693999935,None,,,,,,,,,,,,,,,,,,,,,,,,,,,,,,,,,,,,,,,,,,,,,,,,,,,,,,,,,volume,9,133,sing,old,blue,1615.8515848000534,None,y,1615.8515848000534,None,"['y', 'return']","[2.4433590999105945, 2.8193518999032676]",1615.8515848000534,None,,,2,001,2023_Jan_30_1016,ExactRep-v3-final,2021.2.3,59.91112781189719,
