trials_fam.thisRepN,trials_fam.thisTrialN,trials_fam.thisN,trials_fam.thisIndex,trials_prc.thisRepN,trials_prc.thisTrialN,trials_prc.thisN,trials_prc.thisIndex,StudyLoop.thisRepN,StudyLoop.thisTrialN,StudyLoop.thisN,StudyLoop.thisIndex,TestLoop.thisRepN,TestLoop.thisTrialN,TestLoop.thisN,TestLoop.thisIndex,text_colortest.started,text_colortest.stopped,key_colortest.keys,key_colortest.rt,key_colortest.started,key_colortest.stopped,textCondition.started,textCondition.stopped,keyCondition.keys,keyCondition.rt,keyCondition.started,keyCondition.stopped,Condition_between,Condition_counterbal,keyWelcome.keys,keyWelcome.rt,keyWelcome.started,keyWelcome.stopped,welcome_a.started,welcome_a.stopped,welcome_b.started,welcome_b.stopped,welcome_c.started,welcome_c.stopped,welcome_d.started,welcome_d.stopped,welcome_e.started,welcome_e.stopped,welcome_f.started,welcome_f.stopped,key_resp_fam_inst.keys,key_resp_fam_inst.rt,key_resp_fam_inst.started,key_resp_fam_inst.stopped,fam_a.started,fam_a.stopped,fam_b.started,fam_b.stopped,fam_c.started,fam_c.stopped,fam_d.started,fam_d.stopped,fam_e.started,fam_e.stopped,fam_f.started,fam_f.stopped,text_famil.started,text_famil.stopped,textBlank500.started,textBlank500.stopped,key_resp_prc_inst.keys,key_resp_prc_inst.rt,key_resp_prc_inst.started,key_resp_prc_inst.stopped,prac_a.started,prac_a.stopped,prac_b.started,prac_b.stopped,prac_c.started,prac_c.stopped,prac_d.started,prac_d.stopped,prac_e.started,prac_e.stopped,prac_f.started,prac_f.stopped,text_prc_trial.started,text_prc_trial.stopped,key_resp_study_inst.keys,key_resp_study_inst.rt,key_resp_study_inst.started,key_resp_study_inst.stopped,crit_a.started,crit_a.stopped,crit_b.started,crit_b.stopped,crit_c.started,crit_c.stopped,crit_d.started,crit_d.stopped,crit_e.started,crit_e.stopped,crit_f.started,crit_f.stopped,study_word,study_num,study_order,study_type,word_color,textStudy.started,textStudy.stopped,keyStudy.keys,keyStudy.started,keyStudy.stopped,post_study.started,post_study.stopped,key_resp_post_study.keys,key_resp_post_study.rt,key_resp_post_study.started,key_resp_post_study.stopped,test_inst.started,test_inst.stopped,key_resp_test_inst.keys,key_resp_test_inst.rt,key_resp_test_inst.started,key_resp_test_inst.stopped,test_word,test_num,test_order,test_condition,old_new_test,word_color_test,textConf.started,textConf.stopped,Participant Response,textInput.started,textInput.stopped,keyResp.keys,keyResp.rt,keyResp.started,keyResp.stopped,textEnd.started,textEnd.stopped,participant,session,date,expName,psychopyVersion,frameRate,
,,,,,,,,,,,,,,,,26.93849440012127,None,y,2.5676961997523904,26.93849440012127,None,,,,,,,,,,,,,,,,,,,,,,,,,,,,,,,,,,,,,,,,,,,,,,,,,,,,,,,,,,,,,,,,,,,,,,,,,,,,,,,,,,,,,,,,,,,,,,,,,,,,,,,,,,,,,,,,,,,,,,30YF,001,2023_Mar_31_0945,ExactRep-v3-final,2021.2.3,59.98350448049326,
,,,,,,,,,,,,,,,,,,,,,,29.528178400360048,None,f,1.034070999827236,29.528178400360048,None,,,,,,,,,,,,,,,,,,,,,,,,,,,,,,,,,,,,,,,,,,,,,,,,,,,,,,,,,,,,,,,,,,,,,,,,,,,,,,,,,,,,,,,,,,,,,,,,,,,,,,,,,,,,,,,,30YF,001,2023_Mar_31_0945,ExactRep-v3-final,2021.2.3,59.98350448049326,
,,,,,,,,,,,,,,,,,,,,,,,,,,,,colorfoils,f,space,707.5636313003488,40.73551040003076,None,,,,,,,,,,,,,,,,,,,,,,,,,,,,,,,,,,,,,,,,,,,,,,,,,,,,,,,,,,,,,,,,,,,,,,,,,,,,,,,,,,,,,,,,,,,,,,,,,,,,,,,,,,30YF,001,2023_Mar_31_0945,ExactRep-v3-final,2021.2.3,59.98350448049326,
,,,,,,,,,,,,,,,,,,,,,,,,,,,,,,,,,,30.78525929991156,None,30.78525929991156,None,30.78525929991156,None,30.78525929991156,None,30.78525929991156,None,30.78525929991156,None,space,16.923088599927723,758.4559244001284,None,,,,,,,,,,,,,,,,,,,,,,,,,,,,,,,,,,,,,,,,,,,,,,,,,,,,,,,,,,,,,,,,,,,,,,,,,,,,,,,,,,,,,,,,,,30YF,001,2023_Mar_31_0945,ExactRep-v3-final,2021.2.3,59.98350448049326,
0,0,0,0,,,,,,,,,,,,,,,,,,,,,,,,,,,,,,,,,,,,,,,,,,,,,,,748.4786288999021,None,748.4786288999021,None,748.4786288999021,None,748.4786288999021,None,748.4786288999021,None,748.4786288999021,None,775.5000841999426,None,777.4929897999391,None,,,,,,,,,,,,,,,,,,,,,,,,,,,,,,,,,,,,,,,,,,,,,,,,,,,,,,,,,,,,,,,,,,,,,,,,,,30YF,001,2023_Mar_31_0945,ExactRep-v3-final,2021.2.3,59.98350448049326,
1,0,1,0,,,,,,,,,,,,,,,,,,,,,,,,,,,,,,,,,,,,,,,,,,,,,,,,,,,,,,,,,,,777.9937058999203,None,779.9956334000453,None,,,,,,,,,,,,,,,,,,,,,,,,,,,,,,,,,,,,,,,,,,,,,,,,,,,,,,,,,,,,,,,,,,,,,,,,,,30YF,001,2023_Mar_31_0945,ExactRep-v3-final,2021.2.3,59.98350448049326,
2,0,2,0,,,,,,,,,,,,,,,,,,,,,,,,,,,,,,,,,,,,,,,,,,,,,,,,,,,,,,,,,,,780.5311847999692,None,782.5145584000275,None,,,,,,,,,,,,,,,,,,,,,,,,,,,,,,,,,,,,,,,,,,,,,,,,,,,,,,,,,,,,,,,,,,,,,,,,,,30YF,001,2023_Mar_31_0945,ExactRep-v3-final,2021.2.3,59.98350448049326,
3,0,3,0,,,,,,,,,,,,,,,,,,,,,,,,,,,,,,,,,,,,,,,,,,,,,,,,,,,,,,,,,,,783.0177890001796,None,785.017214700114,None,,,,,,,,,,,,,,,,,,,,,,,,,,,,,,,,,,,,,,,,,,,,,,,,,,,,,,,,,,,,,,,,,,,,,,,,,,30YF,001,2023_Mar_31_0945,ExactRep-v3-final,2021.2.3,59.98350448049326,
4,0,4,0,,,,,,,,,,,,,,,,,,,,,,,,,,,,,,,,,,,,,,,,,,,,,,,,,,,,,,,,,,,785.5201242999174,None,787.5195448999293,None,,,,,,,,,,,,,,,,,,,,,,,,,,,,,,,,,,,,,,,,,,,,,,,,,,,,,,,,,,,,,,,,,,,,,,,,,,30YF,001,2023_Mar_31_0945,ExactRep-v3-final,2021.2.3,59.98350448049326,
5,0,5,0,,,,,,,,,,,,,,,,,,,,,,,,,,,,,,,,,,,,,,,,,,,,,,,,,,,,,,,,,,,788.0202767001465,None,790.0222546001896,None,,,,,,,,,,,,,,,,,,,,,,,,,,,,,,,,,,,,,,,,,,,,,,,,,,,,,,,,,,,,,,,,,,,,,,,,,,30YF,001,2023_Mar_31_0945,ExactRep-v3-final,2021.2.3,59.98350448049326,
6,0,6,0,,,,,,,,,,,,,,,,,,,,,,,,,,,,,,,,,,,,,,,,,,,,,,,,,,,,,,,,,,,790.522538700141,None,792.5245501003228,None,,,,,,,,,,,,,,,,,,,,,,,,,,,,,,,,,,,,,,,,,,,,,,,,,,,,,,,,,,,,,,,,,,,,,,,,,,30YF,001,2023_Mar_31_0945,ExactRep-v3-final,2021.2.3,59.98350448049326,
7,0,7,0,,,,,,,,,,,,,,,,,,,,,,,,,,,,,,,,,,,,,,,,,,,,,,,,,,,,,,,,,,,793.0251349001192,None,795.0271829999983,None,,,,,,,,,,,,,,,,,,,,,,,,,,,,,,,,,,,,,,,,,,,,,,,,,,,,,,,,,,,,,,,,,,,,,,,,,,30YF,001,2023_Mar_31_0945,ExactRep-v3-final,2021.2.3,59.98350448049326,
8,0,8,0,,,,,,,,,,,,,,,,,,,,,,,,,,,,,,,,,,,,,,,,,,,,,,,,,,,,,,,,,,,795.5279588000849,None,797.5296808001585,None,,,,,,,,,,,,,,,,,,,,,,,,,,,,,,,,,,,,,,,,,,,,,,,,,,,,,,,,,,,,,,,,,,,,,,,,,,30YF,001,2023_Mar_31_0945,ExactRep-v3-final,2021.2.3,59.98350448049326,
9,0,9,0,,,,,,,,,,,,,,,,,,,,,,,,,,,,,,,,,,,,,,,,,,,,,,,,,,,,,,,,,,,798.0322266002186,None,800.0323622999713,None,,,,,,,,,,,,,,,,,,,,,,,,,,,,,,,,,,,,,,,,,,,,,,,,,,,,,,,,,,,,,,,,,,,,,,,,,,30YF,001,2023_Mar_31_0945,ExactRep-v3-final,2021.2.3,59.98350448049326,
10,0,10,0,,,,,,,,,,,,,,,,,,,,,,,,,,,,,,,,,,,,,,,,,,,,,,,,,,,,,,,,,,,800.5324026001617,None,802.5345776001923,None,,,,,,,,,,,,,,,,,,,,,,,,,,,,,,,,,,,,,,,,,,,,,,,,,,,,,,,,,,,,,,,,,,,,,,,,,,30YF,001,2023_Mar_31_0945,ExactRep-v3-final,2021.2.3,59.98350448049326,
11,0,11,0,,,,,,,,,,,,,,,,,,,,,,,,,,,,,,,,,,,,,,,,,,,,,,,,,,,,,,,,,,,803.0371527001262,None,805.0372461001389,None,,,,,,,,,,,,,,,,,,,,,,,,,,,,,,,,,,,,,,,,,,,,,,,,,,,,,,,,,,,,,,,,,,,,,,,,,,30YF,001,2023_Mar_31_0945,ExactRep-v3-final,2021.2.3,59.98350448049326,
12,0,12,0,,,,,,,,,,,,,,,,,,,,,,,,,,,,,,,,,,,,,,,,,,,,,,,,,,,,,,,,,,,805.5395301999524,None,807.5396929001436,None,,,,,,,,,,,,,,,,,,,,,,,,,,,,,,,,,,,,,,,,,,,,,,,,,,,,,,,,,,,,,,,,,,,,,,,,,,30YF,001,2023_Mar_31_0945,ExactRep-v3-final,2021.2.3,59.98350448049326,
13,0,13,0,,,,,,,,,,,,,,,,,,,,,,,,,,,,,,,,,,,,,,,,,,,,,,,,,,,,,,,,,,,808.0402616001666,None,810.0422463002615,None,,,,,,,,,,,,,,,,,,,,,,,,,,,,,,,,,,,,,,,,,,,,,,,,,,,,,,,,,,,,,,,,,,,,,,,,,,30YF,001,2023_Mar_31_0945,ExactRep-v3-final,2021.2.3,59.98350448049326,
14,0,14,0,,,,,,,,,,,,,,,,,,,,,,,,,,,,,,,,,,,,,,,,,,,,,,,,,,,,,,,,,,,810.5494291000068,None,812.5614082999527,None,,,,,,,,,,,,,,,,,,,,,,,,,,,,,,,,,,,,,,,,,,,,,,,,,,,,,,,,,,,,,,,,,,,,,,,,,,30YF,001,2023_Mar_31_0945,ExactRep-v3-final,2021.2.3,59.98350448049326,
,,,,,,,,,,,,,,,,,,,,,,,,,,,,,,,,,,,,,,,,,,,,,,,,,,,,,,,,,,,,,,,,,,space,0.8515029000118375,823.2156483000144,None,,,,,,,,,,,,,,,,,,,,,,,,,,,,,,,,,,,,,,,,,,,,,,,,,,,,,,,,,,,,,,,,,,,,,,30YF,001,2023_Mar_31_0945,ExactRep-v3-final,2021.2.3,59.98350448049326,
,,,,0,0,0,0,,,,,,,,,,,,,,,,,,,,,,,,,,,,,,,,,,,,,,,,,,,,,,,,,,,,,,,,,826.1749758999795,None,,,,,813.2522300002165,None,813.2522300002165,None,813.2522300002165,None,813.2522300002165,None,813.2522300002165,None,813.2522300002165,None,824.1657497999258,None,,,,,,,,,,,,,,,,,,,,,,,,,,,,,,,,,,,,,,,,,,,,,,,,,,,,,,,,30YF,001,2023_Mar_31_0945,ExactRep-v3-final,2021.2.3,59.98350448049326,
,,,,1,0,1,0,,,,,,,,,,,,,,,,,,,,,,,,,,,,,,,,,,,,,,,,,,,,,,,,,,,,,,,,,828.6774961003102,None,,,,,,,,,,,,,,,,,826.6755683999509,None,,,,,,,,,,,,,,,,,,,,,,,,,,,,,,,,,,,,,,,,,,,,,,,,,,,,,,,,30YF,001,2023_Mar_31_0945,ExactRep-v3-final,2021.2.3,59.98350448049326,
,,,,2,0,2,0,,,,,,,,,,,,,,,,,,,,,,,,,,,,,,,,,,,,,,,,,,,,,,,,,,,,,,,,,831.1795532000251,None,,,,,,,,,,,,,,,,,829.1781705999747,None,,,,,,,,,,,,,,,,,,,,,,,,,,,,,,,,,,,,,,,,,,,,,,,,,,,,,,,,30YF,001,2023_Mar_31_0945,ExactRep-v3-final,2021.2.3,59.98350448049326,
,,,,3,0,3,0,,,,,,,,,,,,,,,,,,,,,,,,,,,,,,,,,,,,,,,,,,,,,,,,,,,,,,,,,833.682542399969,None,,,,,,,,,,,,,,,,,831.680526799988,None,,,,,,,,,,,,,,,,,,,,,,,,,,,,,,,,,,,,,,,,,,,,,,,,,,,,,,,,30YF,001,2023_Mar_31_0945,ExactRep-v3-final,2021.2.3,59.98350448049326,
,,,,4,0,4,0,,,,,,,,,,,,,,,,,,,,,,,,,,,,,,,,,,,,,,,,,,,,,,,,,,,,,,,,,836.1852327003144,None,,,,,,,,,,,,,,,,,834.1831561001018,None,,,,,,,,,,,,,,,,,,,,,,,,,,,,,,,,,,,,,,,,,,,,,,,,,,,,,,,,30YF,001,2023_Mar_31_0945,ExactRep-v3-final,2021.2.3,59.98350448049326,
,,,,5,0,5,0,,,,,,,,,,,,,,,,,,,,,,,,,,,,,,,,,,,,,,,,,,,,,,,,,,,,,,,,,838.6876330003142,None,,,,,,,,,,,,,,,,,836.6855293000117,None,,,,,,,,,,,,,,,,,,,,,,,,,,,,,,,,,,,,,,,,,,,,,,,,,,,,,,,,30YF,001,2023_Mar_31_0945,ExactRep-v3-final,2021.2.3,59.98350448049326,
,,,,6,0,6,0,,,,,,,,,,,,,,,,,,,,,,,,,,,,,,,,,,,,,,,,,,,,,,,,,,,,,,,,,841.1901396000758,None,,,,,,,,,,,,,,,,,839.1880554999225,None,,,,,,,,,,,,,,,,,,,,,,,,,,,,,,,,,,,,,,,,,,,,,,,,,,,,,,,,30YF,001,2023_Mar_31_0945,ExactRep-v3-final,2021.2.3,59.98350448049326,
,,,,7,0,7,0,,,,,,,,,,,,,,,,,,,,,,,,,,,,,,,,,,,,,,,,,,,,,,,,,,,,,,,,,843.6925548003055,None,,,,,,,,,,,,,,,,,841.690615999978,None,,,,,,,,,,,,,,,,,,,,,,,,,,,,,,,,,,,,,,,,,,,,,,,,,,,,,,,,30YF,001,2023_Mar_31_0945,ExactRep-v3-final,2021.2.3,59.98350448049326,
,,,,8,0,8,0,,,,,,,,,,,,,,,,,,,,,,,,,,,,,,,,,,,,,,,,,,,,,,,,,,,,,,,,,846.1950484002009,None,,,,,,,,,,,,,,,,,844.1930780000985,None,,,,,,,,,,,,,,,,,,,,,,,,,,,,,,,,,,,,,,,,,,,,,,,,,,,,,,,,30YF,001,2023_Mar_31_0945,ExactRep-v3-final,2021.2.3,59.98350448049326,
,,,,9,0,9,0,,,,,,,,,,,,,,,,,,,,,,,,,,,,,,,,,,,,,,,,,,,,,,,,,,,,,,,,,848.6974939000793,None,,,,,,,,,,,,,,,,,846.6956134000793,None,,,,,,,,,,,,,,,,,,,,,,,,,,,,,,,,,,,,,,,,,,,,,,,,,,,,,,,,30YF,001,2023_Mar_31_0945,ExactRep-v3-final,2021.2.3,59.98350448049326,
,,,,10,0,10,0,,,,,,,,,,,,,,,,,,,,,,,,,,,,,,,,,,,,,,,,,,,,,,,,,,,,,,,,,851.2000984000042,None,,,,,,,,,,,,,,,,,849.1981481001712,None,,,,,,,,,,,,,,,,,,,,,,,,,,,,,,,,,,,,,,,,,,,,,,,,,,,,,,,,30YF,001,2023_Mar_31_0945,ExactRep-v3-final,2021.2.3,59.98350448049326,
,,,,11,0,11,0,,,,,,,,,,,,,,,,,,,,,,,,,,,,,,,,,,,,,,,,,,,,,,,,,,,,,,,,,853.7026037001051,None,,,,,,,,,,,,,,,,,851.7005806001835,None,,,,,,,,,,,,,,,,,,,,,,,,,,,,,,,,,,,,,,,,,,,,,,,,,,,,,,,,30YF,001,2023_Mar_31_0945,ExactRep-v3-final,2021.2.3,59.98350448049326,
,,,,12,0,12,0,,,,,,,,,,,,,,,,,,,,,,,,,,,,,,,,,,,,,,,,,,,,,,,,,,,,,,,,,856.2051047002897,None,,,,,,,,,,,,,,,,,854.2031068000942,None,,,,,,,,,,,,,,,,,,,,,,,,,,,,,,,,,,,,,,,,,,,,,,,,,,,,,,,,30YF,001,2023_Mar_31_0945,ExactRep-v3-final,2021.2.3,59.98350448049326,
,,,,13,0,13,0,,,,,,,,,,,,,,,,,,,,,,,,,,,,,,,,,,,,,,,,,,,,,,,,,,,,,,,,,858.7076807999983,None,,,,,,,,,,,,,,,,,856.7056146003306,None,,,,,,,,,,,,,,,,,,,,,,,,,,,,,,,,,,,,,,,,,,,,,,,,,,,,,,,,30YF,001,2023_Mar_31_0945,ExactRep-v3-final,2021.2.3,59.98350448049326,
,,,,14,0,14,0,,,,,,,,,,,,,,,,,,,,,,,,,,,,,,,,,,,,,,,,,,,,,,,,,,,,,,,,,861.2100113001652,None,,,,,,,,,,,,,,,,,859.2081985003315,None,,,,,,,,,,,,,,,,,,,,,,,,,,,,,,,,,,,,,,,,,,,,,,,,,,,,,,,,30YF,001,2023_Mar_31_0945,ExactRep-v3-final,2021.2.3,59.98350448049326,
,,,,,,,,,,,,,,,,,,,,,,,,,,,,,,,,,,,,,,,,,,,,,,,,,,,,,,,,,,,,,,,,,,,,,,,,,,,,,,,,,,,,space,17.148803799878806,871.8543621003628,None,,,,,,,,,,,,,,,,,,,,,,,,,,,,,,,,,,,,,,,,,,,,,,,,,,,,30YF,001,2023_Mar_31_0945,ExactRep-v3-final,2021.2.3,59.98350448049326,
,,,,,,,,0,0,0,0,,,,,,,,,,,,,,,,,,,,,,,,,,,,,,,,,,,,,,,,,,,,,,,,,,,,,891.1232972000726,None,,,,,,,,,,,,,,,,,,,,,,,861.883748000022,None,861.883748000022,None,861.883748000022,None,861.883748000022,None,861.883748000022,None,861.883748000022,None,prayer,38,1,sing,red,889.114551700186,None,None,889.114551700186,None,,,,,,,,,,,,,,,,,,,,,,,,,,,,,,30YF,001,2023_Mar_31_0945,ExactRep-v3-final,2021.2.3,59.98350448049326,
,,,,,,,,1,0,1,0,,,,,,,,,,,,,,,,,,,,,,,,,,,,,,,,,,,,,,,,,,,,,,,,,,,,,893.6259293002076,None,,,,,,,,,,,,,,,,,,,,,,,,,,,,,,,,,,,wife,103,2,aloud,white,891.6235747002065,None,None,891.6235747002065,None,,,,,,,,,,,,,,,,,,,,,,,,,,,,,,30YF,001,2023_Mar_31_0945,ExactRep-v3-final,2021.2.3,59.98350448049326,
,,,,,,,,2,0,2,0,,,,,,,,,,,,,,,,,,,,,,,,,,,,,,,,,,,,,,,,,,,,,,,,,,,,,896.1450211000629,None,,,,,,,,,,,,,,,,,,,,,,,,,,,,,,,,,,,sea,69,3,silent,blue,894.1308361003175,None,None,894.1308361003175,None,,,,,,,,,,,,,,,,,,,,,,,,,,,,,,30YF,001,2023_Mar_31_0945,ExactRep-v3-final,2021.2.3,59.98350448049326,
,,,,,,,,3,0,3,0,,,,,,,,,,,,,,,,,,,,,,,,,,,,,,,,,,,,,,,,,,,,,,,,,,,,,898.6642180001363,None,,,,,,,,,,,,,,,,,,,,,,,,,,,,,,,,,,,excuse,24,4,sing,red,896.6537759001367,None,None,896.6537759001367,None,,,,,,,,,,,,,,,,,,,,,,,,,,,,,,30YF,001,2023_Mar_31_0945,ExactRep-v3-final,2021.2.3,59.98350448049326,
,,,,,,,,4,0,4,0,,,,,,,,,,,,,,,,,,,,,,,,,,,,,,,,,,,,,,,,,,,,,,,,,,,,,901.1834038002416,None,,,,,,,,,,,,,,,,,,,,,,,,,,,,,,,,,,,health,16,5,sing,red,899.1689240001142,None,None,899.1689240001142,None,,,,,,,,,,,,,,,,,,,,,,,,,,,,,,30YF,001,2023_Mar_31_0945,ExactRep-v3-final,2021.2.3,59.98350448049326,
,,,,,,,,5,0,5,0,,,,,,,,,,,,,,,,,,,,,,,,,,,,,,,,,,,,,,,,,,,,,,,,,,,,,903.6858338001184,None,,,,,,,,,,,,,,,,,,,,,,,,,,,,,,,,,,,dawn,9,6,sing,red,901.6851482000202,None,None,901.6851482000202,None,,,,,,,,,,,,,,,,,,,,,,,,,,,,,,30YF,001,2023_Mar_31_0945,ExactRep-v3-final,2021.2.3,59.98350448049326,
,,,,,,,,6,0,6,0,,,,,,,,,,,,,,,,,,,,,,,,,,,,,,,,,,,,,,,,,,,,,,,,,,,,,906.1884004003368,None,,,,,,,,,,,,,,,,,,,,,,,,,,,,,,,,,,,city,63,7,silent,blue,904.187061900273,None,None,904.187061900273,None,,,,,,,,,,,,,,,,,,,,,,,,,,,,,,30YF,001,2023_Mar_31_0945,ExactRep-v3-final,2021.2.3,59.98350448049326,
,,,,,,,,7,0,7,0,,,,,,,,,,,,,,,,,,,,,,,,,,,,,,,,,,,,,,,,,,,,,,,,,,,,,908.707633800339,None,,,,,,,,,,,,,,,,,,,,,,,,,,,,,,,,,,,answer,7,8,sing,red,906.6920084999874,None,None,906.6920084999874,None,,,,,,,,,,,,,,,,,,,,,,,,,,,,,,30YF,001,2023_Mar_31_0945,ExactRep-v3-final,2021.2.3,59.98350448049326,
,,,,,,,,8,0,8,0,,,,,,,,,,,,,,,,,,,,,,,,,,,,,,,,,,,,,,,,,,,,,,,,,,,,,911.2267203000374,None,,,,,,,,,,,,,,,,,,,,,,,,,,,,,,,,,,,coffee,78,9,silent,blue,909.2137540001422,None,None,909.2137540001422,None,,,,,,,,,,,,,,,,,,,,,,,,,,,,,,30YF,001,2023_Mar_31_0945,ExactRep-v3-final,2021.2.3,59.98350448049326,
,,,,,,,,9,0,9,0,,,,,,,,,,,,,,,,,,,,,,,,,,,,,,,,,,,,,,,,,,,,,,,,,,,,,913.7459460999817,None,,,,,,,,,,,,,,,,,,,,,,,,,,,,,,,,,,,memory,1,10,sing,red,911.7311806003563,None,None,911.7311806003563,None,,,,,,,,,,,,,,,,,,,,,,,,,,,,,,30YF,001,2023_Mar_31_0945,ExactRep-v3-final,2021.2.3,59.98350448049326,
,,,,,,,,10,0,10,0,,,,,,,,,,,,,,,,,,,,,,,,,,,,,,,,,,,,,,,,,,,,,,,,,,,,,916.2650783001445,None,,,,,,,,,,,,,,,,,,,,,,,,,,,,,,,,,,,justice,44,11,silent,blue,914.2542945002206,None,None,914.2542945002206,None,,,,,,,,,,,,,,,,,,,,,,,,,,,,,,30YF,001,2023_Mar_31_0945,ExactRep-v3-final,2021.2.3,59.98350448049326,
,,,,,,,,11,0,11,0,,,,,,,,,,,,,,,,,,,,,,,,,,,,,,,,,,,,,,,,,,,,,,,,,,,,,918.767619300168,None,,,,,,,,,,,,,,,,,,,,,,,,,,,,,,,,,,,bar,28,12,sing,red,916.7656009001657,None,None,916.7656009001657,None,,,,,,,,,,,,,,,,,,,,,,,,,,,,,,30YF,001,2023_Mar_31_0945,ExactRep-v3-final,2021.2.3,59.98350448049326,
,,,,,,,,12,0,12,0,,,,,,,,,,,,,,,,,,,,,,,,,,,,,,,,,,,,,,,,,,,,,,,,,,,,,921.2699965001084,None,,,,,,,,,,,,,,,,,,,,,,,,,,,,,,,,,,,crime,42,13,silent,blue,919.2693950999528,None,None,919.2693950999528,None,,,,,,,,,,,,,,,,,,,,,,,,,,,,,,30YF,001,2023_Mar_31_0945,ExactRep-v3-final,2021.2.3,59.98350448049326,
,,,,,,,,13,0,13,0,,,,,,,,,,,,,,,,,,,,,,,,,,,,,,,,,,,,,,,,,,,,,,,,,,,,,923.7725933003239,None,,,,,,,,,,,,,,,,,,,,,,,,,,,,,,,,,,,car,75,14,silent,blue,921.7704340000637,None,None,921.7704340000637,None,,,,,,,,,,,,,,,,,,,,,,,,,,,,,,30YF,001,2023_Mar_31_0945,ExactRep-v3-final,2021.2.3,59.98350448049326,
,,,,,,,,14,0,14,0,,,,,,,,,,,,,,,,,,,,,,,,,,,,,,,,,,,,,,,,,,,,,,,,,,,,,926.2916224999353,None,,,,,,,,,,,,,,,,,,,,,,,,,,,,,,,,,,,paper,49,15,silent,blue,924.2815948002972,None,None,924.2815948002972,None,,,,,,,,,,,,,,,,,,,,,,,,,,,,,,30YF,001,2023_Mar_31_0945,ExactRep-v3-final,2021.2.3,59.98350448049326,
,,,,,,,,15,0,15,0,,,,,,,,,,,,,,,,,,,,,,,,,,,,,,,,,,,,,,,,,,,,,,,,,,,,,928.7942940001376,None,,,,,,,,,,,,,,,,,,,,,,,,,,,,,,,,,,,insect,99,16,aloud,white,926.7922777999192,None,None,926.7922777999192,None,,,,,,,,,,,,,,,,,,,,,,,,,,,,,,30YF,001,2023_Mar_31_0945,ExactRep-v3-final,2021.2.3,59.98350448049326,
,,,,,,,,16,0,16,0,,,,,,,,,,,,,,,,,,,,,,,,,,,,,,,,,,,,,,,,,,,,,,,,,,,,,931.313492400106,None,,,,,,,,,,,,,,,,,,,,,,,,,,,,,,,,,,,leader,30,17,sing,red,929.2983801001683,None,None,929.2983801001683,None,,,,,,,,,,,,,,,,,,,,,,,,,,,,,,30YF,001,2023_Mar_31_0945,ExactRep-v3-final,2021.2.3,59.98350448049326,
,,,,,,,,17,0,17,0,,,,,,,,,,,,,,,,,,,,,,,,,,,,,,,,,,,,,,,,,,,,,,,,,,,,,933.815978300292,None,,,,,,,,,,,,,,,,,,,,,,,,,,,,,,,,,,,cotton,89,18,aloud,white,931.8160548000596,None,None,931.8160548000596,None,,,,,,,,,,,,,,,,,,,,,,,,,,,,,,30YF,001,2023_Mar_31_0945,ExactRep-v3-final,2021.2.3,59.98350448049326,
,,,,,,,,18,0,18,0,,,,,,,,,,,,,,,,,,,,,,,,,,,,,,,,,,,,,,,,,,,,,,,,,,,,,936.3351573003456,None,,,,,,,,,,,,,,,,,,,,,,,,,,,,,,,,,,,length,65,19,silent,blue,934.3226939002052,None,None,934.3226939002052,None,,,,,,,,,,,,,,,,,,,,,,,,,,,,,,30YF,001,2023_Mar_31_0945,ExactRep-v3-final,2021.2.3,59.98350448049326,
,,,,,,,,19,0,19,0,,,,,,,,,,,,,,,,,,,,,,,,,,,,,,,,,,,,,,,,,,,,,,,,,,,,,938.8376651001163,None,,,,,,,,,,,,,,,,,,,,,,,,,,,,,,,,,,,effort,54,20,silent,blue,936.8355223000981,None,None,936.8355223000981,None,,,,,,,,,,,,,,,,,,,,,,,,,,,,,,30YF,001,2023_Mar_31_0945,ExactRep-v3-final,2021.2.3,59.98350448049326,
,,,,,,,,20,0,20,0,,,,,,,,,,,,,,,,,,,,,,,,,,,,,,,,,,,,,,,,,,,,,,,,,,,,,941.3566219001077,None,,,,,,,,,,,,,,,,,,,,,,,,,,,,,,,,,,,ticket,56,21,silent,blue,939.3463531001471,None,None,939.3463531001471,None,,,,,,,,,,,,,,,,,,,,,,,,,,,,,,30YF,001,2023_Mar_31_0945,ExactRep-v3-final,2021.2.3,59.98350448049326,
,,,,,,,,21,0,21,0,,,,,,,,,,,,,,,,,,,,,,,,,,,,,,,,,,,,,,,,,,,,,,,,,,,,,943.860174600035,None,,,,,,,,,,,,,,,,,,,,,,,,,,,,,,,,,,,blood,96,22,aloud,white,941.8572237002663,None,None,941.8572237002663,None,,,,,,,,,,,,,,,,,,,,,,,,,,,,,,30YF,001,2023_Mar_31_0945,ExactRep-v3-final,2021.2.3,59.98350448049326,
,,,,,,,,22,0,22,0,,,,,,,,,,,,,,,,,,,,,,,,,,,,,,,,,,,,,,,,,,,,,,,,,,,,,946.3785157999955,None,,,,,,,,,,,,,,,,,,,,,,,,,,,,,,,,,,,soul,70,23,silent,blue,944.367755100131,None,None,944.367755100131,None,,,,,,,,,,,,,,,,,,,,,,,,,,,,,,30YF,001,2023_Mar_31_0945,ExactRep-v3-final,2021.2.3,59.98350448049326,
,,,,,,,,23,0,23,0,,,,,,,,,,,,,,,,,,,,,,,,,,,,,,,,,,,,,,,,,,,,,,,,,,,,,948.8816788000986,None,,,,,,,,,,,,,,,,,,,,,,,,,,,,,,,,,,,clock,108,24,aloud,white,946.8801156003028,None,None,946.8801156003028,None,,,,,,,,,,,,,,,,,,,,,,,,,,,,,,30YF,001,2023_Mar_31_0945,ExactRep-v3-final,2021.2.3,59.98350448049326,
,,,,,,,,24,0,24,0,,,,,,,,,,,,,,,,,,,,,,,,,,,,,,,,,,,,,,,,,,,,,,,,,,,,,951.3835557000712,None,,,,,,,,,,,,,,,,,,,,,,,,,,,,,,,,,,,winter,18,25,sing,red,949.3822494000196,None,None,949.3822494000196,None,,,,,,,,,,,,,,,,,,,,,,,,,,,,,,30YF,001,2023_Mar_31_0945,ExactRep-v3-final,2021.2.3,59.98350448049326,
,,,,,,,,25,0,25,0,,,,,,,,,,,,,,,,,,,,,,,,,,,,,,,,,,,,,,,,,,,,,,,,,,,,,953.8860089001246,None,,,,,,,,,,,,,,,,,,,,,,,,,,,,,,,,,,,present,118,26,aloud,white,951.8856248999946,None,None,951.8856248999946,None,,,,,,,,,,,,,,,,,,,,,,,,,,,,,,30YF,001,2023_Mar_31_0945,ExactRep-v3-final,2021.2.3,59.98350448049326,
,,,,,,,,26,0,26,0,,,,,,,,,,,,,,,,,,,,,,,,,,,,,,,,,,,,,,,,,,,,,,,,,,,,,956.4055250999518,None,,,,,,,,,,,,,,,,,,,,,,,,,,,,,,,,,,,disease,81,27,aloud,white,954.3941873000003,None,None,954.3941873000003,None,,,,,,,,,,,,,,,,,,,,,,,,,,,,,,30YF,001,2023_Mar_31_0945,ExactRep-v3-final,2021.2.3,59.98350448049326,
,,,,,,,,27,0,27,0,,,,,,,,,,,,,,,,,,,,,,,,,,,,,,,,,,,,,,,,,,,,,,,,,,,,,958.9075421001762,None,,,,,,,,,,,,,,,,,,,,,,,,,,,,,,,,,,,lord,64,28,silent,blue,956.9054074999876,None,None,956.9054074999876,None,,,,,,,,,,,,,,,,,,,,,,,,,,,,,,30YF,001,2023_Mar_31_0945,ExactRep-v3-final,2021.2.3,59.98350448049326,
,,,,,,,,28,0,28,0,,,,,,,,,,,,,,,,,,,,,,,,,,,,,,,,,,,,,,,,,,,,,,,,,,,,,961.4265608000569,None,,,,,,,,,,,,,,,,,,,,,,,,,,,,,,,,,,,devil,114,29,aloud,white,959.4216793999076,None,None,959.4216793999076,None,,,,,,,,,,,,,,,,,,,,,,,,,,,,,,30YF,001,2023_Mar_31_0945,ExactRep-v3-final,2021.2.3,59.98350448049326,
,,,,,,,,29,0,29,0,,,,,,,,,,,,,,,,,,,,,,,,,,,,,,,,,,,,,,,,,,,,,,,,,,,,,963.9459334001876,None,,,,,,,,,,,,,,,,,,,,,,,,,,,,,,,,,,,hall,34,30,sing,red,961.9360686000437,None,None,961.9360686000437,None,,,,,,,,,,,,,,,,,,,,,,,,,,,,,,30YF,001,2023_Mar_31_0945,ExactRep-v3-final,2021.2.3,59.98350448049326,
,,,,,,,,30,0,30,0,,,,,,,,,,,,,,,,,,,,,,,,,,,,,,,,,,,,,,,,,,,,,,,,,,,,,966.4484729003161,None,,,,,,,,,,,,,,,,,,,,,,,,,,,,,,,,,,,shame,107,31,aloud,white,964.4472918999381,None,None,964.4472918999381,None,,,,,,,,,,,,,,,,,,,,,,,,,,,,,,30YF,001,2023_Mar_31_0945,ExactRep-v3-final,2021.2.3,59.98350448049326,
,,,,,,,,31,0,31,0,,,,,,,,,,,,,,,,,,,,,,,,,,,,,,,,,,,,,,,,,,,,,,,,,,,,,968.95101170009,None,,,,,,,,,,,,,,,,,,,,,,,,,,,,,,,,,,,idea,8,32,sing,red,966.9507838999853,None,None,966.9507838999853,None,,,,,,,,,,,,,,,,,,,,,,,,,,,,,,30YF,001,2023_Mar_31_0945,ExactRep-v3-final,2021.2.3,59.98350448049326,
,,,,,,,,32,0,32,0,,,,,,,,,,,,,,,,,,,,,,,,,,,,,,,,,,,,,,,,,,,,,,,,,,,,,971.4537780000828,None,,,,,,,,,,,,,,,,,,,,,,,,,,,,,,,,,,,blossom,22,33,sing,red,969.4531539003365,None,None,969.4531539003365,None,,,,,,,,,,,,,,,,,,,,,,,,,,,,,,30YF,001,2023_Mar_31_0945,ExactRep-v3-final,2021.2.3,59.98350448049326,
,,,,,,,,33,0,33,0,,,,,,,,,,,,,,,,,,,,,,,,,,,,,,,,,,,,,,,,,,,,,,,,,,,,,973.9726193002425,None,,,,,,,,,,,,,,,,,,,,,,,,,,,,,,,,,,,student,25,34,sing,red,971.962623000145,None,None,971.962623000145,None,,,,,,,,,,,,,,,,,,,,,,,,,,,,,,30YF,001,2023_Mar_31_0945,ExactRep-v3-final,2021.2.3,59.98350448049326,
,,,,,,,,34,0,34,0,,,,,,,,,,,,,,,,,,,,,,,,,,,,,,,,,,,,,,,,,,,,,,,,,,,,,976.4753189003095,None,,,,,,,,,,,,,,,,,,,,,,,,,,,,,,,,,,,spirit,10,35,sing,red,974.4733186000958,None,None,974.4733186000958,None,,,,,,,,,,,,,,,,,,,,,,,,,,,,,,30YF,001,2023_Mar_31_0945,ExactRep-v3-final,2021.2.3,59.98350448049326,
,,,,,,,,35,0,35,0,,,,,,,,,,,,,,,,,,,,,,,,,,,,,,,,,,,,,,,,,,,,,,,,,,,,,978.9776023002341,None,,,,,,,,,,,,,,,,,,,,,,,,,,,,,,,,,,,gift,102,36,aloud,white,976.977546100039,None,None,976.977546100039,None,,,,,,,,,,,,,,,,,,,,,,,,,,,,,,30YF,001,2023_Mar_31_0945,ExactRep-v3-final,2021.2.3,59.98350448049326,
,,,,,,,,36,0,36,0,,,,,,,,,,,,,,,,,,,,,,,,,,,,,,,,,,,,,,,,,,,,,,,,,,,,,981.4804207999259,None,,,,,,,,,,,,,,,,,,,,,,,,,,,,,,,,,,,time,58,37,silent,blue,979.478211699985,None,None,979.478211699985,None,,,,,,,,,,,,,,,,,,,,,,,,,,,,,,30YF,001,2023_Mar_31_0945,ExactRep-v3-final,2021.2.3,59.98350448049326,
,,,,,,,,37,0,37,0,,,,,,,,,,,,,,,,,,,,,,,,,,,,,,,,,,,,,,,,,,,,,,,,,,,,,983.9826634000055,None,,,,,,,,,,,,,,,,,,,,,,,,,,,,,,,,,,,meat,76,38,silent,blue,981.9805833999999,None,None,981.9805833999999,None,,,,,,,,,,,,,,,,,,,,,,,,,,,,,,30YF,001,2023_Mar_31_0945,ExactRep-v3-final,2021.2.3,59.98350448049326,
,,,,,,,,38,0,38,0,,,,,,,,,,,,,,,,,,,,,,,,,,,,,,,,,,,,,,,,,,,,,,,,,,,,,986.5018440000713,None,,,,,,,,,,,,,,,,,,,,,,,,,,,,,,,,,,,flower,4,39,sing,red,984.4869884001091,None,None,984.4869884001091,None,,,,,,,,,,,,,,,,,,,,,,,,,,,,,,30YF,001,2023_Mar_31_0945,ExactRep-v3-final,2021.2.3,59.98350448049326,
,,,,,,,,39,0,39,0,,,,,,,,,,,,,,,,,,,,,,,,,,,,,,,,,,,,,,,,,,,,,,,,,,,,,989.0210651000962,None,,,,,,,,,,,,,,,,,,,,,,,,,,,,,,,,,,,church,12,40,sing,red,987.0056583001278,None,None,987.0056583001278,None,,,,,,,,,,,,,,,,,,,,,,,,,,,,,,30YF,001,2023_Mar_31_0945,ExactRep-v3-final,2021.2.3,59.98350448049326,
,,,,,,,,40,0,40,0,,,,,,,,,,,,,,,,,,,,,,,,,,,,,,,,,,,,,,,,,,,,,,,,,,,,,991.5235568000935,None,,,,,,,,,,,,,,,,,,,,,,,,,,,,,,,,,,,maiden,66,41,silent,blue,989.5215464001521,None,None,989.5215464001521,None,,,,,,,,,,,,,,,,,,,,,,,,,,,,,,30YF,001,2023_Mar_31_0945,ExactRep-v3-final,2021.2.3,59.98350448049326,
,,,,,,,,41,0,41,0,,,,,,,,,,,,,,,,,,,,,,,,,,,,,,,,,,,,,,,,,,,,,,,,,,,,,994.0260405000299,None,,,,,,,,,,,,,,,,,,,,,,,,,,,,,,,,,,,breast,72,42,silent,blue,992.0261233001947,None,None,992.0261233001947,None,,,,,,,,,,,,,,,,,,,,,,,,,,,,,,30YF,001,2023_Mar_31_0945,ExactRep-v3-final,2021.2.3,59.98350448049326,
,,,,,,,,42,0,42,0,,,,,,,,,,,,,,,,,,,,,,,,,,,,,,,,,,,,,,,,,,,,,,,,,,,,,996.5286989002489,None,,,,,,,,,,,,,,,,,,,,,,,,,,,,,,,,,,,cabin,111,43,aloud,white,994.5281877000816,None,None,994.5281877000816,None,,,,,,,,,,,,,,,,,,,,,,,,,,,,,,30YF,001,2023_Mar_31_0945,ExactRep-v3-final,2021.2.3,59.98350448049326,
,,,,,,,,43,0,43,0,,,,,,,,,,,,,,,,,,,,,,,,,,,,,,,,,,,,,,,,,,,,,,,,,,,,,999.031189000234,None,,,,,,,,,,,,,,,,,,,,,,,,,,,,,,,,,,,victory,52,44,silent,blue,997.032029800117,None,None,997.032029800117,None,,,,,,,,,,,,,,,,,,,,,,,,,,,,,,30YF,001,2023_Mar_31_0945,ExactRep-v3-final,2021.2.3,59.98350448049326,
,,,,,,,,44,0,44,0,,,,,,,,,,,,,,,,,,,,,,,,,,,,,,,,,,,,,,,,,,,,,,,,,,,,,1001.5502246003598,None,,,,,,,,,,,,,,,,,,,,,,,,,,,,,,,,,,,river,55,45,silent,blue,999.5373668000102,None,None,999.5373668000102,None,,,,,,,,,,,,,,,,,,,,,,,,,,,,,,30YF,001,2023_Mar_31_0945,ExactRep-v3-final,2021.2.3,59.98350448049326,
,,,,,,,,45,0,45,0,,,,,,,,,,,,,,,,,,,,,,,,,,,,,,,,,,,,,,,,,,,,,,,,,,,,,1004.0527436002158,None,,,,,,,,,,,,,,,,,,,,,,,,,,,,,,,,,,,owner,47,46,silent,blue,1002.0522457999177,None,None,1002.0522457999177,None,,,,,,,,,,,,,,,,,,,,,,,,,,,,,,30YF,001,2023_Mar_31_0945,ExactRep-v3-final,2021.2.3,59.98350448049326,
,,,,,,,,46,0,46,0,,,,,,,,,,,,,,,,,,,,,,,,,,,,,,,,,,,,,,,,,,,,,,,,,,,,,1006.5721005001105,None,,,,,,,,,,,,,,,,,,,,,,,,,,,,,,,,,,,friend,5,47,sing,red,1004.5633944002911,None,None,1004.5633944002911,None,,,,,,,,,,,,,,,,,,,,,,,,,,,,,,30YF,001,2023_Mar_31_0945,ExactRep-v3-final,2021.2.3,59.98350448049326,
,,,,,,,,47,0,47,0,,,,,,,,,,,,,,,,,,,,,,,,,,,,,,,,,,,,,,,,,,,,,,,,,,,,,1009.0744260000065,None,,,,,,,,,,,,,,,,,,,,,,,,,,,,,,,,,,,dream,15,48,sing,red,1007.0748185003176,None,None,1007.0748185003176,None,,,,,,,,,,,,,,,,,,,,,,,,,,,,,,30YF,001,2023_Mar_31_0945,ExactRep-v3-final,2021.2.3,59.98350448049326,
,,,,,,,,48,0,48,0,,,,,,,,,,,,,,,,,,,,,,,,,,,,,,,,,,,,,,,,,,,,,,,,,,,,,1011.5767160002142,None,,,,,,,,,,,,,,,,,,,,,,,,,,,,,,,,,,,door,113,49,aloud,white,1009.5767180002294,None,None,1009.5767180002294,None,,,,,,,,,,,,,,,,,,,,,,,,,,,,,,30YF,001,2023_Mar_31_0945,ExactRep-v3-final,2021.2.3,59.98350448049326,
,,,,,,,,49,0,49,0,,,,,,,,,,,,,,,,,,,,,,,,,,,,,,,,,,,,,,,,,,,,,,,,,,,,,1014.0796918002889,None,,,,,,,,,,,,,,,,,,,,,,,,,,,,,,,,,,,grass,35,50,sing,red,1012.0770719000138,None,None,1012.0770719000138,None,,,,,,,,,,,,,,,,,,,,,,,,,,,,,,30YF,001,2023_Mar_31_0945,ExactRep-v3-final,2021.2.3,59.98350448049326,
,,,,,,,,50,0,50,0,,,,,,,,,,,,,,,,,,,,,,,,,,,,,,,,,,,,,,,,,,,,,,,,,,,,,1016.5985993999057,None,,,,,,,,,,,,,,,,,,,,,,,,,,,,,,,,,,,truth,115,51,aloud,white,1014.5831606001593,None,None,1014.5831606001593,None,,,,,,,,,,,,,,,,,,,,,,,,,,,,,,30YF,001,2023_Mar_31_0945,ExactRep-v3-final,2021.2.3,59.98350448049326,
,,,,,,,,51,0,51,0,,,,,,,,,,,,,,,,,,,,,,,,,,,,,,,,,,,,,,,,,,,,,,,,,,,,,1019.1010926999152,None,,,,,,,,,,,,,,,,,,,,,,,,,,,,,,,,,,,meeting,119,52,aloud,white,1017.0991903003305,None,None,1017.0991903003305,None,,,,,,,,,,,,,,,,,,,,,,,,,,,,,,30YF,001,2023_Mar_31_0945,ExactRep-v3-final,2021.2.3,59.98350448049326,
,,,,,,,,52,0,52,0,,,,,,,,,,,,,,,,,,,,,,,,,,,,,,,,,,,,,,,,,,,,,,,,,,,,,1021.6036509000696,None,,,,,,,,,,,,,,,,,,,,,,,,,,,,,,,,,,,string,93,53,aloud,white,1019.6016112999059,None,None,1019.6016112999059,None,,,,,,,,,,,,,,,,,,,,,,,,,,,,,,30YF,001,2023_Mar_31_0945,ExactRep-v3-final,2021.2.3,59.98350448049326,
,,,,,,,,53,0,53,0,,,,,,,,,,,,,,,,,,,,,,,,,,,,,,,,,,,,,,,,,,,,,,,,,,,,,1024.1060772002675,None,,,,,,,,,,,,,,,,,,,,,,,,,,,,,,,,,,,seat,6,54,sing,red,1022.1069053001702,None,None,1022.1069053001702,None,,,,,,,,,,,,,,,,,,,,,,,,,,,,,,30YF,001,2023_Mar_31_0945,ExactRep-v3-final,2021.2.3,59.98350448049326,
,,,,,,,,54,0,54,0,,,,,,,,,,,,,,,,,,,,,,,,,,,,,,,,,,,,,,,,,,,,,,,,,,,,,1026.6251099999063,None,,,,,,,,,,,,,,,,,,,,,,,,,,,,,,,,,,,letter,32,55,sing,red,1024.6158902999014,None,None,1024.6158902999014,None,,,,,,,,,,,,,,,,,,,,,,,,,,,,,,30YF,001,2023_Mar_31_0945,ExactRep-v3-final,2021.2.3,59.98350448049326,
,,,,,,,,55,0,55,0,,,,,,,,,,,,,,,,,,,,,,,,,,,,,,,,,,,,,,,,,,,,,,,,,,,,,1029.12807779992,None,,,,,,,,,,,,,,,,,,,,,,,,,,,,,,,,,,,vision,86,56,aloud,white,1027.1258602002636,None,None,1027.1258602002636,None,,,,,,,,,,,,,,,,,,,,,,,,,,,,,,30YF,001,2023_Mar_31_0945,ExactRep-v3-final,2021.2.3,59.98350448049326,
,,,,,,,,56,0,56,0,,,,,,,,,,,,,,,,,,,,,,,,,,,,,,,,,,,,,,,,,,,,,,,,,,,,,1031.6304456000216,None,,,,,,,,,,,,,,,,,,,,,,,,,,,,,,,,,,,palace,109,57,aloud,white,1029.6296608000994,None,None,1029.6296608000994,None,,,,,,,,,,,,,,,,,,,,,,,,,,,,,,30YF,001,2023_Mar_31_0945,ExactRep-v3-final,2021.2.3,59.98350448049326,
,,,,,,,,57,0,57,0,,,,,,,,,,,,,,,,,,,,,,,,,,,,,,,,,,,,,,,,,,,,,,,,,,,,,1034.1329437000677,None,,,,,,,,,,,,,,,,,,,,,,,,,,,,,,,,,,,water,43,58,silent,blue,1032.1325223003514,None,None,1032.1325223003514,None,,,,,,,,,,,,,,,,,,,,,,,,,,,,,,30YF,001,2023_Mar_31_0945,ExactRep-v3-final,2021.2.3,59.98350448049326,
,,,,,,,,58,0,58,0,,,,,,,,,,,,,,,,,,,,,,,,,,,,,,,,,,,,,,,,,,,,,,,,,,,,,1036.6353243002668,None,,,,,,,,,,,,,,,,,,,,,,,,,,,,,,,,,,,green,13,59,sing,red,1034.6346321003512,None,None,1034.6346321003512,None,,,,,,,,,,,,,,,,,,,,,,,,,,,,,,30YF,001,2023_Mar_31_0945,ExactRep-v3-final,2021.2.3,59.98350448049326,
,,,,,,,,59,0,59,0,,,,,,,,,,,,,,,,,,,,,,,,,,,,,,,,,,,,,,,,,,,,,,,,,,,,,1039.1545224003494,None,,,,,,,,,,,,,,,,,,,,,,,,,,,,,,,,,,,wheat,101,60,aloud,white,1037.139243800193,None,None,1037.139243800193,None,,,,,,,,,,,,,,,,,,,,,,,,,,,,,,30YF,001,2023_Mar_31_0945,ExactRep-v3-final,2021.2.3,59.98350448049326,
,,,,,,,,60,0,60,0,,,,,,,,,,,,,,,,,,,,,,,,,,,,,,,,,,,,,,,,,,,,,,,,,,,,,1041.6568150999956,None,,,,,,,,,,,,,,,,,,,,,,,,,,,,,,,,,,,library,46,61,silent,blue,1039.6572777000256,None,None,1039.6572777000256,None,,,,,,,,,,,,,,,,,,,,,,,,,,,,,,30YF,001,2023_Mar_31_0945,ExactRep-v3-final,2021.2.3,59.98350448049326,
,,,,,,,,61,0,61,0,,,,,,,,,,,,,,,,,,,,,,,,,,,,,,,,,,,,,,,,,,,,,,,,,,,,,1044.1597269000486,None,,,,,,,,,,,,,,,,,,,,,,,,,,,,,,,,,,,shore,116,62,aloud,white,1042.1575476001017,None,None,1042.1575476001017,None,,,,,,,,,,,,,,,,,,,,,,,,,,,,,,30YF,001,2023_Mar_31_0945,ExactRep-v3-final,2021.2.3,59.98350448049326,
,,,,,,,,62,0,62,0,,,,,,,,,,,,,,,,,,,,,,,,,,,,,,,,,,,,,,,,,,,,,,,,,,,,,1046.6787187000737,None,,,,,,,,,,,,,,,,,,,,,,,,,,,,,,,,,,,circle,39,63,silent,blue,1044.6705994000658,None,None,1044.6705994000658,None,,,,,,,,,,,,,,,,,,,,,,,,,,,,,,30YF,001,2023_Mar_31_0945,ExactRep-v3-final,2021.2.3,59.98350448049326,
,,,,,,,,63,0,63,0,,,,,,,,,,,,,,,,,,,,,,,,,,,,,,,,,,,,,,,,,,,,,,,,,,,,,1049.1810578000732,None,,,,,,,,,,,,,,,,,,,,,,,,,,,,,,,,,,,prison,84,64,aloud,white,1047.1792431003414,None,None,1047.1792431003414,None,,,,,,,,,,,,,,,,,,,,,,,,,,,,,,30YF,001,2023_Mar_31_0945,ExactRep-v3-final,2021.2.3,59.98350448049326,
,,,,,,,,64,0,64,0,,,,,,,,,,,,,,,,,,,,,,,,,,,,,,,,,,,,,,,,,,,,,,,,,,,,,1051.7004106999375,None,,,,,,,,,,,,,,,,,,,,,,,,,,,,,,,,,,,horse,110,65,aloud,white,1049.687023000326,None,None,1049.687023000326,None,,,,,,,,,,,,,,,,,,,,,,,,,,,,,,30YF,001,2023_Mar_31_0945,ExactRep-v3-final,2021.2.3,59.98350448049326,
,,,,,,,,65,0,65,0,,,,,,,,,,,,,,,,,,,,,,,,,,,,,,,,,,,,,,,,,,,,,,,,,,,,,1054.2029210003093,None,,,,,,,,,,,,,,,,,,,,,,,,,,,,,,,,,,,village,71,66,silent,blue,1052.2010258003138,None,None,1052.2010258003138,None,,,,,,,,,,,,,,,,,,,,,,,,,,,,,,30YF,001,2023_Mar_31_0945,ExactRep-v3-final,2021.2.3,59.98350448049326,
,,,,,,,,66,0,66,0,,,,,,,,,,,,,,,,,,,,,,,,,,,,,,,,,,,,,,,,,,,,,,,,,,,,,1056.7222465001978,None,,,,,,,,,,,,,,,,,,,,,,,,,,,,,,,,,,,engine,60,67,silent,blue,1054.7118023000658,None,None,1054.7118023000658,None,,,,,,,,,,,,,,,,,,,,,,,,,,,,,,30YF,001,2023_Mar_31_0945,ExactRep-v3-final,2021.2.3,59.98350448049326,
,,,,,,,,67,0,67,0,,,,,,,,,,,,,,,,,,,,,,,,,,,,,,,,,,,,,,,,,,,,,,,,,,,,,1059.2415010002442,None,,,,,,,,,,,,,,,,,,,,,,,,,,,,,,,,,,,iron,105,68,aloud,white,1057.2267108000815,None,None,1057.2267108000815,None,,,,,,,,,,,,,,,,,,,,,,,,,,,,,,30YF,001,2023_Mar_31_0945,ExactRep-v3-final,2021.2.3,59.98350448049326,
,,,,,,,,68,0,68,0,,,,,,,,,,,,,,,,,,,,,,,,,,,,,,,,,,,,,,,,,,,,,,,,,,,,,1061.7606037002988,None,,,,,,,,,,,,,,,,,,,,,,,,,,,,,,,,,,,market,95,69,aloud,white,1059.7451923000626,None,None,1059.7451923000626,None,,,,,,,,,,,,,,,,,,,,,,,,,,,,,,30YF,001,2023_Mar_31_0945,ExactRep-v3-final,2021.2.3,59.98350448049326,
,,,,,,,,69,0,69,0,,,,,,,,,,,,,,,,,,,,,,,,,,,,,,,,,,,,,,,,,,,,,,,,,,,,,1064.263194500003,None,,,,,,,,,,,,,,,,,,,,,,,,,,,,,,,,,,,virtue,48,70,silent,blue,1062.260943400208,None,None,1062.260943400208,None,,,,,,,,,,,,,,,,,,,,,,,,,,,,,,30YF,001,2023_Mar_31_0945,ExactRep-v3-final,2021.2.3,59.98350448049326,
,,,,,,,,70,0,70,0,,,,,,,,,,,,,,,,,,,,,,,,,,,,,,,,,,,,,,,,,,,,,,,,,,,,,1066.765514400322,None,,,,,,,,,,,,,,,,,,,,,,,,,,,,,,,,,,,advice,33,71,sing,red,1064.765258600004,None,None,1064.765258600004,None,,,,,,,,,,,,,,,,,,,,,,,,,,,,,,30YF,001,2023_Mar_31_0945,ExactRep-v3-final,2021.2.3,59.98350448049326,
,,,,,,,,71,0,71,0,,,,,,,,,,,,,,,,,,,,,,,,,,,,,,,,,,,,,,,,,,,,,,,,,,,,,1069.2849326999858,None,,,,,,,,,,,,,,,,,,,,,,,,,,,,,,,,,,,forest,0,72,sing,red,1067.2746451003477,None,None,1067.2746451003477,None,,,,,,,,,,,,,,,,,,,,,,,,,,,,,,30YF,001,2023_Mar_31_0945,ExactRep-v3-final,2021.2.3,59.98350448049326,
,,,,,,,,72,0,72,0,,,,,,,,,,,,,,,,,,,,,,,,,,,,,,,,,,,,,,,,,,,,,,,,,,,,,1071.7871878999285,None,,,,,,,,,,,,,,,,,,,,,,,,,,,,,,,,,,,speech,80,73,aloud,white,1069.7853112001903,None,None,1069.7853112001903,None,,,,,,,,,,,,,,,,,,,,,,,,,,,,,,30YF,001,2023_Mar_31_0945,ExactRep-v3-final,2021.2.3,59.98350448049326,
,,,,,,,,73,0,73,0,,,,,,,,,,,,,,,,,,,,,,,,,,,,,,,,,,,,,,,,,,,,,,,,,,,,,1074.3063191999681,None,,,,,,,,,,,,,,,,,,,,,,,,,,,,,,,,,,,glory,79,74,sing,red,1072.2919682003558,None,None,1072.2919682003558,None,,,,,,,,,,,,,,,,,,,,,,,,,,,,,,30YF,001,2023_Mar_31_0945,ExactRep-v3-final,2021.2.3,59.98350448049326,
,,,,,,,,74,0,74,0,,,,,,,,,,,,,,,,,,,,,,,,,,,,,,,,,,,,,,,,,,,,,,,,,,,,,1076.8089662999846,None,,,,,,,,,,,,,,,,,,,,,,,,,,,,,,,,,,,author,98,75,aloud,white,1074.8069645003416,None,None,1074.8069645003416,None,,,,,,,,,,,,,,,,,,,,,,,,,,,,,,30YF,001,2023_Mar_31_0945,ExactRep-v3-final,2021.2.3,59.98350448049326,
,,,,,,,,75,0,75,0,,,,,,,,,,,,,,,,,,,,,,,,,,,,,,,,,,,,,,,,,,,,,,,,,,,,,1079.3113762000576,None,,,,,,,,,,,,,,,,,,,,,,,,,,,,,,,,,,,storm,112,76,aloud,white,1077.3110225000419,None,None,1077.3110225000419,None,,,,,,,,,,,,,,,,,,,,,,,,,,,,,,30YF,001,2023_Mar_31_0945,ExactRep-v3-final,2021.2.3,59.98350448049326,
,,,,,,,,76,0,76,0,,,,,,,,,,,,,,,,,,,,,,,,,,,,,,,,,,,,,,,,,,,,,,,,,,,,,1081.8304624003358,None,,,,,,,,,,,,,,,,,,,,,,,,,,,,,,,,,,,chief,53,77,silent,blue,1079.8179776002653,None,None,1079.8179776002653,None,,,,,,,,,,,,,,,,,,,,,,,,,,,,,,30YF,001,2023_Mar_31_0945,ExactRep-v3-final,2021.2.3,59.98350448049326,
,,,,,,,,77,0,77,0,,,,,,,,,,,,,,,,,,,,,,,,,,,,,,,,,,,,,,,,,,,,,,,,,,,,,1084.3331492003053,None,,,,,,,,,,,,,,,,,,,,,,,,,,,,,,,,,,,beast,23,78,sing,red,1082.3312587002292,None,None,1082.3312587002292,None,,,,,,,,,,,,,,,,,,,,,,,,,,,,,,30YF,001,2023_Mar_31_0945,ExactRep-v3-final,2021.2.3,59.98350448049326,
,,,,,,,,78,0,78,0,,,,,,,,,,,,,,,,,,,,,,,,,,,,,,,,,,,,,,,,,,,,,,,,,,,,,1086.8355302000418,None,,,,,,,,,,,,,,,,,,,,,,,,,,,,,,,,,,,ability,82,79,aloud,white,1084.8335581002757,None,None,1084.8335581002757,None,,,,,,,,,,,,,,,,,,,,,,,,,,,,,,30YF,001,2023_Mar_31_0945,ExactRep-v3-final,2021.2.3,59.98350448049326,
,,,,,,,,79,0,79,0,,,,,,,,,,,,,,,,,,,,,,,,,,,,,,,,,,,,,,,,,,,,,,,,,,,,,1089.3378479001112,None,,,,,,,,,,,,,,,,,,,,,,,,,,,,,,,,,,,sky,50,80,silent,blue,1087.3369181999005,None,None,1087.3369181999005,None,,,,,,,,,,,,,,,,,,,,,,,,,,,,,,30YF,001,2023_Mar_31_0945,ExactRep-v3-final,2021.2.3,59.98350448049326,
,,,,,,,,80,0,80,0,,,,,,,,,,,,,,,,,,,,,,,,,,,,,,,,,,,,,,,,,,,,,,,,,,,,,1091.8571774000302,None,,,,,,,,,,,,,,,,,,,,,,,,,,,,,,,,,,,fortune,68,81,silent,blue,1089.8478357000276,None,None,1089.8478357000276,None,,,,,,,,,,,,,,,,,,,,,,,,,,,,,,30YF,001,2023_Mar_31_0945,ExactRep-v3-final,2021.2.3,59.98350448049326,
,,,,,,,,81,0,81,0,,,,,,,,,,,,,,,,,,,,,,,,,,,,,,,,,,,,,,,,,,,,,,,,,,,,,1094.3597806002945,None,,,,,,,,,,,,,,,,,,,,,,,,,,,,,,,,,,,moment,36,82,sing,red,1092.3578621000051,None,None,1092.3578621000051,None,,,,,,,,,,,,,,,,,,,,,,,,,,,,,,30YF,001,2023_Mar_31_0945,ExactRep-v3-final,2021.2.3,59.98350448049326,
,,,,,,,,82,0,82,0,,,,,,,,,,,,,,,,,,,,,,,,,,,,,,,,,,,,,,,,,,,,,,,,,,,,,1096.8623812003061,None,,,,,,,,,,,,,,,,,,,,,,,,,,,,,,,,,,,arm,77,83,silent,blue,1094.862325000111,None,None,1094.862325000111,None,,,,,,,,,,,,,,,,,,,,,,,,,,,,,,30YF,001,2023_Mar_31_0945,ExactRep-v3-final,2021.2.3,59.98350448049326,
,,,,,,,,83,0,83,0,,,,,,,,,,,,,,,,,,,,,,,,,,,,,,,,,,,,,,,,,,,,,,,,,,,,,1099.3815338001586,None,,,,,,,,,,,,,,,,,,,,,,,,,,,,,,,,,,,product,94,84,aloud,white,1097.3701897999272,None,None,1097.3701897999272,None,,,,,,,,,,,,,,,,,,,,,,,,,,,,,,30YF,001,2023_Mar_31_0945,ExactRep-v3-final,2021.2.3,59.98350448049326,
,,,,,,,,84,0,84,0,,,,,,,,,,,,,,,,,,,,,,,,,,,,,,,,,,,,,,,,,,,,,,,,,,,,,1101.8836710001342,None,,,,,,,,,,,,,,,,,,,,,,,,,,,,,,,,,,,season,2,85,sing,red,1099.8827142002992,None,None,1099.8827142002992,None,,,,,,,,,,,,,,,,,,,,,,,,,,,,,,30YF,001,2023_Mar_31_0945,ExactRep-v3-final,2021.2.3,59.98350448049326,
,,,,,,,,85,0,85,0,,,,,,,,,,,,,,,,,,,,,,,,,,,,,,,,,,,,,,,,,,,,,,,,,,,,,1104.403103100136,None,,,,,,,,,,,,,,,,,,,,,,,,,,,,,,,,,,,power,20,86,sing,red,1102.3924794001505,None,None,1102.3924794001505,None,,,,,,,,,,,,,,,,,,,,,,,,,,,,,,30YF,001,2023_Mar_31_0945,ExactRep-v3-final,2021.2.3,59.98350448049326,
,,,,,,,,86,0,86,0,,,,,,,,,,,,,,,,,,,,,,,,,,,,,,,,,,,,,,,,,,,,,,,,,,,,,1106.9224435002543,None,,,,,,,,,,,,,,,,,,,,,,,,,,,,,,,,,,,form,67,87,silent,blue,1104.91305570025,None,None,1104.91305570025,None,,,,,,,,,,,,,,,,,,,,,,,,,,,,,,30YF,001,2023_Mar_31_0945,ExactRep-v3-final,2021.2.3,59.98350448049326,
,,,,,,,,87,0,87,0,,,,,,,,,,,,,,,,,,,,,,,,,,,,,,,,,,,,,,,,,,,,,,,,,,,,,1109.4245787002146,None,,,,,,,,,,,,,,,,,,,,,,,,,,,,,,,,,,,air,3,88,sing,red,1107.4243626999669,None,None,1107.4243626999669,None,,,,,,,,,,,,,,,,,,,,,,,,,,,,,,30YF,001,2023_Mar_31_0945,ExactRep-v3-final,2021.2.3,59.98350448049326,
,,,,,,,,88,0,88,0,,,,,,,,,,,,,,,,,,,,,,,,,,,,,,,,,,,,,,,,,,,,,,,,,,,,,1111.9446048000827,None,,,,,,,,,,,,,,,,,,,,,,,,,,,,,,,,,,,star,104,89,aloud,white,1109.9288898999803,None,None,1109.9288898999803,None,,,,,,,,,,,,,,,,,,,,,,,,,,,,,,30YF,001,2023_Mar_31_0945,ExactRep-v3-final,2021.2.3,59.98350448049326,
,,,,,,,,89,0,89,0,,,,,,,,,,,,,,,,,,,,,,,,,,,,,,,,,,,,,,,,,,,,,,,,,,,,,1114.4462292003445,None,,,,,,,,,,,,,,,,,,,,,,,,,,,,,,,,,,,picture,21,90,sing,red,1112.4444907000288,None,None,1112.4444907000288,None,,,,,,,,,,,,,,,,,,,,,,,,,,,,,,30YF,001,2023_Mar_31_0945,ExactRep-v3-final,2021.2.3,59.98350448049326,
,,,,,,,,90,0,90,0,,,,,,,,,,,,,,,,,,,,,,,,,,,,,,,,,,,,,,,,,,,,,,,,,,,,,1116.9657250000164,None,,,,,,,,,,,,,,,,,,,,,,,,,,,,,,,,,,,science,11,91,sing,red,1114.9510547001846,None,None,1114.9510547001846,None,,,,,,,,,,,,,,,,,,,,,,,,,,,,,,30YF,001,2023_Mar_31_0945,ExactRep-v3-final,2021.2.3,59.98350448049326,
,,,,,,,,91,0,91,0,,,,,,,,,,,,,,,,,,,,,,,,,,,,,,,,,,,,,,,,,,,,,,,,,,,,,1119.4679574002512,None,,,,,,,,,,,,,,,,,,,,,,,,,,,,,,,,,,,slave,27,92,sing,red,1117.4659891999327,None,None,1117.4659891999327,None,,,,,,,,,,,,,,,,,,,,,,,,,,,,,,30YF,001,2023_Mar_31_0945,ExactRep-v3-final,2021.2.3,59.98350448049326,
,,,,,,,,92,0,92,0,,,,,,,,,,,,,,,,,,,,,,,,,,,,,,,,,,,,,,,,,,,,,,,,,,,,,1121.9873307002708,None,,,,,,,,,,,,,,,,,,,,,,,,,,,,,,,,,,,window,92,93,aloud,white,1119.9775172001682,None,None,1119.9775172001682,None,,,,,,,,,,,,,,,,,,,,,,,,,,,,,,30YF,001,2023_Mar_31_0945,ExactRep-v3-final,2021.2.3,59.98350448049326,
,,,,,,,,93,0,93,0,,,,,,,,,,,,,,,,,,,,,,,,,,,,,,,,,,,,,,,,,,,,,,,,,,,,,1124.508501500357,None,,,,,,,,,,,,,,,,,,,,,,,,,,,,,,,,,,,cost,62,94,silent,blue,1122.493354599923,None,None,1122.493354599923,None,,,,,,,,,,,,,,,,,,,,,,,,,,,,,,30YF,001,2023_Mar_31_0945,ExactRep-v3-final,2021.2.3,59.98350448049326,
,,,,,,,,94,0,94,0,,,,,,,,,,,,,,,,,,,,,,,,,,,,,,,,,,,,,,,,,,,,,,,,,,,,,1127.0258623999543,None,,,,,,,,,,,,,,,,,,,,,,,,,,,,,,,,,,,skin,26,95,sing,red,1125.0170368002728,None,None,1125.0170368002728,None,,,,,,,,,,,,,,,,,,,,,,,,,,,,,,30YF,001,2023_Mar_31_0945,ExactRep-v3-final,2021.2.3,59.98350448049326,
,,,,,,,,95,0,95,0,,,,,,,,,,,,,,,,,,,,,,,,,,,,,,,,,,,,,,,,,,,,,,,,,,,,,1129.5283437999897,None,,,,,,,,,,,,,,,,,,,,,,,,,,,,,,,,,,,trouble,59,96,silent,blue,1127.5263777999207,None,None,1127.5263777999207,None,,,,,,,,,,,,,,,,,,,,,,,,,,,,,,30YF,001,2023_Mar_31_0945,ExactRep-v3-final,2021.2.3,59.98350448049326,
,,,,,,,,96,0,96,0,,,,,,,,,,,,,,,,,,,,,,,,,,,,,,,,,,,,,,,,,,,,,,,,,,,,,1132.0308865001425,None,,,,,,,,,,,,,,,,,,,,,,,,,,,,,,,,,,,history,61,97,silent,blue,1130.0307948999107,None,None,1130.0307948999107,None,,,,,,,,,,,,,,,,,,,,,,,,,,,,,,30YF,001,2023_Mar_31_0945,ExactRep-v3-final,2021.2.3,59.98350448049326,
,,,,,,,,97,0,97,0,,,,,,,,,,,,,,,,,,,,,,,,,,,,,,,,,,,,,,,,,,,,,,,,,,,,,1134.5501665002666,None,,,,,,,,,,,,,,,,,,,,,,,,,,,,,,,,,,,bowl,88,98,aloud,white,1132.534414099995,None,None,1132.534414099995,None,,,,,,,,,,,,,,,,,,,,,,,,,,,,,,30YF,001,2023_Mar_31_0945,ExactRep-v3-final,2021.2.3,59.98350448049326,
,,,,,,,,98,0,98,0,,,,,,,,,,,,,,,,,,,,,,,,,,,,,,,,,,,,,,,,,,,,,,,,,,,,,1137.0690810000524,None,,,,,,,,,,,,,,,,,,,,,,,,,,,,,,,,,,,fire,31,99,sing,red,1135.0596167002805,None,None,1135.0596167002805,None,,,,,,,,,,,,,,,,,,,,,,,,,,,,,,30YF,001,2023_Mar_31_0945,ExactRep-v3-final,2021.2.3,59.98350448049326,
,,,,,,,,99,0,99,0,,,,,,,,,,,,,,,,,,,,,,,,,,,,,,,,,,,,,,,,,,,,,,,,,,,,,1139.5717816003598,None,,,,,,,,,,,,,,,,,,,,,,,,,,,,,,,,,,,woman,90,100,aloud,white,1137.5718165999278,None,None,1137.5718165999278,None,,,,,,,,,,,,,,,,,,,,,,,,,,,,,,30YF,001,2023_Mar_31_0945,ExactRep-v3-final,2021.2.3,59.98350448049326,
,,,,,,,,100,0,100,0,,,,,,,,,,,,,,,,,,,,,,,,,,,,,,,,,,,,,,,,,,,,,,,,,,,,,1142.0909510003403,None,,,,,,,,,,,,,,,,,,,,,,,,,,,,,,,,,,,pole,87,101,aloud,white,1140.081101800315,None,None,1140.081101800315,None,,,,,,,,,,,,,,,,,,,,,,,,,,,,,,30YF,001,2023_Mar_31_0945,ExactRep-v3-final,2021.2.3,59.98350448049326,
,,,,,,,,101,0,101,0,,,,,,,,,,,,,,,,,,,,,,,,,,,,,,,,,,,,,,,,,,,,,,,,,,,,,1144.6100057000294,None,,,,,,,,,,,,,,,,,,,,,,,,,,,,,,,,,,,cat,51,102,silent,blue,1142.596305300016,None,None,1142.596305300016,None,,,,,,,,,,,,,,,,,,,,,,,,,,,,,,30YF,001,2023_Mar_31_0945,ExactRep-v3-final,2021.2.3,59.98350448049326,
,,,,,,,,102,0,102,0,,,,,,,,,,,,,,,,,,,,,,,,,,,,,,,,,,,,,,,,,,,,,,,,,,,,,1147.1141095999628,None,,,,,,,,,,,,,,,,,,,,,,,,,,,,,,,,,,,artist,45,103,silent,blue,1145.1127192000858,None,None,1145.1127192000858,None,,,,,,,,,,,,,,,,,,,,,,,,,,,,,,30YF,001,2023_Mar_31_0945,ExactRep-v3-final,2021.2.3,59.98350448049326,
,,,,,,,,103,0,103,0,,,,,,,,,,,,,,,,,,,,,,,,,,,,,,,,,,,,,,,,,,,,,,,,,,,,,1149.6318318000995,None,,,,,,,,,,,,,,,,,,,,,,,,,,,,,,,,,,,wine,74,104,silent,blue,1147.6330444002524,None,None,1147.6330444002524,None,,,,,,,,,,,,,,,,,,,,,,,,,,,,,,30YF,001,2023_Mar_31_0945,ExactRep-v3-final,2021.2.3,59.98350448049326,
,,,,,,,,104,0,104,0,,,,,,,,,,,,,,,,,,,,,,,,,,,,,,,,,,,,,,,,,,,,,,,,,,,,,1152.150823800359,None,,,,,,,,,,,,,,,,,,,,,,,,,,,,,,,,,,,money,85,105,aloud,white,1150.1399191999808,None,None,1150.1399191999808,None,,,,,,,,,,,,,,,,,,,,,,,,,,,,,,30YF,001,2023_Mar_31_0945,ExactRep-v3-final,2021.2.3,59.98350448049326,
,,,,,,,,105,0,105,0,,,,,,,,,,,,,,,,,,,,,,,,,,,,,,,,,,,,,,,,,,,,,,,,,,,,,1154.6535318000242,None,,,,,,,,,,,,,,,,,,,,,,,,,,,,,,,,,,,priest,29,106,sing,red,1152.6515295999125,None,None,1152.6515295999125,None,,,,,,,,,,,,,,,,,,,,,,,,,,,,,,30YF,001,2023_Mar_31_0945,ExactRep-v3-final,2021.2.3,59.98350448049326,
,,,,,,,,106,0,106,0,,,,,,,,,,,,,,,,,,,,,,,,,,,,,,,,,,,,,,,,,,,,,,,,,,,,,1157.1724962000735,None,,,,,,,,,,,,,,,,,,,,,,,,,,,,,,,,,,,honour,14,107,sing,red,1155.1741848001257,None,None,1155.1741848001257,None,,,,,,,,,,,,,,,,,,,,,,,,,,,,,,30YF,001,2023_Mar_31_0945,ExactRep-v3-final,2021.2.3,59.98350448049326,
,,,,,,,,107,0,107,0,,,,,,,,,,,,,,,,,,,,,,,,,,,,,,,,,,,,,,,,,,,,,,,,,,,,,1159.6749954000115,None,,,,,,,,,,,,,,,,,,,,,,,,,,,,,,,,,,,death,57,108,silent,blue,1157.6731138001196,None,None,1157.6731138001196,None,,,,,,,,,,,,,,,,,,,,,,,,,,,,,,30YF,001,2023_Mar_31_0945,ExactRep-v3-final,2021.2.3,59.98350448049326,
,,,,,,,,108,0,108,0,,,,,,,,,,,,,,,,,,,,,,,,,,,,,,,,,,,,,,,,,,,,,,,,,,,,,1162.1943719000556,None,,,,,,,,,,,,,,,,,,,,,,,,,,,,,,,,,,,fact,91,109,aloud,white,1160.1796590001322,None,None,1160.1796590001322,None,,,,,,,,,,,,,,,,,,,,,,,,,,,,,,30YF,001,2023_Mar_31_0945,ExactRep-v3-final,2021.2.3,59.98350448049326,
,,,,,,,,109,0,109,0,,,,,,,,,,,,,,,,,,,,,,,,,,,,,,,,,,,,,,,,,,,,,,,,,,,,,1164.7133987001143,None,,,,,,,,,,,,,,,,,,,,,,,,,,,,,,,,,,,colony,73,110,silent,blue,1162.701166999992,None,None,1162.701166999992,None,,,,,,,,,,,,,,,,,,,,,,,,,,,,,,30YF,001,2023_Mar_31_0945,ExactRep-v3-final,2021.2.3,59.98350448049326,
,,,,,,,,110,0,110,0,,,,,,,,,,,,,,,,,,,,,,,,,,,,,,,,,,,,,,,,,,,,,,,,,,,,,1167.2158911000006,None,,,,,,,,,,,,,,,,,,,,,,,,,,,,,,,,,,,judge,41,111,silent,blue,1165.2153334999457,None,None,1165.2153334999457,None,,,,,,,,,,,,,,,,,,,,,,,,,,,,,,30YF,001,2023_Mar_31_0945,ExactRep-v3-final,2021.2.3,59.98350448049326,
,,,,,,,,111,0,111,0,,,,,,,,,,,,,,,,,,,,,,,,,,,,,,,,,,,,,,,,,,,,,,,,,,,,,1169.735267800279,None,,,,,,,,,,,,,,,,,,,,,,,,,,,,,,,,,,,event,19,112,sing,red,1167.7209405000322,None,None,1167.7209405000322,None,,,,,,,,,,,,,,,,,,,,,,,,,,,,,,30YF,001,2023_Mar_31_0945,ExactRep-v3-final,2021.2.3,59.98350448049326,
,,,,,,,,112,0,112,0,,,,,,,,,,,,,,,,,,,,,,,,,,,,,,,,,,,,,,,,,,,,,,,,,,,,,1172.2377671999857,None,,,,,,,,,,,,,,,,,,,,,,,,,,,,,,,,,,,poet,37,113,sing,red,1170.2367310002446,None,None,1170.2367310002446,None,,,,,,,,,,,,,,,,,,,,,,,,,,,,,,30YF,001,2023_Mar_31_0945,ExactRep-v3-final,2021.2.3,59.98350448049326,
,,,,,,,,113,0,113,0,,,,,,,,,,,,,,,,,,,,,,,,,,,,,,,,,,,,,,,,,,,,,,,,,,,,,1174.7403315999545,None,,,,,,,,,,,,,,,,,,,,,,,,,,,,,,,,,,,machine,17,114,sing,red,1172.7412184001878,None,None,1172.7412184001878,None,,,,,,,,,,,,,,,,,,,,,,,,,,,,,,30YF,001,2023_Mar_31_0945,ExactRep-v3-final,2021.2.3,59.98350448049326,
,,,,,,,,114,0,114,0,,,,,,,,,,,,,,,,,,,,,,,,,,,,,,,,,,,,,,,,,,,,,,,,,,,,,1177.2594781001098,None,,,,,,,,,,,,,,,,,,,,,,,,,,,,,,,,,,,cottage,117,115,aloud,white,1175.2442081999034,None,None,1175.2442081999034,None,,,,,,,,,,,,,,,,,,,,,,,,,,,,,,30YF,001,2023_Mar_31_0945,ExactRep-v3-final,2021.2.3,59.98350448049326,
,,,,,,,,115,0,115,0,,,,,,,,,,,,,,,,,,,,,,,,,,,,,,,,,,,,,,,,,,,,,,,,,,,,,1179.7784665999934,None,,,,,,,,,,,,,,,,,,,,,,,,,,,,,,,,,,,plain,97,116,aloud,white,1177.7658663000911,None,None,1177.7658663000911,None,,,,,,,,,,,,,,,,,,,,,,,,,,,,,,30YF,001,2023_Mar_31_0945,ExactRep-v3-final,2021.2.3,59.98350448049326,
,,,,,,,,116,0,116,0,,,,,,,,,,,,,,,,,,,,,,,,,,,,,,,,,,,,,,,,,,,,,,,,,,,,,1182.297702500131,None,,,,,,,,,,,,,,,,,,,,,,,,,,,,,,,,,,,pride,106,117,aloud,white,1180.2831083000638,None,None,1180.2831083000638,None,,,,,,,,,,,,,,,,,,,,,,,,,,,,,,30YF,001,2023_Mar_31_0945,ExactRep-v3-final,2021.2.3,59.98350448049326,
,,,,,,,,117,0,117,0,,,,,,,,,,,,,,,,,,,,,,,,,,,,,,,,,,,,,,,,,,,,,,,,,,,,,1184.800114999991,None,,,,,,,,,,,,,,,,,,,,,,,,,,,,,,,,,,,passion,83,118,aloud,white,1182.7981775002554,None,None,1182.7981775002554,None,,,,,,,,,,,,,,,,,,,,,,,,,,,,,,30YF,001,2023_Mar_31_0945,ExactRep-v3-final,2021.2.3,59.98350448049326,
,,,,,,,,118,0,118,0,,,,,,,,,,,,,,,,,,,,,,,,,,,,,,,,,,,,,,,,,,,,,,,,,,,,,1187.319499600213,None,,,,,,,,,,,,,,,,,,,,,,,,,,,,,,,,,,,shock,100,119,aloud,white,1185.3107361001894,None,None,1185.3107361001894,None,,,,,,,,,,,,,,,,,,,,,,,,,,,,,,30YF,001,2023_Mar_31_0945,ExactRep-v3-final,2021.2.3,59.98350448049326,
,,,,,,,,119,0,119,0,,,,,,,,,,,,,,,,,,,,,,,,,,,,,,,,,,,,,,,,,,,,,,,,,,,,,1189.8386605000123,None,,,,,,,,,,,,,,,,,,,,,,,,,,,,,,,,,,,quality,40,120,silent,blue,1187.8257666002028,None,None,1187.8257666002028,None,,,,,,,,,,,,,,,,,,,,,,,,,,,,,,30YF,001,2023_Mar_31_0945,ExactRep-v3-final,2021.2.3,59.98350448049326,
,,,,,,,,,,,,,,,,,,,,,,,,,,,,,,,,,,,,,,,,,,,,,,,,,,,,,,,,,,,,,,,,,,,,,,,,,,,,,,,,,,,,,,,,,,,,,,,,,,,,,,,,,,,,,,1190.3406259003095,None,space,3.358728699851781,1200.3172079003416,None,,,,,,,,,,,,,,,,,,,,,,,,30YF,001,2023_Mar_31_0945,ExactRep-v3-final,2021.2.3,59.98350448049326,
,,,,,,,,,,,,,,,,,,,,,,,,,,,,,,,,,,,,,,,,,,,,,,,,,,,,,,,,,,,,,,,,,,,,,,,,,,,,,,,,,,,,,,,,,,,,,,,,,,,,,,,,,,,,,,,,,,,,1203.7040587002411,None,space,27.659324100241065,1213.6805938999169,None,,,,,,,,,,,,,,,,,,30YF,001,2023_Mar_31_0945,ExactRep-v3-final,2021.2.3,59.98350448049326,
,,,,,,,,,,,,0,0,0,0,,,,,,,,,,,,,,,,,,,,,,,,,,,,,,,,,,,,,,,,,,,,,,,,,1258.9743480002508,None,,,,,,,,,,,,,,,,,,,,,,,,,,,,,,,,,,,,,,,,,,,,,,,,,,,,,,,,,horse,110,1,aloud,old,white,1241.8697534003295,None,y,1241.8697534003295,None,"['y', 'return']","[13.797799500171095, 17.061832699924707]",1241.8697534003295,None,,,30YF,001,2023_Mar_31_0945,ExactRep-v3-final,2021.2.3,59.98350448049326,
,,,,,,,,,,,,1,0,1,0,,,,,,,,,,,,,,,,,,,,,,,,,,,,,,,,,,,,,,,,,,,,,,,,,1264.8635245002806,None,,,,,,,,,,,,,,,,,,,,,,,,,,,,,,,,,,,,,,,,,,,,,,,,,,,,,,,,,blood,96,2,aloud,old,white,1259.4889100003056,None,y,1259.4889100003056,None,"['y', 'return']","[3.666662599891424, 5.338639199733734]",1259.4889100003056,None,,,30YF,001,2023_Mar_31_0945,ExactRep-v3-final,2021.2.3,59.98350448049326,
,,,,,,,,,,,,2,0,2,0,,,,,,,,,,,,,,,,,,,,,,,,,,,,,,,,,,,,,,,,,,,,,,,,,1272.1040262002498,None,,,,,,,,,,,,,,,,,,,,,,,,,,,,,,,,,,,,,,,,,,,,,,,,,,,,,,,,,maiden,66,3,silent,old,blue,1265.3778180000372,None,n,1265.3778180000372,None,"['n', 'return']","[3.88975500036031, 6.681656700093299]",1265.3778180000372,None,,,30YF,001,2023_Mar_31_0945,ExactRep-v3-final,2021.2.3,59.98350448049326,
,,,,,,,,,,,,3,0,3,0,,,,,,,,,,,,,,,,,,,,,,,,,,,,,,,,,,,,,,,,,,,,,,,,,1276.1579380002804,None,,,,,,,,,,,,,,,,,,,,,,,,,,,,,,,,,,,,,,,,,,,,,,,,,,,,,,,,,fate,182,4,aloud,new,white,1272.6111449999735,None,n,1272.6111449999735,None,"['n', 'return']","[2.4643954997882247, 3.504427199717611]",1272.6111449999735,None,,,30YF,001,2023_Mar_31_0945,ExactRep-v3-final,2021.2.3,59.98350448049326,
,,,,,,,,,,,,4,0,4,0,,,,,,,,,,,,,,,,,,,,,,,,,,,,,,,,,,,,,,,,,,,,,,,,,1281.2298575001769,None,,,,,,,,,,,,,,,,,,,,,,,,,,,,,,,,,,,,,,,,,,,,,,,,,,,,,,,,,garden,206,5,aloud,new,white,1276.6700960001908,None,y,1276.6700960001908,None,"['y', 'return']","[3.637758099939674, 4.525447600055486]",1276.6700960001908,None,,,30YF,001,2023_Mar_31_0945,ExactRep-v3-final,2021.2.3,59.98350448049326,
,,,,,,,,,,,,5,0,5,0,,,,,,,,,,,,,,,,,,,,,,,,,,,,,,,,,,,,,,,,,,,,,,,,,1285.2502707000822,None,,,,,,,,,,,,,,,,,,,,,,,,,,,,,,,,,,,,,,,,,,,,,,,,,,,,,,,,,season,2,6,sing,old,red,1281.7459440999664,None,y,1281.7459440999664,None,"['y', 'return']","[2.6095548002049327, 3.4576397999189794]",1281.7459440999664,None,,,30YF,001,2023_Mar_31_0945,ExactRep-v3-final,2021.2.3,59.98350448049326,
,,,,,,,,,,,,6,0,6,0,,,,,,,,,,,,,,,,,,,,,,,,,,,,,,,,,,,,,,,,,,,,,,,,,1288.6539676003158,None,,,,,,,,,,,,,,,,,,,,,,,,,,,,,,,,,,,,,,,,,,,,,,,,,,,,,,,,,gift,102,7,aloud,old,white,1285.7510048002005,None,y,1285.7510048002005,None,"['y', 'return']","[2.332770800217986, 2.8686144002713263]",1285.7510048002005,None,,,30YF,001,2023_Mar_31_0945,ExactRep-v3-final,2021.2.3,59.98350448049326,
,,,,,,,,,,,,7,0,7,0,,,,,,,,,,,,,,,,,,,,,,,,,,,,,,,,,,,,,,,,,,,,,,,,,1291.7904944000766,None,,,,,,,,,,,,,,,,,,,,,,,,,,,,,,,,,,,,,,,,,,,,,,,,,,,,,,,,,toy,194,8,aloud,new,white,1289.1643428001553,None,n,1289.1643428001553,None,"['n', 'return']","[1.839308800175786, 2.591319200117141]",1289.1643428001553,None,,,30YF,001,2023_Mar_31_0945,ExactRep-v3-final,2021.2.3,59.98350448049326,
,,,,,,,,,,,,8,0,8,0,,,,,,,,,,,,,,,,,,,,,,,,,,,,,,,,,,,,,,,,,,,,,,,,,1296.061371800024,None,,,,,,,,,,,,,,,,,,,,,,,,,,,,,,,,,,,,,,,,,,,,,,,,,,,,,,,,,soul,70,9,silent,old,blue,1292.299533000216,None,n,1292.299533000216,None,"['n', 'return']","[2.5203110999427736, 3.7280512996949255]",1292.299533000216,None,,,30YF,001,2023_Mar_31_0945,ExactRep-v3-final,2021.2.3,59.98350448049326,
,,,,,,,,,,,,9,0,9,0,,,,,,,,,,,,,,,,,,,,,,,,,,,,,,,,,,,,,,,,,,,,,,,,,1298.91422590008,None,,,,,,,,,,,,,,,,,,,,,,,,,,,,,,,,,,,,,,,,,,,,,,,,,,,,,,,,,anger,127,10,silent,new,blue,1296.5732344002463,None,n,1296.5732344002463,None,"['n', 'return']","[1.7823895998299122, 2.294346199836582]",1296.5732344002463,None,,,30YF,001,2023_Mar_31_0945,ExactRep-v3-final,2021.2.3,59.98350448049326,
,,,,,,,,,,,,10,0,10,0,,,,,,,,,,,,,,,,,,,,,,,,,,,,,,,,,,,,,,,,,,,,,,,,,1303.4187390003353,None,,,,,,,,,,,,,,,,,,,,,,,,,,,,,,,,,,,,,,,,,,,,,,,,,,,,,,,,,answer,7,11,sing,old,red,1299.4255727003329,None,y,1299.4255727003329,None,"['y', 'return']","[3.266025800257921, 3.954051200300455]",1299.4255727003329,None,,,30YF,001,2023_Mar_31_0945,ExactRep-v3-final,2021.2.3,59.98350448049326,
,,,,,,,,,,,,11,0,11,0,,,,,,,,,,,,,,,,,,,,,,,,,,,,,,,,,,,,,,,,,,,,,,,,,1306.371673299931,None,,,,,,,,,,,,,,,,,,,,,,,,,,,,,,,,,,,,,,,,,,,,,,,,,,,,,,,,,cash,196,12,aloud,new,white,1303.9275480001234,None,n,1303.9275480001234,None,"['n', 'return']","[1.772057100199163, 2.396102000027895]",1303.9275480001234,None,,,30YF,001,2023_Mar_31_0945,ExactRep-v3-final,2021.2.3,59.98350448049326,
,,,,,,,,,,,,12,0,12,0,,,,,,,,,,,,,,,,,,,,,,,,,,,,,,,,,,,,,,,,,,,,,,,,,1311.0098196002655,None,,,,,,,,,,,,,,,,,,,,,,,,,,,,,,,,,,,,,,,,,,,,,,,,,,,,,,,,,table,123,13,silent,new,blue,1306.8853939999826,None,y,1306.8853939999826,None,"['y', 'return']","[3.502532399725169, 4.086147099733353]",1306.8853939999826,None,,,30YF,001,2023_Mar_31_0945,ExactRep-v3-final,2021.2.3,59.98350448049326,
,,,,,,,,,,,,13,0,13,0,,,,,,,,,,,,,,,,,,,,,,,,,,,,,,,,,,,,,,,,,,,,,,,,,1313.8291665003635,None,,,,,,,,,,,,,,,,,,,,,,,,,,,,,,,,,,,,,,,,,,,,,,,,,,,,,,,,,fur,208,14,aloud,new,white,1311.518340300303,None,n,1311.518340300303,None,"['n', 'return']","[1.4533028998412192, 2.277195599861443]",1311.518340300303,None,,,30YF,001,2023_Mar_31_0945,ExactRep-v3-final,2021.2.3,59.98350448049326,
,,,,,,,,,,,,14,0,14,0,,,,,,,,,,,,,,,,,,,,,,,,,,,,,,,,,,,,,,,,,,,,,,,,,1317.265781499911,None,,,,,,,,,,,,,,,,,,,,,,,,,,,,,,,,,,,,,,,,,,,,,,,,,,,,,,,,,lord,64,15,silent,old,blue,1314.3406529999338,None,n,1314.3406529999338,None,"['n', 'return']","[2.2389497999101877, 2.887010599952191]",1314.3406529999338,None,,,30YF,001,2023_Mar_31_0945,ExactRep-v3-final,2021.2.3,59.98350448049326,
,,,,,,,,,,,,15,0,15,0,,,,,,,,,,,,,,,,,,,,,,,,,,,,,,,,,,,,,,,,,,,,,,,,,1320.719482399989,None,,,,,,,,,,,,,,,,,,,,,,,,,,,,,,,,,,,,,,,,,,,,,,,,,,,,,,,,,coin,157,16,silent,new,blue,1317.767650600057,None,n,1317.767650600057,None,"['n', 'return']","[2.276128299999982, 2.9079996002838016]",1317.767650600057,None,,,30YF,001,2023_Mar_31_0945,ExactRep-v3-final,2021.2.3,59.98350448049326,
,,,,,,,,,,,,16,0,16,0,,,,,,,,,,,,,,,,,,,,,,,,,,,,,,,,,,,,,,,,,,,,,,,,,1324.1562753999606,None,,,,,,,,,,,,,,,,,,,,,,,,,,,,,,,,,,,,,,,,,,,,,,,,,,,,,,,,,college,160,17,aloud,new,white,1321.2323863003403,None,y,1321.2323863003403,None,"['y', 'return']","[2.0592231997288764, 2.89122510002926]",1321.2323863003403,None,,,30YF,001,2023_Mar_31_0945,ExactRep-v3-final,2021.2.3,59.98350448049326,
,,,,,,,,,,,,17,0,17,0,,,,,,,,,,,,,,,,,,,,,,,,,,,,,,,,,,,,,,,,,,,,,,,,,1326.7587425000966,None,,,,,,,,,,,,,,,,,,,,,,,,,,,,,,,,,,,,,,,,,,,,,,,,,,,,,,,,,grass,35,18,sing,old,red,1324.6659127003513,None,n,1324.6659127003513,None,"['n', 'return']","[1.3459367998875678, 2.057723700068891]",1324.6659127003513,None,,,30YF,001,2023_Mar_31_0945,ExactRep-v3-final,2021.2.3,59.98350448049326,
,,,,,,,,,,,,18,0,18,0,,,,,,,,,,,,,,,,,,,,,,,,,,,,,,,,,,,,,,,,,,,,,,,,,1330.2122454000637,None,,,,,,,,,,,,,,,,,,,,,,,,,,,,,,,,,,,,,,,,,,,,,,,,,,,,,,,,,shadow,232,19,aloud,new,white,1327.2672115000896,None,n,1327.2672115000896,None,"['n', 'return']","[2.3044003997929394, 2.9044137997552752]",1327.2672115000896,None,,,30YF,001,2023_Mar_31_0945,ExactRep-v3-final,2021.2.3,59.98350448049326,
,,,,,,,,,,,,19,0,19,0,,,,,,,,,,,,,,,,,,,,,,,,,,,,,,,,,,,,,,,,,,,,,,,,,1333.5988888000138,None,,,,,,,,,,,,,,,,,,,,,,,,,,,,,,,,,,,,,,,,,,,,,,,,,,,,,,,,,plain,97,20,aloud,old,white,1330.7252923003398,None,y,1330.7252923003398,None,"['y', 'return']","[2.198348700068891, 2.8384977001696825]",1330.7252923003398,None,,,30YF,001,2023_Mar_31_0945,ExactRep-v3-final,2021.2.3,59.98350448049326,
,,,,,,,,,,,,20,0,20,0,,,,,,,,,,,,,,,,,,,,,,,,,,,,,,,,,,,,,,,,,,,,,,,,,1336.5517458003014,None,,,,,,,,,,,,,,,,,,,,,,,,,,,,,,,,,,,,,,,,,,,,,,,,,,,,,,,,,wine,74,21,silent,old,blue,1334.108911700081,None,n,1334.108911700081,None,"['n', 'return']","[1.758684900123626, 2.398677899967879]",1334.108911700081,None,,,30YF,001,2023_Mar_31_0945,ExactRep-v3-final,2021.2.3,59.98350448049326,
,,,,,,,,,,,,21,0,21,0,,,,,,,,,,,,,,,,,,,,,,,,,,,,,,,,,,,,,,,,,,,,,,,,,1340.2554707000963,None,,,,,,,,,,,,,,,,,,,,,,,,,,,,,,,,,,,,,,,,,,,,,,,,,,,,,,,,,child,229,22,sing,new,red,1337.0601297002286,None,n,1337.0601297002286,None,"['n', 'return']","[2.5355313001200557, 3.159455900080502]",1337.0601297002286,None,,,30YF,001,2023_Mar_31_0945,ExactRep-v3-final,2021.2.3,59.98350448049326,
,,,,,,,,,,,,22,0,22,0,,,,,,,,,,,,,,,,,,,,,,,,,,,,,,,,,,,,,,,,,,,,,,,,,1343.158600800205,None,,,,,,,,,,,,,,,,,,,,,,,,,,,,,,,,,,,,,,,,,,,,,,,,,,,,,,,,,nail,213,23,sing,new,red,1340.7574374000542,None,n,1340.7574374000542,None,"['n', 'return']","[1.774309300351888, 2.366298499982804]",1340.7574374000542,None,,,30YF,001,2023_Mar_31_0945,ExactRep-v3-final,2021.2.3,59.98350448049326,
,,,,,,,,,,,,23,0,23,0,,,,,,,,,,,,,,,,,,,,,,,,,,,,,,,,,,,,,,,,,,,,,,,,,1347.2125073000789,None,,,,,,,,,,,,,,,,,,,,,,,,,,,,,,,,,,,,,,,,,,,,,,,,,,,,,,,,,master,138,24,silent,new,blue,1343.6673771999776,None,n,1343.6673771999776,None,"['n', 'return']","[2.9125602999702096, 3.5042798002250493]",1343.6673771999776,None,,,30YF,001,2023_Mar_31_0945,ExactRep-v3-final,2021.2.3,59.98350448049326,
,,,,,,,,,,,,24,0,24,0,,,,,,,,,,,,,,,,,,,,,,,,,,,,,,,,,,,,,,,,,,,,,,,,,1350.0486615002155,None,,,,,,,,,,,,,,,,,,,,,,,,,,,,,,,,,,,,,,,,,,,,,,,,,,,,,,,,,flower,4,25,sing,old,red,1347.720877500251,None,y,1347.720877500251,None,"['y', 'return']","[1.6027652998454869, 2.2910449001938105]",1347.720877500251,None,,,30YF,001,2023_Mar_31_0945,ExactRep-v3-final,2021.2.3,59.98350448049326,
,,,,,,,,,,,,25,0,25,0,,,,,,,,,,,,,,,,,,,,,,,,,,,,,,,,,,,,,,,,,,,,,,,,,1353.2352541000582,None,,,,,,,,,,,,,,,,,,,,,,,,,,,,,,,,,,,,,,,,,,,,,,,,,,,,,,,,,book,155,26,silent,new,blue,1350.5580959999934,None,y,1350.5580959999934,None,"['y', 'return']","[1.99774120002985, 2.62952690012753]",1350.5580959999934,None,,,30YF,001,2023_Mar_31_0945,ExactRep-v3-final,2021.2.3,59.98350448049326,
,,,,,,,,,,,,26,0,26,0,,,,,,,,,,,,,,,,,,,,,,,,,,,,,,,,,,,,,,,,,,,,,,,,,1355.5041547003202,None,,,,,,,,,,,,,,,,,,,,,,,,,,,,,,,,,,,,,,,,,,,,,,,,,,,,,,,,,lip,201,27,sing,new,red,1353.7433885000646,None,n,1353.7433885000646,None,"['n', 'return']","[1.2202448002062738, 1.7242597001604736]",1353.7433885000646,None,,,30YF,001,2023_Mar_31_0945,ExactRep-v3-final,2021.2.3,59.98350448049326,
,,,,,,,,,,,,27,0,27,0,,,,,,,,,,,,,,,,,,,,,,,,,,,,,,,,,,,,,,,,,,,,,,,,,1357.9398207999766,None,,,,,,,,,,,,,,,,,,,,,,,,,,,,,,,,,,,,,,,,,,,,,,,,,,,,,,,,,iron,105,28,aloud,old,white,1356.0155627001077,None,y,1356.0155627001077,None,"['y', 'return']","[1.3000870002433658, 1.8921210002154112]",1356.0155627001077,None,,,30YF,001,2023_Mar_31_0945,ExactRep-v3-final,2021.2.3,59.98350448049326,
,,,,,,,,,,,,28,0,28,0,,,,,,,,,,,,,,,,,,,,,,,,,,,,,,,,,,,,,,,,,,,,,,,,,1360.9263014001772,None,,,,,,,,,,,,,,,,,,,,,,,,,,,,,,,,,,,,,,,,,,,,,,,,,,,,,,,,,picture,21,29,sing,old,red,1358.4495192002505,None,y,1358.4495192002505,None,"['y', 'return']","[1.7701166002079844, 2.4341830001212656]",1358.4495192002505,None,,,30YF,001,2023_Mar_31_0945,ExactRep-v3-final,2021.2.3,59.98350448049326,
,,,,,,,,,,,,29,0,29,0,,,,,,,,,,,,,,,,,,,,,,,,,,,,,,,,,,,,,,,,,,,,,,,,,1364.463145500049,None,,,,,,,,,,,,,,,,,,,,,,,,,,,,,,,,,,,,,,,,,,,,,,,,,,,,,,,,,student,25,30,sing,old,red,1361.430341700092,None,y,1361.430341700092,None,"['y', 'return']","[2.3573588002473116, 2.9974409001879394]",1361.430341700092,None,,,30YF,001,2023_Mar_31_0945,ExactRep-v3-final,2021.2.3,59.98350448049326,
,,,,,,,,,,,,30,0,30,0,,,,,,,,,,,,,,,,,,,,,,,,,,,,,,,,,,,,,,,,,,,,,,,,,1367.0323876002803,None,,,,,,,,,,,,,,,,,,,,,,,,,,,,,,,,,,,,,,,,,,,,,,,,,,,,,,,,,humour,221,31,sing,new,red,1364.9719807999209,None,y,1364.9719807999209,None,"['y', 'return']","[1.3597431001253426, 2.0156805999577045]",1364.9719807999209,None,,,30YF,001,2023_Mar_31_0945,ExactRep-v3-final,2021.2.3,59.98350448049326,
,,,,,,,,,,,,31,0,31,0,,,,,,,,,,,,,,,,,,,,,,,,,,,,,,,,,,,,,,,,,,,,,,,,,1371.1198475002311,None,,,,,,,,,,,,,,,,,,,,,,,,,,,,,,,,,,,,,,,,,,,,,,,,,,,,,,,,,health,16,32,sing,old,red,1367.5421742000617,None,y,1367.5421742000617,None,"['y', 'return']","[2.9815378999337554, 3.5334752001799643]",1367.5421742000617,None,,,30YF,001,2023_Mar_31_0945,ExactRep-v3-final,2021.2.3,59.98350448049326,
,,,,,,,,,,,,32,0,32,0,,,,,,,,,,,,,,,,,,,,,,,,,,,,,,,,,,,,,,,,,,,,,,,,,1373.9227332998998,None,,,,,,,,,,,,,,,,,,,,,,,,,,,,,,,,,,,,,,,,,,,,,,,,,,,,,,,,,car,75,33,silent,old,blue,1371.6307200002484,None,n,1371.6307200002484,None,"['n', 'return']","[1.5890508000738919, 2.245018099900335]",1371.6307200002484,None,,,30YF,001,2023_Mar_31_0945,ExactRep-v3-final,2021.2.3,59.98350448049326,
,,,,,,,,,,,,33,0,33,0,,,,,,,,,,,,,,,,,,,,,,,,,,,,,,,,,,,,,,,,,,,,,,,,,1376.6920261001214,None,,,,,,,,,,,,,,,,,,,,,,,,,,,,,,,,,,,,,,,,,,,,,,,,,,,,,,,,,metal,224,34,aloud,new,white,1374.4325194000266,None,y,1374.4325194000266,None,"['y', 'return']","[1.587505199946463, 2.22718260018155]",1374.4325194000266,None,,,30YF,001,2023_Mar_31_0945,ExactRep-v3-final,2021.2.3,59.98350448049326,
,,,,,,,,,,,,34,0,34,0,,,,,,,,,,,,,,,,,,,,,,,,,,,,,,,,,,,,,,,,,,,,,,,,,1379.8950301003642,None,,,,,,,,,,,,,,,,,,,,,,,,,,,,,,,,,,,,,,,,,,,,,,,,,,,,,,,,,coast,217,35,sing,new,red,1377.2017328003421,None,n,1377.2017328003421,None,"['n', 'return']","[2.105966500006616, 2.6498865000903606]",1377.2017328003421,None,,,30YF,001,2023_Mar_31_0945,ExactRep-v3-final,2021.2.3,59.98350448049326,
,,,,,,,,,,,,35,0,35,0,,,,,,,,,,,,,,,,,,,,,,,,,,,,,,,,,,,,,,,,,,,,,,,,,1382.6813890999183,None,,,,,,,,,,,,,,,,,,,,,,,,,,,,,,,,,,,,,,,,,,,,,,,,,,,,,,,,,victory,52,36,silent,old,blue,1380.4075349001214,None,n,1380.4075349001214,None,"['n', 'return']","[1.7004172001034021, 2.2282806001603603]",1380.4075349001214,None,,,30YF,001,2023_Mar_31_0945,ExactRep-v3-final,2021.2.3,59.98350448049326,
,,,,,,,,,,,,36,0,36,0,,,,,,,,,,,,,,,,,,,,,,,,,,,,,,,,,,,,,,,,,,,,,,,,,1386.2682334003039,None,,,,,,,,,,,,,,,,,,,,,,,,,,,,,,,,,,,,,,,,,,,,,,,,,,,,,,,,,justice,44,37,silent,old,blue,1383.1981172999367,None,n,1383.1981172999367,None,"['n', 'return']","[2.5095788002945483, 3.0296090999618173]",1383.1981172999367,None,,,30YF,001,2023_Mar_31_0945,ExactRep-v3-final,2021.2.3,59.98350448049326,
,,,,,,,,,,,,37,0,37,0,,,,,,,,,,,,,,,,,,,,,,,,,,,,,,,,,,,,,,,,,,,,,,,,,1391.1565334000625,None,,,,,,,,,,,,,,,,,,,,,,,,,,,,,,,,,,,,,,,,,,,,,,,,,,,,,,,,,clock,108,38,aloud,old,white,1386.7787403003313,None,n,1386.7787403003313,None,"['n', 'return']","[3.8569817999377847, 4.3369716997258365]",1386.7787403003313,None,,,30YF,001,2023_Mar_31_0945,ExactRep-v3-final,2021.2.3,59.98350448049326,
,,,,,,,,,,,,38,0,38,0,,,,,,,,,,,,,,,,,,,,,,,,,,,,,,,,,,,,,,,,,,,,,,,,,1393.4587778002024,None,,,,,,,,,,,,,,,,,,,,,,,,,,,,,,,,,,,,,,,,,,,,,,,,,,,,,,,,,flag,136,39,silent,new,blue,1391.6655155001208,None,n,1391.6655155001208,None,"['n', 'return']","[1.298116299789399, 1.75416659982875]",1391.6655155001208,None,,,30YF,001,2023_Mar_31_0945,ExactRep-v3-final,2021.2.3,59.98350448049326,
,,,,,,,,,,,,39,0,39,0,,,,,,,,,,,,,,,,,,,,,,,,,,,,,,,,,,,,,,,,,,,,,,,,,1395.8613360999152,None,,,,,,,,,,,,,,,,,,,,,,,,,,,,,,,,,,,,,,,,,,,,,,,,,,,,,,,,,flood,238,40,aloud,new,white,1393.9728259001859,None,y,1393.9728259001859,None,"['y', 'return']","[1.2948126001283526, 1.8468993999995291]",1393.9728259001859,None,,,30YF,001,2023_Mar_31_0945,ExactRep-v3-final,2021.2.3,59.98350448049326,
,,,,,,,,,,,,40,0,40,0,,,,,,,,,,,,,,,,,,,,,,,,,,,,,,,,,,,,,,,,,,,,,,,,,1400.849572200328,None,,,,,,,,,,,,,,,,,,,,,,,,,,,,,,,,,,,,,,,,,,,,,,,,,,,,,,,,,series,179,41,sing,new,red,1396.3772002002224,None,y,1396.3772002002224,None,"['y', 'return']","[3.090529600158334, 4.426596499979496]",1396.3772002002224,None,,,30YF,001,2023_Mar_31_0945,ExactRep-v3-final,2021.2.3,59.98350448049326,
,,,,,,,,,,,,41,0,41,0,,,,,,,,,,,,,,,,,,,,,,,,,,,,,,,,,,,,,,,,,,,,,,,,,1403.151879900135,None,,,,,,,,,,,,,,,,,,,,,,,,,,,,,,,,,,,,,,,,,,,,,,,,,,,,,,,,,valley,234,42,aloud,new,white,1401.3616081001237,None,n,1401.3616081001237,None,"['n', 'return']","[1.1861473000608385, 1.7541671004146338]",1401.3616081001237,None,,,30YF,001,2023_Mar_31_0945,ExactRep-v3-final,2021.2.3,59.98350448049326,
,,,,,,,,,,,,42,0,42,0,,,,,,,,,,,,,,,,,,,,,,,,,,,,,,,,,,,,,,,,,,,,,,,,,1420.5191637002863,None,,,,,,,,,,,,,,,,,,,,,,,,,,,,,,,,,,,,,,,,,,,,,,,,,,,,,,,,,bird,147,43,silent,new,blue,1403.659199200105,None,y,1403.659199200105,None,"['y', 'return']","[16.280752199701965, 16.824585599824786]",1403.659199200105,None,,,30YF,001,2023_Mar_31_0945,ExactRep-v3-final,2021.2.3,59.98350448049326,
,,,,,,,,,,,,43,0,43,0,,,,,,,,,,,,,,,,,,,,,,,,,,,,,,,,,,,,,,,,,,,,,,,,,1423.5222448999994,None,,,,,,,,,,,,,,,,,,,,,,,,,,,,,,,,,,,,,,,,,,,,,,,,,,,,,,,,,pride,106,44,aloud,old,white,1421.0336839002557,None,y,1421.0336839002557,None,"['y', 'return']","[1.882000599987805, 2.4500187998637557]",1421.0336839002557,None,,,30YF,001,2023_Mar_31_0945,ExactRep-v3-final,2021.2.3,59.98350448049326,
,,,,,,,,,,,,44,0,44,0,,,,,,,,,,,,,,,,,,,,,,,,,,,,,,,,,,,,,,,,,,,,,,,,,1425.958022700157,None,,,,,,,,,,,,,,,,,,,,,,,,,,,,,,,,,,,,,,,,,,,,,,,,,,,,,,,,,honour,14,45,sing,old,red,1424.0318012000062,None,y,1424.0318012000062,None,"['y', 'return']","[1.2839967999607325, 1.8839595997706056]",1424.0318012000062,None,,,30YF,001,2023_Mar_31_0945,ExactRep-v3-final,2021.2.3,59.98350448049326,
,,,,,,,,,,,,45,0,45,0,,,,,,,,,,,,,,,,,,,,,,,,,,,,,,,,,,,,,,,,,,,,,,,,,1435.2699402999133,None,,,,,,,,,,,,,,,,,,,,,,,,,,,,,,,,,,,,,,,,,,,,,,,,,,,,,,,,,string,93,46,aloud,old,white,1426.4671729002148,None,y,1426.4671729002148,None,"['y', 'return']","[8.184807300101966, 8.760486899875104]",1426.4671729002148,None,,,30YF,001,2023_Mar_31_0945,ExactRep-v3-final,2021.2.3,59.98350448049326,
,,,,,,,,,,,,46,0,46,0,,,,,,,,,,,,,,,,,,,,,,,,,,,,,,,,,,,,,,,,,,,,,,,,,1444.676724200137,None,,,,,,,,,,,,,,,,,,,,,,,,,,,,,,,,,,,,,,,,,,,,,,,,,,,,,,,,,rock,158,47,silent,new,blue,1435.798823799938,None,n,1435.798823799938,None,"['n', 'return']","[8.308883999940008, 8.837122099939734]",1435.798823799938,None,,,30YF,001,2023_Mar_31_0945,ExactRep-v3-final,2021.2.3,59.98350448049326,
,,,,,,,,,,,,47,0,47,0,,,,,,,,,,,,,,,,,,,,,,,,,,,,,,,,,,,,,,,,,,,,,,,,,1446.962450900115,None,,,,,,,,,,,,,,,,,,,,,,,,,,,,,,,,,,,,,,,,,,,,,,,,,,,,,,,,,dress,173,48,sing,new,red,1445.1862643999048,None,n,1445.1862643999048,None,"['n', 'return']","[1.30547249969095, 1.7375986999832094]",1445.1862643999048,None,,,30YF,001,2023_Mar_31_0945,ExactRep-v3-final,2021.2.3,59.98350448049326,
,,,,,,,,,,,,48,0,48,0,,,,,,,,,,,,,,,,,,,,,,,,,,,,,,,,,,,,,,,,,,,,,,,,,1449.3980491999537,None,,,,,,,,,,,,,,,,,,,,,,,,,,,,,,,,,,,,,,,,,,,,,,,,,,,,,,,,,avenue,171,49,sing,new,red,1447.469595100265,None,n,1447.469595100265,None,"['n', 'return']","[1.430161700118333, 1.8940930999815464]",1447.469595100265,None,,,30YF,001,2023_Mar_31_0945,ExactRep-v3-final,2021.2.3,59.98350448049326,
,,,,,,,,,,,,49,0,49,0,,,,,,,,,,,,,,,,,,,,,,,,,,,,,,,,,,,,,,,,,,,,,,,,,1452.668045599945,None,,,,,,,,,,,,,,,,,,,,,,,,,,,,,,,,,,,,,,,,,,,,,,,,,,,,,,,,,animal,172,50,aloud,new,white,1449.90894700028,None,n,1449.90894700028,None,"['n', 'return']","[2.2947986000217497, 2.7108399998396635]",1449.90894700028,None,,,30YF,001,2023_Mar_31_0945,ExactRep-v3-final,2021.2.3,59.98350448049326,
,,,,,,,,,,,,50,0,50,0,,,,,,,,,,,,,,,,,,,,,,,,,,,,,,,,,,,,,,,,,,,,,,,,,1455.0037277000956,None,,,,,,,,,,,,,,,,,,,,,,,,,,,,,,,,,,,,,,,,,,,,,,,,,,,,,,,,,cost,62,51,silent,old,blue,1453.1788568999618,None,y,1453.1788568999618,None,"['y', 'return']","[1.2568534002639353, 1.7769876001402736]",1453.1788568999618,None,,,30YF,001,2023_Mar_31_0945,ExactRep-v3-final,2021.2.3,59.98350448049326,
,,,,,,,,,,,,51,0,51,0,,,,,,,,,,,,,,,,,,,,,,,,,,,,,,,,,,,,,,,,,,,,,,,,,1457.9732771003619,None,,,,,,,,,,,,,,,,,,,,,,,,,,,,,,,,,,,,,,,,,,,,,,,,,,,,,,,,,woman,90,52,aloud,old,white,1455.5185384000652,None,n,1455.5185384000652,None,"['n', 'return']","[1.8934804000891745, 2.421239299699664]",1455.5185384000652,None,,,30YF,001,2023_Mar_31_0945,ExactRep-v3-final,2021.2.3,59.98350448049326,
,,,,,,,,,,,,52,0,52,0,,,,,,,,,,,,,,,,,,,,,,,,,,,,,,,,,,,,,,,,,,,,,,,,,1460.2088791001588,None,,,,,,,,,,,,,,,,,,,,,,,,,,,,,,,,,,,,,,,,,,,,,,,,,,,,,,,,,vessel,176,53,aloud,new,white,1458.483520500362,None,n,1458.483520500362,None,"['n', 'return']","[1.2005798001773655, 1.680315500125289]",1458.483520500362,None,,,30YF,001,2023_Mar_31_0945,ExactRep-v3-final,2021.2.3,59.98350448049326,
,,,,,,,,,,,,53,0,53,0,,,,,,,,,,,,,,,,,,,,,,,,,,,,,,,,,,,,,,,,,,,,,,,,,1462.7447317000479,None,,,,,,,,,,,,,,,,,,,,,,,,,,,,,,,,,,,,,,,,,,,,,,,,,,,,,,,,,fortune,68,54,silent,old,blue,1460.7129029002972,None,y,1460.7129029002972,None,"['y', 'return']","[1.3870220999233425, 1.994895199779421]",1460.7129029002972,None,,,30YF,001,2023_Mar_31_0945,ExactRep-v3-final,2021.2.3,59.98350448049326,
,,,,,,,,,,,,54,0,54,0,,,,,,,,,,,,,,,,,,,,,,,,,,,,,,,,,,,,,,,,,,,,,,,,,1465.147139500361,None,,,,,,,,,,,,,,,,,,,,,,,,,,,,,,,,,,,,,,,,,,,,,,,,,,,,,,,,,prison,84,55,aloud,old,white,1463.2490269001573,None,n,1463.2490269001573,None,"['n', 'return']","[1.2349282000213861, 1.8508616997860372]",1463.2490269001573,None,,,30YF,001,2023_Mar_31_0945,ExactRep-v3-final,2021.2.3,59.98350448049326,
,,,,,,,,,,,,55,0,55,0,,,,,,,,,,,,,,,,,,,,,,,,,,,,,,,,,,,,,,,,,,,,,,,,,1469.5682199001312,None,,,,,,,,,,,,,,,,,,,,,,,,,,,,,,,,,,,,,,,,,,,,,,,,,,,,,,,,,speech,80,56,aloud,old,white,1465.6529437000863,None,y,1465.6529437000863,None,"['y', 'return']","[3.3348578000441194, 3.8707860000431538]",1465.6529437000863,None,,,30YF,001,2023_Mar_31_0945,ExactRep-v3-final,2021.2.3,59.98350448049326,
,,,,,,,,,,,,56,0,56,0,,,,,,,,,,,,,,,,,,,,,,,,,,,,,,,,,,,,,,,,,,,,,,,,,1473.355468899943,None,,,,,,,,,,,,,,,,,,,,,,,,,,,,,,,,,,,,,,,,,,,,,,,,,,,,,,,,,air,3,57,sing,old,red,1470.0836008000188,None,n,1470.0836008000188,None,"['n', 'return']","[2.4002188998274505, 3.232168299611658]",1470.0836008000188,None,,,30YF,001,2023_Mar_31_0945,ExactRep-v3-final,2021.2.3,59.98350448049326,
,,,,,,,,,,,,57,0,57,0,,,,,,,,,,,,,,,,,,,,,,,,,,,,,,,,,,,,,,,,,,,,,,,,,1475.8745667003095,None,,,,,,,,,,,,,,,,,,,,,,,,,,,,,,,,,,,,,,,,,,,,,,,,,,,,,,,,,opinion,148,58,silent,new,blue,1473.8626497001387,None,n,1473.8626497001387,None,"['n', 'return']","[1.3253957000561059, 1.9731322000734508]",1473.8626497001387,None,,,30YF,001,2023_Mar_31_0945,ExactRep-v3-final,2021.2.3,59.98350448049326,
,,,,,,,,,,,,58,0,58,0,,,,,,,,,,,,,,,,,,,,,,,,,,,,,,,,,,,,,,,,,,,,,,,,,1485.4009239999577,None,,,,,,,,,,,,,,,,,,,,,,,,,,,,,,,,,,,,,,,,,,,,,,,,,,,,,,,,,fun,225,59,sing,new,red,1476.3842059001327,None,y,1476.3842059001327,None,"['return', 'return', 'y', 'return']","[3.5396303003653884, 6.835686800070107, 8.091760599985719, 8.979611800052226]",1476.3842059001327,None,,,30YF,001,2023_Mar_31_0945,ExactRep-v3-final,2021.2.3,59.98350448049326,
,,,,,,,,,,,,59,0,59,0,,,,,,,,,,,,,,,,,,,,,,,,,,,,,,,,,,,,,,,,,,,,,,,,,1489.9719617003575,None,,,,,,,,,,,,,,,,,,,,,,,,,,,,,,,,,,,,,,,,,,,,,,,,,,,,,,,,,charm,161,60,sing,new,red,1485.9105640999041,None,y,1485.9105640999041,None,"['y', 'return']","[3.4373788996599615, 4.013357900083065]",1485.9105640999041,None,,,30YF,001,2023_Mar_31_0945,ExactRep-v3-final,2021.2.3,59.98350448049326,
,,,,,,,,,,,,60,0,60,0,,,,,,,,,,,,,,,,,,,,,,,,,,,,,,,,,,,,,,,,,,,,,,,,,1492.5912494999357,None,,,,,,,,,,,,,,,,,,,,,,,,,,,,,,,,,,,,,,,,,,,,,,,,,,,,,,,,,river,55,61,silent,old,blue,1490.476309500169,None,n,1490.476309500169,None,"['n', 'return']","[1.4956221003085375, 2.0714330999180675]",1490.476309500169,None,,,30YF,001,2023_Mar_31_0945,ExactRep-v3-final,2021.2.3,59.98350448049326,
,,,,,,,,,,,,61,0,61,0,,,,,,,,,,,,,,,,,,,,,,,,,,,,,,,,,,,,,,,,,,,,,,,,,1495.0435719001107,None,,,,,,,,,,,,,,,,,,,,,,,,,,,,,,,,,,,,,,,,,,,,,,,,,,,,,,,,,gold,190,62,aloud,new,white,1493.0988803002983,None,n,1493.0988803002983,None,"['n', 'return']","[1.336911799851805, 1.9049487998709083]",1493.0988803002983,None,,,30YF,001,2023_Mar_31_0945,ExactRep-v3-final,2021.2.3,59.98350448049326,
,,,,,,,,,,,,62,0,62,0,,,,,,,,,,,,,,,,,,,,,,,,,,,,,,,,,,,,,,,,,,,,,,,,,1498.5974681000225,None,,,,,,,,,,,,,,,,,,,,,,,,,,,,,,,,,,,,,,,,,,,,,,,,,,,,,,,,,power,20,63,sing,old,red,1495.5536735001951,None,y,1495.5536735001951,None,"['y', 'return']","[2.4662294001318514, 3.002149000298232]",1495.5536735001951,None,,,30YF,001,2023_Mar_31_0945,ExactRep-v3-final,2021.2.3,59.98350448049326,
,,,,,,,,,,,,63,0,63,0,,,,,,,,,,,,,,,,,,,,,,,,,,,,,,,,,,,,,,,,,,,,,,,,,1501.0164932003245,None,,,,,,,,,,,,,,,,,,,,,,,,,,,,,,,,,,,,,,,,,,,,,,,,,,,,,,,,,silence,145,64,silent,new,blue,1499.1319293002598,None,n,1499.1319293002598,None,"['n', 'return']","[1.415812499821186, 1.847868099808693]",1499.1319293002598,None,,,30YF,001,2023_Mar_31_0945,ExactRep-v3-final,2021.2.3,59.98350448049326,
,,,,,,,,,,,,64,0,64,0,,,,,,,,,,,,,,,,,,,,,,,,,,,,,,,,,,,,,,,,,,,,,,,,,1503.4856173000298,None,,,,,,,,,,,,,,,,,,,,,,,,,,,,,,,,,,,,,,,,,,,,,,,,,,,,,,,,,ticket,56,65,silent,old,blue,1501.5272122002207,None,y,1501.5272122002207,None,"['y', 'return']","[1.3967714998871088, 1.916640699841082]",1501.5272122002207,None,,,30YF,001,2023_Mar_31_0945,ExactRep-v3-final,2021.2.3,59.98350448049326,
,,,,,,,,,,,,65,0,65,0,,,,,,,,,,,,,,,,,,,,,,,,,,,,,,,,,,,,,,,,,,,,,,,,,1507.572893100325,None,,,,,,,,,,,,,,,,,,,,,,,,,,,,,,,,,,,,,,,,,,,,,,,,,,,,,,,,,dust,184,66,aloud,new,white,1503.995261900127,None,n,1503.995261900127,None,"['n', 'return']","[3.1044951998628676, 3.5446405997499824]",1503.995261900127,None,,,30YF,001,2023_Mar_31_0945,ExactRep-v3-final,2021.2.3,59.98350448049326,
,,,,,,,,,,,,66,0,66,0,,,,,,,,,,,,,,,,,,,,,,,,,,,,,,,,,,,,,,,,,,,,,,,,,1509.7917718999088,None,,,,,,,,,,,,,,,,,,,,,,,,,,,,,,,,,,,,,,,,,,,,,,,,,,,,,,,,,insect,99,67,aloud,old,white,1508.0767183001153,None,n,1508.0767183001153,None,"['n', 'return']","[1.2311577000655234, 1.6791427000425756]",1508.0767183001153,None,,,30YF,001,2023_Mar_31_0945,ExactRep-v3-final,2021.2.3,59.98350448049326,
,,,,,,,,,,,,67,0,67,0,,,,,,,,,,,,,,,,,,,,,,,,,,,,,,,,,,,,,,,,,,,,,,,,,1513.2453360999934,None,,,,,,,,,,,,,,,,,,,,,,,,,,,,,,,,,,,,,,,,,,,,,,,,,,,,,,,,,judge,41,68,silent,old,blue,1510.301520100329,None,y,1510.301520100329,None,"['y', 'return']","[2.422567500267178, 2.910333000123501]",1510.301520100329,None,,,30YF,001,2023_Mar_31_0945,ExactRep-v3-final,2021.2.3,59.98350448049326,
,,,,,,,,,,,,68,0,68,0,,,,,,,,,,,,,,,,,,,,,,,,,,,,,,,,,,,,,,,,,,,,,,,,,1515.2472731000744,None,,,,,,,,,,,,,,,,,,,,,,,,,,,,,,,,,,,,,,,,,,,,,,,,,,,,,,,,,palace,109,69,aloud,old,white,1513.7570780999959,None,n,1513.7570780999959,None,"['n', 'return']","[1.0308890999294817, 1.4549398999661207]",1513.7570780999959,None,,,30YF,001,2023_Mar_31_0945,ExactRep-v3-final,2021.2.3,59.98350448049326,
,,,,,,,,,,,,69,0,69,0,,,,,,,,,,,,,,,,,,,,,,,,,,,,,,,,,,,,,,,,,,,,,,,,,1517.4661262002774,None,,,,,,,,,,,,,,,,,,,,,,,,,,,,,,,,,,,,,,,,,,,,,,,,,,,,,,,,,wheat,101,70,aloud,old,white,1515.76064530015,None,n,1515.76064530015,None,"['n', 'return']","[1.1633159997873008, 1.6671807998791337]",1515.76064530015,None,,,30YF,001,2023_Mar_31_0945,ExactRep-v3-final,2021.2.3,59.98350448049326,
,,,,,,,,,,,,70,0,70,0,,,,,,,,,,,,,,,,,,,,,,,,,,,,,,,,,,,,,,,,,,,,,,,,,1520.7860946999863,None,,,,,,,,,,,,,,,,,,,,,,,,,,,,,,,,,,,,,,,,,,,,,,,,,,,,,,,,,beast,23,71,sing,old,red,1517.9770108000375,None,n,1517.9770108000375,None,"['n', 'return']","[2.226813900284469, 2.7709110002033412]",1517.9770108000375,None,,,30YF,001,2023_Mar_31_0945,ExactRep-v3-final,2021.2.3,59.98350448049326,
,,,,,,,,,,,,71,0,71,0,,,,,,,,,,,,,,,,,,,,,,,,,,,,,,,,,,,,,,,,,,,,,,,,,1525.090611900203,None,,,,,,,,,,,,,,,,,,,,,,,,,,,,,,,,,,,,,,,,,,,,,,,,,,,,,,,,,lake,230,72,aloud,new,white,1521.2952326000668,None,n,1521.2952326000668,None,"['n', 'return']","[3.3566108997911215, 3.7566590001806617]",1521.2952326000668,None,,,30YF,001,2023_Mar_31_0945,ExactRep-v3-final,2021.2.3,59.98350448049326,
,,,,,,,,,,,,72,0,72,0,,,,,,,,,,,,,,,,,,,,,,,,,,,,,,,,,,,,,,,,,,,,,,,,,1527.3259756001644,None,,,,,,,,,,,,,,,,,,,,,,,,,,,,,,,,,,,,,,,,,,,,,,,,,,,,,,,,,plant,142,73,silent,new,blue,1525.598504200112,None,y,1525.598504200112,None,"['y', 'return']","[1.05330969998613, 1.6933371000923216]",1525.598504200112,None,,,30YF,001,2023_Mar_31_0945,ExactRep-v3-final,2021.2.3,59.98350448049326,
,,,,,,,,,,,,73,0,73,0,,,,,,,,,,,,,,,,,,,,,,,,,,,,,,,,,,,,,,,,,,,,,,,,,1532.7498074001633,None,,,,,,,,,,,,,,,,,,,,,,,,,,,,,,,,,,,,,,,,,,,,,,,,,,,,,,,,,meat,76,74,silent,old,blue,1527.8343911003321,None,y,1527.8343911003321,None,"['y', 'return']","[4.273390999995172, 4.865400000009686]",1527.8343911003321,None,,,30YF,001,2023_Mar_31_0945,ExactRep-v3-final,2021.2.3,59.98350448049326,
,,,,,,,,,,,,74,0,74,0,,,,,,,,,,,,,,,,,,,,,,,,,,,,,,,,,,,,,,,,,,,,,,,,,1535.5175248002633,None,,,,,,,,,,,,,,,,,,,,,,,,,,,,,,,,,,,,,,,,,,,,,,,,,,,,,,,,,duty,220,75,aloud,new,white,1533.2727434001863,None,n,1533.2727434001863,None,"['n', 'return']","[1.6671186001040041, 2.2111120000481606]",1533.2727434001863,None,,,30YF,001,2023_Mar_31_0945,ExactRep-v3-final,2021.2.3,59.98350448049326,
,,,,,,,,,,,,75,0,75,0,,,,,,,,,,,,,,,,,,,,,,,,,,,,,,,,,,,,,,,,,,,,,,,,,1539.7383902003057,None,,,,,,,,,,,,,,,,,,,,,,,,,,,,,,,,,,,,,,,,,,,,,,,,,,,,,,,,,house,239,76,sing,new,red,1536.031460700091,None,y,1536.031460700091,None,"['y', 'return']","[3.0124727999791503, 3.668445599731058]",1536.031460700091,None,,,30YF,001,2023_Mar_31_0945,ExactRep-v3-final,2021.2.3,59.98350448049326,
,,,,,,,,,,,,76,0,76,0,,,,,,,,,,,,,,,,,,,,,,,,,,,,,,,,,,,,,,,,,,,,,,,,,1542.074015200138,None,,,,,,,,,,,,,,,,,,,,,,,,,,,,,,,,,,,,,,,,,,,,,,,,,,,,,,,,,boulder,125,77,silent,new,blue,1540.2552197002806,None,n,1540.2552197002806,None,"['n', 'return']","[1.2128857001662254, 1.7726644002832472]",1540.2552197002806,None,,,30YF,001,2023_Mar_31_0945,ExactRep-v3-final,2021.2.3,59.98350448049326,
,,,,,,,,,,,,77,0,77,0,,,,,,,,,,,,,,,,,,,,,,,,,,,,,,,,,,,,,,,,,,,,,,,,,1546.0280130999163,None,,,,,,,,,,,,,,,,,,,,,,,,,,,,,,,,,,,,,,,,,,,,,,,,,,,,,,,,,dawn,9,78,sing,old,red,1542.5815737000667,None,n,1542.5815737000667,None,"['n', 'return']","[2.6302391001954675, 3.414311199914664]",1542.5815737000667,None,,,30YF,001,2023_Mar_31_0945,ExactRep-v3-final,2021.2.3,59.98350448049326,
,,,,,,,,,,,,78,0,78,0,,,,,,,,,,,,,,,,,,,,,,,,,,,,,,,,,,,,,,,,,,,,,,,,,1551.5168313002214,None,,,,,,,,,,,,,,,,,,,,,,,,,,,,,,,,,,,,,,,,,,,,,,,,,,,,,,,,,paper,49,79,silent,old,blue,1546.5391321000643,None,n,1546.5391321000643,None,"['y', 'backspace', 'n', 'return']","[1.7848173999227583, 3.48071249993518, 4.504730499815196, 4.944732999894768]",1546.5391321000643,None,,,30YF,001,2023_Mar_31_0945,ExactRep-v3-final,2021.2.3,59.98350448049326,
,,,,,,,,,,,,79,0,79,0,,,,,,,,,,,,,,,,,,,,,,,,,,,,,,,,,,,,,,,,,,,,,,,,,1556.3216556999832,None,,,,,,,,,,,,,,,,,,,,,,,,,,,,,,,,,,,,,,,,,,,,,,,,,,,,,,,,,devil,114,80,aloud,old,white,1552.0282131000422,None,y,1552.0282131000422,None,"['y', 'return']","[3.3836083002388477, 4.255515499971807]",1552.0282131000422,None,,,30YF,001,2023_Mar_31_0945,ExactRep-v3-final,2021.2.3,59.98350448049326,
,,,,,,,,,,,,80,0,80,0,,,,,,,,,,,,,,,,,,,,,,,,,,,,,,,,,,,,,,,,,,,,,,,,,1562.7115393001586,None,,,,,,,,,,,,,,,,,,,,,,,,,,,,,,,,,,,,,,,,,,,,,,,,,,,,,,,,,slave,27,81,sing,old,red,1556.8317790003493,None,y,1556.8317790003493,None,"['y', 'return']","[5.0363217000849545, 5.8441087999381125]",1556.8317790003493,None,,,30YF,001,2023_Mar_31_0945,ExactRep-v3-final,2021.2.3,59.98350448049326,
,,,,,,,,,,,,81,0,81,0,,,,,,,,,,,,,,,,,,,,,,,,,,,,,,,,,,,,,,,,,,,,,,,,,1566.4984989003278,None,,,,,,,,,,,,,,,,,,,,,,,,,,,,,,,,,,,,,,,,,,,,,,,,,,,,,,,,,city,63,82,silent,old,blue,1563.2203800003044,None,y,1563.2203800003044,None,"['y', 'return']","[2.671527999918908, 3.2394929002039135]",1563.2203800003044,None,,,30YF,001,2023_Mar_31_0945,ExactRep-v3-final,2021.2.3,59.98350448049326,
,,,,,,,,,,,,82,0,82,0,,,,,,,,,,,,,,,,,,,,,,,,,,,,,,,,,,,,,,,,,,,,,,,,,1568.9343346003443,None,,,,,,,,,,,,,,,,,,,,,,,,,,,,,,,,,,,,,,,,,,,,,,,,,,,,,,,,,mercy,140,83,silent,new,blue,1567.0081805000082,None,n,1567.0081805000082,None,"['n', 'return']","[1.299643199890852, 1.8837712998501956]",1567.0081805000082,None,,,30YF,001,2023_Mar_31_0945,ExactRep-v3-final,2021.2.3,59.98350448049326,
,,,,,,,,,,,,83,0,83,0,,,,,,,,,,,,,,,,,,,,,,,,,,,,,,,,,,,,,,,,,,,,,,,,,1573.5557114002295,None,,,,,,,,,,,,,,,,,,,,,,,,,,,,,,,,,,,,,,,,,,,,,,,,,,,,,,,,,soil,181,84,sing,new,red,1569.445828200318,None,y,1569.445828200318,None,"['y', 'return']","[2.886351500172168, 4.070243500173092]",1569.445828200318,None,,,30YF,001,2023_Mar_31_0945,ExactRep-v3-final,2021.2.3,59.98350448049326,
,,,,,,,,,,,,84,0,84,0,,,,,,,,,,,,,,,,,,,,,,,,,,,,,,,,,,,,,,,,,,,,,,,,,1578.3270149002783,None,,,,,,,,,,,,,,,,,,,,,,,,,,,,,,,,,,,,,,,,,,,,,,,,,,,,,,,,,factory,223,85,sing,new,red,1574.0695906002074,None,y,1574.0695906002074,None,"['y', 'return']","[3.6303806002251804, 4.222364400047809]",1574.0695906002074,None,,,30YF,001,2023_Mar_31_0945,ExactRep-v3-final,2021.2.3,59.98350448049326,
,,,,,,,,,,,,85,0,85,0,,,,,,,,,,,,,,,,,,,,,,,,,,,,,,,,,,,,,,,,,,,,,,,,,1589.204627300147,None,,,,,,,,,,,,,,,,,,,,,,,,,,,,,,,,,,,,,,,,,,,,,,,,,,,,,,,,,party,222,86,aloud,new,white,1578.8352302000858,None,n,1578.8352302000858,None,"['n', 'return']","[9.84881480038166, 10.328732300084084]",1578.8352302000858,None,,,30YF,001,2023_Mar_31_0945,ExactRep-v3-final,2021.2.3,59.98350448049326,
,,,,,,,,,,,,86,0,86,0,,,,,,,,,,,,,,,,,,,,,,,,,,,,,,,,,,,,,,,,,,,,,,,,,1593.8092972999439,None,,,,,,,,,,,,,,,,,,,,,,,,,,,,,,,,,,,,,,,,,,,,,,,,,,,,,,,,,potato,177,87,sing,new,red,1589.7155683003366,None,y,1589.7155683003366,None,"['y', 'return']","[3.552455000113696, 4.048358100000769]",1589.7155683003366,None,,,30YF,001,2023_Mar_31_0945,ExactRep-v3-final,2021.2.3,59.98350448049326,
,,,,,,,,,,,,87,0,87,0,,,,,,,,,,,,,,,,,,,,,,,,,,,,,,,,,,,,,,,,,,,,,,,,,1595.944433500059,None,,,,,,,,,,,,,,,,,,,,,,,,,,,,,,,,,,,,,,,,,,,,,,,,,,,,,,,,,bottle,131,88,silent,new,blue,1594.3180613000877,None,n,1594.3180613000877,None,"['n', 'return']","[1.1817611996084452, 1.5898641999810934]",1594.3180613000877,None,,,30YF,001,2023_Mar_31_0945,ExactRep-v3-final,2021.2.3,59.98350448049326,
,,,,,,,,,,,,88,0,88,0,,,,,,,,,,,,,,,,,,,,,,,,,,,,,,,,,,,,,,,,,,,,,,,,,1599.4980810000561,None,,,,,,,,,,,,,,,,,,,,,,,,,,,,,,,,,,,,,,,,,,,,,,,,,,,,,,,,,style,219,89,sing,new,red,1596.4527585003525,None,y,1596.4527585003525,None,"['y', 'return']","[2.503314499743283, 3.0071669998578727]",1596.4527585003525,None,,,30YF,001,2023_Mar_31_0945,ExactRep-v3-final,2021.2.3,59.98350448049326,
,,,,,,,,,,,,89,0,89,0,,,,,,,,,,,,,,,,,,,,,,,,,,,,,,,,,,,,,,,,,,,,,,,,,1601.501785499975,None,,,,,,,,,,,,,,,,,,,,,,,,,,,,,,,,,,,,,,,,,,,,,,,,,,,,,,,,,cabin,111,90,aloud,old,white,1600.007974000182,None,n,1600.007974000182,None,"['n', 'return']","[1.019914099946618, 1.45994389988482]",1600.007974000182,None,,,30YF,001,2023_Mar_31_0945,ExactRep-v3-final,2021.2.3,59.98350448049326,
,,,,,,,,,,,,90,0,90,0,,,,,,,,,,,,,,,,,,,,,,,,,,,,,,,,,,,,,,,,,,,,,,,,,1605.0037295999937,None,,,,,,,,,,,,,,,,,,,,,,,,,,,,,,,,,,,,,,,,,,,,,,,,,,,,,,,,,street,170,91,aloud,new,white,1602.0243664002046,None,n,1602.0243664002046,None,"['n', 'return']","[2.4437454999424517, 2.9315526001155376]",1602.0243664002046,None,,,30YF,001,2023_Mar_31_0945,ExactRep-v3-final,2021.2.3,59.98350448049326,
,,,,,,,,,,,,91,0,91,0,,,,,,,,,,,,,,,,,,,,,,,,,,,,,,,,,,,,,,,,,,,,,,,,,1608.2569873002358,None,,,,,,,,,,,,,,,,,,,,,,,,,,,,,,,,,,,,,,,,,,,,,,,,,,,,,,,,,hour,165,92,sing,new,red,1605.5154936001636,None,n,1605.5154936001636,None,"['n', 'return']","[2.248434000182897, 2.6964205000549555]",1605.5154936001636,None,,,30YF,001,2023_Mar_31_0945,ExactRep-v3-final,2021.2.3,59.98350448049326,
,,,,,,,,,,,,92,0,92,0,,,,,,,,,,,,,,,,,,,,,,,,,,,,,,,,,,,,,,,,,,,,,,,,,1610.6760778999887,None,,,,,,,,,,,,,,,,,,,,,,,,,,,,,,,,,,,,,,,,,,,,,,,,,,,,,,,,,engine,60,93,silent,old,blue,1608.77123340033,None,y,1608.77123340033,None,"['y', 'return']","[1.3127178000286222, 1.8726955000311136]",1608.77123340033,None,,,30YF,001,2023_Mar_31_0945,ExactRep-v3-final,2021.2.3,59.98350448049326,
,,,,,,,,,,,,93,0,93,0,,,,,,,,,,,,,,,,,,,,,,,,,,,,,,,,,,,,,,,,,,,,,,,,,1613.0786347002722,None,,,,,,,,,,,,,,,,,,,,,,,,,,,,,,,,,,,,,,,,,,,,,,,,,,,,,,,,,meadow,163,94,sing,new,red,1611.1857120003551,None,n,1611.1857120003551,None,"['n', 'return']","[1.282196800224483, 1.8582142000086606]",1611.1857120003551,None,,,30YF,001,2023_Mar_31_0945,ExactRep-v3-final,2021.2.3,59.98350448049326,
,,,,,,,,,,,,94,0,94,0,,,,,,,,,,,,,,,,,,,,,,,,,,,,,,,,,,,,,,,,,,,,,,,,,1616.6332566002384,None,,,,,,,,,,,,,,,,,,,,,,,,,,,,,,,,,,,,,,,,,,,,,,,,,,,,,,,,,door,113,95,aloud,old,white,1613.597631300334,None,n,1613.597631300334,None,"['n', 'return']","[2.4862223002128303, 2.9981738002970815]",1613.597631300334,None,,,30YF,001,2023_Mar_31_0945,ExactRep-v3-final,2021.2.3,59.98350448049326,
,,,,,,,,,,,,95,0,95,0,,,,,,,,,,,,,,,,,,,,,,,,,,,,,,,,,,,,,,,,,,,,,,,,,1621.5535236001015,None,,,,,,,,,,,,,,,,,,,,,,,,,,,,,,,,,,,,,,,,,,,,,,,,,,,,,,,,,flesh,169,96,sing,new,red,1617.146639900282,None,n,1617.146639900282,None,"['n', 'return']","[3.777353999670595, 4.361346099991351]",1617.146639900282,None,,,30YF,001,2023_Mar_31_0945,ExactRep-v3-final,2021.2.3,59.98350448049326,
,,,,,,,,,,,,96,0,96,0,,,,,,,,,,,,,,,,,,,,,,,,,,,,,,,,,,,,,,,,,,,,,,,,,1623.7891124002635,None,,,,,,,,,,,,,,,,,,,,,,,,,,,,,,,,,,,,,,,,,,,,,,,,,,,,,,,,,square,146,97,silent,new,blue,1622.0575867001899,None,y,1622.0575867001899,None,"['y', 'return']","[1.1463610995560884, 1.698418999556452]",1622.0575867001899,None,,,30YF,001,2023_Mar_31_0945,ExactRep-v3-final,2021.2.3,59.98350448049326,
,,,,,,,,,,,,97,0,97,0,,,,,,,,,,,,,,,,,,,,,,,,,,,,,,,,,,,,,,,,,,,,,,,,,1625.9246656000614,None,,,,,,,,,,,,,,,,,,,,,,,,,,,,,,,,,,,,,,,,,,,,,,,,,,,,,,,,,camp,135,98,silent,new,blue,1624.2991259000264,None,n,1624.2991259000264,None,"['n', 'return']","[1.057018999941647, 1.5927381999790668]",1624.2991259000264,None,,,30YF,001,2023_Mar_31_0945,ExactRep-v3-final,2021.2.3,59.98350448049326,
,,,,,,,,,,,,98,0,98,0,,,,,,,,,,,,,,,,,,,,,,,,,,,,,,,,,,,,,,,,,,,,,,,,,1627.959992799908,None,,,,,,,,,,,,,,,,,,,,,,,,,,,,,,,,,,,,,,,,,,,,,,,,,,,,,,,,,chief,53,99,silent,old,blue,1626.4342726003379,None,y,1626.4342726003379,None,"['y', 'return']","[0.9937517000362277, 1.481570899952203]",1626.4342726003379,None,,,30YF,001,2023_Mar_31_0945,ExactRep-v3-final,2021.2.3,59.98350448049326,
,,,,,,,,,,,,99,0,99,0,,,,,,,,,,,,,,,,,,,,,,,,,,,,,,,,,,,,,,,,,,,,,,,,,1630.1291809002869,None,,,,,,,,,,,,,,,,,,,,,,,,,,,,,,,,,,,,,,,,,,,,,,,,,,,,,,,,,artist,45,100,silent,old,blue,1628.4698071000166,None,y,1628.4698071000166,None,"['y', 'return']","[1.0702327000908554, 1.6221839003264904]",1628.4698071000166,None,,,30YF,001,2023_Mar_31_0945,ExactRep-v3-final,2021.2.3,59.98350448049326,
,,,,,,,,,,,,100,0,100,0,,,,,,,,,,,,,,,,,,,,,,,,,,,,,,,,,,,,,,,,,,,,,,,,,1633.2485857000574,None,,,,,,,,,,,,,,,,,,,,,,,,,,,,,,,,,,,,,,,,,,,,,,,,,,,,,,,,,prayer,38,101,sing,old,red,1630.6386966002174,None,n,1630.6386966002174,None,"['n', 'return']","[2.1172553999349475, 2.565188500098884]",1630.6386966002174,None,,,30YF,001,2023_Mar_31_0945,ExactRep-v3-final,2021.2.3,59.98350448049326,
,,,,,,,,,,,,101,0,101,0,,,,,,,,,,,,,,,,,,,,,,,,,,,,,,,,,,,,,,,,,,,,,,,,,1636.8022026000544,None,,,,,,,,,,,,,,,,,,,,,,,,,,,,,,,,,,,,,,,,,,,,,,,,,,,,,,,,,salary,236,102,aloud,new,white,1633.7570934002288,None,n,1633.7570934002288,None,"['n', 'return']","[2.55882679997012, 3.0068598999641836]",1633.7570934002288,None,,,30YF,001,2023_Mar_31_0945,ExactRep-v3-final,2021.2.3,59.98350448049326,
,,,,,,,,,,,,102,0,102,0,,,,,,,,,,,,,,,,,,,,,,,,,,,,,,,,,,,,,,,,,,,,,,,,,1640.7394743999466,None,,,,,,,,,,,,,,,,,,,,,,,,,,,,,,,,,,,,,,,,,,,,,,,,,,,,,,,,,ocean,153,103,silent,new,blue,1637.309506200254,None,y,1637.309506200254,None,"['y', 'return']","[2.6864372002892196, 3.38243729993701]",1637.309506200254,None,,,30YF,001,2023_Mar_31_0945,ExactRep-v3-final,2021.2.3,59.98350448049326,
,,,,,,,,,,,,103,0,103,0,,,,,,,,,,,,,,,,,,,,,,,,,,,,,,,,,,,,,,,,,,,,,,,,,1643.3585975002497,None,,,,,,,,,,,,,,,,,,,,,,,,,,,,,,,,,,,,,,,,,,,,,,,,,,,,,,,,,money,85,104,aloud,old,white,1641.251775200013,None,n,1641.251775200013,None,"['n', 'return']","[1.3201435999944806, 2.0561697999946773]",1641.251775200013,None,,,30YF,001,2023_Mar_31_0945,ExactRep-v3-final,2021.2.3,59.98350448049326,
,,,,,,,,,,,,104,0,104,0,,,,,,,,,,,,,,,,,,,,,,,,,,,,,,,,,,,,,,,,,,,,,,,,,1647.1457664002664,None,,,,,,,,,,,,,,,,,,,,,,,,,,,,,,,,,,,,,,,,,,,,,,,,,,,,,,,,,sugar,211,105,sing,new,red,1643.882492700126,None,y,1643.882492700126,None,"['y', 'return']","[2.6014437000267208, 3.2175646000541747]",1643.882492700126,None,,,30YF,001,2023_Mar_31_0945,ExactRep-v3-final,2021.2.3,59.98350448049326,
,,,,,,,,,,,,105,0,105,0,,,,,,,,,,,,,,,,,,,,,,,,,,,,,,,,,,,,,,,,,,,,,,,,,1649.4813296003267,None,,,,,,,,,,,,,,,,,,,,,,,,,,,,,,,,,,,,,,,,,,,,,,,,,,,,,,,,,product,94,106,aloud,old,white,1647.6527404002845,None,n,1647.6527404002845,None,"['n', 'return']","[1.1352631002664566, 1.783229200169444]",1647.6527404002845,None,,,30YF,001,2023_Mar_31_0945,ExactRep-v3-final,2021.2.3,59.98350448049326,
,,,,,,,,,,,,106,0,106,0,,,,,,,,,,,,,,,,,,,,,,,,,,,,,,,,,,,,,,,,,,,,,,,,,1651.7169433999807,None,,,,,,,,,,,,,,,,,,,,,,,,,,,,,,,,,,,,,,,,,,,,,,,,,,,,,,,,,heaven,207,107,sing,new,red,1649.987127700355,None,n,1649.987127700355,None,"['n', 'return']","[1.2491095000877976, 1.6968344999477267]",1649.987127700355,None,,,30YF,001,2023_Mar_31_0945,ExactRep-v3-final,2021.2.3,59.98350448049326,
,,,,,,,,,,,,107,0,107,0,,,,,,,,,,,,,,,,,,,,,,,,,,,,,,,,,,,,,,,,,,,,,,,,,1653.9860465000384,None,,,,,,,,,,,,,,,,,,,,,,,,,,,,,,,,,,,,,,,,,,,,,,,,,,,,,,,,,forest,0,108,sing,old,red,1652.2280228999443,None,y,1652.2280228999443,None,"['y', 'return']","[1.319904400035739, 1.7198176002129912]",1652.2280228999443,None,,,30YF,001,2023_Mar_31_0945,ExactRep-v3-final,2021.2.3,59.98350448049326,
,,,,,,,,,,,,108,0,108,0,,,,,,,,,,,,,,,,,,,,,,,,,,,,,,,,,,,,,,,,,,,,,,,,,1658.1234615002759,None,,,,,,,,,,,,,,,,,,,,,,,,,,,,,,,,,,,,,,,,,,,,,,,,,,,,,,,,,shame,107,109,aloud,old,white,1654.4967936999165,None,n,1654.4967936999165,None,"['n', 'return']","[3.019187499769032, 3.579186999704689]",1654.4967936999165,None,,,30YF,001,2023_Mar_31_0945,ExactRep-v3-final,2021.2.3,59.98350448049326,
,,,,,,,,,,,,109,0,109,0,,,,,,,,,,,,,,,,,,,,,,,,,,,,,,,,,,,,,,,,,,,,,,,,,1660.4255886003375,None,,,,,,,,,,,,,,,,,,,,,,,,,,,,,,,,,,,,,,,,,,,,,,,,,,,,,,,,,dollar,133,110,silent,new,blue,1658.63628050033,None,y,1658.63628050033,None,"['y', 'return']","[1.2557874000631273, 1.7516248999163508]",1658.63628050033,None,,,30YF,001,2023_Mar_31_0945,ExactRep-v3-final,2021.2.3,59.98350448049326,
,,,,,,,,,,,,110,0,110,0,,,,,,,,,,,,,,,,,,,,,,,,,,,,,,,,,,,,,,,,,,,,,,,,,1662.6612436999567,None,,,,,,,,,,,,,,,,,,,,,,,,,,,,,,,,,,,,,,,,,,,,,,,,,,,,,,,,,pole,87,111,aloud,old,white,1660.9373662001453,None,y,1660.9373662001453,None,"['y', 'return']","[1.2025701003149152, 1.6907363999634981]",1660.9373662001453,None,,,30YF,001,2023_Mar_31_0945,ExactRep-v3-final,2021.2.3,59.98350448049326,
,,,,,,,,,,,,111,0,111,0,,,,,,,,,,,,,,,,,,,,,,,,,,,,,,,,,,,,,,,,,,,,,,,,,1665.0638586003333,None,,,,,,,,,,,,,,,,,,,,,,,,,,,,,,,,,,,,,,,,,,,,,,,,,,,,,,,,,colony,73,112,silent,old,blue,1663.1680670999922,None,n,1663.1680670999922,None,"['n', 'return']","[1.371914700139314, 1.8518886999227107]",1663.1680670999922,None,,,30YF,001,2023_Mar_31_0945,ExactRep-v3-final,2021.2.3,59.98350448049326,
,,,,,,,,,,,,112,0,112,0,,,,,,,,,,,,,,,,,,,,,,,,,,,,,,,,,,,,,,,,,,,,,,,,,1667.699709800072,None,,,,,,,,,,,,,,,,,,,,,,,,,,,,,,,,,,,,,,,,,,,,,,,,,,,,,,,,,hall,34,113,sing,old,red,1665.5741857001558,None,n,1665.5741857001558,None,"['n', 'return']","[1.70191890001297, 2.0858442997559905]",1665.5741857001558,None,,,30YF,001,2023_Mar_31_0945,ExactRep-v3-final,2021.2.3,59.98350448049326,
,,,,,,,,,,,,113,0,113,0,,,,,,,,,,,,,,,,,,,,,,,,,,,,,,,,,,,,,,,,,,,,,,,,,1673.2054159999825,None,,,,,,,,,,,,,,,,,,,,,,,,,,,,,,,,,,,,,,,,,,,,,,,,,,,,,,,,,mind,149,114,silent,new,blue,1668.2012340002693,None,n,1668.2012340002693,None,"['n', 'return']","[4.586787300184369, 4.962691599968821]",1668.2012340002693,None,,,30YF,001,2023_Mar_31_0945,ExactRep-v3-final,2021.2.3,59.98350448049326,
,,,,,,,,,,,,114,0,114,0,,,,,,,,,,,,,,,,,,,,,,,,,,,,,,,,,,,,,,,,,,,,,,,,,1675.3574113002978,None,,,,,,,,,,,,,,,,,,,,,,,,,,,,,,,,,,,,,,,,,,,,,,,,,,,,,,,,,leader,30,115,sing,old,red,1673.713550900109,None,y,1673.713550900109,None,"['y', 'return']","[1.0668182000517845, 1.6105033000931144]",1673.713550900109,None,,,30YF,001,2023_Mar_31_0945,ExactRep-v3-final,2021.2.3,59.98350448049326,
,,,,,,,,,,,,115,0,115,0,,,,,,,,,,,,,,,,,,,,,,,,,,,,,,,,,,,,,,,,,,,,,,,,,1682.4310775003396,None,,,,,,,,,,,,,,,,,,,,,,,,,,,,,,,,,,,,,,,,,,,,,,,,,,,,,,,,,truth,115,116,aloud,old,white,1675.86817610031,None,n,1675.86817610031,None,"['n', 'return']","[5.711903600022197, 6.519834699574858]",1675.86817610031,None,,,30YF,001,2023_Mar_31_0945,ExactRep-v3-final,2021.2.3,59.98350448049326,
,,,,,,,,,,,,116,0,116,0,,,,,,,,,,,,,,,,,,,,,,,,,,,,,,,,,,,,,,,,,,,,,,,,,1684.8002005000599,None,,,,,,,,,,,,,,,,,,,,,,,,,,,,,,,,,,,,,,,,,,,,,,,,,,,,,,,,,coffee,78,117,silent,old,blue,1682.9400961003266,None,y,1682.9400961003266,None,"['y', 'return']","[1.1119177001528442, 1.8239122000522912]",1682.9400961003266,None,,,30YF,001,2023_Mar_31_0945,ExactRep-v3-final,2021.2.3,59.98350448049326,
,,,,,,,,,,,,117,0,117,0,,,,,,,,,,,,,,,,,,,,,,,,,,,,,,,,,,,,,,,,,,,,,,,,,1687.9032271001488,None,,,,,,,,,,,,,,,,,,,,,,,,,,,,,,,,,,,,,,,,,,,,,,,,,,,,,,,,,mother,195,118,sing,new,red,1685.3072124002501,None,y,1685.3072124002501,None,"['y', 'return']","[1.9847339000552893, 2.552920199930668]",1685.3072124002501,None,,,30YF,001,2023_Mar_31_0945,ExactRep-v3-final,2021.2.3,59.98350448049326,
,,,,,,,,,,,,118,0,118,0,,,,,,,,,,,,,,,,,,,,,,,,,,,,,,,,,,,,,,,,,,,,,,,,,1690.2222120999359,None,,,,,,,,,,,,,,,,,,,,,,,,,,,,,,,,,,,,,,,,,,,,,,,,,,,,,,,,,month,180,119,aloud,new,white,1688.4121860000305,None,n,1688.4121860000305,None,"['n', 'return']","[1.2798105999827385, 1.775806600227952]",1688.4121860000305,None,,,30YF,001,2023_Mar_31_0945,ExactRep-v3-final,2021.2.3,59.98350448049326,
,,,,,,,,,,,,119,0,119,0,,,,,,,,,,,,,,,,,,,,,,,,,,,,,,,,,,,,,,,,,,,,,,,,,1692.874754300341,None,,,,,,,,,,,,,,,,,,,,,,,,,,,,,,,,,,,,,,,,,,,,,,,,,,,,,,,,,market,95,120,aloud,old,white,1690.7333935000934,None,y,1690.7333935000934,None,"['y', 'return']","[1.1588049996644258, 2.1026315996423364]",1690.7333935000934,None,,,30YF,001,2023_Mar_31_0945,ExactRep-v3-final,2021.2.3,59.98350448049326,
,,,,,,,,,,,,120,0,120,0,,,,,,,,,,,,,,,,,,,,,,,,,,,,,,,,,,,,,,,,,,,,,,,,,1695.6275880001485,None,,,,,,,,,,,,,,,,,,,,,,,,,,,,,,,,,,,,,,,,,,,,,,,,,,,,,,,,,present,118,121,aloud,old,white,1693.3777071000077,None,n,1693.3777071000077,None,"['n', 'return']","[1.4342720997519791, 2.2022410999052227]",1693.3777071000077,None,,,30YF,001,2023_Mar_31_0945,ExactRep-v3-final,2021.2.3,59.98350448049326,
,,,,,,,,,,,,121,0,121,0,,,,,,,,,,,,,,,,,,,,,,,,,,,,,,,,,,,,,,,,,,,,,,,,,1697.7964528999291,None,,,,,,,,,,,,,,,,,,,,,,,,,,,,,,,,,,,,,,,,,,,,,,,,,,,,,,,,,cottage,117,122,aloud,old,white,1696.128074500244,None,y,1696.128074500244,None,"['y', 'return']","[1.1559360004030168, 1.6279541002586484]",1696.128074500244,None,,,30YF,001,2023_Mar_31_0945,ExactRep-v3-final,2021.2.3,59.98350448049326,
,,,,,,,,,,,,122,0,122,0,,,,,,,,,,,,,,,,,,,,,,,,,,,,,,,,,,,,,,,,,,,,,,,,,1700.0654555000365,None,,,,,,,,,,,,,,,,,,,,,,,,,,,,,,,,,,,,,,,,,,,,,,,,,,,,,,,,,girl,200,123,aloud,new,white,1698.3100299001671,None,n,1698.3100299001671,None,"['n', 'return']","[1.134025199804455, 1.7100140997208655]",1698.3100299001671,None,,,30YF,001,2023_Mar_31_0945,ExactRep-v3-final,2021.2.3,59.98350448049326,
,,,,,,,,,,,,123,0,123,0,,,,,,,,,,,,,,,,,,,,,,,,,,,,,,,,,,,,,,,,,,,,,,,,,1702.434428700246,None,,,,,,,,,,,,,,,,,,,,,,,,,,,,,,,,,,,,,,,,,,,,,,,,,,,,,,,,,effort,54,124,silent,old,blue,1700.5761120999232,None,n,1700.5761120999232,None,"['n', 'return']","[1.2438663002103567, 1.8118742001242936]",1700.5761120999232,None,,,30YF,001,2023_Mar_31_0945,ExactRep-v3-final,2021.2.3,59.98350448049326,
,,,,,,,,,,,,124,0,124,0,,,,,,,,,,,,,,,,,,,,,,,,,,,,,,,,,,,,,,,,,,,,,,,,,1709.6583883999847,None,,,,,,,,,,,,,,,,,,,,,,,,,,,,,,,,,,,,,,,,,,,,,,,,,,,,,,,,,hotel,151,125,silent,new,blue,1702.9440947999246,None,n,1702.9440947999246,None,"['n', 'return']","[6.124251999892294, 6.675925299990922]",1702.9440947999246,None,,,30YF,001,2023_Mar_31_0945,ExactRep-v3-final,2021.2.3,59.98350448049326,
,,,,,,,,,,,,125,0,125,0,,,,,,,,,,,,,,,,,,,,,,,,,,,,,,,,,,,,,,,,,,,,,,,,,1711.6603157999925,None,,,,,,,,,,,,,,,,,,,,,,,,,,,,,,,,,,,,,,,,,,,,,,,,,,,,,,,,,death,57,126,silent,old,blue,1710.174816600047,None,n,1710.174816600047,None,"['n', 'return']","[0.9972326001152396, 1.4452204001136124]",1710.174816600047,None,,,30YF,001,2023_Mar_31_0945,ExactRep-v3-final,2021.2.3,59.98350448049326,
,,,,,,,,,,,,126,0,126,0,,,,,,,,,,,,,,,,,,,,,,,,,,,,,,,,,,,,,,,,,,,,,,,,,1714.446445000358,None,,,,,,,,,,,,,,,,,,,,,,,,,,,,,,,,,,,,,,,,,,,,,,,,,,,,,,,,,ability,82,127,aloud,old,white,1712.169878799934,None,y,1712.169878799934,None,"['y', 'return']","[1.4181238999590278, 2.2341490001417696]",1712.169878799934,None,,,30YF,001,2023_Mar_31_0945,ExactRep-v3-final,2021.2.3,59.98350448049326,
,,,,,,,,,,,,127,0,127,0,,,,,,,,,,,,,,,,,,,,,,,,,,,,,,,,,,,,,,,,,,,,,,,,,1716.6153369001113,None,,,,,,,,,,,,,,,,,,,,,,,,,,,,,,,,,,,,,,,,,,,,,,,,,,,,,,,,,wife,103,128,aloud,old,white,1714.95403179992,None,y,1714.95403179992,None,"['y', 'return']","[1.0740117998793721, 1.6261736997403204]",1714.95403179992,None,,,30YF,001,2023_Mar_31_0945,ExactRep-v3-final,2021.2.3,59.98350448049326,
,,,,,,,,,,,,128,0,128,0,,,,,,,,,,,,,,,,,,,,,,,,,,,,,,,,,,,,,,,,,,,,,,,,,1718.6506587001495,None,,,,,,,,,,,,,,,,,,,,,,,,,,,,,,,,,,,,,,,,,,,,,,,,,,,,,,,,,trouble,59,129,silent,old,blue,1717.1252143001184,None,y,1717.1252143001184,None,"['y', 'return']","[1.0069957999512553, 1.4788383999839425]",1717.1252143001184,None,,,30YF,001,2023_Mar_31_0945,ExactRep-v3-final,2021.2.3,59.98350448049326,
,,,,,,,,,,,,129,0,129,0,,,,,,,,,,,,,,,,,,,,,,,,,,,,,,,,,,,,,,,,,,,,,,,,,1721.2517515001819,None,,,,,,,,,,,,,,,,,,,,,,,,,,,,,,,,,,,,,,,,,,,,,,,,,,,,,,,,,priest,29,130,sing,old,red,1719.1612547002733,None,n,1719.1612547002733,None,"['n', 'return']","[1.6267609000205994, 2.0426791002973914]",1719.1612547002733,None,,,30YF,001,2023_Mar_31_0945,ExactRep-v3-final,2021.2.3,59.98350448049326,
,,,,,,,,,,,,130,0,130,0,,,,,,,,,,,,,,,,,,,,,,,,,,,,,,,,,,,,,,,,,,,,,,,,,1723.605714400299,None,,,,,,,,,,,,,,,,,,,,,,,,,,,,,,,,,,,,,,,,,,,,,,,,,,,,,,,,,fire,31,131,sing,old,red,1721.7744529000483,None,y,1721.7744529000483,None,"['y', 'return']","[1.2536379001103342, 1.7975873001851141]",1721.7744529000483,None,,,30YF,001,2023_Mar_31_0945,ExactRep-v3-final,2021.2.3,59.98350448049326,
