trials_fam.thisRepN,trials_fam.thisTrialN,trials_fam.thisN,trials_fam.thisIndex,trials_prc.thisRepN,trials_prc.thisTrialN,trials_prc.thisN,trials_prc.thisIndex,StudyLoop.thisRepN,StudyLoop.thisTrialN,StudyLoop.thisN,StudyLoop.thisIndex,TestLoop.thisRepN,TestLoop.thisTrialN,TestLoop.thisN,TestLoop.thisIndex,text_colortest.started,text_colortest.stopped,key_colortest.keys,key_colortest.rt,key_colortest.started,key_colortest.stopped,textCondition.started,textCondition.stopped,keyCondition.keys,keyCondition.rt,keyCondition.started,keyCondition.stopped,Condition_between,Condition_counterbal,keyWelcome.keys,keyWelcome.rt,keyWelcome.started,keyWelcome.stopped,welcome_a.started,welcome_a.stopped,welcome_b.started,welcome_b.stopped,welcome_c.started,welcome_c.stopped,welcome_d.started,welcome_d.stopped,welcome_e.started,welcome_e.stopped,welcome_f.started,welcome_f.stopped,key_resp_fam_inst.keys,key_resp_fam_inst.rt,key_resp_fam_inst.started,key_resp_fam_inst.stopped,fam_a.started,fam_a.stopped,fam_b.started,fam_b.stopped,fam_c.started,fam_c.stopped,fam_d.started,fam_d.stopped,fam_e.started,fam_e.stopped,fam_f.started,fam_f.stopped,text_famil.started,text_famil.stopped,textBlank500.started,textBlank500.stopped,key_resp_prc_inst.keys,key_resp_prc_inst.rt,key_resp_prc_inst.started,key_resp_prc_inst.stopped,prac_a.started,prac_a.stopped,prac_b.started,prac_b.stopped,prac_c.started,prac_c.stopped,prac_d.started,prac_d.stopped,prac_e.started,prac_e.stopped,prac_f.started,prac_f.stopped,text_prc_trial.started,text_prc_trial.stopped,key_resp_study_inst.keys,key_resp_study_inst.rt,key_resp_study_inst.started,key_resp_study_inst.stopped,crit_a.started,crit_a.stopped,crit_b.started,crit_b.stopped,crit_c.started,crit_c.stopped,crit_d.started,crit_d.stopped,crit_e.started,crit_e.stopped,crit_f.started,crit_f.stopped,study_word,study_num,study_order,study_type,word_color,textStudy.started,textStudy.stopped,keyStudy.keys,keyStudy.started,keyStudy.stopped,post_study.started,post_study.stopped,key_resp_post_study.keys,key_resp_post_study.rt,key_resp_post_study.started,key_resp_post_study.stopped,test_inst.started,test_inst.stopped,key_resp_test_inst.keys,key_resp_test_inst.rt,key_resp_test_inst.started,key_resp_test_inst.stopped,test_word,test_num,test_order,test_condition,old_new_test,word_color_test,textConf.started,textConf.stopped,Participant Response,textInput.started,textInput.stopped,keyResp.keys,keyResp.rt,keyResp.started,keyResp.stopped,textEnd.started,textEnd.stopped,participant,session,date,expName,psychopyVersion,frameRate,
,,,,,,,,,,,,,,,,21.18561360007152,None,n,0.6177866002544761,21.18561360007152,None,,,,,,,,,,,,,,,,,,,,,,,,,,,,,,,,,,,,,,,,,,,,,,,,,,,,,,,,,,,,,,,,,,,,,,,,,,,,,,,,,,,,,,,,,,,,,,,,,,,,,,,,,,,,,,,,,,,,,,31NA,001,2023_Mar_31_1024,ExactRep-v3-final,2021.2.3,59.9658074735719,
,,,,,,,,,,,,,,,,,,,,,,21.82917969999835,None,a,0.5581984999589622,21.82917969999835,None,,,,,,,,,,,,,,,,,,,,,,,,,,,,,,,,,,,,,,,,,,,,,,,,,,,,,,,,,,,,,,,,,,,,,,,,,,,,,,,,,,,,,,,,,,,,,,,,,,,,,,,,,,,,,,,,31NA,001,2023_Mar_31_1024,ExactRep-v3-final,2021.2.3,59.9658074735719,
,,,,,,,,,,,,,,,,,,,,,,,,,,,,whitefoils,a,space,452.9448253000155,32.52295619994402,None,,,,,,,,,,,,,,,,,,,,,,,,,,,,,,,,,,,,,,,,,,,,,,,,,,,,,,,,,,,,,,,,,,,,,,,,,,,,,,,,,,,,,,,,,,,,,,,,,,,,,,,,,,31NA,001,2023_Mar_31_1024,ExactRep-v3-final,2021.2.3,59.9658074735719,
,,,,,,,,,,,,,,,,,,,,,,,,,,,,,,,,,,22.55431569973007,None,22.55431569973007,None,22.55431569973007,None,22.55431569973007,None,22.55431569973007,None,22.55431569973007,None,space,22.927554700057954,495.66030310001224,None,,,,,,,,,,,,,,,,,,,,,,,,,,,,,,,,,,,,,,,,,,,,,,,,,,,,,,,,,,,,,,,,,,,,,,,,,,,,,,,,,,,,,,,,,,31NA,001,2023_Mar_31_1024,ExactRep-v3-final,2021.2.3,59.9658074735719,
0,0,0,0,,,,,,,,,,,,,,,,,,,,,,,,,,,,,,,,,,,,,,,,,,,,,,,485.6707997000776,None,485.6707997000776,None,485.6707997000776,None,485.6707997000776,None,485.6707997000776,None,485.6707997000776,None,518.6808103998192,None,520.6782307000831,None,,,,,,,,,,,,,,,,,,,,,,,,,,,,,,,,,,,,,,,,,,,,,,,,,,,,,,,,,,,,,,,,,,,,,,,,,,31NA,001,2023_Mar_31_1024,ExactRep-v3-final,2021.2.3,59.9658074735719,
1,0,1,0,,,,,,,,,,,,,,,,,,,,,,,,,,,,,,,,,,,,,,,,,,,,,,,,,,,,,,,,,,,521.1889041000977,None,523.19746509986,None,,,,,,,,,,,,,,,,,,,,,,,,,,,,,,,,,,,,,,,,,,,,,,,,,,,,,,,,,,,,,,,,,,,,,,,,,,31NA,001,2023_Mar_31_1024,ExactRep-v3-final,2021.2.3,59.9658074735719,
2,0,2,0,,,,,,,,,,,,,,,,,,,,,,,,,,,,,,,,,,,,,,,,,,,,,,,,,,,,,,,,,,,523.6979616000317,None,525.6997847999446,None,,,,,,,,,,,,,,,,,,,,,,,,,,,,,,,,,,,,,,,,,,,,,,,,,,,,,,,,,,,,,,,,,,,,,,,,,,31NA,001,2023_Mar_31_1024,ExactRep-v3-final,2021.2.3,59.9658074735719,
3,0,3,0,,,,,,,,,,,,,,,,,,,,,,,,,,,,,,,,,,,,,,,,,,,,,,,,,,,,,,,,,,,526.2024381998926,None,528.2025211998262,None,,,,,,,,,,,,,,,,,,,,,,,,,,,,,,,,,,,,,,,,,,,,,,,,,,,,,,,,,,,,,,,,,,,,,,,,,,31NA,001,2023_Mar_31_1024,ExactRep-v3-final,2021.2.3,59.9658074735719,
4,0,4,0,,,,,,,,,,,,,,,,,,,,,,,,,,,,,,,,,,,,,,,,,,,,,,,,,,,,,,,,,,,528.7056244998239,None,530.7051142998971,None,,,,,,,,,,,,,,,,,,,,,,,,,,,,,,,,,,,,,,,,,,,,,,,,,,,,,,,,,,,,,,,,,,,,,,,,,,31NA,001,2023_Mar_31_1024,ExactRep-v3-final,2021.2.3,59.9658074735719,
5,0,5,0,,,,,,,,,,,,,,,,,,,,,,,,,,,,,,,,,,,,,,,,,,,,,,,,,,,,,,,,,,,531.2229695999995,None,533.2240892997943,None,,,,,,,,,,,,,,,,,,,,,,,,,,,,,,,,,,,,,,,,,,,,,,,,,,,,,,,,,,,,,,,,,,,,,,,,,,31NA,001,2023_Mar_31_1024,ExactRep-v3-final,2021.2.3,59.9658074735719,
6,0,6,0,,,,,,,,,,,,,,,,,,,,,,,,,,,,,,,,,,,,,,,,,,,,,,,,,,,,,,,,,,,533.724434599746,None,535.7265734998509,None,,,,,,,,,,,,,,,,,,,,,,,,,,,,,,,,,,,,,,,,,,,,,,,,,,,,,,,,,,,,,,,,,,,,,,,,,,31NA,001,2023_Mar_31_1024,ExactRep-v3-final,2021.2.3,59.9658074735719,
7,0,7,0,,,,,,,,,,,,,,,,,,,,,,,,,,,,,,,,,,,,,,,,,,,,,,,,,,,,,,,,,,,536.2284750998951,None,538.2290918999352,None,,,,,,,,,,,,,,,,,,,,,,,,,,,,,,,,,,,,,,,,,,,,,,,,,,,,,,,,,,,,,,,,,,,,,,,,,,31NA,001,2023_Mar_31_1024,ExactRep-v3-final,2021.2.3,59.9658074735719,
8,0,8,0,,,,,,,,,,,,,,,,,,,,,,,,,,,,,,,,,,,,,,,,,,,,,,,,,,,,,,,,,,,538.7296154000796,None,540.7314621997066,None,,,,,,,,,,,,,,,,,,,,,,,,,,,,,,,,,,,,,,,,,,,,,,,,,,,,,,,,,,,,,,,,,,,,,,,,,,31NA,001,2023_Mar_31_1024,ExactRep-v3-final,2021.2.3,59.9658074735719,
9,0,9,0,,,,,,,,,,,,,,,,,,,,,,,,,,,,,,,,,,,,,,,,,,,,,,,,,,,,,,,,,,,541.233674199786,None,543.2339090998285,None,,,,,,,,,,,,,,,,,,,,,,,,,,,,,,,,,,,,,,,,,,,,,,,,,,,,,,,,,,,,,,,,,,,,,,,,,,31NA,001,2023_Mar_31_1024,ExactRep-v3-final,2021.2.3,59.9658074735719,
10,0,10,0,,,,,,,,,,,,,,,,,,,,,,,,,,,,,,,,,,,,,,,,,,,,,,,,,,,,,,,,,,,543.7346660997719,None,545.7364467000589,None,,,,,,,,,,,,,,,,,,,,,,,,,,,,,,,,,,,,,,,,,,,,,,,,,,,,,,,,,,,,,,,,,,,,,,,,,,31NA,001,2023_Mar_31_1024,ExactRep-v3-final,2021.2.3,59.9658074735719,
11,0,11,0,,,,,,,,,,,,,,,,,,,,,,,,,,,,,,,,,,,,,,,,,,,,,,,,,,,,,,,,,,,546.2409537998028,None,548.2556113000028,None,,,,,,,,,,,,,,,,,,,,,,,,,,,,,,,,,,,,,,,,,,,,,,,,,,,,,,,,,,,,,,,,,,,,,,,,,,31NA,001,2023_Mar_31_1024,ExactRep-v3-final,2021.2.3,59.9658074735719,
12,0,12,0,,,,,,,,,,,,,,,,,,,,,,,,,,,,,,,,,,,,,,,,,,,,,,,,,,,,,,,,,,,548.756250299979,None,550.7581706997007,None,,,,,,,,,,,,,,,,,,,,,,,,,,,,,,,,,,,,,,,,,,,,,,,,,,,,,,,,,,,,,,,,,,,,,,,,,,31NA,001,2023_Mar_31_1024,ExactRep-v3-final,2021.2.3,59.9658074735719,
13,0,13,0,,,,,,,,,,,,,,,,,,,,,,,,,,,,,,,,,,,,,,,,,,,,,,,,,,,,,,,,,,,551.2740027997643,None,553.2774888998829,None,,,,,,,,,,,,,,,,,,,,,,,,,,,,,,,,,,,,,,,,,,,,,,,,,,,,,,,,,,,,,,,,,,,,,,,,,,31NA,001,2023_Mar_31_1024,ExactRep-v3-final,2021.2.3,59.9658074735719,
14,0,14,0,,,,,,,,,,,,,,,,,,,,,,,,,,,,,,,,,,,,,,,,,,,,,,,,,,,,,,,,,,,553.7776937996969,None,555.7798254000954,None,,,,,,,,,,,,,,,,,,,,,,,,,,,,,,,,,,,,,,,,,,,,,,,,,,,,,,,,,,,,,,,,,,,,,,,,,,31NA,001,2023_Mar_31_1024,ExactRep-v3-final,2021.2.3,59.9658074735719,
,,,,,,,,,,,,,,,,,,,,,,,,,,,,,,,,,,,,,,,,,,,,,,,,,,,,,,,,,,,,,,,,,,space,27.154723499901593,566.393224099651,None,,,,,,,,,,,,,,,,,,,,,,,,,,,,,,,,,,,,,,,,,,,,,,,,,,,,,,,,,,,,,,,,,,,,,,31NA,001,2023_Mar_31_1024,ExactRep-v3-final,2021.2.3,59.9658074735719,
,,,,0,0,0,0,,,,,,,,,,,,,,,,,,,,,,,,,,,,,,,,,,,,,,,,,,,,,,,,,,,,,,,,,595.6366396998055,None,,,,,556.4371799998917,None,556.4371799998917,None,556.4371799998917,None,556.4371799998917,None,556.4371799998917,None,556.4371799998917,None,593.6287906998768,None,,,,,,,,,,,,,,,,,,,,,,,,,,,,,,,,,,,,,,,,,,,,,,,,,,,,,,,,31NA,001,2023_Mar_31_1024,ExactRep-v3-final,2021.2.3,59.9658074735719,
,,,,1,0,1,0,,,,,,,,,,,,,,,,,,,,,,,,,,,,,,,,,,,,,,,,,,,,,,,,,,,,,,,,,598.1389966998249,None,,,,,,,,,,,,,,,,,596.1371359997429,None,,,,,,,,,,,,,,,,,,,,,,,,,,,,,,,,,,,,,,,,,,,,,,,,,,,,,,,,31NA,001,2023_Mar_31_1024,ExactRep-v3-final,2021.2.3,59.9658074735719,
,,,,2,0,2,0,,,,,,,,,,,,,,,,,,,,,,,,,,,,,,,,,,,,,,,,,,,,,,,,,,,,,,,,,600.6415726998821,None,,,,,,,,,,,,,,,,,598.6395292999223,None,,,,,,,,,,,,,,,,,,,,,,,,,,,,,,,,,,,,,,,,,,,,,,,,,,,,,,,,31NA,001,2023_Mar_31_1024,ExactRep-v3-final,2021.2.3,59.9658074735719,
,,,,3,0,3,0,,,,,,,,,,,,,,,,,,,,,,,,,,,,,,,,,,,,,,,,,,,,,,,,,,,,,,,,,603.1438664998859,None,,,,,,,,,,,,,,,,,601.1421236996539,None,,,,,,,,,,,,,,,,,,,,,,,,,,,,,,,,,,,,,,,,,,,,,,,,,,,,,,,,31NA,001,2023_Mar_31_1024,ExactRep-v3-final,2021.2.3,59.9658074735719,
,,,,4,0,4,0,,,,,,,,,,,,,,,,,,,,,,,,,,,,,,,,,,,,,,,,,,,,,,,,,,,,,,,,,605.6464292998426,None,,,,,,,,,,,,,,,,,603.6444651996717,None,,,,,,,,,,,,,,,,,,,,,,,,,,,,,,,,,,,,,,,,,,,,,,,,,,,,,,,,31NA,001,2023_Mar_31_1024,ExactRep-v3-final,2021.2.3,59.9658074735719,
,,,,5,0,5,0,,,,,,,,,,,,,,,,,,,,,,,,,,,,,,,,,,,,,,,,,,,,,,,,,,,,,,,,,608.1491375998594,None,,,,,,,,,,,,,,,,,606.1469379998744,None,,,,,,,,,,,,,,,,,,,,,,,,,,,,,,,,,,,,,,,,,,,,,,,,,,,,,,,,31NA,001,2023_Mar_31_1024,ExactRep-v3-final,2021.2.3,59.9658074735719,
,,,,6,0,6,0,,,,,,,,,,,,,,,,,,,,,,,,,,,,,,,,,,,,,,,,,,,,,,,,,,,,,,,,,610.6516474997625,None,,,,,,,,,,,,,,,,,608.6496655996889,None,,,,,,,,,,,,,,,,,,,,,,,,,,,,,,,,,,,,,,,,,,,,,,,,,,,,,,,,31NA,001,2023_Mar_31_1024,ExactRep-v3-final,2021.2.3,59.9658074735719,
,,,,7,0,7,0,,,,,,,,,,,,,,,,,,,,,,,,,,,,,,,,,,,,,,,,,,,,,,,,,,,,,,,,,613.1538921999745,None,,,,,,,,,,,,,,,,,611.152121799998,None,,,,,,,,,,,,,,,,,,,,,,,,,,,,,,,,,,,,,,,,,,,,,,,,,,,,,,,,31NA,001,2023_Mar_31_1024,ExactRep-v3-final,2021.2.3,59.9658074735719,
,,,,8,0,8,0,,,,,,,,,,,,,,,,,,,,,,,,,,,,,,,,,,,,,,,,,,,,,,,,,,,,,,,,,615.6565823000856,None,,,,,,,,,,,,,,,,,613.6544574000873,None,,,,,,,,,,,,,,,,,,,,,,,,,,,,,,,,,,,,,,,,,,,,,,,,,,,,,,,,31NA,001,2023_Mar_31_1024,ExactRep-v3-final,2021.2.3,59.9658074735719,
,,,,9,0,9,0,,,,,,,,,,,,,,,,,,,,,,,,,,,,,,,,,,,,,,,,,,,,,,,,,,,,,,,,,618.1590097998269,None,,,,,,,,,,,,,,,,,616.1570904999971,None,,,,,,,,,,,,,,,,,,,,,,,,,,,,,,,,,,,,,,,,,,,,,,,,,,,,,,,,31NA,001,2023_Mar_31_1024,ExactRep-v3-final,2021.2.3,59.9658074735719,
,,,,10,0,10,0,,,,,,,,,,,,,,,,,,,,,,,,,,,,,,,,,,,,,,,,,,,,,,,,,,,,,,,,,620.6615630998276,None,,,,,,,,,,,,,,,,,618.6595673998818,None,,,,,,,,,,,,,,,,,,,,,,,,,,,,,,,,,,,,,,,,,,,,,,,,,,,,,,,,31NA,001,2023_Mar_31_1024,ExactRep-v3-final,2021.2.3,59.9658074735719,
,,,,11,0,11,0,,,,,,,,,,,,,,,,,,,,,,,,,,,,,,,,,,,,,,,,,,,,,,,,,,,,,,,,,623.1640881998464,None,,,,,,,,,,,,,,,,,621.16171939997,None,,,,,,,,,,,,,,,,,,,,,,,,,,,,,,,,,,,,,,,,,,,,,,,,,,,,,,,,31NA,001,2023_Mar_31_1024,ExactRep-v3-final,2021.2.3,59.9658074735719,
,,,,12,0,12,0,,,,,,,,,,,,,,,,,,,,,,,,,,,,,,,,,,,,,,,,,,,,,,,,,,,,,,,,,625.666530800052,None,,,,,,,,,,,,,,,,,623.664595299866,None,,,,,,,,,,,,,,,,,,,,,,,,,,,,,,,,,,,,,,,,,,,,,,,,,,,,,,,,31NA,001,2023_Mar_31_1024,ExactRep-v3-final,2021.2.3,59.9658074735719,
,,,,13,0,13,0,,,,,,,,,,,,,,,,,,,,,,,,,,,,,,,,,,,,,,,,,,,,,,,,,,,,,,,,,628.169033699669,None,,,,,,,,,,,,,,,,,626.1669350997545,None,,,,,,,,,,,,,,,,,,,,,,,,,,,,,,,,,,,,,,,,,,,,,,,,,,,,,,,,31NA,001,2023_Mar_31_1024,ExactRep-v3-final,2021.2.3,59.9658074735719,
,,,,14,0,14,0,,,,,,,,,,,,,,,,,,,,,,,,,,,,,,,,,,,,,,,,,,,,,,,,,,,,,,,,,630.6716372999363,None,,,,,,,,,,,,,,,,,628.6695727999322,None,,,,,,,,,,,,,,,,,,,,,,,,,,,,,,,,,,,,,,,,,,,,,,,,,,,,,,,,31NA,001,2023_Mar_31_1024,ExactRep-v3-final,2021.2.3,59.9658074735719,
,,,,,,,,,,,,,,,,,,,,,,,,,,,,,,,,,,,,,,,,,,,,,,,,,,,,,,,,,,,,,,,,,,,,,,,,,,,,,,,,,,,,space,23.553714000154287,641.2824611999094,None,,,,,,,,,,,,,,,,,,,,,,,,,,,,,,,,,,,,,,,,,,,,,,,,,,,,31NA,001,2023_Mar_31_1024,ExactRep-v3-final,2021.2.3,59.9658074735719,
,,,,,,,,0,0,0,0,,,,,,,,,,,,,,,,,,,,,,,,,,,,,,,,,,,,,,,,,,,,,,,,,,,,,666.9077622997575,None,,,,,,,,,,,,,,,,,,,,,,,631.3438744996674,None,631.3438744996674,None,631.3438744996674,None,631.3438744996674,None,631.3438744996674,None,631.3438744996674,None,sea,55,1,silent,blue,664.8978514000773,None,None,664.8978514000773,None,,,,,,,,,,,,,,,,,,,,,,,,,,,,,,31NA,001,2023_Mar_31_1024,ExactRep-v3-final,2021.2.3,59.9658074735719,
,,,,,,,,1,0,1,0,,,,,,,,,,,,,,,,,,,,,,,,,,,,,,,,,,,,,,,,,,,,,,,,,,,,,669.4099324997514,None,,,,,,,,,,,,,,,,,,,,,,,,,,,,,,,,,,,air,42,2,silent,blue,667.409639599733,None,None,667.409639599733,None,,,,,,,,,,,,,,,,,,,,,,,,,,,,,,31NA,001,2023_Mar_31_1024,ExactRep-v3-final,2021.2.3,59.9658074735719,
,,,,,,,,2,0,2,0,,,,,,,,,,,,,,,,,,,,,,,,,,,,,,,,,,,,,,,,,,,,,,,,,,,,,671.9295111997053,None,,,,,,,,,,,,,,,,,,,,,,,,,,,,,,,,,,,health,11,3,sing,white,669.9184224000201,None,None,669.9184224000201,None,,,,,,,,,,,,,,,,,,,,,,,,,,,,,,31NA,001,2023_Mar_31_1024,ExactRep-v3-final,2021.2.3,59.9658074735719,
,,,,,,,,3,0,3,0,,,,,,,,,,,,,,,,,,,,,,,,,,,,,,,,,,,,,,,,,,,,,,,,,,,,,674.4491790998727,None,,,,,,,,,,,,,,,,,,,,,,,,,,,,,,,,,,,speech,10,4,sing,white,672.4373858999461,None,None,672.4373858999461,None,,,,,,,,,,,,,,,,,,,,,,,,,,,,,,31NA,001,2023_Mar_31_1024,ExactRep-v3-final,2021.2.3,59.9658074735719,
,,,,,,,,4,0,4,0,,,,,,,,,,,,,,,,,,,,,,,,,,,,,,,,,,,,,,,,,,,,,,,,,,,,,676.96766439965,None,,,,,,,,,,,,,,,,,,,,,,,,,,,,,,,,,,,theory,108,5,aloud,red,674.9547921000049,None,None,674.9547921000049,None,,,,,,,,,,,,,,,,,,,,,,,,,,,,,,31NA,001,2023_Mar_31_1024,ExactRep-v3-final,2021.2.3,59.9658074735719,
,,,,,,,,5,0,5,0,,,,,,,,,,,,,,,,,,,,,,,,,,,,,,,,,,,,,,,,,,,,,,,,,,,,,679.486972599756,None,,,,,,,,,,,,,,,,,,,,,,,,,,,,,,,,,,,child,14,6,sing,white,677.4724401999265,None,None,677.4724401999265,None,,,,,,,,,,,,,,,,,,,,,,,,,,,,,,31NA,001,2023_Mar_31_1024,ExactRep-v3-final,2021.2.3,59.9658074735719,
,,,,,,,,6,0,6,0,,,,,,,,,,,,,,,,,,,,,,,,,,,,,,,,,,,,,,,,,,,,,,,,,,,,,682.0062154000625,None,,,,,,,,,,,,,,,,,,,,,,,,,,,,,,,,,,,memory,19,7,sing,white,679.9906151997857,None,None,679.9906151997857,None,,,,,,,,,,,,,,,,,,,,,,,,,,,,,,31NA,001,2023_Mar_31_1024,ExactRep-v3-final,2021.2.3,59.9658074735719,
,,,,,,,,7,0,7,0,,,,,,,,,,,,,,,,,,,,,,,,,,,,,,,,,,,,,,,,,,,,,,,,,,,,,684.5083930999972,None,,,,,,,,,,,,,,,,,,,,,,,,,,,,,,,,,,,length,47,8,silent,blue,682.5064807999879,None,None,682.5064807999879,None,,,,,,,,,,,,,,,,,,,,,,,,,,,,,,31NA,001,2023_Mar_31_1024,ExactRep-v3-final,2021.2.3,59.9658074735719,
,,,,,,,,8,0,8,0,,,,,,,,,,,,,,,,,,,,,,,,,,,,,,,,,,,,,,,,,,,,,,,,,,,,,687.01123799989,None,,,,,,,,,,,,,,,,,,,,,,,,,,,,,,,,,,,clock,58,9,silent,blue,685.0092400000431,None,None,685.0092400000431,None,,,,,,,,,,,,,,,,,,,,,,,,,,,,,,31NA,001,2023_Mar_31_1024,ExactRep-v3-final,2021.2.3,59.9658074735719,
,,,,,,,,9,0,9,0,,,,,,,,,,,,,,,,,,,,,,,,,,,,,,,,,,,,,,,,,,,,,,,,,,,,,689.5302677997388,None,,,,,,,,,,,,,,,,,,,,,,,,,,,,,,,,,,,teacher,13,10,sing,white,687.5145972999744,None,None,687.5145972999744,None,,,,,,,,,,,,,,,,,,,,,,,,,,,,,,31NA,001,2023_Mar_31_1024,ExactRep-v3-final,2021.2.3,59.9658074735719,
,,,,,,,,10,0,10,0,,,,,,,,,,,,,,,,,,,,,,,,,,,,,,,,,,,,,,,,,,,,,,,,,,,,,692.0329807000235,None,,,,,,,,,,,,,,,,,,,,,,,,,,,,,,,,,,,door,117,11,aloud,red,690.0317333997227,None,None,690.0317333997227,None,,,,,,,,,,,,,,,,,,,,,,,,,,,,,,31NA,001,2023_Mar_31_1024,ExactRep-v3-final,2021.2.3,59.9658074735719,
,,,,,,,,11,0,11,0,,,,,,,,,,,,,,,,,,,,,,,,,,,,,,,,,,,,,,,,,,,,,,,,,,,,,694.5519626000896,None,,,,,,,,,,,,,,,,,,,,,,,,,,,,,,,,,,,sugar,60,12,silent,blue,692.540581099689,None,None,692.540581099689,None,,,,,,,,,,,,,,,,,,,,,,,,,,,,,,31NA,001,2023_Mar_31_1024,ExactRep-v3-final,2021.2.3,59.9658074735719,
,,,,,,,,12,0,12,0,,,,,,,,,,,,,,,,,,,,,,,,,,,,,,,,,,,,,,,,,,,,,,,,,,,,,697.0543597000651,None,,,,,,,,,,,,,,,,,,,,,,,,,,,,,,,,,,,breast,26,13,sing,white,695.0533249997534,None,None,695.0533249997534,None,,,,,,,,,,,,,,,,,,,,,,,,,,,,,,31NA,001,2023_Mar_31_1024,ExactRep-v3-final,2021.2.3,59.9658074735719,
,,,,,,,,13,0,13,0,,,,,,,,,,,,,,,,,,,,,,,,,,,,,,,,,,,,,,,,,,,,,,,,,,,,,699.5737887998112,None,,,,,,,,,,,,,,,,,,,,,,,,,,,,,,,,,,,wine,109,14,aloud,red,697.5665194997564,None,None,697.5665194997564,None,,,,,,,,,,,,,,,,,,,,,,,,,,,,,,31NA,001,2023_Mar_31_1024,ExactRep-v3-final,2021.2.3,59.9658074735719,
,,,,,,,,14,0,14,0,,,,,,,,,,,,,,,,,,,,,,,,,,,,,,,,,,,,,,,,,,,,,,,,,,,,,702.0927082998678,None,,,,,,,,,,,,,,,,,,,,,,,,,,,,,,,,,,,lad,28,15,sing,white,700.0795356999151,None,None,700.0795356999151,None,,,,,,,,,,,,,,,,,,,,,,,,,,,,,,31NA,001,2023_Mar_31_1024,ExactRep-v3-final,2021.2.3,59.9658074735719,
,,,,,,,,15,0,15,0,,,,,,,,,,,,,,,,,,,,,,,,,,,,,,,,,,,,,,,,,,,,,,,,,,,,,704.596094999928,None,,,,,,,,,,,,,,,,,,,,,,,,,,,,,,,,,,,silence,39,16,silent,blue,702.5933324997313,None,None,702.5933324997313,None,,,,,,,,,,,,,,,,,,,,,,,,,,,,,,31NA,001,2023_Mar_31_1024,ExactRep-v3-final,2021.2.3,59.9658074735719,
,,,,,,,,16,0,16,0,,,,,,,,,,,,,,,,,,,,,,,,,,,,,,,,,,,,,,,,,,,,,,,,,,,,,707.1147297997959,None,,,,,,,,,,,,,,,,,,,,,,,,,,,,,,,,,,,fun,77,17,silent,blue,705.1051619998179,None,None,705.1051619998179,None,,,,,,,,,,,,,,,,,,,,,,,,,,,,,,31NA,001,2023_Mar_31_1024,ExactRep-v3-final,2021.2.3,59.9658074735719,
,,,,,,,,17,0,17,0,,,,,,,,,,,,,,,,,,,,,,,,,,,,,,,,,,,,,,,,,,,,,,,,,,,,,709.6338486000896,None,,,,,,,,,,,,,,,,,,,,,,,,,,,,,,,,,,,girl,110,18,aloud,red,707.6191054000519,None,None,707.6191054000519,None,,,,,,,,,,,,,,,,,,,,,,,,,,,,,,31NA,001,2023_Mar_31_1024,ExactRep-v3-final,2021.2.3,59.9658074735719,
,,,,,,,,18,0,18,0,,,,,,,,,,,,,,,,,,,,,,,,,,,,,,,,,,,,,,,,,,,,,,,,,,,,,712.1361479996704,None,,,,,,,,,,,,,,,,,,,,,,,,,,,,,,,,,,,hotel,16,19,sing,white,710.1343326997012,None,None,710.1343326997012,None,,,,,,,,,,,,,,,,,,,,,,,,,,,,,,31NA,001,2023_Mar_31_1024,ExactRep-v3-final,2021.2.3,59.9658074735719,
,,,,,,,,19,0,19,0,,,,,,,,,,,,,,,,,,,,,,,,,,,,,,,,,,,,,,,,,,,,,,,,,,,,,714.6386724999174,None,,,,,,,,,,,,,,,,,,,,,,,,,,,,,,,,,,,corner,61,20,silent,blue,712.6364293000661,None,None,712.6364293000661,None,,,,,,,,,,,,,,,,,,,,,,,,,,,,,,31NA,001,2023_Mar_31_1024,ExactRep-v3-final,2021.2.3,59.9658074735719,
,,,,,,,,20,0,20,0,,,,,,,,,,,,,,,,,,,,,,,,,,,,,,,,,,,,,,,,,,,,,,,,,,,,,717.1578905996867,None,,,,,,,,,,,,,,,,,,,,,,,,,,,,,,,,,,,vessel,49,21,silent,blue,715.1498460997827,None,None,715.1498460997827,None,,,,,,,,,,,,,,,,,,,,,,,,,,,,,,31NA,001,2023_Mar_31_1024,ExactRep-v3-final,2021.2.3,59.9658074735719,
,,,,,,,,21,0,21,0,,,,,,,,,,,,,,,,,,,,,,,,,,,,,,,,,,,,,,,,,,,,,,,,,,,,,719.6617135000415,None,,,,,,,,,,,,,,,,,,,,,,,,,,,,,,,,,,,woman,23,22,sing,white,717.6583970999345,None,None,717.6583970999345,None,,,,,,,,,,,,,,,,,,,,,,,,,,,,,,31NA,001,2023_Mar_31_1024,ExactRep-v3-final,2021.2.3,59.9658074735719,
,,,,,,,,22,0,22,0,,,,,,,,,,,,,,,,,,,,,,,,,,,,,,,,,,,,,,,,,,,,,,,,,,,,,722.1802900000475,None,,,,,,,,,,,,,,,,,,,,,,,,,,,,,,,,,,,street,62,23,silent,blue,720.1643018997274,None,None,720.1643018997274,None,,,,,,,,,,,,,,,,,,,,,,,,,,,,,,31NA,001,2023_Mar_31_1024,ExactRep-v3-final,2021.2.3,59.9658074735719,
,,,,,,,,23,0,23,0,,,,,,,,,,,,,,,,,,,,,,,,,,,,,,,,,,,,,,,,,,,,,,,,,,,,,724.682304199785,None,,,,,,,,,,,,,,,,,,,,,,,,,,,,,,,,,,,river,40,24,silent,blue,722.6802069996484,None,None,722.6802069996484,None,,,,,,,,,,,,,,,,,,,,,,,,,,,,,,31NA,001,2023_Mar_31_1024,ExactRep-v3-final,2021.2.3,59.9658074735719,
,,,,,,,,24,0,24,0,,,,,,,,,,,,,,,,,,,,,,,,,,,,,,,,,,,,,,,,,,,,,,,,,,,,,727.1846219999716,None,,,,,,,,,,,,,,,,,,,,,,,,,,,,,,,,,,,priest,99,25,aloud,red,725.1844502999447,None,None,725.1844502999447,None,,,,,,,,,,,,,,,,,,,,,,,,,,,,,,31NA,001,2023_Mar_31_1024,ExactRep-v3-final,2021.2.3,59.9658074735719,
,,,,,,,,25,0,25,0,,,,,,,,,,,,,,,,,,,,,,,,,,,,,,,,,,,,,,,,,,,,,,,,,,,,,729.7037108000368,None,,,,,,,,,,,,,,,,,,,,,,,,,,,,,,,,,,,origin,18,26,sing,white,727.692181199789,None,None,727.692181199789,None,,,,,,,,,,,,,,,,,,,,,,,,,,,,,,31NA,001,2023_Mar_31_1024,ExactRep-v3-final,2021.2.3,59.9658074735719,
,,,,,,,,26,0,26,0,,,,,,,,,,,,,,,,,,,,,,,,,,,,,,,,,,,,,,,,,,,,,,,,,,,,,732.2063029999845,None,,,,,,,,,,,,,,,,,,,,,,,,,,,,,,,,,,,rod,9,27,sing,white,730.204389099963,None,None,730.204389099963,None,,,,,,,,,,,,,,,,,,,,,,,,,,,,,,31NA,001,2023_Mar_31_1024,ExactRep-v3-final,2021.2.3,59.9658074735719,
,,,,,,,,27,0,27,0,,,,,,,,,,,,,,,,,,,,,,,,,,,,,,,,,,,,,,,,,,,,,,,,,,,,,734.708989399951,None,,,,,,,,,,,,,,,,,,,,,,,,,,,,,,,,,,,death,73,28,silent,blue,732.7084240000695,None,None,732.7084240000695,None,,,,,,,,,,,,,,,,,,,,,,,,,,,,,,31NA,001,2023_Mar_31_1024,ExactRep-v3-final,2021.2.3,59.9658074735719,
,,,,,,,,28,0,28,0,,,,,,,,,,,,,,,,,,,,,,,,,,,,,,,,,,,,,,,,,,,,,,,,,,,,,737.228163999971,None,,,,,,,,,,,,,,,,,,,,,,,,,,,,,,,,,,,doll,112,29,aloud,red,735.216217099689,None,None,735.216217099689,None,,,,,,,,,,,,,,,,,,,,,,,,,,,,,,31NA,001,2023_Mar_31_1024,ExactRep-v3-final,2021.2.3,59.9658074735719,
,,,,,,,,29,0,29,0,,,,,,,,,,,,,,,,,,,,,,,,,,,,,,,,,,,,,,,,,,,,,,,,,,,,,739.7311911997385,None,,,,,,,,,,,,,,,,,,,,,,,,,,,,,,,,,,,picture,72,30,silent,blue,737.7284694998525,None,None,737.7284694998525,None,,,,,,,,,,,,,,,,,,,,,,,,,,,,,,31NA,001,2023_Mar_31_1024,ExactRep-v3-final,2021.2.3,59.9658074735719,
,,,,,,,,30,0,30,0,,,,,,,,,,,,,,,,,,,,,,,,,,,,,,,,,,,,,,,,,,,,,,,,,,,,,742.2329024998471,None,,,,,,,,,,,,,,,,,,,,,,,,,,,,,,,,,,,diamond,92,31,aloud,red,740.2317363000475,None,None,740.2317363000475,None,,,,,,,,,,,,,,,,,,,,,,,,,,,,,,31NA,001,2023_Mar_31_1024,ExactRep-v3-final,2021.2.3,59.9658074735719,
,,,,,,,,31,0,31,0,,,,,,,,,,,,,,,,,,,,,,,,,,,,,,,,,,,,,,,,,,,,,,,,,,,,,744.7523501999676,None,,,,,,,,,,,,,,,,,,,,,,,,,,,,,,,,,,,meeting,119,32,aloud,red,742.7402407997288,None,None,742.7402407997288,None,,,,,,,,,,,,,,,,,,,,,,,,,,,,,,31NA,001,2023_Mar_31_1024,ExactRep-v3-final,2021.2.3,59.9658074735719,
,,,,,,,,32,0,32,0,,,,,,,,,,,,,,,,,,,,,,,,,,,,,,,,,,,,,,,,,,,,,,,,,,,,,747.2715400997549,None,,,,,,,,,,,,,,,,,,,,,,,,,,,,,,,,,,,hour,67,33,silent,blue,745.2585872998461,None,None,745.2585872998461,None,,,,,,,,,,,,,,,,,,,,,,,,,,,,,,31NA,001,2023_Mar_31_1024,ExactRep-v3-final,2021.2.3,59.9658074735719,
,,,,,,,,33,0,33,0,,,,,,,,,,,,,,,,,,,,,,,,,,,,,,,,,,,,,,,,,,,,,,,,,,,,,749.7739331000485,None,,,,,,,,,,,,,,,,,,,,,,,,,,,,,,,,,,,salary,34,34,sing,white,747.7718309997581,None,None,747.7718309997581,None,,,,,,,,,,,,,,,,,,,,,,,,,,,,,,31NA,001,2023_Mar_31_1024,ExactRep-v3-final,2021.2.3,59.9658074735719,
,,,,,,,,34,0,34,0,,,,,,,,,,,,,,,,,,,,,,,,,,,,,,,,,,,,,,,,,,,,,,,,,,,,,752.2791901999153,None,,,,,,,,,,,,,,,,,,,,,,,,,,,,,,,,,,,heaven,6,35,sing,white,750.2758569996804,None,None,750.2758569996804,None,,,,,,,,,,,,,,,,,,,,,,,,,,,,,,31NA,001,2023_Mar_31_1024,ExactRep-v3-final,2021.2.3,59.9658074735719,
,,,,,,,,35,0,35,0,,,,,,,,,,,,,,,,,,,,,,,,,,,,,,,,,,,,,,,,,,,,,,,,,,,,,754.7957402998582,None,,,,,,,,,,,,,,,,,,,,,,,,,,,,,,,,,,,house,52,36,silent,blue,752.7944645998068,None,None,752.7944645998068,None,,,,,,,,,,,,,,,,,,,,,,,,,,,,,,31NA,001,2023_Mar_31_1024,ExactRep-v3-final,2021.2.3,59.9658074735719,
,,,,,,,,36,0,36,0,,,,,,,,,,,,,,,,,,,,,,,,,,,,,,,,,,,,,,,,,,,,,,,,,,,,,757.3149155997671,None,,,,,,,,,,,,,,,,,,,,,,,,,,,,,,,,,,,maiden,33,37,sing,white,755.300446999725,None,None,755.300446999725,None,,,,,,,,,,,,,,,,,,,,,,,,,,,,,,31NA,001,2023_Mar_31_1024,ExactRep-v3-final,2021.2.3,59.9658074735719,
,,,,,,,,37,0,37,0,,,,,,,,,,,,,,,,,,,,,,,,,,,,,,,,,,,,,,,,,,,,,,,,,,,,,759.8172487998381,None,,,,,,,,,,,,,,,,,,,,,,,,,,,,,,,,,,,moral,113,38,aloud,red,757.8178228000179,None,None,757.8178228000179,None,,,,,,,,,,,,,,,,,,,,,,,,,,,,,,31NA,001,2023_Mar_31_1024,ExactRep-v3-final,2021.2.3,59.9658074735719,
,,,,,,,,38,0,38,0,,,,,,,,,,,,,,,,,,,,,,,,,,,,,,,,,,,,,,,,,,,,,,,,,,,,,762.3365874998271,None,,,,,,,,,,,,,,,,,,,,,,,,,,,,,,,,,,,sky,5,39,sing,white,760.3286202000454,None,None,760.3286202000454,None,,,,,,,,,,,,,,,,,,,,,,,,,,,,,,31NA,001,2023_Mar_31_1024,ExactRep-v3-final,2021.2.3,59.9658074735719,
,,,,,,,,39,0,39,0,,,,,,,,,,,,,,,,,,,,,,,,,,,,,,,,,,,,,,,,,,,,,,,,,,,,,764.8556018997915,None,,,,,,,,,,,,,,,,,,,,,,,,,,,,,,,,,,,cotton,41,40,silent,blue,762.8405114999041,None,None,762.8405114999041,None,,,,,,,,,,,,,,,,,,,,,,,,,,,,,,31NA,001,2023_Mar_31_1024,ExactRep-v3-final,2021.2.3,59.9658074735719,
,,,,,,,,40,0,40,0,,,,,,,,,,,,,,,,,,,,,,,,,,,,,,,,,,,,,,,,,,,,,,,,,,,,,767.374766800087,None,,,,,,,,,,,,,,,,,,,,,,,,,,,,,,,,,,,pole,68,41,silent,blue,765.3632466997951,None,None,765.3632466997951,None,,,,,,,,,,,,,,,,,,,,,,,,,,,,,,31NA,001,2023_Mar_31_1024,ExactRep-v3-final,2021.2.3,59.9658074735719,
,,,,,,,,41,0,41,0,,,,,,,,,,,,,,,,,,,,,,,,,,,,,,,,,,,,,,,,,,,,,,,,,,,,,769.8774660998024,None,,,,,,,,,,,,,,,,,,,,,,,,,,,,,,,,,,,fate,15,42,sing,white,767.8763270000927,None,None,767.8763270000927,None,,,,,,,,,,,,,,,,,,,,,,,,,,,,,,31NA,001,2023_Mar_31_1024,ExactRep-v3-final,2021.2.3,59.9658074735719,
,,,,,,,,42,0,42,0,,,,,,,,,,,,,,,,,,,,,,,,,,,,,,,,,,,,,,,,,,,,,,,,,,,,,772.3797152000479,None,,,,,,,,,,,,,,,,,,,,,,,,,,,,,,,,,,,amount,3,43,sing,white,770.3802621997893,None,None,770.3802621997893,None,,,,,,,,,,,,,,,,,,,,,,,,,,,,,,31NA,001,2023_Mar_31_1024,ExactRep-v3-final,2021.2.3,59.9658074735719,
,,,,,,,,43,0,43,0,,,,,,,,,,,,,,,,,,,,,,,,,,,,,,,,,,,,,,,,,,,,,,,,,,,,,774.8991233999841,None,,,,,,,,,,,,,,,,,,,,,,,,,,,,,,,,,,,woods,83,44,aloud,red,772.883477400057,None,None,772.883477400057,None,,,,,,,,,,,,,,,,,,,,,,,,,,,,,,31NA,001,2023_Mar_31_1024,ExactRep-v3-final,2021.2.3,59.9658074735719,
,,,,,,,,44,0,44,0,,,,,,,,,,,,,,,,,,,,,,,,,,,,,,,,,,,,,,,,,,,,,,,,,,,,,777.4183160997927,None,,,,,,,,,,,,,,,,,,,,,,,,,,,,,,,,,,,colony,35,45,sing,white,775.4030806999654,None,None,775.4030806999654,None,,,,,,,,,,,,,,,,,,,,,,,,,,,,,,31NA,001,2023_Mar_31_1024,ExactRep-v3-final,2021.2.3,59.9658074735719,
,,,,,,,,45,0,45,0,,,,,,,,,,,,,,,,,,,,,,,,,,,,,,,,,,,,,,,,,,,,,,,,,,,,,779.9374790997244,None,,,,,,,,,,,,,,,,,,,,,,,,,,,,,,,,,,,devil,102,46,aloud,red,777.928148899693,None,None,777.928148899693,None,,,,,,,,,,,,,,,,,,,,,,,,,,,,,,31NA,001,2023_Mar_31_1024,ExactRep-v3-final,2021.2.3,59.9658074735719,
,,,,,,,,46,0,46,0,,,,,,,,,,,,,,,,,,,,,,,,,,,,,,,,,,,,,,,,,,,,,,,,,,,,,782.43997319974,None,,,,,,,,,,,,,,,,,,,,,,,,,,,,,,,,,,,crime,48,47,silent,blue,780.4378941999748,None,None,780.4378941999748,None,,,,,,,,,,,,,,,,,,,,,,,,,,,,,,31NA,001,2023_Mar_31_1024,ExactRep-v3-final,2021.2.3,59.9658074735719,
,,,,,,,,47,0,47,0,,,,,,,,,,,,,,,,,,,,,,,,,,,,,,,,,,,,,,,,,,,,,,,,,,,,,784.9424888999201,None,,,,,,,,,,,,,,,,,,,,,,,,,,,,,,,,,,,volume,111,48,aloud,red,782.9422534997575,None,None,782.9422534997575,None,,,,,,,,,,,,,,,,,,,,,,,,,,,,,,31NA,001,2023_Mar_31_1024,ExactRep-v3-final,2021.2.3,59.9658074735719,
,,,,,,,,48,0,48,0,,,,,,,,,,,,,,,,,,,,,,,,,,,,,,,,,,,,,,,,,,,,,,,,,,,,,787.4616959998384,None,,,,,,,,,,,,,,,,,,,,,,,,,,,,,,,,,,,cattle,1,49,sing,white,785.4493571999483,None,None,785.4493571999483,None,,,,,,,,,,,,,,,,,,,,,,,,,,,,,,31NA,001,2023_Mar_31_1024,ExactRep-v3-final,2021.2.3,59.9658074735719,
,,,,,,,,49,0,49,0,,,,,,,,,,,,,,,,,,,,,,,,,,,,,,,,,,,,,,,,,,,,,,,,,,,,,789.9640671997331,None,,,,,,,,,,,,,,,,,,,,,,,,,,,,,,,,,,,fact,30,50,sing,white,787.9620257997885,None,None,787.9620257997885,None,,,,,,,,,,,,,,,,,,,,,,,,,,,,,,31NA,001,2023_Mar_31_1024,ExactRep-v3-final,2021.2.3,59.9658074735719,
,,,,,,,,50,0,50,0,,,,,,,,,,,,,,,,,,,,,,,,,,,,,,,,,,,,,,,,,,,,,,,,,,,,,792.4667022996582,None,,,,,,,,,,,,,,,,,,,,,,,,,,,,,,,,,,,money,107,51,aloud,red,790.4662140998989,None,None,790.4662140998989,None,,,,,,,,,,,,,,,,,,,,,,,,,,,,,,31NA,001,2023_Mar_31_1024,ExactRep-v3-final,2021.2.3,59.9658074735719,
,,,,,,,,51,0,51,0,,,,,,,,,,,,,,,,,,,,,,,,,,,,,,,,,,,,,,,,,,,,,,,,,,,,,794.9691921998747,None,,,,,,,,,,,,,,,,,,,,,,,,,,,,,,,,,,,village,56,52,silent,blue,792.9670318998396,None,None,792.9670318998396,None,,,,,,,,,,,,,,,,,,,,,,,,,,,,,,31NA,001,2023_Mar_31_1024,ExactRep-v3-final,2021.2.3,59.9658074735719,
,,,,,,,,52,0,52,0,,,,,,,,,,,,,,,,,,,,,,,,,,,,,,,,,,,,,,,,,,,,,,,,,,,,,797.4883522996679,None,,,,,,,,,,,,,,,,,,,,,,,,,,,,,,,,,,,wheat,114,53,aloud,red,795.4728843998164,None,None,795.4728843998164,None,,,,,,,,,,,,,,,,,,,,,,,,,,,,,,31NA,001,2023_Mar_31_1024,ExactRep-v3-final,2021.2.3,59.9658074735719,
,,,,,,,,53,0,53,0,,,,,,,,,,,,,,,,,,,,,,,,,,,,,,,,,,,,,,,,,,,,,,,,,,,,,799.990807000082,None,,,,,,,,,,,,,,,,,,,,,,,,,,,,,,,,,,,paper,22,54,sing,white,797.9891336997971,None,None,797.9891336997971,None,,,,,,,,,,,,,,,,,,,,,,,,,,,,,,31NA,001,2023_Mar_31_1024,ExactRep-v3-final,2021.2.3,59.9658074735719,
,,,,,,,,54,0,54,0,,,,,,,,,,,,,,,,,,,,,,,,,,,,,,,,,,,,,,,,,,,,,,,,,,,,,802.4934652997181,None,,,,,,,,,,,,,,,,,,,,,,,,,,,,,,,,,,,lake,2,55,sing,white,800.4939138996415,None,None,800.4939138996415,None,,,,,,,,,,,,,,,,,,,,,,,,,,,,,,31NA,001,2023_Mar_31_1024,ExactRep-v3-final,2021.2.3,59.9658074735719,
,,,,,,,,55,0,55,0,,,,,,,,,,,,,,,,,,,,,,,,,,,,,,,,,,,,,,,,,,,,,,,,,,,,,804.9960203999653,None,,,,,,,,,,,,,,,,,,,,,,,,,,,,,,,,,,,kiss,31,56,sing,white,802.9938723999076,None,None,802.9938723999076,None,,,,,,,,,,,,,,,,,,,,,,,,,,,,,,31NA,001,2023_Mar_31_1024,ExactRep-v3-final,2021.2.3,59.9658074735719,
,,,,,,,,56,0,56,0,,,,,,,,,,,,,,,,,,,,,,,,,,,,,,,,,,,,,,,,,,,,,,,,,,,,,807.4982871999964,None,,,,,,,,,,,,,,,,,,,,,,,,,,,,,,,,,,,love,98,57,aloud,red,805.4963018000126,None,None,805.4963018000126,None,,,,,,,,,,,,,,,,,,,,,,,,,,,,,,31NA,001,2023_Mar_31_1024,ExactRep-v3-final,2021.2.3,59.9658074735719,
,,,,,,,,57,0,57,0,,,,,,,,,,,,,,,,,,,,,,,,,,,,,,,,,,,,,,,,,,,,,,,,,,,,,810.0176142998971,None,,,,,,,,,,,,,,,,,,,,,,,,,,,,,,,,,,,beast,104,58,aloud,red,808.0086602997035,None,None,808.0086602997035,None,,,,,,,,,,,,,,,,,,,,,,,,,,,,,,31NA,001,2023_Mar_31_1024,ExactRep-v3-final,2021.2.3,59.9658074735719,
,,,,,,,,58,0,58,0,,,,,,,,,,,,,,,,,,,,,,,,,,,,,,,,,,,,,,,,,,,,,,,,,,,,,812.5198842999525,None,,,,,,,,,,,,,,,,,,,,,,,,,,,,,,,,,,,present,65,59,silent,blue,810.5192104000598,None,None,810.5192104000598,None,,,,,,,,,,,,,,,,,,,,,,,,,,,,,,31NA,001,2023_Mar_31_1024,ExactRep-v3-final,2021.2.3,59.9658074735719,
,,,,,,,,59,0,59,0,,,,,,,,,,,,,,,,,,,,,,,,,,,,,,,,,,,,,,,,,,,,,,,,,,,,,815.0224615996704,None,,,,,,,,,,,,,,,,,,,,,,,,,,,,,,,,,,,temple,101,60,aloud,red,813.0204312996939,None,None,813.0204312996939,None,,,,,,,,,,,,,,,,,,,,,,,,,,,,,,31NA,001,2023_Mar_31_1024,ExactRep-v3-final,2021.2.3,59.9658074735719,
,,,,,,,,60,0,60,0,,,,,,,,,,,,,,,,,,,,,,,,,,,,,,,,,,,,,,,,,,,,,,,,,,,,,817.524944299832,None,,,,,,,,,,,,,,,,,,,,,,,,,,,,,,,,,,,student,44,61,silent,blue,815.5228780000471,None,None,815.5228780000471,None,,,,,,,,,,,,,,,,,,,,,,,,,,,,,,31NA,001,2023_Mar_31_1024,ExactRep-v3-final,2021.2.3,59.9658074735719,
,,,,,,,,61,0,61,0,,,,,,,,,,,,,,,,,,,,,,,,,,,,,,,,,,,,,,,,,,,,,,,,,,,,,820.0442625996657,None,,,,,,,,,,,,,,,,,,,,,,,,,,,,,,,,,,,tool,75,62,silent,blue,818.0343847996555,None,None,818.0343847996555,None,,,,,,,,,,,,,,,,,,,,,,,,,,,,,,31NA,001,2023_Mar_31_1024,ExactRep-v3-final,2021.2.3,59.9658074735719,
,,,,,,,,62,0,62,0,,,,,,,,,,,,,,,,,,,,,,,,,,,,,,,,,,,,,,,,,,,,,,,,,,,,,822.5467574996874,None,,,,,,,,,,,,,,,,,,,,,,,,,,,,,,,,,,,board,38,63,sing,white,820.5446458999068,None,None,820.5446458999068,None,,,,,,,,,,,,,,,,,,,,,,,,,,,,,,31NA,001,2023_Mar_31_1024,ExactRep-v3-final,2021.2.3,59.9658074735719,
,,,,,,,,63,0,63,0,,,,,,,,,,,,,,,,,,,,,,,,,,,,,,,,,,,,,,,,,,,,,,,,,,,,,825.0492495996878,None,,,,,,,,,,,,,,,,,,,,,,,,,,,,,,,,,,,law,63,64,silent,blue,823.048980999738,None,None,823.048980999738,None,,,,,,,,,,,,,,,,,,,,,,,,,,,,,,31NA,001,2023_Mar_31_1024,ExactRep-v3-final,2021.2.3,59.9658074735719,
,,,,,,,,64,0,64,0,,,,,,,,,,,,,,,,,,,,,,,,,,,,,,,,,,,,,,,,,,,,,,,,,,,,,827.551843999885,None,,,,,,,,,,,,,,,,,,,,,,,,,,,,,,,,,,,wife,27,65,sing,white,825.5513382996432,None,None,825.5513382996432,None,,,,,,,,,,,,,,,,,,,,,,,,,,,,,,31NA,001,2023_Mar_31_1024,ExactRep-v3-final,2021.2.3,59.9658074735719,
,,,,,,,,65,0,65,0,,,,,,,,,,,,,,,,,,,,,,,,,,,,,,,,,,,,,,,,,,,,,,,,,,,,,830.0542893996462,None,,,,,,,,,,,,,,,,,,,,,,,,,,,,,,,,,,,friend,116,66,aloud,red,828.0541620999575,None,None,828.0541620999575,None,,,,,,,,,,,,,,,,,,,,,,,,,,,,,,31NA,001,2023_Mar_31_1024,ExactRep-v3-final,2021.2.3,59.9658074735719,
,,,,,,,,66,0,66,0,,,,,,,,,,,,,,,,,,,,,,,,,,,,,,,,,,,,,,,,,,,,,,,,,,,,,832.5734290000983,None,,,,,,,,,,,,,,,,,,,,,,,,,,,,,,,,,,,power,25,67,sing,white,830.5618170998059,None,None,830.5618170998059,None,,,,,,,,,,,,,,,,,,,,,,,,,,,,,,31NA,001,2023_Mar_31_1024,ExactRep-v3-final,2021.2.3,59.9658074735719,
,,,,,,,,67,0,67,0,,,,,,,,,,,,,,,,,,,,,,,,,,,,,,,,,,,,,,,,,,,,,,,,,,,,,835.0759744998068,None,,,,,,,,,,,,,,,,,,,,,,,,,,,,,,,,,,,virtue,43,68,silent,blue,833.0739527000114,None,None,833.0739527000114,None,,,,,,,,,,,,,,,,,,,,,,,,,,,,,,31NA,001,2023_Mar_31_1024,ExactRep-v3-final,2021.2.3,59.9658074735719,
,,,,,,,,68,0,68,0,,,,,,,,,,,,,,,,,,,,,,,,,,,,,,,,,,,,,,,,,,,,,,,,,,,,,837.5952588999644,None,,,,,,,,,,,,,,,,,,,,,,,,,,,,,,,,,,,shadow,96,69,aloud,red,835.5804007998668,None,None,835.5804007998668,None,,,,,,,,,,,,,,,,,,,,,,,,,,,,,,31NA,001,2023_Mar_31_1024,ExactRep-v3-final,2021.2.3,59.9658074735719,
,,,,,,,,69,0,69,0,,,,,,,,,,,,,,,,,,,,,,,,,,,,,,,,,,,,,,,,,,,,,,,,,,,,,840.0976398997009,None,,,,,,,,,,,,,,,,,,,,,,,,,,,,,,,,,,,fortune,36,70,sing,white,838.0959374997765,None,None,838.0959374997765,None,,,,,,,,,,,,,,,,,,,,,,,,,,,,,,31NA,001,2023_Mar_31_1024,ExactRep-v3-final,2021.2.3,59.9658074735719,
,,,,,,,,70,0,70,0,,,,,,,,,,,,,,,,,,,,,,,,,,,,,,,,,,,,,,,,,,,,,,,,,,,,,842.6168132997118,None,,,,,,,,,,,,,,,,,,,,,,,,,,,,,,,,,,,event,97,71,aloud,red,840.6034085000865,None,None,840.6034085000865,None,,,,,,,,,,,,,,,,,,,,,,,,,,,,,,31NA,001,2023_Mar_31_1024,ExactRep-v3-final,2021.2.3,59.9658074735719,
,,,,,,,,71,0,71,0,,,,,,,,,,,,,,,,,,,,,,,,,,,,,,,,,,,,,,,,,,,,,,,,,,,,,845.1191985998303,None,,,,,,,,,,,,,,,,,,,,,,,,,,,,,,,,,,,library,50,72,silent,blue,843.1173390001059,None,None,843.1173390001059,None,,,,,,,,,,,,,,,,,,,,,,,,,,,,,,31NA,001,2023_Mar_31_1024,ExactRep-v3-final,2021.2.3,59.9658074735719,
,,,,,,,,72,0,72,0,,,,,,,,,,,,,,,,,,,,,,,,,,,,,,,,,,,,,,,,,,,,,,,,,,,,,847.6387247997336,None,,,,,,,,,,,,,,,,,,,,,,,,,,,,,,,,,,,justice,100,73,aloud,red,845.6258828998543,None,None,845.6258828998543,None,,,,,,,,,,,,,,,,,,,,,,,,,,,,,,31NA,001,2023_Mar_31_1024,ExactRep-v3-final,2021.2.3,59.9658074735719,
,,,,,,,,73,0,73,0,,,,,,,,,,,,,,,,,,,,,,,,,,,,,,,,,,,,,,,,,,,,,,,,,,,,,850.1408846997656,None,,,,,,,,,,,,,,,,,,,,,,,,,,,,,,,,,,,dawn,37,74,sing,white,848.1410304000601,None,None,848.1410304000601,None,,,,,,,,,,,,,,,,,,,,,,,,,,,,,,31NA,001,2023_Mar_31_1024,ExactRep-v3-final,2021.2.3,59.9658074735719,
,,,,,,,,74,0,74,0,,,,,,,,,,,,,,,,,,,,,,,,,,,,,,,,,,,,,,,,,,,,,,,,,,,,,852.6435356000438,None,,,,,,,,,,,,,,,,,,,,,,,,,,,,,,,,,,,plain,103,75,aloud,red,850.6429510000162,None,None,850.6429510000162,None,,,,,,,,,,,,,,,,,,,,,,,,,,,,,,31NA,001,2023_Mar_31_1024,ExactRep-v3-final,2021.2.3,59.9658074735719,
,,,,,,,,75,0,75,0,,,,,,,,,,,,,,,,,,,,,,,,,,,,,,,,,,,,,,,,,,,,,,,,,,,,,855.1625981996767,None,,,,,,,,,,,,,,,,,,,,,,,,,,,,,,,,,,,excuse,118,76,aloud,red,853.1506374999881,None,None,853.1506374999881,None,,,,,,,,,,,,,,,,,,,,,,,,,,,,,,31NA,001,2023_Mar_31_1024,ExactRep-v3-final,2021.2.3,59.9658074735719,
,,,,,,,,76,0,76,0,,,,,,,,,,,,,,,,,,,,,,,,,,,,,,,,,,,,,,,,,,,,,,,,,,,,,857.6651965999044,None,,,,,,,,,,,,,,,,,,,,,,,,,,,,,,,,,,,bar,85,77,aloud,red,855.6632606997155,None,None,855.6632606997155,None,,,,,,,,,,,,,,,,,,,,,,,,,,,,,,31NA,001,2023_Mar_31_1024,ExactRep-v3-final,2021.2.3,59.9658074735719,
,,,,,,,,77,0,77,0,,,,,,,,,,,,,,,,,,,,,,,,,,,,,,,,,,,,,,,,,,,,,,,,,,,,,860.167707900051,None,,,,,,,,,,,,,,,,,,,,,,,,,,,,,,,,,,,butter,8,78,sing,white,858.1662789997645,None,None,858.1662789997645,None,,,,,,,,,,,,,,,,,,,,,,,,,,,,,,31NA,001,2023_Mar_31_1024,ExactRep-v3-final,2021.2.3,59.9658074735719,
,,,,,,,,78,0,78,0,,,,,,,,,,,,,,,,,,,,,,,,,,,,,,,,,,,,,,,,,,,,,,,,,,,,,862.6701938998885,None,,,,,,,,,,,,,,,,,,,,,,,,,,,,,,,,,,,artist,84,79,aloud,red,860.6683315997943,None,None,860.6683315997943,None,,,,,,,,,,,,,,,,,,,,,,,,,,,,,,31NA,001,2023_Mar_31_1024,ExactRep-v3-final,2021.2.3,59.9658074735719,
,,,,,,,,79,0,79,0,,,,,,,,,,,,,,,,,,,,,,,,,,,,,,,,,,,,,,,,,,,,,,,,,,,,,865.1892511998303,None,,,,,,,,,,,,,,,,,,,,,,,,,,,,,,,,,,,lord,4,80,sing,white,863.175108899828,None,None,863.175108899828,None,,,,,,,,,,,,,,,,,,,,,,,,,,,,,,31NA,001,2023_Mar_31_1024,ExactRep-v3-final,2021.2.3,59.9658074735719,
,,,,,,,,80,0,80,0,,,,,,,,,,,,,,,,,,,,,,,,,,,,,,,,,,,,,,,,,,,,,,,,,,,,,867.6920157000422,None,,,,,,,,,,,,,,,,,,,,,,,,,,,,,,,,,,,doctor,69,81,silent,blue,865.6897448999807,None,None,865.6897448999807,None,,,,,,,,,,,,,,,,,,,,,,,,,,,,,,31NA,001,2023_Mar_31_1024,ExactRep-v3-final,2021.2.3,59.9658074735719,
,,,,,,,,81,0,81,0,,,,,,,,,,,,,,,,,,,,,,,,,,,,,,,,,,,,,,,,,,,,,,,,,,,,,870.1944542001002,None,,,,,,,,,,,,,,,,,,,,,,,,,,,,,,,,,,,bowl,90,82,aloud,red,868.1941404999234,None,None,868.1941404999234,None,,,,,,,,,,,,,,,,,,,,,,,,,,,,,,31NA,001,2023_Mar_31_1024,ExactRep-v3-final,2021.2.3,59.9658074735719,
,,,,,,,,82,0,82,0,,,,,,,,,,,,,,,,,,,,,,,,,,,,,,,,,,,,,,,,,,,,,,,,,,,,,872.7136102998629,None,,,,,,,,,,,,,,,,,,,,,,,,,,,,,,,,,,,humour,89,83,aloud,red,870.698431099765,None,None,870.698431099765,None,,,,,,,,,,,,,,,,,,,,,,,,,,,,,,31NA,001,2023_Mar_31_1024,ExactRep-v3-final,2021.2.3,59.9658074735719,
,,,,,,,,83,0,83,0,,,,,,,,,,,,,,,,,,,,,,,,,,,,,,,,,,,,,,,,,,,,,,,,,,,,,875.2161276000552,None,,,,,,,,,,,,,,,,,,,,,,,,,,,,,,,,,,,science,0,84,sing,white,873.2160235000774,None,None,873.2160235000774,None,,,,,,,,,,,,,,,,,,,,,,,,,,,,,,31NA,001,2023_Mar_31_1024,ExactRep-v3-final,2021.2.3,59.9658074735719,
,,,,,,,,84,0,84,0,,,,,,,,,,,,,,,,,,,,,,,,,,,,,,,,,,,,,,,,,,,,,,,,,,,,,877.7185883997008,None,,,,,,,,,,,,,,,,,,,,,,,,,,,,,,,,,,,chief,17,85,sing,white,875.7168274996802,None,None,875.7168274996802,None,,,,,,,,,,,,,,,,,,,,,,,,,,,,,,31NA,001,2023_Mar_31_1024,ExactRep-v3-final,2021.2.3,59.9658074735719,
,,,,,,,,85,0,85,0,,,,,,,,,,,,,,,,,,,,,,,,,,,,,,,,,,,,,,,,,,,,,,,,,,,,,880.2211841000244,None,,,,,,,,,,,,,,,,,,,,,,,,,,,,,,,,,,,party,53,86,silent,blue,878.2191890999675,None,None,878.2191890999675,None,,,,,,,,,,,,,,,,,,,,,,,,,,,,,,31NA,001,2023_Mar_31_1024,ExactRep-v3-final,2021.2.3,59.9658074735719,
,,,,,,,,86,0,86,0,,,,,,,,,,,,,,,,,,,,,,,,,,,,,,,,,,,,,,,,,,,,,,,,,,,,,882.7400605999865,None,,,,,,,,,,,,,,,,,,,,,,,,,,,,,,,,,,,dream,94,87,aloud,red,880.725212899968,None,None,880.725212899968,None,,,,,,,,,,,,,,,,,,,,,,,,,,,,,,31NA,001,2023_Mar_31_1024,ExactRep-v3-final,2021.2.3,59.9658074735719,
,,,,,,,,87,0,87,0,,,,,,,,,,,,,,,,,,,,,,,,,,,,,,,,,,,,,,,,,,,,,,,,,,,,,885.2427845997736,None,,,,,,,,,,,,,,,,,,,,,,,,,,,,,,,,,,,hall,21,88,sing,white,883.2406711997464,None,None,883.2406711997464,None,,,,,,,,,,,,,,,,,,,,,,,,,,,,,,31NA,001,2023_Mar_31_1024,ExactRep-v3-final,2021.2.3,59.9658074735719,
,,,,,,,,88,0,88,0,,,,,,,,,,,,,,,,,,,,,,,,,,,,,,,,,,,,,,,,,,,,,,,,,,,,,887.7452845997177,None,,,,,,,,,,,,,,,,,,,,,,,,,,,,,,,,,,,honour,115,89,aloud,red,885.7449845997617,None,None,885.7449845997617,None,,,,,,,,,,,,,,,,,,,,,,,,,,,,,,31NA,001,2023_Mar_31_1024,ExactRep-v3-final,2021.2.3,59.9658074735719,
,,,,,,,,89,0,89,0,,,,,,,,,,,,,,,,,,,,,,,,,,,,,,,,,,,,,,,,,,,,,,,,,,,,,890.2476182999089,None,,,,,,,,,,,,,,,,,,,,,,,,,,,,,,,,,,,flower,46,90,silent,blue,888.2463654996827,None,None,888.2463654996827,None,,,,,,,,,,,,,,,,,,,,,,,,,,,,,,31NA,001,2023_Mar_31_1024,ExactRep-v3-final,2021.2.3,59.9658074735719,
,,,,,,,,90,0,90,0,,,,,,,,,,,,,,,,,,,,,,,,,,,,,,,,,,,,,,,,,,,,,,,,,,,,,892.7504531997256,None,,,,,,,,,,,,,,,,,,,,,,,,,,,,,,,,,,,effort,82,91,aloud,red,890.7498510000296,None,None,890.7498510000296,None,,,,,,,,,,,,,,,,,,,,,,,,,,,,,,31NA,001,2023_Mar_31_1024,ExactRep-v3-final,2021.2.3,59.9658074735719,
,,,,,,,,91,0,91,0,,,,,,,,,,,,,,,,,,,,,,,,,,,,,,,,,,,,,,,,,,,,,,,,,,,,,895.2524953000247,None,,,,,,,,,,,,,,,,,,,,,,,,,,,,,,,,,,,king,20,92,sing,white,893.2529714000411,None,None,893.2529714000411,None,,,,,,,,,,,,,,,,,,,,,,,,,,,,,,31NA,001,2023_Mar_31_1024,ExactRep-v3-final,2021.2.3,59.9658074735719,
,,,,,,,,92,0,92,0,,,,,,,,,,,,,,,,,,,,,,,,,,,,,,,,,,,,,,,,,,,,,,,,,,,,,897.7719816998579,None,,,,,,,,,,,,,,,,,,,,,,,,,,,,,,,,,,,engine,86,93,aloud,red,895.7602387000807,None,None,895.7602387000807,None,,,,,,,,,,,,,,,,,,,,,,,,,,,,,,31NA,001,2023_Mar_31_1024,ExactRep-v3-final,2021.2.3,59.9658074735719,
,,,,,,,,93,0,93,0,,,,,,,,,,,,,,,,,,,,,,,,,,,,,,,,,,,,,,,,,,,,,,,,,,,,,900.2744744000956,None,,,,,,,,,,,,,,,,,,,,,,,,,,,,,,,,,,,prayer,70,94,silent,blue,898.2731872997247,None,None,898.2731872997247,None,,,,,,,,,,,,,,,,,,,,,,,,,,,,,,31NA,001,2023_Mar_31_1024,ExactRep-v3-final,2021.2.3,59.9658074735719,
,,,,,,,,94,0,94,0,,,,,,,,,,,,,,,,,,,,,,,,,,,,,,,,,,,,,,,,,,,,,,,,,,,,,902.7768001998775,None,,,,,,,,,,,,,,,,,,,,,,,,,,,,,,,,,,,boy,87,95,aloud,red,900.7748340000398,None,None,900.7748340000398,None,,,,,,,,,,,,,,,,,,,,,,,,,,,,,,31NA,001,2023_Mar_31_1024,ExactRep-v3-final,2021.2.3,59.9658074735719,
,,,,,,,,95,0,95,0,,,,,,,,,,,,,,,,,,,,,,,,,,,,,,,,,,,,,,,,,,,,,,,,,,,,,905.2959869997576,None,,,,,,,,,,,,,,,,,,,,,,,,,,,,,,,,,,,queen,80,96,aloud,red,903.2804850996472,None,None,903.2804850996472,None,,,,,,,,,,,,,,,,,,,,,,,,,,,,,,31NA,001,2023_Mar_31_1024,ExactRep-v3-final,2021.2.3,59.9658074735719,
,,,,,,,,96,0,96,0,,,,,,,,,,,,,,,,,,,,,,,,,,,,,,,,,,,,,,,,,,,,,,,,,,,,,907.7984330998734,None,,,,,,,,,,,,,,,,,,,,,,,,,,,,,,,,,,,window,88,97,aloud,red,905.7963638999499,None,None,905.7963638999499,None,,,,,,,,,,,,,,,,,,,,,,,,,,,,,,31NA,001,2023_Mar_31_1024,ExactRep-v3-final,2021.2.3,59.9658074735719,
,,,,,,,,97,0,97,0,,,,,,,,,,,,,,,,,,,,,,,,,,,,,,,,,,,,,,,,,,,,,,,,,,,,,910.3177163996734,None,,,,,,,,,,,,,,,,,,,,,,,,,,,,,,,,,,,garden,93,98,aloud,red,908.3031653999351,None,None,908.3031653999351,None,,,,,,,,,,,,,,,,,,,,,,,,,,,,,,31NA,001,2023_Mar_31_1024,ExactRep-v3-final,2021.2.3,59.9658074735719,
,,,,,,,,98,0,98,0,,,,,,,,,,,,,,,,,,,,,,,,,,,,,,,,,,,,,,,,,,,,,,,,,,,,,912.8368752999231,None,,,,,,,,,,,,,,,,,,,,,,,,,,,,,,,,,,,factory,105,99,aloud,red,910.8278175001033,None,None,910.8278175001033,None,,,,,,,,,,,,,,,,,,,,,,,,,,,,,,31NA,001,2023_Mar_31_1024,ExactRep-v3-final,2021.2.3,59.9658074735719,
,,,,,,,,99,0,99,0,,,,,,,,,,,,,,,,,,,,,,,,,,,,,,,,,,,,,,,,,,,,,,,,,,,,,915.3395615997724,None,,,,,,,,,,,,,,,,,,,,,,,,,,,,,,,,,,,home,74,100,silent,blue,913.3372728000395,None,None,913.3372728000395,None,,,,,,,,,,,,,,,,,,,,,,,,,,,,,,31NA,001,2023_Mar_31_1024,ExactRep-v3-final,2021.2.3,59.9658074735719,
,,,,,,,,100,0,100,0,,,,,,,,,,,,,,,,,,,,,,,,,,,,,,,,,,,,,,,,,,,,,,,,,,,,,917.8420532997698,None,,,,,,,,,,,,,,,,,,,,,,,,,,,,,,,,,,,winter,71,101,silent,blue,915.8418867997825,None,None,915.8418867997825,None,,,,,,,,,,,,,,,,,,,,,,,,,,,,,,31NA,001,2023_Mar_31_1024,ExactRep-v3-final,2021.2.3,59.9658074735719,
,,,,,,,,101,0,101,0,,,,,,,,,,,,,,,,,,,,,,,,,,,,,,,,,,,,,,,,,,,,,,,,,,,,,920.3441931996495,None,,,,,,,,,,,,,,,,,,,,,,,,,,,,,,,,,,,forest,54,102,silent,blue,918.344011399895,None,None,918.344011399895,None,,,,,,,,,,,,,,,,,,,,,,,,,,,,,,31NA,001,2023_Mar_31_1024,ExactRep-v3-final,2021.2.3,59.9658074735719,
,,,,,,,,102,0,102,0,,,,,,,,,,,,,,,,,,,,,,,,,,,,,,,,,,,,,,,,,,,,,,,,,,,,,922.8470516996458,None,,,,,,,,,,,,,,,,,,,,,,,,,,,,,,,,,,,flesh,79,103,sing,white,920.8469288996421,None,None,920.8469288996421,None,,,,,,,,,,,,,,,,,,,,,,,,,,,,,,31NA,001,2023_Mar_31_1024,ExactRep-v3-final,2021.2.3,59.9658074735719,
,,,,,,,,103,0,103,0,,,,,,,,,,,,,,,,,,,,,,,,,,,,,,,,,,,,,,,,,,,,,,,,,,,,,925.3663143999875,None,,,,,,,,,,,,,,,,,,,,,,,,,,,,,,,,,,,dress,45,104,silent,blue,923.3578880997375,None,None,923.3578880997375,None,,,,,,,,,,,,,,,,,,,,,,,,,,,,,,31NA,001,2023_Mar_31_1024,ExactRep-v3-final,2021.2.3,59.9658074735719,
,,,,,,,,104,0,104,0,,,,,,,,,,,,,,,,,,,,,,,,,,,,,,,,,,,,,,,,,,,,,,,,,,,,,927.8852260997519,None,,,,,,,,,,,,,,,,,,,,,,,,,,,,,,,,,,,circle,76,105,silent,blue,925.8722151000984,None,None,925.8722151000984,None,,,,,,,,,,,,,,,,,,,,,,,,,,,,,,31NA,001,2023_Mar_31_1024,ExactRep-v3-final,2021.2.3,59.9658074735719,
,,,,,,,,105,0,105,0,,,,,,,,,,,,,,,,,,,,,,,,,,,,,,,,,,,,,,,,,,,,,,,,,,,,,930.3880171999335,None,,,,,,,,,,,,,,,,,,,,,,,,,,,,,,,,,,,insect,81,106,aloud,red,928.3856603996828,None,None,928.3856603996828,None,,,,,,,,,,,,,,,,,,,,,,,,,,,,,,31NA,001,2023_Mar_31_1024,ExactRep-v3-final,2021.2.3,59.9658074735719,
,,,,,,,,106,0,106,0,,,,,,,,,,,,,,,,,,,,,,,,,,,,,,,,,,,,,,,,,,,,,,,,,,,,,932.8901470000856,None,,,,,,,,,,,,,,,,,,,,,,,,,,,,,,,,,,,mercy,91,107,aloud,red,930.8900810997002,None,None,930.8900810997002,None,,,,,,,,,,,,,,,,,,,,,,,,,,,,,,31NA,001,2023_Mar_31_1024,ExactRep-v3-final,2021.2.3,59.9658074735719,
,,,,,,,,107,0,107,0,,,,,,,,,,,,,,,,,,,,,,,,,,,,,,,,,,,,,,,,,,,,,,,,,,,,,935.4096091999672,None,,,,,,,,,,,,,,,,,,,,,,,,,,,,,,,,,,,journal,59,108,silent,blue,933.3974938997999,None,None,933.3974938997999,None,,,,,,,,,,,,,,,,,,,,,,,,,,,,,,31NA,001,2023_Mar_31_1024,ExactRep-v3-final,2021.2.3,59.9658074735719,
,,,,,,,,108,0,108,0,,,,,,,,,,,,,,,,,,,,,,,,,,,,,,,,,,,,,,,,,,,,,,,,,,,,,937.9121130998246,None,,,,,,,,,,,,,,,,,,,,,,,,,,,,,,,,,,,brain,7,109,sing,white,935.9099401999265,None,None,935.9099401999265,None,,,,,,,,,,,,,,,,,,,,,,,,,,,,,,31NA,001,2023_Mar_31_1024,ExactRep-v3-final,2021.2.3,59.9658074735719,
,,,,,,,,109,0,109,0,,,,,,,,,,,,,,,,,,,,,,,,,,,,,,,,,,,,,,,,,,,,,,,,,,,,,940.4144637999125,None,,,,,,,,,,,,,,,,,,,,,,,,,,,,,,,,,,,form,64,110,silent,blue,938.4122619996779,None,None,938.4122619996779,None,,,,,,,,,,,,,,,,,,,,,,,,,,,,,,31NA,001,2023_Mar_31_1024,ExactRep-v3-final,2021.2.3,59.9658074735719,
,,,,,,,,110,0,110,0,,,,,,,,,,,,,,,,,,,,,,,,,,,,,,,,,,,,,,,,,,,,,,,,,,,,,942.9169288999401,None,,,,,,,,,,,,,,,,,,,,,,,,,,,,,,,,,,,ticket,24,111,sing,white,940.9171433998272,None,None,940.9171433998272,None,,,,,,,,,,,,,,,,,,,,,,,,,,,,,,31NA,001,2023_Mar_31_1024,ExactRep-v3-final,2021.2.3,59.9658074735719,
,,,,,,,,111,0,111,0,,,,,,,,,,,,,,,,,,,,,,,,,,,,,,,,,,,,,,,,,,,,,,,,,,,,,945.4363078000024,None,,,,,,,,,,,,,,,,,,,,,,,,,,,,,,,,,,,chair,12,112,sing,white,943.4252400998957,None,None,943.4252400998957,None,,,,,,,,,,,,,,,,,,,,,,,,,,,,,,31NA,001,2023_Mar_31_1024,ExactRep-v3-final,2021.2.3,59.9658074735719,
,,,,,,,,112,0,112,0,,,,,,,,,,,,,,,,,,,,,,,,,,,,,,,,,,,,,,,,,,,,,,,,,,,,,947.9388024997897,None,,,,,,,,,,,,,,,,,,,,,,,,,,,,,,,,,,,lip,106,113,aloud,red,945.9378456999548,None,None,945.9378456999548,None,,,,,,,,,,,,,,,,,,,,,,,,,,,,,,31NA,001,2023_Mar_31_1024,ExactRep-v3-final,2021.2.3,59.9658074735719,
,,,,,,,,113,0,113,0,,,,,,,,,,,,,,,,,,,,,,,,,,,,,,,,,,,,,,,,,,,,,,,,,,,,,950.4579902999103,None,,,,,,,,,,,,,,,,,,,,,,,,,,,,,,,,,,,pupil,57,114,silent,blue,948.44474419998,None,None,948.44474419998,None,,,,,,,,,,,,,,,,,,,,,,,,,,,,,,31NA,001,2023_Mar_31_1024,ExactRep-v3-final,2021.2.3,59.9658074735719,
,,,,,,,,114,0,114,0,,,,,,,,,,,,,,,,,,,,,,,,,,,,,,,,,,,,,,,,,,,,,,,,,,,,,952.9605135996826,None,,,,,,,,,,,,,,,,,,,,,,,,,,,,,,,,,,,meat,32,115,sing,white,950.9583380999975,None,None,950.9583380999975,None,,,,,,,,,,,,,,,,,,,,,,,,,,,,,,31NA,001,2023_Mar_31_1024,ExactRep-v3-final,2021.2.3,59.9658074735719,
,,,,,,,,115,0,115,0,,,,,,,,,,,,,,,,,,,,,,,,,,,,,,,,,,,,,,,,,,,,,,,,,,,,,955.4631296996959,None,,,,,,,,,,,,,,,,,,,,,,,,,,,,,,,,,,,seat,78,116,silent,blue,953.4627641998231,None,None,953.4627641998231,None,,,,,,,,,,,,,,,,,,,,,,,,,,,,,,31NA,001,2023_Mar_31_1024,ExactRep-v3-final,2021.2.3,59.9658074735719,
,,,,,,,,116,0,116,0,,,,,,,,,,,,,,,,,,,,,,,,,,,,,,,,,,,,,,,,,,,,,,,,,,,,,957.9653131999075,None,,,,,,,,,,,,,,,,,,,,,,,,,,,,,,,,,,,glory,29,117,sing,white,955.963264899794,None,None,955.963264899794,None,,,,,,,,,,,,,,,,,,,,,,,,,,,,,,31NA,001,2023_Mar_31_1024,ExactRep-v3-final,2021.2.3,59.9658074735719,
,,,,,,,,117,0,117,0,,,,,,,,,,,,,,,,,,,,,,,,,,,,,,,,,,,,,,,,,,,,,,,,,,,,,960.4680138998665,None,,,,,,,,,,,,,,,,,,,,,,,,,,,,,,,,,,,life,66,118,silent,blue,958.4659898998216,None,None,958.4659898998216,None,,,,,,,,,,,,,,,,,,,,,,,,,,,,,,31NA,001,2023_Mar_31_1024,ExactRep-v3-final,2021.2.3,59.9658074735719,
,,,,,,,,118,0,118,0,,,,,,,,,,,,,,,,,,,,,,,,,,,,,,,,,,,,,,,,,,,,,,,,,,,,,962.9704911997542,None,,,,,,,,,,,,,,,,,,,,,,,,,,,,,,,,,,,blossom,51,119,silent,blue,960.9691286999732,None,None,960.9691286999732,None,,,,,,,,,,,,,,,,,,,,,,,,,,,,,,31NA,001,2023_Mar_31_1024,ExactRep-v3-final,2021.2.3,59.9658074735719,
,,,,,,,,119,0,119,0,,,,,,,,,,,,,,,,,,,,,,,,,,,,,,,,,,,,,,,,,,,,,,,,,,,,,965.4895513998345,None,,,,,,,,,,,,,,,,,,,,,,,,,,,,,,,,,,,disease,95,120,aloud,red,963.4804362999275,None,None,963.4804362999275,None,,,,,,,,,,,,,,,,,,,,,,,,,,,,,,31NA,001,2023_Mar_31_1024,ExactRep-v3-final,2021.2.3,59.9658074735719,
,,,,,,,,,,,,,,,,,,,,,,,,,,,,,,,,,,,,,,,,,,,,,,,,,,,,,,,,,,,,,,,,,,,,,,,,,,,,,,,,,,,,,,,,,,,,,,,,,,,,,,,,,,,,,,965.9915517996997,None,space,2.2847076999023557,975.9681549998932,None,,,,,,,,,,,,,,,,,,,,,,,,31NA,001,2023_Mar_31_1024,ExactRep-v3-final,2021.2.3,59.9658074735719,
,,,,,,,,,,,,,,,,,,,,,,,,,,,,,,,,,,,,,,,,,,,,,,,,,,,,,,,,,,,,,,,,,,,,,,,,,,,,,,,,,,,,,,,,,,,,,,,,,,,,,,,,,,,,,,,,,,,,978.2710039000958,None,space,26.16506880009547,988.2471189997159,None,,,,,,,,,,,,,,,,,,31NA,001,2023_Mar_31_1024,ExactRep-v3-final,2021.2.3,59.9658074735719,
,,,,,,,,,,,,0,0,0,0,,,,,,,,,,,,,,,,,,,,,,,,,,,,,,,,,,,,,,,,,,,,,,,,,1026.9677240001038,None,,,,,,,,,,,,,,,,,,,,,,,,,,,,,,,,,,,,,,,,,,,,,,,,,,,,,,,,,silence,39,1,silent,old,yellow,1014.9530625999905,None,y,1014.9530625999905,None,"['y', 'return']","[7.891276800073683, 11.979505899827927]",1014.9530625999905,None,,,31NA,001,2023_Mar_31_1024,ExactRep-v3-final,2021.2.3,59.9658074735719,
,,,,,,,,,,,,1,0,1,0,,,,,,,,,,,,,,,,,,,,,,,,,,,,,,,,,,,,,,,,,,,,,,,,,1031.1050002998672,None,,,,,,,,,,,,,,,,,,,,,,,,,,,,,,,,,,,,,,,,,,,,,,,,,,,,,,,,,water,194,2,aloud,new,yellow,1027.4757236996666,None,n,1027.4757236996666,None,"['n', 'return']","[3.2967060999944806, 3.592734499834478]",1027.4757236996666,None,,,31NA,001,2023_Mar_31_1024,ExactRep-v3-final,2021.2.3,59.9658074735719,
,,,,,,,,,,,,2,0,2,0,,,,,,,,,,,,,,,,,,,,,,,,,,,,,,,,,,,,,,,,,,,,,,,,,1037.1111246999353,None,,,,,,,,,,,,,,,,,,,,,,,,,,,,,,,,,,,,,,,,,,,,,,,,,,,,,,,,,victory,233,3,sing,new,yellow,1031.6137184998952,None,n,1031.6137184998952,None,"['n', 'return']","[5.07863870030269, 5.462547900155187]",1031.6137184998952,None,,,31NA,001,2023_Mar_31_1024,ExactRep-v3-final,2021.2.3,59.9658074735719,
,,,,,,,,,,,,3,0,3,0,,,,,,,,,,,,,,,,,,,,,,,,,,,,,,,,,,,,,,,,,,,,,,,,,1038.91295300005,None,,,,,,,,,,,,,,,,,,,,,,,,,,,,,,,,,,,,,,,,,,,,,,,,,,,,,,,,,troops,195,4,sing,new,yellow,1037.6202206998132,None,n,1037.6202206998132,None,"['n', 'return']","[0.9601262998767197, 1.2561587998643517]",1037.6202206998132,None,,,31NA,001,2023_Mar_31_1024,ExactRep-v3-final,2021.2.3,59.9658074735719,
,,,,,,,,,,,,4,0,4,0,,,,,,,,,,,,,,,,,,,,,,,,,,,,,,,,,,,,,,,,,,,,,,,,,1042.4831562000327,None,,,,,,,,,,,,,,,,,,,,,,,,,,,,,,,,,,,,,,,,,,,,,,,,,,,,,,,,,green,183,5,sing,new,yellow,1039.4148018998094,None,n,1039.4148018998094,None,"['n', 'return']","[2.8215614003129303, 3.0295841000042856]",1039.4148018998094,None,,,31NA,001,2023_Mar_31_1024,ExactRep-v3-final,2021.2.3,59.9658074735719,
,,,,,,,,,,,,5,0,5,0,,,,,,,,,,,,,,,,,,,,,,,,,,,,,,,,,,,,,,,,,,,,,,,,,1044.8689178000204,None,,,,,,,,,,,,,,,,,,,,,,,,,,,,,,,,,,,,,,,,,,,,,,,,,,,,,,,,,owner,223,6,sing,new,yellow,1042.9899418000132,None,n,1042.9899418000132,None,"['n', 'return']","[1.422522300388664, 1.8383420002646744]",1042.9899418000132,None,,,31NA,001,2023_Mar_31_1024,ExactRep-v3-final,2021.2.3,59.9658074735719,
,,,,,,,,,,,,6,0,6,0,,,,,,,,,,,,,,,,,,,,,,,,,,,,,,,,,,,,,,,,,,,,,,,,,1047.3880643998273,None,,,,,,,,,,,,,,,,,,,,,,,,,,,,,,,,,,,,,,,,,,,,,,,,,,,,,,,,,pipe,144,7,silent,new,yellow,1045.3804746996611,None,n,1045.3804746996611,None,"['n', 'return']","[1.2558296001516283, 1.9759529000148177]",1045.3804746996611,None,,,31NA,001,2023_Mar_31_1024,ExactRep-v3-final,2021.2.3,59.9658074735719,
,,,,,,,,,,,,7,0,7,0,,,,,,,,,,,,,,,,,,,,,,,,,,,,,,,,,,,,,,,,,,,,,,,,,1049.2567004999146,None,,,,,,,,,,,,,,,,,,,,,,,,,,,,,,,,,,,,,,,,,,,,,,,,,,,,,,,,,woman,23,8,sing,old,yellow,1047.9047988997772,None,y,1047.9047988997772,None,"['y', 'return']","[0.9875901001505554, 1.3157092002220452]",1047.9047988997772,None,,,31NA,001,2023_Mar_31_1024,ExactRep-v3-final,2021.2.3,59.9658074735719,
,,,,,,,,,,,,8,0,8,0,,,,,,,,,,,,,,,,,,,,,,,,,,,,,,,,,,,,,,,,,,,,,,,,,1050.7081077001058,None,,,,,,,,,,,,,,,,,,,,,,,,,,,,,,,,,,,,,,,,,,,,,,,,,,,,,,,,,priest,99,9,aloud,old,yellow,1049.7672808999196,None,y,1049.7672808999196,None,"['y', 'return']","[0.6611186000518501, 0.9011590997688472]",1049.7672808999196,None,,,31NA,001,2023_Mar_31_1024,ExactRep-v3-final,2021.2.3,59.9658074735719,
,,,,,,,,,,,,9,0,9,0,,,,,,,,,,,,,,,,,,,,,,,,,,,,,,,,,,,,,,,,,,,,,,,,,1052.3762678997591,None,,,,,,,,,,,,,,,,,,,,,,,,,,,,,,,,,,,,,,,,,,,,,,,,,,,,,,,,,army,202,10,aloud,new,yellow,1051.2172199999914,None,n,1051.2172199999914,None,"['n', 'return']","[0.8433652999810874, 1.1150467996485531]",1051.2172199999914,None,,,31NA,001,2023_Mar_31_1024,ExactRep-v3-final,2021.2.3,59.9658074735719,
,,,,,,,,,,,,10,0,10,0,,,,,,,,,,,,,,,,,,,,,,,,,,,,,,,,,,,,,,,,,,,,,,,,,1054.412000999786,None,,,,,,,,,,,,,,,,,,,,,,,,,,,,,,,,,,,,,,,,,,,,,,,,,,,,,,,,,ability,148,11,silent,new,yellow,1052.8882277999073,None,n,1052.8882277999073,None,"['n', 'return']","[1.108124100137502, 1.4761351002380252]",1052.8882277999073,None,,,31NA,001,2023_Mar_31_1024,ExactRep-v3-final,2021.2.3,59.9658074735719,
,,,,,,,,,,,,11,0,11,0,,,,,,,,,,,,,,,,,,,,,,,,,,,,,,,,,,,,,,,,,,,,,,,,,1057.2145807999186,None,,,,,,,,,,,,,,,,,,,,,,,,,,,,,,,,,,,,,,,,,,,,,,,,,,,,,,,,,vessel,49,12,silent,old,yellow,1054.9223631997593,None,y,1054.9223631997593,None,"['y', 'return']","[1.8979163002222776, 2.250039300415665]",1054.9223631997593,None,,,31NA,001,2023_Mar_31_1024,ExactRep-v3-final,2021.2.3,59.9658074735719,
,,,,,,,,,,,,12,0,12,0,,,,,,,,,,,,,,,,,,,,,,,,,,,,,,,,,,,,,,,,,,,,,,,,,1059.316665600054,None,,,,,,,,,,,,,,,,,,,,,,,,,,,,,,,,,,,,,,,,,,,,,,,,,,,,,,,,,opinion,140,13,silent,new,yellow,1057.7273813998327,None,n,1057.7273813998327,None,"['n', 'return']","[1.252998599782586, 1.55704959994182]",1057.7273813998327,None,,,31NA,001,2023_Mar_31_1024,ExactRep-v3-final,2021.2.3,59.9658074735719,
,,,,,,,,,,,,13,0,13,0,,,,,,,,,,,,,,,,,,,,,,,,,,,,,,,,,,,,,,,,,,,,,,,,,1063.2873110999353,None,,,,,,,,,,,,,,,,,,,,,,,,,,,,,,,,,,,,,,,,,,,,,,,,,,,,,,,,,gift,184,14,aloud,new,yellow,1059.8258663997985,None,n,1059.8258663997985,None,"['n', 'return']","[3.2345157000236213, 3.4264793000184]",1059.8258663997985,None,,,31NA,001,2023_Mar_31_1024,ExactRep-v3-final,2021.2.3,59.9658074735719,
,,,,,,,,,,,,14,0,14,0,,,,,,,,,,,,,,,,,,,,,,,,,,,,,,,,,,,,,,,,,,,,,,,,,1065.18940189993,None,,,,,,,,,,,,,,,,,,,,,,,,,,,,,,,,,,,,,,,,,,,,,,,,,,,,,,,,,science,0,15,sing,old,yellow,1063.798217699863,None,y,1063.798217699863,None,"['y', 'return']","[1.0302895996719599, 1.358050899580121]",1063.798217699863,None,,,31NA,001,2023_Mar_31_1024,ExactRep-v3-final,2021.2.3,59.9658074735719,
,,,,,,,,,,,,15,0,15,0,,,,,,,,,,,,,,,,,,,,,,,,,,,,,,,,,,,,,,,,,,,,,,,,,1066.9578192997724,None,,,,,,,,,,,,,,,,,,,,,,,,,,,,,,,,,,,,,,,,,,,,,,,,,,,,,,,,,cotton,41,16,silent,old,yellow,1065.696096399799,None,n,1065.696096399799,None,"['n', 'return']","[0.9644329999573529, 1.2283180998638272]",1065.696096399799,None,,,31NA,001,2023_Mar_31_1024,ExactRep-v3-final,2021.2.3,59.9658074735719,
,,,,,,,,,,,,16,0,16,0,,,,,,,,,,,,,,,,,,,,,,,,,,,,,,,,,,,,,,,,,,,,,,,,,1068.9264615997672,None,,,,,,,,,,,,,,,,,,,,,,,,,,,,,,,,,,,,,,,,,,,,,,,,,,,,,,,,,idea,160,17,aloud,new,yellow,1067.4655061000958,None,n,1067.4655061000958,None,"['n', 'return']","[1.122887299861759, 1.4269030997529626]",1067.4655061000958,None,,,31NA,001,2023_Mar_31_1024,ExactRep-v3-final,2021.2.3,59.9658074735719,
,,,,,,,,,,,,17,0,17,0,,,,,,,,,,,,,,,,,,,,,,,,,,,,,,,,,,,,,,,,,,,,,,,,,1070.8949086000212,None,,,,,,,,,,,,,,,,,,,,,,,,,,,,,,,,,,,,,,,,,,,,,,,,,,,,,,,,,salary,34,18,sing,old,yellow,1069.4376352000982,None,y,1069.4376352000982,None,"['y', 'return']","[1.111079199705273, 1.4227033997885883]",1069.4376352000982,None,,,31NA,001,2023_Mar_31_1024,ExactRep-v3-final,2021.2.3,59.9658074735719,
,,,,,,,,,,,,18,0,18,0,,,,,,,,,,,,,,,,,,,,,,,,,,,,,,,,,,,,,,,,,,,,,,,,,1072.5299427998252,None,,,,,,,,,,,,,,,,,,,,,,,,,,,,,,,,,,,,,,,,,,,,,,,,,,,,,,,,,cat,182,19,aloud,new,yellow,1071.4035952999257,None,n,1071.4035952999257,None,"['n', 'return']","[0.8409319999627769, 1.0808958001434803]",1071.4035952999257,None,,,31NA,001,2023_Mar_31_1024,ExactRep-v3-final,2021.2.3,59.9658074735719,
,,,,,,,,,,,,19,0,19,0,,,,,,,,,,,,,,,,,,,,,,,,,,,,,,,,,,,,,,,,,,,,,,,,,1074.2315690000542,None,,,,,,,,,,,,,,,,,,,,,,,,,,,,,,,,,,,,,,,,,,,,,,,,,,,,,,,,,season,126,20,silent,new,yellow,1073.0398781998083,None,y,1073.0398781998083,None,"['y', 'return']","[0.7966521997004747, 1.1566222999244928]",1073.0398781998083,None,,,31NA,001,2023_Mar_31_1024,ExactRep-v3-final,2021.2.3,59.9658074735719,
,,,,,,,,,,,,20,0,20,0,,,,,,,,,,,,,,,,,,,,,,,,,,,,,,,,,,,,,,,,,,,,,,,,,1075.9167998996563,None,,,,,,,,,,,,,,,,,,,,,,,,,,,,,,,,,,,,,,,,,,,,,,,,,,,,,,,,,person,130,21,silent,new,yellow,1074.7373314998113,None,n,1074.7373314998113,None,"['n', 'return']","[0.8909452999942005, 1.1470425999723375]",1074.7373314998113,None,,,31NA,001,2023_Mar_31_1024,ExactRep-v3-final,2021.2.3,59.9658074735719,
,,,,,,,,,,,,21,0,21,0,,,,,,,,,,,,,,,,,,,,,,,,,,,,,,,,,,,,,,,,,,,,,,,,,1078.068847599905,None,,,,,,,,,,,,,,,,,,,,,,,,,,,,,,,,,,,,,,,,,,,,,,,,,,,,,,,,,fun,77,22,silent,old,yellow,1076.4257661998272,None,n,1076.4257661998272,None,"['n', 'return']","[1.290790299884975, 1.6107793999835849]",1076.4257661998272,None,,,31NA,001,2023_Mar_31_1024,ExactRep-v3-final,2021.2.3,59.9658074735719,
,,,,,,,,,,,,22,0,22,0,,,,,,,,,,,,,,,,,,,,,,,,,,,,,,,,,,,,,,,,,,,,,,,,,1079.5700729000382,None,,,,,,,,,,,,,,,,,,,,,,,,,,,,,,,,,,,,,,,,,,,,,,,,,,,,,,,,,window,88,23,aloud,old,yellow,1078.5712456996553,None,y,1078.5712456996553,None,"['y', 'return']","[0.6572364000603557, 0.9532540002837777]",1078.5712456996553,None,,,31NA,001,2023_Mar_31_1024,ExactRep-v3-final,2021.2.3,59.9658074735719,
,,,,,,,,,,,,23,0,23,0,,,,,,,,,,,,,,,,,,,,,,,,,,,,,,,,,,,,,,,,,,,,,,,,,1081.4554906999692,None,,,,,,,,,,,,,,,,,,,,,,,,,,,,,,,,,,,,,,,,,,,,,,,,,,,,,,,,,month,135,24,silent,new,yellow,1080.0803322996944,None,n,1080.0803322996944,None,"['n', 'return']","[1.0121712000109255, 1.3319632997736335]",1080.0803322996944,None,,,31NA,001,2023_Mar_31_1024,ExactRep-v3-final,2021.2.3,59.9658074735719,
,,,,,,,,,,,,24,0,24,0,,,,,,,,,,,,,,,,,,,,,,,,,,,,,,,,,,,,,,,,,,,,,,,,,1083.524363100063,None,,,,,,,,,,,,,,,,,,,,,,,,,,,,,,,,,,,,,,,,,,,,,,,,,,,,,,,,,skin,215,25,sing,new,yellow,1081.9685871996917,None,y,1081.9685871996917,None,"['y', 'return']","[1.1638958998955786, 1.52395260008052]",1081.9685871996917,None,,,31NA,001,2023_Mar_31_1024,ExactRep-v3-final,2021.2.3,59.9658074735719,
,,,,,,,,,,,,25,0,25,0,,,,,,,,,,,,,,,,,,,,,,,,,,,,,,,,,,,,,,,,,,,,,,,,,1089.4802250997163,None,,,,,,,,,,,,,,,,,,,,,,,,,,,,,,,,,,,,,,,,,,,,,,,,,,,,,,,,,book,157,26,silent,new,yellow,1084.033293100074,None,n,1084.033293100074,None,"['y', 'n', 'backspace', 'n', 'return']","[2.6350490995682776, 3.635281099937856, 4.707176900003105, 4.987156399991363, 5.411173800006509]",1084.033293100074,None,,,31NA,001,2023_Mar_31_1024,ExactRep-v3-final,2021.2.3,59.9658074735719,
,,,,,,,,,,,,26,0,26,0,,,,,,,,,,,,,,,,,,,,,,,,,,,,,,,,,,,,,,,,,,,,,,,,,1091.1986893001013,None,,,,,,,,,,,,,,,,,,,,,,,,,,,,,,,,,,,,,,,,,,,,,,,,,,,,,,,,,winter,71,27,silent,old,yellow,1089.9923330000602,None,y,1089.9923330000602,None,"['y', 'return']","[0.8200504002161324, 1.1640822999179363]",1089.9923330000602,None,,,31NA,001,2023_Mar_31_1024,ExactRep-v3-final,2021.2.3,59.9658074735719,
,,,,,,,,,,,,27,0,27,0,,,,,,,,,,,,,,,,,,,,,,,,,,,,,,,,,,,,,,,,,,,,,,,,,1092.9002612000331,None,,,,,,,,,,,,,,,,,,,,,,,,,,,,,,,,,,,,,,,,,,,,,,,,,,,,,,,,,brain,7,28,sing,old,yellow,1091.7055090996437,None,y,1091.7055090996437,None,"['y', 'return']","[0.7548897000961006, 1.1549046002328396]",1091.7055090996437,None,,,31NA,001,2023_Mar_31_1024,ExactRep-v3-final,2021.2.3,59.9658074735719,
,,,,,,,,,,,,28,0,28,0,,,,,,,,,,,,,,,,,,,,,,,,,,,,,,,,,,,,,,,,,,,,,,,,,1094.885678799823,None,,,,,,,,,,,,,,,,,,,,,,,,,,,,,,,,,,,,,,,,,,,,,,,,,,,,,,,,,vision,155,29,silent,new,yellow,1093.410255599767,None,n,1093.410255599767,None,"['n', 'return']","[1.1142506999894977, 1.4423201000317931]",1093.410255599767,None,,,31NA,001,2023_Mar_31_1024,ExactRep-v3-final,2021.2.3,59.9658074735719,
,,,,,,,,,,,,29,0,29,0,,,,,,,,,,,,,,,,,,,,,,,,,,,,,,,,,,,,,,,,,,,,,,,,,1096.6538192997687,None,,,,,,,,,,,,,,,,,,,,,,,,,,,,,,,,,,,,,,,,,,,,,,,,,,,,,,,,,shock,198,30,aloud,new,yellow,1095.3947974001057,None,n,1095.3947974001057,None,"['n', 'return']","[0.8655799999833107, 1.2255581999197602]",1095.3947974001057,None,,,31NA,001,2023_Mar_31_1024,ExactRep-v3-final,2021.2.3,59.9658074735719,
,,,,,,,,,,,,30,0,30,0,,,,,,,,,,,,,,,,,,,,,,,,,,,,,,,,,,,,,,,,,,,,,,,,,1099.3068216997199,None,,,,,,,,,,,,,,,,,,,,,,,,,,,,,,,,,,,,,,,,,,,,,,,,,,,,,,,,,dollar,186,31,aloud,new,yellow,1097.1639008997008,None,n,1097.1639008997008,None,"['n', 'return']","[1.82441999996081, 2.104610700160265]",1097.1639008997008,None,,,31NA,001,2023_Mar_31_1024,ExactRep-v3-final,2021.2.3,59.9658074735719,
,,,,,,,,,,,,31,0,31,0,,,,,,,,,,,,,,,,,,,,,,,,,,,,,,,,,,,,,,,,,,,,,,,,,1100.9583380999975,None,,,,,,,,,,,,,,,,,,,,,,,,,,,,,,,,,,,,,,,,,,,,,,,,,,,,,,,,,lord,4,32,sing,old,yellow,1099.8123576999642,None,y,1099.8123576999642,None,"['y', 'return']","[0.792056200094521, 1.1120555000379682]",1099.8123576999642,None,,,31NA,001,2023_Mar_31_1024,ExactRep-v3-final,2021.2.3,59.9658074735719,
,,,,,,,,,,,,32,0,32,0,,,,,,,,,,,,,,,,,,,,,,,,,,,,,,,,,,,,,,,,,,,,,,,,,1102.5934425997548,None,,,,,,,,,,,,,,,,,,,,,,,,,,,,,,,,,,,,,,,,,,,,,,,,,,,,,,,,,devil,102,33,aloud,old,yellow,1101.470297599677,None,y,1101.470297599677,None,"['y', 'return']","[0.7662012996152043, 1.0861378996632993]",1101.470297599677,None,,,31NA,001,2023_Mar_31_1024,ExactRep-v3-final,2021.2.3,59.9658074735719,
,,,,,,,,,,,,33,0,33,0,,,,,,,,,,,,,,,,,,,,,,,,,,,,,,,,,,,,,,,,,,,,,,,,,1104.8121646000072,None,,,,,,,,,,,,,,,,,,,,,,,,,,,,,,,,,,,,,,,,,,,,,,,,,,,,,,,,,plant,122,34,silent,new,yellow,1103.0981338997371,None,y,1103.0981338997371,None,"['y', 'return']","[1.3383373999968171, 1.6663584001362324]",1103.0981338997371,None,,,31NA,001,2023_Mar_31_1024,ExactRep-v3-final,2021.2.3,59.9658074735719,
,,,,,,,,,,,,34,0,34,0,,,,,,,,,,,,,,,,,,,,,,,,,,,,,,,,,,,,,,,,,,,,,,,,,1106.8308612997644,None,,,,,,,,,,,,,,,,,,,,,,,,,,,,,,,,,,,,,,,,,,,,,,,,,,,,,,,,,style,187,35,sing,new,yellow,1105.325138699729,None,n,1105.325138699729,None,"['n', 'return']","[1.1832772004418075, 1.471277500037104]",1105.325138699729,None,,,31NA,001,2023_Mar_31_1024,ExactRep-v3-final,2021.2.3,59.9658074735719,
,,,,,,,,,,,,35,0,35,0,,,,,,,,,,,,,,,,,,,,,,,,,,,,,,,,,,,,,,,,,,,,,,,,,1112.8034601998515,None,,,,,,,,,,,,,,,,,,,,,,,,,,,,,,,,,,,,,,,,,,,,,,,,,,,,,,,,,rock,190,36,aloud,new,yellow,1107.3380180997774,None,n,1107.3380180997774,None,"['n', 'return']","[5.242274600081146, 5.426584700122476]",1107.3380180997774,None,,,31NA,001,2023_Mar_31_1024,ExactRep-v3-final,2021.2.3,59.9658074735719,
,,,,,,,,,,,,36,0,36,0,,,,,,,,,,,,,,,,,,,,,,,,,,,,,,,,,,,,,,,,,,,,,,,,,1114.7720764996484,None,,,,,,,,,,,,,,,,,,,,,,,,,,,,,,,,,,,,,,,,,,,,,,,,,,,,,,,,,poet,162,37,aloud,new,yellow,1113.3081771000288,None,y,1113.3081771000288,None,"['y', 'return']","[1.1285439999774098, 1.416247600223869]",1113.3081771000288,None,,,31NA,001,2023_Mar_31_1024,ExactRep-v3-final,2021.2.3,59.9658074735719,
,,,,,,,,,,,,37,0,37,0,,,,,,,,,,,,,,,,,,,,,,,,,,,,,,,,,,,,,,,,,,,,,,,,,1116.3069321997464,None,,,,,,,,,,,,,,,,,,,,,,,,,,,,,,,,,,,,,,,,,,,,,,,,,,,,,,,,,boy,87,38,aloud,old,yellow,1115.280520199798,None,y,1115.280520199798,None,"['y', 'return']","[0.6520571997389197, 0.9799222000874579]",1115.280520199798,None,,,31NA,001,2023_Mar_31_1024,ExactRep-v3-final,2021.2.3,59.9658074735719,
,,,,,,,,,,,,38,0,38,0,,,,,,,,,,,,,,,,,,,,,,,,,,,,,,,,,,,,,,,,,,,,,,,,,1118.1922120000236,None,,,,,,,,,,,,,,,,,,,,,,,,,,,,,,,,,,,,,,,,,,,,,,,,,,,,,,,,,horse,141,39,silent,new,yellow,1116.8153940998018,None,n,1116.8153940998018,None,"['n', 'return']","[1.0771722001954913, 1.3330373000353575]",1116.8153940998018,None,,,31NA,001,2023_Mar_31_1024,ExactRep-v3-final,2021.2.3,59.9658074735719,
,,,,,,,,,,,,39,0,39,0,,,,,,,,,,,,,,,,,,,,,,,,,,,,,,,,,,,,,,,,,,,,,,,,,1120.0107088997029,None,,,,,,,,,,,,,,,,,,,,,,,,,,,,,,,,,,,,,,,,,,,,,,,,,,,,,,,,,lake,2,40,sing,old,yellow,1118.7037416999228,None,y,1118.7037416999228,None,"['y', 'return']","[0.9726633997634053, 1.2687818999402225]",1118.7037416999228,None,,,31NA,001,2023_Mar_31_1024,ExactRep-v3-final,2021.2.3,59.9658074735719,
,,,,,,,,,,,,40,0,40,0,,,,,,,,,,,,,,,,,,,,,,,,,,,,,,,,,,,,,,,,,,,,,,,,,1122.1793587999418,None,,,,,,,,,,,,,,,,,,,,,,,,,,,,,,,,,,,,,,,,,,,,,,,,,,,,,,,,,murder,197,41,sing,new,yellow,1120.5232841996476,None,n,1120.5232841996476,None,"['n', 'return']","[1.3691613003611565, 1.6171619002707303]",1120.5232841996476,None,,,31NA,001,2023_Mar_31_1024,ExactRep-v3-final,2021.2.3,59.9658074735719,
,,,,,,,,,,,,41,0,41,0,,,,,,,,,,,,,,,,,,,,,,,,,,,,,,,,,,,,,,,,,,,,,,,,,1124.348600700032,None,,,,,,,,,,,,,,,,,,,,,,,,,,,,,,,,,,,,,,,,,,,,,,,,,,,,,,,,,shame,161,42,sing,new,yellow,1122.6916954996996,None,n,1122.6916954996996,None,"['n', 'return']","[1.3688591001555324, 1.616781100165099]",1122.6916954996996,None,,,31NA,001,2023_Mar_31_1024,ExactRep-v3-final,2021.2.3,59.9658074735719,
,,,,,,,,,,,,42,0,42,0,,,,,,,,,,,,,,,,,,,,,,,,,,,,,,,,,,,,,,,,,,,,,,,,,1126.6506798998453,None,,,,,,,,,,,,,,,,,,,,,,,,,,,,,,,,,,,,,,,,,,,,,,,,,,,,,,,,,party,53,43,silent,old,yellow,1124.8583637000993,None,y,1124.8583637000993,None,"['y', 'return']","[1.4902329999022186, 1.7461326001212]",1124.8583637000993,None,,,31NA,001,2023_Mar_31_1024,ExactRep-v3-final,2021.2.3,59.9658074735719,
,,,,,,,,,,,,43,0,43,0,,,,,,,,,,,,,,,,,,,,,,,,,,,,,,,,,,,,,,,,,,,,,,,,,1129.3698855000548,None,,,,,,,,,,,,,,,,,,,,,,,,,,,,,,,,,,,,,,,,,,,,,,,,,,,,,,,,,advice,175,44,sing,new,yellow,1127.158989599906,None,y,1127.158989599906,None,"['y', 'return']","[1.9015727997757494, 2.1654837001115084]",1127.158989599906,None,,,31NA,001,2023_Mar_31_1024,ExactRep-v3-final,2021.2.3,59.9658074735719,
,,,,,,,,,,,,44,0,44,0,,,,,,,,,,,,,,,,,,,,,,,,,,,,,,,,,,,,,,,,,,,,,,,,,1131.038400599733,None,,,,,,,,,,,,,,,,,,,,,,,,,,,,,,,,,,,,,,,,,,,,,,,,,,,,,,,,,beast,104,45,aloud,old,yellow,1129.8824833999388,None,y,1129.8824833999388,None,"['y', 'return']","[0.7859622999094427, 1.1140101999044418]",1129.8824833999388,None,,,31NA,001,2023_Mar_31_1024,ExactRep-v3-final,2021.2.3,59.9658074735719,
,,,,,,,,,,,,45,0,45,0,,,,,,,,,,,,,,,,,,,,,,,,,,,,,,,,,,,,,,,,,,,,,,,,,1132.9070069999434,None,,,,,,,,,,,,,,,,,,,,,,,,,,,,,,,,,,,,,,,,,,,,,,,,,,,,,,,,,time,222,46,aloud,new,yellow,1131.5503254998475,None,y,1131.5503254998475,None,"['y', 'return']","[0.974105800036341, 1.318154300097376]",1131.5503254998475,None,,,31NA,001,2023_Mar_31_1024,ExactRep-v3-final,2021.2.3,59.9658074735719,
,,,,,,,,,,,,46,0,46,0,,,,,,,,,,,,,,,,,,,,,,,,,,,,,,,,,,,,,,,,,,,,,,,,,1134.525177099742,None,,,,,,,,,,,,,,,,,,,,,,,,,,,,,,,,,,,,,,,,,,,,,,,,,,,,,,,,,ship,163,47,sing,new,yellow,1133.4184804996476,None,n,1133.4184804996476,None,"['n', 'return']","[0.74603489972651, 1.066044899635017]",1133.4184804996476,None,,,31NA,001,2023_Mar_31_1024,ExactRep-v3-final,2021.2.3,59.9658074735719,
,,,,,,,,,,,,47,0,47,0,,,,,,,,,,,,,,,,,,,,,,,,,,,,,,,,,,,,,,,,,,,,,,,,,1136.3104151999578,None,,,,,,,,,,,,,,,,,,,,,,,,,,,,,,,,,,,,,,,,,,,,,,,,,,,,,,,,,sugar,60,48,silent,old,yellow,1135.039665099699,None,n,1135.039665099699,None,"['n', 'return']","[0.9648637999780476, 1.2287766998633742]",1135.039665099699,None,,,31NA,001,2023_Mar_31_1024,ExactRep-v3-final,2021.2.3,59.9658074735719,
,,,,,,,,,,,,48,0,48,0,,,,,,,,,,,,,,,,,,,,,,,,,,,,,,,,,,,,,,,,,,,,,,,,,1138.0454194997437,None,,,,,,,,,,,,,,,,,,,,,,,,,,,,,,,,,,,,,,,,,,,,,,,,,,,,,,,,,grass,196,49,aloud,new,yellow,1136.8175106998533,None,y,1136.8175106998533,None,"['y', 'return']","[0.9792304998263717, 1.1870150999166071]",1136.8175106998533,None,,,31NA,001,2023_Mar_31_1024,ExactRep-v3-final,2021.2.3,59.9658074735719,
,,,,,,,,,,,,49,0,49,0,,,,,,,,,,,,,,,,,,,,,,,,,,,,,,,,,,,,,,,,,,,,,,,,,1139.813830900006,None,,,,,,,,,,,,,,,,,,,,,,,,,,,,,,,,,,,,,,,,,,,,,,,,,,,,,,,,,diamond,92,50,aloud,old,yellow,1138.5491369999945,None,y,1138.5491369999945,None,"['y', 'return']","[0.9433921002782881, 1.2233791002072394]",1138.5491369999945,None,,,31NA,001,2023_Mar_31_1024,ExactRep-v3-final,2021.2.3,59.9658074735719,
,,,,,,,,,,,,50,0,50,0,,,,,,,,,,,,,,,,,,,,,,,,,,,,,,,,,,,,,,,,,,,,,,,,,1141.6990299997851,None,,,,,,,,,,,,,,,,,,,,,,,,,,,,,,,,,,,,,,,,,,,,,,,,,,,,,,,,,dawn,37,51,sing,old,yellow,1140.321164299734,None,n,1140.321164299734,None,"['n', 'return']","[1.035228000022471, 1.339341999962926]",1140.321164299734,None,,,31NA,001,2023_Mar_31_1024,ExactRep-v3-final,2021.2.3,59.9658074735719,
,,,,,,,,,,,,51,0,51,0,,,,,,,,,,,,,,,,,,,,,,,,,,,,,,,,,,,,,,,,,,,,,,,,,1143.43412899971,None,,,,,,,,,,,,,,,,,,,,,,,,,,,,,,,,,,,,,,,,,,,,,,,,,,,,,,,,,maiden,33,52,sing,old,yellow,1142.2160130999982,None,n,1142.2160130999982,None,"['n', 'return']","[0.8525044997222722, 1.1725342995487154]",1142.2160130999982,None,,,31NA,001,2023_Mar_31_1024,ExactRep-v3-final,2021.2.3,59.9658074735719,
,,,,,,,,,,,,52,0,52,0,,,,,,,,,,,,,,,,,,,,,,,,,,,,,,,,,,,,,,,,,,,,,,,,,1145.1692912997678,None,,,,,,,,,,,,,,,,,,,,,,,,,,,,,,,,,,,,,,,,,,,,,,,,,,,,,,,,,anger,200,53,aloud,new,yellow,1143.9436428998597,None,n,1143.9436428998597,None,"['n', 'return']","[0.8609917000867426, 1.1889197998680174]",1143.9436428998597,None,,,31NA,001,2023_Mar_31_1024,ExactRep-v3-final,2021.2.3,59.9658074735719,
,,,,,,,,,,,,53,0,53,0,,,,,,,,,,,,,,,,,,,,,,,,,,,,,,,,,,,,,,,,,,,,,,,,,1152.4432687996887,None,,,,,,,,,,,,,,,,,,,,,,,,,,,,,,,,,,,,,,,,,,,,,,,,,,,,,,,,,journal,59,54,silent,old,yellow,1145.679051599931,None,n,1145.679051599931,None,"['n', 'return']","[6.493459600023925, 6.725576799828559]",1145.679051599931,None,,,31NA,001,2023_Mar_31_1024,ExactRep-v3-final,2021.2.3,59.9658074735719,
,,,,,,,,,,,,54,0,54,0,,,,,,,,,,,,,,,,,,,,,,,,,,,,,,,,,,,,,,,,,,,,,,,,,1154.561883899849,None,,,,,,,,,,,,,,,,,,,,,,,,,,,,,,,,,,,,,,,,,,,,,,,,,,,,,,,,,passion,139,55,silent,new,yellow,1152.9571161000058,None,y,1152.9571161000058,None,"['y', 'return']","[1.2313708001747727, 1.5673762001097202]",1152.9571161000058,None,,,31NA,001,2023_Mar_31_1024,ExactRep-v3-final,2021.2.3,59.9658074735719,
,,,,,,,,,,,,55,0,55,0,,,,,,,,,,,,,,,,,,,,,,,,,,,,,,,,,,,,,,,,,,,,,,,,,1159.066578200087,None,,,,,,,,,,,,,,,,,,,,,,,,,,,,,,,,,,,,,,,,,,,,,,,,,,,,,,,,,string,237,56,sing,new,yellow,1155.0770545997657,None,n,1155.0770545997657,None,"['n', 'return']","[3.7196820001117885, 3.9514711000956595]",1155.0770545997657,None,,,31NA,001,2023_Mar_31_1024,ExactRep-v3-final,2021.2.3,59.9658074735719,
,,,,,,,,,,,,56,0,56,0,,,,,,,,,,,,,,,,,,,,,,,,,,,,,,,,,,,,,,,,,,,,,,,,,1160.6680107000284,None,,,,,,,,,,,,,,,,,,,,,,,,,,,,,,,,,,,,,,,,,,,,,,,,,,,,,,,,,theory,108,57,aloud,old,yellow,1159.5691304998472,None,y,1159.5691304998472,None,"['y', 'return']","[0.7954086000099778, 1.051371299661696]",1159.5691304998472,None,,,31NA,001,2023_Mar_31_1024,ExactRep-v3-final,2021.2.3,59.9658074735719,
,,,,,,,,,,,,57,0,57,0,,,,,,,,,,,,,,,,,,,,,,,,,,,,,,,,,,,,,,,,,,,,,,,,,1162.152848099824,None,,,,,,,,,,,,,,,,,,,,,,,,,,,,,,,,,,,,,,,,,,,,,,,,,,,,,,,,,justice,100,58,aloud,old,yellow,1161.1838822998106,None,y,1161.1838822998106,None,"['y', 'return']","[0.6447147997096181, 0.9325617998838425]",1161.1838822998106,None,,,31NA,001,2023_Mar_31_1024,ExactRep-v3-final,2021.2.3,59.9658074735719,
,,,,,,,,,,,,58,0,58,0,,,,,,,,,,,,,,,,,,,,,,,,,,,,,,,,,,,,,,,,,,,,,,,,,1163.9544738000259,None,,,,,,,,,,,,,,,,,,,,,,,,,,,,,,,,,,,,,,,,,,,,,,,,,,,,,,,,,camp,179,59,sing,new,yellow,1162.6554338000715,None,n,1162.6554338000715,None,"['n', 'return']","[0.9810158000327647, 1.2611000002361834]",1162.6554338000715,None,,,31NA,001,2023_Mar_31_1024,ExactRep-v3-final,2021.2.3,59.9658074735719,
,,,,,,,,,,,,59,0,59,0,,,,,,,,,,,,,,,,,,,,,,,,,,,,,,,,,,,,,,,,,,,,,,,,,1166.7241607001051,None,,,,,,,,,,,,,,,,,,,,,,,,,,,,,,,,,,,,,,,,,,,,,,,,,,,,,,,,,machine,228,60,aloud,new,yellow,1164.4629021999426,None,y,1164.4629021999426,None,"['y', 'return']","[1.8615136998705566, 2.2135343002155423]",1164.4629021999426,None,,,31NA,001,2023_Mar_31_1024,ExactRep-v3-final,2021.2.3,59.9658074735719,
,,,,,,,,,,,,60,0,60,0,,,,,,,,,,,,,,,,,,,,,,,,,,,,,,,,,,,,,,,,,,,,,,,,,1168.5092507996596,None,,,,,,,,,,,,,,,,,,,,,,,,,,,,,,,,,,,,,,,,,,,,,,,,,,,,,,,,,prison,181,61,sing,new,yellow,1167.232766899746,None,n,1167.232766899746,None,"['n', 'return']","[1.0438270000740886, 1.2436798000708222]",1167.232766899746,None,,,31NA,001,2023_Mar_31_1024,ExactRep-v3-final,2021.2.3,59.9658074735719,
,,,,,,,,,,,,61,0,61,0,,,,,,,,,,,,,,,,,,,,,,,,,,,,,,,,,,,,,,,,,,,,,,,,,1170.3110181996599,None,,,,,,,,,,,,,,,,,,,,,,,,,,,,,,,,,,,,,,,,,,,,,,,,,,,,,,,,,earth,226,62,aloud,new,yellow,1169.0160785997286,None,y,1169.0160785997286,None,"['y', 'return']","[1.0126290996558964, 1.2525072996504605]",1169.0160785997286,None,,,31NA,001,2023_Mar_31_1024,ExactRep-v3-final,2021.2.3,59.9658074735719,
,,,,,,,,,,,,62,0,62,0,,,,,,,,,,,,,,,,,,,,,,,,,,,,,,,,,,,,,,,,,,,,,,,,,1173.3641760000028,None,,,,,,,,,,,,,,,,,,,,,,,,,,,,,,,,,,,,,,,,,,,,,,,,,,,,,,,,,mother,199,63,sing,new,yellow,1170.8212965996936,None,y,1170.8212965996936,None,"['y', 'return']","[2.0310640996322036, 2.511215499602258]",1170.8212965996936,None,,,31NA,001,2023_Mar_31_1024,ExactRep-v3-final,2021.2.3,59.9658074735719,
,,,,,,,,,,,,63,0,63,0,,,,,,,,,,,,,,,,,,,,,,,,,,,,,,,,,,,,,,,,,,,,,,,,,1175.2827089997008,None,,,,,,,,,,,,,,,,,,,,,,,,,,,,,,,,,,,,,,,,,,,,,,,,,,,,,,,,,friend,116,64,aloud,old,yellow,1173.8713505999185,None,n,1173.8713505999185,None,"['n', 'return']","[1.0291381003335118, 1.3651596000418067]",1173.8713505999185,None,,,31NA,001,2023_Mar_31_1024,ExactRep-v3-final,2021.2.3,59.9658074735719,
,,,,,,,,,,,,64,0,64,0,,,,,,,,,,,,,,,,,,,,,,,,,,,,,,,,,,,,,,,,,,,,,,,,,1177.8185058999807,None,,,,,,,,,,,,,,,,,,,,,,,,,,,,,,,,,,,,,,,,,,,,,,,,,,,,,,,,,forest,54,65,silent,old,yellow,1175.789229299873,None,y,1175.789229299873,None,"['y', 'return']","[1.6952275997027755, 1.9913746998645365]",1175.789229299873,None,,,31NA,001,2023_Mar_31_1024,ExactRep-v3-final,2021.2.3,59.9658074735719,
,,,,,,,,,,,,65,0,65,0,,,,,,,,,,,,,,,,,,,,,,,,,,,,,,,,,,,,,,,,,,,,,,,,,1179.4368604999036,None,,,,,,,,,,,,,,,,,,,,,,,,,,,,,,,,,,,,,,,,,,,,,,,,,,,,,,,,,tool,75,66,silent,old,yellow,1178.3295201999135,None,n,1178.3295201999135,None,"['n', 'return']","[0.7468860000371933, 1.0749681000597775]",1178.3295201999135,None,,,31NA,001,2023_Mar_31_1024,ExactRep-v3-final,2021.2.3,59.9658074735719,
,,,,,,,,,,,,66,0,66,0,,,,,,,,,,,,,,,,,,,,,,,,,,,,,,,,,,,,,,,,,,,,,,,,,1181.0885124998167,None,,,,,,,,,,,,,,,,,,,,,,,,,,,,,,,,,,,,,,,,,,,,,,,,,,,,,,,,,sky,5,67,sing,old,yellow,1179.9380822000094,None,y,1179.9380822000094,None,"['y', 'return']","[0.7304080999456346, 1.106332499999553]",1179.9380822000094,None,,,31NA,001,2023_Mar_31_1024,ExactRep-v3-final,2021.2.3,59.9658074735719,
,,,,,,,,,,,,67,0,67,0,,,,,,,,,,,,,,,,,,,,,,,,,,,,,,,,,,,,,,,,,,,,,,,,,1182.7067378000356,None,,,,,,,,,,,,,,,,,,,,,,,,,,,,,,,,,,,,,,,,,,,,,,,,,,,,,,,,,college,153,68,silent,new,yellow,1181.5985356997699,None,n,1181.5985356997699,None,"['n', 'return']","[0.6859369999729097, 1.0620427997782826]",1181.5985356997699,None,,,31NA,001,2023_Mar_31_1024,ExactRep-v3-final,2021.2.3,59.9658074735719,
,,,,,,,,,,,,68,0,68,0,,,,,,,,,,,,,,,,,,,,,,,,,,,,,,,,,,,,,,,,,,,,,,,,,1184.8922430998646,None,,,,,,,,,,,,,,,,,,,,,,,,,,,,,,,,,,,,,,,,,,,,,,,,,,,,,,,,,ocean,209,69,sing,new,yellow,1183.216418299824,None,n,1183.216418299824,None,"['n', 'return']","[1.2841072999872267, 1.6441162000410259]",1183.216418299824,None,,,31NA,001,2023_Mar_31_1024,ExactRep-v3-final,2021.2.3,59.9658074735719,
,,,,,,,,,,,,69,0,69,0,,,,,,,,,,,,,,,,,,,,,,,,,,,,,,,,,,,,,,,,,,,,,,,,,1187.511610900052,None,,,,,,,,,,,,,,,,,,,,,,,,,,,,,,,,,,,,,,,,,,,,,,,,,,,,,,,,,speech,10,70,sing,old,yellow,1185.3996532997116,None,y,1185.3996532997116,None,"['y', 'return']","[1.748834999743849, 2.068859899882227]",1185.3996532997116,None,,,31NA,001,2023_Mar_31_1024,ExactRep-v3-final,2021.2.3,59.9658074735719,
,,,,,,,,,,,,70,0,70,0,,,,,,,,,,,,,,,,,,,,,,,,,,,,,,,,,,,,,,,,,,,,,,,,,1189.2297947998159,None,,,,,,,,,,,,,,,,,,,,,,,,,,,,,,,,,,,,,,,,,,,,,,,,,,,,,,,,,duty,132,71,silent,new,yellow,1188.0214903000742,None,n,1188.0214903000742,None,"['n', 'return']","[0.7429971001110971, 1.1670435001142323]",1188.0214903000742,None,,,31NA,001,2023_Mar_31_1024,ExactRep-v3-final,2021.2.3,59.9658074735719,
,,,,,,,,,,,,71,0,71,0,,,,,,,,,,,,,,,,,,,,,,,,,,,,,,,,,,,,,,,,,,,,,,,,,1191.0315474998206,None,,,,,,,,,,,,,,,,,,,,,,,,,,,,,,,,,,,,,,,,,,,,,,,,,,,,,,,,,shadow,96,72,aloud,old,yellow,1189.7399578997865,None,y,1189.7399578997865,None,"['y', 'return']","[0.8486636001616716, 1.256646899972111]",1189.7399578997865,None,,,31NA,001,2023_Mar_31_1024,ExactRep-v3-final,2021.2.3,59.9658074735719,
,,,,,,,,,,,,72,0,72,0,,,,,,,,,,,,,,,,,,,,,,,,,,,,,,,,,,,,,,,,,,,,,,,,,1192.5999185997061,None,,,,,,,,,,,,,,,,,,,,,,,,,,,,,,,,,,,,,,,,,,,,,,,,,,,,,,,,,kiss,31,73,sing,old,yellow,1191.5427393000573,None,y,1191.5427393000573,None,"['y', 'return']","[0.6378001999109983, 1.0137220001779497]",1191.5427393000573,None,,,31NA,001,2023_Mar_31_1024,ExactRep-v3-final,2021.2.3,59.9658074735719,
,,,,,,,,,,,,73,0,73,0,,,,,,,,,,,,,,,,,,,,,,,,,,,,,,,,,,,,,,,,,,,,,,,,,1194.2516993000172,None,,,,,,,,,,,,,,,,,,,,,,,,,,,,,,,,,,,,,,,,,,,,,,,,,,,,,,,,,chair,12,74,sing,old,yellow,1193.1058306000195,None,y,1193.1058306000195,None,"['y', 'return']","[0.6346082999370992, 1.1068961001001298]",1193.1058306000195,None,,,31NA,001,2023_Mar_31_1024,ExactRep-v3-final,2021.2.3,59.9658074735719,
,,,,,,,,,,,,74,0,74,0,,,,,,,,,,,,,,,,,,,,,,,,,,,,,,,,,,,,,,,,,,,,,,,,,1195.8426328999922,None,,,,,,,,,,,,,,,,,,,,,,,,,,,,,,,,,,,,,,,,,,,,,,,,,,,,,,,,,clock,58,75,silent,old,yellow,1194.7612147997133,None,y,1194.7612147997133,None,"['y', 'return']","[0.6593546001240611, 1.035232299938798]",1194.7612147997133,None,,,31NA,001,2023_Mar_31_1024,ExactRep-v3-final,2021.2.3,59.9658074735719,
,,,,,,,,,,,,75,0,75,0,,,,,,,,,,,,,,,,,,,,,,,,,,,,,,,,,,,,,,,,,,,,,,,,,1198.0219384999946,None,,,,,,,,,,,,,,,,,,,,,,,,,,,,,,,,,,,,,,,,,,,,,,,,,,,,,,,,,wife,27,76,sing,old,yellow,1196.3633413999341,None,n,1196.3633413999341,None,"['n', 'return']","[1.2491704998537898, 1.6172452000901103]",1196.3633413999341,None,,,31NA,001,2023_Mar_31_1024,ExactRep-v3-final,2021.2.3,59.9658074735719,
,,,,,,,,,,,,76,0,76,0,,,,,,,,,,,,,,,,,,,,,,,,,,,,,,,,,,,,,,,,,,,,,,,,,1199.7238309998065,None,,,,,,,,,,,,,,,,,,,,,,,,,,,,,,,,,,,,,,,,,,,,,,,,,,,,,,,,,length,47,77,silent,old,yellow,1198.5334948999807,None,y,1198.5334948999807,None,"['y', 'return']","[0.7750582997687161, 1.1430528997443616]",1198.5334948999807,None,,,31NA,001,2023_Mar_31_1024,ExactRep-v3-final,2021.2.3,59.9658074735719,
,,,,,,,,,,,,77,0,77,0,,,,,,,,,,,,,,,,,,,,,,,,,,,,,,,,,,,,,,,,,,,,,,,,,1201.5422215000726,None,,,,,,,,,,,,,,,,,,,,,,,,,,,,,,,,,,,,,,,,,,,,,,,,,,,,,,,,,bottle,218,78,aloud,new,yellow,1200.2336989999749,None,y,1200.2336989999749,None,"['y', 'return']","[0.9147246000356972, 1.274781099986285]",1200.2336989999749,None,,,31NA,001,2023_Mar_31_1024,ExactRep-v3-final,2021.2.3,59.9658074735719,
,,,,,,,,,,,,78,0,78,0,,,,,,,,,,,,,,,,,,,,,,,,,,,,,,,,,,,,,,,,,,,,,,,,,1203.5775880999863,None,,,,,,,,,,,,,,,,,,,,,,,,,,,,,,,,,,,,,,,,,,,,,,,,,,,,,,,,,car,156,79,silent,new,yellow,1202.0449892999604,None,y,1202.0449892999604,None,"['y', 'return']","[1.1354952002875507, 1.4873816999606788]",1202.0449892999604,None,,,31NA,001,2023_Mar_31_1024,ExactRep-v3-final,2021.2.3,59.9658074735719,
,,,,,,,,,,,,79,0,79,0,,,,,,,,,,,,,,,,,,,,,,,,,,,,,,,,,,,,,,,,,,,,,,,,,1205.2958998996764,None,,,,,,,,,,,,,,,,,,,,,,,,,,,,,,,,,,,,,,,,,,,,,,,,,,,,,,,,,woods,83,80,aloud,old,yellow,1204.078395599965,None,n,1204.078395599965,None,"['n', 'return']","[0.8542822003364563, 1.1822310001589358]",1204.078395599965,None,,,31NA,001,2023_Mar_31_1024,ExactRep-v3-final,2021.2.3,59.9658074735719,
,,,,,,,,,,,,80,0,80,0,,,,,,,,,,,,,,,,,,,,,,,,,,,,,,,,,,,,,,,,,,,,,,,,,1207.0977770998143,None,,,,,,,,,,,,,,,,,,,,,,,,,,,,,,,,,,,,,,,,,,,,,,,,,,,,,,,,,garden,93,81,aloud,old,yellow,1205.7989320000634,None,y,1205.7989320000634,None,"['y', 'return']","[0.8936362001113594, 1.2536337999626994]",1205.7989320000634,None,,,31NA,001,2023_Mar_31_1024,ExactRep-v3-final,2021.2.3,59.9658074735719,
,,,,,,,,,,,,81,0,81,0,,,,,,,,,,,,,,,,,,,,,,,,,,,,,,,,,,,,,,,,,,,,,,,,,1211.30283709988,None,,,,,,,,,,,,,,,,,,,,,,,,,,,,,,,,,,,,,,,,,,,,,,,,,,,,,,,,,life,66,82,silent,old,yellow,1207.6145485998131,None,n,1207.6145485998131,None,"['n', 'return']","[3.318076899740845, 3.6460091997869313]",1207.6145485998131,None,,,31NA,001,2023_Mar_31_1024,ExactRep-v3-final,2021.2.3,59.9658074735719,
,,,,,,,,,,,,82,0,82,0,,,,,,,,,,,,,,,,,,,,,,,,,,,,,,,,,,,,,,,,,,,,,,,,,1214.8055453998968,None,,,,,,,,,,,,,,,,,,,,,,,,,,,,,,,,,,,,,,,,,,,,,,,,,,,,,,,,,flag,131,83,silent,new,yellow,1211.8164117997512,None,n,1211.8164117997512,None,"['n', 'return']","[2.5481885001063347, 2.9560916000045836]",1211.8164117997512,None,,,31NA,001,2023_Mar_31_1024,ExactRep-v3-final,2021.2.3,59.9658074735719,
,,,,,,,,,,,,83,0,83,0,,,,,,,,,,,,,,,,,,,,,,,,,,,,,,,,,,,,,,,,,,,,,,,,,1216.857704800088,None,,,,,,,,,,,,,,,,,,,,,,,,,,,,,,,,,,,,,,,,,,,,,,,,,,,,,,,,,temple,101,84,aloud,old,yellow,1215.3068045000546,None,n,1215.3068045000546,None,"['n', 'return']","[1.1858973996713758, 1.5057712998241186]",1215.3068045000546,None,,,31NA,001,2023_Mar_31_1024,ExactRep-v3-final,2021.2.3,59.9658074735719,
,,,,,,,,,,,,84,0,84,0,,,,,,,,,,,,,,,,,,,,,,,,,,,,,,,,,,,,,,,,,,,,,,,,,1218.7595644998364,None,,,,,,,,,,,,,,,,,,,,,,,,,,,,,,,,,,,,,,,,,,,,,,,,,,,,,,,,,spirit,205,85,sing,new,yellow,1217.3683654996566,None,n,1217.3683654996566,None,"['n', 'return']","[1.0441995998844504, 1.3481568000279367]",1217.3683654996566,None,,,31NA,001,2023_Mar_31_1024,ExactRep-v3-final,2021.2.3,59.9658074735719,
,,,,,,,,,,,,85,0,85,0,,,,,,,,,,,,,,,,,,,,,,,,,,,,,,,,,,,,,,,,,,,,,,,,,1221.7124268999323,None,,,,,,,,,,,,,,,,,,,,,,,,,,,,,,,,,,,,,,,,,,,,,,,,,,,,,,,,,air,42,86,silent,old,yellow,1219.2648366000503,None,y,1219.2648366000503,None,"['y', 'return']","[2.0996970999985933, 2.411753199994564]",1219.2648366000503,None,,,31NA,001,2023_Mar_31_1024,ExactRep-v3-final,2021.2.3,59.9658074735719,
,,,,,,,,,,,,86,0,86,0,,,,,,,,,,,,,,,,,,,,,,,,,,,,,,,,,,,,,,,,,,,,,,,,,1223.6811095997691,None,,,,,,,,,,,,,,,,,,,,,,,,,,,,,,,,,,,,,,,,,,,,,,,,,,,,,,,,,volume,111,87,aloud,old,yellow,1222.2252209996805,None,y,1222.2252209996805,None,"['y', 'return']","[1.0993372998200357, 1.4112693998031318]",1222.2252209996805,None,,,31NA,001,2023_Mar_31_1024,ExactRep-v3-final,2021.2.3,59.9658074735719,
,,,,,,,,,,,,87,0,87,0,,,,,,,,,,,,,,,,,,,,,,,,,,,,,,,,,,,,,,,,,,,,,,,,,1225.3827876998112,None,,,,,,,,,,,,,,,,,,,,,,,,,,,,,,,,,,,,,,,,,,,,,,,,,,,,,,,,,church,204,88,aloud,new,yellow,1224.1889633000828,None,y,1224.1889633000828,None,"['y', 'return']","[0.7756536998786032, 1.1595502002164721]",1224.1889633000828,None,,,31NA,001,2023_Mar_31_1024,ExactRep-v3-final,2021.2.3,59.9658074735719,
,,,,,,,,,,,,88,0,88,0,,,,,,,,,,,,,,,,,,,,,,,,,,,,,,,,,,,,,,,,,,,,,,,,,1227.1678694998845,None,,,,,,,,,,,,,,,,,,,,,,,,,,,,,,,,,,,,,,,,,,,,,,,,,,,,,,,,,plain,103,89,aloud,old,yellow,1225.8911057999358,None,n,1225.8911057999358,None,"['n', 'return']","[0.9294234002009034, 1.2415166003629565]",1225.8911057999358,None,,,31NA,001,2023_Mar_31_1024,ExactRep-v3-final,2021.2.3,59.9658074735719,
,,,,,,,,,,,,89,0,89,0,,,,,,,,,,,,,,,,,,,,,,,,,,,,,,,,,,,,,,,,,,,,,,,,,1228.886307099834,None,,,,,,,,,,,,,,,,,,,,,,,,,,,,,,,,,,,,,,,,,,,,,,,,,,,,,,,,,hotel,16,90,sing,old,yellow,1227.6788960997947,None,y,1227.6788960997947,None,"['y', 'return']","[0.8456093003042042, 1.173612100072205]",1227.6788960997947,None,,,31NA,001,2023_Mar_31_1024,ExactRep-v3-final,2021.2.3,59.9658074735719,
,,,,,,,,,,,,90,0,90,0,,,,,,,,,,,,,,,,,,,,,,,,,,,,,,,,,,,,,,,,,,,,,,,,,1230.6215185998008,None,,,,,,,,,,,,,,,,,,,,,,,,,,,,,,,,,,,,,,,,,,,,,,,,,,,,,,,,,toy,234,91,aloud,new,yellow,1229.4006906999275,None,n,1229.4006906999275,None,"['n', 'return']","[0.8599354000762105, 1.1799184000119567]",1229.4006906999275,None,,,31NA,001,2023_Mar_31_1024,ExactRep-v3-final,2021.2.3,59.9658074735719,
,,,,,,,,,,,,91,0,91,0,,,,,,,,,,,,,,,,,,,,,,,,,,,,,,,,,,,,,,,,,,,,,,,,,1232.3564603999257,None,,,,,,,,,,,,,,,,,,,,,,,,,,,,,,,,,,,,,,,,,,,,,,,,,,,,,,,,,storm,225,92,sing,new,yellow,1231.1412474997342,None,n,1231.1412474997342,None,"['n', 'return']","[0.8634585998952389, 1.1673884000629187]",1231.1412474997342,None,,,31NA,001,2023_Mar_31_1024,ExactRep-v3-final,2021.2.3,59.9658074735719,
,,,,,,,,,,,,92,0,92,0,,,,,,,,,,,,,,,,,,,,,,,,,,,,,,,,,,,,,,,,,,,,,,,,,1235.4595762998797,None,,,,,,,,,,,,,,,,,,,,,,,,,,,,,,,,,,,,,,,,,,,,,,,,,,,,,,,,,moral,113,93,aloud,old,yellow,1232.8699747999199,None,y,1232.8699747999199,None,"['y', 'return']","[2.198560300283134, 2.5506247002631426]",1232.8699747999199,None,,,31NA,001,2023_Mar_31_1024,ExactRep-v3-final,2021.2.3,59.9658074735719,
,,,,,,,,,,,,93,0,93,0,,,,,,,,,,,,,,,,,,,,,,,,,,,,,,,,,,,,,,,,,,,,,,,,,1237.461502299644,None,,,,,,,,,,,,,,,,,,,,,,,,,,,,,,,,,,,,,,,,,,,,,,,,,,,,,,,,,valley,217,94,sing,new,yellow,1235.9607811998576,None,n,1235.9607811998576,None,"['n', 'return']","[1.1957939001731575, 1.4598217001184821]",1235.9607811998576,None,,,31NA,001,2023_Mar_31_1024,ExactRep-v3-final,2021.2.3,59.9658074735719,
,,,,,,,,,,,,94,0,94,0,,,,,,,,,,,,,,,,,,,,,,,,,,,,,,,,,,,,,,,,,,,,,,,,,1241.849248799961,None,,,,,,,,,,,,,,,,,,,,,,,,,,,,,,,,,,,,,,,,,,,,,,,,,,,,,,,,,fire,149,95,silent,new,yellow,1237.9702951996587,None,n,1237.9702951996587,None,"['n', 'return']","[3.5464129000902176, 3.834218999836594]",1237.9702951996587,None,,,31NA,001,2023_Mar_31_1024,ExactRep-v3-final,2021.2.3,59.9658074735719,
,,,,,,,,,,,,95,0,95,0,,,,,,,,,,,,,,,,,,,,,,,,,,,,,,,,,,,,,,,,,,,,,,,,,1251.9925100998953,None,,,,,,,,,,,,,,,,,,,,,,,,,,,,,,,,,,,,,,,,,,,,,,,,,,,,,,,,,pupil,57,96,silent,old,yellow,1242.3609171998687,None,y,1242.3609171998687,None,"['y', 'return']","[9.243801699951291, 9.587667800020427]",1242.3609171998687,None,,,31NA,001,2023_Mar_31_1024,ExactRep-v3-final,2021.2.3,59.9658074735719,
,,,,,,,,,,,,96,0,96,0,,,,,,,,,,,,,,,,,,,,,,,,,,,,,,,,,,,,,,,,,,,,,,,,,1253.8278349996544,None,,,,,,,,,,,,,,,,,,,,,,,,,,,,,,,,,,,,,,,,,,,,,,,,,,,,,,,,,circle,76,97,silent,old,yellow,1252.5035747000948,None,y,1252.5035747000948,None,"['y', 'return']","[0.9491805001161993, 1.2850318001583219]",1252.5035747000948,None,,,31NA,001,2023_Mar_31_1024,ExactRep-v3-final,2021.2.3,59.9658074735719,
,,,,,,,,,,,,97,0,97,0,,,,,,,,,,,,,,,,,,,,,,,,,,,,,,,,,,,,,,,,,,,,,,,,,1255.996530099772,None,,,,,,,,,,,,,,,,,,,,,,,,,,,,,,,,,,,,,,,,,,,,,,,,,,,,,,,,,moment,220,98,aloud,new,yellow,1254.3360298997723,None,n,1254.3360298997723,None,"['n', 'return']","[1.3007006999105215, 1.61260320013389]",1254.3360298997723,None,,,31NA,001,2023_Mar_31_1024,ExactRep-v3-final,2021.2.3,59.9658074735719,
,,,,,,,,,,,,98,0,98,0,,,,,,,,,,,,,,,,,,,,,,,,,,,,,,,,,,,,,,,,,,,,,,,,,1257.6648498997092,None,,,,,,,,,,,,,,,,,,,,,,,,,,,,,,,,,,,,,,,,,,,,,,,,,,,,,,,,,letter,219,99,sing,new,yellow,1256.497157599777,None,y,1256.497157599777,None,"['y', 'return']","[0.8512662001885474, 1.1233814000152051]",1256.497157599777,None,,,31NA,001,2023_Mar_31_1024,ExactRep-v3-final,2021.2.3,59.9658074735719,
,,,,,,,,,,,,99,0,99,0,,,,,,,,,,,,,,,,,,,,,,,,,,,,,,,,,,,,,,,,,,,,,,,,,1260.9683123999275,None,,,,,,,,,,,,,,,,,,,,,,,,,,,,,,,,,,,,,,,,,,,,,,,,,,,,,,,,,square,213,100,sing,new,yellow,1258.179706899915,None,n,1258.179706899915,None,"['n', 'return']","[2.4808951998129487, 2.7448287000879645]",1258.179706899915,None,,,31NA,001,2023_Mar_31_1024,ExactRep-v3-final,2021.2.3,59.9658074735719,
,,,,,,,,,,,,100,0,100,0,,,,,,,,,,,,,,,,,,,,,,,,,,,,,,,,,,,,,,,,,,,,,,,,,1263.0203643999994,None,,,,,,,,,,,,,,,,,,,,,,,,,,,,,,,,,,,,,,,,,,,,,,,,,,,,,,,,,river,40,101,silent,old,yellow,1261.476746399887,None,y,1261.476746399887,None,"['y', 'return']","[0.8480446999892592, 1.5039963000454009]",1261.476746399887,None,,,31NA,001,2023_Mar_31_1024,ExactRep-v3-final,2021.2.3,59.9658074735719,
,,,,,,,,,,,,101,0,101,0,,,,,,,,,,,,,,,,,,,,,,,,,,,,,,,,,,,,,,,,,,,,,,,,,1264.6554302996956,None,,,,,,,,,,,,,,,,,,,,,,,,,,,,,,,,,,,,,,,,,,,,,,,,,,,,,,,,,gold,238,102,aloud,new,yellow,1263.524547399953,None,n,1263.524547399953,None,"['n', 'return']","[0.8000799999572337, 1.0880343997851014]",1263.524547399953,None,,,31NA,001,2023_Mar_31_1024,ExactRep-v3-final,2021.2.3,59.9658074735719,
,,,,,,,,,,,,102,0,102,0,,,,,,,,,,,,,,,,,,,,,,,,,,,,,,,,,,,,,,,,,,,,,,,,,1266.2567720999941,None,,,,,,,,,,,,,,,,,,,,,,,,,,,,,,,,,,,,,,,,,,,,,,,,,,,,,,,,,bar,85,103,aloud,old,yellow,1265.1642930996604,None,y,1265.1642930996604,None,"['y', 'return']","[0.7362903002649546, 1.0482506998814642]",1265.1642930996604,None,,,31NA,001,2023_Mar_31_1024,ExactRep-v3-final,2021.2.3,59.9658074735719,
,,,,,,,,,,,,103,0,103,0,,,,,,,,,,,,,,,,,,,,,,,,,,,,,,,,,,,,,,,,,,,,,,,,,1268.3254946996458,None,,,,,,,,,,,,,,,,,,,,,,,,,,,,,,,,,,,,,,,,,,,,,,,,,,,,,,,,,meeting,119,104,aloud,old,yellow,1266.7671360000968,None,y,1266.7671360000968,None,"['y', 'return']","[1.2054681000299752, 1.5174444997683167]",1266.7671360000968,None,,,31NA,001,2023_Mar_31_1024,ExactRep-v3-final,2021.2.3,59.9658074735719,
,,,,,,,,,,,,104,0,104,0,,,,,,,,,,,,,,,,,,,,,,,,,,,,,,,,,,,,,,,,,,,,,,,,,1270.310987799894,None,,,,,,,,,,,,,,,,,,,,,,,,,,,,,,,,,,,,,,,,,,,,,,,,,,,,,,,,,seat,78,105,silent,old,yellow,1268.8348876000382,None,y,1268.8348876000382,None,"['y', 'return']","[1.1377440001815557, 1.4416554998606443]",1268.8348876000382,None,,,31NA,001,2023_Mar_31_1024,ExactRep-v3-final,2021.2.3,59.9658074735719,
,,,,,,,,,,,,105,0,105,0,,,,,,,,,,,,,,,,,,,,,,,,,,,,,,,,,,,,,,,,,,,,,,,,,1271.946127699688,None,,,,,,,,,,,,,,,,,,,,,,,,,,,,,,,,,,,,,,,,,,,,,,,,,,,,,,,,,nail,193,106,sing,new,yellow,1270.8222332000732,None,n,1270.8222332000732,None,"['n', 'return']","[0.750371300149709, 1.0863875998184085]",1270.8222332000732,None,,,31NA,001,2023_Mar_31_1024,ExactRep-v3-final,2021.2.3,59.9658074735719,
,,,,,,,,,,,,106,0,106,0,,,,,,,,,,,,,,,,,,,,,,,,,,,,,,,,,,,,,,,,,,,,,,,,,1273.9813438998535,None,,,,,,,,,,,,,,,,,,,,,,,,,,,,,,,,,,,,,,,,,,,,,,,,,,,,,,,,,bowl,90,107,aloud,old,yellow,1272.4552560998127,None,n,1272.4552560998127,None,"['n', 'return']","[1.1093870997428894, 1.4854344995692372]",1272.4552560998127,None,,,31NA,001,2023_Mar_31_1024,ExactRep-v3-final,2021.2.3,59.9658074735719,
,,,,,,,,,,,,107,0,107,0,,,,,,,,,,,,,,,,,,,,,,,,,,,,,,,,,,,,,,,,,,,,,,,,,1277.1844921996817,None,,,,,,,,,,,,,,,,,,,,,,,,,,,,,,,,,,,,,,,,,,,,,,,,,,,,,,,,,stone,224,108,aloud,new,yellow,1274.4936092998832,None,n,1274.4936092998832,None,"['n', 'return']","[2.3428719001822174, 2.646905600093305]",1274.4936092998832,None,,,31NA,001,2023_Mar_31_1024,ExactRep-v3-final,2021.2.3,59.9658074735719,
,,,,,,,,,,,,108,0,108,0,,,,,,,,,,,,,,,,,,,,,,,,,,,,,,,,,,,,,,,,,,,,,,,,,1278.886245700065,None,,,,,,,,,,,,,,,,,,,,,,,,,,,,,,,,,,,,,,,,,,,,,,,,,,,,,,,,,mercy,91,109,aloud,old,yellow,1277.6918512997217,None,y,1277.6918512997217,None,"['y', 'return']","[0.9207341000437737, 1.1606716001406312]",1277.6918512997217,None,,,31NA,001,2023_Mar_31_1024,ExactRep-v3-final,2021.2.3,59.9658074735719,
,,,,,,,,,,,,109,0,109,0,,,,,,,,,,,,,,,,,,,,,,,,,,,,,,,,,,,,,,,,,,,,,,,,,1280.75484639965,None,,,,,,,,,,,,,,,,,,,,,,,,,,,,,,,,,,,,,,,,,,,,,,,,,,,,,,,,,dust,127,110,silent,new,yellow,1279.3953096996993,None,n,1279.3953096996993,None,"['n', 'return']","[1.0252700997516513, 1.3213325999677181]",1279.3953096996993,None,,,31NA,001,2023_Mar_31_1024,ExactRep-v3-final,2021.2.3,59.9658074735719,
,,,,,,,,,,,,110,0,110,0,,,,,,,,,,,,,,,,,,,,,,,,,,,,,,,,,,,,,,,,,,,,,,,,,1282.9069272996858,None,,,,,,,,,,,,,,,,,,,,,,,,,,,,,,,,,,,,,,,,,,,,,,,,,,,,,,,,,engine,86,111,aloud,old,yellow,1281.2646391000599,None,y,1281.2646391000599,None,"['y', 'return']","[1.2441320000216365, 1.60399129986763]",1281.2646391000599,None,,,31NA,001,2023_Mar_31_1024,ExactRep-v3-final,2021.2.3,59.9658074735719,
,,,,,,,,,,,,111,0,111,0,,,,,,,,,,,,,,,,,,,,,,,,,,,,,,,,,,,,,,,,,,,,,,,,,1284.9423018000089,None,,,,,,,,,,,,,,,,,,,,,,,,,,,,,,,,,,,,,,,,,,,,,,,,,,,,,,,,,method,189,112,sing,new,yellow,1283.4143113996834,None,n,1283.4143113996834,None,"['n', 'return']","[1.1344206999056041, 1.486289800144732]",1283.4143113996834,None,,,31NA,001,2023_Mar_31_1024,ExactRep-v3-final,2021.2.3,59.9658074735719,
,,,,,,,,,,,,112,0,112,0,,,,,,,,,,,,,,,,,,,,,,,,,,,,,,,,,,,,,,,,,,,,,,,,,1286.9444531998597,None,,,,,,,,,,,,,,,,,,,,,,,,,,,,,,,,,,,,,,,,,,,,,,,,,,,,,,,,,metal,216,113,aloud,new,yellow,1285.4428778998554,None,y,1285.4428778998554,None,"['y', 'return']","[1.1696068001911044, 1.4576530000194907]",1285.4428778998554,None,,,31NA,001,2023_Mar_31_1024,ExactRep-v3-final,2021.2.3,59.9658074735719,
,,,,,,,,,,,,113,0,113,0,,,,,,,,,,,,,,,,,,,,,,,,,,,,,,,,,,,,,,,,,,,,,,,,,1289.0797553998418,None,,,,,,,,,,,,,,,,,,,,,,,,,,,,,,,,,,,,,,,,,,,,,,,,,,,,,,,,,health,11,114,sing,old,yellow,1287.4555803998373,None,y,1287.4555803998373,None,"['y', 'return']","[1.3010093001648784, 1.5809729001484811]",1287.4555803998373,None,,,31NA,001,2023_Mar_31_1024,ExactRep-v3-final,2021.2.3,59.9658074735719,
,,,,,,,,,,,,114,0,114,0,,,,,,,,,,,,,,,,,,,,,,,,,,,,,,,,,,,,,,,,,,,,,,,,,1290.581250499934,None,,,,,,,,,,,,,,,,,,,,,,,,,,,,,,,,,,,,,,,,,,,,,,,,,,,,,,,,,heaven,6,115,sing,old,yellow,1289.589828199707,None,y,1289.589828199707,None,"['y', 'return']","[0.6308986996300519, 0.9507100996561348]",1289.589828199707,None,,,31NA,001,2023_Mar_31_1024,ExactRep-v3-final,2021.2.3,59.9658074735719,
,,,,,,,,,,,,115,0,115,0,,,,,,,,,,,,,,,,,,,,,,,,,,,,,,,,,,,,,,,,,,,,,,,,,1292.1161499000154,None,,,,,,,,,,,,,,,,,,,,,,,,,,,,,,,,,,,,,,,,,,,,,,,,,,,,,,,,,chief,17,116,sing,old,yellow,1291.08995269984,None,y,1291.08995269984,None,"['y', 'return']","[0.6427957001142204, 0.978683200199157]",1291.08995269984,None,,,31NA,001,2023_Mar_31_1024,ExactRep-v3-final,2021.2.3,59.9658074735719,
,,,,,,,,,,,,116,0,116,0,,,,,,,,,,,,,,,,,,,,,,,,,,,,,,,,,,,,,,,,,,,,,,,,,1293.934619799722,None,,,,,,,,,,,,,,,,,,,,,,,,,,,,,,,,,,,,,,,,,,,,,,,,,,,,,,,,,boulder,236,117,aloud,new,yellow,1292.6296914000995,None,n,1292.6296914000995,None,"['n', 'return']","[0.9508954002521932, 1.2630296000279486]",1292.6296914000995,None,,,31NA,001,2023_Mar_31_1024,ExactRep-v3-final,2021.2.3,59.9658074735719,
,,,,,,,,,,,,117,0,117,0,,,,,,,,,,,,,,,,,,,,,,,,,,,,,,,,,,,,,,,,,,,,,,,,,1295.8699081996456,None,,,,,,,,,,,,,,,,,,,,,,,,,,,,,,,,,,,,,,,,,,,,,,,,,,,,,,,,,freedom,125,118,silent,new,yellow,1294.4443491999991,None,n,1294.4443491999991,None,"['n', 'return']","[1.1045906003564596, 1.384317500051111]",1294.4443491999991,None,,,31NA,001,2023_Mar_31_1024,ExactRep-v3-final,2021.2.3,59.9658074735719,
,,,,,,,,,,,,118,0,118,0,,,,,,,,,,,,,,,,,,,,,,,,,,,,,,,,,,,,,,,,,,,,,,,,,1297.5882687000558,None,,,,,,,,,,,,,,,,,,,,,,,,,,,,,,,,,,,,,,,,,,,,,,,,,,,,,,,,,officer,174,119,aloud,new,yellow,1296.3799415999092,None,y,1296.3799415999092,None,"['y', 'return']","[0.8728229999542236, 1.1687247999943793]",1296.3799415999092,None,,,31NA,001,2023_Mar_31_1024,ExactRep-v3-final,2021.2.3,59.9658074735719,
,,,,,,,,,,,,119,0,119,0,,,,,,,,,,,,,,,,,,,,,,,,,,,,,,,,,,,,,,,,,,,,,,,,,1299.8905686000362,None,,,,,,,,,,,,,,,,,,,,,,,,,,,,,,,,,,,,,,,,,,,,,,,,,,,,,,,,,event,97,120,aloud,old,yellow,1298.0964461998083,None,n,1298.0964461998083,None,"['n', 'return']","[1.5002514999359846, 1.7561858999542892]",1298.0964461998083,None,,,31NA,001,2023_Mar_31_1024,ExactRep-v3-final,2021.2.3,59.9658074735719,
,,,,,,,,,,,,120,0,120,0,,,,,,,,,,,,,,,,,,,,,,,,,,,,,,,,,,,,,,,,,,,,,,,,,1301.308662599884,None,,,,,,,,,,,,,,,,,,,,,,,,,,,,,,,,,,,,,,,,,,,,,,,,,,,,,,,,,paper,22,121,sing,old,yellow,1300.3988803997636,None,y,1300.3988803997636,None,"['y', 'return']","[0.6377230999059975, 0.869794299826026]",1300.3988803997636,None,,,31NA,001,2023_Mar_31_1024,ExactRep-v3-final,2021.2.3,59.9658074735719,
,,,,,,,,,,,,121,0,121,0,,,,,,,,,,,,,,,,,,,,,,,,,,,,,,,,,,,,,,,,,,,,,,,,,1307.3647167999297,None,,,,,,,,,,,,,,,,,,,,,,,,,,,,,,,,,,,,,,,,,,,,,,,,,,,,,,,,,wine,109,122,aloud,old,yellow,1301.810913299676,None,y,1301.810913299676,None,"['y', 'return']","[5.233890500385314, 5.521721800323576]",1301.810913299676,None,,,31NA,001,2023_Mar_31_1024,ExactRep-v3-final,2021.2.3,59.9658074735719,
,,,,,,,,,,,,122,0,122,0,,,,,,,,,,,,,,,,,,,,,,,,,,,,,,,,,,,,,,,,,,,,,,,,,1309.6002460997552,None,,,,,,,,,,,,,,,,,,,,,,,,,,,,,,,,,,,,,,,,,,,,,,,,,,,,,,,,,fault,123,123,silent,new,yellow,1307.8651624997146,None,n,1307.8651624997146,None,"['n', 'return']","[1.4995468999259174, 1.6914148000068963]",1307.8651624997146,None,,,31NA,001,2023_Mar_31_1024,ExactRep-v3-final,2021.2.3,59.9658074735719,
,,,,,,,,,,,,123,0,123,0,,,,,,,,,,,,,,,,,,,,,,,,,,,,,,,,,,,,,,,,,,,,,,,,,1311.5356262000278,None,,,,,,,,,,,,,,,,,,,,,,,,,,,,,,,,,,,,,,,,,,,,,,,,,,,,,,,,,form,64,124,silent,old,yellow,1310.1080034999177,None,n,1310.1080034999177,None,"['n', 'return']","[0.97691690037027, 1.3926739003509283]",1310.1080034999177,None,,,31NA,001,2023_Mar_31_1024,ExactRep-v3-final,2021.2.3,59.9658074735719,
,,,,,,,,,,,,124,0,124,0,,,,,,,,,,,,,,,,,,,,,,,,,,,,,,,,,,,,,,,,,,,,,,,,,1313.8069295999594,None,,,,,,,,,,,,,,,,,,,,,,,,,,,,,,,,,,,,,,,,,,,,,,,,,,,,,,,,,coffee,232,125,aloud,new,yellow,1312.0478475997224,None,n,1312.0478475997224,None,"['n', 'return']","[1.3887239997275174, 1.7248097998090088]",1312.0478475997224,None,,,31NA,001,2023_Mar_31_1024,ExactRep-v3-final,2021.2.3,59.9658074735719,
,,,,,,,,,,,,125,0,125,0,,,,,,,,,,,,,,,,,,,,,,,,,,,,,,,,,,,,,,,,,,,,,,,,,1319.994023599662,None,,,,,,,,,,,,,,,,,,,,,,,,,,,,,,,,,,,,,,,,,,,,,,,,,,,,,,,,,coast,159,126,silent,new,yellow,1314.3277594996616,None,n,1314.3277594996616,None,"['n', 'return']","[5.340911599807441, 5.628865200094879]",1314.3277594996616,None,,,31NA,001,2023_Mar_31_1024,ExactRep-v3-final,2021.2.3,59.9658074735719,
,,,,,,,,,,,,126,0,126,0,,,,,,,,,,,,,,,,,,,,,,,,,,,,,,,,,,,,,,,,,,,,,,,,,1322.0127053996548,None,,,,,,,,,,,,,,,,,,,,,,,,,,,,,,,,,,,,,,,,,,,,,,,,,,,,,,,,,pride,206,127,aloud,new,yellow,1320.505554900039,None,y,1320.505554900039,None,"['y', 'return']","[1.1550739002414048, 1.459151899907738]",1320.505554900039,None,,,31NA,001,2023_Mar_31_1024,ExactRep-v3-final,2021.2.3,59.9658074735719,
,,,,,,,,,,,,127,0,127,0,,,,,,,,,,,,,,,,,,,,,,,,,,,,,,,,,,,,,,,,,,,,,,,,,1324.5987661997788,None,,,,,,,,,,,,,,,,,,,,,,,,,,,,,,,,,,,,,,,,,,,,,,,,,,,,,,,,,cabin,167,128,sing,new,yellow,1322.5224517998286,None,n,1322.5224517998286,None,"['n', 'return']","[1.4422157001681626, 2.042226199992001]",1322.5224517998286,None,,,31NA,001,2023_Mar_31_1024,ExactRep-v3-final,2021.2.3,59.9658074735719,
,,,,,,,,,,,,128,0,128,0,,,,,,,,,,,,,,,,,,,,,,,,,,,,,,,,,,,,,,,,,,,,,,,,,1326.40059309965,None,,,,,,,,,,,,,,,,,,,,,,,,,,,,,,,,,,,,,,,,,,,,,,,,,,,,,,,,,slave,138,129,silent,new,yellow,1325.1122586997226,None,n,1325.1122586997226,None,"['n', 'return']","[0.9325159997679293, 1.2444826001301408]",1325.1122586997226,None,,,31NA,001,2023_Mar_31_1024,ExactRep-v3-final,2021.2.3,59.9658074735719,
,,,,,,,,,,,,129,0,129,0,,,,,,,,,,,,,,,,,,,,,,,,,,,,,,,,,,,,,,,,,,,,,,,,,1328.452432199847,None,,,,,,,,,,,,,,,,,,,,,,,,,,,,,,,,,,,,,,,,,,,,,,,,,,,,,,,,,body,137,130,silent,new,yellow,1326.9125835997984,None,y,1326.9125835997984,None,"['y', 'return']","[1.2683008001185954, 1.5000891997478902]",1326.9125835997984,None,,,31NA,001,2023_Mar_31_1024,ExactRep-v3-final,2021.2.3,59.9658074735719,
,,,,,,,,,,,,130,0,130,0,,,,,,,,,,,,,,,,,,,,,,,,,,,,,,,,,,,,,,,,,,,,,,,,,1329.9875499000773,None,,,,,,,,,,,,,,,,,,,,,,,,,,,,,,,,,,,,,,,,,,,,,,,,,,,,,,,,,breast,26,131,sing,old,yellow,1328.9532033000141,None,y,1328.9532033000141,None,"['y', 'return']","[0.6594666000455618, 0.9873548997566104]",1328.9532033000141,None,,,31NA,001,2023_Mar_31_1024,ExactRep-v3-final,2021.2.3,59.9658074735719,
