trials_fam.thisRepN,trials_fam.thisTrialN,trials_fam.thisN,trials_fam.thisIndex,trials_prc.thisRepN,trials_prc.thisTrialN,trials_prc.thisN,trials_prc.thisIndex,StudyLoop.thisRepN,StudyLoop.thisTrialN,StudyLoop.thisN,StudyLoop.thisIndex,TestLoop.thisRepN,TestLoop.thisTrialN,TestLoop.thisN,TestLoop.thisIndex,text_colortest.started,text_colortest.stopped,key_colortest.keys,key_colortest.rt,key_colortest.started,key_colortest.stopped,textCondition.started,textCondition.stopped,keyCondition.keys,keyCondition.rt,keyCondition.started,keyCondition.stopped,Condition_between,Condition_counterbal,keyWelcome.keys,keyWelcome.rt,keyWelcome.started,keyWelcome.stopped,welcome_a.started,welcome_a.stopped,welcome_b.started,welcome_b.stopped,welcome_c.started,welcome_c.stopped,welcome_d.started,welcome_d.stopped,welcome_e.started,welcome_e.stopped,welcome_f.started,welcome_f.stopped,key_resp_fam_inst.keys,key_resp_fam_inst.rt,key_resp_fam_inst.started,key_resp_fam_inst.stopped,fam_a.started,fam_a.stopped,fam_b.started,fam_b.stopped,fam_c.started,fam_c.stopped,fam_d.started,fam_d.stopped,fam_e.started,fam_e.stopped,fam_f.started,fam_f.stopped,text_famil.started,text_famil.stopped,textBlank500.started,textBlank500.stopped,key_resp_prc_inst.keys,key_resp_prc_inst.rt,key_resp_prc_inst.started,key_resp_prc_inst.stopped,prac_a.started,prac_a.stopped,prac_b.started,prac_b.stopped,prac_c.started,prac_c.stopped,prac_d.started,prac_d.stopped,prac_e.started,prac_e.stopped,prac_f.started,prac_f.stopped,text_prc_trial.started,text_prc_trial.stopped,key_resp_study_inst.keys,key_resp_study_inst.rt,key_resp_study_inst.started,key_resp_study_inst.stopped,crit_a.started,crit_a.stopped,crit_b.started,crit_b.stopped,crit_c.started,crit_c.stopped,crit_d.started,crit_d.stopped,crit_e.started,crit_e.stopped,crit_f.started,crit_f.stopped,study_word,study_num,study_order,study_type,word_color,textStudy.started,textStudy.stopped,keyStudy.keys,keyStudy.started,keyStudy.stopped,post_study.started,post_study.stopped,key_resp_post_study.keys,key_resp_post_study.rt,key_resp_post_study.started,key_resp_post_study.stopped,test_inst.started,test_inst.stopped,key_resp_test_inst.keys,key_resp_test_inst.rt,key_resp_test_inst.started,key_resp_test_inst.stopped,test_word,test_num,test_order,test_condition,old_new_test,word_color_test,textConf.started,textConf.stopped,Participant Response,textInput.started,textInput.stopped,keyResp.keys,keyResp.rt,keyResp.started,keyResp.stopped,textEnd.started,textEnd.stopped,participant,session,date,expName,psychopyVersion,frameRate,
,,,,,,,,,,,,,,,,17.00679269991815,None,n,2.891909800004214,17.00679269991815,None,,,,,,,,,,,,,,,,,,,,,,,,,,,,,,,,,,,,,,,,,,,,,,,,,,,,,,,,,,,,,,,,,,,,,,,,,,,,,,,,,,,,,,,,,,,,,,,,,,,,,,,,,,,,,,,,,,,,,,32,001,2023_Apr_03_0954,ExactRep-v3-final,2021.2.3,59.99473249222061,
,,,,,,,,,,,,,,,,,,,,,,19.921033199876547,None,b,0.16972830006852746,19.921033199876547,None,,,,,,,,,,,,,,,,,,,,,,,,,,,,,,,,,,,,,,,,,,,,,,,,,,,,,,,,,,,,,,,,,,,,,,,,,,,,,,,,,,,,,,,,,,,,,,,,,,,,,,,,,,,,,,,,32,001,2023_Apr_03_0954,ExactRep-v3-final,2021.2.3,59.99473249222061,
,,,,,,,,,,,,,,,,,,,,,,,,,,,,whitefoils,b,space,399.6804474000819,30.29873780021444,None,,,,,,,,,,,,,,,,,,,,,,,,,,,,,,,,,,,,,,,,,,,,,,,,,,,,,,,,,,,,,,,,,,,,,,,,,,,,,,,,,,,,,,,,,,,,,,,,,,,,,,,,,,32,001,2023_Apr_03_0954,ExactRep-v3-final,2021.2.3,59.99473249222061,
,,,,,,,,,,,,,,,,,,,,,,,,,,,,,,,,,,20.361498000100255,None,20.361498000100255,None,20.361498000100255,None,20.361498000100255,None,20.361498000100255,None,20.361498000100255,None,space,16.674325699917972,440.1688597998582,None,,,,,,,,,,,,,,,,,,,,,,,,,,,,,,,,,,,,,,,,,,,,,,,,,,,,,,,,,,,,,,,,,,,,,,,,,,,,,,,,,,,,,,,,,,32,001,2023_Apr_03_0954,ExactRep-v3-final,2021.2.3,59.99473249222061,
0,0,0,0,,,,,,,,,,,,,,,,,,,,,,,,,,,,,,,,,,,,,,,,,,,,,,,430.19906160002574,None,430.19906160002574,None,430.19906160002574,None,430.19906160002574,None,430.19906160002574,None,430.19906160002574,None,456.9615107998252,None,458.9431098001078,None,,,,,,,,,,,,,,,,,,,,,,,,,,,,,,,,,,,,,,,,,,,,,,,,,,,,,,,,,,,,,,,,,,,,,,,,,,32,001,2023_Apr_03_0954,ExactRep-v3-final,2021.2.3,59.99473249222061,
1,0,1,0,,,,,,,,,,,,,,,,,,,,,,,,,,,,,,,,,,,,,,,,,,,,,,,,,,,,,,,,,,,459.4507124000229,None,461.46244599996135,None,,,,,,,,,,,,,,,,,,,,,,,,,,,,,,,,,,,,,,,,,,,,,,,,,,,,,,,,,,,,,,,,,,,,,,,,,,32,001,2023_Apr_03_0954,ExactRep-v3-final,2021.2.3,59.99473249222061,
2,0,2,0,,,,,,,,,,,,,,,,,,,,,,,,,,,,,,,,,,,,,,,,,,,,,,,,,,,,,,,,,,,461.97126669995487,None,463.9818501002155,None,,,,,,,,,,,,,,,,,,,,,,,,,,,,,,,,,,,,,,,,,,,,,,,,,,,,,,,,,,,,,,,,,,,,,,,,,,32,001,2023_Apr_03_0954,ExactRep-v3-final,2021.2.3,59.99473249222061,
3,0,3,0,,,,,,,,,,,,,,,,,,,,,,,,,,,,,,,,,,,,,,,,,,,,,,,,,,,,,,,,,,,464.48502320004627,None,466.4842726998031,None,,,,,,,,,,,,,,,,,,,,,,,,,,,,,,,,,,,,,,,,,,,,,,,,,,,,,,,,,,,,,,,,,,,,,,,,,,32,001,2023_Apr_03_0954,ExactRep-v3-final,2021.2.3,59.99473249222061,
4,0,4,0,,,,,,,,,,,,,,,,,,,,,,,,,,,,,,,,,,,,,,,,,,,,,,,,,,,,,,,,,,,466.98640479985625,None,468.9871450997889,None,,,,,,,,,,,,,,,,,,,,,,,,,,,,,,,,,,,,,,,,,,,,,,,,,,,,,,,,,,,,,,,,,,,,,,,,,,32,001,2023_Apr_03_0954,ExactRep-v3-final,2021.2.3,59.99473249222061,
5,0,5,0,,,,,,,,,,,,,,,,,,,,,,,,,,,,,,,,,,,,,,,,,,,,,,,,,,,,,,,,,,,469.48718369985,None,471.4890461000614,None,,,,,,,,,,,,,,,,,,,,,,,,,,,,,,,,,,,,,,,,,,,,,,,,,,,,,,,,,,,,,,,,,,,,,,,,,,32,001,2023_Apr_03_0954,ExactRep-v3-final,2021.2.3,59.99473249222061,
6,0,6,0,,,,,,,,,,,,,,,,,,,,,,,,,,,,,,,,,,,,,,,,,,,,,,,,,,,,,,,,,,,471.9896407998167,None,473.9916174998507,None,,,,,,,,,,,,,,,,,,,,,,,,,,,,,,,,,,,,,,,,,,,,,,,,,,,,,,,,,,,,,,,,,,,,,,,,,,32,001,2023_Apr_03_0954,ExactRep-v3-final,2021.2.3,59.99473249222061,
7,0,7,0,,,,,,,,,,,,,,,,,,,,,,,,,,,,,,,,,,,,,,,,,,,,,,,,,,,,,,,,,,,474.49224059982225,None,476.4942977000028,None,,,,,,,,,,,,,,,,,,,,,,,,,,,,,,,,,,,,,,,,,,,,,,,,,,,,,,,,,,,,,,,,,,,,,,,,,,32,001,2023_Apr_03_0954,ExactRep-v3-final,2021.2.3,59.99473249222061,
8,0,8,0,,,,,,,,,,,,,,,,,,,,,,,,,,,,,,,,,,,,,,,,,,,,,,,,,,,,,,,,,,,476.9961876999587,None,478.99672400020063,None,,,,,,,,,,,,,,,,,,,,,,,,,,,,,,,,,,,,,,,,,,,,,,,,,,,,,,,,,,,,,,,,,,,,,,,,,,32,001,2023_Apr_03_0954,ExactRep-v3-final,2021.2.3,59.99473249222061,
9,0,9,0,,,,,,,,,,,,,,,,,,,,,,,,,,,,,,,,,,,,,,,,,,,,,,,,,,,,,,,,,,,479.4988216999918,None,481.49930929997936,None,,,,,,,,,,,,,,,,,,,,,,,,,,,,,,,,,,,,,,,,,,,,,,,,,,,,,,,,,,,,,,,,,,,,,,,,,,32,001,2023_Apr_03_0954,ExactRep-v3-final,2021.2.3,59.99473249222061,
10,0,10,0,,,,,,,,,,,,,,,,,,,,,,,,,,,,,,,,,,,,,,,,,,,,,,,,,,,,,,,,,,,481.99986230023205,None,484.0019291997887,None,,,,,,,,,,,,,,,,,,,,,,,,,,,,,,,,,,,,,,,,,,,,,,,,,,,,,,,,,,,,,,,,,,,,,,,,,,32,001,2023_Apr_03_0954,ExactRep-v3-final,2021.2.3,59.99473249222061,
11,0,11,0,,,,,,,,,,,,,,,,,,,,,,,,,,,,,,,,,,,,,,,,,,,,,,,,,,,,,,,,,,,484.5096888002008,None,486.5209313002415,None,,,,,,,,,,,,,,,,,,,,,,,,,,,,,,,,,,,,,,,,,,,,,,,,,,,,,,,,,,,,,,,,,,,,,,,,,,32,001,2023_Apr_03_0954,ExactRep-v3-final,2021.2.3,59.99473249222061,
12,0,12,0,,,,,,,,,,,,,,,,,,,,,,,,,,,,,,,,,,,,,,,,,,,,,,,,,,,,,,,,,,,487.0217205998488,None,489.02348079998046,None,,,,,,,,,,,,,,,,,,,,,,,,,,,,,,,,,,,,,,,,,,,,,,,,,,,,,,,,,,,,,,,,,,,,,,,,,,32,001,2023_Apr_03_0954,ExactRep-v3-final,2021.2.3,59.99473249222061,
13,0,13,0,,,,,,,,,,,,,,,,,,,,,,,,,,,,,,,,,,,,,,,,,,,,,,,,,,,,,,,,,,,489.52592660021037,None,491.52606779988855,None,,,,,,,,,,,,,,,,,,,,,,,,,,,,,,,,,,,,,,,,,,,,,,,,,,,,,,,,,,,,,,,,,,,,,,,,,,32,001,2023_Apr_03_0954,ExactRep-v3-final,2021.2.3,59.99473249222061,
14,0,14,0,,,,,,,,,,,,,,,,,,,,,,,,,,,,,,,,,,,,,,,,,,,,,,,,,,,,,,,,,,,492.0297932000831,None,494.04523670021445,None,,,,,,,,,,,,,,,,,,,,,,,,,,,,,,,,,,,,,,,,,,,,,,,,,,,,,,,,,,,,,,,,,,,,,,,,,,32,001,2023_Apr_03_0954,ExactRep-v3-final,2021.2.3,59.99473249222061,
,,,,,,,,,,,,,,,,,,,,,,,,,,,,,,,,,,,,,,,,,,,,,,,,,,,,,,,,,,,,,,,,,,space,23.90096260001883,504.6942932000384,None,,,,,,,,,,,,,,,,,,,,,,,,,,,,,,,,,,,,,,,,,,,,,,,,,,,,,,,,,,,,,,,,,,,,,,32,001,2023_Apr_03_0954,ExactRep-v3-final,2021.2.3,59.99473249222061,
,,,,0,0,0,0,,,,,,,,,,,,,,,,,,,,,,,,,,,,,,,,,,,,,,,,,,,,,,,,,,,,,,,,,530.682004199829,None,,,,,494.72113939980045,None,494.72113939980045,None,494.72113939980045,None,494.72113939980045,None,494.72113939980045,None,494.72113939980045,None,528.6726520000957,None,,,,,,,,,,,,,,,,,,,,,,,,,,,,,,,,,,,,,,,,,,,,,,,,,,,,,,,,32,001,2023_Apr_03_0954,ExactRep-v3-final,2021.2.3,59.99473249222061,
,,,,1,0,1,0,,,,,,,,,,,,,,,,,,,,,,,,,,,,,,,,,,,,,,,,,,,,,,,,,,,,,,,,,533.1843349002302,None,,,,,,,,,,,,,,,,,531.1820844998583,None,,,,,,,,,,,,,,,,,,,,,,,,,,,,,,,,,,,,,,,,,,,,,,,,,,,,,,,,32,001,2023_Apr_03_0954,ExactRep-v3-final,2021.2.3,59.99473249222061,
,,,,2,0,2,0,,,,,,,,,,,,,,,,,,,,,,,,,,,,,,,,,,,,,,,,,,,,,,,,,,,,,,,,,535.6868445998989,None,,,,,,,,,,,,,,,,,533.6848380002193,None,,,,,,,,,,,,,,,,,,,,,,,,,,,,,,,,,,,,,,,,,,,,,,,,,,,,,,,,32,001,2023_Apr_03_0954,ExactRep-v3-final,2021.2.3,59.99473249222061,
,,,,3,0,3,0,,,,,,,,,,,,,,,,,,,,,,,,,,,,,,,,,,,,,,,,,,,,,,,,,,,,,,,,,538.1893306002021,None,,,,,,,,,,,,,,,,,536.1873512999155,None,,,,,,,,,,,,,,,,,,,,,,,,,,,,,,,,,,,,,,,,,,,,,,,,,,,,,,,,32,001,2023_Apr_03_0954,ExactRep-v3-final,2021.2.3,59.99473249222061,
,,,,4,0,4,0,,,,,,,,,,,,,,,,,,,,,,,,,,,,,,,,,,,,,,,,,,,,,,,,,,,,,,,,,540.6918195001781,None,,,,,,,,,,,,,,,,,538.6898280000314,None,,,,,,,,,,,,,,,,,,,,,,,,,,,,,,,,,,,,,,,,,,,,,,,,,,,,,,,,32,001,2023_Apr_03_0954,ExactRep-v3-final,2021.2.3,59.99473249222061,
,,,,5,0,5,0,,,,,,,,,,,,,,,,,,,,,,,,,,,,,,,,,,,,,,,,,,,,,,,,,,,,,,,,,543.1940786000341,None,,,,,,,,,,,,,,,,,541.1923345001414,None,,,,,,,,,,,,,,,,,,,,,,,,,,,,,,,,,,,,,,,,,,,,,,,,,,,,,,,,32,001,2023_Apr_03_0954,ExactRep-v3-final,2021.2.3,59.99473249222061,
,,,,6,0,6,0,,,,,,,,,,,,,,,,,,,,,,,,,,,,,,,,,,,,,,,,,,,,,,,,,,,,,,,,,545.6968236998655,None,,,,,,,,,,,,,,,,,543.6948405001312,None,,,,,,,,,,,,,,,,,,,,,,,,,,,,,,,,,,,,,,,,,,,,,,,,,,,,,,,,32,001,2023_Apr_03_0954,ExactRep-v3-final,2021.2.3,59.99473249222061,
,,,,7,0,7,0,,,,,,,,,,,,,,,,,,,,,,,,,,,,,,,,,,,,,,,,,,,,,,,,,,,,,,,,,548.19935479993,None,,,,,,,,,,,,,,,,,546.1972225001082,None,,,,,,,,,,,,,,,,,,,,,,,,,,,,,,,,,,,,,,,,,,,,,,,,,,,,,,,,32,001,2023_Apr_03_0954,ExactRep-v3-final,2021.2.3,59.99473249222061,
,,,,8,0,8,0,,,,,,,,,,,,,,,,,,,,,,,,,,,,,,,,,,,,,,,,,,,,,,,,,,,,,,,,,550.7018397999927,None,,,,,,,,,,,,,,,,,548.6999988001771,None,,,,,,,,,,,,,,,,,,,,,,,,,,,,,,,,,,,,,,,,,,,,,,,,,,,,,,,,32,001,2023_Apr_03_0954,ExactRep-v3-final,2021.2.3,59.99473249222061,
,,,,9,0,9,0,,,,,,,,,,,,,,,,,,,,,,,,,,,,,,,,,,,,,,,,,,,,,,,,,,,,,,,,,553.2043503001332,None,,,,,,,,,,,,,,,,,551.2025546999648,None,,,,,,,,,,,,,,,,,,,,,,,,,,,,,,,,,,,,,,,,,,,,,,,,,,,,,,,,32,001,2023_Apr_03_0954,ExactRep-v3-final,2021.2.3,59.99473249222061,
,,,,10,0,10,0,,,,,,,,,,,,,,,,,,,,,,,,,,,,,,,,,,,,,,,,,,,,,,,,,,,,,,,,,555.7069684998132,None,,,,,,,,,,,,,,,,,553.7046643998474,None,,,,,,,,,,,,,,,,,,,,,,,,,,,,,,,,,,,,,,,,,,,,,,,,,,,,,,,,32,001,2023_Apr_03_0954,ExactRep-v3-final,2021.2.3,59.99473249222061,
,,,,11,0,11,0,,,,,,,,,,,,,,,,,,,,,,,,,,,,,,,,,,,,,,,,,,,,,,,,,,,,,,,,,558.2093847999349,None,,,,,,,,,,,,,,,,,556.2075069001876,None,,,,,,,,,,,,,,,,,,,,,,,,,,,,,,,,,,,,,,,,,,,,,,,,,,,,,,,,32,001,2023_Apr_03_0954,ExactRep-v3-final,2021.2.3,59.99473249222061,
,,,,12,0,12,0,,,,,,,,,,,,,,,,,,,,,,,,,,,,,,,,,,,,,,,,,,,,,,,,,,,,,,,,,560.7120219999924,None,,,,,,,,,,,,,,,,,558.7099009999074,None,,,,,,,,,,,,,,,,,,,,,,,,,,,,,,,,,,,,,,,,,,,,,,,,,,,,,,,,32,001,2023_Apr_03_0954,ExactRep-v3-final,2021.2.3,59.99473249222061,
,,,,13,0,13,0,,,,,,,,,,,,,,,,,,,,,,,,,,,,,,,,,,,,,,,,,,,,,,,,,,,,,,,,,563.2144153998233,None,,,,,,,,,,,,,,,,,561.2125666998327,None,,,,,,,,,,,,,,,,,,,,,,,,,,,,,,,,,,,,,,,,,,,,,,,,,,,,,,,,32,001,2023_Apr_03_0954,ExactRep-v3-final,2021.2.3,59.99473249222061,
,,,,14,0,14,0,,,,,,,,,,,,,,,,,,,,,,,,,,,,,,,,,,,,,,,,,,,,,,,,,,,,,,,,,565.7169011998922,None,,,,,,,,,,,,,,,,,563.7149053998291,None,,,,,,,,,,,,,,,,,,,,,,,,,,,,,,,,,,,,,,,,,,,,,,,,,,,,,,,,32,001,2023_Apr_03_0954,ExactRep-v3-final,2021.2.3,59.99473249222061,
,,,,,,,,,,,,,,,,,,,,,,,,,,,,,,,,,,,,,,,,,,,,,,,,,,,,,,,,,,,,,,,,,,,,,,,,,,,,,,,,,,,,space,27.608798900153488,576.3944864999503,None,,,,,,,,,,,,,,,,,,,,,,,,,,,,,,,,,,,,,,,,,,,,,,,,,,,,32,001,2023_Apr_03_0954,ExactRep-v3-final,2021.2.3,59.99473249222061,
,,,,,,,,0,0,0,0,,,,,,,,,,,,,,,,,,,,,,,,,,,,,,,,,,,,,,,,,,,,,,,,,,,,,606.1069482997991,None,,,,,,,,,,,,,,,,,,,,,,,566.4278715997934,None,566.4278715997934,None,566.4278715997934,None,566.4278715997934,None,566.4278715997934,None,566.4278715997934,None,form,78,1,silent,white,604.1048070001416,None,None,604.1048070001416,None,,,,,,,,,,,,,,,,,,,,,,,,,,,,,,32,001,2023_Apr_03_0954,ExactRep-v3-final,2021.2.3,59.99473249222061,
,,,,,,,,1,0,1,0,,,,,,,,,,,,,,,,,,,,,,,,,,,,,,,,,,,,,,,,,,,,,,,,,,,,,608.6095314999111,None,,,,,,,,,,,,,,,,,,,,,,,,,,,,,,,,,,,maiden,44,2,silent,white,606.607649799902,None,None,606.607649799902,None,,,,,,,,,,,,,,,,,,,,,,,,,,,,,,32,001,2023_Apr_03_0954,ExactRep-v3-final,2021.2.3,59.99473249222061,
,,,,,,,,2,0,2,0,,,,,,,,,,,,,,,,,,,,,,,,,,,,,,,,,,,,,,,,,,,,,,,,,,,,,611.1294495002367,None,,,,,,,,,,,,,,,,,,,,,,,,,,,,,,,,,,,passion,48,3,silent,white,609.1144349002279,None,None,609.1144349002279,None,,,,,,,,,,,,,,,,,,,,,,,,,,,,,,32,001,2023_Apr_03_0954,ExactRep-v3-final,2021.2.3,59.99473249222061,
,,,,,,,,3,0,3,0,,,,,,,,,,,,,,,,,,,,,,,,,,,,,,,,,,,,,,,,,,,,,,,,,,,,,613.6315354998223,None,,,,,,,,,,,,,,,,,,,,,,,,,,,,,,,,,,,pole,63,4,silent,white,611.6292865001597,None,None,611.6292865001597,None,,,,,,,,,,,,,,,,,,,,,,,,,,,,,,32,001,2023_Apr_03_0954,ExactRep-v3-final,2021.2.3,59.99473249222061,
,,,,,,,,4,0,4,0,,,,,,,,,,,,,,,,,,,,,,,,,,,,,,,,,,,,,,,,,,,,,,,,,,,,,616.1337999999523,None,,,,,,,,,,,,,,,,,,,,,,,,,,,,,,,,,,,season,94,5,aloud,red,614.1317592998967,None,None,614.1317592998967,None,,,,,,,,,,,,,,,,,,,,,,,,,,,,,,32,001,2023_Apr_03_0954,ExactRep-v3-final,2021.2.3,59.99473249222061,
,,,,,,,,5,0,5,0,,,,,,,,,,,,,,,,,,,,,,,,,,,,,,,,,,,,,,,,,,,,,,,,,,,,,618.6529621002264,None,,,,,,,,,,,,,,,,,,,,,,,,,,,,,,,,,,,teacher,97,6,aloud,red,616.6498082000762,None,None,616.6498082000762,None,,,,,,,,,,,,,,,,,,,,,,,,,,,,,,32,001,2023_Apr_03_0954,ExactRep-v3-final,2021.2.3,59.99473249222061,
,,,,,,,,6,0,6,0,,,,,,,,,,,,,,,,,,,,,,,,,,,,,,,,,,,,,,,,,,,,,,,,,,,,,621.1723171002232,None,,,,,,,,,,,,,,,,,,,,,,,,,,,,,,,,,,,coast,73,7,silent,white,619.1616672999226,None,None,619.1616672999226,None,,,,,,,,,,,,,,,,,,,,,,,,,,,,,,32,001,2023_Apr_03_0954,ExactRep-v3-final,2021.2.3,59.99473249222061,
,,,,,,,,7,0,7,0,,,,,,,,,,,,,,,,,,,,,,,,,,,,,,,,,,,,,,,,,,,,,,,,,,,,,623.6748811998405,None,,,,,,,,,,,,,,,,,,,,,,,,,,,,,,,,,,,tool,106,8,aloud,red,621.6728517999873,None,None,621.6728517999873,None,,,,,,,,,,,,,,,,,,,,,,,,,,,,,,32,001,2023_Apr_03_0954,ExactRep-v3-final,2021.2.3,59.99473249222061,
,,,,,,,,8,0,8,0,,,,,,,,,,,,,,,,,,,,,,,,,,,,,,,,,,,,,,,,,,,,,,,,,,,,,626.1773636001162,None,,,,,,,,,,,,,,,,,,,,,,,,,,,,,,,,,,,pupil,117,9,aloud,red,624.1771344998851,None,None,624.1771344998851,None,,,,,,,,,,,,,,,,,,,,,,,,,,,,,,32,001,2023_Apr_03_0954,ExactRep-v3-final,2021.2.3,59.99473249222061,
,,,,,,,,9,0,9,0,,,,,,,,,,,,,,,,,,,,,,,,,,,,,,,,,,,,,,,,,,,,,,,,,,,,,628.6966288001277,None,,,,,,,,,,,,,,,,,,,,,,,,,,,,,,,,,,,storm,93,10,aloud,red,626.6845692000352,None,None,626.6845692000352,None,,,,,,,,,,,,,,,,,,,,,,,,,,,,,,32,001,2023_Apr_03_0954,ExactRep-v3-final,2021.2.3,59.99473249222061,
,,,,,,,,10,0,10,0,,,,,,,,,,,,,,,,,,,,,,,,,,,,,,,,,,,,,,,,,,,,,,,,,,,,,631.1988615002483,None,,,,,,,,,,,,,,,,,,,,,,,,,,,,,,,,,,,steam,108,11,aloud,red,629.196992599871,None,None,629.196992599871,None,,,,,,,,,,,,,,,,,,,,,,,,,,,,,,32,001,2023_Apr_03_0954,ExactRep-v3-final,2021.2.3,59.99473249222061,
,,,,,,,,11,0,11,0,,,,,,,,,,,,,,,,,,,,,,,,,,,,,,,,,,,,,,,,,,,,,,,,,,,,,633.718171000015,None,,,,,,,,,,,,,,,,,,,,,,,,,,,,,,,,,,,rock,6,12,sing,blue,631.7041231999174,None,None,631.7041231999174,None,,,,,,,,,,,,,,,,,,,,,,,,,,,,,,32,001,2023_Apr_03_0954,ExactRep-v3-final,2021.2.3,59.99473249222061,
,,,,,,,,12,0,12,0,,,,,,,,,,,,,,,,,,,,,,,,,,,,,,,,,,,,,,,,,,,,,,,,,,,,,636.2205496998504,None,,,,,,,,,,,,,,,,,,,,,,,,,,,,,,,,,,,plant,16,13,sing,blue,634.2185231000185,None,None,634.2185231000185,None,,,,,,,,,,,,,,,,,,,,,,,,,,,,,,32,001,2023_Apr_03_0954,ExactRep-v3-final,2021.2.3,59.99473249222061,
,,,,,,,,13,0,13,0,,,,,,,,,,,,,,,,,,,,,,,,,,,,,,,,,,,,,,,,,,,,,,,,,,,,,638.7398570999503,None,,,,,,,,,,,,,,,,,,,,,,,,,,,,,,,,,,,village,49,14,silent,white,636.7287825997919,None,None,636.7287825997919,None,,,,,,,,,,,,,,,,,,,,,,,,,,,,,,32,001,2023_Apr_03_0954,ExactRep-v3-final,2021.2.3,59.99473249222061,
,,,,,,,,14,0,14,0,,,,,,,,,,,,,,,,,,,,,,,,,,,,,,,,,,,,,,,,,,,,,,,,,,,,,641.2424014001153,None,,,,,,,,,,,,,,,,,,,,,,,,,,,,,,,,,,,mercy,76,15,silent,white,639.2422853000462,None,None,639.2422853000462,None,,,,,,,,,,,,,,,,,,,,,,,,,,,,,,32,001,2023_Apr_03_0954,ExactRep-v3-final,2021.2.3,59.99473249222061,
,,,,,,,,15,0,15,0,,,,,,,,,,,,,,,,,,,,,,,,,,,,,,,,,,,,,,,,,,,,,,,,,,,,,643.7613821998239,None,,,,,,,,,,,,,,,,,,,,,,,,,,,,,,,,,,,author,82,16,aloud,red,641.7459702999331,None,None,641.7459702999331,None,,,,,,,,,,,,,,,,,,,,,,,,,,,,,,32,001,2023_Apr_03_0954,ExactRep-v3-final,2021.2.3,59.99473249222061,
,,,,,,,,16,0,16,0,,,,,,,,,,,,,,,,,,,,,,,,,,,,,,,,,,,,,,,,,,,,,,,,,,,,,646.2640650002286,None,,,,,,,,,,,,,,,,,,,,,,,,,,,,,,,,,,,army,41,17,silent,white,644.2618980999105,None,None,644.2618980999105,None,,,,,,,,,,,,,,,,,,,,,,,,,,,,,,32,001,2023_Apr_03_0954,ExactRep-v3-final,2021.2.3,59.99473249222061,
,,,,,,,,17,0,17,0,,,,,,,,,,,,,,,,,,,,,,,,,,,,,,,,,,,,,,,,,,,,,,,,,,,,,648.7665695999749,None,,,,,,,,,,,,,,,,,,,,,,,,,,,,,,,,,,,soil,100,18,aloud,red,646.7645673998632,None,None,646.7645673998632,None,,,,,,,,,,,,,,,,,,,,,,,,,,,,,,32,001,2023_Apr_03_0954,ExactRep-v3-final,2021.2.3,59.99473249222061,
,,,,,,,,18,0,18,0,,,,,,,,,,,,,,,,,,,,,,,,,,,,,,,,,,,,,,,,,,,,,,,,,,,,,651.2690419000573,None,,,,,,,,,,,,,,,,,,,,,,,,,,,,,,,,,,,circle,29,19,sing,blue,649.2672787001356,None,None,649.2672787001356,None,,,,,,,,,,,,,,,,,,,,,,,,,,,,,,32,001,2023_Apr_03_0954,ExactRep-v3-final,2021.2.3,59.99473249222061,
,,,,,,,,19,0,19,0,,,,,,,,,,,,,,,,,,,,,,,,,,,,,,,,,,,,,,,,,,,,,,,,,,,,,653.7883031000383,None,,,,,,,,,,,,,,,,,,,,,,,,,,,,,,,,,,,science,80,20,aloud,red,651.7761639999226,None,None,651.7761639999226,None,,,,,,,,,,,,,,,,,,,,,,,,,,,,,,32,001,2023_Apr_03_0954,ExactRep-v3-final,2021.2.3,59.99473249222061,
,,,,,,,,20,0,20,0,,,,,,,,,,,,,,,,,,,,,,,,,,,,,,,,,,,,,,,,,,,,,,,,,,,,,656.2908288999461,None,,,,,,,,,,,,,,,,,,,,,,,,,,,,,,,,,,,fault,102,21,aloud,red,654.2901075999252,None,None,654.2901075999252,None,,,,,,,,,,,,,,,,,,,,,,,,,,,,,,32,001,2023_Apr_03_0954,ExactRep-v3-final,2021.2.3,59.99473249222061,
,,,,,,,,21,0,21,0,,,,,,,,,,,,,,,,,,,,,,,,,,,,,,,,,,,,,,,,,,,,,,,,,,,,,658.7932095997967,None,,,,,,,,,,,,,,,,,,,,,,,,,,,,,,,,,,,city,64,22,silent,white,656.7926610000432,None,None,656.7926610000432,None,,,,,,,,,,,,,,,,,,,,,,,,,,,,,,32,001,2023_Apr_03_0954,ExactRep-v3-final,2021.2.3,59.99473249222061,
,,,,,,,,22,0,22,0,,,,,,,,,,,,,,,,,,,,,,,,,,,,,,,,,,,,,,,,,,,,,,,,,,,,,661.3122401,None,,,,,,,,,,,,,,,,,,,,,,,,,,,,,,,,,,,shame,92,23,aloud,red,659.296910900157,None,None,659.296910900157,None,,,,,,,,,,,,,,,,,,,,,,,,,,,,,,32,001,2023_Apr_03_0954,ExactRep-v3-final,2021.2.3,59.99473249222061,
,,,,,,,,23,0,23,0,,,,,,,,,,,,,,,,,,,,,,,,,,,,,,,,,,,,,,,,,,,,,,,,,,,,,663.8149431999773,None,,,,,,,,,,,,,,,,,,,,,,,,,,,,,,,,,,,woman,31,24,sing,blue,661.8152629998513,None,None,661.8152629998513,None,,,,,,,,,,,,,,,,,,,,,,,,,,,,,,32,001,2023_Apr_03_0954,ExactRep-v3-final,2021.2.3,59.99473249222061,
,,,,,,,,24,0,24,0,,,,,,,,,,,,,,,,,,,,,,,,,,,,,,,,,,,,,,,,,,,,,,,,,,,,,666.3174290000461,None,,,,,,,,,,,,,,,,,,,,,,,,,,,,,,,,,,,grief,116,25,aloud,red,664.3181476998143,None,None,664.3181476998143,None,,,,,,,,,,,,,,,,,,,,,,,,,,,,,,32,001,2023_Apr_03_0954,ExactRep-v3-final,2021.2.3,59.99473249222061,
,,,,,,,,25,0,25,0,,,,,,,,,,,,,,,,,,,,,,,,,,,,,,,,,,,,,,,,,,,,,,,,,,,,,668.8199175000191,None,,,,,,,,,,,,,,,,,,,,,,,,,,,,,,,,,,,bird,115,26,aloud,red,666.8199239000678,None,None,666.8199239000678,None,,,,,,,,,,,,,,,,,,,,,,,,,,,,,,32,001,2023_Apr_03_0954,ExactRep-v3-final,2021.2.3,59.99473249222061,
,,,,,,,,26,0,26,0,,,,,,,,,,,,,,,,,,,,,,,,,,,,,,,,,,,,,,,,,,,,,,,,,,,,,671.322529700119,None,,,,,,,,,,,,,,,,,,,,,,,,,,,,,,,,,,,anger,1,27,sing,blue,669.3206274998374,None,None,669.3206274998374,None,,,,,,,,,,,,,,,,,,,,,,,,,,,,,,32,001,2023_Apr_03_0954,ExactRep-v3-final,2021.2.3,59.99473249222061,
,,,,,,,,27,0,27,0,,,,,,,,,,,,,,,,,,,,,,,,,,,,,,,,,,,,,,,,,,,,,,,,,,,,,673.841582799796,None,,,,,,,,,,,,,,,,,,,,,,,,,,,,,,,,,,,dust,83,28,aloud,red,671.8274050001055,None,None,671.8274050001055,None,,,,,,,,,,,,,,,,,,,,,,,,,,,,,,32,001,2023_Apr_03_0954,ExactRep-v3-final,2021.2.3,59.99473249222061,
,,,,,,,,28,0,28,0,,,,,,,,,,,,,,,,,,,,,,,,,,,,,,,,,,,,,,,,,,,,,,,,,,,,,676.3441154002212,None,,,,,,,,,,,,,,,,,,,,,,,,,,,,,,,,,,,glory,57,29,silent,white,674.3436614000238,None,None,674.3436614000238,None,,,,,,,,,,,,,,,,,,,,,,,,,,,,,,32,001,2023_Apr_03_0954,ExactRep-v3-final,2021.2.3,59.99473249222061,
,,,,,,,,29,0,29,0,,,,,,,,,,,,,,,,,,,,,,,,,,,,,,,,,,,,,,,,,,,,,,,,,,,,,678.8631215998903,None,,,,,,,,,,,,,,,,,,,,,,,,,,,,,,,,,,,poet,40,30,silent,white,676.8483692002483,None,None,676.8483692002483,None,,,,,,,,,,,,,,,,,,,,,,,,,,,,,,32,001,2023_Apr_03_0954,ExactRep-v3-final,2021.2.3,59.99473249222061,
,,,,,,,,30,0,30,0,,,,,,,,,,,,,,,,,,,,,,,,,,,,,,,,,,,,,,,,,,,,,,,,,,,,,681.3656275998801,None,,,,,,,,,,,,,,,,,,,,,,,,,,,,,,,,,,,coin,90,31,aloud,red,679.3635224997997,None,None,679.3635224997997,None,,,,,,,,,,,,,,,,,,,,,,,,,,,,,,32,001,2023_Apr_03_0954,ExactRep-v3-final,2021.2.3,59.99473249222061,
,,,,,,,,31,0,31,0,,,,,,,,,,,,,,,,,,,,,,,,,,,,,,,,,,,,,,,,,,,,,,,,,,,,,683.8850695998408,None,,,,,,,,,,,,,,,,,,,,,,,,,,,,,,,,,,,lake,114,32,aloud,red,681.8722141999751,None,None,681.8722141999751,None,,,,,,,,,,,,,,,,,,,,,,,,,,,,,,32,001,2023_Apr_03_0954,ExactRep-v3-final,2021.2.3,59.99473249222061,
,,,,,,,,32,0,32,0,,,,,,,,,,,,,,,,,,,,,,,,,,,,,,,,,,,,,,,,,,,,,,,,,,,,,686.4040453000925,None,,,,,,,,,,,,,,,,,,,,,,,,,,,,,,,,,,,volume,96,33,aloud,red,684.3937197001651,None,None,684.3937197001651,None,,,,,,,,,,,,,,,,,,,,,,,,,,,,,,32,001,2023_Apr_03_0954,ExactRep-v3-final,2021.2.3,59.99473249222061,
,,,,,,,,33,0,33,0,,,,,,,,,,,,,,,,,,,,,,,,,,,,,,,,,,,,,,,,,,,,,,,,,,,,,688.9232149999589,None,,,,,,,,,,,,,,,,,,,,,,,,,,,,,,,,,,,answer,53,34,silent,white,686.916772000026,None,None,686.916772000026,None,,,,,,,,,,,,,,,,,,,,,,,,,,,,,,32,001,2023_Apr_03_0954,ExactRep-v3-final,2021.2.3,59.99473249222061,
,,,,,,,,34,0,34,0,,,,,,,,,,,,,,,,,,,,,,,,,,,,,,,,,,,,,,,,,,,,,,,,,,,,,691.4259072002023,None,,,,,,,,,,,,,,,,,,,,,,,,,,,,,,,,,,,valley,22,35,sing,blue,689.4238073001616,None,None,689.4238073001616,None,,,,,,,,,,,,,,,,,,,,,,,,,,,,,,32,001,2023_Apr_03_0954,ExactRep-v3-final,2021.2.3,59.99473249222061,
,,,,,,,,35,0,35,0,,,,,,,,,,,,,,,,,,,,,,,,,,,,,,,,,,,,,,,,,,,,,,,,,,,,,693.9290744001046,None,,,,,,,,,,,,,,,,,,,,,,,,,,,,,,,,,,,car,50,36,silent,white,691.9286469002254,None,None,691.9286469002254,None,,,,,,,,,,,,,,,,,,,,,,,,,,,,,,32,001,2023_Apr_03_0954,ExactRep-v3-final,2021.2.3,59.99473249222061,
,,,,,,,,36,0,36,0,,,,,,,,,,,,,,,,,,,,,,,,,,,,,,,,,,,,,,,,,,,,,,,,,,,,,696.4308930002153,None,,,,,,,,,,,,,,,,,,,,,,,,,,,,,,,,,,,flag,25,37,sing,blue,694.4309344999492,None,None,694.4309344999492,None,,,,,,,,,,,,,,,,,,,,,,,,,,,,,,32,001,2023_Apr_03_0954,ExactRep-v3-final,2021.2.3,59.99473249222061,
,,,,,,,,37,0,37,0,,,,,,,,,,,,,,,,,,,,,,,,,,,,,,,,,,,,,,,,,,,,,,,,,,,,,698.9333977000788,None,,,,,,,,,,,,,,,,,,,,,,,,,,,,,,,,,,,life,18,38,sing,blue,696.9334120000713,None,None,696.9334120000713,None,,,,,,,,,,,,,,,,,,,,,,,,,,,,,,32,001,2023_Apr_03_0954,ExactRep-v3-final,2021.2.3,59.99473249222061,
,,,,,,,,38,0,38,0,,,,,,,,,,,,,,,,,,,,,,,,,,,,,,,,,,,,,,,,,,,,,,,,,,,,,701.4358715000562,None,,,,,,,,,,,,,,,,,,,,,,,,,,,,,,,,,,,duty,109,39,aloud,red,699.4359005000442,None,None,699.4359005000442,None,,,,,,,,,,,,,,,,,,,,,,,,,,,,,,32,001,2023_Apr_03_0954,ExactRep-v3-final,2021.2.3,59.99473249222061,
,,,,,,,,39,0,39,0,,,,,,,,,,,,,,,,,,,,,,,,,,,,,,,,,,,,,,,,,,,,,,,,,,,,,703.9384600999765,None,,,,,,,,,,,,,,,,,,,,,,,,,,,,,,,,,,,party,45,40,silent,white,701.9390877000988,None,None,701.9390877000988,None,,,,,,,,,,,,,,,,,,,,,,,,,,,,,,32,001,2023_Apr_03_0954,ExactRep-v3-final,2021.2.3,59.99473249222061,
,,,,,,,,40,0,40,0,,,,,,,,,,,,,,,,,,,,,,,,,,,,,,,,,,,,,,,,,,,,,,,,,,,,,706.4409575001337,None,,,,,,,,,,,,,,,,,,,,,,,,,,,,,,,,,,,devil,101,41,aloud,red,704.4412985001691,None,None,704.4412985001691,None,,,,,,,,,,,,,,,,,,,,,,,,,,,,,,32,001,2023_Apr_03_0954,ExactRep-v3-final,2021.2.3,59.99473249222061,
,,,,,,,,41,0,41,0,,,,,,,,,,,,,,,,,,,,,,,,,,,,,,,,,,,,,,,,,,,,,,,,,,,,,708.9434309001081,None,,,,,,,,,,,,,,,,,,,,,,,,,,,,,,,,,,,sea,113,42,aloud,red,706.9412679001689,None,None,706.9412679001689,None,,,,,,,,,,,,,,,,,,,,,,,,,,,,,,32,001,2023_Apr_03_0954,ExactRep-v3-final,2021.2.3,59.99473249222061,
,,,,,,,,42,0,42,0,,,,,,,,,,,,,,,,,,,,,,,,,,,,,,,,,,,,,,,,,,,,,,,,,,,,,711.4459198000841,None,,,,,,,,,,,,,,,,,,,,,,,,,,,,,,,,,,,machine,60,43,silent,white,709.445237299893,None,None,709.445237299893,None,,,,,,,,,,,,,,,,,,,,,,,,,,,,,,32,001,2023_Apr_03_0954,ExactRep-v3-final,2021.2.3,59.99473249222061,
,,,,,,,,43,0,43,0,,,,,,,,,,,,,,,,,,,,,,,,,,,,,,,,,,,,,,,,,,,,,,,,,,,,,713.9650876000524,None,,,,,,,,,,,,,,,,,,,,,,,,,,,,,,,,,,,corn,12,44,sing,blue,711.9496674002148,None,None,711.9496674002148,None,,,,,,,,,,,,,,,,,,,,,,,,,,,,,,32,001,2023_Apr_03_0954,ExactRep-v3-final,2021.2.3,59.99473249222061,
,,,,,,,,44,0,44,0,,,,,,,,,,,,,,,,,,,,,,,,,,,,,,,,,,,,,,,,,,,,,,,,,,,,,716.4675981998444,None,,,,,,,,,,,,,,,,,,,,,,,,,,,,,,,,,,,flood,54,45,silent,white,714.4654902000912,None,None,714.4654902000912,None,,,,,,,,,,,,,,,,,,,,,,,,,,,,,,32,001,2023_Apr_03_0954,ExactRep-v3-final,2021.2.3,59.99473249222061,
,,,,,,,,45,0,45,0,,,,,,,,,,,,,,,,,,,,,,,,,,,,,,,,,,,,,,,,,,,,,,,,,,,,,718.986653199885,None,,,,,,,,,,,,,,,,,,,,,,,,,,,,,,,,,,,charm,32,46,sing,blue,716.9715626998805,None,None,716.9715626998805,None,,,,,,,,,,,,,,,,,,,,,,,,,,,,,,32,001,2023_Apr_03_0954,ExactRep-v3-final,2021.2.3,59.99473249222061,
,,,,,,,,46,0,46,0,,,,,,,,,,,,,,,,,,,,,,,,,,,,,,,,,,,,,,,,,,,,,,,,,,,,,721.4893386000767,None,,,,,,,,,,,,,,,,,,,,,,,,,,,,,,,,,,,ability,65,47,silent,white,719.4898184002377,None,None,719.4898184002377,None,,,,,,,,,,,,,,,,,,,,,,,,,,,,,,32,001,2023_Apr_03_0954,ExactRep-v3-final,2021.2.3,59.99473249222061,
,,,,,,,,47,0,47,0,,,,,,,,,,,,,,,,,,,,,,,,,,,,,,,,,,,,,,,,,,,,,,,,,,,,,723.9917756002396,None,,,,,,,,,,,,,,,,,,,,,,,,,,,,,,,,,,,humour,74,48,silent,white,721.9899510000832,None,None,721.9899510000832,None,,,,,,,,,,,,,,,,,,,,,,,,,,,,,,32,001,2023_Apr_03_0954,ExactRep-v3-final,2021.2.3,59.99473249222061,
,,,,,,,,48,0,48,0,,,,,,,,,,,,,,,,,,,,,,,,,,,,,,,,,,,,,,,,,,,,,,,,,,,,,726.5109664998017,None,,,,,,,,,,,,,,,,,,,,,,,,,,,,,,,,,,,paper,19,49,sing,blue,724.5005295998417,None,None,724.5005295998417,None,,,,,,,,,,,,,,,,,,,,,,,,,,,,,,32,001,2023_Apr_03_0954,ExactRep-v3-final,2021.2.3,59.99473249222061,
,,,,,,,,49,0,49,0,,,,,,,,,,,,,,,,,,,,,,,,,,,,,,,,,,,,,,,,,,,,,,,,,,,,,729.0134987998754,None,,,,,,,,,,,,,,,,,,,,,,,,,,,,,,,,,,,doll,118,50,aloud,red,727.0123398001306,None,None,727.0123398001306,None,,,,,,,,,,,,,,,,,,,,,,,,,,,,,,32,001,2023_Apr_03_0954,ExactRep-v3-final,2021.2.3,59.99473249222061,
,,,,,,,,50,0,50,0,,,,,,,,,,,,,,,,,,,,,,,,,,,,,,,,,,,,,,,,,,,,,,,,,,,,,731.5160397002473,None,,,,,,,,,,,,,,,,,,,,,,,,,,,,,,,,,,,officer,77,51,silent,white,729.5158277000301,None,None,729.5158277000301,None,,,,,,,,,,,,,,,,,,,,,,,,,,,,,,32,001,2023_Apr_03_0954,ExactRep-v3-final,2021.2.3,59.99473249222061,
,,,,,,,,51,0,51,0,,,,,,,,,,,,,,,,,,,,,,,,,,,,,,,,,,,,,,,,,,,,,,,,,,,,,734.0185702000745,None,,,,,,,,,,,,,,,,,,,,,,,,,,,,,,,,,,,blood,0,52,sing,blue,732.018391800113,None,None,732.018391800113,None,,,,,,,,,,,,,,,,,,,,,,,,,,,,,,32,001,2023_Apr_03_0954,ExactRep-v3-final,2021.2.3,59.99473249222061,
,,,,,,,,52,0,52,0,,,,,,,,,,,,,,,,,,,,,,,,,,,,,,,,,,,,,,,,,,,,,,,,,,,,,736.5376875000075,None,,,,,,,,,,,,,,,,,,,,,,,,,,,,,,,,,,,blossom,4,53,sing,blue,734.5245317998342,None,None,734.5245317998342,None,,,,,,,,,,,,,,,,,,,,,,,,,,,,,,32,001,2023_Apr_03_0954,ExactRep-v3-final,2021.2.3,59.99473249222061,
,,,,,,,,53,0,53,0,,,,,,,,,,,,,,,,,,,,,,,,,,,,,,,,,,,,,,,,,,,,,,,,,,,,,739.0569147998467,None,,,,,,,,,,,,,,,,,,,,,,,,,,,,,,,,,,,quality,99,54,aloud,red,737.0544886998832,None,None,737.0544886998832,None,,,,,,,,,,,,,,,,,,,,,,,,,,,,,,32,001,2023_Apr_03_0954,ExactRep-v3-final,2021.2.3,59.99473249222061,
,,,,,,,,54,0,54,0,,,,,,,,,,,,,,,,,,,,,,,,,,,,,,,,,,,,,,,,,,,,,,,,,,,,,741.5593368001282,None,,,,,,,,,,,,,,,,,,,,,,,,,,,,,,,,,,,hotel,91,55,aloud,red,739.5580072999,None,None,739.5580072999,None,,,,,,,,,,,,,,,,,,,,,,,,,,,,,,32,001,2023_Apr_03_0954,ExactRep-v3-final,2021.2.3,59.99473249222061,
,,,,,,,,55,0,55,0,,,,,,,,,,,,,,,,,,,,,,,,,,,,,,,,,,,,,,,,,,,,,,,,,,,,,744.0619240999222,None,,,,,,,,,,,,,,,,,,,,,,,,,,,,,,,,,,,health,98,56,aloud,red,742.0605427999981,None,None,742.0605427999981,None,,,,,,,,,,,,,,,,,,,,,,,,,,,,,,32,001,2023_Apr_03_0954,ExactRep-v3-final,2021.2.3,59.99473249222061,
,,,,,,,,56,0,56,0,,,,,,,,,,,,,,,,,,,,,,,,,,,,,,,,,,,,,,,,,,,,,,,,,,,,,746.5810324000195,None,,,,,,,,,,,,,,,,,,,,,,,,,,,,,,,,,,,colony,70,57,silent,white,744.5719230999239,None,None,744.5719230999239,None,,,,,,,,,,,,,,,,,,,,,,,,,,,,,,32,001,2023_Apr_03_0954,ExactRep-v3-final,2021.2.3,59.99473249222061,
,,,,,,,,57,0,57,0,,,,,,,,,,,,,,,,,,,,,,,,,,,,,,,,,,,,,,,,,,,,,,,,,,,,,749.083534900099,None,,,,,,,,,,,,,,,,,,,,,,,,,,,,,,,,,,,doctor,52,58,silent,white,747.0842418000102,None,None,747.0842418000102,None,,,,,,,,,,,,,,,,,,,,,,,,,,,,,,32,001,2023_Apr_03_0954,ExactRep-v3-final,2021.2.3,59.99473249222061,
,,,,,,,,58,0,58,0,,,,,,,,,,,,,,,,,,,,,,,,,,,,,,,,,,,,,,,,,,,,,,,,,,,,,751.6029075002298,None,,,,,,,,,,,,,,,,,,,,,,,,,,,,,,,,,,,friend,89,59,aloud,red,749.5894741998054,None,None,749.5894741998054,None,,,,,,,,,,,,,,,,,,,,,,,,,,,,,,32,001,2023_Apr_03_0954,ExactRep-v3-final,2021.2.3,59.99473249222061,
,,,,,,,,59,0,59,0,,,,,,,,,,,,,,,,,,,,,,,,,,,,,,,,,,,,,,,,,,,,,,,,,,,,,754.1052256999537,None,,,,,,,,,,,,,,,,,,,,,,,,,,,,,,,,,,,bar,46,60,silent,white,752.103048699908,None,None,752.103048699908,None,,,,,,,,,,,,,,,,,,,,,,,,,,,,,,32,001,2023_Apr_03_0954,ExactRep-v3-final,2021.2.3,59.99473249222061,
,,,,,,,,60,0,60,0,,,,,,,,,,,,,,,,,,,,,,,,,,,,,,,,,,,,,,,,,,,,,,,,,,,,,756.6077566999011,None,,,,,,,,,,,,,,,,,,,,,,,,,,,,,,,,,,,metal,15,61,sing,blue,754.6073143999092,None,None,754.6073143999092,None,,,,,,,,,,,,,,,,,,,,,,,,,,,,,,32,001,2023_Apr_03_0954,ExactRep-v3-final,2021.2.3,59.99473249222061,
,,,,,,,,61,0,61,0,,,,,,,,,,,,,,,,,,,,,,,,,,,,,,,,,,,,,,,,,,,,,,,,,,,,,759.126988499891,None,,,,,,,,,,,,,,,,,,,,,,,,,,,,,,,,,,,rod,20,62,sing,blue,757.1115736002102,None,None,757.1115736002102,None,,,,,,,,,,,,,,,,,,,,,,,,,,,,,,32,001,2023_Apr_03_0954,ExactRep-v3-final,2021.2.3,59.99473249222061,
,,,,,,,,62,0,62,0,,,,,,,,,,,,,,,,,,,,,,,,,,,,,,,,,,,,,,,,,,,,,,,,,,,,,761.6294566998258,None,,,,,,,,,,,,,,,,,,,,,,,,,,,,,,,,,,,theory,43,63,silent,white,759.6276781000197,None,None,759.6276781000197,None,,,,,,,,,,,,,,,,,,,,,,,,,,,,,,32,001,2023_Apr_03_0954,ExactRep-v3-final,2021.2.3,59.99473249222061,
,,,,,,,,63,0,63,0,,,,,,,,,,,,,,,,,,,,,,,,,,,,,,,,,,,,,,,,,,,,,,,,,,,,,764.1489480999298,None,,,,,,,,,,,,,,,,,,,,,,,,,,,,,,,,,,,mind,47,64,silent,white,762.1380962999538,None,None,762.1380962999538,None,,,,,,,,,,,,,,,,,,,,,,,,,,,,,,32,001,2023_Apr_03_0954,ExactRep-v3-final,2021.2.3,59.99473249222061,
,,,,,,,,64,0,64,0,,,,,,,,,,,,,,,,,,,,,,,,,,,,,,,,,,,,,,,,,,,,,,,,,,,,,766.6511495998129,None,,,,,,,,,,,,,,,,,,,,,,,,,,,,,,,,,,,origin,85,65,aloud,red,764.6501255999319,None,None,764.6501255999319,None,,,,,,,,,,,,,,,,,,,,,,,,,,,,,,32,001,2023_Apr_03_0954,ExactRep-v3-final,2021.2.3,59.99473249222061,
,,,,,,,,65,0,65,0,,,,,,,,,,,,,,,,,,,,,,,,,,,,,,,,,,,,,,,,,,,,,,,,,,,,,769.1703281998634,None,,,,,,,,,,,,,,,,,,,,,,,,,,,,,,,,,,,animal,5,66,sing,blue,767.1560053001158,None,None,767.1560053001158,None,,,,,,,,,,,,,,,,,,,,,,,,,,,,,,32,001,2023_Apr_03_0954,ExactRep-v3-final,2021.2.3,59.99473249222061,
,,,,,,,,66,0,66,0,,,,,,,,,,,,,,,,,,,,,,,,,,,,,,,,,,,,,,,,,,,,,,,,,,,,,771.6894896999002,None,,,,,,,,,,,,,,,,,,,,,,,,,,,,,,,,,,,time,21,67,sing,blue,769.6765537001193,None,None,769.6765537001193,None,,,,,,,,,,,,,,,,,,,,,,,,,,,,,,32,001,2023_Apr_03_0954,ExactRep-v3-final,2021.2.3,59.99473249222061,
,,,,,,,,67,0,67,0,,,,,,,,,,,,,,,,,,,,,,,,,,,,,,,,,,,,,,,,,,,,,,,,,,,,,774.1919992999174,None,,,,,,,,,,,,,,,,,,,,,,,,,,,,,,,,,,,house,58,68,silent,white,772.1908611999825,None,None,772.1908611999825,None,,,,,,,,,,,,,,,,,,,,,,,,,,,,,,32,001,2023_Apr_03_0954,ExactRep-v3-final,2021.2.3,59.99473249222061,
,,,,,,,,68,0,68,0,,,,,,,,,,,,,,,,,,,,,,,,,,,,,,,,,,,,,,,,,,,,,,,,,,,,,776.7112258002162,None,,,,,,,,,,,,,,,,,,,,,,,,,,,,,,,,,,,shoes,7,69,sing,blue,774.7009728997946,None,None,774.7009728997946,None,,,,,,,,,,,,,,,,,,,,,,,,,,,,,,32,001,2023_Apr_03_0954,ExactRep-v3-final,2021.2.3,59.99473249222061,
,,,,,,,,69,0,69,0,,,,,,,,,,,,,,,,,,,,,,,,,,,,,,,,,,,,,,,,,,,,,,,,,,,,,779.2136336998083,None,,,,,,,,,,,,,,,,,,,,,,,,,,,,,,,,,,,door,35,70,sing,blue,777.2117185001262,None,None,777.2117185001262,None,,,,,,,,,,,,,,,,,,,,,,,,,,,,,,32,001,2023_Apr_03_0954,ExactRep-v3-final,2021.2.3,59.99473249222061,
,,,,,,,,70,0,70,0,,,,,,,,,,,,,,,,,,,,,,,,,,,,,,,,,,,,,,,,,,,,,,,,,,,,,781.7160840998404,None,,,,,,,,,,,,,,,,,,,,,,,,,,,,,,,,,,,ticket,17,71,sing,blue,779.713992100209,None,None,779.713992100209,None,,,,,,,,,,,,,,,,,,,,,,,,,,,,,,32,001,2023_Apr_03_0954,ExactRep-v3-final,2021.2.3,59.99473249222061,
,,,,,,,,71,0,71,0,,,,,,,,,,,,,,,,,,,,,,,,,,,,,,,,,,,,,,,,,,,,,,,,,,,,,784.2186998999678,None,,,,,,,,,,,,,,,,,,,,,,,,,,,,,,,,,,,trouble,112,72,aloud,red,782.2165513997898,None,None,782.2165513997898,None,,,,,,,,,,,,,,,,,,,,,,,,,,,,,,32,001,2023_Apr_03_0954,ExactRep-v3-final,2021.2.3,59.99473249222061,
,,,,,,,,72,0,72,0,,,,,,,,,,,,,,,,,,,,,,,,,,,,,,,,,,,,,,,,,,,,,,,,,,,,,786.7378957998008,None,,,,,,,,,,,,,,,,,,,,,,,,,,,,,,,,,,,meeting,62,73,silent,white,784.7224564999342,None,None,784.7224564999342,None,,,,,,,,,,,,,,,,,,,,,,,,,,,,,,32,001,2023_Apr_03_0954,ExactRep-v3-final,2021.2.3,59.99473249222061,
,,,,,,,,73,0,73,0,,,,,,,,,,,,,,,,,,,,,,,,,,,,,,,,,,,,,,,,,,,,,,,,,,,,,789.2404070999473,None,,,,,,,,,,,,,,,,,,,,,,,,,,,,,,,,,,,camp,56,74,silent,white,787.2393978000619,None,None,787.2393978000619,None,,,,,,,,,,,,,,,,,,,,,,,,,,,,,,32,001,2023_Apr_03_0954,ExactRep-v3-final,2021.2.3,59.99473249222061,
,,,,,,,,74,0,74,0,,,,,,,,,,,,,,,,,,,,,,,,,,,,,,,,,,,,,,,,,,,,,,,,,,,,,791.7596017001197,None,,,,,,,,,,,,,,,,,,,,,,,,,,,,,,,,,,,length,119,75,aloud,red,789.7448153998703,None,None,789.7448153998703,None,,,,,,,,,,,,,,,,,,,,,,,,,,,,,,32,001,2023_Apr_03_0954,ExactRep-v3-final,2021.2.3,59.99473249222061,
,,,,,,,,75,0,75,0,,,,,,,,,,,,,,,,,,,,,,,,,,,,,,,,,,,,,,,,,,,,,,,,,,,,,794.2785971998237,None,,,,,,,,,,,,,,,,,,,,,,,,,,,,,,,,,,,diamond,33,76,sing,blue,792.2638269998133,None,None,792.2638269998133,None,,,,,,,,,,,,,,,,,,,,,,,,,,,,,,32,001,2023_Apr_03_0954,ExactRep-v3-final,2021.2.3,59.99473249222061,
,,,,,,,,76,0,76,0,,,,,,,,,,,,,,,,,,,,,,,,,,,,,,,,,,,,,,,,,,,,,,,,,,,,,796.7812728001736,None,,,,,,,,,,,,,,,,,,,,,,,,,,,,,,,,,,,method,51,77,silent,white,794.7811691998504,None,None,794.7811691998504,None,,,,,,,,,,,,,,,,,,,,,,,,,,,,,,32,001,2023_Apr_03_0954,ExactRep-v3-final,2021.2.3,59.99473249222061,
,,,,,,,,77,0,77,0,,,,,,,,,,,,,,,,,,,,,,,,,,,,,,,,,,,,,,,,,,,,,,,,,,,,,799.3004181999713,None,,,,,,,,,,,,,,,,,,,,,,,,,,,,,,,,,,,death,59,78,silent,white,797.2850285000168,None,None,797.2850285000168,None,,,,,,,,,,,,,,,,,,,,,,,,,,,,,,32,001,2023_Apr_03_0954,ExactRep-v3-final,2021.2.3,59.99473249222061,
,,,,,,,,78,0,78,0,,,,,,,,,,,,,,,,,,,,,,,,,,,,,,,,,,,,,,,,,,,,,,,,,,,,,801.8030110001564,None,,,,,,,,,,,,,,,,,,,,,,,,,,,,,,,,,,,shore,81,79,aloud,red,799.8020105999894,None,None,799.8020105999894,None,,,,,,,,,,,,,,,,,,,,,,,,,,,,,,32,001,2023_Apr_03_0954,ExactRep-v3-final,2021.2.3,59.99473249222061,
,,,,,,,,79,0,79,0,,,,,,,,,,,,,,,,,,,,,,,,,,,,,,,,,,,,,,,,,,,,,,,,,,,,,804.3219759999774,None,,,,,,,,,,,,,,,,,,,,,,,,,,,,,,,,,,,justice,27,80,sing,blue,802.3104250999168,None,None,802.3104250999168,None,,,,,,,,,,,,,,,,,,,,,,,,,,,,,,32,001,2023_Apr_03_0954,ExactRep-v3-final,2021.2.3,59.99473249222061,
,,,,,,,,80,0,80,0,,,,,,,,,,,,,,,,,,,,,,,,,,,,,,,,,,,,,,,,,,,,,,,,,,,,,806.8247743998654,None,,,,,,,,,,,,,,,,,,,,,,,,,,,,,,,,,,,air,68,81,silent,white,804.8236703001894,None,None,804.8236703001894,None,,,,,,,,,,,,,,,,,,,,,,,,,,,,,,32,001,2023_Apr_03_0954,ExactRep-v3-final,2021.2.3,59.99473249222061,
,,,,,,,,81,0,81,0,,,,,,,,,,,,,,,,,,,,,,,,,,,,,,,,,,,,,,,,,,,,,,,,,,,,,809.3271610001102,None,,,,,,,,,,,,,,,,,,,,,,,,,,,,,,,,,,,book,79,82,sing,blue,807.3272294001654,None,None,807.3272294001654,None,,,,,,,,,,,,,,,,,,,,,,,,,,,,,,32,001,2023_Apr_03_0954,ExactRep-v3-final,2021.2.3,59.99473249222061,
,,,,,,,,82,0,82,0,,,,,,,,,,,,,,,,,,,,,,,,,,,,,,,,,,,,,,,,,,,,,,,,,,,,,811.8470888999291,None,,,,,,,,,,,,,,,,,,,,,,,,,,,,,,,,,,,fortune,67,83,silent,white,809.8309793001972,None,None,809.8309793001972,None,,,,,,,,,,,,,,,,,,,,,,,,,,,,,,32,001,2023_Apr_03_0954,ExactRep-v3-final,2021.2.3,59.99473249222061,
,,,,,,,,83,0,83,0,,,,,,,,,,,,,,,,,,,,,,,,,,,,,,,,,,,,,,,,,,,,,,,,,,,,,814.3655492002144,None,,,,,,,,,,,,,,,,,,,,,,,,,,,,,,,,,,,arm,103,84,aloud,red,812.3526976001449,None,None,812.3526976001449,None,,,,,,,,,,,,,,,,,,,,,,,,,,,,,,32,001,2023_Apr_03_0954,ExactRep-v3-final,2021.2.3,59.99473249222061,
,,,,,,,,84,0,84,0,,,,,,,,,,,,,,,,,,,,,,,,,,,,,,,,,,,,,,,,,,,,,,,,,,,,,816.868019899819,None,,,,,,,,,,,,,,,,,,,,,,,,,,,,,,,,,,,honour,110,85,aloud,red,814.8660047999583,None,None,814.8660047999583,None,,,,,,,,,,,,,,,,,,,,,,,,,,,,,,32,001,2023_Apr_03_0954,ExactRep-v3-final,2021.2.3,59.99473249222061,
,,,,,,,,85,0,85,0,,,,,,,,,,,,,,,,,,,,,,,,,,,,,,,,,,,,,,,,,,,,,,,,,,,,,819.3872127002105,None,,,,,,,,,,,,,,,,,,,,,,,,,,,,,,,,,,,student,3,86,sing,blue,817.3715735999867,None,None,817.3715735999867,None,,,,,,,,,,,,,,,,,,,,,,,,,,,,,,32,001,2023_Apr_03_0954,ExactRep-v3-final,2021.2.3,59.99473249222061,
,,,,,,,,86,0,86,0,,,,,,,,,,,,,,,,,,,,,,,,,,,,,,,,,,,,,,,,,,,,,,,,,,,,,821.9063638998196,None,,,,,,,,,,,,,,,,,,,,,,,,,,,,,,,,,,,wheat,36,87,sing,blue,819.891077700071,None,None,819.891077700071,None,,,,,,,,,,,,,,,,,,,,,,,,,,,,,,32,001,2023_Apr_03_0954,ExactRep-v3-final,2021.2.3,59.99473249222061,
,,,,,,,,87,0,87,0,,,,,,,,,,,,,,,,,,,,,,,,,,,,,,,,,,,,,,,,,,,,,,,,,,,,,824.4087845999748,None,,,,,,,,,,,,,,,,,,,,,,,,,,,,,,,,,,,heaven,105,88,aloud,red,822.407656100113,None,None,822.407656100113,None,,,,,,,,,,,,,,,,,,,,,,,,,,,,,,32,001,2023_Apr_03_0954,ExactRep-v3-final,2021.2.3,59.99473249222061,
,,,,,,,,88,0,88,0,,,,,,,,,,,,,,,,,,,,,,,,,,,,,,,,,,,,,,,,,,,,,,,,,,,,,826.9280838998966,None,,,,,,,,,,,,,,,,,,,,,,,,,,,,,,,,,,,seat,14,89,sing,blue,824.9181221998297,None,None,824.9181221998297,None,,,,,,,,,,,,,,,,,,,,,,,,,,,,,,32,001,2023_Apr_03_0954,ExactRep-v3-final,2021.2.3,59.99473249222061,
,,,,,,,,89,0,89,0,,,,,,,,,,,,,,,,,,,,,,,,,,,,,,,,,,,,,,,,,,,,,,,,,,,,,829.4306096001528,None,,,,,,,,,,,,,,,,,,,,,,,,,,,,,,,,,,,skin,104,90,aloud,red,827.4300045999698,None,None,827.4300045999698,None,,,,,,,,,,,,,,,,,,,,,,,,,,,,,,32,001,2023_Apr_03_0954,ExactRep-v3-final,2021.2.3,59.99473249222061,
,,,,,,,,90,0,90,0,,,,,,,,,,,,,,,,,,,,,,,,,,,,,,,,,,,,,,,,,,,,,,,,,,,,,831.9496006001718,None,,,,,,,,,,,,,,,,,,,,,,,,,,,,,,,,,,,month,23,91,sing,blue,829.9342323001474,None,None,829.9342323001474,None,,,,,,,,,,,,,,,,,,,,,,,,,,,,,,32,001,2023_Apr_03_0954,ExactRep-v3-final,2021.2.3,59.99473249222061,
,,,,,,,,91,0,91,0,,,,,,,,,,,,,,,,,,,,,,,,,,,,,,,,,,,,,,,,,,,,,,,,,,,,,834.4689993998036,None,,,,,,,,,,,,,,,,,,,,,,,,,,,,,,,,,,,river,61,92,silent,white,832.4596349000931,None,None,832.4596349000931,None,,,,,,,,,,,,,,,,,,,,,,,,,,,,,,32,001,2023_Apr_03_0954,ExactRep-v3-final,2021.2.3,59.99473249222061,
,,,,,,,,92,0,92,0,,,,,,,,,,,,,,,,,,,,,,,,,,,,,,,,,,,,,,,,,,,,,,,,,,,,,836.971478600055,None,,,,,,,,,,,,,,,,,,,,,,,,,,,,,,,,,,,lad,30,93,sing,blue,834.9695009998977,None,None,834.9695009998977,None,,,,,,,,,,,,,,,,,,,,,,,,,,,,,,32,001,2023_Apr_03_0954,ExactRep-v3-final,2021.2.3,59.99473249222061,
,,,,,,,,93,0,93,0,,,,,,,,,,,,,,,,,,,,,,,,,,,,,,,,,,,,,,,,,,,,,,,,,,,,,839.474003800191,None,,,,,,,,,,,,,,,,,,,,,,,,,,,,,,,,,,,tree,86,94,aloud,red,837.4742239001207,None,None,837.4742239001207,None,,,,,,,,,,,,,,,,,,,,,,,,,,,,,,32,001,2023_Apr_03_0954,ExactRep-v3-final,2021.2.3,59.99473249222061,
,,,,,,,,94,0,94,0,,,,,,,,,,,,,,,,,,,,,,,,,,,,,,,,,,,,,,,,,,,,,,,,,,,,,841.9931443999521,None,,,,,,,,,,,,,,,,,,,,,,,,,,,,,,,,,,,factory,39,95,silent,white,839.9776667999104,None,None,839.9776667999104,None,,,,,,,,,,,,,,,,,,,,,,,,,,,,,,32,001,2023_Apr_03_0954,ExactRep-v3-final,2021.2.3,59.99473249222061,
,,,,,,,,95,0,95,0,,,,,,,,,,,,,,,,,,,,,,,,,,,,,,,,,,,,,,,,,,,,,,,,,,,,,844.4956987001933,None,,,,,,,,,,,,,,,,,,,,,,,,,,,,,,,,,,,water,75,96,silent,white,842.4952262002043,None,None,842.4952262002043,None,,,,,,,,,,,,,,,,,,,,,,,,,,,,,,32,001,2023_Apr_03_0954,ExactRep-v3-final,2021.2.3,59.99473249222061,
,,,,,,,,96,0,96,0,,,,,,,,,,,,,,,,,,,,,,,,,,,,,,,,,,,,,,,,,,,,,,,,,,,,,847.0145499999635,None,,,,,,,,,,,,,,,,,,,,,,,,,,,,,,,,,,,gold,10,97,sing,blue,845.001300400123,None,None,845.001300400123,None,,,,,,,,,,,,,,,,,,,,,,,,,,,,,,32,001,2023_Apr_03_0954,ExactRep-v3-final,2021.2.3,59.99473249222061,
,,,,,,,,97,0,97,0,,,,,,,,,,,,,,,,,,,,,,,,,,,,,,,,,,,,,,,,,,,,,,,,,,,,,849.5173865999095,None,,,,,,,,,,,,,,,,,,,,,,,,,,,,,,,,,,,journal,88,98,aloud,red,847.5153236999176,None,None,847.5153236999176,None,,,,,,,,,,,,,,,,,,,,,,,,,,,,,,32,001,2023_Apr_03_0954,ExactRep-v3-final,2021.2.3,59.99473249222061,
,,,,,,,,98,0,98,0,,,,,,,,,,,,,,,,,,,,,,,,,,,,,,,,,,,,,,,,,,,,,,,,,,,,,852.0365905999206,None,,,,,,,,,,,,,,,,,,,,,,,,,,,,,,,,,,,thought,71,99,silent,white,850.0212556999177,None,None,850.0212556999177,None,,,,,,,,,,,,,,,,,,,,,,,,,,,,,,32,001,2023_Apr_03_0954,ExactRep-v3-final,2021.2.3,59.99473249222061,
,,,,,,,,99,0,99,0,,,,,,,,,,,,,,,,,,,,,,,,,,,,,,,,,,,,,,,,,,,,,,,,,,,,,854.5556180998683,None,,,,,,,,,,,,,,,,,,,,,,,,,,,,,,,,,,,love,37,100,sing,blue,852.540665899869,None,None,852.540665899869,None,,,,,,,,,,,,,,,,,,,,,,,,,,,,,,32,001,2023_Apr_03_0954,ExactRep-v3-final,2021.2.3,59.99473249222061,
,,,,,,,,100,0,100,0,,,,,,,,,,,,,,,,,,,,,,,,,,,,,,,,,,,,,,,,,,,,,,,,,,,,,857.0749054998159,None,,,,,,,,,,,,,,,,,,,,,,,,,,,,,,,,,,,brain,87,101,aloud,red,855.0598591999151,None,None,855.0598591999151,None,,,,,,,,,,,,,,,,,,,,,,,,,,,,,,32,001,2023_Apr_03_0954,ExactRep-v3-final,2021.2.3,59.99473249222061,
,,,,,,,,101,0,101,0,,,,,,,,,,,,,,,,,,,,,,,,,,,,,,,,,,,,,,,,,,,,,,,,,,,,,859.5938861002214,None,,,,,,,,,,,,,,,,,,,,,,,,,,,,,,,,,,,moral,28,102,sing,blue,857.5793526000343,None,None,857.5793526000343,None,,,,,,,,,,,,,,,,,,,,,,,,,,,,,,32,001,2023_Apr_03_0954,ExactRep-v3-final,2021.2.3,59.99473249222061,
,,,,,,,,102,0,102,0,,,,,,,,,,,,,,,,,,,,,,,,,,,,,,,,,,,,,,,,,,,,,,,,,,,,,862.0966215999797,None,,,,,,,,,,,,,,,,,,,,,,,,,,,,,,,,,,,lord,84,103,aloud,red,860.0945628001355,None,None,860.0945628001355,None,,,,,,,,,,,,,,,,,,,,,,,,,,,,,,32,001,2023_Apr_03_0954,ExactRep-v3-final,2021.2.3,59.99473249222061,
,,,,,,,,103,0,103,0,,,,,,,,,,,,,,,,,,,,,,,,,,,,,,,,,,,,,,,,,,,,,,,,,,,,,864.6158790001646,None,,,,,,,,,,,,,,,,,,,,,,,,,,,,,,,,,,,flesh,11,104,sing,blue,862.6003258000128,None,None,862.6003258000128,None,,,,,,,,,,,,,,,,,,,,,,,,,,,,,,32,001,2023_Apr_03_0954,ExactRep-v3-final,2021.2.3,59.99473249222061,
,,,,,,,,104,0,104,0,,,,,,,,,,,,,,,,,,,,,,,,,,,,,,,,,,,,,,,,,,,,,,,,,,,,,867.1183174001053,None,,,,,,,,,,,,,,,,,,,,,,,,,,,,,,,,,,,body,107,105,aloud,red,865.11619290011,None,None,865.11619290011,None,,,,,,,,,,,,,,,,,,,,,,,,,,,,,,32,001,2023_Apr_03_0954,ExactRep-v3-final,2021.2.3,59.99473249222061,
,,,,,,,,105,0,105,0,,,,,,,,,,,,,,,,,,,,,,,,,,,,,,,,,,,,,,,,,,,,,,,,,,,,,869.6208668001927,None,,,,,,,,,,,,,,,,,,,,,,,,,,,,,,,,,,,potato,34,106,sing,blue,867.618875300046,None,None,867.618875300046,None,,,,,,,,,,,,,,,,,,,,,,,,,,,,,,32,001,2023_Apr_03_0954,ExactRep-v3-final,2021.2.3,59.99473249222061,
,,,,,,,,106,0,106,0,,,,,,,,,,,,,,,,,,,,,,,,,,,,,,,,,,,,,,,,,,,,,,,,,,,,,872.1400132002309,None,,,,,,,,,,,,,,,,,,,,,,,,,,,,,,,,,,,woods,42,107,silent,white,870.1250248998404,None,None,870.1250248998404,None,,,,,,,,,,,,,,,,,,,,,,,,,,,,,,32,001,2023_Apr_03_0954,ExactRep-v3-final,2021.2.3,59.99473249222061,
,,,,,,,,107,0,107,0,,,,,,,,,,,,,,,,,,,,,,,,,,,,,,,,,,,,,,,,,,,,,,,,,,,,,874.6591953001916,None,,,,,,,,,,,,,,,,,,,,,,,,,,,,,,,,,,,vision,55,108,silent,white,872.6451738998294,None,None,872.6451738998294,None,,,,,,,,,,,,,,,,,,,,,,,,,,,,,,32,001,2023_Apr_03_0954,ExactRep-v3-final,2021.2.3,59.99473249222061,
,,,,,,,,108,0,108,0,,,,,,,,,,,,,,,,,,,,,,,,,,,,,,,,,,,,,,,,,,,,,,,,,,,,,877.1781636998057,None,,,,,,,,,,,,,,,,,,,,,,,,,,,,,,,,,,,child,8,109,sing,blue,875.1664125998504,None,None,875.1664125998504,None,,,,,,,,,,,,,,,,,,,,,,,,,,,,,,32,001,2023_Apr_03_0954,ExactRep-v3-final,2021.2.3,59.99473249222061,
,,,,,,,,109,0,109,0,,,,,,,,,,,,,,,,,,,,,,,,,,,,,,,,,,,,,,,,,,,,,,,,,,,,,879.6806429000571,None,,,,,,,,,,,,,,,,,,,,,,,,,,,,,,,,,,,leader,72,110,silent,white,877.6787061998621,None,None,877.6787061998621,None,,,,,,,,,,,,,,,,,,,,,,,,,,,,,,32,001,2023_Apr_03_0954,ExactRep-v3-final,2021.2.3,59.99473249222061,
,,,,,,,,110,0,110,0,,,,,,,,,,,,,,,,,,,,,,,,,,,,,,,,,,,,,,,,,,,,,,,,,,,,,882.1999742998742,None,,,,,,,,,,,,,,,,,,,,,,,,,,,,,,,,,,,truth,2,111,sing,blue,880.190113699995,None,None,880.190113699995,None,,,,,,,,,,,,,,,,,,,,,,,,,,,,,,32,001,2023_Apr_03_0954,ExactRep-v3-final,2021.2.3,59.99473249222061,
,,,,,,,,111,0,111,0,,,,,,,,,,,,,,,,,,,,,,,,,,,,,,,,,,,,,,,,,,,,,,,,,,,,,884.7192525002174,None,,,,,,,,,,,,,,,,,,,,,,,,,,,,,,,,,,,dollar,38,112,sing,blue,882.7069446998648,None,None,882.7069446998648,None,,,,,,,,,,,,,,,,,,,,,,,,,,,,,,32,001,2023_Apr_03_0954,ExactRep-v3-final,2021.2.3,59.99473249222061,
,,,,,,,,112,0,112,0,,,,,,,,,,,,,,,,,,,,,,,,,,,,,,,,,,,,,,,,,,,,,,,,,,,,,887.2215550001711,None,,,,,,,,,,,,,,,,,,,,,,,,,,,,,,,,,,,moment,111,113,aloud,red,885.221940100193,None,None,885.221940100193,None,,,,,,,,,,,,,,,,,,,,,,,,,,,,,,32,001,2023_Apr_03_0954,ExactRep-v3-final,2021.2.3,59.99473249222061,
,,,,,,,,113,0,113,0,,,,,,,,,,,,,,,,,,,,,,,,,,,,,,,,,,,,,,,,,,,,,,,,,,,,,889.7241703998297,None,,,,,,,,,,,,,,,,,,,,,,,,,,,,,,,,,,,bottle,24,114,sing,blue,887.7237185002305,None,None,887.7237185002305,None,,,,,,,,,,,,,,,,,,,,,,,,,,,,,,32,001,2023_Apr_03_0954,ExactRep-v3-final,2021.2.3,59.99473249222061,
,,,,,,,,114,0,114,0,,,,,,,,,,,,,,,,,,,,,,,,,,,,,,,,,,,,,,,,,,,,,,,,,,,,,892.226482800208,None,,,,,,,,,,,,,,,,,,,,,,,,,,,,,,,,,,,ocean,13,115,sing,blue,890.2263520997949,None,None,890.2263520997949,None,,,,,,,,,,,,,,,,,,,,,,,,,,,,,,32,001,2023_Apr_03_0954,ExactRep-v3-final,2021.2.3,59.99473249222061,
,,,,,,,,115,0,115,0,,,,,,,,,,,,,,,,,,,,,,,,,,,,,,,,,,,,,,,,,,,,,,,,,,,,,894.7457134998403,None,,,,,,,,,,,,,,,,,,,,,,,,,,,,,,,,,,,table,26,116,sing,blue,892.7303273999132,None,None,892.7303273999132,None,,,,,,,,,,,,,,,,,,,,,,,,,,,,,,32,001,2023_Apr_03_0954,ExactRep-v3-final,2021.2.3,59.99473249222061,
,,,,,,,,116,0,116,0,,,,,,,,,,,,,,,,,,,,,,,,,,,,,,,,,,,,,,,,,,,,,,,,,,,,,897.2651164000854,None,,,,,,,,,,,,,,,,,,,,,,,,,,,,,,,,,,,nail,69,117,silent,white,895.2507326002233,None,None,895.2507326002233,None,,,,,,,,,,,,,,,,,,,,,,,,,,,,,,32,001,2023_Apr_03_0954,ExactRep-v3-final,2021.2.3,59.99473249222061,
,,,,,,,,117,0,117,0,,,,,,,,,,,,,,,,,,,,,,,,,,,,,,,,,,,,,,,,,,,,,,,,,,,,,899.7676506000571,None,,,,,,,,,,,,,,,,,,,,,,,,,,,,,,,,,,,toy,66,118,silent,white,897.7683565001935,None,None,897.7683565001935,None,,,,,,,,,,,,,,,,,,,,,,,,,,,,,,32,001,2023_Apr_03_0954,ExactRep-v3-final,2021.2.3,59.99473249222061,
,,,,,,,,118,0,118,0,,,,,,,,,,,,,,,,,,,,,,,,,,,,,,,,,,,,,,,,,,,,,,,,,,,,,902.2868043999188,None,,,,,,,,,,,,,,,,,,,,,,,,,,,,,,,,,,,virtue,95,119,aloud,red,900.2731792000122,None,None,900.2731792000122,None,,,,,,,,,,,,,,,,,,,,,,,,,,,,,,32,001,2023_Apr_03_0954,ExactRep-v3-final,2021.2.3,59.99473249222061,
,,,,,,,,119,0,119,0,,,,,,,,,,,,,,,,,,,,,,,,,,,,,,,,,,,,,,,,,,,,,,,,,,,,,904.8057663999498,None,,,,,,,,,,,,,,,,,,,,,,,,,,,,,,,,,,,hour,9,120,sing,blue,902.80356879998,None,None,902.80356879998,None,,,,,,,,,,,,,,,,,,,,,,,,,,,,,,32,001,2023_Apr_03_0954,ExactRep-v3-final,2021.2.3,59.99473249222061,
,,,,,,,,,,,,,,,,,,,,,,,,,,,,,,,,,,,,,,,,,,,,,,,,,,,,,,,,,,,,,,,,,,,,,,,,,,,,,,,,,,,,,,,,,,,,,,,,,,,,,,,,,,,,,,905.3080811002292,None,space,0.855667999945581,915.28448199993,None,,,,,,,,,,,,,,,,,,,,,,,,32,001,2023_Apr_03_0954,ExactRep-v3-final,2021.2.3,59.99473249222061,
,,,,,,,,,,,,,,,,,,,,,,,,,,,,,,,,,,,,,,,,,,,,,,,,,,,,,,,,,,,,,,,,,,,,,,,,,,,,,,,,,,,,,,,,,,,,,,,,,,,,,,,,,,,,,,,,,,,,916.1692013000138,None,space,33.762652300298214,926.1454183999449,None,,,,,,,,,,,,,,,,,,32,001,2023_Apr_03_0954,ExactRep-v3-final,2021.2.3,59.99473249222061,
,,,,,,,,,,,,0,0,0,0,,,,,,,,,,,,,,,,,,,,,,,,,,,,,,,,,,,,,,,,,,,,,,,,,973.463723000139,None,,,,,,,,,,,,,,,,,,,,,,,,,,,,,,,,,,,,,,,,,,,,,,,,,,,,,,,,,owner,181,1,sing,new,yellow,960.4441367001273,None,n,960.4441367001273,None,"['n', 'return']","[2.263548699673265, 12.967529899906367]",960.4441367001273,None,,,32,001,2023_Apr_03_0954,ExactRep-v3-final,2021.2.3,59.99473249222061,
,,,,,,,,,,,,1,0,1,0,,,,,,,,,,,,,,,,,,,,,,,,,,,,,,,,,,,,,,,,,,,,,,,,,979.6640007998794,None,,,,,,,,,,,,,,,,,,,,,,,,,,,,,,,,,,,,,,,,,,,,,,,,,,,,,,,,,army,41,2,silent,old,yellow,973.9797736001201,None,y,973.9797736001201,None,"['y', 'return']","[4.6399858999066055, 5.639881900046021]",973.9797736001201,None,,,32,001,2023_Apr_03_0954,ExactRep-v3-final,2021.2.3,59.99473249222061,
,,,,,,,,,,,,2,0,2,0,,,,,,,,,,,,,,,,,,,,,,,,,,,,,,,,,,,,,,,,,,,,,,,,,984.9025821001269,None,,,,,,,,,,,,,,,,,,,,,,,,,,,,,,,,,,,,,,,,,,,,,,,,,,,,,,,,,skin,104,3,aloud,old,yellow,980.1671309000812,None,y,980.1671309000812,None,"['y', 'return']","[4.204614300280809, 4.700448600109667]",980.1671309000812,None,,,32,001,2023_Apr_03_0954,ExactRep-v3-final,2021.2.3,59.99473249222061,
,,,,,,,,,,,,3,0,3,0,,,,,,,,,,,,,,,,,,,,,,,,,,,,,,,,,,,,,,,,,,,,,,,,,989.1901777000166,None,,,,,,,,,,,,,,,,,,,,,,,,,,,,,,,,,,,,,,,,,,,,,,,,,,,,,,,,,board,188,4,aloud,new,yellow,985.4080293998122,None,y,985.4080293998122,None,"['y', 'return']","[3.195679200347513, 3.747629700228572]",985.4080293998122,None,,,32,001,2023_Apr_03_0954,ExactRep-v3-final,2021.2.3,59.99473249222061,
,,,,,,,,,,,,4,0,4,0,,,,,,,,,,,,,,,,,,,,,,,,,,,,,,,,,,,,,,,,,,,,,,,,,994.8291710000485,None,,,,,,,,,,,,,,,,,,,,,,,,,,,,,,,,,,,,,,,,,,,,,,,,,,,,,,,,,hide,146,5,silent,new,yellow,989.7016639001667,None,n,989.7016639001667,None,"['n', 'return']","[4.765989900100976, 5.086105700116605]",989.7016639001667,None,,,32,001,2023_Apr_03_0954,ExactRep-v3-final,2021.2.3,59.99473249222061,
,,,,,,,,,,,,5,0,5,0,,,,,,,,,,,,,,,,,,,,,,,,,,,,,,,,,,,,,,,,,,,,,,,,,997.6655786000192,None,,,,,,,,,,,,,,,,,,,,,,,,,,,,,,,,,,,,,,,,,,,,,,,,,,,,,,,,,murder,178,6,aloud,new,yellow,995.3371470998973,None,n,995.3371470998973,None,"['n', 'return']","[1.9865828002803028, 2.2905824002809823]",995.3371470998973,None,,,32,001,2023_Apr_03_0954,ExactRep-v3-final,2021.2.3,59.99473249222061,
,,,,,,,,,,,,6,0,6,0,,,,,,,,,,,,,,,,,,,,,,,,,,,,,,,,,,,,,,,,,,,,,,,,,1002.4228083998896,None,,,,,,,,,,,,,,,,,,,,,,,,,,,,,,,,,,,,,,,,,,,,,,,,,,,,,,,,,temple,144,7,silent,new,yellow,998.1753787999041,None,n,998.1753787999041,None,"['n', 'return']","[3.9562422996386886, 4.20422919979319]",998.1753787999041,None,,,32,001,2023_Apr_03_0954,ExactRep-v3-final,2021.2.3,59.99473249222061,
,,,,,,,,,,,,7,0,7,0,,,,,,,,,,,,,,,,,,,,,,,,,,,,,,,,,,,,,,,,,,,,,,,,,1007.9089468000457,None,,,,,,,,,,,,,,,,,,,,,,,,,,,,,,,,,,,,,,,,,,,,,,,,,,,,,,,,,slave,233,8,sing,new,yellow,1002.937489700038,None,n,1002.937489700038,None,"['n', 'return']","[4.562411699909717, 4.93027829984203]",1002.937489700038,None,,,32,001,2023_Apr_03_0954,ExactRep-v3-final,2021.2.3,59.99473249222061,
,,,,,,,,,,,,8,0,8,0,,,,,,,,,,,,,,,,,,,,,,,,,,,,,,,,,,,,,,,,,,,,,,,,,1013.7647971999831,None,,,,,,,,,,,,,,,,,,,,,,,,,,,,,,,,,,,,,,,,,,,,,,,,,,,,,,,,,glory,57,9,silent,old,yellow,1008.4094483000226,None,n,1008.4094483000226,None,"['n', 'return']","[4.99440689990297, 5.314267400186509]",1008.4094483000226,None,,,32,001,2023_Apr_03_0954,ExactRep-v3-final,2021.2.3,59.99473249222061,
,,,,,,,,,,,,9,0,9,0,,,,,,,,,,,,,,,,,,,,,,,,,,,,,,,,,,,,,,,,,,,,,,,,,1018.9866181001998,None,,,,,,,,,,,,,,,,,,,,,,,,,,,,,,,,,,,,,,,,,,,,,,,,,,,,,,,,,horse,132,10,silent,new,yellow,1014.2748507000506,None,n,1014.2748507000506,None,"['n', 'return']","[4.345084800384939, 4.672937999945134]",1014.2748507000506,None,,,32,001,2023_Apr_03_0954,ExactRep-v3-final,2021.2.3,59.99473249222061,
,,,,,,,,,,,,10,0,10,0,,,,,,,,,,,,,,,,,,,,,,,,,,,,,,,,,,,,,,,,,,,,,,,,,1021.9563175998628,None,,,,,,,,,,,,,,,,,,,,,,,,,,,,,,,,,,,,,,,,,,,,,,,,,,,,,,,,,priest,120,11,silent,new,yellow,1019.4871276002377,None,n,1019.4871276002377,None,"['n', 'return']","[2.1326637999154627, 2.428651100024581]",1019.4871276002377,None,,,32,001,2023_Apr_03_0954,ExactRep-v3-final,2021.2.3,59.99473249222061,
,,,,,,,,,,,,11,0,11,0,,,,,,,,,,,,,,,,,,,,,,,,,,,,,,,,,,,,,,,,,,,,,,,,,1029.5303656999022,None,,,,,,,,,,,,,,,,,,,,,,,,,,,,,,,,,,,,,,,,,,,,,,,,,,,,,,,,,excuse,235,12,sing,new,yellow,1022.4708858998492,None,n,1022.4708858998492,None,"['n', 'return']","[6.804820700082928, 7.0127250999212265]",1022.4708858998492,None,,,32,001,2023_Apr_03_0954,ExactRep-v3-final,2021.2.3,59.99473249222061,
,,,,,,,,,,,,12,0,12,0,,,,,,,,,,,,,,,,,,,,,,,,,,,,,,,,,,,,,,,,,,,,,,,,,1031.782734700013,None,,,,,,,,,,,,,,,,,,,,,,,,,,,,,,,,,,,,,,,,,,,,,,,,,,,,,,,,,lad,30,13,sing,old,yellow,1030.0421565999277,None,y,1030.0421565999277,None,"['y', 'return']","[1.393662600312382, 1.7055402002297342]",1030.0421565999277,None,,,32,001,2023_Apr_03_0954,ExactRep-v3-final,2021.2.3,59.99473249222061,
,,,,,,,,,,,,13,0,13,0,,,,,,,,,,,,,,,,,,,,,,,,,,,,,,,,,,,,,,,,,,,,,,,,,1033.4510495997965,None,,,,,,,,,,,,,,,,,,,,,,,,,,,,,,,,,,,,,,,,,,,,,,,,,,,,,,,,,moment,111,14,aloud,old,yellow,1032.2911021998152,None,y,1032.2911021998152,None,"['y', 'return']","[0.8005941999144852, 1.1127162999473512]",1032.2911021998152,None,,,32,001,2023_Apr_03_0954,ExactRep-v3-final,2021.2.3,59.99473249222061,
,,,,,,,,,,,,14,0,14,0,,,,,,,,,,,,,,,,,,,,,,,,,,,,,,,,,,,,,,,,,,,,,,,,,1036.1036632000469,None,,,,,,,,,,,,,,,,,,,,,,,,,,,,,,,,,,,,,,,,,,,,,,,,,,,,,,,,,circle,29,15,sing,old,yellow,1033.9578944998793,None,y,1033.9578944998793,None,"['y', 'return']","[1.8539015999995172, 2.1017439998686314]",1033.9578944998793,None,,,32,001,2023_Apr_03_0954,ExactRep-v3-final,2021.2.3,59.99473249222061,
,,,,,,,,,,,,15,0,15,0,,,,,,,,,,,,,,,,,,,,,,,,,,,,,,,,,,,,,,,,,,,,,,,,,1037.8554070000537,None,,,,,,,,,,,,,,,,,,,,,,,,,,,,,,,,,,,,,,,,,,,,,,,,,,,,,,,,,virtue,95,16,aloud,old,yellow,1036.604312499985,None,y,1036.604312499985,None,"['y', 'return']","[0.9034126000478864, 1.2073530000634491]",1036.604312499985,None,,,32,001,2023_Apr_03_0954,ExactRep-v3-final,2021.2.3,59.99473249222061,
,,,,,,,,,,,,16,0,16,0,,,,,,,,,,,,,,,,,,,,,,,,,,,,,,,,,,,,,,,,,,,,,,,,,1040.5749945999123,None,,,,,,,,,,,,,,,,,,,,,,,,,,,,,,,,,,,,,,,,,,,,,,,,,,,,,,,,,troops,229,17,sing,new,yellow,1038.3604240999557,None,n,1038.3604240999557,None,"['n', 'return']","[1.8993174000643194, 2.1792771997861564]",1038.3604240999557,None,,,32,001,2023_Apr_03_0954,ExactRep-v3-final,2021.2.3,59.99473249222061,
,,,,,,,,,,,,17,0,17,0,,,,,,,,,,,,,,,,,,,,,,,,,,,,,,,,,,,,,,,,,,,,,,,,,1042.7603613999672,None,,,,,,,,,,,,,,,,,,,,,,,,,,,,,,,,,,,,,,,,,,,,,,,,,,,,,,,,,honour,110,18,aloud,old,yellow,1041.0829328000546,None,y,1041.0829328000546,None,"['y', 'return']","[1.384820600040257, 1.632787199690938]",1041.0829328000546,None,,,32,001,2023_Apr_03_0954,ExactRep-v3-final,2021.2.3,59.99473249222061,
,,,,,,,,,,,,18,0,18,0,,,,,,,,,,,,,,,,,,,,,,,,,,,,,,,,,,,,,,,,,,,,,,,,,1045.529966800008,None,,,,,,,,,,,,,,,,,,,,,,,,,,,,,,,,,,,,,,,,,,,,,,,,,,,,,,,,,tool,106,19,aloud,old,yellow,1043.2675463999622,None,y,1043.2675463999622,None,"['y', 'return']","[2.0081870001740754, 2.224254199769348]",1043.2675463999622,None,,,32,001,2023_Apr_03_0954,ExactRep-v3-final,2021.2.3,59.99473249222061,
,,,,,,,,,,,,19,0,19,0,,,,,,,,,,,,,,,,,,,,,,,,,,,,,,,,,,,,,,,,,,,,,,,,,1050.6350782997906,None,,,,,,,,,,,,,,,,,,,,,,,,,,,,,,,,,,,,,,,,,,,,,,,,,,,,,,,,,meat,215,20,sing,new,yellow,1046.0383341000415,None,n,1046.0383341000415,None,"['n', 'return']","[4.309391799848527, 4.557612400036305]",1046.0383341000415,None,,,32,001,2023_Apr_03_0954,ExactRep-v3-final,2021.2.3,59.99473249222061,
,,,,,,,,,,,,20,0,20,0,,,,,,,,,,,,,,,,,,,,,,,,,,,,,,,,,,,,,,,,,,,,,,,,,1057.108070800081,None,,,,,,,,,,,,,,,,,,,,,,,,,,,,,,,,,,,,,,,,,,,,,,,,,,,,,,,,,power,199,21,sing,new,yellow,1051.1451027002186,None,y,1051.1451027002186,None,"['y', 'return']","[5.602773800026625, 5.91459699999541]",1051.1451027002186,None,,,32,001,2023_Apr_03_0954,ExactRep-v3-final,2021.2.3,59.99473249222061,
,,,,,,,,,,,,21,0,21,0,,,,,,,,,,,,,,,,,,,,,,,,,,,,,,,,,,,,,,,,,,,,,,,,,1059.710752800107,None,,,,,,,,,,,,,,,,,,,,,,,,,,,,,,,,,,,,,,,,,,,,,,,,,,,,,,,,,person,214,22,aloud,new,yellow,1057.6122852000408,None,y,1057.6122852000408,None,"['y', 'return']","[1.8474560999311507, 2.0634790998883545]",1057.6122852000408,None,,,32,001,2023_Apr_03_0954,ExactRep-v3-final,2021.2.3,59.99473249222061,
,,,,,,,,,,,,22,0,22,0,,,,,,,,,,,,,,,,,,,,,,,,,,,,,,,,,,,,,,,,,,,,,,,,,1063.9817269998603,None,,,,,,,,,,,,,,,,,,,,,,,,,,,,,,,,,,,,,,,,,,,,,,,,,,,,,,,,,storm,93,23,aloud,old,yellow,1060.2269279998727,None,y,1060.2269279998727,None,"['y', 'return']","[3.432846300303936, 3.7208740999922156]",1060.2269279998727,None,,,32,001,2023_Apr_03_0954,ExactRep-v3-final,2021.2.3,59.99473249222061,
,,,,,,,,,,,,23,0,23,0,,,,,,,,,,,,,,,,,,,,,,,,,,,,,,,,,,,,,,,,,,,,,,,,,1067.4350609001704,None,,,,,,,,,,,,,,,,,,,,,,,,,,,,,,,,,,,,,,,,,,,,,,,,,,,,,,,,,doctor,52,24,silent,old,yellow,1064.4820481999777,None,n,1064.4820481999777,None,"['n', 'return']","[2.641751700080931, 2.9137424998916686]",1064.4820481999777,None,,,32,001,2023_Apr_03_0954,ExactRep-v3-final,2021.2.3,59.99473249222061,
,,,,,,,,,,,,24,0,24,0,,,,,,,,,,,,,,,,,,,,,,,,,,,,,,,,,,,,,,,,,,,,,,,,,1069.7542407000437,None,,,,,,,,,,,,,,,,,,,,,,,,,,,,,,,,,,,,,,,,,,,,,,,,,,,,,,,,,child,8,25,sing,old,yellow,1067.9422770999372,None,y,1067.9422770999372,None,"['y', 'return']","[1.5174257000908256, 1.7735294001176953]",1067.9422770999372,None,,,32,001,2023_Apr_03_0954,ExactRep-v3-final,2021.2.3,59.99473249222061,
,,,,,,,,,,,,25,0,25,0,,,,,,,,,,,,,,,,,,,,,,,,,,,,,,,,,,,,,,,,,,,,,,,,,1078.879871299956,None,,,,,,,,,,,,,,,,,,,,,,,,,,,,,,,,,,,,,,,,,,,,,,,,,,,,,,,,,love,37,26,sing,old,yellow,1070.2699544997886,None,y,1070.2699544997886,None,"['y', 'return']","[8.237828600220382, 8.565789200365543]",1070.2699544997886,None,,,32,001,2023_Apr_03_0954,ExactRep-v3-final,2021.2.3,59.99473249222061,
,,,,,,,,,,,,26,0,26,0,,,,,,,,,,,,,,,,,,,,,,,,,,,,,,,,,,,,,,,,,,,,,,,,,1081.9662289000116,None,,,,,,,,,,,,,,,,,,,,,,,,,,,,,,,,,,,,,,,,,,,,,,,,,,,,,,,,,hour,9,27,sing,old,yellow,1079.3808818999678,None,y,1079.3808818999678,None,"['y', 'return']","[2.2148400000296533, 2.542975500226021]",1079.3808818999678,None,,,32,001,2023_Apr_03_0954,ExactRep-v3-final,2021.2.3,59.99473249222061,
,,,,,,,,,,,,27,0,27,0,,,,,,,,,,,,,,,,,,,,,,,,,,,,,,,,,,,,,,,,,,,,,,,,,1086.7043447000906,None,,,,,,,,,,,,,,,,,,,,,,,,,,,,,,,,,,,,,,,,,,,,,,,,,,,,,,,,,stone,224,28,aloud,new,yellow,1082.4734192001633,None,n,1082.4734192001633,None,"['n', 'return']","[4.002389499917626, 4.186387300025672]",1082.4734192001633,None,,,32,001,2023_Apr_03_0954,ExactRep-v3-final,2021.2.3,59.99473249222061,
,,,,,,,,,,,,28,0,28,0,,,,,,,,,,,,,,,,,,,,,,,,,,,,,,,,,,,,,,,,,,,,,,,,,1088.7396766999736,None,,,,,,,,,,,,,,,,,,,,,,,,,,,,,,,,,,,,,,,,,,,,,,,,,,,,,,,,,shore,81,29,aloud,old,yellow,1087.2191400998272,None,y,1087.2191400998272,None,"['y', 'return']","[1.1925826002843678, 1.4806844000704587]",1087.2191400998272,None,,,32,001,2023_Apr_03_0954,ExactRep-v3-final,2021.2.3,59.99473249222061,
,,,,,,,,,,,,29,0,29,0,,,,,,,,,,,,,,,,,,,,,,,,,,,,,,,,,,,,,,,,,,,,,,,,,1091.7928956998512,None,,,,,,,,,,,,,,,,,,,,,,,,,,,,,,,,,,,,,,,,,,,,,,,,,,,,,,,,,home,128,30,silent,new,yellow,1089.2449496998452,None,n,1089.2449496998452,None,"['n', 'return']","[2.2068247999995947, 2.5108516002073884]",1089.2449496998452,None,,,32,001,2023_Apr_03_0954,ExactRep-v3-final,2021.2.3,59.99473249222061,
,,,,,,,,,,,,30,0,30,0,,,,,,,,,,,,,,,,,,,,,,,,,,,,,,,,,,,,,,,,,,,,,,,,,1095.5464908001013,None,,,,,,,,,,,,,,,,,,,,,,,,,,,,,,,,,,,,,,,,,,,,,,,,,,,,,,,,,hall,155,31,silent,new,yellow,1092.3006827002391,None,n,1092.3006827002391,None,"['n', 'return']","[2.559107500128448, 3.2071234001778066]",1092.3006827002391,None,,,32,001,2023_Apr_03_0954,ExactRep-v3-final,2021.2.3,59.99473249222061,
,,,,,,,,,,,,31,0,31,0,,,,,,,,,,,,,,,,,,,,,,,,,,,,,,,,,,,,,,,,,,,,,,,,,1100.3847321001813,None,,,,,,,,,,,,,,,,,,,,,,,,,,,,,,,,,,,,,,,,,,,,,,,,,,,,,,,,,college,131,32,silent,new,yellow,1096.0699044000357,None,y,1096.0699044000357,None,"['y', 'return']","[3.9739039996638894, 4.2779234000481665]",1096.0699044000357,None,,,32,001,2023_Apr_03_0954,ExactRep-v3-final,2021.2.3,59.99473249222061,
,,,,,,,,,,,,32,0,32,0,,,,,,,,,,,,,,,,,,,,,,,,,,,,,,,,,,,,,,,,,,,,,,,,,1102.1032218998298,None,,,,,,,,,,,,,,,,,,,,,,,,,,,,,,,,,,,,,,,,,,,,,,,,,,,,,,,,,bird,115,33,aloud,old,yellow,1100.8923446000554,None,y,1100.8923446000554,None,"['y', 'return']","[0.8474602997303009, 1.1675915997475386]",1100.8923446000554,None,,,32,001,2023_Apr_03_0954,ExactRep-v3-final,2021.2.3,59.99473249222061,
,,,,,,,,,,,,33,0,33,0,,,,,,,,,,,,,,,,,,,,,,,,,,,,,,,,,,,,,,,,,,,,,,,,,1105.5230788998306,None,,,,,,,,,,,,,,,,,,,,,,,,,,,,,,,,,,,,,,,,,,,,,,,,,,,,,,,,,time,21,34,sing,old,yellow,1102.6133094001561,None,y,1102.6133094001561,None,"['y', 'return']","[2.526442399714142, 2.8705083001405]",1102.6133094001561,None,,,32,001,2023_Apr_03_0954,ExactRep-v3-final,2021.2.3,59.99473249222061,
,,,,,,,,,,,,34,0,34,0,,,,,,,,,,,,,,,,,,,,,,,,,,,,,,,,,,,,,,,,,,,,,,,,,1107.5585739999078,None,,,,,,,,,,,,,,,,,,,,,,,,,,,,,,,,,,,,,,,,,,,,,,,,,,,,,,,,,apple,209,35,sing,new,yellow,1106.0305622001179,None,n,1106.0305622001179,None,"['n', 'return']","[1.1976490998640656, 1.4931422001682222]",1106.0305622001179,None,,,32,001,2023_Apr_03_0954,ExactRep-v3-final,2021.2.3,59.99473249222061,
,,,,,,,,,,,,35,0,35,0,,,,,,,,,,,,,,,,,,,,,,,,,,,,,,,,,,,,,,,,,,,,,,,,,1109.5103811998852,None,,,,,,,,,,,,,,,,,,,,,,,,,,,,,,,,,,,,,,,,,,,,,,,,,,,,,,,,,water,75,36,silent,old,yellow,1108.0589962000959,None,y,1108.0589962000959,None,"['y', 'return']","[1.1368835996836424, 1.416761999949813]",1108.0589962000959,None,,,32,001,2023_Apr_03_0954,ExactRep-v3-final,2021.2.3,59.99473249222061,
,,,,,,,,,,,,36,0,36,0,,,,,,,,,,,,,,,,,,,,,,,,,,,,,,,,,,,,,,,,,,,,,,,,,1112.9807445998304,None,,,,,,,,,,,,,,,,,,,,,,,,,,,,,,,,,,,,,,,,,,,,,,,,,,,,,,,,,pipe,205,37,sing,new,yellow,1110.0146980001591,None,n,1110.0146980001591,None,"['n', 'return']","[2.653250999748707, 2.933090899605304]",1110.0146980001591,None,,,32,001,2023_Apr_03_0954,ExactRep-v3-final,2021.2.3,59.99473249222061,
,,,,,,,,,,,,37,0,37,0,,,,,,,,,,,,,,,,,,,,,,,,,,,,,,,,,,,,,,,,,,,,,,,,,1115.9170381999575,None,,,,,,,,,,,,,,,,,,,,,,,,,,,,,,,,,,,,,,,,,,,,,,,,,,,,,,,,,present,156,38,silent,new,yellow,1113.4959709001705,None,y,1113.4959709001705,None,"['y', 'return']","[2.068258299957961, 2.3799828002229333]",1113.4959709001705,None,,,32,001,2023_Apr_03_0954,ExactRep-v3-final,2021.2.3,59.99473249222061,
,,,,,,,,,,,,38,0,38,0,,,,,,,,,,,,,,,,,,,,,,,,,,,,,,,,,,,,,,,,,,,,,,,,,1120.1880545001477,None,,,,,,,,,,,,,,,,,,,,,,,,,,,,,,,,,,,,,,,,,,,,,,,,,,,,,,,,,fun,172,39,aloud,new,yellow,1116.41747879982,None,y,1116.41747879982,None,"['y', 'return']","[3.4823905997909606, 3.73037080001086]",1116.41747879982,None,,,32,001,2023_Apr_03_0954,ExactRep-v3-final,2021.2.3,59.99473249222061,
,,,,,,,,,,,,39,0,39,0,,,,,,,,,,,,,,,,,,,,,,,,,,,,,,,,,,,,,,,,,,,,,,,,,1123.341066800058,None,,,,,,,,,,,,,,,,,,,,,,,,,,,,,,,,,,,,,,,,,,,,,,,,,,,,,,,,,woods,42,40,silent,old,yellow,1120.6907055000775,None,y,1120.6907055000775,None,"['y', 'return']","[2.3290379997342825, 2.6171945999376476]",1120.6907055000775,None,,,32,001,2023_Apr_03_0954,ExactRep-v3-final,2021.2.3,59.99473249222061,
,,,,,,,,,,,,40,0,40,0,,,,,,,,,,,,,,,,,,,,,,,,,,,,,,,,,,,,,,,,,,,,,,,,,1125.459671500139,None,,,,,,,,,,,,,,,,,,,,,,,,,,,,,,,,,,,,,,,,,,,,,,,,,,,,,,,,,star,189,41,sing,new,yellow,1123.845474400092,None,n,1123.845474400092,None,"['n', 'return']","[1.2383746998384595, 1.5664539001882076]",1123.845474400092,None,,,32,001,2023_Apr_03_0954,ExactRep-v3-final,2021.2.3,59.99473249222061,
,,,,,,,,,,,,41,0,41,0,,,,,,,,,,,,,,,,,,,,,,,,,,,,,,,,,,,,,,,,,,,,,,,,,1127.7120090001263,None,,,,,,,,,,,,,,,,,,,,,,,,,,,,,,,,,,,,,,,,,,,,,,,,,,,,,,,,,iron,200,42,aloud,new,yellow,1125.9672524998896,None,y,1125.9672524998896,None,"['y', 'return']","[1.4126029000617564, 1.708646500017494]",1125.9672524998896,None,,,32,001,2023_Apr_03_0954,ExactRep-v3-final,2021.2.3,59.99473249222061,
,,,,,,,,,,,,42,0,42,0,,,,,,,,,,,,,,,,,,,,,,,,,,,,,,,,,,,,,,,,,,,,,,,,,1131.9502500998788,None,,,,,,,,,,,,,,,,,,,,,,,,,,,,,,,,,,,,,,,,,,,,,,,,,,,,,,,,,wife,234,43,aloud,new,yellow,1128.2254416998476,None,y,1128.2254416998476,None,"['y', 'return']","[3.330467500258237, 3.6823372999206185]",1128.2254416998476,None,,,32,001,2023_Apr_03_0954,ExactRep-v3-final,2021.2.3,59.99473249222061,
,,,,,,,,,,,,43,0,43,0,,,,,,,,,,,,,,,,,,,,,,,,,,,,,,,,,,,,,,,,,,,,,,,,,1136.5875270999968,None,,,,,,,,,,,,,,,,,,,,,,,,,,,,,,,,,,,,,,,,,,,,,,,,,,,,,,,,,gift,149,44,silent,new,yellow,1132.4519611001015,None,n,1132.4519611001015,None,"['n', 'return']","[3.807940599974245, 4.103929599747062]",1132.4519611001015,None,,,32,001,2023_Apr_03_0954,ExactRep-v3-final,2021.2.3,59.99473249222061,
,,,,,,,,,,,,44,0,44,0,,,,,,,,,,,,,,,,,,,,,,,,,,,,,,,,,,,,,,,,,,,,,,,,,1138.406190500129,None,,,,,,,,,,,,,,,,,,,,,,,,,,,,,,,,,,,,,,,,,,,,,,,,,,,,,,,,,steam,108,45,aloud,old,yellow,1137.0971324997954,None,y,1137.0971324997954,None,"['y', 'return']","[1.0587001000531018, 1.2746808999218047]",1137.0971324997954,None,,,32,001,2023_Apr_03_0954,ExactRep-v3-final,2021.2.3,59.99473249222061,
,,,,,,,,,,,,45,0,45,0,,,,,,,,,,,,,,,,,,,,,,,,,,,,,,,,,,,,,,,,,,,,,,,,,1140.1912783998996,None,,,,,,,,,,,,,,,,,,,,,,,,,,,,,,,,,,,,,,,,,,,,,,,,,,,,,,,,,bottle,24,46,sing,old,yellow,1138.906663000118,None,y,1138.906663000118,None,"['y', 'return']","[0.95313989976421, 1.2410936001688242]",1138.906663000118,None,,,32,001,2023_Apr_03_0954,ExactRep-v3-final,2021.2.3,59.99473249222061,
,,,,,,,,,,,,46,0,46,0,,,,,,,,,,,,,,,,,,,,,,,,,,,,,,,,,,,,,,,,,,,,,,,,,1143.3953228997998,None,,,,,,,,,,,,,,,,,,,,,,,,,,,,,,,,,,,,,,,,,,,,,,,,,,,,,,,,,table,26,47,sing,old,yellow,1140.6919336998835,None,y,1140.6919336998835,None,"['y', 'return']","[2.3599443999119103, 2.656055999919772]",1140.6919336998835,None,,,32,001,2023_Apr_03_0954,ExactRep-v3-final,2021.2.3,59.99473249222061,
,,,,,,,,,,,,47,0,47,0,,,,,,,,,,,,,,,,,,,,,,,,,,,,,,,,,,,,,,,,,,,,,,,,,1148.466205699835,None,,,,,,,,,,,,,,,,,,,,,,,,,,,,,,,,,,,,,,,,,,,,,,,,,,,,,,,,,shock,197,48,sing,new,yellow,1143.9000996998511,None,y,1143.9000996998511,None,"['y', 'return']","[4.23986449977383, 4.527672299649566]",1143.9000996998511,None,,,32,001,2023_Apr_03_0954,ExactRep-v3-final,2021.2.3,59.99473249222061,
,,,,,,,,,,,,48,0,48,0,,,,,,,,,,,,,,,,,,,,,,,,,,,,,,,,,,,,,,,,,,,,,,,,,1151.8694580998272,None,,,,,,,,,,,,,,,,,,,,,,,,,,,,,,,,,,,,,,,,,,,,,,,,,,,,,,,,,plain,138,49,silent,new,yellow,1148.976761800237,None,n,1148.976761800237,None,"['n', 'return']","[2.563158900011331, 2.8511761999689043]",1148.976761800237,None,,,32,001,2023_Apr_03_0954,ExactRep-v3-final,2021.2.3,59.99473249222061,
,,,,,,,,,,,,49,0,49,0,,,,,,,,,,,,,,,,,,,,,,,,,,,,,,,,,,,,,,,,,,,,,,,,,1153.9717353000306,None,,,,,,,,,,,,,,,,,,,,,,,,,,,,,,,,,,,,,,,,,,,,,,,,,,,,,,,,,origin,85,50,aloud,old,yellow,1152.380210199859,None,y,1152.380210199859,None,"['y', 'return']","[1.303598300088197, 1.5436873002909124]",1152.380210199859,None,,,32,001,2023_Apr_03_0954,ExactRep-v3-final,2021.2.3,59.99473249222061,
,,,,,,,,,,,,50,0,50,0,,,,,,,,,,,,,,,,,,,,,,,,,,,,,,,,,,,,,,,,,,,,,,,,,1158.2259737998247,None,,,,,,,,,,,,,,,,,,,,,,,,,,,,,,,,,,,,,,,,,,,,,,,,,,,,,,,,,safety,185,51,sing,new,yellow,1154.4844597000629,None,n,1154.4844597000629,None,"['n', 'return']","[3.399313799571246, 3.695441999938339]",1154.4844597000629,None,,,32,001,2023_Apr_03_0954,ExactRep-v3-final,2021.2.3,59.99473249222061,
,,,,,,,,,,,,51,0,51,0,,,,,,,,,,,,,,,,,,,,,,,,,,,,,,,,,,,,,,,,,,,,,,,,,1165.1829142002389,None,,,,,,,,,,,,,,,,,,,,,,,,,,,,,,,,,,,,,,,,,,,,,,,,,,,,,,,,,mind,47,52,silent,old,yellow,1158.7386717000045,None,y,1158.7386717000045,None,"['y', 'return']","[6.105208700057119, 6.409326300024986]",1158.7386717000045,None,,,32,001,2023_Apr_03_0954,ExactRep-v3-final,2021.2.3,59.99473249222061,
,,,,,,,,,,,,52,0,52,0,,,,,,,,,,,,,,,,,,,,,,,,,,,,,,,,,,,,,,,,,,,,,,,,,1166.8579392000102,None,,,,,,,,,,,,,,,,,,,,,,,,,,,,,,,,,,,,,,,,,,,,,,,,,,,,,,,,,shoes,7,53,sing,old,yellow,1165.6833367999643,None,y,1165.6833367999643,None,"['y', 'return']","[0.832625700160861, 1.1204674998298287]",1165.6833367999643,None,,,32,001,2023_Apr_03_0954,ExactRep-v3-final,2021.2.3,59.99473249222061,
,,,,,,,,,,,,53,0,53,0,,,,,,,,,,,,,,,,,,,,,,,,,,,,,,,,,,,,,,,,,,,,,,,,,1169.6372618000023,None,,,,,,,,,,,,,,,,,,,,,,,,,,,,,,,,,,,,,,,,,,,,,,,,,,,,,,,,,machine,60,54,silent,old,yellow,1167.3784730001353,None,y,1167.3784730001353,None,"['y', 'return']","[2.0414034998975694, 2.2254518000409007]",1167.3784730001353,None,,,32,001,2023_Apr_03_0954,ExactRep-v3-final,2021.2.3,59.99473249222061,
,,,,,,,,,,,,54,0,54,0,,,,,,,,,,,,,,,,,,,,,,,,,,,,,,,,,,,,,,,,,,,,,,,,,1174.5921939997934,None,,,,,,,,,,,,,,,,,,,,,,,,,,,,,,,,,,,,,,,,,,,,,,,,,,,,,,,,,quality,99,55,aloud,old,yellow,1170.1486736000516,None,y,1170.1486736000516,None,"['y', 'return']","[4.1113519999198616, 4.407277800142765]",1170.1486736000516,None,,,32,001,2023_Apr_03_0954,ExactRep-v3-final,2021.2.3,59.99473249222061,
,,,,,,,,,,,,55,0,55,0,,,,,,,,,,,,,,,,,,,,,,,,,,,,,,,,,,,,,,,,,,,,,,,,,1180.2312687998638,None,,,,,,,,,,,,,,,,,,,,,,,,,,,,,,,,,,,,,,,,,,,,,,,,,,,,,,,,,heaven,105,56,aloud,old,yellow,1175.0989033002406,None,y,1175.0989033002406,None,"['y', 'return']","[4.816888800356537, 5.089040799997747]",1175.0989033002406,None,,,32,001,2023_Apr_03_0954,ExactRep-v3-final,2021.2.3,59.99473249222061,
,,,,,,,,,,,,56,0,56,0,,,,,,,,,,,,,,,,,,,,,,,,,,,,,,,,,,,,,,,,,,,,,,,,,1183.9348801998422,None,,,,,,,,,,,,,,,,,,,,,,,,,,,,,,,,,,,,,,,,,,,,,,,,,,,,,,,,,soul,183,57,sing,new,yellow,1180.7388344001956,None,y,1180.7388344001956,None,"['y', 'return']","[2.8251554002054036, 3.1610318003222346]",1180.7388344001956,None,,,32,001,2023_Apr_03_0954,ExactRep-v3-final,2021.2.3,59.99473249222061,
,,,,,,,,,,,,57,0,57,0,,,,,,,,,,,,,,,,,,,,,,,,,,,,,,,,,,,,,,,,,,,,,,,,,1188.0725262002088,None,,,,,,,,,,,,,,,,,,,,,,,,,,,,,,,,,,,,,,,,,,,,,,,,,,,,,,,,,rock,6,58,sing,old,yellow,1184.4490840001963,None,n,1184.4490840001963,None,"['n', 'return']","[3.299060400109738, 3.578803200274706]",1184.4490840001963,None,,,32,001,2023_Apr_03_0954,ExactRep-v3-final,2021.2.3,59.99473249222061,
,,,,,,,,,,,,58,0,58,0,,,,,,,,,,,,,,,,,,,,,,,,,,,,,,,,,,,,,,,,,,,,,,,,,1190.1432798001915,None,,,,,,,,,,,,,,,,,,,,,,,,,,,,,,,,,,,,,,,,,,,,,,,,,,,,,,,,,boy,237,59,sing,new,yellow,1188.5774110998027,None,n,1188.5774110998027,None,"['n', 'return']","[1.2426713998429477, 1.5304678999818861]",1188.5774110998027,None,,,32,001,2023_Apr_03_0954,ExactRep-v3-final,2021.2.3,59.99473249222061,
,,,,,,,,,,,,59,0,59,0,,,,,,,,,,,,,,,,,,,,,,,,,,,,,,,,,,,,,,,,,,,,,,,,,1193.2942634001374,None,,,,,,,,,,,,,,,,,,,,,,,,,,,,,,,,,,,,,,,,,,,,,,,,,,,,,,,,,garden,170,60,aloud,new,yellow,1190.6627446999773,None,n,1190.6627446999773,None,"['n', 'return']","[2.285376800224185, 2.59710740018636]",1190.6627446999773,None,,,32,001,2023_Apr_03_0954,ExactRep-v3-final,2021.2.3,59.99473249222061,
,,,,,,,,,,,,60,0,60,0,,,,,,,,,,,,,,,,,,,,,,,,,,,,,,,,,,,,,,,,,,,,,,,,,1197.5818560998887,None,,,,,,,,,,,,,,,,,,,,,,,,,,,,,,,,,,,,,,,,,,,,,,,,,,,,,,,,,style,130,61,silent,new,yellow,1193.7953003998846,None,n,1193.7953003998846,None,"['n', 'return']","[3.4645457002334297, 3.7448198003694415]",1193.7953003998846,None,,,32,001,2023_Apr_03_0954,ExactRep-v3-final,2021.2.3,59.99473249222061,
,,,,,,,,,,,,61,0,61,0,,,,,,,,,,,,,,,,,,,,,,,,,,,,,,,,,,,,,,,,,,,,,,,,,1201.4024664000608,None,,,,,,,,,,,,,,,,,,,,,,,,,,,,,,,,,,,,,,,,,,,,,,,,,,,,,,,,,fortune,67,62,silent,old,yellow,1198.0825220998377,None,y,1198.0825220998377,None,"['y', 'return']","[3.0094387996941805, 3.2735874000936747]",1198.0825220998377,None,,,32,001,2023_Apr_03_0954,ExactRep-v3-final,2021.2.3,59.99473249222061,
,,,,,,,,,,,,62,0,62,0,,,,,,,,,,,,,,,,,,,,,,,,,,,,,,,,,,,,,,,,,,,,,,,,,1207.6586048002355,None,,,,,,,,,,,,,,,,,,,,,,,,,,,,,,,,,,,,,,,,,,,,,,,,,,,,,,,,,silence,193,63,sing,new,yellow,1201.9029510999098,None,n,1201.9029510999098,None,"['n', 'return']","[5.437148000113666, 5.708965000230819]",1201.9029510999098,None,,,32,001,2023_Apr_03_0954,ExactRep-v3-final,2021.2.3,59.99473249222061,
,,,,,,,,,,,,63,0,63,0,,,,,,,,,,,,,,,,,,,,,,,,,,,,,,,,,,,,,,,,,,,,,,,,,1212.680508399848,None,,,,,,,,,,,,,,,,,,,,,,,,,,,,,,,,,,,,,,,,,,,,,,,,,,,,,,,,,prison,203,64,sing,new,yellow,1208.1655639000237,None,y,1208.1655639000237,None,"['y', 'return']","[4.174354999791831, 4.4783418998122215]",1208.1655639000237,None,,,32,001,2023_Apr_03_0954,ExactRep-v3-final,2021.2.3,59.99473249222061,
,,,,,,,,,,,,64,0,64,0,,,,,,,,,,,,,,,,,,,,,,,,,,,,,,,,,,,,,,,,,,,,,,,,,1216.1508558997884,None,,,,,,,,,,,,,,,,,,,,,,,,,,,,,,,,,,,,,,,,,,,,,,,,,,,,,,,,,teacher,97,65,aloud,old,yellow,1213.1860194001347,None,y,1213.1860194001347,None,"['y', 'return']","[2.6739149997010827, 2.922086199745536]",1213.1860194001347,None,,,32,001,2023_Apr_03_0954,ExactRep-v3-final,2021.2.3,59.99473249222061,
,,,,,,,,,,,,65,0,65,0,,,,,,,,,,,,,,,,,,,,,,,,,,,,,,,,,,,,,,,,,,,,,,,,,1221.9398444998078,None,,,,,,,,,,,,,,,,,,,,,,,,,,,,,,,,,,,,,,,,,,,,,,,,,,,,,,,,,meeting,62,66,silent,old,yellow,1216.6510811001062,None,n,1216.6510811001062,None,"['n', 'return']","[4.96893270034343, 5.2490448001772165]",1216.6510811001062,None,,,32,001,2023_Apr_03_0954,ExactRep-v3-final,2021.2.3,59.99473249222061,
,,,,,,,,,,,,66,0,66,0,,,,,,,,,,,,,,,,,,,,,,,,,,,,,,,,,,,,,,,,,,,,,,,,,1224.5254632998258,None,,,,,,,,,,,,,,,,,,,,,,,,,,,,,,,,,,,,,,,,,,,,,,,,,,,,,,,,,fur,230,67,aloud,new,yellow,1222.4408236001618,None,n,1222.4408236001618,None,"['n', 'return']","[1.770983399823308, 2.0431371997110546]",1222.4408236001618,None,,,32,001,2023_Apr_03_0954,ExactRep-v3-final,2021.2.3,59.99473249222061,
,,,,,,,,,,,,67,0,67,0,,,,,,,,,,,,,,,,,,,,,,,,,,,,,,,,,,,,,,,,,,,,,,,,,1227.1781163001433,None,,,,,,,,,,,,,,,,,,,,,,,,,,,,,,,,,,,,,,,,,,,,,,,,,,,,,,,,,village,49,68,silent,old,yellow,1225.0355175002478,None,y,1225.0355175002478,None,"['y', 'return']","[1.8646173998713493, 2.0964441001415253]",1225.0355175002478,None,,,32,001,2023_Apr_03_0954,ExactRep-v3-final,2021.2.3,59.99473249222061,
,,,,,,,,,,,,68,0,68,0,,,,,,,,,,,,,,,,,,,,,,,,,,,,,,,,,,,,,,,,,,,,,,,,,1232.5001011998393,None,,,,,,,,,,,,,,,,,,,,,,,,,,,,,,,,,,,,,,,,,,,,,,,,,,,,,,,,,beast,124,69,silent,new,yellow,1227.6834350000136,None,y,1227.6834350000136,None,"['y', 'return']","[4.52854169998318, 4.776545699685812]",1227.6834350000136,None,,,32,001,2023_Apr_03_0954,ExactRep-v3-final,2021.2.3,59.99473249222061,
,,,,,,,,,,,,69,0,69,0,,,,,,,,,,,,,,,,,,,,,,,,,,,,,,,,,,,,,,,,,,,,,,,,,1235.5032115001231,None,,,,,,,,,,,,,,,,,,,,,,,,,,,,,,,,,,,,,,,,,,,,,,,,,,,,,,,,,door,35,70,sing,old,yellow,1233.0087049999274,None,y,1233.0087049999274,None,"['y', 'return']","[2.195250999648124, 2.451187999919057]",1233.0087049999274,None,,,32,001,2023_Apr_03_0954,ExactRep-v3-final,2021.2.3,59.99473249222061,
,,,,,,,,,,,,70,0,70,0,,,,,,,,,,,,,,,,,,,,,,,,,,,,,,,,,,,,,,,,,,,,,,,,,1238.8731677997857,None,,,,,,,,,,,,,,,,,,,,,,,,,,,,,,,,,,,,,,,,,,,,,,,,,,,,,,,,,clock,222,71,aloud,new,yellow,1236.009917399846,None,n,1236.009917399846,None,"['n', 'return']","[2.5381937003694475, 2.826092300005257]",1236.009917399846,None,,,32,001,2023_Apr_03_0954,ExactRep-v3-final,2021.2.3,59.99473249222061,
,,,,,,,,,,,,71,0,71,0,,,,,,,,,,,,,,,,,,,,,,,,,,,,,,,,,,,,,,,,,,,,,,,,,1242.5768956001848,None,,,,,,,,,,,,,,,,,,,,,,,,,,,,,,,,,,,,,,,,,,,,,,,,,,,,,,,,,month,23,72,sing,old,yellow,1239.3770050997846,None,n,1239.3770050997846,None,"['n', 'return']","[2.8189496998675168, 3.1550636999309063]",1239.3770050997846,None,,,32,001,2023_Apr_03_0954,ExactRep-v3-final,2021.2.3,59.99473249222061,
,,,,,,,,,,,,72,0,72,0,,,,,,,,,,,,,,,,,,,,,,,,,,,,,,,,,,,,,,,,,,,,,,,,,1247.1982760000974,None,,,,,,,,,,,,,,,,,,,,,,,,,,,,,,,,,,,,,,,,,,,,,,,,,,,,,,,,,series,152,73,silent,new,yellow,1243.0848623998463,None,n,1243.0848623998463,None,"['n', 'return']","[3.8310954002663493, 4.07129679992795]",1243.0848623998463,None,,,32,001,2023_Apr_03_0954,ExactRep-v3-final,2021.2.3,59.99473249222061,
,,,,,,,,,,,,73,0,73,0,,,,,,,,,,,,,,,,,,,,,,,,,,,,,,,,,,,,,,,,,,,,,,,,,1256.1404087999836,None,,,,,,,,,,,,,,,,,,,,,,,,,,,,,,,,,,,,,,,,,,,,,,,,,,,,,,,,,cabin,236,74,aloud,new,yellow,1247.7006135000847,None,n,1247.7006135000847,None,"['n', 'return']","[8.127391600050032, 8.407385500147939]",1247.7006135000847,None,,,32,001,2023_Apr_03_0954,ExactRep-v3-final,2021.2.3,59.99473249222061,
,,,,,,,,,,,,74,0,74,0,,,,,,,,,,,,,,,,,,,,,,,,,,,,,,,,,,,,,,,,,,,,,,,,,1260.8786734999157,None,,,,,,,,,,,,,,,,,,,,,,,,,,,,,,,,,,,,,,,,,,,,,,,,,,,,,,,,,body,107,75,aloud,old,yellow,1256.6527277999558,None,y,1256.6527277999558,None,"['y', 'return']","[3.9511680002324283, 4.183294599875808]",1256.6527277999558,None,,,32,001,2023_Apr_03_0954,ExactRep-v3-final,2021.2.3,59.99473249222061,
,,,,,,,,,,,,75,0,75,0,,,,,,,,,,,,,,,,,,,,,,,,,,,,,,,,,,,,,,,,,,,,,,,,,1267.8187541998923,None,,,,,,,,,,,,,,,,,,,,,,,,,,,,,,,,,,,,,,,,,,,,,,,,,,,,,,,,,hope,232,76,aloud,new,yellow,1261.384934199974,None,y,1261.384934199974,None,"['y', 'return']","[6.139006199780852, 6.386938000097871]",1261.384934199974,None,,,32,001,2023_Apr_03_0954,ExactRep-v3-final,2021.2.3,59.99473249222061,
,,,,,,,,,,,,76,0,76,0,,,,,,,,,,,,,,,,,,,,,,,,,,,,,,,,,,,,,,,,,,,,,,,,,1272.0231260000728,None,,,,,,,,,,,,,,,,,,,,,,,,,,,,,,,,,,,,,,,,,,,,,,,,,,,,,,,,,crime,226,77,aloud,new,yellow,1268.3194483001716,None,n,1268.3194483001716,None,"['n', 'return']","[3.412647099699825, 3.668536499608308]",1268.3194483001716,None,,,32,001,2023_Apr_03_0954,ExactRep-v3-final,2021.2.3,59.99473249222061,
,,,,,,,,,,,,77,0,77,0,,,,,,,,,,,,,,,,,,,,,,,,,,,,,,,,,,,,,,,,,,,,,,,,,1274.32541280007,None,,,,,,,,,,,,,,,,,,,,,,,,,,,,,,,,,,,,,,,,,,,,,,,,,,,,,,,,,dawn,139,78,silent,new,yellow,1272.5305031999014,None,n,1272.5305031999014,None,"['n', 'return']","[1.5217965999618173, 1.7534729996696115]",1272.5305031999014,None,,,32,001,2023_Apr_03_0954,ExactRep-v3-final,2021.2.3,59.99473249222061,
,,,,,,,,,,,,78,0,78,0,,,,,,,,,,,,,,,,,,,,,,,,,,,,,,,,,,,,,,,,,,,,,,,,,1275.9770721998066,None,,,,,,,,,,,,,,,,,,,,,,,,,,,,,,,,,,,,,,,,,,,,,,,,,,,,,,,,,friend,89,79,aloud,old,yellow,1274.82571549993,None,y,1274.82571549993,None,"['y', 'return']","[0.9062548000365496, 1.114184600301087]",1274.82571549993,None,,,32,001,2023_Apr_03_0954,ExactRep-v3-final,2021.2.3,59.99473249222061,
,,,,,,,,,,,,79,0,79,0,,,,,,,,,,,,,,,,,,,,,,,,,,,,,,,,,,,,,,,,,,,,,,,,,1277.6119355000556,None,,,,,,,,,,,,,,,,,,,,,,,,,,,,,,,,,,,,,,,,,,,,,,,,,,,,,,,,,devil,101,80,aloud,old,yellow,1276.4812833000906,None,y,1276.4812833000906,None,"['y', 'return']","[0.8828471000306308, 1.0906458999961615]",1276.4812833000906,None,,,32,001,2023_Apr_03_0954,ExactRep-v3-final,2021.2.3,59.99473249222061,
,,,,,,,,,,,,80,0,80,0,,,,,,,,,,,,,,,,,,,,,,,,,,,,,,,,,,,,,,,,,,,,,,,,,1279.3137238998897,None,,,,,,,,,,,,,,,,,,,,,,,,,,,,,,,,,,,,,,,,,,,,,,,,,,,,,,,,,blood,0,81,sing,old,yellow,1278.1306280000135,None,y,1278.1306280000135,None,"['y', 'return']","[0.8494490003213286, 1.1372424000874162]",1278.1306280000135,None,,,32,001,2023_Apr_03_0954,ExactRep-v3-final,2021.2.3,59.99473249222061,
,,,,,,,,,,,,81,0,81,0,,,,,,,,,,,,,,,,,,,,,,,,,,,,,,,,,,,,,,,,,,,,,,,,,1283.3675727997907,None,,,,,,,,,,,,,,,,,,,,,,,,,,,,,,,,,,,,,,,,,,,,,,,,,,,,,,,,,chance,153,82,silent,new,yellow,1279.8266751999035,None,n,1279.8266751999035,None,"['n', 'return']","[3.281417400110513, 3.4972636001184583]",1279.8266751999035,None,,,32,001,2023_Apr_03_0954,ExactRep-v3-final,2021.2.3,59.99473249222061,
,,,,,,,,,,,,82,0,82,0,,,,,,,,,,,,,,,,,,,,,,,,,,,,,,,,,,,,,,,,,,,,,,,,,1285.97178550018,None,,,,,,,,,,,,,,,,,,,,,,,,,,,,,,,,,,,,,,,,,,,,,,,,,,,,,,,,,history,129,83,silent,new,yellow,1283.8801150000654,None,n,1283.8801150000654,None,"['n', 'return']","[1.7879416001960635, 2.0437501003034413]",1283.8801150000654,None,,,32,001,2023_Apr_03_0954,ExactRep-v3-final,2021.2.3,59.99473249222061,
,,,,,,,,,,,,83,0,83,0,,,,,,,,,,,,,,,,,,,,,,,,,,,,,,,,,,,,,,,,,,,,,,,,,1289.7907393998466,None,,,,,,,,,,,,,,,,,,,,,,,,,,,,,,,,,,,,,,,,,,,,,,,,,,,,,,,,,colony,70,84,silent,old,yellow,1286.4874056000262,None,y,1286.4874056000262,None,"['y', 'return']","[2.996524399612099, 3.2605848000384867]",1286.4874056000262,None,,,32,001,2023_Apr_03_0954,ExactRep-v3-final,2021.2.3,59.99473249222061,
,,,,,,,,,,,,84,0,84,0,,,,,,,,,,,,,,,,,,,,,,,,,,,,,,,,,,,,,,,,,,,,,,,,,1291.7761522000656,None,,,,,,,,,,,,,,,,,,,,,,,,,,,,,,,,,,,,,,,,,,,,,,,,,,,,,,,,,river,61,85,silent,old,yellow,1290.3067014999688,None,n,1290.3067014999688,None,"['n', 'return']","[1.1213098000735044, 1.4253302002325654]",1290.3067014999688,None,,,32,001,2023_Apr_03_0954,ExactRep-v3-final,2021.2.3,59.99473249222061,
,,,,,,,,,,,,85,0,85,0,,,,,,,,,,,,,,,,,,,,,,,,,,,,,,,,,,,,,,,,,,,,,,,,,1293.6126196999103,None,,,,,,,,,,,,,,,,,,,,,,,,,,,,,,,,,,,,,,,,,,,,,,,,,,,,,,,,,pupil,117,86,aloud,old,yellow,1292.2767105000094,None,y,1292.2767105000094,None,"['y', 'return']","[0.9991711000911891, 1.2873094999231398]",1292.2767105000094,None,,,32,001,2023_Apr_03_0954,ExactRep-v3-final,2021.2.3,59.99473249222061,
,,,,,,,,,,,,86,0,86,0,,,,,,,,,,,,,,,,,,,,,,,,,,,,,,,,,,,,,,,,,,,,,,,,,1295.5298077999614,None,,,,,,,,,,,,,,,,,,,,,,,,,,,,,,,,,,,,,,,,,,,,,,,,,,,,,,,,,ability,65,87,silent,old,yellow,1294.1162407002412,None,y,1294.1162407002412,None,"['y', 'return']","[1.1357072996906936, 1.3758698999881744]",1294.1162407002412,None,,,32,001,2023_Apr_03_0954,ExactRep-v3-final,2021.2.3,59.99473249222061,
,,,,,,,,,,,,87,0,87,0,,,,,,,,,,,,,,,,,,,,,,,,,,,,,,,,,,,,,,,,,,,,,,,,,1297.7488198000938,None,,,,,,,,,,,,,,,,,,,,,,,,,,,,,,,,,,,,,,,,,,,,,,,,,,,,,,,,,library,164,88,aloud,new,yellow,1296.0394231998362,None,n,1296.0394231998362,None,"['n', 'return']","[1.4045420000329614, 1.6765498998574913]",1296.0394231998362,None,,,32,001,2023_Apr_03_0954,ExactRep-v3-final,2021.2.3,59.99473249222061,
,,,,,,,,,,,,88,0,88,0,,,,,,,,,,,,,,,,,,,,,,,,,,,,,,,,,,,,,,,,,,,,,,,,,1303.2877306002192,None,,,,,,,,,,,,,,,,,,,,,,,,,,,,,,,,,,,,,,,,,,,,,,,,,,,,,,,,,cattle,212,89,aloud,new,yellow,1298.2491925000213,None,n,1298.2491925000213,None,"['n', 'y', 'return']","[1.5948207001201808, 4.491069400217384, 4.994847100228071]",1298.2491925000213,None,,,32,001,2023_Apr_03_0954,ExactRep-v3-final,2021.2.3,59.99473249222061,
,,,,,,,,,,,,89,0,89,0,,,,,,,,,,,,,,,,,,,,,,,,,,,,,,,,,,,,,,,,,,,,,,,,,1307.191464100033,None,,,,,,,,,,,,,,,,,,,,,,,,,,,,,,,,,,,,,,,,,,,,,,,,,,,,,,,,,animal,5,90,sing,old,yellow,1303.7942122002132,None,y,1303.7942122002132,None,"['y', 'return']","[3.017665999941528, 3.3619217998348176]",1303.7942122002132,None,,,32,001,2023_Apr_03_0954,ExactRep-v3-final,2021.2.3,59.99473249222061,
,,,,,,,,,,,,90,0,90,0,,,,,,,,,,,,,,,,,,,,,,,,,,,,,,,,,,,,,,,,,,,,,,,,,1309.61112840008,None,,,,,,,,,,,,,,,,,,,,,,,,,,,,,,,,,,,,,,,,,,,,,,,,,,,,,,,,,ticket,17,91,sing,old,yellow,1307.7041072999127,None,y,1307.7041072999127,None,"['y', 'return']","[1.6039130999706686, 1.867920699995011]",1307.7041072999127,None,,,32,001,2023_Apr_03_0954,ExactRep-v3-final,2021.2.3,59.99473249222061,
,,,,,,,,,,,,91,0,91,0,,,,,,,,,,,,,,,,,,,,,,,,,,,,,,,,,,,,,,,,,,,,,,,,,1312.1798729002476,None,,,,,,,,,,,,,,,,,,,,,,,,,,,,,,,,,,,,,,,,,,,,,,,,,,,,,,,,,lord,84,92,aloud,old,yellow,1310.122626699973,None,y,1310.122626699973,None,"['y', 'return']","[1.7373011000454426, 2.0094717000611126]",1310.122626699973,None,,,32,001,2023_Apr_03_0954,ExactRep-v3-final,2021.2.3,59.99473249222061,
,,,,,,,,,,,,92,0,92,0,,,,,,,,,,,,,,,,,,,,,,,,,,,,,,,,,,,,,,,,,,,,,,,,,1315.299663499929,None,,,,,,,,,,,,,,,,,,,,,,,,,,,,,,,,,,,,,,,,,,,,,,,,,,,,,,,,,amount,239,93,sing,new,yellow,1312.686421299819,None,n,1312.686421299819,None,"['n', 'return']","[1.933832600247115, 2.5655089002102613]",1312.686421299819,None,,,32,001,2023_Apr_03_0954,ExactRep-v3-final,2021.2.3,59.99473249222061,
,,,,,,,,,,,,93,0,93,0,,,,,,,,,,,,,,,,,,,,,,,,,,,,,,,,,,,,,,,,,,,,,,,,,1319.6374245001934,None,,,,,,,,,,,,,,,,,,,,,,,,,,,,,,,,,,,,,,,,,,,,,,,,,,,,,,,,,mother,137,94,silent,new,yellow,1315.7999920002185,None,n,1315.7999920002185,None,"['n', 'return']","[3.524343400262296, 3.8040419002063572]",1315.7999920002185,None,,,32,001,2023_Apr_03_0954,ExactRep-v3-final,2021.2.3,59.99473249222061,
,,,,,,,,,,,,94,0,94,0,,,,,,,,,,,,,,,,,,,,,,,,,,,,,,,,,,,,,,,,,,,,,,,,,1322.9740129997954,None,,,,,,,,,,,,,,,,,,,,,,,,,,,,,,,,,,,,,,,,,,,,,,,,,,,,,,,,,shame,92,95,aloud,old,yellow,1320.1476628999226,None,y,1320.1476628999226,None,"['y', 'return']","[2.5603888002224267, 2.792347200214863]",1320.1476628999226,None,,,32,001,2023_Apr_03_0954,ExactRep-v3-final,2021.2.3,59.99473249222061,
,,,,,,,,,,,,95,0,95,0,,,,,,,,,,,,,,,,,,,,,,,,,,,,,,,,,,,,,,,,,,,,,,,,,1326.7775910999626,None,,,,,,,,,,,,,,,,,,,,,,,,,,,,,,,,,,,,,,,,,,,,,,,,,,,,,,,,,camp,56,96,silent,old,yellow,1323.475825900212,None,y,1323.475825900212,None,"['y', 'return']","[3.0083590000867844, 3.2562787998467684]",1323.475825900212,None,,,32,001,2023_Apr_03_0954,ExactRep-v3-final,2021.2.3,59.99473249222061,
,,,,,,,,,,,,96,0,96,0,,,,,,,,,,,,,,,,,,,,,,,,,,,,,,,,,,,,,,,,,,,,,,,,,1328.8632278000005,None,,,,,,,,,,,,,,,,,,,,,,,,,,,,,,,,,,,,,,,,,,,,,,,,,,,,,,,,,wine,177,97,sing,new,yellow,1327.288175900001,None,y,1327.288175900001,None,"['y', 'return']","[1.2520310999825597, 1.5318693001754582]",1327.288175900001,None,,,32,001,2023_Apr_03_0954,ExactRep-v3-final,2021.2.3,59.99473249222061,
,,,,,,,,,,,,97,0,97,0,,,,,,,,,,,,,,,,,,,,,,,,,,,,,,,,,,,,,,,,,,,,,,,,,1332.6836335002445,None,,,,,,,,,,,,,,,,,,,,,,,,,,,,,,,,,,,,,,,,,,,,,,,,,,,,,,,,,trouble,112,98,aloud,old,yellow,1329.3688399000093,None,n,1329.3688399000093,None,"['n', 'return']","[3.043195500038564, 3.2671575001440942]",1329.3688399000093,None,,,32,001,2023_Apr_03_0954,ExactRep-v3-final,2021.2.3,59.99473249222061,
,,,,,,,,,,,,98,0,98,0,,,,,,,,,,,,,,,,,,,,,,,,,,,,,,,,,,,,,,,,,,,,,,,,,1337.1382389999926,None,,,,,,,,,,,,,,,,,,,,,,,,,,,,,,,,,,,,,,,,,,,,,,,,,,,,,,,,,party,45,99,silent,old,yellow,1333.1878809998743,None,n,1333.1878809998743,None,"['n', 'return']","[3.680243100039661, 3.912350900005549]",1333.1878809998743,None,,,32,001,2023_Apr_03_0954,ExactRep-v3-final,2021.2.3,59.99473249222061,
,,,,,,,,,,,,99,0,99,0,,,,,,,,,,,,,,,,,,,,,,,,,,,,,,,,,,,,,,,,,,,,,,,,,1339.2401371002197,None,,,,,,,,,,,,,,,,,,,,,,,,,,,,,,,,,,,,,,,,,,,,,,,,,,,,,,,,,factory,39,100,silent,old,yellow,1337.6480303998105,None,y,1337.6480303998105,None,"['y', 'return']","[1.3882571998983622, 1.5560461999848485]",1337.6480303998105,None,,,32,001,2023_Apr_03_0954,ExactRep-v3-final,2021.2.3,59.99473249222061,
,,,,,,,,,,,,100,0,100,0,,,,,,,,,,,,,,,,,,,,,,,,,,,,,,,,,,,,,,,,,,,,,,,,,1344.0449890000746,None,,,,,,,,,,,,,,,,,,,,,,,,,,,,,,,,,,,,,,,,,,,,,,,,,,,,,,,,,victory,179,101,sing,new,yellow,1339.751348100137,None,n,1339.751348100137,None,"['n', 'return']","[3.964745400007814, 4.252728399820626]",1339.751348100137,None,,,32,001,2023_Apr_03_0954,ExactRep-v3-final,2021.2.3,59.99473249222061,
,,,,,,,,,,,,101,0,101,0,,,,,,,,,,,,,,,,,,,,,,,,,,,,,,,,,,,,,,,,,,,,,,,,,1345.980263700243,None,,,,,,,,,,,,,,,,,,,,,,,,,,,,,,,,,,,,,,,,,,,,,,,,,,,,,,,,,season,94,102,aloud,old,yellow,1344.5559163000435,None,y,1344.5559163000435,None,"['y', 'return']","[1.1361271999776363, 1.3840994001366198]",1344.5559163000435,None,,,32,001,2023_Apr_03_0954,ExactRep-v3-final,2021.2.3,59.99473249222061,
,,,,,,,,,,,,102,0,102,0,,,,,,,,,,,,,,,,,,,,,,,,,,,,,,,,,,,,,,,,,,,,,,,,,1348.6996662998572,None,,,,,,,,,,,,,,,,,,,,,,,,,,,,,,,,,,,,,,,,,,,,,,,,,,,,,,,,,earth,147,103,silent,new,yellow,1346.4888491001911,None,y,1346.4888491001911,None,"['y', 'return']","[1.8433038000948727, 2.163181200157851]",1346.4888491001911,None,,,32,001,2023_Apr_03_0954,ExactRep-v3-final,2021.2.3,59.99473249222061,
,,,,,,,,,,,,103,0,103,0,,,,,,,,,,,,,,,,,,,,,,,,,,,,,,,,,,,,,,,,,,,,,,,,,1351.3859170000069,None,,,,,,,,,,,,,,,,,,,,,,,,,,,,,,,,,,,,,,,,,,,,,,,,,,,,,,,,,string,196,104,aloud,new,yellow,1349.2000632002018,None,y,1349.2000632002018,None,"['y', 'return']","[1.7959688999690115, 2.1480171997100115]",1349.2000632002018,None,,,32,001,2023_Apr_03_0954,ExactRep-v3-final,2021.2.3,59.99473249222061,
,,,,,,,,,,,,104,0,104,0,,,,,,,,,,,,,,,,,,,,,,,,,,,,,,,,,,,,,,,,,,,,,,,,,1353.237509700004,None,,,,,,,,,,,,,,,,,,,,,,,,,,,,,,,,,,,,,,,,,,,,,,,,,,,,,,,,,metal,15,105,sing,old,yellow,1351.895831400063,None,y,1351.895831400063,None,"['y', 'return']","[0.9401954999193549, 1.3082665000110865]",1351.895831400063,None,,,32,001,2023_Apr_03_0954,ExactRep-v3-final,2021.2.3,59.99473249222061,
,,,,,,,,,,,,105,0,105,0,,,,,,,,,,,,,,,,,,,,,,,,,,,,,,,,,,,,,,,,,,,,,,,,,1355.4396700002253,None,,,,,,,,,,,,,,,,,,,,,,,,,,,,,,,,,,,,,,,,,,,,,,,,,,,,,,,,,duty,109,106,aloud,old,yellow,1353.74415579997,None,y,1353.74415579997,None,"['y', 'return']","[1.3638279000297189, 1.651827699970454]",1353.74415579997,None,,,32,001,2023_Apr_03_0954,ExactRep-v3-final,2021.2.3,59.99473249222061,
,,,,,,,,,,,,106,0,106,0,,,,,,,,,,,,,,,,,,,,,,,,,,,,,,,,,,,,,,,,,,,,,,,,,1361.8628091001883,None,,,,,,,,,,,,,,,,,,,,,,,,,,,,,,,,,,,,,,,,,,,,,,,,,,,,,,,,,opinion,173,107,sing,new,yellow,1355.9404628002085,None,n,1355.9404628002085,None,"['n', 'return']","[5.551508699543774, 5.88758649956435]",1355.9404628002085,None,,,32,001,2023_Apr_03_0954,ExactRep-v3-final,2021.2.3,59.99473249222061,
,,,,,,,,,,,,107,0,107,0,,,,,,,,,,,,,,,,,,,,,,,,,,,,,,,,,,,,,,,,,,,,,,,,,1364.0148887000978,None,,,,,,,,,,,,,,,,,,,,,,,,,,,,,,,,,,,,,,,,,,,,,,,,,,,,,,,,,queen,186,108,aloud,new,yellow,1362.3731406000443,None,n,1362.3731406000443,None,"['n', 'return']","[1.294876900035888, 1.6068138000555336]",1362.3731406000443,None,,,32,001,2023_Apr_03_0954,ExactRep-v3-final,2021.2.3,59.99473249222061,
,,,,,,,,,,,,108,0,108,0,,,,,,,,,,,,,,,,,,,,,,,,,,,,,,,,,,,,,,,,,,,,,,,,,1371.672783699818,None,,,,,,,,,,,,,,,,,,,,,,,,,,,,,,,,,,,,,,,,,,,,,,,,,,,,,,,,,freedom,217,109,sing,new,yellow,1364.5257643000223,None,y,1364.5257643000223,None,"['y', 'return']","[6.782588099595159, 7.110549899749458]",1364.5257643000223,None,,,32,001,2023_Apr_03_0954,ExactRep-v3-final,2021.2.3,59.99473249222061,
,,,,,,,,,,,,109,0,109,0,,,,,,,,,,,,,,,,,,,,,,,,,,,,,,,,,,,,,,,,,,,,,,,,,1377.4951154999435,None,,,,,,,,,,,,,,,,,,,,,,,,,,,,,,,,,,,,,,,,,,,,,,,,,,,,,,,,,deed,202,110,aloud,new,yellow,1372.173204000108,None,n,1372.173204000108,None,"['n', 'return']","[5.014766399748623, 5.278853399679065]",1372.173204000108,None,,,32,001,2023_Apr_03_0954,ExactRep-v3-final,2021.2.3,59.99473249222061,
,,,,,,,,,,,,110,0,110,0,,,,,,,,,,,,,,,,,,,,,,,,,,,,,,,,,,,,,,,,,,,,,,,,,1380.8484610999003,None,,,,,,,,,,,,,,,,,,,,,,,,,,,,,,,,,,,,,,,,,,,,,,,,,,,,,,,,,dust,83,111,aloud,old,yellow,1378.0021478999406,None,n,1378.0021478999406,None,"['n', 'return']","[2.505889699794352, 2.8099670000374317]",1378.0021478999406,None,,,32,001,2023_Apr_03_0954,ExactRep-v3-final,2021.2.3,59.99473249222061,
,,,,,,,,,,,,111,0,111,0,,,,,,,,,,,,,,,,,,,,,,,,,,,,,,,,,,,,,,,,,,,,,,,,,1386.3039378002286,None,,,,,,,,,,,,,,,,,,,,,,,,,,,,,,,,,,,,,,,,,,,,,,,,,,,,,,,,,air,68,112,silent,old,yellow,1381.3636420001276,None,n,1381.3636420001276,None,"['n', 'return']","[4.480582599993795, 4.8963951002806425]",1381.3636420001276,None,,,32,001,2023_Apr_03_0954,ExactRep-v3-final,2021.2.3,59.99473249222061,
,,,,,,,,,,,,112,0,112,0,,,,,,,,,,,,,,,,,,,,,,,,,,,,,,,,,,,,,,,,,,,,,,,,,1393.444369699806,None,,,,,,,,,,,,,,,,,,,,,,,,,,,,,,,,,,,,,,,,,,,,,,,,,,,,,,,,,money,206,113,aloud,new,yellow,1386.8055857000872,None,n,1386.8055857000872,None,"['n', 'return']","[6.278467199765146, 6.606431299820542]",1386.8055857000872,None,,,32,001,2023_Apr_03_0954,ExactRep-v3-final,2021.2.3,59.99473249222061,
,,,,,,,,,,,,113,0,113,0,,,,,,,,,,,,,,,,,,,,,,,,,,,,,,,,,,,,,,,,,,,,,,,,,1399.333613499999,None,,,,,,,,,,,,,,,,,,,,,,,,,,,,,,,,,,,,,,,,,,,,,,,,,,,,,,,,,product,171,114,sing,new,yellow,1393.9450003998354,None,n,1393.9450003998354,None,"['n', 'return']","[5.027050199918449, 5.355146599933505]",1393.9450003998354,None,,,32,001,2023_Apr_03_0954,ExactRep-v3-final,2021.2.3,59.99473249222061,
,,,,,,,,,,,,114,0,114,0,,,,,,,,,,,,,,,,,,,,,,,,,,,,,,,,,,,,,,,,,,,,,,,,,1403.8381237001158,None,,,,,,,,,,,,,,,,,,,,,,,,,,,,,,,,,,,,,,,,,,,,,,,,,,,,,,,,,bowl,191,115,sing,new,yellow,1399.8451521000825,None,n,1399.8451521000825,None,"['n', 'return']","[3.6550977998413146, 3.9590287995524704]",1399.8451521000825,None,,,32,001,2023_Apr_03_0954,ExactRep-v3-final,2021.2.3,59.99473249222061,
,,,,,,,,,,,,115,0,115,0,,,,,,,,,,,,,,,,,,,,,,,,,,,,,,,,,,,,,,,,,,,,,,,,,1406.5406959000975,None,,,,,,,,,,,,,,,,,,,,,,,,,,,,,,,,,,,,,,,,,,,,,,,,,,,,,,,,,volume,96,116,aloud,old,yellow,1404.3464703001082,None,y,1404.3464703001082,None,"['y', 'return']","[1.609619399998337, 2.153555099852383]",1404.3464703001082,None,,,32,001,2023_Apr_03_0954,ExactRep-v3-final,2021.2.3,59.99473249222061,
,,,,,,,,,,,,116,0,116,0,,,,,,,,,,,,,,,,,,,,,,,,,,,,,,,,,,,,,,,,,,,,,,,,,1409.3102506999858,None,,,,,,,,,,,,,,,,,,,,,,,,,,,,,,,,,,,,,,,,,,,,,,,,,,,,,,,,,meadow,220,117,aloud,new,yellow,1407.0574497999623,None,n,1407.0574497999623,None,"['n', 'return']","[1.9228984001092613, 2.2187462002038956]",1407.0574497999623,None,,,32,001,2023_Apr_03_0954,ExactRep-v3-final,2021.2.3,59.99473249222061,
,,,,,,,,,,,,117,0,117,0,,,,,,,,,,,,,,,,,,,,,,,,,,,,,,,,,,,,,,,,,,,,,,,,,1412.3633043998852,None,,,,,,,,,,,,,,,,,,,,,,,,,,,,,,,,,,,,,,,,,,,,,,,,,,,,,,,,,butter,225,118,sing,new,yellow,1409.8186829998158,None,y,1409.8186829998158,None,"['y', 'return']","[2.241461900062859, 2.5054859002120793]",1409.8186829998158,None,,,32,001,2023_Apr_03_0954,ExactRep-v3-final,2021.2.3,59.99473249222061,
,,,,,,,,,,,,118,0,118,0,,,,,,,,,,,,,,,,,,,,,,,,,,,,,,,,,,,,,,,,,,,,,,,,,1417.701937200036,None,,,,,,,,,,,,,,,,,,,,,,,,,,,,,,,,,,,,,,,,,,,,,,,,,,,,,,,,,poet,40,119,silent,old,yellow,1412.8713128999807,None,n,1412.8713128999807,None,"['n', 'return']","[4.412935699801892, 4.78913509985432]",1412.8713128999807,None,,,32,001,2023_Apr_03_0954,ExactRep-v3-final,2021.2.3,59.99473249222061,
,,,,,,,,,,,,119,0,119,0,,,,,,,,,,,,,,,,,,,,,,,,,,,,,,,,,,,,,,,,,,,,,,,,,1423.1240757000633,None,,,,,,,,,,,,,,,,,,,,,,,,,,,,,,,,,,,,,,,,,,,,,,,,,,,,,,,,,coast,73,120,silent,old,yellow,1418.2089472999796,None,n,1418.2089472999796,None,"['n', 'return']","[4.6352752996608615, 4.883339100051671]",1418.2089472999796,None,,,32,001,2023_Apr_03_0954,ExactRep-v3-final,2021.2.3,59.99473249222061,
,,,,,,,,,,,,120,0,120,0,,,,,,,,,,,,,,,,,,,,,,,,,,,,,,,,,,,,,,,,,,,,,,,,,1425.3095847000368,None,,,,,,,,,,,,,,,,,,,,,,,,,,,,,,,,,,,,,,,,,,,,,,,,,,,,,,,,,coffee,163,121,sing,new,yellow,1423.6311432998627,None,y,1423.6311432998627,None,"['y', 'return']","[1.4132984997704625, 1.6370315998792648]",1423.6311432998627,None,,,32,001,2023_Apr_03_0954,ExactRep-v3-final,2021.2.3,59.99473249222061,
,,,,,,,,,,,,121,0,121,0,,,,,,,,,,,,,,,,,,,,,,,,,,,,,,,,,,,,,,,,,,,,,,,,,1430.7664115000516,None,,,,,,,,,,,,,,,,,,,,,,,,,,,,,,,,,,,,,,,,,,,,,,,,,,,,,,,,,dollar,38,122,sing,old,yellow,1425.8304340001196,None,y,1425.8304340001196,None,"['y', 'return']","[4.621811599936336, 4.893815499730408]",1425.8304340001196,None,,,32,001,2023_Apr_03_0954,ExactRep-v3-final,2021.2.3,59.99473249222061,
,,,,,,,,,,,,122,0,122,0,,,,,,,,,,,,,,,,,,,,,,,,,,,,,,,,,,,,,,,,,,,,,,,,,1433.4011019999161,None,,,,,,,,,,,,,,,,,,,,,,,,,,,,,,,,,,,,,,,,,,,,,,,,,,,,,,,,,humour,74,123,silent,old,yellow,1431.2762397998013,None,y,1431.2762397998013,None,"['y', 'return']","[1.8561774003319442, 2.0877802004106343]",1431.2762397998013,None,,,32,001,2023_Apr_03_0954,ExactRep-v3-final,2021.2.3,59.99473249222061,
,,,,,,,,,,,,123,0,123,0,,,,,,,,,,,,,,,,,,,,,,,,,,,,,,,,,,,,,,,,,,,,,,,,,1435.3195940000005,None,,,,,,,,,,,,,,,,,,,,,,,,,,,,,,,,,,,,,,,,,,,,,,,,,,,,,,,,,flag,25,124,sing,old,yellow,1433.917024299968,None,y,1433.917024299968,None,"['y', 'return']","[1.0871403999626637, 1.3590887002646923]",1433.917024299968,None,,,32,001,2023_Apr_03_0954,ExactRep-v3-final,2021.2.3,59.99473249222061,
,,,,,,,,,,,,124,0,124,0,,,,,,,,,,,,,,,,,,,,,,,,,,,,,,,,,,,,,,,,,,,,,,,,,1437.1881463997997,None,,,,,,,,,,,,,,,,,,,,,,,,,,,,,,,,,,,,,,,,,,,,,,,,,,,,,,,,,soil,100,125,aloud,old,yellow,1435.8269732999615,None,y,1435.8269732999615,None,"['y', 'return']","[1.0252193002961576, 1.329211300238967]",1435.8269732999615,None,,,32,001,2023_Apr_03_0954,ExactRep-v3-final,2021.2.3,59.99473249222061,
,,,,,,,,,,,,125,0,125,0,,,,,,,,,,,,,,,,,,,,,,,,,,,,,,,,,,,,,,,,,,,,,,,,,1440.8586275000125,None,,,,,,,,,,,,,,,,,,,,,,,,,,,,,,,,,,,,,,,,,,,,,,,,,,,,,,,,,chair,148,126,silent,new,yellow,1437.6983023001812,None,y,1437.6983023001812,None,"['y', 'return']","[2.858080300036818, 3.121992100030184]",1437.6983023001812,None,,,32,001,2023_Apr_03_0954,ExactRep-v3-final,2021.2.3,59.99473249222061,
,,,,,,,,,,,,126,0,126,0,,,,,,,,,,,,,,,,,,,,,,,,,,,,,,,,,,,,,,,,,,,,,,,,,1445.279736999888,None,,,,,,,,,,,,,,,,,,,,,,,,,,,,,,,,,,,,,,,,,,,,,,,,,,,,,,,,,science,80,127,aloud,old,yellow,1441.3683587000705,None,y,1441.3683587000705,None,"['y', 'return']","[3.611752700060606, 3.867723800241947]",1441.3683587000705,None,,,32,001,2023_Apr_03_0954,ExactRep-v3-final,2021.2.3,59.99473249222061,
,,,,,,,,,,,,127,0,127,0,,,,,,,,,,,,,,,,,,,,,,,,,,,,,,,,,,,,,,,,,,,,,,,,,1450.5683685000986,None,,,,,,,,,,,,,,,,,,,,,,,,,,,,,,,,,,,,,,,,,,,,,,,,,,,,,,,,,square,145,128,silent,new,yellow,1445.7895579999313,None,y,1445.7895579999313,None,"['y', 'return']","[4.366836200002581, 4.734611900057644]",1445.7895579999313,None,,,32,001,2023_Apr_03_0954,ExactRep-v3-final,2021.2.3,59.99473249222061,
,,,,,,,,,,,,128,0,128,0,,,,,,,,,,,,,,,,,,,,,,,,,,,,,,,,,,,,,,,,,,,,,,,,,1455.7067450000905,None,,,,,,,,,,,,,,,,,,,,,,,,,,,,,,,,,,,,,,,,,,,,,,,,,,,,,,,,,paper,19,129,sing,old,yellow,1451.0808999999426,None,y,1451.0808999999426,None,"['y', 'return']","[4.251309100072831, 4.579259200021625]",1451.0808999999426,None,,,32,001,2023_Apr_03_0954,ExactRep-v3-final,2021.2.3,59.99473249222061,
,,,,,,,,,,,,129,0,129,0,,,,,,,,,,,,,,,,,,,,,,,,,,,,,,,,,,,,,,,,,,,,,,,,,1461.078781499993,None,,,,,,,,,,,,,,,,,,,,,,,,,,,,,,,,,,,,,,,,,,,,,,,,,,,,,,,,,theory,43,130,silent,old,yellow,1456.2150408998132,None,y,1456.2150408998132,None,"['y', 'return']","[4.541181100066751, 4.821228999644518]",1456.2150408998132,None,,,32,001,2023_Apr_03_0954,ExactRep-v3-final,2021.2.3,59.99473249222061,
,,,,,,,,,,,,130,0,130,0,,,,,,,,,,,,,,,,,,,,,,,,,,,,,,,,,,,,,,,,,,,,,,,,,1462.9472357998602,None,,,,,,,,,,,,,,,,,,,,,,,,,,,,,,,,,,,,,,,,,,,,,,,,,,,,,,,,,anger,1,131,sing,old,yellow,1461.5872220001183,None,y,1461.5872220001183,None,"['y', 'return']","[1.0248916996642947, 1.3130759997293353]",1461.5872220001183,None,,,32,001,2023_Apr_03_0954,ExactRep-v3-final,2021.2.3,59.99473249222061,
,,,,,,,,,,,,131,0,131,0,,,,,,,,,,,,,,,,,,,,,,,,,,,,,,,,,,,,,,,,,,,,,,,,,1464.8159157000482,None,,,,,,,,,,,,,,,,,,,,,,,,,,,,,,,,,,,,,,,,,,,,,,,,,,,,,,,,,tree,86,132,aloud,old,yellow,1463.447886900045,None,y,1463.447886900045,None,"['y', 'return']","[1.0364077999256551, 1.3324114000424743]",1463.447886900045,None,,,32,001,2023_Apr_03_0954,ExactRep-v3-final,2021.2.3,59.99473249222061,
