trials_fam.thisRepN,trials_fam.thisTrialN,trials_fam.thisN,trials_fam.thisIndex,trials_prc.thisRepN,trials_prc.thisTrialN,trials_prc.thisN,trials_prc.thisIndex,StudyLoop.thisRepN,StudyLoop.thisTrialN,StudyLoop.thisN,StudyLoop.thisIndex,TestLoop.thisRepN,TestLoop.thisTrialN,TestLoop.thisN,TestLoop.thisIndex,text_colortest.started,text_colortest.stopped,key_colortest.keys,key_colortest.rt,key_colortest.started,key_colortest.stopped,textCondition.started,textCondition.stopped,keyCondition.keys,keyCondition.rt,keyCondition.started,keyCondition.stopped,Condition_between,Condition_counterbal,keyWelcome.keys,keyWelcome.rt,keyWelcome.started,keyWelcome.stopped,welcome_a.started,welcome_a.stopped,welcome_b.started,welcome_b.stopped,welcome_c.started,welcome_c.stopped,welcome_d.started,welcome_d.stopped,welcome_e.started,welcome_e.stopped,welcome_f.started,welcome_f.stopped,key_resp_fam_inst.keys,key_resp_fam_inst.rt,key_resp_fam_inst.started,key_resp_fam_inst.stopped,fam_a.started,fam_a.stopped,fam_b.started,fam_b.stopped,fam_c.started,fam_c.stopped,fam_d.started,fam_d.stopped,fam_e.started,fam_e.stopped,fam_f.started,fam_f.stopped,text_famil.started,text_famil.stopped,textBlank500.started,textBlank500.stopped,key_resp_prc_inst.keys,key_resp_prc_inst.rt,key_resp_prc_inst.started,key_resp_prc_inst.stopped,prac_a.started,prac_a.stopped,prac_b.started,prac_b.stopped,prac_c.started,prac_c.stopped,prac_d.started,prac_d.stopped,prac_e.started,prac_e.stopped,prac_f.started,prac_f.stopped,text_prc_trial.started,text_prc_trial.stopped,key_resp_study_inst.keys,key_resp_study_inst.rt,key_resp_study_inst.started,key_resp_study_inst.stopped,crit_a.started,crit_a.stopped,crit_b.started,crit_b.stopped,crit_c.started,crit_c.stopped,crit_d.started,crit_d.stopped,crit_e.started,crit_e.stopped,crit_f.started,crit_f.stopped,study_word,study_num,study_order,study_type,word_color,textStudy.started,textStudy.stopped,keyStudy.keys,keyStudy.started,keyStudy.stopped,post_study.started,post_study.stopped,key_resp_post_study.keys,key_resp_post_study.rt,key_resp_post_study.started,key_resp_post_study.stopped,test_inst.started,test_inst.stopped,key_resp_test_inst.keys,key_resp_test_inst.rt,key_resp_test_inst.started,key_resp_test_inst.stopped,test_word,test_num,test_order,test_condition,old_new_test,word_color_test,textConf.started,textConf.stopped,Participant Response,textInput.started,textInput.stopped,keyResp.keys,keyResp.rt,keyResp.started,keyResp.stopped,textEnd.started,textEnd.stopped,participant,session,date,expName,psychopyVersion,frameRate,
,,,,,,,,,,,,,,,,25.392696300521493,None,n,1.2376252999529243,25.392696300521493,None,,,,,,,,,,,,,,,,,,,,,,,,,,,,,,,,,,,,,,,,,,,,,,,,,,,,,,,,,,,,,,,,,,,,,,,,,,,,,,,,,,,,,,,,,,,,,,,,,,,,,,,,,,,,,,,,,,,,,,33,001,2023_Apr_05_1019,ExactRep-v3-final,2021.2.3,59.9333901788076,
,,,,,,,,,,,,,,,,,,,,,,26.652528500184417,None,c,0.4897785000503063,26.652528500184417,None,,,,,,,,,,,,,,,,,,,,,,,,,,,,,,,,,,,,,,,,,,,,,,,,,,,,,,,,,,,,,,,,,,,,,,,,,,,,,,,,,,,,,,,,,,,,,,,,,,,,,,,,,,,,,,,,33,001,2023_Apr_05_1019,ExactRep-v3-final,2021.2.3,59.9333901788076,
,,,,,,,,,,,,,,,,,,,,,,,,,,,,whitefoils,c,space,473.1408369997516,37.273984300903976,None,,,,,,,,,,,,,,,,,,,,,,,,,,,,,,,,,,,,,,,,,,,,,,,,,,,,,,,,,,,,,,,,,,,,,,,,,,,,,,,,,,,,,,,,,,,,,,,,,,,,,,,,,,33,001,2023_Apr_05_1019,ExactRep-v3-final,2021.2.3,59.9333901788076,
,,,,,,,,,,,,,,,,,,,,,,,,,,,,,,,,,,27.345787400379777,None,27.345787400379777,None,27.345787400379777,None,27.345787400379777,None,27.345787400379777,None,27.345787400379777,None,space,17.131027500145137,520.5881146006286,None,,,,,,,,,,,,,,,,,,,,,,,,,,,,,,,,,,,,,,,,,,,,,,,,,,,,,,,,,,,,,,,,,,,,,,,,,,,,,,,,,,,,,,,,,,33,001,2023_Apr_05_1019,ExactRep-v3-final,2021.2.3,59.9333901788076,
0,0,0,0,,,,,,,,,,,,,,,,,,,,,,,,,,,,,,,,,,,,,,,,,,,,,,,510.59024470020086,None,510.59024470020086,None,510.59024470020086,None,510.59024470020086,None,510.59024470020086,None,510.59024470020086,None,537.8148014005274,None,539.8154112007469,None,,,,,,,,,,,,,,,,,,,,,,,,,,,,,,,,,,,,,,,,,,,,,,,,,,,,,,,,,,,,,,,,,,,,,,,,,,33,001,2023_Apr_05_1019,ExactRep-v3-final,2021.2.3,59.9333901788076,
1,0,1,0,,,,,,,,,,,,,,,,,,,,,,,,,,,,,,,,,,,,,,,,,,,,,,,,,,,,,,,,,,,540.3162510003895,None,542.3182680001482,None,,,,,,,,,,,,,,,,,,,,,,,,,,,,,,,,,,,,,,,,,,,,,,,,,,,,,,,,,,,,,,,,,,,,,,,,,,33,001,2023_Apr_05_1019,ExactRep-v3-final,2021.2.3,59.9333901788076,
2,0,2,0,,,,,,,,,,,,,,,,,,,,,,,,,,,,,,,,,,,,,,,,,,,,,,,,,,,,,,,,,,,542.8378565004095,None,544.8374465005472,None,,,,,,,,,,,,,,,,,,,,,,,,,,,,,,,,,,,,,,,,,,,,,,,,,,,,,,,,,,,,,,,,,,,,,,,,,,33,001,2023_Apr_05_1019,ExactRep-v3-final,2021.2.3,59.9333901788076,
3,0,3,0,,,,,,,,,,,,,,,,,,,,,,,,,,,,,,,,,,,,,,,,,,,,,,,,,,,,,,,,,,,545.3570922007784,None,547.3564606001601,None,,,,,,,,,,,,,,,,,,,,,,,,,,,,,,,,,,,,,,,,,,,,,,,,,,,,,,,,,,,,,,,,,,,,,,,,,,33,001,2023_Apr_05_1019,ExactRep-v3-final,2021.2.3,59.9333901788076,
4,0,4,0,,,,,,,,,,,,,,,,,,,,,,,,,,,,,,,,,,,,,,,,,,,,,,,,,,,,,,,,,,,547.8698981003836,None,549.8757121004164,None,,,,,,,,,,,,,,,,,,,,,,,,,,,,,,,,,,,,,,,,,,,,,,,,,,,,,,,,,,,,,,,,,,,,,,,,,,33,001,2023_Apr_05_1019,ExactRep-v3-final,2021.2.3,59.9333901788076,
5,0,5,0,,,,,,,,,,,,,,,,,,,,,,,,,,,,,,,,,,,,,,,,,,,,,,,,,,,,,,,,,,,550.3760422002524,None,552.3780105002224,None,,,,,,,,,,,,,,,,,,,,,,,,,,,,,,,,,,,,,,,,,,,,,,,,,,,,,,,,,,,,,,,,,,,,,,,,,,33,001,2023_Apr_05_1019,ExactRep-v3-final,2021.2.3,59.9333901788076,
6,0,6,0,,,,,,,,,,,,,,,,,,,,,,,,,,,,,,,,,,,,,,,,,,,,,,,,,,,,,,,,,,,552.882016800344,None,554.8973507005721,None,,,,,,,,,,,,,,,,,,,,,,,,,,,,,,,,,,,,,,,,,,,,,,,,,,,,,,,,,,,,,,,,,,,,,,,,,,33,001,2023_Apr_05_1019,ExactRep-v3-final,2021.2.3,59.9333901788076,
7,0,7,0,,,,,,,,,,,,,,,,,,,,,,,,,,,,,,,,,,,,,,,,,,,,,,,,,,,,,,,,,,,555.3979066004977,None,557.3999146008864,None,,,,,,,,,,,,,,,,,,,,,,,,,,,,,,,,,,,,,,,,,,,,,,,,,,,,,,,,,,,,,,,,,,,,,,,,,,33,001,2023_Apr_05_1019,ExactRep-v3-final,2021.2.3,59.9333901788076,
8,0,8,0,,,,,,,,,,,,,,,,,,,,,,,,,,,,,,,,,,,,,,,,,,,,,,,,,,,,,,,,,,,557.9004281004891,None,559.9025335004553,None,,,,,,,,,,,,,,,,,,,,,,,,,,,,,,,,,,,,,,,,,,,,,,,,,,,,,,,,,,,,,,,,,,,,,,,,,,33,001,2023_Apr_05_1019,ExactRep-v3-final,2021.2.3,59.9333901788076,
9,0,9,0,,,,,,,,,,,,,,,,,,,,,,,,,,,,,,,,,,,,,,,,,,,,,,,,,,,,,,,,,,,560.4031935008243,None,562.404718500562,None,,,,,,,,,,,,,,,,,,,,,,,,,,,,,,,,,,,,,,,,,,,,,,,,,,,,,,,,,,,,,,,,,,,,,,,,,,33,001,2023_Apr_05_1019,ExactRep-v3-final,2021.2.3,59.9333901788076,
10,0,10,0,,,,,,,,,,,,,,,,,,,,,,,,,,,,,,,,,,,,,,,,,,,,,,,,,,,,,,,,,,,562.9054607003927,None,564.9074321007356,None,,,,,,,,,,,,,,,,,,,,,,,,,,,,,,,,,,,,,,,,,,,,,,,,,,,,,,,,,,,,,,,,,,,,,,,,,,33,001,2023_Apr_05_1019,ExactRep-v3-final,2021.2.3,59.9333901788076,
11,0,11,0,,,,,,,,,,,,,,,,,,,,,,,,,,,,,,,,,,,,,,,,,,,,,,,,,,,,,,,,,,,565.4079904006794,None,567.4099492002279,None,,,,,,,,,,,,,,,,,,,,,,,,,,,,,,,,,,,,,,,,,,,,,,,,,,,,,,,,,,,,,,,,,,,,,,,,,,33,001,2023_Apr_05_1019,ExactRep-v3-final,2021.2.3,59.9333901788076,
12,0,12,0,,,,,,,,,,,,,,,,,,,,,,,,,,,,,,,,,,,,,,,,,,,,,,,,,,,,,,,,,,,567.9148272005841,None,569.9289069008082,None,,,,,,,,,,,,,,,,,,,,,,,,,,,,,,,,,,,,,,,,,,,,,,,,,,,,,,,,,,,,,,,,,,,,,,,,,,33,001,2023_Apr_05_1019,ExactRep-v3-final,2021.2.3,59.9333901788076,
13,0,13,0,,,,,,,,,,,,,,,,,,,,,,,,,,,,,,,,,,,,,,,,,,,,,,,,,,,,,,,,,,,570.4296635007486,None,572.431561300531,None,,,,,,,,,,,,,,,,,,,,,,,,,,,,,,,,,,,,,,,,,,,,,,,,,,,,,,,,,,,,,,,,,,,,,,,,,,33,001,2023_Apr_05_1019,ExactRep-v3-final,2021.2.3,59.9333901788076,
14,0,14,0,,,,,,,,,,,,,,,,,,,,,,,,,,,,,,,,,,,,,,,,,,,,,,,,,,,,,,,,,,,572.9342520004138,None,574.9341081008315,None,,,,,,,,,,,,,,,,,,,,,,,,,,,,,,,,,,,,,,,,,,,,,,,,,,,,,,,,,,,,,,,,,,,,,,,,,,33,001,2023_Apr_05_1019,ExactRep-v3-final,2021.2.3,59.9333901788076,
,,,,,,,,,,,,,,,,,,,,,,,,,,,,,,,,,,,,,,,,,,,,,,,,,,,,,,,,,,,,,,,,,,space,17.442441600374877,585.5324161006138,None,,,,,,,,,,,,,,,,,,,,,,,,,,,,,,,,,,,,,,,,,,,,,,,,,,,,,,,,,,,,,,,,,,,,,,33,001,2023_Apr_05_1019,ExactRep-v3-final,2021.2.3,59.9333901788076,
,,,,0,0,0,0,,,,,,,,,,,,,,,,,,,,,,,,,,,,,,,,,,,,,,,,,,,,,,,,,,,,,,,,,605.0808395007625,None,,,,,575.5579352006316,None,575.5579352006316,None,575.5579352006316,None,575.5579352006316,None,575.5579352006316,None,575.5579352006316,None,603.0746154002845,None,,,,,,,,,,,,,,,,,,,,,,,,,,,,,,,,,,,,,,,,,,,,,,,,,,,,,,,,33,001,2023_Apr_05_1019,ExactRep-v3-final,2021.2.3,59.9333901788076,
,,,,1,0,1,0,,,,,,,,,,,,,,,,,,,,,,,,,,,,,,,,,,,,,,,,,,,,,,,,,,,,,,,,,607.5833396008238,None,,,,,,,,,,,,,,,,,605.5813771001995,None,,,,,,,,,,,,,,,,,,,,,,,,,,,,,,,,,,,,,,,,,,,,,,,,,,,,,,,,33,001,2023_Apr_05_1019,ExactRep-v3-final,2021.2.3,59.9333901788076,
,,,,2,0,2,0,,,,,,,,,,,,,,,,,,,,,,,,,,,,,,,,,,,,,,,,,,,,,,,,,,,,,,,,,610.0859704008326,None,,,,,,,,,,,,,,,,,608.0840563001111,None,,,,,,,,,,,,,,,,,,,,,,,,,,,,,,,,,,,,,,,,,,,,,,,,,,,,,,,,33,001,2023_Apr_05_1019,ExactRep-v3-final,2021.2.3,59.9333901788076,
,,,,3,0,3,0,,,,,,,,,,,,,,,,,,,,,,,,,,,,,,,,,,,,,,,,,,,,,,,,,,,,,,,,,612.5883660009131,None,,,,,,,,,,,,,,,,,610.5864407001063,None,,,,,,,,,,,,,,,,,,,,,,,,,,,,,,,,,,,,,,,,,,,,,,,,,,,,,,,,33,001,2023_Apr_05_1019,ExactRep-v3-final,2021.2.3,59.9333901788076,
,,,,4,0,4,0,,,,,,,,,,,,,,,,,,,,,,,,,,,,,,,,,,,,,,,,,,,,,,,,,,,,,,,,,615.0909086000174,None,,,,,,,,,,,,,,,,,613.088898700662,None,,,,,,,,,,,,,,,,,,,,,,,,,,,,,,,,,,,,,,,,,,,,,,,,,,,,,,,,33,001,2023_Apr_05_1019,ExactRep-v3-final,2021.2.3,59.9333901788076,
,,,,5,0,5,0,,,,,,,,,,,,,,,,,,,,,,,,,,,,,,,,,,,,,,,,,,,,,,,,,,,,,,,,,617.5933606000617,None,,,,,,,,,,,,,,,,,615.5913845002651,None,,,,,,,,,,,,,,,,,,,,,,,,,,,,,,,,,,,,,,,,,,,,,,,,,,,,,,,,33,001,2023_Apr_05_1019,ExactRep-v3-final,2021.2.3,59.9333901788076,
,,,,6,0,6,0,,,,,,,,,,,,,,,,,,,,,,,,,,,,,,,,,,,,,,,,,,,,,,,,,,,,,,,,,620.0956254005432,None,,,,,,,,,,,,,,,,,618.0939143002033,None,,,,,,,,,,,,,,,,,,,,,,,,,,,,,,,,,,,,,,,,,,,,,,,,,,,,,,,,33,001,2023_Apr_05_1019,ExactRep-v3-final,2021.2.3,59.9333901788076,
,,,,7,0,7,0,,,,,,,,,,,,,,,,,,,,,,,,,,,,,,,,,,,,,,,,,,,,,,,,,,,,,,,,,622.5984699008986,None,,,,,,,,,,,,,,,,,620.5964508000761,None,,,,,,,,,,,,,,,,,,,,,,,,,,,,,,,,,,,,,,,,,,,,,,,,,,,,,,,,33,001,2023_Apr_05_1019,ExactRep-v3-final,2021.2.3,59.9333901788076,
,,,,8,0,8,0,,,,,,,,,,,,,,,,,,,,,,,,,,,,,,,,,,,,,,,,,,,,,,,,,,,,,,,,,625.1009437004104,None,,,,,,,,,,,,,,,,,623.0989573001862,None,,,,,,,,,,,,,,,,,,,,,,,,,,,,,,,,,,,,,,,,,,,,,,,,,,,,,,,,33,001,2023_Apr_05_1019,ExactRep-v3-final,2021.2.3,59.9333901788076,
,,,,9,0,9,0,,,,,,,,,,,,,,,,,,,,,,,,,,,,,,,,,,,,,,,,,,,,,,,,,,,,,,,,,627.6034559002146,None,,,,,,,,,,,,,,,,,625.6015551006421,None,,,,,,,,,,,,,,,,,,,,,,,,,,,,,,,,,,,,,,,,,,,,,,,,,,,,,,,,33,001,2023_Apr_05_1019,ExactRep-v3-final,2021.2.3,59.9333901788076,
,,,,10,0,10,0,,,,,,,,,,,,,,,,,,,,,,,,,,,,,,,,,,,,,,,,,,,,,,,,,,,,,,,,,630.1061014002189,None,,,,,,,,,,,,,,,,,628.1037964001298,None,,,,,,,,,,,,,,,,,,,,,,,,,,,,,,,,,,,,,,,,,,,,,,,,,,,,,,,,33,001,2023_Apr_05_1019,ExactRep-v3-final,2021.2.3,59.9333901788076,
,,,,11,0,11,0,,,,,,,,,,,,,,,,,,,,,,,,,,,,,,,,,,,,,,,,,,,,,,,,,,,,,,,,,632.6084331003949,None,,,,,,,,,,,,,,,,,630.6064563002437,None,,,,,,,,,,,,,,,,,,,,,,,,,,,,,,,,,,,,,,,,,,,,,,,,,,,,,,,,33,001,2023_Apr_05_1019,ExactRep-v3-final,2021.2.3,59.9333901788076,
,,,,12,0,12,0,,,,,,,,,,,,,,,,,,,,,,,,,,,,,,,,,,,,,,,,,,,,,,,,,,,,,,,,,635.1110283005983,None,,,,,,,,,,,,,,,,,633.109092800878,None,,,,,,,,,,,,,,,,,,,,,,,,,,,,,,,,,,,,,,,,,,,,,,,,,,,,,,,,33,001,2023_Apr_05_1019,ExactRep-v3-final,2021.2.3,59.9333901788076,
,,,,13,0,13,0,,,,,,,,,,,,,,,,,,,,,,,,,,,,,,,,,,,,,,,,,,,,,,,,,,,,,,,,,637.6136259008199,None,,,,,,,,,,,,,,,,,635.6115080006421,None,,,,,,,,,,,,,,,,,,,,,,,,,,,,,,,,,,,,,,,,,,,,,,,,,,,,,,,,33,001,2023_Apr_05_1019,ExactRep-v3-final,2021.2.3,59.9333901788076,
,,,,14,0,14,0,,,,,,,,,,,,,,,,,,,,,,,,,,,,,,,,,,,,,,,,,,,,,,,,,,,,,,,,,640.1159011004493,None,,,,,,,,,,,,,,,,,638.1139309005812,None,,,,,,,,,,,,,,,,,,,,,,,,,,,,,,,,,,,,,,,,,,,,,,,,,,,,,,,,33,001,2023_Apr_05_1019,ExactRep-v3-final,2021.2.3,59.9333901788076,
,,,,,,,,,,,,,,,,,,,,,,,,,,,,,,,,,,,,,,,,,,,,,,,,,,,,,,,,,,,,,,,,,,,,,,,,,,,,,,,,,,,,space,24.144067499786615,650.710671200417,None,,,,,,,,,,,,,,,,,,,,,,,,,,,,,,,,,,,,,,,,,,,,,,,,,,,,33,001,2023_Apr_05_1019,ExactRep-v3-final,2021.2.3,59.9333901788076,
,,,,,,,,0,0,0,0,,,,,,,,,,,,,,,,,,,,,,,,,,,,,,,,,,,,,,,,,,,,,,,,,,,,,676.9693250004202,None,,,,,,,,,,,,,,,,,,,,,,,640.7600837005302,None,640.7600837005302,None,640.7600837005302,None,640.7600837005302,None,640.7600837005302,None,640.7600837005302,None,factory,75,1,silent,red,674.9691903004423,None,None,674.9691903004423,None,,,,,,,,,,,,,,,,,,,,,,,,,,,,,,33,001,2023_Apr_05_1019,ExactRep-v3-final,2021.2.3,59.9333901788076,
,,,,,,,,1,0,1,0,,,,,,,,,,,,,,,,,,,,,,,,,,,,,,,,,,,,,,,,,,,,,,,,,,,,,679.488515900448,None,,,,,,,,,,,,,,,,,,,,,,,,,,,,,,,,,,,amount,51,2,silent,red,677.4751224005595,None,None,677.4751224005595,None,,,,,,,,,,,,,,,,,,,,,,,,,,,,,,33,001,2023_Apr_05_1019,ExactRep-v3-final,2021.2.3,59.9333901788076,
,,,,,,,,2,0,2,0,,,,,,,,,,,,,,,,,,,,,,,,,,,,,,,,,,,,,,,,,,,,,,,,,,,,,681.9909777007997,None,,,,,,,,,,,,,,,,,,,,,,,,,,,,,,,,,,,fault,32,3,sing,white,679.9898469001055,None,None,679.9898469001055,None,,,,,,,,,,,,,,,,,,,,,,,,,,,,,,33,001,2023_Apr_05_1019,ExactRep-v3-final,2021.2.3,59.9333901788076,
,,,,,,,,3,0,3,0,,,,,,,,,,,,,,,,,,,,,,,,,,,,,,,,,,,,,,,,,,,,,,,,,,,,,684.5102042006329,None,,,,,,,,,,,,,,,,,,,,,,,,,,,,,,,,,,,science,42,4,silent,red,682.5037450008094,None,None,682.5037450008094,None,,,,,,,,,,,,,,,,,,,,,,,,,,,,,,33,001,2023_Apr_05_1019,ExactRep-v3-final,2021.2.3,59.9333901788076,
,,,,,,,,4,0,4,0,,,,,,,,,,,,,,,,,,,,,,,,,,,,,,,,,,,,,,,,,,,,,,,,,,,,,687.0295048002154,None,,,,,,,,,,,,,,,,,,,,,,,,,,,,,,,,,,,insect,67,5,silent,red,685.0145873008296,None,None,685.0145873008296,None,,,,,,,,,,,,,,,,,,,,,,,,,,,,,,33,001,2023_Apr_05_1019,ExactRep-v3-final,2021.2.3,59.9333901788076,
,,,,,,,,5,0,5,0,,,,,,,,,,,,,,,,,,,,,,,,,,,,,,,,,,,,,,,,,,,,,,,,,,,,,689.5484634004533,None,,,,,,,,,,,,,,,,,,,,,,,,,,,,,,,,,,,wine,99,6,aloud,blue,687.5344938002527,None,None,687.5344938002527,None,,,,,,,,,,,,,,,,,,,,,,,,,,,,,,33,001,2023_Apr_05_1019,ExactRep-v3-final,2021.2.3,59.9333901788076,
,,,,,,,,6,0,6,0,,,,,,,,,,,,,,,,,,,,,,,,,,,,,,,,,,,,,,,,,,,,,,,,,,,,,692.0511894002557,None,,,,,,,,,,,,,,,,,,,,,,,,,,,,,,,,,,,money,25,7,sing,white,690.050201500766,None,None,690.050201500766,None,,,,,,,,,,,,,,,,,,,,,,,,,,,,,,33,001,2023_Apr_05_1019,ExactRep-v3-final,2021.2.3,59.9333901788076,
,,,,,,,,7,0,7,0,,,,,,,,,,,,,,,,,,,,,,,,,,,,,,,,,,,,,,,,,,,,,,,,,,,,,694.5704070003703,None,,,,,,,,,,,,,,,,,,,,,,,,,,,,,,,,,,,star,6,8,sing,white,692.5549919009209,None,None,692.5549919009209,None,,,,,,,,,,,,,,,,,,,,,,,,,,,,,,33,001,2023_Apr_05_1019,ExactRep-v3-final,2021.2.3,59.9333901788076,
,,,,,,,,8,0,8,0,,,,,,,,,,,,,,,,,,,,,,,,,,,,,,,,,,,,,,,,,,,,,,,,,,,,,697.0893757008016,None,,,,,,,,,,,,,,,,,,,,,,,,,,,,,,,,,,,shadow,94,9,aloud,blue,695.074478100054,None,None,695.074478100054,None,,,,,,,,,,,,,,,,,,,,,,,,,,,,,,33,001,2023_Apr_05_1019,ExactRep-v3-final,2021.2.3,59.9333901788076,
,,,,,,,,9,0,9,0,,,,,,,,,,,,,,,,,,,,,,,,,,,,,,,,,,,,,,,,,,,,,,,,,,,,,699.5921403001994,None,,,,,,,,,,,,,,,,,,,,,,,,,,,,,,,,,,,flesh,119,10,aloud,blue,697.5900631006807,None,None,697.5900631006807,None,,,,,,,,,,,,,,,,,,,,,,,,,,,,,,33,001,2023_Apr_05_1019,ExactRep-v3-final,2021.2.3,59.9333901788076,
,,,,,,,,10,0,10,0,,,,,,,,,,,,,,,,,,,,,,,,,,,,,,,,,,,,,,,,,,,,,,,,,,,,,702.0945242000744,None,,,,,,,,,,,,,,,,,,,,,,,,,,,,,,,,,,,dress,66,11,silent,red,700.0924450000748,None,None,700.0924450000748,None,,,,,,,,,,,,,,,,,,,,,,,,,,,,,,33,001,2023_Apr_05_1019,ExactRep-v3-final,2021.2.3,59.9333901788076,
,,,,,,,,11,0,11,0,,,,,,,,,,,,,,,,,,,,,,,,,,,,,,,,,,,,,,,,,,,,,,,,,,,,,704.5970804002136,None,,,,,,,,,,,,,,,,,,,,,,,,,,,,,,,,,,,memory,8,12,sing,white,702.5980776008219,None,None,702.5980776008219,None,,,,,,,,,,,,,,,,,,,,,,,,,,,,,,33,001,2023_Apr_05_1019,ExactRep-v3-final,2021.2.3,59.9333901788076,
,,,,,,,,12,0,12,0,,,,,,,,,,,,,,,,,,,,,,,,,,,,,,,,,,,,,,,,,,,,,,,,,,,,,707.0995520008728,None,,,,,,,,,,,,,,,,,,,,,,,,,,,,,,,,,,,law,54,13,silent,red,705.1001642001793,None,None,705.1001642001793,None,,,,,,,,,,,,,,,,,,,,,,,,,,,,,,33,001,2023_Apr_05_1019,ExactRep-v3-final,2021.2.3,59.9333901788076,
,,,,,,,,13,0,13,0,,,,,,,,,,,,,,,,,,,,,,,,,,,,,,,,,,,,,,,,,,,,,,,,,,,,,709.6187671003863,None,,,,,,,,,,,,,,,,,,,,,,,,,,,,,,,,,,,passion,110,14,aloud,blue,707.6055910000578,None,None,707.6055910000578,None,,,,,,,,,,,,,,,,,,,,,,,,,,,,,,33,001,2023_Apr_05_1019,ExactRep-v3-final,2021.2.3,59.9333901788076,
,,,,,,,,14,0,14,0,,,,,,,,,,,,,,,,,,,,,,,,,,,,,,,,,,,,,,,,,,,,,,,,,,,,,712.137773600407,None,,,,,,,,,,,,,,,,,,,,,,,,,,,,,,,,,,,officer,30,15,sing,white,710.1233902005479,None,None,710.1233902005479,None,,,,,,,,,,,,,,,,,,,,,,,,,,,,,,33,001,2023_Apr_05_1019,ExactRep-v3-final,2021.2.3,59.9333901788076,
,,,,,,,,15,0,15,0,,,,,,,,,,,,,,,,,,,,,,,,,,,,,,,,,,,,,,,,,,,,,,,,,,,,,714.6571334004402,None,,,,,,,,,,,,,,,,,,,,,,,,,,,,,,,,,,,judge,91,16,aloud,blue,712.6445976002142,None,None,712.6445976002142,None,,,,,,,,,,,,,,,,,,,,,,,,,,,,,,33,001,2023_Apr_05_1019,ExactRep-v3-final,2021.2.3,59.9333901788076,
,,,,,,,,16,0,16,0,,,,,,,,,,,,,,,,,,,,,,,,,,,,,,,,,,,,,,,,,,,,,,,,,,,,,717.159657000564,None,,,,,,,,,,,,,,,,,,,,,,,,,,,,,,,,,,,history,59,17,silent,red,715.1586920004338,None,None,715.1586920004338,None,,,,,,,,,,,,,,,,,,,,,,,,,,,,,,33,001,2023_Apr_05_1019,ExactRep-v3-final,2021.2.3,59.9333901788076,
,,,,,,,,17,0,17,0,,,,,,,,,,,,,,,,,,,,,,,,,,,,,,,,,,,,,,,,,,,,,,,,,,,,,719.6621632007882,None,,,,,,,,,,,,,,,,,,,,,,,,,,,,,,,,,,,pole,115,18,aloud,blue,717.6620350005105,None,None,717.6620350005105,None,,,,,,,,,,,,,,,,,,,,,,,,,,,,,,33,001,2023_Apr_05_1019,ExactRep-v3-final,2021.2.3,59.9333901788076,
,,,,,,,,18,0,18,0,,,,,,,,,,,,,,,,,,,,,,,,,,,,,,,,,,,,,,,,,,,,,,,,,,,,,722.1814596001059,None,,,,,,,,,,,,,,,,,,,,,,,,,,,,,,,,,,,charm,70,19,silent,red,720.165979700163,None,None,720.165979700163,None,,,,,,,,,,,,,,,,,,,,,,,,,,,,,,33,001,2023_Apr_05_1019,ExactRep-v3-final,2021.2.3,59.9333901788076,
,,,,,,,,19,0,19,0,,,,,,,,,,,,,,,,,,,,,,,,,,,,,,,,,,,,,,,,,,,,,,,,,,,,,724.7004646006972,None,,,,,,,,,,,,,,,,,,,,,,,,,,,,,,,,,,,green,26,20,sing,white,722.6865884000435,None,None,722.6865884000435,None,,,,,,,,,,,,,,,,,,,,,,,,,,,,,,33,001,2023_Apr_05_1019,ExactRep-v3-final,2021.2.3,59.9333901788076,
,,,,,,,,20,0,20,0,,,,,,,,,,,,,,,,,,,,,,,,,,,,,,,,,,,,,,,,,,,,,,,,,,,,,727.2029754007235,None,,,,,,,,,,,,,,,,,,,,,,,,,,,,,,,,,,,college,69,21,silent,red,725.201007200405,None,None,725.201007200405,None,,,,,,,,,,,,,,,,,,,,,,,,,,,,,,33,001,2023_Apr_05_1019,ExactRep-v3-final,2021.2.3,59.9333901788076,
,,,,,,,,21,0,21,0,,,,,,,,,,,,,,,,,,,,,,,,,,,,,,,,,,,,,,,,,,,,,,,,,,,,,729.7054493008181,None,,,,,,,,,,,,,,,,,,,,,,,,,,,,,,,,,,,doll,109,22,aloud,blue,727.7039460008964,None,None,727.7039460008964,None,,,,,,,,,,,,,,,,,,,,,,,,,,,,,,33,001,2023_Apr_05_1019,ExactRep-v3-final,2021.2.3,59.9333901788076,
,,,,,,,,22,0,22,0,,,,,,,,,,,,,,,,,,,,,,,,,,,,,,,,,,,,,,,,,,,,,,,,,,,,,732.2245650002733,None,,,,,,,,,,,,,,,,,,,,,,,,,,,,,,,,,,,fate,76,23,silent,red,730.2094536004588,None,None,730.2094536004588,None,,,,,,,,,,,,,,,,,,,,,,,,,,,,,,33,001,2023_Apr_05_1019,ExactRep-v3-final,2021.2.3,59.9333901788076,
,,,,,,,,23,0,23,0,,,,,,,,,,,,,,,,,,,,,,,,,,,,,,,,,,,,,,,,,,,,,,,,,,,,,734.7271475000307,None,,,,,,,,,,,,,,,,,,,,,,,,,,,,,,,,,,,hour,39,24,silent,red,732.7250780006871,None,None,732.7250780006871,None,,,,,,,,,,,,,,,,,,,,,,,,,,,,,,33,001,2023_Apr_05_1019,ExactRep-v3-final,2021.2.3,59.9333901788076,
,,,,,,,,24,0,24,0,,,,,,,,,,,,,,,,,,,,,,,,,,,,,,,,,,,,,,,,,,,,,,,,,,,,,737.2464629001915,None,,,,,,,,,,,,,,,,,,,,,,,,,,,,,,,,,,,metal,53,25,silent,red,735.2308217007667,None,None,735.2308217007667,None,,,,,,,,,,,,,,,,,,,,,,,,,,,,,,33,001,2023_Apr_05_1019,ExactRep-v3-final,2021.2.3,59.9333901788076,
,,,,,,,,25,0,25,0,,,,,,,,,,,,,,,,,,,,,,,,,,,,,,,,,,,,,,,,,,,,,,,,,,,,,739.7489255005494,None,,,,,,,,,,,,,,,,,,,,,,,,,,,,,,,,,,,safety,96,26,aloud,blue,737.7473761001602,None,None,737.7473761001602,None,,,,,,,,,,,,,,,,,,,,,,,,,,,,,,33,001,2023_Apr_05_1019,ExactRep-v3-final,2021.2.3,59.9333901788076,
,,,,,,,,26,0,26,0,,,,,,,,,,,,,,,,,,,,,,,,,,,,,,,,,,,,,,,,,,,,,,,,,,,,,742.2514109006152,None,,,,,,,,,,,,,,,,,,,,,,,,,,,,,,,,,,,world,21,27,sing,white,740.2515823002905,None,None,740.2515823002905,None,,,,,,,,,,,,,,,,,,,,,,,,,,,,,,33,001,2023_Apr_05_1019,ExactRep-v3-final,2021.2.3,59.9333901788076,
,,,,,,,,27,0,27,0,,,,,,,,,,,,,,,,,,,,,,,,,,,,,,,,,,,,,,,,,,,,,,,,,,,,,744.7539294008166,None,,,,,,,,,,,,,,,,,,,,,,,,,,,,,,,,,,,grass,101,28,aloud,blue,742.7536267004907,None,None,742.7536267004907,None,,,,,,,,,,,,,,,,,,,,,,,,,,,,,,33,001,2023_Apr_05_1019,ExactRep-v3-final,2021.2.3,59.9333901788076,
,,,,,,,,28,0,28,0,,,,,,,,,,,,,,,,,,,,,,,,,,,,,,,,,,,,,,,,,,,,,,,,,,,,,747.2729333005846,None,,,,,,,,,,,,,,,,,,,,,,,,,,,,,,,,,,,cabin,37,29,sing,white,745.2577834008262,None,None,745.2577834008262,None,,,,,,,,,,,,,,,,,,,,,,,,,,,,,,33,001,2023_Apr_05_1019,ExactRep-v3-final,2021.2.3,59.9333901788076,
,,,,,,,,29,0,29,0,,,,,,,,,,,,,,,,,,,,,,,,,,,,,,,,,,,,,,,,,,,,,,,,,,,,,749.7921425001696,None,,,,,,,,,,,,,,,,,,,,,,,,,,,,,,,,,,,justice,28,30,sing,white,747.7819373002276,None,None,747.7819373002276,None,,,,,,,,,,,,,,,,,,,,,,,,,,,,,,33,001,2023_Apr_05_1019,ExactRep-v3-final,2021.2.3,59.9333901788076,
,,,,,,,,30,0,30,0,,,,,,,,,,,,,,,,,,,,,,,,,,,,,,,,,,,,,,,,,,,,,,,,,,,,,752.2948418008164,None,,,,,,,,,,,,,,,,,,,,,,,,,,,,,,,,,,,author,12,31,sing,white,750.2949059000239,None,None,750.2949059000239,None,,,,,,,,,,,,,,,,,,,,,,,,,,,,,,33,001,2023_Apr_05_1019,ExactRep-v3-final,2021.2.3,59.9333901788076,
,,,,,,,,31,0,31,0,,,,,,,,,,,,,,,,,,,,,,,,,,,,,,,,,,,,,,,,,,,,,,,,,,,,,754.8139612004161,None,,,,,,,,,,,,,,,,,,,,,,,,,,,,,,,,,,,speech,50,32,silent,red,752.8033122001216,None,None,752.8033122001216,None,,,,,,,,,,,,,,,,,,,,,,,,,,,,,,33,001,2023_Apr_05_1019,ExactRep-v3-final,2021.2.3,59.9333901788076,
,,,,,,,,32,0,32,0,,,,,,,,,,,,,,,,,,,,,,,,,,,,,,,,,,,,,,,,,,,,,,,,,,,,,757.3165089003742,None,,,,,,,,,,,,,,,,,,,,,,,,,,,,,,,,,,,bar,35,33,sing,white,755.3145109005272,None,None,755.3145109005272,None,,,,,,,,,,,,,,,,,,,,,,,,,,,,,,33,001,2023_Apr_05_1019,ExactRep-v3-final,2021.2.3,59.9333901788076,
,,,,,,,,33,0,33,0,,,,,,,,,,,,,,,,,,,,,,,,,,,,,,,,,,,,,,,,,,,,,,,,,,,,,759.8189428001642,None,,,,,,,,,,,,,,,,,,,,,,,,,,,,,,,,,,,bowl,79,34,sing,white,757.8188530001789,None,None,757.8188530001789,None,,,,,,,,,,,,,,,,,,,,,,,,,,,,,,33,001,2023_Apr_05_1019,ExactRep-v3-final,2021.2.3,59.9333901788076,
,,,,,,,,34,0,34,0,,,,,,,,,,,,,,,,,,,,,,,,,,,,,,,,,,,,,,,,,,,,,,,,,,,,,762.3215092001483,None,,,,,,,,,,,,,,,,,,,,,,,,,,,,,,,,,,,mind,97,35,aloud,blue,760.3213863000274,None,None,760.3213863000274,None,,,,,,,,,,,,,,,,,,,,,,,,,,,,,,33,001,2023_Apr_05_1019,ExactRep-v3-final,2021.2.3,59.9333901788076,
,,,,,,,,35,0,35,0,,,,,,,,,,,,,,,,,,,,,,,,,,,,,,,,,,,,,,,,,,,,,,,,,,,,,764.8406908009201,None,,,,,,,,,,,,,,,,,,,,,,,,,,,,,,,,,,,prison,100,36,aloud,blue,762.8272118000314,None,None,762.8272118000314,None,,,,,,,,,,,,,,,,,,,,,,,,,,,,,,33,001,2023_Apr_05_1019,ExactRep-v3-final,2021.2.3,59.9333901788076,
,,,,,,,,36,0,36,0,,,,,,,,,,,,,,,,,,,,,,,,,,,,,,,,,,,,,,,,,,,,,,,,,,,,,767.3431625002995,None,,,,,,,,,,,,,,,,,,,,,,,,,,,,,,,,,,,diamond,49,37,silent,red,765.3440216006711,None,None,765.3440216006711,None,,,,,,,,,,,,,,,,,,,,,,,,,,,,,,33,001,2023_Apr_05_1019,ExactRep-v3-final,2021.2.3,59.9333901788076,
,,,,,,,,37,0,37,0,,,,,,,,,,,,,,,,,,,,,,,,,,,,,,,,,,,,,,,,,,,,,,,,,,,,,769.845547400415,None,,,,,,,,,,,,,,,,,,,,,,,,,,,,,,,,,,,form,60,38,silent,red,767.8458937006071,None,None,767.8458937006071,None,,,,,,,,,,,,,,,,,,,,,,,,,,,,,,33,001,2023_Apr_05_1019,ExactRep-v3-final,2021.2.3,59.9333901788076,
,,,,,,,,38,0,38,0,,,,,,,,,,,,,,,,,,,,,,,,,,,,,,,,,,,,,,,,,,,,,,,,,,,,,772.3480355003849,None,,,,,,,,,,,,,,,,,,,,,,,,,,,,,,,,,,,style,87,39,aloud,blue,770.347564900294,None,None,770.347564900294,None,,,,,,,,,,,,,,,,,,,,,,,,,,,,,,33,001,2023_Apr_05_1019,ExactRep-v3-final,2021.2.3,59.9333901788076,
,,,,,,,,39,0,39,0,,,,,,,,,,,,,,,,,,,,,,,,,,,,,,,,,,,,,,,,,,,,,,,,,,,,,774.850661800243,None,,,,,,,,,,,,,,,,,,,,,,,,,,,,,,,,,,,church,111,40,aloud,blue,772.8501758007333,None,None,772.8501758007333,None,,,,,,,,,,,,,,,,,,,,,,,,,,,,,,33,001,2023_Apr_05_1019,ExactRep-v3-final,2021.2.3,59.9333901788076,
,,,,,,,,40,0,40,0,,,,,,,,,,,,,,,,,,,,,,,,,,,,,,,,,,,,,,,,,,,,,,,,,,,,,777.3529831003398,None,,,,,,,,,,,,,,,,,,,,,,,,,,,,,,,,,,,health,84,41,aloud,blue,775.3529811007902,None,None,775.3529811007902,None,,,,,,,,,,,,,,,,,,,,,,,,,,,,,,33,001,2023_Apr_05_1019,ExactRep-v3-final,2021.2.3,59.9333901788076,
,,,,,,,,41,0,41,0,,,,,,,,,,,,,,,,,,,,,,,,,,,,,,,,,,,,,,,,,,,,,,,,,,,,,779.8555387007073,None,,,,,,,,,,,,,,,,,,,,,,,,,,,,,,,,,,,cash,1,42,sing,white,777.8534959005192,None,None,777.8534959005192,None,,,,,,,,,,,,,,,,,,,,,,,,,,,,,,33,001,2023_Apr_05_1019,ExactRep-v3-final,2021.2.3,59.9333901788076,
,,,,,,,,42,0,42,0,,,,,,,,,,,,,,,,,,,,,,,,,,,,,,,,,,,,,,,,,,,,,,,,,,,,,782.3579780003056,None,,,,,,,,,,,,,,,,,,,,,,,,,,,,,,,,,,,earth,38,43,sing,white,780.3584189005196,None,None,780.3584189005196,None,,,,,,,,,,,,,,,,,,,,,,,,,,,,,,33,001,2023_Apr_05_1019,ExactRep-v3-final,2021.2.3,59.9333901788076,
,,,,,,,,43,0,43,0,,,,,,,,,,,,,,,,,,,,,,,,,,,,,,,,,,,,,,,,,,,,,,,,,,,,,784.8772085001692,None,,,,,,,,,,,,,,,,,,,,,,,,,,,,,,,,,,,corner,24,44,sing,white,782.8650167006999,None,None,782.8650167006999,None,,,,,,,,,,,,,,,,,,,,,,,,,,,,,,33,001,2023_Apr_05_1019,ExactRep-v3-final,2021.2.3,59.9333901788076,
,,,,,,,,44,0,44,0,,,,,,,,,,,,,,,,,,,,,,,,,,,,,,,,,,,,,,,,,,,,,,,,,,,,,787.379945200868,None,,,,,,,,,,,,,,,,,,,,,,,,,,,,,,,,,,,vessel,77,45,silent,red,785.3804640006274,None,None,785.3804640006274,None,,,,,,,,,,,,,,,,,,,,,,,,,,,,,,33,001,2023_Apr_05_1019,ExactRep-v3-final,2021.2.3,59.9333901788076,
,,,,,,,,45,0,45,0,,,,,,,,,,,,,,,,,,,,,,,,,,,,,,,,,,,,,,,,,,,,,,,,,,,,,789.8990024002269,None,,,,,,,,,,,,,,,,,,,,,,,,,,,,,,,,,,,method,22,46,sing,white,787.8859614999965,None,None,787.8859614999965,None,,,,,,,,,,,,,,,,,,,,,,,,,,,,,,33,001,2023_Apr_05_1019,ExactRep-v3-final,2021.2.3,59.9333901788076,
,,,,,,,,46,0,46,0,,,,,,,,,,,,,,,,,,,,,,,,,,,,,,,,,,,,,,,,,,,,,,,,,,,,,792.4183145007119,None,,,,,,,,,,,,,,,,,,,,,,,,,,,,,,,,,,,cotton,29,47,sing,white,790.4092883002013,None,None,790.4092883002013,None,,,,,,,,,,,,,,,,,,,,,,,,,,,,,,33,001,2023_Apr_05_1019,ExactRep-v3-final,2021.2.3,59.9333901788076,
,,,,,,,,47,0,47,0,,,,,,,,,,,,,,,,,,,,,,,,,,,,,,,,,,,,,,,,,,,,,,,,,,,,,794.9213875001296,None,,,,,,,,,,,,,,,,,,,,,,,,,,,,,,,,,,,library,56,48,silent,red,792.9205633001402,None,None,792.9205633001402,None,,,,,,,,,,,,,,,,,,,,,,,,,,,,,,33,001,2023_Apr_05_1019,ExactRep-v3-final,2021.2.3,59.9333901788076,
,,,,,,,,48,0,48,0,,,,,,,,,,,,,,,,,,,,,,,,,,,,,,,,,,,,,,,,,,,,,,,,,,,,,797.4232990005985,None,,,,,,,,,,,,,,,,,,,,,,,,,,,,,,,,,,,ocean,117,49,aloud,blue,795.422736200504,None,None,795.422736200504,None,,,,,,,,,,,,,,,,,,,,,,,,,,,,,,33,001,2023_Apr_05_1019,ExactRep-v3-final,2021.2.3,59.9333901788076,
,,,,,,,,49,0,49,0,,,,,,,,,,,,,,,,,,,,,,,,,,,,,,,,,,,,,,,,,,,,,,,,,,,,,799.9257200006396,None,,,,,,,,,,,,,,,,,,,,,,,,,,,,,,,,,,,fur,71,50,silent,red,797.9257120005786,None,None,797.9257120005786,None,,,,,,,,,,,,,,,,,,,,,,,,,,,,,,33,001,2023_Apr_05_1019,ExactRep-v3-final,2021.2.3,59.9333901788076,
,,,,,,,,50,0,50,0,,,,,,,,,,,,,,,,,,,,,,,,,,,,,,,,,,,,,,,,,,,,,,,,,,,,,802.4280948005617,None,,,,,,,,,,,,,,,,,,,,,,,,,,,,,,,,,,,village,68,51,silent,red,800.4271546006203,None,None,800.4271546006203,None,,,,,,,,,,,,,,,,,,,,,,,,,,,,,,33,001,2023_Apr_05_1019,ExactRep-v3-final,2021.2.3,59.9333901788076,
,,,,,,,,51,0,51,0,,,,,,,,,,,,,,,,,,,,,,,,,,,,,,,,,,,,,,,,,,,,,,,,,,,,,804.9304078007117,None,,,,,,,,,,,,,,,,,,,,,,,,,,,,,,,,,,,letter,65,52,silent,red,802.9303216002882,None,None,802.9303216002882,None,,,,,,,,,,,,,,,,,,,,,,,,,,,,,,33,001,2023_Apr_05_1019,ExactRep-v3-final,2021.2.3,59.9333901788076,
,,,,,,,,52,0,52,0,,,,,,,,,,,,,,,,,,,,,,,,,,,,,,,,,,,,,,,,,,,,,,,,,,,,,807.4344812007621,None,,,,,,,,,,,,,,,,,,,,,,,,,,,,,,,,,,,palace,20,53,sing,white,805.4321365002543,None,None,805.4321365002543,None,,,,,,,,,,,,,,,,,,,,,,,,,,,,,,33,001,2023_Apr_05_1019,ExactRep-v3-final,2021.2.3,59.9333901788076,
,,,,,,,,53,0,53,0,,,,,,,,,,,,,,,,,,,,,,,,,,,,,,,,,,,,,,,,,,,,,,,,,,,,,809.9522793004289,None,,,,,,,,,,,,,,,,,,,,,,,,,,,,,,,,,,,devil,106,54,aloud,blue,807.9424142008647,None,None,807.9424142008647,None,,,,,,,,,,,,,,,,,,,,,,,,,,,,,,33,001,2023_Apr_05_1019,ExactRep-v3-final,2021.2.3,59.9333901788076,
,,,,,,,,54,0,54,0,,,,,,,,,,,,,,,,,,,,,,,,,,,,,,,,,,,,,,,,,,,,,,,,,,,,,812.4549379004166,None,,,,,,,,,,,,,,,,,,,,,,,,,,,,,,,,,,,salary,7,55,sing,white,810.4546495005488,None,None,810.4546495005488,None,,,,,,,,,,,,,,,,,,,,,,,,,,,,,,33,001,2023_Apr_05_1019,ExactRep-v3-final,2021.2.3,59.9333901788076,
,,,,,,,,55,0,55,0,,,,,,,,,,,,,,,,,,,,,,,,,,,,,,,,,,,,,,,,,,,,,,,,,,,,,814.9574804008007,None,,,,,,,,,,,,,,,,,,,,,,,,,,,,,,,,,,,heaven,43,56,silent,red,812.9583770008758,None,None,812.9583770008758,None,,,,,,,,,,,,,,,,,,,,,,,,,,,,,,33,001,2023_Apr_05_1019,ExactRep-v3-final,2021.2.3,59.9333901788076,
,,,,,,,,56,0,56,0,,,,,,,,,,,,,,,,,,,,,,,,,,,,,,,,,,,,,,,,,,,,,,,,,,,,,817.4766130000353,None,,,,,,,,,,,,,,,,,,,,,,,,,,,,,,,,,,,beast,72,57,silent,red,815.4673810005188,None,None,815.4673810005188,None,,,,,,,,,,,,,,,,,,,,,,,,,,,,,,33,001,2023_Apr_05_1019,ExactRep-v3-final,2021.2.3,59.9333901788076,
,,,,,,,,57,0,57,0,,,,,,,,,,,,,,,,,,,,,,,,,,,,,,,,,,,,,,,,,,,,,,,,,,,,,819.995768500492,None,,,,,,,,,,,,,,,,,,,,,,,,,,,,,,,,,,,animal,81,58,aloud,blue,817.9836630001664,None,None,817.9836630001664,None,,,,,,,,,,,,,,,,,,,,,,,,,,,,,,33,001,2023_Apr_05_1019,ExactRep-v3-final,2021.2.3,59.9333901788076,
,,,,,,,,58,0,58,0,,,,,,,,,,,,,,,,,,,,,,,,,,,,,,,,,,,,,,,,,,,,,,,,,,,,,822.4982530009001,None,,,,,,,,,,,,,,,,,,,,,,,,,,,,,,,,,,,wheat,48,59,silent,red,820.4962901007384,None,None,820.4962901007384,None,,,,,,,,,,,,,,,,,,,,,,,,,,,,,,33,001,2023_Apr_05_1019,ExactRep-v3-final,2021.2.3,59.9333901788076,
,,,,,,,,59,0,59,0,,,,,,,,,,,,,,,,,,,,,,,,,,,,,,,,,,,,,,,,,,,,,,,,,,,,,825.0174679001793,None,,,,,,,,,,,,,,,,,,,,,,,,,,,,,,,,,,,clock,116,60,aloud,blue,823.0046683000401,None,None,823.0046683000401,None,,,,,,,,,,,,,,,,,,,,,,,,,,,,,,33,001,2023_Apr_05_1019,ExactRep-v3-final,2021.2.3,59.9333901788076,
,,,,,,,,60,0,60,0,,,,,,,,,,,,,,,,,,,,,,,,,,,,,,,,,,,,,,,,,,,,,,,,,,,,,827.5200342005119,None,,,,,,,,,,,,,,,,,,,,,,,,,,,,,,,,,,,answer,85,61,aloud,blue,825.5176802007481,None,None,825.5176802007481,None,,,,,,,,,,,,,,,,,,,,,,,,,,,,,,33,001,2023_Apr_05_1019,ExactRep-v3-final,2021.2.3,59.9333901788076,
,,,,,,,,61,0,61,0,,,,,,,,,,,,,,,,,,,,,,,,,,,,,,,,,,,,,,,,,,,,,,,,,,,,,830.0389928007498,None,,,,,,,,,,,,,,,,,,,,,,,,,,,,,,,,,,,event,102,62,aloud,blue,828.0237728003412,None,None,828.0237728003412,None,,,,,,,,,,,,,,,,,,,,,,,,,,,,,,33,001,2023_Apr_05_1019,ExactRep-v3-final,2021.2.3,59.9333901788076,
,,,,,,,,62,0,62,0,,,,,,,,,,,,,,,,,,,,,,,,,,,,,,,,,,,,,,,,,,,,,,,,,,,,,832.558180000633,None,,,,,,,,,,,,,,,,,,,,,,,,,,,,,,,,,,,book,95,63,aloud,blue,830.5496068000793,None,None,830.5496068000793,None,,,,,,,,,,,,,,,,,,,,,,,,,,,,,,33,001,2023_Apr_05_1019,ExactRep-v3-final,2021.2.3,59.9333901788076,
,,,,,,,,63,0,63,0,,,,,,,,,,,,,,,,,,,,,,,,,,,,,,,,,,,,,,,,,,,,,,,,,,,,,835.0774430008605,None,,,,,,,,,,,,,,,,,,,,,,,,,,,,,,,,,,,army,55,64,silent,red,833.0647221002728,None,None,833.0647221002728,None,,,,,,,,,,,,,,,,,,,,,,,,,,,,,,33,001,2023_Apr_05_1019,ExactRep-v3-final,2021.2.3,59.9333901788076,
,,,,,,,,64,0,64,0,,,,,,,,,,,,,,,,,,,,,,,,,,,,,,,,,,,,,,,,,,,,,,,,,,,,,837.5967512000352,None,,,,,,,,,,,,,,,,,,,,,,,,,,,,,,,,,,,prayer,105,65,aloud,blue,835.5831036008894,None,None,835.5831036008894,None,,,,,,,,,,,,,,,,,,,,,,,,,,,,,,33,001,2023_Apr_05_1019,ExactRep-v3-final,2021.2.3,59.9333901788076,
,,,,,,,,65,0,65,0,,,,,,,,,,,,,,,,,,,,,,,,,,,,,,,,,,,,,,,,,,,,,,,,,,,,,840.0992235001177,None,,,,,,,,,,,,,,,,,,,,,,,,,,,,,,,,,,,boulder,89,66,aloud,blue,838.0970758004114,None,None,838.0970758004114,None,,,,,,,,,,,,,,,,,,,,,,,,,,,,,,33,001,2023_Apr_05_1019,ExactRep-v3-final,2021.2.3,59.9333901788076,
,,,,,,,,66,0,66,0,,,,,,,,,,,,,,,,,,,,,,,,,,,,,,,,,,,,,,,,,,,,,,,,,,,,,842.6020674007013,None,,,,,,,,,,,,,,,,,,,,,,,,,,,,,,,,,,,toy,18,67,sing,white,840.6005139006302,None,None,840.6005139006302,None,,,,,,,,,,,,,,,,,,,,,,,,,,,,,,33,001,2023_Apr_05_1019,ExactRep-v3-final,2021.2.3,59.9333901788076,
,,,,,,,,67,0,67,0,,,,,,,,,,,,,,,,,,,,,,,,,,,,,,,,,,,,,,,,,,,,,,,,,,,,,845.1207922007889,None,,,,,,,,,,,,,,,,,,,,,,,,,,,,,,,,,,,anger,31,68,sing,white,843.1079666009173,None,None,843.1079666009173,None,,,,,,,,,,,,,,,,,,,,,,,,,,,,,,33,001,2023_Apr_05_1019,ExactRep-v3-final,2021.2.3,59.9333901788076,
,,,,,,,,68,0,68,0,,,,,,,,,,,,,,,,,,,,,,,,,,,,,,,,,,,,,,,,,,,,,,,,,,,,,847.6234326008707,None,,,,,,,,,,,,,,,,,,,,,,,,,,,,,,,,,,,sugar,80,69,aloud,blue,845.6214167000726,None,None,845.6214167000726,None,,,,,,,,,,,,,,,,,,,,,,,,,,,,,,33,001,2023_Apr_05_1019,ExactRep-v3-final,2021.2.3,59.9333901788076,
,,,,,,,,69,0,69,0,,,,,,,,,,,,,,,,,,,,,,,,,,,,,,,,,,,,,,,,,,,,,,,,,,,,,850.1259197006002,None,,,,,,,,,,,,,,,,,,,,,,,,,,,,,,,,,,,dream,58,70,silent,red,848.1257279003039,None,None,848.1257279003039,None,,,,,,,,,,,,,,,,,,,,,,,,,,,,,,33,001,2023_Apr_05_1019,ExactRep-v3-final,2021.2.3,59.9333901788076,
,,,,,,,,70,0,70,0,,,,,,,,,,,,,,,,,,,,,,,,,,,,,,,,,,,,,,,,,,,,,,,,,,,,,852.6451066005975,None,,,,,,,,,,,,,,,,,,,,,,,,,,,,,,,,,,,theory,92,71,aloud,blue,850.6307514002547,None,None,850.6307514002547,None,,,,,,,,,,,,,,,,,,,,,,,,,,,,,,33,001,2023_Apr_05_1019,ExactRep-v3-final,2021.2.3,59.9333901788076,
,,,,,,,,71,0,71,0,,,,,,,,,,,,,,,,,,,,,,,,,,,,,,,,,,,,,,,,,,,,,,,,,,,,,855.1476461002603,None,,,,,,,,,,,,,,,,,,,,,,,,,,,,,,,,,,,advice,23,72,sing,white,853.1464985003695,None,None,853.1464985003695,None,,,,,,,,,,,,,,,,,,,,,,,,,,,,,,33,001,2023_Apr_05_1019,ExactRep-v3-final,2021.2.3,59.9333901788076,
,,,,,,,,72,0,72,0,,,,,,,,,,,,,,,,,,,,,,,,,,,,,,,,,,,,,,,,,,,,,,,,,,,,,857.6666755005717,None,,,,,,,,,,,,,,,,,,,,,,,,,,,,,,,,,,,brain,57,73,silent,red,855.6563712004572,None,None,855.6563712004572,None,,,,,,,,,,,,,,,,,,,,,,,,,,,,,,33,001,2023_Apr_05_1019,ExactRep-v3-final,2021.2.3,59.9333901788076,
,,,,,,,,73,0,73,0,,,,,,,,,,,,,,,,,,,,,,,,,,,,,,,,,,,,,,,,,,,,,,,,,,,,,860.1859327005222,None,,,,,,,,,,,,,,,,,,,,,,,,,,,,,,,,,,,hide,4,74,sing,white,858.1736651007086,None,None,858.1736651007086,None,,,,,,,,,,,,,,,,,,,,,,,,,,,,,,33,001,2023_Apr_05_1019,ExactRep-v3-final,2021.2.3,59.9333901788076,
,,,,,,,,74,0,74,0,,,,,,,,,,,,,,,,,,,,,,,,,,,,,,,,,,,,,,,,,,,,,,,,,,,,,862.6884996006265,None,,,,,,,,,,,,,,,,,,,,,,,,,,,,,,,,,,,silence,88,75,aloud,blue,860.6867210008204,None,None,860.6867210008204,None,,,,,,,,,,,,,,,,,,,,,,,,,,,,,,33,001,2023_Apr_05_1019,ExactRep-v3-final,2021.2.3,59.9333901788076,
,,,,,,,,75,0,75,0,,,,,,,,,,,,,,,,,,,,,,,,,,,,,,,,,,,,,,,,,,,,,,,,,,,,,865.1906647002324,None,,,,,,,,,,,,,,,,,,,,,,,,,,,,,,,,,,,custom,27,76,sing,white,863.1904468005523,None,None,863.1904468005523,None,,,,,,,,,,,,,,,,,,,,,,,,,,,,,,33,001,2023_Apr_05_1019,ExactRep-v3-final,2021.2.3,59.9333901788076,
,,,,,,,,76,0,76,0,,,,,,,,,,,,,,,,,,,,,,,,,,,,,,,,,,,,,,,,,,,,,,,,,,,,,867.7101939003915,None,,,,,,,,,,,,,,,,,,,,,,,,,,,,,,,,,,,winter,9,77,sing,white,865.6969936005771,None,None,865.6969936005771,None,,,,,,,,,,,,,,,,,,,,,,,,,,,,,,33,001,2023_Apr_05_1019,ExactRep-v3-final,2021.2.3,59.9333901788076,
,,,,,,,,77,0,77,0,,,,,,,,,,,,,,,,,,,,,,,,,,,,,,,,,,,,,,,,,,,,,,,,,,,,,870.2127540009096,None,,,,,,,,,,,,,,,,,,,,,,,,,,,,,,,,,,,meeting,13,78,sing,white,868.211567800492,None,None,868.211567800492,None,,,,,,,,,,,,,,,,,,,,,,,,,,,,,,33,001,2023_Apr_05_1019,ExactRep-v3-final,2021.2.3,59.9333901788076,
,,,,,,,,78,0,78,0,,,,,,,,,,,,,,,,,,,,,,,,,,,,,,,,,,,,,,,,,,,,,,,,,,,,,872.715225700289,None,,,,,,,,,,,,,,,,,,,,,,,,,,,,,,,,,,,chief,14,79,sing,white,870.7149449000135,None,None,870.7149449000135,None,,,,,,,,,,,,,,,,,,,,,,,,,,,,,,33,001,2023_Apr_05_1019,ExactRep-v3-final,2021.2.3,59.9333901788076,
,,,,,,,,79,0,79,0,,,,,,,,,,,,,,,,,,,,,,,,,,,,,,,,,,,,,,,,,,,,,,,,,,,,,875.2178046004847,None,,,,,,,,,,,,,,,,,,,,,,,,,,,,,,,,,,,slave,10,80,sing,white,873.2186281001195,None,None,873.2186281001195,None,,,,,,,,,,,,,,,,,,,,,,,,,,,,,,33,001,2023_Apr_05_1019,ExactRep-v3-final,2021.2.3,59.9333901788076,
,,,,,,,,80,0,80,0,,,,,,,,,,,,,,,,,,,,,,,,,,,,,,,,,,,,,,,,,,,,,,,,,,,,,877.7366951005533,None,,,,,,,,,,,,,,,,,,,,,,,,,,,,,,,,,,,rod,41,81,silent,red,875.7242055004463,None,None,875.7242055004463,None,,,,,,,,,,,,,,,,,,,,,,,,,,,,,,33,001,2023_Apr_05_1019,ExactRep-v3-final,2021.2.3,59.9333901788076,
,,,,,,,,81,0,81,0,,,,,,,,,,,,,,,,,,,,,,,,,,,,,,,,,,,,,,,,,,,,,,,,,,,,,880.2561595002189,None,,,,,,,,,,,,,,,,,,,,,,,,,,,,,,,,,,,poet,34,82,sing,white,878.2441744003445,None,None,878.2441744003445,None,,,,,,,,,,,,,,,,,,,,,,,,,,,,,,33,001,2023_Apr_05_1019,ExactRep-v3-final,2021.2.3,59.9333901788076,
,,,,,,,,82,0,82,0,,,,,,,,,,,,,,,,,,,,,,,,,,,,,,,,,,,,,,,,,,,,,,,,,,,,,882.7757958006114,None,,,,,,,,,,,,,,,,,,,,,,,,,,,,,,,,,,,person,98,83,aloud,blue,880.7602691007778,None,None,880.7602691007778,None,,,,,,,,,,,,,,,,,,,,,,,,,,,,,,33,001,2023_Apr_05_1019,ExactRep-v3-final,2021.2.3,59.9333901788076,
,,,,,,,,83,0,83,0,,,,,,,,,,,,,,,,,,,,,,,,,,,,,,,,,,,,,,,,,,,,,,,,,,,,,885.2778051001951,None,,,,,,,,,,,,,,,,,,,,,,,,,,,,,,,,,,,friend,83,84,aloud,blue,883.2755740005523,None,None,883.2755740005523,None,,,,,,,,,,,,,,,,,,,,,,,,,,,,,,33,001,2023_Apr_05_1019,ExactRep-v3-final,2021.2.3,59.9333901788076,
,,,,,,,,84,0,84,0,,,,,,,,,,,,,,,,,,,,,,,,,,,,,,,,,,,,,,,,,,,,,,,,,,,,,887.7802557004616,None,,,,,,,,,,,,,,,,,,,,,,,,,,,,,,,,,,,maiden,2,85,sing,white,885.7798719005659,None,None,885.7798719005659,None,,,,,,,,,,,,,,,,,,,,,,,,,,,,,,33,001,2023_Apr_05_1019,ExactRep-v3-final,2021.2.3,59.9333901788076,
,,,,,,,,85,0,85,0,,,,,,,,,,,,,,,,,,,,,,,,,,,,,,,,,,,,,,,,,,,,,,,,,,,,,890.2827659007162,None,,,,,,,,,,,,,,,,,,,,,,,,,,,,,,,,,,,mercy,118,86,aloud,blue,888.2838083002716,None,None,888.2838083002716,None,,,,,,,,,,,,,,,,,,,,,,,,,,,,,,33,001,2023_Apr_05_1019,ExactRep-v3-final,2021.2.3,59.9333901788076,
,,,,,,,,86,0,86,0,,,,,,,,,,,,,,,,,,,,,,,,,,,,,,,,,,,,,,,,,,,,,,,,,,,,,892.7853023000062,None,,,,,,,,,,,,,,,,,,,,,,,,,,,,,,,,,,,mother,63,87,silent,red,890.7862686002627,None,None,890.7862686002627,None,,,,,,,,,,,,,,,,,,,,,,,,,,,,,,33,001,2023_Apr_05_1019,ExactRep-v3-final,2021.2.3,59.9333901788076,
,,,,,,,,87,0,87,0,,,,,,,,,,,,,,,,,,,,,,,,,,,,,,,,,,,,,,,,,,,,,,,,,,,,,895.3043599007651,None,,,,,,,,,,,,,,,,,,,,,,,,,,,,,,,,,,,cottage,46,88,silent,red,893.2891422007233,None,None,893.2891422007233,None,,,,,,,,,,,,,,,,,,,,,,,,,,,,,,33,001,2023_Apr_05_1019,ExactRep-v3-final,2021.2.3,59.9333901788076,
,,,,,,,,88,0,88,0,,,,,,,,,,,,,,,,,,,,,,,,,,,,,,,,,,,,,,,,,,,,,,,,,,,,,897.8235646001995,None,,,,,,,,,,,,,,,,,,,,,,,,,,,,,,,,,,,plain,82,89,aloud,blue,895.8110239002854,None,None,895.8110239002854,None,,,,,,,,,,,,,,,,,,,,,,,,,,,,,,33,001,2023_Apr_05_1019,ExactRep-v3-final,2021.2.3,59.9333901788076,
,,,,,,,,89,0,89,0,,,,,,,,,,,,,,,,,,,,,,,,,,,,,,,,,,,,,,,,,,,,,,,,,,,,,900.3426420008764,None,,,,,,,,,,,,,,,,,,,,,,,,,,,,,,,,,,,potato,33,90,sing,white,898.328346000053,None,None,898.328346000053,None,,,,,,,,,,,,,,,,,,,,,,,,,,,,,,33,001,2023_Apr_05_1019,ExactRep-v3-final,2021.2.3,59.9333901788076,
,,,,,,,,90,0,90,0,,,,,,,,,,,,,,,,,,,,,,,,,,,,,,,,,,,,,,,,,,,,,,,,,,,,,902.8452751003206,None,,,,,,,,,,,,,,,,,,,,,,,,,,,,,,,,,,,party,15,91,sing,white,900.84324210044,None,None,900.84324210044,None,,,,,,,,,,,,,,,,,,,,,,,,,,,,,,33,001,2023_Apr_05_1019,ExactRep-v3-final,2021.2.3,59.9333901788076,
,,,,,,,,91,0,91,0,,,,,,,,,,,,,,,,,,,,,,,,,,,,,,,,,,,,,,,,,,,,,,,,,,,,,905.3478168006986,None,,,,,,,,,,,,,,,,,,,,,,,,,,,,,,,,,,,valley,73,92,silent,red,903.3484189007431,None,None,903.3484189007431,None,,,,,,,,,,,,,,,,,,,,,,,,,,,,,,33,001,2023_Apr_05_1019,ExactRep-v3-final,2021.2.3,59.9333901788076,
,,,,,,,,92,0,92,0,,,,,,,,,,,,,,,,,,,,,,,,,,,,,,,,,,,,,,,,,,,,,,,,,,,,,907.8503591008484,None,,,,,,,,,,,,,,,,,,,,,,,,,,,,,,,,,,,blossom,74,93,silent,red,905.851029000245,None,None,905.851029000245,None,,,,,,,,,,,,,,,,,,,,,,,,,,,,,,33,001,2023_Apr_05_1019,ExactRep-v3-final,2021.2.3,59.9333901788076,
,,,,,,,,93,0,93,0,,,,,,,,,,,,,,,,,,,,,,,,,,,,,,,,,,,,,,,,,,,,,,,,,,,,,910.3695682007819,None,,,,,,,,,,,,,,,,,,,,,,,,,,,,,,,,,,,bottle,64,94,silent,red,908.3542608004063,None,None,908.3542608004063,None,,,,,,,,,,,,,,,,,,,,,,,,,,,,,,33,001,2023_Apr_05_1019,ExactRep-v3-final,2021.2.3,59.9333901788076,
,,,,,,,,94,0,94,0,,,,,,,,,,,,,,,,,,,,,,,,,,,,,,,,,,,,,,,,,,,,,,,,,,,,,912.8719865009189,None,,,,,,,,,,,,,,,,,,,,,,,,,,,,,,,,,,,idea,36,95,sing,white,910.8728298004717,None,None,910.8728298004717,None,,,,,,,,,,,,,,,,,,,,,,,,,,,,,,33,001,2023_Apr_05_1019,ExactRep-v3-final,2021.2.3,59.9333901788076,
,,,,,,,,95,0,95,0,,,,,,,,,,,,,,,,,,,,,,,,,,,,,,,,,,,,,,,,,,,,,,,,,,,,,915.3741830000654,None,,,,,,,,,,,,,,,,,,,,,,,,,,,,,,,,,,,love,52,96,silent,red,913.3742246003821,None,None,913.3742246003821,None,,,,,,,,,,,,,,,,,,,,,,,,,,,,,,33,001,2023_Apr_05_1019,ExactRep-v3-final,2021.2.3,59.9333901788076,
,,,,,,,,96,0,96,0,,,,,,,,,,,,,,,,,,,,,,,,,,,,,,,,,,,,,,,,,,,,,,,,,,,,,917.8769927006215,None,,,,,,,,,,,,,,,,,,,,,,,,,,,,,,,,,,,fire,62,97,silent,red,915.8766042003408,None,None,915.8766042003408,None,,,,,,,,,,,,,,,,,,,,,,,,,,,,,,33,001,2023_Apr_05_1019,ExactRep-v3-final,2021.2.3,59.9333901788076,
,,,,,,,,97,0,97,0,,,,,,,,,,,,,,,,,,,,,,,,,,,,,,,,,,,,,,,,,,,,,,,,,,,,,920.3960676006973,None,,,,,,,,,,,,,,,,,,,,,,,,,,,,,,,,,,,iron,0,98,sing,white,918.3865218004212,None,None,918.3865218004212,None,,,,,,,,,,,,,,,,,,,,,,,,,,,,,,33,001,2023_Apr_05_1019,ExactRep-v3-final,2021.2.3,59.9333901788076,
,,,,,,,,98,0,98,0,,,,,,,,,,,,,,,,,,,,,,,,,,,,,,,,,,,,,,,,,,,,,,,,,,,,,922.8986523002386,None,,,,,,,,,,,,,,,,,,,,,,,,,,,,,,,,,,,soil,112,99,aloud,blue,920.8964785002172,None,None,920.8964785002172,None,,,,,,,,,,,,,,,,,,,,,,,,,,,,,,33,001,2023_Apr_05_1019,ExactRep-v3-final,2021.2.3,59.9333901788076,
,,,,,,,,99,0,99,0,,,,,,,,,,,,,,,,,,,,,,,,,,,,,,,,,,,,,,,,,,,,,,,,,,,,,925.4010159000754,None,,,,,,,,,,,,,,,,,,,,,,,,,,,,,,,,,,,month,40,100,silent,red,923.4007453005761,None,None,923.4007453005761,None,,,,,,,,,,,,,,,,,,,,,,,,,,,,,,33,001,2023_Apr_05_1019,ExactRep-v3-final,2021.2.3,59.9333901788076,
,,,,,,,,100,0,100,0,,,,,,,,,,,,,,,,,,,,,,,,,,,,,,,,,,,,,,,,,,,,,,,,,,,,,927.9203156000003,None,,,,,,,,,,,,,,,,,,,,,,,,,,,,,,,,,,,machine,47,101,silent,red,925.9071048004553,None,None,925.9071048004553,None,,,,,,,,,,,,,,,,,,,,,,,,,,,,,,33,001,2023_Apr_05_1019,ExactRep-v3-final,2021.2.3,59.9333901788076,
,,,,,,,,101,0,101,0,,,,,,,,,,,,,,,,,,,,,,,,,,,,,,,,,,,,,,,,,,,,,,,,,,,,,930.4401191007346,None,,,,,,,,,,,,,,,,,,,,,,,,,,,,,,,,,,,queen,45,102,silent,red,928.4371542008594,None,None,928.4371542008594,None,,,,,,,,,,,,,,,,,,,,,,,,,,,,,,33,001,2023_Apr_05_1019,ExactRep-v3-final,2021.2.3,59.9333901788076,
,,,,,,,,102,0,102,0,,,,,,,,,,,,,,,,,,,,,,,,,,,,,,,,,,,,,,,,,,,,,,,,,,,,,932.942099600099,None,,,,,,,,,,,,,,,,,,,,,,,,,,,,,,,,,,,home,103,103,aloud,blue,930.9399655004963,None,None,930.9399655004963,None,,,,,,,,,,,,,,,,,,,,,,,,,,,,,,33,001,2023_Apr_05_1019,ExactRep-v3-final,2021.2.3,59.9333901788076,
,,,,,,,,103,0,103,0,,,,,,,,,,,,,,,,,,,,,,,,,,,,,,,,,,,,,,,,,,,,,,,,,,,,,935.4446550002322,None,,,,,,,,,,,,,,,,,,,,,,,,,,,,,,,,,,,hall,5,104,sing,white,933.4449199000373,None,None,933.4449199000373,None,,,,,,,,,,,,,,,,,,,,,,,,,,,,,,33,001,2023_Apr_05_1019,ExactRep-v3-final,2021.2.3,59.9333901788076,
,,,,,,,,104,0,104,0,,,,,,,,,,,,,,,,,,,,,,,,,,,,,,,,,,,,,,,,,,,,,,,,,,,,,937.9635976003483,None,,,,,,,,,,,,,,,,,,,,,,,,,,,,,,,,,,,nail,19,105,sing,white,935.9510000003502,None,None,935.9510000003502,None,,,,,,,,,,,,,,,,,,,,,,,,,,,,,,33,001,2023_Apr_05_1019,ExactRep-v3-final,2021.2.3,59.9333901788076,
,,,,,,,,105,0,105,0,,,,,,,,,,,,,,,,,,,,,,,,,,,,,,,,,,,,,,,,,,,,,,,,,,,,,940.482796500437,None,,,,,,,,,,,,,,,,,,,,,,,,,,,,,,,,,,,glory,86,106,aloud,blue,938.4722134005278,None,None,938.4722134005278,None,,,,,,,,,,,,,,,,,,,,,,,,,,,,,,33,001,2023_Apr_05_1019,ExactRep-v3-final,2021.2.3,59.9333901788076,
,,,,,,,,106,0,106,0,,,,,,,,,,,,,,,,,,,,,,,,,,,,,,,,,,,,,,,,,,,,,,,,,,,,,943.0022027008235,None,,,,,,,,,,,,,,,,,,,,,,,,,,,,,,,,,,,gift,90,107,aloud,blue,940.9900137009099,None,None,940.9900137009099,None,,,,,,,,,,,,,,,,,,,,,,,,,,,,,,33,001,2023_Apr_05_1019,ExactRep-v3-final,2021.2.3,59.9333901788076,
,,,,,,,,107,0,107,0,,,,,,,,,,,,,,,,,,,,,,,,,,,,,,,,,,,,,,,,,,,,,,,,,,,,,945.5046300003305,None,,,,,,,,,,,,,,,,,,,,,,,,,,,,,,,,,,,death,104,108,aloud,blue,943.5049234004691,None,None,943.5049234004691,None,,,,,,,,,,,,,,,,,,,,,,,,,,,,,,33,001,2023_Apr_05_1019,ExactRep-v3-final,2021.2.3,59.9333901788076,
,,,,,,,,108,0,108,0,,,,,,,,,,,,,,,,,,,,,,,,,,,,,,,,,,,,,,,,,,,,,,,,,,,,,948.0071410005912,None,,,,,,,,,,,,,,,,,,,,,,,,,,,,,,,,,,,vision,107,109,aloud,blue,946.0068171005696,None,None,946.0068171005696,None,,,,,,,,,,,,,,,,,,,,,,,,,,,,,,33,001,2023_Apr_05_1019,ExactRep-v3-final,2021.2.3,59.9333901788076,
,,,,,,,,109,0,109,0,,,,,,,,,,,,,,,,,,,,,,,,,,,,,,,,,,,,,,,,,,,,,,,,,,,,,950.5264170002192,None,,,,,,,,,,,,,,,,,,,,,,,,,,,,,,,,,,,cost,44,110,silent,red,948.5110677005723,None,None,948.5110677005723,None,,,,,,,,,,,,,,,,,,,,,,,,,,,,,,33,001,2023_Apr_05_1019,ExactRep-v3-final,2021.2.3,59.9333901788076,
,,,,,,,,110,0,110,0,,,,,,,,,,,,,,,,,,,,,,,,,,,,,,,,,,,,,,,,,,,,,,,,,,,,,953.045636200346,None,,,,,,,,,,,,,,,,,,,,,,,,,,,,,,,,,,,ticket,3,111,sing,white,951.0348738003522,None,None,951.0348738003522,None,,,,,,,,,,,,,,,,,,,,,,,,,,,,,,33,001,2023_Apr_05_1019,ExactRep-v3-final,2021.2.3,59.9333901788076,
,,,,,,,,111,0,111,0,,,,,,,,,,,,,,,,,,,,,,,,,,,,,,,,,,,,,,,,,,,,,,,,,,,,,955.5480242008343,None,,,,,,,,,,,,,,,,,,,,,,,,,,,,,,,,,,,breast,113,112,aloud,blue,953.5459005003795,None,None,953.5459005003795,None,,,,,,,,,,,,,,,,,,,,,,,,,,,,,,33,001,2023_Apr_05_1019,ExactRep-v3-final,2021.2.3,59.9333901788076,
,,,,,,,,112,0,112,0,,,,,,,,,,,,,,,,,,,,,,,,,,,,,,,,,,,,,,,,,,,,,,,,,,,,,958.0506013007835,None,,,,,,,,,,,,,,,,,,,,,,,,,,,,,,,,,,,opinion,16,113,sing,white,956.048357100226,None,None,956.048357100226,None,,,,,,,,,,,,,,,,,,,,,,,,,,,,,,33,001,2023_Apr_05_1019,ExactRep-v3-final,2021.2.3,59.9333901788076,
,,,,,,,,113,0,113,0,,,,,,,,,,,,,,,,,,,,,,,,,,,,,,,,,,,,,,,,,,,,,,,,,,,,,960.5695773009211,None,,,,,,,,,,,,,,,,,,,,,,,,,,,,,,,,,,,sky,108,114,aloud,blue,958.5575547004119,None,None,958.5575547004119,None,,,,,,,,,,,,,,,,,,,,,,,,,,,,,,33,001,2023_Apr_05_1019,ExactRep-v3-final,2021.2.3,59.9333901788076,
,,,,,,,,114,0,114,0,,,,,,,,,,,,,,,,,,,,,,,,,,,,,,,,,,,,,,,,,,,,,,,,,,,,,963.0722130006179,None,,,,,,,,,,,,,,,,,,,,,,,,,,,,,,,,,,,artist,17,115,sing,white,961.0717178005725,None,None,961.0717178005725,None,,,,,,,,,,,,,,,,,,,,,,,,,,,,,,33,001,2023_Apr_05_1019,ExactRep-v3-final,2021.2.3,59.9333901788076,
,,,,,,,,115,0,115,0,,,,,,,,,,,,,,,,,,,,,,,,,,,,,,,,,,,,,,,,,,,,,,,,,,,,,965.5914039006457,None,,,,,,,,,,,,,,,,,,,,,,,,,,,,,,,,,,,king,93,116,aloud,blue,963.5794539004564,None,None,963.5794539004564,None,,,,,,,,,,,,,,,,,,,,,,,,,,,,,,33,001,2023_Apr_05_1019,ExactRep-v3-final,2021.2.3,59.9333901788076,
,,,,,,,,116,0,116,0,,,,,,,,,,,,,,,,,,,,,,,,,,,,,,,,,,,,,,,,,,,,,,,,,,,,,968.0937728006393,None,,,,,,,,,,,,,,,,,,,,,,,,,,,,,,,,,,,lake,11,117,sing,white,966.0936160003766,None,None,966.0936160003766,None,,,,,,,,,,,,,,,,,,,,,,,,,,,,,,33,001,2023_Apr_05_1019,ExactRep-v3-final,2021.2.3,59.9333901788076,
,,,,,,,,117,0,117,0,,,,,,,,,,,,,,,,,,,,,,,,,,,,,,,,,,,,,,,,,,,,,,,,,,,,,970.6131226001307,None,,,,,,,,,,,,,,,,,,,,,,,,,,,,,,,,,,,temple,114,118,aloud,blue,968.5993391005322,None,None,968.5993391005322,None,,,,,,,,,,,,,,,,,,,,,,,,,,,,,,33,001,2023_Apr_05_1019,ExactRep-v3-final,2021.2.3,59.9333901788076,
,,,,,,,,118,0,118,0,,,,,,,,,,,,,,,,,,,,,,,,,,,,,,,,,,,,,,,,,,,,,,,,,,,,,973.1155710006133,None,,,,,,,,,,,,,,,,,,,,,,,,,,,,,,,,,,,grief,78,119,silent,red,971.1135762007907,None,None,971.1135762007907,None,,,,,,,,,,,,,,,,,,,,,,,,,,,,,,33,001,2023_Apr_05_1019,ExactRep-v3-final,2021.2.3,59.9333901788076,
,,,,,,,,119,0,119,0,,,,,,,,,,,,,,,,,,,,,,,,,,,,,,,,,,,,,,,,,,,,,,,,,,,,,975.6347467005253,None,,,,,,,,,,,,,,,,,,,,,,,,,,,,,,,,,,,shock,61,120,silent,red,973.6194909000769,None,None,973.6194909000769,None,,,,,,,,,,,,,,,,,,,,,,,,,,,,,,33,001,2023_Apr_05_1019,ExactRep-v3-final,2021.2.3,59.9333901788076,
,,,,,,,,,,,,,,,,,,,,,,,,,,,,,,,,,,,,,,,,,,,,,,,,,,,,,,,,,,,,,,,,,,,,,,,,,,,,,,,,,,,,,,,,,,,,,,,,,,,,,,,,,,,,,,976.1369299003854,None,space,9.16639359947294,986.1131775006652,None,,,,,,,,,,,,,,,,,,,,,,,,33,001,2023_Apr_05_1019,ExactRep-v3-final,2021.2.3,59.9333901788076,
,,,,,,,,,,,,,,,,,,,,,,,,,,,,,,,,,,,,,,,,,,,,,,,,,,,,,,,,,,,,,,,,,,,,,,,,,,,,,,,,,,,,,,,,,,,,,,,,,,,,,,,,,,,,,,,,,,,,995.3062348002568,None,space,30.708905500359833,1005.2825709003955,None,,,,,,,,,,,,,,,,,,33,001,2023_Apr_05_1019,ExactRep-v3-final,2021.2.3,59.9333901788076,
,,,,,,,,,,,,0,0,0,0,,,,,,,,,,,,,,,,,,,,,,,,,,,,,,,,,,,,,,,,,,,,,,,,,1043.722413400188,None,,,,,,,,,,,,,,,,,,,,,,,,,,,,,,,,,,,,,,,,,,,,,,,,,,,,,,,,,length,155,1,silent,new,yellow,1036.5234838007018,None,n,1036.5234838007018,None,"['n', 'return']","[3.636051599867642, 7.163843600079417]",1036.5234838007018,None,,,33,001,2023_Apr_05_1019,ExactRep-v3-final,2021.2.3,59.9333901788076,
,,,,,,,,,,,,1,0,1,0,,,,,,,,,,,,,,,,,,,,,,,,,,,,,,,,,,,,,,,,,,,,,,,,,1048.8246058002114,None,,,,,,,,,,,,,,,,,,,,,,,,,,,,,,,,,,,,,,,,,,,,,,,,,,,,,,,,,speech,50,2,silent,old,yellow,1044.2400309005752,None,y,1044.2400309005752,None,"['y', 'return']","[3.871413799934089, 4.551495299674571]",1044.2400309005752,None,,,33,001,2023_Apr_05_1019,ExactRep-v3-final,2021.2.3,59.9333901788076,
,,,,,,,,,,,,2,0,2,0,,,,,,,,,,,,,,,,,,,,,,,,,,,,,,,,,,,,,,,,,,,,,,,,,1051.911023300141,None,,,,,,,,,,,,,,,,,,,,,,,,,,,,,,,,,,,,,,,,,,,,,,,,,,,,,,,,,dream,58,3,silent,old,yellow,1049.3343064002693,None,n,1049.3343064002693,None,"['n', 'return']","[2.049126600846648, 2.545011800713837]",1049.3343064002693,None,,,33,001,2023_Apr_05_1019,ExactRep-v3-final,2021.2.3,59.9333901788076,
,,,,,,,,,,,,3,0,3,0,,,,,,,,,,,,,,,,,,,,,,,,,,,,,,,,,,,,,,,,,,,,,,,,,1054.496947400272,None,,,,,,,,,,,,,,,,,,,,,,,,,,,,,,,,,,,,,,,,,,,,,,,,,,,,,,,,,air,231,4,sing,new,yellow,1052.4200348006561,None,n,1052.4200348006561,None,"['n', 'return']","[1.523199399933219, 2.0351788997650146]",1052.4200348006561,None,,,33,001,2023_Apr_05_1019,ExactRep-v3-final,2021.2.3,59.9333901788076,
,,,,,,,,,,,,4,0,4,0,,,,,,,,,,,,,,,,,,,,,,,,,,,,,,,,,,,,,,,,,,,,,,,,,1060.0523805003613,None,,,,,,,,,,,,,,,,,,,,,,,,,,,,,,,,,,,,,,,,,,,,,,,,,,,,,,,,,priest,219,5,sing,new,yellow,1055.005136700347,None,n,1055.005136700347,None,"['y', 'backspace', 'n', 'return']","[2.3703089002519846, 3.8422643998637795, 4.66630080062896, 5.002164900302887]",1055.005136700347,None,,,33,001,2023_Apr_05_1019,ExactRep-v3-final,2021.2.3,59.9333901788076,
,,,,,,,,,,,,5,0,5,0,,,,,,,,,,,,,,,,,,,,,,,,,,,,,,,,,,,,,,,,,,,,,,,,,1063.322263800539,None,,,,,,,,,,,,,,,,,,,,,,,,,,,,,,,,,,,,,,,,,,,,,,,,,,,,,,,,,advice,23,6,sing,old,yellow,1060.5589443007484,None,y,1060.5589443007484,None,"['y', 'return']","[2.2563048005104065, 2.7203310998156667]",1060.5589443007484,None,,,33,001,2023_Apr_05_1019,ExactRep-v3-final,2021.2.3,59.9333901788076,
,,,,,,,,,,,,6,0,6,0,,,,,,,,,,,,,,,,,,,,,,,,,,,,,,,,,,,,,,,,,,,,,,,,,1065.9917019000277,None,,,,,,,,,,,,,,,,,,,,,,,,,,,,,,,,,,,,,,,,,,,,,,,,,,,,,,,,,army,55,7,silent,old,yellow,1063.8354058004916,None,y,1063.8354058004916,None,"['y', 'return']","[1.6038822997361422, 2.123980199918151]",1063.8354058004916,None,,,33,001,2023_Apr_05_1019,ExactRep-v3-final,2021.2.3,59.9333901788076,
,,,,,,,,,,,,7,0,7,0,,,,,,,,,,,,,,,,,,,,,,,,,,,,,,,,,,,,,,,,,,,,,,,,,1068.3105769008398,None,,,,,,,,,,,,,,,,,,,,,,,,,,,,,,,,,,,,,,,,,,,,,,,,,,,,,,,,,iron,0,8,sing,old,yellow,1066.507658100687,None,y,1066.507658100687,None,"['y', 'return']","[1.2518012002110481, 1.7555733993649483]",1066.507658100687,None,,,33,001,2023_Apr_05_1019,ExactRep-v3-final,2021.2.3,59.9333901788076,
,,,,,,,,,,,,8,0,8,0,,,,,,,,,,,,,,,,,,,,,,,,,,,,,,,,,,,,,,,,,,,,,,,,,1070.529647900723,None,,,,,,,,,,,,,,,,,,,,,,,,,,,,,,,,,,,,,,,,,,,,,,,,,,,,,,,,,apple,234,9,aloud,new,yellow,1068.8143115006387,None,n,1068.8143115006387,None,"['n', 'return']","[1.209006099961698, 1.6729770991951227]",1068.8143115006387,None,,,33,001,2023_Apr_05_1019,ExactRep-v3-final,2021.2.3,59.9333901788076,
,,,,,,,,,,,,9,0,9,0,,,,,,,,,,,,,,,,,,,,,,,,,,,,,,,,,,,,,,,,,,,,,,,,,1072.86513160076,None,,,,,,,,,,,,,,,,,,,,,,,,,,,,,,,,,,,,,,,,,,,,,,,,,,,,,,,,,hope,186,10,aloud,new,yellow,1071.0370602002367,None,n,1071.0370602002367,None,"['n', 'return']","[1.3302375003695488, 1.7862106002867222]",1071.0370602002367,None,,,33,001,2023_Apr_05_1019,ExactRep-v3-final,2021.2.3,59.9333901788076,
,,,,,,,,,,,,10,0,10,0,,,,,,,,,,,,,,,,,,,,,,,,,,,,,,,,,,,,,,,,,,,,,,,,,1076.368643800728,None,,,,,,,,,,,,,,,,,,,,,,,,,,,,,,,,,,,,,,,,,,,,,,,,,,,,,,,,,machine,47,11,silent,old,yellow,1073.3780553005636,None,n,1073.3780553005636,None,"['n', 'return']","[2.4612028002738953, 2.957229900173843]",1073.3780553005636,None,,,33,001,2023_Apr_05_1019,ExactRep-v3-final,2021.2.3,59.9333901788076,
,,,,,,,,,,,,11,0,11,0,,,,,,,,,,,,,,,,,,,,,,,,,,,,,,,,,,,,,,,,,,,,,,,,,1078.8045670008287,None,,,,,,,,,,,,,,,,,,,,,,,,,,,,,,,,,,,,,,,,,,,,,,,,,,,,,,,,,horse,193,12,sing,new,yellow,1076.8786127008498,None,n,1076.8786127008498,None,"['n', 'return']","[1.3926948001608253, 1.8807090008631349]",1076.8786127008498,None,,,33,001,2023_Apr_05_1019,ExactRep-v3-final,2021.2.3,59.9333901788076,
,,,,,,,,,,,,12,0,12,0,,,,,,,,,,,,,,,,,,,,,,,,,,,,,,,,,,,,,,,,,,,,,,,,,1081.3903300007805,None,,,,,,,,,,,,,,,,,,,,,,,,,,,,,,,,,,,,,,,,,,,,,,,,,,,,,,,,,arm,201,13,sing,new,yellow,1079.3158445004374,None,n,1079.3158445004374,None,"['n', 'return']","[1.4035302000120282, 2.0274812998250127]",1079.3158445004374,None,,,33,001,2023_Apr_05_1019,ExactRep-v3-final,2021.2.3,59.9333901788076,
,,,,,,,,,,,,13,0,13,0,,,,,,,,,,,,,,,,,,,,,,,,,,,,,,,,,,,,,,,,,,,,,,,,,1083.6176927005872,None,,,,,,,,,,,,,,,,,,,,,,,,,,,,,,,,,,,,,,,,,,,,,,,,,,,,,,,,,blossom,74,14,silent,old,yellow,1081.9018473001197,None,y,1081.9018473001197,None,"['y', 'return']","[1.169534900225699, 1.673390000127256]",1081.9018473001197,None,,,33,001,2023_Apr_05_1019,ExactRep-v3-final,2021.2.3,59.9333901788076,
,,,,,,,,,,,,14,0,14,0,,,,,,,,,,,,,,,,,,,,,,,,,,,,,,,,,,,,,,,,,,,,,,,,,1086.14501820039,None,,,,,,,,,,,,,,,,,,,,,,,,,,,,,,,,,,,,,,,,,,,,,,,,,,,,,,,,,toy,18,15,sing,old,yellow,1084.126461200416,None,n,1084.126461200416,None,"['n', 'return']","[1.4889073995873332, 1.9849926000460982]",1084.126461200416,None,,,33,001,2023_Apr_05_1019,ExactRep-v3-final,2021.2.3,59.9333901788076,
,,,,,,,,,,,,15,0,15,0,,,,,,,,,,,,,,,,,,,,,,,,,,,,,,,,,,,,,,,,,,,,,,,,,1088.5476436000317,None,,,,,,,,,,,,,,,,,,,,,,,,,,,,,,,,,,,,,,,,,,,,,,,,,,,,,,,,,time,204,16,aloud,new,yellow,1086.6540916003287,None,n,1086.6540916003287,None,"['n', 'return']","[1.4252941999584436, 1.8572329003363848]",1086.6540916003287,None,,,33,001,2023_Apr_05_1019,ExactRep-v3-final,2021.2.3,59.9333901788076,
,,,,,,,,,,,,16,0,16,0,,,,,,,,,,,,,,,,,,,,,,,,,,,,,,,,,,,,,,,,,,,,,,,,,1091.3346480000764,None,,,,,,,,,,,,,,,,,,,,,,,,,,,,,,,,,,,,,,,,,,,,,,,,,,,,,,,,,artist,17,17,sing,old,yellow,1089.0605425005779,None,y,1089.0605425005779,None,"['y', 'return']","[1.770843000151217, 2.2268174001947045]",1089.0605425005779,None,,,33,001,2023_Apr_05_1019,ExactRep-v3-final,2021.2.3,59.9333901788076,
,,,,,,,,,,,,17,0,17,0,,,,,,,,,,,,,,,,,,,,,,,,,,,,,,,,,,,,,,,,,,,,,,,,,1096.405422700569,None,,,,,,,,,,,,,,,,,,,,,,,,,,,,,,,,,,,,,,,,,,,,,,,,,,,,,,,,,honour,141,18,silent,new,yellow,1091.8435286004096,None,n,1091.8435286004096,None,"['n', 'return']","[4.035712799988687, 4.515796300023794]",1091.8435286004096,None,,,33,001,2023_Apr_05_1019,ExactRep-v3-final,2021.2.3,59.9333901788076,
,,,,,,,,,,,,18,0,18,0,,,,,,,,,,,,,,,,,,,,,,,,,,,,,,,,,,,,,,,,,,,,,,,,,1098.457387700677,None,,,,,,,,,,,,,,,,,,,,,,,,,,,,,,,,,,,,,,,,,,,,,,,,,,,,,,,,,cat,156,19,silent,new,yellow,1096.9181502005085,None,n,1096.9181502005085,None,"['n', 'return']","[1.0811476996168494, 1.5050996001809835]",1096.9181502005085,None,,,33,001,2023_Apr_05_1019,ExactRep-v3-final,2021.2.3,59.9333901788076,
,,,,,,,,,,,,19,0,19,0,,,,,,,,,,,,,,,,,,,,,,,,,,,,,,,,,,,,,,,,,,,,,,,,,1100.8429991006851,None,,,,,,,,,,,,,,,,,,,,,,,,,,,,,,,,,,,,,,,,,,,,,,,,,,,,,,,,,victory,170,20,aloud,new,yellow,1098.9703081008047,None,n,1098.9703081008047,None,"['n', 'return']","[1.3409538995474577, 1.8371626995503902]",1098.9703081008047,None,,,33,001,2023_Apr_05_1019,ExactRep-v3-final,2021.2.3,59.9333901788076,
,,,,,,,,,,,,20,0,20,0,,,,,,,,,,,,,,,,,,,,,,,,,,,,,,,,,,,,,,,,,,,,,,,,,1102.9118816005066,None,,,,,,,,,,,,,,,,,,,,,,,,,,,,,,,,,,,,,,,,,,,,,,,,,,,,,,,,,boulder,89,21,aloud,old,yellow,1101.3515319004655,None,y,1101.3515319004655,None,"['y', 'return']","[1.0798211004585028, 1.5277456007897854]",1101.3515319004655,None,,,33,001,2023_Apr_05_1019,ExactRep-v3-final,2021.2.3,59.9333901788076,
,,,,,,,,,,,,21,0,21,0,,,,,,,,,,,,,,,,,,,,,,,,,,,,,,,,,,,,,,,,,,,,,,,,,1105.1307452004403,None,,,,,,,,,,,,,,,,,,,,,,,,,,,,,,,,,,,,,,,,,,,,,,,,,,,,,,,,,child,232,22,aloud,new,yellow,1103.4219117006287,None,n,1103.4219117006287,None,"['n', 'return']","[1.2413341999053955, 1.6735124997794628]",1103.4219117006287,None,,,33,001,2023_Apr_05_1019,ExactRep-v3-final,2021.2.3,59.9333901788076,
,,,,,,,,,,,,22,0,22,0,,,,,,,,,,,,,,,,,,,,,,,,,,,,,,,,,,,,,,,,,,,,,,,,,1109.2014383003116,None,,,,,,,,,,,,,,,,,,,,,,,,,,,,,,,,,,,,,,,,,,,,,,,,,,,,,,,,,humour,205,23,sing,new,yellow,1105.6407578000799,None,y,1105.6407578000799,None,"['y', 'return']","[3.038558599539101, 3.5185532001778483]",1105.6407578000799,None,,,33,001,2023_Apr_05_1019,ExactRep-v3-final,2021.2.3,59.9333901788076,
,,,,,,,,,,,,23,0,23,0,,,,,,,,,,,,,,,,,,,,,,,,,,,,,,,,,,,,,,,,,,,,,,,,,1111.2368418006226,None,,,,,,,,,,,,,,,,,,,,,,,,,,,,,,,,,,,,,,,,,,,,,,,,,,,,,,,,,lip,177,24,sing,new,yellow,1109.7106641000137,None,n,1109.7106641000137,None,"['n', 'return']","[1.016640200279653, 1.4806403005495667]",1109.7106641000137,None,,,33,001,2023_Apr_05_1019,ExactRep-v3-final,2021.2.3,59.9333901788076,
,,,,,,,,,,,,24,0,24,0,,,,,,,,,,,,,,,,,,,,,,,,,,,,,,,,,,,,,,,,,,,,,,,,,1114.790391200222,None,,,,,,,,,,,,,,,,,,,,,,,,,,,,,,,,,,,,,,,,,,,,,,,,,,,,,,,,,book,95,25,aloud,old,yellow,1111.7535646008328,None,n,1111.7535646008328,None,"['n', 'return']","[2.55763900000602, 2.989766299724579]",1111.7535646008328,None,,,33,001,2023_Apr_05_1019,ExactRep-v3-final,2021.2.3,59.9333901788076,
,,,,,,,,,,,,25,0,25,0,,,,,,,,,,,,,,,,,,,,,,,,,,,,,,,,,,,,,,,,,,,,,,,,,1120.9966054009274,None,,,,,,,,,,,,,,,,,,,,,,,,,,,,,,,,,,,,,,,,,,,,,,,,,,,,,,,,,leader,123,26,silent,new,yellow,1115.298359600827,None,n,1115.298359600827,None,"['n', 'return']","[1.3328569997102022, 5.653079600073397]",1115.298359600827,None,,,33,001,2023_Apr_05_1019,ExactRep-v3-final,2021.2.3,59.9333901788076,
,,,,,,,,,,,,26,0,26,0,,,,,,,,,,,,,,,,,,,,,,,,,,,,,,,,,,,,,,,,,,,,,,,,,1123.348948600702,None,,,,,,,,,,,,,,,,,,,,,,,,,,,,,,,,,,,,,,,,,,,,,,,,,,,,,,,,,justice,28,27,sing,old,yellow,1121.5078517002985,None,y,1121.5078517002985,None,"['y', 'return']","[1.2114314995706081, 1.795601699501276]",1121.5078517002985,None,,,33,001,2023_Apr_05_1019,ExactRep-v3-final,2021.2.3,59.9333901788076,
,,,,,,,,,,,,27,0,27,0,,,,,,,,,,,,,,,,,,,,,,,,,,,,,,,,,,,,,,,,,,,,,,,,,1132.608388000168,None,,,,,,,,,,,,,,,,,,,,,,,,,,,,,,,,,,,,,,,,,,,,,,,,,,,,,,,,,fate,76,28,silent,old,yellow,1123.8593042008579,None,y,1123.8593042008579,None,"['y', 'return']","[8.196128499694169, 8.708091800101101]",1123.8593042008579,None,,,33,001,2023_Apr_05_1019,ExactRep-v3-final,2021.2.3,59.9333901788076,
,,,,,,,,,,,,28,0,28,0,,,,,,,,,,,,,,,,,,,,,,,,,,,,,,,,,,,,,,,,,,,,,,,,,1135.3609614009038,None,,,,,,,,,,,,,,,,,,,,,,,,,,,,,,,,,,,,,,,,,,,,,,,,,,,,,,,,,trouble,166,29,aloud,new,yellow,1133.121854800731,None,n,1133.121854800731,None,"['n', 'return']","[1.7337319003418088, 2.1975038005039096]",1133.121854800731,None,,,33,001,2023_Apr_05_1019,ExactRep-v3-final,2021.2.3,59.9333901788076,
,,,,,,,,,,,,29,0,29,0,,,,,,,,,,,,,,,,,,,,,,,,,,,,,,,,,,,,,,,,,,,,,,,,,1138.3806582000107,None,,,,,,,,,,,,,,,,,,,,,,,,,,,,,,,,,,,,,,,,,,,,,,,,,,,,,,,,,gold,176,30,aloud,new,yellow,1135.8718329006806,None,n,1135.8718329006806,None,"['n', 'return']","[2.04750909935683, 2.463608999736607]",1135.8718329006806,None,,,33,001,2023_Apr_05_1019,ExactRep-v3-final,2021.2.3,59.9333901788076,
,,,,,,,,,,,,30,0,30,0,,,,,,,,,,,,,,,,,,,,,,,,,,,,,,,,,,,,,,,,,,,,,,,,,1140.6831114003435,None,,,,,,,,,,,,,,,,,,,,,,,,,,,,,,,,,,,,,,,,,,,,,,,,,,,,,,,,,present,158,31,silent,new,yellow,1138.9005457004532,None,y,1138.9005457004532,None,"['y', 'return']","[1.2667960999533534, 1.7387613002210855]",1138.9005457004532,None,,,33,001,2023_Apr_05_1019,ExactRep-v3-final,2021.2.3,59.9333901788076,
,,,,,,,,,,,,31,0,31,0,,,,,,,,,,,,,,,,,,,,,,,,,,,,,,,,,,,,,,,,,,,,,,,,,1143.936193600297,None,,,,,,,,,,,,,,,,,,,,,,,,,,,,,,,,,,,,,,,,,,,,,,,,,,,,,,,,,judge,91,32,aloud,old,yellow,1141.194350800477,None,y,1141.194350800477,None,"['y', 'return']","[2.205007500015199, 2.7010067999362946]",1141.194350800477,None,,,33,001,2023_Apr_05_1019,ExactRep-v3-final,2021.2.3,59.9333901788076,
,,,,,,,,,,,,32,0,32,0,,,,,,,,,,,,,,,,,,,,,,,,,,,,,,,,,,,,,,,,,,,,,,,,,1147.3062526006252,None,,,,,,,,,,,,,,,,,,,,,,,,,,,,,,,,,,,,,,,,,,,,,,,,,,,,,,,,,science,42,33,silent,old,yellow,1144.4366812007502,None,n,1144.4366812007502,None,"['n', 'return']","[2.194841799326241, 2.8266492998227477]",1144.4366812007502,None,,,33,001,2023_Apr_05_1019,ExactRep-v3-final,2021.2.3,59.9333901788076,
,,,,,,,,,,,,33,0,33,0,,,,,,,,,,,,,,,,,,,,,,,,,,,,,,,,,,,,,,,,,,,,,,,,,1154.5134519003332,None,,,,,,,,,,,,,,,,,,,,,,,,,,,,,,,,,,,,,,,,,,,,,,,,,,,,,,,,,dress,66,34,silent,old,yellow,1147.8136950004846,None,y,1147.8136950004846,None,"['n', 'backspace', 'y', 'return']","[4.281795600429177, 5.689678700640798, 6.257726900279522, 6.6577698001638055]",1147.8136950004846,None,,,33,001,2023_Apr_05_1019,ExactRep-v3-final,2021.2.3,59.9333901788076,
,,,,,,,,,,,,34,0,34,0,,,,,,,,,,,,,,,,,,,,,,,,,,,,,,,,,,,,,,,,,,,,,,,,,1157.032708200626,None,,,,,,,,,,,,,,,,,,,,,,,,,,,,,,,,,,,,,,,,,,,,,,,,,,,,,,,,,duty,172,35,aloud,new,yellow,1155.0223150001839,None,n,1155.0223150001839,None,"['n', 'return']","[1.5210242997854948, 1.9770438997074962]",1155.0223150001839,None,,,33,001,2023_Apr_05_1019,ExactRep-v3-final,2021.2.3,59.9333901788076,
,,,,,,,,,,,,35,0,35,0,,,,,,,,,,,,,,,,,,,,,,,,,,,,,,,,,,,,,,,,,,,,,,,,,1159.2349961008877,None,,,,,,,,,,,,,,,,,,,,,,,,,,,,,,,,,,,,,,,,,,,,,,,,,,,,,,,,,stone,134,36,silent,new,yellow,1157.5424099005759,None,n,1157.5424099005759,None,"['n', 'return']","[1.2169722001999617, 1.64892110042274]",1157.5424099005759,None,,,33,001,2023_Apr_05_1019,ExactRep-v3-final,2021.2.3,59.9333901788076,
,,,,,,,,,,,,36,0,36,0,,,,,,,,,,,,,,,,,,,,,,,,,,,,,,,,,,,,,,,,,,,,,,,,,1161.220244500786,None,,,,,,,,,,,,,,,,,,,,,,,,,,,,,,,,,,,,,,,,,,,,,,,,,,,,,,,,,lad,169,37,sing,new,yellow,1159.7458593007177,None,n,1159.7458593007177,None,"['n', 'return']","[0.9974267994984984, 1.4294451996684074]",1159.7458593007177,None,,,33,001,2023_Apr_05_1019,ExactRep-v3-final,2021.2.3,59.9333901788076,
,,,,,,,,,,,,37,0,37,0,,,,,,,,,,,,,,,,,,,,,,,,,,,,,,,,,,,,,,,,,,,,,,,,,1163.3223247006536,None,,,,,,,,,,,,,,,,,,,,,,,,,,,,,,,,,,,,,,,,,,,,,,,,,,,,,,,,,opinion,16,38,sing,old,yellow,1161.7206732006744,None,y,1161.7206732006744,None,"['y', 'return']","[1.1347548998892307, 1.566661899909377]",1161.7206732006744,None,,,33,001,2023_Apr_05_1019,ExactRep-v3-final,2021.2.3,59.9333901788076,
,,,,,,,,,,,,38,0,38,0,,,,,,,,,,,,,,,,,,,,,,,,,,,,,,,,,,,,,,,,,,,,,,,,,1165.2242359006777,None,,,,,,,,,,,,,,,,,,,,,,,,,,,,,,,,,,,,,,,,,,,,,,,,,,,,,,,,,dollar,227,39,sing,new,yellow,1163.8323493003845,None,n,1163.8323493003845,None,"['n', 'return']","[0.887173899449408, 1.3510501999408007]",1163.8323493003845,None,,,33,001,2023_Apr_05_1019,ExactRep-v3-final,2021.2.3,59.9333901788076,
,,,,,,,,,,,,39,0,39,0,,,,,,,,,,,,,,,,,,,,,,,,,,,,,,,,,,,,,,,,,,,,,,,,,1167.2263534003869,None,,,,,,,,,,,,,,,,,,,,,,,,,,,,,,,,,,,,,,,,,,,,,,,,,,,,,,,,,memory,8,40,sing,old,yellow,1165.7350344005972,None,y,1165.7350344005972,None,"['y', 'return']","[0.9283173996955156, 1.4562727995216846]",1165.7350344005972,None,,,33,001,2023_Apr_05_1019,ExactRep-v3-final,2021.2.3,59.9333901788076,
,,,,,,,,,,,,40,0,40,0,,,,,,,,,,,,,,,,,,,,,,,,,,,,,,,,,,,,,,,,,,,,,,,,,1170.262539400719,None,,,,,,,,,,,,,,,,,,,,,,,,,,,,,,,,,,,,,,,,,,,,,,,,,,,,,,,,,form,60,41,silent,old,yellow,1167.7280020006,None,n,1167.7280020006,None,"['n', 'return']","[2.0395263992249966, 2.4954509995877743]",1167.7280020006,None,,,33,001,2023_Apr_05_1019,ExactRep-v3-final,2021.2.3,59.9333901788076,
,,,,,,,,,,,,41,0,41,0,,,,,,,,,,,,,,,,,,,,,,,,,,,,,,,,,,,,,,,,,,,,,,,,,1174.032975400798,None,,,,,,,,,,,,,,,,,,,,,,,,,,,,,,,,,,,,,,,,,,,,,,,,,,,,,,,,,gift,90,42,aloud,old,yellow,1170.768002600409,None,y,1170.768002600409,None,"['y', 'return']","[2.7994617000222206, 3.231338200159371]",1170.768002600409,None,,,33,001,2023_Apr_05_1019,ExactRep-v3-final,2021.2.3,59.9333901788076,
,,,,,,,,,,,,42,0,42,0,,,,,,,,,,,,,,,,,,,,,,,,,,,,,,,,,,,,,,,,,,,,,,,,,1176.001754200086,None,,,,,,,,,,,,,,,,,,,,,,,,,,,,,,,,,,,,,,,,,,,,,,,,,,,,,,,,,city,235,43,sing,new,yellow,1174.5415734006092,None,n,1174.5415734006092,None,"['n', 'return']","[0.9378305003046989, 1.4178430996835232]",1174.5415734006092,None,,,33,001,2023_Apr_05_1019,ExactRep-v3-final,2021.2.3,59.9333901788076,
,,,,,,,,,,,,43,0,43,0,,,,,,,,,,,,,,,,,,,,,,,,,,,,,,,,,,,,,,,,,,,,,,,,,1178.1204866003245,None,,,,,,,,,,,,,,,,,,,,,,,,,,,,,,,,,,,,,,,,,,,,,,,,,,,,,,,,,green,26,44,sing,old,yellow,1176.5139733999968,None,n,1176.5139733999968,None,"['n', 'return']","[1.1573767000809312, 1.5653719995170832]",1176.5139733999968,None,,,33,001,2023_Apr_05_1019,ExactRep-v3-final,2021.2.3,59.9333901788076,
,,,,,,,,,,,,44,0,44,0,,,,,,,,,,,,,,,,,,,,,,,,,,,,,,,,,,,,,,,,,,,,,,,,,1182.7251659007743,None,,,,,,,,,,,,,,,,,,,,,,,,,,,,,,,,,,,,,,,,,,,,,,,,,,,,,,,,,fun,140,45,silent,new,yellow,1178.6293423008174,None,n,1178.6293423008174,None,"['n', 'return']","[3.194126700051129, 4.0580839002504945]",1178.6293423008174,None,,,33,001,2023_Apr_05_1019,ExactRep-v3-final,2021.2.3,59.9333901788076,
,,,,,,,,,,,,45,0,45,0,,,,,,,,,,,,,,,,,,,,,,,,,,,,,,,,,,,,,,,,,,,,,,,,,1184.7104332000017,None,,,,,,,,,,,,,,,,,,,,,,,,,,,,,,,,,,,,,,,,,,,,,,,,,,,,,,,,,chance,139,46,silent,new,yellow,1183.2418930009007,None,n,1183.2418930009007,None,"['n', 'return']","[1.013730600476265, 1.4217017004266381]",1183.2418930009007,None,,,33,001,2023_Apr_05_1019,ExactRep-v3-final,2021.2.3,59.9333901788076,
,,,,,,,,,,,,46,0,46,0,,,,,,,,,,,,,,,,,,,,,,,,,,,,,,,,,,,,,,,,,,,,,,,,,1188.130490200594,None,,,,,,,,,,,,,,,,,,,,,,,,,,,,,,,,,,,,,,,,,,,,,,,,,,,,,,,,,engine,223,47,sing,new,yellow,1185.2198315002024,None,y,1185.2198315002024,None,"['y', 'return']","[2.387726000510156, 2.8675564005970955]",1185.2198315002024,None,,,33,001,2023_Apr_05_1019,ExactRep-v3-final,2021.2.3,59.9333901788076,
,,,,,,,,,,,,47,0,47,0,,,,,,,,,,,,,,,,,,,,,,,,,,,,,,,,,,,,,,,,,,,,,,,,,1190.6162242004648,None,,,,,,,,,,,,,,,,,,,,,,,,,,,,,,,,,,,,,,,,,,,,,,,,,,,,,,,,,law,54,48,silent,old,yellow,1188.643293400295,None,n,1188.643293400295,None,"['n', 'return']","[1.5160850994288921, 1.9321213997900486]",1188.643293400295,None,,,33,001,2023_Apr_05_1019,ExactRep-v3-final,2021.2.3,59.9333901788076,
,,,,,,,,,,,,48,0,48,0,,,,,,,,,,,,,,,,,,,,,,,,,,,,,,,,,,,,,,,,,,,,,,,,,1192.7350322008133,None,,,,,,,,,,,,,,,,,,,,,,,,,,,,,,,,,,,,,,,,,,,,,,,,,,,,,,,,,avenue,215,49,sing,new,yellow,1191.1250175004825,None,n,1191.1250175004825,None,"['n', 'return']","[1.1464812001213431, 1.57039749994874]",1191.1250175004825,None,,,33,001,2023_Apr_05_1019,ExactRep-v3-final,2021.2.3,59.9333901788076,
,,,,,,,,,,,,49,0,49,0,,,,,,,,,,,,,,,,,,,,,,,,,,,,,,,,,,,,,,,,,,,,,,,,,1194.670380900614,None,,,,,,,,,,,,,,,,,,,,,,,,,,,,,,,,,,,,,,,,,,,,,,,,,,,,,,,,,shore,153,50,silent,new,yellow,1193.2425319002941,None,n,1193.2425319002941,None,"['n', 'return']","[1.0288572004064918, 1.3888847008347511]",1193.2425319002941,None,,,33,001,2023_Apr_05_1019,ExactRep-v3-final,2021.2.3,59.9333901788076,
,,,,,,,,,,,,50,0,50,0,,,,,,,,,,,,,,,,,,,,,,,,,,,,,,,,,,,,,,,,,,,,,,,,,1196.6722927000374,None,,,,,,,,,,,,,,,,,,,,,,,,,,,,,,,,,,,,,,,,,,,,,,,,,,,,,,,,,nail,19,51,sing,old,yellow,1195.1801341008395,None,y,1195.1801341008395,None,"['y', 'return']","[1.0352435996755958, 1.4512883992865682]",1195.1801341008395,None,,,33,001,2023_Apr_05_1019,ExactRep-v3-final,2021.2.3,59.9333901788076,
,,,,,,,,,,,,51,0,51,0,,,,,,,,,,,,,,,,,,,,,,,,,,,,,,,,,,,,,,,,,,,,,,,,,1198.4573575006798,None,,,,,,,,,,,,,,,,,,,,,,,,,,,,,,,,,,,,,,,,,,,,,,,,,,,,,,,,,breast,113,52,aloud,old,yellow,1197.1847740001976,None,y,1197.1847740001976,None,"['y', 'return']","[0.8225020999088883, 1.2385608004406095]",1197.1847740001976,None,,,33,001,2023_Apr_05_1019,ExactRep-v3-final,2021.2.3,59.9333901788076,
,,,,,,,,,,,,52,0,52,0,,,,,,,,,,,,,,,,,,,,,,,,,,,,,,,,,,,,,,,,,,,,,,,,,1201.226838200353,None,,,,,,,,,,,,,,,,,,,,,,,,,,,,,,,,,,,,,,,,,,,,,,,,,,,,,,,,,king,93,53,aloud,old,yellow,1198.9608579007909,None,y,1198.9608579007909,None,"['y', 'return']","[1.7107096007093787, 2.222443200647831]",1198.9608579007909,None,,,33,001,2023_Apr_05_1019,ExactRep-v3-final,2021.2.3,59.9333901788076,
,,,,,,,,,,,,53,0,53,0,,,,,,,,,,,,,,,,,,,,,,,,,,,,,,,,,,,,,,,,,,,,,,,,,1203.1787467002869,None,,,,,,,,,,,,,,,,,,,,,,,,,,,,,,,,,,,,,,,,,,,,,,,,,,,,,,,,,officer,30,54,sing,old,yellow,1201.7352119004354,None,y,1201.7352119004354,None,"['y', 'return']","[0.9043124001473188, 1.4084409000352025]",1201.7352119004354,None,,,33,001,2023_Apr_05_1019,ExactRep-v3-final,2021.2.3,59.9333901788076,
,,,,,,,,,,,,54,0,54,0,,,,,,,,,,,,,,,,,,,,,,,,,,,,,,,,,,,,,,,,,,,,,,,,,1205.3644554000348,None,,,,,,,,,,,,,,,,,,,,,,,,,,,,,,,,,,,,,,,,,,,,,,,,,,,,,,,,,church,111,55,aloud,old,yellow,1203.690785500221,None,y,1203.690785500221,None,"['y', 'return']","[1.1248490000143647, 1.6366968993097544]",1203.690785500221,None,,,33,001,2023_Apr_05_1019,ExactRep-v3-final,2021.2.3,59.9333901788076,
,,,,,,,,,,,,55,0,55,0,,,,,,,,,,,,,,,,,,,,,,,,,,,,,,,,,,,,,,,,,,,,,,,,,1208.651091100648,None,,,,,,,,,,,,,,,,,,,,,,,,,,,,,,,,,,,,,,,,,,,,,,,,,,,,,,,,,lake,11,56,sing,old,yellow,1205.8778891004622,None,y,1205.8778891004622,None,"['y', 'return']","[2.2414448000490665, 2.729518000036478]",1205.8778891004622,None,,,33,001,2023_Apr_05_1019,ExactRep-v3-final,2021.2.3,59.9333901788076,
,,,,,,,,,,,,56,0,56,0,,,,,,,,,,,,,,,,,,,,,,,,,,,,,,,,,,,,,,,,,,,,,,,,,1212.1043685004115,None,,,,,,,,,,,,,,,,,,,,,,,,,,,,,,,,,,,,,,,,,,,,,,,,,,,,,,,,,glory,86,57,aloud,old,yellow,1209.1643144004047,None,y,1209.1643144004047,None,"['y', 'return']","[2.419119200669229, 2.8991227000951767]",1209.1643144004047,None,,,33,001,2023_Apr_05_1019,ExactRep-v3-final,2021.2.3,59.9333901788076,
,,,,,,,,,,,,57,0,57,0,,,,,,,,,,,,,,,,,,,,,,,,,,,,,,,,,,,,,,,,,,,,,,,,,1214.6068918006495,None,,,,,,,,,,,,,,,,,,,,,,,,,,,,,,,,,,,,,,,,,,,,,,,,,,,,,,,,,owner,200,58,aloud,new,yellow,1212.6122453007847,None,n,1212.6122453007847,None,"['n', 'return']","[1.5632391003891826, 1.9631949001923203]",1212.6122453007847,None,,,33,001,2023_Apr_05_1019,ExactRep-v3-final,2021.2.3,59.9333901788076,
,,,,,,,,,,,,58,0,58,0,,,,,,,,,,,,,,,,,,,,,,,,,,,,,,,,,,,,,,,,,,,,,,,,,1216.8090725000948,None,,,,,,,,,,,,,,,,,,,,,,,,,,,,,,,,,,,,,,,,,,,,,,,,,,,,,,,,,idea,36,59,sing,old,yellow,1215.1144634000957,None,y,1215.1144634000957,None,"['y', 'return']","[1.1491153994575143, 1.6609761994332075]",1215.1144634000957,None,,,33,001,2023_Apr_05_1019,ExactRep-v3-final,2021.2.3,59.9333901788076,
,,,,,,,,,,,,59,0,59,0,,,,,,,,,,,,,,,,,,,,,,,,,,,,,,,,,,,,,,,,,,,,,,,,,1218.7276346003637,None,,,,,,,,,,,,,,,,,,,,,,,,,,,,,,,,,,,,,,,,,,,,,,,,,,,,,,,,,journal,190,60,aloud,new,yellow,1217.3283531004563,None,n,1217.3283531004563,None,"['n', 'return']","[0.983254199847579, 1.3671183995902538]",1217.3283531004563,None,,,33,001,2023_Apr_05_1019,ExactRep-v3-final,2021.2.3,59.9333901788076,
,,,,,,,,,,,,60,0,60,0,,,,,,,,,,,,,,,,,,,,,,,,,,,,,,,,,,,,,,,,,,,,,,,,,1221.1134709008038,None,,,,,,,,,,,,,,,,,,,,,,,,,,,,,,,,,,,,,,,,,,,,,,,,,,,,,,,,,deed,136,61,silent,new,yellow,1219.2335336999968,None,n,1219.2335336999968,None,"['n', 'return']","[1.437984500080347, 1.8378809997811913]",1219.2335336999968,None,,,33,001,2023_Apr_05_1019,ExactRep-v3-final,2021.2.3,59.9333901788076,
,,,,,,,,,,,,61,0,61,0,,,,,,,,,,,,,,,,,,,,,,,,,,,,,,,,,,,,,,,,,,,,,,,,,1223.1654302002862,None,,,,,,,,,,,,,,,,,,,,,,,,,,,,,,,,,,,,,,,,,,,,,,,,,,,,,,,,,ticket,3,62,sing,old,yellow,1221.6385230002925,None,n,1221.6385230002925,None,"['n', 'return']","[1.1128638004884124, 1.4889221005141735]",1221.6385230002925,None,,,33,001,2023_Apr_05_1019,ExactRep-v3-final,2021.2.3,59.9333901788076,
,,,,,,,,,,,,62,0,62,0,,,,,,,,,,,,,,,,,,,,,,,,,,,,,,,,,,,,,,,,,,,,,,,,,1225.1675804005936,None,,,,,,,,,,,,,,,,,,,,,,,,,,,,,,,,,,,,,,,,,,,,,,,,,,,,,,,,,shock,61,63,silent,old,yellow,1223.684236000292,None,n,1223.684236000292,None,"['n', 'return']","[1.0273305997252464, 1.4512451998889446]",1223.684236000292,None,,,33,001,2023_Apr_05_1019,ExactRep-v3-final,2021.2.3,59.9333901788076,
,,,,,,,,,,,,63,0,63,0,,,,,,,,,,,,,,,,,,,,,,,,,,,,,,,,,,,,,,,,,,,,,,,,,1227.169625300914,None,,,,,,,,,,,,,,,,,,,,,,,,,,,,,,,,,,,,,,,,,,,,,,,,,,,,,,,,,prison,100,64,aloud,old,yellow,1225.6930415006354,None,n,1225.6930415006354,None,"['n', 'return']","[1.0504232998937368, 1.4343822998926044]",1225.6930415006354,None,,,33,001,2023_Apr_05_1019,ExactRep-v3-final,2021.2.3,59.9333901788076,
,,,,,,,,,,,,64,0,64,0,,,,,,,,,,,,,,,,,,,,,,,,,,,,,,,,,,,,,,,,,,,,,,,,,1230.3059186004102,None,,,,,,,,,,,,,,,,,,,,,,,,,,,,,,,,,,,,,,,,,,,,,,,,,,,,,,,,,life,237,65,sing,new,yellow,1227.6791816009209,None,n,1227.6791816009209,None,"['n', 'return']","[2.1926019992679358, 2.5842334991320968]",1227.6791816009209,None,,,33,001,2023_Apr_05_1019,ExactRep-v3-final,2021.2.3,59.9333901788076,
,,,,,,,,,,,,65,0,65,0,,,,,,,,,,,,,,,,,,,,,,,,,,,,,,,,,,,,,,,,,,,,,,,,,1232.191279200837,None,,,,,,,,,,,,,,,,,,,,,,,,,,,,,,,,,,,,,,,,,,,,,,,,,,,,,,,,,pupil,226,66,aloud,new,yellow,1230.8185426006094,None,n,1230.8185426006094,None,"['n', 'return']","[0.9410776998847723, 1.3409938998520374]",1230.8185426006094,None,,,33,001,2023_Apr_05_1019,ExactRep-v3-final,2021.2.3,59.9333901788076,
,,,,,,,,,,,,66,0,66,0,,,,,,,,,,,,,,,,,,,,,,,,,,,,,,,,,,,,,,,,,,,,,,,,,1234.143041100353,None,,,,,,,,,,,,,,,,,,,,,,,,,,,,,,,,,,,,,,,,,,,,,,,,,,,,,,,,,palace,20,67,sing,old,yellow,1232.7009315006435,None,y,1232.7009315006435,None,"['y', 'return']","[0.9385938998311758, 1.4024905003607273]",1232.7009315006435,None,,,33,001,2023_Apr_05_1019,ExactRep-v3-final,2021.2.3,59.9333901788076,
,,,,,,,,,,,,67,0,67,0,,,,,,,,,,,,,,,,,,,,,,,,,,,,,,,,,,,,,,,,,,,,,,,,,1237.4297770000994,None,,,,,,,,,,,,,,,,,,,,,,,,,,,,,,,,,,,,,,,,,,,,,,,,,,,,,,,,,house,160,68,aloud,new,yellow,1234.6573493005708,None,n,1234.6573493005708,None,"['n', 'return']","[2.334108100272715, 2.7341799000278115]",1234.6573493005708,None,,,33,001,2023_Apr_05_1019,ExactRep-v3-final,2021.2.3,59.9333901788076,
,,,,,,,,,,,,68,0,68,0,,,,,,,,,,,,,,,,,,,,,,,,,,,,,,,,,,,,,,,,,,,,,,,,,1242.0509918006137,None,,,,,,,,,,,,,,,,,,,,,,,,,,,,,,,,,,,,,,,,,,,,,,,,,,,,,,,,,person,98,69,aloud,old,yellow,1237.938741600141,None,n,1237.938741600141,None,"['n', 'return']","[3.53293089941144, 4.076800299808383]",1237.938741600141,None,,,33,001,2023_Apr_05_1019,ExactRep-v3-final,2021.2.3,59.9333901788076,
,,,,,,,,,,,,69,0,69,0,,,,,,,,,,,,,,,,,,,,,,,,,,,,,,,,,,,,,,,,,,,,,,,,,1244.10303830076,None,,,,,,,,,,,,,,,,,,,,,,,,,,,,,,,,,,,,,,,,,,,,,,,,,,,,,,,,,beast,72,70,silent,old,yellow,1242.5609823009,None,n,1242.5609823009,None,"['n', 'return']","[1.1505125993862748, 1.5105045000091195]",1242.5609823009,None,,,33,001,2023_Apr_05_1019,ExactRep-v3-final,2021.2.3,59.9333901788076,
,,,,,,,,,,,,70,0,70,0,,,,,,,,,,,,,,,,,,,,,,,,,,,,,,,,,,,,,,,,,,,,,,,,,1247.1227853000164,None,,,,,,,,,,,,,,,,,,,,,,,,,,,,,,,,,,,,,,,,,,,,,,,,,,,,,,,,,rod,41,71,silent,old,yellow,1244.6183165004477,None,n,1244.6183165004477,None,"['n', 'return']","[2.101129699498415, 2.461068100295961]",1244.6183165004477,None,,,33,001,2023_Apr_05_1019,ExactRep-v3-final,2021.2.3,59.9333901788076,
,,,,,,,,,,,,71,0,71,0,,,,,,,,,,,,,,,,,,,,,,,,,,,,,,,,,,,,,,,,,,,,,,,,,1250.459406000562,None,,,,,,,,,,,,,,,,,,,,,,,,,,,,,,,,,,,,,,,,,,,,,,,,,,,,,,,,,teacher,221,72,sing,new,yellow,1247.6369662005454,None,n,1247.6369662005454,None,"['n', 'return']","[2.2905767001211643, 2.786574900150299]",1247.6369662005454,None,,,33,001,2023_Apr_05_1019,ExactRep-v3-final,2021.2.3,59.9333901788076,
,,,,,,,,,,,,72,0,72,0,,,,,,,,,,,,,,,,,,,,,,,,,,,,,,,,,,,,,,,,,,,,,,,,,1252.3946856008843,None,,,,,,,,,,,,,,,,,,,,,,,,,,,,,,,,,,,,,,,,,,,,,,,,,,,,,,,,,maiden,2,73,sing,old,yellow,1250.9686194006354,None,y,1250.9686194006354,None,"['y', 'return']","[0.911026899702847, 1.3910087998956442]",1250.9686194006354,None,,,33,001,2023_Apr_05_1019,ExactRep-v3-final,2021.2.3,59.9333901788076,
,,,,,,,,,,,,73,0,73,0,,,,,,,,,,,,,,,,,,,,,,,,,,,,,,,,,,,,,,,,,,,,,,,,,1259.4852650007233,None,,,,,,,,,,,,,,,,,,,,,,,,,,,,,,,,,,,,,,,,,,,,,,,,,,,,,,,,,animal,81,74,aloud,old,yellow,1252.901890700683,None,y,1252.901890700683,None,"['y', 'return']","[3.9295582994818687, 6.53770160023123]",1252.901890700683,None,,,33,001,2023_Apr_05_1019,ExactRep-v3-final,2021.2.3,59.9333901788076,
,,,,,,,,,,,,74,0,74,0,,,,,,,,,,,,,,,,,,,,,,,,,,,,,,,,,,,,,,,,,,,,,,,,,1261.6873545004055,None,,,,,,,,,,,,,,,,,,,,,,,,,,,,,,,,,,,,,,,,,,,,,,,,,,,,,,,,,storm,185,75,sing,new,yellow,1259.9998105000705,None,n,1259.9998105000705,None,"['n', 'return']","[1.2476963996887207, 1.639707999303937]",1259.9998105000705,None,,,33,001,2023_Apr_05_1019,ExactRep-v3-final,2021.2.3,59.9333901788076,
,,,,,,,,,,,,75,0,75,0,,,,,,,,,,,,,,,,,,,,,,,,,,,,,,,,,,,,,,,,,,,,,,,,,1264.2069936003536,None,,,,,,,,,,,,,,,,,,,,,,,,,,,,,,,,,,,,,,,,,,,,,,,,,,,,,,,,,dust,145,76,silent,new,yellow,1262.1967043001205,None,n,1262.1967043001205,None,"['n', 'return']","[1.5629102000966668, 1.962865900248289]",1262.1967043001205,None,,,33,001,2023_Apr_05_1019,ExactRep-v3-final,2021.2.3,59.9333901788076,
,,,,,,,,,,,,76,0,76,0,,,,,,,,,,,,,,,,,,,,,,,,,,,,,,,,,,,,,,,,,,,,,,,,,1266.125073400326,None,,,,,,,,,,,,,,,,,,,,,,,,,,,,,,,,,,,,,,,,,,,,,,,,,,,,,,,,,author,12,77,sing,old,yellow,1264.727597700432,None,y,1264.727597700432,None,"['y', 'return']","[0.9598740004003048, 1.3598392996937037]",1264.727597700432,None,,,33,001,2023_Apr_05_1019,ExactRep-v3-final,2021.2.3,59.9333901788076,
,,,,,,,,,,,,77,0,77,0,,,,,,,,,,,,,,,,,,,,,,,,,,,,,,,,,,,,,,,,,,,,,,,,,1271.0800979007035,None,,,,,,,,,,,,,,,,,,,,,,,,,,,,,,,,,,,,,,,,,,,,,,,,,,,,,,,,,thought,202,78,aloud,new,yellow,1266.641033200547,None,y,1266.641033200547,None,"['y', 'return']","[4.062581299804151, 4.406424100510776]",1266.641033200547,None,,,33,001,2023_Apr_05_1019,ExactRep-v3-final,2021.2.3,59.9333901788076,
,,,,,,,,,,,,78,0,78,0,,,,,,,,,,,,,,,,,,,,,,,,,,,,,,,,,,,,,,,,,,,,,,,,,1273.115458700806,None,,,,,,,,,,,,,,,,,,,,,,,,,,,,,,,,,,,,,,,,,,,,,,,,,,,,,,,,,pole,115,79,aloud,old,yellow,1271.5910879001021,None,n,1271.5910879001021,None,"['n', 'return']","[1.112537500448525, 1.4885400999337435]",1271.5910879001021,None,,,33,001,2023_Apr_05_1019,ExactRep-v3-final,2021.2.3,59.9333901788076,
,,,,,,,,,,,,79,0,79,0,,,,,,,,,,,,,,,,,,,,,,,,,,,,,,,,,,,,,,,,,,,,,,,,,1278.5875954004005,None,,,,,,,,,,,,,,,,,,,,,,,,,,,,,,,,,,,,,,,,,,,,,,,,,,,,,,,,,sugar,80,80,aloud,old,yellow,1273.631311500445,None,n,1273.631311500445,None,"['n', 'return']","[4.408342499285936, 4.912169000133872]",1273.631311500445,None,,,33,001,2023_Apr_05_1019,ExactRep-v3-final,2021.2.3,59.9333901788076,
,,,,,,,,,,,,80,0,80,0,,,,,,,,,,,,,,,,,,,,,,,,,,,,,,,,,,,,,,,,,,,,,,,,,1280.63964850083,None,,,,,,,,,,,,,,,,,,,,,,,,,,,,,,,,,,,,,,,,,,,,,,,,,,,,,,,,,truth,159,81,silent,new,yellow,1279.099130000919,None,n,1279.099130000919,None,"['n', 'return']","[1.0843513002619147, 1.5003538997843862]",1279.099130000919,None,,,33,001,2023_Apr_05_1019,ExactRep-v3-final,2021.2.3,59.9333901788076,
,,,,,,,,,,,,81,0,81,0,,,,,,,,,,,,,,,,,,,,,,,,,,,,,,,,,,,,,,,,,,,,,,,,,1284.2431455003098,None,,,,,,,,,,,,,,,,,,,,,,,,,,,,,,,,,,,,,,,,,,,,,,,,,,,,,,,,,sky,108,82,aloud,old,yellow,1281.1514435000718,None,n,1281.1514435000718,None,"['n', 'return']","[2.7042728001251817, 3.0560638001188636]",1281.1514435000718,None,,,33,001,2023_Apr_05_1019,ExactRep-v3-final,2021.2.3,59.9333901788076,
,,,,,,,,,,,,82,0,82,0,,,,,,,,,,,,,,,,,,,,,,,,,,,,,,,,,,,,,,,,,,,,,,,,,1287.7634617006406,None,,,,,,,,,,,,,,,,,,,,,,,,,,,,,,,,,,,,,,,,,,,,,,,,,,,,,,,,,picture,161,83,sing,new,yellow,1284.761142800562,None,n,1284.761142800562,None,"['n', 'return']","[2.622315200045705, 2.958327899686992]",1284.761142800562,None,,,33,001,2023_Apr_05_1019,ExactRep-v3-final,2021.2.3,59.9333901788076,
,,,,,,,,,,,,83,0,83,0,,,,,,,,,,,,,,,,,,,,,,,,,,,,,,,,,,,,,,,,,,,,,,,,,1291.8341819001362,None,,,,,,,,,,,,,,,,,,,,,,,,,,,,,,,,,,,,,,,,,,,,,,,,,,,,,,,,,square,217,84,sing,new,yellow,1288.2745754001662,None,n,1288.2745754001662,None,"['n', 'return']","[3.1409197002649307, 3.517082399688661]",1288.2745754001662,None,,,33,001,2023_Apr_05_1019,ExactRep-v3-final,2021.2.3,59.9333901788076,
,,,,,,,,,,,,84,0,84,0,,,,,,,,,,,,,,,,,,,,,,,,,,,,,,,,,,,,,,,,,,,,,,,,,1293.7527219001204,None,,,,,,,,,,,,,,,,,,,,,,,,,,,,,,,,,,,,,,,,,,,,,,,,,,,,,,,,,woman,229,85,sing,new,yellow,1292.3481843005866,None,n,1292.3481843005866,None,"['n', 'return']","[1.0116050001233816, 1.3714453997090459]",1292.3481843005866,None,,,33,001,2023_Apr_05_1019,ExactRep-v3-final,2021.2.3,59.9333901788076,
,,,,,,,,,,,,85,0,85,0,,,,,,,,,,,,,,,,,,,,,,,,,,,,,,,,,,,,,,,,,,,,,,,,,1299.508514800109,None,,,,,,,,,,,,,,,,,,,,,,,,,,,,,,,,,,,,,,,,,,,,,,,,,,,,,,,,,product,135,86,silent,new,yellow,1294.2568949004635,None,y,1294.2568949004635,None,"['y', 'return']","[4.390607800334692, 5.214641800150275]",1294.2568949004635,None,,,33,001,2023_Apr_05_1019,ExactRep-v3-final,2021.2.3,59.9333901788076,
,,,,,,,,,,,,86,0,86,0,,,,,,,,,,,,,,,,,,,,,,,,,,,,,,,,,,,,,,,,,,,,,,,,,1302.7451035007834,None,,,,,,,,,,,,,,,,,,,,,,,,,,,,,,,,,,,,,,,,,,,,,,,,,,,,,,,,,master,233,87,sing,new,yellow,1300.018427000381,None,n,1300.018427000381,None,"['n', 'return']","[2.269141599535942, 2.693122399970889]",1300.018427000381,None,,,33,001,2023_Apr_05_1019,ExactRep-v3-final,2021.2.3,59.9333901788076,
,,,,,,,,,,,,87,0,87,0,,,,,,,,,,,,,,,,,,,,,,,,,,,,,,,,,,,,,,,,,,,,,,,,,1307.1162671009079,None,,,,,,,,,,,,,,,,,,,,,,,,,,,,,,,,,,,,,,,,,,,,,,,,,,,,,,,,,woods,220,88,aloud,new,yellow,1303.2565648006275,None,y,1303.2565648006275,None,"['y', 'return']","[3.4231636999174953, 3.8149417005479336]",1303.2565648006275,None,,,33,001,2023_Apr_05_1019,ExactRep-v3-final,2021.2.3,59.9333901788076,
,,,,,,,,,,,,88,0,88,0,,,,,,,,,,,,,,,,,,,,,,,,,,,,,,,,,,,,,,,,,,,,,,,,,1309.168076700531,None,,,,,,,,,,,,,,,,,,,,,,,,,,,,,,,,,,,,,,,,,,,,,,,,,,,,,,,,,doll,109,89,aloud,old,yellow,1307.627236600034,None,y,1307.627236600034,None,"['y', 'return']","[1.0283668003976345, 1.5003060000017285]",1307.627236600034,None,,,33,001,2023_Apr_05_1019,ExactRep-v3-final,2021.2.3,59.9333901788076,
,,,,,,,,,,,,89,0,89,0,,,,,,,,,,,,,,,,,,,,,,,,,,,,,,,,,,,,,,,,,,,,,,,,,1311.0533925006166,None,,,,,,,,,,,,,,,,,,,,,,,,,,,,,,,,,,,,,,,,,,,,,,,,,,,,,,,,,body,165,90,sing,new,yellow,1309.6789591005072,None,n,1309.6789591005072,None,"['n', 'return']","[0.9125562999397516, 1.3286476004868746]",1309.6789591005072,None,,,33,001,2023_Apr_05_1019,ExactRep-v3-final,2021.2.3,59.9333901788076,
,,,,,,,,,,,,90,0,90,0,,,,,,,,,,,,,,,,,,,,,,,,,,,,,,,,,,,,,,,,,,,,,,,,,1316.575515200384,None,,,,,,,,,,,,,,,,,,,,,,,,,,,,,,,,,,,,,,,,,,,,,,,,,,,,,,,,,money,25,91,sing,old,yellow,1311.5620561009273,None,y,1311.5620561009273,None,"['y', 'return']","[4.5974989999085665, 4.981571100652218]",1311.5620561009273,None,,,33,001,2023_Apr_05_1019,ExactRep-v3-final,2021.2.3,59.9333901788076,
,,,,,,,,,,,,91,0,91,0,,,,,,,,,,,,,,,,,,,,,,,,,,,,,,,,,,,,,,,,,,,,,,,,,1318.37733090017,None,,,,,,,,,,,,,,,,,,,,,,,,,,,,,,,,,,,,,,,,,,,,,,,,,,,,,,,,,devil,106,92,aloud,old,yellow,1317.087156000547,None,n,1317.087156000547,None,"['n', 'return']","[0.8803147999569774, 1.2485034000128508]",1317.087156000547,None,,,33,001,2023_Apr_05_1019,ExactRep-v3-final,2021.2.3,59.9333901788076,
,,,,,,,,,,,,92,0,92,0,,,,,,,,,,,,,,,,,,,,,,,,,,,,,,,,,,,,,,,,,,,,,,,,,1320.2626179000363,None,,,,,,,,,,,,,,,,,,,,,,,,,,,,,,,,,,,,,,,,,,,,,,,,,,,,,,,,,corner,24,93,sing,old,yellow,1318.8907733000815,None,n,1318.8907733000815,None,"['n', 'return']","[0.9569240994751453, 1.3328015999868512]",1318.8907733000815,None,,,33,001,2023_Apr_05_1019,ExactRep-v3-final,2021.2.3,59.9333901788076,
,,,,,,,,,,,,93,0,93,0,,,,,,,,,,,,,,,,,,,,,,,,,,,,,,,,,,,,,,,,,,,,,,,,,1322.3813144005835,None,,,,,,,,,,,,,,,,,,,,,,,,,,,,,,,,,,,,,,,,,,,,,,,,,,,,,,,,,flower,174,94,aloud,new,yellow,1320.772602500394,None,n,1320.772602500394,None,"['n', 'return']","[1.1870072996243834, 1.5629824995994568]",1320.772602500394,None,,,33,001,2023_Apr_05_1019,ExactRep-v3-final,2021.2.3,59.9333901788076,
,,,,,,,,,,,,94,0,94,0,,,,,,,,,,,,,,,,,,,,,,,,,,,,,,,,,,,,,,,,,,,,,,,,,1329.6220621000975,None,,,,,,,,,,,,,,,,,,,,,,,,,,,,,,,,,,,,,,,,,,,,,,,,,,,,,,,,,meeting,13,95,sing,old,yellow,1322.891949900426,None,n,1322.891949900426,None,"['n', 'return']","[6.219680500216782, 6.6915922006592155]",1322.891949900426,None,,,33,001,2023_Apr_05_1019,ExactRep-v3-final,2021.2.3,59.9333901788076,
,,,,,,,,,,,,95,0,95,0,,,,,,,,,,,,,,,,,,,,,,,,,,,,,,,,,,,,,,,,,,,,,,,,,1331.3905592001975,None,,,,,,,,,,,,,,,,,,,,,,,,,,,,,,,,,,,,,,,,,,,,,,,,,,,,,,,,,ocean,117,96,aloud,old,yellow,1330.1331433001906,None,n,1330.1331433001906,None,"['n', 'return']","[0.8584059998393059, 1.2184302993118763]",1330.1331433001906,None,,,33,001,2023_Apr_05_1019,ExactRep-v3-final,2021.2.3,59.9333901788076,
,,,,,,,,,,,,96,0,96,0,,,,,,,,,,,,,,,,,,,,,,,,,,,,,,,,,,,,,,,,,,,,,,,,,1333.2255198005587,None,,,,,,,,,,,,,,,,,,,,,,,,,,,,,,,,,,,,,,,,,,,,,,,,,,,,,,,,,factory,75,97,silent,old,yellow,1331.8983443006873,None,y,1331.8983443006873,None,"['y', 'return']","[0.8452305998653173, 1.2852173997089267]",1331.8983443006873,None,,,33,001,2023_Apr_05_1019,ExactRep-v3-final,2021.2.3,59.9333901788076,
,,,,,,,,,,,,97,0,97,0,,,,,,,,,,,,,,,,,,,,,,,,,,,,,,,,,,,,,,,,,,,,,,,,,1335.244181100279,None,,,,,,,,,,,,,,,,,,,,,,,,,,,,,,,,,,,,,,,,,,,,,,,,,,,,,,,,,village,68,98,silent,old,yellow,1333.7338222004473,None,n,1333.7338222004473,None,"['n', 'return']","[1.1456754999235272, 1.4737052991986275]",1333.7338222004473,None,,,33,001,2023_Apr_05_1019,ExactRep-v3-final,2021.2.3,59.9333901788076,
,,,,,,,,,,,,98,0,98,0,,,,,,,,,,,,,,,,,,,,,,,,,,,,,,,,,,,,,,,,,,,,,,,,,1337.2628812007606,None,,,,,,,,,,,,,,,,,,,,,,,,,,,,,,,,,,,,,,,,,,,,,,,,,,,,,,,,,moral,130,99,silent,new,yellow,1335.7540794005617,None,n,1335.7540794005617,None,"['n', 'return']","[1.117531499825418, 1.4615201000124216]",1335.7540794005617,None,,,33,001,2023_Apr_05_1019,ExactRep-v3-final,2021.2.3,59.9333901788076,
,,,,,,,,,,,,99,0,99,0,,,,,,,,,,,,,,,,,,,,,,,,,,,,,,,,,,,,,,,,,,,,,,,,,1339.4484063005075,None,,,,,,,,,,,,,,,,,,,,,,,,,,,,,,,,,,,,,,,,,,,,,,,,,,,,,,,,,tree,143,100,silent,new,yellow,1337.7721397001296,None,y,1337.7721397001296,None,"['y', 'return']","[1.1954196002334356, 1.6354577001184225]",1337.7721397001296,None,,,33,001,2023_Apr_05_1019,ExactRep-v3-final,2021.2.3,59.9333901788076,
,,,,,,,,,,,,100,0,100,0,,,,,,,,,,,,,,,,,,,,,,,,,,,,,,,,,,,,,,,,,,,,,,,,,1342.5016057007015,None,,,,,,,,,,,,,,,,,,,,,,,,,,,,,,,,,,,,,,,,,,,,,,,,,,,,,,,,,passion,110,101,aloud,old,yellow,1339.962702200748,None,y,1339.962702200748,None,"['y', 'return']","[2.1170020001009107, 2.5009452998638153]",1339.962702200748,None,,,33,001,2023_Apr_05_1019,ExactRep-v3-final,2021.2.3,59.9333901788076,
,,,,,,,,,,,,101,0,101,0,,,,,,,,,,,,,,,,,,,,,,,,,,,,,,,,,,,,,,,,,,,,,,,,,1345.6212359005585,None,,,,,,,,,,,,,,,,,,,,,,,,,,,,,,,,,,,,,,,,,,,,,,,,,,,,,,,,,table,128,102,silent,new,yellow,1343.0114117003977,None,n,1343.0114117003977,None,"['n', 'return']","[2.212386899627745, 2.564243800006807]",1343.0114117003977,None,,,33,001,2023_Apr_05_1019,ExactRep-v3-final,2021.2.3,59.9333901788076,
,,,,,,,,,,,,102,0,102,0,,,,,,,,,,,,,,,,,,,,,,,,,,,,,,,,,,,,,,,,,,,,,,,,,1347.4397175004706,None,,,,,,,,,,,,,,,,,,,,,,,,,,,,,,,,,,,,,,,,,,,,,,,,,,,,,,,,,colony,213,103,sing,new,yellow,1346.134969100356,None,n,1346.134969100356,None,"['n', 'return']","[0.9525073999539018, 1.2725764997303486]",1346.134969100356,None,,,33,001,2023_Apr_05_1019,ExactRep-v3-final,2021.2.3,59.9333901788076,
,,,,,,,,,,,,103,0,103,0,,,,,,,,,,,,,,,,,,,,,,,,,,,,,,,,,,,,,,,,,,,,,,,,,1349.7755500003695,None,,,,,,,,,,,,,,,,,,,,,,,,,,,,,,,,,,,,,,,,,,,,,,,,,,,,,,,,,meat,196,104,aloud,new,yellow,1347.9477222003043,None,n,1347.9477222003043,None,"['n', 'return']","[1.4839738002046943, 1.7958062002435327]",1347.9477222003043,None,,,33,001,2023_Apr_05_1019,ExactRep-v3-final,2021.2.3,59.9333901788076,
,,,,,,,,,,,,104,0,104,0,,,,,,,,,,,,,,,,,,,,,,,,,,,,,,,,,,,,,,,,,,,,,,,,,1351.6272311005741,None,,,,,,,,,,,,,,,,,,,,,,,,,,,,,,,,,,,,,,,,,,,,,,,,,,,,,,,,,string,167,105,sing,new,yellow,1350.2821514001116,None,n,1350.2821514001116,None,"['n', 'return']","[0.9574049999937415, 1.3094373997300863]",1350.2821514001116,None,,,33,001,2023_Apr_05_1019,ExactRep-v3-final,2021.2.3,59.9333901788076,
,,,,,,,,,,,,105,0,105,0,,,,,,,,,,,,,,,,,,,,,,,,,,,,,,,,,,,,,,,,,,,,,,,,,1353.3456370001659,None,,,,,,,,,,,,,,,,,,,,,,,,,,,,,,,,,,,,,,,,,,,,,,,,,,,,,,,,,butter,225,106,sing,new,yellow,1352.1424717009068,None,n,1352.1424717009068,None,"['n', 'return']","[0.8090676004067063, 1.1690597999840975]",1352.1424717009068,None,,,33,001,2023_Apr_05_1019,ExactRep-v3-final,2021.2.3,59.9333901788076,
,,,,,,,,,,,,106,0,106,0,,,,,,,,,,,,,,,,,,,,,,,,,,,,,,,,,,,,,,,,,,,,,,,,,1355.2808996001258,None,,,,,,,,,,,,,,,,,,,,,,,,,,,,,,,,,,,,,,,,,,,,,,,,,,,,,,,,,seat,120,107,silent,new,yellow,1353.852456200868,None,n,1353.852456200868,None,"['n', 'return']","[1.0113324001431465, 1.3872230993583798]",1353.852456200868,None,,,33,001,2023_Apr_05_1019,ExactRep-v3-final,2021.2.3,59.9333901788076,
,,,,,,,,,,,,107,0,107,0,,,,,,,,,,,,,,,,,,,,,,,,,,,,,,,,,,,,,,,,,,,,,,,,,1356.9659130005166,None,,,,,,,,,,,,,,,,,,,,,,,,,,,,,,,,,,,,,,,,,,,,,,,,,,,,,,,,,slave,10,108,sing,old,yellow,1355.7891251007095,None,y,1355.7891251007095,None,"['y', 'return']","[0.7462855000048876, 1.1385146006941795]",1355.7891251007095,None,,,33,001,2023_Apr_05_1019,ExactRep-v3-final,2021.2.3,59.9333901788076,
,,,,,,,,,,,,108,0,108,0,,,,,,,,,,,,,,,,,,,,,,,,,,,,,,,,,,,,,,,,,,,,,,,,,1361.4871056005359,None,,,,,,,,,,,,,,,,,,,,,,,,,,,,,,,,,,,,,,,,,,,,,,,,,,,,,,,,,cabin,37,109,sing,old,yellow,1357.4778990000486,None,n,1357.4778990000486,None,"['n', 'return']","[3.6576119996607304, 3.96970700006932]",1357.4778990000486,None,,,33,001,2023_Apr_05_1019,ExactRep-v3-final,2021.2.3,59.9333901788076,
,,,,,,,,,,,,109,0,109,0,,,,,,,,,,,,,,,,,,,,,,,,,,,,,,,,,,,,,,,,,,,,,,,,,1365.040652400814,None,,,,,,,,,,,,,,,,,,,,,,,,,,,,,,,,,,,,,,,,,,,,,,,,,,,,,,,,,series,154,110,silent,new,yellow,1361.9956383006647,None,n,1361.9956383006647,None,"['n', 'return']","[1.1240633996203542, 3.0120165003463626]",1361.9956383006647,None,,,33,001,2023_Apr_05_1019,ExactRep-v3-final,2021.2.3,59.9333901788076,
,,,,,,,,,,,,110,0,110,0,,,,,,,,,,,,,,,,,,,,,,,,,,,,,,,,,,,,,,,,,,,,,,,,,1366.892560900189,None,,,,,,,,,,,,,,,,,,,,,,,,,,,,,,,,,,,,,,,,,,,,,,,,,,,,,,,,,flag,199,111,sing,new,yellow,1365.5492630004883,None,n,1365.5492630004883,None,"['n', 'return']","[0.9862917000427842, 1.3063540998846292]",1365.5492630004883,None,,,33,001,2023_Apr_05_1019,ExactRep-v3-final,2021.2.3,59.9333901788076,
,,,,,,,,,,,,111,0,111,0,,,,,,,,,,,,,,,,,,,,,,,,,,,,,,,,,,,,,,,,,,,,,,,,,1371.880823600106,None,,,,,,,,,,,,,,,,,,,,,,,,,,,,,,,,,,,,,,,,,,,,,,,,,,,,,,,,,crime,192,112,aloud,new,yellow,1367.4017697004601,None,n,1367.4017697004601,None,"['n', 'return']","[3.6299918992444873, 4.437960899434984]",1367.4017697004601,None,,,33,001,2023_Apr_05_1019,ExactRep-v3-final,2021.2.3,59.9333901788076,
,,,,,,,,,,,,112,0,112,0,,,,,,,,,,,,,,,,,,,,,,,,,,,,,,,,,,,,,,,,,,,,,,,,,1373.9330341005698,None,,,,,,,,,,,,,,,,,,,,,,,,,,,,,,,,,,,,,,,,,,,,,,,,,,,,,,,,,meadow,197,113,sing,new,yellow,1372.389195700176,None,n,1372.389195700176,None,"['n', 'return']","[1.2103083999827504, 1.5063793007284403]",1372.389195700176,None,,,33,001,2023_Apr_05_1019,ExactRep-v3-final,2021.2.3,59.9333901788076,
,,,,,,,,,,,,113,0,113,0,,,,,,,,,,,,,,,,,,,,,,,,,,,,,,,,,,,,,,,,,,,,,,,,,1376.1183680007234,None,,,,,,,,,,,,,,,,,,,,,,,,,,,,,,,,,,,,,,,,,,,,,,,,,,,,,,,,,skin,218,114,aloud,new,yellow,1374.4367690002546,None,n,1374.4367690002546,None,"['n', 'return']","[1.322843799367547, 1.6428087996318936]",1374.4367690002546,None,,,33,001,2023_Apr_05_1019,ExactRep-v3-final,2021.2.3,59.9333901788076,
,,,,,,,,,,,,114,0,114,0,,,,,,,,,,,,,,,,,,,,,,,,,,,,,,,,,,,,,,,,,,,,,,,,,1378.0369775006548,None,,,,,,,,,,,,,,,,,,,,,,,,,,,,,,,,,,,,,,,,,,,,,,,,,,,,,,,,,theory,92,115,aloud,old,yellow,1376.6227823002264,None,y,1376.6227823002264,None,"['y', 'return']","[0.9770256001502275, 1.3768426002934575]",1376.6227823002264,None,,,33,001,2023_Apr_05_1019,ExactRep-v3-final,2021.2.3,59.9333901788076,
,,,,,,,,,,,,115,0,115,0,,,,,,,,,,,,,,,,,,,,,,,,,,,,,,,,,,,,,,,,,,,,,,,,,1380.2892300002277,None,,,,,,,,,,,,,,,,,,,,,,,,,,,,,,,,,,,,,,,,,,,,,,,,,,,,,,,,,queen,45,116,silent,old,yellow,1378.5463071009144,None,n,1378.5463071009144,None,"['n', 'return']","[1.429495600052178, 1.7013885993510485]",1378.5463071009144,None,,,33,001,2023_Apr_05_1019,ExactRep-v3-final,2021.2.3,59.9333901788076,
,,,,,,,,,,,,116,0,116,0,,,,,,,,,,,,,,,,,,,,,,,,,,,,,,,,,,,,,,,,,,,,,,,,,1381.9909527003765,None,,,,,,,,,,,,,,,,,,,,,,,,,,,,,,,,,,,,,,,,,,,,,,,,,,,,,,,,,vessel,77,117,silent,old,yellow,1380.7937321001664,None,n,1380.7937321001664,None,"['n', 'return']","[0.82981519959867, 1.1578481001779437]",1380.7937321001664,None,,,33,001,2023_Apr_05_1019,ExactRep-v3-final,2021.2.3,59.9333901788076,
,,,,,,,,,,,,117,0,117,0,,,,,,,,,,,,,,,,,,,,,,,,,,,,,,,,,,,,,,,,,,,,,,,,,1383.8595522008836,None,,,,,,,,,,,,,,,,,,,,,,,,,,,,,,,,,,,,,,,,,,,,,,,,,,,,,,,,,poet,34,118,sing,old,yellow,1382.5012625008821,None,n,1382.5012625008821,None,"['n', 'return']","[1.002356099896133, 1.3142899991944432]",1382.5012625008821,None,,,33,001,2023_Apr_05_1019,ExactRep-v3-final,2021.2.3,59.9333901788076,
,,,,,,,,,,,,118,0,118,0,,,,,,,,,,,,,,,,,,,,,,,,,,,,,,,,,,,,,,,,,,,,,,,,,1387.346254300326,None,,,,,,,,,,,,,,,,,,,,,,,,,,,,,,,,,,,,,,,,,,,,,,,,,,,,,,,,,clock,116,119,aloud,old,yellow,1384.369534600526,None,y,1384.369534600526,None,"['y', 'return']","[2.637991700321436, 2.941959099844098]",1384.369534600526,None,,,33,001,2023_Apr_05_1019,ExactRep-v3-final,2021.2.3,59.9333901788076,
,,,,,,,,,,,,119,0,119,0,,,,,,,,,,,,,,,,,,,,,,,,,,,,,,,,,,,,,,,,,,,,,,,,,1389.214775500819,None,,,,,,,,,,,,,,,,,,,,,,,,,,,,,,,,,,,,,,,,,,,,,,,,,,,,,,,,,hide,4,120,sing,old,yellow,1387.8493663007393,None,n,1387.8493663007393,None,"['n', 'return']","[1.0141548002138734, 1.3263769000768661]",1387.8493663007393,None,,,33,001,2023_Apr_05_1019,ExactRep-v3-final,2021.2.3,59.9333901788076,
,,,,,,,,,,,,120,0,120,0,,,,,,,,,,,,,,,,,,,,,,,,,,,,,,,,,,,,,,,,,,,,,,,,,1392.1177556002513,None,,,,,,,,,,,,,,,,,,,,,,,,,,,,,,,,,,,,,,,,,,,,,,,,,,,,,,,,,month,40,121,silent,old,yellow,1389.7221131008118,None,n,1389.7221131008118,None,"['n', 'return']","[1.9254604997113347, 2.3574636997655034]",1389.7221131008118,None,,,33,001,2023_Apr_05_1019,ExactRep-v3-final,2021.2.3,59.9333901788076,
,,,,,,,,,,,,121,0,121,0,,,,,,,,,,,,,,,,,,,,,,,,,,,,,,,,,,,,,,,,,,,,,,,,,1393.836198600009,None,,,,,,,,,,,,,,,,,,,,,,,,,,,,,,,,,,,,,,,,,,,,,,,,,,,,,,,,,love,52,122,silent,old,yellow,1392.6276171002537,None,n,1392.6276171002537,None,"['n', 'return']","[0.828231300227344, 1.172049400396645]",1392.6276171002537,None,,,33,001,2023_Apr_05_1019,ExactRep-v3-final,2021.2.3,59.9333901788076,
,,,,,,,,,,,,122,0,122,0,,,,,,,,,,,,,,,,,,,,,,,,,,,,,,,,,,,,,,,,,,,,,,,,,1395.8881652001292,None,,,,,,,,,,,,,,,,,,,,,,,,,,,,,,,,,,,,,,,,,,,,,,,,,,,,,,,,,cattle,206,123,aloud,new,yellow,1394.3490905007347,None,n,1394.3490905007347,None,"['n', 'return']","[1.0665782997384667, 1.4985853005200624]",1394.3490905007347,None,,,33,001,2023_Apr_05_1019,ExactRep-v3-final,2021.2.3,59.9333901788076,
,,,,,,,,,,,,123,0,123,0,,,,,,,,,,,,,,,,,,,,,,,,,,,,,,,,,,,,,,,,,,,,,,,,,1401.1768261007965,None,,,,,,,,,,,,,,,,,,,,,,,,,,,,,,,,,,,,,,,,,,,,,,,,,,,,,,,,,season,146,124,silent,new,yellow,1396.3998679006472,None,y,1396.3998679006472,None,"['y', 'return']","[4.327748799696565, 4.743861299939454]",1396.3998679006472,None,,,33,001,2023_Apr_05_1019,ExactRep-v3-final,2021.2.3,59.9333901788076,
,,,,,,,,,,,,124,0,124,0,,,,,,,,,,,,,,,,,,,,,,,,,,,,,,,,,,,,,,,,,,,,,,,,,1403.668037299998,None,,,,,,,,,,,,,,,,,,,,,,,,,,,,,,,,,,,,,,,,,,,,,,,,,,,,,,,,,world,21,125,sing,old,yellow,1401.686497000046,None,n,1401.686497000046,None,"['n', 'return']","[1.2331683998927474, 1.9292192999273539]",1401.686497000046,None,,,33,001,2023_Apr_05_1019,ExactRep-v3-final,2021.2.3,59.9333901788076,
,,,,,,,,,,,,125,0,125,0,,,,,,,,,,,,,,,,,,,,,,,,,,,,,,,,,,,,,,,,,,,,,,,,,1405.3310255007818,None,,,,,,,,,,,,,,,,,,,,,,,,,,,,,,,,,,,,,,,,,,,,,,,,,,,,,,,,,weapon,149,126,silent,new,yellow,1404.1924892002717,None,n,1404.1924892002717,None,"['n', 'return']","[0.7592574004083872, 1.1032500006258488]",1404.1924892002717,None,,,33,001,2023_Apr_05_1019,ExactRep-v3-final,2021.2.3,59.9333901788076,
,,,,,,,,,,,,126,0,126,0,,,,,,,,,,,,,,,,,,,,,,,,,,,,,,,,,,,,,,,,,,,,,,,,,1407.6332085002214,None,,,,,,,,,,,,,,,,,,,,,,,,,,,,,,,,,,,,,,,,,,,,,,,,,,,,,,,,,spirit,238,127,aloud,new,yellow,1405.8410103004426,None,n,1405.8410103004426,None,"['n', 'return']","[1.3506323993206024, 1.7506422000005841]",1405.8410103004426,None,,,33,001,2023_Apr_05_1019,ExactRep-v3-final,2021.2.3,59.9333901788076,
,,,,,,,,,,,,127,0,127,0,,,,,,,,,,,,,,,,,,,,,,,,,,,,,,,,,,,,,,,,,,,,,,,,,1411.687295600772,None,,,,,,,,,,,,,,,,,,,,,,,,,,,,,,,,,,,,,,,,,,,,,,,,,,,,,,,,,college,69,128,silent,old,yellow,1408.145651500672,None,n,1408.145651500672,None,"['n', 'return']","[3.158046900294721, 3.510060800239444]",1408.145651500672,None,,,33,001,2023_Apr_05_1019,ExactRep-v3-final,2021.2.3,59.9333901788076,
,,,,,,,,,,,,128,0,128,0,,,,,,,,,,,,,,,,,,,,,,,,,,,,,,,,,,,,,,,,,,,,,,,,,1414.2566880006343,None,,,,,,,,,,,,,,,,,,,,,,,,,,,,,,,,,,,,,,,,,,,,,,,,,,,,,,,,,doctor,183,129,sing,new,yellow,1412.1972621008754,None,n,1412.1972621008754,None,"['n', 'return']","[1.6584955994039774, 2.0183828994631767]",1412.1972621008754,None,,,33,001,2023_Apr_05_1019,ExactRep-v3-final,2021.2.3,59.9333901788076,
,,,,,,,,,,,,129,0,129,0,,,,,,,,,,,,,,,,,,,,,,,,,,,,,,,,,,,,,,,,,,,,,,,,,1416.2753926003352,None,,,,,,,,,,,,,,,,,,,,,,,,,,,,,,,,,,,,,,,,,,,,,,,,,,,,,,,,,pipe,168,130,aloud,new,yellow,1414.7639729008079,None,n,1414.7639729008079,None,"['n', 'return']","[0.9639002997428179, 1.4676356995478272]",1414.7639729008079,None,,,33,001,2023_Apr_05_1019,ExactRep-v3-final,2021.2.3,59.9333901788076,
,,,,,,,,,,,,130,0,130,0,,,,,,,,,,,,,,,,,,,,,,,,,,,,,,,,,,,,,,,,,,,,,,,,,1418.3942270008847,None,,,,,,,,,,,,,,,,,,,,,,,,,,,,,,,,,,,,,,,,,,,,,,,,,,,,,,,,,vision,107,131,aloud,old,yellow,1416.7966154003516,None,y,1416.7966154003516,None,"['y', 'return']","[1.1631864001974463, 1.5630216002464294]",1416.7966154003516,None,,,33,001,2023_Apr_05_1019,ExactRep-v3-final,2021.2.3,59.9333901788076,
,,,,,,,,,,,,131,0,131,0,,,,,,,,,,,,,,,,,,,,,,,,,,,,,,,,,,,,,,,,,,,,,,,,,1420.229251300916,None,,,,,,,,,,,,,,,,,,,,,,,,,,,,,,,,,,,,,,,,,,,,,,,,,,,,,,,,,home,103,132,aloud,old,yellow,1418.903008500114,None,y,1418.903008500114,None,"['y', 'return']","[0.8967372002080083, 1.2886401005089283]",1418.903008500114,None,,,33,001,2023_Apr_05_1019,ExactRep-v3-final,2021.2.3,59.9333901788076,
,,,,,,,,,,,,132,0,132,0,,,,,,,,,,,,,,,,,,,,,,,,,,,,,,,,,,,,,,,,,,,,,,,,,1423.6828791005537,None,,,,,,,,,,,,,,,,,,,,,,,,,,,,,,,,,,,,,,,,,,,,,,,,,,,,,,,,,camp,210,133,aloud,new,yellow,1420.7407507002354,None,n,1420.7407507002354,None,"['n', 'return']","[2.5629313001409173, 2.89884930010885]",1420.7407507002354,None,,,33,001,2023_Apr_05_1019,ExactRep-v3-final,2021.2.3,59.9333901788076,
