trials_fam.thisRepN,trials_fam.thisTrialN,trials_fam.thisN,trials_fam.thisIndex,trials_prc.thisRepN,trials_prc.thisTrialN,trials_prc.thisN,trials_prc.thisIndex,StudyLoop.thisRepN,StudyLoop.thisTrialN,StudyLoop.thisN,StudyLoop.thisIndex,TestLoop.thisRepN,TestLoop.thisTrialN,TestLoop.thisN,TestLoop.thisIndex,text_colortest.started,text_colortest.stopped,key_colortest.keys,key_colortest.rt,key_colortest.started,key_colortest.stopped,textCondition.started,textCondition.stopped,keyCondition.keys,keyCondition.rt,keyCondition.started,keyCondition.stopped,Condition_between,Condition_counterbal,keyWelcome.keys,keyWelcome.rt,keyWelcome.started,keyWelcome.stopped,welcome_a.started,welcome_a.stopped,welcome_b.started,welcome_b.stopped,welcome_c.started,welcome_c.stopped,welcome_d.started,welcome_d.stopped,welcome_e.started,welcome_e.stopped,welcome_f.started,welcome_f.stopped,key_resp_fam_inst.keys,key_resp_fam_inst.rt,key_resp_fam_inst.started,key_resp_fam_inst.stopped,fam_a.started,fam_a.stopped,fam_b.started,fam_b.stopped,fam_c.started,fam_c.stopped,fam_d.started,fam_d.stopped,fam_e.started,fam_e.stopped,fam_f.started,fam_f.stopped,text_famil.started,text_famil.stopped,textBlank500.started,textBlank500.stopped,key_resp_prc_inst.keys,key_resp_prc_inst.rt,key_resp_prc_inst.started,key_resp_prc_inst.stopped,prac_a.started,prac_a.stopped,prac_b.started,prac_b.stopped,prac_c.started,prac_c.stopped,prac_d.started,prac_d.stopped,prac_e.started,prac_e.stopped,prac_f.started,prac_f.stopped,text_prc_trial.started,text_prc_trial.stopped,key_resp_study_inst.keys,key_resp_study_inst.rt,key_resp_study_inst.started,key_resp_study_inst.stopped,crit_a.started,crit_a.stopped,crit_b.started,crit_b.stopped,crit_c.started,crit_c.stopped,crit_d.started,crit_d.stopped,crit_e.started,crit_e.stopped,crit_f.started,crit_f.stopped,study_word,study_num,study_order,study_type,word_color,textStudy.started,textStudy.stopped,keyStudy.keys,keyStudy.started,keyStudy.stopped,post_study.started,post_study.stopped,key_resp_post_study.keys,key_resp_post_study.rt,key_resp_post_study.started,key_resp_post_study.stopped,test_inst.started,test_inst.stopped,key_resp_test_inst.keys,key_resp_test_inst.rt,key_resp_test_inst.started,key_resp_test_inst.stopped,test_word,test_num,test_order,test_condition,old_new_test,word_color_test,textConf.started,textConf.stopped,Participant Response,textInput.started,textInput.stopped,keyResp.keys,keyResp.rt,keyResp.started,keyResp.stopped,textEnd.started,textEnd.stopped,participant,session,date,expName,psychopyVersion,frameRate,
,,,,,,,,,,,,,,,,25.49764410033822,None,n,2.8955171005800366,25.49764410033822,None,,,,,,,,,,,,,,,,,,,,,,,,,,,,,,,,,,,,,,,,,,,,,,,,,,,,,,,,,,,,,,,,,,,,,,,,,,,,,,,,,,,,,,,,,,,,,,,,,,,,,,,,,,,,,,,,,,,,,,34ND,001,2023_Apr_05_1738,ExactRep-v3-final,2021.2.3,59.86650996380339,
,,,,,,,,,,,,,,,,,,,,,,28.414493300020695,None,d,1.0339823001995683,28.414493300020695,None,,,,,,,,,,,,,,,,,,,,,,,,,,,,,,,,,,,,,,,,,,,,,,,,,,,,,,,,,,,,,,,,,,,,,,,,,,,,,,,,,,,,,,,,,,,,,,,,,,,,,,,,,,,,,,,,34ND,001,2023_Apr_05_1738,ExactRep-v3-final,2021.2.3,59.86650996380339,
,,,,,,,,,,,,,,,,,,,,,,,,,,,,whitefoils,d,space,1272.852977800183,39.56503569986671,None,,,,,,,,,,,,,,,,,,,,,,,,,,,,,,,,,,,,,,,,,,,,,,,,,,,,,,,,,,,,,,,,,,,,,,,,,,,,,,,,,,,,,,,,,,,,,,,,,,,,,,,,,,34ND,001,2023_Apr_05_1738,ExactRep-v3-final,2021.2.3,59.86650996380339,
,,,,,,,,,,,,,,,,,,,,,,,,,,,,,,,,,,29.641356900334358,None,29.641356900334358,None,29.641356900334358,None,29.641356900334358,None,29.641356900334358,None,29.641356900334358,None,space,43.39117540046573,1322.7068881001323,None,,,,,,,,,,,,,,,,,,,,,,,,,,,,,,,,,,,,,,,,,,,,,,,,,,,,,,,,,,,,,,,,,,,,,,,,,,,,,,,,,,,,,,,,,,34ND,001,2023_Apr_05_1738,ExactRep-v3-final,2021.2.3,59.86650996380339,
0,0,0,0,,,,,,,,,,,,,,,,,,,,,,,,,,,,,,,,,,,,,,,,,,,,,,,1312.7657468998805,None,1312.7657468998805,None,1312.7657468998805,None,1312.7657468998805,None,1312.7657468998805,None,1312.7657468998805,None,1366.1887610005215,None,1368.1847165999934,None,,,,,,,,,,,,,,,,,,,,,,,,,,,,,,,,,,,,,,,,,,,,,,,,,,,,,,,,,,,,,,,,,,,,,,,,,,34ND,001,2023_Apr_05_1738,ExactRep-v3-final,2021.2.3,59.86650996380339,
1,0,1,0,,,,,,,,,,,,,,,,,,,,,,,,,,,,,,,,,,,,,,,,,,,,,,,,,,,,,,,,,,,1368.6975344000384,None,1370.704101100564,None,,,,,,,,,,,,,,,,,,,,,,,,,,,,,,,,,,,,,,,,,,,,,,,,,,,,,,,,,,,,,,,,,,,,,,,,,,34ND,001,2023_Apr_05_1738,ExactRep-v3-final,2021.2.3,59.86650996380339,
2,0,2,0,,,,,,,,,,,,,,,,,,,,,,,,,,,,,,,,,,,,,,,,,,,,,,,,,,,,,,,,,,,1371.206118799746,None,1373.2062937999144,None,,,,,,,,,,,,,,,,,,,,,,,,,,,,,,,,,,,,,,,,,,,,,,,,,,,,,,,,,,,,,,,,,,,,,,,,,,34ND,001,2023_Apr_05_1738,ExactRep-v3-final,2021.2.3,59.86650996380339,
3,0,3,0,,,,,,,,,,,,,,,,,,,,,,,,,,,,,,,,,,,,,,,,,,,,,,,,,,,,,,,,,,,1373.7160721998662,None,1375.7255977997556,None,,,,,,,,,,,,,,,,,,,,,,,,,,,,,,,,,,,,,,,,,,,,,,,,,,,,,,,,,,,,,,,,,,,,,,,,,,34ND,001,2023_Apr_05_1738,ExactRep-v3-final,2021.2.3,59.86650996380339,
4,0,4,0,,,,,,,,,,,,,,,,,,,,,,,,,,,,,,,,,,,,,,,,,,,,,,,,,,,,,,,,,,,1376.2260996997356,None,1378.228089700453,None,,,,,,,,,,,,,,,,,,,,,,,,,,,,,,,,,,,,,,,,,,,,,,,,,,,,,,,,,,,,,,,,,,,,,,,,,,34ND,001,2023_Apr_05_1738,ExactRep-v3-final,2021.2.3,59.86650996380339,
5,0,5,0,,,,,,,,,,,,,,,,,,,,,,,,,,,,,,,,,,,,,,,,,,,,,,,,,,,,,,,,,,,1378.7286331998184,None,1380.7306423000991,None,,,,,,,,,,,,,,,,,,,,,,,,,,,,,,,,,,,,,,,,,,,,,,,,,,,,,,,,,,,,,,,,,,,,,,,,,,34ND,001,2023_Apr_05_1738,ExactRep-v3-final,2021.2.3,59.86650996380339,
6,0,6,0,,,,,,,,,,,,,,,,,,,,,,,,,,,,,,,,,,,,,,,,,,,,,,,,,,,,,,,,,,,1381.2350305002183,None,1383.2497193999588,None,,,,,,,,,,,,,,,,,,,,,,,,,,,,,,,,,,,,,,,,,,,,,,,,,,,,,,,,,,,,,,,,,,,,,,,,,,34ND,001,2023_Apr_05_1738,ExactRep-v3-final,2021.2.3,59.86650996380339,
7,0,7,0,,,,,,,,,,,,,,,,,,,,,,,,,,,,,,,,,,,,,,,,,,,,,,,,,,,,,,,,,,,1383.750481300056,None,1385.7522860001773,None,,,,,,,,,,,,,,,,,,,,,,,,,,,,,,,,,,,,,,,,,,,,,,,,,,,,,,,,,,,,,,,,,,,,,,,,,,34ND,001,2023_Apr_05_1738,ExactRep-v3-final,2021.2.3,59.86650996380339,
8,0,8,0,,,,,,,,,,,,,,,,,,,,,,,,,,,,,,,,,,,,,,,,,,,,,,,,,,,,,,,,,,,1386.25504630059,None,1388.2548868004233,None,,,,,,,,,,,,,,,,,,,,,,,,,,,,,,,,,,,,,,,,,,,,,,,,,,,,,,,,,,,,,,,,,,,,,,,,,,34ND,001,2023_Apr_05_1738,ExactRep-v3-final,2021.2.3,59.86650996380339,
9,0,9,0,,,,,,,,,,,,,,,,,,,,,,,,,,,,,,,,,,,,,,,,,,,,,,,,,,,,,,,,,,,1388.7567289005965,None,1390.7572803003713,None,,,,,,,,,,,,,,,,,,,,,,,,,,,,,,,,,,,,,,,,,,,,,,,,,,,,,,,,,,,,,,,,,,,,,,,,,,34ND,001,2023_Apr_05_1738,ExactRep-v3-final,2021.2.3,59.86650996380339,
10,0,10,0,,,,,,,,,,,,,,,,,,,,,,,,,,,,,,,,,,,,,,,,,,,,,,,,,,,,,,,,,,,1391.2578993998468,None,1393.2597746001557,None,,,,,,,,,,,,,,,,,,,,,,,,,,,,,,,,,,,,,,,,,,,,,,,,,,,,,,,,,,,,,,,,,,,,,,,,,,34ND,001,2023_Apr_05_1738,ExactRep-v3-final,2021.2.3,59.86650996380339,
11,0,11,0,,,,,,,,,,,,,,,,,,,,,,,,,,,,,,,,,,,,,,,,,,,,,,,,,,,,,,,,,,,1393.7608890002593,None,1395.762112500146,None,,,,,,,,,,,,,,,,,,,,,,,,,,,,,,,,,,,,,,,,,,,,,,,,,,,,,,,,,,,,,,,,,,,,,,,,,,34ND,001,2023_Apr_05_1738,ExactRep-v3-final,2021.2.3,59.86650996380339,
12,0,12,0,,,,,,,,,,,,,,,,,,,,,,,,,,,,,,,,,,,,,,,,,,,,,,,,,,,,,,,,,,,1396.2677177004516,None,1398.2815330000594,None,,,,,,,,,,,,,,,,,,,,,,,,,,,,,,,,,,,,,,,,,,,,,,,,,,,,,,,,,,,,,,,,,,,,,,,,,,34ND,001,2023_Apr_05_1738,ExactRep-v3-final,2021.2.3,59.86650996380339,
13,0,13,0,,,,,,,,,,,,,,,,,,,,,,,,,,,,,,,,,,,,,,,,,,,,,,,,,,,,,,,,,,,1398.7838099999353,None,1400.7840045001358,None,,,,,,,,,,,,,,,,,,,,,,,,,,,,,,,,,,,,,,,,,,,,,,,,,,,,,,,,,,,,,,,,,,,,,,,,,,34ND,001,2023_Apr_05_1738,ExactRep-v3-final,2021.2.3,59.86650996380339,
14,0,14,0,,,,,,,,,,,,,,,,,,,,,,,,,,,,,,,,,,,,,,,,,,,,,,,,,,,,,,,,,,,1401.288712900132,None,1403.303134799935,None,,,,,,,,,,,,,,,,,,,,,,,,,,,,,,,,,,,,,,,,,,,,,,,,,,,,,,,,,,,,,,,,,,,,,,,,,,34ND,001,2023_Apr_05_1738,ExactRep-v3-final,2021.2.3,59.86650996380339,
,,,,,,,,,,,,,,,,,,,,,,,,,,,,,,,,,,,,,,,,,,,,,,,,,,,,,,,,,,,,,,,,,,space,34.836687800474465,1413.9173860000446,None,,,,,,,,,,,,,,,,,,,,,,,,,,,,,,,,,,,,,,,,,,,,,,,,,,,,,,,,,,,,,,,,,,,,,,34ND,001,2023_Apr_05_1738,ExactRep-v3-final,2021.2.3,59.86650996380339,
,,,,0,0,0,0,,,,,,,,,,,,,,,,,,,,,,,,,,,,,,,,,,,,,,,,,,,,,,,,,,,,,,,,,1450.8341062003747,None,,,,,1403.9515983005986,None,1403.9515983005986,None,1403.9515983005986,None,1403.9515983005986,None,1403.9515983005986,None,1403.9515983005986,None,1448.8335043005645,None,,,,,,,,,,,,,,,,,,,,,,,,,,,,,,,,,,,,,,,,,,,,,,,,,,,,,,,,34ND,001,2023_Apr_05_1738,ExactRep-v3-final,2021.2.3,59.86650996380339,
,,,,1,0,1,0,,,,,,,,,,,,,,,,,,,,,,,,,,,,,,,,,,,,,,,,,,,,,,,,,,,,,,,,,1453.3363677999005,None,,,,,,,,,,,,,,,,,1451.334594000131,None,,,,,,,,,,,,,,,,,,,,,,,,,,,,,,,,,,,,,,,,,,,,,,,,,,,,,,,,34ND,001,2023_Apr_05_1738,ExactRep-v3-final,2021.2.3,59.86650996380339,
,,,,2,0,2,0,,,,,,,,,,,,,,,,,,,,,,,,,,,,,,,,,,,,,,,,,,,,,,,,,,,,,,,,,1455.8391049001366,None,,,,,,,,,,,,,,,,,1453.837311300449,None,,,,,,,,,,,,,,,,,,,,,,,,,,,,,,,,,,,,,,,,,,,,,,,,,,,,,,,,34ND,001,2023_Apr_05_1738,ExactRep-v3-final,2021.2.3,59.86650996380339,
,,,,3,0,3,0,,,,,,,,,,,,,,,,,,,,,,,,,,,,,,,,,,,,,,,,,,,,,,,,,,,,,,,,,1458.3413653997704,None,,,,,,,,,,,,,,,,,1456.3393606003374,None,,,,,,,,,,,,,,,,,,,,,,,,,,,,,,,,,,,,,,,,,,,,,,,,,,,,,,,,34ND,001,2023_Apr_05_1738,ExactRep-v3-final,2021.2.3,59.86650996380339,
,,,,4,0,4,0,,,,,,,,,,,,,,,,,,,,,,,,,,,,,,,,,,,,,,,,,,,,,,,,,,,,,,,,,1460.844249700196,None,,,,,,,,,,,,,,,,,1458.8422261998057,None,,,,,,,,,,,,,,,,,,,,,,,,,,,,,,,,,,,,,,,,,,,,,,,,,,,,,,,,34ND,001,2023_Apr_05_1738,ExactRep-v3-final,2021.2.3,59.86650996380339,
,,,,5,0,5,0,,,,,,,,,,,,,,,,,,,,,,,,,,,,,,,,,,,,,,,,,,,,,,,,,,,,,,,,,1463.3467365000397,None,,,,,,,,,,,,,,,,,1461.3447479000315,None,,,,,,,,,,,,,,,,,,,,,,,,,,,,,,,,,,,,,,,,,,,,,,,,,,,,,,,,34ND,001,2023_Apr_05_1738,ExactRep-v3-final,2021.2.3,59.86650996380339,
,,,,6,0,6,0,,,,,,,,,,,,,,,,,,,,,,,,,,,,,,,,,,,,,,,,,,,,,,,,,,,,,,,,,1465.8491815002635,None,,,,,,,,,,,,,,,,,1463.8472781004384,None,,,,,,,,,,,,,,,,,,,,,,,,,,,,,,,,,,,,,,,,,,,,,,,,,,,,,,,,34ND,001,2023_Apr_05_1738,ExactRep-v3-final,2021.2.3,59.86650996380339,
,,,,7,0,7,0,,,,,,,,,,,,,,,,,,,,,,,,,,,,,,,,,,,,,,,,,,,,,,,,,,,,,,,,,1468.3515312997624,None,,,,,,,,,,,,,,,,,1466.349766000174,None,,,,,,,,,,,,,,,,,,,,,,,,,,,,,,,,,,,,,,,,,,,,,,,,,,,,,,,,34ND,001,2023_Apr_05_1738,ExactRep-v3-final,2021.2.3,59.86650996380339,
,,,,8,0,8,0,,,,,,,,,,,,,,,,,,,,,,,,,,,,,,,,,,,,,,,,,,,,,,,,,,,,,,,,,1470.8539043003693,None,,,,,,,,,,,,,,,,,1468.8522099005058,None,,,,,,,,,,,,,,,,,,,,,,,,,,,,,,,,,,,,,,,,,,,,,,,,,,,,,,,,34ND,001,2023_Apr_05_1738,ExactRep-v3-final,2021.2.3,59.86650996380339,
,,,,9,0,9,0,,,,,,,,,,,,,,,,,,,,,,,,,,,,,,,,,,,,,,,,,,,,,,,,,,,,,,,,,1473.3564181998372,None,,,,,,,,,,,,,,,,,1471.3544391002506,None,,,,,,,,,,,,,,,,,,,,,,,,,,,,,,,,,,,,,,,,,,,,,,,,,,,,,,,,34ND,001,2023_Apr_05_1738,ExactRep-v3-final,2021.2.3,59.86650996380339,
,,,,10,0,10,0,,,,,,,,,,,,,,,,,,,,,,,,,,,,,,,,,,,,,,,,,,,,,,,,,,,,,,,,,1475.859058599919,None,,,,,,,,,,,,,,,,,1473.857302499935,None,,,,,,,,,,,,,,,,,,,,,,,,,,,,,,,,,,,,,,,,,,,,,,,,,,,,,,,,34ND,001,2023_Apr_05_1738,ExactRep-v3-final,2021.2.3,59.86650996380339,
,,,,11,0,11,0,,,,,,,,,,,,,,,,,,,,,,,,,,,,,,,,,,,,,,,,,,,,,,,,,,,,,,,,,1478.3616474997252,None,,,,,,,,,,,,,,,,,1476.3595746001229,None,,,,,,,,,,,,,,,,,,,,,,,,,,,,,,,,,,,,,,,,,,,,,,,,,,,,,,,,34ND,001,2023_Apr_05_1738,ExactRep-v3-final,2021.2.3,59.86650996380339,
,,,,12,0,12,0,,,,,,,,,,,,,,,,,,,,,,,,,,,,,,,,,,,,,,,,,,,,,,,,,,,,,,,,,1480.864054299891,None,,,,,,,,,,,,,,,,,1478.861913099885,None,,,,,,,,,,,,,,,,,,,,,,,,,,,,,,,,,,,,,,,,,,,,,,,,,,,,,,,,34ND,001,2023_Apr_05_1738,ExactRep-v3-final,2021.2.3,59.86650996380339,
,,,,13,0,13,0,,,,,,,,,,,,,,,,,,,,,,,,,,,,,,,,,,,,,,,,,,,,,,,,,,,,,,,,,1483.3664225004613,None,,,,,,,,,,,,,,,,,1481.3646061001346,None,,,,,,,,,,,,,,,,,,,,,,,,,,,,,,,,,,,,,,,,,,,,,,,,,,,,,,,,34ND,001,2023_Apr_05_1738,ExactRep-v3-final,2021.2.3,59.86650996380339,
,,,,14,0,14,0,,,,,,,,,,,,,,,,,,,,,,,,,,,,,,,,,,,,,,,,,,,,,,,,,,,,,,,,,1485.8690761998296,None,,,,,,,,,,,,,,,,,1483.8671161998063,None,,,,,,,,,,,,,,,,,,,,,,,,,,,,,,,,,,,,,,,,,,,,,,,,,,,,,,,,34ND,001,2023_Apr_05_1738,ExactRep-v3-final,2021.2.3,59.86650996380339,
,,,,,,,,,,,,,,,,,,,,,,,,,,,,,,,,,,,,,,,,,,,,,,,,,,,,,,,,,,,,,,,,,,,,,,,,,,,,,,,,,,,,space,23.87702010013163,1496.4932059999555,None,,,,,,,,,,,,,,,,,,,,,,,,,,,,,,,,,,,,,,,,,,,,,,,,,,,,34ND,001,2023_Apr_05_1738,ExactRep-v3-final,2021.2.3,59.86650996380339,
,,,,,,,,0,0,0,0,,,,,,,,,,,,,,,,,,,,,,,,,,,,,,,,,,,,,,,,,,,,,,,,,,,,,1522.455682400614,None,,,,,,,,,,,,,,,,,,,,,,,1486.5301331002265,None,1486.5301331002265,None,1486.5301331002265,None,1486.5301331002265,None,1486.5301331002265,None,1486.5301331002265,None,flower,46,1,silent,white,1520.4512167004868,None,None,1520.4512167004868,None,,,,,,,,,,,,,,,,,,,,,,,,,,,,,,34ND,001,2023_Apr_05_1738,ExactRep-v3-final,2021.2.3,59.86650996380339,
,,,,,,,,1,0,1,0,,,,,,,,,,,,,,,,,,,,,,,,,,,,,,,,,,,,,,,,,,,,,,,,,,,,,1524.9581604003906,None,,,,,,,,,,,,,,,,,,,,,,,,,,,,,,,,,,,hotel,103,2,aloud,blue,1522.9585508005694,None,None,1522.9585508005694,None,,,,,,,,,,,,,,,,,,,,,,,,,,,,,,34ND,001,2023_Apr_05_1738,ExactRep-v3-final,2021.2.3,59.86650996380339,
,,,,,,,,2,0,2,0,,,,,,,,,,,,,,,,,,,,,,,,,,,,,,,,,,,,,,,,,,,,,,,,,,,,,1527.4612547997385,None,,,,,,,,,,,,,,,,,,,,,,,,,,,,,,,,,,,owner,58,3,silent,white,1525.461195600219,None,None,1525.461195600219,None,,,,,,,,,,,,,,,,,,,,,,,,,,,,,,34ND,001,2023_Apr_05_1738,ExactRep-v3-final,2021.2.3,59.86650996380339,
,,,,,,,,3,0,3,0,,,,,,,,,,,,,,,,,,,,,,,,,,,,,,,,,,,,,,,,,,,,,,,,,,,,,1529.9798846002668,None,,,,,,,,,,,,,,,,,,,,,,,,,,,,,,,,,,,memory,86,4,aloud,blue,1527.9819082999602,None,None,1527.9819082999602,None,,,,,,,,,,,,,,,,,,,,,,,,,,,,,,34ND,001,2023_Apr_05_1738,ExactRep-v3-final,2021.2.3,59.86650996380339,
,,,,,,,,4,0,4,0,,,,,,,,,,,,,,,,,,,,,,,,,,,,,,,,,,,,,,,,,,,,,,,,,,,,,1532.4987145001069,None,,,,,,,,,,,,,,,,,,,,,,,,,,,,,,,,,,,custom,45,5,silent,white,1530.4970963997766,None,None,1530.4970963997766,None,,,,,,,,,,,,,,,,,,,,,,,,,,,,,,34ND,001,2023_Apr_05_1738,ExactRep-v3-final,2021.2.3,59.86650996380339,
,,,,,,,,5,0,5,0,,,,,,,,,,,,,,,,,,,,,,,,,,,,,,,,,,,,,,,,,,,,,,,,,,,,,1535.0015839999542,None,,,,,,,,,,,,,,,,,,,,,,,,,,,,,,,,,,,virtue,67,6,silent,white,1532.9995063999668,None,None,1532.9995063999668,None,,,,,,,,,,,,,,,,,,,,,,,,,,,,,,34ND,001,2023_Apr_05_1738,ExactRep-v3-final,2021.2.3,59.86650996380339,
,,,,,,,,6,0,6,0,,,,,,,,,,,,,,,,,,,,,,,,,,,,,,,,,,,,,,,,,,,,,,,,,,,,,1537.520920299925,None,,,,,,,,,,,,,,,,,,,,,,,,,,,,,,,,,,,fortune,73,7,silent,white,1535.5119086997584,None,None,1535.5119086997584,None,,,,,,,,,,,,,,,,,,,,,,,,,,,,,,34ND,001,2023_Apr_05_1738,ExactRep-v3-final,2021.2.3,59.86650996380339,
,,,,,,,,7,0,7,0,,,,,,,,,,,,,,,,,,,,,,,,,,,,,,,,,,,,,,,,,,,,,,,,,,,,,1540.0232512000948,None,,,,,,,,,,,,,,,,,,,,,,,,,,,,,,,,,,,doll,42,8,silent,white,1538.021231200546,None,None,1538.021231200546,None,,,,,,,,,,,,,,,,,,,,,,,,,,,,,,34ND,001,2023_Apr_05_1738,ExactRep-v3-final,2021.2.3,59.86650996380339,
,,,,,,,,8,0,8,0,,,,,,,,,,,,,,,,,,,,,,,,,,,,,,,,,,,,,,,,,,,,,,,,,,,,,1542.5424263998866,None,,,,,,,,,,,,,,,,,,,,,,,,,,,,,,,,,,,student,51,9,silent,white,1540.5272642998025,None,None,1540.5272642998025,None,,,,,,,,,,,,,,,,,,,,,,,,,,,,,,34ND,001,2023_Apr_05_1738,ExactRep-v3-final,2021.2.3,59.86650996380339,
,,,,,,,,9,0,9,0,,,,,,,,,,,,,,,,,,,,,,,,,,,,,,,,,,,,,,,,,,,,,,,,,,,,,1545.0615718998015,None,,,,,,,,,,,,,,,,,,,,,,,,,,,,,,,,,,,law,23,10,sing,red,1543.0461229998618,None,None,1543.0461229998618,None,,,,,,,,,,,,,,,,,,,,,,,,,,,,,,34ND,001,2023_Apr_05_1738,ExactRep-v3-final,2021.2.3,59.86650996380339,
,,,,,,,,10,0,10,0,,,,,,,,,,,,,,,,,,,,,,,,,,,,,,,,,,,,,,,,,,,,,,,,,,,,,1547.5642667002976,None,,,,,,,,,,,,,,,,,,,,,,,,,,,,,,,,,,,author,71,11,silent,white,1545.561894999817,None,None,1545.561894999817,None,,,,,,,,,,,,,,,,,,,,,,,,,,,,,,34ND,001,2023_Apr_05_1738,ExactRep-v3-final,2021.2.3,59.86650996380339,
,,,,,,,,11,0,11,0,,,,,,,,,,,,,,,,,,,,,,,,,,,,,,,,,,,,,,,,,,,,,,,,,,,,,1550.083143199794,None,,,,,,,,,,,,,,,,,,,,,,,,,,,,,,,,,,,earth,74,12,silent,white,1548.0686384998262,None,None,1548.0686384998262,None,,,,,,,,,,,,,,,,,,,,,,,,,,,,,,34ND,001,2023_Apr_05_1738,ExactRep-v3-final,2021.2.3,59.86650996380339,
,,,,,,,,12,0,12,0,,,,,,,,,,,,,,,,,,,,,,,,,,,,,,,,,,,,,,,,,,,,,,,,,,,,,1552.5858891000971,None,,,,,,,,,,,,,,,,,,,,,,,,,,,,,,,,,,,market,99,13,aloud,blue,1550.5857559004799,None,None,1550.5857559004799,None,,,,,,,,,,,,,,,,,,,,,,,,,,,,,,34ND,001,2023_Apr_05_1738,ExactRep-v3-final,2021.2.3,59.86650996380339,
,,,,,,,,13,0,13,0,,,,,,,,,,,,,,,,,,,,,,,,,,,,,,,,,,,,,,,,,,,,,,,,,,,,,1555.1050029005855,None,,,,,,,,,,,,,,,,,,,,,,,,,,,,,,,,,,,volume,25,14,sing,red,1553.0909877996892,None,None,1553.0909877996892,None,,,,,,,,,,,,,,,,,,,,,,,,,,,,,,34ND,001,2023_Apr_05_1738,ExactRep-v3-final,2021.2.3,59.86650996380339,
,,,,,,,,14,0,14,0,,,,,,,,,,,,,,,,,,,,,,,,,,,,,,,,,,,,,,,,,,,,,,,,,,,,,1557.6241527004167,None,,,,,,,,,,,,,,,,,,,,,,,,,,,,,,,,,,,advice,18,15,sing,red,1555.6140104001388,None,None,1555.6140104001388,None,,,,,,,,,,,,,,,,,,,,,,,,,,,,,,34ND,001,2023_Apr_05_1738,ExactRep-v3-final,2021.2.3,59.86650996380339,
,,,,,,,,15,0,15,0,,,,,,,,,,,,,,,,,,,,,,,,,,,,,,,,,,,,,,,,,,,,,,,,,,,,,1560.126616800204,None,,,,,,,,,,,,,,,,,,,,,,,,,,,,,,,,,,,leader,87,16,aloud,blue,1558.1246656002477,None,None,1558.1246656002477,None,,,,,,,,,,,,,,,,,,,,,,,,,,,,,,34ND,001,2023_Apr_05_1738,ExactRep-v3-final,2021.2.3,59.86650996380339,
,,,,,,,,16,0,16,0,,,,,,,,,,,,,,,,,,,,,,,,,,,,,,,,,,,,,,,,,,,,,,,,,,,,,1562.645820000209,None,,,,,,,,,,,,,,,,,,,,,,,,,,,,,,,,,,,cat,5,17,sing,red,1560.6340840002522,None,None,1560.6340840002522,None,,,,,,,,,,,,,,,,,,,,,,,,,,,,,,34ND,001,2023_Apr_05_1738,ExactRep-v3-final,2021.2.3,59.86650996380339,
,,,,,,,,17,0,17,0,,,,,,,,,,,,,,,,,,,,,,,,,,,,,,,,,,,,,,,,,,,,,,,,,,,,,1565.1484264004976,None,,,,,,,,,,,,,,,,,,,,,,,,,,,,,,,,,,,storm,114,18,aloud,blue,1563.1463505001739,None,None,1563.1463505001739,None,,,,,,,,,,,,,,,,,,,,,,,,,,,,,,34ND,001,2023_Apr_05_1738,ExactRep-v3-final,2021.2.3,59.86650996380339,
,,,,,,,,18,0,18,0,,,,,,,,,,,,,,,,,,,,,,,,,,,,,,,,,,,,,,,,,,,,,,,,,,,,,1567.6675978004932,None,,,,,,,,,,,,,,,,,,,,,,,,,,,,,,,,,,,skin,56,19,silent,white,1565.6539479000494,None,None,1565.6539479000494,None,,,,,,,,,,,,,,,,,,,,,,,,,,,,,,34ND,001,2023_Apr_05_1738,ExactRep-v3-final,2021.2.3,59.86650996380339,
,,,,,,,,19,0,19,0,,,,,,,,,,,,,,,,,,,,,,,,,,,,,,,,,,,,,,,,,,,,,,,,,,,,,1570.1700269002467,None,,,,,,,,,,,,,,,,,,,,,,,,,,,,,,,,,,,moment,30,20,sing,red,1568.1680276002735,None,None,1568.1680276002735,None,,,,,,,,,,,,,,,,,,,,,,,,,,,,,,34ND,001,2023_Apr_05_1738,ExactRep-v3-final,2021.2.3,59.86650996380339,
,,,,,,,,20,0,20,0,,,,,,,,,,,,,,,,,,,,,,,,,,,,,,,,,,,,,,,,,,,,,,,,,,,,,1572.6725538000464,None,,,,,,,,,,,,,,,,,,,,,,,,,,,,,,,,,,,letter,1,21,sing,red,1570.6721788002178,None,None,1570.6721788002178,None,,,,,,,,,,,,,,,,,,,,,,,,,,,,,,34ND,001,2023_Apr_05_1738,ExactRep-v3-final,2021.2.3,59.86650996380339,
,,,,,,,,21,0,21,0,,,,,,,,,,,,,,,,,,,,,,,,,,,,,,,,,,,,,,,,,,,,,,,,,,,,,1575.175015900284,None,,,,,,,,,,,,,,,,,,,,,,,,,,,,,,,,,,,kiss,88,22,aloud,blue,1573.172668600455,None,None,1573.172668600455,None,,,,,,,,,,,,,,,,,,,,,,,,,,,,,,34ND,001,2023_Apr_05_1738,ExactRep-v3-final,2021.2.3,59.86650996380339,
,,,,,,,,22,0,22,0,,,,,,,,,,,,,,,,,,,,,,,,,,,,,,,,,,,,,,,,,,,,,,,,,,,,,1577.6776125002652,None,,,,,,,,,,,,,,,,,,,,,,,,,,,,,,,,,,,butter,112,23,aloud,blue,1575.675441400148,None,None,1575.675441400148,None,,,,,,,,,,,,,,,,,,,,,,,,,,,,,,34ND,001,2023_Apr_05_1738,ExactRep-v3-final,2021.2.3,59.86650996380339,
,,,,,,,,23,0,23,0,,,,,,,,,,,,,,,,,,,,,,,,,,,,,,,,,,,,,,,,,,,,,,,,,,,,,1580.1799261998385,None,,,,,,,,,,,,,,,,,,,,,,,,,,,,,,,,,,,stone,20,24,sing,red,1578.1779386000708,None,None,1578.1779386000708,None,,,,,,,,,,,,,,,,,,,,,,,,,,,,,,34ND,001,2023_Apr_05_1738,ExactRep-v3-final,2021.2.3,59.86650996380339,
,,,,,,,,24,0,24,0,,,,,,,,,,,,,,,,,,,,,,,,,,,,,,,,,,,,,,,,,,,,,,,,,,,,,1582.6823410000652,None,,,,,,,,,,,,,,,,,,,,,,,,,,,,,,,,,,,lad,93,25,aloud,blue,1580.6822974998504,None,None,1580.6822974998504,None,,,,,,,,,,,,,,,,,,,,,,,,,,,,,,34ND,001,2023_Apr_05_1738,ExactRep-v3-final,2021.2.3,59.86650996380339,
,,,,,,,,25,0,25,0,,,,,,,,,,,,,,,,,,,,,,,,,,,,,,,,,,,,,,,,,,,,,,,,,,,,,1585.184929200448,None,,,,,,,,,,,,,,,,,,,,,,,,,,,,,,,,,,,mercy,9,26,sing,red,1583.1829078998417,None,None,1583.1829078998417,None,,,,,,,,,,,,,,,,,,,,,,,,,,,,,,34ND,001,2023_Apr_05_1738,ExactRep-v3-final,2021.2.3,59.86650996380339,
,,,,,,,,26,0,26,0,,,,,,,,,,,,,,,,,,,,,,,,,,,,,,,,,,,,,,,,,,,,,,,,,,,,,1587.7038989001885,None,,,,,,,,,,,,,,,,,,,,,,,,,,,,,,,,,,,square,85,27,aloud,blue,1585.7057055002078,None,None,1585.7057055002078,None,,,,,,,,,,,,,,,,,,,,,,,,,,,,,,34ND,001,2023_Apr_05_1738,ExactRep-v3-final,2021.2.3,59.86650996380339,
,,,,,,,,27,0,27,0,,,,,,,,,,,,,,,,,,,,,,,,,,,,,,,,,,,,,,,,,,,,,,,,,,,,,1590.2067852998152,None,,,,,,,,,,,,,,,,,,,,,,,,,,,,,,,,,,,soil,66,28,silent,white,1588.2046771002933,None,None,1588.2046771002933,None,,,,,,,,,,,,,,,,,,,,,,,,,,,,,,34ND,001,2023_Apr_05_1738,ExactRep-v3-final,2021.2.3,59.86650996380339,
,,,,,,,,28,0,28,0,,,,,,,,,,,,,,,,,,,,,,,,,,,,,,,,,,,,,,,,,,,,,,,,,,,,,1592.7258755005896,None,,,,,,,,,,,,,,,,,,,,,,,,,,,,,,,,,,,home,26,29,sing,red,1590.7102912003174,None,None,1590.7102912003174,None,,,,,,,,,,,,,,,,,,,,,,,,,,,,,,34ND,001,2023_Apr_05_1738,ExactRep-v3-final,2021.2.3,59.86650996380339,
,,,,,,,,29,0,29,0,,,,,,,,,,,,,,,,,,,,,,,,,,,,,,,,,,,,,,,,,,,,,,,,,,,,,1595.2284115003422,None,,,,,,,,,,,,,,,,,,,,,,,,,,,,,,,,,,,amount,94,30,aloud,blue,1593.2274131001905,None,None,1593.2274131001905,None,,,,,,,,,,,,,,,,,,,,,,,,,,,,,,34ND,001,2023_Apr_05_1738,ExactRep-v3-final,2021.2.3,59.86650996380339,
,,,,,,,,30,0,30,0,,,,,,,,,,,,,,,,,,,,,,,,,,,,,,,,,,,,,,,,,,,,,,,,,,,,,1597.7307980004698,None,,,,,,,,,,,,,,,,,,,,,,,,,,,,,,,,,,,crime,62,31,silent,white,1595.731851699762,None,None,1595.731851699762,None,,,,,,,,,,,,,,,,,,,,,,,,,,,,,,34ND,001,2023_Apr_05_1738,ExactRep-v3-final,2021.2.3,59.86650996380339,
,,,,,,,,31,0,31,0,,,,,,,,,,,,,,,,,,,,,,,,,,,,,,,,,,,,,,,,,,,,,,,,,,,,,1600.2334678005427,None,,,,,,,,,,,,,,,,,,,,,,,,,,,,,,,,,,,safety,117,32,aloud,blue,1598.23304190021,None,None,1598.23304190021,None,,,,,,,,,,,,,,,,,,,,,,,,,,,,,,34ND,001,2023_Apr_05_1738,ExactRep-v3-final,2021.2.3,59.86650996380339,
,,,,,,,,32,0,32,0,,,,,,,,,,,,,,,,,,,,,,,,,,,,,,,,,,,,,,,,,,,,,,,,,,,,,1602.7357485005632,None,,,,,,,,,,,,,,,,,,,,,,,,,,,,,,,,,,,form,60,33,silent,white,1600.7364528998733,None,None,1600.7364528998733,None,,,,,,,,,,,,,,,,,,,,,,,,,,,,,,34ND,001,2023_Apr_05_1738,ExactRep-v3-final,2021.2.3,59.86650996380339,
,,,,,,,,33,0,33,0,,,,,,,,,,,,,,,,,,,,,,,,,,,,,,,,,,,,,,,,,,,,,,,,,,,,,1605.2551977997646,None,,,,,,,,,,,,,,,,,,,,,,,,,,,,,,,,,,,pride,113,34,aloud,blue,1603.2435755999759,None,None,1603.2435755999759,None,,,,,,,,,,,,,,,,,,,,,,,,,,,,,,34ND,001,2023_Apr_05_1738,ExactRep-v3-final,2021.2.3,59.86650996380339,
,,,,,,,,34,0,34,0,,,,,,,,,,,,,,,,,,,,,,,,,,,,,,,,,,,,,,,,,,,,,,,,,,,,,1607.7743536997586,None,,,,,,,,,,,,,,,,,,,,,,,,,,,,,,,,,,,world,34,35,sing,red,1605.7595635000616,None,None,1605.7595635000616,None,,,,,,,,,,,,,,,,,,,,,,,,,,,,,,34ND,001,2023_Apr_05_1738,ExactRep-v3-final,2021.2.3,59.86650996380339,
,,,,,,,,35,0,35,0,,,,,,,,,,,,,,,,,,,,,,,,,,,,,,,,,,,,,,,,,,,,,,,,,,,,,1610.276828800328,None,,,,,,,,,,,,,,,,,,,,,,,,,,,,,,,,,,,dream,33,36,sing,red,1608.2746561001986,None,None,1608.2746561001986,None,,,,,,,,,,,,,,,,,,,,,,,,,,,,,,34ND,001,2023_Apr_05_1738,ExactRep-v3-final,2021.2.3,59.86650996380339,
,,,,,,,,36,0,36,0,,,,,,,,,,,,,,,,,,,,,,,,,,,,,,,,,,,,,,,,,,,,,,,,,,,,,1612.7958335001022,None,,,,,,,,,,,,,,,,,,,,,,,,,,,,,,,,,,,effort,97,37,aloud,blue,1610.7813721001148,None,None,1610.7813721001148,None,,,,,,,,,,,,,,,,,,,,,,,,,,,,,,34ND,001,2023_Apr_05_1738,ExactRep-v3-final,2021.2.3,59.86650996380339,
,,,,,,,,37,0,37,0,,,,,,,,,,,,,,,,,,,,,,,,,,,,,,,,,,,,,,,,,,,,,,,,,,,,,1615.298547799699,None,,,,,,,,,,,,,,,,,,,,,,,,,,,,,,,,,,,picture,32,38,sing,red,1613.2967857997864,None,None,1613.2967857997864,None,,,,,,,,,,,,,,,,,,,,,,,,,,,,,,34ND,001,2023_Apr_05_1738,ExactRep-v3-final,2021.2.3,59.86650996380339,
,,,,,,,,38,0,38,0,,,,,,,,,,,,,,,,,,,,,,,,,,,,,,,,,,,,,,,,,,,,,,,,,,,,,1617.8175662001595,None,,,,,,,,,,,,,,,,,,,,,,,,,,,,,,,,,,,sky,91,39,aloud,blue,1615.8023132998496,None,None,1615.8023132998496,None,,,,,,,,,,,,,,,,,,,,,,,,,,,,,,34ND,001,2023_Apr_05_1738,ExactRep-v3-final,2021.2.3,59.86650996380339,
,,,,,,,,39,0,39,0,,,,,,,,,,,,,,,,,,,,,,,,,,,,,,,,,,,,,,,,,,,,,,,,,,,,,1620.3368172002956,None,,,,,,,,,,,,,,,,,,,,,,,,,,,,,,,,,,,flood,104,40,aloud,blue,1618.3218021001667,None,None,1618.3218021001667,None,,,,,,,,,,,,,,,,,,,,,,,,,,,,,,34ND,001,2023_Apr_05_1738,ExactRep-v3-final,2021.2.3,59.86650996380339,
,,,,,,,,40,0,40,0,,,,,,,,,,,,,,,,,,,,,,,,,,,,,,,,,,,,,,,,,,,,,,,,,,,,,1622.8394464999437,None,,,,,,,,,,,,,,,,,,,,,,,,,,,,,,,,,,,event,116,41,aloud,blue,1620.8370435005054,None,None,1620.8370435005054,None,,,,,,,,,,,,,,,,,,,,,,,,,,,,,,34ND,001,2023_Apr_05_1738,ExactRep-v3-final,2021.2.3,59.86650996380339,
,,,,,,,,41,0,41,0,,,,,,,,,,,,,,,,,,,,,,,,,,,,,,,,,,,,,,,,,,,,,,,,,,,,,1625.3415652001277,None,,,,,,,,,,,,,,,,,,,,,,,,,,,,,,,,,,,moral,61,42,silent,white,1623.342650800012,None,None,1623.342650800012,None,,,,,,,,,,,,,,,,,,,,,,,,,,,,,,34ND,001,2023_Apr_05_1738,ExactRep-v3-final,2021.2.3,59.86650996380339,
,,,,,,,,42,0,42,0,,,,,,,,,,,,,,,,,,,,,,,,,,,,,,,,,,,,,,,,,,,,,,,,,,,,,1627.8442488005385,None,,,,,,,,,,,,,,,,,,,,,,,,,,,,,,,,,,,door,2,43,sing,red,1625.8423349000514,None,None,1625.8423349000514,None,,,,,,,,,,,,,,,,,,,,,,,,,,,,,,34ND,001,2023_Apr_05_1738,ExactRep-v3-final,2021.2.3,59.86650996380339,
,,,,,,,,43,0,43,0,,,,,,,,,,,,,,,,,,,,,,,,,,,,,,,,,,,,,,,,,,,,,,,,,,,,,1630.363563399762,None,,,,,,,,,,,,,,,,,,,,,,,,,,,,,,,,,,,dawn,52,44,silent,white,1628.348736899905,None,None,1628.348736899905,None,,,,,,,,,,,,,,,,,,,,,,,,,,,,,,34ND,001,2023_Apr_05_1738,ExactRep-v3-final,2021.2.3,59.86650996380339,
,,,,,,,,44,0,44,0,,,,,,,,,,,,,,,,,,,,,,,,,,,,,,,,,,,,,,,,,,,,,,,,,,,,,1632.8658859003335,None,,,,,,,,,,,,,,,,,,,,,,,,,,,,,,,,,,,weapon,39,45,silent,white,1630.8646579002962,None,None,1630.8646579002962,None,,,,,,,,,,,,,,,,,,,,,,,,,,,,,,34ND,001,2023_Apr_05_1738,ExactRep-v3-final,2021.2.3,59.86650996380339,
,,,,,,,,45,0,45,0,,,,,,,,,,,,,,,,,,,,,,,,,,,,,,,,,,,,,,,,,,,,,,,,,,,,,1635.385239600204,None,,,,,,,,,,,,,,,,,,,,,,,,,,,,,,,,,,,method,102,46,aloud,blue,1633.3707133997232,None,None,1633.3707133997232,None,,,,,,,,,,,,,,,,,,,,,,,,,,,,,,34ND,001,2023_Apr_05_1738,ExactRep-v3-final,2021.2.3,59.86650996380339,
,,,,,,,,46,0,46,0,,,,,,,,,,,,,,,,,,,,,,,,,,,,,,,,,,,,,,,,,,,,,,,,,,,,,1637.9044284997508,None,,,,,,,,,,,,,,,,,,,,,,,,,,,,,,,,,,,woman,76,47,silent,white,1635.8935366999358,None,None,1635.8935366999358,None,,,,,,,,,,,,,,,,,,,,,,,,,,,,,,34ND,001,2023_Apr_05_1738,ExactRep-v3-final,2021.2.3,59.86650996380339,
,,,,,,,,47,0,47,0,,,,,,,,,,,,,,,,,,,,,,,,,,,,,,,,,,,,,,,,,,,,,,,,,,,,,1640.4069714006037,None,,,,,,,,,,,,,,,,,,,,,,,,,,,,,,,,,,,shame,110,48,aloud,blue,1638.4046307997778,None,None,1638.4046307997778,None,,,,,,,,,,,,,,,,,,,,,,,,,,,,,,34ND,001,2023_Apr_05_1738,ExactRep-v3-final,2021.2.3,59.86650996380339,
,,,,,,,,48,0,48,0,,,,,,,,,,,,,,,,,,,,,,,,,,,,,,,,,,,,,,,,,,,,,,,,,,,,,1642.9092175001279,None,,,,,,,,,,,,,,,,,,,,,,,,,,,,,,,,,,,potato,12,49,sing,red,1640.9095368003473,None,None,1640.9095368003473,None,,,,,,,,,,,,,,,,,,,,,,,,,,,,,,34ND,001,2023_Apr_05_1738,ExactRep-v3-final,2021.2.3,59.86650996380339,
,,,,,,,,49,0,49,0,,,,,,,,,,,,,,,,,,,,,,,,,,,,,,,,,,,,,,,,,,,,,,,,,,,,,1645.4283159002662,None,,,,,,,,,,,,,,,,,,,,,,,,,,,,,,,,,,,breast,0,50,sing,red,1643.416933500208,None,None,1643.416933500208,None,,,,,,,,,,,,,,,,,,,,,,,,,,,,,,34ND,001,2023_Apr_05_1738,ExactRep-v3-final,2021.2.3,59.86650996380339,
,,,,,,,,50,0,50,0,,,,,,,,,,,,,,,,,,,,,,,,,,,,,,,,,,,,,,,,,,,,,,,,,,,,,1647.9475584998727,None,,,,,,,,,,,,,,,,,,,,,,,,,,,,,,,,,,,college,95,51,aloud,blue,1645.9350650999695,None,None,1645.9350650999695,None,,,,,,,,,,,,,,,,,,,,,,,,,,,,,,34ND,001,2023_Apr_05_1738,ExactRep-v3-final,2021.2.3,59.86650996380339,
,,,,,,,,51,0,51,0,,,,,,,,,,,,,,,,,,,,,,,,,,,,,,,,,,,,,,,,,,,,,,,,,,,,,1650.466904300265,None,,,,,,,,,,,,,,,,,,,,,,,,,,,,,,,,,,,party,19,52,sing,red,1648.4526265999302,None,None,1648.4526265999302,None,,,,,,,,,,,,,,,,,,,,,,,,,,,,,,34ND,001,2023_Apr_05_1738,ExactRep-v3-final,2021.2.3,59.86650996380339,
,,,,,,,,52,0,52,0,,,,,,,,,,,,,,,,,,,,,,,,,,,,,,,,,,,,,,,,,,,,,,,,,,,,,1652.9695578999817,None,,,,,,,,,,,,,,,,,,,,,,,,,,,,,,,,,,,dollar,6,53,sing,red,1650.9673161003739,None,None,1650.9673161003739,None,,,,,,,,,,,,,,,,,,,,,,,,,,,,,,34ND,001,2023_Apr_05_1738,ExactRep-v3-final,2021.2.3,59.86650996380339,
,,,,,,,,53,0,53,0,,,,,,,,,,,,,,,,,,,,,,,,,,,,,,,,,,,,,,,,,,,,,,,,,,,,,1655.4720483003184,None,,,,,,,,,,,,,,,,,,,,,,,,,,,,,,,,,,,colony,109,54,aloud,blue,1653.4725488005206,None,None,1653.4725488005206,None,,,,,,,,,,,,,,,,,,,,,,,,,,,,,,34ND,001,2023_Apr_05_1738,ExactRep-v3-final,2021.2.3,59.86650996380339,
,,,,,,,,54,0,54,0,,,,,,,,,,,,,,,,,,,,,,,,,,,,,,,,,,,,,,,,,,,,,,,,,,,,,1657.991225500591,None,,,,,,,,,,,,,,,,,,,,,,,,,,,,,,,,,,,valley,92,55,aloud,blue,1655.9765514004976,None,None,1655.9765514004976,None,,,,,,,,,,,,,,,,,,,,,,,,,,,,,,34ND,001,2023_Apr_05_1738,ExactRep-v3-final,2021.2.3,59.86650996380339,
,,,,,,,,55,0,55,0,,,,,,,,,,,,,,,,,,,,,,,,,,,,,,,,,,,,,,,,,,,,,,,,,,,,,1660.4934235000983,None,,,,,,,,,,,,,,,,,,,,,,,,,,,,,,,,,,,city,22,56,sing,red,1658.4916721004993,None,None,1658.4916721004993,None,,,,,,,,,,,,,,,,,,,,,,,,,,,,,,34ND,001,2023_Apr_05_1738,ExactRep-v3-final,2021.2.3,59.86650996380339,
,,,,,,,,56,0,56,0,,,,,,,,,,,,,,,,,,,,,,,,,,,,,,,,,,,,,,,,,,,,,,,,,,,,,1663.012879400514,None,,,,,,,,,,,,,,,,,,,,,,,,,,,,,,,,,,,wheat,72,57,silent,white,1661.0000991001725,None,None,1661.0000991001725,None,,,,,,,,,,,,,,,,,,,,,,,,,,,,,,34ND,001,2023_Apr_05_1738,ExactRep-v3-final,2021.2.3,59.86650996380339,
,,,,,,,,57,0,57,0,,,,,,,,,,,,,,,,,,,,,,,,,,,,,,,,,,,,,,,,,,,,,,,,,,,,,1665.5320717999712,None,,,,,,,,,,,,,,,,,,,,,,,,,,,,,,,,,,,ship,101,58,aloud,blue,1663.518769999966,None,None,1663.518769999966,None,,,,,,,,,,,,,,,,,,,,,,,,,,,,,,34ND,001,2023_Apr_05_1738,ExactRep-v3-final,2021.2.3,59.86650996380339,
,,,,,,,,58,0,58,0,,,,,,,,,,,,,,,,,,,,,,,,,,,,,,,,,,,,,,,,,,,,,,,,,,,,,1668.034589599818,None,,,,,,,,,,,,,,,,,,,,,,,,,,,,,,,,,,,cotton,13,59,sing,red,1666.0324977999553,None,None,1666.0324977999553,None,,,,,,,,,,,,,,,,,,,,,,,,,,,,,,34ND,001,2023_Apr_05_1738,ExactRep-v3-final,2021.2.3,59.86650996380339,
,,,,,,,,59,0,59,0,,,,,,,,,,,,,,,,,,,,,,,,,,,,,,,,,,,,,,,,,,,,,,,,,,,,,1670.5535371005535,None,,,,,,,,,,,,,,,,,,,,,,,,,,,,,,,,,,,camp,4,60,sing,red,1668.568305700086,None,None,1668.568305700086,None,,,,,,,,,,,,,,,,,,,,,,,,,,,,,,34ND,001,2023_Apr_05_1738,ExactRep-v3-final,2021.2.3,59.86650996380339,
,,,,,,,,60,0,60,0,,,,,,,,,,,,,,,,,,,,,,,,,,,,,,,,,,,,,,,,,,,,,,,,,,,,,1673.0729587003589,None,,,,,,,,,,,,,,,,,,,,,,,,,,,,,,,,,,,salary,106,61,aloud,blue,1671.0591481002048,None,None,1671.0591481002048,None,,,,,,,,,,,,,,,,,,,,,,,,,,,,,,34ND,001,2023_Apr_05_1738,ExactRep-v3-final,2021.2.3,59.86650996380339,
,,,,,,,,61,0,61,0,,,,,,,,,,,,,,,,,,,,,,,,,,,,,,,,,,,,,,,,,,,,,,,,,,,,,1675.5918990001082,None,,,,,,,,,,,,,,,,,,,,,,,,,,,,,,,,,,,humour,115,62,aloud,blue,1673.578396299854,None,None,1673.578396299854,None,,,,,,,,,,,,,,,,,,,,,,,,,,,,,,34ND,001,2023_Apr_05_1738,ExactRep-v3-final,2021.2.3,59.86650996380339,
,,,,,,,,62,0,62,0,,,,,,,,,,,,,,,,,,,,,,,,,,,,,,,,,,,,,,,,,,,,,,,,,,,,,1678.1112593999133,None,,,,,,,,,,,,,,,,,,,,,,,,,,,,,,,,,,,coffee,37,63,sing,red,1676.1023022998124,None,None,1676.1023022998124,None,,,,,,,,,,,,,,,,,,,,,,,,,,,,,,34ND,001,2023_Apr_05_1738,ExactRep-v3-final,2021.2.3,59.86650996380339,
,,,,,,,,63,0,63,0,,,,,,,,,,,,,,,,,,,,,,,,,,,,,,,,,,,,,,,,,,,,,,,,,,,,,1680.6304791001603,None,,,,,,,,,,,,,,,,,,,,,,,,,,,,,,,,,,,priest,48,64,silent,white,1678.6243580002338,None,None,1678.6243580002338,None,,,,,,,,,,,,,,,,,,,,,,,,,,,,,,34ND,001,2023_Apr_05_1738,ExactRep-v3-final,2021.2.3,59.86650996380339,
,,,,,,,,64,0,64,0,,,,,,,,,,,,,,,,,,,,,,,,,,,,,,,,,,,,,,,,,,,,,,,,,,,,,1683.133355599828,None,,,,,,,,,,,,,,,,,,,,,,,,,,,,,,,,,,,forest,43,65,silent,white,1681.1338376002386,None,None,1681.1338376002386,None,,,,,,,,,,,,,,,,,,,,,,,,,,,,,,34ND,001,2023_Apr_05_1738,ExactRep-v3-final,2021.2.3,59.86650996380339,
,,,,,,,,65,0,65,0,,,,,,,,,,,,,,,,,,,,,,,,,,,,,,,,,,,,,,,,,,,,,,,,,,,,,1685.6522260997444,None,,,,,,,,,,,,,,,,,,,,,,,,,,,,,,,,,,,bar,83,66,aloud,blue,1683.6385182999074,None,None,1683.6385182999074,None,,,,,,,,,,,,,,,,,,,,,,,,,,,,,,34ND,001,2023_Apr_05_1738,ExactRep-v3-final,2021.2.3,59.86650996380339,
,,,,,,,,66,0,66,0,,,,,,,,,,,,,,,,,,,,,,,,,,,,,,,,,,,,,,,,,,,,,,,,,,,,,1688.154516399838,None,,,,,,,,,,,,,,,,,,,,,,,,,,,,,,,,,,,grass,75,67,silent,white,1686.1541336001828,None,None,1686.1541336001828,None,,,,,,,,,,,,,,,,,,,,,,,,,,,,,,34ND,001,2023_Apr_05_1738,ExactRep-v3-final,2021.2.3,59.86650996380339,
,,,,,,,,67,0,67,0,,,,,,,,,,,,,,,,,,,,,,,,,,,,,,,,,,,,,,,,,,,,,,,,,,,,,1690.6737405005842,None,,,,,,,,,,,,,,,,,,,,,,,,,,,,,,,,,,,gift,11,68,sing,red,1688.6583428001031,None,None,1688.6583428001031,None,,,,,,,,,,,,,,,,,,,,,,,,,,,,,,34ND,001,2023_Apr_05_1738,ExactRep-v3-final,2021.2.3,59.86650996380339,
,,,,,,,,68,0,68,0,,,,,,,,,,,,,,,,,,,,,,,,,,,,,,,,,,,,,,,,,,,,,,,,,,,,,1693.176392200403,None,,,,,,,,,,,,,,,,,,,,,,,,,,,,,,,,,,,meadow,84,69,aloud,blue,1691.1743622003123,None,None,1691.1743622003123,None,,,,,,,,,,,,,,,,,,,,,,,,,,,,,,34ND,001,2023_Apr_05_1738,ExactRep-v3-final,2021.2.3,59.86650996380339,
,,,,,,,,69,0,69,0,,,,,,,,,,,,,,,,,,,,,,,,,,,,,,,,,,,,,,,,,,,,,,,,,,,,,1695.6786358002573,None,,,,,,,,,,,,,,,,,,,,,,,,,,,,,,,,,,,charm,79,70,sing,red,1693.678400600329,None,None,1693.678400600329,None,,,,,,,,,,,,,,,,,,,,,,,,,,,,,,34ND,001,2023_Apr_05_1738,ExactRep-v3-final,2021.2.3,59.86650996380339,
,,,,,,,,70,0,70,0,,,,,,,,,,,,,,,,,,,,,,,,,,,,,,,,,,,,,,,,,,,,,,,,,,,,,1698.1813261006027,None,,,,,,,,,,,,,,,,,,,,,,,,,,,,,,,,,,,flag,78,71,silent,white,1696.1814705003053,None,None,1696.1814705003053,None,,,,,,,,,,,,,,,,,,,,,,,,,,,,,,34ND,001,2023_Apr_05_1738,ExactRep-v3-final,2021.2.3,59.86650996380339,
,,,,,,,,71,0,71,0,,,,,,,,,,,,,,,,,,,,,,,,,,,,,,,,,,,,,,,,,,,,,,,,,,,,,1700.7003944003955,None,,,,,,,,,,,,,,,,,,,,,,,,,,,,,,,,,,,sugar,10,72,sing,red,1698.6862708004192,None,None,1698.6862708004192,None,,,,,,,,,,,,,,,,,,,,,,,,,,,,,,34ND,001,2023_Apr_05_1738,ExactRep-v3-final,2021.2.3,59.86650996380339,
,,,,,,,,72,0,72,0,,,,,,,,,,,,,,,,,,,,,,,,,,,,,,,,,,,,,,,,,,,,,,,,,,,,,1703.2030202001333,None,,,,,,,,,,,,,,,,,,,,,,,,,,,,,,,,,,,beast,50,73,silent,white,1701.2034544004127,None,None,1701.2034544004127,None,,,,,,,,,,,,,,,,,,,,,,,,,,,,,,34ND,001,2023_Apr_05_1738,ExactRep-v3-final,2021.2.3,59.86650996380339,
,,,,,,,,73,0,73,0,,,,,,,,,,,,,,,,,,,,,,,,,,,,,,,,,,,,,,,,,,,,,,,,,,,,,1705.7053100997582,None,,,,,,,,,,,,,,,,,,,,,,,,,,,,,,,,,,,girl,41,74,silent,white,1703.7058350006118,None,None,1703.7058350006118,None,,,,,,,,,,,,,,,,,,,,,,,,,,,,,,34ND,001,2023_Apr_05_1738,ExactRep-v3-final,2021.2.3,59.86650996380339,
,,,,,,,,74,0,74,0,,,,,,,,,,,,,,,,,,,,,,,,,,,,,,,,,,,,,,,,,,,,,,,,,,,,,1708.2244180999696,None,,,,,,,,,,,,,,,,,,,,,,,,,,,,,,,,,,,board,17,75,sing,red,1706.213934100233,None,None,1706.213934100233,None,,,,,,,,,,,,,,,,,,,,,,,,,,,,,,34ND,001,2023_Apr_05_1738,ExactRep-v3-final,2021.2.3,59.86650996380339,
,,,,,,,,75,0,75,0,,,,,,,,,,,,,,,,,,,,,,,,,,,,,,,,,,,,,,,,,,,,,,,,,,,,,1710.7439665002748,None,,,,,,,,,,,,,,,,,,,,,,,,,,,,,,,,,,,fate,108,76,aloud,blue,1708.7294164001942,None,None,1708.7294164001942,None,,,,,,,,,,,,,,,,,,,,,,,,,,,,,,34ND,001,2023_Apr_05_1738,ExactRep-v3-final,2021.2.3,59.86650996380339,
,,,,,,,,76,0,76,0,,,,,,,,,,,,,,,,,,,,,,,,,,,,,,,,,,,,,,,,,,,,,,,,,,,,,1713.2463720003143,None,,,,,,,,,,,,,,,,,,,,,,,,,,,,,,,,,,,month,82,77,aloud,blue,1711.2444249996915,None,None,1711.2444249996915,None,,,,,,,,,,,,,,,,,,,,,,,,,,,,,,34ND,001,2023_Apr_05_1738,ExactRep-v3-final,2021.2.3,59.86650996380339,
,,,,,,,,77,0,77,0,,,,,,,,,,,,,,,,,,,,,,,,,,,,,,,,,,,,,,,,,,,,,,,,,,,,,1715.7486626002938,None,,,,,,,,,,,,,,,,,,,,,,,,,,,,,,,,,,,child,105,78,aloud,blue,1713.7468827003613,None,None,1713.7468827003613,None,,,,,,,,,,,,,,,,,,,,,,,,,,,,,,34ND,001,2023_Apr_05_1738,ExactRep-v3-final,2021.2.3,59.86650996380339,
,,,,,,,,78,0,78,0,,,,,,,,,,,,,,,,,,,,,,,,,,,,,,,,,,,,,,,,,,,,,,,,,,,,,1718.2515572998673,None,,,,,,,,,,,,,,,,,,,,,,,,,,,,,,,,,,,trouble,81,79,aloud,blue,1716.2494831997901,None,None,1716.2494831997901,None,,,,,,,,,,,,,,,,,,,,,,,,,,,,,,34ND,001,2023_Apr_05_1738,ExactRep-v3-final,2021.2.3,59.86650996380339,
,,,,,,,,79,0,79,0,,,,,,,,,,,,,,,,,,,,,,,,,,,,,,,,,,,,,,,,,,,,,,,,,,,,,1720.7536188000813,None,,,,,,,,,,,,,,,,,,,,,,,,,,,,,,,,,,,nail,29,80,sing,red,1718.7542874999344,None,None,1718.7542874999344,None,,,,,,,,,,,,,,,,,,,,,,,,,,,,,,34ND,001,2023_Apr_05_1738,ExactRep-v3-final,2021.2.3,59.86650996380339,
,,,,,,,,80,0,80,0,,,,,,,,,,,,,,,,,,,,,,,,,,,,,,,,,,,,,,,,,,,,,,,,,,,,,1723.2565122004598,None,,,,,,,,,,,,,,,,,,,,,,,,,,,,,,,,,,,journal,24,81,sing,red,1721.2548681003973,None,None,1721.2548681003973,None,,,,,,,,,,,,,,,,,,,,,,,,,,,,,,34ND,001,2023_Apr_05_1738,ExactRep-v3-final,2021.2.3,59.86650996380339,
,,,,,,,,81,0,81,0,,,,,,,,,,,,,,,,,,,,,,,,,,,,,,,,,,,,,,,,,,,,,,,,,,,,,1725.758901500143,None,,,,,,,,,,,,,,,,,,,,,,,,,,,,,,,,,,,river,118,82,aloud,blue,1723.7597385998815,None,None,1723.7597385998815,None,,,,,,,,,,,,,,,,,,,,,,,,,,,,,,34ND,001,2023_Apr_05_1738,ExactRep-v3-final,2021.2.3,59.86650996380339,
,,,,,,,,82,0,82,0,,,,,,,,,,,,,,,,,,,,,,,,,,,,,,,,,,,,,,,,,,,,,,,,,,,,,1728.2614946998656,None,,,,,,,,,,,,,,,,,,,,,,,,,,,,,,,,,,,season,40,83,silent,white,1726.2592900004238,None,None,1726.2592900004238,None,,,,,,,,,,,,,,,,,,,,,,,,,,,,,,34ND,001,2023_Apr_05_1738,ExactRep-v3-final,2021.2.3,59.86650996380339,
,,,,,,,,83,0,83,0,,,,,,,,,,,,,,,,,,,,,,,,,,,,,,,,,,,,,,,,,,,,,,,,,,,,,1730.7638627002016,None,,,,,,,,,,,,,,,,,,,,,,,,,,,,,,,,,,,cabin,69,84,silent,white,1728.7618161002174,None,None,1728.7618161002174,None,,,,,,,,,,,,,,,,,,,,,,,,,,,,,,34ND,001,2023_Apr_05_1738,ExactRep-v3-final,2021.2.3,59.86650996380339,
,,,,,,,,84,0,84,0,,,,,,,,,,,,,,,,,,,,,,,,,,,,,,,,,,,,,,,,,,,,,,,,,,,,,1733.2828259002417,None,,,,,,,,,,,,,,,,,,,,,,,,,,,,,,,,,,,length,14,85,sing,red,1731.268661200069,None,None,1731.268661200069,None,,,,,,,,,,,,,,,,,,,,,,,,,,,,,,34ND,001,2023_Apr_05_1738,ExactRep-v3-final,2021.2.3,59.86650996380339,
,,,,,,,,85,0,85,0,,,,,,,,,,,,,,,,,,,,,,,,,,,,,,,,,,,,,,,,,,,,,,,,,,,,,1735.8021700996906,None,,,,,,,,,,,,,,,,,,,,,,,,,,,,,,,,,,,cash,119,86,aloud,blue,1733.7901151003316,None,None,1733.7901151003316,None,,,,,,,,,,,,,,,,,,,,,,,,,,,,,,34ND,001,2023_Apr_05_1738,ExactRep-v3-final,2021.2.3,59.86650996380339,
,,,,,,,,86,0,86,0,,,,,,,,,,,,,,,,,,,,,,,,,,,,,,,,,,,,,,,,,,,,,,,,,,,,,1738.3046268001199,None,,,,,,,,,,,,,,,,,,,,,,,,,,,,,,,,,,,artist,47,87,silent,white,1736.3028020998463,None,None,1736.3028020998463,None,,,,,,,,,,,,,,,,,,,,,,,,,,,,,,34ND,001,2023_Apr_05_1738,ExactRep-v3-final,2021.2.3,59.86650996380339,
,,,,,,,,87,0,87,0,,,,,,,,,,,,,,,,,,,,,,,,,,,,,,,,,,,,,,,,,,,,,,,,,,,,,1740.82388000004,None,,,,,,,,,,,,,,,,,,,,,,,,,,,,,,,,,,,engine,3,88,sing,red,1738.8150629997253,None,None,1738.8150629997253,None,,,,,,,,,,,,,,,,,,,,,,,,,,,,,,34ND,001,2023_Apr_05_1738,ExactRep-v3-final,2021.2.3,59.86650996380339,
,,,,,,,,88,0,88,0,,,,,,,,,,,,,,,,,,,,,,,,,,,,,,,,,,,,,,,,,,,,,,,,,,,,,1743.3263383004814,None,,,,,,,,,,,,,,,,,,,,,,,,,,,,,,,,,,,army,54,89,silent,white,1741.3244425999,None,None,1741.3244425999,None,,,,,,,,,,,,,,,,,,,,,,,,,,,,,,34ND,001,2023_Apr_05_1738,ExactRep-v3-final,2021.2.3,59.86650996380339,
,,,,,,,,89,0,89,0,,,,,,,,,,,,,,,,,,,,,,,,,,,,,,,,,,,,,,,,,,,,,,,,,,,,,1745.8454871997237,None,,,,,,,,,,,,,,,,,,,,,,,,,,,,,,,,,,,lip,77,90,silent,white,1743.836137600243,None,None,1743.836137600243,None,,,,,,,,,,,,,,,,,,,,,,,,,,,,,,34ND,001,2023_Apr_05_1738,ExactRep-v3-final,2021.2.3,59.86650996380339,
,,,,,,,,90,0,90,0,,,,,,,,,,,,,,,,,,,,,,,,,,,,,,,,,,,,,,,,,,,,,,,,,,,,,1748.3481622003019,None,,,,,,,,,,,,,,,,,,,,,,,,,,,,,,,,,,,woods,111,91,aloud,blue,1746.347458800301,None,None,1746.347458800301,None,,,,,,,,,,,,,,,,,,,,,,,,,,,,,,34ND,001,2023_Apr_05_1738,ExactRep-v3-final,2021.2.3,59.86650996380339,
,,,,,,,,91,0,91,0,,,,,,,,,,,,,,,,,,,,,,,,,,,,,,,,,,,,,,,,,,,,,,,,,,,,,1750.8505156002939,None,,,,,,,,,,,,,,,,,,,,,,,,,,,,,,,,,,,metal,63,92,silent,white,1748.8487031999975,None,None,1748.8487031999975,None,,,,,,,,,,,,,,,,,,,,,,,,,,,,,,34ND,001,2023_Apr_05_1738,ExactRep-v3-final,2021.2.3,59.86650996380339,
,,,,,,,,92,0,92,0,,,,,,,,,,,,,,,,,,,,,,,,,,,,,,,,,,,,,,,,,,,,,,,,,,,,,1753.3699117004871,None,,,,,,,,,,,,,,,,,,,,,,,,,,,,,,,,,,,lake,70,93,silent,white,1751.3559688003734,None,None,1751.3559688003734,None,,,,,,,,,,,,,,,,,,,,,,,,,,,,,,34ND,001,2023_Apr_05_1738,ExactRep-v3-final,2021.2.3,59.86650996380339,
,,,,,,,,93,0,93,0,,,,,,,,,,,,,,,,,,,,,,,,,,,,,,,,,,,,,,,,,,,,,,,,,,,,,1755.8724239999428,None,,,,,,,,,,,,,,,,,,,,,,,,,,,,,,,,,,,series,7,94,sing,red,1753.870374600403,None,None,1753.870374600403,None,,,,,,,,,,,,,,,,,,,,,,,,,,,,,,34ND,001,2023_Apr_05_1738,ExactRep-v3-final,2021.2.3,59.86650996380339,
,,,,,,,,94,0,94,0,,,,,,,,,,,,,,,,,,,,,,,,,,,,,,,,,,,,,,,,,,,,,,,,,,,,,1758.3915862003341,None,,,,,,,,,,,,,,,,,,,,,,,,,,,,,,,,,,,fur,90,95,aloud,blue,1756.3818556005135,None,None,1756.3818556005135,None,,,,,,,,,,,,,,,,,,,,,,,,,,,,,,34ND,001,2023_Apr_05_1738,ExactRep-v3-final,2021.2.3,59.86650996380339,
,,,,,,,,95,0,95,0,,,,,,,,,,,,,,,,,,,,,,,,,,,,,,,,,,,,,,,,,,,,,,,,,,,,,1760.894098199904,None,,,,,,,,,,,,,,,,,,,,,,,,,,,,,,,,,,,winter,44,96,silent,white,1758.892775800079,None,None,1758.892775800079,None,,,,,,,,,,,,,,,,,,,,,,,,,,,,,,34ND,001,2023_Apr_05_1738,ExactRep-v3-final,2021.2.3,59.86650996380339,
,,,,,,,,96,0,96,0,,,,,,,,,,,,,,,,,,,,,,,,,,,,,,,,,,,,,,,,,,,,,,,,,,,,,1763.413228499703,None,,,,,,,,,,,,,,,,,,,,,,,,,,,,,,,,,,,pole,98,97,aloud,blue,1761.398700799793,None,None,1761.398700799793,None,,,,,,,,,,,,,,,,,,,,,,,,,,,,,,34ND,001,2023_Apr_05_1738,ExactRep-v3-final,2021.2.3,59.86650996380339,
,,,,,,,,97,0,97,0,,,,,,,,,,,,,,,,,,,,,,,,,,,,,,,,,,,,,,,,,,,,,,,,,,,,,1765.9336219001561,None,,,,,,,,,,,,,,,,,,,,,,,,,,,,,,,,,,,death,65,98,silent,white,1763.920576300472,None,None,1763.920576300472,None,,,,,,,,,,,,,,,,,,,,,,,,,,,,,,34ND,001,2023_Apr_05_1738,ExactRep-v3-final,2021.2.3,59.86650996380339,
,,,,,,,,98,0,98,0,,,,,,,,,,,,,,,,,,,,,,,,,,,,,,,,,,,,,,,,,,,,,,,,,,,,,1768.4570524999872,None,,,,,,,,,,,,,,,,,,,,,,,,,,,,,,,,,,,heaven,57,99,silent,white,1766.436979399994,None,None,1766.436979399994,None,,,,,,,,,,,,,,,,,,,,,,,,,,,,,,34ND,001,2023_Apr_05_1738,ExactRep-v3-final,2021.2.3,59.86650996380339,
,,,,,,,,99,0,99,0,,,,,,,,,,,,,,,,,,,,,,,,,,,,,,,,,,,,,,,,,,,,,,,,,,,,,1770.9706736002117,None,,,,,,,,,,,,,,,,,,,,,,,,,,,,,,,,,,,opinion,27,100,sing,red,1768.9589942004532,None,None,1768.9589942004532,None,,,,,,,,,,,,,,,,,,,,,,,,,,,,,,34ND,001,2023_Apr_05_1738,ExactRep-v3-final,2021.2.3,59.86650996380339,
,,,,,,,,100,0,100,0,,,,,,,,,,,,,,,,,,,,,,,,,,,,,,,,,,,,,,,,,,,,,,,,,,,,,1773.4901400003582,None,,,,,,,,,,,,,,,,,,,,,,,,,,,,,,,,,,,garden,59,101,silent,white,1771.4746417999268,None,None,1771.4746417999268,None,,,,,,,,,,,,,,,,,,,,,,,,,,,,,,34ND,001,2023_Apr_05_1738,ExactRep-v3-final,2021.2.3,59.86650996380339,
,,,,,,,,101,0,101,0,,,,,,,,,,,,,,,,,,,,,,,,,,,,,,,,,,,,,,,,,,,,,,,,,,,,,1775.9925367003307,None,,,,,,,,,,,,,,,,,,,,,,,,,,,,,,,,,,,style,89,102,aloud,blue,1773.9919341998175,None,None,1773.9919341998175,None,,,,,,,,,,,,,,,,,,,,,,,,,,,,,,34ND,001,2023_Apr_05_1738,ExactRep-v3-final,2021.2.3,59.86650996380339,
,,,,,,,,102,0,102,0,,,,,,,,,,,,,,,,,,,,,,,,,,,,,,,,,,,,,,,,,,,,,,,,,,,,,1778.511575399898,None,,,,,,,,,,,,,,,,,,,,,,,,,,,,,,,,,,,steam,38,103,sing,red,1776.496097699739,None,None,1776.496097699739,None,,,,,,,,,,,,,,,,,,,,,,,,,,,,,,34ND,001,2023_Apr_05_1738,ExactRep-v3-final,2021.2.3,59.86650996380339,
,,,,,,,,103,0,103,0,,,,,,,,,,,,,,,,,,,,,,,,,,,,,,,,,,,,,,,,,,,,,,,,,,,,,1781.0309850005433,None,,,,,,,,,,,,,,,,,,,,,,,,,,,,,,,,,,,spirit,80,104,aloud,blue,1779.016771200113,None,None,1779.016771200113,None,,,,,,,,,,,,,,,,,,,,,,,,,,,,,,34ND,001,2023_Apr_05_1738,ExactRep-v3-final,2021.2.3,59.86650996380339,
,,,,,,,,104,0,104,0,,,,,,,,,,,,,,,,,,,,,,,,,,,,,,,,,,,,,,,,,,,,,,,,,,,,,1783.5499106999487,None,,,,,,,,,,,,,,,,,,,,,,,,,,,,,,,,,,,teacher,35,105,sing,red,1781.5344296004623,None,None,1781.5344296004623,None,,,,,,,,,,,,,,,,,,,,,,,,,,,,,,34ND,001,2023_Apr_05_1738,ExactRep-v3-final,2021.2.3,59.86650996380339,
,,,,,,,,105,0,105,0,,,,,,,,,,,,,,,,,,,,,,,,,,,,,,,,,,,,,,,,,,,,,,,,,,,,,1786.0526104997844,None,,,,,,,,,,,,,,,,,,,,,,,,,,,,,,,,,,,disease,68,106,silent,white,1784.0512607004493,None,None,1784.0512607004493,None,,,,,,,,,,,,,,,,,,,,,,,,,,,,,,34ND,001,2023_Apr_05_1738,ExactRep-v3-final,2021.2.3,59.86650996380339,
,,,,,,,,106,0,106,0,,,,,,,,,,,,,,,,,,,,,,,,,,,,,,,,,,,,,,,,,,,,,,,,,,,,,1788.5717422999442,None,,,,,,,,,,,,,,,,,,,,,,,,,,,,,,,,,,,ocean,64,107,silent,white,1786.5570934005082,None,None,1786.5570934005082,None,,,,,,,,,,,,,,,,,,,,,,,,,,,,,,34ND,001,2023_Apr_05_1738,ExactRep-v3-final,2021.2.3,59.86650996380339,
,,,,,,,,107,0,107,0,,,,,,,,,,,,,,,,,,,,,,,,,,,,,,,,,,,,,,,,,,,,,,,,,,,,,1791.0775564005598,None,,,,,,,,,,,,,,,,,,,,,,,,,,,,,,,,,,,grief,8,108,sing,red,1789.072877800092,None,None,1789.072877800092,None,,,,,,,,,,,,,,,,,,,,,,,,,,,,,,34ND,001,2023_Apr_05_1738,ExactRep-v3-final,2021.2.3,59.86650996380339,
,,,,,,,,108,0,108,0,,,,,,,,,,,,,,,,,,,,,,,,,,,,,,,,,,,,,,,,,,,,,,,,,,,,,1793.5934653002769,None,,,,,,,,,,,,,,,,,,,,,,,,,,,,,,,,,,,wine,28,109,sing,red,1791.5936881005764,None,None,1791.5936881005764,None,,,,,,,,,,,,,,,,,,,,,,,,,,,,,,34ND,001,2023_Apr_05_1738,ExactRep-v3-final,2021.2.3,59.86650996380339,
,,,,,,,,109,0,109,0,,,,,,,,,,,,,,,,,,,,,,,,,,,,,,,,,,,,,,,,,,,,,,,,,,,,,1796.0959194004536,None,,,,,,,,,,,,,,,,,,,,,,,,,,,,,,,,,,,string,49,110,silent,white,1794.0967373000458,None,None,1794.0967373000458,None,,,,,,,,,,,,,,,,,,,,,,,,,,,,,,34ND,001,2023_Apr_05_1738,ExactRep-v3-final,2021.2.3,59.86650996380339,
,,,,,,,,110,0,110,0,,,,,,,,,,,,,,,,,,,,,,,,,,,,,,,,,,,,,,,,,,,,,,,,,,,,,1798.5984580004588,None,,,,,,,,,,,,,,,,,,,,,,,,,,,,,,,,,,,friend,36,111,sing,red,1796.5981541005895,None,None,1796.5981541005895,None,,,,,,,,,,,,,,,,,,,,,,,,,,,,,,34ND,001,2023_Apr_05_1738,ExactRep-v3-final,2021.2.3,59.86650996380339,
,,,,,,,,111,0,111,0,,,,,,,,,,,,,,,,,,,,,,,,,,,,,,,,,,,,,,,,,,,,,,,,,,,,,1801.1176062999293,None,,,,,,,,,,,,,,,,,,,,,,,,,,,,,,,,,,,justice,107,112,aloud,blue,1799.1034323005006,None,None,1799.1034323005006,None,,,,,,,,,,,,,,,,,,,,,,,,,,,,,,34ND,001,2023_Apr_05_1738,ExactRep-v3-final,2021.2.3,59.86650996380339,
,,,,,,,,112,0,112,0,,,,,,,,,,,,,,,,,,,,,,,,,,,,,,,,,,,,,,,,,,,,,,,,,,,,,1803.6201282003894,None,,,,,,,,,,,,,,,,,,,,,,,,,,,,,,,,,,,dress,53,113,silent,white,1801.6181127997115,None,None,1801.6181127997115,None,,,,,,,,,,,,,,,,,,,,,,,,,,,,,,34ND,001,2023_Apr_05_1738,ExactRep-v3-final,2021.2.3,59.86650996380339,
,,,,,,,,113,0,113,0,,,,,,,,,,,,,,,,,,,,,,,,,,,,,,,,,,,,,,,,,,,,,,,,,,,,,1806.1224974999204,None,,,,,,,,,,,,,,,,,,,,,,,,,,,,,,,,,,,devil,55,114,silent,white,1804.1221831003204,None,None,1804.1221831003204,None,,,,,,,,,,,,,,,,,,,,,,,,,,,,,,34ND,001,2023_Apr_05_1738,ExactRep-v3-final,2021.2.3,59.86650996380339,
,,,,,,,,114,0,114,0,,,,,,,,,,,,,,,,,,,,,,,,,,,,,,,,,,,,,,,,,,,,,,,,,,,,,1808.625178400427,None,,,,,,,,,,,,,,,,,,,,,,,,,,,,,,,,,,,shadow,31,115,sing,red,1806.6231027003378,None,None,1806.6231027003378,None,,,,,,,,,,,,,,,,,,,,,,,,,,,,,,34ND,001,2023_Apr_05_1738,ExactRep-v3-final,2021.2.3,59.86650996380339,
,,,,,,,,115,0,115,0,,,,,,,,,,,,,,,,,,,,,,,,,,,,,,,,,,,,,,,,,,,,,,,,,,,,,1811.1443287003785,None,,,,,,,,,,,,,,,,,,,,,,,,,,,,,,,,,,,queen,15,116,sing,red,1809.1368032004684,None,None,1809.1368032004684,None,,,,,,,,,,,,,,,,,,,,,,,,,,,,,,34ND,001,2023_Apr_05_1738,ExactRep-v3-final,2021.2.3,59.86650996380339,
,,,,,,,,116,0,116,0,,,,,,,,,,,,,,,,,,,,,,,,,,,,,,,,,,,,,,,,,,,,,,,,,,,,,1813.646705799736,None,,,,,,,,,,,,,,,,,,,,,,,,,,,,,,,,,,,ticket,21,117,sing,red,1811.6447267001495,None,None,1811.6447267001495,None,,,,,,,,,,,,,,,,,,,,,,,,,,,,,,34ND,001,2023_Apr_05_1738,ExactRep-v3-final,2021.2.3,59.86650996380339,
,,,,,,,,117,0,117,0,,,,,,,,,,,,,,,,,,,,,,,,,,,,,,,,,,,,,,,,,,,,,,,,,,,,,1816.1491911998019,None,,,,,,,,,,,,,,,,,,,,,,,,,,,,,,,,,,,history,100,118,aloud,blue,1814.1474743997678,None,None,1814.1474743997678,None,,,,,,,,,,,,,,,,,,,,,,,,,,,,,,34ND,001,2023_Apr_05_1738,ExactRep-v3-final,2021.2.3,59.86650996380339,
,,,,,,,,118,0,118,0,,,,,,,,,,,,,,,,,,,,,,,,,,,,,,,,,,,,,,,,,,,,,,,,,,,,,1818.6516990996897,None,,,,,,,,,,,,,,,,,,,,,,,,,,,,,,,,,,,star,96,119,aloud,blue,1816.649837099947,None,None,1816.649837099947,None,,,,,,,,,,,,,,,,,,,,,,,,,,,,,,34ND,001,2023_Apr_05_1738,ExactRep-v3-final,2021.2.3,59.86650996380339,
,,,,,,,,119,0,119,0,,,,,,,,,,,,,,,,,,,,,,,,,,,,,,,,,,,,,,,,,,,,,,,,,,,,,1821.1545464005321,None,,,,,,,,,,,,,,,,,,,,,,,,,,,,,,,,,,,clock,16,120,sing,red,1819.1524394005537,None,None,1819.1524394005537,None,,,,,,,,,,,,,,,,,,,,,,,,,,,,,,34ND,001,2023_Apr_05_1738,ExactRep-v3-final,2021.2.3,59.86650996380339,
,,,,,,,,,,,,,,,,,,,,,,,,,,,,,,,,,,,,,,,,,,,,,,,,,,,,,,,,,,,,,,,,,,,,,,,,,,,,,,,,,,,,,,,,,,,,,,,,,,,,,,,,,,,,,,1821.656562000513,None,space,1.690034200437367,1831.6327990004793,None,,,,,,,,,,,,,,,,,,,,,,,,34ND,001,2023_Apr_05_1738,ExactRep-v3-final,2021.2.3,59.86650996380339,
,,,,,,,,,,,,,,,,,,,,,,,,,,,,,,,,,,,,,,,,,,,,,,,,,,,,,,,,,,,,,,,,,,,,,,,,,,,,,,,,,,,,,,,,,,,,,,,,,,,,,,,,,,,,,,,,,,,,1833.3518035998568,None,space,45.29895900003612,1843.3280621999875,None,,,,,,,,,,,,,,,,,,34ND,001,2023_Apr_05_1738,ExactRep-v3-final,2021.2.3,59.86650996380339,
,,,,,,,,,,,,0,0,0,0,,,,,,,,,,,,,,,,,,,,,,,,,,,,,,,,,,,,,,,,,,,,,,,,,1896.3295157002285,None,,,,,,,,,,,,,,,,,,,,,,,,,,,,,,,,,,,,,,,,,,,,,,,,,,,,,,,,,boulder,182,1,aloud,new,yellow,1889.161296600476,None,n,1889.161296600476,None,"['n', 'return']","[4.905379199422896, 7.129310599528253]",1889.161296600476,None,,,34ND,001,2023_Apr_05_1738,ExactRep-v3-final,2021.2.3,59.86650996380339,
,,,,,,,,,,,,1,0,1,0,,,,,,,,,,,,,,,,,,,,,,,,,,,,,,,,,,,,,,,,,,,,,,,,,1910.4656496997923,None,,,,,,,,,,,,,,,,,,,,,,,,,,,,,,,,,,,,,,,,,,,,,,,,,,,,,,,,,fact,174,2,aloud,new,yellow,1896.8396318005398,None,y,1896.8396318005398,None,"['y', 'return']","[12.699139799922705, 13.578873400576413]",1896.8396318005398,None,,,34ND,001,2023_Apr_05_1738,ExactRep-v3-final,2021.2.3,59.86650996380339,
,,,,,,,,,,,,2,0,2,0,,,,,,,,,,,,,,,,,,,,,,,,,,,,,,,,,,,,,,,,,,,,,,,,,1912.0784192001447,None,,,,,,,,,,,,,,,,,,,,,,,,,,,,,,,,,,,,,,,,,,,,,,,,,,,,,,,,,clock,16,3,sing,old,yellow,1910.9859250998124,None,y,1910.9859250998124,None,"['y', 'return']","[0.6969865998253226, 1.0486048003658652]",1910.9859250998124,None,,,34ND,001,2023_Apr_05_1738,ExactRep-v3-final,2021.2.3,59.86650996380339,
,,,,,,,,,,,,3,0,3,0,,,,,,,,,,,,,,,,,,,,,,,,,,,,,,,,,,,,,,,,,,,,,,,,,1913.6132501000538,None,,,,,,,,,,,,,,,,,,,,,,,,,,,,,,,,,,,,,,,,,,,,,,,,,,,,,,,,,avenue,165,4,sing,new,yellow,1912.5886265998706,None,y,1912.5886265998706,None,"['y', 'return']","[0.7739249002188444, 0.9819498006254435]",1912.5886265998706,None,,,34ND,001,2023_Apr_05_1738,ExactRep-v3-final,2021.2.3,59.86650996380339,
,,,,,,,,,,,,4,0,4,0,,,,,,,,,,,,,,,,,,,,,,,,,,,,,,,,,,,,,,,,,,,,,,,,,1915.5318466005847,None,,,,,,,,,,,,,,,,,,,,,,,,,,,,,,,,,,,,,,,,,,,,,,,,,,,,,,,,,person,201,5,sing,new,yellow,1914.127881700173,None,n,1914.127881700173,None,"['n', 'return']","[1.1947254994884133, 1.3626523995772004]",1914.127881700173,None,,,34ND,001,2023_Apr_05_1738,ExactRep-v3-final,2021.2.3,59.86650996380339,
,,,,,,,,,,,,5,0,5,0,,,,,,,,,,,,,,,,,,,,,,,,,,,,,,,,,,,,,,,,,,,,,,,,,1918.0845010997728,None,,,,,,,,,,,,,,,,,,,,,,,,,,,,,,,,,,,,,,,,,,,,,,,,,,,,,,,,,engine,3,6,sing,old,yellow,1916.0387161998078,None,y,1916.0387161998078,None,"['y', 'return']","[1.8038991000503302, 2.0040274998173118]",1916.0387161998078,None,,,34ND,001,2023_Apr_05_1738,ExactRep-v3-final,2021.2.3,59.86650996380339,
,,,,,,,,,,,,6,0,6,0,,,,,,,,,,,,,,,,,,,,,,,,,,,,,,,,,,,,,,,,,,,,,,,,,1919.5026611005887,None,,,,,,,,,,,,,,,,,,,,,,,,,,,,,,,,,,,,,,,,,,,,,,,,,,,,,,,,,thought,156,7,silent,new,yellow,1918.59391660057,None,y,1918.59391660057,None,"['y', 'return']","[0.6726542999967933, 0.8726831004023552]",1918.59391660057,None,,,34ND,001,2023_Apr_05_1738,ExactRep-v3-final,2021.2.3,59.86650996380339,
,,,,,,,,,,,,7,0,7,0,,,,,,,,,,,,,,,,,,,,,,,,,,,,,,,,,,,,,,,,,,,,,,,,,1921.5713451998308,None,,,,,,,,,,,,,,,,,,,,,,,,,,,,,,,,,,,,,,,,,,,,,,,,,,,,,,,,,hotel,103,8,aloud,old,yellow,1920.0128792002797,None,y,1920.0128792002797,None,"['y', 'return']","[1.205667500384152, 1.5255500003695488]",1920.0128792002797,None,,,34ND,001,2023_Apr_05_1738,ExactRep-v3-final,2021.2.3,59.86650996380339,
,,,,,,,,,,,,8,0,8,0,,,,,,,,,,,,,,,,,,,,,,,,,,,,,,,,,,,,,,,,,,,,,,,,,1923.389736900106,None,,,,,,,,,,,,,,,,,,,,,,,,,,,,,,,,,,,,,,,,,,,,,,,,,,,,,,,,,weapon,39,9,silent,old,yellow,1922.0922060003504,None,n,1922.0922060003504,None,"['n', 'return']","[1.0303696002811193, 1.2543186005204916]",1922.0922060003504,None,,,34ND,001,2023_Apr_05_1738,ExactRep-v3-final,2021.2.3,59.86650996380339,
,,,,,,,,,,,,9,0,9,0,,,,,,,,,,,,,,,,,,,,,,,,,,,,,,,,,,,,,,,,,,,,,,,,,1924.9245979003608,None,,,,,,,,,,,,,,,,,,,,,,,,,,,,,,,,,,,,,,,,,,,,,,,,,,,,,,,,,iron,128,10,silent,new,yellow,1923.900147399865,None,n,1923.900147399865,None,"['n', 'return']","[0.7264343006536365, 0.9824075000360608]",1923.900147399865,None,,,34ND,001,2023_Apr_05_1738,ExactRep-v3-final,2021.2.3,59.86650996380339,
,,,,,,,,,,,,10,0,10,0,,,,,,,,,,,,,,,,,,,,,,,,,,,,,,,,,,,,,,,,,,,,,,,,,1926.5929306996986,None,,,,,,,,,,,,,,,,,,,,,,,,,,,,,,,,,,,,,,,,,,,,,,,,,,,,,,,,,nail,29,11,sing,old,yellow,1925.434963000007,None,y,1925.434963000007,None,"['y', 'return']","[0.8315985994413495, 1.1115971999242902]",1925.434963000007,None,,,34ND,001,2023_Apr_05_1738,ExactRep-v3-final,2021.2.3,59.86650996380339,
,,,,,,,,,,,,11,0,11,0,,,,,,,,,,,,,,,,,,,,,,,,,,,,,,,,,,,,,,,,,,,,,,,,,1928.244533999823,None,,,,,,,,,,,,,,,,,,,,,,,,,,,,,,,,,,,,,,,,,,,,,,,,,,,,,,,,,journal,24,12,sing,old,yellow,1927.1035785004497,None,y,1927.1035785004497,None,"['y', 'return']","[0.8670736001804471, 1.1070322999730706]",1927.1035785004497,None,,,34ND,001,2023_Apr_05_1738,ExactRep-v3-final,2021.2.3,59.86650996380339,
,,,,,,,,,,,,12,0,12,0,,,,,,,,,,,,,,,,,,,,,,,,,,,,,,,,,,,,,,,,,,,,,,,,,1929.7629412999377,None,,,,,,,,,,,,,,,,,,,,,,,,,,,,,,,,,,,,,,,,,,,,,,,,,,,,,,,,,flag,78,13,silent,old,yellow,1928.7544232998043,None,y,1928.7544232998043,None,"['y', 'return']","[0.6962055005133152, 0.9602496000006795]",1928.7544232998043,None,,,34ND,001,2023_Apr_05_1738,ExactRep-v3-final,2021.2.3,59.86650996380339,
,,,,,,,,,,,,13,0,13,0,,,,,,,,,,,,,,,,,,,,,,,,,,,,,,,,,,,,,,,,,,,,,,,,,1931.0975090004504,None,,,,,,,,,,,,,,,,,,,,,,,,,,,,,,,,,,,,,,,,,,,,,,,,,,,,,,,,,pride,113,14,aloud,old,yellow,1930.2784513002262,None,y,1930.2784513002262,None,"['y', 'return']","[0.5320549998432398, 0.7800928996875882]",1930.2784513002262,None,,,34ND,001,2023_Apr_05_1738,ExactRep-v3-final,2021.2.3,59.86650996380339,
,,,,,,,,,,,,14,0,14,0,,,,,,,,,,,,,,,,,,,,,,,,,,,,,,,,,,,,,,,,,,,,,,,,,1933.3165710000321,None,,,,,,,,,,,,,,,,,,,,,,,,,,,,,,,,,,,,,,,,,,,,,,,,,,,,,,,,,lip,77,15,silent,old,yellow,1931.6056137001142,None,n,1931.6056137001142,None,"['n', 'return']","[1.4371758997440338, 1.6769968001171947]",1931.6056137001142,None,,,34ND,001,2023_Apr_05_1738,ExactRep-v3-final,2021.2.3,59.86650996380339,
,,,,,,,,,,,,15,0,15,0,,,,,,,,,,,,,,,,,,,,,,,,,,,,,,,,,,,,,,,,,,,,,,,,,1934.7010195003822,None,,,,,,,,,,,,,,,,,,,,,,,,,,,,,,,,,,,,,,,,,,,,,,,,,,,,,,,,,time,131,16,silent,new,yellow,1933.8236461998895,None,n,1933.8236461998895,None,"['n', 'return']","[0.6191407991573215, 0.8429011991247535]",1933.8236461998895,None,,,34ND,001,2023_Apr_05_1738,ExactRep-v3-final,2021.2.3,59.86650996380339,
,,,,,,,,,,,,16,0,16,0,,,,,,,,,,,,,,,,,,,,,,,,,,,,,,,,,,,,,,,,,,,,,,,,,1937.1369401002303,None,,,,,,,,,,,,,,,,,,,,,,,,,,,,,,,,,,,,,,,,,,,,,,,,,,,,,,,,,chance,175,17,sing,new,yellow,1935.2110973997042,None,n,1935.2110973997042,None,"['n', 'return']","[1.6875859992578626, 1.8795626992359757]",1935.2110973997042,None,,,34ND,001,2023_Apr_05_1738,ExactRep-v3-final,2021.2.3,59.86650996380339,
,,,,,,,,,,,,17,0,17,0,,,,,,,,,,,,,,,,,,,,,,,,,,,,,,,,,,,,,,,,,,,,,,,,,1938.688359300606,None,,,,,,,,,,,,,,,,,,,,,,,,,,,,,,,,,,,,,,,,,,,,,,,,,,,,,,,,,crime,62,18,silent,old,yellow,1937.6482140002772,None,y,1937.6482140002772,None,"['y', 'return']","[0.8503449996933341, 1.0023718997836113]",1937.6482140002772,None,,,34ND,001,2023_Apr_05_1738,ExactRep-v3-final,2021.2.3,59.86650996380339,
,,,,,,,,,,,,18,0,18,0,,,,,,,,,,,,,,,,,,,,,,,,,,,,,,,,,,,,,,,,,,,,,,,,,1940.3233959004283,None,,,,,,,,,,,,,,,,,,,,,,,,,,,,,,,,,,,,,,,,,,,,,,,,,,,,,,,,,coffee,37,19,sing,old,yellow,1939.1980864005163,None,y,1939.1980864005163,None,"['y', 'return']","[0.9165187999606133, 1.0924069005995989]",1939.1980864005163,None,,,34ND,001,2023_Apr_05_1738,ExactRep-v3-final,2021.2.3,59.86650996380339,
,,,,,,,,,,,,19,0,19,0,,,,,,,,,,,,,,,,,,,,,,,,,,,,,,,,,,,,,,,,,,,,,,,,,1941.7414827998728,None,,,,,,,,,,,,,,,,,,,,,,,,,,,,,,,,,,,,,,,,,,,,,,,,,,,,,,,,,queen,15,20,sing,old,yellow,1940.8293404998258,None,y,1940.8293404998258,None,"['y', 'return']","[0.6451871003955603, 0.8694493006914854]",1940.8293404998258,None,,,34ND,001,2023_Apr_05_1738,ExactRep-v3-final,2021.2.3,59.86650996380339,
,,,,,,,,,,,,20,0,20,0,,,,,,,,,,,,,,,,,,,,,,,,,,,,,,,,,,,,,,,,,,,,,,,,,1943.426477899775,None,,,,,,,,,,,,,,,,,,,,,,,,,,,,,,,,,,,,,,,,,,,,,,,,,,,,,,,,,child,105,21,aloud,old,yellow,1942.2487751003355,None,y,1942.2487751003355,None,"['y', 'return']","[0.9300460005179048, 1.130034700036049]",1942.2487751003355,None,,,34ND,001,2023_Apr_05_1738,ExactRep-v3-final,2021.2.3,59.86650996380339,
,,,,,,,,,,,,21,0,21,0,,,,,,,,,,,,,,,,,,,,,,,,,,,,,,,,,,,,,,,,,,,,,,,,,1944.9279011003673,None,,,,,,,,,,,,,,,,,,,,,,,,,,,,,,,,,,,,,,,,,,,,,,,,,,,,,,,,,heaven,57,22,silent,old,yellow,1943.9376357002184,None,y,1943.9376357002184,None,"['y', 'return']","[0.7050064001232386, 0.9529957994818687]",1943.9376357002184,None,,,34ND,001,2023_Apr_05_1738,ExactRep-v3-final,2021.2.3,59.86650996380339,
,,,,,,,,,,,,22,0,22,0,,,,,,,,,,,,,,,,,,,,,,,,,,,,,,,,,,,,,,,,,,,,,,,,,1946.6963322004303,None,,,,,,,,,,,,,,,,,,,,,,,,,,,,,,,,,,,,,,,,,,,,,,,,,,,,,,,,,king,236,23,aloud,new,yellow,1945.4381675003096,None,n,1945.4381675003096,None,"['n', 'return']","[0.9885064996778965, 1.2204969003796577]",1945.4381675003096,None,,,34ND,001,2023_Apr_05_1738,ExactRep-v3-final,2021.2.3,59.86650996380339,
,,,,,,,,,,,,23,0,23,0,,,,,,,,,,,,,,,,,,,,,,,,,,,,,,,,,,,,,,,,,,,,,,,,,1950.833851000294,None,,,,,,,,,,,,,,,,,,,,,,,,,,,,,,,,,,,,,,,,,,,,,,,,,,,,,,,,,prayer,188,24,aloud,new,yellow,1947.207279600203,None,y,1947.207279600203,None,"['y', 'return']","[3.2276026997715235, 3.5873894998803735]",1947.207279600203,None,,,34ND,001,2023_Apr_05_1738,ExactRep-v3-final,2021.2.3,59.86650996380339,
,,,,,,,,,,,,24,0,24,0,,,,,,,,,,,,,,,,,,,,,,,,,,,,,,,,,,,,,,,,,,,,,,,,,1952.7691715005785,None,,,,,,,,,,,,,,,,,,,,,,,,,,,,,,,,,,,,,,,,,,,,,,,,,,,,,,,,,honour,211,25,sing,new,yellow,1951.3421473000199,None,y,1951.3421473000199,None,"['y', 'return']","[0.8924221005290747, 1.3804083997383714]",1951.3421473000199,None,,,34ND,001,2023_Apr_05_1738,ExactRep-v3-final,2021.2.3,59.86650996380339,
,,,,,,,,,,,,25,0,25,0,,,,,,,,,,,,,,,,,,,,,,,,,,,,,,,,,,,,,,,,,,,,,,,,,1954.5719541003928,None,,,,,,,,,,,,,,,,,,,,,,,,,,,,,,,,,,,,,,,,,,,,,,,,,,,,,,,,,chief,133,26,silent,new,yellow,1953.281834100373,None,n,1953.281834100373,None,"['n', 'return']","[0.9529016995802522, 1.248722200281918]",1953.281834100373,None,,,34ND,001,2023_Apr_05_1738,ExactRep-v3-final,2021.2.3,59.86650996380339,
,,,,,,,,,,,,26,0,26,0,,,,,,,,,,,,,,,,,,,,,,,,,,,,,,,,,,,,,,,,,,,,,,,,,1956.3061926998198,None,,,,,,,,,,,,,,,,,,,,,,,,,,,,,,,,,,,,,,,,,,,,,,,,,,,,,,,,,spirit,80,27,aloud,old,yellow,1955.079643599689,None,y,1955.079643599689,None,"['y', 'return']","[0.906946299597621, 1.1789265992119908]",1955.079643599689,None,,,34ND,001,2023_Apr_05_1738,ExactRep-v3-final,2021.2.3,59.86650996380339,
,,,,,,,,,,,,27,0,27,0,,,,,,,,,,,,,,,,,,,,,,,,,,,,,,,,,,,,,,,,,,,,,,,,,1957.9576451005414,None,,,,,,,,,,,,,,,,,,,,,,,,,,,,,,,,,,,,,,,,,,,,,,,,,,,,,,,,,deed,145,28,silent,new,yellow,1956.817763400264,None,n,1956.817763400264,None,"['n', 'return']","[0.8170683002099395, 1.1048122001811862]",1956.817763400264,None,,,34ND,001,2023_Apr_05_1738,ExactRep-v3-final,2021.2.3,59.86650996380339,
,,,,,,,,,,,,28,0,28,0,,,,,,,,,,,,,,,,,,,,,,,,,,,,,,,,,,,,,,,,,,,,,,,,,1959.6593679003417,None,,,,,,,,,,,,,,,,,,,,,,,,,,,,,,,,,,,,,,,,,,,,,,,,,,,,,,,,,blossom,143,29,silent,new,yellow,1958.466009600088,None,n,1958.466009600088,None,"['n', 'return']","[0.8965854998677969, 1.160547399893403]",1958.466009600088,None,,,34ND,001,2023_Apr_05_1738,ExactRep-v3-final,2021.2.3,59.86650996380339,
,,,,,,,,,,,,29,0,29,0,,,,,,,,,,,,,,,,,,,,,,,,,,,,,,,,,,,,,,,,,,,,,,,,,1961.6949420999736,None,,,,,,,,,,,,,,,,,,,,,,,,,,,,,,,,,,,,,,,,,,,,,,,,,,,,,,,,,method,102,30,aloud,old,yellow,1960.1720743998885,None,y,1960.1720743998885,None,"['y', 'return']","[1.1905079996213317, 1.4784196997061372]",1960.1720743998885,None,,,34ND,001,2023_Apr_05_1738,ExactRep-v3-final,2021.2.3,59.86650996380339,
,,,,,,,,,,,,30,0,30,0,,,,,,,,,,,,,,,,,,,,,,,,,,,,,,,,,,,,,,,,,,,,,,,,,1963.4131404003128,None,,,,,,,,,,,,,,,,,,,,,,,,,,,,,,,,,,,,,,,,,,,,,,,,,,,,,,,,,speech,202,31,aloud,new,yellow,1962.2094069002196,None,y,1962.2094069002196,None,"['y', 'return']","[0.8732217997312546, 1.1614234996959567]",1962.2094069002196,None,,,34ND,001,2023_Apr_05_1738,ExactRep-v3-final,2021.2.3,59.86650996380339,
,,,,,,,,,,,,31,0,31,0,,,,,,,,,,,,,,,,,,,,,,,,,,,,,,,,,,,,,,,,,,,,,,,,,1964.9313686005771,None,,,,,,,,,,,,,,,,,,,,,,,,,,,,,,,,,,,,,,,,,,,,,,,,,,,,,,,,,apple,163,32,sing,new,yellow,1963.9254998005927,None,n,1963.9254998005927,None,"['n', 'return']","[0.6771573005244136, 0.9651417005807161]",1963.9254998005927,None,,,34ND,001,2023_Apr_05_1738,ExactRep-v3-final,2021.2.3,59.86650996380339,
,,,,,,,,,,,,32,0,32,0,,,,,,,,,,,,,,,,,,,,,,,,,,,,,,,,,,,,,,,,,,,,,,,,,1968.4015182005242,None,,,,,,,,,,,,,,,,,,,,,,,,,,,,,,,,,,,,,,,,,,,,,,,,,,,,,,,,,gift,11,33,sing,old,yellow,1965.4428380001336,None,n,1965.4428380001336,None,"['n', 'return']","[2.719611699692905, 2.911677399650216]",1965.4428380001336,None,,,34ND,001,2023_Apr_05_1738,ExactRep-v3-final,2021.2.3,59.86650996380339,
,,,,,,,,,,,,33,0,33,0,,,,,,,,,,,,,,,,,,,,,,,,,,,,,,,,,,,,,,,,,,,,,,,,,1970.5869780005887,None,,,,,,,,,,,,,,,,,,,,,,,,,,,,,,,,,,,,,,,,,,,,,,,,,,,,,,,,,garden,59,34,silent,old,yellow,1968.9045814005658,None,y,1968.9045814005658,None,"['y', 'return']","[1.4420876000076532, 1.64211880043149]",1968.9045814005658,None,,,34ND,001,2023_Apr_05_1738,ExactRep-v3-final,2021.2.3,59.86650996380339,
,,,,,,,,,,,,34,0,34,0,,,,,,,,,,,,,,,,,,,,,,,,,,,,,,,,,,,,,,,,,,,,,,,,,1972.138494799845,None,,,,,,,,,,,,,,,,,,,,,,,,,,,,,,,,,,,,,,,,,,,,,,,,,,,,,,,,,idea,226,35,aloud,new,yellow,1971.0873354999349,None,y,1971.0873354999349,None,"['y', 'return']","[0.8593677999451756, 1.0113674001768231]",1971.0873354999349,None,,,34ND,001,2023_Apr_05_1738,ExactRep-v3-final,2021.2.3,59.86650996380339,
,,,,,,,,,,,,35,0,35,0,,,,,,,,,,,,,,,,,,,,,,,,,,,,,,,,,,,,,,,,,,,,,,,,,1973.4566059997305,None,,,,,,,,,,,,,,,,,,,,,,,,,,,,,,,,,,,,,,,,,,,,,,,,,,,,,,,,,wine,28,36,sing,old,yellow,1972.6478281999007,None,y,1972.6478281999007,None,"['y', 'return']","[0.6747615002095699, 0.762835199944675]",1972.6478281999007,None,,,34ND,001,2023_Apr_05_1738,ExactRep-v3-final,2021.2.3,59.86650996380339,
,,,,,,,,,,,,36,0,36,0,,,,,,,,,,,,,,,,,,,,,,,,,,,,,,,,,,,,,,,,,,,,,,,,,1976.0257579004392,None,,,,,,,,,,,,,,,,,,,,,,,,,,,,,,,,,,,,,,,,,,,,,,,,,,,,,,,,,village,125,37,silent,new,yellow,1973.9655669005588,None,y,1973.9655669005588,None,"['y', 'return']","[1.869081100448966, 2.013303800486028]",1973.9655669005588,None,,,34ND,001,2023_Apr_05_1738,ExactRep-v3-final,2021.2.3,59.86650996380339,
,,,,,,,,,,,,37,0,37,0,,,,,,,,,,,,,,,,,,,,,,,,,,,,,,,,,,,,,,,,,,,,,,,,,1977.627280300483,None,,,,,,,,,,,,,,,,,,,,,,,,,,,,,,,,,,,,,,,,,,,,,,,,,,,,,,,,,ocean,64,38,silent,old,yellow,1976.5417063003406,None,y,1976.5417063003406,None,"['y', 'return']","[0.9172181999310851, 1.0449540000408888]",1976.5417063003406,None,,,34ND,001,2023_Apr_05_1738,ExactRep-v3-final,2021.2.3,59.86650996380339,
,,,,,,,,,,,,38,0,38,0,,,,,,,,,,,,,,,,,,,,,,,,,,,,,,,,,,,,,,,,,,,,,,,,,1979.27892800048,None,,,,,,,,,,,,,,,,,,,,,,,,,,,,,,,,,,,,,,,,,,,,,,,,,,,,,,,,,hall,166,39,aloud,new,yellow,1978.1356083005667,None,y,1978.1356083005667,None,"['y', 'return']","[0.9789597000926733, 1.0989454006776214]",1978.1356083005667,None,,,34ND,001,2023_Apr_05_1738,ExactRep-v3-final,2021.2.3,59.86650996380339,
,,,,,,,,,,,,39,0,39,0,,,,,,,,,,,,,,,,,,,,,,,,,,,,,,,,,,,,,,,,,,,,,,,,,1980.7305942000821,None,,,,,,,,,,,,,,,,,,,,,,,,,,,,,,,,,,,,,,,,,,,,,,,,,,,,,,,,,string,49,40,silent,old,yellow,1979.786884999834,None,n,1979.786884999834,None,"['n', 'return']","[0.7917227996513247, 0.9039116995409131]",1979.786884999834,None,,,34ND,001,2023_Apr_05_1738,ExactRep-v3-final,2021.2.3,59.86650996380339,
,,,,,,,,,,,,40,0,40,0,,,,,,,,,,,,,,,,,,,,,,,,,,,,,,,,,,,,,,,,,,,,,,,,,1981.981774000451,None,,,,,,,,,,,,,,,,,,,,,,,,,,,,,,,,,,,,,,,,,,,,,,,,,,,,,,,,,water,239,41,sing,new,yellow,1981.2383670005947,None,n,1981.2383670005947,None,"['n', 'return']","[0.5962685002014041, 0.7082267003133893]",1981.2383670005947,None,,,34ND,001,2023_Apr_05_1738,ExactRep-v3-final,2021.2.3,59.86650996380339,
,,,,,,,,,,,,41,0,41,0,,,,,,,,,,,,,,,,,,,,,,,,,,,,,,,,,,,,,,,,,,,,,,,,,1983.4332240000367,None,,,,,,,,,,,,,,,,,,,,,,,,,,,,,,,,,,,,,,,,,,,,,,,,,,,,,,,,,wife,210,42,aloud,new,yellow,1982.4894360005856,None,n,1982.4894360005856,None,"['n', 'return']","[0.7773548997938633, 0.8971642004325986]",1982.4894360005856,None,,,34ND,001,2023_Apr_05_1738,ExactRep-v3-final,2021.2.3,59.86650996380339,
,,,,,,,,,,,,42,0,42,0,,,,,,,,,,,,,,,,,,,,,,,,,,,,,,,,,,,,,,,,,,,,,,,,,1984.8011846002191,None,,,,,,,,,,,,,,,,,,,,,,,,,,,,,,,,,,,,,,,,,,,,,,,,,,,,,,,,,effort,97,43,aloud,old,yellow,1983.9430833002552,None,y,1983.9430833002552,None,"['y', 'return']","[0.7395045002922416, 0.8195324996486306]",1983.9430833002552,None,,,34ND,001,2023_Apr_05_1738,ExactRep-v3-final,2021.2.3,59.86650996380339,
,,,,,,,,,,,,43,0,43,0,,,,,,,,,,,,,,,,,,,,,,,,,,,,,,,,,,,,,,,,,,,,,,,,,1987.9209412997589,None,,,,,,,,,,,,,,,,,,,,,,,,,,,,,,,,,,,,,,,,,,,,,,,,,,,,,,,,,steam,38,44,sing,old,yellow,1985.3141887998208,None,n,1985.3141887998208,None,"['n', 'return']","[2.3204291006550193, 2.568453500047326]",1985.3141887998208,None,,,34ND,001,2023_Apr_05_1738,ExactRep-v3-final,2021.2.3,59.86650996380339,
,,,,,,,,,,,,44,0,44,0,,,,,,,,,,,,,,,,,,,,,,,,,,,,,,,,,,,,,,,,,,,,,,,,,1989.4724468002096,None,,,,,,,,,,,,,,,,,,,,,,,,,,,,,,,,,,,,,,,,,,,,,,,,,,,,,,,,,river,118,45,aloud,old,yellow,1988.4290521005169,None,y,1988.4290521005169,None,"['y', 'return']","[0.7336160000413656, 0.9976578997448087]",1988.4290521005169,None,,,34ND,001,2023_Apr_05_1738,ExactRep-v3-final,2021.2.3,59.86650996380339,
,,,,,,,,,,,,45,0,45,0,,,,,,,,,,,,,,,,,,,,,,,,,,,,,,,,,,,,,,,,,,,,,,,,,1990.9907935000956,None,,,,,,,,,,,,,,,,,,,,,,,,,,,,,,,,,,,,,,,,,,,,,,,,,,,,,,,,,dream,33,46,sing,old,yellow,1989.9825216997415,None,n,1989.9825216997415,None,"['n', 'return']","[0.7564474996179342, 0.9722670996561646]",1989.9825216997415,None,,,34ND,001,2023_Apr_05_1738,ExactRep-v3-final,2021.2.3,59.86650996380339,
,,,,,,,,,,,,46,0,46,0,,,,,,,,,,,,,,,,,,,,,,,,,,,,,,,,,,,,,,,,,,,,,,,,,1992.459001400508,None,,,,,,,,,,,,,,,,,,,,,,,,,,,,,,,,,,,,,,,,,,,,,,,,,,,,,,,,,cat,5,47,sing,old,yellow,1991.4998495001346,None,n,1991.4998495001346,None,"['n', 'return']","[0.7108316998928785, 0.9107528002932668]",1991.4998495001346,None,,,34ND,001,2023_Apr_05_1738,ExactRep-v3-final,2021.2.3,59.86650996380339,
,,,,,,,,,,,,47,0,47,0,,,,,,,,,,,,,,,,,,,,,,,,,,,,,,,,,,,,,,,,,,,,,,,,,1993.8435204997659,None,,,,,,,,,,,,,,,,,,,,,,,,,,,,,,,,,,,,,,,,,,,,,,,,,,,,,,,,,leader,87,48,aloud,old,yellow,1992.9760709004477,None,n,1992.9760709004477,None,"['n', 'return']","[0.6426023002713919, 0.8264859998598695]",1992.9760709004477,None,,,34ND,001,2023_Apr_05_1738,ExactRep-v3-final,2021.2.3,59.86650996380339,
,,,,,,,,,,,,48,0,48,0,,,,,,,,,,,,,,,,,,,,,,,,,,,,,,,,,,,,,,,,,,,,,,,,,1995.4284541001543,None,,,,,,,,,,,,,,,,,,,,,,,,,,,,,,,,,,,,,,,,,,,,,,,,,,,,,,,,,student,51,49,silent,old,yellow,1994.351515499875,None,y,1994.351515499875,None,"['y', 'return']","[0.8590452997013927, 1.0352030992507935]",1994.351515499875,None,,,34ND,001,2023_Apr_05_1738,ExactRep-v3-final,2021.2.3,59.86650996380339,
,,,,,,,,,,,,49,0,49,0,,,,,,,,,,,,,,,,,,,,,,,,,,,,,,,,,,,,,,,,,,,,,,,,,1997.797454399988,None,,,,,,,,,,,,,,,,,,,,,,,,,,,,,,,,,,,,,,,,,,,,,,,,,,,,,,,,,mother,189,50,sing,new,yellow,1995.9392988998443,None,n,1995.9392988998443,None,"['n', 'return']","[1.583376300521195, 1.8233260000124574]",1995.9392988998443,None,,,34ND,001,2023_Apr_05_1738,ExactRep-v3-final,2021.2.3,59.86650996380339,
,,,,,,,,,,,,50,0,50,0,,,,,,,,,,,,,,,,,,,,,,,,,,,,,,,,,,,,,,,,,,,,,,,,,1999.315923199989,None,,,,,,,,,,,,,,,,,,,,,,,,,,,,,,,,,,,,,,,,,,,,,,,,,,,,,,,,,fate,108,51,aloud,old,yellow,1998.3021291000769,None,n,1998.3021291000769,None,"['n', 'return']","[0.8124602995812893, 0.9804579997435212]",1998.3021291000769,None,,,34ND,001,2023_Apr_05_1738,ExactRep-v3-final,2021.2.3,59.86650996380339,
,,,,,,,,,,,,51,0,51,0,,,,,,,,,,,,,,,,,,,,,,,,,,,,,,,,,,,,,,,,,,,,,,,,,2000.9005714999512,None,,,,,,,,,,,,,,,,,,,,,,,,,,,,,,,,,,,,,,,,,,,,,,,,,,,,,,,,,pipe,232,52,aloud,new,yellow,1999.8252739999443,None,y,1999.8252739999443,None,"['y', 'return']","[0.7936749998480082, 1.0333380997180939]",1999.8252739999443,None,,,34ND,001,2023_Apr_05_1738,ExactRep-v3-final,2021.2.3,59.86650996380339,
,,,,,,,,,,,,52,0,52,0,,,,,,,,,,,,,,,,,,,,,,,,,,,,,,,,,,,,,,,,,,,,,,,,,2002.8693268997595,None,,,,,,,,,,,,,,,,,,,,,,,,,,,,,,,,,,,,,,,,,,,,,,,,,,,,,,,,,maiden,186,53,aloud,new,yellow,2001.415069900453,None,n,2001.415069900453,None,"['n', 'return']","[1.1956046996638179, 1.4115164000540972]",2001.415069900453,None,,,34ND,001,2023_Apr_05_1738,ExactRep-v3-final,2021.2.3,59.86650996380339,
,,,,,,,,,,,,53,0,53,0,,,,,,,,,,,,,,,,,,,,,,,,,,,,,,,,,,,,,,,,,,,,,,,,,2004.2540202997625,None,,,,,,,,,,,,,,,,,,,,,,,,,,,,,,,,,,,,,,,,,,,,,,,,,,,,,,,,,style,89,54,aloud,old,yellow,2003.383077500388,None,n,2003.383077500388,None,"['n', 'return']","[0.6195614999160171, 0.8275207998231053]",2003.383077500388,None,,,34ND,001,2023_Apr_05_1738,ExactRep-v3-final,2021.2.3,59.86650996380339,
,,,,,,,,,,,,54,0,54,0,,,,,,,,,,,,,,,,,,,,,,,,,,,,,,,,,,,,,,,,,,,,,,,,,2006.0890663005412,None,,,,,,,,,,,,,,,,,,,,,,,,,,,,,,,,,,,,,,,,,,,,,,,,,,,,,,,,,corn,234,55,aloud,new,yellow,2004.7656203005463,None,n,2004.7656203005463,None,"['n', 'return']","[1.061014600098133, 1.2850988004356623]",2004.7656203005463,None,,,34ND,001,2023_Apr_05_1738,ExactRep-v3-final,2021.2.3,59.86650996380339,
,,,,,,,,,,,,55,0,55,0,,,,,,,,,,,,,,,,,,,,,,,,,,,,,,,,,,,,,,,,,,,,,,,,,2007.540629999712,None,,,,,,,,,,,,,,,,,,,,,,,,,,,,,,,,,,,,,,,,,,,,,,,,,,,,,,,,,health,172,56,aloud,new,yellow,2006.5993154002354,None,y,2006.5993154002354,None,"['y', 'return']","[0.6353185996413231, 0.9073254996910691]",2006.5993154002354,None,,,34ND,001,2023_Apr_05_1738,ExactRep-v3-final,2021.2.3,59.86650996380339,
,,,,,,,,,,,,56,0,56,0,,,,,,,,,,,,,,,,,,,,,,,,,,,,,,,,,,,,,,,,,,,,,,,,,2009.108954200521,None,,,,,,,,,,,,,,,,,,,,,,,,,,,,,,,,,,,,,,,,,,,,,,,,,,,,,,,,,anger,157,57,silent,new,yellow,2008.049889200367,None,n,2008.049889200367,None,"['n', 'return']","[0.7688090996816754, 1.0167486993595958]",2008.049889200367,None,,,34ND,001,2023_Apr_05_1738,ExactRep-v3-final,2021.2.3,59.86650996380339,
,,,,,,,,,,,,57,0,57,0,,,,,,,,,,,,,,,,,,,,,,,,,,,,,,,,,,,,,,,,,,,,,,,,,2010.5769817000255,None,,,,,,,,,,,,,,,,,,,,,,,,,,,,,,,,,,,,,,,,,,,,,,,,,,,,,,,,,origin,153,58,silent,new,yellow,2009.6123002003878,None,y,2009.6123002003878,None,"['y', 'return']","[0.6465177005156875, 0.9183481000363827]",2009.6123002003878,None,,,34ND,001,2023_Apr_05_1738,ExactRep-v3-final,2021.2.3,59.86650996380339,
,,,,,,,,,,,,58,0,58,0,,,,,,,,,,,,,,,,,,,,,,,,,,,,,,,,,,,,,,,,,,,,,,,,,2012.9459643997252,None,,,,,,,,,,,,,,,,,,,,,,,,,,,,,,,,,,,,,,,,,,,,,,,,,,,,,,,,,prison,122,59,silent,new,yellow,2011.090158900246,None,n,2011.090158900246,None,"['n', 'return']","[1.5205939998850226, 1.8165306998416781]",2011.090158900246,None,,,34ND,001,2023_Apr_05_1738,ExactRep-v3-final,2021.2.3,59.86650996380339,
,,,,,,,,,,,,59,0,59,0,,,,,,,,,,,,,,,,,,,,,,,,,,,,,,,,,,,,,,,,,,,,,,,,,2014.6644454998896,None,,,,,,,,,,,,,,,,,,,,,,,,,,,,,,,,,,,,,,,,,,,,,,,,,,,,,,,,,sky,91,60,aloud,old,yellow,2013.4476426998153,None,y,2013.4476426998153,None,"['y', 'return']","[0.9630391001701355, 1.171076400205493]",2013.4476426998153,None,,,34ND,001,2023_Apr_05_1738,ExactRep-v3-final,2021.2.3,59.86650996380339,
,,,,,,,,,,,,60,0,60,0,,,,,,,,,,,,,,,,,,,,,,,,,,,,,,,,,,,,,,,,,,,,,,,,,2016.3328980999067,None,,,,,,,,,,,,,,,,,,,,,,,,,,,,,,,,,,,,,,,,,,,,,,,,,,,,,,,,,memory,86,61,aloud,old,yellow,2015.1743302997202,None,y,2015.1743302997202,None,"['y', 'return']","[0.7963514998555183, 1.116333999671042]",2015.1743302997202,None,,,34ND,001,2023_Apr_05_1738,ExactRep-v3-final,2021.2.3,59.86650996380339,
,,,,,,,,,,,,61,0,61,0,,,,,,,,,,,,,,,,,,,,,,,,,,,,,,,,,,,,,,,,,,,,,,,,,2018.9855474997312,None,,,,,,,,,,,,,,,,,,,,,,,,,,,,,,,,,,,,,,,,,,,,,,,,,,,,,,,,,mind,162,62,aloud,new,yellow,2016.8419420998544,None,y,2016.8419420998544,None,"['y', 'return']","[1.7926358999684453, 2.104729199782014]",2016.8419420998544,None,,,34ND,001,2023_Apr_05_1738,ExactRep-v3-final,2021.2.3,59.86650996380339,
,,,,,,,,,,,,62,0,62,0,,,,,,,,,,,,,,,,,,,,,,,,,,,,,,,,,,,,,,,,,,,,,,,,,2020.8539602998644,None,,,,,,,,,,,,,,,,,,,,,,,,,,,,,,,,,,,,,,,,,,,,,,,,,,,,,,,,,length,14,63,sing,old,yellow,2019.4954826999456,None,y,2019.4954826999456,None,"['y', 'y', 'return']","[0.7631729999557137, 0.9632168998941779, 1.3233141992241144]",2019.4954826999456,None,,,34ND,001,2023_Apr_05_1738,ExactRep-v3-final,2021.2.3,59.86650996380339,
,,,,,,,,,,,,63,0,63,0,,,,,,,,,,,,,,,,,,,,,,,,,,,,,,,,,,,,,,,,,,,,,,,,,2022.6056925999,None,,,,,,,,,,,,,,,,,,,,,,,,,,,,,,,,,,,,,,,,,,,,,,,,,,,,,,,,,charm,79,64,sing,old,yellow,2021.3643033998087,None,y,2021.3643033998087,None,"['y', 'return']","[0.7584381997585297, 1.2063391003757715]",2021.3643033998087,None,,,34ND,001,2023_Apr_05_1738,ExactRep-v3-final,2021.2.3,59.86650996380339,
,,,,,,,,,,,,64,0,64,0,,,,,,,,,,,,,,,,,,,,,,,,,,,,,,,,,,,,,,,,,,,,,,,,,2024.2072556000203,None,,,,,,,,,,,,,,,,,,,,,,,,,,,,,,,,,,,,,,,,,,,,,,,,,,,,,,,,,officer,167,65,sing,new,yellow,2023.1148415002972,None,n,2023.1148415002972,None,"['n', 'return']","[0.7919919993728399, 1.0558559000492096]",2023.1148415002972,None,,,34ND,001,2023_Apr_05_1738,ExactRep-v3-final,2021.2.3,59.86650996380339,
,,,,,,,,,,,,65,0,65,0,,,,,,,,,,,,,,,,,,,,,,,,,,,,,,,,,,,,,,,,,,,,,,,,,2026.242630300112,None,,,,,,,,,,,,,,,,,,,,,,,,,,,,,,,,,,,,,,,,,,,,,,,,,,,,,,,,,square,85,66,aloud,old,yellow,2024.7219732003286,None,n,2024.7219732003286,None,"['n', 'return']","[1.2407847996801138, 1.472800699993968]",2024.7219732003286,None,,,34ND,001,2023_Apr_05_1738,ExactRep-v3-final,2021.2.3,59.86650996380339,
,,,,,,,,,,,,66,0,66,0,,,,,,,,,,,,,,,,,,,,,,,,,,,,,,,,,,,,,,,,,,,,,,,,,2027.9943923000246,None,,,,,,,,,,,,,,,,,,,,,,,,,,,,,,,,,,,,,,,,,,,,,,,,,,,,,,,,,glory,187,67,sing,new,yellow,2026.7522442005575,None,n,2026.7522442005575,None,"['n', 'return']","[0.9384498000144958, 1.1944348001852632]",2026.7522442005575,None,,,34ND,001,2023_Apr_05_1738,ExactRep-v3-final,2021.2.3,59.86650996380339,
,,,,,,,,,,,,67,0,67,0,,,,,,,,,,,,,,,,,,,,,,,,,,,,,,,,,,,,,,,,,,,,,,,,,2029.6794042000547,None,,,,,,,,,,,,,,,,,,,,,,,,,,,,,,,,,,,,,,,,,,,,,,,,,,,,,,,,,shore,227,68,sing,new,yellow,2028.5032860999927,None,n,2028.5032860999927,None,"['n', 'return']","[0.8595342999324203, 1.1313221994787455]",2028.5032860999927,None,,,34ND,001,2023_Apr_05_1738,ExactRep-v3-final,2021.2.3,59.86650996380339,
,,,,,,,,,,,,68,0,68,0,,,,,,,,,,,,,,,,,,,,,,,,,,,,,,,,,,,,,,,,,,,,,,,,,2031.597996099852,None,,,,,,,,,,,,,,,,,,,,,,,,,,,,,,,,,,,,,,,,,,,,,,,,,,,,,,,,,dust,208,69,aloud,new,yellow,2030.189282500185,None,n,2030.189282500185,None,"['n', 'return']","[1.0934033999219537, 1.3735662000253797]",2030.189282500185,None,,,34ND,001,2023_Apr_05_1738,ExactRep-v3-final,2021.2.3,59.86650996380339,
,,,,,,,,,,,,69,0,69,0,,,,,,,,,,,,,,,,,,,,,,,,,,,,,,,,,,,,,,,,,,,,,,,,,2033.1828489005566,None,,,,,,,,,,,,,,,,,,,,,,,,,,,,,,,,,,,,,,,,,,,,,,,,,,,,,,,,,devil,55,70,silent,old,yellow,2032.1076004002243,None,y,2032.1076004002243,None,"['y', 'return']","[0.7430389001965523, 1.0309860007837415]",2032.1076004002243,None,,,34ND,001,2023_Apr_05_1738,ExactRep-v3-final,2021.2.3,59.86650996380339,
,,,,,,,,,,,,70,0,70,0,,,,,,,,,,,,,,,,,,,,,,,,,,,,,,,,,,,,,,,,,,,,,,,,,2035.0347413998097,None,,,,,,,,,,,,,,,,,,,,,,,,,,,,,,,,,,,,,,,,,,,,,,,,,,,,,,,,,diamond,121,71,silent,new,yellow,2033.6931586004794,None,n,2033.6931586004794,None,"['n', 'return']","[1.0536952000111341, 1.3015978001058102]",2033.6931586004794,None,,,34ND,001,2023_Apr_05_1738,ExactRep-v3-final,2021.2.3,59.86650996380339,
,,,,,,,,,,,,71,0,71,0,,,,,,,,,,,,,,,,,,,,,,,,,,,,,,,,,,,,,,,,,,,,,,,,,2040.3567824997008,None,,,,,,,,,,,,,,,,,,,,,,,,,,,,,,,,,,,,,,,,,,,,,,,,,,,,,,,,,death,65,72,silent,old,yellow,2035.5440584002063,None,y,2035.5440584002063,None,"['n', 'y', 'backspace', 'y', 'return']","[0.6827950999140739, 2.5066264998167753, 3.634606000036001, 4.450772199779749, 4.778684600256383]",2035.5440584002063,None,,,34ND,001,2023_Apr_05_1738,ExactRep-v3-final,2021.2.3,59.86650996380339,
,,,,,,,,,,,,72,0,72,0,,,,,,,,,,,,,,,,,,,,,,,,,,,,,,,,,,,,,,,,,,,,,,,,,2042.3587460005656,None,,,,,,,,,,,,,,,,,,,,,,,,,,,,,,,,,,,,,,,,,,,,,,,,,,,,,,,,,judge,231,73,sing,new,yellow,2040.86967859976,None,y,2040.86967859976,None,"['y', 'return']","[1.3410986997187138, 1.444997400045395]",2040.86967859976,None,,,34ND,001,2023_Apr_05_1738,ExactRep-v3-final,2021.2.3,59.86650996380339,
,,,,,,,,,,,,73,0,73,0,,,,,,,,,,,,,,,,,,,,,,,,,,,,,,,,,,,,,,,,,,,,,,,,,2043.6767584001645,None,,,,,,,,,,,,,,,,,,,,,,,,,,,,,,,,,,,,,,,,,,,,,,,,,,,,,,,,,cash,119,74,aloud,old,yellow,2042.8766512004659,None,n,2042.8766512004659,None,"['n', 'return']","[0.6219905996695161, 0.7580744996666908]",2042.8766512004659,None,,,34ND,001,2023_Apr_05_1738,ExactRep-v3-final,2021.2.3,59.86650996380339,
,,,,,,,,,,,,74,0,74,0,,,,,,,,,,,,,,,,,,,,,,,,,,,,,,,,,,,,,,,,,,,,,,,,,2045.979080799967,None,,,,,,,,,,,,,,,,,,,,,,,,,,,,,,,,,,,,,,,,,,,,,,,,,,,,,,,,,bird,183,75,sing,new,yellow,2044.1884732004255,None,n,2044.1884732004255,None,"['n', 'return']","[1.6542283007875085, 1.7502438006922603]",2044.1884732004255,None,,,34ND,001,2023_Apr_05_1738,ExactRep-v3-final,2021.2.3,59.86650996380339,
,,,,,,,,,,,,75,0,75,0,,,,,,,,,,,,,,,,,,,,,,,,,,,,,,,,,,,,,,,,,,,,,,,,,2047.6473062997684,None,,,,,,,,,,,,,,,,,,,,,,,,,,,,,,,,,,,,,,,,,,,,,,,,,,,,,,,,,lake,70,76,silent,old,yellow,2046.4895103005692,None,y,2046.4895103005692,None,"['y', 'return']","[1.049145800061524, 1.1211840994656086]",2046.4895103005692,None,,,34ND,001,2023_Apr_05_1738,ExactRep-v3-final,2021.2.3,59.86650996380339,
,,,,,,,,,,,,76,0,76,0,,,,,,,,,,,,,,,,,,,,,,,,,,,,,,,,,,,,,,,,,,,,,,,,,2050.3500624001026,None,,,,,,,,,,,,,,,,,,,,,,,,,,,,,,,,,,,,,,,,,,,,,,,,,,,,,,,,,brain,203,77,sing,new,yellow,2048.154575999826,None,n,2048.154575999826,None,"['n', 'return']","[2.0643894001841545, 2.1603135000914335]",2048.154575999826,None,,,34ND,001,2023_Apr_05_1738,ExactRep-v3-final,2021.2.3,59.86650996380339,
,,,,,,,,,,,,77,0,77,0,,,,,,,,,,,,,,,,,,,,,,,,,,,,,,,,,,,,,,,,,,,,,,,,,2052.1017859000713,None,,,,,,,,,,,,,,,,,,,,,,,,,,,,,,,,,,,,,,,,,,,,,,,,,,,,,,,,,quality,126,78,silent,new,yellow,2050.8599128006026,None,y,2050.8599128006026,None,"['y', 'return']","[1.0948213003575802, 1.2067862004041672]",2050.8599128006026,None,,,34ND,001,2023_Apr_05_1738,ExactRep-v3-final,2021.2.3,59.86650996380339,
,,,,,,,,,,,,78,0,78,0,,,,,,,,,,,,,,,,,,,,,,,,,,,,,,,,,,,,,,,,,,,,,,,,,2056.00576910004,None,,,,,,,,,,,,,,,,,,,,,,,,,,,,,,,,,,,,,,,,,,,,,,,,,,,,,,,,,stone,20,79,sing,old,yellow,2052.6125715002418,None,y,2052.6125715002418,None,"['y', 'return']","[3.2462578006088734, 3.350046300329268]",2052.6125715002418,None,,,34ND,001,2023_Apr_05_1738,ExactRep-v3-final,2021.2.3,59.86650996380339,
,,,,,,,,,,,,79,0,79,0,,,,,,,,,,,,,,,,,,,,,,,,,,,,,,,,,,,,,,,,,,,,,,,,,2057.307186400518,None,,,,,,,,,,,,,,,,,,,,,,,,,,,,,,,,,,,,,,,,,,,,,,,,,,,,,,,,,woman,76,80,silent,old,yellow,2056.5194123005494,None,y,2056.5194123005494,None,"['y', 'return']","[0.6433739997446537, 0.7474086992442608]",2056.5194123005494,None,,,34ND,001,2023_Apr_05_1738,ExactRep-v3-final,2021.2.3,59.86650996380339,
,,,,,,,,,,,,80,0,80,0,,,,,,,,,,,,,,,,,,,,,,,,,,,,,,,,,,,,,,,,,,,,,,,,,2058.90881370008,None,,,,,,,,,,,,,,,,,,,,,,,,,,,,,,,,,,,,,,,,,,,,,,,,,,,,,,,,,mercy,9,81,sing,old,yellow,2057.8169216001406,None,y,2057.8169216001406,None,"['y', 'return']","[0.9537827000021935, 1.0498366001993418]",2057.8169216001406,None,,,34ND,001,2023_Apr_05_1738,ExactRep-v3-final,2021.2.3,59.86650996380339,
,,,,,,,,,,,,81,0,81,0,,,,,,,,,,,,,,,,,,,,,,,,,,,,,,,,,,,,,,,,,,,,,,,,,2060.243308899924,None,,,,,,,,,,,,,,,,,,,,,,,,,,,,,,,,,,,,,,,,,,,,,,,,,,,,,,,,,money,184,82,aloud,new,yellow,2059.4167403997853,None,n,2059.4167403997853,None,"['n', 'return']","[0.6900418000295758, 0.7938780998811126]",2059.4167403997853,None,,,34ND,001,2023_Apr_05_1738,ExactRep-v3-final,2021.2.3,59.86650996380339,
,,,,,,,,,,,,82,0,82,0,,,,,,,,,,,,,,,,,,,,,,,,,,,,,,,,,,,,,,,,,,,,,,,,,2061.4779930999503,None,,,,,,,,,,,,,,,,,,,,,,,,,,,,,,,,,,,,,,,,,,,,,,,,,,,,,,,,,plant,217,83,sing,new,yellow,2060.7538208002225,None,n,2060.7538208002225,None,"['n', 'return']","[0.576884200796485, 0.6887799007818103]",2060.7538208002225,None,,,34ND,001,2023_Apr_05_1738,ExactRep-v3-final,2021.2.3,59.86650996380339,
,,,,,,,,,,,,83,0,83,0,,,,,,,,,,,,,,,,,,,,,,,,,,,,,,,,,,,,,,,,,,,,,,,,,2062.7791737997904,None,,,,,,,,,,,,,,,,,,,,,,,,,,,,,,,,,,,,,,,,,,,,,,,,,,,,,,,,,toy,146,84,silent,new,yellow,2061.9891463005915,None,n,2061.9891463005915,None,"['n', 'return']","[0.6214732993394136, 0.7575768996030092]",2061.9891463005915,None,,,34ND,001,2023_Apr_05_1738,ExactRep-v3-final,2021.2.3,59.86650996380339,
,,,,,,,,,,,,84,0,84,0,,,,,,,,,,,,,,,,,,,,,,,,,,,,,,,,,,,,,,,,,,,,,,,,,2064.1306437002495,None,,,,,,,,,,,,,,,,,,,,,,,,,,,,,,,,,,,,,,,,,,,,,,,,,,,,,,,,,dollar,6,85,sing,old,yellow,2063.2892498001456,None,y,2063.2892498001456,None,"['y', 'return']","[0.6734046004712582, 0.8014662005007267]",2063.2892498001456,None,,,34ND,001,2023_Apr_05_1738,ExactRep-v3-final,2021.2.3,59.86650996380339,
,,,,,,,,,,,,85,0,85,0,,,,,,,,,,,,,,,,,,,,,,,,,,,,,,,,,,,,,,,,,,,,,,,,,2065.8154781004414,None,,,,,,,,,,,,,,,,,,,,,,,,,,,,,,,,,,,,,,,,,,,,,,,,,,,,,,,,,hour,197,86,sing,new,yellow,2064.6433420004323,None,y,2064.6433420004323,None,"['y', 'return']","[1.0473603000864387, 1.1353751001879573]",2064.6433420004323,None,,,34ND,001,2023_Apr_05_1738,ExactRep-v3-final,2021.2.3,59.86650996380339,
,,,,,,,,,,,,86,0,86,0,,,,,,,,,,,,,,,,,,,,,,,,,,,,,,,,,,,,,,,,,,,,,,,,,2068.1180194001645,None,,,,,,,,,,,,,,,,,,,,,,,,,,,,,,,,,,,,,,,,,,,,,,,,,,,,,,,,,ship,101,87,aloud,old,yellow,2066.3274844000116,None,n,2066.3274844000116,None,"['n', 'return']","[1.6592184007167816, 1.7472071005031466]",2066.3274844000116,None,,,34ND,001,2023_Apr_05_1738,ExactRep-v3-final,2021.2.3,59.86650996380339,
,,,,,,,,,,,,87,0,87,0,,,,,,,,,,,,,,,,,,,,,,,,,,,,,,,,,,,,,,,,,,,,,,,,,2069.839818299748,None,,,,,,,,,,,,,,,,,,,,,,,,,,,,,,,,,,,,,,,,,,,,,,,,,,,,,,,,,picture,32,88,sing,old,yellow,2068.6313893999904,None,y,2068.6313893999904,None,"['y', 'return']","[1.0912603000178933, 1.1712267994880676]",2068.6313893999904,None,,,34ND,001,2023_Apr_05_1738,ExactRep-v3-final,2021.2.3,59.86650996380339,
,,,,,,,,,,,,88,0,88,0,,,,,,,,,,,,,,,,,,,,,,,,,,,,,,,,,,,,,,,,,,,,,,,,,2071.554614700377,None,,,,,,,,,,,,,,,,,,,,,,,,,,,,,,,,,,,,,,,,,,,,,,,,,,,,,,,,,colony,109,89,aloud,old,yellow,2070.3598452005535,None,n,2070.3598452005535,None,"['n', 'return']","[1.0589145999401808, 1.1548240995034575]",2070.3598452005535,None,,,34ND,001,2023_Apr_05_1738,ExactRep-v3-final,2021.2.3,59.86650996380339,
,,,,,,,,,,,,89,0,89,0,,,,,,,,,,,,,,,,,,,,,,,,,,,,,,,,,,,,,,,,,,,,,,,,,2072.8225338002667,None,,,,,,,,,,,,,,,,,,,,,,,,,,,,,,,,,,,,,,,,,,,,,,,,,,,,,,,,,series,7,90,sing,old,yellow,2072.0662711001933,None,y,2072.0662711001933,None,"['y', 'return']","[0.6565784001722932, 0.720465799793601]",2072.0662711001933,None,,,34ND,001,2023_Apr_05_1738,ExactRep-v3-final,2021.2.3,59.86650996380339,
,,,,,,,,,,,,90,0,90,0,,,,,,,,,,,,,,,,,,,,,,,,,,,,,,,,,,,,,,,,,,,,,,,,,2074.4741965997964,None,,,,,,,,,,,,,,,,,,,,,,,,,,,,,,,,,,,,,,,,,,,,,,,,,,,,,,,,,justice,107,91,aloud,old,yellow,2073.3372229002416,None,y,2073.3372229002416,None,"['y', 'return']","[0.9536531995981932, 1.0975185995921493]",2073.3372229002416,None,,,34ND,001,2023_Apr_05_1738,ExactRep-v3-final,2021.2.3,59.86650996380339,
,,,,,,,,,,,,91,0,91,0,,,,,,,,,,,,,,,,,,,,,,,,,,,,,,,,,,,,,,,,,,,,,,,,,2076.6940838005394,None,,,,,,,,,,,,,,,,,,,,,,,,,,,,,,,,,,,,,,,,,,,,,,,,,,,,,,,,,amount,94,92,aloud,old,yellow,2074.9866570997983,None,y,2074.9866570997983,None,"['y', 'return']","[1.5840846998617053, 1.664177100174129]",2074.9866570997983,None,,,34ND,001,2023_Apr_05_1738,ExactRep-v3-final,2021.2.3,59.86650996380339,
,,,,,,,,,,,,92,0,92,0,,,,,,,,,,,,,,,,,,,,,,,,,,,,,,,,,,,,,,,,,,,,,,,,,2078.3112668003887,None,,,,,,,,,,,,,,,,,,,,,,,,,,,,,,,,,,,,,,,,,,,,,,,,,,,,,,,,,coin,134,93,silent,new,yellow,2077.2050047004595,None,n,2077.2050047004595,None,"['n', 'return']","[0.9337514992803335, 1.0699157994240522]",2077.2050047004595,None,,,34ND,001,2023_Apr_05_1738,ExactRep-v3-final,2021.2.3,59.86650996380339,
,,,,,,,,,,,,93,0,93,0,,,,,,,,,,,,,,,,,,,,,,,,,,,,,,,,,,,,,,,,,,,,,,,,,2079.5458618998528,None,,,,,,,,,,,,,,,,,,,,,,,,,,,,,,,,,,,,,,,,,,,,,,,,,,,,,,,,,shock,139,94,silent,new,yellow,2078.8190026003867,None,n,2078.8190026003867,None,"['n', 'return']","[0.5757491001859307, 0.6877751005813479]",2078.8190026003867,None,,,34ND,001,2023_Apr_05_1738,ExactRep-v3-final,2021.2.3,59.86650996380339,
,,,,,,,,,,,,94,0,94,0,,,,,,,,,,,,,,,,,,,,,,,,,,,,,,,,,,,,,,,,,,,,,,,,,2082.031783000566,None,,,,,,,,,,,,,,,,,,,,,,,,,,,,,,,,,,,,,,,,,,,,,,,,,,,,,,,,,window,148,95,silent,new,yellow,2080.054007699713,None,n,2080.054007699713,None,"['n', 'return']","[1.836684100329876, 1.932719700038433]",2080.054007699713,None,,,34ND,001,2023_Apr_05_1738,ExactRep-v3-final,2021.2.3,59.86650996380339,
,,,,,,,,,,,,95,0,95,0,,,,,,,,,,,,,,,,,,,,,,,,,,,,,,,,,,,,,,,,,,,,,,,,,2084.167252100073,None,,,,,,,,,,,,,,,,,,,,,,,,,,,,,,,,,,,,,,,,,,,,,,,,,,,,,,,,,chair,216,96,aloud,new,yellow,2082.5344756999984,None,y,2082.5344756999984,None,"['y', 'return']","[1.5002939999103546, 1.5882051000371575]",2082.5344756999984,None,,,34ND,001,2023_Apr_05_1738,ExactRep-v3-final,2021.2.3,59.86650996380339,
,,,,,,,,,,,,96,0,96,0,,,,,,,,,,,,,,,,,,,,,,,,,,,,,,,,,,,,,,,,,,,,,,,,,2085.5520734004676,None,,,,,,,,,,,,,,,,,,,,,,,,,,,,,,,,,,,,,,,,,,,,,,,,,,,,,,,,,fault,168,97,aloud,new,yellow,2084.681025600061,None,n,2084.681025600061,None,"['n', 'return']","[0.7057154001668096, 0.8257309002801776]",2084.681025600061,None,,,34ND,001,2023_Apr_05_1738,ExactRep-v3-final,2021.2.3,59.86650996380339,
,,,,,,,,,,,,97,0,97,0,,,,,,,,,,,,,,,,,,,,,,,,,,,,,,,,,,,,,,,,,,,,,,,,,2087.2202069004998,None,,,,,,,,,,,,,,,,,,,,,,,,,,,,,,,,,,,,,,,,,,,,,,,,,,,,,,,,,humour,115,98,aloud,old,yellow,2086.0624405005947,None,y,2086.0624405005947,None,"['y', 'return']","[1.0203012004494667, 1.1163445003330708]",2086.0624405005947,None,,,34ND,001,2023_Apr_05_1738,ExactRep-v3-final,2021.2.3,59.86650996380339,
,,,,,,,,,,,,98,0,98,0,,,,,,,,,,,,,,,,,,,,,,,,,,,,,,,,,,,,,,,,,,,,,,,,,2089.439170300029,None,,,,,,,,,,,,,,,,,,,,,,,,,,,,,,,,,,,,,,,,,,,,,,,,,,,,,,,,,church,135,99,silent,new,yellow,2087.732872400433,None,n,2087.732872400433,None,"['n', 'return']","[1.597847499884665, 1.6618235995993018]",2087.732872400433,None,,,34ND,001,2023_Apr_05_1738,ExactRep-v3-final,2021.2.3,59.86650996380339,
,,,,,,,,,,,,99,0,99,0,,,,,,,,,,,,,,,,,,,,,,,,,,,,,,,,,,,,,,,,,,,,,,,,,2091.2911732997745,None,,,,,,,,,,,,,,,,,,,,,,,,,,,,,,,,,,,,,,,,,,,,,,,,,,,,,,,,,history,100,100,aloud,old,yellow,2089.947480400093,None,y,2089.947480400093,None,"['y', 'return']","[1.1914424998685718, 1.3113970998674631]",2089.947480400093,None,,,34ND,001,2023_Apr_05_1738,ExactRep-v3-final,2021.2.3,59.86650996380339,
,,,,,,,,,,,,100,0,100,0,,,,,,,,,,,,,,,,,,,,,,,,,,,,,,,,,,,,,,,,,,,,,,,,,2092.859292199835,None,,,,,,,,,,,,,,,,,,,,,,,,,,,,,,,,,,,,,,,,,,,,,,,,,,,,,,,,,metal,63,101,silent,old,yellow,2091.7951028002426,None,y,2091.7951028002426,None,"['y', 'return']","[0.8635635003447533, 1.0316673004999757]",2091.7951028002426,None,,,34ND,001,2023_Apr_05_1738,ExactRep-v3-final,2021.2.3,59.86650996380339,
,,,,,,,,,,,,101,0,101,0,,,,,,,,,,,,,,,,,,,,,,,,,,,,,,,,,,,,,,,,,,,,,,,,,2094.210614800453,None,,,,,,,,,,,,,,,,,,,,,,,,,,,,,,,,,,,,,,,,,,,,,,,,,,,,,,,,,moral,61,102,silent,old,yellow,2093.3688107002527,None,y,2093.3688107002527,None,"['y', 'return']","[0.6498881001025438, 0.7941076997667551]",2093.3688107002527,None,,,34ND,001,2023_Apr_05_1738,ExactRep-v3-final,2021.2.3,59.86650996380339,
,,,,,,,,,,,,102,0,102,0,,,,,,,,,,,,,,,,,,,,,,,,,,,,,,,,,,,,,,,,,,,,,,,,,2095.7454738998786,None,,,,,,,,,,,,,,,,,,,,,,,,,,,,,,,,,,,,,,,,,,,,,,,,,,,,,,,,,college,95,103,aloud,old,yellow,2094.7268350003287,None,y,2094.7268350003287,None,"['y', 'return']","[0.7479299008846283, 0.971912800334394]",2094.7268350003287,None,,,34ND,001,2023_Apr_05_1738,ExactRep-v3-final,2021.2.3,59.86650996380339,
,,,,,,,,,,,,103,0,103,0,,,,,,,,,,,,,,,,,,,,,,,,,,,,,,,,,,,,,,,,,,,,,,,,,2097.146861700341,None,,,,,,,,,,,,,,,,,,,,,,,,,,,,,,,,,,,,,,,,,,,,,,,,,,,,,,,,,library,204,104,aloud,new,yellow,2096.2590699000284,None,y,2096.2590699000284,None,"['y', 'return']","[0.6316381003707647, 0.8556659007444978]",2096.2590699000284,None,,,34ND,001,2023_Apr_05_1738,ExactRep-v3-final,2021.2.3,59.86650996380339,
,,,,,,,,,,,,104,0,104,0,,,,,,,,,,,,,,,,,,,,,,,,,,,,,,,,,,,,,,,,,,,,,,,,,2098.5650736996904,None,,,,,,,,,,,,,,,,,,,,,,,,,,,,,,,,,,,,,,,,,,,,,,,,,,,,,,,,,love,144,105,silent,new,yellow,2097.6565569005907,None,n,2097.6565569005907,None,"['n', 'return']","[0.7301312005147338, 0.8742249002680182]",2097.6565569005907,None,,,34ND,001,2023_Apr_05_1738,ExactRep-v3-final,2021.2.3,59.86650996380339,
,,,,,,,,,,,,105,0,105,0,,,,,,,,,,,,,,,,,,,,,,,,,,,,,,,,,,,,,,,,,,,,,,,,,2100.2501868000254,None,,,,,,,,,,,,,,,,,,,,,,,,,,,,,,,,,,,,,,,,,,,,,,,,,,,,,,,,,sea,205,106,sing,new,yellow,2099.0739925000817,None,y,2099.0739925000817,None,"['y', 'return']","[0.9210186004638672, 1.1290964996442199]",2099.0739925000817,None,,,34ND,001,2023_Apr_05_1738,ExactRep-v3-final,2021.2.3,59.86650996380339,
,,,,,,,,,,,,106,0,106,0,,,,,,,,,,,,,,,,,,,,,,,,,,,,,,,,,,,,,,,,,,,,,,,,,2102.0351060004905,None,,,,,,,,,,,,,,,,,,,,,,,,,,,,,,,,,,,,,,,,,,,,,,,,,,,,,,,,,cottage,237,107,sing,new,yellow,2100.761157100089,None,y,2100.761157100089,None,"['y', 'return']","[1.0898313000798225, 1.241733499802649]",2100.761157100089,None,,,34ND,001,2023_Apr_05_1738,ExactRep-v3-final,2021.2.3,59.86650996380339,
,,,,,,,,,,,,107,0,107,0,,,,,,,,,,,,,,,,,,,,,,,,,,,,,,,,,,,,,,,,,,,,,,,,,2103.419824800454,None,,,,,,,,,,,,,,,,,,,,,,,,,,,,,,,,,,,,,,,,,,,,,,,,,,,,,,,,,answer,196,108,aloud,new,yellow,2102.541819999926,None,n,2102.541819999926,None,"['n', 'return']","[0.7092563007026911, 0.8451219005510211]",2102.541819999926,None,,,34ND,001,2023_Apr_05_1738,ExactRep-v3-final,2021.2.3,59.86650996380339,
,,,,,,,,,,,,108,0,108,0,,,,,,,,,,,,,,,,,,,,,,,,,,,,,,,,,,,,,,,,,,,,,,,,,2106.556335600093,None,,,,,,,,,,,,,,,,,,,,,,,,,,,,,,,,,,,,,,,,,,,,,,,,,,,,,,,,,beast,50,109,silent,old,yellow,2103.9283106001094,None,y,2103.9283106001094,None,"['y', 'return']","[2.418441799469292, 2.594401699490845]",2103.9283106001094,None,,,34ND,001,2023_Apr_05_1738,ExactRep-v3-final,2021.2.3,59.86650996380339,
,,,,,,,,,,,,109,0,109,0,,,,,,,,,,,,,,,,,,,,,,,,,,,,,,,,,,,,,,,,,,,,,,,,,2107.945178899914,None,,,,,,,,,,,,,,,,,,,,,,,,,,,,,,,,,,,,,,,,,,,,,,,,,,,,,,,,,sugar,10,110,sing,old,yellow,2107.0726174004376,None,y,2107.0726174004376,None,"['y', 'return']","[0.666436200030148, 0.8261353997513652]",2107.0726174004376,None,,,34ND,001,2023_Apr_05_1738,ExactRep-v3-final,2021.2.3,59.86650996380339,
,,,,,,,,,,,,110,0,110,0,,,,,,,,,,,,,,,,,,,,,,,,,,,,,,,,,,,,,,,,,,,,,,,,,2109.626029900275,None,,,,,,,,,,,,,,,,,,,,,,,,,,,,,,,,,,,,,,,,,,,,,,,,,,,,,,,,,hide,147,111,silent,new,yellow,2108.465056099929,None,n,2108.465056099929,None,"['n', 'return']","[0.9536795001477003, 1.1217120001092553]",2108.465056099929,None,,,34ND,001,2023_Apr_05_1738,ExactRep-v3-final,2021.2.3,59.86650996380339,
,,,,,,,,,,,,111,0,111,0,,,,,,,,,,,,,,,,,,,,,,,,,,,,,,,,,,,,,,,,,,,,,,,,,2110.9940454000607,None,,,,,,,,,,,,,,,,,,,,,,,,,,,,,,,,,,,,,,,,,,,,,,,,,,,,,,,,,excuse,228,112,aloud,new,yellow,2110.1443060999736,None,n,2110.1443060999736,None,"['n', 'return']","[0.722435999661684, 0.8024767003953457]",2110.1443060999736,None,,,34ND,001,2023_Apr_05_1738,ExactRep-v3-final,2021.2.3,59.86650996380339,
,,,,,,,,,,,,112,0,112,0,,,,,,,,,,,,,,,,,,,,,,,,,,,,,,,,,,,,,,,,,,,,,,,,,2112.4288050998002,None,,,,,,,,,,,,,,,,,,,,,,,,,,,,,,,,,,,,,,,,,,,,,,,,,,,,,,,,,cabin,69,113,silent,old,yellow,2111.508750599809,None,n,2111.508750599809,None,"['n', 'return']","[0.6939941998571157, 0.8780124001204967]",2111.508750599809,None,,,34ND,001,2023_Apr_05_1738,ExactRep-v3-final,2021.2.3,59.86650996380339,
,,,,,,,,,,,,113,0,113,0,,,,,,,,,,,,,,,,,,,,,,,,,,,,,,,,,,,,,,,,,,,,,,,,,2114.0471932003275,None,,,,,,,,,,,,,,,,,,,,,,,,,,,,,,,,,,,,,,,,,,,,,,,,,,,,,,,,,flower,46,114,silent,old,yellow,2112.939180499874,None,y,2112.939180499874,None,"['y', 'return']","[0.9117164006456733, 1.0636661006137729]",2112.939180499874,None,,,34ND,001,2023_Apr_05_1738,ExactRep-v3-final,2021.2.3,59.86650996380339,
,,,,,,,,,,,,114,0,114,0,,,,,,,,,,,,,,,,,,,,,,,,,,,,,,,,,,,,,,,,,,,,,,,,,2115.6320494003594,None,,,,,,,,,,,,,,,,,,,,,,,,,,,,,,,,,,,,,,,,,,,,,,,,,,,,,,,,,winter,44,115,silent,old,yellow,2114.554096600041,None,n,2114.554096600041,None,"['n', 'return']","[0.8886540997773409, 1.0328190997242928]",2114.554096600041,None,,,34ND,001,2023_Apr_05_1738,ExactRep-v3-final,2021.2.3,59.86650996380339,
,,,,,,,,,,,,115,0,115,0,,,,,,,,,,,,,,,,,,,,,,,,,,,,,,,,,,,,,,,,,,,,,,,,,2117.3002054002136,None,,,,,,,,,,,,,,,,,,,,,,,,,,,,,,,,,,,,,,,,,,,,,,,,,,,,,,,,,bar,83,116,aloud,old,yellow,2116.1389944003895,None,y,2116.1389944003895,None,"['y', 'return']","[0.9437780994921923, 1.127826999872923]",2116.1389944003895,None,,,34ND,001,2023_Apr_05_1738,ExactRep-v3-final,2021.2.3,59.86650996380339,
,,,,,,,,,,,,116,0,116,0,,,,,,,,,,,,,,,,,,,,,,,,,,,,,,,,,,,,,,,,,,,,,,,,,2118.7017608005553,None,,,,,,,,,,,,,,,,,,,,,,,,,,,,,,,,,,,,,,,,,,,,,,,,,,,,,,,,,ticket,21,117,sing,old,yellow,2117.8021676000208,None,y,2117.8021676000208,None,"['y', 'return']","[0.7205942999571562, 0.8646121993660927]",2117.8021676000208,None,,,34ND,001,2023_Apr_05_1738,ExactRep-v3-final,2021.2.3,59.86650996380339,
,,,,,,,,,,,,117,0,117,0,,,,,,,,,,,,,,,,,,,,,,,,,,,,,,,,,,,,,,,,,,,,,,,,,2120.0365546997637,None,,,,,,,,,,,,,,,,,,,,,,,,,,,,,,,,,,,,,,,,,,,,,,,,,,,,,,,,,shadow,31,118,sing,old,yellow,2119.211910500191,None,y,2119.211910500191,None,"['y', 'return']","[0.606933600269258, 0.7908215997740626]",2119.211910500191,None,,,34ND,001,2023_Apr_05_1738,ExactRep-v3-final,2021.2.3,59.86650996380339,
,,,,,,,,,,,,118,0,118,0,,,,,,,,,,,,,,,,,,,,,,,,,,,,,,,,,,,,,,,,,,,,,,,,,2122.0256710005924,None,,,,,,,,,,,,,,,,,,,,,,,,,,,,,,,,,,,,,,,,,,,,,,,,,,,,,,,,,horse,173,119,sing,new,yellow,2120.5480939000845,None,n,2120.5480939000845,None,"['n', 'return']","[1.182697200216353, 1.4385812999680638]",2120.5480939000845,None,,,34ND,001,2023_Apr_05_1738,ExactRep-v3-final,2021.2.3,59.86650996380339,
,,,,,,,,,,,,119,0,119,0,,,,,,,,,,,,,,,,,,,,,,,,,,,,,,,,,,,,,,,,,,,,,,,,,2124.1085385000333,None,,,,,,,,,,,,,,,,,,,,,,,,,,,,,,,,,,,,,,,,,,,,,,,,,,,,,,,,,soil,66,120,silent,old,yellow,2122.5476895999163,None,y,2122.5476895999163,None,"['y', 'return']","[1.431072799488902, 1.5191345000639558]",2122.5476895999163,None,,,34ND,001,2023_Apr_05_1738,ExactRep-v3-final,2021.2.3,59.86650996380339,
,,,,,,,,,,,,120,0,120,0,,,,,,,,,,,,,,,,,,,,,,,,,,,,,,,,,,,,,,,,,,,,,,,,,2125.491922800429,None,,,,,,,,,,,,,,,,,,,,,,,,,,,,,,,,,,,,,,,,,,,,,,,,,,,,,,,,,custom,45,121,silent,old,yellow,2124.6156187001616,None,y,2124.6156187001616,None,"['y', 'return']","[0.691062300466001, 0.8351608999073505]",2124.6156187001616,None,,,34ND,001,2023_Apr_05_1738,ExactRep-v3-final,2021.2.3,59.86650996380339,
,,,,,,,,,,,,121,0,121,0,,,,,,,,,,,,,,,,,,,,,,,,,,,,,,,,,,,,,,,,,,,,,,,,,2129.028684500605,None,,,,,,,,,,,,,,,,,,,,,,,,,,,,,,,,,,,,,,,,,,,,,,,,,,,,,,,,,salary,106,122,aloud,old,yellow,2126.0020166002214,None,n,2126.0020166002214,None,"['n', 'return']","[2.8727278001606464, 2.9927473003044724]",2126.0020166002214,None,,,34ND,001,2023_Apr_05_1738,ExactRep-v3-final,2021.2.3,59.86650996380339,
,,,,,,,,,,,,122,0,122,0,,,,,,,,,,,,,,,,,,,,,,,,,,,,,,,,,,,,,,,,,,,,,,,,,2130.5970932999626,None,,,,,,,,,,,,,,,,,,,,,,,,,,,,,,,,,,,,,,,,,,,,,,,,,,,,,,,,,earth,74,123,silent,old,yellow,2129.530614499934,None,y,2129.530614499934,None,"['y', 'return']","[0.9282927997410297, 1.0321522997692227]",2129.530614499934,None,,,34ND,001,2023_Apr_05_1738,ExactRep-v3-final,2021.2.3,59.86650996380339,
,,,,,,,,,,,,123,0,123,0,,,,,,,,,,,,,,,,,,,,,,,,,,,,,,,,,,,,,,,,,,,,,,,,,2132.1485836002976,None,,,,,,,,,,,,,,,,,,,,,,,,,,,,,,,,,,,,,,,,,,,,,,,,,,,,,,,,,valley,92,124,aloud,old,yellow,2131.1032464997843,None,y,2131.1032464997843,None,"['y', 'return']","[0.9316883999854326, 1.0035689994692802]",2131.1032464997843,None,,,34ND,001,2023_Apr_05_1738,ExactRep-v3-final,2021.2.3,59.86650996380339,
,,,,,,,,,,,,124,0,124,0,,,,,,,,,,,,,,,,,,,,,,,,,,,,,,,,,,,,,,,,,,,,,,,,,2134.1006012000144,None,,,,,,,,,,,,,,,,,,,,,,,,,,,,,,,,,,,,,,,,,,,,,,,,,,,,,,,,,advice,18,125,sing,old,yellow,2132.6585852000862,None,n,2132.6585852000862,None,"['n', 'return']","[1.288362699560821, 1.4081800002604723]",2132.6585852000862,None,,,34ND,001,2023_Apr_05_1738,ExactRep-v3-final,2021.2.3,59.86650996380339,
,,,,,,,,,,,,125,0,125,0,,,,,,,,,,,,,,,,,,,,,,,,,,,,,,,,,,,,,,,,,,,,,,,,,2137.6540481997654,None,,,,,,,,,,,,,,,,,,,,,,,,,,,,,,,,,,,,,,,,,,,,,,,,,,,,,,,,,truth,238,126,aloud,new,yellow,2134.6089326003566,None,n,2134.6089326003566,None,"['n', 'return']","[2.8979754000902176, 3.0017881002277136]",2134.6089326003566,None,,,34ND,001,2023_Apr_05_1738,ExactRep-v3-final,2021.2.3,59.86650996380339,
,,,,,,,,,,,,126,0,126,0,,,,,,,,,,,,,,,,,,,,,,,,,,,,,,,,,,,,,,,,,,,,,,,,,2139.072089800611,None,,,,,,,,,,,,,,,,,,,,,,,,,,,,,,,,,,,,,,,,,,,,,,,,,,,,,,,,,home,26,127,sing,old,yellow,2138.1700494997203,None,y,2138.1700494997203,None,"['y', 'return']","[0.7686904994770885, 0.8567127995193005]",2138.1700494997203,None,,,34ND,001,2023_Apr_05_1738,ExactRep-v3-final,2021.2.3,59.86650996380339,
,,,,,,,,,,,,127,0,127,0,,,,,,,,,,,,,,,,,,,,,,,,,,,,,,,,,,,,,,,,,,,,,,,,,2140.5402009002864,None,,,,,,,,,,,,,,,,,,,,,,,,,,,,,,,,,,,,,,,,,,,,,,,,,,,,,,,,,virtue,67,128,silent,old,yellow,2139.5832802001387,None,n,2139.5832802001387,None,"['n', 'return']","[0.7635897994041443, 0.9155917000025511]",2139.5832802001387,None,,,34ND,001,2023_Apr_05_1738,ExactRep-v3-final,2021.2.3,59.86650996380339,
,,,,,,,,,,,,128,0,128,0,,,,,,,,,,,,,,,,,,,,,,,,,,,,,,,,,,,,,,,,,,,,,,,,,2142.992868600413,None,,,,,,,,,,,,,,,,,,,,,,,,,,,,,,,,,,,,,,,,,,,,,,,,,,,,,,,,,grief,8,129,sing,old,yellow,2141.0493924003094,None,n,2141.0493924003094,None,"['n', 'return']","[1.7775084003806114, 1.897414700128138]",2141.0493924003094,None,,,34ND,001,2023_Apr_05_1738,ExactRep-v3-final,2021.2.3,59.86650996380339,
