trials_fam.thisRepN,trials_fam.thisTrialN,trials_fam.thisN,trials_fam.thisIndex,trials_prc.thisRepN,trials_prc.thisTrialN,trials_prc.thisN,trials_prc.thisIndex,StudyLoop.thisRepN,StudyLoop.thisTrialN,StudyLoop.thisN,StudyLoop.thisIndex,TestLoop.thisRepN,TestLoop.thisTrialN,TestLoop.thisN,TestLoop.thisIndex,text_colortest.started,text_colortest.stopped,key_colortest.keys,key_colortest.rt,key_colortest.started,key_colortest.stopped,textCondition.started,textCondition.stopped,keyCondition.keys,keyCondition.rt,keyCondition.started,keyCondition.stopped,Condition_between,Condition_counterbal,keyWelcome.keys,keyWelcome.rt,keyWelcome.started,keyWelcome.stopped,welcome_a.started,welcome_a.stopped,welcome_b.started,welcome_b.stopped,welcome_c.started,welcome_c.stopped,welcome_d.started,welcome_d.stopped,welcome_e.started,welcome_e.stopped,welcome_f.started,welcome_f.stopped,key_resp_fam_inst.keys,key_resp_fam_inst.rt,key_resp_fam_inst.started,key_resp_fam_inst.stopped,fam_a.started,fam_a.stopped,fam_b.started,fam_b.stopped,fam_c.started,fam_c.stopped,fam_d.started,fam_d.stopped,fam_e.started,fam_e.stopped,fam_f.started,fam_f.stopped,text_famil.started,text_famil.stopped,textBlank500.started,textBlank500.stopped,key_resp_prc_inst.keys,key_resp_prc_inst.rt,key_resp_prc_inst.started,key_resp_prc_inst.stopped,prac_a.started,prac_a.stopped,prac_b.started,prac_b.stopped,prac_c.started,prac_c.stopped,prac_d.started,prac_d.stopped,prac_e.started,prac_e.stopped,prac_f.started,prac_f.stopped,text_prc_trial.started,text_prc_trial.stopped,key_resp_study_inst.keys,key_resp_study_inst.rt,key_resp_study_inst.started,key_resp_study_inst.stopped,crit_a.started,crit_a.stopped,crit_b.started,crit_b.stopped,crit_c.started,crit_c.stopped,crit_d.started,crit_d.stopped,crit_e.started,crit_e.stopped,crit_f.started,crit_f.stopped,study_word,study_num,study_order,study_type,word_color,textStudy.started,textStudy.stopped,keyStudy.keys,keyStudy.started,keyStudy.stopped,post_study.started,post_study.stopped,key_resp_post_study.keys,key_resp_post_study.rt,key_resp_post_study.started,key_resp_post_study.stopped,test_inst.started,test_inst.stopped,key_resp_test_inst.keys,key_resp_test_inst.rt,key_resp_test_inst.started,key_resp_test_inst.stopped,test_word,test_num,test_order,test_condition,old_new_test,word_color_test,textConf.started,textConf.stopped,Participant Response,textInput.started,textInput.stopped,keyResp.keys,keyResp.rt,keyResp.started,keyResp.stopped,textEnd.started,textEnd.stopped,participant,session,date,expName,psychopyVersion,frameRate,
,,,,,,,,,,,,,,,,28.713093500584364,None,n,29.126374900341034,28.713093500584364,None,,,,,,,,,,,,,,,,,,,,,,,,,,,,,,,,,,,,,,,,,,,,,,,,,,,,,,,,,,,,,,,,,,,,,,,,,,,,,,,,,,,,,,,,,,,,,,,,,,,,,,,,,,,,,,,,,,,,,,35,001,2023_Apr_12_0944,ExactRep-v3-final,2021.2.3,59.93752126612007,
,,,,,,,,,,,,,,,,,,,,,,57.862605900503695,None,e,0.4486624002456665,57.862605900503695,None,,,,,,,,,,,,,,,,,,,,,,,,,,,,,,,,,,,,,,,,,,,,,,,,,,,,,,,,,,,,,,,,,,,,,,,,,,,,,,,,,,,,,,,,,,,,,,,,,,,,,,,,,,,,,,,,35,001,2023_Apr_12_0944,ExactRep-v3-final,2021.2.3,59.93752126612007,
,,,,,,,,,,,,,,,,,,,,,,,,,,,,whitefoils,e,space,929.4228391991928,68.48945870064199,None,,,,,,,,,,,,,,,,,,,,,,,,,,,,,,,,,,,,,,,,,,,,,,,,,,,,,,,,,,,,,,,,,,,,,,,,,,,,,,,,,,,,,,,,,,,,,,,,,,,,,,,,,,35,001,2023_Apr_12_0944,ExactRep-v3-final,2021.2.3,59.93752126612007,
,,,,,,,,,,,,,,,,,,,,,,,,,,,,,,,,,,58.55346060078591,None,58.55346060078591,None,58.55346060078591,None,58.55346060078591,None,58.55346060078591,None,58.55346060078591,None,space,23.037222200073302,1008.1070222007111,None,,,,,,,,,,,,,,,,,,,,,,,,,,,,,,,,,,,,,,,,,,,,,,,,,,,,,,,,,,,,,,,,,,,,,,,,,,,,,,,,,,,,,,,,,,35,001,2023_Apr_12_0944,ExactRep-v3-final,2021.2.3,59.93752126612007,
0,0,0,0,,,,,,,,,,,,,,,,,,,,,,,,,,,,,,,,,,,,,,,,,,,,,,,998.1104223001748,None,998.1104223001748,None,998.1104223001748,None,998.1104223001748,None,998.1104223001748,None,998.1104223001748,None,1031.2783103007823,None,1033.2711610002443,None,,,,,,,,,,,,,,,,,,,,,,,,,,,,,,,,,,,,,,,,,,,,,,,,,,,,,,,,,,,,,,,,,,,,,,,,,,35,001,2023_Apr_12_0944,ExactRep-v3-final,2021.2.3,59.93752126612007,
1,0,1,0,,,,,,,,,,,,,,,,,,,,,,,,,,,,,,,,,,,,,,,,,,,,,,,,,,,,,,,,,,,1033.7719467002898,None,1035.773858900182,None,,,,,,,,,,,,,,,,,,,,,,,,,,,,,,,,,,,,,,,,,,,,,,,,,,,,,,,,,,,,,,,,,,,,,,,,,,35,001,2023_Apr_12_0944,ExactRep-v3-final,2021.2.3,59.93752126612007,
2,0,2,0,,,,,,,,,,,,,,,,,,,,,,,,,,,,,,,,,,,,,,,,,,,,,,,,,,,,,,,,,,,1036.274652200751,None,1038.276378100738,None,,,,,,,,,,,,,,,,,,,,,,,,,,,,,,,,,,,,,,,,,,,,,,,,,,,,,,,,,,,,,,,,,,,,,,,,,,35,001,2023_Apr_12_0944,ExactRep-v3-final,2021.2.3,59.93752126612007,
3,0,3,0,,,,,,,,,,,,,,,,,,,,,,,,,,,,,,,,,,,,,,,,,,,,,,,,,,,,,,,,,,,1038.776948899962,None,1040.7787383999676,None,,,,,,,,,,,,,,,,,,,,,,,,,,,,,,,,,,,,,,,,,,,,,,,,,,,,,,,,,,,,,,,,,,,,,,,,,,35,001,2023_Apr_12_0944,ExactRep-v3-final,2021.2.3,59.93752126612007,
4,0,4,0,,,,,,,,,,,,,,,,,,,,,,,,,,,,,,,,,,,,,,,,,,,,,,,,,,,,,,,,,,,1041.3063280005008,None,1043.2981043001637,None,,,,,,,,,,,,,,,,,,,,,,,,,,,,,,,,,,,,,,,,,,,,,,,,,,,,,,,,,,,,,,,,,,,,,,,,,,35,001,2023_Apr_12_0944,ExactRep-v3-final,2021.2.3,59.93752126612007,
5,0,5,0,,,,,,,,,,,,,,,,,,,,,,,,,,,,,,,,,,,,,,,,,,,,,,,,,,,,,,,,,,,1043.8078533001244,None,1045.8172997999936,None,,,,,,,,,,,,,,,,,,,,,,,,,,,,,,,,,,,,,,,,,,,,,,,,,,,,,,,,,,,,,,,,,,,,,,,,,,35,001,2023_Apr_12_0944,ExactRep-v3-final,2021.2.3,59.93752126612007,
6,0,6,0,,,,,,,,,,,,,,,,,,,,,,,,,,,,,,,,,,,,,,,,,,,,,,,,,,,,,,,,,,,1046.3186296001077,None,1048.3199779000133,None,,,,,,,,,,,,,,,,,,,,,,,,,,,,,,,,,,,,,,,,,,,,,,,,,,,,,,,,,,,,,,,,,,,,,,,,,,35,001,2023_Apr_12_0944,ExactRep-v3-final,2021.2.3,59.93752126612007,
7,0,7,0,,,,,,,,,,,,,,,,,,,,,,,,,,,,,,,,,,,,,,,,,,,,,,,,,,,,,,,,,,,1048.8205301007256,None,1050.8222576007247,None,,,,,,,,,,,,,,,,,,,,,,,,,,,,,,,,,,,,,,,,,,,,,,,,,,,,,,,,,,,,,,,,,,,,,,,,,,35,001,2023_Apr_12_0944,ExactRep-v3-final,2021.2.3,59.93752126612007,
8,0,8,0,,,,,,,,,,,,,,,,,,,,,,,,,,,,,,,,,,,,,,,,,,,,,,,,,,,,,,,,,,,1051.3236810006201,None,1053.3247726000845,None,,,,,,,,,,,,,,,,,,,,,,,,,,,,,,,,,,,,,,,,,,,,,,,,,,,,,,,,,,,,,,,,,,,,,,,,,,35,001,2023_Apr_12_0944,ExactRep-v3-final,2021.2.3,59.93752126612007,
9,0,9,0,,,,,,,,,,,,,,,,,,,,,,,,,,,,,,,,,,,,,,,,,,,,,,,,,,,,,,,,,,,1053.8254998000339,None,1055.827266599983,None,,,,,,,,,,,,,,,,,,,,,,,,,,,,,,,,,,,,,,,,,,,,,,,,,,,,,,,,,,,,,,,,,,,,,,,,,,35,001,2023_Apr_12_0944,ExactRep-v3-final,2021.2.3,59.93752126612007,
10,0,10,0,,,,,,,,,,,,,,,,,,,,,,,,,,,,,,,,,,,,,,,,,,,,,,,,,,,,,,,,,,,1056.3278462002054,None,1058.3298101006076,None,,,,,,,,,,,,,,,,,,,,,,,,,,,,,,,,,,,,,,,,,,,,,,,,,,,,,,,,,,,,,,,,,,,,,,,,,,35,001,2023_Apr_12_0944,ExactRep-v3-final,2021.2.3,59.93752126612007,
11,0,11,0,,,,,,,,,,,,,,,,,,,,,,,,,,,,,,,,,,,,,,,,,,,,,,,,,,,,,,,,,,,1058.8303070003167,None,1060.8322970001027,None,,,,,,,,,,,,,,,,,,,,,,,,,,,,,,,,,,,,,,,,,,,,,,,,,,,,,,,,,,,,,,,,,,,,,,,,,,35,001,2023_Apr_12_0944,ExactRep-v3-final,2021.2.3,59.93752126612007,
12,0,12,0,,,,,,,,,,,,,,,,,,,,,,,,,,,,,,,,,,,,,,,,,,,,,,,,,,,,,,,,,,,1061.3347109006718,None,1063.3348005004227,None,,,,,,,,,,,,,,,,,,,,,,,,,,,,,,,,,,,,,,,,,,,,,,,,,,,,,,,,,,,,,,,,,,,,,,,,,,35,001,2023_Apr_12_0944,ExactRep-v3-final,2021.2.3,59.93752126612007,
13,0,13,0,,,,,,,,,,,,,,,,,,,,,,,,,,,,,,,,,,,,,,,,,,,,,,,,,,,,,,,,,,,1063.8384293001145,None,1065.8539772005752,None,,,,,,,,,,,,,,,,,,,,,,,,,,,,,,,,,,,,,,,,,,,,,,,,,,,,,,,,,,,,,,,,,,,,,,,,,,35,001,2023_Apr_12_0944,ExactRep-v3-final,2021.2.3,59.93752126612007,
14,0,14,0,,,,,,,,,,,,,,,,,,,,,,,,,,,,,,,,,,,,,,,,,,,,,,,,,,,,,,,,,,,1066.354503100738,None,1068.3566976003349,None,,,,,,,,,,,,,,,,,,,,,,,,,,,,,,,,,,,,,,,,,,,,,,,,,,,,,,,,,,,,,,,,,,,,,,,,,,35,001,2023_Apr_12_0944,ExactRep-v3-final,2021.2.3,59.93752126612007,
,,,,,,,,,,,,,,,,,,,,,,,,,,,,,,,,,,,,,,,,,,,,,,,,,,,,,,,,,,,,,,,,,,space,21.426010000519454,1078.942275499925,None,,,,,,,,,,,,,,,,,,,,,,,,,,,,,,,,,,,,,,,,,,,,,,,,,,,,,,,,,,,,,,,,,,,,,,35,001,2023_Apr_12_0944,ExactRep-v3-final,2021.2.3,59.93752126612007,
,,,,0,0,0,0,,,,,,,,,,,,,,,,,,,,,,,,,,,,,,,,,,,,,,,,,,,,,,,,,,,,,,,,,1102.4739350005984,None,,,,,1069.0158931007609,None,1069.0158931007609,None,1069.0158931007609,None,1069.0158931007609,None,1069.0158931007609,None,1069.0158931007609,None,1100.4648994002491,None,,,,,,,,,,,,,,,,,,,,,,,,,,,,,,,,,,,,,,,,,,,,,,,,,,,,,,,,35,001,2023_Apr_12_0944,ExactRep-v3-final,2021.2.3,59.93752126612007,
,,,,1,0,1,0,,,,,,,,,,,,,,,,,,,,,,,,,,,,,,,,,,,,,,,,,,,,,,,,,,,,,,,,,1104.9765638001263,None,,,,,,,,,,,,,,,,,1102.9745610998943,None,,,,,,,,,,,,,,,,,,,,,,,,,,,,,,,,,,,,,,,,,,,,,,,,,,,,,,,,35,001,2023_Apr_12_0944,ExactRep-v3-final,2021.2.3,59.93752126612007,
,,,,2,0,2,0,,,,,,,,,,,,,,,,,,,,,,,,,,,,,,,,,,,,,,,,,,,,,,,,,,,,,,,,,1107.478895300068,None,,,,,,,,,,,,,,,,,1105.4770926004276,None,,,,,,,,,,,,,,,,,,,,,,,,,,,,,,,,,,,,,,,,,,,,,,,,,,,,,,,,35,001,2023_Apr_12_0944,ExactRep-v3-final,2021.2.3,59.93752126612007,
,,,,3,0,3,0,,,,,,,,,,,,,,,,,,,,,,,,,,,,,,,,,,,,,,,,,,,,,,,,,,,,,,,,,1109.9814771004021,None,,,,,,,,,,,,,,,,,1107.9794435007498,None,,,,,,,,,,,,,,,,,,,,,,,,,,,,,,,,,,,,,,,,,,,,,,,,,,,,,,,,35,001,2023_Apr_12_0944,ExactRep-v3-final,2021.2.3,59.93752126612007,
,,,,4,0,4,0,,,,,,,,,,,,,,,,,,,,,,,,,,,,,,,,,,,,,,,,,,,,,,,,,,,,,,,,,1112.4840234005824,None,,,,,,,,,,,,,,,,,1110.4816997004673,None,,,,,,,,,,,,,,,,,,,,,,,,,,,,,,,,,,,,,,,,,,,,,,,,,,,,,,,,35,001,2023_Apr_12_0944,ExactRep-v3-final,2021.2.3,59.93752126612007,
,,,,5,0,5,0,,,,,,,,,,,,,,,,,,,,,,,,,,,,,,,,,,,,,,,,,,,,,,,,,,,,,,,,,1114.9865202000365,None,,,,,,,,,,,,,,,,,1112.984476200305,None,,,,,,,,,,,,,,,,,,,,,,,,,,,,,,,,,,,,,,,,,,,,,,,,,,,,,,,,35,001,2023_Apr_12_0944,ExactRep-v3-final,2021.2.3,59.93752126612007,
,,,,6,0,6,0,,,,,,,,,,,,,,,,,,,,,,,,,,,,,,,,,,,,,,,,,,,,,,,,,,,,,,,,,1117.488970800303,None,,,,,,,,,,,,,,,,,1115.4869426004589,None,,,,,,,,,,,,,,,,,,,,,,,,,,,,,,,,,,,,,,,,,,,,,,,,,,,,,,,,35,001,2023_Apr_12_0944,ExactRep-v3-final,2021.2.3,59.93752126612007,
,,,,7,0,7,0,,,,,,,,,,,,,,,,,,,,,,,,,,,,,,,,,,,,,,,,,,,,,,,,,,,,,,,,,1119.9914783006534,None,,,,,,,,,,,,,,,,,1117.9894075002521,None,,,,,,,,,,,,,,,,,,,,,,,,,,,,,,,,,,,,,,,,,,,,,,,,,,,,,,,,35,001,2023_Apr_12_0944,ExactRep-v3-final,2021.2.3,59.93752126612007,
,,,,8,0,8,0,,,,,,,,,,,,,,,,,,,,,,,,,,,,,,,,,,,,,,,,,,,,,,,,,,,,,,,,,1122.4939263006672,None,,,,,,,,,,,,,,,,,1120.4919576002285,None,,,,,,,,,,,,,,,,,,,,,,,,,,,,,,,,,,,,,,,,,,,,,,,,,,,,,,,,35,001,2023_Apr_12_0944,ExactRep-v3-final,2021.2.3,59.93752126612007,
,,,,9,0,9,0,,,,,,,,,,,,,,,,,,,,,,,,,,,,,,,,,,,,,,,,,,,,,,,,,,,,,,,,,1124.996238000691,None,,,,,,,,,,,,,,,,,1122.9944507004693,None,,,,,,,,,,,,,,,,,,,,,,,,,,,,,,,,,,,,,,,,,,,,,,,,,,,,,,,,35,001,2023_Apr_12_0944,ExactRep-v3-final,2021.2.3,59.93752126612007,
,,,,10,0,10,0,,,,,,,,,,,,,,,,,,,,,,,,,,,,,,,,,,,,,,,,,,,,,,,,,,,,,,,,,1127.4989308007061,None,,,,,,,,,,,,,,,,,1125.4971683006734,None,,,,,,,,,,,,,,,,,,,,,,,,,,,,,,,,,,,,,,,,,,,,,,,,,,,,,,,,35,001,2023_Apr_12_0944,ExactRep-v3-final,2021.2.3,59.93752126612007,
,,,,11,0,11,0,,,,,,,,,,,,,,,,,,,,,,,,,,,,,,,,,,,,,,,,,,,,,,,,,,,,,,,,,1130.0012957006693,None,,,,,,,,,,,,,,,,,1127.9994514007121,None,,,,,,,,,,,,,,,,,,,,,,,,,,,,,,,,,,,,,,,,,,,,,,,,,,,,,,,,35,001,2023_Apr_12_0944,ExactRep-v3-final,2021.2.3,59.93752126612007,
,,,,12,0,12,0,,,,,,,,,,,,,,,,,,,,,,,,,,,,,,,,,,,,,,,,,,,,,,,,,,,,,,,,,1132.5039419000968,None,,,,,,,,,,,,,,,,,1130.5021208999678,None,,,,,,,,,,,,,,,,,,,,,,,,,,,,,,,,,,,,,,,,,,,,,,,,,,,,,,,,35,001,2023_Apr_12_0944,ExactRep-v3-final,2021.2.3,59.93752126612007,
,,,,13,0,13,0,,,,,,,,,,,,,,,,,,,,,,,,,,,,,,,,,,,,,,,,,,,,,,,,,,,,,,,,,1135.0065835006535,None,,,,,,,,,,,,,,,,,1133.0044724000618,None,,,,,,,,,,,,,,,,,,,,,,,,,,,,,,,,,,,,,,,,,,,,,,,,,,,,,,,,35,001,2023_Apr_12_0944,ExactRep-v3-final,2021.2.3,59.93752126612007,
,,,,14,0,14,0,,,,,,,,,,,,,,,,,,,,,,,,,,,,,,,,,,,,,,,,,,,,,,,,,,,,,,,,,1137.509120900184,None,,,,,,,,,,,,,,,,,1135.5071326000616,None,,,,,,,,,,,,,,,,,,,,,,,,,,,,,,,,,,,,,,,,,,,,,,,,,,,,,,,,35,001,2023_Apr_12_0944,ExactRep-v3-final,2021.2.3,59.93752126612007,
,,,,,,,,,,,,,,,,,,,,,,,,,,,,,,,,,,,,,,,,,,,,,,,,,,,,,,,,,,,,,,,,,,,,,,,,,,,,,,,,,,,,space,27.36067369952798,1148.1438193004578,None,,,,,,,,,,,,,,,,,,,,,,,,,,,,,,,,,,,,,,,,,,,,,,,,,,,,35,001,2023_Apr_12_0944,ExactRep-v3-final,2021.2.3,59.93752126612007,
,,,,,,,,0,0,0,0,,,,,,,,,,,,,,,,,,,,,,,,,,,,,,,,,,,,,,,,,,,,,,,,,,,,,1177.5991053003818,None,,,,,,,,,,,,,,,,,,,,,,,1138.1726972004399,None,1138.1726972004399,None,1138.1726972004399,None,1138.1726972004399,None,1138.1726972004399,None,1138.1726972004399,None,letter,108,1,aloud,white,1175.595947300084,None,None,1175.595947300084,None,,,,,,,,,,,,,,,,,,,,,,,,,,,,,,35,001,2023_Apr_12_0944,ExactRep-v3-final,2021.2.3,59.93752126612007,
,,,,,,,,1,0,1,0,,,,,,,,,,,,,,,,,,,,,,,,,,,,,,,,,,,,,,,,,,,,,,,,,,,,,1180.1182328006253,None,,,,,,,,,,,,,,,,,,,,,,,,,,,,,,,,,,,event,16,2,sing,blue,1178.1146371001378,None,None,1178.1146371001378,None,,,,,,,,,,,,,,,,,,,,,,,,,,,,,,35,001,2023_Apr_12_0944,ExactRep-v3-final,2021.2.3,59.93752126612007,
,,,,,,,,2,0,2,0,,,,,,,,,,,,,,,,,,,,,,,,,,,,,,,,,,,,,,,,,,,,,,,,,,,,,1182.620754800737,None,,,,,,,,,,,,,,,,,,,,,,,,,,,,,,,,,,,leader,95,3,aloud,white,1180.6190127003938,None,None,1180.6190127003938,None,,,,,,,,,,,,,,,,,,,,,,,,,,,,,,35,001,2023_Apr_12_0944,ExactRep-v3-final,2021.2.3,59.93752126612007,
,,,,,,,,3,0,3,0,,,,,,,,,,,,,,,,,,,,,,,,,,,,,,,,,,,,,,,,,,,,,,,,,,,,,1185.1400172002614,None,,,,,,,,,,,,,,,,,,,,,,,,,,,,,,,,,,,fault,9,4,sing,blue,1183.1279075006023,None,None,1183.1279075006023,None,,,,,,,,,,,,,,,,,,,,,,,,,,,,,,35,001,2023_Apr_12_0944,ExactRep-v3-final,2021.2.3,59.93752126612007,
,,,,,,,,4,0,4,0,,,,,,,,,,,,,,,,,,,,,,,,,,,,,,,,,,,,,,,,,,,,,,,,,,,,,1187.6591613003984,None,,,,,,,,,,,,,,,,,,,,,,,,,,,,,,,,,,,person,4,5,sing,blue,1185.6462254999205,None,None,1185.6462254999205,None,,,,,,,,,,,,,,,,,,,,,,,,,,,,,,35,001,2023_Apr_12_0944,ExactRep-v3-final,2021.2.3,59.93752126612007,
,,,,,,,,5,0,5,0,,,,,,,,,,,,,,,,,,,,,,,,,,,,,,,,,,,,,,,,,,,,,,,,,,,,,1190.1795512000099,None,,,,,,,,,,,,,,,,,,,,,,,,,,,,,,,,,,,college,119,6,aloud,white,1188.1633481001481,None,None,1188.1633481001481,None,,,,,,,,,,,,,,,,,,,,,,,,,,,,,,35,001,2023_Apr_12_0944,ExactRep-v3-final,2021.2.3,59.93752126612007,
,,,,,,,,6,0,6,0,,,,,,,,,,,,,,,,,,,,,,,,,,,,,,,,,,,,,,,,,,,,,,,,,,,,,1192.6807122007012,None,,,,,,,,,,,,,,,,,,,,,,,,,,,,,,,,,,,hall,62,7,silent,red,1190.6797838006169,None,None,1190.6797838006169,None,,,,,,,,,,,,,,,,,,,,,,,,,,,,,,35,001,2023_Apr_12_0944,ExactRep-v3-final,2021.2.3,59.93752126612007,
,,,,,,,,7,0,7,0,,,,,,,,,,,,,,,,,,,,,,,,,,,,,,,,,,,,,,,,,,,,,,,,,,,,,1195.2000406002626,None,,,,,,,,,,,,,,,,,,,,,,,,,,,,,,,,,,,journal,49,8,silent,red,1193.186012800783,None,None,1193.186012800783,None,,,,,,,,,,,,,,,,,,,,,,,,,,,,,,35,001,2023_Apr_12_0944,ExactRep-v3-final,2021.2.3,59.93752126612007,
,,,,,,,,8,0,8,0,,,,,,,,,,,,,,,,,,,,,,,,,,,,,,,,,,,,,,,,,,,,,,,,,,,,,1197.7023780001327,None,,,,,,,,,,,,,,,,,,,,,,,,,,,,,,,,,,,honour,115,9,aloud,white,1195.7003458999097,None,None,1195.7003458999097,None,,,,,,,,,,,,,,,,,,,,,,,,,,,,,,35,001,2023_Apr_12_0944,ExactRep-v3-final,2021.2.3,59.93752126612007,
,,,,,,,,9,0,9,0,,,,,,,,,,,,,,,,,,,,,,,,,,,,,,,,,,,,,,,,,,,,,,,,,,,,,1200.2050121007487,None,,,,,,,,,,,,,,,,,,,,,,,,,,,,,,,,,,,history,15,10,sing,blue,1198.2052921000868,None,None,1198.2052921000868,None,,,,,,,,,,,,,,,,,,,,,,,,,,,,,,35,001,2023_Apr_12_0944,ExactRep-v3-final,2021.2.3,59.93752126612007,
,,,,,,,,10,0,10,0,,,,,,,,,,,,,,,,,,,,,,,,,,,,,,,,,,,,,,,,,,,,,,,,,,,,,1202.7075029006228,None,,,,,,,,,,,,,,,,,,,,,,,,,,,,,,,,,,,hope,50,11,silent,red,1200.707007500343,None,None,1200.707007500343,None,,,,,,,,,,,,,,,,,,,,,,,,,,,,,,35,001,2023_Apr_12_0944,ExactRep-v3-final,2021.2.3,59.93752126612007,
,,,,,,,,11,0,11,0,,,,,,,,,,,,,,,,,,,,,,,,,,,,,,,,,,,,,,,,,,,,,,,,,,,,,1205.2099811006337,None,,,,,,,,,,,,,,,,,,,,,,,,,,,,,,,,,,,devil,13,12,sing,blue,1203.2095320001245,None,None,1203.2095320001245,None,,,,,,,,,,,,,,,,,,,,,,,,,,,,,,35,001,2023_Apr_12_0944,ExactRep-v3-final,2021.2.3,59.93752126612007,
,,,,,,,,12,0,12,0,,,,,,,,,,,,,,,,,,,,,,,,,,,,,,,,,,,,,,,,,,,,,,,,,,,,,1207.7124994006008,None,,,,,,,,,,,,,,,,,,,,,,,,,,,,,,,,,,,butter,37,13,sing,blue,1205.7119150003418,None,None,1205.7119150003418,None,,,,,,,,,,,,,,,,,,,,,,,,,,,,,,35,001,2023_Apr_12_0944,ExactRep-v3-final,2021.2.3,59.93752126612007,
,,,,,,,,13,0,13,0,,,,,,,,,,,,,,,,,,,,,,,,,,,,,,,,,,,,,,,,,,,,,,,,,,,,,1210.2315328000113,None,,,,,,,,,,,,,,,,,,,,,,,,,,,,,,,,,,,meat,97,14,aloud,white,1208.2175529003143,None,None,1208.2175529003143,None,,,,,,,,,,,,,,,,,,,,,,,,,,,,,,35,001,2023_Apr_12_0944,ExactRep-v3-final,2021.2.3,59.93752126612007,
,,,,,,,,14,0,14,0,,,,,,,,,,,,,,,,,,,,,,,,,,,,,,,,,,,,,,,,,,,,,,,,,,,,,1212.7506859004498,None,,,,,,,,,,,,,,,,,,,,,,,,,,,,,,,,,,,fact,81,15,aloud,white,1210.740012800321,None,None,1210.740012800321,None,,,,,,,,,,,,,,,,,,,,,,,,,,,,,,35,001,2023_Apr_12_0944,ExactRep-v3-final,2021.2.3,59.93752126612007,
,,,,,,,,15,0,15,0,,,,,,,,,,,,,,,,,,,,,,,,,,,,,,,,,,,,,,,,,,,,,,,,,,,,,1215.2700746003538,None,,,,,,,,,,,,,,,,,,,,,,,,,,,,,,,,,,,idea,48,16,silent,red,1213.2605663007125,None,None,1213.2605663007125,None,,,,,,,,,,,,,,,,,,,,,,,,,,,,,,35,001,2023_Apr_12_0944,ExactRep-v3-final,2021.2.3,59.93752126612007,
,,,,,,,,16,0,16,0,,,,,,,,,,,,,,,,,,,,,,,,,,,,,,,,,,,,,,,,,,,,,,,,,,,,,1217.7893560007215,None,,,,,,,,,,,,,,,,,,,,,,,,,,,,,,,,,,,king,3,17,sing,blue,1215.7747329007834,None,None,1215.7747329007834,None,,,,,,,,,,,,,,,,,,,,,,,,,,,,,,35,001,2023_Apr_12_0944,ExactRep-v3-final,2021.2.3,59.93752126612007,
,,,,,,,,17,0,17,0,,,,,,,,,,,,,,,,,,,,,,,,,,,,,,,,,,,,,,,,,,,,,,,,,,,,,1220.2918148003519,None,,,,,,,,,,,,,,,,,,,,,,,,,,,,,,,,,,,seat,18,18,sing,blue,1218.2906237998977,None,None,1218.2906237998977,None,,,,,,,,,,,,,,,,,,,,,,,,,,,,,,35,001,2023_Apr_12_0944,ExactRep-v3-final,2021.2.3,59.93752126612007,
,,,,,,,,18,0,18,0,,,,,,,,,,,,,,,,,,,,,,,,,,,,,,,,,,,,,,,,,,,,,,,,,,,,,1222.794248700142,None,,,,,,,,,,,,,,,,,,,,,,,,,,,,,,,,,,,brain,73,19,silent,red,1220.794981200248,None,None,1220.794981200248,None,,,,,,,,,,,,,,,,,,,,,,,,,,,,,,35,001,2023_Apr_12_0944,ExactRep-v3-final,2021.2.3,59.93752126612007,
,,,,,,,,19,0,19,0,,,,,,,,,,,,,,,,,,,,,,,,,,,,,,,,,,,,,,,,,,,,,,,,,,,,,1225.2968127001077,None,,,,,,,,,,,,,,,,,,,,,,,,,,,,,,,,,,,money,38,20,sing,blue,1223.2946897000074,None,None,1223.2946897000074,None,,,,,,,,,,,,,,,,,,,,,,,,,,,,,,35,001,2023_Apr_12_0944,ExactRep-v3-final,2021.2.3,59.93752126612007,
,,,,,,,,20,0,20,0,,,,,,,,,,,,,,,,,,,,,,,,,,,,,,,,,,,,,,,,,,,,,,,,,,,,,1227.7992841005325,None,,,,,,,,,,,,,,,,,,,,,,,,,,,,,,,,,,,coin,107,21,aloud,white,1225.797245000489,None,None,1225.797245000489,None,,,,,,,,,,,,,,,,,,,,,,,,,,,,,,35,001,2023_Apr_12_0944,ExactRep-v3-final,2021.2.3,59.93752126612007,
,,,,,,,,21,0,21,0,,,,,,,,,,,,,,,,,,,,,,,,,,,,,,,,,,,,,,,,,,,,,,,,,,,,,1230.3184467004612,None,,,,,,,,,,,,,,,,,,,,,,,,,,,,,,,,,,,metal,19,22,sing,blue,1228.3080331003293,None,None,1228.3080331003293,None,,,,,,,,,,,,,,,,,,,,,,,,,,,,,,35,001,2023_Apr_12_0944,ExactRep-v3-final,2021.2.3,59.93752126612007,
,,,,,,,,22,0,22,0,,,,,,,,,,,,,,,,,,,,,,,,,,,,,,,,,,,,,,,,,,,,,,,,,,,,,1232.8209198005497,None,,,,,,,,,,,,,,,,,,,,,,,,,,,,,,,,,,,safety,56,23,silent,red,1230.8189388001338,None,None,1230.8189388001338,None,,,,,,,,,,,,,,,,,,,,,,,,,,,,,,35,001,2023_Apr_12_0944,ExactRep-v3-final,2021.2.3,59.93752126612007,
,,,,,,,,23,0,23,0,,,,,,,,,,,,,,,,,,,,,,,,,,,,,,,,,,,,,,,,,,,,,,,,,,,,,1235.3233234006912,None,,,,,,,,,,,,,,,,,,,,,,,,,,,,,,,,,,,time,71,24,silent,red,1233.3219759007916,None,None,1233.3219759007916,None,,,,,,,,,,,,,,,,,,,,,,,,,,,,,,35,001,2023_Apr_12_0944,ExactRep-v3-final,2021.2.3,59.93752126612007,
,,,,,,,,24,0,24,0,,,,,,,,,,,,,,,,,,,,,,,,,,,,,,,,,,,,,,,,,,,,,,,,,,,,,1237.842639900744,None,,,,,,,,,,,,,,,,,,,,,,,,,,,,,,,,,,,poet,75,25,silent,red,1235.8295047003776,None,None,1235.8295047003776,None,,,,,,,,,,,,,,,,,,,,,,,,,,,,,,35,001,2023_Apr_12_0944,ExactRep-v3-final,2021.2.3,59.93752126612007,
,,,,,,,,25,0,25,0,,,,,,,,,,,,,,,,,,,,,,,,,,,,,,,,,,,,,,,,,,,,,,,,,,,,,1240.3457915000618,None,,,,,,,,,,,,,,,,,,,,,,,,,,,,,,,,,,,heaven,84,26,aloud,white,1238.344125800766,None,None,1238.344125800766,None,,,,,,,,,,,,,,,,,,,,,,,,,,,,,,35,001,2023_Apr_12_0944,ExactRep-v3-final,2021.2.3,59.93752126612007,
,,,,,,,,26,0,26,0,,,,,,,,,,,,,,,,,,,,,,,,,,,,,,,,,,,,,,,,,,,,,,,,,,,,,1242.8642078004777,None,,,,,,,,,,,,,,,,,,,,,,,,,,,,,,,,,,,flower,116,27,aloud,white,1240.8598575005308,None,None,1240.8598575005308,None,,,,,,,,,,,,,,,,,,,,,,,,,,,,,,35,001,2023_Apr_12_0944,ExactRep-v3-final,2021.2.3,59.93752126612007,
,,,,,,,,27,0,27,0,,,,,,,,,,,,,,,,,,,,,,,,,,,,,,,,,,,,,,,,,,,,,,,,,,,,,1245.3835468003526,None,,,,,,,,,,,,,,,,,,,,,,,,,,,,,,,,,,,cottage,103,28,aloud,white,1243.3753451006487,None,None,1243.3753451006487,None,,,,,,,,,,,,,,,,,,,,,,,,,,,,,,35,001,2023_Apr_12_0944,ExactRep-v3-final,2021.2.3,59.93752126612007,
,,,,,,,,28,0,28,0,,,,,,,,,,,,,,,,,,,,,,,,,,,,,,,,,,,,,,,,,,,,,,,,,,,,,1247.8858480006456,None,,,,,,,,,,,,,,,,,,,,,,,,,,,,,,,,,,,mother,82,29,aloud,white,1245.8851819001138,None,None,1245.8851819001138,None,,,,,,,,,,,,,,,,,,,,,,,,,,,,,,35,001,2023_Apr_12_0944,ExactRep-v3-final,2021.2.3,59.93752126612007,
,,,,,,,,29,0,29,0,,,,,,,,,,,,,,,,,,,,,,,,,,,,,,,,,,,,,,,,,,,,,,,,,,,,,1250.405082700774,None,,,,,,,,,,,,,,,,,,,,,,,,,,,,,,,,,,,doctor,67,30,silent,red,1248.394180700183,None,None,1248.394180700183,None,,,,,,,,,,,,,,,,,,,,,,,,,,,,,,35,001,2023_Apr_12_0944,ExactRep-v3-final,2021.2.3,59.93752126612007,
,,,,,,,,30,0,30,0,,,,,,,,,,,,,,,,,,,,,,,,,,,,,,,,,,,,,,,,,,,,,,,,,,,,,1252.9075300004333,None,,,,,,,,,,,,,,,,,,,,,,,,,,,,,,,,,,,animal,105,31,aloud,white,1250.9055877001956,None,None,1250.9055877001956,None,,,,,,,,,,,,,,,,,,,,,,,,,,,,,,35,001,2023_Apr_12_0944,ExactRep-v3-final,2021.2.3,59.93752126612007,
,,,,,,,,31,0,31,0,,,,,,,,,,,,,,,,,,,,,,,,,,,,,,,,,,,,,,,,,,,,,,,,,,,,,1255.4103743005544,None,,,,,,,,,,,,,,,,,,,,,,,,,,,,,,,,,,,flesh,83,32,aloud,white,1253.4100427003577,None,None,1253.4100427003577,None,,,,,,,,,,,,,,,,,,,,,,,,,,,,,,35,001,2023_Apr_12_0944,ExactRep-v3-final,2021.2.3,59.93752126612007,
,,,,,,,,32,0,32,0,,,,,,,,,,,,,,,,,,,,,,,,,,,,,,,,,,,,,,,,,,,,,,,,,,,,,1257.9292870005593,None,,,,,,,,,,,,,,,,,,,,,,,,,,,,,,,,,,,party,22,33,sing,blue,1255.92020910047,None,None,1255.92020910047,None,,,,,,,,,,,,,,,,,,,,,,,,,,,,,,35,001,2023_Apr_12_0944,ExactRep-v3-final,2021.2.3,59.93752126612007,
,,,,,,,,33,0,33,0,,,,,,,,,,,,,,,,,,,,,,,,,,,,,,,,,,,,,,,,,,,,,,,,,,,,,1260.431974700652,None,,,,,,,,,,,,,,,,,,,,,,,,,,,,,,,,,,,life,35,34,sing,blue,1258.429811200127,None,None,1258.429811200127,None,,,,,,,,,,,,,,,,,,,,,,,,,,,,,,35,001,2023_Apr_12_0944,ExactRep-v3-final,2021.2.3,59.93752126612007,
,,,,,,,,34,0,34,0,,,,,,,,,,,,,,,,,,,,,,,,,,,,,,,,,,,,,,,,,,,,,,,,,,,,,1262.9342771004885,None,,,,,,,,,,,,,,,,,,,,,,,,,,,,,,,,,,,circle,47,35,silent,red,1260.9322822000831,None,None,1260.9322822000831,None,,,,,,,,,,,,,,,,,,,,,,,,,,,,,,35,001,2023_Apr_12_0944,ExactRep-v3-final,2021.2.3,59.93752126612007,
,,,,,,,,35,0,35,0,,,,,,,,,,,,,,,,,,,,,,,,,,,,,,,,,,,,,,,,,,,,,,,,,,,,,1265.436920300126,None,,,,,,,,,,,,,,,,,,,,,,,,,,,,,,,,,,,style,98,36,aloud,white,1263.4368766006082,None,None,1263.4368766006082,None,,,,,,,,,,,,,,,,,,,,,,,,,,,,,,35,001,2023_Apr_12_0944,ExactRep-v3-final,2021.2.3,59.93752126612007,
,,,,,,,,36,0,36,0,,,,,,,,,,,,,,,,,,,,,,,,,,,,,,,,,,,,,,,,,,,,,,,,,,,,,1267.9394118003547,None,,,,,,,,,,,,,,,,,,,,,,,,,,,,,,,,,,,ship,80,37,aloud,white,1265.9374291999266,None,None,1265.9374291999266,None,,,,,,,,,,,,,,,,,,,,,,,,,,,,,,35,001,2023_Apr_12_0944,ExactRep-v3-final,2021.2.3,59.93752126612007,
,,,,,,,,37,0,37,0,,,,,,,,,,,,,,,,,,,,,,,,,,,,,,,,,,,,,,,,,,,,,,,,,,,,,1270.4585610004142,None,,,,,,,,,,,,,,,,,,,,,,,,,,,,,,,,,,,bowl,99,38,aloud,white,1268.450997600332,None,None,1268.450997600332,None,,,,,,,,,,,,,,,,,,,,,,,,,,,,,,35,001,2023_Apr_12_0944,ExactRep-v3-final,2021.2.3,59.93752126612007,
,,,,,,,,38,0,38,0,,,,,,,,,,,,,,,,,,,,,,,,,,,,,,,,,,,,,,,,,,,,,,,,,,,,,1272.9612172003835,None,,,,,,,,,,,,,,,,,,,,,,,,,,,,,,,,,,,thought,94,39,aloud,white,1270.9589648004621,None,None,1270.9589648004621,None,,,,,,,,,,,,,,,,,,,,,,,,,,,,,,35,001,2023_Apr_12_0944,ExactRep-v3-final,2021.2.3,59.93752126612007,
,,,,,,,,39,0,39,0,,,,,,,,,,,,,,,,,,,,,,,,,,,,,,,,,,,,,,,,,,,,,,,,,,,,,1275.4802934005857,None,,,,,,,,,,,,,,,,,,,,,,,,,,,,,,,,,,,duty,10,40,sing,blue,1273.4671856006607,None,None,1273.4671856006607,None,,,,,,,,,,,,,,,,,,,,,,,,,,,,,,35,001,2023_Apr_12_0944,ExactRep-v3-final,2021.2.3,59.93752126612007,
,,,,,,,,40,0,40,0,,,,,,,,,,,,,,,,,,,,,,,,,,,,,,,,,,,,,,,,,,,,,,,,,,,,,1277.982796500437,None,,,,,,,,,,,,,,,,,,,,,,,,,,,,,,,,,,,effort,109,41,aloud,white,1275.9806369002908,None,None,1275.9806369002908,None,,,,,,,,,,,,,,,,,,,,,,,,,,,,,,35,001,2023_Apr_12_0944,ExactRep-v3-final,2021.2.3,59.93752126612007,
,,,,,,,,41,0,41,0,,,,,,,,,,,,,,,,,,,,,,,,,,,,,,,,,,,,,,,,,,,,,,,,,,,,,1280.502111500129,None,,,,,,,,,,,,,,,,,,,,,,,,,,,,,,,,,,,queen,68,42,silent,red,1278.4880550000817,None,None,1278.4880550000817,None,,,,,,,,,,,,,,,,,,,,,,,,,,,,,,35,001,2023_Apr_12_0944,ExactRep-v3-final,2021.2.3,59.93752126612007,
,,,,,,,,42,0,42,0,,,,,,,,,,,,,,,,,,,,,,,,,,,,,,,,,,,,,,,,,,,,,,,,,,,,,1283.0044344998896,None,,,,,,,,,,,,,,,,,,,,,,,,,,,,,,,,,,,fur,40,43,silent,red,1281.0046199001372,None,None,1281.0046199001372,None,,,,,,,,,,,,,,,,,,,,,,,,,,,,,,35,001,2023_Apr_12_0944,ExactRep-v3-final,2021.2.3,59.93752126612007,
,,,,,,,,43,0,43,0,,,,,,,,,,,,,,,,,,,,,,,,,,,,,,,,,,,,,,,,,,,,,,,,,,,,,1285.5066630002111,None,,,,,,,,,,,,,,,,,,,,,,,,,,,,,,,,,,,teacher,27,44,sing,blue,1283.5046461001039,None,None,1283.5046461001039,None,,,,,,,,,,,,,,,,,,,,,,,,,,,,,,35,001,2023_Apr_12_0944,ExactRep-v3-final,2021.2.3,59.93752126612007,
,,,,,,,,44,0,44,0,,,,,,,,,,,,,,,,,,,,,,,,,,,,,,,,,,,,,,,,,,,,,,,,,,,,,1288.0261705005541,None,,,,,,,,,,,,,,,,,,,,,,,,,,,,,,,,,,,square,112,45,aloud,white,1286.0145952003077,None,None,1286.0145952003077,None,,,,,,,,,,,,,,,,,,,,,,,,,,,,,,35,001,2023_Apr_12_0944,ExactRep-v3-final,2021.2.3,59.93752126612007,
,,,,,,,,45,0,45,0,,,,,,,,,,,,,,,,,,,,,,,,,,,,,,,,,,,,,,,,,,,,,,,,,,,,,1290.52864699997,None,,,,,,,,,,,,,,,,,,,,,,,,,,,,,,,,,,,chance,17,46,sing,blue,1288.528287600726,None,None,1288.528287600726,None,,,,,,,,,,,,,,,,,,,,,,,,,,,,,,35,001,2023_Apr_12_0944,ExactRep-v3-final,2021.2.3,59.93752126612007,
,,,,,,,,46,0,46,0,,,,,,,,,,,,,,,,,,,,,,,,,,,,,,,,,,,,,,,,,,,,,,,,,,,,,1293.0311667006463,None,,,,,,,,,,,,,,,,,,,,,,,,,,,,,,,,,,,tree,111,47,aloud,white,1291.0310431001708,None,None,1291.0310431001708,None,,,,,,,,,,,,,,,,,,,,,,,,,,,,,,35,001,2023_Apr_12_0944,ExactRep-v3-final,2021.2.3,59.93752126612007,
,,,,,,,,47,0,47,0,,,,,,,,,,,,,,,,,,,,,,,,,,,,,,,,,,,,,,,,,,,,,,,,,,,,,1295.5501863006502,None,,,,,,,,,,,,,,,,,,,,,,,,,,,,,,,,,,,trouble,74,48,silent,red,1293.541005000472,None,None,1293.541005000472,None,,,,,,,,,,,,,,,,,,,,,,,,,,,,,,35,001,2023_Apr_12_0944,ExactRep-v3-final,2021.2.3,59.93752126612007,
,,,,,,,,48,0,48,0,,,,,,,,,,,,,,,,,,,,,,,,,,,,,,,,,,,,,,,,,,,,,,,,,,,,,1298.0695036007091,None,,,,,,,,,,,,,,,,,,,,,,,,,,,,,,,,,,,law,39,49,silent,red,1296.0554248001426,None,None,1296.0554248001426,None,,,,,,,,,,,,,,,,,,,,,,,,,,,,,,35,001,2023_Apr_12_0944,ExactRep-v3-final,2021.2.3,59.93752126612007,
,,,,,,,,49,0,49,0,,,,,,,,,,,,,,,,,,,,,,,,,,,,,,,,,,,,,,,,,,,,,,,,,,,,,1300.572009500116,None,,,,,,,,,,,,,,,,,,,,,,,,,,,,,,,,,,,weapon,26,50,sing,blue,1298.5720395008102,None,None,1298.5720395008102,None,,,,,,,,,,,,,,,,,,,,,,,,,,,,,,35,001,2023_Apr_12_0944,ExactRep-v3-final,2021.2.3,59.93752126612007,
,,,,,,,,50,0,50,0,,,,,,,,,,,,,,,,,,,,,,,,,,,,,,,,,,,,,,,,,,,,,,,,,,,,,1303.0745403002948,None,,,,,,,,,,,,,,,,,,,,,,,,,,,,,,,,,,,factory,102,51,aloud,white,1301.0741739999503,None,None,1301.0741739999503,None,,,,,,,,,,,,,,,,,,,,,,,,,,,,,,35,001,2023_Apr_12_0944,ExactRep-v3-final,2021.2.3,59.93752126612007,
,,,,,,,,51,0,51,0,,,,,,,,,,,,,,,,,,,,,,,,,,,,,,,,,,,,,,,,,,,,,,,,,,,,,1305.577043400146,None,,,,,,,,,,,,,,,,,,,,,,,,,,,,,,,,,,,freedom,85,52,aloud,white,1303.5766259999946,None,None,1303.5766259999946,None,,,,,,,,,,,,,,,,,,,,,,,,,,,,,,35,001,2023_Apr_12_0944,ExactRep-v3-final,2021.2.3,59.93752126612007,
,,,,,,,,52,0,52,0,,,,,,,,,,,,,,,,,,,,,,,,,,,,,,,,,,,,,,,,,,,,,,,,,,,,,1308.0795726003125,None,,,,,,,,,,,,,,,,,,,,,,,,,,,,,,,,,,,student,42,53,silent,red,1306.0790674006566,None,None,1306.0790674006566,None,,,,,,,,,,,,,,,,,,,,,,,,,,,,,,35,001,2023_Apr_12_0944,ExactRep-v3-final,2021.2.3,59.93752126612007,
,,,,,,,,53,0,53,0,,,,,,,,,,,,,,,,,,,,,,,,,,,,,,,,,,,,,,,,,,,,,,,,,,,,,1310.5987905999646,None,,,,,,,,,,,,,,,,,,,,,,,,,,,,,,,,,,,fun,61,54,silent,red,1308.5833271006122,None,None,1308.5833271006122,None,,,,,,,,,,,,,,,,,,,,,,,,,,,,,,35,001,2023_Apr_12_0944,ExactRep-v3-final,2021.2.3,59.93752126612007,
,,,,,,,,54,0,54,0,,,,,,,,,,,,,,,,,,,,,,,,,,,,,,,,,,,,,,,,,,,,,,,,,,,,,1313.1010548006743,None,,,,,,,,,,,,,,,,,,,,,,,,,,,,,,,,,,,sky,6,55,sing,blue,1311.0992506006733,None,None,1311.0992506006733,None,,,,,,,,,,,,,,,,,,,,,,,,,,,,,,35,001,2023_Apr_12_0944,ExactRep-v3-final,2021.2.3,59.93752126612007,
,,,,,,,,55,0,55,0,,,,,,,,,,,,,,,,,,,,,,,,,,,,,,,,,,,,,,,,,,,,,,,,,,,,,1315.6202110005543,None,,,,,,,,,,,,,,,,,,,,,,,,,,,,,,,,,,,season,30,56,sing,blue,1313.610287300311,None,None,1313.610287300311,None,,,,,,,,,,,,,,,,,,,,,,,,,,,,,,35,001,2023_Apr_12_0944,ExactRep-v3-final,2021.2.3,59.93752126612007,
,,,,,,,,56,0,56,0,,,,,,,,,,,,,,,,,,,,,,,,,,,,,,,,,,,,,,,,,,,,,,,,,,,,,1318.1229381999,None,,,,,,,,,,,,,,,,,,,,,,,,,,,,,,,,,,,chief,7,57,sing,blue,1316.1206857003272,None,None,1316.1206857003272,None,,,,,,,,,,,,,,,,,,,,,,,,,,,,,,35,001,2023_Apr_12_0944,ExactRep-v3-final,2021.2.3,59.93752126612007,
,,,,,,,,57,0,57,0,,,,,,,,,,,,,,,,,,,,,,,,,,,,,,,,,,,,,,,,,,,,,,,,,,,,,1320.6254223007709,None,,,,,,,,,,,,,,,,,,,,,,,,,,,,,,,,,,,breast,52,58,silent,red,1318.6253535998985,None,None,1318.6253535998985,None,,,,,,,,,,,,,,,,,,,,,,,,,,,,,,35,001,2023_Apr_12_0944,ExactRep-v3-final,2021.2.3,59.93752126612007,
,,,,,,,,58,0,58,0,,,,,,,,,,,,,,,,,,,,,,,,,,,,,,,,,,,,,,,,,,,,,,,,,,,,,1323.1276801005006,None,,,,,,,,,,,,,,,,,,,,,,,,,,,,,,,,,,,flood,32,59,sing,blue,1321.1273324005306,None,None,1321.1273324005306,None,,,,,,,,,,,,,,,,,,,,,,,,,,,,,,35,001,2023_Apr_12_0944,ExactRep-v3-final,2021.2.3,59.93752126612007,
,,,,,,,,59,0,59,0,,,,,,,,,,,,,,,,,,,,,,,,,,,,,,,,,,,,,,,,,,,,,,,,,,,,,1325.6469707004726,None,,,,,,,,,,,,,,,,,,,,,,,,,,,,,,,,,,,series,25,60,sing,blue,1323.6313415002078,None,None,1323.6313415002078,None,,,,,,,,,,,,,,,,,,,,,,,,,,,,,,35,001,2023_Apr_12_0944,ExactRep-v3-final,2021.2.3,59.93752126612007,
,,,,,,,,60,0,60,0,,,,,,,,,,,,,,,,,,,,,,,,,,,,,,,,,,,,,,,,,,,,,,,,,,,,,1328.1663180999458,None,,,,,,,,,,,,,,,,,,,,,,,,,,,,,,,,,,,prison,89,61,aloud,white,1326.1527105001733,None,None,1326.1527105001733,None,,,,,,,,,,,,,,,,,,,,,,,,,,,,,,35,001,2023_Apr_12_0944,ExactRep-v3-final,2021.2.3,59.93752126612007,
,,,,,,,,61,0,61,0,,,,,,,,,,,,,,,,,,,,,,,,,,,,,,,,,,,,,,,,,,,,,,,,,,,,,1330.6855135001242,None,,,,,,,,,,,,,,,,,,,,,,,,,,,,,,,,,,,power,69,62,silent,red,1328.6749746007845,None,None,1328.6749746007845,None,,,,,,,,,,,,,,,,,,,,,,,,,,,,,,35,001,2023_Apr_12_0944,ExactRep-v3-final,2021.2.3,59.93752126612007,
,,,,,,,,62,0,62,0,,,,,,,,,,,,,,,,,,,,,,,,,,,,,,,,,,,,,,,,,,,,,,,,,,,,,1333.1886312002316,None,,,,,,,,,,,,,,,,,,,,,,,,,,,,,,,,,,,speech,88,63,aloud,white,1331.1870341999456,None,None,1331.1870341999456,None,,,,,,,,,,,,,,,,,,,,,,,,,,,,,,35,001,2023_Apr_12_0944,ExactRep-v3-final,2021.2.3,59.93752126612007,
,,,,,,,,63,0,63,0,,,,,,,,,,,,,,,,,,,,,,,,,,,,,,,,,,,,,,,,,,,,,,,,,,,,,1335.6904718000442,None,,,,,,,,,,,,,,,,,,,,,,,,,,,,,,,,,,,deed,20,64,sing,blue,1333.6888251006603,None,None,1333.6888251006603,None,,,,,,,,,,,,,,,,,,,,,,,,,,,,,,35,001,2023_Apr_12_0944,ExactRep-v3-final,2021.2.3,59.93752126612007,
,,,,,,,,64,0,64,0,,,,,,,,,,,,,,,,,,,,,,,,,,,,,,,,,,,,,,,,,,,,,,,,,,,,,1338.192966000177,None,,,,,,,,,,,,,,,,,,,,,,,,,,,,,,,,,,,apple,46,65,silent,red,1336.1921985000372,None,None,1336.1921985000372,None,,,,,,,,,,,,,,,,,,,,,,,,,,,,,,35,001,2023_Apr_12_0944,ExactRep-v3-final,2021.2.3,59.93752126612007,
,,,,,,,,65,0,65,0,,,,,,,,,,,,,,,,,,,,,,,,,,,,,,,,,,,,,,,,,,,,,,,,,,,,,1340.7119767004624,None,,,,,,,,,,,,,,,,,,,,,,,,,,,,,,,,,,,salary,110,66,aloud,white,1338.6987987002358,None,None,1338.6987987002358,None,,,,,,,,,,,,,,,,,,,,,,,,,,,,,,35,001,2023_Apr_12_0944,ExactRep-v3-final,2021.2.3,59.93752126612007,
,,,,,,,,66,0,66,0,,,,,,,,,,,,,,,,,,,,,,,,,,,,,,,,,,,,,,,,,,,,,,,,,,,,,1343.2145446008071,None,,,,,,,,,,,,,,,,,,,,,,,,,,,,,,,,,,,plain,11,67,sing,blue,1341.2125071007758,None,None,1341.2125071007758,None,,,,,,,,,,,,,,,,,,,,,,,,,,,,,,35,001,2023_Apr_12_0944,ExactRep-v3-final,2021.2.3,59.93752126612007,
,,,,,,,,67,0,67,0,,,,,,,,,,,,,,,,,,,,,,,,,,,,,,,,,,,,,,,,,,,,,,,,,,,,,1345.717143200338,None,,,,,,,,,,,,,,,,,,,,,,,,,,,,,,,,,,,coast,51,68,silent,red,1343.7151450002566,None,None,1343.7151450002566,None,,,,,,,,,,,,,,,,,,,,,,,,,,,,,,35,001,2023_Apr_12_0944,ExactRep-v3-final,2021.2.3,59.93752126612007,
,,,,,,,,68,0,68,0,,,,,,,,,,,,,,,,,,,,,,,,,,,,,,,,,,,,,,,,,,,,,,,,,,,,,1348.219712300226,None,,,,,,,,,,,,,,,,,,,,,,,,,,,,,,,,,,,author,58,69,silent,red,1346.2173570999876,None,None,1346.2173570999876,None,,,,,,,,,,,,,,,,,,,,,,,,,,,,,,35,001,2023_Apr_12_0944,ExactRep-v3-final,2021.2.3,59.93752126612007,
,,,,,,,,69,0,69,0,,,,,,,,,,,,,,,,,,,,,,,,,,,,,,,,,,,,,,,,,,,,,,,,,,,,,1350.7387084001675,None,,,,,,,,,,,,,,,,,,,,,,,,,,,,,,,,,,,beast,8,70,sing,blue,1348.726115600206,None,None,1348.726115600206,None,,,,,,,,,,,,,,,,,,,,,,,,,,,,,,35,001,2023_Apr_12_0944,ExactRep-v3-final,2021.2.3,59.93752126612007,
,,,,,,,,70,0,70,0,,,,,,,,,,,,,,,,,,,,,,,,,,,,,,,,,,,,,,,,,,,,,,,,,,,,,1353.241345900111,None,,,,,,,,,,,,,,,,,,,,,,,,,,,,,,,,,,,prayer,96,71,aloud,white,1351.239226700738,None,None,1351.239226700738,None,,,,,,,,,,,,,,,,,,,,,,,,,,,,,,35,001,2023_Apr_12_0944,ExactRep-v3-final,2021.2.3,59.93752126612007,
,,,,,,,,71,0,71,0,,,,,,,,,,,,,,,,,,,,,,,,,,,,,,,,,,,,,,,,,,,,,,,,,,,,,1355.7438379004598,None,,,,,,,,,,,,,,,,,,,,,,,,,,,,,,,,,,,bottle,41,72,silent,red,1353.743241400458,None,None,1353.743241400458,None,,,,,,,,,,,,,,,,,,,,,,,,,,,,,,35,001,2023_Apr_12_0944,ExactRep-v3-final,2021.2.3,59.93752126612007,
,,,,,,,,72,0,72,0,,,,,,,,,,,,,,,,,,,,,,,,,,,,,,,,,,,,,,,,,,,,,,,,,,,,,1358.246432300657,None,,,,,,,,,,,,,,,,,,,,,,,,,,,,,,,,,,,body,55,73,silent,red,1356.2460940005258,None,None,1356.2460940005258,None,,,,,,,,,,,,,,,,,,,,,,,,,,,,,,35,001,2023_Apr_12_0944,ExactRep-v3-final,2021.2.3,59.93752126612007,
,,,,,,,,73,0,73,0,,,,,,,,,,,,,,,,,,,,,,,,,,,,,,,,,,,,,,,,,,,,,,,,,,,,,1360.7488935003057,None,,,,,,,,,,,,,,,,,,,,,,,,,,,,,,,,,,,star,12,74,sing,blue,1358.748467599973,None,None,1358.748467599973,None,,,,,,,,,,,,,,,,,,,,,,,,,,,,,,35,001,2023_Apr_12_0944,ExactRep-v3-final,2021.2.3,59.93752126612007,
,,,,,,,,74,0,74,0,,,,,,,,,,,,,,,,,,,,,,,,,,,,,,,,,,,,,,,,,,,,,,,,,,,,,1363.251744600013,None,,,,,,,,,,,,,,,,,,,,,,,,,,,,,,,,,,,street,63,75,silent,red,1361.2516334000975,None,None,1361.2516334000975,None,,,,,,,,,,,,,,,,,,,,,,,,,,,,,,35,001,2023_Apr_12_0944,ExactRep-v3-final,2021.2.3,59.93752126612007,
,,,,,,,,75,0,75,0,,,,,,,,,,,,,,,,,,,,,,,,,,,,,,,,,,,,,,,,,,,,,,,,,,,,,1365.753686199896,None,,,,,,,,,,,,,,,,,,,,,,,,,,,,,,,,,,,library,106,76,aloud,white,1363.7546689007431,None,None,1363.7546689007431,None,,,,,,,,,,,,,,,,,,,,,,,,,,,,,,35,001,2023_Apr_12_0944,ExactRep-v3-final,2021.2.3,59.93752126612007,
,,,,,,,,76,0,76,0,,,,,,,,,,,,,,,,,,,,,,,,,,,,,,,,,,,,,,,,,,,,,,,,,,,,,1368.2731109000742,None,,,,,,,,,,,,,,,,,,,,,,,,,,,,,,,,,,,owner,117,77,aloud,white,1366.2646844005212,None,None,1366.2646844005212,None,,,,,,,,,,,,,,,,,,,,,,,,,,,,,,35,001,2023_Apr_12_0944,ExactRep-v3-final,2021.2.3,59.93752126612007,
,,,,,,,,77,0,77,0,,,,,,,,,,,,,,,,,,,,,,,,,,,,,,,,,,,,,,,,,,,,,,,,,,,,,1370.7756372001022,None,,,,,,,,,,,,,,,,,,,,,,,,,,,,,,,,,,,gift,113,78,aloud,white,1368.7744759004563,None,None,1368.7744759004563,None,,,,,,,,,,,,,,,,,,,,,,,,,,,,,,35,001,2023_Apr_12_0944,ExactRep-v3-final,2021.2.3,59.93752126612007,
,,,,,,,,78,0,78,0,,,,,,,,,,,,,,,,,,,,,,,,,,,,,,,,,,,,,,,,,,,,,,,,,,,,,1373.2781287999824,None,,,,,,,,,,,,,,,,,,,,,,,,,,,,,,,,,,,toy,101,79,aloud,white,1371.2784560006112,None,None,1371.2784560006112,None,,,,,,,,,,,,,,,,,,,,,,,,,,,,,,35,001,2023_Apr_12_0944,ExactRep-v3-final,2021.2.3,59.93752126612007,
,,,,,,,,79,0,79,0,,,,,,,,,,,,,,,,,,,,,,,,,,,,,,,,,,,,,,,,,,,,,,,,,,,,,1375.7972572008148,None,,,,,,,,,,,,,,,,,,,,,,,,,,,,,,,,,,,soil,1,80,sing,blue,1373.7819571001455,None,None,1373.7819571001455,None,,,,,,,,,,,,,,,,,,,,,,,,,,,,,,35,001,2023_Apr_12_0944,ExactRep-v3-final,2021.2.3,59.93752126612007,
,,,,,,,,80,0,80,0,,,,,,,,,,,,,,,,,,,,,,,,,,,,,,,,,,,,,,,,,,,,,,,,,,,,,1378.2996559999883,None,,,,,,,,,,,,,,,,,,,,,,,,,,,,,,,,,,,dust,87,81,aloud,white,1376.2974364999682,None,None,1376.2974364999682,None,,,,,,,,,,,,,,,,,,,,,,,,,,,,,,35,001,2023_Apr_12_0944,ExactRep-v3-final,2021.2.3,59.93752126612007,
,,,,,,,,81,0,81,0,,,,,,,,,,,,,,,,,,,,,,,,,,,,,,,,,,,,,,,,,,,,,,,,,,,,,1380.802265100181,None,,,,,,,,,,,,,,,,,,,,,,,,,,,,,,,,,,,chair,57,82,silent,red,1378.8016781006008,None,None,1378.8016781006008,None,,,,,,,,,,,,,,,,,,,,,,,,,,,,,,35,001,2023_Apr_12_0944,ExactRep-v3-final,2021.2.3,59.93752126612007,
,,,,,,,,82,0,82,0,,,,,,,,,,,,,,,,,,,,,,,,,,,,,,,,,,,,,,,,,,,,,,,,,,,,,1383.3047841005027,None,,,,,,,,,,,,,,,,,,,,,,,,,,,,,,,,,,,memory,34,83,sing,blue,1381.3053251001984,None,None,1381.3053251001984,None,,,,,,,,,,,,,,,,,,,,,,,,,,,,,,35,001,2023_Apr_12_0944,ExactRep-v3-final,2021.2.3,59.93752126612007,
,,,,,,,,83,0,83,0,,,,,,,,,,,,,,,,,,,,,,,,,,,,,,,,,,,,,,,,,,,,,,,,,,,,,1385.8072505006567,None,,,,,,,,,,,,,,,,,,,,,,,,,,,,,,,,,,,cabin,43,84,silent,red,1383.8071137005463,None,None,1383.8071137005463,None,,,,,,,,,,,,,,,,,,,,,,,,,,,,,,35,001,2023_Apr_12_0944,ExactRep-v3-final,2021.2.3,59.93752126612007,
,,,,,,,,84,0,84,0,,,,,,,,,,,,,,,,,,,,,,,,,,,,,,,,,,,,,,,,,,,,,,,,,,,,,1388.3097943002358,None,,,,,,,,,,,,,,,,,,,,,,,,,,,,,,,,,,,horse,86,85,aloud,white,1386.310534200631,None,None,1386.310534200631,None,,,,,,,,,,,,,,,,,,,,,,,,,,,,,,35,001,2023_Apr_12_0944,ExactRep-v3-final,2021.2.3,59.93752126612007,
,,,,,,,,85,0,85,0,,,,,,,,,,,,,,,,,,,,,,,,,,,,,,,,,,,,,,,,,,,,,,,,,,,,,1390.8123022001237,None,,,,,,,,,,,,,,,,,,,,,,,,,,,,,,,,,,,city,24,86,sing,blue,1388.8121183998883,None,None,1388.8121183998883,None,,,,,,,,,,,,,,,,,,,,,,,,,,,,,,35,001,2023_Apr_12_0944,ExactRep-v3-final,2021.2.3,59.93752126612007,
,,,,,,,,86,0,86,0,,,,,,,,,,,,,,,,,,,,,,,,,,,,,,,,,,,,,,,,,,,,,,,,,,,,,1393.3312875004485,None,,,,,,,,,,,,,,,,,,,,,,,,,,,,,,,,,,,engine,90,87,aloud,white,1391.317604600452,None,None,1391.317604600452,None,,,,,,,,,,,,,,,,,,,,,,,,,,,,,,35,001,2023_Apr_12_0944,ExactRep-v3-final,2021.2.3,59.93752126612007,
,,,,,,,,87,0,87,0,,,,,,,,,,,,,,,,,,,,,,,,,,,,,,,,,,,,,,,,,,,,,,,,,,,,,1395.8504836000502,None,,,,,,,,,,,,,,,,,,,,,,,,,,,,,,,,,,,army,66,88,silent,red,1393.8355715004727,None,None,1393.8355715004727,None,,,,,,,,,,,,,,,,,,,,,,,,,,,,,,35,001,2023_Apr_12_0944,ExactRep-v3-final,2021.2.3,59.93752126612007,
,,,,,,,,88,0,88,0,,,,,,,,,,,,,,,,,,,,,,,,,,,,,,,,,,,,,,,,,,,,,,,,,,,,,1398.3531322004274,None,,,,,,,,,,,,,,,,,,,,,,,,,,,,,,,,,,,ticket,36,89,sing,blue,1396.3511918000877,None,None,1396.3511918000877,None,,,,,,,,,,,,,,,,,,,,,,,,,,,,,,35,001,2023_Apr_12_0944,ExactRep-v3-final,2021.2.3,59.93752126612007,
,,,,,,,,89,0,89,0,,,,,,,,,,,,,,,,,,,,,,,,,,,,,,,,,,,,,,,,,,,,,,,,,,,,,1400.8723269002512,None,,,,,,,,,,,,,,,,,,,,,,,,,,,,,,,,,,,dawn,93,90,aloud,white,1398.865806600079,None,None,1398.865806600079,None,,,,,,,,,,,,,,,,,,,,,,,,,,,,,,35,001,2023_Apr_12_0944,ExactRep-v3-final,2021.2.3,59.93752126612007,
,,,,,,,,90,0,90,0,,,,,,,,,,,,,,,,,,,,,,,,,,,,,,,,,,,,,,,,,,,,,,,,,,,,,1403.3746676007286,None,,,,,,,,,,,,,,,,,,,,,,,,,,,,,,,,,,,pipe,70,91,silent,red,1401.372642800212,None,None,1401.372642800212,None,,,,,,,,,,,,,,,,,,,,,,,,,,,,,,35,001,2023_Apr_12_0944,ExactRep-v3-final,2021.2.3,59.93752126612007,
,,,,,,,,91,0,91,0,,,,,,,,,,,,,,,,,,,,,,,,,,,,,,,,,,,,,,,,,,,,,,,,,,,,,1405.8771900003776,None,,,,,,,,,,,,,,,,,,,,,,,,,,,,,,,,,,,lip,33,92,sing,blue,1403.8751861006021,None,None,1403.8751861006021,None,,,,,,,,,,,,,,,,,,,,,,,,,,,,,,35,001,2023_Apr_12_0944,ExactRep-v3-final,2021.2.3,59.93752126612007,
,,,,,,,,92,0,92,0,,,,,,,,,,,,,,,,,,,,,,,,,,,,,,,,,,,,,,,,,,,,,,,,,,,,,1408.3963312003762,None,,,,,,,,,,,,,,,,,,,,,,,,,,,,,,,,,,,home,72,93,silent,red,1406.3922430006787,None,None,1406.3922430006787,None,,,,,,,,,,,,,,,,,,,,,,,,,,,,,,35,001,2023_Apr_12_0944,ExactRep-v3-final,2021.2.3,59.93752126612007,
,,,,,,,,93,0,93,0,,,,,,,,,,,,,,,,,,,,,,,,,,,,,,,,,,,,,,,,,,,,,,,,,,,,,1410.9157281005755,None,,,,,,,,,,,,,,,,,,,,,,,,,,,,,,,,,,,fortune,5,94,sing,blue,1408.9005657006055,None,None,1408.9005657006055,None,,,,,,,,,,,,,,,,,,,,,,,,,,,,,,35,001,2023_Apr_12_0944,ExactRep-v3-final,2021.2.3,59.93752126612007,
,,,,,,,,94,0,94,0,,,,,,,,,,,,,,,,,,,,,,,,,,,,,,,,,,,,,,,,,,,,,,,,,,,,,1413.4182055005804,None,,,,,,,,,,,,,,,,,,,,,,,,,,,,,,,,,,,river,65,95,silent,red,1411.4160318002105,None,None,1411.4160318002105,None,,,,,,,,,,,,,,,,,,,,,,,,,,,,,,35,001,2023_Apr_12_0944,ExactRep-v3-final,2021.2.3,59.93752126612007,
,,,,,,,,95,0,95,0,,,,,,,,,,,,,,,,,,,,,,,,,,,,,,,,,,,,,,,,,,,,,,,,,,,,,1415.9207661002874,None,,,,,,,,,,,,,,,,,,,,,,,,,,,,,,,,,,,murder,28,96,sing,blue,1413.9213217999786,None,None,1413.9213217999786,None,,,,,,,,,,,,,,,,,,,,,,,,,,,,,,35,001,2023_Apr_12_0944,ExactRep-v3-final,2021.2.3,59.93752126612007,
,,,,,,,,96,0,96,0,,,,,,,,,,,,,,,,,,,,,,,,,,,,,,,,,,,,,,,,,,,,,,,,,,,,,1418.4400508999825,None,,,,,,,,,,,,,,,,,,,,,,,,,,,,,,,,,,,disease,79,97,sing,blue,1416.4242978999391,None,None,1416.4242978999391,None,,,,,,,,,,,,,,,,,,,,,,,,,,,,,,35,001,2023_Apr_12_0944,ExactRep-v3-final,2021.2.3,59.93752126612007,
,,,,,,,,97,0,97,0,,,,,,,,,,,,,,,,,,,,,,,,,,,,,,,,,,,,,,,,,,,,,,,,,,,,,1420.9424742003903,None,,,,,,,,,,,,,,,,,,,,,,,,,,,,,,,,,,,bar,114,98,aloud,white,1418.9418575000018,None,None,1418.9418575000018,None,,,,,,,,,,,,,,,,,,,,,,,,,,,,,,35,001,2023_Apr_12_0944,ExactRep-v3-final,2021.2.3,59.93752126612007,
,,,,,,,,98,0,98,0,,,,,,,,,,,,,,,,,,,,,,,,,,,,,,,,,,,,,,,,,,,,,,,,,,,,,1423.4615994999185,None,,,,,,,,,,,,,,,,,,,,,,,,,,,,,,,,,,,steam,21,99,sing,blue,1421.4489108007401,None,None,1421.4489108007401,None,,,,,,,,,,,,,,,,,,,,,,,,,,,,,,35,001,2023_Apr_12_0944,ExactRep-v3-final,2021.2.3,59.93752126612007,
,,,,,,,,99,0,99,0,,,,,,,,,,,,,,,,,,,,,,,,,,,,,,,,,,,,,,,,,,,,,,,,,,,,,1425.9639186002314,None,,,,,,,,,,,,,,,,,,,,,,,,,,,,,,,,,,,kiss,118,100,aloud,white,1423.9619682999328,None,None,1423.9619682999328,None,,,,,,,,,,,,,,,,,,,,,,,,,,,,,,35,001,2023_Apr_12_0944,ExactRep-v3-final,2021.2.3,59.93752126612007,
,,,,,,,,100,0,100,0,,,,,,,,,,,,,,,,,,,,,,,,,,,,,,,,,,,,,,,,,,,,,,,,,,,,,1428.4831369007006,None,,,,,,,,,,,,,,,,,,,,,,,,,,,,,,,,,,,officer,78,101,silent,red,1426.474800400436,None,None,1426.474800400436,None,,,,,,,,,,,,,,,,,,,,,,,,,,,,,,35,001,2023_Apr_12_0944,ExactRep-v3-final,2021.2.3,59.93752126612007,
,,,,,,,,101,0,101,0,,,,,,,,,,,,,,,,,,,,,,,,,,,,,,,,,,,,,,,,,,,,,,,,,,,,,1431.0025163004175,None,,,,,,,,,,,,,,,,,,,,,,,,,,,,,,,,,,,winter,76,102,silent,red,1428.9909584000707,None,None,1428.9909584000707,None,,,,,,,,,,,,,,,,,,,,,,,,,,,,,,35,001,2023_Apr_12_0944,ExactRep-v3-final,2021.2.3,59.93752126612007,
,,,,,,,,102,0,102,0,,,,,,,,,,,,,,,,,,,,,,,,,,,,,,,,,,,,,,,,,,,,,,,,,,,,,1433.5214560003951,None,,,,,,,,,,,,,,,,,,,,,,,,,,,,,,,,,,,origin,100,103,aloud,white,1431.5123469000682,None,None,1431.5123469000682,None,,,,,,,,,,,,,,,,,,,,,,,,,,,,,,35,001,2023_Apr_12_0944,ExactRep-v3-final,2021.2.3,59.93752126612007,
,,,,,,,,103,0,103,0,,,,,,,,,,,,,,,,,,,,,,,,,,,,,,,,,,,,,,,,,,,,,,,,,,,,,1436.0241757007316,None,,,,,,,,,,,,,,,,,,,,,,,,,,,,,,,,,,,hour,29,104,sing,blue,1434.0219749007374,None,None,1434.0219749007374,None,,,,,,,,,,,,,,,,,,,,,,,,,,,,,,35,001,2023_Apr_12_0944,ExactRep-v3-final,2021.2.3,59.93752126612007,
,,,,,,,,104,0,104,0,,,,,,,,,,,,,,,,,,,,,,,,,,,,,,,,,,,,,,,,,,,,,,,,,,,,,1438.5432942006737,None,,,,,,,,,,,,,,,,,,,,,,,,,,,,,,,,,,,fire,45,105,silent,red,1436.5292725004256,None,None,1436.5292725004256,None,,,,,,,,,,,,,,,,,,,,,,,,,,,,,,35,001,2023_Apr_12_0944,ExactRep-v3-final,2021.2.3,59.93752126612007,
,,,,,,,,105,0,105,0,,,,,,,,,,,,,,,,,,,,,,,,,,,,,,,,,,,,,,,,,,,,,,,,,,,,,1441.0457224007696,None,,,,,,,,,,,,,,,,,,,,,,,,,,,,,,,,,,,window,0,106,sing,blue,1439.0450412007049,None,None,1439.0450412007049,None,,,,,,,,,,,,,,,,,,,,,,,,,,,,,,35,001,2023_Apr_12_0944,ExactRep-v3-final,2021.2.3,59.93752126612007,
,,,,,,,,106,0,106,0,,,,,,,,,,,,,,,,,,,,,,,,,,,,,,,,,,,,,,,,,,,,,,,,,,,,,1443.5483485003933,None,,,,,,,,,,,,,,,,,,,,,,,,,,,,,,,,,,,grief,92,107,aloud,white,1441.5479077007622,None,None,1441.5479077007622,None,,,,,,,,,,,,,,,,,,,,,,,,,,,,,,35,001,2023_Apr_12_0944,ExactRep-v3-final,2021.2.3,59.93752126612007,
,,,,,,,,107,0,107,0,,,,,,,,,,,,,,,,,,,,,,,,,,,,,,,,,,,,,,,,,,,,,,,,,,,,,1446.0675971005112,None,,,,,,,,,,,,,,,,,,,,,,,,,,,,,,,,,,,paper,104,108,aloud,white,1444.052986100316,None,None,1444.052986100316,None,,,,,,,,,,,,,,,,,,,,,,,,,,,,,,35,001,2023_Apr_12_0944,ExactRep-v3-final,2021.2.3,59.93752126612007,
,,,,,,,,108,0,108,0,,,,,,,,,,,,,,,,,,,,,,,,,,,,,,,,,,,,,,,,,,,,,,,,,,,,,1448.5699271000922,None,,,,,,,,,,,,,,,,,,,,,,,,,,,,,,,,,,,flag,60,109,silent,red,1446.5695181004703,None,None,1446.5695181004703,None,,,,,,,,,,,,,,,,,,,,,,,,,,,,,,35,001,2023_Apr_12_0944,ExactRep-v3-final,2021.2.3,59.93752126612007,
,,,,,,,,109,0,109,0,,,,,,,,,,,,,,,,,,,,,,,,,,,,,,,,,,,,,,,,,,,,,,,,,,,,,1451.0892935004085,None,,,,,,,,,,,,,,,,,,,,,,,,,,,,,,,,,,,cat,23,110,sing,blue,1449.07823690027,None,None,1449.07823690027,None,,,,,,,,,,,,,,,,,,,,,,,,,,,,,,35,001,2023_Apr_12_0944,ExactRep-v3-final,2021.2.3,59.93752126612007,
,,,,,,,,110,0,110,0,,,,,,,,,,,,,,,,,,,,,,,,,,,,,,,,,,,,,,,,,,,,,,,,,,,,,1453.591530000791,None,,,,,,,,,,,,,,,,,,,,,,,,,,,,,,,,,,,truth,54,111,silent,red,1451.5897088004276,None,None,1451.5897088004276,None,,,,,,,,,,,,,,,,,,,,,,,,,,,,,,35,001,2023_Apr_12_0944,ExactRep-v3-final,2021.2.3,59.93752126612007,
,,,,,,,,111,0,111,0,,,,,,,,,,,,,,,,,,,,,,,,,,,,,,,,,,,,,,,,,,,,,,,,,,,,,1456.0943164005876,None,,,,,,,,,,,,,,,,,,,,,,,,,,,,,,,,,,,pupil,44,112,silent,red,1454.0931343007833,None,None,1454.0931343007833,None,,,,,,,,,,,,,,,,,,,,,,,,,,,,,,35,001,2023_Apr_12_0944,ExactRep-v3-final,2021.2.3,59.93752126612007,
,,,,,,,,112,0,112,0,,,,,,,,,,,,,,,,,,,,,,,,,,,,,,,,,,,,,,,,,,,,,,,,,,,,,1458.5965712005273,None,,,,,,,,,,,,,,,,,,,,,,,,,,,,,,,,,,,boulder,14,113,sing,blue,1456.596515700221,None,None,1456.596515700221,None,,,,,,,,,,,,,,,,,,,,,,,,,,,,,,35,001,2023_Apr_12_0944,ExactRep-v3-final,2021.2.3,59.93752126612007,
,,,,,,,,113,0,113,0,,,,,,,,,,,,,,,,,,,,,,,,,,,,,,,,,,,,,,,,,,,,,,,,,,,,,1461.1159316003323,None,,,,,,,,,,,,,,,,,,,,,,,,,,,,,,,,,,,pole,77,114,silent,red,1459.1017051003873,None,None,1459.1017051003873,None,,,,,,,,,,,,,,,,,,,,,,,,,,,,,,35,001,2023_Apr_12_0944,ExactRep-v3-final,2021.2.3,59.93752126612007,
,,,,,,,,114,0,114,0,,,,,,,,,,,,,,,,,,,,,,,,,,,,,,,,,,,,,,,,,,,,,,,,,,,,,1463.6350056007504,None,,,,,,,,,,,,,,,,,,,,,,,,,,,,,,,,,,,board,59,115,silent,red,1461.622258500196,None,None,1461.622258500196,None,,,,,,,,,,,,,,,,,,,,,,,,,,,,,,35,001,2023_Apr_12_0944,ExactRep-v3-final,2021.2.3,59.93752126612007,
,,,,,,,,115,0,115,0,,,,,,,,,,,,,,,,,,,,,,,,,,,,,,,,,,,,,,,,,,,,,,,,,,,,,1466.1373908007517,None,,,,,,,,,,,,,,,,,,,,,,,,,,,,,,,,,,,maiden,64,116,silent,red,1464.1354698007926,None,None,1464.1354698007926,None,,,,,,,,,,,,,,,,,,,,,,,,,,,,,,35,001,2023_Apr_12_0944,ExactRep-v3-final,2021.2.3,59.93752126612007,
,,,,,,,,116,0,116,0,,,,,,,,,,,,,,,,,,,,,,,,,,,,,,,,,,,,,,,,,,,,,,,,,,,,,1468.6567926006392,None,,,,,,,,,,,,,,,,,,,,,,,,,,,,,,,,,,,sugar,2,117,sing,blue,1466.6475568003953,None,None,1466.6475568003953,None,,,,,,,,,,,,,,,,,,,,,,,,,,,,,,35,001,2023_Apr_12_0944,ExactRep-v3-final,2021.2.3,59.93752126612007,
,,,,,,,,117,0,117,0,,,,,,,,,,,,,,,,,,,,,,,,,,,,,,,,,,,,,,,,,,,,,,,,,,,,,1471.1593139003962,None,,,,,,,,,,,,,,,,,,,,,,,,,,,,,,,,,,,cost,31,118,sing,blue,1469.157290900126,None,None,1469.157290900126,None,,,,,,,,,,,,,,,,,,,,,,,,,,,,,,35,001,2023_Apr_12_0944,ExactRep-v3-final,2021.2.3,59.93752126612007,
,,,,,,,,118,0,118,0,,,,,,,,,,,,,,,,,,,,,,,,,,,,,,,,,,,,,,,,,,,,,,,,,,,,,1473.6619383003563,None,,,,,,,,,,,,,,,,,,,,,,,,,,,,,,,,,,,car,91,119,aloud,white,1471.6618194999173,None,None,1471.6618194999173,None,,,,,,,,,,,,,,,,,,,,,,,,,,,,,,35,001,2023_Apr_12_0944,ExactRep-v3-final,2021.2.3,59.93752126612007,
,,,,,,,,119,0,119,0,,,,,,,,,,,,,,,,,,,,,,,,,,,,,,,,,,,,,,,,,,,,,,,,,,,,,1476.1643205005676,None,,,,,,,,,,,,,,,,,,,,,,,,,,,,,,,,,,,dream,53,120,silent,red,1474.1647888002917,None,None,1474.1647888002917,None,,,,,,,,,,,,,,,,,,,,,,,,,,,,,,35,001,2023_Apr_12_0944,ExactRep-v3-final,2021.2.3,59.93752126612007,
,,,,,,,,,,,,,,,,,,,,,,,,,,,,,,,,,,,,,,,,,,,,,,,,,,,,,,,,,,,,,,,,,,,,,,,,,,,,,,,,,,,,,,,,,,,,,,,,,,,,,,,,,,,,,,1476.6662929002196,None,space,15.19020690023899,1486.6427695006132,None,,,,,,,,,,,,,,,,,,,,,,,,35,001,2023_Apr_12_0944,ExactRep-v3-final,2021.2.3,59.93752126612007,
,,,,,,,,,,,,,,,,,,,,,,,,,,,,,,,,,,,,,,,,,,,,,,,,,,,,,,,,,,,,,,,,,,,,,,,,,,,,,,,,,,,,,,,,,,,,,,,,,,,,,,,,,,,,,,,,,,,,1501.858327000402,None,space,31.702116100117564,1511.834788300097,None,,,,,,,,,,,,,,,,,,35,001,2023_Apr_12_0944,ExactRep-v3-final,2021.2.3,59.93752126612007,
,,,,,,,,,,,,0,0,0,0,,,,,,,,,,,,,,,,,,,,,,,,,,,,,,,,,,,,,,,,,,,,,,,,,1558.798128399998,None,,,,,,,,,,,,,,,,,,,,,,,,,,,,,,,,,,,,,,,,,,,,,,,,,,,,,,,,,leader,95,1,aloud,old,yellow,1544.0779303004965,None,y,1544.0779303004965,None,"['y', 'return']","[1.7787987999618053, 14.682928399182856]",1544.0779303004965,None,,,35,001,2023_Apr_12_0944,ExactRep-v3-final,2021.2.3,59.93752126612007,
,,,,,,,,,,,,1,0,1,0,,,,,,,,,,,,,,,,,,,,,,,,,,,,,,,,,,,,,,,,,,,,,,,,,1561.7176961004734,None,,,,,,,,,,,,,,,,,,,,,,,,,,,,,,,,,,,,,,,,,,,,,,,,,,,,,,,,,pole,77,2,silent,old,yellow,1559.310191700235,None,y,1559.310191700235,None,"['y', 'return']","[1.4827535999938846, 2.362621200270951]",1559.310191700235,None,,,35,001,2023_Apr_12_0944,ExactRep-v3-final,2021.2.3,59.93752126612007,
,,,,,,,,,,,,2,0,2,0,,,,,,,,,,,,,,,,,,,,,,,,,,,,,,,,,,,,,,,,,,,,,,,,,1563.7030922006816,None,,,,,,,,,,,,,,,,,,,,,,,,,,,,,,,,,,,,,,,,,,,,,,,,,,,,,,,,,sky,6,3,sing,old,yellow,1562.2299778005108,None,y,1562.2299778005108,None,"['y', 'return']","[0.9627143992111087, 1.4268423998728395]",1562.2299778005108,None,,,35,001,2023_Apr_12_0944,ExactRep-v3-final,2021.2.3,59.93752126612007,
,,,,,,,,,,,,3,0,3,0,,,,,,,,,,,,,,,,,,,,,,,,,,,,,,,,,,,,,,,,,,,,,,,,,1565.7717708004639,None,,,,,,,,,,,,,,,,,,,,,,,,,,,,,,,,,,,,,,,,,,,,,,,,,,,,,,,,,chance,17,4,sing,old,yellow,1564.2153866002336,None,n,1564.2153866002336,None,"['n', 'return']","[1.1377652995288372, 1.5213770996779203]",1564.2153866002336,None,,,35,001,2023_Apr_12_0944,ExactRep-v3-final,2021.2.3,59.93752126612007,
,,,,,,,,,,,,4,0,4,0,,,,,,,,,,,,,,,,,,,,,,,,,,,,,,,,,,,,,,,,,,,,,,,,,1567.6237107999623,None,,,,,,,,,,,,,,,,,,,,,,,,,,,,,,,,,,,,,,,,,,,,,,,,,,,,,,,,,paper,104,5,aloud,old,yellow,1566.2794878007844,None,y,1566.2794878007844,None,"['y', 'return']","[0.9053670996800065, 1.305379300378263]",1566.2794878007844,None,,,35,001,2023_Apr_12_0944,ExactRep-v3-final,2021.2.3,59.93752126612007,
,,,,,,,,,,,,5,0,5,0,,,,,,,,,,,,,,,,,,,,,,,,,,,,,,,,,,,,,,,,,,,,,,,,,1569.2086898004636,None,,,,,,,,,,,,,,,,,,,,,,,,,,,,,,,,,,,,,,,,,,,,,,,,,,,,,,,,,city,24,6,sing,old,yellow,1568.131242500618,None,y,1568.131242500618,None,"['y', 'return']","[0.6535865003243089, 1.045661799609661]",1568.131242500618,None,,,35,001,2023_Apr_12_0944,ExactRep-v3-final,2021.2.3,59.93752126612007,
,,,,,,,,,,,,6,0,6,0,,,,,,,,,,,,,,,,,,,,,,,,,,,,,,,,,,,,,,,,,,,,,,,,,1570.9603495001793,None,,,,,,,,,,,,,,,,,,,,,,,,,,,,,,,,,,,,,,,,,,,,,,,,,,,,,,,,,diamond,209,7,sing,new,yellow,1569.7165224002674,None,n,1569.7165224002674,None,"['n', 'return']","[0.8122894996777177, 1.196277399547398]",1569.7165224002674,None,,,35,001,2023_Apr_12_0944,ExactRep-v3-final,2021.2.3,59.93752126612007,
,,,,,,,,,,,,7,0,7,0,,,,,,,,,,,,,,,,,,,,,,,,,,,,,,,,,,,,,,,,,,,,,,,,,1573.0458863005042,None,,,,,,,,,,,,,,,,,,,,,,,,,,,,,,,,,,,,,,,,,,,,,,,,,,,,,,,,,hour,29,8,sing,old,yellow,1571.4669691007584,None,y,1571.4669691007584,None,"['y', 'return']","[1.1578909000381827, 1.5419137999415398]",1571.4669691007584,None,,,35,001,2023_Apr_12_0944,ExactRep-v3-final,2021.2.3,59.93752126612007,
,,,,,,,,,,,,8,0,8,0,,,,,,,,,,,,,,,,,,,,,,,,,,,,,,,,,,,,,,,,,,,,,,,,,1575.0644801007584,None,,,,,,,,,,,,,,,,,,,,,,,,,,,,,,,,,,,,,,,,,,,,,,,,,,,,,,,,,colony,204,9,aloud,new,yellow,1573.5602775001898,None,n,1573.5602775001898,None,"['n', 'return']","[1.080549999140203, 1.4645493999123573]",1573.5602775001898,None,,,35,001,2023_Apr_12_0944,ExactRep-v3-final,2021.2.3,59.93752126612007,
,,,,,,,,,,,,9,0,9,0,,,,,,,,,,,,,,,,,,,,,,,,,,,,,,,,,,,,,,,,,,,,,,,,,1576.6659700004384,None,,,,,,,,,,,,,,,,,,,,,,,,,,,,,,,,,,,,,,,,,,,,,,,,,,,,,,,,,cottage,103,10,aloud,old,yellow,1575.5791218001395,None,y,1575.5791218001395,None,"['y', 'return']","[0.6457235999405384, 1.0457107992842793]",1575.5791218001395,None,,,35,001,2023_Apr_12_0944,ExactRep-v3-final,2021.2.3,59.93752126612007,
,,,,,,,,,,,,10,0,10,0,,,,,,,,,,,,,,,,,,,,,,,,,,,,,,,,,,,,,,,,,,,,,,,,,1578.3511212002486,None,,,,,,,,,,,,,,,,,,,,,,,,,,,,,,,,,,,,,,,,,,,,,,,,,,,,,,,,,avenue,222,11,aloud,new,yellow,1577.1894930005074,None,n,1577.1894930005074,None,"['n', 'return']","[0.7396279005333781, 1.115331799723208]",1577.1894930005074,None,,,35,001,2023_Apr_12_0944,ExactRep-v3-final,2021.2.3,59.93752126612007,
,,,,,,,,,,,,11,0,11,0,,,,,,,,,,,,,,,,,,,,,,,,,,,,,,,,,,,,,,,,,,,,,,,,,1580.0363055001944,None,,,,,,,,,,,,,,,,,,,,,,,,,,,,,,,,,,,,,,,,,,,,,,,,,,,,,,,,,slave,148,12,silent,new,yellow,1578.8630389003083,None,n,1578.8630389003083,None,"['n', 'return']","[0.7540087997913361, 1.1297180000692606]",1578.8630389003083,None,,,35,001,2023_Apr_12_0944,ExactRep-v3-final,2021.2.3,59.93752126612007,
,,,,,,,,,,,,12,0,12,0,,,,,,,,,,,,,,,,,,,,,,,,,,,,,,,,,,,,,,,,,,,,,,,,,1581.8379757003859,None,,,,,,,,,,,,,,,,,,,,,,,,,,,,,,,,,,,,,,,,,,,,,,,,,,,,,,,,,corner,127,13,silent,new,yellow,1580.5457364004105,None,y,1580.5457364004105,None,"['y', 'return']","[0.9112740000709891, 1.247155399993062]",1580.5457364004105,None,,,35,001,2023_Apr_12_0944,ExactRep-v3-final,2021.2.3,59.93752126612007,
,,,,,,,,,,,,13,0,13,0,,,,,,,,,,,,,,,,,,,,,,,,,,,,,,,,,,,,,,,,,,,,,,,,,1583.4728819001466,None,,,,,,,,,,,,,,,,,,,,,,,,,,,,,,,,,,,,,,,,,,,,,,,,,,,,,,,,,camp,143,14,silent,new,yellow,1582.3522823005915,None,n,1582.3522823005915,None,"['n', 'return']","[0.7045865003019571, 1.0805426007136703]",1582.3522823005915,None,,,35,001,2023_Apr_12_0944,ExactRep-v3-final,2021.2.3,59.93752126612007,
,,,,,,,,,,,,14,0,14,0,,,,,,,,,,,,,,,,,,,,,,,,,,,,,,,,,,,,,,,,,,,,,,,,,1585.6416911007836,None,,,,,,,,,,,,,,,,,,,,,,,,,,,,,,,,,,,,,,,,,,,,,,,,,,,,,,,,,cattle,179,15,sing,new,yellow,1583.9829373005778,None,n,1583.9829373005778,None,"['n', 'return']","[1.0658600004389882, 1.617878700606525]",1583.9829373005778,None,,,35,001,2023_Apr_12_0944,ExactRep-v3-final,2021.2.3,59.93752126612007,
,,,,,,,,,,,,15,0,15,0,,,,,,,,,,,,,,,,,,,,,,,,,,,,,,,,,,,,,,,,,,,,,,,,,1587.7102442001924,None,,,,,,,,,,,,,,,,,,,,,,,,,,,,,,,,,,,,,,,,,,,,,,,,,,,,,,,,,meat,97,16,aloud,old,yellow,1586.156955000013,None,y,1586.156955000013,None,"['y', 'return']","[1.0357772996649146, 1.5078338999301195]",1586.156955000013,None,,,35,001,2023_Apr_12_0944,ExactRep-v3-final,2021.2.3,59.93752126612007,
,,,,,,,,,,,,16,0,16,0,,,,,,,,,,,,,,,,,,,,,,,,,,,,,,,,,,,,,,,,,,,,,,,,,1590.8469752008095,None,,,,,,,,,,,,,,,,,,,,,,,,,,,,,,,,,,,,,,,,,,,,,,,,,,,,,,,,,plant,205,17,sing,new,yellow,1588.2193065006286,None,n,1588.2193065006286,None,"['n', 'return']","[2.2613939996808767, 2.581423000432551]",1588.2193065006286,None,,,35,001,2023_Apr_12_0944,ExactRep-v3-final,2021.2.3,59.93752126612007,
,,,,,,,,,,,,17,0,17,0,,,,,,,,,,,,,,,,,,,,,,,,,,,,,,,,,,,,,,,,,,,,,,,,,1592.7654828000814,None,,,,,,,,,,,,,,,,,,,,,,,,,,,,,,,,,,,,,,,,,,,,,,,,,,,,,,,,,shoes,226,18,aloud,new,yellow,1591.3547670003027,None,n,1591.3547670003027,None,"['n', 'return']","[0.9581920001655817, 1.3659955002367496]",1591.3547670003027,None,,,35,001,2023_Apr_12_0944,ExactRep-v3-final,2021.2.3,59.93752126612007,
,,,,,,,,,,,,18,0,18,0,,,,,,,,,,,,,,,,,,,,,,,,,,,,,,,,,,,,,,,,,,,,,,,,,1594.6174782002345,None,,,,,,,,,,,,,,,,,,,,,,,,,,,,,,,,,,,,,,,,,,,,,,,,,,,,,,,,,street,63,19,silent,old,yellow,1593.2755558006465,None,y,1593.2755558006465,None,"['y', 'return']","[0.9334951005876064, 1.309269499965012]",1593.2755558006465,None,,,35,001,2023_Apr_12_0944,ExactRep-v3-final,2021.2.3,59.93752126612007,
,,,,,,,,,,,,19,0,19,0,,,,,,,,,,,,,,,,,,,,,,,,,,,,,,,,,,,,,,,,,,,,,,,,,1596.3858847999945,None,,,,,,,,,,,,,,,,,,,,,,,,,,,,,,,,,,,,,,,,,,,,,,,,,,,,,,,,,palace,219,20,sing,new,yellow,1595.1274850005284,None,n,1595.1274850005284,None,"['n', 'return']","[0.8174240998923779, 1.2174176992848516]",1595.1274850005284,None,,,35,001,2023_Apr_12_0944,ExactRep-v3-final,2021.2.3,59.93752126612007,
,,,,,,,,,,,,20,0,20,0,,,,,,,,,,,,,,,,,,,,,,,,,,,,,,,,,,,,,,,,,,,,,,,,,1598.9813818000257,None,,,,,,,,,,,,,,,,,,,,,,,,,,,,,,,,,,,,,,,,,,,,,,,,,,,,,,,,,bird,134,21,silent,new,yellow,1596.8973135007545,None,n,1596.8973135007545,None,"['return', 'n', 'return']","[0.8075823001563549, 1.6875019995495677, 2.0314053995534778]",1596.8973135007545,None,,,35,001,2023_Apr_12_0944,ExactRep-v3-final,2021.2.3,59.93752126612007,
,,,,,,,,,,,,21,0,21,0,,,,,,,,,,,,,,,,,,,,,,,,,,,,,,,,,,,,,,,,,,,,,,,,,1600.5734518002719,None,,,,,,,,,,,,,,,,,,,,,,,,,,,,,,,,,,,,,,,,,,,,,,,,,,,,,,,,,devil,13,22,sing,old,yellow,1599.488800600171,None,y,1599.488800600171,None,"['y', 'return']","[0.6639337996020913, 1.0481883995234966]",1599.488800600171,None,,,35,001,2023_Apr_12_0944,ExactRep-v3-final,2021.2.3,59.93752126612007,
,,,,,,,,,,,,22,0,22,0,,,,,,,,,,,,,,,,,,,,,,,,,,,,,,,,,,,,,,,,,,,,,,,,,1602.3416848005727,None,,,,,,,,,,,,,,,,,,,,,,,,,,,,,,,,,,,,,,,,,,,,,,,,,,,,,,,,,wheat,126,23,silent,new,yellow,1601.0811213003471,None,n,1601.0811213003471,None,"['n', 'return']","[0.807731400243938, 1.223638099618256]",1601.0811213003471,None,,,35,001,2023_Apr_12_0944,ExactRep-v3-final,2021.2.3,59.93752126612007,
,,,,,,,,,,,,23,0,23,0,,,,,,,,,,,,,,,,,,,,,,,,,,,,,,,,,,,,,,,,,,,,,,,,,1604.6106581008062,None,,,,,,,,,,,,,,,,,,,,,,,,,,,,,,,,,,,,,,,,,,,,,,,,,,,,,,,,,doctor,67,24,silent,old,yellow,1602.848515700549,None,y,1602.848515700549,None,"['y', 'return']","[1.3842342998832464, 1.7283578999340534]",1602.848515700549,None,,,35,001,2023_Apr_12_0944,ExactRep-v3-final,2021.2.3,59.93752126612007,
,,,,,,,,,,,,24,0,24,0,,,,,,,,,,,,,,,,,,,,,,,,,,,,,,,,,,,,,,,,,,,,,,,,,1606.3123603006825,None,,,,,,,,,,,,,,,,,,,,,,,,,,,,,,,,,,,,,,,,,,,,,,,,,,,,,,,,,market,172,25,aloud,new,yellow,1605.115616899915,None,n,1605.115616899915,None,"['n', 'return']","[0.7492078999057412, 1.1651414996013045]",1605.115616899915,None,,,35,001,2023_Apr_12_0944,ExactRep-v3-final,2021.2.3,59.93752126612007,
,,,,,,,,,,,,25,0,25,0,,,,,,,,,,,,,,,,,,,,,,,,,,,,,,,,,,,,,,,,,,,,,,,,,1608.9651458999142,None,,,,,,,,,,,,,,,,,,,,,,,,,,,,,,,,,,,,,,,,,,,,,,,,,,,,,,,,,winter,76,26,silent,old,yellow,1606.8222475005314,None,n,1606.8222475005314,None,"['n', 'return']","[1.666741100139916, 2.09851280041039]",1606.8222475005314,None,,,35,001,2023_Apr_12_0944,ExactRep-v3-final,2021.2.3,59.93752126612007,
,,,,,,,,,,,,26,0,26,0,,,,,,,,,,,,,,,,,,,,,,,,,,,,,,,,,,,,,,,,,,,,,,,,,1610.800154200755,None,,,,,,,,,,,,,,,,,,,,,,,,,,,,,,,,,,,,,,,,,,,,,,,,,,,,,,,,,dust,87,27,aloud,old,yellow,1609.4741980005056,None,y,1609.4741980005056,None,"['y', 'return']","[0.8705735001713037, 1.2787672001868486]",1609.4741980005056,None,,,35,001,2023_Apr_12_0944,ExactRep-v3-final,2021.2.3,59.93752126612007,
,,,,,,,,,,,,27,0,27,0,,,,,,,,,,,,,,,,,,,,,,,,,,,,,,,,,,,,,,,,,,,,,,,,,1612.5022152001038,None,,,,,,,,,,,,,,,,,,,,,,,,,,,,,,,,,,,,,,,,,,,,,,,,,,,,,,,,,fault,9,28,sing,old,yellow,1611.3058231007308,None,n,1611.3058231007308,None,"['n', 'return']","[0.7349923998117447, 1.1589337000623345]",1611.3058231007308,None,,,35,001,2023_Apr_12_0944,ExactRep-v3-final,2021.2.3,59.93752126612007,
,,,,,,,,,,,,28,0,28,0,,,,,,,,,,,,,,,,,,,,,,,,,,,,,,,,,,,,,,,,,,,,,,,,,1614.2714924002066,None,,,,,,,,,,,,,,,,,,,,,,,,,,,,,,,,,,,,,,,,,,,,,,,,,,,,,,,,,quality,180,29,aloud,new,yellow,1613.007707200013,None,n,1613.007707200013,None,"['n', 'return']","[0.8414296004921198, 1.2251195004209876]",1613.007707200013,None,,,35,001,2023_Apr_12_0944,ExactRep-v3-final,2021.2.3,59.93752126612007,
,,,,,,,,,,,,29,0,29,0,,,,,,,,,,,,,,,,,,,,,,,,,,,,,,,,,,,,,,,,,,,,,,,,,1616.5228361999616,None,,,,,,,,,,,,,,,,,,,,,,,,,,,,,,,,,,,,,,,,,,,,,,,,,,,,,,,,,party,22,30,sing,old,yellow,1614.7889959001914,None,y,1614.7889959001914,None,"['y', 'return']","[1.315951899625361, 1.6997766001150012]",1614.7889959001914,None,,,35,001,2023_Apr_12_0944,ExactRep-v3-final,2021.2.3,59.93752126612007,
,,,,,,,,,,,,30,0,30,0,,,,,,,,,,,,,,,,,,,,,,,,,,,,,,,,,,,,,,,,,,,,,,,,,1618.1575243007392,None,,,,,,,,,,,,,,,,,,,,,,,,,,,,,,,,,,,,,,,,,,,,,,,,,,,,,,,,,dress,197,31,sing,new,yellow,1617.0285876002163,None,n,1617.0285876002163,None,"['n', 'return']","[0.6841751001775265, 1.0922290002927184]",1617.0285876002163,None,,,35,001,2023_Apr_12_0944,ExactRep-v3-final,2021.2.3,59.93752126612007,
,,,,,,,,,,,,31,0,31,0,,,,,,,,,,,,,,,,,,,,,,,,,,,,,,,,,,,,,,,,,,,,,,,,,1619.9593715006486,None,,,,,,,,,,,,,,,,,,,,,,,,,,,,,,,,,,,,,,,,,,,,,,,,,,,,,,,,,brain,73,32,silent,old,yellow,1618.6703318003565,None,y,1618.6703318003565,None,"['y', 'return']","[0.8346449993550777, 1.25058569945395]",1618.6703318003565,None,,,35,001,2023_Apr_12_0944,ExactRep-v3-final,2021.2.3,59.93752126612007,
,,,,,,,,,,,,32,0,32,0,,,,,,,,,,,,,,,,,,,,,,,,,,,,,,,,,,,,,,,,,,,,,,,,,1621.7443794999272,None,,,,,,,,,,,,,,,,,,,,,,,,,,,,,,,,,,,,,,,,,,,,,,,,,,,,,,,,,steam,21,33,sing,old,yellow,1620.4639794006944,None,y,1620.4639794006944,None,"['y', 'return']","[0.7850833004340529, 1.2410396998748183]",1620.4639794006944,None,,,35,001,2023_Apr_12_0944,ExactRep-v3-final,2021.2.3,59.93752126612007,
,,,,,,,,,,,,33,0,33,0,,,,,,,,,,,,,,,,,,,,,,,,,,,,,,,,,,,,,,,,,,,,,,,,,1623.6463986001909,None,,,,,,,,,,,,,,,,,,,,,,,,,,,,,,,,,,,,,,,,,,,,,,,,,,,,,,,,,dawn,93,34,aloud,old,yellow,1622.2451051007956,None,y,1622.2451051007956,None,"['y', 'return']","[0.9396796999499202, 1.3557687001302838]",1622.2451051007956,None,,,35,001,2023_Apr_12_0944,ExactRep-v3-final,2021.2.3,59.93752126612007,
,,,,,,,,,,,,34,0,34,0,,,,,,,,,,,,,,,,,,,,,,,,,,,,,,,,,,,,,,,,,,,,,,,,,1625.3481951002032,None,,,,,,,,,,,,,,,,,,,,,,,,,,,,,,,,,,,,,,,,,,,,,,,,,,,,,,,,,safety,56,35,silent,old,yellow,1624.1529395999387,None,y,1624.1529395999387,None,"['y', 'return']","[0.7757871998474002, 1.160087900236249]",1624.1529395999387,None,,,35,001,2023_Apr_12_0944,ExactRep-v3-final,2021.2.3,59.93752126612007,
,,,,,,,,,,,,35,0,35,0,,,,,,,,,,,,,,,,,,,,,,,,,,,,,,,,,,,,,,,,,,,,,,,,,1627.1999989999458,None,,,,,,,,,,,,,,,,,,,,,,,,,,,,,,,,,,,,,,,,,,,,,,,,,,,,,,,,,earth,142,36,silent,new,yellow,1625.8661083001643,None,n,1625.8661083001643,None,"['n', 'return']","[0.8708064993843436, 1.286931399255991]",1625.8661083001643,None,,,35,001,2023_Apr_12_0944,ExactRep-v3-final,2021.2.3,59.93752126612007,
,,,,,,,,,,,,36,0,36,0,,,,,,,,,,,,,,,,,,,,,,,,,,,,,,,,,,,,,,,,,,,,,,,,,1628.968539800495,None,,,,,,,,,,,,,,,,,,,,,,,,,,,,,,,,,,,,,,,,,,,,,,,,,,,,,,,,,author,58,37,silent,old,yellow,1627.700560300611,None,n,1627.700560300611,None,"['n', 'return']","[0.8763389997184277, 1.2282033003866673]",1627.700560300611,None,,,35,001,2023_Apr_12_0944,ExactRep-v3-final,2021.2.3,59.93752126612007,
,,,,,,,,,,,,37,0,37,0,,,,,,,,,,,,,,,,,,,,,,,,,,,,,,,,,,,,,,,,,,,,,,,,,1630.753500699997,None,,,,,,,,,,,,,,,,,,,,,,,,,,,,,,,,,,,,,,,,,,,,,,,,,,,,,,,,,metal,19,38,sing,old,yellow,1629.4753018002957,None,y,1629.4753018002957,None,"['y', 'return']","[0.8375279000028968, 1.245499199256301]",1629.4753018002957,None,,,35,001,2023_Apr_12_0944,ExactRep-v3-final,2021.2.3,59.93752126612007,
,,,,,,,,,,,,38,0,38,0,,,,,,,,,,,,,,,,,,,,,,,,,,,,,,,,,,,,,,,,,,,,,,,,,1632.4884228007868,None,,,,,,,,,,,,,,,,,,,,,,,,,,,,,,,,,,,,,,,,,,,,,,,,,,,,,,,,,soul,201,39,sing,new,yellow,1631.2607658002526,None,n,1631.2607658002526,None,"['n', 'return']","[0.8522030999884009, 1.188010299578309]",1631.2607658002526,None,,,35,001,2023_Apr_12_0944,ExactRep-v3-final,2021.2.3,59.93752126612007,
,,,,,,,,,,,,39,0,39,0,,,,,,,,,,,,,,,,,,,,,,,,,,,,,,,,,,,,,,,,,,,,,,,,,1634.307053600438,None,,,,,,,,,,,,,,,,,,,,,,,,,,,,,,,,,,,,,,,,,,,,,,,,,,,,,,,,,judge,160,40,aloud,new,yellow,1632.9888794003054,None,n,1632.9888794003054,None,"['n', 'return']","[0.9161329008638859, 1.283911100588739]",1632.9888794003054,None,,,35,001,2023_Apr_12_0944,ExactRep-v3-final,2021.2.3,59.93752126612007,
,,,,,,,,,,,,40,0,40,0,,,,,,,,,,,,,,,,,,,,,,,,,,,,,,,,,,,,,,,,,,,,,,,,,1636.1421595001593,None,,,,,,,,,,,,,,,,,,,,,,,,,,,,,,,,,,,,,,,,,,,,,,,,,,,,,,,,,artist,150,41,silent,new,yellow,1634.8197973007336,None,n,1634.8197973007336,None,"['n', 'return']","[0.9729311000555754, 1.2851307997480035]",1634.8197973007336,None,,,35,001,2023_Apr_12_0944,ExactRep-v3-final,2021.2.3,59.93752126612007,
,,,,,,,,,,,,41,0,41,0,,,,,,,,,,,,,,,,,,,,,,,,,,,,,,,,,,,,,,,,,,,,,,,,,1637.9441245002672,None,,,,,,,,,,,,,,,,,,,,,,,,,,,,,,,,,,,,,,,,,,,,,,,,,,,,,,,,,prayer,96,42,aloud,old,yellow,1636.6510142004117,None,y,1636.6510142004117,None,"['y', 'return']","[0.8137472998350859, 1.2538528004661202]",1636.6510142004117,None,,,35,001,2023_Apr_12_0944,ExactRep-v3-final,2021.2.3,59.93752126612007,
,,,,,,,,,,,,42,0,42,0,,,,,,,,,,,,,,,,,,,,,,,,,,,,,,,,,,,,,,,,,,,,,,,,,1639.8293267004192,None,,,,,,,,,,,,,,,,,,,,,,,,,,,,,,,,,,,,,,,,,,,,,,,,,,,,,,,,,skin,170,43,aloud,new,yellow,1638.4504261007532,None,y,1638.4504261007532,None,"['y', 'return']","[0.9586600000038743, 1.3424835000187159]",1638.4504261007532,None,,,35,001,2023_Apr_12_0944,ExactRep-v3-final,2021.2.3,59.93752126612007,
,,,,,,,,,,,,43,0,43,0,,,,,,,,,,,,,,,,,,,,,,,,,,,,,,,,,,,,,,,,,,,,,,,,,1641.8312035007402,None,,,,,,,,,,,,,,,,,,,,,,,,,,,,,,,,,,,,,,,,,,,,,,,,,,,,,,,,,teacher,27,44,sing,old,yellow,1640.3304497003555,None,y,1640.3304497003555,None,"['y', 'return']","[1.0384664004668593, 1.4624779000878334]",1640.3304497003555,None,,,35,001,2023_Apr_12_0944,ExactRep-v3-final,2021.2.3,59.93752126612007,
,,,,,,,,,,,,44,0,44,0,,,,,,,,,,,,,,,,,,,,,,,,,,,,,,,,,,,,,,,,,,,,,,,,,1644.0334903001785,None,,,,,,,,,,,,,,,,,,,,,,,,,,,,,,,,,,,,,,,,,,,,,,,,,,,,,,,,,heaven,84,45,aloud,old,yellow,1642.332156800665,None,y,1642.332156800665,None,"['return', 'y', 'return']","[0.24480339977890253, 1.1488006999716163, 1.6608173996210098]",1642.332156800665,None,,,35,001,2023_Apr_12_0944,ExactRep-v3-final,2021.2.3,59.93752126612007,
,,,,,,,,,,,,45,0,45,0,,,,,,,,,,,,,,,,,,,,,,,,,,,,,,,,,,,,,,,,,,,,,,,,,1645.9686930002645,None,,,,,,,,,,,,,,,,,,,,,,,,,,,,,,,,,,,,,,,,,,,,,,,,,,,,,,,,,crime,171,46,sing,new,yellow,1644.5458125006407,None,n,1644.5458125006407,None,"['n', 'return']","[0.9431175999343395, 1.3751261001452804]",1644.5458125006407,None,,,35,001,2023_Apr_12_0944,ExactRep-v3-final,2021.2.3,59.93752126612007,
,,,,,,,,,,,,46,0,46,0,,,,,,,,,,,,,,,,,,,,,,,,,,,,,,,,,,,,,,,,,,,,,,,,,1647.7371775005013,None,,,,,,,,,,,,,,,,,,,,,,,,,,,,,,,,,,,,,,,,,,,,,,,,,,,,,,,,,fur,40,47,silent,old,yellow,1646.47746380046,None,y,1646.47746380046,None,"['y', 'return']","[0.795464999973774, 1.2194328997284174]",1646.47746380046,None,,,35,001,2023_Apr_12_0944,ExactRep-v3-final,2021.2.3,59.93752126612007,
,,,,,,,,,,,,47,0,47,0,,,,,,,,,,,,,,,,,,,,,,,,,,,,,,,,,,,,,,,,,,,,,,,,,1649.639090500772,None,,,,,,,,,,,,,,,,,,,,,,,,,,,,,,,,,,,,,,,,,,,,,,,,,,,,,,,,,college,119,48,aloud,old,yellow,1648.2393440008163,None,y,1648.2393440008163,None,"['y', 'return']","[0.9374259002506733, 1.3614751007407904]",1648.2393440008163,None,,,35,001,2023_Apr_12_0944,ExactRep-v3-final,2021.2.3,59.93752126612007,
,,,,,,,,,,,,48,0,48,0,,,,,,,,,,,,,,,,,,,,,,,,,,,,,,,,,,,,,,,,,,,,,,,,,1651.6076811002567,None,,,,,,,,,,,,,,,,,,,,,,,,,,,,,,,,,,,,,,,,,,,,,,,,,,,,,,,,,meeting,181,49,sing,new,yellow,1650.1395388999954,None,y,1650.1395388999954,None,"['y', 'return']","[0.9974658992141485, 1.4215144999325275]",1650.1395388999954,None,,,35,001,2023_Apr_12_0944,ExactRep-v3-final,2021.2.3,59.93752126612007,
,,,,,,,,,,,,49,0,49,0,,,,,,,,,,,,,,,,,,,,,,,,,,,,,,,,,,,,,,,,,,,,,,,,,1653.5596008002758,None,,,,,,,,,,,,,,,,,,,,,,,,,,,,,,,,,,,,,,,,,,,,,,,,,,,,,,,,,green,216,50,aloud,new,yellow,1652.1200645007193,None,n,1652.1200645007193,None,"['n', 'return']","[0.9768698997795582, 1.400899900123477]",1652.1200645007193,None,,,35,001,2023_Apr_12_0944,ExactRep-v3-final,2021.2.3,59.93752126612007,
,,,,,,,,,,,,50,0,50,0,,,,,,,,,,,,,,,,,,,,,,,,,,,,,,,,,,,,,,,,,,,,,,,,,1655.8796471999958,None,,,,,,,,,,,,,,,,,,,,,,,,,,,,,,,,,,,,,,,,,,,,,,,,,,,,,,,,,cabin,43,51,silent,old,yellow,1654.06015710067,None,n,1654.06015710067,None,"['n', 'return']","[1.3808778002858162, 1.7807235000655055]",1654.06015710067,None,,,35,001,2023_Apr_12_0944,ExactRep-v3-final,2021.2.3,59.93752126612007,
,,,,,,,,,,,,51,0,51,0,,,,,,,,,,,,,,,,,,,,,,,,,,,,,,,,,,,,,,,,,,,,,,,,,1657.8637482998893,None,,,,,,,,,,,,,,,,,,,,,,,,,,,,,,,,,,,,,,,,,,,,,,,,,,,,,,,,,memory,34,52,sing,old,yellow,1656.3954147007316,None,y,1656.3954147007316,None,"['y', 'return']","[1.0854230001568794, 1.429500600323081]",1656.3954147007316,None,,,35,001,2023_Apr_12_0944,ExactRep-v3-final,2021.2.3,59.93752126612007,
,,,,,,,,,,,,52,0,52,0,,,,,,,,,,,,,,,,,,,,,,,,,,,,,,,,,,,,,,,,,,,,,,,,,1659.665762300603,None,,,,,,,,,,,,,,,,,,,,,,,,,,,,,,,,,,,,,,,,,,,,,,,,,,,,,,,,,army,66,53,silent,old,yellow,1658.3697301000357,None,y,1658.3697301000357,None,"['y', 'return']","[0.8872373001649976, 1.255170799791813]",1658.3697301000357,None,,,35,001,2023_Apr_12_0944,ExactRep-v3-final,2021.2.3,59.93752126612007,
,,,,,,,,,,,,53,0,53,0,,,,,,,,,,,,,,,,,,,,,,,,,,,,,,,,,,,,,,,,,,,,,,,,,1661.9514629999176,None,,,,,,,,,,,,,,,,,,,,,,,,,,,,,,,,,,,,,,,,,,,,,,,,,,,,,,,,,string,231,54,sing,new,yellow,1660.1734982002527,None,n,1660.1734982002527,None,"['n', 'return']","[1.2275152998045087, 1.7313890997320414]",1660.1734982002527,None,,,35,001,2023_Apr_12_0944,ExactRep-v3-final,2021.2.3,59.93752126612007,
,,,,,,,,,,,,54,0,54,0,,,,,,,,,,,,,,,,,,,,,,,,,,,,,,,,,,,,,,,,,,,,,,,,,1663.6864217007533,None,,,,,,,,,,,,,,,,,,,,,,,,,,,,,,,,,,,,,,,,,,,,,,,,,,,,,,,,,glory,239,55,sing,new,yellow,1662.4579731998965,None,n,1662.4579731998965,None,"['n', 'return']","[0.8468110002577305, 1.1910009002313018]",1662.4579731998965,None,,,35,001,2023_Apr_12_0944,ExactRep-v3-final,2021.2.3,59.93752126612007,
,,,,,,,,,,,,55,0,55,0,,,,,,,,,,,,,,,,,,,,,,,,,,,,,,,,,,,,,,,,,,,,,,,,,1665.9554203003645,None,,,,,,,,,,,,,,,,,,,,,,,,,,,,,,,,,,,,,,,,,,,,,,,,,,,,,,,,,cotton,217,56,sing,new,yellow,1664.1942797005177,None,n,1664.1942797005177,None,"['n', 'return']","[1.2949445992708206, 1.7186414999887347]",1664.1942797005177,None,,,35,001,2023_Apr_12_0944,ExactRep-v3-final,2021.2.3,59.93752126612007,
,,,,,,,,,,,,56,0,56,0,,,,,,,,,,,,,,,,,,,,,,,,,,,,,,,,,,,,,,,,,,,,,,,,,1667.842373800464,None,,,,,,,,,,,,,,,,,,,,,,,,,,,,,,,,,,,,,,,,,,,,,,,,,,,,,,,,,house,207,57,sing,new,yellow,1666.469551000744,None,y,1666.469551000744,None,"['y', 'return']","[0.8674197001382709, 1.339367900043726]",1666.469551000744,None,,,35,001,2023_Apr_12_0944,ExactRep-v3-final,2021.2.3,59.93752126612007,
,,,,,,,,,,,,57,0,57,0,,,,,,,,,,,,,,,,,,,,,,,,,,,,,,,,,,,,,,,,,,,,,,,,,1669.742662800476,None,,,,,,,,,,,,,,,,,,,,,,,,,,,,,,,,,,,,,,,,,,,,,,,,,,,,,,,,,amount,230,58,aloud,new,yellow,1668.357679400593,None,n,1668.357679400593,None,"['n', 'return']","[0.9233263004571199, 1.347256500273943]",1668.357679400593,None,,,35,001,2023_Apr_12_0944,ExactRep-v3-final,2021.2.3,59.93752126612007,
,,,,,,,,,,,,58,0,58,0,,,,,,,,,,,,,,,,,,,,,,,,,,,,,,,,,,,,,,,,,,,,,,,,,1672.0614845007658,None,,,,,,,,,,,,,,,,,,,,,,,,,,,,,,,,,,,,,,,,,,,,,,,,,,,,,,,,,mercy,206,59,aloud,new,yellow,1670.2526766005903,None,n,1670.2526766005903,None,"['return', 'return', 'n', 'return']","[0.0522189000621438, 0.22014179918915033, 1.4122795993462205, 1.7722668992355466]",1670.2526766005903,None,,,35,001,2023_Apr_12_0944,ExactRep-v3-final,2021.2.3,59.93752126612007,
,,,,,,,,,,,,59,0,59,0,,,,,,,,,,,,,,,,,,,,,,,,,,,,,,,,,,,,,,,,,,,,,,,,,1674.230330100283,None,,,,,,,,,,,,,,,,,,,,,,,,,,,,,,,,,,,,,,,,,,,,,,,,,,,,,,,,,style,98,60,aloud,old,yellow,1672.569610800594,None,y,1672.569610800594,None,"['y', 'return']","[1.239283699542284, 1.6233208999037743]",1672.569610800594,None,,,35,001,2023_Apr_12_0944,ExactRep-v3-final,2021.2.3,59.93752126612007,
,,,,,,,,,,,,60,0,60,0,,,,,,,,,,,,,,,,,,,,,,,,,,,,,,,,,,,,,,,,,,,,,,,,,1676.1155902007595,None,,,,,,,,,,,,,,,,,,,,,,,,,,,,,,,,,,,,,,,,,,,,,,,,,,,,,,,,,forest,200,61,aloud,new,yellow,1674.7445565005764,None,n,1674.7445565005764,None,"['n', 'return']","[0.9443338001146913, 1.328387700021267]",1674.7445565005764,None,,,35,001,2023_Apr_12_0944,ExactRep-v3-final,2021.2.3,59.93752126612007,
,,,,,,,,,,,,61,0,61,0,,,,,,,,,,,,,,,,,,,,,,,,,,,,,,,,,,,,,,,,,,,,,,,,,1678.455724700354,None,,,,,,,,,,,,,,,,,,,,,,,,,,,,,,,,,,,,,,,,,,,,,,,,,,,,,,,,,tree,111,62,aloud,old,yellow,1676.6161556001753,None,y,1676.6161556001753,None,"['y', 'return']","[1.3287432994693518, 1.7926808996126056]",1676.6161556001753,None,,,35,001,2023_Apr_12_0944,ExactRep-v3-final,2021.2.3,59.93752126612007,
,,,,,,,,,,,,62,0,62,0,,,,,,,,,,,,,,,,,,,,,,,,,,,,,,,,,,,,,,,,,,,,,,,,,1680.3030665004626,None,,,,,,,,,,,,,,,,,,,,,,,,,,,,,,,,,,,,,,,,,,,,,,,,,,,,,,,,,freedom,85,63,aloud,old,yellow,1678.972771300003,None,y,1678.972771300003,None,"['y', 'return']","[0.9081300999969244, 1.292255200445652]",1678.972771300003,None,,,35,001,2023_Apr_12_0944,ExactRep-v3-final,2021.2.3,59.93752126612007,
,,,,,,,,,,,,63,0,63,0,,,,,,,,,,,,,,,,,,,,,,,,,,,,,,,,,,,,,,,,,,,,,,,,,1682.2549419002607,None,,,,,,,,,,,,,,,,,,,,,,,,,,,,,,,,,,,,,,,,,,,,,,,,,,,,,,,,,coast,51,64,silent,old,yellow,1680.8149709999561,None,y,1680.8149709999561,None,"['y', 'return']","[0.9618005007505417, 1.3939399002119899]",1680.8149709999561,None,,,35,001,2023_Apr_12_0944,ExactRep-v3-final,2021.2.3,59.93752126612007,
,,,,,,,,,,,,64,0,64,0,,,,,,,,,,,,,,,,,,,,,,,,,,,,,,,,,,,,,,,,,,,,,,,,,1684.9744147006422,None,,,,,,,,,,,,,,,,,,,,,,,,,,,,,,,,,,,,,,,,,,,,,,,,,,,,,,,,,fact,81,65,aloud,old,yellow,1682.7651761006564,None,y,1682.7651761006564,None,"['y', 'return']","[1.8038865998387337, 2.1718853004276752]",1682.7651761006564,None,,,35,001,2023_Apr_12_0944,ExactRep-v3-final,2021.2.3,59.93752126612007,
,,,,,,,,,,,,65,0,65,0,,,,,,,,,,,,,,,,,,,,,,,,,,,,,,,,,,,,,,,,,,,,,,,,,1687.4101646002382,None,,,,,,,,,,,,,,,,,,,,,,,,,,,,,,,,,,,,,,,,,,,,,,,,,,,,,,,,,humour,131,66,silent,new,yellow,1685.4859961001202,None,y,1685.4859961001202,None,"['y', 'return']","[1.4989377995952964, 1.8828623993322253]",1685.4859961001202,None,,,35,001,2023_Apr_12_0944,ExactRep-v3-final,2021.2.3,59.93752126612007,
,,,,,,,,,,,,66,0,66,0,,,,,,,,,,,,,,,,,,,,,,,,,,,,,,,,,,,,,,,,,,,,,,,,,1689.646892200224,None,,,,,,,,,,,,,,,,,,,,,,,,,,,,,,,,,,,,,,,,,,,,,,,,,,,,,,,,,grass,173,67,sing,new,yellow,1687.9178248001263,None,n,1687.9178248001263,None,"['n', 'return']","[1.2510285004973412, 1.683202000334859]",1687.9178248001263,None,,,35,001,2023_Apr_12_0944,ExactRep-v3-final,2021.2.3,59.93752126612007,
,,,,,,,,,,,,67,0,67,0,,,,,,,,,,,,,,,,,,,,,,,,,,,,,,,,,,,,,,,,,,,,,,,,,1691.3307474004105,None,,,,,,,,,,,,,,,,,,,,,,,,,,,,,,,,,,,,,,,,,,,,,,,,,,,,,,,,,sugar,2,68,sing,old,yellow,1690.1525169005617,None,y,1690.1525169005617,None,"['y', 'return']","[0.752432799898088, 1.1364079993218184]",1690.1525169005617,None,,,35,001,2023_Apr_12_0944,ExactRep-v3-final,2021.2.3,59.93752126612007,
,,,,,,,,,,,,68,0,68,0,,,,,,,,,,,,,,,,,,,,,,,,,,,,,,,,,,,,,,,,,,,,,,,,,1693.3160534007475,None,,,,,,,,,,,,,,,,,,,,,,,,,,,,,,,,,,,,,,,,,,,,,,,,,,,,,,,,,board,59,69,silent,old,yellow,1691.848058800213,None,n,1691.848058800213,None,"['n', 'return']","[1.1130869993939996, 1.4327216995880008]",1691.848058800213,None,,,35,001,2023_Apr_12_0944,ExactRep-v3-final,2021.2.3,59.93752126612007,
,,,,,,,,,,,,69,0,69,0,,,,,,,,,,,,,,,,,,,,,,,,,,,,,,,,,,,,,,,,,,,,,,,,,1695.8019638005644,None,,,,,,,,,,,,,,,,,,,,,,,,,,,,,,,,,,,,,,,,,,,,,,,,,,,,,,,,,water,120,70,silent,new,yellow,1693.8213023999706,None,y,1693.8213023999706,None,"['y', 'return']","[1.6678257994353771, 1.9475360997021198]",1693.8213023999706,None,,,35,001,2023_Apr_12_0944,ExactRep-v3-final,2021.2.3,59.93752126612007,
,,,,,,,,,,,,70,0,70,0,,,,,,,,,,,,,,,,,,,,,,,,,,,,,,,,,,,,,,,,,,,,,,,,,1697.8206176003441,None,,,,,,,,,,,,,,,,,,,,,,,,,,,,,,,,,,,,,,,,,,,,,,,,,,,,,,,,,chair,57,71,silent,old,yellow,1696.3088345006108,None,n,1696.3088345006108,None,"['n', 'return']","[1.0840120995417237, 1.4680332001298666]",1696.3088345006108,None,,,35,001,2023_Apr_12_0944,ExactRep-v3-final,2021.2.3,59.93752126612007,
,,,,,,,,,,,,71,0,71,0,,,,,,,,,,,,,,,,,,,,,,,,,,,,,,,,,,,,,,,,,,,,,,,,,1699.856089300476,None,,,,,,,,,,,,,,,,,,,,,,,,,,,,,,,,,,,,,,,,,,,,,,,,,,,,,,,,,kiss,118,72,aloud,old,yellow,1698.3211556999013,None,y,1698.3211556999013,None,"['y', 'return']","[1.0956670995801687, 1.4958784999325871]",1698.3211556999013,None,,,35,001,2023_Apr_12_0944,ExactRep-v3-final,2021.2.3,59.93752126612007,
,,,,,,,,,,,,72,0,72,0,,,,,,,,,,,,,,,,,,,,,,,,,,,,,,,,,,,,,,,,,,,,,,,,,1702.141728600487,None,,,,,,,,,,,,,,,,,,,,,,,,,,,,,,,,,,,,,,,,,,,,,,,,,,,,,,,,,mind,163,73,sing,new,yellow,1700.3629819005728,None,y,1700.3629819005728,None,"['y', 'return']","[1.317884899675846, 1.7419509002938867]",1700.3629819005728,None,,,35,001,2023_Apr_12_0944,ExactRep-v3-final,2021.2.3,59.93752126612007,
,,,,,,,,,,,,73,0,73,0,,,,,,,,,,,,,,,,,,,,,,,,,,,,,,,,,,,,,,,,,,,,,,,,,1704.14351550024,None,,,,,,,,,,,,,,,,,,,,,,,,,,,,,,,,,,,,,,,,,,,,,,,,,,,,,,,,,boy,210,74,aloud,new,yellow,1702.6562141003087,None,n,1702.6562141003087,None,"['n', 'return']","[1.0807132003828883, 1.44062830042094]",1702.6562141003087,None,,,35,001,2023_Apr_12_0944,ExactRep-v3-final,2021.2.3,59.93752126612007,
,,,,,,,,,,,,74,0,74,0,,,,,,,,,,,,,,,,,,,,,,,,,,,,,,,,,,,,,,,,,,,,,,,,,1706.0967010008171,None,,,,,,,,,,,,,,,,,,,,,,,,,,,,,,,,,,,,,,,,,,,,,,,,,,,,,,,,,lad,133,75,silent,new,yellow,1704.6459143003449,None,n,1704.6459143003449,None,"['n', 'return']","[1.00294170062989, 1.4030935000628233]",1704.6459143003449,None,,,35,001,2023_Apr_12_0944,ExactRep-v3-final,2021.2.3,59.93752126612007,
,,,,,,,,,,,,75,0,75,0,,,,,,,,,,,,,,,,,,,,,,,,,,,,,,,,,,,,,,,,,,,,,,,,,1707.9974521007389,None,,,,,,,,,,,,,,,,,,,,,,,,,,,,,,,,,,,,,,,,,,,,,,,,,,,,,,,,,factory,102,76,aloud,old,yellow,1706.6048147007823,None,y,1706.6048147007823,None,"['y', 'return']","[0.9321471005678177, 1.356301600113511]",1706.6048147007823,None,,,35,001,2023_Apr_12_0944,ExactRep-v3-final,2021.2.3,59.93752126612007,
,,,,,,,,,,,,76,0,76,0,,,,,,,,,,,,,,,,,,,,,,,,,,,,,,,,,,,,,,,,,,,,,,,,,1709.9327928004786,None,,,,,,,,,,,,,,,,,,,,,,,,,,,,,,,,,,,,,,,,,,,,,,,,,,,,,,,,,passion,129,77,silent,new,yellow,1708.5016640005633,None,n,1708.5016640005633,None,"['n', 'return']","[0.9791794000193477, 1.387194700539112]",1708.5016640005633,None,,,35,001,2023_Apr_12_0944,ExactRep-v3-final,2021.2.3,59.93752126612007,
,,,,,,,,,,,,77,0,77,0,,,,,,,,,,,,,,,,,,,,,,,,,,,,,,,,,,,,,,,,,,,,,,,,,1711.9847262008116,None,,,,,,,,,,,,,,,,,,,,,,,,,,,,,,,,,,,,,,,,,,,,,,,,,,,,,,,,,justice,212,78,aloud,new,yellow,1710.4341605007648,None,n,1710.4341605007648,None,"['n', 'return']","[1.126927699893713, 1.5029094005003572]",1710.4341605007648,None,,,35,001,2023_Apr_12_0944,ExactRep-v3-final,2021.2.3,59.93752126612007,
,,,,,,,,,,,,78,0,78,0,,,,,,,,,,,,,,,,,,,,,,,,,,,,,,,,,,,,,,,,,,,,,,,,,1713.9394598007202,None,,,,,,,,,,,,,,,,,,,,,,,,,,,,,,,,,,,,,,,,,,,,,,,,,,,,,,,,,seat,18,79,sing,old,yellow,1712.4999001007527,None,y,1712.4999001007527,None,"['y', 'return']","[1.0369744999334216, 1.3969336999580264]",1712.4999001007527,None,,,35,001,2023_Apr_12_0944,ExactRep-v3-final,2021.2.3,59.93752126612007,
,,,,,,,,,,,,79,0,79,0,,,,,,,,,,,,,,,,,,,,,,,,,,,,,,,,,,,,,,,,,,,,,,,,,1715.8721398999915,None,,,,,,,,,,,,,,,,,,,,,,,,,,,,,,,,,,,,,,,,,,,,,,,,,,,,,,,,,pipe,70,80,silent,old,yellow,1714.455675500445,None,y,1714.455675500445,None,"['y', 'return']","[1.0014068000018597, 1.3692616997286677]",1714.455675500445,None,,,35,001,2023_Apr_12_0944,ExactRep-v3-final,2021.2.3,59.93752126612007,
,,,,,,,,,,,,80,0,80,0,,,,,,,,,,,,,,,,,,,,,,,,,,,,,,,,,,,,,,,,,,,,,,,,,1717.824014400132,None,,,,,,,,,,,,,,,,,,,,,,,,,,,,,,,,,,,,,,,,,,,,,,,,,,,,,,,,,engine,90,81,aloud,old,yellow,1716.3757000006735,None,y,1716.3757000006735,None,"['y', 'return']","[1.0651559997349977, 1.4091189000755548]",1716.3757000006735,None,,,35,001,2023_Apr_12_0944,ExactRep-v3-final,2021.2.3,59.93752126612007,
,,,,,,,,,,,,81,0,81,0,,,,,,,,,,,,,,,,,,,,,,,,,,,,,,,,,,,,,,,,,,,,,,,,,1719.9261070005596,None,,,,,,,,,,,,,,,,,,,,,,,,,,,,,,,,,,,,,,,,,,,,,,,,,,,,,,,,,blossom,154,82,silent,new,yellow,1718.324286000803,None,n,1718.324286000803,None,"['n', 'return']","[1.1325960997492075, 1.5566589999943972]",1718.324286000803,None,,,35,001,2023_Apr_12_0944,ExactRep-v3-final,2021.2.3,59.93752126612007,
,,,,,,,,,,,,82,0,82,0,,,,,,,,,,,,,,,,,,,,,,,,,,,,,,,,,,,,,,,,,,,,,,,,,1721.7445767000318,None,,,,,,,,,,,,,,,,,,,,,,,,,,,,,,,,,,,,,,,,,,,,,,,,,,,,,,,,,poet,75,83,silent,old,yellow,1720.4351121000946,None,y,1720.4351121000946,None,"['y', 'return']","[0.9018264999613166, 1.277955999597907]",1720.4351121000946,None,,,35,001,2023_Apr_12_0944,ExactRep-v3-final,2021.2.3,59.93752126612007,
,,,,,,,,,,,,83,0,83,0,,,,,,,,,,,,,,,,,,,,,,,,,,,,,,,,,,,,,,,,,,,,,,,,,1723.6963464003056,None,,,,,,,,,,,,,,,,,,,,,,,,,,,,,,,,,,,,,,,,,,,,,,,,,,,,,,,,,truth,54,84,silent,old,yellow,1722.2452123006806,None,y,1722.2452123006806,None,"['y', 'return']","[1.0596647998318076, 1.4037747997790575]",1722.2452123006806,None,,,35,001,2023_Apr_12_0944,ExactRep-v3-final,2021.2.3,59.93752126612007,
,,,,,,,,,,,,84,0,84,0,,,,,,,,,,,,,,,,,,,,,,,,,,,,,,,,,,,,,,,,,,,,,,,,,1725.7151204999536,None,,,,,,,,,,,,,,,,,,,,,,,,,,,,,,,,,,,,,,,,,,,,,,,,,,,,,,,,,deed,20,85,sing,old,yellow,1724.2006284007803,None,y,1724.2006284007803,None,"['y', 'return']","[1.0884274998679757, 1.4802536005154252]",1724.2006284007803,None,,,35,001,2023_Apr_12_0944,ExactRep-v3-final,2021.2.3,59.93752126612007,
,,,,,,,,,,,,85,0,85,0,,,,,,,,,,,,,,,,,,,,,,,,,,,,,,,,,,,,,,,,,,,,,,,,,1727.4834860004485,None,,,,,,,,,,,,,,,,,,,,,,,,,,,,,,,,,,,,,,,,,,,,,,,,,,,,,,,,,shame,192,86,aloud,new,yellow,1726.22348790057,None,y,1726.22348790057,None,"['y', 'return']","[0.8334255004301667, 1.22541160043329]",1726.22348790057,None,,,35,001,2023_Apr_12_0944,ExactRep-v3-final,2021.2.3,59.93752126612007,
,,,,,,,,,,,,86,0,86,0,,,,,,,,,,,,,,,,,,,,,,,,,,,,,,,,,,,,,,,,,,,,,,,,,1730.1028149006888,None,,,,,,,,,,,,,,,,,,,,,,,,,,,,,,,,,,,,,,,,,,,,,,,,,,,,,,,,,time,71,87,silent,old,yellow,1727.9888920001686,None,n,1727.9888920001686,None,"['n', 'return']","[1.524341099895537, 2.0679397992789745]",1727.9888920001686,None,,,35,001,2023_Apr_12_0944,ExactRep-v3-final,2021.2.3,59.93752126612007,
,,,,,,,,,,,,87,0,87,0,,,,,,,,,,,,,,,,,,,,,,,,,,,,,,,,,,,,,,,,,,,,,,,,,1732.2887920001522,None,,,,,,,,,,,,,,,,,,,,,,,,,,,,,,,,,,,,,,,,,,,,,,,,,,,,,,,,,fire,45,88,silent,old,yellow,1730.604070700705,None,n,1730.604070700705,None,"['n', 'return']","[1.181029699742794, 1.6527613000944257]",1730.604070700705,None,,,35,001,2023_Apr_12_0944,ExactRep-v3-final,2021.2.3,59.93752126612007,
,,,,,,,,,,,,88,0,88,0,,,,,,,,,,,,,,,,,,,,,,,,,,,,,,,,,,,,,,,,,,,,,,,,,1734.206897499971,None,,,,,,,,,,,,,,,,,,,,,,,,,,,,,,,,,,,,,,,,,,,,,,,,,,,,,,,,,lake,238,89,aloud,new,yellow,1732.8017714004964,None,n,1732.8017714004964,None,"['n', 'return']","[0.9833319000899792, 1.367399400100112]",1732.8017714004964,None,,,35,001,2023_Apr_12_0944,ExactRep-v3-final,2021.2.3,59.93752126612007,
,,,,,,,,,,,,89,0,89,0,,,,,,,,,,,,,,,,,,,,,,,,,,,,,,,,,,,,,,,,,,,,,,,,,1736.0421349005774,None,,,,,,,,,,,,,,,,,,,,,,,,,,,,,,,,,,,,,,,,,,,,,,,,,,,,,,,,,lip,33,90,sing,old,yellow,1734.7126537999138,None,y,1734.7126537999138,None,"['y', 'return']","[0.9364013997837901, 1.2883174000307918]",1734.7126537999138,None,,,35,001,2023_Apr_12_0944,ExactRep-v3-final,2021.2.3,59.93752126612007,
,,,,,,,,,,,,90,0,90,0,,,,,,,,,,,,,,,,,,,,,,,,,,,,,,,,,,,,,,,,,,,,,,,,,1738.3777347002178,None,,,,,,,,,,,,,,,,,,,,,,,,,,,,,,,,,,,,,,,,,,,,,,,,,,,,,,,,,moment,213,91,sing,new,yellow,1736.5528605999425,None,y,1736.5528605999425,None,"['y', 'return']","[1.2482901001349092, 1.7920548999682069]",1736.5528605999425,None,,,35,001,2023_Apr_12_0944,ExactRep-v3-final,2021.2.3,59.93752126612007,
,,,,,,,,,,,,91,0,91,0,,,,,,,,,,,,,,,,,,,,,,,,,,,,,,,,,,,,,,,,,,,,,,,,,1740.2461447007954,None,,,,,,,,,,,,,,,,,,,,,,,,,,,,,,,,,,,,,,,,,,,,,,,,,,,,,,,,,bowl,99,92,aloud,old,yellow,1738.8793796002865,None,y,1738.8793796002865,None,"['y', 'return']","[0.9297406002879143, 1.329564900137484]",1738.8793796002865,None,,,35,001,2023_Apr_12_0944,ExactRep-v3-final,2021.2.3,59.93752126612007,
,,,,,,,,,,,,92,0,92,0,,,,,,,,,,,,,,,,,,,,,,,,,,,,,,,,,,,,,,,,,,,,,,,,,1742.4486114000902,None,,,,,,,,,,,,,,,,,,,,,,,,,,,,,,,,,,,,,,,,,,,,,,,,,,,,,,,,,honour,115,93,aloud,old,yellow,1740.7466804999858,None,y,1740.7466804999858,None,"['y', 'return']","[1.2701858999207616, 1.6703196000307798]",1740.7466804999858,None,,,35,001,2023_Apr_12_0944,ExactRep-v3-final,2021.2.3,59.93752126612007,
,,,,,,,,,,,,93,0,93,0,,,,,,,,,,,,,,,,,,,,,,,,,,,,,,,,,,,,,,,,,,,,,,,,,1744.4171911003068,None,,,,,,,,,,,,,,,,,,,,,,,,,,,,,,,,,,,,,,,,,,,,,,,,,,,,,,,,,grief,92,94,aloud,old,yellow,1742.9553628005087,None,y,1742.9553628005087,None,"['y', 'return']","[1.0217027999460697, 1.4295645002275705]",1742.9553628005087,None,,,35,001,2023_Apr_12_0944,ExactRep-v3-final,2021.2.3,59.93752126612007,
,,,,,,,,,,,,94,0,94,0,,,,,,,,,,,,,,,,,,,,,,,,,,,,,,,,,,,,,,,,,,,,,,,,,1746.3524760007858,None,,,,,,,,,,,,,,,,,,,,,,,,,,,,,,,,,,,,,,,,,,,,,,,,,,,,,,,,,cost,31,95,sing,old,yellow,1744.9183344999328,None,y,1744.9183344999328,None,"['y', 'return']","[1.0425788005813956, 1.4026469001546502]",1744.9183344999328,None,,,35,001,2023_Apr_12_0944,ExactRep-v3-final,2021.2.3,59.93752126612007,
,,,,,,,,,,,,95,0,95,0,,,,,,,,,,,,,,,,,,,,,,,,,,,,,,,,,,,,,,,,,,,,,,,,,1748.2736429003999,None,,,,,,,,,,,,,,,,,,,,,,,,,,,,,,,,,,,,,,,,,,,,,,,,,,,,,,,,,flood,32,96,sing,old,yellow,1746.862600600347,None,n,1746.862600600347,None,"['n', 'return']","[1.0663553001359105, 1.3703819997608662]",1746.862600600347,None,,,35,001,2023_Apr_12_0944,ExactRep-v3-final,2021.2.3,59.93752126612007,
,,,,,,,,,,,,96,0,96,0,,,,,,,,,,,,,,,,,,,,,,,,,,,,,,,,,,,,,,,,,,,,,,,,,1750.0730834007263,None,,,,,,,,,,,,,,,,,,,,,,,,,,,,,,,,,,,,,,,,,,,,,,,,,,,,,,,,,duty,10,97,sing,old,yellow,1748.7950368002057,None,y,1748.7950368002057,None,"['y', 'return']","[0.9019619002938271, 1.246148000471294]",1748.7950368002057,None,,,35,001,2023_Apr_12_0944,ExactRep-v3-final,2021.2.3,59.93752126612007,
,,,,,,,,,,,,97,0,97,0,,,,,,,,,,,,,,,,,,,,,,,,,,,,,,,,,,,,,,,,,,,,,,,,,1751.9310031002387,None,,,,,,,,,,,,,,,,,,,,,,,,,,,,,,,,,,,,,,,,,,,,,,,,,,,,,,,,,cat,23,98,sing,old,yellow,1750.5773001005873,None,y,1750.5773001005873,None,"['y', 'return']","[0.9677082998678088, 1.3036481998860836]",1750.5773001005873,None,,,35,001,2023_Apr_12_0944,ExactRep-v3-final,2021.2.3,59.93752126612007,
,,,,,,,,,,,,98,0,98,0,,,,,,,,,,,,,,,,,,,,,,,,,,,,,,,,,,,,,,,,,,,,,,,,,1753.993675100617,None,,,,,,,,,,,,,,,,,,,,,,,,,,,,,,,,,,,,,,,,,,,,,,,,,,,,,,,,,body,55,99,silent,old,yellow,1752.4488195003942,None,y,1752.4488195003942,None,"['y', 'return']","[1.1121789999306202, 1.512033600360155]",1752.4488195003942,None,,,35,001,2023_Apr_12_0944,ExactRep-v3-final,2021.2.3,59.93752126612007,
,,,,,,,,,,,,99,0,99,0,,,,,,,,,,,,,,,,,,,,,,,,,,,,,,,,,,,,,,,,,,,,,,,,,1756.0955199999735,None,,,,,,,,,,,,,,,,,,,,,,,,,,,,,,,,,,,,,,,,,,,,,,,,,,,,,,,,,death,124,100,silent,new,yellow,1754.5077227000147,None,n,1754.5077227000147,None,"['n', 'return']","[1.1812487002462149, 1.541282800026238]",1754.5077227000147,None,,,35,001,2023_Apr_12_0944,ExactRep-v3-final,2021.2.3,59.93752126612007,
,,,,,,,,,,,,100,0,100,0,,,,,,,,,,,,,,,,,,,,,,,,,,,,,,,,,,,,,,,,,,,,,,,,,1758.0307373004034,None,,,,,,,,,,,,,,,,,,,,,,,,,,,,,,,,,,,,,,,,,,,,,,,,,,,,,,,,,volume,161,101,sing,new,yellow,1756.5986574003473,None,n,1756.5986574003473,None,"['n', 'return']","[1.0823101997375488, 1.394362200051546]",1756.5986574003473,None,,,35,001,2023_Apr_12_0944,ExactRep-v3-final,2021.2.3,59.93752126612007,
,,,,,,,,,,,,101,0,101,0,,,,,,,,,,,,,,,,,,,,,,,,,,,,,,,,,,,,,,,,,,,,,,,,,1760.2528634006158,None,,,,,,,,,,,,,,,,,,,,,,,,,,,,,,,,,,,,,,,,,,,,,,,,,,,,,,,,,blood,185,102,sing,new,yellow,1758.5388247007504,None,n,1758.5388247007504,None,"['n', 'return']","[1.3261962002143264, 1.6780898002907634]",1758.5388247007504,None,,,35,001,2023_Apr_12_0944,ExactRep-v3-final,2021.2.3,59.93752126612007,
,,,,,,,,,,,,102,0,102,0,,,,,,,,,,,,,,,,,,,,,,,,,,,,,,,,,,,,,,,,,,,,,,,,,1762.1682923007756,None,,,,,,,,,,,,,,,,,,,,,,,,,,,,,,,,,,,,,,,,,,,,,,,,,,,,,,,,,soil,1,103,sing,old,yellow,1760.7815229007974,None,y,1760.7815229007974,None,"['y', 'return']","[0.9073598999530077, 1.3475231006741524]",1760.7815229007974,None,,,35,001,2023_Apr_12_0944,ExactRep-v3-final,2021.2.3,59.93752126612007,
,,,,,,,,,,,,103,0,103,0,,,,,,,,,,,,,,,,,,,,,,,,,,,,,,,,,,,,,,,,,,,,,,,,,1764.0867254007608,None,,,,,,,,,,,,,,,,,,,,,,,,,,,,,,,,,,,,,,,,,,,,,,,,,,,,,,,,,coffee,234,104,aloud,new,yellow,1762.6767307007685,None,n,1762.6767307007685,None,"['n', 'return']","[1.0043423995375633, 1.3642948996275663]",1762.6767307007685,None,,,35,001,2023_Apr_12_0944,ExactRep-v3-final,2021.2.3,59.93752126612007,
,,,,,,,,,,,,104,0,104,0,,,,,,,,,,,,,,,,,,,,,,,,,,,,,,,,,,,,,,,,,,,,,,,,,1766.7060569003224,None,,,,,,,,,,,,,,,,,,,,,,,,,,,,,,,,,,,,,,,,,,,,,,,,,,,,,,,,,river,65,105,silent,old,yellow,1764.588273900561,None,n,1764.588273900561,None,"['n', 'return']","[1.7166943000629544, 2.0846784999594092]",1764.588273900561,None,,,35,001,2023_Apr_12_0944,ExactRep-v3-final,2021.2.3,59.93752126612007,
,,,,,,,,,,,,105,0,105,0,,,,,,,,,,,,,,,,,,,,,,,,,,,,,,,,,,,,,,,,,,,,,,,,,1768.624720800668,None,,,,,,,,,,,,,,,,,,,,,,,,,,,,,,,,,,,,,,,,,,,,,,,,,,,,,,,,,power,69,106,silent,old,yellow,1767.2149356007576,None,n,1767.2149356007576,None,"['n', 'return']","[1.0821171002462506, 1.3780760001391172]",1767.2149356007576,None,,,35,001,2023_Apr_12_0944,ExactRep-v3-final,2021.2.3,59.93752126612007,
,,,,,,,,,,,,106,0,106,0,,,,,,,,,,,,,,,,,,,,,,,,,,,,,,,,,,,,,,,,,,,,,,,,,1770.6102138003334,None,,,,,,,,,,,,,,,,,,,,,,,,,,,,,,,,,,,,,,,,,,,,,,,,,,,,,,,,,woods,229,107,sing,new,yellow,1769.1255595004186,None,n,1769.1255595004186,None,"['n', 'return']","[1.0754442997276783, 1.4514276999980211]",1769.1255595004186,None,,,35,001,2023_Apr_12_0944,ExactRep-v3-final,2021.2.3,59.93752126612007,
,,,,,,,,,,,,107,0,107,0,,,,,,,,,,,,,,,,,,,,,,,,,,,,,,,,,,,,,,,,,,,,,,,,,1772.5286694001406,None,,,,,,,,,,,,,,,,,,,,,,,,,,,,,,,,,,,,,,,,,,,,,,,,,,,,,,,,,love,135,108,silent,new,yellow,1771.1157535007223,None,n,1771.1157535007223,None,"['n', 'return']","[1.0454141004011035, 1.3732521003112197]",1771.1157535007223,None,,,35,001,2023_Apr_12_0944,ExactRep-v3-final,2021.2.3,59.93752126612007,
,,,,,,,,,,,,108,0,108,0,,,,,,,,,,,,,,,,,,,,,,,,,,,,,,,,,,,,,,,,,,,,,,,,,1774.6140485005453,None,,,,,,,,,,,,,,,,,,,,,,,,,,,,,,,,,,,,,,,,,,,,,,,,,,,,,,,,,coin,107,109,aloud,old,yellow,1773.038108699955,None,y,1773.038108699955,None,"['y', 'return']","[1.1631177002564073, 1.5389220993965864]",1773.038108699955,None,,,35,001,2023_Apr_12_0944,ExactRep-v3-final,2021.2.3,59.93752126612007,
,,,,,,,,,,,,109,0,109,0,,,,,,,,,,,,,,,,,,,,,,,,,,,,,,,,,,,,,,,,,,,,,,,,,1776.4992922004312,None,,,,,,,,,,,,,,,,,,,,,,,,,,,,,,,,,,,,,,,,,,,,,,,,,,,,,,,,,flesh,83,110,aloud,old,yellow,1775.12478260044,None,y,1775.12478260044,None,"['y', 'return']","[0.9641533000394702, 1.3401808999478817]",1775.12478260044,None,,,35,001,2023_Apr_12_0944,ExactRep-v3-final,2021.2.3,59.93752126612007,
,,,,,,,,,,,,110,0,110,0,,,,,,,,,,,,,,,,,,,,,,,,,,,,,,,,,,,,,,,,,,,,,,,,,1778.71803670004,None,,,,,,,,,,,,,,,,,,,,,,,,,,,,,,,,,,,,,,,,,,,,,,,,,,,,,,,,,shore,224,111,aloud,new,yellow,1777.0062974002212,None,n,1777.0062974002212,None,"['n', 'return']","[1.2746625998988748, 1.6747861001640558]",1777.0062974002212,None,,,35,001,2023_Apr_12_0944,ExactRep-v3-final,2021.2.3,59.93752126612007,
,,,,,,,,,,,,111,0,111,0,,,,,,,,,,,,,,,,,,,,,,,,,,,,,,,,,,,,,,,,,,,,,,,,,1780.736976600252,None,,,,,,,,,,,,,,,,,,,,,,,,,,,,,,,,,,,,,,,,,,,,,,,,,,,,,,,,,apple,46,112,silent,old,yellow,1779.225212099962,None,n,1779.225212099962,None,"['n', 'return']","[1.0957959992811084, 1.4719817992299795]",1779.225212099962,None,,,35,001,2023_Apr_12_0944,ExactRep-v3-final,2021.2.3,59.93752126612007,
,,,,,,,,,,,,112,0,112,0,,,,,,,,,,,,,,,,,,,,,,,,,,,,,,,,,,,,,,,,,,,,,,,,,1782.9891047002748,None,,,,,,,,,,,,,,,,,,,,,,,,,,,,,,,,,,,,,,,,,,,,,,,,,,,,,,,,,student,42,113,silent,old,yellow,1781.2432890003547,None,y,1781.2432890003547,None,"['y', 'return']","[1.3497466994449496, 1.709718999452889]",1781.2432890003547,None,,,35,001,2023_Apr_12_0944,ExactRep-v3-final,2021.2.3,59.93752126612007,
,,,,,,,,,,,,113,0,113,0,,,,,,,,,,,,,,,,,,,,,,,,,,,,,,,,,,,,,,,,,,,,,,,,,1785.1747014001012,None,,,,,,,,,,,,,,,,,,,,,,,,,,,,,,,,,,,,,,,,,,,,,,,,,,,,,,,,,opinion,195,114,sing,new,yellow,1783.4961763005704,None,y,1783.4961763005704,None,"['y', 'return']","[1.2808209005743265, 1.6409056996926665]",1783.4961763005704,None,,,35,001,2023_Apr_12_0944,ExactRep-v3-final,2021.2.3,59.93752126612007,
,,,,,,,,,,,,114,0,114,0,,,,,,,,,,,,,,,,,,,,,,,,,,,,,,,,,,,,,,,,,,,,,,,,,1787.159994800575,None,,,,,,,,,,,,,,,,,,,,,,,,,,,,,,,,,,,,,,,,,,,,,,,,,,,,,,,,,journal,49,115,silent,old,yellow,1785.6811266001314,None,y,1785.6811266001314,None,"['y', 'return']","[1.0638800002634525, 1.439814300276339]",1785.6811266001314,None,,,35,001,2023_Apr_12_0944,ExactRep-v3-final,2021.2.3,59.93752126612007,
,,,,,,,,,,,,115,0,115,0,,,,,,,,,,,,,,,,,,,,,,,,,,,,,,,,,,,,,,,,,,,,,,,,,1789.1786275003105,None,,,,,,,,,,,,,,,,,,,,,,,,,,,,,,,,,,,,,,,,,,,,,,,,,,,,,,,,,table,151,116,silent,new,yellow,1787.6602663006634,None,n,1787.6602663006634,None,"['n', 'return']","[1.0926837995648384, 1.4768100995570421]",1787.6602663006634,None,,,35,001,2023_Apr_12_0944,ExactRep-v3-final,2021.2.3,59.93752126612007,
,,,,,,,,,,,,116,0,116,0,,,,,,,,,,,,,,,,,,,,,,,,,,,,,,,,,,,,,,,,,,,,,,,,,1791.1640319004655,None,,,,,,,,,,,,,,,,,,,,,,,,,,,,,,,,,,,,,,,,,,,,,,,,,,,,,,,,,vessel,184,117,aloud,new,yellow,1789.6865733005106,None,n,1789.6865733005106,None,"['n', 'return']","[1.0904572000727057, 1.4424214996397495]",1789.6865733005106,None,,,35,001,2023_Apr_12_0944,ExactRep-v3-final,2021.2.3,59.93752126612007,
,,,,,,,,,,,,117,0,117,0,,,,,,,,,,,,,,,,,,,,,,,,,,,,,,,,,,,,,,,,,,,,,,,,,1794.033583600074,None,,,,,,,,,,,,,,,,,,,,,,,,,,,,,,,,,,,,,,,,,,,,,,,,,,,,,,,,,insect,189,118,sing,new,yellow,1791.6678765006363,None,n,1791.6678765006363,None,"['n', 'return']","[1.3732320992276073, 2.3332586996257305]",1791.6678765006363,None,,,35,001,2023_Apr_12_0944,ExactRep-v3-final,2021.2.3,59.93752126612007,
,,,,,,,,,,,,118,0,118,0,,,,,,,,,,,,,,,,,,,,,,,,,,,,,,,,,,,,,,,,,,,,,,,,,1796.8706865003332,None,,,,,,,,,,,,,,,,,,,,,,,,,,,,,,,,,,,,,,,,,,,,,,,,,,,,,,,,,nail,211,119,sing,new,yellow,1794.5338479001075,None,n,1794.5338479001075,None,"['n', 'return']","[0.8910395996645093, 2.2991281002759933]",1794.5338479001075,None,,,35,001,2023_Apr_12_0944,ExactRep-v3-final,2021.2.3,59.93752126612007,
,,,,,,,,,,,,119,0,119,0,,,,,,,,,,,,,,,,,,,,,,,,,,,,,,,,,,,,,,,,,,,,,,,,,1799.488834200427,None,,,,,,,,,,,,,,,,,,,,,,,,,,,,,,,,,,,,,,,,,,,,,,,,,,,,,,,,,owner,117,120,aloud,old,yellow,1797.3743066005409,None,y,1797.3743066005409,None,"['y', 'return']","[1.3946994999423623, 2.0748185999691486]",1797.3743066005409,None,,,35,001,2023_Apr_12_0944,ExactRep-v3-final,2021.2.3,59.93752126612007,
,,,,,,,,,,,,120,0,120,0,,,,,,,,,,,,,,,,,,,,,,,,,,,,,,,,,,,,,,,,,,,,,,,,,1801.6745263002813,None,,,,,,,,,,,,,,,,,,,,,,,,,,,,,,,,,,,,,,,,,,,,,,,,,,,,,,,,,cash,191,121,sing,new,yellow,1799.9977491004393,None,y,1799.9977491004393,None,"['y', 'return']","[1.1472477996721864, 1.6433824999257922]",1799.9977491004393,None,,,35,001,2023_Apr_12_0944,ExactRep-v3-final,2021.2.3,59.93752126612007,
,,,,,,,,,,,,121,0,121,0,,,,,,,,,,,,,,,,,,,,,,,,,,,,,,,,,,,,,,,,,,,,,,,,,1803.8599904002622,None,,,,,,,,,,,,,,,,,,,,,,,,,,,,,,,,,,,,,,,,,,,,,,,,,,,,,,,,,chief,7,122,sing,old,yellow,1802.1809873003513,None,y,1802.1809873003513,None,"['y', 'return']","[1.1721302000805736, 1.643954399973154]",1802.1809873003513,None,,,35,001,2023_Apr_12_0944,ExactRep-v3-final,2021.2.3,59.93752126612007,
,,,,,,,,,,,,122,0,122,0,,,,,,,,,,,,,,,,,,,,,,,,,,,,,,,,,,,,,,,,,,,,,,,,,1805.9619975006208,None,,,,,,,,,,,,,,,,,,,,,,,,,,,,,,,,,,,,,,,,,,,,,,,,,,,,,,,,,bar,114,123,aloud,old,yellow,1804.3605876006186,None,n,1804.3605876006186,None,"['n', 'return']","[1.1523212995380163, 1.568639500066638]",1804.3605876006186,None,,,35,001,2023_Apr_12_0944,ExactRep-v3-final,2021.2.3,59.93752126612007,
,,,,,,,,,,,,123,0,123,0,,,,,,,,,,,,,,,,,,,,,,,,,,,,,,,,,,,,,,,,,,,,,,,,,1808.0307031003758,None,,,,,,,,,,,,,,,,,,,,,,,,,,,,,,,,,,,,,,,,,,,,,,,,,,,,,,,,,pupil,44,124,silent,old,yellow,1806.4721002001315,None,y,1806.4721002001315,None,"['y', 'return']","[0.9609794998541474, 1.512844699434936]",1806.4721002001315,None,,,35,001,2023_Apr_12_0944,ExactRep-v3-final,2021.2.3,59.93752126612007,
,,,,,,,,,,,,124,0,124,0,,,,,,,,,,,,,,,,,,,,,,,,,,,,,,,,,,,,,,,,,,,,,,,,,1810.1328300004825,None,,,,,,,,,,,,,,,,,,,,,,,,,,,,,,,,,,,,,,,,,,,,,,,,,,,,,,,,,hall,62,125,silent,old,yellow,1808.5313621005043,None,y,1808.5313621005043,None,"['y', 'return']","[1.1336268996819854, 1.5656858002766967]",1808.5313621005043,None,,,35,001,2023_Apr_12_0944,ExactRep-v3-final,2021.2.3,59.93752126612007,
,,,,,,,,,,,,125,0,125,0,,,,,,,,,,,,,,,,,,,,,,,,,,,,,,,,,,,,,,,,,,,,,,,,,1812.1516340998933,None,,,,,,,,,,,,,,,,,,,,,,,,,,,,,,,,,,,,,,,,,,,,,,,,,,,,,,,,,vision,167,126,sing,new,yellow,1810.6449118005112,None,n,1810.6449118005112,None,"['n', 'return']","[1.0763817997649312, 1.4599940003827214]",1810.6449118005112,None,,,35,001,2023_Apr_12_0944,ExactRep-v3-final,2021.2.3,59.93752126612007,
,,,,,,,,,,,,126,0,126,0,,,,,,,,,,,,,,,,,,,,,,,,,,,,,,,,,,,,,,,,,,,,,,,,,1814.1869585001841,None,,,,,,,,,,,,,,,,,,,,,,,,,,,,,,,,,,,,,,,,,,,,,,,,,,,,,,,,,spirit,141,127,silent,new,yellow,1812.6524253999814,None,n,1812.6524253999814,None,"['n', 'return']","[1.124524999409914, 1.4926412999629974]",1812.6524253999814,None,,,35,001,2023_Apr_12_0944,ExactRep-v3-final,2021.2.3,59.93752126612007,
,,,,,,,,,,,,127,0,127,0,,,,,,,,,,,,,,,,,,,,,,,,,,,,,,,,,,,,,,,,,,,,,,,,,1816.305813900195,None,,,,,,,,,,,,,,,,,,,,,,,,,,,,,,,,,,,,,,,,,,,,,,,,,,,,,,,,,shadow,203,128,sing,new,yellow,1814.7016233000904,None,y,1814.7016233000904,None,"['y', 'return']","[1.14741070009768, 1.5634406004101038]",1814.7016233000904,None,,,35,001,2023_Apr_12_0944,ExactRep-v3-final,2021.2.3,59.93752126612007,
,,,,,,,,,,,,128,0,128,0,,,,,,,,,,,,,,,,,,,,,,,,,,,,,,,,,,,,,,,,,,,,,,,,,1818.3581040007994,None,,,,,,,,,,,,,,,,,,,,,,,,,,,,,,,,,,,,,,,,,,,,,,,,,,,,,,,,,circle,47,129,silent,old,yellow,1816.8128209002316,None,y,1816.8128209002316,None,"['y', 'return']","[1.0762946996837854, 1.5002637999132276]",1816.8128209002316,None,,,35,001,2023_Apr_12_0944,ExactRep-v3-final,2021.2.3,59.93752126612007,
,,,,,,,,,,,,129,0,129,0,,,,,,,,,,,,,,,,,,,,,,,,,,,,,,,,,,,,,,,,,,,,,,,,,1820.8435987001285,None,,,,,,,,,,,,,,,,,,,,,,,,,,,,,,,,,,,,,,,,,,,,,,,,,,,,,,,,,machine,149,130,silent,new,yellow,1818.8602452008054,None,y,1818.8602452008054,None,"['y', 'return']","[1.5808915002271533, 1.9487867997959256]",1818.8602452008054,None,,,35,001,2023_Apr_12_0944,ExactRep-v3-final,2021.2.3,59.93752126612007,
,,,,,,,,,,,,130,0,130,0,,,,,,,,,,,,,,,,,,,,,,,,,,,,,,,,,,,,,,,,,,,,,,,,,1823.079332000576,None,,,,,,,,,,,,,,,,,,,,,,,,,,,,,,,,,,,,,,,,,,,,,,,,,,,,,,,,,gift,113,131,aloud,old,yellow,1821.3441206002608,None,y,1821.3441206002608,None,"['y', 'return']","[1.2649295004084706, 1.6889621000736952]",1821.3441206002608,None,,,35,001,2023_Apr_12_0944,ExactRep-v3-final,2021.2.3,59.93752126612007,
