trials_fam.thisRepN,trials_fam.thisTrialN,trials_fam.thisN,trials_fam.thisIndex,trials_prc.thisRepN,trials_prc.thisTrialN,trials_prc.thisN,trials_prc.thisIndex,StudyLoop.thisRepN,StudyLoop.thisTrialN,StudyLoop.thisN,StudyLoop.thisIndex,TestLoop.thisRepN,TestLoop.thisTrialN,TestLoop.thisN,TestLoop.thisIndex,text_colortest.started,text_colortest.stopped,key_colortest.keys,key_colortest.rt,key_colortest.started,key_colortest.stopped,textCondition.started,textCondition.stopped,keyCondition.keys,keyCondition.rt,keyCondition.started,keyCondition.stopped,Condition_between,Condition_counterbal,keyWelcome.keys,keyWelcome.rt,keyWelcome.started,keyWelcome.stopped,welcome_a.started,welcome_a.stopped,welcome_b.started,welcome_b.stopped,welcome_c.started,welcome_c.stopped,welcome_d.started,welcome_d.stopped,welcome_e.started,welcome_e.stopped,welcome_f.started,welcome_f.stopped,key_resp_fam_inst.keys,key_resp_fam_inst.rt,key_resp_fam_inst.started,key_resp_fam_inst.stopped,fam_a.started,fam_a.stopped,fam_b.started,fam_b.stopped,fam_c.started,fam_c.stopped,fam_d.started,fam_d.stopped,fam_e.started,fam_e.stopped,fam_f.started,fam_f.stopped,text_famil.started,text_famil.stopped,textBlank500.started,textBlank500.stopped,key_resp_prc_inst.keys,key_resp_prc_inst.rt,key_resp_prc_inst.started,key_resp_prc_inst.stopped,prac_a.started,prac_a.stopped,prac_b.started,prac_b.stopped,prac_c.started,prac_c.stopped,prac_d.started,prac_d.stopped,prac_e.started,prac_e.stopped,prac_f.started,prac_f.stopped,text_prc_trial.started,text_prc_trial.stopped,key_resp_study_inst.keys,key_resp_study_inst.rt,key_resp_study_inst.started,key_resp_study_inst.stopped,crit_a.started,crit_a.stopped,crit_b.started,crit_b.stopped,crit_c.started,crit_c.stopped,crit_d.started,crit_d.stopped,crit_e.started,crit_e.stopped,crit_f.started,crit_f.stopped,study_word,study_num,study_order,study_type,word_color,textStudy.started,textStudy.stopped,keyStudy.keys,keyStudy.started,keyStudy.stopped,post_study.started,post_study.stopped,key_resp_post_study.keys,key_resp_post_study.rt,key_resp_post_study.started,key_resp_post_study.stopped,test_inst.started,test_inst.stopped,key_resp_test_inst.keys,key_resp_test_inst.rt,key_resp_test_inst.started,key_resp_test_inst.stopped,test_word,test_num,test_order,test_condition,old_new_test,word_color_test,textConf.started,textConf.stopped,Participant Response,textInput.started,textInput.stopped,keyResp.keys,keyResp.rt,keyResp.started,keyResp.stopped,textEnd.started,textEnd.stopped,participant,session,date,expName,psychopyVersion,frameRate,
,,,,,,,,,,,,,,,,20.47997049987316,None,n,9.47802949976176,20.47997049987316,None,,,,,,,,,,,,,,,,,,,,,,,,,,,,,,,,,,,,,,,,,,,,,,,,,,,,,,,,,,,,,,,,,,,,,,,,,,,,,,,,,,,,,,,,,,,,,,,,,,,,,,,,,,,,,,,,,,,,,,36,001,2023_Apr_12_1019,ExactRep-v3-final,2021.2.3,59.895589826388715,
,,,,,,,,,,,,,,,,,,,,,,29.986732100136578,None,f,0.4111633999273181,29.986732100136578,None,,,,,,,,,,,,,,,,,,,,,,,,,,,,,,,,,,,,,,,,,,,,,,,,,,,,,,,,,,,,,,,,,,,,,,,,,,,,,,,,,,,,,,,,,,,,,,,,,,,,,,,,,,,,,,,,36,001,2023_Apr_12_1019,ExactRep-v3-final,2021.2.3,59.895589826388715,
,,,,,,,,,,,,,,,,,,,,,,,,,,,,whitefoils,f,space,536.0104969991371,40.531898099929094,None,,,,,,,,,,,,,,,,,,,,,,,,,,,,,,,,,,,,,,,,,,,,,,,,,,,,,,,,,,,,,,,,,,,,,,,,,,,,,,,,,,,,,,,,,,,,,,,,,,,,,,,,,,36,001,2023_Apr_12_1019,ExactRep-v3-final,2021.2.3,59.895589826388715,
,,,,,,,,,,,,,,,,,,,,,,,,,,,,,,,,,,30.592700799927115,None,30.592700799927115,None,30.592700799927115,None,30.592700799927115,None,30.592700799927115,None,30.592700799927115,None,space,18.397996299900115,586.7443493995816,None,,,,,,,,,,,,,,,,,,,,,,,,,,,,,,,,,,,,,,,,,,,,,,,,,,,,,,,,,,,,,,,,,,,,,,,,,,,,,,,,,,,,,,,,,,36,001,2023_Apr_12_1019,ExactRep-v3-final,2021.2.3,59.895589826388715,
0,0,0,0,,,,,,,,,,,,,,,,,,,,,,,,,,,,,,,,,,,,,,,,,,,,,,,576.7592626996338,None,576.7592626996338,None,576.7592626996338,None,576.7592626996338,None,576.7592626996338,None,576.7592626996338,None,605.2597094997764,None,607.2639512000605,None,,,,,,,,,,,,,,,,,,,,,,,,,,,,,,,,,,,,,,,,,,,,,,,,,,,,,,,,,,,,,,,,,,,,,,,,,,36,001,2023_Apr_12_1019,ExactRep-v3-final,2021.2.3,59.895589826388715,
1,0,1,0,,,,,,,,,,,,,,,,,,,,,,,,,,,,,,,,,,,,,,,,,,,,,,,,,,,,,,,,,,,607.7712808996439,None,609.7830525003374,None,,,,,,,,,,,,,,,,,,,,,,,,,,,,,,,,,,,,,,,,,,,,,,,,,,,,,,,,,,,,,,,,,,,,,,,,,,36,001,2023_Apr_12_1019,ExactRep-v3-final,2021.2.3,59.895589826388715,
2,0,2,0,,,,,,,,,,,,,,,,,,,,,,,,,,,,,,,,,,,,,,,,,,,,,,,,,,,,,,,,,,,610.2835077997297,None,612.2853637002409,None,,,,,,,,,,,,,,,,,,,,,,,,,,,,,,,,,,,,,,,,,,,,,,,,,,,,,,,,,,,,,,,,,,,,,,,,,,36,001,2023_Apr_12_1019,ExactRep-v3-final,2021.2.3,59.895589826388715,
3,0,3,0,,,,,,,,,,,,,,,,,,,,,,,,,,,,,,,,,,,,,,,,,,,,,,,,,,,,,,,,,,,612.7881837999448,None,614.788085299544,None,,,,,,,,,,,,,,,,,,,,,,,,,,,,,,,,,,,,,,,,,,,,,,,,,,,,,,,,,,,,,,,,,,,,,,,,,,36,001,2023_Apr_12_1019,ExactRep-v3-final,2021.2.3,59.895589826388715,
4,0,4,0,,,,,,,,,,,,,,,,,,,,,,,,,,,,,,,,,,,,,,,,,,,,,,,,,,,,,,,,,,,615.2886624997482,None,617.2906069001183,None,,,,,,,,,,,,,,,,,,,,,,,,,,,,,,,,,,,,,,,,,,,,,,,,,,,,,,,,,,,,,,,,,,,,,,,,,,36,001,2023_Apr_12_1019,ExactRep-v3-final,2021.2.3,59.895589826388715,
5,0,5,0,,,,,,,,,,,,,,,,,,,,,,,,,,,,,,,,,,,,,,,,,,,,,,,,,,,,,,,,,,,617.7911678999662,None,619.7931746998802,None,,,,,,,,,,,,,,,,,,,,,,,,,,,,,,,,,,,,,,,,,,,,,,,,,,,,,,,,,,,,,,,,,,,,,,,,,,36,001,2023_Apr_12_1019,ExactRep-v3-final,2021.2.3,59.895589826388715,
6,0,6,0,,,,,,,,,,,,,,,,,,,,,,,,,,,,,,,,,,,,,,,,,,,,,,,,,,,,,,,,,,,620.307898200117,None,622.3122707996517,None,,,,,,,,,,,,,,,,,,,,,,,,,,,,,,,,,,,,,,,,,,,,,,,,,,,,,,,,,,,,,,,,,,,,,,,,,,36,001,2023_Apr_12_1019,ExactRep-v3-final,2021.2.3,59.895589826388715,
7,0,7,0,,,,,,,,,,,,,,,,,,,,,,,,,,,,,,,,,,,,,,,,,,,,,,,,,,,,,,,,,,,622.8127610003576,None,624.814794300124,None,,,,,,,,,,,,,,,,,,,,,,,,,,,,,,,,,,,,,,,,,,,,,,,,,,,,,,,,,,,,,,,,,,,,,,,,,,36,001,2023_Apr_12_1019,ExactRep-v3-final,2021.2.3,59.895589826388715,
8,0,8,0,,,,,,,,,,,,,,,,,,,,,,,,,,,,,,,,,,,,,,,,,,,,,,,,,,,,,,,,,,,625.3161482997239,None,627.3174312002957,None,,,,,,,,,,,,,,,,,,,,,,,,,,,,,,,,,,,,,,,,,,,,,,,,,,,,,,,,,,,,,,,,,,,,,,,,,,36,001,2023_Apr_12_1019,ExactRep-v3-final,2021.2.3,59.895589826388715,
9,0,9,0,,,,,,,,,,,,,,,,,,,,,,,,,,,,,,,,,,,,,,,,,,,,,,,,,,,,,,,,,,,627.8178508002311,None,629.8197285998613,None,,,,,,,,,,,,,,,,,,,,,,,,,,,,,,,,,,,,,,,,,,,,,,,,,,,,,,,,,,,,,,,,,,,,,,,,,,36,001,2023_Apr_12_1019,ExactRep-v3-final,2021.2.3,59.895589826388715,
10,0,10,0,,,,,,,,,,,,,,,,,,,,,,,,,,,,,,,,,,,,,,,,,,,,,,,,,,,,,,,,,,,630.3202441995963,None,632.3221289999783,None,,,,,,,,,,,,,,,,,,,,,,,,,,,,,,,,,,,,,,,,,,,,,,,,,,,,,,,,,,,,,,,,,,,,,,,,,,36,001,2023_Apr_12_1019,ExactRep-v3-final,2021.2.3,59.895589826388715,
11,0,11,0,,,,,,,,,,,,,,,,,,,,,,,,,,,,,,,,,,,,,,,,,,,,,,,,,,,,,,,,,,,632.8228016002104,None,634.8248974001035,None,,,,,,,,,,,,,,,,,,,,,,,,,,,,,,,,,,,,,,,,,,,,,,,,,,,,,,,,,,,,,,,,,,,,,,,,,,36,001,2023_Apr_12_1019,ExactRep-v3-final,2021.2.3,59.895589826388715,
12,0,12,0,,,,,,,,,,,,,,,,,,,,,,,,,,,,,,,,,,,,,,,,,,,,,,,,,,,,,,,,,,,635.32905319985,None,637.3440380999818,None,,,,,,,,,,,,,,,,,,,,,,,,,,,,,,,,,,,,,,,,,,,,,,,,,,,,,,,,,,,,,,,,,,,,,,,,,,36,001,2023_Apr_12_1019,ExactRep-v3-final,2021.2.3,59.895589826388715,
13,0,13,0,,,,,,,,,,,,,,,,,,,,,,,,,,,,,,,,,,,,,,,,,,,,,,,,,,,,,,,,,,,637.8454018998891,None,639.8464805996045,None,,,,,,,,,,,,,,,,,,,,,,,,,,,,,,,,,,,,,,,,,,,,,,,,,,,,,,,,,,,,,,,,,,,,,,,,,,36,001,2023_Apr_12_1019,ExactRep-v3-final,2021.2.3,59.895589826388715,
14,0,14,0,,,,,,,,,,,,,,,,,,,,,,,,,,,,,,,,,,,,,,,,,,,,,,,,,,,,,,,,,,,640.3470126995817,None,642.3489504000172,None,,,,,,,,,,,,,,,,,,,,,,,,,,,,,,,,,,,,,,,,,,,,,,,,,,,,,,,,,,,,,,,,,,,,,,,,,,36,001,2023_Apr_12_1019,ExactRep-v3-final,2021.2.3,59.895589826388715,
,,,,,,,,,,,,,,,,,,,,,,,,,,,,,,,,,,,,,,,,,,,,,,,,,,,,,,,,,,,,,,,,,,space,19.713397200219333,652.9570477996022,None,,,,,,,,,,,,,,,,,,,,,,,,,,,,,,,,,,,,,,,,,,,,,,,,,,,,,,,,,,,,,,,,,,,,,,36,001,2023_Apr_12_1019,ExactRep-v3-final,2021.2.3,59.895589826388715,
,,,,0,0,0,0,,,,,,,,,,,,,,,,,,,,,,,,,,,,,,,,,,,,,,,,,,,,,,,,,,,,,,,,,674.7814760003239,None,,,,,642.9974867003039,None,642.9974867003039,None,642.9974867003039,None,642.9974867003039,None,642.9974867003039,None,642.9974867003039,None,672.7765159001574,None,,,,,,,,,,,,,,,,,,,,,,,,,,,,,,,,,,,,,,,,,,,,,,,,,,,,,,,,36,001,2023_Apr_12_1019,ExactRep-v3-final,2021.2.3,59.895589826388715,
,,,,1,0,1,0,,,,,,,,,,,,,,,,,,,,,,,,,,,,,,,,,,,,,,,,,,,,,,,,,,,,,,,,,677.2839117003605,None,,,,,,,,,,,,,,,,,675.2819483000785,None,,,,,,,,,,,,,,,,,,,,,,,,,,,,,,,,,,,,,,,,,,,,,,,,,,,,,,,,36,001,2023_Apr_12_1019,ExactRep-v3-final,2021.2.3,59.895589826388715,
,,,,2,0,2,0,,,,,,,,,,,,,,,,,,,,,,,,,,,,,,,,,,,,,,,,,,,,,,,,,,,,,,,,,679.7862769002095,None,,,,,,,,,,,,,,,,,677.7844211002812,None,,,,,,,,,,,,,,,,,,,,,,,,,,,,,,,,,,,,,,,,,,,,,,,,,,,,,,,,36,001,2023_Apr_12_1019,ExactRep-v3-final,2021.2.3,59.895589826388715,
,,,,3,0,3,0,,,,,,,,,,,,,,,,,,,,,,,,,,,,,,,,,,,,,,,,,,,,,,,,,,,,,,,,,682.2891100998968,None,,,,,,,,,,,,,,,,,680.2870452003554,None,,,,,,,,,,,,,,,,,,,,,,,,,,,,,,,,,,,,,,,,,,,,,,,,,,,,,,,,36,001,2023_Apr_12_1019,ExactRep-v3-final,2021.2.3,59.895589826388715,
,,,,4,0,4,0,,,,,,,,,,,,,,,,,,,,,,,,,,,,,,,,,,,,,,,,,,,,,,,,,,,,,,,,,684.7915028994903,None,,,,,,,,,,,,,,,,,682.7896424001083,None,,,,,,,,,,,,,,,,,,,,,,,,,,,,,,,,,,,,,,,,,,,,,,,,,,,,,,,,36,001,2023_Apr_12_1019,ExactRep-v3-final,2021.2.3,59.895589826388715,
,,,,5,0,5,0,,,,,,,,,,,,,,,,,,,,,,,,,,,,,,,,,,,,,,,,,,,,,,,,,,,,,,,,,687.2939416002482,None,,,,,,,,,,,,,,,,,685.292108300142,None,,,,,,,,,,,,,,,,,,,,,,,,,,,,,,,,,,,,,,,,,,,,,,,,,,,,,,,,36,001,2023_Apr_12_1019,ExactRep-v3-final,2021.2.3,59.895589826388715,
,,,,6,0,6,0,,,,,,,,,,,,,,,,,,,,,,,,,,,,,,,,,,,,,,,,,,,,,,,,,,,,,,,,,689.7964479997754,None,,,,,,,,,,,,,,,,,687.7944662002847,None,,,,,,,,,,,,,,,,,,,,,,,,,,,,,,,,,,,,,,,,,,,,,,,,,,,,,,,,36,001,2023_Apr_12_1019,ExactRep-v3-final,2021.2.3,59.895589826388715,
,,,,7,0,7,0,,,,,,,,,,,,,,,,,,,,,,,,,,,,,,,,,,,,,,,,,,,,,,,,,,,,,,,,,692.2989178001881,None,,,,,,,,,,,,,,,,,690.2969993995503,None,,,,,,,,,,,,,,,,,,,,,,,,,,,,,,,,,,,,,,,,,,,,,,,,,,,,,,,,36,001,2023_Apr_12_1019,ExactRep-v3-final,2021.2.3,59.895589826388715,
,,,,8,0,8,0,,,,,,,,,,,,,,,,,,,,,,,,,,,,,,,,,,,,,,,,,,,,,,,,,,,,,,,,,694.8014759002253,None,,,,,,,,,,,,,,,,,692.7995092002675,None,,,,,,,,,,,,,,,,,,,,,,,,,,,,,,,,,,,,,,,,,,,,,,,,,,,,,,,,36,001,2023_Apr_12_1019,ExactRep-v3-final,2021.2.3,59.895589826388715,
,,,,9,0,9,0,,,,,,,,,,,,,,,,,,,,,,,,,,,,,,,,,,,,,,,,,,,,,,,,,,,,,,,,,697.3039622996002,None,,,,,,,,,,,,,,,,,695.3020257996395,None,,,,,,,,,,,,,,,,,,,,,,,,,,,,,,,,,,,,,,,,,,,,,,,,,,,,,,,,36,001,2023_Apr_12_1019,ExactRep-v3-final,2021.2.3,59.895589826388715,
,,,,10,0,10,0,,,,,,,,,,,,,,,,,,,,,,,,,,,,,,,,,,,,,,,,,,,,,,,,,,,,,,,,,699.8066405998543,None,,,,,,,,,,,,,,,,,697.8044894998893,None,,,,,,,,,,,,,,,,,,,,,,,,,,,,,,,,,,,,,,,,,,,,,,,,,,,,,,,,36,001,2023_Apr_12_1019,ExactRep-v3-final,2021.2.3,59.895589826388715,
,,,,11,0,11,0,,,,,,,,,,,,,,,,,,,,,,,,,,,,,,,,,,,,,,,,,,,,,,,,,,,,,,,,,702.3089798996225,None,,,,,,,,,,,,,,,,,700.3071668995544,None,,,,,,,,,,,,,,,,,,,,,,,,,,,,,,,,,,,,,,,,,,,,,,,,,,,,,,,,36,001,2023_Apr_12_1019,ExactRep-v3-final,2021.2.3,59.895589826388715,
,,,,12,0,12,0,,,,,,,,,,,,,,,,,,,,,,,,,,,,,,,,,,,,,,,,,,,,,,,,,,,,,,,,,704.811503299512,None,,,,,,,,,,,,,,,,,702.8095009997487,None,,,,,,,,,,,,,,,,,,,,,,,,,,,,,,,,,,,,,,,,,,,,,,,,,,,,,,,,36,001,2023_Apr_12_1019,ExactRep-v3-final,2021.2.3,59.895589826388715,
,,,,13,0,13,0,,,,,,,,,,,,,,,,,,,,,,,,,,,,,,,,,,,,,,,,,,,,,,,,,,,,,,,,,707.3140182001516,None,,,,,,,,,,,,,,,,,705.3120250999928,None,,,,,,,,,,,,,,,,,,,,,,,,,,,,,,,,,,,,,,,,,,,,,,,,,,,,,,,,36,001,2023_Apr_12_1019,ExactRep-v3-final,2021.2.3,59.895589826388715,
,,,,14,0,14,0,,,,,,,,,,,,,,,,,,,,,,,,,,,,,,,,,,,,,,,,,,,,,,,,,,,,,,,,,709.8164106998593,None,,,,,,,,,,,,,,,,,707.8145340001211,None,,,,,,,,,,,,,,,,,,,,,,,,,,,,,,,,,,,,,,,,,,,,,,,,,,,,,,,,36,001,2023_Apr_12_1019,ExactRep-v3-final,2021.2.3,59.895589826388715,
,,,,,,,,,,,,,,,,,,,,,,,,,,,,,,,,,,,,,,,,,,,,,,,,,,,,,,,,,,,,,,,,,,,,,,,,,,,,,,,,,,,,space,24.743533300235868,720.454998199828,None,,,,,,,,,,,,,,,,,,,,,,,,,,,,,,,,,,,,,,,,,,,,,,,,,,,,36,001,2023_Apr_12_1019,ExactRep-v3-final,2021.2.3,59.895589826388715,
,,,,,,,,0,0,0,0,,,,,,,,,,,,,,,,,,,,,,,,,,,,,,,,,,,,,,,,,,,,,,,,,,,,,747.3040348002687,None,,,,,,,,,,,,,,,,,,,,,,,710.4902167003602,None,710.4902167003602,None,710.4902167003602,None,710.4902167003602,None,710.4902167003602,None,710.4902167003602,None,star,13,1,sing,red,745.2892989004031,None,None,745.2892989004031,None,,,,,,,,,,,,,,,,,,,,,,,,,,,,,,36,001,2023_Apr_12_1019,ExactRep-v3-final,2021.2.3,59.895589826388715,
,,,,,,,,1,0,1,0,,,,,,,,,,,,,,,,,,,,,,,,,,,,,,,,,,,,,,,,,,,,,,,,,,,,,749.8230766998604,None,,,,,,,,,,,,,,,,,,,,,,,,,,,,,,,,,,,steam,82,2,aloud,white,747.8077156003565,None,None,747.8077156003565,None,,,,,,,,,,,,,,,,,,,,,,,,,,,,,,36,001,2023_Apr_12_1019,ExactRep-v3-final,2021.2.3,59.895589826388715,
,,,,,,,,2,0,2,0,,,,,,,,,,,,,,,,,,,,,,,,,,,,,,,,,,,,,,,,,,,,,,,,,,,,,752.3421155000106,None,,,,,,,,,,,,,,,,,,,,,,,,,,,,,,,,,,,friend,74,3,silent,blue,750.3268854999915,None,None,750.3268854999915,None,,,,,,,,,,,,,,,,,,,,,,,,,,,,,,36,001,2023_Apr_12_1019,ExactRep-v3-final,2021.2.3,59.895589826388715,
,,,,,,,,3,0,3,0,,,,,,,,,,,,,,,,,,,,,,,,,,,,,,,,,,,,,,,,,,,,,,,,,,,,,754.8447235999629,None,,,,,,,,,,,,,,,,,,,,,,,,,,,,,,,,,,,length,96,4,aloud,white,752.8425454003736,None,None,752.8425454003736,None,,,,,,,,,,,,,,,,,,,,,,,,,,,,,,36,001,2023_Apr_12_1019,ExactRep-v3-final,2021.2.3,59.895589826388715,
,,,,,,,,4,0,4,0,,,,,,,,,,,,,,,,,,,,,,,,,,,,,,,,,,,,,,,,,,,,,,,,,,,,,757.3639685995877,None,,,,,,,,,,,,,,,,,,,,,,,,,,,,,,,,,,,kiss,9,5,sing,red,755.3588771000504,None,None,755.3588771000504,None,,,,,,,,,,,,,,,,,,,,,,,,,,,,,,36,001,2023_Apr_12_1019,ExactRep-v3-final,2021.2.3,59.895589826388715,
,,,,,,,,5,0,5,0,,,,,,,,,,,,,,,,,,,,,,,,,,,,,,,,,,,,,,,,,,,,,,,,,,,,,759.8664945997298,None,,,,,,,,,,,,,,,,,,,,,,,,,,,,,,,,,,,prison,55,6,silent,blue,757.8666493995115,None,None,757.8666493995115,None,,,,,,,,,,,,,,,,,,,,,,,,,,,,,,36,001,2023_Apr_12_1019,ExactRep-v3-final,2021.2.3,59.895589826388715,
,,,,,,,,6,0,6,0,,,,,,,,,,,,,,,,,,,,,,,,,,,,,,,,,,,,,,,,,,,,,,,,,,,,,762.3690641000867,None,,,,,,,,,,,,,,,,,,,,,,,,,,,,,,,,,,,fault,87,7,aloud,white,760.3680309001356,None,None,760.3680309001356,None,,,,,,,,,,,,,,,,,,,,,,,,,,,,,,36,001,2023_Apr_12_1019,ExactRep-v3-final,2021.2.3,59.895589826388715,
,,,,,,,,7,0,7,0,,,,,,,,,,,,,,,,,,,,,,,,,,,,,,,,,,,,,,,,,,,,,,,,,,,,,764.8713512001559,None,,,,,,,,,,,,,,,,,,,,,,,,,,,,,,,,,,,lord,29,8,sing,red,762.8695622002706,None,None,762.8695622002706,None,,,,,,,,,,,,,,,,,,,,,,,,,,,,,,36,001,2023_Apr_12_1019,ExactRep-v3-final,2021.2.3,59.895589826388715,
,,,,,,,,8,0,8,0,,,,,,,,,,,,,,,,,,,,,,,,,,,,,,,,,,,,,,,,,,,,,,,,,,,,,767.3739318996668,None,,,,,,,,,,,,,,,,,,,,,,,,,,,,,,,,,,,seat,109,9,aloud,white,765.3744737999514,None,None,765.3744737999514,None,,,,,,,,,,,,,,,,,,,,,,,,,,,,,,36,001,2023_Apr_12_1019,ExactRep-v3-final,2021.2.3,59.895589826388715,
,,,,,,,,9,0,9,0,,,,,,,,,,,,,,,,,,,,,,,,,,,,,,,,,,,,,,,,,,,,,,,,,,,,,769.876515599899,None,,,,,,,,,,,,,,,,,,,,,,,,,,,,,,,,,,,door,32,10,sing,red,767.8768415004015,None,None,767.8768415004015,None,,,,,,,,,,,,,,,,,,,,,,,,,,,,,,36,001,2023_Apr_12_1019,ExactRep-v3-final,2021.2.3,59.895589826388715,
,,,,,,,,10,0,10,0,,,,,,,,,,,,,,,,,,,,,,,,,,,,,,,,,,,,,,,,,,,,,,,,,,,,,772.3789694998413,None,,,,,,,,,,,,,,,,,,,,,,,,,,,,,,,,,,,arm,62,11,silent,blue,770.3783670002595,None,None,770.3783670002595,None,,,,,,,,,,,,,,,,,,,,,,,,,,,,,,36,001,2023_Apr_12_1019,ExactRep-v3-final,2021.2.3,59.895589826388715,
,,,,,,,,11,0,11,0,,,,,,,,,,,,,,,,,,,,,,,,,,,,,,,,,,,,,,,,,,,,,,,,,,,,,774.8982790997252,None,,,,,,,,,,,,,,,,,,,,,,,,,,,,,,,,,,,volume,116,12,aloud,white,772.8846995998174,None,None,772.8846995998174,None,,,,,,,,,,,,,,,,,,,,,,,,,,,,,,36,001,2023_Apr_12_1019,ExactRep-v3-final,2021.2.3,59.895589826388715,
,,,,,,,,12,0,12,0,,,,,,,,,,,,,,,,,,,,,,,,,,,,,,,,,,,,,,,,,,,,,,,,,,,,,777.4172831997275,None,,,,,,,,,,,,,,,,,,,,,,,,,,,,,,,,,,,meat,43,13,silent,blue,775.4017016002908,None,None,775.4017016002908,None,,,,,,,,,,,,,,,,,,,,,,,,,,,,,,36,001,2023_Apr_12_1019,ExactRep-v3-final,2021.2.3,59.895589826388715,
,,,,,,,,13,0,13,0,,,,,,,,,,,,,,,,,,,,,,,,,,,,,,,,,,,,,,,,,,,,,,,,,,,,,779.9198637995869,None,,,,,,,,,,,,,,,,,,,,,,,,,,,,,,,,,,,person,102,14,aloud,white,777.9179151002318,None,None,777.9179151002318,None,,,,,,,,,,,,,,,,,,,,,,,,,,,,,,36,001,2023_Apr_12_1019,ExactRep-v3-final,2021.2.3,59.895589826388715,
,,,,,,,,14,0,14,0,,,,,,,,,,,,,,,,,,,,,,,,,,,,,,,,,,,,,,,,,,,,,,,,,,,,,782.4390895999968,None,,,,,,,,,,,,,,,,,,,,,,,,,,,,,,,,,,,cost,49,15,silent,blue,780.4297139998525,None,None,780.4297139998525,None,,,,,,,,,,,,,,,,,,,,,,,,,,,,,,36,001,2023_Apr_12_1019,ExactRep-v3-final,2021.2.3,59.895589826388715,
,,,,,,,,15,0,15,0,,,,,,,,,,,,,,,,,,,,,,,,,,,,,,,,,,,,,,,,,,,,,,,,,,,,,784.9415685003623,None,,,,,,,,,,,,,,,,,,,,,,,,,,,,,,,,,,,insect,24,16,sing,red,782.942452499643,None,None,782.942452499643,None,,,,,,,,,,,,,,,,,,,,,,,,,,,,,,36,001,2023_Apr_12_1019,ExactRep-v3-final,2021.2.3,59.895589826388715,
,,,,,,,,16,0,16,0,,,,,,,,,,,,,,,,,,,,,,,,,,,,,,,,,,,,,,,,,,,,,,,,,,,,,787.4608007995412,None,,,,,,,,,,,,,,,,,,,,,,,,,,,,,,,,,,,law,114,17,aloud,white,785.4496181998402,None,None,785.4496181998402,None,,,,,,,,,,,,,,,,,,,,,,,,,,,,,,36,001,2023_Apr_12_1019,ExactRep-v3-final,2021.2.3,59.895589826388715,
,,,,,,,,17,0,17,0,,,,,,,,,,,,,,,,,,,,,,,,,,,,,,,,,,,,,,,,,,,,,,,,,,,,,789.9800231000409,None,,,,,,,,,,,,,,,,,,,,,,,,,,,,,,,,,,,justice,46,18,silent,blue,787.9686976997182,None,None,787.9686976997182,None,,,,,,,,,,,,,,,,,,,,,,,,,,,,,,36,001,2023_Apr_12_1019,ExactRep-v3-final,2021.2.3,59.895589826388715,
,,,,,,,,18,0,18,0,,,,,,,,,,,,,,,,,,,,,,,,,,,,,,,,,,,,,,,,,,,,,,,,,,,,,792.482285999693,None,,,,,,,,,,,,,,,,,,,,,,,,,,,,,,,,,,,child,65,19,silent,blue,790.4803288001567,None,None,790.4803288001567,None,,,,,,,,,,,,,,,,,,,,,,,,,,,,,,36,001,2023_Apr_12_1019,ExactRep-v3-final,2021.2.3,59.895589826388715,
,,,,,,,,19,0,19,0,,,,,,,,,,,,,,,,,,,,,,,,,,,,,,,,,,,,,,,,,,,,,,,,,,,,,794.9849581997842,None,,,,,,,,,,,,,,,,,,,,,,,,,,,,,,,,,,,blossom,70,20,silent,blue,792.9830505996943,None,None,792.9830505996943,None,,,,,,,,,,,,,,,,,,,,,,,,,,,,,,36,001,2023_Apr_12_1019,ExactRep-v3-final,2021.2.3,59.895589826388715,
,,,,,,,,20,0,20,0,,,,,,,,,,,,,,,,,,,,,,,,,,,,,,,,,,,,,,,,,,,,,,,,,,,,,797.504247199744,None,,,,,,,,,,,,,,,,,,,,,,,,,,,,,,,,,,,power,1,21,sing,red,795.492665999569,None,None,795.492665999569,None,,,,,,,,,,,,,,,,,,,,,,,,,,,,,,36,001,2023_Apr_12_1019,ExactRep-v3-final,2021.2.3,59.895589826388715,
,,,,,,,,21,0,21,0,,,,,,,,,,,,,,,,,,,,,,,,,,,,,,,,,,,,,,,,,,,,,,,,,,,,,800.0234048999846,None,,,,,,,,,,,,,,,,,,,,,,,,,,,,,,,,,,,mercy,71,22,silent,blue,798.0122999995947,None,None,798.0122999995947,None,,,,,,,,,,,,,,,,,,,,,,,,,,,,,,36,001,2023_Apr_12_1019,ExactRep-v3-final,2021.2.3,59.895589826388715,
,,,,,,,,22,0,22,0,,,,,,,,,,,,,,,,,,,,,,,,,,,,,,,,,,,,,,,,,,,,,,,,,,,,,802.542578600347,None,,,,,,,,,,,,,,,,,,,,,,,,,,,,,,,,,,,speech,91,23,aloud,white,800.5295315999538,None,None,800.5295315999538,None,,,,,,,,,,,,,,,,,,,,,,,,,,,,,,36,001,2023_Apr_12_1019,ExactRep-v3-final,2021.2.3,59.895589826388715,
,,,,,,,,23,0,23,0,,,,,,,,,,,,,,,,,,,,,,,,,,,,,,,,,,,,,,,,,,,,,,,,,,,,,805.0616205995902,None,,,,,,,,,,,,,,,,,,,,,,,,,,,,,,,,,,,quality,34,24,sing,red,803.0524957999587,None,None,803.0524957999587,None,,,,,,,,,,,,,,,,,,,,,,,,,,,,,,36,001,2023_Apr_12_1019,ExactRep-v3-final,2021.2.3,59.895589826388715,
,,,,,,,,24,0,24,0,,,,,,,,,,,,,,,,,,,,,,,,,,,,,,,,,,,,,,,,,,,,,,,,,,,,,807.5642579998821,None,,,,,,,,,,,,,,,,,,,,,,,,,,,,,,,,,,,colony,58,25,silent,blue,805.5634155003354,None,None,805.5634155003354,None,,,,,,,,,,,,,,,,,,,,,,,,,,,,,,36,001,2023_Apr_12_1019,ExactRep-v3-final,2021.2.3,59.895589826388715,
,,,,,,,,25,0,25,0,,,,,,,,,,,,,,,,,,,,,,,,,,,,,,,,,,,,,,,,,,,,,,,,,,,,,810.0834622997791,None,,,,,,,,,,,,,,,,,,,,,,,,,,,,,,,,,,,poet,118,26,aloud,white,808.0757056996226,None,None,808.0757056996226,None,,,,,,,,,,,,,,,,,,,,,,,,,,,,,,36,001,2023_Apr_12_1019,ExactRep-v3-final,2021.2.3,59.895589826388715,
,,,,,,,,26,0,26,0,,,,,,,,,,,,,,,,,,,,,,,,,,,,,,,,,,,,,,,,,,,,,,,,,,,,,812.5859083998948,None,,,,,,,,,,,,,,,,,,,,,,,,,,,,,,,,,,,cash,78,27,silent,blue,810.5851790998131,None,None,810.5851790998131,None,,,,,,,,,,,,,,,,,,,,,,,,,,,,,,36,001,2023_Apr_12_1019,ExactRep-v3-final,2021.2.3,59.895589826388715,
,,,,,,,,27,0,27,0,,,,,,,,,,,,,,,,,,,,,,,,,,,,,,,,,,,,,,,,,,,,,,,,,,,,,815.0884199002758,None,,,,,,,,,,,,,,,,,,,,,,,,,,,,,,,,,,,party,5,28,sing,red,813.0885939002037,None,None,813.0885939002037,None,,,,,,,,,,,,,,,,,,,,,,,,,,,,,,36,001,2023_Apr_12_1019,ExactRep-v3-final,2021.2.3,59.895589826388715,
,,,,,,,,28,0,28,0,,,,,,,,,,,,,,,,,,,,,,,,,,,,,,,,,,,,,,,,,,,,,,,,,,,,,817.607590300031,None,,,,,,,,,,,,,,,,,,,,,,,,,,,,,,,,,,,effort,77,29,silent,blue,815.592569200322,None,None,815.592569200322,None,,,,,,,,,,,,,,,,,,,,,,,,,,,,,,36,001,2023_Apr_12_1019,ExactRep-v3-final,2021.2.3,59.895589826388715,
,,,,,,,,29,0,29,0,,,,,,,,,,,,,,,,,,,,,,,,,,,,,,,,,,,,,,,,,,,,,,,,,,,,,820.1100987996906,None,,,,,,,,,,,,,,,,,,,,,,,,,,,,,,,,,,,opinion,75,30,silent,blue,818.1097951000556,None,None,818.1097951000556,None,,,,,,,,,,,,,,,,,,,,,,,,,,,,,,36,001,2023_Apr_12_1019,ExactRep-v3-final,2021.2.3,59.895589826388715,
,,,,,,,,30,0,30,0,,,,,,,,,,,,,,,,,,,,,,,,,,,,,,,,,,,,,,,,,,,,,,,,,,,,,822.6297337999567,None,,,,,,,,,,,,,,,,,,,,,,,,,,,,,,,,,,,church,63,31,silent,blue,820.6209656996652,None,None,820.6209656996652,None,,,,,,,,,,,,,,,,,,,,,,,,,,,,,,36,001,2023_Apr_12_1019,ExactRep-v3-final,2021.2.3,59.895589826388715,
,,,,,,,,31,0,31,0,,,,,,,,,,,,,,,,,,,,,,,,,,,,,,,,,,,,,,,,,,,,,,,,,,,,,825.1317807994783,None,,,,,,,,,,,,,,,,,,,,,,,,,,,,,,,,,,,sugar,51,32,silent,blue,823.1297492999583,None,None,823.1297492999583,None,,,,,,,,,,,,,,,,,,,,,,,,,,,,,,36,001,2023_Apr_12_1019,ExactRep-v3-final,2021.2.3,59.895589826388715,
,,,,,,,,32,0,32,0,,,,,,,,,,,,,,,,,,,,,,,,,,,,,,,,,,,,,,,,,,,,,,,,,,,,,827.6508146999404,None,,,,,,,,,,,,,,,,,,,,,,,,,,,,,,,,,,,boy,21,33,sing,red,825.6358008999377,None,None,825.6358008999377,None,,,,,,,,,,,,,,,,,,,,,,,,,,,,,,36,001,2023_Apr_12_1019,ExactRep-v3-final,2021.2.3,59.895589826388715,
,,,,,,,,33,0,33,0,,,,,,,,,,,,,,,,,,,,,,,,,,,,,,,,,,,,,,,,,,,,,,,,,,,,,830.1533048003912,None,,,,,,,,,,,,,,,,,,,,,,,,,,,,,,,,,,,table,119,34,aloud,white,828.1512559996918,None,None,828.1512559996918,None,,,,,,,,,,,,,,,,,,,,,,,,,,,,,,36,001,2023_Apr_12_1019,ExactRep-v3-final,2021.2.3,59.895589826388715,
,,,,,,,,34,0,34,0,,,,,,,,,,,,,,,,,,,,,,,,,,,,,,,,,,,,,,,,,,,,,,,,,,,,,832.6726278001443,None,,,,,,,,,,,,,,,,,,,,,,,,,,,,,,,,,,,boulder,112,35,aloud,white,830.6633069003001,None,None,830.6633069003001,None,,,,,,,,,,,,,,,,,,,,,,,,,,,,,,36,001,2023_Apr_12_1019,ExactRep-v3-final,2021.2.3,59.895589826388715,
,,,,,,,,35,0,35,0,,,,,,,,,,,,,,,,,,,,,,,,,,,,,,,,,,,,,,,,,,,,,,,,,,,,,835.1751167001203,None,,,,,,,,,,,,,,,,,,,,,,,,,,,,,,,,,,,origin,81,36,aloud,white,833.1731585999951,None,None,833.1731585999951,None,,,,,,,,,,,,,,,,,,,,,,,,,,,,,,36,001,2023_Apr_12_1019,ExactRep-v3-final,2021.2.3,59.895589826388715,
,,,,,,,,36,0,36,0,,,,,,,,,,,,,,,,,,,,,,,,,,,,,,,,,,,,,,,,,,,,,,,,,,,,,837.6942122001201,None,,,,,,,,,,,,,,,,,,,,,,,,,,,,,,,,,,,shadow,0,37,sing,red,835.6846765000373,None,None,835.6846765000373,None,,,,,,,,,,,,,,,,,,,,,,,,,,,,,,36,001,2023_Apr_12_1019,ExactRep-v3-final,2021.2.3,59.895589826388715,
,,,,,,,,37,0,37,0,,,,,,,,,,,,,,,,,,,,,,,,,,,,,,,,,,,,,,,,,,,,,,,,,,,,,840.2135950000957,None,,,,,,,,,,,,,,,,,,,,,,,,,,,,,,,,,,,book,99,38,aloud,white,838.1995940003544,None,None,838.1995940003544,None,,,,,,,,,,,,,,,,,,,,,,,,,,,,,,36,001,2023_Apr_12_1019,ExactRep-v3-final,2021.2.3,59.895589826388715,
,,,,,,,,38,0,38,0,,,,,,,,,,,,,,,,,,,,,,,,,,,,,,,,,,,,,,,,,,,,,,,,,,,,,842.7327554002404,None,,,,,,,,,,,,,,,,,,,,,,,,,,,,,,,,,,,chair,113,39,aloud,white,840.7181909997016,None,None,840.7181909997016,None,,,,,,,,,,,,,,,,,,,,,,,,,,,,,,36,001,2023_Apr_12_1019,ExactRep-v3-final,2021.2.3,59.895589826388715,
,,,,,,,,39,0,39,0,,,,,,,,,,,,,,,,,,,,,,,,,,,,,,,,,,,,,,,,,,,,,,,,,,,,,845.2518758000806,None,,,,,,,,,,,,,,,,,,,,,,,,,,,,,,,,,,,horse,37,40,sing,red,843.2403271002695,None,None,843.2403271002695,None,,,,,,,,,,,,,,,,,,,,,,,,,,,,,,36,001,2023_Apr_12_1019,ExactRep-v3-final,2021.2.3,59.895589826388715,
,,,,,,,,40,0,40,0,,,,,,,,,,,,,,,,,,,,,,,,,,,,,,,,,,,,,,,,,,,,,,,,,,,,,847.7543999999762,None,,,,,,,,,,,,,,,,,,,,,,,,,,,,,,,,,,,iron,104,41,aloud,white,845.7528429999948,None,None,845.7528429999948,None,,,,,,,,,,,,,,,,,,,,,,,,,,,,,,36,001,2023_Apr_12_1019,ExactRep-v3-final,2021.2.3,59.895589826388715,
,,,,,,,,41,0,41,0,,,,,,,,,,,,,,,,,,,,,,,,,,,,,,,,,,,,,,,,,,,,,,,,,,,,,850.2569129997864,None,,,,,,,,,,,,,,,,,,,,,,,,,,,,,,,,,,,engine,117,42,aloud,white,848.2576545998454,None,None,848.2576545998454,None,,,,,,,,,,,,,,,,,,,,,,,,,,,,,,36,001,2023_Apr_12_1019,ExactRep-v3-final,2021.2.3,59.895589826388715,
,,,,,,,,42,0,42,0,,,,,,,,,,,,,,,,,,,,,,,,,,,,,,,,,,,,,,,,,,,,,,,,,,,,,852.7760218996555,None,,,,,,,,,,,,,,,,,,,,,,,,,,,,,,,,,,,palace,42,43,silent,blue,850.7616317002103,None,None,850.7616317002103,None,,,,,,,,,,,,,,,,,,,,,,,,,,,,,,36,001,2023_Apr_12_1019,ExactRep-v3-final,2021.2.3,59.895589826388715,
,,,,,,,,43,0,43,0,,,,,,,,,,,,,,,,,,,,,,,,,,,,,,,,,,,,,,,,,,,,,,,,,,,,,855.2785889999941,None,,,,,,,,,,,,,,,,,,,,,,,,,,,,,,,,,,,blood,69,44,silent,blue,853.27647279948,None,None,853.27647279948,None,,,,,,,,,,,,,,,,,,,,,,,,,,,,,,36,001,2023_Apr_12_1019,ExactRep-v3-final,2021.2.3,59.895589826388715,
,,,,,,,,44,0,44,0,,,,,,,,,,,,,,,,,,,,,,,,,,,,,,,,,,,,,,,,,,,,,,,,,,,,,857.7811525994912,None,,,,,,,,,,,,,,,,,,,,,,,,,,,,,,,,,,,teacher,19,45,sing,red,855.7821456994861,None,None,855.7821456994861,None,,,,,,,,,,,,,,,,,,,,,,,,,,,,,,36,001,2023_Apr_12_1019,ExactRep-v3-final,2021.2.3,59.895589826388715,
,,,,,,,,45,0,45,0,,,,,,,,,,,,,,,,,,,,,,,,,,,,,,,,,,,,,,,,,,,,,,,,,,,,,860.3001533001661,None,,,,,,,,,,,,,,,,,,,,,,,,,,,,,,,,,,,charm,31,46,sing,red,858.2956590997055,None,None,858.2956590997055,None,,,,,,,,,,,,,,,,,,,,,,,,,,,,,,36,001,2023_Apr_12_1019,ExactRep-v3-final,2021.2.3,59.895589826388715,
,,,,,,,,46,0,46,0,,,,,,,,,,,,,,,,,,,,,,,,,,,,,,,,,,,,,,,,,,,,,,,,,,,,,862.8200075002387,None,,,,,,,,,,,,,,,,,,,,,,,,,,,,,,,,,,,disease,64,47,silent,blue,860.8049165001139,None,None,860.8049165001139,None,,,,,,,,,,,,,,,,,,,,,,,,,,,,,,36,001,2023_Apr_12_1019,ExactRep-v3-final,2021.2.3,59.895589826388715,
,,,,,,,,47,0,47,0,,,,,,,,,,,,,,,,,,,,,,,,,,,,,,,,,,,,,,,,,,,,,,,,,,,,,865.3218425996602,None,,,,,,,,,,,,,,,,,,,,,,,,,,,,,,,,,,,officer,23,48,sing,red,863.3202387997881,None,None,863.3202387997881,None,,,,,,,,,,,,,,,,,,,,,,,,,,,,,,36,001,2023_Apr_12_1019,ExactRep-v3-final,2021.2.3,59.895589826388715,
,,,,,,,,48,0,48,0,,,,,,,,,,,,,,,,,,,,,,,,,,,,,,,,,,,,,,,,,,,,,,,,,,,,,867.8244748003781,None,,,,,,,,,,,,,,,,,,,,,,,,,,,,,,,,,,,spirit,105,49,aloud,white,865.824009699747,None,None,865.824009699747,None,,,,,,,,,,,,,,,,,,,,,,,,,,,,,,36,001,2023_Apr_12_1019,ExactRep-v3-final,2021.2.3,59.895589826388715,
,,,,,,,,49,0,49,0,,,,,,,,,,,,,,,,,,,,,,,,,,,,,,,,,,,,,,,,,,,,,,,,,,,,,870.3436339003965,None,,,,,,,,,,,,,,,,,,,,,,,,,,,,,,,,,,,doll,88,50,aloud,white,868.3280812995508,None,None,868.3280812995508,None,,,,,,,,,,,,,,,,,,,,,,,,,,,,,,36,001,2023_Apr_12_1019,ExactRep-v3-final,2021.2.3,59.895589826388715,
,,,,,,,,50,0,50,0,,,,,,,,,,,,,,,,,,,,,,,,,,,,,,,,,,,,,,,,,,,,,,,,,,,,,872.8461231002584,None,,,,,,,,,,,,,,,,,,,,,,,,,,,,,,,,,,,toy,18,51,sing,red,870.8439926002175,None,None,870.8439926002175,None,,,,,,,,,,,,,,,,,,,,,,,,,,,,,,36,001,2023_Apr_12_1019,ExactRep-v3-final,2021.2.3,59.895589826388715,
,,,,,,,,51,0,51,0,,,,,,,,,,,,,,,,,,,,,,,,,,,,,,,,,,,,,,,,,,,,,,,,,,,,,875.3488186998293,None,,,,,,,,,,,,,,,,,,,,,,,,,,,,,,,,,,,dawn,33,52,sing,red,873.3483822001144,None,None,873.3483822001144,None,,,,,,,,,,,,,,,,,,,,,,,,,,,,,,36,001,2023_Apr_12_1019,ExactRep-v3-final,2021.2.3,59.895589826388715,
,,,,,,,,52,0,52,0,,,,,,,,,,,,,,,,,,,,,,,,,,,,,,,,,,,,,,,,,,,,,,,,,,,,,877.8510210001841,None,,,,,,,,,,,,,,,,,,,,,,,,,,,,,,,,,,,shoes,45,53,silent,blue,875.8489969996735,None,None,875.8489969996735,None,,,,,,,,,,,,,,,,,,,,,,,,,,,,,,36,001,2023_Apr_12_1019,ExactRep-v3-final,2021.2.3,59.895589826388715,
,,,,,,,,53,0,53,0,,,,,,,,,,,,,,,,,,,,,,,,,,,,,,,,,,,,,,,,,,,,,,,,,,,,,880.370396300219,None,,,,,,,,,,,,,,,,,,,,,,,,,,,,,,,,,,,lip,14,54,sing,red,878.3594754999503,None,None,878.3594754999503,None,,,,,,,,,,,,,,,,,,,,,,,,,,,,,,36,001,2023_Apr_12_1019,ExactRep-v3-final,2021.2.3,59.895589826388715,
,,,,,,,,54,0,54,0,,,,,,,,,,,,,,,,,,,,,,,,,,,,,,,,,,,,,,,,,,,,,,,,,,,,,882.8894071998075,None,,,,,,,,,,,,,,,,,,,,,,,,,,,,,,,,,,,thought,47,55,silent,blue,880.8742295997217,None,None,880.8742295997217,None,,,,,,,,,,,,,,,,,,,,,,,,,,,,,,36,001,2023_Apr_12_1019,ExactRep-v3-final,2021.2.3,59.895589826388715,
,,,,,,,,55,0,55,0,,,,,,,,,,,,,,,,,,,,,,,,,,,,,,,,,,,,,,,,,,,,,,,,,,,,,885.4087469000369,None,,,,,,,,,,,,,,,,,,,,,,,,,,,,,,,,,,,garden,59,56,silent,blue,883.3991243001074,None,None,883.3991243001074,None,,,,,,,,,,,,,,,,,,,,,,,,,,,,,,36,001,2023_Apr_12_1019,ExactRep-v3-final,2021.2.3,59.895589826388715,
,,,,,,,,56,0,56,0,,,,,,,,,,,,,,,,,,,,,,,,,,,,,,,,,,,,,,,,,,,,,,,,,,,,,887.9110436998308,None,,,,,,,,,,,,,,,,,,,,,,,,,,,,,,,,,,,flesh,8,57,sing,red,885.909075899981,None,None,885.909075899981,None,,,,,,,,,,,,,,,,,,,,,,,,,,,,,,36,001,2023_Apr_12_1019,ExactRep-v3-final,2021.2.3,59.895589826388715,
,,,,,,,,57,0,57,0,,,,,,,,,,,,,,,,,,,,,,,,,,,,,,,,,,,,,,,,,,,,,,,,,,,,,890.4304317999631,None,,,,,,,,,,,,,,,,,,,,,,,,,,,,,,,,,,,excuse,22,58,sing,red,888.4258853998035,None,None,888.4258853998035,None,,,,,,,,,,,,,,,,,,,,,,,,,,,,,,36,001,2023_Apr_12_1019,ExactRep-v3-final,2021.2.3,59.895589826388715,
,,,,,,,,58,0,58,0,,,,,,,,,,,,,,,,,,,,,,,,,,,,,,,,,,,,,,,,,,,,,,,,,,,,,892.9328910000622,None,,,,,,,,,,,,,,,,,,,,,,,,,,,,,,,,,,,rock,40,59,silent,blue,890.9336753003299,None,None,890.9336753003299,None,,,,,,,,,,,,,,,,,,,,,,,,,,,,,,36,001,2023_Apr_12_1019,ExactRep-v3-final,2021.2.3,59.895589826388715,
,,,,,,,,59,0,59,0,,,,,,,,,,,,,,,,,,,,,,,,,,,,,,,,,,,,,,,,,,,,,,,,,,,,,895.4521313002333,None,,,,,,,,,,,,,,,,,,,,,,,,,,,,,,,,,,,mind,68,60,silent,blue,893.4401107998565,None,None,893.4401107998565,None,,,,,,,,,,,,,,,,,,,,,,,,,,,,,,36,001,2023_Apr_12_1019,ExactRep-v3-final,2021.2.3,59.895589826388715,
,,,,,,,,60,0,60,0,,,,,,,,,,,,,,,,,,,,,,,,,,,,,,,,,,,,,,,,,,,,,,,,,,,,,897.9713324001059,None,,,,,,,,,,,,,,,,,,,,,,,,,,,,,,,,,,,soil,3,61,sing,red,895.955878900364,None,None,895.955878900364,None,,,,,,,,,,,,,,,,,,,,,,,,,,,,,,36,001,2023_Apr_12_1019,ExactRep-v3-final,2021.2.3,59.895589826388715,
,,,,,,,,61,0,61,0,,,,,,,,,,,,,,,,,,,,,,,,,,,,,,,,,,,,,,,,,,,,,,,,,,,,,900.4738050000742,None,,,,,,,,,,,,,,,,,,,,,,,,,,,,,,,,,,,forest,41,62,silent,blue,898.4740709997714,None,None,898.4740709997714,None,,,,,,,,,,,,,,,,,,,,,,,,,,,,,,36,001,2023_Apr_12_1019,ExactRep-v3-final,2021.2.3,59.895589826388715,
,,,,,,,,62,0,62,0,,,,,,,,,,,,,,,,,,,,,,,,,,,,,,,,,,,,,,,,,,,,,,,,,,,,,902.9927904997021,None,,,,,,,,,,,,,,,,,,,,,,,,,,,,,,,,,,,green,76,63,silent,blue,900.9858969999477,None,None,900.9858969999477,None,,,,,,,,,,,,,,,,,,,,,,,,,,,,,,36,001,2023_Apr_12_1019,ExactRep-v3-final,2021.2.3,59.895589826388715,
,,,,,,,,63,0,63,0,,,,,,,,,,,,,,,,,,,,,,,,,,,,,,,,,,,,,,,,,,,,,,,,,,,,,905.5119222002104,None,,,,,,,,,,,,,,,,,,,,,,,,,,,,,,,,,,,girl,86,64,aloud,white,903.5036177001894,None,None,903.5036177001894,None,,,,,,,,,,,,,,,,,,,,,,,,,,,,,,36,001,2023_Apr_12_1019,ExactRep-v3-final,2021.2.3,59.895589826388715,
,,,,,,,,64,0,64,0,,,,,,,,,,,,,,,,,,,,,,,,,,,,,,,,,,,,,,,,,,,,,,,,,,,,,908.0171031001955,None,,,,,,,,,,,,,,,,,,,,,,,,,,,,,,,,,,,hour,89,65,aloud,white,906.0125276995823,None,None,906.0125276995823,None,,,,,,,,,,,,,,,,,,,,,,,,,,,,,,36,001,2023_Apr_12_1019,ExactRep-v3-final,2021.2.3,59.895589826388715,
,,,,,,,,65,0,65,0,,,,,,,,,,,,,,,,,,,,,,,,,,,,,,,,,,,,,,,,,,,,,,,,,,,,,910.5338334999979,None,,,,,,,,,,,,,,,,,,,,,,,,,,,,,,,,,,,city,17,66,sing,red,908.5318400003016,None,None,908.5318400003016,None,,,,,,,,,,,,,,,,,,,,,,,,,,,,,,36,001,2023_Apr_12_1019,ExactRep-v3-final,2021.2.3,59.895589826388715,
,,,,,,,,66,0,66,0,,,,,,,,,,,,,,,,,,,,,,,,,,,,,,,,,,,,,,,,,,,,,,,,,,,,,913.0530067998916,None,,,,,,,,,,,,,,,,,,,,,,,,,,,,,,,,,,,owner,85,67,aloud,white,911.0422326996922,None,None,911.0422326996922,None,,,,,,,,,,,,,,,,,,,,,,,,,,,,,,36,001,2023_Apr_12_1019,ExactRep-v3-final,2021.2.3,59.895589826388715,
,,,,,,,,67,0,67,0,,,,,,,,,,,,,,,,,,,,,,,,,,,,,,,,,,,,,,,,,,,,,,,,,,,,,915.5555937001482,None,,,,,,,,,,,,,,,,,,,,,,,,,,,,,,,,,,,fire,106,68,aloud,white,913.5535158002749,None,None,913.5535158002749,None,,,,,,,,,,,,,,,,,,,,,,,,,,,,,,36,001,2023_Apr_12_1019,ExactRep-v3-final,2021.2.3,59.895589826388715,
,,,,,,,,68,0,68,0,,,,,,,,,,,,,,,,,,,,,,,,,,,,,,,,,,,,,,,,,,,,,,,,,,,,,918.0745296003297,None,,,,,,,,,,,,,,,,,,,,,,,,,,,,,,,,,,,hide,108,69,aloud,white,916.060339000076,None,None,916.060339000076,None,,,,,,,,,,,,,,,,,,,,,,,,,,,,,,36,001,2023_Apr_12_1019,ExactRep-v3-final,2021.2.3,59.895589826388715,
,,,,,,,,69,0,69,0,,,,,,,,,,,,,,,,,,,,,,,,,,,,,,,,,,,,,,,,,,,,,,,,,,,,,920.5772390002385,None,,,,,,,,,,,,,,,,,,,,,,,,,,,,,,,,,,,flood,35,70,sing,red,918.5782135995105,None,None,918.5782135995105,None,,,,,,,,,,,,,,,,,,,,,,,,,,,,,,36,001,2023_Apr_12_1019,ExactRep-v3-final,2021.2.3,59.895589826388715,
,,,,,,,,70,0,70,0,,,,,,,,,,,,,,,,,,,,,,,,,,,,,,,,,,,,,,,,,,,,,,,,,,,,,923.0963762002066,None,,,,,,,,,,,,,,,,,,,,,,,,,,,,,,,,,,,river,12,71,sing,red,921.0812927000225,None,None,921.0812927000225,None,,,,,,,,,,,,,,,,,,,,,,,,,,,,,,36,001,2023_Apr_12_1019,ExactRep-v3-final,2021.2.3,59.895589826388715,
,,,,,,,,71,0,71,0,,,,,,,,,,,,,,,,,,,,,,,,,,,,,,,,,,,,,,,,,,,,,,,,,,,,,925.6155941998586,None,,,,,,,,,,,,,,,,,,,,,,,,,,,,,,,,,,,letter,15,72,sing,red,923.600198299624,None,None,923.600198299624,None,,,,,,,,,,,,,,,,,,,,,,,,,,,,,,36,001,2023_Apr_12_1019,ExactRep-v3-final,2021.2.3,59.895589826388715,
,,,,,,,,72,0,72,0,,,,,,,,,,,,,,,,,,,,,,,,,,,,,,,,,,,,,,,,,,,,,,,,,,,,,928.1180983996019,None,,,,,,,,,,,,,,,,,,,,,,,,,,,,,,,,,,,shore,54,73,silent,blue,926.1159638995305,None,None,926.1159638995305,None,,,,,,,,,,,,,,,,,,,,,,,,,,,,,,36,001,2023_Apr_12_1019,ExactRep-v3-final,2021.2.3,59.895589826388715,
,,,,,,,,73,0,73,0,,,,,,,,,,,,,,,,,,,,,,,,,,,,,,,,,,,,,,,,,,,,,,,,,,,,,930.6205660002306,None,,,,,,,,,,,,,,,,,,,,,,,,,,,,,,,,,,,flower,26,74,sing,red,928.6212761998177,None,None,928.6212761998177,None,,,,,,,,,,,,,,,,,,,,,,,,,,,,,,36,001,2023_Apr_12_1019,ExactRep-v3-final,2021.2.3,59.895589826388715,
,,,,,,,,74,0,74,0,,,,,,,,,,,,,,,,,,,,,,,,,,,,,,,,,,,,,,,,,,,,,,,,,,,,,933.1231381995603,None,,,,,,,,,,,,,,,,,,,,,,,,,,,,,,,,,,,moment,50,75,silent,blue,931.1225459994748,None,None,931.1225459994748,None,,,,,,,,,,,,,,,,,,,,,,,,,,,,,,36,001,2023_Apr_12_1019,ExactRep-v3-final,2021.2.3,59.895589826388715,
,,,,,,,,75,0,75,0,,,,,,,,,,,,,,,,,,,,,,,,,,,,,,,,,,,,,,,,,,,,,,,,,,,,,935.62569839973,None,,,,,,,,,,,,,,,,,,,,,,,,,,,,,,,,,,,style,98,76,aloud,white,933.6257368000224,None,None,933.6257368000224,None,,,,,,,,,,,,,,,,,,,,,,,,,,,,,,36,001,2023_Apr_12_1019,ExactRep-v3-final,2021.2.3,59.895589826388715,
,,,,,,,,76,0,76,0,,,,,,,,,,,,,,,,,,,,,,,,,,,,,,,,,,,,,,,,,,,,,,,,,,,,,938.1280996995047,None,,,,,,,,,,,,,,,,,,,,,,,,,,,,,,,,,,,master,67,77,silent,blue,936.1278248997405,None,None,936.1278248997405,None,,,,,,,,,,,,,,,,,,,,,,,,,,,,,,36,001,2023_Apr_12_1019,ExactRep-v3-final,2021.2.3,59.895589826388715,
,,,,,,,,77,0,77,0,,,,,,,,,,,,,,,,,,,,,,,,,,,,,,,,,,,,,,,,,,,,,,,,,,,,,940.6471852995455,None,,,,,,,,,,,,,,,,,,,,,,,,,,,,,,,,,,,body,110,78,aloud,white,938.6327560003847,None,None,938.6327560003847,None,,,,,,,,,,,,,,,,,,,,,,,,,,,,,,36,001,2023_Apr_12_1019,ExactRep-v3-final,2021.2.3,59.895589826388715,
,,,,,,,,78,0,78,0,,,,,,,,,,,,,,,,,,,,,,,,,,,,,,,,,,,,,,,,,,,,,,,,,,,,,943.1666500996798,None,,,,,,,,,,,,,,,,,,,,,,,,,,,,,,,,,,,grief,72,79,silent,blue,941.1584454998374,None,None,941.1584454998374,None,,,,,,,,,,,,,,,,,,,,,,,,,,,,,,36,001,2023_Apr_12_1019,ExactRep-v3-final,2021.2.3,59.895589826388715,
,,,,,,,,79,0,79,0,,,,,,,,,,,,,,,,,,,,,,,,,,,,,,,,,,,,,,,,,,,,,,,,,,,,,945.66909640003,None,,,,,,,,,,,,,,,,,,,,,,,,,,,,,,,,,,,factory,39,80,silent,blue,943.6670201998204,None,None,943.6670201998204,None,,,,,,,,,,,,,,,,,,,,,,,,,,,,,,36,001,2023_Apr_12_1019,ExactRep-v3-final,2021.2.3,59.895589826388715,
,,,,,,,,80,0,80,0,,,,,,,,,,,,,,,,,,,,,,,,,,,,,,,,,,,,,,,,,,,,,,,,,,,,,948.1881531998515,None,,,,,,,,,,,,,,,,,,,,,,,,,,,,,,,,,,,maiden,101,81,aloud,white,946.1738903000951,None,None,946.1738903000951,None,,,,,,,,,,,,,,,,,,,,,,,,,,,,,,36,001,2023_Apr_12_1019,ExactRep-v3-final,2021.2.3,59.895589826388715,
,,,,,,,,81,0,81,0,,,,,,,,,,,,,,,,,,,,,,,,,,,,,,,,,,,,,,,,,,,,,,,,,,,,,950.7072099000216,None,,,,,,,,,,,,,,,,,,,,,,,,,,,,,,,,,,,meadow,60,82,silent,blue,948.6919369995594,None,None,948.6919369995594,None,,,,,,,,,,,,,,,,,,,,,,,,,,,,,,36,001,2023_Apr_12_1019,ExactRep-v3-final,2021.2.3,59.895589826388715,
,,,,,,,,82,0,82,0,,,,,,,,,,,,,,,,,,,,,,,,,,,,,,,,,,,,,,,,,,,,,,,,,,,,,953.226586099714,None,,,,,,,,,,,,,,,,,,,,,,,,,,,,,,,,,,,slave,44,83,silent,blue,951.2127042002976,None,None,951.2127042002976,None,,,,,,,,,,,,,,,,,,,,,,,,,,,,,,36,001,2023_Apr_12_1019,ExactRep-v3-final,2021.2.3,59.895589826388715,
,,,,,,,,83,0,83,0,,,,,,,,,,,,,,,,,,,,,,,,,,,,,,,,,,,,,,,,,,,,,,,,,,,,,955.7457782998681,None,,,,,,,,,,,,,,,,,,,,,,,,,,,,,,,,,,,mother,115,84,aloud,white,953.7314441995695,None,None,953.7314441995695,None,,,,,,,,,,,,,,,,,,,,,,,,,,,,,,36,001,2023_Apr_12_1019,ExactRep-v3-final,2021.2.3,59.895589826388715,
,,,,,,,,84,0,84,0,,,,,,,,,,,,,,,,,,,,,,,,,,,,,,,,,,,,,,,,,,,,,,,,,,,,,958.2646746998653,None,,,,,,,,,,,,,,,,,,,,,,,,,,,,,,,,,,,army,73,85,silent,blue,956.2510970998555,None,None,956.2510970998555,None,,,,,,,,,,,,,,,,,,,,,,,,,,,,,,36,001,2023_Apr_12_1019,ExactRep-v3-final,2021.2.3,59.895589826388715,
,,,,,,,,85,0,85,0,,,,,,,,,,,,,,,,,,,,,,,,,,,,,,,,,,,,,,,,,,,,,,,,,,,,,960.7674086997285,None,,,,,,,,,,,,,,,,,,,,,,,,,,,,,,,,,,,window,61,86,silent,blue,958.7666442999616,None,None,958.7666442999616,None,,,,,,,,,,,,,,,,,,,,,,,,,,,,,,36,001,2023_Apr_12_1019,ExactRep-v3-final,2021.2.3,59.895589826388715,
,,,,,,,,86,0,86,0,,,,,,,,,,,,,,,,,,,,,,,,,,,,,,,,,,,,,,,,,,,,,,,,,,,,,963.2866017995402,None,,,,,,,,,,,,,,,,,,,,,,,,,,,,,,,,,,,dress,36,87,sing,red,961.3323587998748,None,None,961.3323587998748,None,,,,,,,,,,,,,,,,,,,,,,,,,,,,,,36,001,2023_Apr_12_1019,ExactRep-v3-final,2021.2.3,59.895589826388715,
,,,,,,,,87,0,87,0,,,,,,,,,,,,,,,,,,,,,,,,,,,,,,,,,,,,,,,,,,,,,,,,,,,,,965.789103699848,None,,,,,,,,,,,,,,,,,,,,,,,,,,,,,,,,,,,honour,111,88,aloud,white,963.7880135001615,None,None,963.7880135001615,None,,,,,,,,,,,,,,,,,,,,,,,,,,,,,,36,001,2023_Apr_12_1019,ExactRep-v3-final,2021.2.3,59.895589826388715,
,,,,,,,,88,0,88,0,,,,,,,,,,,,,,,,,,,,,,,,,,,,,,,,,,,,,,,,,,,,,,,,,,,,,968.291654500179,None,,,,,,,,,,,,,,,,,,,,,,,,,,,,,,,,,,,brain,52,89,silent,blue,966.2913282001391,None,None,966.2913282001391,None,,,,,,,,,,,,,,,,,,,,,,,,,,,,,,36,001,2023_Apr_12_1019,ExactRep-v3-final,2021.2.3,59.895589826388715,
,,,,,,,,89,0,89,0,,,,,,,,,,,,,,,,,,,,,,,,,,,,,,,,,,,,,,,,,,,,,,,,,,,,,970.8106741998345,None,,,,,,,,,,,,,,,,,,,,,,,,,,,,,,,,,,,devil,27,90,sing,red,968.7950801001862,None,None,968.7950801001862,None,,,,,,,,,,,,,,,,,,,,,,,,,,,,,,36,001,2023_Apr_12_1019,ExactRep-v3-final,2021.2.3,59.895589826388715,
,,,,,,,,90,0,90,0,,,,,,,,,,,,,,,,,,,,,,,,,,,,,,,,,,,,,,,,,,,,,,,,,,,,,973.3299685996026,None,,,,,,,,,,,,,,,,,,,,,,,,,,,,,,,,,,,doctor,79,91,sing,red,971.3143963003531,None,None,971.3143963003531,None,,,,,,,,,,,,,,,,,,,,,,,,,,,,,,36,001,2023_Apr_12_1019,ExactRep-v3-final,2021.2.3,59.895589826388715,
,,,,,,,,91,0,91,0,,,,,,,,,,,,,,,,,,,,,,,,,,,,,,,,,,,,,,,,,,,,,,,,,,,,,975.8492014994845,None,,,,,,,,,,,,,,,,,,,,,,,,,,,,,,,,,,,love,83,92,aloud,white,973.8350932998583,None,None,973.8350932998583,None,,,,,,,,,,,,,,,,,,,,,,,,,,,,,,36,001,2023_Apr_12_1019,ExactRep-v3-final,2021.2.3,59.895589826388715,
,,,,,,,,92,0,92,0,,,,,,,,,,,,,,,,,,,,,,,,,,,,,,,,,,,,,,,,,,,,,,,,,,,,,978.3517819996923,None,,,,,,,,,,,,,,,,,,,,,,,,,,,,,,,,,,,ocean,53,93,silent,blue,976.3513521002606,None,None,976.3513521002606,None,,,,,,,,,,,,,,,,,,,,,,,,,,,,,,36,001,2023_Apr_12_1019,ExactRep-v3-final,2021.2.3,59.895589826388715,
,,,,,,,,93,0,93,0,,,,,,,,,,,,,,,,,,,,,,,,,,,,,,,,,,,,,,,,,,,,,,,,,,,,,980.854149799794,None,,,,,,,,,,,,,,,,,,,,,,,,,,,,,,,,,,,history,56,94,silent,blue,978.854518099688,None,None,978.854518099688,None,,,,,,,,,,,,,,,,,,,,,,,,,,,,,,36,001,2023_Apr_12_1019,ExactRep-v3-final,2021.2.3,59.895589826388715,
,,,,,,,,94,0,94,0,,,,,,,,,,,,,,,,,,,,,,,,,,,,,,,,,,,,,,,,,,,,,,,,,,,,,983.3566987002268,None,,,,,,,,,,,,,,,,,,,,,,,,,,,,,,,,,,,animal,6,95,sing,red,981.3575045000762,None,None,981.3575045000762,None,,,,,,,,,,,,,,,,,,,,,,,,,,,,,,36,001,2023_Apr_12_1019,ExactRep-v3-final,2021.2.3,59.895589826388715,
,,,,,,,,95,0,95,0,,,,,,,,,,,,,,,,,,,,,,,,,,,,,,,,,,,,,,,,,,,,,,,,,,,,,985.8758533997461,None,,,,,,,,,,,,,,,,,,,,,,,,,,,,,,,,,,,memory,48,96,silent,blue,983.8603550996631,None,None,983.8603550996631,None,,,,,,,,,,,,,,,,,,,,,,,,,,,,,,36,001,2023_Apr_12_1019,ExactRep-v3-final,2021.2.3,59.895589826388715,
,,,,,,,,96,0,96,0,,,,,,,,,,,,,,,,,,,,,,,,,,,,,,,,,,,,,,,,,,,,,,,,,,,,,988.3784055002034,None,,,,,,,,,,,,,,,,,,,,,,,,,,,,,,,,,,,cattle,38,97,sing,red,986.3763608997688,None,None,986.3763608997688,None,,,,,,,,,,,,,,,,,,,,,,,,,,,,,,36,001,2023_Apr_12_1019,ExactRep-v3-final,2021.2.3,59.895589826388715,
,,,,,,,,97,0,97,0,,,,,,,,,,,,,,,,,,,,,,,,,,,,,,,,,,,,,,,,,,,,,,,,,,,,,990.8808714998886,None,,,,,,,,,,,,,,,,,,,,,,,,,,,,,,,,,,,flag,95,98,aloud,white,988.8787885000929,None,None,988.8787885000929,None,,,,,,,,,,,,,,,,,,,,,,,,,,,,,,36,001,2023_Apr_12_1019,ExactRep-v3-final,2021.2.3,59.895589826388715,
,,,,,,,,98,0,98,0,,,,,,,,,,,,,,,,,,,,,,,,,,,,,,,,,,,,,,,,,,,,,,,,,,,,,993.399886299856,None,,,,,,,,,,,,,,,,,,,,,,,,,,,,,,,,,,,queen,97,99,aloud,white,991.3849031003192,None,None,991.3849031003192,None,,,,,,,,,,,,,,,,,,,,,,,,,,,,,,36,001,2023_Apr_12_1019,ExactRep-v3-final,2021.2.3,59.895589826388715,
,,,,,,,,99,0,99,0,,,,,,,,,,,,,,,,,,,,,,,,,,,,,,,,,,,,,,,,,,,,,,,,,,,,,995.9192912001163,None,,,,,,,,,,,,,,,,,,,,,,,,,,,,,,,,,,,cabin,93,100,aloud,white,993.905020499602,None,None,993.905020499602,None,,,,,,,,,,,,,,,,,,,,,,,,,,,,,,36,001,2023_Apr_12_1019,ExactRep-v3-final,2021.2.3,59.895589826388715,
,,,,,,,,100,0,100,0,,,,,,,,,,,,,,,,,,,,,,,,,,,,,,,,,,,,,,,,,,,,,,,,,,,,,998.4215580997989,None,,,,,,,,,,,,,,,,,,,,,,,,,,,,,,,,,,,amount,16,101,sing,red,996.4224378000945,None,None,996.4224378000945,None,,,,,,,,,,,,,,,,,,,,,,,,,,,,,,36,001,2023_Apr_12_1019,ExactRep-v3-final,2021.2.3,59.895589826388715,
,,,,,,,,101,0,101,0,,,,,,,,,,,,,,,,,,,,,,,,,,,,,,,,,,,,,,,,,,,,,,,,,,,,,1000.9243754995987,None,,,,,,,,,,,,,,,,,,,,,,,,,,,,,,,,,,,student,2,102,sing,red,998.9237690996379,None,None,998.9237690996379,None,,,,,,,,,,,,,,,,,,,,,,,,,,,,,,36,001,2023_Apr_12_1019,ExactRep-v3-final,2021.2.3,59.895589826388715,
,,,,,,,,102,0,102,0,,,,,,,,,,,,,,,,,,,,,,,,,,,,,,,,,,,,,,,,,,,,,,,,,,,,,1003.4267918998376,None,,,,,,,,,,,,,,,,,,,,,,,,,,,,,,,,,,,wheat,20,103,sing,red,1001.4276714995503,None,None,1001.4276714995503,None,,,,,,,,,,,,,,,,,,,,,,,,,,,,,,36,001,2023_Apr_12_1019,ExactRep-v3-final,2021.2.3,59.895589826388715,
,,,,,,,,103,0,103,0,,,,,,,,,,,,,,,,,,,,,,,,,,,,,,,,,,,,,,,,,,,,,,,,,,,,,1005.9457550998777,None,,,,,,,,,,,,,,,,,,,,,,,,,,,,,,,,,,,potato,7,104,sing,red,1003.931431800127,None,None,1003.931431800127,None,,,,,,,,,,,,,,,,,,,,,,,,,,,,,,36,001,2023_Apr_12_1019,ExactRep-v3-final,2021.2.3,59.895589826388715,
,,,,,,,,104,0,104,0,,,,,,,,,,,,,,,,,,,,,,,,,,,,,,,,,,,,,,,,,,,,,,,,,,,,,1008.4650023998693,None,,,,,,,,,,,,,,,,,,,,,,,,,,,,,,,,,,,woods,10,105,sing,red,1006.4497065003961,None,None,1006.4497065003961,None,,,,,,,,,,,,,,,,,,,,,,,,,,,,,,36,001,2023_Apr_12_1019,ExactRep-v3-final,2021.2.3,59.895589826388715,
,,,,,,,,105,0,105,0,,,,,,,,,,,,,,,,,,,,,,,,,,,,,,,,,,,,,,,,,,,,,,,,,,,,,1010.9674973003566,None,,,,,,,,,,,,,,,,,,,,,,,,,,,,,,,,,,,fur,25,106,sing,red,1008.9654606999829,None,None,1008.9654606999829,None,,,,,,,,,,,,,,,,,,,,,,,,,,,,,,36,001,2023_Apr_12_1019,ExactRep-v3-final,2021.2.3,59.895589826388715,
,,,,,,,,106,0,106,0,,,,,,,,,,,,,,,,,,,,,,,,,,,,,,,,,,,,,,,,,,,,,,,,,,,,,1013.4701078003272,None,,,,,,,,,,,,,,,,,,,,,,,,,,,,,,,,,,,home,57,107,silent,blue,1011.4709326997399,None,None,1011.4709326997399,None,,,,,,,,,,,,,,,,,,,,,,,,,,,,,,36,001,2023_Apr_12_1019,ExactRep-v3-final,2021.2.3,59.895589826388715,
,,,,,,,,107,0,107,0,,,,,,,,,,,,,,,,,,,,,,,,,,,,,,,,,,,,,,,,,,,,,,,,,,,,,1015.9726850995794,None,,,,,,,,,,,,,,,,,,,,,,,,,,,,,,,,,,,soul,103,108,aloud,white,1013.9720646999776,None,None,1013.9720646999776,None,,,,,,,,,,,,,,,,,,,,,,,,,,,,,,36,001,2023_Apr_12_1019,ExactRep-v3-final,2021.2.3,59.895589826388715,
,,,,,,,,108,0,108,0,,,,,,,,,,,,,,,,,,,,,,,,,,,,,,,,,,,,,,,,,,,,,,,,,,,,,1018.4918623995036,None,,,,,,,,,,,,,,,,,,,,,,,,,,,,,,,,,,,air,100,109,aloud,white,1016.4809373002499,None,None,1016.4809373002499,None,,,,,,,,,,,,,,,,,,,,,,,,,,,,,,36,001,2023_Apr_12_1019,ExactRep-v3-final,2021.2.3,59.895589826388715,
,,,,,,,,109,0,109,0,,,,,,,,,,,,,,,,,,,,,,,,,,,,,,,,,,,,,,,,,,,,,,,,,,,,,1020.9943212000653,None,,,,,,,,,,,,,,,,,,,,,,,,,,,,,,,,,,,library,80,110,aloud,white,1018.9945083996281,None,None,1018.9945083996281,None,,,,,,,,,,,,,,,,,,,,,,,,,,,,,,36,001,2023_Apr_12_1019,ExactRep-v3-final,2021.2.3,59.895589826388715,
,,,,,,,,110,0,110,0,,,,,,,,,,,,,,,,,,,,,,,,,,,,,,,,,,,,,,,,,,,,,,,,,,,,,1023.513491500169,None,,,,,,,,,,,,,,,,,,,,,,,,,,,,,,,,,,,market,66,111,silent,blue,1021.498445100151,None,None,1021.498445100151,None,,,,,,,,,,,,,,,,,,,,,,,,,,,,,,36,001,2023_Apr_12_1019,ExactRep-v3-final,2021.2.3,59.895589826388715,
,,,,,,,,111,0,111,0,,,,,,,,,,,,,,,,,,,,,,,,,,,,,,,,,,,,,,,,,,,,,,,,,,,,,1026.0159652000293,None,,,,,,,,,,,,,,,,,,,,,,,,,,,,,,,,,,,clock,94,112,aloud,white,1024.0149614997208,None,None,1024.0149614997208,None,,,,,,,,,,,,,,,,,,,,,,,,,,,,,,36,001,2023_Apr_12_1019,ExactRep-v3-final,2021.2.3,59.895589826388715,
,,,,,,,,112,0,112,0,,,,,,,,,,,,,,,,,,,,,,,,,,,,,,,,,,,,,,,,,,,,,,,,,,,,,1028.5352517999709,None,,,,,,,,,,,,,,,,,,,,,,,,,,,,,,,,,,,month,107,113,aloud,white,1026.522458399646,None,None,1026.522458399646,None,,,,,,,,,,,,,,,,,,,,,,,,,,,,,,36,001,2023_Apr_12_1019,ExactRep-v3-final,2021.2.3,59.895589826388715,
,,,,,,,,113,0,113,0,,,,,,,,,,,,,,,,,,,,,,,,,,,,,,,,,,,,,,,,,,,,,,,,,,,,,1031.037607099861,None,,,,,,,,,,,,,,,,,,,,,,,,,,,,,,,,,,,silence,4,114,sing,red,1029.0379544002935,None,None,1029.0379544002935,None,,,,,,,,,,,,,,,,,,,,,,,,,,,,,,36,001,2023_Apr_12_1019,ExactRep-v3-final,2021.2.3,59.895589826388715,
,,,,,,,,114,0,114,0,,,,,,,,,,,,,,,,,,,,,,,,,,,,,,,,,,,,,,,,,,,,,,,,,,,,,1033.5569923995063,None,,,,,,,,,,,,,,,,,,,,,,,,,,,,,,,,,,,bird,11,115,sing,red,1031.5466938996688,None,None,1031.5466938996688,None,,,,,,,,,,,,,,,,,,,,,,,,,,,,,,36,001,2023_Apr_12_1019,ExactRep-v3-final,2021.2.3,59.895589826388715,
,,,,,,,,115,0,115,0,,,,,,,,,,,,,,,,,,,,,,,,,,,,,,,,,,,,,,,,,,,,,,,,,,,,,1036.059302800335,None,,,,,,,,,,,,,,,,,,,,,,,,,,,,,,,,,,,street,84,116,aloud,white,1034.0571983996779,None,None,1034.0571983996779,None,,,,,,,,,,,,,,,,,,,,,,,,,,,,,,36,001,2023_Apr_12_1019,ExactRep-v3-final,2021.2.3,59.895589826388715,
,,,,,,,,116,0,116,0,,,,,,,,,,,,,,,,,,,,,,,,,,,,,,,,,,,,,,,,,,,,,,,,,,,,,1038.5783772002906,None,,,,,,,,,,,,,,,,,,,,,,,,,,,,,,,,,,,bar,28,117,sing,red,1036.565393799916,None,None,1036.565393799916,None,,,,,,,,,,,,,,,,,,,,,,,,,,,,,,36,001,2023_Apr_12_1019,ExactRep-v3-final,2021.2.3,59.895589826388715,
,,,,,,,,117,0,117,0,,,,,,,,,,,,,,,,,,,,,,,,,,,,,,,,,,,,,,,,,,,,,,,,,,,,,1041.0808816002682,None,,,,,,,,,,,,,,,,,,,,,,,,,,,,,,,,,,,virtue,30,118,sing,red,1039.0790408998728,None,None,1039.0790408998728,None,,,,,,,,,,,,,,,,,,,,,,,,,,,,,,36,001,2023_Apr_12_1019,ExactRep-v3-final,2021.2.3,59.895589826388715,
,,,,,,,,118,0,118,0,,,,,,,,,,,,,,,,,,,,,,,,,,,,,,,,,,,,,,,,,,,,,,,,,,,,,1043.5835464000702,None,,,,,,,,,,,,,,,,,,,,,,,,,,,,,,,,,,,rod,92,119,aloud,white,1041.581412400119,None,None,1041.581412400119,None,,,,,,,,,,,,,,,,,,,,,,,,,,,,,,36,001,2023_Apr_12_1019,ExactRep-v3-final,2021.2.3,59.895589826388715,
,,,,,,,,119,0,119,0,,,,,,,,,,,,,,,,,,,,,,,,,,,,,,,,,,,,,,,,,,,,,,,,,,,,,1046.1027122996747,None,,,,,,,,,,,,,,,,,,,,,,,,,,,,,,,,,,,event,90,120,aloud,white,1044.0880161002278,None,None,1044.0880161002278,None,,,,,,,,,,,,,,,,,,,,,,,,,,,,,,36,001,2023_Apr_12_1019,ExactRep-v3-final,2021.2.3,59.895589826388715,
,,,,,,,,,,,,,,,,,,,,,,,,,,,,,,,,,,,,,,,,,,,,,,,,,,,,,,,,,,,,,,,,,,,,,,,,,,,,,,,,,,,,,,,,,,,,,,,,,,,,,,,,,,,,,,1046.6047547003254,None,space,10.714157500304282,1056.5811497997493,None,,,,,,,,,,,,,,,,,,,,,,,,36,001,2023_Apr_12_1019,ExactRep-v3-final,2021.2.3,59.895589826388715,
,,,,,,,,,,,,,,,,,,,,,,,,,,,,,,,,,,,,,,,,,,,,,,,,,,,,,,,,,,,,,,,,,,,,,,,,,,,,,,,,,,,,,,,,,,,,,,,,,,,,,,,,,,,,,,,,,,,,1067.3258555997163,None,space,28.713189500384033,1077.3020994002,None,,,,,,,,,,,,,,,,,,36,001,2023_Apr_12_1019,ExactRep-v3-final,2021.2.3,59.895589826388715,
,,,,,,,,,,,,0,0,0,0,,,,,,,,,,,,,,,,,,,,,,,,,,,,,,,,,,,,,,,,,,,,,,,,,1111.367885099724,None,,,,,,,,,,,,,,,,,,,,,,,,,,,,,,,,,,,,,,,,,,,,,,,,,,,,,,,,,duty,157,1,silent,new,yellow,1106.5460679996759,None,n,1106.5460679996759,None,"['n', 'return']","[3.5328447995707393, 4.780796499922872]",1106.5460679996759,None,,,36,001,2023_Apr_12_1019,ExactRep-v3-final,2021.2.3,59.895589826388715,
,,,,,,,,,,,,1,0,1,0,,,,,,,,,,,,,,,,,,,,,,,,,,,,,,,,,,,,,,,,,,,,,,,,,1114.0872857002541,None,,,,,,,,,,,,,,,,,,,,,,,,,,,,,,,,,,,,,,,,,,,,,,,,,,,,,,,,,pole,161,2,sing,new,yellow,1111.87792980019,None,n,1111.87792980019,None,"['n', 'return']","[1.5692139007151127, 2.1688918005675077]",1111.87792980019,None,,,36,001,2023_Apr_12_1019,ExactRep-v3-final,2021.2.3,59.895589826388715,
,,,,,,,,,,,,2,0,2,0,,,,,,,,,,,,,,,,,,,,,,,,,,,,,,,,,,,,,,,,,,,,,,,,,1117.2069675000384,None,,,,,,,,,,,,,,,,,,,,,,,,,,,,,,,,,,,,,,,,,,,,,,,,,,,,,,,,,winter,177,3,sing,new,yellow,1114.5965409995988,None,n,1114.5965409995988,None,"['n', 'return']","[2.2748155994340777, 2.578335899859667]",1114.5965409995988,None,,,36,001,2023_Apr_12_1019,ExactRep-v3-final,2021.2.3,59.895589826388715,
,,,,,,,,,,,,3,0,3,0,,,,,,,,,,,,,,,,,,,,,,,,,,,,,,,,,,,,,,,,,,,,,,,,,1119.8430169001222,None,,,,,,,,,,,,,,,,,,,,,,,,,,,,,,,,,,,,,,,,,,,,,,,,,,,,,,,,,letter,15,4,sing,old,yellow,1117.7182999001816,None,y,1117.7182999001816,None,"['y', 'return']","[1.3447358002886176, 2.080443900078535]",1117.7182999001816,None,,,36,001,2023_Apr_12_1019,ExactRep-v3-final,2021.2.3,59.895589826388715,
,,,,,,,,,,,,4,0,4,0,,,,,,,,,,,,,,,,,,,,,,,,,,,,,,,,,,,,,,,,,,,,,,,,,1122.3955129999667,None,,,,,,,,,,,,,,,,,,,,,,,,,,,,,,,,,,,,,,,,,,,,,,,,,,,,,,,,,student,2,5,sing,old,yellow,1120.3483915003017,None,y,1120.3483915003017,None,"['y', 'return']","[1.066894999705255, 2.010540399700403]",1120.3483915003017,None,,,36,001,2023_Apr_12_1019,ExactRep-v3-final,2021.2.3,59.895589826388715,
,,,,,,,,,,,,5,0,5,0,,,,,,,,,,,,,,,,,,,,,,,,,,,,,,,,,,,,,,,,,,,,,,,,,1124.6811176994815,None,,,,,,,,,,,,,,,,,,,,,,,,,,,,,,,,,,,,,,,,,,,,,,,,,,,,,,,,,virtue,30,6,sing,old,yellow,1122.9043803997338,None,y,1122.9043803997338,None,"['y', 'return']","[1.198483900167048, 1.7345366002991796]",1122.9043803997338,None,,,36,001,2023_Apr_12_1019,ExactRep-v3-final,2021.2.3,59.895589826388715,
,,,,,,,,,,,,6,0,6,0,,,,,,,,,,,,,,,,,,,,,,,,,,,,,,,,,,,,,,,,,,,,,,,,,1127.8676717001945,None,,,,,,,,,,,,,,,,,,,,,,,,,,,,,,,,,,,,,,,,,,,,,,,,,,,,,,,,,tree,237,7,sing,new,yellow,1125.1901091998443,None,n,1125.1901091998443,None,"['n', 'return']","[2.1127439998090267, 2.6328656999394298]",1125.1901091998443,None,,,36,001,2023_Apr_12_1019,ExactRep-v3-final,2021.2.3,59.895589826388715,
,,,,,,,,,,,,7,0,7,0,,,,,,,,,,,,,,,,,,,,,,,,,,,,,,,,,,,,,,,,,,,,,,,,,1130.1366371000186,None,,,,,,,,,,,,,,,,,,,,,,,,,,,,,,,,,,,,,,,,,,,,,,,,,,,,,,,,,valley,220,8,aloud,new,yellow,1128.3815460996702,None,n,1128.3815460996702,None,"['n', 'return']","[1.2013718001544476, 1.7133809998631477]",1128.3815460996702,None,,,36,001,2023_Apr_12_1019,ExactRep-v3-final,2021.2.3,59.895589826388715,
,,,,,,,,,,,,8,0,8,0,,,,,,,,,,,,,,,,,,,,,,,,,,,,,,,,,,,,,,,,,,,,,,,,,1132.355422399938,None,,,,,,,,,,,,,,,,,,,,,,,,,,,,,,,,,,,,,,,,,,,,,,,,,,,,,,,,,coffee,231,9,sing,new,yellow,1130.643041900359,None,n,1130.643041900359,None,"['n', 'return']","[1.1558664999902248, 1.675883499905467]",1130.643041900359,None,,,36,001,2023_Apr_12_1019,ExactRep-v3-final,2021.2.3,59.895589826388715,
,,,,,,,,,,,,9,0,9,0,,,,,,,,,,,,,,,,,,,,,,,,,,,,,,,,,,,,,,,,,,,,,,,,,1134.7412911998108,None,,,,,,,,,,,,,,,,,,,,,,,,,,,,,,,,,,,,,,,,,,,,,,,,,,,,,,,,,cash,78,10,silent,old,yellow,1132.8630978995934,None,n,1132.8630978995934,None,"['n', 'return']","[1.256113599985838, 1.83190739993006]",1132.8630978995934,None,,,36,001,2023_Apr_12_1019,ExactRep-v3-final,2021.2.3,59.895589826388715,
,,,,,,,,,,,,10,0,10,0,,,,,,,,,,,,,,,,,,,,,,,,,,,,,,,,,,,,,,,,,,,,,,,,,1136.8600000003353,None,,,,,,,,,,,,,,,,,,,,,,,,,,,,,,,,,,,,,,,,,,,,,,,,,,,,,,,,,corn,224,11,aloud,new,yellow,1135.252418199554,None,n,1135.252418199554,None,"['n', 'return']","[1.1545070996508002, 1.570626299828291]",1135.252418199554,None,,,36,001,2023_Apr_12_1019,ExactRep-v3-final,2021.2.3,59.895589826388715,
,,,,,,,,,,,,11,0,11,0,,,,,,,,,,,,,,,,,,,,,,,,,,,,,,,,,,,,,,,,,,,,,,,,,1139.1789442999288,None,,,,,,,,,,,,,,,,,,,,,,,,,,,,,,,,,,,,,,,,,,,,,,,,,,,,,,,,,shoes,45,12,silent,old,yellow,1137.369749000296,None,n,1137.369749000296,None,"['n', 'return']","[1.4852080000564456, 1.7651204001158476]",1137.369749000296,None,,,36,001,2023_Apr_12_1019,ExactRep-v3-final,2021.2.3,59.895589826388715,
,,,,,,,,,,,,12,0,12,0,,,,,,,,,,,,,,,,,,,,,,,,,,,,,,,,,,,,,,,,,,,,,,,,,1141.0474766995758,None,,,,,,,,,,,,,,,,,,,,,,,,,,,,,,,,,,,,,,,,,,,,,,,,,,,,,,,,,lad,191,13,sing,new,yellow,1139.6862946003675,None,n,1139.6862946003675,None,"['n', 'return']","[0.9926878996193409, 1.3205977994948626]",1139.6862946003675,None,,,36,001,2023_Apr_12_1019,ExactRep-v3-final,2021.2.3,59.895589826388715,
,,,,,,,,,,,,13,0,13,0,,,,,,,,,,,,,,,,,,,,,,,,,,,,,,,,,,,,,,,,,,,,,,,,,1143.2997650001198,None,,,,,,,,,,,,,,,,,,,,,,,,,,,,,,,,,,,,,,,,,,,,,,,,,,,,,,,,,stone,151,14,silent,new,yellow,1141.5575403999537,None,n,1141.5575403999537,None,"['n', 'return']","[1.3375057997182012, 1.7054014997556806]",1141.5575403999537,None,,,36,001,2023_Apr_12_1019,ExactRep-v3-final,2021.2.3,59.895589826388715,
,,,,,,,,,,,,14,0,14,0,,,,,,,,,,,,,,,,,,,,,,,,,,,,,,,,,,,,,,,,,,,,,,,,,1145.3018966997042,None,,,,,,,,,,,,,,,,,,,,,,,,,,,,,,,,,,,,,,,,,,,,,,,,,,,,,,,,,vessel,179,15,sing,new,yellow,1143.8109146999195,None,n,1143.8109146999195,None,"['n', 'return']","[1.1000127997249365, 1.444046599790454]",1143.8109146999195,None,,,36,001,2023_Apr_12_1019,ExactRep-v3-final,2021.2.3,59.895589826388715,
,,,,,,,,,,,,15,0,15,0,,,,,,,,,,,,,,,,,,,,,,,,,,,,,,,,,,,,,,,,,,,,,,,,,1147.1704850997776,None,,,,,,,,,,,,,,,,,,,,,,,,,,,,,,,,,,,,,,,,,,,,,,,,,,,,,,,,,palace,42,16,silent,old,yellow,1145.8155763996765,None,n,1145.8155763996765,None,"['n', 'return']","[1.0234548998996615, 1.3113318998366594]",1145.8155763996765,None,,,36,001,2023_Apr_12_1019,ExactRep-v3-final,2021.2.3,59.895589826388715,
,,,,,,,,,,,,16,0,16,0,,,,,,,,,,,,,,,,,,,,,,,,,,,,,,,,,,,,,,,,,,,,,,,,,1149.5393685000017,None,,,,,,,,,,,,,,,,,,,,,,,,,,,,,,,,,,,,,,,,,,,,,,,,,,,,,,,,,method,180,17,aloud,new,yellow,1147.6758612999693,None,n,1147.6758612999693,None,"['n', 'return']","[1.3391645001247525, 1.8191010002046824]",1147.6758612999693,None,,,36,001,2023_Apr_12_1019,ExactRep-v3-final,2021.2.3,59.895589826388715,
,,,,,,,,,,,,17,0,17,0,,,,,,,,,,,,,,,,,,,,,,,,,,,,,,,,,,,,,,,,,,,,,,,,,1151.9417032999918,None,,,,,,,,,,,,,,,,,,,,,,,,,,,,,,,,,,,,,,,,,,,,,,,,,,,,,,,,,doctor,79,18,sing,old,yellow,1150.0443326998502,None,y,1150.0443326998502,None,"['y', 'return']","[1.5066427001729608, 1.8507235003635287]",1150.0443326998502,None,,,36,001,2023_Apr_12_1019,ExactRep-v3-final,2021.2.3,59.895589826388715,
,,,,,,,,,,,,18,0,18,0,,,,,,,,,,,,,,,,,,,,,,,,,,,,,,,,,,,,,,,,,,,,,,,,,1154.04383029975,None,,,,,,,,,,,,,,,,,,,,,,,,,,,,,,,,,,,,,,,,,,,,,,,,,,,,,,,,,board,150,19,silent,new,yellow,1152.449006400071,None,y,1152.449006400071,None,"['y', 'return']","[1.3098742999136448, 1.5579346995800734]",1152.449006400071,None,,,36,001,2023_Apr_12_1019,ExactRep-v3-final,2021.2.3,59.895589826388715,
,,,,,,,,,,,,19,0,19,0,,,,,,,,,,,,,,,,,,,,,,,,,,,,,,,,,,,,,,,,,,,,,,,,,1156.2628119001165,None,,,,,,,,,,,,,,,,,,,,,,,,,,,,,,,,,,,,,,,,,,,,,,,,,,,,,,,,,tool,167,20,sing,new,yellow,1154.5542489998043,None,n,1154.5542489998043,None,"['n', 'return']","[1.2847672998905182, 1.6607527006417513]",1154.5542489998043,None,,,36,001,2023_Apr_12_1019,ExactRep-v3-final,2021.2.3,59.895589826388715,
,,,,,,,,,,,,20,0,20,0,,,,,,,,,,,,,,,,,,,,,,,,,,,,,,,,,,,,,,,,,,,,,,,,,1158.3316075000912,None,,,,,,,,,,,,,,,,,,,,,,,,,,,,,,,,,,,,,,,,,,,,,,,,,,,,,,,,,animal,6,21,sing,old,yellow,1156.7769384002313,None,y,1156.7769384002313,None,"['y', 'return']","[1.2139924000948668, 1.5100263999775052]",1156.7769384002313,None,,,36,001,2023_Apr_12_1019,ExactRep-v3-final,2021.2.3,59.895589826388715,
,,,,,,,,,,,,21,0,21,0,,,,,,,,,,,,,,,,,,,,,,,,,,,,,,,,,,,,,,,,,,,,,,,,,1160.800653300248,None,,,,,,,,,,,,,,,,,,,,,,,,,,,,,,,,,,,,,,,,,,,,,,,,,,,,,,,,,month,107,22,aloud,old,yellow,1158.841449599713,None,y,1158.841449599713,None,"['y', 'return']","[1.6376535994932055, 1.9254604997113347]",1158.841449599713,None,,,36,001,2023_Apr_12_1019,ExactRep-v3-final,2021.2.3,59.895589826388715,
,,,,,,,,,,,,22,0,22,0,,,,,,,,,,,,,,,,,,,,,,,,,,,,,,,,,,,,,,,,,,,,,,,,,1163.2198249995708,None,,,,,,,,,,,,,,,,,,,,,,,,,,,,,,,,,,,,,,,,,,,,,,,,,,,,,,,,,bowl,193,23,sing,new,yellow,1161.3121891999617,None,n,1161.3121891999617,None,"['n', 'return']","[1.566856499761343, 1.8627605000510812]",1161.3121891999617,None,,,36,001,2023_Apr_12_1019,ExactRep-v3-final,2021.2.3,59.895589826388715,
,,,,,,,,,,,,23,0,23,0,,,,,,,,,,,,,,,,,,,,,,,,,,,,,,,,,,,,,,,,,,,,,,,,,1165.055293600075,None,,,,,,,,,,,,,,,,,,,,,,,,,,,,,,,,,,,,,,,,,,,,,,,,,,,,,,,,,moral,214,24,aloud,new,yellow,1163.7342077000067,None,n,1163.7342077000067,None,"['n', 'return']","[1.0565903997048736, 1.2805947996675968]",1163.7342077000067,None,,,36,001,2023_Apr_12_1019,ExactRep-v3-final,2021.2.3,59.895589826388715,
,,,,,,,,,,,,24,0,24,0,,,,,,,,,,,,,,,,,,,,,,,,,,,,,,,,,,,,,,,,,,,,,,,,,1167.2237280001864,None,,,,,,,,,,,,,,,,,,,,,,,,,,,,,,,,,,,,,,,,,,,,,,,,,,,,,,,,,cabin,93,25,aloud,old,yellow,1165.568495599553,None,y,1165.568495599553,None,"['y', 'return']","[1.3584769004955888, 1.6223954008892179]",1165.568495599553,None,,,36,001,2023_Apr_12_1019,ExactRep-v3-final,2021.2.3,59.895589826388715,
,,,,,,,,,,,,25,0,25,0,,,,,,,,,,,,,,,,,,,,,,,,,,,,,,,,,,,,,,,,,,,,,,,,,1169.7764488002285,None,,,,,,,,,,,,,,,,,,,,,,,,,,,,,,,,,,,,,,,,,,,,,,,,,,,,,,,,,amount,16,26,sing,old,yellow,1167.7346682995558,None,y,1167.7346682995558,None,"['y', 'return']","[1.6243692003190517, 2.00038200058043]",1167.7346682995558,None,,,36,001,2023_Apr_12_1019,ExactRep-v3-final,2021.2.3,59.895589826388715,
,,,,,,,,,,,,26,0,26,0,,,,,,,,,,,,,,,,,,,,,,,,,,,,,,,,,,,,,,,,,,,,,,,,,1172.3788868999109,None,,,,,,,,,,,,,,,,,,,,,,,,,,,,,,,,,,,,,,,,,,,,,,,,,,,,,,,,,church,63,27,silent,old,yellow,1170.285334000364,None,y,1170.285334000364,None,"['y', 'return']","[1.761647100560367, 2.049616999924183]",1170.285334000364,None,,,36,001,2023_Apr_12_1019,ExactRep-v3-final,2021.2.3,59.895589826388715,
,,,,,,,,,,,,27,0,27,0,,,,,,,,,,,,,,,,,,,,,,,,,,,,,,,,,,,,,,,,,,,,,,,,,1174.7480712998658,None,,,,,,,,,,,,,,,,,,,,,,,,,,,,,,,,,,,,,,,,,,,,,,,,,,,,,,,,,metal,135,28,silent,new,yellow,1172.8906407998875,None,n,1172.8906407998875,None,"['n', 'return']","[1.4924857001751661, 1.8204896999523044]",1172.8906407998875,None,,,36,001,2023_Apr_12_1019,ExactRep-v3-final,2021.2.3,59.895589826388715,
,,,,,,,,,,,,28,0,28,0,,,,,,,,,,,,,,,,,,,,,,,,,,,,,,,,,,,,,,,,,,,,,,,,,1176.699864000082,None,,,,,,,,,,,,,,,,,,,,,,,,,,,,,,,,,,,,,,,,,,,,,,,,,,,,,,,,,sea,152,29,silent,new,yellow,1175.2565425001085,None,n,1175.2565425001085,None,"['n', 'return']","[1.0942665003240108, 1.3984165005385876]",1175.2565425001085,None,,,36,001,2023_Apr_12_1019,ExactRep-v3-final,2021.2.3,59.895589826388715,
,,,,,,,,,,,,29,0,29,0,,,,,,,,,,,,,,,,,,,,,,,,,,,,,,,,,,,,,,,,,,,,,,,,,1178.885411400348,None,,,,,,,,,,,,,,,,,,,,,,,,,,,,,,,,,,,,,,,,,,,,,,,,,,,,,,,,,answer,219,30,sing,new,yellow,1177.2080830996856,None,y,1177.2080830996856,None,"['y', 'return']","[1.3509349003434181, 1.6308947000652552]",1177.2080830996856,None,,,36,001,2023_Apr_12_1019,ExactRep-v3-final,2021.2.3,59.895589826388715,
,,,,,,,,,,,,30,0,30,0,,,,,,,,,,,,,,,,,,,,,,,,,,,,,,,,,,,,,,,,,,,,,,,,,1181.1710120001808,None,,,,,,,,,,,,,,,,,,,,,,,,,,,,,,,,,,,,,,,,,,,,,,,,,,,,,,,,,idea,129,31,silent,new,yellow,1179.394678399898,None,n,1179.394678399898,None,"['n', 'return']","[1.3003024999052286, 1.7403883999213576]",1179.394678399898,None,,,36,001,2023_Apr_12_1019,ExactRep-v3-final,2021.2.3,59.895589826388715,
,,,,,,,,,,,,31,0,31,0,,,,,,,,,,,,,,,,,,,,,,,,,,,,,,,,,,,,,,,,,,,,,,,,,1183.7235672995448,None,,,,,,,,,,,,,,,,,,,,,,,,,,,,,,,,,,,,,,,,,,,,,,,,,,,,,,,,,crime,223,32,sing,new,yellow,1181.6823493996635,None,n,1181.6823493996635,None,"['n', 'return']","[1.5486246002838016, 1.9965220000594854]",1181.6823493996635,None,,,36,001,2023_Apr_12_1019,ExactRep-v3-final,2021.2.3,59.895589826388715,
,,,,,,,,,,,,32,0,32,0,,,,,,,,,,,,,,,,,,,,,,,,,,,,,,,,,,,,,,,,,,,,,,,,,1185.5587476994842,None,,,,,,,,,,,,,,,,,,,,,,,,,,,,,,,,,,,,,,,,,,,,,,,,,,,,,,,,,string,143,33,silent,new,yellow,1184.227319800295,None,n,1184.227319800295,None,"['n', 'return']","[1.0037551000714302, 1.299770100042224]",1184.227319800295,None,,,36,001,2023_Apr_12_1019,ExactRep-v3-final,2021.2.3,59.895589826388715,
,,,,,,,,,,,,33,0,33,0,,,,,,,,,,,,,,,,,,,,,,,,,,,,,,,,,,,,,,,,,,,,,,,,,1187.727561400272,None,,,,,,,,,,,,,,,,,,,,,,,,,,,,,,,,,,,,,,,,,,,,,,,,,,,,,,,,,girl,86,34,aloud,old,yellow,1186.0672391001135,None,n,1186.0672391001135,None,"['n', 'return']","[1.2995830001309514, 1.62765400018543]",1186.0672391001135,None,,,36,001,2023_Apr_12_1019,ExactRep-v3-final,2021.2.3,59.895589826388715,
,,,,,,,,,,,,34,0,34,0,,,,,,,,,,,,,,,,,,,,,,,,,,,,,,,,,,,,,,,,,,,,,,,,,1190.0633893003687,None,,,,,,,,,,,,,,,,,,,,,,,,,,,,,,,,,,,,,,,,,,,,,,,,,,,,,,,,,fact,178,35,aloud,new,yellow,1188.23653979972,None,n,1188.23653979972,None,"['n', 'return']","[1.602510099299252, 1.794577899388969]",1188.23653979972,None,,,36,001,2023_Apr_12_1019,ExactRep-v3-final,2021.2.3,59.895589826388715,
,,,,,,,,,,,,35,0,35,0,,,,,,,,,,,,,,,,,,,,,,,,,,,,,,,,,,,,,,,,,,,,,,,,,1192.4322832003236,None,,,,,,,,,,,,,,,,,,,,,,,,,,,,,,,,,,,,,,,,,,,,,,,,,,,,,,,,,thought,47,36,silent,old,yellow,1190.5807870002463,None,n,1190.5807870002463,None,"['n', 'return']","[1.5542176999151707, 1.8103048000484705]",1190.5807870002463,None,,,36,001,2023_Apr_12_1019,ExactRep-v3-final,2021.2.3,59.895589826388715,
,,,,,,,,,,,,36,0,36,0,,,,,,,,,,,,,,,,,,,,,,,,,,,,,,,,,,,,,,,,,,,,,,,,,1194.3342645000666,None,,,,,,,,,,,,,,,,,,,,,,,,,,,,,,,,,,,,,,,,,,,,,,,,,,,,,,,,,moment,50,37,silent,old,yellow,1192.9443608000875,None,y,1192.9443608000875,None,"['y', 'return']","[1.0706722997128963, 1.3507025996223092]",1192.9443608000875,None,,,36,001,2023_Apr_12_1019,ExactRep-v3-final,2021.2.3,59.895589826388715,
,,,,,,,,,,,,37,0,37,0,,,,,,,,,,,,,,,,,,,,,,,,,,,,,,,,,,,,,,,,,,,,,,,,,1196.3027211995795,None,,,,,,,,,,,,,,,,,,,,,,,,,,,,,,,,,,,,,,,,,,,,,,,,,,,,,,,,,bird,11,38,sing,old,yellow,1194.8439729996026,None,y,1194.8439729996026,None,"['y', 'return']","[1.0189710995182395, 1.4269725000485778]",1194.8439729996026,None,,,36,001,2023_Apr_12_1019,ExactRep-v3-final,2021.2.3,59.895589826388715,
,,,,,,,,,,,,38,0,38,0,,,,,,,,,,,,,,,,,,,,,,,,,,,,,,,,,,,,,,,,,,,,,,,,,1198.3715370995924,None,,,,,,,,,,,,,,,,,,,,,,,,,,,,,,,,,,,,,,,,,,,,,,,,,,,,,,,,,shadow,0,39,sing,old,yellow,1196.8158456003293,None,y,1196.8158456003293,None,"['y', 'return']","[1.1671120002865791, 1.511085200123489]",1196.8158456003293,None,,,36,001,2023_Apr_12_1019,ExactRep-v3-final,2021.2.3,59.895589826388715,
,,,,,,,,,,,,39,0,39,0,,,,,,,,,,,,,,,,,,,,,,,,,,,,,,,,,,,,,,,,,,,,,,,,,1200.206729900092,None,,,,,,,,,,,,,,,,,,,,,,,,,,,,,,,,,,,,,,,,,,,,,,,,,,,,,,,,,murder,165,40,sing,new,yellow,1198.8747065998614,None,n,1198.8747065998614,None,"['n', 'return']","[1.0682758996263146, 1.300322599709034]",1198.8747065998614,None,,,36,001,2023_Apr_12_1019,ExactRep-v3-final,2021.2.3,59.895589826388715,
,,,,,,,,,,,,40,0,40,0,,,,,,,,,,,,,,,,,,,,,,,,,,,,,,,,,,,,,,,,,,,,,,,,,1203.1763576995581,None,,,,,,,,,,,,,,,,,,,,,,,,,,,,,,,,,,,,,,,,,,,,,,,,,,,,,,,,,disease,64,41,silent,old,yellow,1200.7166555002332,None,n,1200.7166555002332,None,"['n', 'return']","[2.1223368998616934, 2.4263054002076387]",1200.7166555002332,None,,,36,001,2023_Apr_12_1019,ExactRep-v3-final,2021.2.3,59.895589826388715,
,,,,,,,,,,,,41,0,41,0,,,,,,,,,,,,,,,,,,,,,,,,,,,,,,,,,,,,,,,,,,,,,,,,,1205.0287942998111,None,,,,,,,,,,,,,,,,,,,,,,,,,,,,,,,,,,,,,,,,,,,,,,,,,,,,,,,,,death,229,42,sing,new,yellow,1203.6845568995923,None,n,1203.6845568995923,None,"['n', 'return']","[0.9704117998480797, 1.3064446998760104]",1203.6845568995923,None,,,36,001,2023_Apr_12_1019,ExactRep-v3-final,2021.2.3,59.895589826388715,
,,,,,,,,,,,,42,0,42,0,,,,,,,,,,,,,,,,,,,,,,,,,,,,,,,,,,,,,,,,,,,,,,,,,1207.0303704002872,None,,,,,,,,,,,,,,,,,,,,,,,,,,,,,,,,,,,,,,,,,,,,,,,,,,,,,,,,,dress,36,43,sing,old,yellow,1205.5321925999597,None,n,1205.5321925999597,None,"['n', 'return']","[1.2589480997994542, 1.45895029976964]",1205.5321925999597,None,,,36,001,2023_Apr_12_1019,ExactRep-v3-final,2021.2.3,59.895589826388715,
,,,,,,,,,,,,43,0,43,0,,,,,,,,,,,,,,,,,,,,,,,,,,,,,,,,,,,,,,,,,,,,,,,,,1208.865360699594,None,,,,,,,,,,,,,,,,,,,,,,,,,,,,,,,,,,,,,,,,,,,,,,,,,,,,,,,,,ocean,53,44,silent,old,yellow,1207.5385071998462,None,y,1207.5385071998462,None,"['y', 'return']","[1.0367651004344225, 1.2846140004694462]",1207.5385071998462,None,,,36,001,2023_Apr_12_1019,ExactRep-v3-final,2021.2.3,59.895589826388715,
,,,,,,,,,,,,44,0,44,0,,,,,,,,,,,,,,,,,,,,,,,,,,,,,,,,,,,,,,,,,,,,,,,,,1210.7839740999043,None,,,,,,,,,,,,,,,,,,,,,,,,,,,,,,,,,,,,,,,,,,,,,,,,,,,,,,,,,child,65,45,silent,old,yellow,1209.3736619995907,None,n,1209.3736619995907,None,"['n', 'return']","[1.0894597992300987, 1.3693731995299459]",1209.3736619995907,None,,,36,001,2023_Apr_12_1019,ExactRep-v3-final,2021.2.3,59.895589826388715,
,,,,,,,,,,,,45,0,45,0,,,,,,,,,,,,,,,,,,,,,,,,,,,,,,,,,,,,,,,,,,,,,,,,,1212.6859568003565,None,,,,,,,,,,,,,,,,,,,,,,,,,,,,,,,,,,,,,,,,,,,,,,,,,,,,,,,,,flood,35,46,sing,old,yellow,1211.2975824000314,None,y,1211.2975824000314,None,"['y', 'return']","[0.9814275996759534, 1.3415449000895023]",1211.2975824000314,None,,,36,001,2023_Apr_12_1019,ExactRep-v3-final,2021.2.3,59.895589826388715,
,,,,,,,,,,,,46,0,46,0,,,,,,,,,,,,,,,,,,,,,,,,,,,,,,,,,,,,,,,,,,,,,,,,,1215.1217750003561,None,,,,,,,,,,,,,,,,,,,,,,,,,,,,,,,,,,,,,,,,,,,,,,,,,,,,,,,,,blood,69,47,silent,old,yellow,1213.2063539996743,None,n,1213.2063539996743,None,"['n', 'return']","[1.6008625999093056, 1.872652499936521]",1213.2063539996743,None,,,36,001,2023_Apr_12_1019,ExactRep-v3-final,2021.2.3,59.895589826388715,
,,,,,,,,,,,,47,0,47,0,,,,,,,,,,,,,,,,,,,,,,,,,,,,,,,,,,,,,,,,,,,,,,,,,1217.440582299605,None,,,,,,,,,,,,,,,,,,,,,,,,,,,,,,,,,,,,,,,,,,,,,,,,,,,,,,,,,brain,52,48,silent,old,yellow,1215.6325853001326,None,n,1215.6325853001326,None,"['n', 'return']","[1.590662100352347, 1.7665486000478268]",1215.6325853001326,None,,,36,001,2023_Apr_12_1019,ExactRep-v3-final,2021.2.3,59.895589826388715,
,,,,,,,,,,,,48,0,48,0,,,,,,,,,,,,,,,,,,,,,,,,,,,,,,,,,,,,,,,,,,,,,,,,,1219.1256250003353,None,,,,,,,,,,,,,,,,,,,,,,,,,,,,,,,,,,,,,,,,,,,,,,,,,,,,,,,,,advice,207,49,sing,new,yellow,1217.9539975002408,None,n,1217.9539975002408,None,"['n', 'return']","[0.933016000315547, 1.133038300089538]",1217.9539975002408,None,,,36,001,2023_Apr_12_1019,ExactRep-v3-final,2021.2.3,59.895589826388715,
,,,,,,,,,,,,49,0,49,0,,,,,,,,,,,,,,,,,,,,,,,,,,,,,,,,,,,,,,,,,,,,,,,,,1221.2944502998143,None,,,,,,,,,,,,,,,,,,,,,,,,,,,,,,,,,,,,,,,,,,,,,,,,,,,,,,,,,square,176,50,aloud,new,yellow,1219.6355333002284,None,y,1219.6355333002284,None,"['y', 'return']","[1.4355963002890348, 1.6198733998462558]",1219.6355333002284,None,,,36,001,2023_Apr_12_1019,ExactRep-v3-final,2021.2.3,59.895589826388715,
,,,,,,,,,,,,50,0,50,0,,,,,,,,,,,,,,,,,,,,,,,,,,,,,,,,,,,,,,,,,,,,,,,,,1223.4300782997161,None,,,,,,,,,,,,,,,,,,,,,,,,,,,,,,,,,,,,,,,,,,,,,,,,,,,,,,,,,event,90,51,aloud,old,yellow,1221.8097238000482,None,n,1221.8097238000482,None,"['n', 'return']","[1.3413933999836445, 1.5732591999694705]",1221.8097238000482,None,,,36,001,2023_Apr_12_1019,ExactRep-v3-final,2021.2.3,59.895589826388715,
,,,,,,,,,,,,51,0,51,0,,,,,,,,,,,,,,,,,,,,,,,,,,,,,,,,,,,,,,,,,,,,,,,,,1225.1483319997787,None,,,,,,,,,,,,,,,,,,,,,,,,,,,,,,,,,,,,,,,,,,,,,,,,,,,,,,,,,hide,108,52,aloud,old,yellow,1223.9310226999223,None,y,1223.9310226999223,None,"['y', 'return']","[0.8999587995931506, 1.1800961000844836]",1223.9310226999223,None,,,36,001,2023_Apr_12_1019,ExactRep-v3-final,2021.2.3,59.895589826388715,
,,,,,,,,,,,,52,0,52,0,,,,,,,,,,,,,,,,,,,,,,,,,,,,,,,,,,,,,,,,,,,,,,,,,1226.766618099995,None,,,,,,,,,,,,,,,,,,,,,,,,,,,,,,,,,,,,,,,,,,,,,,,,,,,,,,,,,kiss,9,53,sing,old,yellow,1225.656786199659,None,y,1225.656786199659,None,"['y', 'return']","[0.7822085004299879, 1.070326100103557]",1225.656786199659,None,,,36,001,2023_Apr_12_1019,ExactRep-v3-final,2021.2.3,59.895589826388715,
,,,,,,,,,,,,53,0,53,0,,,,,,,,,,,,,,,,,,,,,,,,,,,,,,,,,,,,,,,,,,,,,,,,,1228.7020196998492,None,,,,,,,,,,,,,,,,,,,,,,,,,,,,,,,,,,,,,,,,,,,,,,,,,,,,,,,,,storm,228,54,aloud,new,yellow,1227.2756685996428,None,y,1227.2756685996428,None,"['y', 'return']","[1.2033637994900346, 1.379543799906969]",1227.2756685996428,None,,,36,001,2023_Apr_12_1019,ExactRep-v3-final,2021.2.3,59.895589826388715,
,,,,,,,,,,,,54,0,54,0,,,,,,,,,,,,,,,,,,,,,,,,,,,,,,,,,,,,,,,,,,,,,,,,,1230.5038203001022,None,,,,,,,,,,,,,,,,,,,,,,,,,,,,,,,,,,,,,,,,,,,,,,,,,,,,,,,,,diamond,154,55,silent,new,yellow,1229.2157576000318,None,n,1229.2157576000318,None,"['n', 'return']","[1.0232685999944806, 1.2552284998819232]",1229.2157576000318,None,,,36,001,2023_Apr_12_1019,ExactRep-v3-final,2021.2.3,59.895589826388715,
,,,,,,,,,,,,55,0,55,0,,,,,,,,,,,,,,,,,,,,,,,,,,,,,,,,,,,,,,,,,,,,,,,,,1232.4389666002244,None,,,,,,,,,,,,,,,,,,,,,,,,,,,,,,,,,,,,,,,,,,,,,,,,,,,,,,,,,plant,146,56,silent,new,yellow,1231.0134380003437,None,y,1231.0134380003437,None,"['y', 'return']","[1.033589799888432, 1.3777168998494744]",1231.0134380003437,None,,,36,001,2023_Apr_12_1019,ExactRep-v3-final,2021.2.3,59.895589826388715,
,,,,,,,,,,,,56,0,56,0,,,,,,,,,,,,,,,,,,,,,,,,,,,,,,,,,,,,,,,,,,,,,,,,,1234.090622600168,None,,,,,,,,,,,,,,,,,,,,,,,,,,,,,,,,,,,,,,,,,,,,,,,,,,,,,,,,,home,57,57,silent,old,yellow,1232.9460252998397,None,y,1232.9460252998397,None,"['y', 'return']","[0.732927399687469, 1.109002599492669]",1232.9460252998397,None,,,36,001,2023_Apr_12_1019,ExactRep-v3-final,2021.2.3,59.895589826388715,
,,,,,,,,,,,,57,0,57,0,,,,,,,,,,,,,,,,,,,,,,,,,,,,,,,,,,,,,,,,,,,,,,,,,1235.82567320019,None,,,,,,,,,,,,,,,,,,,,,,,,,,,,,,,,,,,,,,,,,,,,,,,,,,,,,,,,,wife,173,58,sing,new,yellow,1234.6012674001977,None,n,1234.6012674001977,None,"['n', 'return']","[0.9017987996339798, 1.1816921001300216]",1234.6012674001977,None,,,36,001,2023_Apr_12_1019,ExactRep-v3-final,2021.2.3,59.895589826388715,
,,,,,,,,,,,,58,0,58,0,,,,,,,,,,,,,,,,,,,,,,,,,,,,,,,,,,,,,,,,,,,,,,,,,1240.1801327997819,None,,,,,,,,,,,,,,,,,,,,,,,,,,,,,,,,,,,,,,,,,,,,,,,,,,,,,,,,,cat,222,59,aloud,new,yellow,1236.3357226001099,None,y,1236.3357226001099,None,"['y', 'return']","[3.6313148997724056, 3.7994710002094507]",1236.3357226001099,None,,,36,001,2023_Apr_12_1019,ExactRep-v3-final,2021.2.3,59.895589826388715,
,,,,,,,,,,,,59,0,59,0,,,,,,,,,,,,,,,,,,,,,,,,,,,,,,,,,,,,,,,,,,,,,,,,,1241.9484780002385,None,,,,,,,,,,,,,,,,,,,,,,,,,,,,,,,,,,,,,,,,,,,,,,,,,,,,,,,,,master,67,60,silent,old,yellow,1240.6870184997097,None,n,1240.6870184997097,None,"['n', 'return']","[0.9681203002110124, 1.2160766003653407]",1240.6870184997097,None,,,36,001,2023_Apr_12_1019,ExactRep-v3-final,2021.2.3,59.895589826388715,
,,,,,,,,,,,,60,0,60,0,,,,,,,,,,,,,,,,,,,,,,,,,,,,,,,,,,,,,,,,,,,,,,,,,1243.5667660003528,None,,,,,,,,,,,,,,,,,,,,,,,,,,,,,,,,,,,,,,,,,,,,,,,,,,,,,,,,,speech,91,61,aloud,old,yellow,1242.456269999966,None,y,1242.456269999966,None,"['y', 'return']","[0.7827912997454405, 1.062881899997592]",1242.456269999966,None,,,36,001,2023_Apr_12_1019,ExactRep-v3-final,2021.2.3,59.895589826388715,
,,,,,,,,,,,,61,0,61,0,,,,,,,,,,,,,,,,,,,,,,,,,,,,,,,,,,,,,,,,,,,,,,,,,1245.1850306997076,None,,,,,,,,,,,,,,,,,,,,,,,,,,,,,,,,,,,,,,,,,,,,,,,,,,,,,,,,,dawn,33,62,sing,old,yellow,1244.084523299709,None,y,1244.084523299709,None,"['y', 'return']","[0.7546918001025915, 1.0665926998481154]",1244.084523299709,None,,,36,001,2023_Apr_12_1019,ExactRep-v3-final,2021.2.3,59.895589826388715,
,,,,,,,,,,,,62,0,62,0,,,,,,,,,,,,,,,,,,,,,,,,,,,,,,,,,,,,,,,,,,,,,,,,,1246.8866838002577,None,,,,,,,,,,,,,,,,,,,,,,,,,,,,,,,,,,,,,,,,,,,,,,,,,,,,,,,,,table,119,63,aloud,old,yellow,1245.6923161996529,None,y,1245.6923161996529,None,"['y', 'return']","[0.9387041004374623, 1.1628077002242208]",1245.6923161996529,None,,,36,001,2023_Apr_12_1019,ExactRep-v3-final,2021.2.3,59.895589826388715,
,,,,,,,,,,,,63,0,63,0,,,,,,,,,,,,,,,,,,,,,,,,,,,,,,,,,,,,,,,,,,,,,,,,,1248.5217300998047,None,,,,,,,,,,,,,,,,,,,,,,,,,,,,,,,,,,,,,,,,,,,,,,,,,,,,,,,,,lip,14,64,sing,old,yellow,1247.389704999514,None,y,1247.389704999514,None,"['y', 'return']","[0.8733235998079181, 1.0893536005169153]",1247.389704999514,None,,,36,001,2023_Apr_12_1019,ExactRep-v3-final,2021.2.3,59.895589826388715,
,,,,,,,,,,,,64,0,64,0,,,,,,,,,,,,,,,,,,,,,,,,,,,,,,,,,,,,,,,,,,,,,,,,,1250.2900948002934,None,,,,,,,,,,,,,,,,,,,,,,,,,,,,,,,,,,,,,,,,,,,,,,,,,,,,,,,,,excuse,22,65,sing,old,yellow,1249.0345869995654,None,y,1249.0345869995654,None,"['y', 'return']","[1.0203826008364558, 1.2204667003825307]",1249.0345869995654,None,,,36,001,2023_Apr_12_1019,ExactRep-v3-final,2021.2.3,59.895589826388715,
,,,,,,,,,,,,65,0,65,0,,,,,,,,,,,,,,,,,,,,,,,,,,,,,,,,,,,,,,,,,,,,,,,,,1251.991802399978,None,,,,,,,,,,,,,,,,,,,,,,,,,,,,,,,,,,,,,,,,,,,,,,,,,,,,,,,,,flesh,8,66,sing,old,yellow,1250.8058471996337,None,y,1250.8058471996337,None,"['y', 'return']","[0.8010532995685935, 1.1452585998922586]",1250.8058471996337,None,,,36,001,2023_Apr_12_1019,ExactRep-v3-final,2021.2.3,59.895589826388715,
,,,,,,,,,,,,66,0,66,0,,,,,,,,,,,,,,,,,,,,,,,,,,,,,,,,,,,,,,,,,,,,,,,,,1253.6102788997814,None,,,,,,,,,,,,,,,,,,,,,,,,,,,,,,,,,,,,,,,,,,,,,,,,,,,,,,,,,house,201,67,sing,new,yellow,1252.5021681999788,None,y,1252.5021681999788,None,"['y', 'return']","[0.7050117002800107, 1.0728741995990276]",1252.5021681999788,None,,,36,001,2023_Apr_12_1019,ExactRep-v3-final,2021.2.3,59.895589826388715,
,,,,,,,,,,,,67,0,67,0,,,,,,,,,,,,,,,,,,,,,,,,,,,,,,,,,,,,,,,,,,,,,,,,,1255.478630900383,None,,,,,,,,,,,,,,,,,,,,,,,,,,,,,,,,,,,,,,,,,,,,,,,,,,,,,,,,,present,202,68,aloud,new,yellow,1254.1209370996803,None,y,1254.1209370996803,None,"['y', 'return']","[1.182113199494779, 1.326205899938941]",1254.1209370996803,None,,,36,001,2023_Apr_12_1019,ExactRep-v3-final,2021.2.3,59.895589826388715,
,,,,,,,,,,,,68,0,68,0,,,,,,,,,,,,,,,,,,,,,,,,,,,,,,,,,,,,,,,,,,,,,,,,,1257.046849500388,None,,,,,,,,,,,,,,,,,,,,,,,,,,,,,,,,,,,,,,,,,,,,,,,,,,,,,,,,,woman,205,69,sing,new,yellow,1255.988025800325,None,n,1255.988025800325,None,"['n', 'return']","[0.858946799300611, 1.011285400018096]",1255.988025800325,None,,,36,001,2023_Apr_12_1019,ExactRep-v3-final,2021.2.3,59.895589826388715,
,,,,,,,,,,,,69,0,69,0,,,,,,,,,,,,,,,,,,,,,,,,,,,,,,,,,,,,,,,,,,,,,,,,,1262.4022407000884,None,,,,,,,,,,,,,,,,,,,,,,,,,,,,,,,,,,,,,,,,,,,,,,,,,,,,,,,,,body,110,70,aloud,old,yellow,1257.5564275998622,None,y,1257.5564275998622,None,"['y', 'return']","[4.618719800375402, 4.802815699949861]",1257.5564275998622,None,,,36,001,2023_Apr_12_1019,ExactRep-v3-final,2021.2.3,59.895589826388715,
,,,,,,,,,,,,70,0,70,0,,,,,,,,,,,,,,,,,,,,,,,,,,,,,,,,,,,,,,,,,,,,,,,,,1264.103938399814,None,,,,,,,,,,,,,,,,,,,,,,,,,,,,,,,,,,,,,,,,,,,,,,,,,,,,,,,,,king,148,71,silent,new,yellow,1262.91296220012,None,n,1262.91296220012,None,"['n', 'return']","[0.8460972001776099, 1.1501126997172832]",1262.91296220012,None,,,36,001,2023_Apr_12_1019,ExactRep-v3-final,2021.2.3,59.895589826388715,
,,,,,,,,,,,,71,0,71,0,,,,,,,,,,,,,,,,,,,,,,,,,,,,,,,,,,,,,,,,,,,,,,,,,1265.9392739003524,None,,,,,,,,,,,,,,,,,,,,,,,,,,,,,,,,,,,,,,,,,,,,,,,,,,,,,,,,,nail,169,72,sing,new,yellow,1264.6113593997434,None,n,1264.6113593997434,None,"['n', 'return']","[0.9237719001248479, 1.2918147007003427]",1264.6113593997434,None,,,36,001,2023_Apr_12_1019,ExactRep-v3-final,2021.2.3,59.895589826388715,
,,,,,,,,,,,,72,0,72,0,,,,,,,,,,,,,,,,,,,,,,,,,,,,,,,,,,,,,,,,,,,,,,,,,1267.7242301004007,None,,,,,,,,,,,,,,,,,,,,,,,,,,,,,,,,,,,,,,,,,,,,,,,,,,,,,,,,,troops,142,73,silent,new,yellow,1266.4509324999526,None,n,1266.4509324999526,None,"['n', 'return']","[0.9802796998992562, 1.2362220995128155]",1266.4509324999526,None,,,36,001,2023_Apr_12_1019,ExactRep-v3-final,2021.2.3,59.895589826388715,
,,,,,,,,,,,,73,0,73,0,,,,,,,,,,,,,,,,,,,,,,,,,,,,,,,,,,,,,,,,,,,,,,,,,1269.2424306999892,None,,,,,,,,,,,,,,,,,,,,,,,,,,,,,,,,,,,,,,,,,,,,,,,,,,,,,,,,,meeting,130,74,silent,new,yellow,1268.2389594996348,None,y,1268.2389594996348,None,"['y', 'return']","[0.7360783005133271, 0.9600317003205419]",1268.2389594996348,None,,,36,001,2023_Apr_12_1019,ExactRep-v3-final,2021.2.3,59.895589826388715,
,,,,,,,,,,,,74,0,74,0,,,,,,,,,,,,,,,,,,,,,,,,,,,,,,,,,,,,,,,,,,,,,,,,,1271.2110775001347,None,,,,,,,,,,,,,,,,,,,,,,,,,,,,,,,,,,,,,,,,,,,,,,,,,,,,,,,,,water,227,75,sing,new,yellow,1269.7519089998677,None,y,1269.7519089998677,None,"['y', 'return']","[1.103133600205183, 1.4232280002906919]",1269.7519089998677,None,,,36,001,2023_Apr_12_1019,ExactRep-v3-final,2021.2.3,59.895589826388715,
,,,,,,,,,,,,75,0,75,0,,,,,,,,,,,,,,,,,,,,,,,,,,,,,,,,,,,,,,,,,,,,,,,,,1273.0963888997212,None,,,,,,,,,,,,,,,,,,,,,,,,,,,,,,,,,,,,,,,,,,,,,,,,,,,,,,,,,dollar,126,76,silent,new,yellow,1271.7193069998175,None,y,1271.7193069998175,None,"['y', 'return']","[1.1358904000371695, 1.335844200104475]",1271.7193069998175,None,,,36,001,2023_Apr_12_1019,ExactRep-v3-final,2021.2.3,59.895589826388715,
,,,,,,,,,,,,76,0,76,0,,,,,,,,,,,,,,,,,,,,,,,,,,,,,,,,,,,,,,,,,,,,,,,,,1275.0317275999114,None,,,,,,,,,,,,,,,,,,,,,,,,,,,,,,,,,,,,,,,,,,,,,,,,,,,,,,,,,market,66,77,silent,old,yellow,1273.6070555998012,None,n,1273.6070555998012,None,"['n', 'return']","[1.1361044999212027, 1.3840324003249407]",1273.6070555998012,None,,,36,001,2023_Apr_12_1019,ExactRep-v3-final,2021.2.3,59.895589826388715,
,,,,,,,,,,,,77,0,77,0,,,,,,,,,,,,,,,,,,,,,,,,,,,,,,,,,,,,,,,,,,,,,,,,,1276.866672099568,None,,,,,,,,,,,,,,,,,,,,,,,,,,,,,,,,,,,,,,,,,,,,,,,,,,,,,,,,,lord,29,78,sing,old,yellow,1275.5405273996294,None,n,1275.5405273996294,None,"['n', 'return']","[1.0107426000759006, 1.2906523002311587]",1275.5405273996294,None,,,36,001,2023_Apr_12_1019,ExactRep-v3-final,2021.2.3,59.895589826388715,
,,,,,,,,,,,,78,0,78,0,,,,,,,,,,,,,,,,,,,,,,,,,,,,,,,,,,,,,,,,,,,,,,,,,1278.8520561996847,None,,,,,,,,,,,,,,,,,,,,,,,,,,,,,,,,,,,,,,,,,,,,,,,,,,,,,,,,,slave,44,79,silent,old,yellow,1277.3836469994858,None,n,1277.3836469994858,None,"['n', 'return']","[1.1594480006024241, 1.4315397003665566]",1277.3836469994858,None,,,36,001,2023_Apr_12_1019,ExactRep-v3-final,2021.2.3,59.895589826388715,
,,,,,,,,,,,,79,0,79,0,,,,,,,,,,,,,,,,,,,,,,,,,,,,,,,,,,,,,,,,,,,,,,,,,1280.6038020001724,None,,,,,,,,,,,,,,,,,,,,,,,,,,,,,,,,,,,,,,,,,,,,,,,,,,,,,,,,,owner,85,80,aloud,old,yellow,1279.360604800284,None,y,1279.360604800284,None,"['y', 'return']","[0.9983751997351646, 1.2065592994913459]",1279.360604800284,None,,,36,001,2023_Apr_12_1019,ExactRep-v3-final,2021.2.3,59.895589826388715,
,,,,,,,,,,,,80,0,80,0,,,,,,,,,,,,,,,,,,,,,,,,,,,,,,,,,,,,,,,,,,,,,,,,,1282.7392335999757,None,,,,,,,,,,,,,,,,,,,,,,,,,,,,,,,,,,,,,,,,,,,,,,,,,,,,,,,,,pupil,156,81,silent,new,yellow,1281.1147184995934,None,n,1281.1147184995934,None,"['n', 'return']","[1.372336800210178, 1.5884050000458956]",1281.1147184995934,None,,,36,001,2023_Apr_12_1019,ExactRep-v3-final,2021.2.3,59.895589826388715,
,,,,,,,,,,,,81,0,81,0,,,,,,,,,,,,,,,,,,,,,,,,,,,,,,,,,,,,,,,,,,,,,,,,,1284.6244781995192,None,,,,,,,,,,,,,,,,,,,,,,,,,,,,,,,,,,,,,,,,,,,,,,,,,,,,,,,,,chief,211,82,sing,new,yellow,1283.2398875001818,None,y,1283.2398875001818,None,"['y', 'return']","[1.1591795003041625, 1.3511517001315951]",1283.2398875001818,None,,,36,001,2023_Apr_12_1019,ExactRep-v3-final,2021.2.3,59.895589826388715,
,,,,,,,,,,,,82,0,82,0,,,,,,,,,,,,,,,,,,,,,,,,,,,,,,,,,,,,,,,,,,,,,,,,,1286.4596207998693,None,,,,,,,,,,,,,,,,,,,,,,,,,,,,,,,,,,,,,,,,,,,,,,,,,,,,,,,,,leader,197,83,sing,new,yellow,1285.1442352002487,None,n,1285.1442352002487,None,"['n', 'return']","[1.0309000005945563, 1.2788965003564954]",1285.1442352002487,None,,,36,001,2023_Apr_12_1019,ExactRep-v3-final,2021.2.3,59.895589826388715,
,,,,,,,,,,,,83,0,83,0,,,,,,,,,,,,,,,,,,,,,,,,,,,,,,,,,,,,,,,,,,,,,,,,,1288.294695599936,None,,,,,,,,,,,,,,,,,,,,,,,,,,,,,,,,,,,,,,,,,,,,,,,,,,,,,,,,,plain,125,84,silent,new,yellow,1286.9664436997846,None,y,1286.9664436997846,None,"['y', 'return']","[1.1129556996747851, 1.2966360999271274]",1286.9664436997846,None,,,36,001,2023_Apr_12_1019,ExactRep-v3-final,2021.2.3,59.895589826388715,
,,,,,,,,,,,,84,0,84,0,,,,,,,,,,,,,,,,,,,,,,,,,,,,,,,,,,,,,,,,,,,,,,,,,1290.530530899763,None,,,,,,,,,,,,,,,,,,,,,,,,,,,,,,,,,,,,,,,,,,,,,,,,,,,,,,,,,theory,160,85,aloud,new,yellow,1288.8056603996083,None,y,1288.8056603996083,None,"['y', 'return']","[1.5134369991719723, 1.6897076992318034]",1288.8056603996083,None,,,36,001,2023_Apr_12_1019,ExactRep-v3-final,2021.2.3,59.895589826388715,
,,,,,,,,,,,,85,0,85,0,,,,,,,,,,,,,,,,,,,,,,,,,,,,,,,,,,,,,,,,,,,,,,,,,1292.3154266998172,None,,,,,,,,,,,,,,,,,,,,,,,,,,,,,,,,,,,,,,,,,,,,,,,,,,,,,,,,,arm,62,86,silent,old,yellow,1291.0395895997062,None,y,1291.0395895997062,None,"['y', 'return']","[0.927760399878025, 1.239639999344945]",1291.0395895997062,None,,,36,001,2023_Apr_12_1019,ExactRep-v3-final,2021.2.3,59.895589826388715,
,,,,,,,,,,,,86,0,86,0,,,,,,,,,,,,,,,,,,,,,,,,,,,,,,,,,,,,,,,,,,,,,,,,,1293.8836570000276,None,,,,,,,,,,,,,,,,,,,,,,,,,,,,,,,,,,,,,,,,,,,,,,,,,,,,,,,,,artist,203,87,sing,new,yellow,1292.8266307003796,None,n,1292.8266307003796,None,"['n', 'return']","[0.7564564999192953, 1.0206110002472997]",1292.8266307003796,None,,,36,001,2023_Apr_12_1019,ExactRep-v3-final,2021.2.3,59.895589826388715,
,,,,,,,,,,,,87,0,87,0,,,,,,,,,,,,,,,,,,,,,,,,,,,,,,,,,,,,,,,,,,,,,,,,,1295.7187767997384,None,,,,,,,,,,,,,,,,,,,,,,,,,,,,,,,,,,,,,,,,,,,,,,,,,,,,,,,,,gift,140,88,silent,new,yellow,1294.395144299604,None,y,1294.395144299604,None,"['y', 'return']","[1.0519713005051017, 1.283963800407946]",1294.395144299604,None,,,36,001,2023_Apr_12_1019,ExactRep-v3-final,2021.2.3,59.895589826388715,
,,,,,,,,,,,,88,0,88,0,,,,,,,,,,,,,,,,,,,,,,,,,,,,,,,,,,,,,,,,,,,,,,,,,1297.3872360000387,None,,,,,,,,,,,,,,,,,,,,,,,,,,,,,,,,,,,,,,,,,,,,,,,,,,,,,,,,,grief,72,89,silent,old,yellow,1296.2260582000017,None,y,1296.2260582000017,None,"['y', 'return']","[0.9650990003719926, 1.1170105999335647]",1296.2260582000017,None,,,36,001,2023_Apr_12_1019,ExactRep-v3-final,2021.2.3,59.895589826388715,
,,,,,,,,,,,,89,0,89,0,,,,,,,,,,,,,,,,,,,,,,,,,,,,,,,,,,,,,,,,,,,,,,,,,1299.022170100361,None,,,,,,,,,,,,,,,,,,,,,,,,,,,,,,,,,,,,,,,,,,,,,,,,,,,,,,,,,justice,46,90,silent,old,yellow,1297.8959242999554,None,n,1297.8959242999554,None,"['n', 'return']","[0.9113181997090578, 1.0792028000578284]",1297.8959242999554,None,,,36,001,2023_Apr_12_1019,ExactRep-v3-final,2021.2.3,59.895589826388715,
,,,,,,,,,,,,90,0,90,0,,,,,,,,,,,,,,,,,,,,,,,,,,,,,,,,,,,,,,,,,,,,,,,,,1303.226359100081,None,,,,,,,,,,,,,,,,,,,,,,,,,,,,,,,,,,,,,,,,,,,,,,,,,,,,,,,,,fate,139,91,silent,new,yellow,1299.533559200354,None,n,1299.533559200354,None,"['n', 'return']","[3.4656520998105407, 3.6497144997119904]",1299.533559200354,None,,,36,001,2023_Apr_12_1019,ExactRep-v3-final,2021.2.3,59.895589826388715,
,,,,,,,,,,,,91,0,91,0,,,,,,,,,,,,,,,,,,,,,,,,,,,,,,,,,,,,,,,,,,,,,,,,,1304.7445893995464,None,,,,,,,,,,,,,,,,,,,,,,,,,,,,,,,,,,,,,,,,,,,,,,,,,,,,,,,,,love,83,92,aloud,old,yellow,1303.7362925000489,None,y,1303.7362925000489,None,"['y', 'return']","[0.806810300797224, 0.9668118003755808]",1303.7362925000489,None,,,36,001,2023_Apr_12_1019,ExactRep-v3-final,2021.2.3,59.895589826388715,
,,,,,,,,,,,,92,0,92,0,,,,,,,,,,,,,,,,,,,,,,,,,,,,,,,,,,,,,,,,,,,,,,,,,1306.5799019001424,None,,,,,,,,,,,,,,,,,,,,,,,,,,,,,,,,,,,,,,,,,,,,,,,,,,,,,,,,,history,56,93,silent,old,yellow,1305.2543892003596,None,n,1305.2543892003596,None,"['n', 'return']","[0.9928265996277332, 1.288799099624157]",1305.2543892003596,None,,,36,001,2023_Apr_12_1019,ExactRep-v3-final,2021.2.3,59.895589826388715,
,,,,,,,,,,,,93,0,93,0,,,,,,,,,,,,,,,,,,,,,,,,,,,,,,,,,,,,,,,,,,,,,,,,,1308.2980206999928,None,,,,,,,,,,,,,,,,,,,,,,,,,,,,,,,,,,,,,,,,,,,,,,,,,,,,,,,,,paper,232,94,aloud,new,yellow,1307.0927975997329,None,n,1307.0927975997329,None,"['n', 'return']","[0.9622246995568275, 1.170168500393629]",1307.0927975997329,None,,,36,001,2023_Apr_12_1019,ExactRep-v3-final,2021.2.3,59.895589826388715,
,,,,,,,,,,,,94,0,94,0,,,,,,,,,,,,,,,,,,,,,,,,,,,,,,,,,,,,,,,,,,,,,,,,,1309.7495218003169,None,,,,,,,,,,,,,,,,,,,,,,,,,,,,,,,,,,,,,,,,,,,,,,,,,,,,,,,,,chair,113,95,aloud,old,yellow,1308.8080078000203,None,y,1308.8080078000203,None,"['y', 'return']","[0.6393298003822565, 0.8951823003590107]",1308.8080078000203,None,,,36,001,2023_Apr_12_1019,ExactRep-v3-final,2021.2.3,59.895589826388715,
,,,,,,,,,,,,95,0,95,0,,,,,,,,,,,,,,,,,,,,,,,,,,,,,,,,,,,,,,,,,,,,,,,,,1311.7515770997852,None,,,,,,,,,,,,,,,,,,,,,,,,,,,,,,,,,,,,,,,,,,,,,,,,,,,,,,,,,dream,204,96,aloud,new,yellow,1310.2567825000733,None,y,1310.2567825000733,None,"['y', 'return']","[1.142353200353682, 1.4623459000140429]",1310.2567825000733,None,,,36,001,2023_Apr_12_1019,ExactRep-v3-final,2021.2.3,59.895589826388715,
,,,,,,,,,,,,96,0,96,0,,,,,,,,,,,,,,,,,,,,,,,,,,,,,,,,,,,,,,,,,,,,,,,,,1315.1216315003112,None,,,,,,,,,,,,,,,,,,,,,,,,,,,,,,,,,,,,,,,,,,,,,,,,,,,,,,,,,wine,189,97,sing,new,yellow,1312.2656942997128,None,n,1312.2656942997128,None,"['n', 'return']","[2.6052897004410625, 2.8134959004819393]",1312.2656942997128,None,,,36,001,2023_Apr_12_1019,ExactRep-v3-final,2021.2.3,59.895589826388715,
,,,,,,,,,,,,97,0,97,0,,,,,,,,,,,,,,,,,,,,,,,,,,,,,,,,,,,,,,,,,,,,,,,,,1316.7233119998127,None,,,,,,,,,,,,,,,,,,,,,,,,,,,,,,,,,,,,,,,,,,,,,,,,,,,,,,,,,seat,109,98,aloud,old,yellow,1315.631613300182,None,y,1315.631613300182,None,"['y', 'return']","[0.8314755000174046, 1.0474463002756238]",1315.631613300182,None,,,36,001,2023_Apr_12_1019,ExactRep-v3-final,2021.2.3,59.895589826388715,
,,,,,,,,,,,,98,0,98,0,,,,,,,,,,,,,,,,,,,,,,,,,,,,,,,,,,,,,,,,,,,,,,,,,1318.5416887002066,None,,,,,,,,,,,,,,,,,,,,,,,,,,,,,,,,,,,,,,,,,,,,,,,,,,,,,,,,,army,73,99,silent,old,yellow,1317.2261899001896,None,y,1317.2261899001896,None,"['y', 'return']","[1.085046200081706, 1.2770039001479745]",1317.2261899001896,None,,,36,001,2023_Apr_12_1019,ExactRep-v3-final,2021.2.3,59.895589826388715,
,,,,,,,,,,,,99,0,99,0,,,,,,,,,,,,,,,,,,,,,,,,,,,,,,,,,,,,,,,,,,,,,,,,,1321.1276508998126,None,,,,,,,,,,,,,,,,,,,,,,,,,,,,,,,,,,,,,,,,,,,,,,,,,,,,,,,,,insect,24,100,sing,old,yellow,1319.05254410021,None,n,1319.05254410021,None,"['n', 'return']","[1.7946873996406794, 2.0345717994496226]",1319.05254410021,None,,,36,001,2023_Apr_12_1019,ExactRep-v3-final,2021.2.3,59.895589826388715,
,,,,,,,,,,,,100,0,100,0,,,,,,,,,,,,,,,,,,,,,,,,,,,,,,,,,,,,,,,,,,,,,,,,,1325.5822470998392,None,,,,,,,,,,,,,,,,,,,,,,,,,,,,,,,,,,,,,,,,,,,,,,,,,,,,,,,,,devil,27,101,sing,old,yellow,1321.6372480997816,None,n,1321.6372480997816,None,"['n', 'return']","[3.7220598002895713, 3.898186600767076]",1321.6372480997816,None,,,36,001,2023_Apr_12_1019,ExactRep-v3-final,2021.2.3,59.895589826388715,
,,,,,,,,,,,,101,0,101,0,,,,,,,,,,,,,,,,,,,,,,,,,,,,,,,,,,,,,,,,,,,,,,,,,1327.2170649999753,None,,,,,,,,,,,,,,,,,,,,,,,,,,,,,,,,,,,,,,,,,,,,,,,,,,,,,,,,,camp,144,102,silent,new,yellow,1326.0935720996931,None,y,1326.0935720996931,None,"['y', 'return']","[0.7935736002400517, 1.0816010003909469]",1326.0935720996931,None,,,36,001,2023_Apr_12_1019,ExactRep-v3-final,2021.2.3,59.895589826388715,
,,,,,,,,,,,,102,0,102,0,,,,,,,,,,,,,,,,,,,,,,,,,,,,,,,,,,,,,,,,,,,,,,,,,1329.2524391999468,None,,,,,,,,,,,,,,,,,,,,,,,,,,,,,,,,,,,,,,,,,,,,,,,,,,,,,,,,,spirit,105,103,aloud,old,yellow,1327.7270136997104,None,y,1327.7270136997104,None,"['y', 'return']","[1.1600703997537494, 1.4801062000915408]",1327.7270136997104,None,,,36,001,2023_Apr_12_1019,ExactRep-v3-final,2021.2.3,59.895589826388715,
,,,,,,,,,,,,103,0,103,0,,,,,,,,,,,,,,,,,,,,,,,,,,,,,,,,,,,,,,,,,,,,,,,,,1330.6870617996901,None,,,,,,,,,,,,,,,,,,,,,,,,,,,,,,,,,,,,,,,,,,,,,,,,,,,,,,,,,hope,132,104,silent,new,yellow,1329.761430799961,None,y,1329.761430799961,None,"['y', 'return']","[0.7417851993814111, 0.8856103997677565]",1329.761430799961,None,,,36,001,2023_Apr_12_1019,ExactRep-v3-final,2021.2.3,59.895589826388715,
,,,,,,,,,,,,104,0,104,0,,,,,,,,,,,,,,,,,,,,,,,,,,,,,,,,,,,,,,,,,,,,,,,,,1332.3387735998258,None,,,,,,,,,,,,,,,,,,,,,,,,,,,,,,,,,,,,,,,,,,,,,,,,,,,,,,,,,poet,118,105,aloud,old,yellow,1331.1878631999716,None,n,1331.1878631999716,None,"['n', 'return']","[0.8672757996246219, 1.115374599583447]",1331.1878631999716,None,,,36,001,2023_Apr_12_1019,ExactRep-v3-final,2021.2.3,59.895589826388715,
,,,,,,,,,,,,105,0,105,0,,,,,,,,,,,,,,,,,,,,,,,,,,,,,,,,,,,,,,,,,,,,,,,,,1334.1241314001381,None,,,,,,,,,,,,,,,,,,,,,,,,,,,,,,,,,,,,,,,,,,,,,,,,,,,,,,,,,college,147,106,silent,new,yellow,1332.849069999531,None,n,1332.849069999531,None,"['n', 'return']","[0.9741485994309187, 1.230119999498129]",1332.849069999531,None,,,36,001,2023_Apr_12_1019,ExactRep-v3-final,2021.2.3,59.895589826388715,
,,,,,,,,,,,,106,0,106,0,,,,,,,,,,,,,,,,,,,,,,,,,,,,,,,,,,,,,,,,,,,,,,,,,1335.5421225000173,None,,,,,,,,,,,,,,,,,,,,,,,,,,,,,,,,,,,,,,,,,,,,,,,,,,,,,,,,,mercy,71,107,silent,old,yellow,1334.6398013997823,None,y,1334.6398013997823,None,"['y', 'return']","[0.703303400427103, 0.8554252004250884]",1334.6398013997823,None,,,36,001,2023_Apr_12_1019,ExactRep-v3-final,2021.2.3,59.895589826388715,
,,,,,,,,,,,,107,0,107,0,,,,,,,,,,,,,,,,,,,,,,,,,,,,,,,,,,,,,,,,,,,,,,,,,1339.245769600384,None,,,,,,,,,,,,,,,,,,,,,,,,,,,,,,,,,,,,,,,,,,,,,,,,,,,,,,,,,effort,77,108,silent,old,yellow,1336.0520300995559,None,y,1336.0520300995559,None,"['y', 'return']","[2.9394203005358577, 3.1471274001523852]",1336.0520300995559,None,,,36,001,2023_Apr_12_1019,ExactRep-v3-final,2021.2.3,59.895589826388715,
,,,,,,,,,,,,108,0,108,0,,,,,,,,,,,,,,,,,,,,,,,,,,,,,,,,,,,,,,,,,,,,,,,,,1340.7639638995752,None,,,,,,,,,,,,,,,,,,,,,,,,,,,,,,,,,,,,,,,,,,,,,,,,,,,,,,,,,toy,18,109,sing,old,yellow,1339.7548070997,None,y,1339.7548070997,None,"['y', 'return']","[0.7882823999971151, 0.9723121002316475]",1339.7548070997,None,,,36,001,2023_Apr_12_1019,ExactRep-v3-final,2021.2.3,59.895589826388715,
,,,,,,,,,,,,109,0,109,0,,,,,,,,,,,,,,,,,,,,,,,,,,,,,,,,,,,,,,,,,,,,,,,,,1342.4824219001457,None,,,,,,,,,,,,,,,,,,,,,,,,,,,,,,,,,,,,,,,,,,,,,,,,,,,,,,,,,salary,196,110,aloud,new,yellow,1341.2779361000285,None,n,1341.2779361000285,None,"['n', 'return']","[0.8812298001721501, 1.1612109001725912]",1341.2779361000285,None,,,36,001,2023_Apr_12_1019,ExactRep-v3-final,2021.2.3,59.895589826388715,
,,,,,,,,,,,,110,0,110,0,,,,,,,,,,,,,,,,,,,,,,,,,,,,,,,,,,,,,,,,,,,,,,,,,1344.2006449997425,None,,,,,,,,,,,,,,,,,,,,,,,,,,,,,,,,,,,,,,,,,,,,,,,,,,,,,,,,,party,5,111,sing,old,yellow,1342.9947530003265,None,y,1342.9947530003265,None,"['y', 'return']","[0.9403193006291986, 1.1644015004858375]",1342.9947530003265,None,,,36,001,2023_Apr_12_1019,ExactRep-v3-final,2021.2.3,59.895589826388715,
,,,,,,,,,,,,111,0,111,0,,,,,,,,,,,,,,,,,,,,,,,,,,,,,,,,,,,,,,,,,,,,,,,,,1346.0860137995332,None,,,,,,,,,,,,,,,,,,,,,,,,,,,,,,,,,,,,,,,,,,,,,,,,,,,,,,,,,time,195,112,sing,new,yellow,1344.722314200364,None,n,1344.722314200364,None,"['n', 'return']","[1.108874499797821, 1.3168826000764966]",1344.722314200364,None,,,36,001,2023_Apr_12_1019,ExactRep-v3-final,2021.2.3,59.895589826388715,
,,,,,,,,,,,,112,0,112,0,,,,,,,,,,,,,,,,,,,,,,,,,,,,,,,,,,,,,,,,,,,,,,,,,1347.971090699546,None,,,,,,,,,,,,,,,,,,,,,,,,,,,,,,,,,,,,,,,,,,,,,,,,,,,,,,,,,bar,28,113,sing,old,yellow,1346.5973114995286,None,y,1346.5973114995286,None,"['y', 'return']","[1.0897406004369259, 1.3297629998996854]",1346.5973114995286,None,,,36,001,2023_Apr_12_1019,ExactRep-v3-final,2021.2.3,59.895589826388715,
,,,,,,,,,,,,113,0,113,0,,,,,,,,,,,,,,,,,,,,,,,,,,,,,,,,,,,,,,,,,,,,,,,,,1349.8229964999482,None,,,,,,,,,,,,,,,,,,,,,,,,,,,,,,,,,,,,,,,,,,,,,,,,,,,,,,,,,season,183,114,sing,new,yellow,1348.4837715001777,None,y,1348.4837715001777,None,"['y', 'return']","[1.0676312996074557, 1.2914263000711799]",1348.4837715001777,None,,,36,001,2023_Apr_12_1019,ExactRep-v3-final,2021.2.3,59.895589826388715,
,,,,,,,,,,,,114,0,114,0,,,,,,,,,,,,,,,,,,,,,,,,,,,,,,,,,,,,,,,,,,,,,,,,,1351.357939899899,None,,,,,,,,,,,,,,,,,,,,,,,,,,,,,,,,,,,,,,,,,,,,,,,,,,,,,,,,,horse,37,115,sing,old,yellow,1350.3318349998444,None,y,1350.3318349998444,None,"['y', 'return']","[0.7795564997941256, 0.9798291996121407]",1350.3318349998444,None,,,36,001,2023_Apr_12_1019,ExactRep-v3-final,2021.2.3,59.895589826388715,
,,,,,,,,,,,,115,0,115,0,,,,,,,,,,,,,,,,,,,,,,,,,,,,,,,,,,,,,,,,,,,,,,,,,1352.9594847001135,None,,,,,,,,,,,,,,,,,,,,,,,,,,,,,,,,,,,,,,,,,,,,,,,,,,,,,,,,,library,80,116,aloud,old,yellow,1351.8654984999448,None,n,1351.8654984999448,None,"['n', 'return']","[0.7656732993200421, 1.061841699294746]",1351.8654984999448,None,,,36,001,2023_Apr_12_1019,ExactRep-v3-final,2021.2.3,59.895589826388715,
,,,,,,,,,,,,116,0,116,0,,,,,,,,,,,,,,,,,,,,,,,,,,,,,,,,,,,,,,,,,,,,,,,,,1354.994727499783,None,,,,,,,,,,,,,,,,,,,,,,,,,,,,,,,,,,,,,,,,,,,,,,,,,,,,,,,,,opinion,75,117,silent,old,yellow,1353.4690993996337,None,n,1353.4690993996337,None,"['n', 'return']","[1.3142034001648426, 1.4902651999145746]",1353.4690993996337,None,,,36,001,2023_Apr_12_1019,ExactRep-v3-final,2021.2.3,59.895589826388715,
,,,,,,,,,,,,117,0,117,0,,,,,,,,,,,,,,,,,,,,,,,,,,,,,,,,,,,,,,,,,,,,,,,,,1358.5149517999962,None,,,,,,,,,,,,,,,,,,,,,,,,,,,,,,,,,,,,,,,,,,,,,,,,,,,,,,,,,machine,198,118,aloud,new,yellow,1355.5074281999841,None,n,1355.5074281999841,None,"['n', 'return']","[2.731803400442004, 2.9636682998389006]",1355.5074281999841,None,,,36,001,2023_Apr_12_1019,ExactRep-v3-final,2021.2.3,59.895589826388715,
,,,,,,,,,,,,118,0,118,0,,,,,,,,,,,,,,,,,,,,,,,,,,,,,,,,,,,,,,,,,,,,,,,,,1359.9830895997584,None,,,,,,,,,,,,,,,,,,,,,,,,,,,,,,,,,,,,,,,,,,,,,,,,,,,,,,,,,mother,115,119,aloud,old,yellow,1359.0218577003106,None,y,1359.0218577003106,None,"['y', 'return']","[0.6814220994710922, 0.9134192001074553]",1359.0218577003106,None,,,36,001,2023_Apr_12_1019,ExactRep-v3-final,2021.2.3,59.895589826388715,
,,,,,,,,,,,,119,0,119,0,,,,,,,,,,,,,,,,,,,,,,,,,,,,,,,,,,,,,,,,,,,,,,,,,1361.517958600074,None,,,,,,,,,,,,,,,,,,,,,,,,,,,,,,,,,,,,,,,,,,,,,,,,,,,,,,,,,forest,41,120,silent,old,yellow,1360.4984584003687,None,y,1360.4984584003687,None,"['y', 'return']","[0.8287595994770527, 0.9727101000025868]",1360.4984584003687,None,,,36,001,2023_Apr_12_1019,ExactRep-v3-final,2021.2.3,59.895589826388715,
,,,,,,,,,,,,120,0,120,0,,,,,,,,,,,,,,,,,,,,,,,,,,,,,,,,,,,,,,,,,,,,,,,,,1364.2039585001767,None,,,,,,,,,,,,,,,,,,,,,,,,,,,,,,,,,,,,,,,,,,,,,,,,,,,,,,,,,cost,49,121,silent,old,yellow,1362.0288324998692,None,n,1362.0288324998692,None,"['n', 'return']","[1.9381697000935674, 2.130359400063753]",1362.0288324998692,None,,,36,001,2023_Apr_12_1019,ExactRep-v3-final,2021.2.3,59.895589826388715,
,,,,,,,,,,,,121,0,121,0,,,,,,,,,,,,,,,,,,,,,,,,,,,,,,,,,,,,,,,,,,,,,,,,,1366.2894799001515,None,,,,,,,,,,,,,,,,,,,,,,,,,,,,,,,,,,,,,,,,,,,,,,,,,,,,,,,,,city,17,122,sing,old,yellow,1364.7192575996742,None,y,1364.7192575996742,None,"['y', 'return']","[1.2798252999782562, 1.5278882998973131]",1364.7192575996742,None,,,36,001,2023_Apr_12_1019,ExactRep-v3-final,2021.2.3,59.895589826388715,
,,,,,,,,,,,,122,0,122,0,,,,,,,,,,,,,,,,,,,,,,,,,,,,,,,,,,,,,,,,,,,,,,,,,1368.0913028996438,None,,,,,,,,,,,,,,,,,,,,,,,,,,,,,,,,,,,,,,,,,,,,,,,,,,,,,,,,,weapon,141,123,silent,new,yellow,1366.8008035998791,None,n,1366.8008035998791,None,"['n', 'return']","[1.0785212004557252, 1.2543823001906276]",1366.8008035998791,None,,,36,001,2023_Apr_12_1019,ExactRep-v3-final,2021.2.3,59.895589826388715,
,,,,,,,,,,,,123,0,123,0,,,,,,,,,,,,,,,,,,,,,,,,,,,,,,,,,,,,,,,,,,,,,,,,,1369.6595534002408,None,,,,,,,,,,,,,,,,,,,,,,,,,,,,,,,,,,,,,,,,,,,,,,,,,,,,,,,,,sky,155,124,silent,new,yellow,1368.6050436999649,None,y,1368.6050436999649,None,"['y', 'return']","[0.8102644002065063, 1.0181242004036903]",1368.6050436999649,None,,,36,001,2023_Apr_12_1019,ExactRep-v3-final,2021.2.3,59.895589826388715,
,,,,,,,,,,,,124,0,124,0,,,,,,,,,,,,,,,,,,,,,,,,,,,,,,,,,,,,,,,,,,,,,,,,,1371.1776243001223,None,,,,,,,,,,,,,,,,,,,,,,,,,,,,,,,,,,,,,,,,,,,,,,,,,,,,,,,,,glory,181,125,sing,new,yellow,1370.161346799694,None,y,1370.161346799694,None,"['y', 'return']","[0.8139679003506899, 0.981873800046742]",1370.161346799694,None,,,36,001,2023_Apr_12_1019,ExactRep-v3-final,2021.2.3,59.895589826388715,
,,,,,,,,,,,,125,0,125,0,,,,,,,,,,,,,,,,,,,,,,,,,,,,,,,,,,,,,,,,,,,,,,,,,1372.8292621001601,None,,,,,,,,,,,,,,,,,,,,,,,,,,,,,,,,,,,,,,,,,,,,,,,,,,,,,,,,,grass,206,126,aloud,new,yellow,1371.6899709003046,None,n,1371.6899709003046,None,"['n', 'return']","[0.9093036996200681, 1.0933130998164415]",1371.6899709003046,None,,,36,001,2023_Apr_12_1019,ExactRep-v3-final,2021.2.3,59.895589826388715,
,,,,,,,,,,,,126,0,126,0,,,,,,,,,,,,,,,,,,,,,,,,,,,,,,,,,,,,,,,,,,,,,,,,,1377.6341409999877,None,,,,,,,,,,,,,,,,,,,,,,,,,,,,,,,,,,,,,,,,,,,,,,,,,,,,,,,,,circle,210,127,aloud,new,yellow,1373.3494375003502,None,y,1373.3494375003502,None,"['y', 'return']","[4.057769199833274, 4.241840300150216]",1373.3494375003502,None,,,36,001,2023_Apr_12_1019,ExactRep-v3-final,2021.2.3,59.895589826388715,
,,,,,,,,,,,,127,0,127,0,,,,,,,,,,,,,,,,,,,,,,,,,,,,,,,,,,,,,,,,,,,,,,,,,1379.102247999981,None,,,,,,,,,,,,,,,,,,,,,,,,,,,,,,,,,,,,,,,,,,,,,,,,,,,,,,,,,village,163,128,sing,new,yellow,1378.1451476002112,None,n,1378.1451476002112,None,"['n', 'return']","[0.6780200004577637, 0.9181051002815366]",1378.1451476002112,None,,,36,001,2023_Apr_12_1019,ExactRep-v3-final,2021.2.3,59.895589826388715,
,,,,,,,,,,,,128,0,128,0,,,,,,,,,,,,,,,,,,,,,,,,,,,,,,,,,,,,,,,,,,,,,,,,,1380.8039098000154,None,,,,,,,,,,,,,,,,,,,,,,,,,,,,,,,,,,,,,,,,,,,,,,,,,,,,,,,,,silence,4,129,sing,old,yellow,1379.6201090998948,None,y,1379.6201090998948,None,"['y', 'return']","[0.9069399992004037, 1.1389955999329686]",1379.6201090998948,None,,,36,001,2023_Apr_12_1019,ExactRep-v3-final,2021.2.3,59.895589826388715,
,,,,,,,,,,,,129,0,129,0,,,,,,,,,,,,,,,,,,,,,,,,,,,,,,,,,,,,,,,,,,,,,,,,,1384.1910402001813,None,,,,,,,,,,,,,,,,,,,,,,,,,,,,,,,,,,,,,,,,,,,,,,,,,,,,,,,,,science,239,130,sing,new,yellow,1381.3155957004055,None,n,1381.3155957004055,None,"['n', 'return']","[2.6595713002607226, 2.827541899867356]",1381.3155957004055,None,,,36,001,2023_Apr_12_1019,ExactRep-v3-final,2021.2.3,59.895589826388715,
,,,,,,,,,,,,130,0,130,0,,,,,,,,,,,,,,,,,,,,,,,,,,,,,,,,,,,,,,,,,,,,,,,,,1385.6754516996443,None,,,,,,,,,,,,,,,,,,,,,,,,,,,,,,,,,,,,,,,,,,,,,,,,,,,,,,,,,prayer,188,131,aloud,new,yellow,1384.6975354999304,None,n,1384.6975354999304,None,"['n', 'return']","[0.7659067995846272, 0.9417112991213799]",1384.6975354999304,None,,,36,001,2023_Apr_12_1019,ExactRep-v3-final,2021.2.3,59.895589826388715,
