trials_fam.thisRepN,trials_fam.thisTrialN,trials_fam.thisN,trials_fam.thisIndex,trials_prc.thisRepN,trials_prc.thisTrialN,trials_prc.thisN,trials_prc.thisIndex,StudyLoop.thisRepN,StudyLoop.thisTrialN,StudyLoop.thisN,StudyLoop.thisIndex,TestLoop.thisRepN,TestLoop.thisTrialN,TestLoop.thisN,TestLoop.thisIndex,text_colortest.started,text_colortest.stopped,key_colortest.keys,key_colortest.rt,key_colortest.started,key_colortest.stopped,textCondition.started,textCondition.stopped,keyCondition.keys,keyCondition.rt,keyCondition.started,keyCondition.stopped,Condition_between,Condition_counterbal,keyWelcome.keys,keyWelcome.rt,keyWelcome.started,keyWelcome.stopped,welcome_a.started,welcome_a.stopped,welcome_b.started,welcome_b.stopped,welcome_c.started,welcome_c.stopped,welcome_d.started,welcome_d.stopped,welcome_e.started,welcome_e.stopped,welcome_f.started,welcome_f.stopped,key_resp_fam_inst.keys,key_resp_fam_inst.rt,key_resp_fam_inst.started,key_resp_fam_inst.stopped,fam_a.started,fam_a.stopped,fam_b.started,fam_b.stopped,fam_c.started,fam_c.stopped,fam_d.started,fam_d.stopped,fam_e.started,fam_e.stopped,fam_f.started,fam_f.stopped,text_famil.started,text_famil.stopped,textBlank500.started,textBlank500.stopped,key_resp_prc_inst.keys,key_resp_prc_inst.rt,key_resp_prc_inst.started,key_resp_prc_inst.stopped,prac_a.started,prac_a.stopped,prac_b.started,prac_b.stopped,prac_c.started,prac_c.stopped,prac_d.started,prac_d.stopped,prac_e.started,prac_e.stopped,prac_f.started,prac_f.stopped,text_prc_trial.started,text_prc_trial.stopped,key_resp_study_inst.keys,key_resp_study_inst.rt,key_resp_study_inst.started,key_resp_study_inst.stopped,crit_a.started,crit_a.stopped,crit_b.started,crit_b.stopped,crit_c.started,crit_c.stopped,crit_d.started,crit_d.stopped,crit_e.started,crit_e.stopped,crit_f.started,crit_f.stopped,study_word,study_num,study_order,study_type,word_color,textStudy.started,textStudy.stopped,keyStudy.keys,keyStudy.started,keyStudy.stopped,post_study.started,post_study.stopped,key_resp_post_study.keys,key_resp_post_study.rt,key_resp_post_study.started,key_resp_post_study.stopped,test_inst.started,test_inst.stopped,key_resp_test_inst.keys,key_resp_test_inst.rt,key_resp_test_inst.started,key_resp_test_inst.stopped,test_word,test_num,test_order,test_condition,old_new_test,word_color_test,textConf.started,textConf.stopped,Participant Response,textInput.started,textInput.stopped,keyResp.keys,keyResp.rt,keyResp.started,keyResp.stopped,textEnd.started,textEnd.stopped,participant,session,date,expName,psychopyVersion,frameRate,
,,,,,,,,,,,,,,,,160.5072622001171,None,y,0.7389586996287107,160.5072622001171,None,,,,,,,,,,,,,,,,,,,,,,,,,,,,,,,,,,,,,,,,,,,,,,,,,,,,,,,,,,,,,,,,,,,,,,,,,,,,,,,,,,,,,,,,,,,,,,,,,,,,,,,,,,,,,,,,,,,,,,37YA,001,2023_Apr_12_1525,ExactRep-v3-final,2021.2.3,59.94093415845065,
,,,,,,,,,,,,,,,,,,,,,,161.26217779982835,None,a,1.039967100135982,161.26217779982835,None,,,,,,,,,,,,,,,,,,,,,,,,,,,,,,,,,,,,,,,,,,,,,,,,,,,,,,,,,,,,,,,,,,,,,,,,,,,,,,,,,,,,,,,,,,,,,,,,,,,,,,,,,,,,,,,,37YA,001,2023_Apr_12_1525,ExactRep-v3-final,2021.2.3,59.94093415845065,
,,,,,,,,,,,,,,,,,,,,,,,,,,,,colorfoils,a,space,262.09373600035906,172.42466770019382,None,,,,,,,,,,,,,,,,,,,,,,,,,,,,,,,,,,,,,,,,,,,,,,,,,,,,,,,,,,,,,,,,,,,,,,,,,,,,,,,,,,,,,,,,,,,,,,,,,,,,,,,,,,37YA,001,2023_Apr_12_1525,ExactRep-v3-final,2021.2.3,59.94093415845065,
,,,,,,,,,,,,,,,,,,,,,,,,,,,,,,,,,,162.50012170057744,None,162.50012170057744,None,162.50012170057744,None,162.50012170057744,None,162.50012170057744,None,162.50012170057744,None,space,23.71756700053811,444.6654117004946,None,,,,,,,,,,,,,,,,,,,,,,,,,,,,,,,,,,,,,,,,,,,,,,,,,,,,,,,,,,,,,,,,,,,,,,,,,,,,,,,,,,,,,,,,,,37YA,001,2023_Apr_12_1525,ExactRep-v3-final,2021.2.3,59.94093415845065,
0,0,0,0,,,,,,,,,,,,,,,,,,,,,,,,,,,,,,,,,,,,,,,,,,,,,,,434.6770251998678,None,434.6770251998678,None,434.6770251998678,None,434.6770251998678,None,434.6770251998678,None,434.6770251998678,None,468.46574360039085,None,470.47134730033576,None,,,,,,,,,,,,,,,,,,,,,,,,,,,,,,,,,,,,,,,,,,,,,,,,,,,,,,,,,,,,,,,,,,,,,,,,,,37YA,001,2023_Apr_12_1525,ExactRep-v3-final,2021.2.3,59.94093415845065,
1,0,1,0,,,,,,,,,,,,,,,,,,,,,,,,,,,,,,,,,,,,,,,,,,,,,,,,,,,,,,,,,,,470.9680099999532,None,472.97363220062107,None,,,,,,,,,,,,,,,,,,,,,,,,,,,,,,,,,,,,,,,,,,,,,,,,,,,,,,,,,,,,,,,,,,,,,,,,,,37YA,001,2023_Apr_12_1525,ExactRep-v3-final,2021.2.3,59.94093415845065,
2,0,2,0,,,,,,,,,,,,,,,,,,,,,,,,,,,,,,,,,,,,,,,,,,,,,,,,,,,,,,,,,,,473.4863883005455,None,475.493048700504,None,,,,,,,,,,,,,,,,,,,,,,,,,,,,,,,,,,,,,,,,,,,,,,,,,,,,,,,,,,,,,,,,,,,,,,,,,,37YA,001,2023_Apr_12_1525,ExactRep-v3-final,2021.2.3,59.94093415845065,
3,0,3,0,,,,,,,,,,,,,,,,,,,,,,,,,,,,,,,,,,,,,,,,,,,,,,,,,,,,,,,,,,,475.9937177998945,None,477.9955518003553,None,,,,,,,,,,,,,,,,,,,,,,,,,,,,,,,,,,,,,,,,,,,,,,,,,,,,,,,,,,,,,,,,,,,,,,,,,,37YA,001,2023_Apr_12_1525,ExactRep-v3-final,2021.2.3,59.94093415845065,
4,0,4,0,,,,,,,,,,,,,,,,,,,,,,,,,,,,,,,,,,,,,,,,,,,,,,,,,,,,,,,,,,,478.5089728003368,None,480.51482590008527,None,,,,,,,,,,,,,,,,,,,,,,,,,,,,,,,,,,,,,,,,,,,,,,,,,,,,,,,,,,,,,,,,,,,,,,,,,,37YA,001,2023_Apr_12_1525,ExactRep-v3-final,2021.2.3,59.94093415845065,
5,0,5,0,,,,,,,,,,,,,,,,,,,,,,,,,,,,,,,,,,,,,,,,,,,,,,,,,,,,,,,,,,,481.0150960003957,None,483.0172019004822,None,,,,,,,,,,,,,,,,,,,,,,,,,,,,,,,,,,,,,,,,,,,,,,,,,,,,,,,,,,,,,,,,,,,,,,,,,,37YA,001,2023_Apr_12_1525,ExactRep-v3-final,2021.2.3,59.94093415845065,
6,0,6,0,,,,,,,,,,,,,,,,,,,,,,,,,,,,,,,,,,,,,,,,,,,,,,,,,,,,,,,,,,,483.52414759993553,None,485.5363450003788,None,,,,,,,,,,,,,,,,,,,,,,,,,,,,,,,,,,,,,,,,,,,,,,,,,,,,,,,,,,,,,,,,,,,,,,,,,,37YA,001,2023_Apr_12_1525,ExactRep-v3-final,2021.2.3,59.94093415845065,
7,0,7,0,,,,,,,,,,,,,,,,,,,,,,,,,,,,,,,,,,,,,,,,,,,,,,,,,,,,,,,,,,,486.0369396004826,None,488.0390335004777,None,,,,,,,,,,,,,,,,,,,,,,,,,,,,,,,,,,,,,,,,,,,,,,,,,,,,,,,,,,,,,,,,,,,,,,,,,,37YA,001,2023_Apr_12_1525,ExactRep-v3-final,2021.2.3,59.94093415845065,
8,0,8,0,,,,,,,,,,,,,,,,,,,,,,,,,,,,,,,,,,,,,,,,,,,,,,,,,,,,,,,,,,,488.5403942000121,None,490.54134059976786,None,,,,,,,,,,,,,,,,,,,,,,,,,,,,,,,,,,,,,,,,,,,,,,,,,,,,,,,,,,,,,,,,,,,,,,,,,,37YA,001,2023_Apr_12_1525,ExactRep-v3-final,2021.2.3,59.94093415845065,
9,0,9,0,,,,,,,,,,,,,,,,,,,,,,,,,,,,,,,,,,,,,,,,,,,,,,,,,,,,,,,,,,,491.04200320038944,None,493.04386270046234,None,,,,,,,,,,,,,,,,,,,,,,,,,,,,,,,,,,,,,,,,,,,,,,,,,,,,,,,,,,,,,,,,,,,,,,,,,,37YA,001,2023_Apr_12_1525,ExactRep-v3-final,2021.2.3,59.94093415845065,
10,0,10,0,,,,,,,,,,,,,,,,,,,,,,,,,,,,,,,,,,,,,,,,,,,,,,,,,,,,,,,,,,,493.54446700029075,None,495.54624120052904,None,,,,,,,,,,,,,,,,,,,,,,,,,,,,,,,,,,,,,,,,,,,,,,,,,,,,,,,,,,,,,,,,,,,,,,,,,,37YA,001,2023_Apr_12_1525,ExactRep-v3-final,2021.2.3,59.94093415845065,
11,0,11,0,,,,,,,,,,,,,,,,,,,,,,,,,,,,,,,,,,,,,,,,,,,,,,,,,,,,,,,,,,,496.0468901004642,None,498.0488723004237,None,,,,,,,,,,,,,,,,,,,,,,,,,,,,,,,,,,,,,,,,,,,,,,,,,,,,,,,,,,,,,,,,,,,,,,,,,,37YA,001,2023_Apr_12_1525,ExactRep-v3-final,2021.2.3,59.94093415845065,
12,0,12,0,,,,,,,,,,,,,,,,,,,,,,,,,,,,,,,,,,,,,,,,,,,,,,,,,,,,,,,,,,,498.5522237000987,None,500.55141870025545,None,,,,,,,,,,,,,,,,,,,,,,,,,,,,,,,,,,,,,,,,,,,,,,,,,,,,,,,,,,,,,,,,,,,,,,,,,,37YA,001,2023_Apr_12_1525,ExactRep-v3-final,2021.2.3,59.94093415845065,
13,0,13,0,,,,,,,,,,,,,,,,,,,,,,,,,,,,,,,,,,,,,,,,,,,,,,,,,,,,,,,,,,,501.05521580018103,None,503.07064940035343,None,,,,,,,,,,,,,,,,,,,,,,,,,,,,,,,,,,,,,,,,,,,,,,,,,,,,,,,,,,,,,,,,,,,,,,,,,,37YA,001,2023_Apr_12_1525,ExactRep-v3-final,2021.2.3,59.94093415845065,
14,0,14,0,,,,,,,,,,,,,,,,,,,,,,,,,,,,,,,,,,,,,,,,,,,,,,,,,,,,,,,,,,,503.57664970029145,None,505.58976799994707,None,,,,,,,,,,,,,,,,,,,,,,,,,,,,,,,,,,,,,,,,,,,,,,,,,,,,,,,,,,,,,,,,,,,,,,,,,,37YA,001,2023_Apr_12_1525,ExactRep-v3-final,2021.2.3,59.94093415845065,
,,,,,,,,,,,,,,,,,,,,,,,,,,,,,,,,,,,,,,,,,,,,,,,,,,,,,,,,,,,,,,,,,,space,59.34562199935317,516.2128233006224,None,,,,,,,,,,,,,,,,,,,,,,,,,,,,,,,,,,,,,,,,,,,,,,,,,,,,,,,,,,,,,,,,,,,,,,37YA,001,2023_Apr_12_1525,ExactRep-v3-final,2021.2.3,59.94093415845065,
,,,,0,0,0,0,,,,,,,,,,,,,,,,,,,,,,,,,,,,,,,,,,,,,,,,,,,,,,,,,,,,,,,,,577.6453285003081,None,,,,,506.2555138003081,None,506.2555138003081,None,506.2555138003081,None,506.2555138003081,None,506.2555138003081,None,506.2555138003081,None,575.6393566997722,None,,,,,,,,,,,,,,,,,,,,,,,,,,,,,,,,,,,,,,,,,,,,,,,,,,,,,,,,37YA,001,2023_Apr_12_1525,ExactRep-v3-final,2021.2.3,59.94093415845065,
,,,,1,0,1,0,,,,,,,,,,,,,,,,,,,,,,,,,,,,,,,,,,,,,,,,,,,,,,,,,,,,,,,,,580.1474991999567,None,,,,,,,,,,,,,,,,,578.1458584005013,None,,,,,,,,,,,,,,,,,,,,,,,,,,,,,,,,,,,,,,,,,,,,,,,,,,,,,,,,37YA,001,2023_Apr_12_1525,ExactRep-v3-final,2021.2.3,59.94093415845065,
,,,,2,0,2,0,,,,,,,,,,,,,,,,,,,,,,,,,,,,,,,,,,,,,,,,,,,,,,,,,,,,,,,,,582.6501884004101,None,,,,,,,,,,,,,,,,,580.6480205999687,None,,,,,,,,,,,,,,,,,,,,,,,,,,,,,,,,,,,,,,,,,,,,,,,,,,,,,,,,37YA,001,2023_Apr_12_1525,ExactRep-v3-final,2021.2.3,59.94093415845065,
,,,,3,0,3,0,,,,,,,,,,,,,,,,,,,,,,,,,,,,,,,,,,,,,,,,,,,,,,,,,,,,,,,,,585.1526981005445,None,,,,,,,,,,,,,,,,,583.150715100579,None,,,,,,,,,,,,,,,,,,,,,,,,,,,,,,,,,,,,,,,,,,,,,,,,,,,,,,,,37YA,001,2023_Apr_12_1525,ExactRep-v3-final,2021.2.3,59.94093415845065,
,,,,4,0,4,0,,,,,,,,,,,,,,,,,,,,,,,,,,,,,,,,,,,,,,,,,,,,,,,,,,,,,,,,,587.655221500434,None,,,,,,,,,,,,,,,,,585.653355400078,None,,,,,,,,,,,,,,,,,,,,,,,,,,,,,,,,,,,,,,,,,,,,,,,,,,,,,,,,37YA,001,2023_Apr_12_1525,ExactRep-v3-final,2021.2.3,59.94093415845065,
,,,,5,0,5,0,,,,,,,,,,,,,,,,,,,,,,,,,,,,,,,,,,,,,,,,,,,,,,,,,,,,,,,,,590.1578534999862,None,,,,,,,,,,,,,,,,,588.1557446001098,None,,,,,,,,,,,,,,,,,,,,,,,,,,,,,,,,,,,,,,,,,,,,,,,,,,,,,,,,37YA,001,2023_Apr_12_1525,ExactRep-v3-final,2021.2.3,59.94093415845065,
,,,,6,0,6,0,,,,,,,,,,,,,,,,,,,,,,,,,,,,,,,,,,,,,,,,,,,,,,,,,,,,,,,,,592.6599913006648,None,,,,,,,,,,,,,,,,,590.6580458004028,None,,,,,,,,,,,,,,,,,,,,,,,,,,,,,,,,,,,,,,,,,,,,,,,,,,,,,,,,37YA,001,2023_Apr_12_1525,ExactRep-v3-final,2021.2.3,59.94093415845065,
,,,,7,0,7,0,,,,,,,,,,,,,,,,,,,,,,,,,,,,,,,,,,,,,,,,,,,,,,,,,,,,,,,,,595.1627144003287,None,,,,,,,,,,,,,,,,,593.1607154998928,None,,,,,,,,,,,,,,,,,,,,,,,,,,,,,,,,,,,,,,,,,,,,,,,,,,,,,,,,37YA,001,2023_Apr_12_1525,ExactRep-v3-final,2021.2.3,59.94093415845065,
,,,,8,0,8,0,,,,,,,,,,,,,,,,,,,,,,,,,,,,,,,,,,,,,,,,,,,,,,,,,,,,,,,,,597.6648067999631,None,,,,,,,,,,,,,,,,,595.6632954003289,None,,,,,,,,,,,,,,,,,,,,,,,,,,,,,,,,,,,,,,,,,,,,,,,,,,,,,,,,37YA,001,2023_Apr_12_1525,ExactRep-v3-final,2021.2.3,59.94093415845065,
,,,,9,0,9,0,,,,,,,,,,,,,,,,,,,,,,,,,,,,,,,,,,,,,,,,,,,,,,,,,,,,,,,,,600.1676554000005,None,,,,,,,,,,,,,,,,,598.165963999927,None,,,,,,,,,,,,,,,,,,,,,,,,,,,,,,,,,,,,,,,,,,,,,,,,,,,,,,,,37YA,001,2023_Apr_12_1525,ExactRep-v3-final,2021.2.3,59.94093415845065,
,,,,10,0,10,0,,,,,,,,,,,,,,,,,,,,,,,,,,,,,,,,,,,,,,,,,,,,,,,,,,,,,,,,,602.6702092001215,None,,,,,,,,,,,,,,,,,600.6681818002835,None,,,,,,,,,,,,,,,,,,,,,,,,,,,,,,,,,,,,,,,,,,,,,,,,,,,,,,,,37YA,001,2023_Apr_12_1525,ExactRep-v3-final,2021.2.3,59.94093415845065,
,,,,11,0,11,0,,,,,,,,,,,,,,,,,,,,,,,,,,,,,,,,,,,,,,,,,,,,,,,,,,,,,,,,,605.1724776998162,None,,,,,,,,,,,,,,,,,603.1707196002826,None,,,,,,,,,,,,,,,,,,,,,,,,,,,,,,,,,,,,,,,,,,,,,,,,,,,,,,,,37YA,001,2023_Apr_12_1525,ExactRep-v3-final,2021.2.3,59.94093415845065,
,,,,12,0,12,0,,,,,,,,,,,,,,,,,,,,,,,,,,,,,,,,,,,,,,,,,,,,,,,,,,,,,,,,,607.6751864999533,None,,,,,,,,,,,,,,,,,605.6733250999823,None,,,,,,,,,,,,,,,,,,,,,,,,,,,,,,,,,,,,,,,,,,,,,,,,,,,,,,,,37YA,001,2023_Apr_12_1525,ExactRep-v3-final,2021.2.3,59.94093415845065,
,,,,13,0,13,0,,,,,,,,,,,,,,,,,,,,,,,,,,,,,,,,,,,,,,,,,,,,,,,,,,,,,,,,,610.1777987005189,None,,,,,,,,,,,,,,,,,608.1755903000012,None,,,,,,,,,,,,,,,,,,,,,,,,,,,,,,,,,,,,,,,,,,,,,,,,,,,,,,,,37YA,001,2023_Apr_12_1525,ExactRep-v3-final,2021.2.3,59.94093415845065,
,,,,14,0,14,0,,,,,,,,,,,,,,,,,,,,,,,,,,,,,,,,,,,,,,,,,,,,,,,,,,,,,,,,,612.6803430002183,None,,,,,,,,,,,,,,,,,610.6783247999847,None,,,,,,,,,,,,,,,,,,,,,,,,,,,,,,,,,,,,,,,,,,,,,,,,,,,,,,,,37YA,001,2023_Apr_12_1525,ExactRep-v3-final,2021.2.3,59.94093415845065,
,,,,,,,,,,,,,,,,,,,,,,,,,,,,,,,,,,,,,,,,,,,,,,,,,,,,,,,,,,,,,,,,,,,,,,,,,,,,,,,,,,,,space,38.671045599505305,623.3275441005826,None,,,,,,,,,,,,,,,,,,,,,,,,,,,,,,,,,,,,,,,,,,,,,,,,,,,,37YA,001,2023_Apr_12_1525,ExactRep-v3-final,2021.2.3,59.94093415845065,
,,,,,,,,0,0,0,0,,,,,,,,,,,,,,,,,,,,,,,,,,,,,,,,,,,,,,,,,,,,,,,,,,,,,664.1316993003711,None,,,,,,,,,,,,,,,,,,,,,,,613.3639542004094,None,613.3639542004094,None,613.3639542004094,None,613.3639542004094,None,613.3639542004094,None,613.3639542004094,None,murder,38,1,sing,white,662.123160299845,None,None,662.123160299845,None,,,,,,,,,,,,,,,,,,,,,,,,,,,,,,37YA,001,2023_Apr_12_1525,ExactRep-v3-final,2021.2.3,59.94093415845065,
,,,,,,,,1,0,1,0,,,,,,,,,,,,,,,,,,,,,,,,,,,,,,,,,,,,,,,,,,,,,,,,,,,,,666.6508609000593,None,,,,,,,,,,,,,,,,,,,,,,,,,,,,,,,,,,,factory,64,2,silent,blue,664.6449087001383,None,None,664.6449087001383,None,,,,,,,,,,,,,,,,,,,,,,,,,,,,,,37YA,001,2023_Apr_12_1525,ExactRep-v3-final,2021.2.3,59.94093415845065,
,,,,,,,,2,0,2,0,,,,,,,,,,,,,,,,,,,,,,,,,,,,,,,,,,,,,,,,,,,,,,,,,,,,,669.1700333002955,None,,,,,,,,,,,,,,,,,,,,,,,,,,,,,,,,,,,ship,0,3,sing,white,667.162050800398,None,None,667.162050800398,None,,,,,,,,,,,,,,,,,,,,,,,,,,,,,,37YA,001,2023_Apr_12_1525,ExactRep-v3-final,2021.2.3,59.94093415845065,
,,,,,,,,3,0,3,0,,,,,,,,,,,,,,,,,,,,,,,,,,,,,,,,,,,,,,,,,,,,,,,,,,,,,671.6727018002421,None,,,,,,,,,,,,,,,,,,,,,,,,,,,,,,,,,,,garden,94,4,aloud,red,669.6724429000169,None,None,669.6724429000169,None,,,,,,,,,,,,,,,,,,,,,,,,,,,,,,37YA,001,2023_Apr_12_1525,ExactRep-v3-final,2021.2.3,59.94093415845065,
,,,,,,,,4,0,4,0,,,,,,,,,,,,,,,,,,,,,,,,,,,,,,,,,,,,,,,,,,,,,,,,,,,,,674.1915787002072,None,,,,,,,,,,,,,,,,,,,,,,,,,,,,,,,,,,,corner,79,5,sing,white,672.1795545006171,None,None,672.1795545006171,None,,,,,,,,,,,,,,,,,,,,,,,,,,,,,,37YA,001,2023_Apr_12_1525,ExactRep-v3-final,2021.2.3,59.94093415845065,
,,,,,,,,5,0,5,0,,,,,,,,,,,,,,,,,,,,,,,,,,,,,,,,,,,,,,,,,,,,,,,,,,,,,676.7109193000942,None,,,,,,,,,,,,,,,,,,,,,,,,,,,,,,,,,,,apple,101,6,aloud,red,674.6982067003846,None,None,674.6982067003846,None,,,,,,,,,,,,,,,,,,,,,,,,,,,,,,37YA,001,2023_Apr_12_1525,ExactRep-v3-final,2021.2.3,59.94093415845065,
,,,,,,,,6,0,6,0,,,,,,,,,,,,,,,,,,,,,,,,,,,,,,,,,,,,,,,,,,,,,,,,,,,,,679.2132542002946,None,,,,,,,,,,,,,,,,,,,,,,,,,,,,,,,,,,,house,62,7,silent,blue,677.2114022998139,None,None,677.2114022998139,None,,,,,,,,,,,,,,,,,,,,,,,,,,,,,,37YA,001,2023_Apr_12_1525,ExactRep-v3-final,2021.2.3,59.94093415845065,
,,,,,,,,7,0,7,0,,,,,,,,,,,,,,,,,,,,,,,,,,,,,,,,,,,,,,,,,,,,,,,,,,,,,681.7159577002749,None,,,,,,,,,,,,,,,,,,,,,,,,,,,,,,,,,,,child,37,8,sing,white,679.7136978004128,None,None,679.7136978004128,None,,,,,,,,,,,,,,,,,,,,,,,,,,,,,,37YA,001,2023_Apr_12_1525,ExactRep-v3-final,2021.2.3,59.94093415845065,
,,,,,,,,8,0,8,0,,,,,,,,,,,,,,,,,,,,,,,,,,,,,,,,,,,,,,,,,,,,,,,,,,,,,684.2185038002208,None,,,,,,,,,,,,,,,,,,,,,,,,,,,,,,,,,,,silence,87,9,aloud,red,682.2162142004818,None,None,682.2162142004818,None,,,,,,,,,,,,,,,,,,,,,,,,,,,,,,37YA,001,2023_Apr_12_1525,ExactRep-v3-final,2021.2.3,59.94093415845065,
,,,,,,,,9,0,9,0,,,,,,,,,,,,,,,,,,,,,,,,,,,,,,,,,,,,,,,,,,,,,,,,,,,,,686.7376292999834,None,,,,,,,,,,,,,,,,,,,,,,,,,,,,,,,,,,,water,81,10,aloud,red,684.7281498005614,None,None,684.7281498005614,None,,,,,,,,,,,,,,,,,,,,,,,,,,,,,,37YA,001,2023_Apr_12_1525,ExactRep-v3-final,2021.2.3,59.94093415845065,
,,,,,,,,10,0,10,0,,,,,,,,,,,,,,,,,,,,,,,,,,,,,,,,,,,,,,,,,,,,,,,,,,,,,689.240188700147,None,,,,,,,,,,,,,,,,,,,,,,,,,,,,,,,,,,,temple,102,11,aloud,red,687.2390553001314,None,None,687.2390553001314,None,,,,,,,,,,,,,,,,,,,,,,,,,,,,,,37YA,001,2023_Apr_12_1525,ExactRep-v3-final,2021.2.3,59.94093415845065,
,,,,,,,,11,0,11,0,,,,,,,,,,,,,,,,,,,,,,,,,,,,,,,,,,,,,,,,,,,,,,,,,,,,,691.7591895004734,None,,,,,,,,,,,,,,,,,,,,,,,,,,,,,,,,,,,pupil,60,12,silent,blue,689.7465321002528,None,None,689.7465321002528,None,,,,,,,,,,,,,,,,,,,,,,,,,,,,,,37YA,001,2023_Apr_12_1525,ExactRep-v3-final,2021.2.3,59.94093415845065,
,,,,,,,,12,0,12,0,,,,,,,,,,,,,,,,,,,,,,,,,,,,,,,,,,,,,,,,,,,,,,,,,,,,,694.2616630000994,None,,,,,,,,,,,,,,,,,,,,,,,,,,,,,,,,,,,butter,28,13,sing,white,692.2595228999853,None,None,692.2595228999853,None,,,,,,,,,,,,,,,,,,,,,,,,,,,,,,37YA,001,2023_Apr_12_1525,ExactRep-v3-final,2021.2.3,59.94093415845065,
,,,,,,,,13,0,13,0,,,,,,,,,,,,,,,,,,,,,,,,,,,,,,,,,,,,,,,,,,,,,,,,,,,,,696.7809570999816,None,,,,,,,,,,,,,,,,,,,,,,,,,,,,,,,,,,,shadow,18,14,sing,white,694.7667749002576,None,None,694.7667749002576,None,,,,,,,,,,,,,,,,,,,,,,,,,,,,,,37YA,001,2023_Apr_12_1525,ExactRep-v3-final,2021.2.3,59.94093415845065,
,,,,,,,,14,0,14,0,,,,,,,,,,,,,,,,,,,,,,,,,,,,,,,,,,,,,,,,,,,,,,,,,,,,,699.2835701005533,None,,,,,,,,,,,,,,,,,,,,,,,,,,,,,,,,,,,star,115,15,aloud,red,697.282664200291,None,None,697.282664200291,None,,,,,,,,,,,,,,,,,,,,,,,,,,,,,,37YA,001,2023_Apr_12_1525,ExactRep-v3-final,2021.2.3,59.94093415845065,
,,,,,,,,15,0,15,0,,,,,,,,,,,,,,,,,,,,,,,,,,,,,,,,,,,,,,,,,,,,,,,,,,,,,701.7859852006659,None,,,,,,,,,,,,,,,,,,,,,,,,,,,,,,,,,,,girl,5,16,sing,white,699.784279900603,None,None,699.784279900603,None,,,,,,,,,,,,,,,,,,,,,,,,,,,,,,37YA,001,2023_Apr_12_1525,ExactRep-v3-final,2021.2.3,59.94093415845065,
,,,,,,,,16,0,16,0,,,,,,,,,,,,,,,,,,,,,,,,,,,,,,,,,,,,,,,,,,,,,,,,,,,,,704.3051289999858,None,,,,,,,,,,,,,,,,,,,,,,,,,,,,,,,,,,,pride,41,17,silent,blue,702.294940800406,None,None,702.294940800406,None,,,,,,,,,,,,,,,,,,,,,,,,,,,,,,37YA,001,2023_Apr_12_1525,ExactRep-v3-final,2021.2.3,59.94093415845065,
,,,,,,,,17,0,17,0,,,,,,,,,,,,,,,,,,,,,,,,,,,,,,,,,,,,,,,,,,,,,,,,,,,,,706.8076175004244,None,,,,,,,,,,,,,,,,,,,,,,,,,,,,,,,,,,,fur,84,18,aloud,red,704.8056359002367,None,None,704.8056359002367,None,,,,,,,,,,,,,,,,,,,,,,,,,,,,,,37YA,001,2023_Apr_12_1525,ExactRep-v3-final,2021.2.3,59.94093415845065,
,,,,,,,,18,0,18,0,,,,,,,,,,,,,,,,,,,,,,,,,,,,,,,,,,,,,,,,,,,,,,,,,,,,,709.3101414004341,None,,,,,,,,,,,,,,,,,,,,,,,,,,,,,,,,,,,meeting,27,19,sing,white,707.3082731999457,None,None,707.3082731999457,None,,,,,,,,,,,,,,,,,,,,,,,,,,,,,,37YA,001,2023_Apr_12_1525,ExactRep-v3-final,2021.2.3,59.94093415845065,
,,,,,,,,19,0,19,0,,,,,,,,,,,,,,,,,,,,,,,,,,,,,,,,,,,,,,,,,,,,,,,,,,,,,711.829390800558,None,,,,,,,,,,,,,,,,,,,,,,,,,,,,,,,,,,,love,59,20,silent,blue,709.8163400003687,None,None,709.8163400003687,None,,,,,,,,,,,,,,,,,,,,,,,,,,,,,,37YA,001,2023_Apr_12_1525,ExactRep-v3-final,2021.2.3,59.94093415845065,
,,,,,,,,20,0,20,0,,,,,,,,,,,,,,,,,,,,,,,,,,,,,,,,,,,,,,,,,,,,,,,,,,,,,714.3485409002751,None,,,,,,,,,,,,,,,,,,,,,,,,,,,,,,,,,,,shore,117,21,aloud,red,712.3346472000703,None,None,712.3346472000703,None,,,,,,,,,,,,,,,,,,,,,,,,,,,,,,37YA,001,2023_Apr_12_1525,ExactRep-v3-final,2021.2.3,59.94093415845065,
,,,,,,,,21,0,21,0,,,,,,,,,,,,,,,,,,,,,,,,,,,,,,,,,,,,,,,,,,,,,,,,,,,,,716.8676916006953,None,,,,,,,,,,,,,,,,,,,,,,,,,,,,,,,,,,,devil,33,22,sing,white,714.86748690065,None,None,714.86748690065,None,,,,,,,,,,,,,,,,,,,,,,,,,,,,,,37YA,001,2023_Apr_12_1525,ExactRep-v3-final,2021.2.3,59.94093415845065,
,,,,,,,,22,0,22,0,,,,,,,,,,,,,,,,,,,,,,,,,,,,,,,,,,,,,,,,,,,,,,,,,,,,,719.3868310004473,None,,,,,,,,,,,,,,,,,,,,,,,,,,,,,,,,,,,moral,42,23,silent,blue,717.3723862003535,None,None,717.3723862003535,None,,,,,,,,,,,,,,,,,,,,,,,,,,,,,,37YA,001,2023_Apr_12_1525,ExactRep-v3-final,2021.2.3,59.94093415845065,
,,,,,,,,23,0,23,0,,,,,,,,,,,,,,,,,,,,,,,,,,,,,,,,,,,,,,,,,,,,,,,,,,,,,721.9061027998105,None,,,,,,,,,,,,,,,,,,,,,,,,,,,,,,,,,,,chair,20,24,sing,white,719.89792660065,None,None,719.89792660065,None,,,,,,,,,,,,,,,,,,,,,,,,,,,,,,37YA,001,2023_Apr_12_1525,ExactRep-v3-final,2021.2.3,59.94093415845065,
,,,,,,,,24,0,24,0,,,,,,,,,,,,,,,,,,,,,,,,,,,,,,,,,,,,,,,,,,,,,,,,,,,,,724.4085806999356,None,,,,,,,,,,,,,,,,,,,,,,,,,,,,,,,,,,,time,30,25,sing,white,722.4063183004037,None,None,722.4063183004037,None,,,,,,,,,,,,,,,,,,,,,,,,,,,,,,37YA,001,2023_Apr_12_1525,ExactRep-v3-final,2021.2.3,59.94093415845065,
,,,,,,,,25,0,25,0,,,,,,,,,,,,,,,,,,,,,,,,,,,,,,,,,,,,,,,,,,,,,,,,,,,,,726.9111037999392,None,,,,,,,,,,,,,,,,,,,,,,,,,,,,,,,,,,,corn,111,26,aloud,red,724.9114003004506,None,None,724.9114003004506,None,,,,,,,,,,,,,,,,,,,,,,,,,,,,,,37YA,001,2023_Apr_12_1525,ExactRep-v3-final,2021.2.3,59.94093415845065,
,,,,,,,,26,0,26,0,,,,,,,,,,,,,,,,,,,,,,,,,,,,,,,,,,,,,,,,,,,,,,,,,,,,,729.4136209003627,None,,,,,,,,,,,,,,,,,,,,,,,,,,,,,,,,,,,village,57,27,silent,blue,727.4115709001198,None,None,727.4115709001198,None,,,,,,,,,,,,,,,,,,,,,,,,,,,,,,37YA,001,2023_Apr_12_1525,ExactRep-v3-final,2021.2.3,59.94093415845065,
,,,,,,,,27,0,27,0,,,,,,,,,,,,,,,,,,,,,,,,,,,,,,,,,,,,,,,,,,,,,,,,,,,,,731.9161470998079,None,,,,,,,,,,,,,,,,,,,,,,,,,,,,,,,,,,,life,40,28,silent,blue,729.9160438003018,None,None,729.9160438003018,None,,,,,,,,,,,,,,,,,,,,,,,,,,,,,,37YA,001,2023_Apr_12_1525,ExactRep-v3-final,2021.2.3,59.94093415845065,
,,,,,,,,28,0,28,0,,,,,,,,,,,,,,,,,,,,,,,,,,,,,,,,,,,,,,,,,,,,,,,,,,,,,734.4186680000275,None,,,,,,,,,,,,,,,,,,,,,,,,,,,,,,,,,,,army,99,29,aloud,red,732.4192384006456,None,None,732.4192384006456,None,,,,,,,,,,,,,,,,,,,,,,,,,,,,,,37YA,001,2023_Apr_12_1525,ExactRep-v3-final,2021.2.3,59.94093415845065,
,,,,,,,,29,0,29,0,,,,,,,,,,,,,,,,,,,,,,,,,,,,,,,,,,,,,,,,,,,,,,,,,,,,,736.9376635001972,None,,,,,,,,,,,,,,,,,,,,,,,,,,,,,,,,,,,queen,11,30,sing,white,734.9256306001917,None,None,734.9256306001917,None,,,,,,,,,,,,,,,,,,,,,,,,,,,,,,37YA,001,2023_Apr_12_1525,ExactRep-v3-final,2021.2.3,59.94093415845065,
,,,,,,,,30,0,30,0,,,,,,,,,,,,,,,,,,,,,,,,,,,,,,,,,,,,,,,,,,,,,,,,,,,,,739.4402948003262,None,,,,,,,,,,,,,,,,,,,,,,,,,,,,,,,,,,,answer,86,31,aloud,red,737.4381560003385,None,None,737.4381560003385,None,,,,,,,,,,,,,,,,,,,,,,,,,,,,,,37YA,001,2023_Apr_12_1525,ExactRep-v3-final,2021.2.3,59.94093415845065,
,,,,,,,,31,0,31,0,,,,,,,,,,,,,,,,,,,,,,,,,,,,,,,,,,,,,,,,,,,,,,,,,,,,,741.9602704001591,None,,,,,,,,,,,,,,,,,,,,,,,,,,,,,,,,,,,square,83,32,aloud,red,739.9442258998752,None,None,739.9442258998752,None,,,,,,,,,,,,,,,,,,,,,,,,,,,,,,37YA,001,2023_Apr_12_1525,ExactRep-v3-final,2021.2.3,59.94093415845065,
,,,,,,,,32,0,32,0,,,,,,,,,,,,,,,,,,,,,,,,,,,,,,,,,,,,,,,,,,,,,,,,,,,,,744.4786799000576,None,,,,,,,,,,,,,,,,,,,,,,,,,,,,,,,,,,,duty,107,33,aloud,red,742.4652997003868,None,None,742.4652997003868,None,,,,,,,,,,,,,,,,,,,,,,,,,,,,,,37YA,001,2023_Apr_12_1525,ExactRep-v3-final,2021.2.3,59.94093415845065,
,,,,,,,,33,0,33,0,,,,,,,,,,,,,,,,,,,,,,,,,,,,,,,,,,,,,,,,,,,,,,,,,,,,,746.997709300369,None,,,,,,,,,,,,,,,,,,,,,,,,,,,,,,,,,,,skin,103,34,aloud,red,744.9852827005088,None,None,744.9852827005088,None,,,,,,,,,,,,,,,,,,,,,,,,,,,,,,37YA,001,2023_Apr_12_1525,ExactRep-v3-final,2021.2.3,59.94093415845065,
,,,,,,,,34,0,34,0,,,,,,,,,,,,,,,,,,,,,,,,,,,,,,,,,,,,,,,,,,,,,,,,,,,,,749.5003334004432,None,,,,,,,,,,,,,,,,,,,,,,,,,,,,,,,,,,,soul,51,35,silent,blue,747.4983684998006,None,None,747.4983684998006,None,,,,,,,,,,,,,,,,,,,,,,,,,,,,,,37YA,001,2023_Apr_12_1525,ExactRep-v3-final,2021.2.3,59.94093415845065,
,,,,,,,,35,0,35,0,,,,,,,,,,,,,,,,,,,,,,,,,,,,,,,,,,,,,,,,,,,,,,,,,,,,,752.0196526004001,None,,,,,,,,,,,,,,,,,,,,,,,,,,,,,,,,,,,palace,56,36,silent,blue,750.0050315000117,None,None,750.0050315000117,None,,,,,,,,,,,,,,,,,,,,,,,,,,,,,,37YA,001,2023_Apr_12_1525,ExactRep-v3-final,2021.2.3,59.94093415845065,
,,,,,,,,36,0,36,0,,,,,,,,,,,,,,,,,,,,,,,,,,,,,,,,,,,,,,,,,,,,,,,,,,,,,754.5385552998632,None,,,,,,,,,,,,,,,,,,,,,,,,,,,,,,,,,,,fire,45,37,silent,blue,752.5260016005486,None,None,752.5260016005486,None,,,,,,,,,,,,,,,,,,,,,,,,,,,,,,37YA,001,2023_Apr_12_1525,ExactRep-v3-final,2021.2.3,59.94093415845065,
,,,,,,,,37,0,37,0,,,,,,,,,,,,,,,,,,,,,,,,,,,,,,,,,,,,,,,,,,,,,,,,,,,,,757.0410882001743,None,,,,,,,,,,,,,,,,,,,,,,,,,,,,,,,,,,,shame,61,38,silent,blue,755.0390515001491,None,None,755.0390515001491,None,,,,,,,,,,,,,,,,,,,,,,,,,,,,,,37YA,001,2023_Apr_12_1525,ExactRep-v3-final,2021.2.3,59.94093415845065,
,,,,,,,,38,0,38,0,,,,,,,,,,,,,,,,,,,,,,,,,,,,,,,,,,,,,,,,,,,,,,,,,,,,,759.5437952000648,None,,,,,,,,,,,,,,,,,,,,,,,,,,,,,,,,,,,river,31,39,sing,white,757.5442069005221,None,None,757.5442069005221,None,,,,,,,,,,,,,,,,,,,,,,,,,,,,,,37YA,001,2023_Apr_12_1525,ExactRep-v3-final,2021.2.3,59.94093415845065,
,,,,,,,,39,0,39,0,,,,,,,,,,,,,,,,,,,,,,,,,,,,,,,,,,,,,,,,,,,,,,,,,,,,,762.0462741004303,None,,,,,,,,,,,,,,,,,,,,,,,,,,,,,,,,,,,green,73,40,silent,blue,760.0472597004846,None,None,760.0472597004846,None,,,,,,,,,,,,,,,,,,,,,,,,,,,,,,37YA,001,2023_Apr_12_1525,ExactRep-v3-final,2021.2.3,59.94093415845065,
,,,,,,,,40,0,40,0,,,,,,,,,,,,,,,,,,,,,,,,,,,,,,,,,,,,,,,,,,,,,,,,,,,,,764.5654196999967,None,,,,,,,,,,,,,,,,,,,,,,,,,,,,,,,,,,,slave,91,41,aloud,red,762.5499590998515,None,None,762.5499590998515,None,,,,,,,,,,,,,,,,,,,,,,,,,,,,,,37YA,001,2023_Apr_12_1525,ExactRep-v3-final,2021.2.3,59.94093415845065,
,,,,,,,,41,0,41,0,,,,,,,,,,,,,,,,,,,,,,,,,,,,,,,,,,,,,,,,,,,,,,,,,,,,,767.0679532000795,None,,,,,,,,,,,,,,,,,,,,,,,,,,,,,,,,,,,gold,63,42,silent,blue,765.0670199999586,None,None,765.0670199999586,None,,,,,,,,,,,,,,,,,,,,,,,,,,,,,,37YA,001,2023_Apr_12_1525,ExactRep-v3-final,2021.2.3,59.94093415845065,
,,,,,,,,42,0,42,0,,,,,,,,,,,,,,,,,,,,,,,,,,,,,,,,,,,,,,,,,,,,,,,,,,,,,769.5726287001744,None,,,,,,,,,,,,,,,,,,,,,,,,,,,,,,,,,,,cat,85,43,aloud,red,767.5682386001572,None,None,767.5682386001572,None,,,,,,,,,,,,,,,,,,,,,,,,,,,,,,37YA,001,2023_Apr_12_1525,ExactRep-v3-final,2021.2.3,59.94093415845065,
,,,,,,,,43,0,43,0,,,,,,,,,,,,,,,,,,,,,,,,,,,,,,,,,,,,,,,,,,,,,,,,,,,,,772.0895960005,None,,,,,,,,,,,,,,,,,,,,,,,,,,,,,,,,,,,king,118,44,aloud,red,770.0889768004417,None,None,770.0889768004417,None,,,,,,,,,,,,,,,,,,,,,,,,,,,,,,37YA,001,2023_Apr_12_1525,ExactRep-v3-final,2021.2.3,59.94093415845065,
,,,,,,,,44,0,44,0,,,,,,,,,,,,,,,,,,,,,,,,,,,,,,,,,,,,,,,,,,,,,,,,,,,,,774.591957599856,None,,,,,,,,,,,,,,,,,,,,,,,,,,,,,,,,,,,author,68,45,silent,blue,772.5929477000609,None,None,772.5929477000609,None,,,,,,,,,,,,,,,,,,,,,,,,,,,,,,37YA,001,2023_Apr_12_1525,ExactRep-v3-final,2021.2.3,59.94093415845065,
,,,,,,,,45,0,45,0,,,,,,,,,,,,,,,,,,,,,,,,,,,,,,,,,,,,,,,,,,,,,,,,,,,,,777.0943063003942,None,,,,,,,,,,,,,,,,,,,,,,,,,,,,,,,,,,,freedom,15,46,sing,white,775.0926338005811,None,None,775.0926338005811,None,,,,,,,,,,,,,,,,,,,,,,,,,,,,,,37YA,001,2023_Apr_12_1525,ExactRep-v3-final,2021.2.3,59.94093415845065,
,,,,,,,,46,0,46,0,,,,,,,,,,,,,,,,,,,,,,,,,,,,,,,,,,,,,,,,,,,,,,,,,,,,,779.6137741999701,None,,,,,,,,,,,,,,,,,,,,,,,,,,,,,,,,,,,present,49,47,silent,blue,777.603608599864,None,None,777.603608599864,None,,,,,,,,,,,,,,,,,,,,,,,,,,,,,,37YA,001,2023_Apr_12_1525,ExactRep-v3-final,2021.2.3,59.94093415845065,
,,,,,,,,47,0,47,0,,,,,,,,,,,,,,,,,,,,,,,,,,,,,,,,,,,,,,,,,,,,,,,,,,,,,782.1329963002354,None,,,,,,,,,,,,,,,,,,,,,,,,,,,,,,,,,,,master,116,48,aloud,red,780.1244355002418,None,None,780.1244355002418,None,,,,,,,,,,,,,,,,,,,,,,,,,,,,,,37YA,001,2023_Apr_12_1525,ExactRep-v3-final,2021.2.3,59.94093415845065,
,,,,,,,,48,0,48,0,,,,,,,,,,,,,,,,,,,,,,,,,,,,,,,,,,,,,,,,,,,,,,,,,,,,,784.6519750999287,None,,,,,,,,,,,,,,,,,,,,,,,,,,,,,,,,,,,journal,22,49,sing,white,782.640318499878,None,None,782.640318499878,None,,,,,,,,,,,,,,,,,,,,,,,,,,,,,,37YA,001,2023_Apr_12_1525,ExactRep-v3-final,2021.2.3,59.94093415845065,
,,,,,,,,49,0,49,0,,,,,,,,,,,,,,,,,,,,,,,,,,,,,,,,,,,,,,,,,,,,,,,,,,,,,787.1546753002331,None,,,,,,,,,,,,,,,,,,,,,,,,,,,,,,,,,,,prison,58,50,silent,blue,785.1532848998904,None,None,785.1532848998904,None,,,,,,,,,,,,,,,,,,,,,,,,,,,,,,37YA,001,2023_Apr_12_1525,ExactRep-v3-final,2021.2.3,59.94093415845065,
,,,,,,,,50,0,50,0,,,,,,,,,,,,,,,,,,,,,,,,,,,,,,,,,,,,,,,,,,,,,,,,,,,,,789.6739066001028,None,,,,,,,,,,,,,,,,,,,,,,,,,,,,,,,,,,,judge,78,51,silent,blue,787.6582522001117,None,None,787.6582522001117,None,,,,,,,,,,,,,,,,,,,,,,,,,,,,,,37YA,001,2023_Apr_12_1525,ExactRep-v3-final,2021.2.3,59.94093415845065,
,,,,,,,,51,0,51,0,,,,,,,,,,,,,,,,,,,,,,,,,,,,,,,,,,,,,,,,,,,,,,,,,,,,,792.1764302002266,None,,,,,,,,,,,,,,,,,,,,,,,,,,,,,,,,,,,flag,76,52,silent,blue,790.174240000546,None,None,790.174240000546,None,,,,,,,,,,,,,,,,,,,,,,,,,,,,,,37YA,001,2023_Apr_12_1525,ExactRep-v3-final,2021.2.3,59.94093415845065,
,,,,,,,,52,0,52,0,,,,,,,,,,,,,,,,,,,,,,,,,,,,,,,,,,,,,,,,,,,,,,,,,,,,,794.6956763006747,None,,,,,,,,,,,,,,,,,,,,,,,,,,,,,,,,,,,animal,72,53,silent,blue,792.68433440011,None,None,792.68433440011,None,,,,,,,,,,,,,,,,,,,,,,,,,,,,,,37YA,001,2023_Apr_12_1525,ExactRep-v3-final,2021.2.3,59.94093415845065,
,,,,,,,,53,0,53,0,,,,,,,,,,,,,,,,,,,,,,,,,,,,,,,,,,,,,,,,,,,,,,,,,,,,,797.197869299911,None,,,,,,,,,,,,,,,,,,,,,,,,,,,,,,,,,,,dawn,43,54,silent,blue,795.195970300585,None,None,795.195970300585,None,,,,,,,,,,,,,,,,,,,,,,,,,,,,,,37YA,001,2023_Apr_12_1525,ExactRep-v3-final,2021.2.3,59.94093415845065,
,,,,,,,,54,0,54,0,,,,,,,,,,,,,,,,,,,,,,,,,,,,,,,,,,,,,,,,,,,,,,,,,,,,,799.7006648005918,None,,,,,,,,,,,,,,,,,,,,,,,,,,,,,,,,,,,cotton,55,55,silent,blue,797.6983922999352,None,None,797.6983922999352,None,,,,,,,,,,,,,,,,,,,,,,,,,,,,,,37YA,001,2023_Apr_12_1525,ExactRep-v3-final,2021.2.3,59.94093415845065,
,,,,,,,,55,0,55,0,,,,,,,,,,,,,,,,,,,,,,,,,,,,,,,,,,,,,,,,,,,,,,,,,,,,,802.2195674004033,None,,,,,,,,,,,,,,,,,,,,,,,,,,,,,,,,,,,student,39,56,silent,blue,800.2067774003372,None,None,800.2067774003372,None,,,,,,,,,,,,,,,,,,,,,,,,,,,,,,37YA,001,2023_Apr_12_1525,ExactRep-v3-final,2021.2.3,59.94093415845065,
,,,,,,,,56,0,56,0,,,,,,,,,,,,,,,,,,,,,,,,,,,,,,,,,,,,,,,,,,,,,,,,,,,,,804.7221210002899,None,,,,,,,,,,,,,,,,,,,,,,,,,,,,,,,,,,,soil,110,57,aloud,red,802.7201794004068,None,None,802.7201794004068,None,,,,,,,,,,,,,,,,,,,,,,,,,,,,,,37YA,001,2023_Apr_12_1525,ExactRep-v3-final,2021.2.3,59.94093415845065,
,,,,,,,,57,0,57,0,,,,,,,,,,,,,,,,,,,,,,,,,,,,,,,,,,,,,,,,,,,,,,,,,,,,,807.2414966998622,None,,,,,,,,,,,,,,,,,,,,,,,,,,,,,,,,,,,theory,23,58,sing,white,805.2352769998834,None,None,805.2352769998834,None,,,,,,,,,,,,,,,,,,,,,,,,,,,,,,37YA,001,2023_Apr_12_1525,ExactRep-v3-final,2021.2.3,59.94093415845065,
,,,,,,,,58,0,58,0,,,,,,,,,,,,,,,,,,,,,,,,,,,,,,,,,,,,,,,,,,,,,,,,,,,,,809.7438481999561,None,,,,,,,,,,,,,,,,,,,,,,,,,,,,,,,,,,,boulder,92,59,aloud,red,807.7418806999922,None,None,807.7418806999922,None,,,,,,,,,,,,,,,,,,,,,,,,,,,,,,37YA,001,2023_Apr_12_1525,ExactRep-v3-final,2021.2.3,59.94093415845065,
,,,,,,,,59,0,59,0,,,,,,,,,,,,,,,,,,,,,,,,,,,,,,,,,,,,,,,,,,,,,,,,,,,,,812.2464092001319,None,,,,,,,,,,,,,,,,,,,,,,,,,,,,,,,,,,,law,21,60,sing,white,810.2467534001917,None,None,810.2467534001917,None,,,,,,,,,,,,,,,,,,,,,,,,,,,,,,37YA,001,2023_Apr_12_1525,ExactRep-v3-final,2021.2.3,59.94093415845065,
,,,,,,,,60,0,60,0,,,,,,,,,,,,,,,,,,,,,,,,,,,,,,,,,,,,,,,,,,,,,,,,,,,,,814.749105299823,None,,,,,,,,,,,,,,,,,,,,,,,,,,,,,,,,,,,air,7,61,sing,white,812.7467670999467,None,None,812.7467670999467,None,,,,,,,,,,,,,,,,,,,,,,,,,,,,,,37YA,001,2023_Apr_12_1525,ExactRep-v3-final,2021.2.3,59.94093415845065,
,,,,,,,,61,0,61,0,,,,,,,,,,,,,,,,,,,,,,,,,,,,,,,,,,,,,,,,,,,,,,,,,,,,,817.2681626006961,None,,,,,,,,,,,,,,,,,,,,,,,,,,,,,,,,,,,memory,50,62,silent,blue,815.2550758998841,None,None,815.2550758998841,None,,,,,,,,,,,,,,,,,,,,,,,,,,,,,,37YA,001,2023_Apr_12_1525,ExactRep-v3-final,2021.2.3,59.94093415845065,
,,,,,,,,62,0,62,0,,,,,,,,,,,,,,,,,,,,,,,,,,,,,,,,,,,,,,,,,,,,,,,,,,,,,819.7879853006452,None,,,,,,,,,,,,,,,,,,,,,,,,,,,,,,,,,,,owner,13,63,sing,white,817.7724601998925,None,None,817.7724601998925,None,,,,,,,,,,,,,,,,,,,,,,,,,,,,,,37YA,001,2023_Apr_12_1525,ExactRep-v3-final,2021.2.3,59.94093415845065,
,,,,,,,,63,0,63,0,,,,,,,,,,,,,,,,,,,,,,,,,,,,,,,,,,,,,,,,,,,,,,,,,,,,,822.3063200004399,None,,,,,,,,,,,,,,,,,,,,,,,,,,,,,,,,,,,car,113,64,aloud,red,820.2931562000886,None,None,820.2931562000886,None,,,,,,,,,,,,,,,,,,,,,,,,,,,,,,37YA,001,2023_Apr_12_1525,ExactRep-v3-final,2021.2.3,59.94093415845065,
,,,,,,,,64,0,64,0,,,,,,,,,,,,,,,,,,,,,,,,,,,,,,,,,,,,,,,,,,,,,,,,,,,,,824.8089872999117,None,,,,,,,,,,,,,,,,,,,,,,,,,,,,,,,,,,,health,10,65,sing,white,822.8071253998205,None,None,822.8071253998205,None,,,,,,,,,,,,,,,,,,,,,,,,,,,,,,37YA,001,2023_Apr_12_1525,ExactRep-v3-final,2021.2.3,59.94093415845065,
,,,,,,,,65,0,65,0,,,,,,,,,,,,,,,,,,,,,,,,,,,,,,,,,,,,,,,,,,,,,,,,,,,,,827.3113031005487,None,,,,,,,,,,,,,,,,,,,,,,,,,,,,,,,,,,,passion,69,66,silent,blue,825.3106776000932,None,None,825.3106776000932,None,,,,,,,,,,,,,,,,,,,,,,,,,,,,,,37YA,001,2023_Apr_12_1525,ExactRep-v3-final,2021.2.3,59.94093415845065,
,,,,,,,,66,0,66,0,,,,,,,,,,,,,,,,,,,,,,,,,,,,,,,,,,,,,,,,,,,,,,,,,,,,,829.8140555005521,None,,,,,,,,,,,,,,,,,,,,,,,,,,,,,,,,,,,form,66,67,silent,blue,827.8118582004681,None,None,827.8118582004681,None,,,,,,,,,,,,,,,,,,,,,,,,,,,,,,37YA,001,2023_Apr_12_1525,ExactRep-v3-final,2021.2.3,59.94093415845065,
,,,,,,,,67,0,67,0,,,,,,,,,,,,,,,,,,,,,,,,,,,,,,,,,,,,,,,,,,,,,,,,,,,,,832.3164745001122,None,,,,,,,,,,,,,,,,,,,,,,,,,,,,,,,,,,,weapon,95,68,aloud,red,830.3145008003339,None,None,830.3145008003339,None,,,,,,,,,,,,,,,,,,,,,,,,,,,,,,37YA,001,2023_Apr_12_1525,ExactRep-v3-final,2021.2.3,59.94093415845065,
,,,,,,,,68,0,68,0,,,,,,,,,,,,,,,,,,,,,,,,,,,,,,,,,,,,,,,,,,,,,,,,,,,,,834.8189906999469,None,,,,,,,,,,,,,,,,,,,,,,,,,,,,,,,,,,,flood,1,69,sing,white,832.8183286003768,None,None,832.8183286003768,None,,,,,,,,,,,,,,,,,,,,,,,,,,,,,,37YA,001,2023_Apr_12_1525,ExactRep-v3-final,2021.2.3,59.94093415845065,
,,,,,,,,69,0,69,0,,,,,,,,,,,,,,,,,,,,,,,,,,,,,,,,,,,,,,,,,,,,,,,,,,,,,837.3212298005819,None,,,,,,,,,,,,,,,,,,,,,,,,,,,,,,,,,,,teacher,77,70,silent,blue,835.3224646998569,None,None,835.3224646998569,None,,,,,,,,,,,,,,,,,,,,,,,,,,,,,,37YA,001,2023_Apr_12_1525,ExactRep-v3-final,2021.2.3,59.94093415845065,
,,,,,,,,70,0,70,0,,,,,,,,,,,,,,,,,,,,,,,,,,,,,,,,,,,,,,,,,,,,,,,,,,,,,839.8405168000609,None,,,,,,,,,,,,,,,,,,,,,,,,,,,,,,,,,,,mercy,6,71,sing,white,837.8300673998892,None,None,837.8300673998892,None,,,,,,,,,,,,,,,,,,,,,,,,,,,,,,37YA,001,2023_Apr_12_1525,ExactRep-v3-final,2021.2.3,59.94093415845065,
,,,,,,,,71,0,71,0,,,,,,,,,,,,,,,,,,,,,,,,,,,,,,,,,,,,,,,,,,,,,,,,,,,,,842.3430759999901,None,,,,,,,,,,,,,,,,,,,,,,,,,,,,,,,,,,,cash,98,72,aloud,red,840.3411055002362,None,None,840.3411055002362,None,,,,,,,,,,,,,,,,,,,,,,,,,,,,,,37YA,001,2023_Apr_12_1525,ExactRep-v3-final,2021.2.3,59.94093415845065,
,,,,,,,,72,0,72,0,,,,,,,,,,,,,,,,,,,,,,,,,,,,,,,,,,,,,,,,,,,,,,,,,,,,,844.8624538006261,None,,,,,,,,,,,,,,,,,,,,,,,,,,,,,,,,,,,blood,17,73,sing,white,842.8531744005159,None,None,842.8531744005159,None,,,,,,,,,,,,,,,,,,,,,,,,,,,,,,37YA,001,2023_Apr_12_1525,ExactRep-v3-final,2021.2.3,59.94093415845065,
,,,,,,,,73,0,73,0,,,,,,,,,,,,,,,,,,,,,,,,,,,,,,,,,,,,,,,,,,,,,,,,,,,,,847.3817262006924,None,,,,,,,,,,,,,,,,,,,,,,,,,,,,,,,,,,,letter,106,74,aloud,red,845.3706732001156,None,None,845.3706732001156,None,,,,,,,,,,,,,,,,,,,,,,,,,,,,,,37YA,001,2023_Apr_12_1525,ExactRep-v3-final,2021.2.3,59.94093415845065,
,,,,,,,,74,0,74,0,,,,,,,,,,,,,,,,,,,,,,,,,,,,,,,,,,,,,,,,,,,,,,,,,,,,,849.8840351002291,None,,,,,,,,,,,,,,,,,,,,,,,,,,,,,,,,,,,crime,29,75,sing,white,847.8820862006396,None,None,847.8820862006396,None,,,,,,,,,,,,,,,,,,,,,,,,,,,,,,37YA,001,2023_Apr_12_1525,ExactRep-v3-final,2021.2.3,59.94093415845065,
,,,,,,,,75,0,75,0,,,,,,,,,,,,,,,,,,,,,,,,,,,,,,,,,,,,,,,,,,,,,,,,,,,,,852.4034056998789,None,,,,,,,,,,,,,,,,,,,,,,,,,,,,,,,,,,,chief,109,76,aloud,red,850.3879043003544,None,None,850.3879043003544,None,,,,,,,,,,,,,,,,,,,,,,,,,,,,,,37YA,001,2023_Apr_12_1525,ExactRep-v3-final,2021.2.3,59.94093415845065,
,,,,,,,,76,0,76,0,,,,,,,,,,,,,,,,,,,,,,,,,,,,,,,,,,,,,,,,,,,,,,,,,,,,,854.9225658001378,None,,,,,,,,,,,,,,,,,,,,,,,,,,,,,,,,,,,trouble,36,77,sing,white,852.907496300526,None,None,852.907496300526,None,,,,,,,,,,,,,,,,,,,,,,,,,,,,,,37YA,001,2023_Apr_12_1525,ExactRep-v3-final,2021.2.3,59.94093415845065,
,,,,,,,,77,0,77,0,,,,,,,,,,,,,,,,,,,,,,,,,,,,,,,,,,,,,,,,,,,,,,,,,,,,,857.4256901005283,None,,,,,,,,,,,,,,,,,,,,,,,,,,,,,,,,,,,flesh,104,78,aloud,red,855.4237796002999,None,None,855.4237796002999,None,,,,,,,,,,,,,,,,,,,,,,,,,,,,,,37YA,001,2023_Apr_12_1525,ExactRep-v3-final,2021.2.3,59.94093415845065,
,,,,,,,,78,0,78,0,,,,,,,,,,,,,,,,,,,,,,,,,,,,,,,,,,,,,,,,,,,,,,,,,,,,,859.9441344002262,None,,,,,,,,,,,,,,,,,,,,,,,,,,,,,,,,,,,event,96,79,aloud,red,857.930212800391,None,None,857.930212800391,None,,,,,,,,,,,,,,,,,,,,,,,,,,,,,,37YA,001,2023_Apr_12_1525,ExactRep-v3-final,2021.2.3,59.94093415845065,
,,,,,,,,79,0,79,0,,,,,,,,,,,,,,,,,,,,,,,,,,,,,,,,,,,,,,,,,,,,,,,,,,,,,862.4466912997887,None,,,,,,,,,,,,,,,,,,,,,,,,,,,,,,,,,,,stone,3,80,sing,white,860.4472826002166,None,None,860.4472826002166,None,,,,,,,,,,,,,,,,,,,,,,,,,,,,,,37YA,001,2023_Apr_12_1525,ExactRep-v3-final,2021.2.3,59.94093415845065,
,,,,,,,,80,0,80,0,,,,,,,,,,,,,,,,,,,,,,,,,,,,,,,,,,,,,,,,,,,,,,,,,,,,,864.9489443004131,None,,,,,,,,,,,,,,,,,,,,,,,,,,,,,,,,,,,kiss,67,81,silent,blue,862.9488449003547,None,None,862.9488449003547,None,,,,,,,,,,,,,,,,,,,,,,,,,,,,,,37YA,001,2023_Apr_12_1525,ExactRep-v3-final,2021.2.3,59.94093415845065,
,,,,,,,,81,0,81,0,,,,,,,,,,,,,,,,,,,,,,,,,,,,,,,,,,,,,,,,,,,,,,,,,,,,,867.4683019006625,None,,,,,,,,,,,,,,,,,,,,,,,,,,,,,,,,,,,rod,71,82,silent,blue,865.4557325001806,None,None,865.4557325001806,None,,,,,,,,,,,,,,,,,,,,,,,,,,,,,,37YA,001,2023_Apr_12_1525,ExactRep-v3-final,2021.2.3,59.94093415845065,
,,,,,,,,82,0,82,0,,,,,,,,,,,,,,,,,,,,,,,,,,,,,,,,,,,,,,,,,,,,,,,,,,,,,869.9706585006788,None,,,,,,,,,,,,,,,,,,,,,,,,,,,,,,,,,,,iron,9,83,sing,white,867.9696081001312,None,None,867.9696081001312,None,,,,,,,,,,,,,,,,,,,,,,,,,,,,,,37YA,001,2023_Apr_12_1525,ExactRep-v3-final,2021.2.3,59.94093415845065,
,,,,,,,,83,0,83,0,,,,,,,,,,,,,,,,,,,,,,,,,,,,,,,,,,,,,,,,,,,,,,,,,,,,,872.4900684999302,None,,,,,,,,,,,,,,,,,,,,,,,,,,,,,,,,,,,power,8,84,sing,white,870.474520300515,None,None,870.474520300515,None,,,,,,,,,,,,,,,,,,,,,,,,,,,,,,37YA,001,2023_Apr_12_1525,ExactRep-v3-final,2021.2.3,59.94093415845065,
,,,,,,,,84,0,84,0,,,,,,,,,,,,,,,,,,,,,,,,,,,,,,,,,,,,,,,,,,,,,,,,,,,,,875.0092814005911,None,,,,,,,,,,,,,,,,,,,,,,,,,,,,,,,,,,,woman,16,85,sing,white,872.9974958002567,None,None,872.9974958002567,None,,,,,,,,,,,,,,,,,,,,,,,,,,,,,,37YA,001,2023_Apr_12_1525,ExactRep-v3-final,2021.2.3,59.94093415845065,
,,,,,,,,85,0,85,0,,,,,,,,,,,,,,,,,,,,,,,,,,,,,,,,,,,,,,,,,,,,,,,,,,,,,877.5283621000126,None,,,,,,,,,,,,,,,,,,,,,,,,,,,,,,,,,,,steam,35,86,sing,white,875.5191600006074,None,None,875.5191600006074,None,,,,,,,,,,,,,,,,,,,,,,,,,,,,,,37YA,001,2023_Apr_12_1525,ExactRep-v3-final,2021.2.3,59.94093415845065,
,,,,,,,,86,0,86,0,,,,,,,,,,,,,,,,,,,,,,,,,,,,,,,,,,,,,,,,,,,,,,,,,,,,,880.0307432999834,None,,,,,,,,,,,,,,,,,,,,,,,,,,,,,,,,,,,lip,80,87,aloud,red,878.02875590045,None,None,878.02875590045,None,,,,,,,,,,,,,,,,,,,,,,,,,,,,,,37YA,001,2023_Apr_12_1525,ExactRep-v3-final,2021.2.3,59.94093415845065,
,,,,,,,,87,0,87,0,,,,,,,,,,,,,,,,,,,,,,,,,,,,,,,,,,,,,,,,,,,,,,,,,,,,,882.533558900468,None,,,,,,,,,,,,,,,,,,,,,,,,,,,,,,,,,,,flower,53,88,silent,blue,880.5312286000699,None,None,880.5312286000699,None,,,,,,,,,,,,,,,,,,,,,,,,,,,,,,37YA,001,2023_Apr_12_1525,ExactRep-v3-final,2021.2.3,59.94093415845065,
,,,,,,,,88,0,88,0,,,,,,,,,,,,,,,,,,,,,,,,,,,,,,,,,,,,,,,,,,,,,,,,,,,,,885.0357121005654,None,,,,,,,,,,,,,,,,,,,,,,,,,,,,,,,,,,,money,19,89,sing,white,883.0353023000062,None,None,883.0353023000062,None,,,,,,,,,,,,,,,,,,,,,,,,,,,,,,37YA,001,2023_Apr_12_1525,ExactRep-v3-final,2021.2.3,59.94093415845065,
,,,,,,,,89,0,89,0,,,,,,,,,,,,,,,,,,,,,,,,,,,,,,,,,,,,,,,,,,,,,,,,,,,,,887.5409904001281,None,,,,,,,,,,,,,,,,,,,,,,,,,,,,,,,,,,,custom,100,90,aloud,red,885.5363835003227,None,None,885.5363835003227,None,,,,,,,,,,,,,,,,,,,,,,,,,,,,,,37YA,001,2023_Apr_12_1525,ExactRep-v3-final,2021.2.3,59.94093415845065,
,,,,,,,,90,0,90,0,,,,,,,,,,,,,,,,,,,,,,,,,,,,,,,,,,,,,,,,,,,,,,,,,,,,,890.0740662999451,None,,,,,,,,,,,,,,,,,,,,,,,,,,,,,,,,,,,cost,46,91,silent,blue,888.0620838999748,None,None,888.0620838999748,None,,,,,,,,,,,,,,,,,,,,,,,,,,,,,,37YA,001,2023_Apr_12_1525,ExactRep-v3-final,2021.2.3,59.94093415845065,
,,,,,,,,91,0,91,0,,,,,,,,,,,,,,,,,,,,,,,,,,,,,,,,,,,,,,,,,,,,,,,,,,,,,892.5765396999195,None,,,,,,,,,,,,,,,,,,,,,,,,,,,,,,,,,,,mother,2,92,sing,white,890.574760899879,None,None,890.574760899879,None,,,,,,,,,,,,,,,,,,,,,,,,,,,,,,37YA,001,2023_Apr_12_1525,ExactRep-v3-final,2021.2.3,59.94093415845065,
,,,,,,,,92,0,92,0,,,,,,,,,,,,,,,,,,,,,,,,,,,,,,,,,,,,,,,,,,,,,,,,,,,,,895.0791910998523,None,,,,,,,,,,,,,,,,,,,,,,,,,,,,,,,,,,,party,119,93,aloud,red,893.077759699896,None,None,893.077759699896,None,,,,,,,,,,,,,,,,,,,,,,,,,,,,,,37YA,001,2023_Apr_12_1525,ExactRep-v3-final,2021.2.3,59.94093415845065,
,,,,,,,,93,0,93,0,,,,,,,,,,,,,,,,,,,,,,,,,,,,,,,,,,,,,,,,,,,,,,,,,,,,,897.5981334000826,None,,,,,,,,,,,,,,,,,,,,,,,,,,,,,,,,,,,hour,89,94,aloud,red,895.5925471000373,None,None,895.5925471000373,None,,,,,,,,,,,,,,,,,,,,,,,,,,,,,,37YA,001,2023_Apr_12_1525,ExactRep-v3-final,2021.2.3,59.94093415845065,
,,,,,,,,94,0,94,0,,,,,,,,,,,,,,,,,,,,,,,,,,,,,,,,,,,,,,,,,,,,,,,,,,,,,900.1175465006381,None,,,,,,,,,,,,,,,,,,,,,,,,,,,,,,,,,,,metal,32,95,sing,white,898.1046018004417,None,None,898.1046018004417,None,,,,,,,,,,,,,,,,,,,,,,,,,,,,,,37YA,001,2023_Apr_12_1525,ExactRep-v3-final,2021.2.3,59.94093415845065,
,,,,,,,,95,0,95,0,,,,,,,,,,,,,,,,,,,,,,,,,,,,,,,,,,,,,,,,,,,,,,,,,,,,,902.636827500537,None,,,,,,,,,,,,,,,,,,,,,,,,,,,,,,,,,,,cabin,90,96,aloud,red,900.6245234999806,None,None,900.6245234999806,None,,,,,,,,,,,,,,,,,,,,,,,,,,,,,,37YA,001,2023_Apr_12_1525,ExactRep-v3-final,2021.2.3,59.94093415845065,
,,,,,,,,96,0,96,0,,,,,,,,,,,,,,,,,,,,,,,,,,,,,,,,,,,,,,,,,,,,,,,,,,,,,905.1390540003777,None,,,,,,,,,,,,,,,,,,,,,,,,,,,,,,,,,,,circle,93,97,aloud,red,903.1372891003266,None,None,903.1372891003266,None,,,,,,,,,,,,,,,,,,,,,,,,,,,,,,37YA,001,2023_Apr_12_1525,ExactRep-v3-final,2021.2.3,59.94093415845065,
,,,,,,,,97,0,97,0,,,,,,,,,,,,,,,,,,,,,,,,,,,,,,,,,,,,,,,,,,,,,,,,,,,,,907.6585106998682,None,,,,,,,,,,,,,,,,,,,,,,,,,,,,,,,,,,,leader,82,98,aloud,red,905.6509695006534,None,None,905.6509695006534,None,,,,,,,,,,,,,,,,,,,,,,,,,,,,,,37YA,001,2023_Apr_12_1525,ExactRep-v3-final,2021.2.3,59.94093415845065,
,,,,,,,,98,0,98,0,,,,,,,,,,,,,,,,,,,,,,,,,,,,,,,,,,,,,,,,,,,,,,,,,,,,,910.1782817002386,None,,,,,,,,,,,,,,,,,,,,,,,,,,,,,,,,,,,seat,114,99,aloud,red,908.1674243006855,None,None,908.1674243006855,None,,,,,,,,,,,,,,,,,,,,,,,,,,,,,,37YA,001,2023_Apr_12_1525,ExactRep-v3-final,2021.2.3,59.94093415845065,
,,,,,,,,99,0,99,0,,,,,,,,,,,,,,,,,,,,,,,,,,,,,,,,,,,,,,,,,,,,,,,,,,,,,912.6967950006947,None,,,,,,,,,,,,,,,,,,,,,,,,,,,,,,,,,,,month,24,100,sing,white,910.6867714999244,None,None,910.6867714999244,None,,,,,,,,,,,,,,,,,,,,,,,,,,,,,,37YA,001,2023_Apr_12_1525,ExactRep-v3-final,2021.2.3,59.94093415845065,
,,,,,,,,100,0,100,0,,,,,,,,,,,,,,,,,,,,,,,,,,,,,,,,,,,,,,,,,,,,,,,,,,,,,915.1992081003264,None,,,,,,,,,,,,,,,,,,,,,,,,,,,,,,,,,,,grass,52,101,silent,blue,913.1973953004926,None,None,913.1973953004926,None,,,,,,,,,,,,,,,,,,,,,,,,,,,,,,37YA,001,2023_Apr_12_1525,ExactRep-v3-final,2021.2.3,59.94093415845065,
,,,,,,,,101,0,101,0,,,,,,,,,,,,,,,,,,,,,,,,,,,,,,,,,,,,,,,,,,,,,,,,,,,,,917.7185860006139,None,,,,,,,,,,,,,,,,,,,,,,,,,,,,,,,,,,,virtue,34,102,sing,white,915.7097316002473,None,None,915.7097316002473,None,,,,,,,,,,,,,,,,,,,,,,,,,,,,,,37YA,001,2023_Apr_12_1525,ExactRep-v3-final,2021.2.3,59.94093415845065,
,,,,,,,,102,0,102,0,,,,,,,,,,,,,,,,,,,,,,,,,,,,,,,,,,,,,,,,,,,,,,,,,,,,,920.2212995002046,None,,,,,,,,,,,,,,,,,,,,,,,,,,,,,,,,,,,shoes,54,103,silent,blue,918.219031999819,None,None,918.219031999819,None,,,,,,,,,,,,,,,,,,,,,,,,,,,,,,37YA,001,2023_Apr_12_1525,ExactRep-v3-final,2021.2.3,59.94093415845065,
,,,,,,,,103,0,103,0,,,,,,,,,,,,,,,,,,,,,,,,,,,,,,,,,,,,,,,,,,,,,,,,,,,,,922.7404444999993,None,,,,,,,,,,,,,,,,,,,,,,,,,,,,,,,,,,,sea,97,104,aloud,red,920.7328278999776,None,None,920.7328278999776,None,,,,,,,,,,,,,,,,,,,,,,,,,,,,,,37YA,001,2023_Apr_12_1525,ExactRep-v3-final,2021.2.3,59.94093415845065,
,,,,,,,,104,0,104,0,,,,,,,,,,,,,,,,,,,,,,,,,,,,,,,,,,,,,,,,,,,,,,,,,,,,,925.2594776004553,None,,,,,,,,,,,,,,,,,,,,,,,,,,,,,,,,,,,rock,112,105,aloud,red,923.2512261997908,None,None,923.2512261997908,None,,,,,,,,,,,,,,,,,,,,,,,,,,,,,,37YA,001,2023_Apr_12_1525,ExactRep-v3-final,2021.2.3,59.94093415845065,
,,,,,,,,105,0,105,0,,,,,,,,,,,,,,,,,,,,,,,,,,,,,,,,,,,,,,,,,,,,,,,,,,,,,927.7825393006206,None,,,,,,,,,,,,,,,,,,,,,,,,,,,,,,,,,,,fun,75,106,silent,blue,925.7660041004419,None,None,925.7660041004419,None,,,,,,,,,,,,,,,,,,,,,,,,,,,,,,37YA,001,2023_Apr_12_1525,ExactRep-v3-final,2021.2.3,59.94093415845065,
,,,,,,,,106,0,106,0,,,,,,,,,,,,,,,,,,,,,,,,,,,,,,,,,,,,,,,,,,,,,,,,,,,,,930.2811652999371,None,,,,,,,,,,,,,,,,,,,,,,,,,,,,,,,,,,,camp,12,107,sing,white,928.279119499959,None,None,928.279119499959,None,,,,,,,,,,,,,,,,,,,,,,,,,,,,,,37YA,001,2023_Apr_12_1525,ExactRep-v3-final,2021.2.3,59.94093415845065,
,,,,,,,,107,0,107,0,,,,,,,,,,,,,,,,,,,,,,,,,,,,,,,,,,,,,,,,,,,,,,,,,,,,,932.7834450006485,None,,,,,,,,,,,,,,,,,,,,,,,,,,,,,,,,,,,forest,4,108,sing,white,930.781439400278,None,None,930.781439400278,None,,,,,,,,,,,,,,,,,,,,,,,,,,,,,,37YA,001,2023_Apr_12_1525,ExactRep-v3-final,2021.2.3,59.94093415845065,
,,,,,,,,108,0,108,0,,,,,,,,,,,,,,,,,,,,,,,,,,,,,,,,,,,,,,,,,,,,,,,,,,,,,935.3027368998155,None,,,,,,,,,,,,,,,,,,,,,,,,,,,,,,,,,,,mind,105,109,aloud,red,933.2937582004815,None,None,933.2937582004815,None,,,,,,,,,,,,,,,,,,,,,,,,,,,,,,37YA,001,2023_Apr_12_1525,ExactRep-v3-final,2021.2.3,59.94093415845065,
,,,,,,,,109,0,109,0,,,,,,,,,,,,,,,,,,,,,,,,,,,,,,,,,,,,,,,,,,,,,,,,,,,,,937.8220672002062,None,,,,,,,,,,,,,,,,,,,,,,,,,,,,,,,,,,,dust,48,110,silent,blue,935.809268400073,None,None,935.809268400073,None,,,,,,,,,,,,,,,,,,,,,,,,,,,,,,37YA,001,2023_Apr_12_1525,ExactRep-v3-final,2021.2.3,59.94093415845065,
,,,,,,,,110,0,110,0,,,,,,,,,,,,,,,,,,,,,,,,,,,,,,,,,,,,,,,,,,,,,,,,,,,,,940.3289954001084,None,,,,,,,,,,,,,,,,,,,,,,,,,,,,,,,,,,,tree,25,111,sing,white,938.3223347999156,None,None,938.3223347999156,None,,,,,,,,,,,,,,,,,,,,,,,,,,,,,,37YA,001,2023_Apr_12_1525,ExactRep-v3-final,2021.2.3,59.94093415845065,
,,,,,,,,111,0,111,0,,,,,,,,,,,,,,,,,,,,,,,,,,,,,,,,,,,,,,,,,,,,,,,,,,,,,942.8437323002145,None,,,,,,,,,,,,,,,,,,,,,,,,,,,,,,,,,,,speech,65,112,silent,blue,940.8415622999892,None,None,940.8415622999892,None,,,,,,,,,,,,,,,,,,,,,,,,,,,,,,37YA,001,2023_Apr_12_1525,ExactRep-v3-final,2021.2.3,59.94093415845065,
,,,,,,,,112,0,112,0,,,,,,,,,,,,,,,,,,,,,,,,,,,,,,,,,,,,,,,,,,,,,,,,,,,,,945.3628571005538,None,,,,,,,,,,,,,,,,,,,,,,,,,,,,,,,,,,,hotel,88,113,aloud,red,943.3482686001807,None,None,943.3482686001807,None,,,,,,,,,,,,,,,,,,,,,,,,,,,,,,37YA,001,2023_Apr_12_1525,ExactRep-v3-final,2021.2.3,59.94093415845065,
,,,,,,,,113,0,113,0,,,,,,,,,,,,,,,,,,,,,,,,,,,,,,,,,,,,,,,,,,,,,,,,,,,,,947.8660292001441,None,,,,,,,,,,,,,,,,,,,,,,,,,,,,,,,,,,,advice,70,114,silent,blue,945.8633869001642,None,None,945.8633869001642,None,,,,,,,,,,,,,,,,,,,,,,,,,,,,,,37YA,001,2023_Apr_12_1525,ExactRep-v3-final,2021.2.3,59.94093415845065,
,,,,,,,,114,0,114,0,,,,,,,,,,,,,,,,,,,,,,,,,,,,,,,,,,,,,,,,,,,,,,,,,,,,,950.378026000224,None,,,,,,,,,,,,,,,,,,,,,,,,,,,,,,,,,,,body,108,115,aloud,red,948.3656686004251,None,None,948.3656686004251,None,,,,,,,,,,,,,,,,,,,,,,,,,,,,,,37YA,001,2023_Apr_12_1525,ExactRep-v3-final,2021.2.3,59.94093415845065,
,,,,,,,,115,0,115,0,,,,,,,,,,,,,,,,,,,,,,,,,,,,,,,,,,,,,,,,,,,,,,,,,,,,,952.8868975006044,None,,,,,,,,,,,,,,,,,,,,,,,,,,,,,,,,,,,safety,74,116,silent,blue,950.8849895000458,None,None,950.8849895000458,None,,,,,,,,,,,,,,,,,,,,,,,,,,,,,,37YA,001,2023_Apr_12_1525,ExactRep-v3-final,2021.2.3,59.94093415845065,
,,,,,,,,116,0,116,0,,,,,,,,,,,,,,,,,,,,,,,,,,,,,,,,,,,,,,,,,,,,,,,,,,,,,955.3897107997909,None,,,,,,,,,,,,,,,,,,,,,,,,,,,,,,,,,,,opinion,26,117,sing,white,953.3884707000107,None,None,953.3884707000107,None,,,,,,,,,,,,,,,,,,,,,,,,,,,,,,37YA,001,2023_Apr_12_1525,ExactRep-v3-final,2021.2.3,59.94093415845065,
,,,,,,,,117,0,117,0,,,,,,,,,,,,,,,,,,,,,,,,,,,,,,,,,,,,,,,,,,,,,,,,,,,,,957.8918972006068,None,,,,,,,,,,,,,,,,,,,,,,,,,,,,,,,,,,,tool,14,118,sing,white,955.8899640003219,None,None,955.8899640003219,None,,,,,,,,,,,,,,,,,,,,,,,,,,,,,,37YA,001,2023_Apr_12_1525,ExactRep-v3-final,2021.2.3,59.94093415845065,
,,,,,,,,118,0,118,0,,,,,,,,,,,,,,,,,,,,,,,,,,,,,,,,,,,,,,,,,,,,,,,,,,,,,960.3944732006639,None,,,,,,,,,,,,,,,,,,,,,,,,,,,,,,,,,,,prayer,47,119,silent,blue,958.3924266006798,None,None,958.3924266006798,None,,,,,,,,,,,,,,,,,,,,,,,,,,,,,,37YA,001,2023_Apr_12_1525,ExactRep-v3-final,2021.2.3,59.94093415845065,
,,,,,,,,119,0,119,0,,,,,,,,,,,,,,,,,,,,,,,,,,,,,,,,,,,,,,,,,,,,,,,,,,,,,962.9136687004939,None,,,,,,,,,,,,,,,,,,,,,,,,,,,,,,,,,,,coast,44,120,silent,blue,960.9053899003193,None,None,960.9053899003193,None,,,,,,,,,,,,,,,,,,,,,,,,,,,,,,37YA,001,2023_Apr_12_1525,ExactRep-v3-final,2021.2.3,59.94093415845065,
,,,,,,,,,,,,,,,,,,,,,,,,,,,,,,,,,,,,,,,,,,,,,,,,,,,,,,,,,,,,,,,,,,,,,,,,,,,,,,,,,,,,,,,,,,,,,,,,,,,,,,,,,,,,,,963.4161149999127,None,space,13.678086099214852,973.4090165998787,None,,,,,,,,,,,,,,,,,,,,,,,,37YA,001,2023_Apr_12_1525,ExactRep-v3-final,2021.2.3,59.94093415845065,
,,,,,,,,,,,,,,,,,,,,,,,,,,,,,,,,,,,,,,,,,,,,,,,,,,,,,,,,,,,,,,,,,,,,,,,,,,,,,,,,,,,,,,,,,,,,,,,,,,,,,,,,,,,,,,,,,,,,987.1061623999849,None,space,37.23704549949616,997.082494600676,None,,,,,,,,,,,,,,,,,,37YA,001,2023_Apr_12_1525,ExactRep-v3-final,2021.2.3,59.94093415845065,
,,,,,,,,,,,,0,0,0,0,,,,,,,,,,,,,,,,,,,,,,,,,,,,,,,,,,,,,,,,,,,,,,,,,1058.8263387000188,None,,,,,,,,,,,,,,,,,,,,,,,,,,,,,,,,,,,,,,,,,,,,,,,,,,,,,,,,,cost,46,1,silent,old,blue,1034.8594076000154,None,y,1034.8594076000154,None,"['y', 'return']","[20.28344069980085, 23.931717700324953]",1034.8594076000154,None,,,37YA,001,2023_Apr_12_1525,ExactRep-v3-final,2021.2.3,59.94093415845065,
,,,,,,,,,,,,1,0,1,0,,,,,,,,,,,,,,,,,,,,,,,,,,,,,,,,,,,,,,,,,,,,,,,,,1069.086631800048,None,,,,,,,,,,,,,,,,,,,,,,,,,,,,,,,,,,,,,,,,,,,,,,,,,,,,,,,,,queen,11,2,sing,old,white,1059.339663600549,None,y,1059.339663600549,None,"['y', 'return']","[2.4834393998607993, 9.71533939987421]",1059.339663600549,None,,,37YA,001,2023_Apr_12_1525,ExactRep-v3-final,2021.2.3,59.94093415845065,
,,,,,,,,,,,,2,0,2,0,,,,,,,,,,,,,,,,,,,,,,,,,,,,,,,,,,,,,,,,,,,,,,,,,1075.2091883998364,None,,,,,,,,,,,,,,,,,,,,,,,,,,,,,,,,,,,,,,,,,,,,,,,,,,,,,,,,,justice,140,3,silent,new,blue,1069.5961792999879,None,y,1069.5961792999879,None,"['y', 'return']","[4.810689999721944, 5.578775600530207]",1069.5961792999879,None,,,37YA,001,2023_Apr_12_1525,ExactRep-v3-final,2021.2.3,59.94093415845065,
,,,,,,,,,,,,3,0,3,0,,,,,,,,,,,,,,,,,,,,,,,,,,,,,,,,,,,,,,,,,,,,,,,,,1078.0121383005753,None,,,,,,,,,,,,,,,,,,,,,,,,,,,,,,,,,,,,,,,,,,,,,,,,,,,,,,,,,pipe,206,4,aloud,new,red,1075.7170226005837,None,n,1075.7170226005837,None,"['n', 'return']","[1.4902798002585769, 2.258025299757719]",1075.7170226005837,None,,,37YA,001,2023_Apr_12_1525,ExactRep-v3-final,2021.2.3,59.94093415845065,
,,,,,,,,,,,,4,0,4,0,,,,,,,,,,,,,,,,,,,,,,,,,,,,,,,,,,,,,,,,,,,,,,,,,1080.7314881999046,None,,,,,,,,,,,,,,,,,,,,,,,,,,,,,,,,,,,,,,,,,,,,,,,,,,,,,,,,,star,115,5,aloud,old,red,1078.512559200637,None,y,1078.512559200637,None,"['y', 'return']","[1.4467187002301216, 2.1744288001209497]",1078.512559200637,None,,,37YA,001,2023_Apr_12_1525,ExactRep-v3-final,2021.2.3,59.94093415845065,
,,,,,,,,,,,,5,0,5,0,,,,,,,,,,,,,,,,,,,,,,,,,,,,,,,,,,,,,,,,,,,,,,,,,1084.5854542003945,None,,,,,,,,,,,,,,,,,,,,,,,,,,,,,,,,,,,,,,,,,,,,,,,,,,,,,,,,,square,83,6,aloud,old,red,1081.2480448000133,None,n,1081.2480448000133,None,"['n', 'return']","[2.5912496000528336, 3.3029594998806715]",1081.2480448000133,None,,,37YA,001,2023_Apr_12_1525,ExactRep-v3-final,2021.2.3,59.94093415845065,
,,,,,,,,,,,,6,0,6,0,,,,,,,,,,,,,,,,,,,,,,,,,,,,,,,,,,,,,,,,,,,,,,,,,1088.3891054000705,None,,,,,,,,,,,,,,,,,,,,,,,,,,,,,,,,,,,,,,,,,,,,,,,,,,,,,,,,,length,169,7,sing,new,white,1085.094476500526,None,n,1085.094476500526,None,"['n', 'return']","[2.5365043999627233, 3.248568399809301]",1085.094476500526,None,,,37YA,001,2023_Apr_12_1525,ExactRep-v3-final,2021.2.3,59.94093415845065,
,,,,,,,,,,,,7,0,7,0,,,,,,,,,,,,,,,,,,,,,,,,,,,,,,,,,,,,,,,,,,,,,,,,,1094.3951890999451,None,,,,,,,,,,,,,,,,,,,,,,,,,,,,,,,,,,,,,,,,,,,,,,,,,,,,,,,,,mind,105,8,aloud,old,red,1088.9062283998355,None,n,1088.9062283998355,None,"['n', 'return']","[4.780960900709033, 5.452767300419509]",1088.9062283998355,None,,,37YA,001,2023_Apr_12_1525,ExactRep-v3-final,2021.2.3,59.94093415845065,
,,,,,,,,,,,,8,0,8,0,,,,,,,,,,,,,,,,,,,,,,,,,,,,,,,,,,,,,,,,,,,,,,,,,1098.7329481001943,None,,,,,,,,,,,,,,,,,,,,,,,,,,,,,,,,,,,,,,,,,,,,,,,,,,,,,,,,,amount,182,9,aloud,new,red,1094.8963638003916,None,y,1094.8963638003916,None,"['y', 'return']","[3.1826488999649882, 3.7986655002459884]",1094.8963638003916,None,,,37YA,001,2023_Apr_12_1525,ExactRep-v3-final,2021.2.3,59.94093415845065,
,,,,,,,,,,,,9,0,9,0,,,,,,,,,,,,,,,,,,,,,,,,,,,,,,,,,,,,,,,,,,,,,,,,,1101.7860112003982,None,,,,,,,,,,,,,,,,,,,,,,,,,,,,,,,,,,,,,,,,,,,,,,,,,,,,,,,,,child,37,10,sing,old,white,1099.2367764003575,None,y,1099.2367764003575,None,"['y', 'return']","[1.9222766999155283, 2.514319700188935]",1099.2367764003575,None,,,37YA,001,2023_Apr_12_1525,ExactRep-v3-final,2021.2.3,59.94093415845065,
,,,,,,,,,,,,10,0,10,0,,,,,,,,,,,,,,,,,,,,,,,,,,,,,,,,,,,,,,,,,,,,,,,,,1105.3895038999617,None,,,,,,,,,,,,,,,,,,,,,,,,,,,,,,,,,,,,,,,,,,,,,,,,,,,,,,,,,thought,142,11,silent,new,blue,1102.29575929977,None,y,1102.29575929977,None,"['y', 'return']","[2.3911739997565746, 3.0472891004756093]",1102.29575929977,None,,,37YA,001,2023_Apr_12_1525,ExactRep-v3-final,2021.2.3,59.94093415845065,
,,,,,,,,,,,,11,0,11,0,,,,,,,,,,,,,,,,,,,,,,,,,,,,,,,,,,,,,,,,,,,,,,,,,1110.1943998001516,None,,,,,,,,,,,,,,,,,,,,,,,,,,,,,,,,,,,,,,,,,,,,,,,,,,,,,,,,,money,19,12,sing,old,white,1105.8991243001074,None,y,1105.8991243001074,None,"['y', 'return']","[3.6280741998925805, 4.251908999867737]",1105.8991243001074,None,,,37YA,001,2023_Apr_12_1525,ExactRep-v3-final,2021.2.3,59.94093415845065,
,,,,,,,,,,,,12,0,12,0,,,,,,,,,,,,,,,,,,,,,,,,,,,,,,,,,,,,,,,,,,,,,,,,,1116.7340379003435,None,,,,,,,,,,,,,,,,,,,,,,,,,,,,,,,,,,,,,,,,,,,,,,,,,,,,,,,,,method,190,13,aloud,new,red,1110.7015705006197,None,y,1110.7015705006197,None,"['y', 'return']","[5.417745199985802, 5.993491699919105]",1110.7015705006197,None,,,37YA,001,2023_Apr_12_1525,ExactRep-v3-final,2021.2.3,59.94093415845065,
,,,,,,,,,,,,13,0,13,0,,,,,,,,,,,,,,,,,,,,,,,,,,,,,,,,,,,,,,,,,,,,,,,,,1119.7704833000898,None,,,,,,,,,,,,,,,,,,,,,,,,,,,,,,,,,,,,,,,,,,,,,,,,,,,,,,,,,effort,152,14,silent,new,blue,1117.2488798005506,None,n,1117.2488798005506,None,"['n', 'return']","[1.934178899973631, 2.4862537002190948]",1117.2488798005506,None,,,37YA,001,2023_Apr_12_1525,ExactRep-v3-final,2021.2.3,59.94093415845065,
,,,,,,,,,,,,14,0,14,0,,,,,,,,,,,,,,,,,,,,,,,,,,,,,,,,,,,,,,,,,,,,,,,,,1123.0571798002347,None,,,,,,,,,,,,,,,,,,,,,,,,,,,,,,,,,,,,,,,,,,,,,,,,,,,,,,,,,garden,94,15,aloud,old,red,1120.2807860998437,None,y,1120.2807860998437,None,"['y', 'return']","[2.0144715001806617, 2.7342619001865387]",1120.2807860998437,None,,,37YA,001,2023_Apr_12_1525,ExactRep-v3-final,2021.2.3,59.94093415845065,
,,,,,,,,,,,,15,0,15,0,,,,,,,,,,,,,,,,,,,,,,,,,,,,,,,,,,,,,,,,,,,,,,,,,1125.542879300192,None,,,,,,,,,,,,,,,,,,,,,,,,,,,,,,,,,,,,,,,,,,,,,,,,,,,,,,,,,skin,103,16,aloud,old,red,1123.5721153998747,None,y,1123.5721153998747,None,"['y', 'return']","[1.3069455996155739, 1.9389549996703863]",1123.5721153998747,None,,,37YA,001,2023_Apr_12_1525,ExactRep-v3-final,2021.2.3,59.94093415845065,
,,,,,,,,,,,,16,0,16,0,,,,,,,,,,,,,,,,,,,,,,,,,,,,,,,,,,,,,,,,,,,,,,,,,1128.662790399976,None,,,,,,,,,,,,,,,,,,,,,,,,,,,,,,,,,,,,,,,,,,,,,,,,,,,,,,,,,theory,23,17,sing,old,white,1126.0512591004372,None,y,1126.0512591004372,None,"['y', 'return']","[1.9960118997842073, 2.571827999316156]",1126.0512591004372,None,,,37YA,001,2023_Apr_12_1525,ExactRep-v3-final,2021.2.3,59.94093415845065,
,,,,,,,,,,,,17,0,17,0,,,,,,,,,,,,,,,,,,,,,,,,,,,,,,,,,,,,,,,,,,,,,,,,,1131.3987127998844,None,,,,,,,,,,,,,,,,,,,,,,,,,,,,,,,,,,,,,,,,,,,,,,,,,,,,,,,,,owner,13,18,sing,old,white,1129.174905700609,None,y,1129.174905700609,None,"['y', 'return']","[1.608121800236404, 2.17608440015465]",1129.174905700609,None,,,37YA,001,2023_Apr_12_1525,ExactRep-v3-final,2021.2.3,59.94093415845065,
,,,,,,,,,,,,18,0,18,0,,,,,,,,,,,,,,,,,,,,,,,,,,,,,,,,,,,,,,,,,,,,,,,,,1135.8699205005541,None,,,,,,,,,,,,,,,,,,,,,,,,,,,,,,,,,,,,,,,,,,,,,,,,,,,,,,,,,person,138,19,silent,new,blue,1131.9093425003812,None,n,1131.9093425003812,None,"['n', 'return']","[3.345971000380814, 3.9217753997072577]",1131.9093425003812,None,,,37YA,001,2023_Apr_12_1525,ExactRep-v3-final,2021.2.3,59.94093415845065,
,,,,,,,,,,,,19,0,19,0,,,,,,,,,,,,,,,,,,,,,,,,,,,,,,,,,,,,,,,,,,,,,,,,,1138.8247087998316,None,,,,,,,,,,,,,,,,,,,,,,,,,,,,,,,,,,,,,,,,,,,,,,,,,,,,,,,,,sky,239,20,sing,new,white,1136.3798601003364,None,n,1136.3798601003364,None,"['n', 'return']","[1.8674838999286294, 2.3951305001974106]",1136.3798601003364,None,,,37YA,001,2023_Apr_12_1525,ExactRep-v3-final,2021.2.3,59.94093415845065,
,,,,,,,,,,,,20,0,20,0,,,,,,,,,,,,,,,,,,,,,,,,,,,,,,,,,,,,,,,,,,,,,,,,,1141.6424537999555,None,,,,,,,,,,,,,,,,,,,,,,,,,,,,,,,,,,,,,,,,,,,,,,,,,,,,,,,,,cabin,90,21,aloud,old,red,1139.349487000145,None,y,1139.349487000145,None,"['y', 'return']","[1.6895610000938177, 2.2576673002913594]",1139.349487000145,None,,,37YA,001,2023_Apr_12_1525,ExactRep-v3-final,2021.2.3,59.94093415845065,
,,,,,,,,,,,,21,0,21,0,,,,,,,,,,,,,,,,,,,,,,,,,,,,,,,,,,,,,,,,,,,,,,,,,1146.1468355003744,None,,,,,,,,,,,,,,,,,,,,,,,,,,,,,,,,,,,,,,,,,,,,,,,,,,,,,,,,,lord,150,22,silent,new,blue,1142.152932900004,None,n,1142.152932900004,None,"['n', 'return']","[3.3980094995349646, 3.950152199715376]",1142.152932900004,None,,,37YA,001,2023_Apr_12_1525,ExactRep-v3-final,2021.2.3,59.94093415845065,
,,,,,,,,,,,,22,0,22,0,,,,,,,,,,,,,,,,,,,,,,,,,,,,,,,,,,,,,,,,,,,,,,,,,1148.6993861999363,None,,,,,,,,,,,,,,,,,,,,,,,,,,,,,,,,,,,,,,,,,,,,,,,,,,,,,,,,,seat,114,23,aloud,old,red,1146.6568335006014,None,y,1146.6568335006014,None,"['y', 'return']","[1.4382120994850993, 2.0062215998768806]",1146.6568335006014,None,,,37YA,001,2023_Apr_12_1525,ExactRep-v3-final,2021.2.3,59.94093415845065,
,,,,,,,,,,,,23,0,23,0,,,,,,,,,,,,,,,,,,,,,,,,,,,,,,,,,,,,,,,,,,,,,,,,,1151.5188279002905,None,,,,,,,,,,,,,,,,,,,,,,,,,,,,,,,,,,,,,,,,,,,,,,,,,,,,,,,,,boy,151,24,silent,new,blue,1149.2080409005284,None,n,1149.2080409005284,None,"['n', 'return']","[1.7350128004327416, 2.2630781000480056]",1149.2080409005284,None,,,37YA,001,2023_Apr_12_1525,ExactRep-v3-final,2021.2.3,59.94093415845065,
,,,,,,,,,,,,24,0,24,0,,,,,,,,,,,,,,,,,,,,,,,,,,,,,,,,,,,,,,,,,,,,,,,,,1154.6553009999916,None,,,,,,,,,,,,,,,,,,,,,,,,,,,,,,,,,,,,,,,,,,,,,,,,,,,,,,,,,river,31,25,sing,old,white,1152.0359514001757,None,y,1152.0359514001757,None,"['y', 'return']","[1.955133399926126, 2.5791739001870155]",1152.0359514001757,None,,,37YA,001,2023_Apr_12_1525,ExactRep-v3-final,2021.2.3,59.94093415845065,
,,,,,,,,,,,,25,0,25,0,,,,,,,,,,,,,,,,,,,,,,,,,,,,,,,,,,,,,,,,,,,,,,,,,1157.9920695004985,None,,,,,,,,,,,,,,,,,,,,,,,,,,,,,,,,,,,,,,,,,,,,,,,,,,,,,,,,,soul,51,26,silent,old,blue,1155.165647700429,None,y,1155.165647700429,None,"['y', 'return']","[2.241427899338305, 2.7933984994888306]",1155.165647700429,None,,,37YA,001,2023_Apr_12_1525,ExactRep-v3-final,2021.2.3,59.94093415845065,
,,,,,,,,,,,,26,0,26,0,,,,,,,,,,,,,,,,,,,,,,,,,,,,,,,,,,,,,,,,,,,,,,,,,1162.0128270005807,None,,,,,,,,,,,,,,,,,,,,,,,,,,,,,,,,,,,,,,,,,,,,,,,,,,,,,,,,,breast,224,27,aloud,new,red,1158.5019800001755,None,n,1158.5019800001755,None,"['n', 'return']","[2.9451919002458453, 3.4652326004579663]",1158.5019800001755,None,,,37YA,001,2023_Apr_12_1525,ExactRep-v3-final,2021.2.3,59.94093415845065,
,,,,,,,,,,,,27,0,27,0,,,,,,,,,,,,,,,,,,,,,,,,,,,,,,,,,,,,,,,,,,,,,,,,,1164.8488225005567,None,,,,,,,,,,,,,,,,,,,,,,,,,,,,,,,,,,,,,,,,,,,,,,,,,,,,,,,,,cotton,55,28,silent,old,blue,1162.5224460000172,None,y,1162.5224460000172,None,"['y', 'return']","[1.748543200083077, 2.292647799476981]",1162.5224460000172,None,,,37YA,001,2023_Apr_12_1525,ExactRep-v3-final,2021.2.3,59.94093415845065,
,,,,,,,,,,,,28,0,28,0,,,,,,,,,,,,,,,,,,,,,,,,,,,,,,,,,,,,,,,,,,,,,,,,,1174.158170800656,None,,,,,,,,,,,,,,,,,,,,,,,,,,,,,,,,,,,,,,,,,,,,,,,,,,,,,,,,,time,30,29,sing,old,white,1165.3574826000258,None,n,1165.3574826000258,None,"['n', 'return']","[7.985566599294543, 8.761651399545372]",1165.3574826000258,None,,,37YA,001,2023_Apr_12_1525,ExactRep-v3-final,2021.2.3,59.94093415845065,
,,,,,,,,,,,,29,0,29,0,,,,,,,,,,,,,,,,,,,,,,,,,,,,,,,,,,,,,,,,,,,,,,,,,1181.2986922003329,None,,,,,,,,,,,,,,,,,,,,,,,,,,,,,,,,,,,,,,,,,,,,,,,,,,,,,,,,,victory,135,30,silent,new,blue,1174.6674628006294,None,y,1174.6674628006294,None,"['n', 'backspace', 'y', 'return']","[3.467739600688219, 5.203703900799155, 6.067690800875425, 6.587618200108409]",1174.6674628006294,None,,,37YA,001,2023_Apr_12_1525,ExactRep-v3-final,2021.2.3,59.94093415845065,
,,,,,,,,,,,,30,0,30,0,,,,,,,,,,,,,,,,,,,,,,,,,,,,,,,,,,,,,,,,,,,,,,,,,1183.7511104000732,None,,,,,,,,,,,,,,,,,,,,,,,,,,,,,,,,,,,,,,,,,,,,,,,,,,,,,,,,,history,145,31,silent,new,blue,1181.8132854001597,None,y,1181.8132854001597,None,"['y', 'return']","[1.3300668001174927, 1.8898876002058387]",1181.8132854001597,None,,,37YA,001,2023_Apr_12_1525,ExactRep-v3-final,2021.2.3,59.94093415845065,
,,,,,,,,,,,,31,0,31,0,,,,,,,,,,,,,,,,,,,,,,,,,,,,,,,,,,,,,,,,,,,,,,,,,1186.470485799946,None,,,,,,,,,,,,,,,,,,,,,,,,,,,,,,,,,,,,,,,,,,,,,,,,,,,,,,,,,green,73,32,silent,old,blue,1184.253859899938,None,y,1184.253859899938,None,"['y', 'return']","[1.673352599143982, 2.169260699301958]",1184.253859899938,None,,,37YA,001,2023_Apr_12_1525,ExactRep-v3-final,2021.2.3,59.94093415845065,
,,,,,,,,,,,,32,0,32,0,,,,,,,,,,,,,,,,,,,,,,,,,,,,,,,,,,,,,,,,,,,,,,,,,1189.4568073004484,None,,,,,,,,,,,,,,,,,,,,,,,,,,,,,,,,,,,,,,,,,,,,,,,,,,,,,,,,,science,125,33,silent,new,blue,1186.9833189006895,None,n,1186.9833189006895,None,"['n', 'return']","[1.9040659004822373, 2.4398096008226275]",1186.9833189006895,None,,,37YA,001,2023_Apr_12_1525,ExactRep-v3-final,2021.2.3,59.94093415845065,
,,,,,,,,,,,,33,0,33,0,,,,,,,,,,,,,,,,,,,,,,,,,,,,,,,,,,,,,,,,,,,,,,,,,1192.7102594999596,None,,,,,,,,,,,,,,,,,,,,,,,,,,,,,,,,,,,,,,,,,,,,,,,,,,,,,,,,,steam,35,34,sing,old,white,1189.961040300317,None,n,1189.961040300317,None,"['n', 'return']","[2.254107699729502, 2.7101351004093885]",1189.961040300317,None,,,37YA,001,2023_Apr_12_1525,ExactRep-v3-final,2021.2.3,59.94093415845065,
,,,,,,,,,,,,34,0,34,0,,,,,,,,,,,,,,,,,,,,,,,,,,,,,,,,,,,,,,,,,,,,,,,,,1196.1468238998204,None,,,,,,,,,,,,,,,,,,,,,,,,,,,,,,,,,,,,,,,,,,,,,,,,,,,,,,,,,vision,232,35,aloud,new,red,1193.2223537005484,None,n,1193.2223537005484,None,"['n', 'return']","[2.040645499713719, 2.880678099580109]",1193.2223537005484,None,,,37YA,001,2023_Apr_12_1525,ExactRep-v3-final,2021.2.3,59.94093415845065,
,,,,,,,,,,,,35,0,35,0,,,,,,,,,,,,,,,,,,,,,,,,,,,,,,,,,,,,,,,,,,,,,,,,,1198.6328287003562,None,,,,,,,,,,,,,,,,,,,,,,,,,,,,,,,,,,,,,,,,,,,,,,,,,,,,,,,,,duty,107,36,aloud,old,red,1196.6549283005297,None,y,1196.6549283005297,None,"['y', 'return']","[1.440450900234282, 1.9362144004553556]",1196.6549283005297,None,,,37YA,001,2023_Apr_12_1525,ExactRep-v3-final,2021.2.3,59.94093415845065,
,,,,,,,,,,,,36,0,36,0,,,,,,,,,,,,,,,,,,,,,,,,,,,,,,,,,,,,,,,,,,,,,,,,,1201.9692732002586,None,,,,,,,,,,,,,,,,,,,,,,,,,,,,,,,,,,,,,,,,,,,,,,,,,,,,,,,,,bar,154,37,silent,new,blue,1199.1368816997856,None,n,1199.1368816997856,None,"['n', 'return']","[2.294307899661362, 2.790225399658084]",1199.1368816997856,None,,,37YA,001,2023_Apr_12_1525,ExactRep-v3-final,2021.2.3,59.94093415845065,
,,,,,,,,,,,,37,0,37,0,,,,,,,,,,,,,,,,,,,,,,,,,,,,,,,,,,,,,,,,,,,,,,,,,1204.4885764000937,None,,,,,,,,,,,,,,,,,,,,,,,,,,,,,,,,,,,,,,,,,,,,,,,,,,,,,,,,,slave,91,38,aloud,old,red,1202.4801943004131,None,y,1202.4801943004131,None,"['y', 'return']","[1.414894700050354, 1.966948600485921]",1202.4801943004131,None,,,37YA,001,2023_Apr_12_1525,ExactRep-v3-final,2021.2.3,59.94093415845065,
,,,,,,,,,,,,38,0,38,0,,,,,,,,,,,,,,,,,,,,,,,,,,,,,,,,,,,,,,,,,,,,,,,,,1206.8574085002765,None,,,,,,,,,,,,,,,,,,,,,,,,,,,,,,,,,,,,,,,,,,,,,,,,,,,,,,,,,hope,215,39,sing,new,white,1204.9955873005092,None,n,1204.9955873005092,None,"['n', 'return']","[1.3395197996869683, 1.819578000344336]",1204.9955873005092,None,,,37YA,001,2023_Apr_12_1525,ExactRep-v3-final,2021.2.3,59.94093415845065,
,,,,,,,,,,,,39,0,39,0,,,,,,,,,,,,,,,,,,,,,,,,,,,,,,,,,,,,,,,,,,,,,,,,,1209.159807600081,None,,,,,,,,,,,,,,,,,,,,,,,,,,,,,,,,,,,,,,,,,,,,,,,,,,,,,,,,,avenue,236,40,aloud,new,red,1207.3684777999297,None,n,1207.3684777999297,None,"['n', 'return']","[1.2787324003875256, 1.7585936998948455]",1207.3684777999297,None,,,37YA,001,2023_Apr_12_1525,ExactRep-v3-final,2021.2.3,59.94093415845065,
,,,,,,,,,,,,40,0,40,0,,,,,,,,,,,,,,,,,,,,,,,,,,,,,,,,,,,,,,,,,,,,,,,,,1213.4474308006465,None,,,,,,,,,,,,,,,,,,,,,,,,,,,,,,,,,,,,,,,,,,,,,,,,,,,,,,,,,rod,71,41,silent,old,blue,1209.6687499005347,None,y,1209.6687499005347,None,"['y', 'return']","[3.242367699742317, 3.738415500149131]",1209.6687499005347,None,,,37YA,001,2023_Apr_12_1525,ExactRep-v3-final,2021.2.3,59.94093415845065,
,,,,,,,,,,,,41,0,41,0,,,,,,,,,,,,,,,,,,,,,,,,,,,,,,,,,,,,,,,,,,,,,,,,,1215.8164470000193,None,,,,,,,,,,,,,,,,,,,,,,,,,,,,,,,,,,,,,,,,,,,,,,,,,,,,,,,,,anger,160,42,aloud,new,red,1213.9572114003822,None,n,1213.9572114003822,None,"['n', 'return']","[1.3460539001971483, 1.8259255001321435]",1213.9572114003822,None,,,37YA,001,2023_Apr_12_1525,ExactRep-v3-final,2021.2.3,59.94093415845065,
,,,,,,,,,,,,42,0,42,0,,,,,,,,,,,,,,,,,,,,,,,,,,,,,,,,,,,,,,,,,,,,,,,,,1218.118776500225,None,,,,,,,,,,,,,,,,,,,,,,,,,,,,,,,,,,,,,,,,,,,,,,,,,,,,,,,,,soil,110,43,aloud,old,red,1216.3264554003254,None,n,1216.3264554003254,None,"['n', 'return']","[1.2328272005543113, 1.744658900424838]",1216.3264554003254,None,,,37YA,001,2023_Apr_12_1525,ExactRep-v3-final,2021.2.3,59.94093415845065,
,,,,,,,,,,,,43,0,43,0,,,,,,,,,,,,,,,,,,,,,,,,,,,,,,,,,,,,,,,,,,,,,,,,,1220.9217210998759,None,,,,,,,,,,,,,,,,,,,,,,,,,,,,,,,,,,,,,,,,,,,,,,,,,,,,,,,,,fault,235,44,sing,new,white,1218.6327991001308,None,n,1218.6327991001308,None,"['n', 'return']","[1.7583415005356073, 2.254289699718356]",1218.6327991001308,None,,,37YA,001,2023_Apr_12_1525,ExactRep-v3-final,2021.2.3,59.94093415845065,
,,,,,,,,,,,,44,0,44,0,,,,,,,,,,,,,,,,,,,,,,,,,,,,,,,,,,,,,,,,,,,,,,,,,1225.5429210998118,None,,,,,,,,,,,,,,,,,,,,,,,,,,,,,,,,,,,,,,,,,,,,,,,,,,,,,,,,,present,49,45,silent,old,blue,1221.430457700044,None,y,1221.430457700044,None,"['y', 'return']","[3.5127415992319584, 4.064936299808323]",1221.430457700044,None,,,37YA,001,2023_Apr_12_1525,ExactRep-v3-final,2021.2.3,59.94093415845065,
,,,,,,,,,,,,45,0,45,0,,,,,,,,,,,,,,,,,,,,,,,,,,,,,,,,,,,,,,,,,,,,,,,,,1228.09540989995,None,,,,,,,,,,,,,,,,,,,,,,,,,,,,,,,,,,,,,,,,,,,,,,,,,,,,,,,,,kiss,67,46,silent,old,blue,1226.0624176999554,None,n,1226.0624176999554,None,"['n', 'return']","[1.4886296996846795, 1.9848343003541231]",1226.0624176999554,None,,,37YA,001,2023_Apr_12_1525,ExactRep-v3-final,2021.2.3,59.94093415845065,
,,,,,,,,,,,,46,0,46,0,,,,,,,,,,,,,,,,,,,,,,,,,,,,,,,,,,,,,,,,,,,,,,,,,1232.2497642003,None,,,,,,,,,,,,,,,,,,,,,,,,,,,,,,,,,,,,,,,,,,,,,,,,,,,,,,,,,paper,195,47,sing,new,white,1228.599495000206,None,y,1228.599495000206,None,"['y', 'return']","[3.1116612004116178, 3.615717399865389]",1228.599495000206,None,,,37YA,001,2023_Apr_12_1525,ExactRep-v3-final,2021.2.3,59.94093415845065,
,,,,,,,,,,,,47,0,47,0,,,,,,,,,,,,,,,,,,,,,,,,,,,,,,,,,,,,,,,,,,,,,,,,,1238.5225642006844,None,,,,,,,,,,,,,,,,,,,,,,,,,,,,,,,,,,,,,,,,,,,,,,,,,,,,,,,,,flower,53,48,silent,old,blue,1232.7663601003587,None,n,1232.7663601003587,None,"['n', 'return']","[5.272952999919653, 5.720967800356448]",1232.7663601003587,None,,,37YA,001,2023_Apr_12_1525,ExactRep-v3-final,2021.2.3,59.94093415845065,
,,,,,,,,,,,,48,0,48,0,,,,,,,,,,,,,,,,,,,,,,,,,,,,,,,,,,,,,,,,,,,,,,,,,1241.058600800112,None,,,,,,,,,,,,,,,,,,,,,,,,,,,,,,,,,,,,,,,,,,,,,,,,,,,,,,,,,law,21,49,sing,old,white,1239.0356311006472,None,n,1239.0356311006472,None,"['n', 'return']","[1.4675227999687195, 1.9794944003224373]",1239.0356311006472,None,,,37YA,001,2023_Apr_12_1525,ExactRep-v3-final,2021.2.3,59.94093415845065,
,,,,,,,,,,,,49,0,49,0,,,,,,,,,,,,,,,,,,,,,,,,,,,,,,,,,,,,,,,,,,,,,,,,,1243.4943693000823,None,,,,,,,,,,,,,,,,,,,,,,,,,,,,,,,,,,,,,,,,,,,,,,,,,,,,,,,,,beast,229,50,sing,new,white,1241.5667106006294,None,n,1241.5667106006294,None,"['n', 'return']","[1.3286575004458427, 1.8805185006931424]",1241.5667106006294,None,,,37YA,001,2023_Apr_12_1525,ExactRep-v3-final,2021.2.3,59.94093415845065,
,,,,,,,,,,,,50,0,50,0,,,,,,,,,,,,,,,,,,,,,,,,,,,,,,,,,,,,,,,,,,,,,,,,,1247.4647765997797,None,,,,,,,,,,,,,,,,,,,,,,,,,,,,,,,,,,,,,,,,,,,,,,,,,,,,,,,,,home,210,51,aloud,new,red,1244.003254700452,None,n,1244.003254700452,None,"['n', 'return']","[2.84390680026263, 3.4279273003339767]",1244.003254700452,None,,,37YA,001,2023_Apr_12_1525,ExactRep-v3-final,2021.2.3,59.94093415845065,
,,,,,,,,,,,,51,0,51,0,,,,,,,,,,,,,,,,,,,,,,,,,,,,,,,,,,,,,,,,,,,,,,,,,1254.8556452998891,None,,,,,,,,,,,,,,,,,,,,,,,,,,,,,,,,,,,,,,,,,,,,,,,,,,,,,,,,,lake,122,52,silent,new,blue,1247.9674984999,None,y,1247.9674984999,None,"['y', 'return']","[6.231788099743426, 6.855727499350905]",1247.9674984999,None,,,37YA,001,2023_Apr_12_1525,ExactRep-v3-final,2021.2.3,59.94093415845065,
,,,,,,,,,,,,52,0,52,0,,,,,,,,,,,,,,,,,,,,,,,,,,,,,,,,,,,,,,,,,,,,,,,,,1257.0410846006125,None,,,,,,,,,,,,,,,,,,,,,,,,,,,,,,,,,,,,,,,,,,,,,,,,,,,,,,,,,maiden,234,53,aloud,new,red,1255.3633882002905,None,n,1255.3633882002905,None,"['n', 'return']","[1.1718112993985415, 1.6437685992568731]",1255.3633882002905,None,,,37YA,001,2023_Apr_12_1525,ExactRep-v3-final,2021.2.3,59.94093415845065,
,,,,,,,,,,,,53,0,53,0,,,,,,,,,,,,,,,,,,,,,,,,,,,,,,,,,,,,,,,,,,,,,,,,,1259.4768826002255,None,,,,,,,,,,,,,,,,,,,,,,,,,,,,,,,,,,,,,,,,,,,,,,,,,,,,,,,,,forest,4,54,sing,old,white,1257.548628100194,None,y,1257.548628100194,None,"['y', 'return']","[1.3065323997288942, 1.8826228994876146]",1257.548628100194,None,,,37YA,001,2023_Apr_12_1525,ExactRep-v3-final,2021.2.3,59.94093415845065,
,,,,,,,,,,,,54,0,54,0,,,,,,,,,,,,,,,,,,,,,,,,,,,,,,,,,,,,,,,,,,,,,,,,,1262.4132829001173,None,,,,,,,,,,,,,,,,,,,,,,,,,,,,,,,,,,,,,,,,,,,,,,,,,,,,,,,,,blossom,202,55,aloud,new,red,1259.9805773003027,None,n,1259.9805773003027,None,"['n', 'return']","[1.8986861994490027, 2.386701699346304]",1259.9805773003027,None,,,37YA,001,2023_Apr_12_1525,ExactRep-v3-final,2021.2.3,59.94093415845065,
,,,,,,,,,,,,55,0,55,0,,,,,,,,,,,,,,,,,,,,,,,,,,,,,,,,,,,,,,,,,,,,,,,,,1267.7852528998628,None,,,,,,,,,,,,,,,,,,,,,,,,,,,,,,,,,,,,,,,,,,,,,,,,,,,,,,,,,speech,65,56,silent,old,blue,1262.917495300062,None,y,1262.917495300062,None,"['y', 'return']","[4.345723699778318, 4.825782499276102]",1262.917495300062,None,,,37YA,001,2023_Apr_12_1525,ExactRep-v3-final,2021.2.3,59.94093415845065,
,,,,,,,,,,,,56,0,56,0,,,,,,,,,,,,,,,,,,,,,,,,,,,,,,,,,,,,,,,,,,,,,,,,,1270.9716209005564,None,,,,,,,,,,,,,,,,,,,,,,,,,,,,,,,,,,,,,,,,,,,,,,,,,,,,,,,,,street,173,57,sing,new,white,1268.2930805999786,None,y,1268.2930805999786,None,"['y', 'return']","[2.130218700505793, 2.6421412006020546]",1268.2930805999786,None,,,37YA,001,2023_Apr_12_1525,ExactRep-v3-final,2021.2.3,59.94093415845065,
,,,,,,,,,,,,57,0,57,0,,,,,,,,,,,,,,,,,,,,,,,,,,,,,,,,,,,,,,,,,,,,,,,,,1273.707725500688,None,,,,,,,,,,,,,,,,,,,,,,,,,,,,,,,,,,,,,,,,,,,,,,,,,,,,,,,,,gold,63,58,silent,old,blue,1271.481887199916,None,n,1271.481887199916,None,"['n', 'return']","[1.6854358995333314, 2.1893609995022416]",1271.481887199916,None,,,37YA,001,2023_Apr_12_1525,ExactRep-v3-final,2021.2.3,59.94093415845065,
,,,,,,,,,,,,58,0,58,0,,,,,,,,,,,,,,,,,,,,,,,,,,,,,,,,,,,,,,,,,,,,,,,,,1277.5119463000447,None,,,,,,,,,,,,,,,,,,,,,,,,,,,,,,,,,,,,,,,,,,,,,,,,,,,,,,,,,chief,109,59,aloud,old,red,1274.2203307999298,None,y,1274.2203307999298,None,"['y', 'return']","[2.7467376003041863, 3.259138999506831]",1274.2203307999298,None,,,37YA,001,2023_Apr_12_1525,ExactRep-v3-final,2021.2.3,59.94093415845065,
,,,,,,,,,,,,59,0,59,0,,,,,,,,,,,,,,,,,,,,,,,,,,,,,,,,,,,,,,,,,,,,,,,,,1281.051470800303,None,,,,,,,,,,,,,,,,,,,,,,,,,,,,,,,,,,,,,,,,,,,,,,,,,,,,,,,,,health,10,60,sing,old,white,1278.012087999843,None,y,1278.012087999843,None,"['y', 'return']","[2.442965899594128, 3.003111199475825]",1278.012087999843,None,,,37YA,001,2023_Apr_12_1525,ExactRep-v3-final,2021.2.3,59.94093415845065,
,,,,,,,,,,,,60,0,60,0,,,,,,,,,,,,,,,,,,,,,,,,,,,,,,,,,,,,,,,,,,,,,,,,,1283.4173587998375,None,,,,,,,,,,,,,,,,,,,,,,,,,,,,,,,,,,,,,,,,,,,,,,,,,,,,,,,,,earth,161,61,sing,new,white,1281.5663839997724,None,n,1281.5663839997724,None,"['n', 'return']","[1.2809346001595259, 1.8087878003716469]",1281.5663839997724,None,,,37YA,001,2023_Apr_12_1525,ExactRep-v3-final,2021.2.3,59.94093415845065,
,,,,,,,,,,,,61,0,61,0,,,,,,,,,,,,,,,,,,,,,,,,,,,,,,,,,,,,,,,,,,,,,,,,,1286.0033474005759,None,,,,,,,,,,,,,,,,,,,,,,,,,,,,,,,,,,,,,,,,,,,,,,,,,,,,,,,,,fate,143,62,silent,new,blue,1283.91815030016,None,n,1283.91815030016,None,"['n', 'return']","[1.4729763995856047, 2.0410310002043843]",1283.91815030016,None,,,37YA,001,2023_Apr_12_1525,ExactRep-v3-final,2021.2.3,59.94093415845065,
,,,,,,,,,,,,62,0,62,0,,,,,,,,,,,,,,,,,,,,,,,,,,,,,,,,,,,,,,,,,,,,,,,,,1292.8768607005477,None,,,,,,,,,,,,,,,,,,,,,,,,,,,,,,,,,,,,,,,,,,,,,,,,,,,,,,,,,plant,218,63,aloud,new,red,1286.5142929004505,None,n,1286.5142929004505,None,"['n', 'return']","[5.781029099598527, 6.317065199837089]",1286.5142929004505,None,,,37YA,001,2023_Apr_12_1525,ExactRep-v3-final,2021.2.3,59.94093415845065,
,,,,,,,,,,,,63,0,63,0,,,,,,,,,,,,,,,,,,,,,,,,,,,,,,,,,,,,,,,,,,,,,,,,,1296.7307895002887,None,,,,,,,,,,,,,,,,,,,,,,,,,,,,,,,,,,,,,,,,,,,,,,,,,,,,,,,,,cottage,187,64,sing,new,white,1293.385156900622,None,n,1293.385156900622,None,"['n', 'return']","[2.8540570996701717, 3.3099648002535105]",1293.385156900622,None,,,37YA,001,2023_Apr_12_1525,ExactRep-v3-final,2021.2.3,59.94093415845065,
,,,,,,,,,,,,64,0,64,0,,,,,,,,,,,,,,,,,,,,,,,,,,,,,,,,,,,,,,,,,,,,,,,,,1299.717056600377,None,,,,,,,,,,,,,,,,,,,,,,,,,,,,,,,,,,,,,,,,,,,,,,,,,,,,,,,,,advice,70,65,silent,old,blue,1297.2416508002207,None,y,1297.2416508002207,None,"['y', 'return']","[1.8215302005410194, 2.429695900529623]",1297.2416508002207,None,,,37YA,001,2023_Apr_12_1525,ExactRep-v3-final,2021.2.3,59.94093415845065,
,,,,,,,,,,,,65,0,65,0,,,,,,,,,,,,,,,,,,,,,,,,,,,,,,,,,,,,,,,,,,,,,,,,,1302.7200974998996,None,,,,,,,,,,,,,,,,,,,,,,,,,,,,,,,,,,,,,,,,,,,,,,,,,,,,,,,,,window,159,66,silent,new,blue,1300.2186286998913,None,y,1300.2186286998913,None,"['y', 'return']","[1.8847919004037976, 2.460661300458014]",1300.2186286998913,None,,,37YA,001,2023_Apr_12_1525,ExactRep-v3-final,2021.2.3,59.94093415845065,
,,,,,,,,,,,,66,0,66,0,,,,,,,,,,,,,,,,,,,,,,,,,,,,,,,,,,,,,,,,,,,,,,,,,1306.3239131001756,None,,,,,,,,,,,,,,,,,,,,,,,,,,,,,,,,,,,,,,,,,,,,,,,,,,,,,,,,,board,176,67,aloud,new,red,1303.2311692005023,None,y,1303.2311692005023,None,"['y', 'return']","[2.528023900464177, 3.0480677001178265]",1303.2311692005023,None,,,37YA,001,2023_Apr_12_1525,ExactRep-v3-final,2021.2.3,59.94093415845065,
,,,,,,,,,,,,67,0,67,0,,,,,,,,,,,,,,,,,,,,,,,,,,,,,,,,,,,,,,,,,,,,,,,,,1310.2442239997908,None,,,,,,,,,,,,,,,,,,,,,,,,,,,,,,,,,,,,,,,,,,,,,,,,,,,,,,,,,market,167,68,sing,new,white,1306.8407053006813,None,y,1306.8407053006813,None,"['y', 'return']","[1.9264821000397205, 3.3666628003120422]",1306.8407053006813,None,,,37YA,001,2023_Apr_12_1525,ExactRep-v3-final,2021.2.3,59.94093415845065,
,,,,,,,,,,,,68,0,68,0,,,,,,,,,,,,,,,,,,,,,,,,,,,,,,,,,,,,,,,,,,,,,,,,,1313.59760500025,None,,,,,,,,,,,,,,,,,,,,,,,,,,,,,,,,,,,,,,,,,,,,,,,,,,,,,,,,,deed,200,69,aloud,new,red,1310.7571855997667,None,n,1310.7571855997667,None,"['n', 'return']","[2.290183199569583, 2.7940258998423815]",1310.7571855997667,None,,,37YA,001,2023_Apr_12_1525,ExactRep-v3-final,2021.2.3,59.94093415845065,
,,,,,,,,,,,,69,0,69,0,,,,,,,,,,,,,,,,,,,,,,,,,,,,,,,,,,,,,,,,,,,,,,,,,1318.4357970999554,None,,,,,,,,,,,,,,,,,,,,,,,,,,,,,,,,,,,,,,,,,,,,,,,,,,,,,,,,,engine,131,70,silent,new,blue,1314.1080872006714,None,n,1314.1080872006714,None,"['n', 'return']","[3.795378800481558, 4.283165500499308]",1314.1080872006714,None,,,37YA,001,2023_Apr_12_1525,ExactRep-v3-final,2021.2.3,59.94093415845065,
,,,,,,,,,,,,70,0,70,0,,,,,,,,,,,,,,,,,,,,,,,,,,,,,,,,,,,,,,,,,,,,,,,,,1322.5399337001145,None,,,,,,,,,,,,,,,,,,,,,,,,,,,,,,,,,,,,,,,,,,,,,,,,,,,,,,,,,temple,102,71,aloud,old,red,1318.945621800609,None,n,1318.945621800609,None,"['n', 'return']","[3.0296761002391577, 3.5577639006078243]",1318.945621800609,None,,,37YA,001,2023_Apr_12_1525,ExactRep-v3-final,2021.2.3,59.94093415845065,
,,,,,,,,,,,,71,0,71,0,,,,,,,,,,,,,,,,,,,,,,,,,,,,,,,,,,,,,,,,,,,,,,,,,1327.1779187005013,None,,,,,,,,,,,,,,,,,,,,,,,,,,,,,,,,,,,,,,,,,,,,,,,,,,,,,,,,,officer,201,72,sing,new,white,1323.0496522998437,None,n,1323.0496522998437,None,"['n', 'return']","[3.549732499755919, 4.093567700125277]",1323.0496522998437,None,,,37YA,001,2023_Apr_12_1525,ExactRep-v3-final,2021.2.3,59.94093415845065,
,,,,,,,,,,,,72,0,72,0,,,,,,,,,,,,,,,,,,,,,,,,,,,,,,,,,,,,,,,,,,,,,,,,,1330.7313855001703,None,,,,,,,,,,,,,,,,,,,,,,,,,,,,,,,,,,,,,,,,,,,,,,,,,,,,,,,,,wife,204,73,aloud,new,red,1327.691167300567,None,n,1327.691167300567,None,"['n', 'return']","[2.5320696998387575, 3.0041511999443173]",1327.691167300567,None,,,37YA,001,2023_Apr_12_1525,ExactRep-v3-final,2021.2.3,59.94093415845065,
,,,,,,,,,,,,73,0,73,0,,,,,,,,,,,,,,,,,,,,,,,,,,,,,,,,,,,,,,,,,,,,,,,,,1335.0191127005965,None,,,,,,,,,,,,,,,,,,,,,,,,,,,,,,,,,,,,,,,,,,,,,,,,,,,,,,,,,college,127,74,silent,new,blue,1331.2425482003018,None,n,1331.2425482003018,None,"['n', 'return']","[2.75689799990505, 3.7407138999551535]",1331.2425482003018,None,,,37YA,001,2023_Apr_12_1525,ExactRep-v3-final,2021.2.3,59.94093415845065,
,,,,,,,,,,,,74,0,74,0,,,,,,,,,,,,,,,,,,,,,,,,,,,,,,,,,,,,,,,,,,,,,,,,,1338.6894196998328,None,,,,,,,,,,,,,,,,,,,,,,,,,,,,,,,,,,,,,,,,,,,,,,,,,,,,,,,,,hall,179,75,sing,new,white,1335.5195631003007,None,y,1335.5195631003007,None,"['y', 'return']","[2.5037208003923297, 3.127739700488746]",1335.5195631003007,None,,,37YA,001,2023_Apr_12_1525,ExactRep-v3-final,2021.2.3,59.94093415845065,
,,,,,,,,,,,,75,0,75,0,,,,,,,,,,,,,,,,,,,,,,,,,,,,,,,,,,,,,,,,,,,,,,,,,1341.9926516003907,None,,,,,,,,,,,,,,,,,,,,,,,,,,,,,,,,,,,,,,,,,,,,,,,,,,,,,,,,,apple,101,76,aloud,old,red,1339.202529400587,None,n,1339.202529400587,None,"['n', 'return']","[2.18863040022552, 2.7487778002396226]",1339.202529400587,None,,,37YA,001,2023_Apr_12_1525,ExactRep-v3-final,2021.2.3,59.94093415845065,
,,,,,,,,,,,,76,0,76,0,,,,,,,,,,,,,,,,,,,,,,,,,,,,,,,,,,,,,,,,,,,,,,,,,1346.447126899846,None,,,,,,,,,,,,,,,,,,,,,,,,,,,,,,,,,,,,,,,,,,,,,,,,,,,,,,,,,animal,72,77,silent,old,blue,1342.5111074000597,None,y,1342.5111074000597,None,"['y', 'return']","[2.6482025999575853, 3.8881284007802606]",1342.5111074000597,None,,,37YA,001,2023_Apr_12_1525,ExactRep-v3-final,2021.2.3,59.94093415845065,
,,,,,,,,,,,,77,0,77,0,,,,,,,,,,,,,,,,,,,,,,,,,,,,,,,,,,,,,,,,,,,,,,,,,1352.4197439001873,None,,,,,,,,,,,,,,,,,,,,,,,,,,,,,,,,,,,,,,,,,,,,,,,,,,,,,,,,,bottle,172,78,aloud,new,red,1346.959354000166,None,y,1346.959354000166,None,"['y', 'return']","[4.7118592001497746, 5.423924900591373]",1346.959354000166,None,,,37YA,001,2023_Apr_12_1525,ExactRep-v3-final,2021.2.3,59.94093415845065,
,,,,,,,,,,,,78,0,78,0,,,,,,,,,,,,,,,,,,,,,,,,,,,,,,,,,,,,,,,,,,,,,,,,,1355.0890642004088,None,,,,,,,,,,,,,,,,,,,,,,,,,,,,,,,,,,,,,,,,,,,,,,,,,,,,,,,,,diamond,196,79,aloud,new,red,1352.9324396001175,None,n,1352.9324396001175,None,"['n', 'return']","[1.4988378006964922, 2.1228696005418897]",1352.9324396001175,None,,,37YA,001,2023_Apr_12_1525,ExactRep-v3-final,2021.2.3,59.94093415845065,
,,,,,,,,,,,,79,0,79,0,,,,,,,,,,,,,,,,,,,,,,,,,,,,,,,,,,,,,,,,,,,,,,,,,1358.7762996004894,None,,,,,,,,,,,,,,,,,,,,,,,,,,,,,,,,,,,,,,,,,,,,,,,,,,,,,,,,,meeting,27,80,sing,old,white,1355.597437100485,None,y,1355.597437100485,None,"['y', 'return']","[2.6421336997300386, 3.1378418002277613]",1355.597437100485,None,,,37YA,001,2023_Apr_12_1525,ExactRep-v3-final,2021.2.3,59.94093415845065,
,,,,,,,,,,,,80,0,80,0,,,,,,,,,,,,,,,,,,,,,,,,,,,,,,,,,,,,,,,,,,,,,,,,,1361.1118804998696,None,,,,,,,,,,,,,,,,,,,,,,,,,,,,,,,,,,,,,,,,,,,,,,,,,,,,,,,,,charm,207,81,sing,new,white,1359.2849181005731,None,n,1359.2849181005731,None,"['n', 'return']","[1.2824270008131862, 1.7942868005484343]",1359.2849181005731,None,,,37YA,001,2023_Apr_12_1525,ExactRep-v3-final,2021.2.3,59.94093415845065,
,,,,,,,,,,,,81,0,81,0,,,,,,,,,,,,,,,,,,,,,,,,,,,,,,,,,,,,,,,,,,,,,,,,,1364.2317230002955,None,,,,,,,,,,,,,,,,,,,,,,,,,,,,,,,,,,,,,,,,,,,,,,,,,,,,,,,,,answer,86,82,aloud,old,red,1361.6219989005476,None,y,1361.6219989005476,None,"['y', 'return']","[2.001272600144148, 2.5773370005190372]",1361.6219989005476,None,,,37YA,001,2023_Apr_12_1525,ExactRep-v3-final,2021.2.3,59.94093415845065,
,,,,,,,,,,,,82,0,82,0,,,,,,,,,,,,,,,,,,,,,,,,,,,,,,,,,,,,,,,,,,,,,,,,,1369.6705208998173,None,,,,,,,,,,,,,,,,,,,,,,,,,,,,,,,,,,,,,,,,,,,,,,,,,,,,,,,,,village,57,83,silent,old,blue,1364.7438676003367,None,y,1364.7438676003367,None,"['y', 'return']","[4.335664499551058, 4.887584099546075]",1364.7438676003367,None,,,37YA,001,2023_Apr_12_1525,ExactRep-v3-final,2021.2.3,59.94093415845065,
,,,,,,,,,,,,83,0,83,0,,,,,,,,,,,,,,,,,,,,,,,,,,,,,,,,,,,,,,,,,,,,,,,,,1374.4252679999918,None,,,,,,,,,,,,,,,,,,,,,,,,,,,,,,,,,,,,,,,,,,,,,,,,,,,,,,,,,storm,124,84,silent,new,blue,1370.1803232003003,None,n,1370.1803232003003,None,"['n', 'return']","[1.2990635996684432, 4.202946900390089]",1370.1803232003003,None,,,37YA,001,2023_Apr_12_1525,ExactRep-v3-final,2021.2.3,59.94093415845065,
,,,,,,,,,,,,84,0,84,0,,,,,,,,,,,,,,,,,,,,,,,,,,,,,,,,,,,,,,,,,,,,,,,,,1380.4478494003415,None,,,,,,,,,,,,,,,,,,,,,,,,,,,,,,,,,,,,,,,,,,,,,,,,,,,,,,,,,doctor,153,85,silent,new,blue,1374.9402002003044,None,y,1374.9402002003044,None,"['y', 'return']","[4.706962799653411, 5.475086499936879]",1374.9402002003044,None,,,37YA,001,2023_Apr_12_1525,ExactRep-v3-final,2021.2.3,59.94093415845065,
,,,,,,,,,,,,85,0,85,0,,,,,,,,,,,,,,,,,,,,,,,,,,,,,,,,,,,,,,,,,,,,,,,,,1383.818849899806,None,,,,,,,,,,,,,,,,,,,,,,,,,,,,,,,,,,,,,,,,,,,,,,,,,,,,,,,,,dust,48,86,silent,old,blue,1380.958973900415,None,n,1380.958973900415,None,"['n', 'return']","[2.2005104003474116, 2.8163254000246525]",1380.958973900415,None,,,37YA,001,2023_Apr_12_1525,ExactRep-v3-final,2021.2.3,59.94093415845065,
,,,,,,,,,,,,86,0,86,0,,,,,,,,,,,,,,,,,,,,,,,,,,,,,,,,,,,,,,,,,,,,,,,,,1386.3872651997954,None,,,,,,,,,,,,,,,,,,,,,,,,,,,,,,,,,,,,,,,,,,,,,,,,,,,,,,,,,mercy,6,87,sing,old,white,1384.3277865005657,None,y,1384.3277865005657,None,"['y', 'return']","[1.375772500410676, 2.0155406007543206]",1384.3277865005657,None,,,37YA,001,2023_Apr_12_1525,ExactRep-v3-final,2021.2.3,59.94093415845065,
,,,,,,,,,,,,87,0,87,0,,,,,,,,,,,,,,,,,,,,,,,,,,,,,,,,,,,,,,,,,,,,,,,,,1389.0397993000224,None,,,,,,,,,,,,,,,,,,,,,,,,,,,,,,,,,,,,,,,,,,,,,,,,,,,,,,,,,passion,69,88,silent,old,blue,1386.8968692999333,None,y,1386.8968692999333,None,"['y', 'return']","[1.534411900676787, 2.102439400739968]",1386.8968692999333,None,,,37YA,001,2023_Apr_12_1525,ExactRep-v3-final,2021.2.3,59.94093415845065,
,,,,,,,,,,,,88,0,88,0,,,,,,,,,,,,,,,,,,,,,,,,,,,,,,,,,,,,,,,,,,,,,,,,,1391.392106000334,None,,,,,,,,,,,,,,,,,,,,,,,,,,,,,,,,,,,,,,,,,,,,,,,,,,,,,,,,,fire,45,89,silent,old,blue,1389.5482124006376,None,n,1389.5482124006376,None,"['n', 'return']","[1.2591649992391467, 1.803056700155139]",1389.5482124006376,None,,,37YA,001,2023_Apr_12_1525,ExactRep-v3-final,2021.2.3,59.94093415845065,
,,,,,,,,,,,,89,0,89,0,,,,,,,,,,,,,,,,,,,,,,,,,,,,,,,,,,,,,,,,,,,,,,,,,1395.1959636006504,None,,,,,,,,,,,,,,,,,,,,,,,,,,,,,,,,,,,,,,,,,,,,,,,,,,,,,,,,,door,209,90,sing,new,white,1391.8996186004952,None,y,1391.8996186004952,None,"['y', 'return']","[2.611815399490297, 3.259714199230075]",1391.8996186004952,None,,,37YA,001,2023_Apr_12_1525,ExactRep-v3-final,2021.2.3,59.94093415845065,
,,,,,,,,,,,,90,0,90,0,,,,,,,,,,,,,,,,,,,,,,,,,,,,,,,,,,,,,,,,,,,,,,,,,1398.2489261999726,None,,,,,,,,,,,,,,,,,,,,,,,,,,,,,,,,,,,,,,,,,,,,,,,,,,,,,,,,,weapon,95,91,aloud,old,red,1395.7032650001347,None,y,1395.7032650001347,None,"['y', 'return']","[1.9120140997692943, 2.5120323998853564]",1395.7032650001347,None,,,37YA,001,2023_Apr_12_1525,ExactRep-v3-final,2021.2.3,59.94093415845065,
,,,,,,,,,,,,91,0,91,0,,,,,,,,,,,,,,,,,,,,,,,,,,,,,,,,,,,,,,,,,,,,,,,,,1400.7515406999737,None,,,,,,,,,,,,,,,,,,,,,,,,,,,,,,,,,,,,,,,,,,,,,,,,,,,,,,,,,horse,170,92,aloud,new,red,1398.7602017000318,None,n,1398.7602017000318,None,"['n', 'return']","[1.3909767996519804, 1.951073999516666]",1398.7602017000318,None,,,37YA,001,2023_Apr_12_1525,ExactRep-v3-final,2021.2.3,59.94093415845065,
,,,,,,,,,,,,92,0,92,0,,,,,,,,,,,,,,,,,,,,,,,,,,,,,,,,,,,,,,,,,,,,,,,,,1403.988132700324,None,,,,,,,,,,,,,,,,,,,,,,,,,,,,,,,,,,,,,,,,,,,,,,,,,,,,,,,,,clock,194,93,aloud,new,red,1401.2619128003716,None,n,1401.2619128003716,None,"['n', 'return']","[2.1055244002491236, 2.6814531004056334]",1401.2619128003716,None,,,37YA,001,2023_Apr_12_1525,ExactRep-v3-final,2021.2.3,59.94093415845065,
,,,,,,,,,,,,93,0,93,0,,,,,,,,,,,,,,,,,,,,,,,,,,,,,,,,,,,,,,,,,,,,,,,,,1406.5906122000888,None,,,,,,,,,,,,,,,,,,,,,,,,,,,,,,,,,,,,,,,,,,,,,,,,,,,,,,,,,murder,38,94,sing,old,white,1404.4979503005743,None,y,1404.4979503005743,None,"['y', 'return']","[1.4053616998717189, 2.0613917000591755]",1404.4979503005743,None,,,37YA,001,2023_Apr_12_1525,ExactRep-v3-final,2021.2.3,59.94093415845065,
,,,,,,,,,,,,94,0,94,0,,,,,,,,,,,,,,,,,,,,,,,,,,,,,,,,,,,,,,,,,,,,,,,,,1411.9627032000571,None,,,,,,,,,,,,,,,,,,,,,,,,,,,,,,,,,,,,,,,,,,,,,,,,,,,,,,,,,origin,128,95,silent,new,blue,1407.0996171999723,None,n,1407.0996171999723,None,"['n', 'return']","[4.283879899419844, 4.819754099473357]",1407.0996171999723,None,,,37YA,001,2023_Apr_12_1525,ExactRep-v3-final,2021.2.3,59.94093415845065,
,,,,,,,,,,,,95,0,95,0,,,,,,,,,,,,,,,,,,,,,,,,,,,,,,,,,,,,,,,,,,,,,,,,,1416.3004646999761,None,,,,,,,,,,,,,,,,,,,,,,,,,,,,,,,,,,,,,,,,,,,,,,,,,,,,,,,,,shadow,18,96,sing,old,white,1412.4703345000744,None,y,1412.4703345000744,None,"['y', 'return']","[3.129032799974084, 3.785075900144875]",1412.4703345000744,None,,,37YA,001,2023_Apr_12_1525,ExactRep-v3-final,2021.2.3,59.94093415845065,
,,,,,,,,,,,,96,0,96,0,,,,,,,,,,,,,,,,,,,,,,,,,,,,,,,,,,,,,,,,,,,,,,,,,1418.669467500411,None,,,,,,,,,,,,,,,,,,,,,,,,,,,,,,,,,,,,,,,,,,,,,,,,,,,,,,,,,priest,120,97,silent,new,blue,1416.8105171006173,None,n,1416.8105171006173,None,"['n', 'return']","[1.2528180992230773, 1.8208234999328852]",1416.8105171006173,None,,,37YA,001,2023_Apr_12_1525,ExactRep-v3-final,2021.2.3,59.94093415845065,
,,,,,,,,,,,,97,0,97,0,,,,,,,,,,,,,,,,,,,,,,,,,,,,,,,,,,,,,,,,,,,,,,,,,1422.6066620005295,None,,,,,,,,,,,,,,,,,,,,,,,,,,,,,,,,,,,,,,,,,,,,,,,,,,,,,,,,,body,108,98,aloud,old,red,1419.1791113000363,None,y,1419.1791113000363,None,"['y', 'return']","[2.844217900186777, 3.388280300423503]",1419.1791113000363,None,,,37YA,001,2023_Apr_12_1525,ExactRep-v3-final,2021.2.3,59.94093415845065,
,,,,,,,,,,,,98,0,98,0,,,,,,,,,,,,,,,,,,,,,,,,,,,,,,,,,,,,,,,,,,,,,,,,,1430.5478763002902,None,,,,,,,,,,,,,,,,,,,,,,,,,,,,,,,,,,,,,,,,,,,,,,,,,,,,,,,,,series,147,99,silent,new,blue,1423.1135881999508,None,n,1423.1135881999508,None,"['n', 'return']","[6.494075000286102, 7.389694900251925]",1423.1135881999508,None,,,37YA,001,2023_Apr_12_1525,ExactRep-v3-final,2021.2.3,59.94093415845065,
,,,,,,,,,,,,99,0,99,0,,,,,,,,,,,,,,,,,,,,,,,,,,,,,,,,,,,,,,,,,,,,,,,,,1433.7679604003206,None,,,,,,,,,,,,,,,,,,,,,,,,,,,,,,,,,,,,,,,,,,,,,,,,,,,,,,,,,city,177,100,sing,new,white,1431.0570994000882,None,y,1431.0570994000882,None,"['y', 'return']","[2.086492600850761, 2.6703434009104967]",1431.0570994000882,None,,,37YA,001,2023_Apr_12_1525,ExactRep-v3-final,2021.2.3,59.94093415845065,
,,,,,,,,,,,,100,0,100,0,,,,,,,,,,,,,,,,,,,,,,,,,,,,,,,,,,,,,,,,,,,,,,,,,1436.2536794999614,None,,,,,,,,,,,,,,,,,,,,,,,,,,,,,,,,,,,,,,,,,,,,,,,,,,,,,,,,,dawn,43,101,silent,old,blue,1434.2767644003034,None,n,1434.2767644003034,None,"['n', 'return']","[1.458580099977553, 1.938518300652504]",1434.2767644003034,None,,,37YA,001,2023_Apr_12_1525,ExactRep-v3-final,2021.2.3,59.94093415845065,
,,,,,,,,,,,,101,0,101,0,,,,,,,,,,,,,,,,,,,,,,,,,,,,,,,,,,,,,,,,,,,,,,,,,1440.008770099841,None,,,,,,,,,,,,,,,,,,,,,,,,,,,,,,,,,,,,,,,,,,,,,,,,,,,,,,,,,cattle,123,102,silent,new,blue,1436.7669561998919,None,n,1436.7669561998919,None,"['n', 'return']","[1.816503900103271, 3.1922955997288227]",1436.7669561998919,None,,,37YA,001,2023_Apr_12_1525,ExactRep-v3-final,2021.2.3,59.94093415845065,
,,,,,,,,,,,,102,0,102,0,,,,,,,,,,,,,,,,,,,,,,,,,,,,,,,,,,,,,,,,,,,,,,,,,1443.3941210005432,None,,,,,,,,,,,,,,,,,,,,,,,,,,,,,,,,,,,,,,,,,,,,,,,,,,,,,,,,,love,59,103,silent,old,blue,1440.5210153004155,None,y,1440.5210153004155,None,"['y', 'return']","[2.0704207997769117, 2.8383684996515512]",1440.5210153004155,None,,,37YA,001,2023_Apr_12_1525,ExactRep-v3-final,2021.2.3,59.94093415845065,
,,,,,,,,,,,,103,0,103,0,,,,,,,,,,,,,,,,,,,,,,,,,,,,,,,,,,,,,,,,,,,,,,,,,1447.5714982002974,None,,,,,,,,,,,,,,,,,,,,,,,,,,,,,,,,,,,,,,,,,,,,,,,,,,,,,,,,,style,220,104,aloud,new,red,1443.9041531998664,None,n,1443.9041531998664,None,"['n', 'return']","[2.9271916998550296, 3.599072400480509]",1443.9041531998664,None,,,37YA,001,2023_Apr_12_1525,ExactRep-v3-final,2021.2.3,59.94093415845065,
,,,,,,,,,,,,104,0,104,0,,,,,,,,,,,,,,,,,,,,,,,,,,,,,,,,,,,,,,,,,,,,,,,,,1458.409237800166,None,,,,,,,,,,,,,,,,,,,,,,,,,,,,,,,,,,,,,,,,,,,,,,,,,,,,,,,,,colony,175,105,sing,new,white,1448.0918279998004,None,n,1448.0918279998004,None,"['n', 'return']","[2.011581599712372, 10.28349719941616]",1448.0918279998004,None,,,37YA,001,2023_Apr_12_1525,ExactRep-v3-final,2021.2.3,59.94093415845065,
,,,,,,,,,,,,105,0,105,0,,,,,,,,,,,,,,,,,,,,,,,,,,,,,,,,,,,,,,,,,,,,,,,,,1461.311978599988,None,,,,,,,,,,,,,,,,,,,,,,,,,,,,,,,,,,,,,,,,,,,,,,,,,,,,,,,,,hide,149,106,silent,new,blue,1458.9196105999872,None,n,1458.9196105999872,None,"['n', 'return']","[1.8639329001307487, 2.351783599704504]",1458.9196105999872,None,,,37YA,001,2023_Apr_12_1525,ExactRep-v3-final,2021.2.3,59.94093415845065,
,,,,,,,,,,,,106,0,106,0,,,,,,,,,,,,,,,,,,,,,,,,,,,,,,,,,,,,,,,,,,,,,,,,,1464.3317578006536,None,,,,,,,,,,,,,,,,,,,,,,,,,,,,,,,,,,,,,,,,,,,,,,,,,,,,,,,,,student,39,107,silent,old,blue,1461.819455800578,None,y,1461.819455800578,None,"['y', 'return']","[1.828174900263548, 2.4760226998478174]",1461.819455800578,None,,,37YA,001,2023_Apr_12_1525,ExactRep-v3-final,2021.2.3,59.94093415845065,
,,,,,,,,,,,,107,0,107,0,,,,,,,,,,,,,,,,,,,,,,,,,,,,,,,,,,,,,,,,,,,,,,,,,1467.234679600224,None,,,,,,,,,,,,,,,,,,,,,,,,,,,,,,,,,,,,,,,,,,,,,,,,,,,,,,,,,world,146,108,silent,new,blue,1464.8355331998318,None,y,1464.8355331998318,None,"['y', 'return']","[1.7320615006610751, 2.363949299789965]",1464.8355331998318,None,,,37YA,001,2023_Apr_12_1525,ExactRep-v3-final,2021.2.3,59.94093415845065,
,,,,,,,,,,,,108,0,108,0,,,,,,,,,,,,,,,,,,,,,,,,,,,,,,,,,,,,,,,,,,,,,,,,,1471.4220626000315,None,,,,,,,,,,,,,,,,,,,,,,,,,,,,,,,,,,,,,,,,,,,,,,,,,,,,,,,,,teacher,77,109,silent,old,blue,1467.7353971004486,None,y,1467.7353971004486,None,"['y', 'return']","[2.8159821005538106, 3.639992100186646]",1467.7353971004486,None,,,37YA,001,2023_Apr_12_1525,ExactRep-v3-final,2021.2.3,59.94093415845065,
,,,,,,,,,,,,109,0,109,0,,,,,,,,,,,,,,,,,,,,,,,,,,,,,,,,,,,,,,,,,,,,,,,,,1474.8588936002925,None,,,,,,,,,,,,,,,,,,,,,,,,,,,,,,,,,,,,,,,,,,,,,,,,,,,,,,,,,judge,78,110,silent,old,blue,1471.9293226003647,None,n,1471.9293226003647,None,"['n', 'return']","[2.3260768996551633, 2.894214299507439]",1471.9293226003647,None,,,37YA,001,2023_Apr_12_1525,ExactRep-v3-final,2021.2.3,59.94093415845065,
,,,,,,,,,,,,110,0,110,0,,,,,,,,,,,,,,,,,,,,,,,,,,,,,,,,,,,,,,,,,,,,,,,,,1477.311294800602,None,,,,,,,,,,,,,,,,,,,,,,,,,,,,,,,,,,,,,,,,,,,,,,,,,,,,,,,,,wheat,129,111,silent,new,blue,1475.3714856998995,None,n,1475.3714856998995,None,"['n', 'return']","[1.2599730007350445, 1.9078496005386114]",1475.3714856998995,None,,,37YA,001,2023_Apr_12_1525,ExactRep-v3-final,2021.2.3,59.94093415845065,
,,,,,,,,,,,,111,0,111,0,,,,,,,,,,,,,,,,,,,,,,,,,,,,,,,,,,,,,,,,,,,,,,,,,1480.9149066004902,None,,,,,,,,,,,,,,,,,,,,,,,,,,,,,,,,,,,,,,,,,,,,,,,,,,,,,,,,,potato,188,112,aloud,new,red,1477.81791490037,None,n,1477.81791490037,None,"['n', 'return']","[2.5334892999380827, 3.061499299481511]",1477.81791490037,None,,,37YA,001,2023_Apr_12_1525,ExactRep-v3-final,2021.2.3,59.94093415845065,
,,,,,,,,,,,,112,0,112,0,,,,,,,,,,,,,,,,,,,,,,,,,,,,,,,,,,,,,,,,,,,,,,,,,1483.984760900028,None,,,,,,,,,,,,,,,,,,,,,,,,,,,,,,,,,,,,,,,,,,,,,,,,,,,,,,,,,idea,227,113,sing,new,white,1481.4242802001536,None,y,1481.4242802001536,None,"['y', 'return']","[1.9671130003407598, 2.519111399538815]",1481.4242802001536,None,,,37YA,001,2023_Apr_12_1525,ExactRep-v3-final,2021.2.3,59.94093415845065,
,,,,,,,,,,,,113,0,113,0,,,,,,,,,,,,,,,,,,,,,,,,,,,,,,,,,,,,,,,,,,,,,,,,,1488.0386931998655,None,,,,,,,,,,,,,,,,,,,,,,,,,,,,,,,,,,,,,,,,,,,,,,,,,,,,,,,,,bird,134,114,silent,new,blue,1484.4934104997665,None,y,1484.4934104997665,None,"['y', 'return']","[2.913966699503362, 3.506109799258411]",1484.4934104997665,None,,,37YA,001,2023_Apr_12_1525,ExactRep-v3-final,2021.2.3,59.94093415845065,
,,,,,,,,,,,,114,0,114,0,,,,,,,,,,,,,,,,,,,,,,,,,,,,,,,,,,,,,,,,,,,,,,,,,1491.4254101999104,None,,,,,,,,,,,,,,,,,,,,,,,,,,,,,,,,,,,,,,,,,,,,,,,,,,,,,,,,,crime,29,115,sing,old,white,1488.5455907005817,None,y,1488.5455907005817,None,"['y', 'return']","[2.28581690043211, 2.8378587001934648]",1488.5455907005817,None,,,37YA,001,2023_Apr_12_1525,ExactRep-v3-final,2021.2.3,59.94093415845065,
,,,,,,,,,,,,115,0,115,0,,,,,,,,,,,,,,,,,,,,,,,,,,,,,,,,,,,,,,,,,,,,,,,,,1494.2448984002694,None,,,,,,,,,,,,,,,,,,,,,,,,,,,,,,,,,,,,,,,,,,,,,,,,,,,,,,,,,tool,14,116,sing,old,white,1491.9341620001942,None,y,1491.9341620001942,None,"['y', 'return']","[1.649184599518776, 2.265265899710357]",1491.9341620001942,None,,,37YA,001,2023_Apr_12_1525,ExactRep-v3-final,2021.2.3,59.94093415845065,
,,,,,,,,,,,,116,0,116,0,,,,,,,,,,,,,,,,,,,,,,,,,,,,,,,,,,,,,,,,,,,,,,,,,1501.085115100257,None,,,,,,,,,,,,,,,,,,,,,,,,,,,,,,,,,,,,,,,,,,,,,,,,,,,,,,,,,sea,97,117,aloud,old,red,1494.7533223005012,None,y,1494.7533223005012,None,"['y', 'return']","[5.39795590005815, 6.2862305995076895]",1494.7533223005012,None,,,37YA,001,2023_Apr_12_1525,ExactRep-v3-final,2021.2.3,59.94093415845065,
,,,,,,,,,,,,117,0,117,0,,,,,,,,,,,,,,,,,,,,,,,,,,,,,,,,,,,,,,,,,,,,,,,,,1508.2589167002589,None,,,,,,,,,,,,,,,,,,,,,,,,,,,,,,,,,,,,,,,,,,,,,,,,,,,,,,,,,virtue,34,118,sing,old,white,1501.5957946004346,None,n,1501.5957946004346,None,"['y', 'backspace', 'n', 'return']","[2.467605799436569, 5.019634899683297, 5.955611099489033, 6.619702599942684]",1501.5957946004346,None,,,37YA,001,2023_Apr_12_1525,ExactRep-v3-final,2021.2.3,59.94093415845065,
,,,,,,,,,,,,118,0,118,0,,,,,,,,,,,,,,,,,,,,,,,,,,,,,,,,,,,,,,,,,,,,,,,,,1511.2619492998347,None,,,,,,,,,,,,,,,,,,,,,,,,,,,,,,,,,,,,,,,,,,,,,,,,,,,,,,,,,water,81,119,aloud,old,red,1508.7688990999013,None,y,1508.7688990999013,None,"['y', 'return']","[1.822588600218296, 2.446526899933815]",1508.7688990999013,None,,,37YA,001,2023_Apr_12_1525,ExactRep-v3-final,2021.2.3,59.94093415845065,
,,,,,,,,,,,,119,0,119,0,,,,,,,,,,,,,,,,,,,,,,,,,,,,,,,,,,,,,,,,,,,,,,,,,1514.348517499864,None,,,,,,,,,,,,,,,,,,,,,,,,,,,,,,,,,,,,,,,,,,,,,,,,,,,,,,,,,mother,2,120,sing,old,white,1511.7705202000216,None,y,1511.7705202000216,None,"['y', 'return']","[1.988956400193274, 2.540971400216222]",1511.7705202000216,None,,,37YA,001,2023_Apr_12_1525,ExactRep-v3-final,2021.2.3,59.94093415845065,
,,,,,,,,,,,,120,0,120,0,,,,,,,,,,,,,,,,,,,,,,,,,,,,,,,,,,,,,,,,,,,,,,,,,1520.2709356006235,None,,,,,,,,,,,,,,,,,,,,,,,,,,,,,,,,,,,,,,,,,,,,,,,,,,,,,,,,,glory,205,121,sing,new,white,1514.8578781997785,None,y,1514.8578781997785,None,"['return', 'y', 'return']","[1.9097334994003177, 3.973839399404824, 5.373551899567246]",1514.8578781997785,None,,,37YA,001,2023_Apr_12_1525,ExactRep-v3-final,2021.2.3,59.94093415845065,
,,,,,,,,,,,,121,0,121,0,,,,,,,,,,,,,,,,,,,,,,,,,,,,,,,,,,,,,,,,,,,,,,,,,1526.4439026005566,None,,,,,,,,,,,,,,,,,,,,,,,,,,,,,,,,,,,,,,,,,,,,,,,,,,,,,,,,,flesh,104,122,aloud,old,red,1520.7809065002948,None,y,1520.7809065002948,None,"['y', 'return']","[5.12278120033443, 5.626585400663316]",1520.7809065002948,None,,,37YA,001,2023_Apr_12_1525,ExactRep-v3-final,2021.2.3,59.94093415845065,
,,,,,,,,,,,,122,0,122,0,,,,,,,,,,,,,,,,,,,,,,,,,,,,,,,,,,,,,,,,,,,,,,,,,1532.366587200202,None,,,,,,,,,,,,,,,,,,,,,,,,,,,,,,,,,,,,,,,,,,,,,,,,,,,,,,,,,moral,42,123,silent,old,blue,1526.951823499985,None,n,1526.951823499985,None,"['n', 'return']","[4.359853000380099, 5.367732199840248]",1526.951823499985,None,,,37YA,001,2023_Apr_12_1525,ExactRep-v3-final,2021.2.3,59.94093415845065,
,,,,,,,,,,,,123,0,123,0,,,,,,,,,,,,,,,,,,,,,,,,,,,,,,,,,,,,,,,,,,,,,,,,,1535.4362802999094,None,,,,,,,,,,,,,,,,,,,,,,,,,,,,,,,,,,,,,,,,,,,,,,,,,,,,,,,,,nail,208,124,aloud,new,red,1532.8749949000776,None,n,1532.8749949000776,None,"['n', 'return']","[1.8524766992777586, 2.516468499787152]",1532.8749949000776,None,,,37YA,001,2023_Apr_12_1525,ExactRep-v3-final,2021.2.3,59.94093415845065,
,,,,,,,,,,,,124,0,124,0,,,,,,,,,,,,,,,,,,,,,,,,,,,,,,,,,,,,,,,,,,,,,,,,,1538.1117457002401,None,,,,,,,,,,,,,,,,,,,,,,,,,,,,,,,,,,,,,,,,,,,,,,,,,,,,,,,,,metal,32,125,sing,old,white,1535.9432867998257,None,y,1535.9432867998257,None,"['y', 'return']","[1.4084126995876431, 2.12007990013808]",1535.9432867998257,None,,,37YA,001,2023_Apr_12_1525,ExactRep-v3-final,2021.2.3,59.94093415845065,
,,,,,,,,,,,,125,0,125,0,,,,,,,,,,,,,,,,,,,,,,,,,,,,,,,,,,,,,,,,,,,,,,,,,1544.2783038001508,None,,,,,,,,,,,,,,,,,,,,,,,,,,,,,,,,,,,,,,,,,,,,,,,,,,,,,,,,,corner,79,126,sing,old,white,1538.632143500261,None,y,1538.632143500261,None,"['y', 'return']","[5.039428700692952, 5.607381599955261]",1538.632143500261,None,,,37YA,001,2023_Apr_12_1525,ExactRep-v3-final,2021.2.3,59.94093415845065,
,,,,,,,,,,,,126,0,126,0,,,,,,,,,,,,,,,,,,,,,,,,,,,,,,,,,,,,,,,,,,,,,,,,,1546.7474859002978,None,,,,,,,,,,,,,,,,,,,,,,,,,,,,,,,,,,,,,,,,,,,,,,,,,,,,,,,,,corn,111,127,aloud,old,red,1544.7925824001431,None,y,1544.7925824001431,None,"['y', 'return']","[1.3027448998764157, 1.9108201991766691]",1544.7925824001431,None,,,37YA,001,2023_Apr_12_1525,ExactRep-v3-final,2021.2.3,59.94093415845065,
,,,,,,,,,,,,127,0,127,0,,,,,,,,,,,,,,,,,,,,,,,,,,,,,,,,,,,,,,,,,,,,,,,,,1549.2499497998506,None,,,,,,,,,,,,,,,,,,,,,,,,,,,,,,,,,,,,,,,,,,,,,,,,,,,,,,,,,arm,162,128,aloud,new,red,1547.2607209999114,None,n,1547.2607209999114,None,"['n', 'return']","[1.4268388003110886, 1.9547476004809141]",1547.2607209999114,None,,,37YA,001,2023_Apr_12_1525,ExactRep-v3-final,2021.2.3,59.94093415845065,
,,,,,,,,,,,,128,0,128,0,,,,,,,,,,,,,,,,,,,,,,,,,,,,,,,,,,,,,,,,,,,,,,,,,1551.852743900381,None,,,,,,,,,,,,,,,,,,,,,,,,,,,,,,,,,,,,,,,,,,,,,,,,,,,,,,,,,custom,100,129,aloud,old,red,1549.7599659003317,None,y,1549.7599659003317,None,"['y', 'return']","[1.4635714003816247, 2.0475477995350957]",1549.7599659003317,None,,,37YA,001,2023_Apr_12_1525,ExactRep-v3-final,2021.2.3,59.94093415845065,
,,,,,,,,,,,,129,0,129,0,,,,,,,,,,,,,,,,,,,,,,,,,,,,,,,,,,,,,,,,,,,,,,,,,1555.606296500191,None,,,,,,,,,,,,,,,,,,,,,,,,,,,,,,,,,,,,,,,,,,,,,,,,,,,,,,,,,bowl,180,130,aloud,new,red,1552.364639500156,None,n,1552.364639500156,None,"['n', 'return']","[2.6191088994964957, 3.1948589999228716]",1552.364639500156,None,,,37YA,001,2023_Apr_12_1525,ExactRep-v3-final,2021.2.3,59.94093415845065,
,,,,,,,,,,,,130,0,130,0,,,,,,,,,,,,,,,,,,,,,,,,,,,,,,,,,,,,,,,,,,,,,,,,,1558.425858099945,None,,,,,,,,,,,,,,,,,,,,,,,,,,,,,,,,,,,,,,,,,,,,,,,,,,,,,,,,,winter,191,131,sing,new,white,1556.1119544003159,None,n,1556.1119544003159,None,"['n', 'return']","[1.8238081000745296, 2.2795858001336455]",1556.1119544003159,None,,,37YA,001,2023_Apr_12_1525,ExactRep-v3-final,2021.2.3,59.94093415845065,
