trials_fam.thisRepN,trials_fam.thisTrialN,trials_fam.thisN,trials_fam.thisIndex,trials_prc.thisRepN,trials_prc.thisTrialN,trials_prc.thisN,trials_prc.thisIndex,StudyLoop.thisRepN,StudyLoop.thisTrialN,StudyLoop.thisN,StudyLoop.thisIndex,TestLoop.thisRepN,TestLoop.thisTrialN,TestLoop.thisN,TestLoop.thisIndex,text_colortest.started,text_colortest.stopped,key_colortest.keys,key_colortest.rt,key_colortest.started,key_colortest.stopped,textCondition.started,textCondition.stopped,keyCondition.keys,keyCondition.rt,keyCondition.started,keyCondition.stopped,Condition_between,Condition_counterbal,keyWelcome.keys,keyWelcome.rt,keyWelcome.started,keyWelcome.stopped,welcome_a.started,welcome_a.stopped,welcome_b.started,welcome_b.stopped,welcome_c.started,welcome_c.stopped,welcome_d.started,welcome_d.stopped,welcome_e.started,welcome_e.stopped,welcome_f.started,welcome_f.stopped,key_resp_fam_inst.keys,key_resp_fam_inst.rt,key_resp_fam_inst.started,key_resp_fam_inst.stopped,fam_a.started,fam_a.stopped,fam_b.started,fam_b.stopped,fam_c.started,fam_c.stopped,fam_d.started,fam_d.stopped,fam_e.started,fam_e.stopped,fam_f.started,fam_f.stopped,text_famil.started,text_famil.stopped,textBlank500.started,textBlank500.stopped,key_resp_prc_inst.keys,key_resp_prc_inst.rt,key_resp_prc_inst.started,key_resp_prc_inst.stopped,prac_a.started,prac_a.stopped,prac_b.started,prac_b.stopped,prac_c.started,prac_c.stopped,prac_d.started,prac_d.stopped,prac_e.started,prac_e.stopped,prac_f.started,prac_f.stopped,text_prc_trial.started,text_prc_trial.stopped,key_resp_study_inst.keys,key_resp_study_inst.rt,key_resp_study_inst.started,key_resp_study_inst.stopped,crit_a.started,crit_a.stopped,crit_b.started,crit_b.stopped,crit_c.started,crit_c.stopped,crit_d.started,crit_d.stopped,crit_e.started,crit_e.stopped,crit_f.started,crit_f.stopped,study_word,study_num,study_order,study_type,word_color,textStudy.started,textStudy.stopped,keyStudy.keys,keyStudy.started,keyStudy.stopped,post_study.started,post_study.stopped,key_resp_post_study.keys,key_resp_post_study.rt,key_resp_post_study.started,key_resp_post_study.stopped,test_inst.started,test_inst.stopped,key_resp_test_inst.keys,key_resp_test_inst.rt,key_resp_test_inst.started,key_resp_test_inst.stopped,test_word,test_num,test_order,test_condition,old_new_test,word_color_test,textConf.started,textConf.stopped,Participant Response,textInput.started,textInput.stopped,keyResp.keys,keyResp.rt,keyResp.started,keyResp.stopped,textEnd.started,textEnd.stopped,participant,session,date,expName,psychopyVersion,frameRate,
,,,,,,,,,,,,,,,,24.827600399963558,None,y,1.1604396002367139,24.827600399963558,None,,,,,,,,,,,,,,,,,,,,,,,,,,,,,,,,,,,,,,,,,,,,,,,,,,,,,,,,,,,,,,,,,,,,,,,,,,,,,,,,,,,,,,,,,,,,,,,,,,,,,,,,,,,,,,,,,,,,,,38YB,001,2023_Apr_12_1610,ExactRep-v3-final,2021.2.3,59.99221310509327,
,,,,,,,,,,,,,,,,,,,,,,26.015709299594164,None,b,2.1804697001352906,26.015709299594164,None,,,,,,,,,,,,,,,,,,,,,,,,,,,,,,,,,,,,,,,,,,,,,,,,,,,,,,,,,,,,,,,,,,,,,,,,,,,,,,,,,,,,,,,,,,,,,,,,,,,,,,,,,,,,,,,,38YB,001,2023_Apr_12_1610,ExactRep-v3-final,2021.2.3,59.99221310509327,
,,,,,,,,,,,,,,,,,,,,,,,,,,,,colorfoils,b,space,1103.2275999002159,38.38561879936606,None,,,,,,,,,,,,,,,,,,,,,,,,,,,,,,,,,,,,,,,,,,,,,,,,,,,,,,,,,,,,,,,,,,,,,,,,,,,,,,,,,,,,,,,,,,,,,,,,,,,,,,,,,,38YB,001,2023_Apr_12_1610,ExactRep-v3-final,2021.2.3,59.99221310509327,
,,,,,,,,,,,,,,,,,,,,,,,,,,,,,,,,,,28.360310699790716,None,28.360310699790716,None,28.360310699790716,None,28.360310699790716,None,28.360310699790716,None,28.360310699790716,None,space,13.644850400276482,1151.7762657999992,None,,,,,,,,,,,,,,,,,,,,,,,,,,,,,,,,,,,,,,,,,,,,,,,,,,,,,,,,,,,,,,,,,,,,,,,,,,,,,,,,,,,,,,,,,,38YB,001,2023_Apr_12_1610,ExactRep-v3-final,2021.2.3,59.99221310509327,
0,0,0,0,,,,,,,,,,,,,,,,,,,,,,,,,,,,,,,,,,,,,,,,,,,,,,,1141.7791788000613,None,1141.7791788000613,None,1141.7791788000613,None,1141.7791788000613,None,1141.7791788000613,None,1141.7791788000613,None,1165.5482597993687,None,1167.5403889995068,None,,,,,,,,,,,,,,,,,,,,,,,,,,,,,,,,,,,,,,,,,,,,,,,,,,,,,,,,,,,,,,,,,,,,,,,,,,38YB,001,2023_Apr_12_1610,ExactRep-v3-final,2021.2.3,59.99221310509327,
1,0,1,0,,,,,,,,,,,,,,,,,,,,,,,,,,,,,,,,,,,,,,,,,,,,,,,,,,,,,,,,,,,1168.0409324998036,None,1170.0427308995277,None,,,,,,,,,,,,,,,,,,,,,,,,,,,,,,,,,,,,,,,,,,,,,,,,,,,,,,,,,,,,,,,,,,,,,,,,,,38YB,001,2023_Apr_12_1610,ExactRep-v3-final,2021.2.3,59.99221310509327,
2,0,2,0,,,,,,,,,,,,,,,,,,,,,,,,,,,,,,,,,,,,,,,,,,,,,,,,,,,,,,,,,,,1170.5435977997258,None,1172.5453762998804,None,,,,,,,,,,,,,,,,,,,,,,,,,,,,,,,,,,,,,,,,,,,,,,,,,,,,,,,,,,,,,,,,,,,,,,,,,,38YB,001,2023_Apr_12_1610,ExactRep-v3-final,2021.2.3,59.99221310509327,
3,0,3,0,,,,,,,,,,,,,,,,,,,,,,,,,,,,,,,,,,,,,,,,,,,,,,,,,,,,,,,,,,,1173.058201099746,None,1175.064621599391,None,,,,,,,,,,,,,,,,,,,,,,,,,,,,,,,,,,,,,,,,,,,,,,,,,,,,,,,,,,,,,,,,,,,,,,,,,,38YB,001,2023_Apr_12_1610,ExactRep-v3-final,2021.2.3,59.99221310509327,
4,0,4,0,,,,,,,,,,,,,,,,,,,,,,,,,,,,,,,,,,,,,,,,,,,,,,,,,,,,,,,,,,,1175.5651708999649,None,1177.5671613002196,None,,,,,,,,,,,,,,,,,,,,,,,,,,,,,,,,,,,,,,,,,,,,,,,,,,,,,,,,,,,,,,,,,,,,,,,,,,38YB,001,2023_Apr_12_1610,ExactRep-v3-final,2021.2.3,59.99221310509327,
5,0,5,0,,,,,,,,,,,,,,,,,,,,,,,,,,,,,,,,,,,,,,,,,,,,,,,,,,,,,,,,,,,1178.0708198994398,None,1180.0862555997446,None,,,,,,,,,,,,,,,,,,,,,,,,,,,,,,,,,,,,,,,,,,,,,,,,,,,,,,,,,,,,,,,,,,,,,,,,,,38YB,001,2023_Apr_12_1610,ExactRep-v3-final,2021.2.3,59.99221310509327,
6,0,6,0,,,,,,,,,,,,,,,,,,,,,,,,,,,,,,,,,,,,,,,,,,,,,,,,,,,,,,,,,,,1180.5866590999067,None,1182.588876100257,None,,,,,,,,,,,,,,,,,,,,,,,,,,,,,,,,,,,,,,,,,,,,,,,,,,,,,,,,,,,,,,,,,,,,,,,,,,38YB,001,2023_Apr_12_1610,ExactRep-v3-final,2021.2.3,59.99221310509327,
7,0,7,0,,,,,,,,,,,,,,,,,,,,,,,,,,,,,,,,,,,,,,,,,,,,,,,,,,,,,,,,,,,1183.095800000243,None,1185.108196400106,None,,,,,,,,,,,,,,,,,,,,,,,,,,,,,,,,,,,,,,,,,,,,,,,,,,,,,,,,,,,,,,,,,,,,,,,,,,38YB,001,2023_Apr_12_1610,ExactRep-v3-final,2021.2.3,59.99221310509327,
8,0,8,0,,,,,,,,,,,,,,,,,,,,,,,,,,,,,,,,,,,,,,,,,,,,,,,,,,,,,,,,,,,1185.613746999763,None,1187.6271134000272,None,,,,,,,,,,,,,,,,,,,,,,,,,,,,,,,,,,,,,,,,,,,,,,,,,,,,,,,,,,,,,,,,,,,,,,,,,,38YB,001,2023_Apr_12_1610,ExactRep-v3-final,2021.2.3,59.99221310509327,
9,0,9,0,,,,,,,,,,,,,,,,,,,,,,,,,,,,,,,,,,,,,,,,,,,,,,,,,,,,,,,,,,,1188.1276612998918,None,1190.1294726999477,None,,,,,,,,,,,,,,,,,,,,,,,,,,,,,,,,,,,,,,,,,,,,,,,,,,,,,,,,,,,,,,,,,,,,,,,,,,38YB,001,2023_Apr_12_1610,ExactRep-v3-final,2021.2.3,59.99221310509327,
10,0,10,0,,,,,,,,,,,,,,,,,,,,,,,,,,,,,,,,,,,,,,,,,,,,,,,,,,,,,,,,,,,1190.6301956996322,None,1192.631930699572,None,,,,,,,,,,,,,,,,,,,,,,,,,,,,,,,,,,,,,,,,,,,,,,,,,,,,,,,,,,,,,,,,,,,,,,,,,,38YB,001,2023_Apr_12_1610,ExactRep-v3-final,2021.2.3,59.99221310509327,
11,0,11,0,,,,,,,,,,,,,,,,,,,,,,,,,,,,,,,,,,,,,,,,,,,,,,,,,,,,,,,,,,,1193.133803700097,None,1195.1346958996728,None,,,,,,,,,,,,,,,,,,,,,,,,,,,,,,,,,,,,,,,,,,,,,,,,,,,,,,,,,,,,,,,,,,,,,,,,,,38YB,001,2023_Apr_12_1610,ExactRep-v3-final,2021.2.3,59.99221310509327,
12,0,12,0,,,,,,,,,,,,,,,,,,,,,,,,,,,,,,,,,,,,,,,,,,,,,,,,,,,,,,,,,,,1195.6378120994195,None,1197.6371264001355,None,,,,,,,,,,,,,,,,,,,,,,,,,,,,,,,,,,,,,,,,,,,,,,,,,,,,,,,,,,,,,,,,,,,,,,,,,,38YB,001,2023_Apr_12_1610,ExactRep-v3-final,2021.2.3,59.99221310509327,
13,0,13,0,,,,,,,,,,,,,,,,,,,,,,,,,,,,,,,,,,,,,,,,,,,,,,,,,,,,,,,,,,,1198.1393823996186,None,1200.139469199814,None,,,,,,,,,,,,,,,,,,,,,,,,,,,,,,,,,,,,,,,,,,,,,,,,,,,,,,,,,,,,,,,,,,,,,,,,,,38YB,001,2023_Apr_12_1610,ExactRep-v3-final,2021.2.3,59.99221310509327,
14,0,14,0,,,,,,,,,,,,,,,,,,,,,,,,,,,,,,,,,,,,,,,,,,,,,,,,,,,,,,,,,,,1200.6402226993814,None,1202.641963600181,None,,,,,,,,,,,,,,,,,,,,,,,,,,,,,,,,,,,,,,,,,,,,,,,,,,,,,,,,,,,,,,,,,,,,,,,,,,38YB,001,2023_Apr_12_1610,ExactRep-v3-final,2021.2.3,59.99221310509327,
,,,,,,,,,,,,,,,,,,,,,,,,,,,,,,,,,,,,,,,,,,,,,,,,,,,,,,,,,,,,,,,,,,space,23.642766499891877,1213.25040789973,None,,,,,,,,,,,,,,,,,,,,,,,,,,,,,,,,,,,,,,,,,,,,,,,,,,,,,,,,,,,,,,,,,,,,,,38YB,001,2023_Apr_12_1610,ExactRep-v3-final,2021.2.3,59.99221310509327,
,,,,0,0,0,0,,,,,,,,,,,,,,,,,,,,,,,,,,,,,,,,,,,,,,,,,,,,,,,,,,,,,,,,,1238.9951940998435,None,,,,,1203.2911467002705,None,1203.2911467002705,None,1203.2911467002705,None,1203.2911467002705,None,1203.2911467002705,None,1203.2911467002705,None,1236.9895890997723,None,,,,,,,,,,,,,,,,,,,,,,,,,,,,,,,,,,,,,,,,,,,,,,,,,,,,,,,,38YB,001,2023_Apr_12_1610,ExactRep-v3-final,2021.2.3,59.99221310509327,
,,,,1,0,1,0,,,,,,,,,,,,,,,,,,,,,,,,,,,,,,,,,,,,,,,,,,,,,,,,,,,,,,,,,1241.497725999914,None,,,,,,,,,,,,,,,,,1239.49578239955,None,,,,,,,,,,,,,,,,,,,,,,,,,,,,,,,,,,,,,,,,,,,,,,,,,,,,,,,,38YB,001,2023_Apr_12_1610,ExactRep-v3-final,2021.2.3,59.99221310509327,
,,,,2,0,2,0,,,,,,,,,,,,,,,,,,,,,,,,,,,,,,,,,,,,,,,,,,,,,,,,,,,,,,,,,1243.999867499806,None,,,,,,,,,,,,,,,,,1241.9981479002163,None,,,,,,,,,,,,,,,,,,,,,,,,,,,,,,,,,,,,,,,,,,,,,,,,,,,,,,,,38YB,001,2023_Apr_12_1610,ExactRep-v3-final,2021.2.3,59.99221310509327,
,,,,3,0,3,0,,,,,,,,,,,,,,,,,,,,,,,,,,,,,,,,,,,,,,,,,,,,,,,,,,,,,,,,,1246.5026666997,None,,,,,,,,,,,,,,,,,1244.5006927996874,None,,,,,,,,,,,,,,,,,,,,,,,,,,,,,,,,,,,,,,,,,,,,,,,,,,,,,,,,38YB,001,2023_Apr_12_1610,ExactRep-v3-final,2021.2.3,59.99221310509327,
,,,,4,0,4,0,,,,,,,,,,,,,,,,,,,,,,,,,,,,,,,,,,,,,,,,,,,,,,,,,,,,,,,,,1249.0049871997908,None,,,,,,,,,,,,,,,,,1247.002951500006,None,,,,,,,,,,,,,,,,,,,,,,,,,,,,,,,,,,,,,,,,,,,,,,,,,,,,,,,,38YB,001,2023_Apr_12_1610,ExactRep-v3-final,2021.2.3,59.99221310509327,
,,,,5,0,5,0,,,,,,,,,,,,,,,,,,,,,,,,,,,,,,,,,,,,,,,,,,,,,,,,,,,,,,,,,1251.5076591996476,None,,,,,,,,,,,,,,,,,1249.5057004000992,None,,,,,,,,,,,,,,,,,,,,,,,,,,,,,,,,,,,,,,,,,,,,,,,,,,,,,,,,38YB,001,2023_Apr_12_1610,ExactRep-v3-final,2021.2.3,59.99221310509327,
,,,,6,0,6,0,,,,,,,,,,,,,,,,,,,,,,,,,,,,,,,,,,,,,,,,,,,,,,,,,,,,,,,,,1254.0100403996184,None,,,,,,,,,,,,,,,,,1252.0081714997068,None,,,,,,,,,,,,,,,,,,,,,,,,,,,,,,,,,,,,,,,,,,,,,,,,,,,,,,,,38YB,001,2023_Apr_12_1610,ExactRep-v3-final,2021.2.3,59.99221310509327,
,,,,7,0,7,0,,,,,,,,,,,,,,,,,,,,,,,,,,,,,,,,,,,,,,,,,,,,,,,,,,,,,,,,,1256.5127213997766,None,,,,,,,,,,,,,,,,,1254.5106771001592,None,,,,,,,,,,,,,,,,,,,,,,,,,,,,,,,,,,,,,,,,,,,,,,,,,,,,,,,,38YB,001,2023_Apr_12_1610,ExactRep-v3-final,2021.2.3,59.99221310509327,
,,,,8,0,8,0,,,,,,,,,,,,,,,,,,,,,,,,,,,,,,,,,,,,,,,,,,,,,,,,,,,,,,,,,1259.0153227001429,None,,,,,,,,,,,,,,,,,1257.0132339000702,None,,,,,,,,,,,,,,,,,,,,,,,,,,,,,,,,,,,,,,,,,,,,,,,,,,,,,,,,38YB,001,2023_Apr_12_1610,ExactRep-v3-final,2021.2.3,59.99221310509327,
,,,,9,0,9,0,,,,,,,,,,,,,,,,,,,,,,,,,,,,,,,,,,,,,,,,,,,,,,,,,,,,,,,,,1261.5177040994167,None,,,,,,,,,,,,,,,,,1259.5156923001632,None,,,,,,,,,,,,,,,,,,,,,,,,,,,,,,,,,,,,,,,,,,,,,,,,,,,,,,,,38YB,001,2023_Apr_12_1610,ExactRep-v3-final,2021.2.3,59.99221310509327,
,,,,10,0,10,0,,,,,,,,,,,,,,,,,,,,,,,,,,,,,,,,,,,,,,,,,,,,,,,,,,,,,,,,,1264.0202762996778,None,,,,,,,,,,,,,,,,,1262.0181472999975,None,,,,,,,,,,,,,,,,,,,,,,,,,,,,,,,,,,,,,,,,,,,,,,,,,,,,,,,,38YB,001,2023_Apr_12_1610,ExactRep-v3-final,2021.2.3,59.99221310509327,
,,,,11,0,11,0,,,,,,,,,,,,,,,,,,,,,,,,,,,,,,,,,,,,,,,,,,,,,,,,,,,,,,,,,1266.5226852996275,None,,,,,,,,,,,,,,,,,1264.5207762997597,None,,,,,,,,,,,,,,,,,,,,,,,,,,,,,,,,,,,,,,,,,,,,,,,,,,,,,,,,38YB,001,2023_Apr_12_1610,ExactRep-v3-final,2021.2.3,59.99221310509327,
,,,,12,0,12,0,,,,,,,,,,,,,,,,,,,,,,,,,,,,,,,,,,,,,,,,,,,,,,,,,,,,,,,,,1269.0252251001075,None,,,,,,,,,,,,,,,,,1267.0230652000755,None,,,,,,,,,,,,,,,,,,,,,,,,,,,,,,,,,,,,,,,,,,,,,,,,,,,,,,,,38YB,001,2023_Apr_12_1610,ExactRep-v3-final,2021.2.3,59.99221310509327,
,,,,13,0,13,0,,,,,,,,,,,,,,,,,,,,,,,,,,,,,,,,,,,,,,,,,,,,,,,,,,,,,,,,,1271.5275240996853,None,,,,,,,,,,,,,,,,,1269.5257478998974,None,,,,,,,,,,,,,,,,,,,,,,,,,,,,,,,,,,,,,,,,,,,,,,,,,,,,,,,,38YB,001,2023_Apr_12_1610,ExactRep-v3-final,2021.2.3,59.99221310509327,
,,,,14,0,14,0,,,,,,,,,,,,,,,,,,,,,,,,,,,,,,,,,,,,,,,,,,,,,,,,,,,,,,,,,1274.0302203996107,None,,,,,,,,,,,,,,,,,1272.0280561996624,None,,,,,,,,,,,,,,,,,,,,,,,,,,,,,,,,,,,,,,,,,,,,,,,,,,,,,,,,38YB,001,2023_Apr_12_1610,ExactRep-v3-final,2021.2.3,59.99221310509327,
,,,,,,,,,,,,,,,,,,,,,,,,,,,,,,,,,,,,,,,,,,,,,,,,,,,,,,,,,,,,,,,,,,,,,,,,,,,,,,,,,,,,space,13.65325259976089,1284.6961762998253,None,,,,,,,,,,,,,,,,,,,,,,,,,,,,,,,,,,,,,,,,,,,,,,,,,,,,38YB,001,2023_Apr_12_1610,ExactRep-v3-final,2021.2.3,59.99221310509327,
,,,,,,,,0,0,0,0,,,,,,,,,,,,,,,,,,,,,,,,,,,,,,,,,,,,,,,,,,,,,,,,,,,,,1300.4399063000455,None,,,,,,,,,,,,,,,,,,,,,,,1274.674710500054,None,1274.674710500054,None,1274.674710500054,None,1274.674710500054,None,1274.674710500054,None,1274.674710500054,None,weapon,117,1,aloud,red,1298.4245662996545,None,None,1298.4245662996545,None,,,,,,,,,,,,,,,,,,,,,,,,,,,,,,38YB,001,2023_Apr_12_1610,ExactRep-v3-final,2021.2.3,59.99221310509327,
,,,,,,,,1,0,1,0,,,,,,,,,,,,,,,,,,,,,,,,,,,,,,,,,,,,,,,,,,,,,,,,,,,,,1302.9591608997434,None,,,,,,,,,,,,,,,,,,,,,,,,,,,,,,,,,,,justice,45,2,silent,white,1300.9494350999594,None,None,1300.9494350999594,None,,,,,,,,,,,,,,,,,,,,,,,,,,,,,,38YB,001,2023_Apr_12_1610,ExactRep-v3-final,2021.2.3,59.99221310509327,
,,,,,,,,2,0,2,0,,,,,,,,,,,,,,,,,,,,,,,,,,,,,,,,,,,,,,,,,,,,,,,,,,,,,1305.4781732996926,None,,,,,,,,,,,,,,,,,,,,,,,,,,,,,,,,,,,fact,119,3,aloud,red,1303.4649637993425,None,None,1303.4649637993425,None,,,,,,,,,,,,,,,,,,,,,,,,,,,,,,38YB,001,2023_Apr_12_1610,ExactRep-v3-final,2021.2.3,59.99221310509327,
,,,,,,,,3,0,3,0,,,,,,,,,,,,,,,,,,,,,,,,,,,,,,,,,,,,,,,,,,,,,,,,,,,,,1307.9973229998723,None,,,,,,,,,,,,,,,,,,,,,,,,,,,,,,,,,,,trouble,113,4,aloud,red,1305.986060699448,None,None,1305.986060699448,None,,,,,,,,,,,,,,,,,,,,,,,,,,,,,,38YB,001,2023_Apr_12_1610,ExactRep-v3-final,2021.2.3,59.99221310509327,
,,,,,,,,4,0,4,0,,,,,,,,,,,,,,,,,,,,,,,,,,,,,,,,,,,,,,,,,,,,,,,,,,,,,1310.5166231999174,None,,,,,,,,,,,,,,,,,,,,,,,,,,,,,,,,,,,army,94,5,aloud,red,1308.5068964995444,None,None,1308.5068964995444,None,,,,,,,,,,,,,,,,,,,,,,,,,,,,,,38YB,001,2023_Apr_12_1610,ExactRep-v3-final,2021.2.3,59.99221310509327,
,,,,,,,,5,0,5,0,,,,,,,,,,,,,,,,,,,,,,,,,,,,,,,,,,,,,,,,,,,,,,,,,,,,,1313.0359106995165,None,,,,,,,,,,,,,,,,,,,,,,,,,,,,,,,,,,,market,14,6,sing,blue,1311.0205432996154,None,None,1311.0205432996154,None,,,,,,,,,,,,,,,,,,,,,,,,,,,,,,38YB,001,2023_Apr_12_1610,ExactRep-v3-final,2021.2.3,59.99221310509327,
,,,,,,,,6,0,6,0,,,,,,,,,,,,,,,,,,,,,,,,,,,,,,,,,,,,,,,,,,,,,,,,,,,,,1315.5384521996602,None,,,,,,,,,,,,,,,,,,,,,,,,,,,,,,,,,,,mind,85,7,aloud,red,1313.5383478999138,None,None,1313.5383478999138,None,,,,,,,,,,,,,,,,,,,,,,,,,,,,,,38YB,001,2023_Apr_12_1610,ExactRep-v3-final,2021.2.3,59.99221310509327,
,,,,,,,,7,0,7,0,,,,,,,,,,,,,,,,,,,,,,,,,,,,,,,,,,,,,,,,,,,,,,,,,,,,,1318.0574185000733,None,,,,,,,,,,,,,,,,,,,,,,,,,,,,,,,,,,,engine,20,8,sing,blue,1316.0467627998441,None,None,1316.0467627998441,None,,,,,,,,,,,,,,,,,,,,,,,,,,,,,,38YB,001,2023_Apr_12_1610,ExactRep-v3-final,2021.2.3,59.99221310509327,
,,,,,,,,8,0,8,0,,,,,,,,,,,,,,,,,,,,,,,,,,,,,,,,,,,,,,,,,,,,,,,,,,,,,1320.5600911993533,None,,,,,,,,,,,,,,,,,,,,,,,,,,,,,,,,,,,cottage,41,9,silent,white,1318.5580420996994,None,None,1318.5580420996994,None,,,,,,,,,,,,,,,,,,,,,,,,,,,,,,38YB,001,2023_Apr_12_1610,ExactRep-v3-final,2021.2.3,59.99221310509327,
,,,,,,,,9,0,9,0,,,,,,,,,,,,,,,,,,,,,,,,,,,,,,,,,,,,,,,,,,,,,,,,,,,,,1323.0790764000267,None,,,,,,,,,,,,,,,,,,,,,,,,,,,,,,,,,,,board,81,10,aloud,red,1321.0635968996212,None,None,1321.0635968996212,None,,,,,,,,,,,,,,,,,,,,,,,,,,,,,,38YB,001,2023_Apr_12_1610,ExactRep-v3-final,2021.2.3,59.99221310509327,
,,,,,,,,10,0,10,0,,,,,,,,,,,,,,,,,,,,,,,,,,,,,,,,,,,,,,,,,,,,,,,,,,,,,1325.5818190993741,None,,,,,,,,,,,,,,,,,,,,,,,,,,,,,,,,,,,ocean,55,11,silent,white,1323.5795879000798,None,None,1323.5795879000798,None,,,,,,,,,,,,,,,,,,,,,,,,,,,,,,38YB,001,2023_Apr_12_1610,ExactRep-v3-final,2021.2.3,59.99221310509327,
,,,,,,,,11,0,11,0,,,,,,,,,,,,,,,,,,,,,,,,,,,,,,,,,,,,,,,,,,,,,,,,,,,,,1328.0842677997425,None,,,,,,,,,,,,,,,,,,,,,,,,,,,,,,,,,,,lad,56,12,silent,white,1326.0839733993635,None,None,1326.0839733993635,None,,,,,,,,,,,,,,,,,,,,,,,,,,,,,,38YB,001,2023_Apr_12_1610,ExactRep-v3-final,2021.2.3,59.99221310509327,
,,,,,,,,12,0,12,0,,,,,,,,,,,,,,,,,,,,,,,,,,,,,,,,,,,,,,,,,,,,,,,,,,,,,1330.6034615002573,None,,,,,,,,,,,,,,,,,,,,,,,,,,,,,,,,,,,month,74,13,silent,white,1328.5932024996728,None,None,1328.5932024996728,None,,,,,,,,,,,,,,,,,,,,,,,,,,,,,,38YB,001,2023_Apr_12_1610,ExactRep-v3-final,2021.2.3,59.99221310509327,
,,,,,,,,13,0,13,0,,,,,,,,,,,,,,,,,,,,,,,,,,,,,,,,,,,,,,,,,,,,,,,,,,,,,1333.105948199518,None,,,,,,,,,,,,,,,,,,,,,,,,,,,,,,,,,,,mother,66,14,silent,white,1331.10503649991,None,None,1331.10503649991,None,,,,,,,,,,,,,,,,,,,,,,,,,,,,,,38YB,001,2023_Apr_12_1610,ExactRep-v3-final,2021.2.3,59.99221310509327,
,,,,,,,,14,0,14,0,,,,,,,,,,,,,,,,,,,,,,,,,,,,,,,,,,,,,,,,,,,,,,,,,,,,,1335.6251451000571,None,,,,,,,,,,,,,,,,,,,,,,,,,,,,,,,,,,,hotel,87,15,aloud,red,1333.6096738995984,None,None,1333.6096738995984,None,,,,,,,,,,,,,,,,,,,,,,,,,,,,,,38YB,001,2023_Apr_12_1610,ExactRep-v3-final,2021.2.3,59.99221310509327,
,,,,,,,,15,0,15,0,,,,,,,,,,,,,,,,,,,,,,,,,,,,,,,,,,,,,,,,,,,,,,,,,,,,,1338.1276337001473,None,,,,,,,,,,,,,,,,,,,,,,,,,,,,,,,,,,,car,37,16,sing,blue,1336.1278174994513,None,None,1336.1278174994513,None,,,,,,,,,,,,,,,,,,,,,,,,,,,,,,38YB,001,2023_Apr_12_1610,ExactRep-v3-final,2021.2.3,59.99221310509327,
,,,,,,,,16,0,16,0,,,,,,,,,,,,,,,,,,,,,,,,,,,,,,,,,,,,,,,,,,,,,,,,,,,,,1340.630219699815,None,,,,,,,,,,,,,,,,,,,,,,,,,,,,,,,,,,,cat,34,17,sing,blue,1338.6303530996665,None,None,1338.6303530996665,None,,,,,,,,,,,,,,,,,,,,,,,,,,,,,,38YB,001,2023_Apr_12_1610,ExactRep-v3-final,2021.2.3,59.99221310509327,
,,,,,,,,17,0,17,0,,,,,,,,,,,,,,,,,,,,,,,,,,,,,,,,,,,,,,,,,,,,,,,,,,,,,1343.149303900078,None,,,,,,,,,,,,,,,,,,,,,,,,,,,,,,,,,,,bowl,10,18,sing,blue,1341.1380776995793,None,None,1341.1380776995793,None,,,,,,,,,,,,,,,,,,,,,,,,,,,,,,38YB,001,2023_Apr_12_1610,ExactRep-v3-final,2021.2.3,59.99221310509327,
,,,,,,,,18,0,18,0,,,,,,,,,,,,,,,,,,,,,,,,,,,,,,,,,,,,,,,,,,,,,,,,,,,,,1345.6516407001764,None,,,,,,,,,,,,,,,,,,,,,,,,,,,,,,,,,,,fur,77,19,silent,white,1343.6508916998282,None,None,1343.6508916998282,None,,,,,,,,,,,,,,,,,,,,,,,,,,,,,,38YB,001,2023_Apr_12_1610,ExactRep-v3-final,2021.2.3,59.99221310509327,
,,,,,,,,19,0,19,0,,,,,,,,,,,,,,,,,,,,,,,,,,,,,,,,,,,,,,,,,,,,,,,,,,,,,1348.1710259998217,None,,,,,,,,,,,,,,,,,,,,,,,,,,,,,,,,,,,forest,91,20,aloud,red,1346.1608374994248,None,None,1346.1608374994248,None,,,,,,,,,,,,,,,,,,,,,,,,,,,,,,38YB,001,2023_Apr_12_1610,ExactRep-v3-final,2021.2.3,59.99221310509327,
,,,,,,,,20,0,20,0,,,,,,,,,,,,,,,,,,,,,,,,,,,,,,,,,,,,,,,,,,,,,,,,,,,,,1350.6735836993903,None,,,,,,,,,,,,,,,,,,,,,,,,,,,,,,,,,,,blood,36,21,sing,blue,1348.6745541002601,None,None,1348.6745541002601,None,,,,,,,,,,,,,,,,,,,,,,,,,,,,,,38YB,001,2023_Apr_12_1610,ExactRep-v3-final,2021.2.3,59.99221310509327,
,,,,,,,,21,0,21,0,,,,,,,,,,,,,,,,,,,,,,,,,,,,,,,,,,,,,,,,,,,,,,,,,,,,,1353.1760785002261,None,,,,,,,,,,,,,,,,,,,,,,,,,,,,,,,,,,,nail,71,22,silent,white,1351.1763589996845,None,None,1351.1763589996845,None,,,,,,,,,,,,,,,,,,,,,,,,,,,,,,38YB,001,2023_Apr_12_1610,ExactRep-v3-final,2021.2.3,59.99221310509327,
,,,,,,,,22,0,22,0,,,,,,,,,,,,,,,,,,,,,,,,,,,,,,,,,,,,,,,,,,,,,,,,,,,,,1355.6949880998582,None,,,,,,,,,,,,,,,,,,,,,,,,,,,,,,,,,,,present,17,23,sing,blue,1353.6819538995624,None,None,1353.6819538995624,None,,,,,,,,,,,,,,,,,,,,,,,,,,,,,,38YB,001,2023_Apr_12_1610,ExactRep-v3-final,2021.2.3,59.99221310509327,
,,,,,,,,23,0,23,0,,,,,,,,,,,,,,,,,,,,,,,,,,,,,,,,,,,,,,,,,,,,,,,,,,,,,1358.1975309997797,None,,,,,,,,,,,,,,,,,,,,,,,,,,,,,,,,,,,window,104,24,aloud,red,1356.1955205993727,None,None,1356.1955205993727,None,,,,,,,,,,,,,,,,,,,,,,,,,,,,,,38YB,001,2023_Apr_12_1610,ExactRep-v3-final,2021.2.3,59.99221310509327,
,,,,,,,,24,0,24,0,,,,,,,,,,,,,,,,,,,,,,,,,,,,,,,,,,,,,,,,,,,,,,,,,,,,,1360.7000375995412,None,,,,,,,,,,,,,,,,,,,,,,,,,,,,,,,,,,,corn,5,25,sing,blue,1358.6980165001005,None,None,1358.6980165001005,None,,,,,,,,,,,,,,,,,,,,,,,,,,,,,,38YB,001,2023_Apr_12_1610,ExactRep-v3-final,2021.2.3,59.99221310509327,
,,,,,,,,25,0,25,0,,,,,,,,,,,,,,,,,,,,,,,,,,,,,,,,,,,,,,,,,,,,,,,,,,,,,1363.202539799735,None,,,,,,,,,,,,,,,,,,,,,,,,,,,,,,,,,,,kiss,118,26,aloud,red,1361.2006711000577,None,None,1361.2006711000577,None,,,,,,,,,,,,,,,,,,,,,,,,,,,,,,38YB,001,2023_Apr_12_1610,ExactRep-v3-final,2021.2.3,59.99221310509327,
,,,,,,,,26,0,26,0,,,,,,,,,,,,,,,,,,,,,,,,,,,,,,,,,,,,,,,,,,,,,,,,,,,,,1365.7219683993608,None,,,,,,,,,,,,,,,,,,,,,,,,,,,,,,,,,,,master,106,27,aloud,red,1363.712801599875,None,None,1363.712801599875,None,,,,,,,,,,,,,,,,,,,,,,,,,,,,,,38YB,001,2023_Apr_12_1610,ExactRep-v3-final,2021.2.3,59.99221310509327,
,,,,,,,,27,0,27,0,,,,,,,,,,,,,,,,,,,,,,,,,,,,,,,,,,,,,,,,,,,,,,,,,,,,,1368.2410654993728,None,,,,,,,,,,,,,,,,,,,,,,,,,,,,,,,,,,,ability,9,28,sing,blue,1366.2261386997998,None,None,1366.2261386997998,None,,,,,,,,,,,,,,,,,,,,,,,,,,,,,,38YB,001,2023_Apr_12_1610,ExactRep-v3-final,2021.2.3,59.99221310509327,
,,,,,,,,28,0,28,0,,,,,,,,,,,,,,,,,,,,,,,,,,,,,,,,,,,,,,,,,,,,,,,,,,,,,1370.7436327999458,None,,,,,,,,,,,,,,,,,,,,,,,,,,,,,,,,,,,skin,88,29,aloud,red,1368.7425454994664,None,None,1368.7425454994664,None,,,,,,,,,,,,,,,,,,,,,,,,,,,,,,38YB,001,2023_Apr_12_1610,ExactRep-v3-final,2021.2.3,59.99221310509327,
,,,,,,,,29,0,29,0,,,,,,,,,,,,,,,,,,,,,,,,,,,,,,,,,,,,,,,,,,,,,,,,,,,,,1373.246070199646,None,,,,,,,,,,,,,,,,,,,,,,,,,,,,,,,,,,,history,90,30,aloud,red,1371.245453500189,None,None,1371.245453500189,None,,,,,,,,,,,,,,,,,,,,,,,,,,,,,,38YB,001,2023_Apr_12_1610,ExactRep-v3-final,2021.2.3,59.99221310509327,
,,,,,,,,30,0,30,0,,,,,,,,,,,,,,,,,,,,,,,,,,,,,,,,,,,,,,,,,,,,,,,,,,,,,1375.7485959995538,None,,,,,,,,,,,,,,,,,,,,,,,,,,,,,,,,,,,shoes,11,31,sing,blue,1373.7464410997927,None,None,1373.7464410997927,None,,,,,,,,,,,,,,,,,,,,,,,,,,,,,,38YB,001,2023_Apr_12_1610,ExactRep-v3-final,2021.2.3,59.99221310509327,
,,,,,,,,31,0,31,0,,,,,,,,,,,,,,,,,,,,,,,,,,,,,,,,,,,,,,,,,,,,,,,,,,,,,1378.26782310009,None,,,,,,,,,,,,,,,,,,,,,,,,,,,,,,,,,,,effort,73,32,silent,white,1376.2548616994172,None,None,1376.2548616994172,None,,,,,,,,,,,,,,,,,,,,,,,,,,,,,,38YB,001,2023_Apr_12_1610,ExactRep-v3-final,2021.2.3,59.99221310509327,
,,,,,,,,32,0,32,0,,,,,,,,,,,,,,,,,,,,,,,,,,,,,,,,,,,,,,,,,,,,,,,,,,,,,1380.7702871998772,None,,,,,,,,,,,,,,,,,,,,,,,,,,,,,,,,,,,home,52,33,silent,white,1378.7682355996221,None,None,1378.7682355996221,None,,,,,,,,,,,,,,,,,,,,,,,,,,,,,,38YB,001,2023_Apr_12_1610,ExactRep-v3-final,2021.2.3,59.99221310509327,
,,,,,,,,33,0,33,0,,,,,,,,,,,,,,,,,,,,,,,,,,,,,,,,,,,,,,,,,,,,,,,,,,,,,1383.289171599783,None,,,,,,,,,,,,,,,,,,,,,,,,,,,,,,,,,,,shame,48,34,silent,white,1381.2794915996492,None,None,1381.2794915996492,None,,,,,,,,,,,,,,,,,,,,,,,,,,,,,,38YB,001,2023_Apr_12_1610,ExactRep-v3-final,2021.2.3,59.99221310509327,
,,,,,,,,34,0,34,0,,,,,,,,,,,,,,,,,,,,,,,,,,,,,,,,,,,,,,,,,,,,,,,,,,,,,1385.8084095995873,None,,,,,,,,,,,,,,,,,,,,,,,,,,,,,,,,,,,friend,50,35,silent,white,1383.793775900267,None,None,1383.793775900267,None,,,,,,,,,,,,,,,,,,,,,,,,,,,,,,38YB,001,2023_Apr_12_1610,ExactRep-v3-final,2021.2.3,59.99221310509327,
,,,,,,,,35,0,35,0,,,,,,,,,,,,,,,,,,,,,,,,,,,,,,,,,,,,,,,,,,,,,,,,,,,,,1388.3118492998183,None,,,,,,,,,,,,,,,,,,,,,,,,,,,,,,,,,,,soil,54,36,silent,white,1386.3090322995558,None,None,1386.3090322995558,None,,,,,,,,,,,,,,,,,,,,,,,,,,,,,,38YB,001,2023_Apr_12_1610,ExactRep-v3-final,2021.2.3,59.99221310509327,
,,,,,,,,36,0,36,0,,,,,,,,,,,,,,,,,,,,,,,,,,,,,,,,,,,,,,,,,,,,,,,,,,,,,1390.8136411001906,None,,,,,,,,,,,,,,,,,,,,,,,,,,,,,,,,,,,troops,6,37,sing,blue,1388.8131130998954,None,None,1388.8131130998954,None,,,,,,,,,,,,,,,,,,,,,,,,,,,,,,38YB,001,2023_Apr_12_1610,ExactRep-v3-final,2021.2.3,59.99221310509327,
,,,,,,,,37,0,37,0,,,,,,,,,,,,,,,,,,,,,,,,,,,,,,,,,,,,,,,,,,,,,,,,,,,,,1393.3326485995203,None,,,,,,,,,,,,,,,,,,,,,,,,,,,,,,,,,,,honour,0,38,sing,blue,1391.3228075997904,None,None,1391.3228075997904,None,,,,,,,,,,,,,,,,,,,,,,,,,,,,,,38YB,001,2023_Apr_12_1610,ExactRep-v3-final,2021.2.3,59.99221310509327,
,,,,,,,,38,0,38,0,,,,,,,,,,,,,,,,,,,,,,,,,,,,,,,,,,,,,,,,,,,,,,,,,,,,,1395.8518538996577,None,,,,,,,,,,,,,,,,,,,,,,,,,,,,,,,,,,,wife,16,39,sing,blue,1393.839098399505,None,None,1393.839098399505,None,,,,,,,,,,,,,,,,,,,,,,,,,,,,,,38YB,001,2023_Apr_12_1610,ExactRep-v3-final,2021.2.3,59.99221310509327,
,,,,,,,,39,0,39,0,,,,,,,,,,,,,,,,,,,,,,,,,,,,,,,,,,,,,,,,,,,,,,,,,,,,,1398.3545685997233,None,,,,,,,,,,,,,,,,,,,,,,,,,,,,,,,,,,,product,51,40,silent,white,1396.3525196993724,None,None,1396.3525196993724,None,,,,,,,,,,,,,,,,,,,,,,,,,,,,,,38YB,001,2023_Apr_12_1610,ExactRep-v3-final,2021.2.3,59.99221310509327,
,,,,,,,,40,0,40,0,,,,,,,,,,,,,,,,,,,,,,,,,,,,,,,,,,,,,,,,,,,,,,,,,,,,,1400.857059199363,None,,,,,,,,,,,,,,,,,,,,,,,,,,,,,,,,,,,coast,40,41,silent,white,1398.8568712994456,None,None,1398.8568712994456,None,,,,,,,,,,,,,,,,,,,,,,,,,,,,,,38YB,001,2023_Apr_12_1610,ExactRep-v3-final,2021.2.3,59.99221310509327,
,,,,,,,,41,0,41,0,,,,,,,,,,,,,,,,,,,,,,,,,,,,,,,,,,,,,,,,,,,,,,,,,,,,,1403.376212399453,None,,,,,,,,,,,,,,,,,,,,,,,,,,,,,,,,,,,air,43,42,silent,white,1401.3614395996556,None,None,1401.3614395996556,None,,,,,,,,,,,,,,,,,,,,,,,,,,,,,,38YB,001,2023_Apr_12_1610,ExactRep-v3-final,2021.2.3,59.99221310509327,
,,,,,,,,42,0,42,0,,,,,,,,,,,,,,,,,,,,,,,,,,,,,,,,,,,,,,,,,,,,,,,,,,,,,1405.8953980999067,None,,,,,,,,,,,,,,,,,,,,,,,,,,,,,,,,,,,vision,69,43,silent,white,1403.8831358999014,None,None,1403.8831358999014,None,,,,,,,,,,,,,,,,,,,,,,,,,,,,,,38YB,001,2023_Apr_12_1610,ExactRep-v3-final,2021.2.3,59.99221310509327,
,,,,,,,,43,0,43,0,,,,,,,,,,,,,,,,,,,,,,,,,,,,,,,,,,,,,,,,,,,,,,,,,,,,,1408.4144890997559,None,,,,,,,,,,,,,,,,,,,,,,,,,,,,,,,,,,,church,75,44,silent,white,1406.4053595000878,None,None,1406.4053595000878,None,,,,,,,,,,,,,,,,,,,,,,,,,,,,,,38YB,001,2023_Apr_12_1610,ExactRep-v3-final,2021.2.3,59.99221310509327,
,,,,,,,,44,0,44,0,,,,,,,,,,,,,,,,,,,,,,,,,,,,,,,,,,,,,,,,,,,,,,,,,,,,,1410.9169421000406,None,,,,,,,,,,,,,,,,,,,,,,,,,,,,,,,,,,,machine,115,45,aloud,red,1408.9149628002197,None,None,1408.9149628002197,None,,,,,,,,,,,,,,,,,,,,,,,,,,,,,,38YB,001,2023_Apr_12_1610,ExactRep-v3-final,2021.2.3,59.99221310509327,
,,,,,,,,45,0,45,0,,,,,,,,,,,,,,,,,,,,,,,,,,,,,,,,,,,,,,,,,,,,,,,,,,,,,1413.4359965994954,None,,,,,,,,,,,,,,,,,,,,,,,,,,,,,,,,,,,money,29,46,sing,blue,1411.4218319999054,None,None,1411.4218319999054,None,,,,,,,,,,,,,,,,,,,,,,,,,,,,,,38YB,001,2023_Apr_12_1610,ExactRep-v3-final,2021.2.3,59.99221310509327,
,,,,,,,,46,0,46,0,,,,,,,,,,,,,,,,,,,,,,,,,,,,,,,,,,,,,,,,,,,,,,,,,,,,,1415.9565142998472,None,,,,,,,,,,,,,,,,,,,,,,,,,,,,,,,,,,,tree,96,47,aloud,red,1413.9438757998869,None,None,1413.9438757998869,None,,,,,,,,,,,,,,,,,,,,,,,,,,,,,,38YB,001,2023_Apr_12_1610,ExactRep-v3-final,2021.2.3,59.99221310509327,
,,,,,,,,47,0,47,0,,,,,,,,,,,,,,,,,,,,,,,,,,,,,,,,,,,,,,,,,,,,,,,,,,,,,1418.4579470995814,None,,,,,,,,,,,,,,,,,,,,,,,,,,,,,,,,,,,circle,67,48,silent,white,1416.4557924000546,None,None,1416.4557924000546,None,,,,,,,,,,,,,,,,,,,,,,,,,,,,,,38YB,001,2023_Apr_12_1610,ExactRep-v3-final,2021.2.3,59.99221310509327,
,,,,,,,,48,0,48,0,,,,,,,,,,,,,,,,,,,,,,,,,,,,,,,,,,,,,,,,,,,,,,,,,,,,,1420.9604706997052,None,,,,,,,,,,,,,,,,,,,,,,,,,,,,,,,,,,,fortune,79,49,sing,blue,1418.9598402995616,None,None,1418.9598402995616,None,,,,,,,,,,,,,,,,,,,,,,,,,,,,,,38YB,001,2023_Apr_12_1610,ExactRep-v3-final,2021.2.3,59.99221310509327,
,,,,,,,,49,0,49,0,,,,,,,,,,,,,,,,,,,,,,,,,,,,,,,,,,,,,,,,,,,,,,,,,,,,,1423.4794263001531,None,,,,,,,,,,,,,,,,,,,,,,,,,,,,,,,,,,,excuse,89,50,aloud,red,1421.465213299729,None,None,1421.465213299729,None,,,,,,,,,,,,,,,,,,,,,,,,,,,,,,38YB,001,2023_Apr_12_1610,ExactRep-v3-final,2021.2.3,59.99221310509327,
,,,,,,,,50,0,50,0,,,,,,,,,,,,,,,,,,,,,,,,,,,,,,,,,,,,,,,,,,,,,,,,,,,,,1425.982136500068,None,,,,,,,,,,,,,,,,,,,,,,,,,,,,,,,,,,,pipe,97,51,aloud,red,1423.9815125996247,None,None,1423.9815125996247,None,,,,,,,,,,,,,,,,,,,,,,,,,,,,,,38YB,001,2023_Apr_12_1610,ExactRep-v3-final,2021.2.3,59.99221310509327,
,,,,,,,,51,0,51,0,,,,,,,,,,,,,,,,,,,,,,,,,,,,,,,,,,,,,,,,,,,,,,,,,,,,,1428.48449289985,None,,,,,,,,,,,,,,,,,,,,,,,,,,,,,,,,,,,string,28,52,sing,blue,1426.4827690999955,None,None,1426.4827690999955,None,,,,,,,,,,,,,,,,,,,,,,,,,,,,,,38YB,001,2023_Apr_12_1610,ExactRep-v3-final,2021.2.3,59.99221310509327,
,,,,,,,,52,0,52,0,,,,,,,,,,,,,,,,,,,,,,,,,,,,,,,,,,,,,,,,,,,,,,,,,,,,,1430.9872024999931,None,,,,,,,,,,,,,,,,,,,,,,,,,,,,,,,,,,,chance,22,53,sing,blue,1428.9851265996695,None,None,1428.9851265996695,None,,,,,,,,,,,,,,,,,,,,,,,,,,,,,,38YB,001,2023_Apr_12_1610,ExactRep-v3-final,2021.2.3,59.99221310509327,
,,,,,,,,53,0,53,0,,,,,,,,,,,,,,,,,,,,,,,,,,,,,,,,,,,,,,,,,,,,,,,,,,,,,1433.5061798999086,None,,,,,,,,,,,,,,,,,,,,,,,,,,,,,,,,,,,season,38,54,sing,blue,1431.490653399378,None,None,1431.490653399378,None,,,,,,,,,,,,,,,,,,,,,,,,,,,,,,38YB,001,2023_Apr_12_1610,ExactRep-v3-final,2021.2.3,59.99221310509327,
,,,,,,,,54,0,54,0,,,,,,,,,,,,,,,,,,,,,,,,,,,,,,,,,,,,,,,,,,,,,,,,,,,,,1436.009004900232,None,,,,,,,,,,,,,,,,,,,,,,,,,,,,,,,,,,,plain,1,55,sing,blue,1434.0066991001368,None,None,1434.0066991001368,None,,,,,,,,,,,,,,,,,,,,,,,,,,,,,,38YB,001,2023_Apr_12_1610,ExactRep-v3-final,2021.2.3,59.99221310509327,
,,,,,,,,55,0,55,0,,,,,,,,,,,,,,,,,,,,,,,,,,,,,,,,,,,,,,,,,,,,,,,,,,,,,1438.5278789000586,None,,,,,,,,,,,,,,,,,,,,,,,,,,,,,,,,,,,steam,53,56,silent,white,1436.5187577996403,None,None,1436.5187577996403,None,,,,,,,,,,,,,,,,,,,,,,,,,,,,,,38YB,001,2023_Apr_12_1610,ExactRep-v3-final,2021.2.3,59.99221310509327,
,,,,,,,,56,0,56,0,,,,,,,,,,,,,,,,,,,,,,,,,,,,,,,,,,,,,,,,,,,,,,,,,,,,,1441.0305629996583,None,,,,,,,,,,,,,,,,,,,,,,,,,,,,,,,,,,,clock,24,57,sing,blue,1439.0283626001328,None,None,1439.0283626001328,None,,,,,,,,,,,,,,,,,,,,,,,,,,,,,,38YB,001,2023_Apr_12_1610,ExactRep-v3-final,2021.2.3,59.99221310509327,
,,,,,,,,57,0,57,0,,,,,,,,,,,,,,,,,,,,,,,,,,,,,,,,,,,,,,,,,,,,,,,,,,,,,1443.5494029996917,None,,,,,,,,,,,,,,,,,,,,,,,,,,,,,,,,,,,wine,63,58,silent,white,1441.5396370999515,None,None,1441.5396370999515,None,,,,,,,,,,,,,,,,,,,,,,,,,,,,,,38YB,001,2023_Apr_12_1610,ExactRep-v3-final,2021.2.3,59.99221310509327,
,,,,,,,,58,0,58,0,,,,,,,,,,,,,,,,,,,,,,,,,,,,,,,,,,,,,,,,,,,,,,,,,,,,,1446.0686935000122,None,,,,,,,,,,,,,,,,,,,,,,,,,,,,,,,,,,,answer,76,59,silent,white,1444.0556496996433,None,None,1444.0556496996433,None,,,,,,,,,,,,,,,,,,,,,,,,,,,,,,38YB,001,2023_Apr_12_1610,ExactRep-v3-final,2021.2.3,59.99221310509327,
,,,,,,,,59,0,59,0,,,,,,,,,,,,,,,,,,,,,,,,,,,,,,,,,,,,,,,,,,,,,,,,,,,,,1448.571232699789,None,,,,,,,,,,,,,,,,,,,,,,,,,,,,,,,,,,,arm,47,60,silent,white,1446.5692679993808,None,None,1446.5692679993808,None,,,,,,,,,,,,,,,,,,,,,,,,,,,,,,38YB,001,2023_Apr_12_1610,ExactRep-v3-final,2021.2.3,59.99221310509327,
,,,,,,,,60,0,60,0,,,,,,,,,,,,,,,,,,,,,,,,,,,,,,,,,,,,,,,,,,,,,,,,,,,,,1451.0906283995137,None,,,,,,,,,,,,,,,,,,,,,,,,,,,,,,,,,,,king,99,61,aloud,red,1449.075803999789,None,None,1449.075803999789,None,,,,,,,,,,,,,,,,,,,,,,,,,,,,,,38YB,001,2023_Apr_12_1610,ExactRep-v3-final,2021.2.3,59.99221310509327,
,,,,,,,,61,0,61,0,,,,,,,,,,,,,,,,,,,,,,,,,,,,,,,,,,,,,,,,,,,,,,,,,,,,,1453.5931388000026,None,,,,,,,,,,,,,,,,,,,,,,,,,,,,,,,,,,,charm,64,62,silent,white,1451.5930335996673,None,None,1451.5930335996673,None,,,,,,,,,,,,,,,,,,,,,,,,,,,,,,38YB,001,2023_Apr_12_1610,ExactRep-v3-final,2021.2.3,59.99221310509327,
,,,,,,,,62,0,62,0,,,,,,,,,,,,,,,,,,,,,,,,,,,,,,,,,,,,,,,,,,,,,,,,,,,,,1456.112157699652,None,,,,,,,,,,,,,,,,,,,,,,,,,,,,,,,,,,,form,57,63,silent,white,1454.102311000228,None,None,1454.102311000228,None,,,,,,,,,,,,,,,,,,,,,,,,,,,,,,38YB,001,2023_Apr_12_1610,ExactRep-v3-final,2021.2.3,59.99221310509327,
,,,,,,,,63,0,63,0,,,,,,,,,,,,,,,,,,,,,,,,,,,,,,,,,,,,,,,,,,,,,,,,,,,,,1458.6145442994311,None,,,,,,,,,,,,,,,,,,,,,,,,,,,,,,,,,,,time,114,64,aloud,red,1456.6136333001778,None,None,1456.6136333001778,None,,,,,,,,,,,,,,,,,,,,,,,,,,,,,,38YB,001,2023_Apr_12_1610,ExactRep-v3-final,2021.2.3,59.99221310509327,
,,,,,,,,64,0,64,0,,,,,,,,,,,,,,,,,,,,,,,,,,,,,,,,,,,,,,,,,,,,,,,,,,,,,1461.1170864999294,None,,,,,,,,,,,,,,,,,,,,,,,,,,,,,,,,,,,silence,13,65,sing,blue,1459.115284299478,None,None,1459.115284299478,None,,,,,,,,,,,,,,,,,,,,,,,,,,,,,,38YB,001,2023_Apr_12_1610,ExactRep-v3-final,2021.2.3,59.99221310509327,
,,,,,,,,65,0,65,0,,,,,,,,,,,,,,,,,,,,,,,,,,,,,,,,,,,,,,,,,,,,,,,,,,,,,1463.6196109997109,None,,,,,,,,,,,,,,,,,,,,,,,,,,,,,,,,,,,camp,3,66,sing,blue,1461.6176119996235,None,None,1461.6176119996235,None,,,,,,,,,,,,,,,,,,,,,,,,,,,,,,38YB,001,2023_Apr_12_1610,ExactRep-v3-final,2021.2.3,59.99221310509327,
,,,,,,,,66,0,66,0,,,,,,,,,,,,,,,,,,,,,,,,,,,,,,,,,,,,,,,,,,,,,,,,,,,,,1466.1390173994005,None,,,,,,,,,,,,,,,,,,,,,,,,,,,,,,,,,,,length,62,67,silent,white,1464.1289694998413,None,None,1464.1289694998413,None,,,,,,,,,,,,,,,,,,,,,,,,,,,,,,38YB,001,2023_Apr_12_1610,ExactRep-v3-final,2021.2.3,59.99221310509327,
,,,,,,,,67,0,67,0,,,,,,,,,,,,,,,,,,,,,,,,,,,,,,,,,,,,,,,,,,,,,,,,,,,,,1468.6415253998712,None,,,,,,,,,,,,,,,,,,,,,,,,,,,,,,,,,,,duty,107,68,aloud,red,1466.64010769967,None,None,1466.64010769967,None,,,,,,,,,,,,,,,,,,,,,,,,,,,,,,38YB,001,2023_Apr_12_1610,ExactRep-v3-final,2021.2.3,59.99221310509327,
,,,,,,,,68,0,68,0,,,,,,,,,,,,,,,,,,,,,,,,,,,,,,,,,,,,,,,,,,,,,,,,,,,,,1471.1439723996446,None,,,,,,,,,,,,,,,,,,,,,,,,,,,,,,,,,,,lord,19,69,sing,blue,1469.1438915999606,None,None,1469.1438915999606,None,,,,,,,,,,,,,,,,,,,,,,,,,,,,,,38YB,001,2023_Apr_12_1610,ExactRep-v3-final,2021.2.3,59.99221310509327,
,,,,,,,,69,0,69,0,,,,,,,,,,,,,,,,,,,,,,,,,,,,,,,,,,,,,,,,,,,,,,,,,,,,,1473.6632131999359,None,,,,,,,,,,,,,,,,,,,,,,,,,,,,,,,,,,,library,83,70,aloud,red,1471.647767700255,None,None,1471.647767700255,None,,,,,,,,,,,,,,,,,,,,,,,,,,,,,,38YB,001,2023_Apr_12_1610,ExactRep-v3-final,2021.2.3,59.99221310509327,
,,,,,,,,70,0,70,0,,,,,,,,,,,,,,,,,,,,,,,,,,,,,,,,,,,,,,,,,,,,,,,,,,,,,1476.1824556998909,None,,,,,,,,,,,,,,,,,,,,,,,,,,,,,,,,,,,bottle,116,71,aloud,red,1474.1672693993896,None,None,1474.1672693993896,None,,,,,,,,,,,,,,,,,,,,,,,,,,,,,,38YB,001,2023_Apr_12_1610,ExactRep-v3-final,2021.2.3,59.99221310509327,
,,,,,,,,71,0,71,0,,,,,,,,,,,,,,,,,,,,,,,,,,,,,,,,,,,,,,,,,,,,,,,,,,,,,1478.7015244998038,None,,,,,,,,,,,,,,,,,,,,,,,,,,,,,,,,,,,hour,30,72,sing,blue,1476.693392300047,None,None,1476.693392300047,None,,,,,,,,,,,,,,,,,,,,,,,,,,,,,,38YB,001,2023_Apr_12_1610,ExactRep-v3-final,2021.2.3,59.99221310509327,
,,,,,,,,72,0,72,0,,,,,,,,,,,,,,,,,,,,,,,,,,,,,,,,,,,,,,,,,,,,,,,,,,,,,1481.2041637999937,None,,,,,,,,,,,,,,,,,,,,,,,,,,,,,,,,,,,tool,15,73,sing,blue,1479.2039513997734,None,None,1479.2039513997734,None,,,,,,,,,,,,,,,,,,,,,,,,,,,,,,38YB,001,2023_Apr_12_1610,ExactRep-v3-final,2021.2.3,59.99221310509327,
,,,,,,,,73,0,73,0,,,,,,,,,,,,,,,,,,,,,,,,,,,,,,,,,,,,,,,,,,,,,,,,,,,,,1483.7230096999556,None,,,,,,,,,,,,,,,,,,,,,,,,,,,,,,,,,,,breast,98,74,aloud,red,1481.7103025000542,None,None,1481.7103025000542,None,,,,,,,,,,,,,,,,,,,,,,,,,,,,,,38YB,001,2023_Apr_12_1610,ExactRep-v3-final,2021.2.3,59.99221310509327,
,,,,,,,,74,0,74,0,,,,,,,,,,,,,,,,,,,,,,,,,,,,,,,,,,,,,,,,,,,,,,,,,,,,,1486.242493899539,None,,,,,,,,,,,,,,,,,,,,,,,,,,,,,,,,,,,freedom,46,75,silent,white,1484.2343496000394,None,None,1484.2343496000394,None,,,,,,,,,,,,,,,,,,,,,,,,,,,,,,38YB,001,2023_Apr_12_1610,ExactRep-v3-final,2021.2.3,59.99221310509327,
,,,,,,,,75,0,75,0,,,,,,,,,,,,,,,,,,,,,,,,,,,,,,,,,,,,,,,,,,,,,,,,,,,,,1488.761810099706,None,,,,,,,,,,,,,,,,,,,,,,,,,,,,,,,,,,,maiden,26,76,sing,blue,1486.7576022995636,None,None,1486.7576022995636,None,,,,,,,,,,,,,,,,,,,,,,,,,,,,,,38YB,001,2023_Apr_12_1610,ExactRep-v3-final,2021.2.3,59.99221310509327,
,,,,,,,,76,0,76,0,,,,,,,,,,,,,,,,,,,,,,,,,,,,,,,,,,,,,,,,,,,,,,,,,,,,,1491.2641161000356,None,,,,,,,,,,,,,,,,,,,,,,,,,,,,,,,,,,,disease,8,77,sing,blue,1489.2619049996138,None,None,1489.2619049996138,None,,,,,,,,,,,,,,,,,,,,,,,,,,,,,,38YB,001,2023_Apr_12_1610,ExactRep-v3-final,2021.2.3,59.99221310509327,
,,,,,,,,77,0,77,0,,,,,,,,,,,,,,,,,,,,,,,,,,,,,,,,,,,,,,,,,,,,,,,,,,,,,1493.7664318997413,None,,,,,,,,,,,,,,,,,,,,,,,,,,,,,,,,,,,idea,68,78,silent,white,1491.7670189999044,None,None,1491.7670189999044,None,,,,,,,,,,,,,,,,,,,,,,,,,,,,,,38YB,001,2023_Apr_12_1610,ExactRep-v3-final,2021.2.3,59.99221310509327,
,,,,,,,,78,0,78,0,,,,,,,,,,,,,,,,,,,,,,,,,,,,,,,,,,,,,,,,,,,,,,,,,,,,,1496.2858330002055,None,,,,,,,,,,,,,,,,,,,,,,,,,,,,,,,,,,,artist,59,79,silent,white,1494.2786114998162,None,None,1494.2786114998162,None,,,,,,,,,,,,,,,,,,,,,,,,,,,,,,38YB,001,2023_Apr_12_1610,ExactRep-v3-final,2021.2.3,59.99221310509327,
,,,,,,,,79,0,79,0,,,,,,,,,,,,,,,,,,,,,,,,,,,,,,,,,,,,,,,,,,,,,,,,,,,,,1498.805012700148,None,,,,,,,,,,,,,,,,,,,,,,,,,,,,,,,,,,,judge,49,80,silent,white,1496.7938500000164,None,None,1496.7938500000164,None,,,,,,,,,,,,,,,,,,,,,,,,,,,,,,38YB,001,2023_Apr_12_1610,ExactRep-v3-final,2021.2.3,59.99221310509327,
,,,,,,,,80,0,80,0,,,,,,,,,,,,,,,,,,,,,,,,,,,,,,,,,,,,,,,,,,,,,,,,,,,,,1501.3240947993472,None,,,,,,,,,,,,,,,,,,,,,,,,,,,,,,,,,,,brain,39,81,silent,white,1499.30879919976,None,None,1499.30879919976,None,,,,,,,,,,,,,,,,,,,,,,,,,,,,,,38YB,001,2023_Apr_12_1610,ExactRep-v3-final,2021.2.3,59.99221310509327,
,,,,,,,,81,0,81,0,,,,,,,,,,,,,,,,,,,,,,,,,,,,,,,,,,,,,,,,,,,,,,,,,,,,,1503.8432054994628,None,,,,,,,,,,,,,,,,,,,,,,,,,,,,,,,,,,,heaven,27,82,sing,blue,1501.8282356997952,None,None,1501.8282356997952,None,,,,,,,,,,,,,,,,,,,,,,,,,,,,,,38YB,001,2023_Apr_12_1610,ExactRep-v3-final,2021.2.3,59.99221310509327,
,,,,,,,,82,0,82,0,,,,,,,,,,,,,,,,,,,,,,,,,,,,,,,,,,,,,,,,,,,,,,,,,,,,,1506.3457571994513,None,,,,,,,,,,,,,,,,,,,,,,,,,,,,,,,,,,,green,80,83,aloud,red,1504.3452679999173,None,None,1504.3452679999173,None,,,,,,,,,,,,,,,,,,,,,,,,,,,,,,38YB,001,2023_Apr_12_1610,ExactRep-v3-final,2021.2.3,59.99221310509327,
,,,,,,,,83,0,83,0,,,,,,,,,,,,,,,,,,,,,,,,,,,,,,,,,,,,,,,,,,,,,,,,,,,,,1508.865943999961,None,,,,,,,,,,,,,,,,,,,,,,,,,,,,,,,,,,,world,2,84,sing,blue,1506.8568906998262,None,None,1506.8568906998262,None,,,,,,,,,,,,,,,,,,,,,,,,,,,,,,38YB,001,2023_Apr_12_1610,ExactRep-v3-final,2021.2.3,59.99221310509327,
,,,,,,,,84,0,84,0,,,,,,,,,,,,,,,,,,,,,,,,,,,,,,,,,,,,,,,,,,,,,,,,,,,,,1511.384320399724,None,,,,,,,,,,,,,,,,,,,,,,,,,,,,,,,,,,,author,42,85,silent,white,1509.3704621000215,None,None,1509.3704621000215,None,,,,,,,,,,,,,,,,,,,,,,,,,,,,,,38YB,001,2023_Apr_12_1610,ExactRep-v3-final,2021.2.3,59.99221310509327,
,,,,,,,,85,0,85,0,,,,,,,,,,,,,,,,,,,,,,,,,,,,,,,,,,,,,,,,,,,,,,,,,,,,,1513.903566800058,None,,,,,,,,,,,,,,,,,,,,,,,,,,,,,,,,,,,death,103,86,aloud,red,1511.8913620999083,None,None,1511.8913620999083,None,,,,,,,,,,,,,,,,,,,,,,,,,,,,,,38YB,001,2023_Apr_12_1610,ExactRep-v3-final,2021.2.3,59.99221310509327,
,,,,,,,,86,0,86,0,,,,,,,,,,,,,,,,,,,,,,,,,,,,,,,,,,,,,,,,,,,,,,,,,,,,,1516.4226473998278,None,,,,,,,,,,,,,,,,,,,,,,,,,,,,,,,,,,,meeting,21,87,sing,blue,1514.4097830001265,None,None,1514.4097830001265,None,,,,,,,,,,,,,,,,,,,,,,,,,,,,,,38YB,001,2023_Apr_12_1610,ExactRep-v3-final,2021.2.3,59.99221310509327,
,,,,,,,,87,0,87,0,,,,,,,,,,,,,,,,,,,,,,,,,,,,,,,,,,,,,,,,,,,,,,,,,,,,,1518.941838399507,None,,,,,,,,,,,,,,,,,,,,,,,,,,,,,,,,,,,hall,18,88,sing,blue,1516.9274613996968,None,None,1516.9274613996968,None,,,,,,,,,,,,,,,,,,,,,,,,,,,,,,38YB,001,2023_Apr_12_1610,ExactRep-v3-final,2021.2.3,59.99221310509327,
,,,,,,,,88,0,88,0,,,,,,,,,,,,,,,,,,,,,,,,,,,,,,,,,,,,,,,,,,,,,,,,,,,,,1521.4443707000464,None,,,,,,,,,,,,,,,,,,,,,,,,,,,,,,,,,,,boulder,65,89,silent,white,1519.4434666000307,None,None,1519.4434666000307,None,,,,,,,,,,,,,,,,,,,,,,,,,,,,,,38YB,001,2023_Apr_12_1610,ExactRep-v3-final,2021.2.3,59.99221310509327,
,,,,,,,,89,0,89,0,,,,,,,,,,,,,,,,,,,,,,,,,,,,,,,,,,,,,,,,,,,,,,,,,,,,,1523.9634876996279,None,,,,,,,,,,,,,,,,,,,,,,,,,,,,,,,,,,,deed,110,90,aloud,red,1521.9545141998678,None,None,1521.9545141998678,None,,,,,,,,,,,,,,,,,,,,,,,,,,,,,,38YB,001,2023_Apr_12_1610,ExactRep-v3-final,2021.2.3,59.99221310509327,
,,,,,,,,90,0,90,0,,,,,,,,,,,,,,,,,,,,,,,,,,,,,,,,,,,,,,,,,,,,,,,,,,,,,1526.4825395001099,None,,,,,,,,,,,,,,,,,,,,,,,,,,,,,,,,,,,mercy,31,91,sing,blue,1524.4682930000126,None,None,1524.4682930000126,None,,,,,,,,,,,,,,,,,,,,,,,,,,,,,,38YB,001,2023_Apr_12_1610,ExactRep-v3-final,2021.2.3,59.99221310509327,
,,,,,,,,91,0,91,0,,,,,,,,,,,,,,,,,,,,,,,,,,,,,,,,,,,,,,,,,,,,,,,,,,,,,1529.001920499839,None,,,,,,,,,,,,,,,,,,,,,,,,,,,,,,,,,,,storm,105,92,aloud,red,1526.990559199825,None,None,1526.990559199825,None,,,,,,,,,,,,,,,,,,,,,,,,,,,,,,38YB,001,2023_Apr_12_1610,ExactRep-v3-final,2021.2.3,59.99221310509327,
,,,,,,,,92,0,92,0,,,,,,,,,,,,,,,,,,,,,,,,,,,,,,,,,,,,,,,,,,,,,,,,,,,,,1531.507053299807,None,,,,,,,,,,,,,,,,,,,,,,,,,,,,,,,,,,,picture,35,93,sing,blue,1529.5044441996142,None,None,1529.5044441996142,None,,,,,,,,,,,,,,,,,,,,,,,,,,,,,,38YB,001,2023_Apr_12_1610,ExactRep-v3-final,2021.2.3,59.99221310509327,
,,,,,,,,93,0,93,0,,,,,,,,,,,,,,,,,,,,,,,,,,,,,,,,,,,,,,,,,,,,,,,,,,,,,1534.0235952995718,None,,,,,,,,,,,,,,,,,,,,,,,,,,,,,,,,,,,cattle,7,94,sing,blue,1532.0213607996702,None,None,1532.0213607996702,None,,,,,,,,,,,,,,,,,,,,,,,,,,,,,,38YB,001,2023_Apr_12_1610,ExactRep-v3-final,2021.2.3,59.99221310509327,
,,,,,,,,94,0,94,0,,,,,,,,,,,,,,,,,,,,,,,,,,,,,,,,,,,,,,,,,,,,,,,,,,,,,1536.5428823996335,None,,,,,,,,,,,,,,,,,,,,,,,,,,,,,,,,,,,passion,102,95,aloud,red,1534.5276229996234,None,None,1534.5276229996234,None,,,,,,,,,,,,,,,,,,,,,,,,,,,,,,38YB,001,2023_Apr_12_1610,ExactRep-v3-final,2021.2.3,59.99221310509327,
,,,,,,,,95,0,95,0,,,,,,,,,,,,,,,,,,,,,,,,,,,,,,,,,,,,,,,,,,,,,,,,,,,,,1539.0619025994092,None,,,,,,,,,,,,,,,,,,,,,,,,,,,,,,,,,,,village,44,96,silent,white,1537.0463423999026,None,None,1537.0463423999026,None,,,,,,,,,,,,,,,,,,,,,,,,,,,,,,38YB,001,2023_Apr_12_1610,ExactRep-v3-final,2021.2.3,59.99221310509327,
,,,,,,,,96,0,96,0,,,,,,,,,,,,,,,,,,,,,,,,,,,,,,,,,,,,,,,,,,,,,,,,,,,,,1541.5644034994766,None,,,,,,,,,,,,,,,,,,,,,,,,,,,,,,,,,,,opinion,92,97,aloud,red,1539.5627851998433,None,None,1539.5627851998433,None,,,,,,,,,,,,,,,,,,,,,,,,,,,,,,38YB,001,2023_Apr_12_1610,ExactRep-v3-final,2021.2.3,59.99221310509327,
,,,,,,,,97,0,97,0,,,,,,,,,,,,,,,,,,,,,,,,,,,,,,,,,,,,,,,,,,,,,,,,,,,,,1544.0669457996264,None,,,,,,,,,,,,,,,,,,,,,,,,,,,,,,,,,,,dollar,12,98,sing,blue,1542.0677506998181,None,None,1542.0677506998181,None,,,,,,,,,,,,,,,,,,,,,,,,,,,,,,38YB,001,2023_Apr_12_1610,ExactRep-v3-final,2021.2.3,59.99221310509327,
,,,,,,,,98,0,98,0,,,,,,,,,,,,,,,,,,,,,,,,,,,,,,,,,,,,,,,,,,,,,,,,,,,,,1546.5694760000333,None,,,,,,,,,,,,,,,,,,,,,,,,,,,,,,,,,,,prayer,32,99,sing,blue,1544.570022800006,None,None,1544.570022800006,None,,,,,,,,,,,,,,,,,,,,,,,,,,,,,,38YB,001,2023_Apr_12_1610,ExactRep-v3-final,2021.2.3,59.99221310509327,
,,,,,,,,99,0,99,0,,,,,,,,,,,,,,,,,,,,,,,,,,,,,,,,,,,,,,,,,,,,,,,,,,,,,1549.0885856999084,None,,,,,,,,,,,,,,,,,,,,,,,,,,,,,,,,,,,grass,82,100,aloud,red,1547.0786148002371,None,None,1547.0786148002371,None,,,,,,,,,,,,,,,,,,,,,,,,,,,,,,38YB,001,2023_Apr_12_1610,ExactRep-v3-final,2021.2.3,59.99221310509327,
,,,,,,,,100,0,100,0,,,,,,,,,,,,,,,,,,,,,,,,,,,,,,,,,,,,,,,,,,,,,,,,,,,,,1551.6076111001894,None,,,,,,,,,,,,,,,,,,,,,,,,,,,,,,,,,,,animal,61,101,silent,white,1549.5967649994418,None,None,1549.5967649994418,None,,,,,,,,,,,,,,,,,,,,,,,,,,,,,,38YB,001,2023_Apr_12_1610,ExactRep-v3-final,2021.2.3,59.99221310509327,
,,,,,,,,101,0,101,0,,,,,,,,,,,,,,,,,,,,,,,,,,,,,,,,,,,,,,,,,,,,,,,,,,,,,1554.1269546998665,None,,,,,,,,,,,,,,,,,,,,,,,,,,,,,,,,,,,bird,100,102,aloud,red,1552.1161413993686,None,None,1552.1161413993686,None,,,,,,,,,,,,,,,,,,,,,,,,,,,,,,38YB,001,2023_Apr_12_1610,ExactRep-v3-final,2021.2.3,59.99221310509327,
,,,,,,,,102,0,102,0,,,,,,,,,,,,,,,,,,,,,,,,,,,,,,,,,,,,,,,,,,,,,,,,,,,,,1556.629544599913,None,,,,,,,,,,,,,,,,,,,,,,,,,,,,,,,,,,,girl,70,103,silent,white,1554.6274756994098,None,None,1554.6274756994098,None,,,,,,,,,,,,,,,,,,,,,,,,,,,,,,38YB,001,2023_Apr_12_1610,ExactRep-v3-final,2021.2.3,59.99221310509327,
,,,,,,,,103,0,103,0,,,,,,,,,,,,,,,,,,,,,,,,,,,,,,,,,,,,,,,,,,,,,,,,,,,,,1559.1319861998782,None,,,,,,,,,,,,,,,,,,,,,,,,,,,,,,,,,,,sea,86,104,aloud,red,1557.1317091993988,None,None,1557.1317091993988,None,,,,,,,,,,,,,,,,,,,,,,,,,,,,,,38YB,001,2023_Apr_12_1610,ExactRep-v3-final,2021.2.3,59.99221310509327,
,,,,,,,,104,0,104,0,,,,,,,,,,,,,,,,,,,,,,,,,,,,,,,,,,,,,,,,,,,,,,,,,,,,,1561.6509900996462,None,,,,,,,,,,,,,,,,,,,,,,,,,,,,,,,,,,,soul,101,105,aloud,red,1559.6368341995403,None,None,1559.6368341995403,None,,,,,,,,,,,,,,,,,,,,,,,,,,,,,,38YB,001,2023_Apr_12_1610,ExactRep-v3-final,2021.2.3,59.99221310509327,
,,,,,,,,105,0,105,0,,,,,,,,,,,,,,,,,,,,,,,,,,,,,,,,,,,,,,,,,,,,,,,,,,,,,1564.1535607995465,None,,,,,,,,,,,,,,,,,,,,,,,,,,,,,,,,,,,journal,25,106,sing,blue,1562.1515024993569,None,None,1562.1515024993569,None,,,,,,,,,,,,,,,,,,,,,,,,,,,,,,38YB,001,2023_Apr_12_1610,ExactRep-v3-final,2021.2.3,59.99221310509327,
,,,,,,,,106,0,106,0,,,,,,,,,,,,,,,,,,,,,,,,,,,,,,,,,,,,,,,,,,,,,,,,,,,,,1566.6729619996622,None,,,,,,,,,,,,,,,,,,,,,,,,,,,,,,,,,,,party,33,107,sing,blue,1564.6582038998604,None,None,1564.6582038998604,None,,,,,,,,,,,,,,,,,,,,,,,,,,,,,,38YB,001,2023_Apr_12_1610,ExactRep-v3-final,2021.2.3,59.99221310509327,
,,,,,,,,107,0,107,0,,,,,,,,,,,,,,,,,,,,,,,,,,,,,,,,,,,,,,,,,,,,,,,,,,,,,1569.1752957999706,None,,,,,,,,,,,,,,,,,,,,,,,,,,,,,,,,,,,memory,84,108,aloud,red,1567.1741182999685,None,None,1567.1741182999685,None,,,,,,,,,,,,,,,,,,,,,,,,,,,,,,38YB,001,2023_Apr_12_1610,ExactRep-v3-final,2021.2.3,59.99221310509327,
,,,,,,,,108,0,108,0,,,,,,,,,,,,,,,,,,,,,,,,,,,,,,,,,,,,,,,,,,,,,,,,,,,,,1571.6943969996646,None,,,,,,,,,,,,,,,,,,,,,,,,,,,,,,,,,,,apple,93,109,aloud,red,1569.6826585996896,None,None,1569.6826585996896,None,,,,,,,,,,,,,,,,,,,,,,,,,,,,,,38YB,001,2023_Apr_12_1610,ExactRep-v3-final,2021.2.3,59.99221310509327,
,,,,,,,,109,0,109,0,,,,,,,,,,,,,,,,,,,,,,,,,,,,,,,,,,,,,,,,,,,,,,,,,,,,,1574.1970277996734,None,,,,,,,,,,,,,,,,,,,,,,,,,,,,,,,,,,,beast,109,110,aloud,red,1572.1948748994619,None,None,1572.1948748994619,None,,,,,,,,,,,,,,,,,,,,,,,,,,,,,,38YB,001,2023_Apr_12_1610,ExactRep-v3-final,2021.2.3,59.99221310509327,
,,,,,,,,110,0,110,0,,,,,,,,,,,,,,,,,,,,,,,,,,,,,,,,,,,,,,,,,,,,,,,,,,,,,1576.6996524995193,None,,,,,,,,,,,,,,,,,,,,,,,,,,,,,,,,,,,toy,112,111,aloud,red,1574.6993109993637,None,None,1574.6993109993637,None,,,,,,,,,,,,,,,,,,,,,,,,,,,,,,38YB,001,2023_Apr_12_1610,ExactRep-v3-final,2021.2.3,59.99221310509327,
,,,,,,,,111,0,111,0,,,,,,,,,,,,,,,,,,,,,,,,,,,,,,,,,,,,,,,,,,,,,,,,,,,,,1579.2185819000006,None,,,,,,,,,,,,,,,,,,,,,,,,,,,,,,,,,,,factory,111,112,aloud,red,1577.2069443995133,None,None,1577.2069443995133,None,,,,,,,,,,,,,,,,,,,,,,,,,,,,,,38YB,001,2023_Apr_12_1610,ExactRep-v3-final,2021.2.3,59.99221310509327,
,,,,,,,,112,0,112,0,,,,,,,,,,,,,,,,,,,,,,,,,,,,,,,,,,,,,,,,,,,,,,,,,,,,,1581.7210774999112,None,,,,,,,,,,,,,,,,,,,,,,,,,,,,,,,,,,,quality,58,113,silent,white,1579.7191297998652,None,None,1579.7191297998652,None,,,,,,,,,,,,,,,,,,,,,,,,,,,,,,38YB,001,2023_Apr_12_1610,ExactRep-v3-final,2021.2.3,59.99221310509327,
,,,,,,,,113,0,113,0,,,,,,,,,,,,,,,,,,,,,,,,,,,,,,,,,,,,,,,,,,,,,,,,,,,,,1584.2405075002462,None,,,,,,,,,,,,,,,,,,,,,,,,,,,,,,,,,,,city,78,114,silent,white,1582.2301023993641,None,None,1582.2301023993641,None,,,,,,,,,,,,,,,,,,,,,,,,,,,,,,38YB,001,2023_Apr_12_1610,ExactRep-v3-final,2021.2.3,59.99221310509327,
,,,,,,,,114,0,114,0,,,,,,,,,,,,,,,,,,,,,,,,,,,,,,,,,,,,,,,,,,,,,,,,,,,,,1586.7429117998108,None,,,,,,,,,,,,,,,,,,,,,,,,,,,,,,,,,,,theory,72,115,silent,white,1584.7421245994046,None,None,1584.7421245994046,None,,,,,,,,,,,,,,,,,,,,,,,,,,,,,,38YB,001,2023_Apr_12_1610,ExactRep-v3-final,2021.2.3,59.99221310509327,
,,,,,,,,115,0,115,0,,,,,,,,,,,,,,,,,,,,,,,,,,,,,,,,,,,,,,,,,,,,,,,,,,,,,1589.2621219996363,None,,,,,,,,,,,,,,,,,,,,,,,,,,,,,,,,,,,river,95,116,aloud,red,1587.2464741999283,None,None,1587.2464741999283,None,,,,,,,,,,,,,,,,,,,,,,,,,,,,,,38YB,001,2023_Apr_12_1610,ExactRep-v3-final,2021.2.3,59.99221310509327,
,,,,,,,,116,0,116,0,,,,,,,,,,,,,,,,,,,,,,,,,,,,,,,,,,,,,,,,,,,,,,,,,,,,,1591.7647700998932,None,,,,,,,,,,,,,,,,,,,,,,,,,,,,,,,,,,,letter,108,117,aloud,red,1589.7625826001167,None,None,1589.7625826001167,None,,,,,,,,,,,,,,,,,,,,,,,,,,,,,,38YB,001,2023_Apr_12_1610,ExactRep-v3-final,2021.2.3,59.99221310509327,
,,,,,,,,117,0,117,0,,,,,,,,,,,,,,,,,,,,,,,,,,,,,,,,,,,,,,,,,,,,,,,,,,,,,1594.267231900245,None,,,,,,,,,,,,,,,,,,,,,,,,,,,,,,,,,,,horse,4,118,sing,blue,1592.2651864001527,None,None,1592.2651864001527,None,,,,,,,,,,,,,,,,,,,,,,,,,,,,,,38YB,001,2023_Apr_12_1610,ExactRep-v3-final,2021.2.3,59.99221310509327,
,,,,,,,,118,0,118,0,,,,,,,,,,,,,,,,,,,,,,,,,,,,,,,,,,,,,,,,,,,,,,,,,,,,,1596.769644599408,None,,,,,,,,,,,,,,,,,,,,,,,,,,,,,,,,,,,diamond,23,119,sing,blue,1594.7674447996542,None,None,1594.7674447996542,None,,,,,,,,,,,,,,,,,,,,,,,,,,,,,,38YB,001,2023_Apr_12_1610,ExactRep-v3-final,2021.2.3,59.99221310509327,
,,,,,,,,119,0,119,0,,,,,,,,,,,,,,,,,,,,,,,,,,,,,,,,,,,,,,,,,,,,,,,,,,,,,1599.2886349000037,None,,,,,,,,,,,,,,,,,,,,,,,,,,,,,,,,,,,sugar,60,120,silent,white,1597.2731933994219,None,None,1597.2731933994219,None,,,,,,,,,,,,,,,,,,,,,,,,,,,,,,38YB,001,2023_Apr_12_1610,ExactRep-v3-final,2021.2.3,59.99221310509327,
,,,,,,,,,,,,,,,,,,,,,,,,,,,,,,,,,,,,,,,,,,,,,,,,,,,,,,,,,,,,,,,,,,,,,,,,,,,,,,,,,,,,,,,,,,,,,,,,,,,,,,,,,,,,,,1599.7907119998708,None,space,3.7904129000380635,1609.7673255996779,None,,,,,,,,,,,,,,,,,,,,,,,,38YB,001,2023_Apr_12_1610,ExactRep-v3-final,2021.2.3,59.99221310509327,
,,,,,,,,,,,,,,,,,,,,,,,,,,,,,,,,,,,,,,,,,,,,,,,,,,,,,,,,,,,,,,,,,,,,,,,,,,,,,,,,,,,,,,,,,,,,,,,,,,,,,,,,,,,,,,,,,,,,1613.5882541993633,None,space,31.721432499587536,1623.5646072002128,None,,,,,,,,,,,,,,,,,,38YB,001,2023_Apr_12_1610,ExactRep-v3-final,2021.2.3,59.99221310509327,
,,,,,,,,,,,,0,0,0,0,,,,,,,,,,,,,,,,,,,,,,,,,,,,,,,,,,,,,,,,,,,,,,,,,1661.183935799636,None,,,,,,,,,,,,,,,,,,,,,,,,,,,,,,,,,,,,,,,,,,,,,,,,,,,,,,,,,method,153,1,silent,new,white,1655.820930399932,None,n,1655.820930399932,None,"['n', 'return']","[3.14469370059669, 5.320649500004947]",1655.820930399932,None,,,38YB,001,2023_Apr_12_1610,ExactRep-v3-final,2021.2.3,59.99221310509327,
,,,,,,,,,,,,1,0,1,0,,,,,,,,,,,,,,,,,,,,,,,,,,,,,,,,,,,,,,,,,,,,,,,,,1664.4704646002501,None,,,,,,,,,,,,,,,,,,,,,,,,,,,,,,,,,,,,,,,,,,,,,,,,,,,,,,,,,opinion,92,2,aloud,old,red,1661.6939954999834,None,y,1661.6939954999834,None,"['y', 'return']","[2.2239151000976562, 2.743563400581479]",1661.6939954999834,None,,,38YB,001,2023_Apr_12_1610,ExactRep-v3-final,2021.2.3,59.99221310509327,
,,,,,,,,,,,,2,0,2,0,,,,,,,,,,,,,,,,,,,,,,,,,,,,,,,,,,,,,,,,,,,,,,,,,1666.4390946002677,None,,,,,,,,,,,,,,,,,,,,,,,,,,,,,,,,,,,,,,,,,,,,,,,,,,,,,,,,,ability,9,3,sing,old,blue,1664.9810577994213,None,y,1664.9810577994213,None,"['y', 'return']","[1.0885373996570706, 1.4165316000580788]",1664.9810577994213,None,,,38YB,001,2023_Apr_12_1610,ExactRep-v3-final,2021.2.3,59.99221310509327,
,,,,,,,,,,,,3,0,3,0,,,,,,,,,,,,,,,,,,,,,,,,,,,,,,,,,,,,,,,,,,,,,,,,,1668.7081316998228,None,,,,,,,,,,,,,,,,,,,,,,,,,,,,,,,,,,,,,,,,,,,,,,,,,,,,,,,,,judge,49,4,silent,old,white,1666.948891500011,None,y,1666.948891500011,None,"['y', 'return']","[0.8249587994068861, 1.7127164993435144]",1666.948891500011,None,,,38YB,001,2023_Apr_12_1610,ExactRep-v3-final,2021.2.3,59.99221310509327,
,,,,,,,,,,,,4,0,4,0,,,,,,,,,,,,,,,,,,,,,,,,,,,,,,,,,,,,,,,,,,,,,,,,,1670.9603960998356,None,,,,,,,,,,,,,,,,,,,,,,,,,,,,,,,,,,,,,,,,,,,,,,,,,,,,,,,,,murder,215,5,sing,new,blue,1669.2173723997548,None,n,1669.2173723997548,None,"['n', 'return']","[1.4523470997810364, 1.708220200613141]",1669.2173723997548,None,,,38YB,001,2023_Apr_12_1610,ExactRep-v3-final,2021.2.3,59.99221310509327,
,,,,,,,,,,,,5,0,5,0,,,,,,,,,,,,,,,,,,,,,,,,,,,,,,,,,,,,,,,,,,,,,,,,,1673.8966071000323,None,,,,,,,,,,,,,,,,,,,,,,,,,,,,,,,,,,,,,,,,,,,,,,,,,,,,,,,,,arm,47,6,silent,old,white,1671.4633277999237,None,n,1671.4633277999237,None,"['n', 'return']","[2.238409399986267, 2.3984784996137023]",1671.4633277999237,None,,,38YB,001,2023_Apr_12_1610,ExactRep-v3-final,2021.2.3,59.99221310509327,
,,,,,,,,,,,,6,0,6,0,,,,,,,,,,,,,,,,,,,,,,,,,,,,,,,,,,,,,,,,,,,,,,,,,1676.2989692995325,None,,,,,,,,,,,,,,,,,,,,,,,,,,,,,,,,,,,,,,,,,,,,,,,,,,,,,,,,,metal,185,7,sing,new,blue,1674.4004577994347,None,n,1674.4004577994347,None,"['n', 'return']","[1.7172829993069172, 1.8533573998138309]",1674.4004577994347,None,,,38YB,001,2023_Apr_12_1610,ExactRep-v3-final,2021.2.3,59.99221310509327,
,,,,,,,,,,,,7,0,7,0,,,,,,,,,,,,,,,,,,,,,,,,,,,,,,,,,,,,,,,,,,,,,,,,,1678.2844896996394,None,,,,,,,,,,,,,,,,,,,,,,,,,,,,,,,,,,,,,,,,,,,,,,,,,,,,,,,,,weapon,117,8,aloud,old,red,1676.8105907002464,None,y,1676.8105907002464,None,"['y', 'return']","[1.2911064997315407, 1.435312899760902]",1676.8105907002464,None,,,38YB,001,2023_Apr_12_1610,ExactRep-v3-final,2021.2.3,59.99221310509327,
,,,,,,,,,,,,8,0,8,0,,,,,,,,,,,,,,,,,,,,,,,,,,,,,,,,,,,,,,,,,,,,,,,,,1680.9037529993802,None,,,,,,,,,,,,,,,,,,,,,,,,,,,,,,,,,,,,,,,,,,,,,,,,,,,,,,,,,product,51,9,silent,old,white,1678.7910147001967,None,y,1678.7910147001967,None,"['y', 'return']","[1.8547754995524883, 2.0706356996670365]",1678.7910147001967,None,,,38YB,001,2023_Apr_12_1610,ExactRep-v3-final,2021.2.3,59.99221310509327,
,,,,,,,,,,,,9,0,9,0,,,,,,,,,,,,,,,,,,,,,,,,,,,,,,,,,,,,,,,,,,,,,,,,,1682.7053359001875,None,,,,,,,,,,,,,,,,,,,,,,,,,,,,,,,,,,,,,,,,,,,,,,,,,,,,,,,,,queen,168,10,aloud,new,red,1681.4042919995263,None,n,1681.4042919995263,None,"['n', 'return']","[1.1373367002233863, 1.25727660022676]",1681.4042919995263,None,,,38YB,001,2023_Apr_12_1610,ExactRep-v3-final,2021.2.3,59.99221310509327,
,,,,,,,,,,,,10,0,10,0,,,,,,,,,,,,,,,,,,,,,,,,,,,,,,,,,,,,,,,,,,,,,,,,,1686.1254870994017,None,,,,,,,,,,,,,,,,,,,,,,,,,,,,,,,,,,,,,,,,,,,,,,,,,,,,,,,,,skin,88,11,aloud,old,red,1683.2084561996162,None,n,1683.2084561996162,None,"['n', 'return']","[2.7011890998110175, 2.869318500161171]",1683.2084561996162,None,,,38YB,001,2023_Apr_12_1610,ExactRep-v3-final,2021.2.3,59.99221310509327,
,,,,,,,,,,,,11,0,11,0,,,,,,,,,,,,,,,,,,,,,,,,,,,,,,,,,,,,,,,,,,,,,,,,,1688.4444947997108,None,,,,,,,,,,,,,,,,,,,,,,,,,,,,,,,,,,,,,,,,,,,,,,,,,,,,,,,,,corn,5,12,sing,old,blue,1686.6267411997542,None,n,1686.6267411997542,None,"['n', 'return']","[1.5869721006602049, 1.7710613003000617]",1686.6267411997542,None,,,38YB,001,2023_Apr_12_1610,ExactRep-v3-final,2021.2.3,59.99221310509327,
,,,,,,,,,,,,12,0,12,0,,,,,,,,,,,,,,,,,,,,,,,,,,,,,,,,,,,,,,,,,,,,,,,,,1691.6976576000452,None,,,,,,,,,,,,,,,,,,,,,,,,,,,,,,,,,,,,,,,,,,,,,,,,,,,,,,,,,wine,63,13,silent,old,white,1688.9557689996436,None,y,1688.9557689996436,None,"['y', 'return']","[2.5459543000906706, 2.6978197004646063]",1688.9557689996436,None,,,38YB,001,2023_Apr_12_1610,ExactRep-v3-final,2021.2.3,59.99221310509327,
,,,,,,,,,,,,13,0,13,0,,,,,,,,,,,,,,,,,,,,,,,,,,,,,,,,,,,,,,,,,,,,,,,,,1694.267054299824,None,,,,,,,,,,,,,,,,,,,,,,,,,,,,,,,,,,,,,,,,,,,,,,,,,,,,,,,,,fun,217,14,sing,new,blue,1692.2005901001394,None,y,1692.2005901001394,None,"['y', 'return']","[1.8773563001304865, 2.029286500066519]",1692.2005901001394,None,,,38YB,001,2023_Apr_12_1610,ExactRep-v3-final,2021.2.3,59.99221310509327,
,,,,,,,,,,,,14,0,14,0,,,,,,,,,,,,,,,,,,,,,,,,,,,,,,,,,,,,,,,,,,,,,,,,,1696.4358828002587,None,,,,,,,,,,,,,,,,,,,,,,,,,,,,,,,,,,,,,,,,,,,,,,,,,,,,,,,,,moral,173,15,sing,new,blue,1694.7778367996216,None,n,1694.7778367996216,None,"['n', 'return']","[1.4518160000443459, 1.612024299800396]",1694.7778367996216,None,,,38YB,001,2023_Apr_12_1610,ExactRep-v3-final,2021.2.3,59.99221310509327,
,,,,,,,,,,,,15,0,15,0,,,,,,,,,,,,,,,,,,,,,,,,,,,,,,,,,,,,,,,,,,,,,,,,,1698.0873835999519,None,,,,,,,,,,,,,,,,,,,,,,,,,,,,,,,,,,,,,,,,,,,,,,,,,,,,,,,,,time,114,16,aloud,old,red,1696.9440772999078,None,y,1696.9440772999078,None,"['y', 'return']","[0.94156329985708, 1.1017803000286222]",1696.9440772999078,None,,,38YB,001,2023_Apr_12_1610,ExactRep-v3-final,2021.2.3,59.99221310509327,
,,,,,,,,,,,,16,0,16,0,,,,,,,,,,,,,,,,,,,,,,,,,,,,,,,,,,,,,,,,,,,,,,,,,1699.905885799788,None,,,,,,,,,,,,,,,,,,,,,,,,,,,,,,,,,,,,,,,,,,,,,,,,,,,,,,,,,spirit,205,17,sing,new,blue,1698.590242399834,None,n,1698.590242399834,None,"['n', 'return']","[1.1113655995577574, 1.2714174995198846]",1698.590242399834,None,,,38YB,001,2023_Apr_12_1610,ExactRep-v3-final,2021.2.3,59.99221310509327,
,,,,,,,,,,,,17,0,17,0,,,,,,,,,,,,,,,,,,,,,,,,,,,,,,,,,,,,,,,,,,,,,,,,,1701.574227400124,None,,,,,,,,,,,,,,,,,,,,,,,,,,,,,,,,,,,,,,,,,,,,,,,,,,,,,,,,,deed,110,18,aloud,old,red,1700.4129857001826,None,y,1700.4129857001826,None,"['y', 'return']","[0.9286849005147815, 1.1207328997552395]",1700.4129857001826,None,,,38YB,001,2023_Apr_12_1610,ExactRep-v3-final,2021.2.3,59.99221310509327,
,,,,,,,,,,,,18,0,18,0,,,,,,,,,,,,,,,,,,,,,,,,,,,,,,,,,,,,,,,,,,,,,,,,,1703.1091901995242,None,,,,,,,,,,,,,,,,,,,,,,,,,,,,,,,,,,,,,,,,,,,,,,,,,,,,,,,,,machine,115,19,aloud,old,red,1702.0857354998589,None,y,1702.0857354998589,None,"['y', 'return']","[0.7839309005066752, 0.9919816004112363]",1702.0857354998589,None,,,38YB,001,2023_Apr_12_1610,ExactRep-v3-final,2021.2.3,59.99221310509327,
,,,,,,,,,,,,19,0,19,0,,,,,,,,,,,,,,,,,,,,,,,,,,,,,,,,,,,,,,,,,,,,,,,,,1704.4937915001065,None,,,,,,,,,,,,,,,,,,,,,,,,,,,,,,,,,,,,,,,,,,,,,,,,,,,,,,,,,law,234,20,aloud,new,red,1703.6183428000659,None,y,1703.6183428000659,None,"['y', 'return']","[0.5313241994008422, 0.8353544995188713]",1703.6183428000659,None,,,38YB,001,2023_Apr_12_1610,ExactRep-v3-final,2021.2.3,59.99221310509327,
,,,,,,,,,,,,20,0,20,0,,,,,,,,,,,,,,,,,,,,,,,,,,,,,,,,,,,,,,,,,,,,,,,,,1706.5625636996701,None,,,,,,,,,,,,,,,,,,,,,,,,,,,,,,,,,,,,,,,,,,,,,,,,,,,,,,,,,custom,140,21,silent,new,white,1705.0036870995536,None,n,1705.0036870995536,None,"['n', 'return']","[1.3379293996840715, 1.5220331996679306]",1705.0036870995536,None,,,38YB,001,2023_Apr_12_1610,ExactRep-v3-final,2021.2.3,59.99221310509327,
,,,,,,,,,,,,21,0,21,0,,,,,,,,,,,,,,,,,,,,,,,,,,,,,,,,,,,,,,,,,,,,,,,,,1708.3310032002628,None,,,,,,,,,,,,,,,,,,,,,,,,,,,,,,,,,,,,,,,,,,,,,,,,,,,,,,,,,hall,18,22,sing,old,blue,1707.069697599858,None,y,1707.069697599858,None,"['y', 'return']","[0.975929900072515, 1.2159740002825856]",1707.069697599858,None,,,38YB,001,2023_Apr_12_1610,ExactRep-v3-final,2021.2.3,59.99221310509327,
,,,,,,,,,,,,22,0,22,0,,,,,,,,,,,,,,,,,,,,,,,,,,,,,,,,,,,,,,,,,,,,,,,,,1709.832491999492,None,,,,,,,,,,,,,,,,,,,,,,,,,,,,,,,,,,,,,,,,,,,,,,,,,,,,,,,,,moment,167,23,sing,new,blue,1708.844109499827,None,y,1708.844109499827,None,"['y', 'return']","[0.6817095996811986, 0.953511199913919]",1708.844109499827,None,,,38YB,001,2023_Apr_12_1610,ExactRep-v3-final,2021.2.3,59.99221310509327,
,,,,,,,,,,,,23,0,23,0,,,,,,,,,,,,,,,,,,,,,,,,,,,,,,,,,,,,,,,,,,,,,,,,,1711.4674236997962,None,,,,,,,,,,,,,,,,,,,,,,,,,,,,,,,,,,,,,,,,,,,,,,,,,,,,,,,,,seat,174,24,aloud,new,red,1710.341042299755,None,y,1710.341042299755,None,"['y', 'return']","[0.7365967994555831, 1.0886439001187682]",1710.341042299755,None,,,38YB,001,2023_Apr_12_1610,ExactRep-v3-final,2021.2.3,59.99221310509327,
,,,,,,,,,,,,24,0,24,0,,,,,,,,,,,,,,,,,,,,,,,,,,,,,,,,,,,,,,,,,,,,,,,,,1713.4028340997174,None,,,,,,,,,,,,,,,,,,,,,,,,,,,,,,,,,,,,,,,,,,,,,,,,,,,,,,,,,shadow,120,25,silent,new,white,1711.9705286994576,None,n,1711.9705286994576,None,"['n', 'return']","[1.2032326003536582, 1.3951970003545284]",1711.9705286994576,None,,,38YB,001,2023_Apr_12_1610,ExactRep-v3-final,2021.2.3,59.99221310509327,
,,,,,,,,,,,,25,0,25,0,,,,,,,,,,,,,,,,,,,,,,,,,,,,,,,,,,,,,,,,,,,,,,,,,1714.8875457998365,None,,,,,,,,,,,,,,,,,,,,,,,,,,,,,,,,,,,,,,,,,,,,,,,,,,,,,,,,,brain,39,26,silent,old,white,1713.9127145996317,None,y,1713.9127145996317,None,"['y', 'return']","[0.6929879998788238, 0.9409552998840809]",1713.9127145996317,None,,,38YB,001,2023_Apr_12_1610,ExactRep-v3-final,2021.2.3,59.99221310509327,
,,,,,,,,,,,,26,0,26,0,,,,,,,,,,,,,,,,,,,,,,,,,,,,,,,,,,,,,,,,,,,,,,,,,1719.8259552996606,None,,,,,,,,,,,,,,,,,,,,,,,,,,,,,,,,,,,,,,,,,,,,,,,,,,,,,,,,,anger,159,27,silent,new,white,1715.3984735999256,None,n,1715.3984735999256,None,"['y', 'backspace', 'n', 'return']","[2.1431663995608687, 3.847284199669957, 4.247417899779975, 4.391271399334073]",1715.3984735999256,None,,,38YB,001,2023_Apr_12_1610,ExactRep-v3-final,2021.2.3,59.99221310509327,
,,,,,,,,,,,,27,0,27,0,,,,,,,,,,,,,,,,,,,,,,,,,,,,,,,,,,,,,,,,,,,,,,,,,1722.011327199638,None,,,,,,,,,,,,,,,,,,,,,,,,,,,,,,,,,,,,,,,,,,,,,,,,,,,,,,,,,rod,213,28,sing,new,blue,1720.3392309993505,None,n,1720.3392309993505,None,"['n', 'return']","[1.538561599329114, 1.6345558995380998]",1720.3392309993505,None,,,38YB,001,2023_Apr_12_1610,ExactRep-v3-final,2021.2.3,59.99221310509327,
,,,,,,,,,,,,28,0,28,0,,,,,,,,,,,,,,,,,,,,,,,,,,,,,,,,,,,,,,,,,,,,,,,,,1723.6296020001173,None,,,,,,,,,,,,,,,,,,,,,,,,,,,,,,,,,,,,,,,,,,,,,,,,,,,,,,,,,iron,158,29,silent,new,white,1722.514293199405,None,n,1722.514293199405,None,"['n', 'return']","[0.9556082002818584, 1.0835600001737475]",1722.514293199405,None,,,38YB,001,2023_Apr_12_1610,ExactRep-v3-final,2021.2.3,59.99221310509327,
,,,,,,,,,,,,29,0,29,0,,,,,,,,,,,,,,,,,,,,,,,,,,,,,,,,,,,,,,,,,,,,,,,,,1727.4001000998542,None,,,,,,,,,,,,,,,,,,,,,,,,,,,,,,,,,,,,,,,,,,,,,,,,,,,,,,,,,heaven,27,30,sing,old,blue,1724.1470740996301,None,y,1724.1470740996301,None,"['backspace', 'y', 'return']","[1.610677999444306, 3.0426987996324897, 3.2185822995379567]",1724.1470740996301,None,,,38YB,001,2023_Apr_12_1610,ExactRep-v3-final,2021.2.3,59.99221310509327,
,,,,,,,,,,,,30,0,30,0,,,,,,,,,,,,,,,,,,,,,,,,,,,,,,,,,,,,,,,,,,,,,,,,,1729.1517834002152,None,,,,,,,,,,,,,,,,,,,,,,,,,,,,,,,,,,,,,,,,,,,,,,,,,,,,,,,,,slave,145,31,silent,new,white,1727.911658000201,None,n,1727.911658000201,None,"['n', 'return']","[1.0620397999882698, 1.206151599995792]",1727.911658000201,None,,,38YB,001,2023_Apr_12_1610,ExactRep-v3-final,2021.2.3,59.99221310509327,
,,,,,,,,,,,,31,0,31,0,,,,,,,,,,,,,,,,,,,,,,,,,,,,,,,,,,,,,,,,,,,,,,,,,1731.7045249994844,None,,,,,,,,,,,,,,,,,,,,,,,,,,,,,,,,,,,,,,,,,,,,,,,,,,,,,,,,,steam,53,32,silent,old,white,1729.66161070019,None,y,1729.66161070019,None,"['y', 'return']","[1.656220800243318, 2.008092800155282]",1729.66161070019,None,,,38YB,001,2023_Apr_12_1610,ExactRep-v3-final,2021.2.3,59.99221310509327,
,,,,,,,,,,,,32,0,32,0,,,,,,,,,,,,,,,,,,,,,,,,,,,,,,,,,,,,,,,,,,,,,,,,,1733.1226717997342,None,,,,,,,,,,,,,,,,,,,,,,,,,,,,,,,,,,,,,,,,,,,,,,,,,,,,,,,,,disease,8,33,sing,old,blue,1732.2135772993788,None,y,1732.2135772993788,None,"['y', 'return']","[0.6961208004504442, 0.8722900999709964]",1732.2135772993788,None,,,38YB,001,2023_Apr_12_1610,ExactRep-v3-final,2021.2.3,59.99221310509327,
,,,,,,,,,,,,33,0,33,0,,,,,,,,,,,,,,,,,,,,,,,,,,,,,,,,,,,,,,,,,,,,,,,,,1735.2578910002485,None,,,,,,,,,,,,,,,,,,,,,,,,,,,,,,,,,,,,,,,,,,,,,,,,,,,,,,,,,lip,133,34,silent,new,white,1733.6319992998615,None,n,1733.6319992998615,None,"['n', 'return']","[1.221683700568974, 1.5816174000501633]",1733.6319992998615,None,,,38YB,001,2023_Apr_12_1610,ExactRep-v3-final,2021.2.3,59.99221310509327,
,,,,,,,,,,,,34,0,34,0,,,,,,,,,,,,,,,,,,,,,,,,,,,,,,,,,,,,,,,,,,,,,,,,,1741.8979417001829,None,,,,,,,,,,,,,,,,,,,,,,,,,,,,,,,,,,,,,,,,,,,,,,,,,,,,,,,,,mother,66,35,silent,old,white,1735.7680303994566,None,y,1735.7680303994566,None,"['y', 'return']","[5.653669900260866, 6.085625800304115]",1735.7680303994566,None,,,38YB,001,2023_Apr_12_1610,ExactRep-v3-final,2021.2.3,59.99221310509327,
,,,,,,,,,,,,35,0,35,0,,,,,,,,,,,,,,,,,,,,,,,,,,,,,,,,,,,,,,,,,,,,,,,,,1745.4680642997846,None,,,,,,,,,,,,,,,,,,,,,,,,,,,,,,,,,,,,,,,,,,,,,,,,,,,,,,,,,doctor,152,36,silent,new,white,1742.398475700058,None,n,1742.398475700058,None,"['n', 'return']","[1.7752055004239082, 3.031228500418365]",1742.398475700058,None,,,38YB,001,2023_Apr_12_1610,ExactRep-v3-final,2021.2.3,59.99221310509327,
,,,,,,,,,,,,36,0,36,0,,,,,,,,,,,,,,,,,,,,,,,,,,,,,,,,,,,,,,,,,,,,,,,,,1749.1887098997831,None,,,,,,,,,,,,,,,,,,,,,,,,,,,,,,,,,,,,,,,,,,,,,,,,,,,,,,,,,house,141,37,silent,new,white,1745.9778966000304,None,n,1745.9778966000304,None,"['y', 'backspace', 'n', 'return']","[1.747945399954915, 2.7560391994193196, 3.035819599404931, 3.164160099811852]",1745.9778966000304,None,,,38YB,001,2023_Apr_12_1610,ExactRep-v3-final,2021.2.3,59.99221310509327,
,,,,,,,,,,,,37,0,37,0,,,,,,,,,,,,,,,,,,,,,,,,,,,,,,,,,,,,,,,,,,,,,,,,,1751.3075471995398,None,,,,,,,,,,,,,,,,,,,,,,,,,,,,,,,,,,,,,,,,,,,,,,,,,,,,,,,,,star,149,38,silent,new,white,1749.6984129995108,None,n,1749.6984129995108,None,"['n', 'return']","[1.3233700999990106, 1.5712900999933481]",1749.6984129995108,None,,,38YB,001,2023_Apr_12_1610,ExactRep-v3-final,2021.2.3,59.99221310509327,
,,,,,,,,,,,,38,0,38,0,,,,,,,,,,,,,,,,,,,,,,,,,,,,,,,,,,,,,,,,,,,,,,,,,1754.043348199688,None,,,,,,,,,,,,,,,,,,,,,,,,,,,,,,,,,,,,,,,,,,,,,,,,,,,,,,,,,home,52,39,silent,old,white,1751.8162834001705,None,n,1751.8162834001705,None,"['n', 'return']","[2.0053999004885554, 2.1894538002088666]",1751.8162834001705,None,,,38YB,001,2023_Apr_12_1610,ExactRep-v3-final,2021.2.3,59.99221310509327,
,,,,,,,,,,,,39,0,39,0,,,,,,,,,,,,,,,,,,,,,,,,,,,,,,,,,,,,,,,,,,,,,,,,,1757.4803387997672,None,,,,,,,,,,,,,,,,,,,,,,,,,,,,,,,,,,,,,,,,,,,,,,,,,,,,,,,,,coin,212,40,aloud,new,red,1754.5508503997698,None,n,1754.5508503997698,None,"['y', 'backspace', 'n', 'return']","[1.7667822996154428, 2.551075999625027, 2.687005099840462, 2.886823699809611]",1754.5508503997698,None,,,38YB,001,2023_Apr_12_1610,ExactRep-v3-final,2021.2.3,59.99221310509327,
,,,,,,,,,,,,40,0,40,0,,,,,,,,,,,,,,,,,,,,,,,,,,,,,,,,,,,,,,,,,,,,,,,,,1759.115114099346,None,,,,,,,,,,,,,,,,,,,,,,,,,,,,,,,,,,,,,,,,,,,,,,,,,,,,,,,,,chance,22,41,sing,old,blue,1757.9889062996954,None,y,1757.9889062996954,None,"['y', 'return']","[0.9127826998010278, 1.0888242004439235]",1757.9889062996954,None,,,38YB,001,2023_Apr_12_1610,ExactRep-v3-final,2021.2.3,59.99221310509327,
,,,,,,,,,,,,41,0,41,0,,,,,,,,,,,,,,,,,,,,,,,,,,,,,,,,,,,,,,,,,,,,,,,,,1760.433126299642,None,,,,,,,,,,,,,,,,,,,,,,,,,,,,,,,,,,,,,,,,,,,,,,,,,,,,,,,,,tool,15,42,sing,old,blue,1759.6266418993473,None,y,1759.6266418993473,None,"['y', 'return']","[0.6032033003866673, 0.7631152998656034]",1759.6266418993473,None,,,38YB,001,2023_Apr_12_1610,ExactRep-v3-final,2021.2.3,59.99221310509327,
,,,,,,,,,,,,42,0,42,0,,,,,,,,,,,,,,,,,,,,,,,,,,,,,,,,,,,,,,,,,,,,,,,,,1761.6843331996351,None,,,,,,,,,,,,,,,,,,,,,,,,,,,,,,,,,,,,,,,,,,,,,,,,,,,,,,,,,forest,91,43,aloud,old,red,1760.9360218998045,None,y,1760.9360218998045,None,"['y', 'return']","[0.5657537998631597, 0.7017348995432258]",1760.9360218998045,None,,,38YB,001,2023_Apr_12_1610,ExactRep-v3-final,2021.2.3,59.99221310509327,
,,,,,,,,,,,,43,0,43,0,,,,,,,,,,,,,,,,,,,,,,,,,,,,,,,,,,,,,,,,,,,,,,,,,1762.8857030998915,None,,,,,,,,,,,,,,,,,,,,,,,,,,,,,,,,,,,,,,,,,,,,,,,,,,,,,,,,,dollar,12,44,sing,old,blue,1762.193263599649,None,y,1762.193263599649,None,"['y', 'return']","[0.5243843998759985, 0.6525380993261933]",1762.193263599649,None,,,38YB,001,2023_Apr_12_1610,ExactRep-v3-final,2021.2.3,59.99221310509327,
,,,,,,,,,,,,44,0,44,0,,,,,,,,,,,,,,,,,,,,,,,,,,,,,,,,,,,,,,,,,,,,,,,,,1765.121153799817,None,,,,,,,,,,,,,,,,,,,,,,,,,,,,,,,,,,,,,,,,,,,,,,,,,,,,,,,,,ticket,162,45,aloud,new,red,1763.394916499965,None,y,1763.394916499965,None,"['y', 'return']","[1.5468595996499062, 1.6827830998227]",1763.394916499965,None,,,38YB,001,2023_Apr_12_1610,ExactRep-v3-final,2021.2.3,59.99221310509327,
,,,,,,,,,,,,45,0,45,0,,,,,,,,,,,,,,,,,,,,,,,,,,,,,,,,,,,,,,,,,,,,,,,,,1766.889617599547,None,,,,,,,,,,,,,,,,,,,,,,,,,,,,,,,,,,,,,,,,,,,,,,,,,,,,,,,,,vessel,225,46,sing,new,blue,1765.6326898001134,None,n,1765.6326898001134,None,"['n', 'return']","[1.0530123999342322, 1.2129389001056552]",1765.6326898001134,None,,,38YB,001,2023_Apr_12_1610,ExactRep-v3-final,2021.2.3,59.99221310509327,
,,,,,,,,,,,,46,0,46,0,,,,,,,,,,,,,,,,,,,,,,,,,,,,,,,,,,,,,,,,,,,,,,,,,1768.6081058001146,None,,,,,,,,,,,,,,,,,,,,,,,,,,,,,,,,,,,,,,,,,,,,,,,,,,,,,,,,,death,103,47,aloud,old,red,1767.399527899921,None,y,1767.399527899921,None,"['y', 'return']","[1.0142227001488209, 1.166189500130713]",1767.399527899921,None,,,38YB,001,2023_Apr_12_1610,ExactRep-v3-final,2021.2.3,59.99221310509327,
,,,,,,,,,,,,47,0,47,0,,,,,,,,,,,,,,,,,,,,,,,,,,,,,,,,,,,,,,,,,,,,,,,,,1771.6442849999294,None,,,,,,,,,,,,,,,,,,,,,,,,,,,,,,,,,,,,,,,,,,,,,,,,,,,,,,,,,friend,50,48,silent,old,white,1769.1147729996592,None,n,1769.1147729996592,None,"['n', 'return']","[2.1071154000237584, 2.4830297995358706]",1769.1147729996592,None,,,38YB,001,2023_Apr_12_1610,ExactRep-v3-final,2021.2.3,59.99221310509327,
,,,,,,,,,,,,48,0,48,0,,,,,,,,,,,,,,,,,,,,,,,,,,,,,,,,,,,,,,,,,,,,,,,,,1773.8632355993614,None,,,,,,,,,,,,,,,,,,,,,,,,,,,,,,,,,,,,,,,,,,,,,,,,,,,,,,,,,toy,112,49,aloud,old,red,1772.151001099497,None,y,1772.151001099497,None,"['y', 'return']","[1.31073459982872, 1.670699399895966]",1772.151001099497,None,,,38YB,001,2023_Apr_12_1610,ExactRep-v3-final,2021.2.3,59.99221310509327,
,,,,,,,,,,,,49,0,49,0,,,,,,,,,,,,,,,,,,,,,,,,,,,,,,,,,,,,,,,,,,,,,,,,,1775.581570699811,None,,,,,,,,,,,,,,,,,,,,,,,,,,,,,,,,,,,,,,,,,,,,,,,,,,,,,,,,,boulder,65,50,silent,old,white,1774.3724232995883,None,y,1774.3724232995883,None,"['y', 'return']","[0.8253725999966264, 1.1693425001576543]",1774.3724232995883,None,,,38YB,001,2023_Apr_12_1610,ExactRep-v3-final,2021.2.3,59.99221310509327,
,,,,,,,,,,,,50,0,50,0,,,,,,,,,,,,,,,,,,,,,,,,,,,,,,,,,,,,,,,,,,,,,,,,,1777.5335293998942,None,,,,,,,,,,,,,,,,,,,,,,,,,,,,,,,,,,,,,,,,,,,,,,,,,,,,,,,,,potato,151,51,silent,new,white,1776.0820051999763,None,n,1776.0820051999763,None,"['n', 'return']","[1.1797294998541474, 1.419806799851358]",1776.0820051999763,None,,,38YB,001,2023_Apr_12_1610,ExactRep-v3-final,2021.2.3,59.99221310509327,
,,,,,,,,,,,,51,0,51,0,,,,,,,,,,,,,,,,,,,,,,,,,,,,,,,,,,,,,,,,,,,,,,,,,1779.2019719993696,None,,,,,,,,,,,,,,,,,,,,,,,,,,,,,,,,,,,,,,,,,,,,,,,,,,,,,,,,,event,138,52,silent,new,white,1778.0478664999828,None,y,1778.0478664999828,None,"['y', 'return']","[0.869832499884069, 1.1178536005318165]",1778.0478664999828,None,,,38YB,001,2023_Apr_12_1610,ExactRep-v3-final,2021.2.3,59.99221310509327,
,,,,,,,,,,,,52,0,52,0,,,,,,,,,,,,,,,,,,,,,,,,,,,,,,,,,,,,,,,,,,,,,,,,,1780.986987799406,None,,,,,,,,,,,,,,,,,,,,,,,,,,,,,,,,,,,,,,,,,,,,,,,,,,,,,,,,,winter,177,53,sing,new,blue,1779.715796600096,None,n,1779.715796600096,None,"['n', 'return']","[0.9139598002657294, 1.2260156003758311]",1779.715796600096,None,,,38YB,001,2023_Apr_12_1610,ExactRep-v3-final,2021.2.3,59.99221310509327,
,,,,,,,,,,,,53,0,53,0,,,,,,,,,,,,,,,,,,,,,,,,,,,,,,,,,,,,,,,,,,,,,,,,,1783.3393053002656,None,,,,,,,,,,,,,,,,,,,,,,,,,,,,,,,,,,,,,,,,,,,,,,,,,,,,,,,,,sugar,60,54,silent,old,white,1781.4911885000765,None,n,1781.4911885000765,None,"['n', 'return']","[1.570651000365615, 1.802695400081575]",1781.4911885000765,None,,,38YB,001,2023_Apr_12_1610,ExactRep-v3-final,2021.2.3,59.99221310509327,
,,,,,,,,,,,,54,0,54,0,,,,,,,,,,,,,,,,,,,,,,,,,,,,,,,,,,,,,,,,,,,,,,,,,1784.807482299395,None,,,,,,,,,,,,,,,,,,,,,,,,,,,,,,,,,,,,,,,,,,,,,,,,,,,,,,,,,library,83,55,aloud,old,red,1783.84774379991,None,y,1783.84774379991,None,"['y', 'return']","[0.6542469998821616, 0.9180428003892303]",1783.84774379991,None,,,38YB,001,2023_Apr_12_1610,ExactRep-v3-final,2021.2.3,59.99221310509327,
,,,,,,,,,,,,55,0,55,0,,,,,,,,,,,,,,,,,,,,,,,,,,,,,,,,,,,,,,,,,,,,,,,,,1786.151000900194,None,,,,,,,,,,,,,,,,,,,,,,,,,,,,,,,,,,,,,,,,,,,,,,,,,,,,,,,,,engine,20,56,sing,old,blue,1785.3170940000564,None,y,1785.3170940000564,None,"['y', 'return']","[0.6806418001651764, 0.7925821002572775]",1785.3170940000564,None,,,38YB,001,2023_Apr_12_1610,ExactRep-v3-final,2021.2.3,59.99221310509327,
,,,,,,,,,,,,56,0,56,0,,,,,,,,,,,,,,,,,,,,,,,,,,,,,,,,,,,,,,,,,,,,,,,,,1787.4935197001323,None,,,,,,,,,,,,,,,,,,,,,,,,,,,,,,,,,,,,,,,,,,,,,,,,,,,,,,,,,shoes,11,57,sing,old,blue,1786.668437499553,None,y,1786.668437499553,None,"['y', 'return']","[0.6733020003885031, 0.7774247005581856]",1786.668437499553,None,,,38YB,001,2023_Apr_12_1610,ExactRep-v3-final,2021.2.3,59.99221310509327,
,,,,,,,,,,,,57,0,57,0,,,,,,,,,,,,,,,,,,,,,,,,,,,,,,,,,,,,,,,,,,,,,,,,,1789.228516199626,None,,,,,,,,,,,,,,,,,,,,,,,,,,,,,,,,,,,,,,,,,,,,,,,,,,,,,,,,,owner,157,58,silent,new,white,1788.0097754998133,None,y,1788.0097754998133,None,"['y', 'return']","[0.956092800013721, 1.1719740005210042]",1788.0097754998133,None,,,38YB,001,2023_Apr_12_1610,ExactRep-v3-final,2021.2.3,59.99221310509327,
,,,,,,,,,,,,58,0,58,0,,,,,,,,,,,,,,,,,,,,,,,,,,,,,,,,,,,,,,,,,,,,,,,,,1791.7311846995726,None,,,,,,,,,,,,,,,,,,,,,,,,,,,,,,,,,,,,,,,,,,,,,,,,,,,,,,,,,door,122,59,silent,new,white,1789.738458099775,None,y,1789.738458099775,None,"['y', 'return']","[1.6912959003821015, 1.9473696006461978]",1789.738458099775,None,,,38YB,001,2023_Apr_12_1610,ExactRep-v3-final,2021.2.3,59.99221310509327,
,,,,,,,,,,,,59,0,59,0,,,,,,,,,,,,,,,,,,,,,,,,,,,,,,,,,,,,,,,,,,,,,,,,,1794.56719519943,None,,,,,,,,,,,,,,,,,,,,,,,,,,,,,,,,,,,,,,,,,,,,,,,,,,,,,,,,,doll,148,60,silent,new,white,1792.2398113999516,None,n,1792.2398113999516,None,"['n', 'return']","[2.1260725995525718, 2.2940907003358006]",1792.2398113999516,None,,,38YB,001,2023_Apr_12_1610,ExactRep-v3-final,2021.2.3,59.99221310509327,
,,,,,,,,,,,,60,0,60,0,,,,,,,,,,,,,,,,,,,,,,,,,,,,,,,,,,,,,,,,,,,,,,,,,1796.185493200086,None,,,,,,,,,,,,,,,,,,,,,,,,,,,,,,,,,,,,,,,,,,,,,,,,,,,,,,,,,bottle,116,61,aloud,old,red,1795.0830212999135,None,y,1795.0830212999135,None,"['y', 'return']","[0.7707170005887747, 1.066678000614047]",1795.0830212999135,None,,,38YB,001,2023_Apr_12_1610,ExactRep-v3-final,2021.2.3,59.99221310509327,
,,,,,,,,,,,,61,0,61,0,,,,,,,,,,,,,,,,,,,,,,,,,,,,,,,,,,,,,,,,,,,,,,,,,1797.6871600998566,None,,,,,,,,,,,,,,,,,,,,,,,,,,,,,,,,,,,,,,,,,,,,,,,,,,,,,,,,,garden,184,62,aloud,new,red,1796.696356699802,None,y,1796.696356699802,None,"['y', 'return']","[0.5093828998506069, 0.9574843998998404]",1796.696356699802,None,,,38YB,001,2023_Apr_12_1610,ExactRep-v3-final,2021.2.3,59.99221310509327,
,,,,,,,,,,,,62,0,62,0,,,,,,,,,,,,,,,,,,,,,,,,,,,,,,,,,,,,,,,,,,,,,,,,,1799.088583599776,None,,,,,,,,,,,,,,,,,,,,,,,,,,,,,,,,,,,,,,,,,,,,,,,,,,,,,,,,,bird,100,63,aloud,old,red,1798.1944575002417,None,y,1798.1944575002417,None,"['y', 'return']","[0.5792456995695829, 0.8592002997174859]",1798.1944575002417,None,,,38YB,001,2023_Apr_12_1610,ExactRep-v3-final,2021.2.3,59.99221310509327,
,,,,,,,,,,,,63,0,63,0,,,,,,,,,,,,,,,,,,,,,,,,,,,,,,,,,,,,,,,,,,,,,,,,,1800.7734139999375,None,,,,,,,,,,,,,,,,,,,,,,,,,,,,,,,,,,,,,,,,,,,,,,,,,,,,,,,,,series,189,64,sing,new,blue,1799.6003665998578,None,y,1799.6003665998578,None,"['y', 'return']","[0.8455056995153427, 1.1335502993315458]",1799.6003665998578,None,,,38YB,001,2023_Apr_12_1610,ExactRep-v3-final,2021.2.3,59.99221310509327,
,,,,,,,,,,,,64,0,64,0,,,,,,,,,,,,,,,,,,,,,,,,,,,,,,,,,,,,,,,,,,,,,,,,,1802.2751615997404,None,,,,,,,,,,,,,,,,,,,,,,,,,,,,,,,,,,,,,,,,,,,,,,,,,,,,,,,,,justice,45,65,silent,old,white,1801.2853052001446,None,y,1801.2853052001446,None,"['y', 'return']","[0.5685344999656081, 0.9445642996579409]",1801.2853052001446,None,,,38YB,001,2023_Apr_12_1610,ExactRep-v3-final,2021.2.3,59.99221310509327,
,,,,,,,,,,,,65,0,65,0,,,,,,,,,,,,,,,,,,,,,,,,,,,,,,,,,,,,,,,,,,,,,,,,,1803.7597915995866,None,,,,,,,,,,,,,,,,,,,,,,,,,,,,,,,,,,,,,,,,,,,,,,,,,,,,,,,,,green,80,66,aloud,old,red,1802.7833134997636,None,y,1802.7833134997636,None,"['y', 'return']","[0.67049890011549, 0.9344367003068328]",1802.7833134997636,None,,,38YB,001,2023_Apr_12_1610,ExactRep-v3-final,2021.2.3,59.99221310509327,
,,,,,,,,,,,,66,0,66,0,,,,,,,,,,,,,,,,,,,,,,,,,,,,,,,,,,,,,,,,,,,,,,,,,1806.4959046002477,None,,,,,,,,,,,,,,,,,,,,,,,,,,,,,,,,,,,,,,,,,,,,,,,,,,,,,,,,,corner,124,67,silent,new,white,1804.271162699908,None,y,1804.271162699908,None,"['y', 'return']","[2.014450400136411, 2.190607700496912]",1804.271162699908,None,,,38YB,001,2023_Apr_12_1610,ExactRep-v3-final,2021.2.3,59.99221310509327,
,,,,,,,,,,,,67,0,67,0,,,,,,,,,,,,,,,,,,,,,,,,,,,,,,,,,,,,,,,,,,,,,,,,,1807.71381859947,None,,,,,,,,,,,,,,,,,,,,,,,,,,,,,,,,,,,,,,,,,,,,,,,,,,,,,,,,,board,81,68,aloud,old,red,1807.0057777995244,None,y,1807.0057777995244,None,"['y', 'return']","[0.4961345000192523, 0.6639701006934047]",1807.0057777995244,None,,,38YB,001,2023_Apr_12_1610,ExactRep-v3-final,2021.2.3,59.99221310509327,
,,,,,,,,,,,,68,0,68,0,,,,,,,,,,,,,,,,,,,,,,,,,,,,,,,,,,,,,,,,,,,,,,,,,1809.0984204001725,None,,,,,,,,,,,,,,,,,,,,,,,,,,,,,,,,,,,,,,,,,,,,,,,,,,,,,,,,,flag,232,69,aloud,new,red,1808.2225548001006,None,y,1808.2225548001006,None,"['y', 'return']","[0.40723029989749193, 0.8312026001513004]",1808.2225548001006,None,,,38YB,001,2023_Apr_12_1610,ExactRep-v3-final,2021.2.3,59.99221310509327,
,,,,,,,,,,,,69,0,69,0,,,,,,,,,,,,,,,,,,,,,,,,,,,,,,,,,,,,,,,,,,,,,,,,,1811.033649799414,None,,,,,,,,,,,,,,,,,,,,,,,,,,,,,,,,,,,,,,,,,,,,,,,,,,,,,,,,,rock,150,70,silent,new,white,1809.608467599377,None,n,1809.608467599377,None,"['n', 'return']","[1.229555199854076, 1.3813325995579362]",1809.608467599377,None,,,38YB,001,2023_Apr_12_1610,ExactRep-v3-final,2021.2.3,59.99221310509327,
,,,,,,,,,,,,70,0,70,0,,,,,,,,,,,,,,,,,,,,,,,,,,,,,,,,,,,,,,,,,,,,,,,,,1812.6020438997075,None,,,,,,,,,,,,,,,,,,,,,,,,,,,,,,,,,,,,,,,,,,,,,,,,,,,,,,,,,nail,71,71,silent,old,white,1811.541050300002,None,n,1811.541050300002,None,"['n', 'return']","[0.8407027004286647, 1.0166512001305819]",1811.541050300002,None,,,38YB,001,2023_Apr_12_1610,ExactRep-v3-final,2021.2.3,59.99221310509327,
,,,,,,,,,,,,71,0,71,0,,,,,,,,,,,,,,,,,,,,,,,,,,,,,,,,,,,,,,,,,,,,,,,,,1814.5038909995928,None,,,,,,,,,,,,,,,,,,,,,,,,,,,,,,,,,,,,,,,,,,,,,,,,,,,,,,,,,hope,182,72,aloud,new,red,1813.1134856995195,None,n,1813.1134856995195,None,"['n', 'return']","[1.2122481996193528, 1.3563957000151277]",1813.1134856995195,None,,,38YB,001,2023_Apr_12_1610,ExactRep-v3-final,2021.2.3,59.99221310509327,
,,,,,,,,,,,,72,0,72,0,,,,,,,,,,,,,,,,,,,,,,,,,,,,,,,,,,,,,,,,,,,,,,,,,1816.1222420996055,None,,,,,,,,,,,,,,,,,,,,,,,,,,,,,,,,,,,,,,,,,,,,,,,,,,,,,,,,,army,94,73,aloud,old,red,1815.0164545997977,None,y,1815.0164545997977,None,"['y', 'return']","[0.9093196997419, 1.0613025994971395]",1815.0164545997977,None,,,38YB,001,2023_Apr_12_1610,ExactRep-v3-final,2021.2.3,59.99221310509327,
,,,,,,,,,,,,73,0,73,0,,,,,,,,,,,,,,,,,,,,,,,,,,,,,,,,,,,,,,,,,,,,,,,,,1817.506918899715,None,,,,,,,,,,,,,,,,,,,,,,,,,,,,,,,,,,,,,,,,,,,,,,,,,,,,,,,,,meeting,21,74,sing,old,blue,1816.6319383000955,None,y,1816.6319383000955,None,"['y', 'return']","[0.7100098002701998, 0.8379821004346013]",1816.6319383000955,None,,,38YB,001,2023_Apr_12_1610,ExactRep-v3-final,2021.2.3,59.99221310509327,
,,,,,,,,,,,,74,0,74,0,,,,,,,,,,,,,,,,,,,,,,,,,,,,,,,,,,,,,,,,,,,,,,,,,1818.758050300181,None,,,,,,,,,,,,,,,,,,,,,,,,,,,,,,,,,,,,,,,,,,,,,,,,,,,,,,,,,breast,98,75,aloud,old,red,1818.0169701995328,None,y,1818.0169701995328,None,"['y', 'return']","[0.6047999998554587, 0.7089408999308944]",1818.0169701995328,None,,,38YB,001,2023_Apr_12_1610,ExactRep-v3-final,2021.2.3,59.99221310509327,
,,,,,,,,,,,,75,0,75,0,,,,,,,,,,,,,,,,,,,,,,,,,,,,,,,,,,,,,,,,,,,,,,,,,1819.9759593000636,None,,,,,,,,,,,,,,,,,,,,,,,,,,,,,,,,,,,,,,,,,,,,,,,,,,,,,,,,,mind,85,76,aloud,old,red,1819.272788499482,None,y,1819.272788499482,None,"['y', 'return']","[0.5409869002178311, 0.6610556002706289]",1819.272788499482,None,,,38YB,001,2023_Apr_12_1610,ExactRep-v3-final,2021.2.3,59.99221310509327,
,,,,,,,,,,,,76,0,76,0,,,,,,,,,,,,,,,,,,,,,,,,,,,,,,,,,,,,,,,,,,,,,,,,,1821.227269699797,None,,,,,,,,,,,,,,,,,,,,,,,,,,,,,,,,,,,,,,,,,,,,,,,,,,,,,,,,,cabin,171,77,sing,new,blue,1820.4812671002,None,y,1820.4812671002,None,"['y', 'return']","[0.5724921002984047, 0.7086225003004074]",1820.4812671002,None,,,38YB,001,2023_Apr_12_1610,ExactRep-v3-final,2021.2.3,59.99221310509327,
,,,,,,,,,,,,77,0,77,0,,,,,,,,,,,,,,,,,,,,,,,,,,,,,,,,,,,,,,,,,,,,,,,,,1822.5785980997607,None,,,,,,,,,,,,,,,,,,,,,,,,,,,,,,,,,,,,,,,,,,,,,,,,,,,,,,,,,safety,126,78,silent,new,white,1821.7345610996708,None,y,1821.7345610996708,None,"['y', 'return']","[0.6872114995494485, 0.7993879998102784]",1821.7345610996708,None,,,38YB,001,2023_Apr_12_1610,ExactRep-v3-final,2021.2.3,59.99221310509327,
,,,,,,,,,,,,78,0,78,0,,,,,,,,,,,,,,,,,,,,,,,,,,,,,,,,,,,,,,,,,,,,,,,,,1823.94675750006,None,,,,,,,,,,,,,,,,,,,,,,,,,,,,,,,,,,,,,,,,,,,,,,,,,,,,,,,,,circle,67,79,silent,old,white,1823.093053699471,None,y,1823.093053699471,None,"['y', 'return']","[0.6488070003688335, 0.8168512005358934]",1823.093053699471,None,,,38YB,001,2023_Apr_12_1610,ExactRep-v3-final,2021.2.3,59.99221310509327,
,,,,,,,,,,,,79,0,79,0,,,,,,,,,,,,,,,,,,,,,,,,,,,,,,,,,,,,,,,,,,,,,,,,,1828.2175107002258,None,,,,,,,,,,,,,,,,,,,,,,,,,,,,,,,,,,,,,,,,,,,,,,,,,,,,,,,,,student,203,80,sing,new,blue,1824.4600705001503,None,n,1824.4600705001503,None,"['y', 'backspace', 'return', 'n', 'return']","[0.5937518002465367, 1.5055721998214722, 2.12982780020684, 3.537796000018716, 3.713894199579954]",1824.4600705001503,None,,,38YB,001,2023_Apr_12_1610,ExactRep-v3-final,2021.2.3,59.99221310509327,
,,,,,,,,,,,,80,0,80,0,,,,,,,,,,,,,,,,,,,,,,,,,,,,,,,,,,,,,,,,,,,,,,,,,1830.653385899961,None,,,,,,,,,,,,,,,,,,,,,,,,,,,,,,,,,,,,,,,,,,,,,,,,,,,,,,,,,glory,129,81,silent,new,white,1828.7265837993473,None,n,1828.7265837993473,None,"['n', 'return']","[1.6554966997355223, 1.879262000322342]",1828.7265837993473,None,,,38YB,001,2023_Apr_12_1610,ExactRep-v3-final,2021.2.3,59.99221310509327,
,,,,,,,,,,,,81,0,81,0,,,,,,,,,,,,,,,,,,,,,,,,,,,,,,,,,,,,,,,,,,,,,,,,,1832.388590699993,None,,,,,,,,,,,,,,,,,,,,,,,,,,,,,,,,,,,,,,,,,,,,,,,,,,,,,,,,,college,208,82,aloud,new,red,1831.1665036994964,None,n,1831.1665036994964,None,"['n', 'return']","[0.9753447007387877, 1.1834042007103562]",1831.1665036994964,None,,,38YB,001,2023_Apr_12_1610,ExactRep-v3-final,2021.2.3,59.99221310509327,
,,,,,,,,,,,,82,0,82,0,,,,,,,,,,,,,,,,,,,,,,,,,,,,,,,,,,,,,,,,,,,,,,,,,1833.7899826001376,None,,,,,,,,,,,,,,,,,,,,,,,,,,,,,,,,,,,,,,,,,,,,,,,,,,,,,,,,,volume,139,83,silent,new,white,1832.8963192999363,None,n,1832.8963192999363,None,"['n', 'return']","[0.6374843996018171, 0.853533299639821]",1832.8963192999363,None,,,38YB,001,2023_Apr_12_1610,ExactRep-v3-final,2021.2.3,59.99221310509327,
,,,,,,,,,,,,83,0,83,0,,,,,,,,,,,,,,,,,,,,,,,,,,,,,,,,,,,,,,,,,,,,,,,,,1835.6916538998485,None,,,,,,,,,,,,,,,,,,,,,,,,,,,,,,,,,,,,,,,,,,,,,,,,,,,,,,,,,style,166,84,aloud,new,red,1834.2924048993737,None,y,1834.2924048993737,None,"['y', 'return']","[1.2333956006914377, 1.3614094005897641]",1834.2924048993737,None,,,38YB,001,2023_Apr_12_1610,ExactRep-v3-final,2021.2.3,59.99221310509327,
,,,,,,,,,,,,84,0,84,0,,,,,,,,,,,,,,,,,,,,,,,,,,,,,,,,,,,,,,,,,,,,,,,,,1837.943926599808,None,,,,,,,,,,,,,,,,,,,,,,,,,,,,,,,,,,,,,,,,,,,,,,,,,,,,,,,,,street,219,85,sing,new,blue,1836.2020407998934,None,y,1836.2020407998934,None,"['y', 'return']","[1.1720248004421592, 1.6998085007071495]",1836.2020407998934,None,,,38YB,001,2023_Apr_12_1610,ExactRep-v3-final,2021.2.3,59.99221310509327,
,,,,,,,,,,,,85,0,85,0,,,,,,,,,,,,,,,,,,,,,,,,,,,,,,,,,,,,,,,,,,,,,,,,,1839.5121331997216,None,,,,,,,,,,,,,,,,,,,,,,,,,,,,,,,,,,,,,,,,,,,,,,,,,,,,,,,,,ocean,55,86,silent,old,white,1838.4515303997323,None,y,1838.4515303997323,None,"['y', 'return']","[0.8824212001636624, 1.0182137005031109]",1838.4515303997323,None,,,38YB,001,2023_Apr_12_1610,ExactRep-v3-final,2021.2.3,59.99221310509327,
,,,,,,,,,,,,86,0,86,0,,,,,,,,,,,,,,,,,,,,,,,,,,,,,,,,,,,,,,,,,,,,,,,,,1840.8969000997022,None,,,,,,,,,,,,,,,,,,,,,,,,,,,,,,,,,,,,,,,,,,,,,,,,,,,,,,,,,water,181,87,sing,new,blue,1840.0195611994714,None,y,1840.0195611994714,None,"['y', 'return']","[0.6984848994761705, 0.8344291001558304]",1840.0195611994714,None,,,38YB,001,2023_Apr_12_1610,ExactRep-v3-final,2021.2.3,59.99221310509327,
,,,,,,,,,,,,87,0,87,0,,,,,,,,,,,,,,,,,,,,,,,,,,,,,,,,,,,,,,,,,,,,,,,,,1842.231562299654,None,,,,,,,,,,,,,,,,,,,,,,,,,,,,,,,,,,,,,,,,,,,,,,,,,,,,,,,,,money,29,88,sing,old,blue,1841.4125480996445,None,y,1841.4125480996445,None,"['y', 'return']","[0.5612292001023889, 0.7852220004424453]",1841.4125480996445,None,,,38YB,001,2023_Apr_12_1610,ExactRep-v3-final,2021.2.3,59.99221310509327,
,,,,,,,,,,,,88,0,88,0,,,,,,,,,,,,,,,,,,,,,,,,,,,,,,,,,,,,,,,,,,,,,,,,,1843.4495427999645,None,,,,,,,,,,,,,,,,,,,,,,,,,,,,,,,,,,,,,,,,,,,,,,,,,,,,,,,,,life,202,89,aloud,new,red,1842.7405763994902,None,y,1842.7405763994902,None,"['y', 'return']","[0.5533111002296209, 0.6731668002903461]",1842.7405763994902,None,,,38YB,001,2023_Apr_12_1610,ExactRep-v3-final,2021.2.3,59.99221310509327,
,,,,,,,,,,,,89,0,89,0,,,,,,,,,,,,,,,,,,,,,,,,,,,,,,,,,,,,,,,,,,,,,,,,,1844.900864600204,None,,,,,,,,,,,,,,,,,,,,,,,,,,,,,,,,,,,,,,,,,,,,,,,,,,,,,,,,,apple,93,90,aloud,old,red,1843.956622700207,None,y,1843.956622700207,None,"['y', 'return']","[0.7610865002498031, 0.8973523005843163]",1843.956622700207,None,,,38YB,001,2023_Apr_12_1610,ExactRep-v3-final,2021.2.3,59.99221310509327,
,,,,,,,,,,,,90,0,90,0,,,,,,,,,,,,,,,,,,,,,,,,,,,,,,,,,,,,,,,,,,,,,,,,,1846.2697037002072,None,,,,,,,,,,,,,,,,,,,,,,,,,,,,,,,,,,,,,,,,,,,,,,,,,,,,,,,,,pupil,222,91,aloud,new,red,1845.469877500087,None,y,1845.469877500087,None,"['y', 'return']","[0.6079088998958468, 0.7520112004131079]",1845.469877500087,None,,,38YB,001,2023_Apr_12_1610,ExactRep-v3-final,2021.2.3,59.99221310509327,
,,,,,,,,,,,,91,0,91,0,,,,,,,,,,,,,,,,,,,,,,,,,,,,,,,,,,,,,,,,,,,,,,,,,1847.4534384999424,None,,,,,,,,,,,,,,,,,,,,,,,,,,,,,,,,,,,,,,,,,,,,,,,,,,,,,,,,,chair,235,92,sing,new,blue,1846.7863740995526,None,y,1846.7863740995526,None,"['y', 'return']","[0.507498299703002, 0.635517199523747]",1846.7863740995526,None,,,38YB,001,2023_Apr_12_1610,ExactRep-v3-final,2021.2.3,59.99221310509327,
,,,,,,,,,,,,92,0,92,0,,,,,,,,,,,,,,,,,,,,,,,,,,,,,,,,,,,,,,,,,,,,,,,,,1849.3052749997005,None,,,,,,,,,,,,,,,,,,,,,,,,,,,,,,,,,,,,,,,,,,,,,,,,,,,,,,,,,bowl,10,93,sing,old,blue,1847.9597966000438,None,y,1847.9597966000438,None,"['y', 'return']","[0.7261330001056194, 1.3099158992990851]",1847.9597966000438,None,,,38YB,001,2023_Apr_12_1610,ExactRep-v3-final,2021.2.3,59.99221310509327,
,,,,,,,,,,,,93,0,93,0,,,,,,,,,,,,,,,,,,,,,,,,,,,,,,,,,,,,,,,,,,,,,,,,,1852.1581416996196,None,,,,,,,,,,,,,,,,,,,,,,,,,,,,,,,,,,,,,,,,,,,,,,,,,,,,,,,,,prison,198,94,aloud,new,red,1849.816692000255,None,y,1849.816692000255,None,"['y', 'return']","[2.1411199998110533, 2.3092672005295753]",1849.816692000255,None,,,38YB,001,2023_Apr_12_1610,ExactRep-v3-final,2021.2.3,59.99221310509327,
,,,,,,,,,,,,94,0,94,0,,,,,,,,,,,,,,,,,,,,,,,,,,,,,,,,,,,,,,,,,,,,,,,,,1853.4929475998506,None,,,,,,,,,,,,,,,,,,,,,,,,,,,,,,,,,,,,,,,,,,,,,,,,,,,,,,,,,woods,210,95,aloud,new,red,1852.661096099764,None,y,1852.661096099764,None,"['y', 'return']","[0.5608689002692699, 0.7848390005528927]",1852.661096099764,None,,,38YB,001,2023_Apr_12_1610,ExactRep-v3-final,2021.2.3,59.99221310509327,
,,,,,,,,,,,,95,0,95,0,,,,,,,,,,,,,,,,,,,,,,,,,,,,,,,,,,,,,,,,,,,,,,,,,1854.877508699894,None,,,,,,,,,,,,,,,,,,,,,,,,,,,,,,,,,,,,,,,,,,,,,,,,,,,,,,,,,book,188,96,aloud,new,red,1854.0033284993842,None,y,1854.0033284993842,None,"['y', 'return']","[0.5544520998373628, 0.8344015991315246]",1854.0033284993842,None,,,38YB,001,2023_Apr_12_1610,ExactRep-v3-final,2021.2.3,59.99221310509327,
,,,,,,,,,,,,96,0,96,0,,,,,,,,,,,,,,,,,,,,,,,,,,,,,,,,,,,,,,,,,,,,,,,,,1856.145487899892,None,,,,,,,,,,,,,,,,,,,,,,,,,,,,,,,,,,,,,,,,,,,,,,,,,,,,,,,,,camp,3,97,sing,old,blue,1855.3793262997642,None,y,1855.3793262997642,None,"['y', 'return']","[0.5944809000939131, 0.7224117005243897]",1855.3793262997642,None,,,38YB,001,2023_Apr_12_1610,ExactRep-v3-final,2021.2.3,59.99221310509327,
,,,,,,,,,,,,97,0,97,0,,,,,,,,,,,,,,,,,,,,,,,,,,,,,,,,,,,,,,,,,,,,,,,,,1857.3135134996846,None,,,,,,,,,,,,,,,,,,,,,,,,,,,,,,,,,,,,,,,,,,,,,,,,,,,,,,,,,science,201,98,sing,new,blue,1856.6550057996064,None,y,1856.6550057996064,None,"['y', 'return']","[0.4229396004229784, 0.62289800029248]",1856.6550057996064,None,,,38YB,001,2023_Apr_12_1610,ExactRep-v3-final,2021.2.3,59.99221310509327,
,,,,,,,,,,,,98,0,98,0,,,,,,,,,,,,,,,,,,,,,,,,,,,,,,,,,,,,,,,,,,,,,,,,,1858.6480069002137,None,,,,,,,,,,,,,,,,,,,,,,,,,,,,,,,,,,,,,,,,,,,,,,,,,,,,,,,,,hotel,87,99,aloud,old,red,1857.8257218999788,None,y,1857.8257218999788,None,"['y', 'return']","[0.4682240001857281, 0.7880854997783899]",1857.8257218999788,None,,,38YB,001,2023_Apr_12_1610,ExactRep-v3-final,2021.2.3,59.99221310509327,
,,,,,,,,,,,,99,0,99,0,,,,,,,,,,,,,,,,,,,,,,,,,,,,,,,,,,,,,,,,,,,,,,,,,1860.2495706994087,None,,,,,,,,,,,,,,,,,,,,,,,,,,,,,,,,,,,,,,,,,,,,,,,,,,,,,,,,,paper,209,100,sing,new,blue,1859.1587330000475,None,y,1859.1587330000475,None,"['y', 'return']","[0.735066800378263, 1.0552418995648623]",1859.1587330000475,None,,,38YB,001,2023_Apr_12_1610,ExactRep-v3-final,2021.2.3,59.99221310509327,
,,,,,,,,,,,,100,0,100,0,,,,,,,,,,,,,,,,,,,,,,,,,,,,,,,,,,,,,,,,,,,,,,,,,1863.285922399722,None,,,,,,,,,,,,,,,,,,,,,,,,,,,,,,,,,,,,,,,,,,,,,,,,,,,,,,,,,string,28,101,sing,old,blue,1860.7503121001646,None,y,1860.7503121001646,None,"['y', 'return']","[1.8474842999130487, 2.487480300478637]",1860.7503121001646,None,,,38YB,001,2023_Apr_12_1610,ExactRep-v3-final,2021.2.3,59.99221310509327,
,,,,,,,,,,,,101,0,101,0,,,,,,,,,,,,,,,,,,,,,,,,,,,,,,,,,,,,,,,,,,,,,,,,,1864.7707741996273,None,,,,,,,,,,,,,,,,,,,,,,,,,,,,,,,,,,,,,,,,,,,,,,,,,,,,,,,,,stone,194,102,aloud,new,red,1863.798937799409,None,y,1863.798937799409,None,"['y', 'return']","[0.6711523002013564, 0.9269229006022215]",1863.798937799409,None,,,38YB,001,2023_Apr_12_1610,ExactRep-v3-final,2021.2.3,59.99221310509327,
,,,,,,,,,,,,102,0,102,0,,,,,,,,,,,,,,,,,,,,,,,,,,,,,,,,,,,,,,,,,,,,,,,,,1868.9248950993642,None,,,,,,,,,,,,,,,,,,,,,,,,,,,,,,,,,,,,,,,,,,,,,,,,,,,,,,,,,boy,132,103,silent,new,white,1865.2796035995707,None,n,1865.2796035995707,None,"['return', 'n', 'return']","[3.022307500243187, 3.4301835000514984, 3.598307200707495]",1865.2796035995707,None,,,38YB,001,2023_Apr_12_1610,ExactRep-v3-final,2021.2.3,59.99221310509327,
,,,,,,,,,,,,103,0,103,0,,,,,,,,,,,,,,,,,,,,,,,,,,,,,,,,,,,,,,,,,,,,,,,,,1870.609918099828,None,,,,,,,,,,,,,,,,,,,,,,,,,,,,,,,,,,,,,,,,,,,,,,,,,,,,,,,,,dawn,169,104,sing,new,blue,1869.4349721996114,None,n,1869.4349721996114,None,"['n', 'return']","[1.010831099934876, 1.1307661002501845]",1869.4349721996114,None,,,38YB,001,2023_Apr_12_1610,ExactRep-v3-final,2021.2.3,59.99221310509327,
,,,,,,,,,,,,104,0,104,0,,,,,,,,,,,,,,,,,,,,,,,,,,,,,,,,,,,,,,,,,,,,,,,,,1872.3116084998474,None,,,,,,,,,,,,,,,,,,,,,,,,,,,,,,,,,,,,,,,,,,,,,,,,,,,,,,,,,excuse,89,105,aloud,old,red,1871.118515599519,None,y,1871.118515599519,None,"['y', 'return']","[1.0553512992337346, 1.1593380998820066]",1871.118515599519,None,,,38YB,001,2023_Apr_12_1610,ExactRep-v3-final,2021.2.3,59.99221310509327,
,,,,,,,,,,,,105,0,105,0,,,,,,,,,,,,,,,,,,,,,,,,,,,,,,,,,,,,,,,,,,,,,,,,,1873.9634437998757,None,,,,,,,,,,,,,,,,,,,,,,,,,,,,,,,,,,,,,,,,,,,,,,,,,,,,,,,,,fact,119,106,aloud,old,red,1872.829694999382,None,y,1872.829694999382,None,"['y', 'return']","[0.8723129006102681, 1.0962970005348325]",1872.829694999382,None,,,38YB,001,2023_Apr_12_1610,ExactRep-v3-final,2021.2.3,59.99221310509327,
,,,,,,,,,,,,106,0,106,0,,,,,,,,,,,,,,,,,,,,,,,,,,,,,,,,,,,,,,,,,,,,,,,,,1875.2980059999973,None,,,,,,,,,,,,,,,,,,,,,,,,,,,,,,,,,,,,,,,,,,,,,,,,,,,,,,,,,pole,224,107,aloud,new,red,1874.4721844997257,None,y,1874.4721844997257,None,"['y', 'return']","[0.6376224001869559, 0.789648000150919]",1874.4721844997257,None,,,38YB,001,2023_Apr_12_1610,ExactRep-v3-final,2021.2.3,59.99221310509327,
,,,,,,,,,,,,107,0,107,0,,,,,,,,,,,,,,,,,,,,,,,,,,,,,,,,,,,,,,,,,,,,,,,,,1877.1331437993795,None,,,,,,,,,,,,,,,,,,,,,,,,,,,,,,,,,,,,,,,,,,,,,,,,,,,,,,,,,lord,19,108,sing,old,blue,1875.8055600998923,None,y,1875.8055600998923,None,"['y', 'return']","[0.6881355000659823, 1.2883949000388384]",1875.8055600998923,None,,,38YB,001,2023_Apr_12_1610,ExactRep-v3-final,2021.2.3,59.99221310509327,
,,,,,,,,,,,,108,0,108,0,,,,,,,,,,,,,,,,,,,,,,,,,,,,,,,,,,,,,,,,,,,,,,,,,1880.58670550026,None,,,,,,,,,,,,,,,,,,,,,,,,,,,,,,,,,,,,,,,,,,,,,,,,,,,,,,,,,avenue,229,109,sing,new,blue,1877.6445597996935,None,n,1877.6445597996935,None,"['n', 'return']","[2.425548800267279, 2.89723140001297]",1877.6445597996935,None,,,38YB,001,2023_Apr_12_1610,ExactRep-v3-final,2021.2.3,59.99221310509327,
,,,,,,,,,,,,109,0,109,0,,,,,,,,,,,,,,,,,,,,,,,,,,,,,,,,,,,,,,,,,,,,,,,,,1883.8898888994008,None,,,,,,,,,,,,,,,,,,,,,,,,,,,,,,,,,,,,,,,,,,,,,,,,,,,,,,,,,coffee,178,110,aloud,new,red,1881.094924500212,None,n,1881.094924500212,None,"['n', 'return']","[2.4553252002224326, 2.750939800404012]",1881.094924500212,None,,,38YB,001,2023_Apr_12_1610,ExactRep-v3-final,2021.2.3,59.99221310509327,
,,,,,,,,,,,,110,0,110,0,,,,,,,,,,,,,,,,,,,,,,,,,,,,,,,,,,,,,,,,,,,,,,,,,1886.1754304999486,None,,,,,,,,,,,,,,,,,,,,,,,,,,,,,,,,,,,,,,,,,,,,,,,,,,,,,,,,,river,95,111,aloud,old,red,1884.391230000183,None,y,1884.391230000183,None,"['y', 'return']","[0.5186222996562719, 1.7425031997263432]",1884.391230000183,None,,,38YB,001,2023_Apr_12_1610,ExactRep-v3-final,2021.2.3,59.99221310509327,
,,,,,,,,,,,,111,0,111,0,,,,,,,,,,,,,,,,,,,,,,,,,,,,,,,,,,,,,,,,,,,,,,,,,1887.6936518996954,None,,,,,,,,,,,,,,,,,,,,,,,,,,,,,,,,,,,,,,,,,,,,,,,,,,,,,,,,,pride,187,112,sing,new,blue,1886.6875759996474,None,y,1886.6875759996474,None,"['y', 'return']","[0.6061225002631545, 0.9663038998842239]",1886.6875759996474,None,,,38YB,001,2023_Apr_12_1610,ExactRep-v3-final,2021.2.3,59.99221310509327,
,,,,,,,,,,,,112,0,112,0,,,,,,,,,,,,,,,,,,,,,,,,,,,,,,,,,,,,,,,,,,,,,,,,,1889.0618083002046,None,,,,,,,,,,,,,,,,,,,,,,,,,,,,,,,,,,,,,,,,,,,,,,,,,,,,,,,,,cat,34,113,sing,old,blue,1888.2029194999486,None,y,1888.2029194999486,None,"['y', 'return']","[0.4669026993215084, 0.8110346999019384]",1888.2029194999486,None,,,38YB,001,2023_Apr_12_1610,ExactRep-v3-final,2021.2.3,59.99221310509327,
,,,,,,,,,,,,113,0,113,0,,,,,,,,,,,,,,,,,,,,,,,,,,,,,,,,,,,,,,,,,,,,,,,,,1890.579879200086,None,,,,,,,,,,,,,,,,,,,,,,,,,,,,,,,,,,,,,,,,,,,,,,,,,,,,,,,,,flood,239,114,sing,new,blue,1889.5717461993918,None,y,1889.5717461993918,None,"['y', 'return']","[0.5461512003093958, 0.9621101003140211]",1889.5717461993918,None,,,38YB,001,2023_Apr_12_1610,ExactRep-v3-final,2021.2.3,59.99221310509327,
,,,,,,,,,,,,114,0,114,0,,,,,,,,,,,,,,,,,,,,,,,,,,,,,,,,,,,,,,,,,,,,,,,,,1891.9812941001728,None,,,,,,,,,,,,,,,,,,,,,,,,,,,,,,,,,,,,,,,,,,,,,,,,,,,,,,,,,pipe,97,115,aloud,old,red,1891.0909289000556,None,y,1891.0909289000556,None,"['y', 'return']","[0.5710212998092175, 0.8509387001395226]",1891.0909289000556,None,,,38YB,001,2023_Apr_12_1610,ExactRep-v3-final,2021.2.3,59.99221310509327,
,,,,,,,,,,,,115,0,115,0,,,,,,,,,,,,,,,,,,,,,,,,,,,,,,,,,,,,,,,,,,,,,,,,,1893.232756299898,None,,,,,,,,,,,,,,,,,,,,,,,,,,,,,,,,,,,,,,,,,,,,,,,,,,,,,,,,,horse,4,116,sing,old,blue,1892.488656600006,None,y,1892.488656600006,None,"['y', 'return']","[0.3331222999840975, 0.7011660002171993]",1892.488656600006,None,,,38YB,001,2023_Apr_12_1610,ExactRep-v3-final,2021.2.3,59.99221310509327,
,,,,,,,,,,,,116,0,116,0,,,,,,,,,,,,,,,,,,,,,,,,,,,,,,,,,,,,,,,,,,,,,,,,,1895.635010899976,None,,,,,,,,,,,,,,,,,,,,,,,,,,,,,,,,,,,,,,,,,,,,,,,,,,,,,,,,,king,99,117,aloud,old,red,1893.7502367999405,None,y,1893.7502367999405,None,"['y', 'return']","[0.2796604000031948, 1.8396247001364827]",1893.7502367999405,None,,,38YB,001,2023_Apr_12_1610,ExactRep-v3-final,2021.2.3,59.99221310509327,
,,,,,,,,,,,,117,0,117,0,,,,,,,,,,,,,,,,,,,,,,,,,,,,,,,,,,,,,,,,,,,,,,,,,1898.6880770996213,None,,,,,,,,,,,,,,,,,,,,,,,,,,,,,,,,,,,,,,,,,,,,,,,,,,,,,,,,,amount,176,118,aloud,new,red,1896.141603499651,None,n,1896.141603499651,None,"['n', 'y', 'y', 'y', 'return']","[0.6562932003289461, 1.4244459001347423, 1.7842105999588966, 2.1922345999628305, 2.504262199625373]",1896.141603499651,None,,,38YB,001,2023_Apr_12_1610,ExactRep-v3-final,2021.2.3,59.99221310509327,
,,,,,,,,,,,,118,0,118,0,,,,,,,,,,,,,,,,,,,,,,,,,,,,,,,,,,,,,,,,,,,,,,,,,1902.3584490995854,None,,,,,,,,,,,,,,,,,,,,,,,,,,,,,,,,,,,,,,,,,,,,,,,,,,,,,,,,,grass,82,119,aloud,old,red,1899.196210199967,None,n,1899.196210199967,None,"['n', 'return']","[2.4739191001281142, 3.1295742001384497]",1899.196210199967,None,,,38YB,001,2023_Apr_12_1610,ExactRep-v3-final,2021.2.3,59.99221310509327,
,,,,,,,,,,,,119,0,119,0,,,,,,,,,,,,,,,,,,,,,,,,,,,,,,,,,,,,,,,,,,,,,,,,,1906.3458421994,None,,,,,,,,,,,,,,,,,,,,,,,,,,,,,,,,,,,,,,,,,,,,,,,,,,,,,,,,,devil,161,120,sing,new,blue,1902.87008100003,None,n,1902.87008100003,None,"['y', 'n', 'n', 'backspace', 'n', 'return']","[0.4239026000723243, 1.431822999380529, 1.9197514997795224, 2.5999557999894023, 3.015891299583018, 3.4318156000226736]",1902.87008100003,None,,,38YB,001,2023_Apr_12_1610,ExactRep-v3-final,2021.2.3,59.99221310509327,
,,,,,,,,,,,,120,0,120,0,,,,,,,,,,,,,,,,,,,,,,,,,,,,,,,,,,,,,,,,,,,,,,,,,1908.531165599823,None,,,,,,,,,,,,,,,,,,,,,,,,,,,,,,,,,,,,,,,,,,,,,,,,,,,,,,,,,child,192,121,aloud,new,red,1906.8462622994557,None,y,1906.8462622994557,None,"['y', 'return']","[1.2157801007851958, 1.639661000110209]",1906.8462622994557,None,,,38YB,001,2023_Apr_12_1610,ExactRep-v3-final,2021.2.3,59.99221310509327,
,,,,,,,,,,,,121,0,121,0,,,,,,,,,,,,,,,,,,,,,,,,,,,,,,,,,,,,,,,,,,,,,,,,,1909.9827332999557,None,,,,,,,,,,,,,,,,,,,,,,,,,,,,,,,,,,,,,,,,,,,,,,,,,,,,,,,,,leader,231,122,sing,new,blue,1909.0415022997186,None,y,1909.0415022997186,None,"['y', 'return']","[0.6444142004474998, 0.9003506004810333]",1909.0415022997186,None,,,38YB,001,2023_Apr_12_1610,ExactRep-v3-final,2021.2.3,59.99221310509327,
,,,,,,,,,,,,122,0,122,0,,,,,,,,,,,,,,,,,,,,,,,,,,,,,,,,,,,,,,,,,,,,,,,,,1911.4841989995912,None,,,,,,,,,,,,,,,,,,,,,,,,,,,,,,,,,,,,,,,,,,,,,,,,,,,,,,,,,cash,135,123,silent,new,white,1910.4831718001515,None,y,1910.4831718001515,None,"['return', 'y', 'return']","[0.23478899989277124, 0.7066247994080186, 0.9547873996198177]",1910.4831718001515,None,,,38YB,001,2023_Apr_12_1610,ExactRep-v3-final,2021.2.3,59.99221310509327,
,,,,,,,,,,,,123,0,123,0,,,,,,,,,,,,,,,,,,,,,,,,,,,,,,,,,,,,,,,,,,,,,,,,,1912.885592999868,None,,,,,,,,,,,,,,,,,,,,,,,,,,,,,,,,,,,,,,,,,,,,,,,,,,,,,,,,,poet,196,124,aloud,new,red,1911.9871975993738,None,y,1911.9871975993738,None,"['y', 'return']","[0.6507011000066996, 0.8506804006174207]",1911.9871975993738,None,,,38YB,001,2023_Apr_12_1610,ExactRep-v3-final,2021.2.3,59.99221310509327,
,,,,,,,,,,,,124,0,124,0,,,,,,,,,,,,,,,,,,,,,,,,,,,,,,,,,,,,,,,,,,,,,,,,,1914.3203328996897,None,,,,,,,,,,,,,,,,,,,,,,,,,,,,,,,,,,,,,,,,,,,,,,,,,,,,,,,,,passion,102,125,aloud,old,red,1913.3948646001518,None,y,1913.3948646001518,None,"['return', 'y', 'return']","[0.33897679951041937, 0.6509953001514077, 0.890985899604857]",1913.3948646001518,None,,,38YB,001,2023_Apr_12_1610,ExactRep-v3-final,2021.2.3,59.99221310509327,
,,,,,,,,,,,,125,0,125,0,,,,,,,,,,,,,,,,,,,,,,,,,,,,,,,,,,,,,,,,,,,,,,,,,1918.5579694993794,None,,,,,,,,,,,,,,,,,,,,,,,,,,,,,,,,,,,,,,,,,,,,,,,,,,,,,,,,,gift,233,126,sing,new,blue,1914.8208109000698,None,y,1914.8208109000698,None,"['n', 'y', 'backspace', 'y', 'return']","[0.6970649994909763, 1.6730797998607159, 2.561061299405992, 3.3451403994113207, 3.7050681998953223]",1914.8208109000698,None,,,38YB,001,2023_Apr_12_1610,ExactRep-v3-final,2021.2.3,59.99221310509327,
,,,,,,,,,,,,126,0,126,0,,,,,,,,,,,,,,,,,,,,,,,,,,,,,,,,,,,,,,,,,,,,,,,,,1920.7100868998095,None,,,,,,,,,,,,,,,,,,,,,,,,,,,,,,,,,,,,,,,,,,,,,,,,,,,,,,,,,sky,154,127,silent,new,white,1919.0667620999739,None,n,1919.0667620999739,None,"['n', 'return']","[1.4750528000295162, 1.6110621998086572]",1919.0667620999739,None,,,38YB,001,2023_Apr_12_1610,ExactRep-v3-final,2021.2.3,59.99221310509327,
,,,,,,,,,,,,127,0,127,0,,,,,,,,,,,,,,,,,,,,,,,,,,,,,,,,,,,,,,,,,,,,,,,,,1922.8955745995045,None,,,,,,,,,,,,,,,,,,,,,,,,,,,,,,,,,,,,,,,,,,,,,,,,,,,,,,,,,wife,16,128,sing,old,blue,1921.2173159001395,None,y,1921.2173159001395,None,"['y', 'return']","[1.4604946998879313, 1.6445601005107164]",1921.2173159001395,None,,,38YB,001,2023_Apr_12_1610,ExactRep-v3-final,2021.2.3,59.99221310509327,
,,,,,,,,,,,,128,0,128,0,,,,,,,,,,,,,,,,,,,,,,,,,,,,,,,,,,,,,,,,,,,,,,,,,1924.3970437999815,None,,,,,,,,,,,,,,,,,,,,,,,,,,,,,,,,,,,,,,,,,,,,,,,,,,,,,,,,,mercy,31,129,sing,old,blue,1923.405235500075,None,y,1923.405235500075,None,"['y', 'return']","[0.6406001998111606, 0.9527751002460718]",1923.405235500075,None,,,38YB,001,2023_Apr_12_1610,ExactRep-v3-final,2021.2.3,59.99221310509327,
