trials_fam.thisRepN,trials_fam.thisTrialN,trials_fam.thisN,trials_fam.thisIndex,trials_prc.thisRepN,trials_prc.thisTrialN,trials_prc.thisN,trials_prc.thisIndex,StudyLoop.thisRepN,StudyLoop.thisTrialN,StudyLoop.thisN,StudyLoop.thisIndex,TestLoop.thisRepN,TestLoop.thisTrialN,TestLoop.thisN,TestLoop.thisIndex,text_colortest.started,text_colortest.stopped,key_colortest.keys,key_colortest.rt,key_colortest.started,key_colortest.stopped,textCondition.started,textCondition.stopped,keyCondition.keys,keyCondition.rt,keyCondition.started,keyCondition.stopped,Condition_between,Condition_counterbal,keyWelcome.keys,keyWelcome.rt,keyWelcome.started,keyWelcome.stopped,welcome_a.started,welcome_a.stopped,welcome_b.started,welcome_b.stopped,welcome_c.started,welcome_c.stopped,welcome_d.started,welcome_d.stopped,welcome_e.started,welcome_e.stopped,welcome_f.started,welcome_f.stopped,key_resp_fam_inst.keys,key_resp_fam_inst.rt,key_resp_fam_inst.started,key_resp_fam_inst.stopped,fam_a.started,fam_a.stopped,fam_b.started,fam_b.stopped,fam_c.started,fam_c.stopped,fam_d.started,fam_d.stopped,fam_e.started,fam_e.stopped,fam_f.started,fam_f.stopped,text_famil.started,text_famil.stopped,textBlank500.started,textBlank500.stopped,key_resp_prc_inst.keys,key_resp_prc_inst.rt,key_resp_prc_inst.started,key_resp_prc_inst.stopped,prac_a.started,prac_a.stopped,prac_b.started,prac_b.stopped,prac_c.started,prac_c.stopped,prac_d.started,prac_d.stopped,prac_e.started,prac_e.stopped,prac_f.started,prac_f.stopped,text_prc_trial.started,text_prc_trial.stopped,key_resp_study_inst.keys,key_resp_study_inst.rt,key_resp_study_inst.started,key_resp_study_inst.stopped,crit_a.started,crit_a.stopped,crit_b.started,crit_b.stopped,crit_c.started,crit_c.stopped,crit_d.started,crit_d.stopped,crit_e.started,crit_e.stopped,crit_f.started,crit_f.stopped,study_word,study_num,study_order,study_type,word_color,textStudy.started,textStudy.stopped,keyStudy.keys,keyStudy.started,keyStudy.stopped,post_study.started,post_study.stopped,key_resp_post_study.keys,key_resp_post_study.rt,key_resp_post_study.started,key_resp_post_study.stopped,test_inst.started,test_inst.stopped,key_resp_test_inst.keys,key_resp_test_inst.rt,key_resp_test_inst.started,key_resp_test_inst.stopped,test_word,test_num,test_order,test_condition,old_new_test,word_color_test,textConf.started,textConf.stopped,Participant Response,textInput.started,textInput.stopped,keyResp.keys,keyResp.rt,keyResp.started,keyResp.stopped,textEnd.started,textEnd.stopped,participant,session,date,expName,psychopyVersion,frameRate,
,,,,,,,,,,,,,,,,18.23267739918083,None,y,0.5583963999524713,18.23267739918083,None,,,,,,,,,,,,,,,,,,,,,,,,,,,,,,,,,,,,,,,,,,,,,,,,,,,,,,,,,,,,,,,,,,,,,,,,,,,,,,,,,,,,,,,,,,,,,,,,,,,,,,,,,,,,,,,,,,,,,,39YC,001,2023_Apr_14_1047,ExactRep-v3-final,2021.2.3,59.91069709052581,
,,,,,,,,,,,,,,,,,,,,,,18.821950499899685,None,c,0.9290705006569624,18.821950499899685,None,,,,,,,,,,,,,,,,,,,,,,,,,,,,,,,,,,,,,,,,,,,,,,,,,,,,,,,,,,,,,,,,,,,,,,,,,,,,,,,,,,,,,,,,,,,,,,,,,,,,,,,,,,,,,,,,39YC,001,2023_Apr_14_1047,ExactRep-v3-final,2021.2.3,59.91069709052581,
,,,,,,,,,,,,,,,,,,,,,,,,,,,,colorfoils,c,space,947.0616023996845,29.858905899338424,None,,,,,,,,,,,,,,,,,,,,,,,,,,,,,,,,,,,,,,,,,,,,,,,,,,,,,,,,,,,,,,,,,,,,,,,,,,,,,,,,,,,,,,,,,,,,,,,,,,,,,,,,,,39YC,001,2023_Apr_14_1047,ExactRep-v3-final,2021.2.3,59.91069709052581,
,,,,,,,,,,,,,,,,,,,,,,,,,,,,,,,,,,19.92510619945824,None,19.92510619945824,None,19.92510619945824,None,19.92510619945824,None,19.92510619945824,None,19.92510619945824,None,space,19.283642600290477,987.0443828999996,None,,,,,,,,,,,,,,,,,,,,,,,,,,,,,,,,,,,,,,,,,,,,,,,,,,,,,,,,,,,,,,,,,,,,,,,,,,,,,,,,,,,,,,,,,,39YC,001,2023_Apr_14_1047,ExactRep-v3-final,2021.2.3,59.91069709052581,
0,0,0,0,,,,,,,,,,,,,,,,,,,,,,,,,,,,,,,,,,,,,,,,,,,,,,,977.0866239992902,None,977.0866239992902,None,977.0866239992902,None,977.0866239992902,None,977.0866239992902,None,977.0866239992902,None,1006.4426422994584,None,1008.4282353995368,None,,,,,,,,,,,,,,,,,,,,,,,,,,,,,,,,,,,,,,,,,,,,,,,,,,,,,,,,,,,,,,,,,,,,,,,,,,39YC,001,2023_Apr_14_1047,ExactRep-v3-final,2021.2.3,59.91069709052581,
1,0,1,0,,,,,,,,,,,,,,,,,,,,,,,,,,,,,,,,,,,,,,,,,,,,,,,,,,,,,,,,,,,1008.9287724997848,None,1010.9308941997588,None,,,,,,,,,,,,,,,,,,,,,,,,,,,,,,,,,,,,,,,,,,,,,,,,,,,,,,,,,,,,,,,,,,,,,,,,,,39YC,001,2023_Apr_14_1047,ExactRep-v3-final,2021.2.3,59.91069709052581,
2,0,2,0,,,,,,,,,,,,,,,,,,,,,,,,,,,,,,,,,,,,,,,,,,,,,,,,,,,,,,,,,,,1011.4312693998218,None,1013.4332259995863,None,,,,,,,,,,,,,,,,,,,,,,,,,,,,,,,,,,,,,,,,,,,,,,,,,,,,,,,,,,,,,,,,,,,,,,,,,,39YC,001,2023_Apr_14_1047,ExactRep-v3-final,2021.2.3,59.91069709052581,
3,0,3,0,,,,,,,,,,,,,,,,,,,,,,,,,,,,,,,,,,,,,,,,,,,,,,,,,,,,,,,,,,,1013.9439725996926,None,1015.952414999716,None,,,,,,,,,,,,,,,,,,,,,,,,,,,,,,,,,,,,,,,,,,,,,,,,,,,,,,,,,,,,,,,,,,,,,,,,,,39YC,001,2023_Apr_14_1047,ExactRep-v3-final,2021.2.3,59.91069709052581,
4,0,4,0,,,,,,,,,,,,,,,,,,,,,,,,,,,,,,,,,,,,,,,,,,,,,,,,,,,,,,,,,,,1016.4529642993584,None,1018.4547413997352,None,,,,,,,,,,,,,,,,,,,,,,,,,,,,,,,,,,,,,,,,,,,,,,,,,,,,,,,,,,,,,,,,,,,,,,,,,,39YC,001,2023_Apr_14_1047,ExactRep-v3-final,2021.2.3,59.91069709052581,
5,0,5,0,,,,,,,,,,,,,,,,,,,,,,,,,,,,,,,,,,,,,,,,,,,,,,,,,,,,,,,,,,,1018.9656873997301,None,1020.9739155992866,None,,,,,,,,,,,,,,,,,,,,,,,,,,,,,,,,,,,,,,,,,,,,,,,,,,,,,,,,,,,,,,,,,,,,,,,,,,39YC,001,2023_Apr_14_1047,ExactRep-v3-final,2021.2.3,59.91069709052581,
6,0,6,0,,,,,,,,,,,,,,,,,,,,,,,,,,,,,,,,,,,,,,,,,,,,,,,,,,,,,,,,,,,1021.4746637996286,None,1023.4766869992018,None,,,,,,,,,,,,,,,,,,,,,,,,,,,,,,,,,,,,,,,,,,,,,,,,,,,,,,,,,,,,,,,,,,,,,,,,,,39YC,001,2023_Apr_14_1047,ExactRep-v3-final,2021.2.3,59.91069709052581,
7,0,7,0,,,,,,,,,,,,,,,,,,,,,,,,,,,,,,,,,,,,,,,,,,,,,,,,,,,,,,,,,,,1023.977354099974,None,1025.9790864000097,None,,,,,,,,,,,,,,,,,,,,,,,,,,,,,,,,,,,,,,,,,,,,,,,,,,,,,,,,,,,,,,,,,,,,,,,,,,39YC,001,2023_Apr_14_1047,ExactRep-v3-final,2021.2.3,59.91069709052581,
8,0,8,0,,,,,,,,,,,,,,,,,,,,,,,,,,,,,,,,,,,,,,,,,,,,,,,,,,,,,,,,,,,1026.479323699139,None,1028.4815330998972,None,,,,,,,,,,,,,,,,,,,,,,,,,,,,,,,,,,,,,,,,,,,,,,,,,,,,,,,,,,,,,,,,,,,,,,,,,,39YC,001,2023_Apr_14_1047,ExactRep-v3-final,2021.2.3,59.91069709052581,
9,0,9,0,,,,,,,,,,,,,,,,,,,,,,,,,,,,,,,,,,,,,,,,,,,,,,,,,,,,,,,,,,,1028.98707799986,None,1031.000630499795,None,,,,,,,,,,,,,,,,,,,,,,,,,,,,,,,,,,,,,,,,,,,,,,,,,,,,,,,,,,,,,,,,,,,,,,,,,,39YC,001,2023_Apr_14_1047,ExactRep-v3-final,2021.2.3,59.91069709052581,
10,0,10,0,,,,,,,,,,,,,,,,,,,,,,,,,,,,,,,,,,,,,,,,,,,,,,,,,,,,,,,,,,,1031.5024780994281,None,1033.5035699997097,None,,,,,,,,,,,,,,,,,,,,,,,,,,,,,,,,,,,,,,,,,,,,,,,,,,,,,,,,,,,,,,,,,,,,,,,,,,39YC,001,2023_Apr_14_1047,ExactRep-v3-final,2021.2.3,59.91069709052581,
11,0,11,0,,,,,,,,,,,,,,,,,,,,,,,,,,,,,,,,,,,,,,,,,,,,,,,,,,,,,,,,,,,1034.0123183997348,None,1036.0225049993023,None,,,,,,,,,,,,,,,,,,,,,,,,,,,,,,,,,,,,,,,,,,,,,,,,,,,,,,,,,,,,,,,,,,,,,,,,,,39YC,001,2023_Apr_14_1047,ExactRep-v3-final,2021.2.3,59.91069709052581,
12,0,12,0,,,,,,,,,,,,,,,,,,,,,,,,,,,,,,,,,,,,,,,,,,,,,,,,,,,,,,,,,,,1036.5229300996289,None,1038.5251472992823,None,,,,,,,,,,,,,,,,,,,,,,,,,,,,,,,,,,,,,,,,,,,,,,,,,,,,,,,,,,,,,,,,,,,,,,,,,,39YC,001,2023_Apr_14_1047,ExactRep-v3-final,2021.2.3,59.91069709052581,
13,0,13,0,,,,,,,,,,,,,,,,,,,,,,,,,,,,,,,,,,,,,,,,,,,,,,,,,,,,,,,,,,,1039.025546499528,None,1041.0274888994172,None,,,,,,,,,,,,,,,,,,,,,,,,,,,,,,,,,,,,,,,,,,,,,,,,,,,,,,,,,,,,,,,,,,,,,,,,,,39YC,001,2023_Apr_14_1047,ExactRep-v3-final,2021.2.3,59.91069709052581,
14,0,14,0,,,,,,,,,,,,,,,,,,,,,,,,,,,,,,,,,,,,,,,,,,,,,,,,,,,,,,,,,,,1041.527756699361,None,1043.5298750000075,None,,,,,,,,,,,,,,,,,,,,,,,,,,,,,,,,,,,,,,,,,,,,,,,,,,,,,,,,,,,,,,,,,,,,,,,,,,39YC,001,2023_Apr_14_1047,ExactRep-v3-final,2021.2.3,59.91069709052581,
,,,,,,,,,,,,,,,,,,,,,,,,,,,,,,,,,,,,,,,,,,,,,,,,,,,,,,,,,,,,,,,,,,space,19.55927879922092,1054.1609250996262,None,,,,,,,,,,,,,,,,,,,,,,,,,,,,,,,,,,,,,,,,,,,,,,,,,,,,,,,,,,,,,,,,,,,,,,39YC,001,2023_Apr_14_1047,ExactRep-v3-final,2021.2.3,59.91069709052581,
,,,,0,0,0,0,,,,,,,,,,,,,,,,,,,,,,,,,,,,,,,,,,,,,,,,,,,,,,,,,,,,,,,,,1075.8456755997613,None,,,,,1044.1896423995495,None,1044.1896423995495,None,1044.1896423995495,None,1044.1896423995495,None,1044.1896423995495,None,1044.1896423995495,None,1073.8313696999103,None,,,,,,,,,,,,,,,,,,,,,,,,,,,,,,,,,,,,,,,,,,,,,,,,,,,,,,,,39YC,001,2023_Apr_14_1047,ExactRep-v3-final,2021.2.3,59.91069709052581,
,,,,1,0,1,0,,,,,,,,,,,,,,,,,,,,,,,,,,,,,,,,,,,,,,,,,,,,,,,,,,,,,,,,,1078.3481754995883,None,,,,,,,,,,,,,,,,,1076.3461622996256,None,,,,,,,,,,,,,,,,,,,,,,,,,,,,,,,,,,,,,,,,,,,,,,,,,,,,,,,,39YC,001,2023_Apr_14_1047,ExactRep-v3-final,2021.2.3,59.91069709052581,
,,,,2,0,2,0,,,,,,,,,,,,,,,,,,,,,,,,,,,,,,,,,,,,,,,,,,,,,,,,,,,,,,,,,1080.8508088998497,None,,,,,,,,,,,,,,,,,1078.848727799952,None,,,,,,,,,,,,,,,,,,,,,,,,,,,,,,,,,,,,,,,,,,,,,,,,,,,,,,,,39YC,001,2023_Apr_14_1047,ExactRep-v3-final,2021.2.3,59.91069709052581,
,,,,3,0,3,0,,,,,,,,,,,,,,,,,,,,,,,,,,,,,,,,,,,,,,,,,,,,,,,,,,,,,,,,,1083.3532826993614,None,,,,,,,,,,,,,,,,,1081.351041899994,None,,,,,,,,,,,,,,,,,,,,,,,,,,,,,,,,,,,,,,,,,,,,,,,,,,,,,,,,39YC,001,2023_Apr_14_1047,ExactRep-v3-final,2021.2.3,59.91069709052581,
,,,,4,0,4,0,,,,,,,,,,,,,,,,,,,,,,,,,,,,,,,,,,,,,,,,,,,,,,,,,,,,,,,,,1085.855641799979,None,,,,,,,,,,,,,,,,,1083.8533155992627,None,,,,,,,,,,,,,,,,,,,,,,,,,,,,,,,,,,,,,,,,,,,,,,,,,,,,,,,,39YC,001,2023_Apr_14_1047,ExactRep-v3-final,2021.2.3,59.91069709052581,
,,,,5,0,5,0,,,,,,,,,,,,,,,,,,,,,,,,,,,,,,,,,,,,,,,,,,,,,,,,,,,,,,,,,1088.3581605991349,None,,,,,,,,,,,,,,,,,1086.3563111992553,None,,,,,,,,,,,,,,,,,,,,,,,,,,,,,,,,,,,,,,,,,,,,,,,,,,,,,,,,39YC,001,2023_Apr_14_1047,ExactRep-v3-final,2021.2.3,59.91069709052581,
,,,,6,0,6,0,,,,,,,,,,,,,,,,,,,,,,,,,,,,,,,,,,,,,,,,,,,,,,,,,,,,,,,,,1090.8607891993597,None,,,,,,,,,,,,,,,,,1088.8586920993403,None,,,,,,,,,,,,,,,,,,,,,,,,,,,,,,,,,,,,,,,,,,,,,,,,,,,,,,,,39YC,001,2023_Apr_14_1047,ExactRep-v3-final,2021.2.3,59.91069709052581,
,,,,7,0,7,0,,,,,,,,,,,,,,,,,,,,,,,,,,,,,,,,,,,,,,,,,,,,,,,,,,,,,,,,,1093.3632367998362,None,,,,,,,,,,,,,,,,,1091.3613343993202,None,,,,,,,,,,,,,,,,,,,,,,,,,,,,,,,,,,,,,,,,,,,,,,,,,,,,,,,,39YC,001,2023_Apr_14_1047,ExactRep-v3-final,2021.2.3,59.91069709052581,
,,,,8,0,8,0,,,,,,,,,,,,,,,,,,,,,,,,,,,,,,,,,,,,,,,,,,,,,,,,,,,,,,,,,1095.865459099412,None,,,,,,,,,,,,,,,,,1093.8635048000142,None,,,,,,,,,,,,,,,,,,,,,,,,,,,,,,,,,,,,,,,,,,,,,,,,,,,,,,,,39YC,001,2023_Apr_14_1047,ExactRep-v3-final,2021.2.3,59.91069709052581,
,,,,9,0,9,0,,,,,,,,,,,,,,,,,,,,,,,,,,,,,,,,,,,,,,,,,,,,,,,,,,,,,,,,,1098.3679875992239,None,,,,,,,,,,,,,,,,,1096.3660072991624,None,,,,,,,,,,,,,,,,,,,,,,,,,,,,,,,,,,,,,,,,,,,,,,,,,,,,,,,,39YC,001,2023_Apr_14_1047,ExactRep-v3-final,2021.2.3,59.91069709052581,
,,,,10,0,10,0,,,,,,,,,,,,,,,,,,,,,,,,,,,,,,,,,,,,,,,,,,,,,,,,,,,,,,,,,1100.8708005994558,None,,,,,,,,,,,,,,,,,1098.8685472998768,None,,,,,,,,,,,,,,,,,,,,,,,,,,,,,,,,,,,,,,,,,,,,,,,,,,,,,,,,39YC,001,2023_Apr_14_1047,ExactRep-v3-final,2021.2.3,59.91069709052581,
,,,,11,0,11,0,,,,,,,,,,,,,,,,,,,,,,,,,,,,,,,,,,,,,,,,,,,,,,,,,,,,,,,,,1103.3733844999224,None,,,,,,,,,,,,,,,,,1101.3711989996955,None,,,,,,,,,,,,,,,,,,,,,,,,,,,,,,,,,,,,,,,,,,,,,,,,,,,,,,,,39YC,001,2023_Apr_14_1047,ExactRep-v3-final,2021.2.3,59.91069709052581,
,,,,12,0,12,0,,,,,,,,,,,,,,,,,,,,,,,,,,,,,,,,,,,,,,,,,,,,,,,,,,,,,,,,,1105.8754907995462,None,,,,,,,,,,,,,,,,,1103.8738796999678,None,,,,,,,,,,,,,,,,,,,,,,,,,,,,,,,,,,,,,,,,,,,,,,,,,,,,,,,,39YC,001,2023_Apr_14_1047,ExactRep-v3-final,2021.2.3,59.91069709052581,
,,,,13,0,13,0,,,,,,,,,,,,,,,,,,,,,,,,,,,,,,,,,,,,,,,,,,,,,,,,,,,,,,,,,1108.3781478991732,None,,,,,,,,,,,,,,,,,1106.376379499212,None,,,,,,,,,,,,,,,,,,,,,,,,,,,,,,,,,,,,,,,,,,,,,,,,,,,,,,,,39YC,001,2023_Apr_14_1047,ExactRep-v3-final,2021.2.3,59.91069709052581,
,,,,14,0,14,0,,,,,,,,,,,,,,,,,,,,,,,,,,,,,,,,,,,,,,,,,,,,,,,,,,,,,,,,,1110.88063280005,None,,,,,,,,,,,,,,,,,1108.878675699234,None,,,,,,,,,,,,,,,,,,,,,,,,,,,,,,,,,,,,,,,,,,,,,,,,,,,,,,,,39YC,001,2023_Apr_14_1047,ExactRep-v3-final,2021.2.3,59.91069709052581,
,,,,,,,,,,,,,,,,,,,,,,,,,,,,,,,,,,,,,,,,,,,,,,,,,,,,,,,,,,,,,,,,,,,,,,,,,,,,,,,,,,,,space,27.410273499786854,1121.5098847998306,None,,,,,,,,,,,,,,,,,,,,,,,,,,,,,,,,,,,,,,,,,,,,,,,,,,,,39YC,001,2023_Apr_14_1047,ExactRep-v3-final,2021.2.3,59.91069709052581,
,,,,,,,,0,0,0,0,,,,,,,,,,,,,,,,,,,,,,,,,,,,,,,,,,,,,,,,,,,,,,,,,,,,,1151.0041771000251,None,,,,,,,,,,,,,,,,,,,,,,,1111.5381712997332,None,1111.5381712997332,None,1111.5381712997332,None,1111.5381712997332,None,1111.5381712997332,None,1111.5381712997332,None,method,18,1,sing,white,1149.0009062997997,None,None,1149.0009062997997,None,,,,,,,,,,,,,,,,,,,,,,,,,,,,,,39YC,001,2023_Apr_14_1047,ExactRep-v3-final,2021.2.3,59.91069709052581,
,,,,,,,,1,0,1,0,,,,,,,,,,,,,,,,,,,,,,,,,,,,,,,,,,,,,,,,,,,,,,,,,,,,,1153.5229204995558,None,,,,,,,,,,,,,,,,,,,,,,,,,,,,,,,,,,,church,46,2,silent,red,1151.5115006994456,None,None,1151.5115006994456,None,,,,,,,,,,,,,,,,,,,,,,,,,,,,,,39YC,001,2023_Apr_14_1047,ExactRep-v3-final,2021.2.3,59.91069709052581,
,,,,,,,,2,0,2,0,,,,,,,,,,,,,,,,,,,,,,,,,,,,,,,,,,,,,,,,,,,,,,,,,,,,,1156.042510099709,None,,,,,,,,,,,,,,,,,,,,,,,,,,,,,,,,,,,pole,40,3,silent,red,1154.0310942996293,None,None,1154.0310942996293,None,,,,,,,,,,,,,,,,,,,,,,,,,,,,,,39YC,001,2023_Apr_14_1047,ExactRep-v3-final,2021.2.3,59.91069709052581,
,,,,,,,,3,0,3,0,,,,,,,,,,,,,,,,,,,,,,,,,,,,,,,,,,,,,,,,,,,,,,,,,,,,,1158.5617545992136,None,,,,,,,,,,,,,,,,,,,,,,,,,,,,,,,,,,,volume,7,4,sing,white,1156.5475188000128,None,None,1156.5475188000128,None,,,,,,,,,,,,,,,,,,,,,,,,,,,,,,39YC,001,2023_Apr_14_1047,ExactRep-v3-final,2021.2.3,59.91069709052581,
,,,,,,,,4,0,4,0,,,,,,,,,,,,,,,,,,,,,,,,,,,,,,,,,,,,,,,,,,,,,,,,,,,,,1161.0808927994221,None,,,,,,,,,,,,,,,,,,,,,,,,,,,,,,,,,,,window,52,5,silent,red,1159.0652625998482,None,None,1159.0652625998482,None,,,,,,,,,,,,,,,,,,,,,,,,,,,,,,39YC,001,2023_Apr_14_1047,ExactRep-v3-final,2021.2.3,59.91069709052581,
,,,,,,,,5,0,5,0,,,,,,,,,,,,,,,,,,,,,,,,,,,,,,,,,,,,,,,,,,,,,,,,,,,,,1163.6000946993008,None,,,,,,,,,,,,,,,,,,,,,,,,,,,,,,,,,,,safety,23,6,sing,white,1161.5890136994421,None,None,1161.5890136994421,None,,,,,,,,,,,,,,,,,,,,,,,,,,,,,,39YC,001,2023_Apr_14_1047,ExactRep-v3-final,2021.2.3,59.91069709052581,
,,,,,,,,6,0,6,0,,,,,,,,,,,,,,,,,,,,,,,,,,,,,,,,,,,,,,,,,,,,,,,,,,,,,1166.1188817992806,None,,,,,,,,,,,,,,,,,,,,,,,,,,,,,,,,,,,author,61,7,silent,red,1164.1041639000177,None,None,1164.1041639000177,None,,,,,,,,,,,,,,,,,,,,,,,,,,,,,,39YC,001,2023_Apr_14_1047,ExactRep-v3-final,2021.2.3,59.91069709052581,
,,,,,,,,7,0,7,0,,,,,,,,,,,,,,,,,,,,,,,,,,,,,,,,,,,,,,,,,,,,,,,,,,,,,1168.6215878995135,None,,,,,,,,,,,,,,,,,,,,,,,,,,,,,,,,,,,dress,37,8,sing,white,1166.6193940993398,None,None,1166.6193940993398,None,,,,,,,,,,,,,,,,,,,,,,,,,,,,,,39YC,001,2023_Apr_14_1047,ExactRep-v3-final,2021.2.3,59.91069709052581,
,,,,,,,,8,0,8,0,,,,,,,,,,,,,,,,,,,,,,,,,,,,,,,,,,,,,,,,,,,,,,,,,,,,,1171.1408020993695,None,,,,,,,,,,,,,,,,,,,,,,,,,,,,,,,,,,,string,96,9,aloud,blue,1169.1252700993791,None,None,1169.1252700993791,None,,,,,,,,,,,,,,,,,,,,,,,,,,,,,,39YC,001,2023_Apr_14_1047,ExactRep-v3-final,2021.2.3,59.91069709052581,
,,,,,,,,9,0,9,0,,,,,,,,,,,,,,,,,,,,,,,,,,,,,,,,,,,,,,,,,,,,,,,,,,,,,1173.6434806995094,None,,,,,,,,,,,,,,,,,,,,,,,,,,,,,,,,,,,letter,85,10,aloud,blue,1171.6413620999083,None,None,1171.6413620999083,None,,,,,,,,,,,,,,,,,,,,,,,,,,,,,,39YC,001,2023_Apr_14_1047,ExactRep-v3-final,2021.2.3,59.91069709052581,
,,,,,,,,10,0,10,0,,,,,,,,,,,,,,,,,,,,,,,,,,,,,,,,,,,,,,,,,,,,,,,,,,,,,1176.1626162994653,None,,,,,,,,,,,,,,,,,,,,,,,,,,,,,,,,,,,heaven,71,11,silent,red,1174.1470208000392,None,None,1174.1470208000392,None,,,,,,,,,,,,,,,,,,,,,,,,,,,,,,39YC,001,2023_Apr_14_1047,ExactRep-v3-final,2021.2.3,59.91069709052581,
,,,,,,,,11,0,11,0,,,,,,,,,,,,,,,,,,,,,,,,,,,,,,,,,,,,,,,,,,,,,,,,,,,,,1178.6649666996673,None,,,,,,,,,,,,,,,,,,,,,,,,,,,,,,,,,,,corn,115,12,aloud,blue,1176.665983499959,None,None,1176.665983499959,None,,,,,,,,,,,,,,,,,,,,,,,,,,,,,,39YC,001,2023_Apr_14_1047,ExactRep-v3-final,2021.2.3,59.91069709052581,
,,,,,,,,12,0,12,0,,,,,,,,,,,,,,,,,,,,,,,,,,,,,,,,,,,,,,,,,,,,,,,,,,,,,1181.1841813996434,None,,,,,,,,,,,,,,,,,,,,,,,,,,,,,,,,,,,thought,119,13,aloud,blue,1179.1761944992468,None,None,1179.1761944992468,None,,,,,,,,,,,,,,,,,,,,,,,,,,,,,,39YC,001,2023_Apr_14_1047,ExactRep-v3-final,2021.2.3,59.91069709052581,
,,,,,,,,13,0,13,0,,,,,,,,,,,,,,,,,,,,,,,,,,,,,,,,,,,,,,,,,,,,,,,,,,,,,1183.703382499516,None,,,,,,,,,,,,,,,,,,,,,,,,,,,,,,,,,,,college,39,14,silent,red,1181.691396499984,None,None,1181.691396499984,None,,,,,,,,,,,,,,,,,,,,,,,,,,,,,,39YC,001,2023_Apr_14_1047,ExactRep-v3-final,2021.2.3,59.91069709052581,
,,,,,,,,14,0,14,0,,,,,,,,,,,,,,,,,,,,,,,,,,,,,,,,,,,,,,,,,,,,,,,,,,,,,1186.222691799514,None,,,,,,,,,,,,,,,,,,,,,,,,,,,,,,,,,,,murder,43,15,silent,red,1184.2125508999452,None,None,1184.2125508999452,None,,,,,,,,,,,,,,,,,,,,,,,,,,,,,,39YC,001,2023_Apr_14_1047,ExactRep-v3-final,2021.2.3,59.91069709052581,
,,,,,,,,15,0,15,0,,,,,,,,,,,,,,,,,,,,,,,,,,,,,,,,,,,,,,,,,,,,,,,,,,,,,1188.741870499216,None,,,,,,,,,,,,,,,,,,,,,,,,,,,,,,,,,,,mind,97,16,aloud,blue,1186.7271548993886,None,None,1186.7271548993886,None,,,,,,,,,,,,,,,,,,,,,,,,,,,,,,39YC,001,2023_Apr_14_1047,ExactRep-v3-final,2021.2.3,59.91069709052581,
,,,,,,,,16,0,16,0,,,,,,,,,,,,,,,,,,,,,,,,,,,,,,,,,,,,,,,,,,,,,,,,,,,,,1191.261128399521,None,,,,,,,,,,,,,,,,,,,,,,,,,,,,,,,,,,,journal,29,17,sing,white,1189.246231499128,None,None,1189.246231499128,None,,,,,,,,,,,,,,,,,,,,,,,,,,,,,,39YC,001,2023_Apr_14_1047,ExactRep-v3-final,2021.2.3,59.91069709052581,
,,,,,,,,17,0,17,0,,,,,,,,,,,,,,,,,,,,,,,,,,,,,,,,,,,,,,,,,,,,,,,,,,,,,1193.7800918994471,None,,,,,,,,,,,,,,,,,,,,,,,,,,,,,,,,,,,shock,11,18,sing,white,1191.7744525996968,None,None,1191.7744525996968,None,,,,,,,,,,,,,,,,,,,,,,,,,,,,,,39YC,001,2023_Apr_14_1047,ExactRep-v3-final,2021.2.3,59.91069709052581,
,,,,,,,,18,0,18,0,,,,,,,,,,,,,,,,,,,,,,,,,,,,,,,,,,,,,,,,,,,,,,,,,,,,,1196.2994074998423,None,,,,,,,,,,,,,,,,,,,,,,,,,,,,,,,,,,,factory,74,19,silent,red,1194.2882079994306,None,None,1194.2882079994306,None,,,,,,,,,,,,,,,,,,,,,,,,,,,,,,39YC,001,2023_Apr_14_1047,ExactRep-v3-final,2021.2.3,59.91069709052581,
,,,,,,,,19,0,19,0,,,,,,,,,,,,,,,,,,,,,,,,,,,,,,,,,,,,,,,,,,,,,,,,,,,,,1198.818634099327,None,,,,,,,,,,,,,,,,,,,,,,,,,,,,,,,,,,,bowl,31,20,sing,white,1196.803639399819,None,None,1196.803639399819,None,,,,,,,,,,,,,,,,,,,,,,,,,,,,,,39YC,001,2023_Apr_14_1047,ExactRep-v3-final,2021.2.3,59.91069709052581,
,,,,,,,,20,0,20,0,,,,,,,,,,,,,,,,,,,,,,,,,,,,,,,,,,,,,,,,,,,,,,,,,,,,,1201.3211261993274,None,,,,,,,,,,,,,,,,,,,,,,,,,,,,,,,,,,,storm,104,21,aloud,blue,1199.3202660996467,None,None,1199.3202660996467,None,,,,,,,,,,,,,,,,,,,,,,,,,,,,,,39YC,001,2023_Apr_14_1047,ExactRep-v3-final,2021.2.3,59.91069709052581,
,,,,,,,,21,0,21,0,,,,,,,,,,,,,,,,,,,,,,,,,,,,,,,,,,,,,,,,,,,,,,,,,,,,,1203.8237657994032,None,,,,,,,,,,,,,,,,,,,,,,,,,,,,,,,,,,,charm,47,22,silent,red,1201.8233918994665,None,None,1201.8233918994665,None,,,,,,,,,,,,,,,,,,,,,,,,,,,,,,39YC,001,2023_Apr_14_1047,ExactRep-v3-final,2021.2.3,59.91069709052581,
,,,,,,,,22,0,22,0,,,,,,,,,,,,,,,,,,,,,,,,,,,,,,,,,,,,,,,,,,,,,,,,,,,,,1206.3261189991608,None,,,,,,,,,,,,,,,,,,,,,,,,,,,,,,,,,,,moment,4,23,sing,white,1204.3255592994392,None,None,1204.3255592994392,None,,,,,,,,,,,,,,,,,,,,,,,,,,,,,,39YC,001,2023_Apr_14_1047,ExactRep-v3-final,2021.2.3,59.91069709052581,
,,,,,,,,23,0,23,0,,,,,,,,,,,,,,,,,,,,,,,,,,,,,,,,,,,,,,,,,,,,,,,,,,,,,1208.845317499712,None,,,,,,,,,,,,,,,,,,,,,,,,,,,,,,,,,,,artist,84,24,aloud,blue,1206.836749999784,None,None,1206.836749999784,None,,,,,,,,,,,,,,,,,,,,,,,,,,,,,,39YC,001,2023_Apr_14_1047,ExactRep-v3-final,2021.2.3,59.91069709052581,
,,,,,,,,24,0,24,0,,,,,,,,,,,,,,,,,,,,,,,,,,,,,,,,,,,,,,,,,,,,,,,,,,,,,1211.3477946994826,None,,,,,,,,,,,,,,,,,,,,,,,,,,,,,,,,,,,hope,103,25,aloud,blue,1209.3468736996874,None,None,1209.3468736996874,None,,,,,,,,,,,,,,,,,,,,,,,,,,,,,,39YC,001,2023_Apr_14_1047,ExactRep-v3-final,2021.2.3,59.91069709052581,
,,,,,,,,25,0,25,0,,,,,,,,,,,,,,,,,,,,,,,,,,,,,,,,,,,,,,,,,,,,,,,,,,,,,1213.8503116993234,None,,,,,,,,,,,,,,,,,,,,,,,,,,,,,,,,,,,health,82,26,aloud,blue,1211.8507546000183,None,None,1211.8507546000183,None,,,,,,,,,,,,,,,,,,,,,,,,,,,,,,39YC,001,2023_Apr_14_1047,ExactRep-v3-final,2021.2.3,59.91069709052581,
,,,,,,,,26,0,26,0,,,,,,,,,,,,,,,,,,,,,,,,,,,,,,,,,,,,,,,,,,,,,,,,,,,,,1216.3528429996222,None,,,,,,,,,,,,,,,,,,,,,,,,,,,,,,,,,,,river,101,27,aloud,blue,1214.3519245991483,None,None,1214.3519245991483,None,,,,,,,,,,,,,,,,,,,,,,,,,,,,,,39YC,001,2023_Apr_14_1047,ExactRep-v3-final,2021.2.3,59.91069709052581,
,,,,,,,,27,0,27,0,,,,,,,,,,,,,,,,,,,,,,,,,,,,,,,,,,,,,,,,,,,,,,,,,,,,,1218.872012399137,None,,,,,,,,,,,,,,,,,,,,,,,,,,,,,,,,,,,child,56,28,silent,red,1216.8590250993147,None,None,1216.8590250993147,None,,,,,,,,,,,,,,,,,,,,,,,,,,,,,,39YC,001,2023_Apr_14_1047,ExactRep-v3-final,2021.2.3,59.91069709052581,
,,,,,,,,28,0,28,0,,,,,,,,,,,,,,,,,,,,,,,,,,,,,,,,,,,,,,,,,,,,,,,,,,,,,1221.3745976993814,None,,,,,,,,,,,,,,,,,,,,,,,,,,,,,,,,,,,party,64,29,silent,red,1219.3749061999843,None,None,1219.3749061999843,None,,,,,,,,,,,,,,,,,,,,,,,,,,,,,,39YC,001,2023_Apr_14_1047,ExactRep-v3-final,2021.2.3,59.91069709052581,
,,,,,,,,29,0,29,0,,,,,,,,,,,,,,,,,,,,,,,,,,,,,,,,,,,,,,,,,,,,,,,,,,,,,1223.8768178997561,None,,,,,,,,,,,,,,,,,,,,,,,,,,,,,,,,,,,month,65,30,silent,red,1221.875741799362,None,None,1221.875741799362,None,,,,,,,,,,,,,,,,,,,,,,,,,,,,,,39YC,001,2023_Apr_14_1047,ExactRep-v3-final,2021.2.3,59.91069709052581,
,,,,,,,,30,0,30,0,,,,,,,,,,,,,,,,,,,,,,,,,,,,,,,,,,,,,,,,,,,,,,,,,,,,,1226.3793354993686,None,,,,,,,,,,,,,,,,,,,,,,,,,,,,,,,,,,,flesh,25,31,sing,white,1224.3791164997965,None,None,1224.3791164997965,None,,,,,,,,,,,,,,,,,,,,,,,,,,,,,,39YC,001,2023_Apr_14_1047,ExactRep-v3-final,2021.2.3,59.91069709052581,
,,,,,,,,31,0,31,0,,,,,,,,,,,,,,,,,,,,,,,,,,,,,,,,,,,,,,,,,,,,,,,,,,,,,1228.8985307998955,None,,,,,,,,,,,,,,,,,,,,,,,,,,,,,,,,,,,machine,54,32,silent,red,1226.8866115994751,None,None,1226.8866115994751,None,,,,,,,,,,,,,,,,,,,,,,,,,,,,,,39YC,001,2023_Apr_14_1047,ExactRep-v3-final,2021.2.3,59.91069709052581,
,,,,,,,,32,0,32,0,,,,,,,,,,,,,,,,,,,,,,,,,,,,,,,,,,,,,,,,,,,,,,,,,,,,,1231.4042991995811,None,,,,,,,,,,,,,,,,,,,,,,,,,,,,,,,,,,,teacher,35,33,sing,white,1229.400353799574,None,None,1229.400353799574,None,,,,,,,,,,,,,,,,,,,,,,,,,,,,,,39YC,001,2023_Apr_14_1047,ExactRep-v3-final,2021.2.3,59.91069709052581,
,,,,,,,,33,0,33,0,,,,,,,,,,,,,,,,,,,,,,,,,,,,,,,,,,,,,,,,,,,,,,,,,,,,,1233.9370391992852,None,,,,,,,,,,,,,,,,,,,,,,,,,,,,,,,,,,,shadow,16,34,sing,white,1231.9248021999374,None,None,1231.9248021999374,None,,,,,,,,,,,,,,,,,,,,,,,,,,,,,,39YC,001,2023_Apr_14_1047,ExactRep-v3-final,2021.2.3,59.91069709052581,
,,,,,,,,34,0,34,0,,,,,,,,,,,,,,,,,,,,,,,,,,,,,,,,,,,,,,,,,,,,,,,,,,,,,1236.4560424992815,None,,,,,,,,,,,,,,,,,,,,,,,,,,,,,,,,,,,air,9,35,sing,white,1234.4461388997734,None,None,1234.4461388997734,None,,,,,,,,,,,,,,,,,,,,,,,,,,,,,,39YC,001,2023_Apr_14_1047,ExactRep-v3-final,2021.2.3,59.91069709052581,
,,,,,,,,35,0,35,0,,,,,,,,,,,,,,,,,,,,,,,,,,,,,,,,,,,,,,,,,,,,,,,,,,,,,1238.958864399232,None,,,,,,,,,,,,,,,,,,,,,,,,,,,,,,,,,,,plant,27,36,sing,white,1236.9567886991426,None,None,1236.9567886991426,None,,,,,,,,,,,,,,,,,,,,,,,,,,,,,,39YC,001,2023_Apr_14_1047,ExactRep-v3-final,2021.2.3,59.91069709052581,
,,,,,,,,36,0,36,0,,,,,,,,,,,,,,,,,,,,,,,,,,,,,,,,,,,,,,,,,,,,,,,,,,,,,1241.47796229925,None,,,,,,,,,,,,,,,,,,,,,,,,,,,,,,,,,,,picture,80,37,aloud,blue,1239.4647156996652,None,None,1239.4647156996652,None,,,,,,,,,,,,,,,,,,,,,,,,,,,,,,39YC,001,2023_Apr_14_1047,ExactRep-v3-final,2021.2.3,59.91069709052581,
,,,,,,,,37,0,37,0,,,,,,,,,,,,,,,,,,,,,,,,,,,,,,,,,,,,,,,,,,,,,,,,,,,,,1243.980423699133,None,,,,,,,,,,,,,,,,,,,,,,,,,,,,,,,,,,,soul,0,38,sing,white,1241.979517299682,None,None,1241.979517299682,None,,,,,,,,,,,,,,,,,,,,,,,,,,,,,,39YC,001,2023_Apr_14_1047,ExactRep-v3-final,2021.2.3,59.91069709052581,
,,,,,,,,38,0,38,0,,,,,,,,,,,,,,,,,,,,,,,,,,,,,,,,,,,,,,,,,,,,,,,,,,,,,1246.482749699615,None,,,,,,,,,,,,,,,,,,,,,,,,,,,,,,,,,,,cash,24,39,sing,white,1244.4824242992327,None,None,1244.4824242992327,None,,,,,,,,,,,,,,,,,,,,,,,,,,,,,,39YC,001,2023_Apr_14_1047,ExactRep-v3-final,2021.2.3,59.91069709052581,
,,,,,,,,39,0,39,0,,,,,,,,,,,,,,,,,,,,,,,,,,,,,,,,,,,,,,,,,,,,,,,,,,,,,1249.0021480992436,None,,,,,,,,,,,,,,,,,,,,,,,,,,,,,,,,,,,shoes,69,40,silent,red,1246.9918965995312,None,None,1246.9918965995312,None,,,,,,,,,,,,,,,,,,,,,,,,,,,,,,39YC,001,2023_Apr_14_1047,ExactRep-v3-final,2021.2.3,59.91069709052581,
,,,,,,,,40,0,40,0,,,,,,,,,,,,,,,,,,,,,,,,,,,,,,,,,,,,,,,,,,,,,,,,,,,,,1251.5042751999572,None,,,,,,,,,,,,,,,,,,,,,,,,,,,,,,,,,,,paper,5,41,sing,white,1249.5026143994182,None,None,1249.5026143994182,None,,,,,,,,,,,,,,,,,,,,,,,,,,,,,,39YC,001,2023_Apr_14_1047,ExactRep-v3-final,2021.2.3,59.91069709052581,
,,,,,,,,41,0,41,0,,,,,,,,,,,,,,,,,,,,,,,,,,,,,,,,,,,,,,,,,,,,,,,,,,,,,1254.0070750992745,None,,,,,,,,,,,,,,,,,,,,,,,,,,,,,,,,,,,engine,8,42,sing,white,1252.0048411991447,None,None,1252.0048411991447,None,,,,,,,,,,,,,,,,,,,,,,,,,,,,,,39YC,001,2023_Apr_14_1047,ExactRep-v3-final,2021.2.3,59.91069709052581,
,,,,,,,,42,0,42,0,,,,,,,,,,,,,,,,,,,,,,,,,,,,,,,,,,,,,,,,,,,,,,,,,,,,,1256.5095052998513,None,,,,,,,,,,,,,,,,,,,,,,,,,,,,,,,,,,,lip,111,43,aloud,blue,1254.5075106993318,None,None,1254.5075106993318,None,,,,,,,,,,,,,,,,,,,,,,,,,,,,,,39YC,001,2023_Apr_14_1047,ExactRep-v3-final,2021.2.3,59.91069709052581,
,,,,,,,,43,0,43,0,,,,,,,,,,,,,,,,,,,,,,,,,,,,,,,,,,,,,,,,,,,,,,,,,,,,,1259.0121235996485,None,,,,,,,,,,,,,,,,,,,,,,,,,,,,,,,,,,,green,41,44,silent,red,1257.0115376999602,None,None,1257.0115376999602,None,,,,,,,,,,,,,,,,,,,,,,,,,,,,,,39YC,001,2023_Apr_14_1047,ExactRep-v3-final,2021.2.3,59.91069709052581,
,,,,,,,,44,0,44,0,,,,,,,,,,,,,,,,,,,,,,,,,,,,,,,,,,,,,,,,,,,,,,,,,,,,,1261.5147664994001,None,,,,,,,,,,,,,,,,,,,,,,,,,,,,,,,,,,,arm,116,45,aloud,blue,1259.5144606996328,None,None,1259.5144606996328,None,,,,,,,,,,,,,,,,,,,,,,,,,,,,,,39YC,001,2023_Apr_14_1047,ExactRep-v3-final,2021.2.3,59.91069709052581,
,,,,,,,,45,0,45,0,,,,,,,,,,,,,,,,,,,,,,,,,,,,,,,,,,,,,,,,,,,,,,,,,,,,,1264.018572899513,None,,,,,,,,,,,,,,,,,,,,,,,,,,,,,,,,,,,tool,79,46,sing,white,1262.017130999826,None,None,1262.017130999826,None,,,,,,,,,,,,,,,,,,,,,,,,,,,,,,39YC,001,2023_Apr_14_1047,ExactRep-v3-final,2021.2.3,59.91069709052581,
,,,,,,,,46,0,46,0,,,,,,,,,,,,,,,,,,,,,,,,,,,,,,,,,,,,,,,,,,,,,,,,,,,,,1266.536142599769,None,,,,,,,,,,,,,,,,,,,,,,,,,,,,,,,,,,,chief,48,47,silent,red,1264.5273365993053,None,None,1264.5273365993053,None,,,,,,,,,,,,,,,,,,,,,,,,,,,,,,39YC,001,2023_Apr_14_1047,ExactRep-v3-final,2021.2.3,59.91069709052581,
,,,,,,,,47,0,47,0,,,,,,,,,,,,,,,,,,,,,,,,,,,,,,,,,,,,,,,,,,,,,,,,,,,,,1269.0387991992757,None,,,,,,,,,,,,,,,,,,,,,,,,,,,,,,,,,,,garden,117,48,aloud,blue,1267.0363661991432,None,None,1267.0363661991432,None,,,,,,,,,,,,,,,,,,,,,,,,,,,,,,39YC,001,2023_Apr_14_1047,ExactRep-v3-final,2021.2.3,59.91069709052581,
,,,,,,,,48,0,48,0,,,,,,,,,,,,,,,,,,,,,,,,,,,,,,,,,,,,,,,,,,,,,,,,,,,,,1271.5412769997492,None,,,,,,,,,,,,,,,,,,,,,,,,,,,,,,,,,,,water,15,49,sing,white,1269.540458199568,None,None,1269.540458199568,None,,,,,,,,,,,,,,,,,,,,,,,,,,,,,,39YC,001,2023_Apr_14_1047,ExactRep-v3-final,2021.2.3,59.91069709052581,
,,,,,,,,49,0,49,0,,,,,,,,,,,,,,,,,,,,,,,,,,,,,,,,,,,,,,,,,,,,,,,,,,,,,1274.0438492996618,None,,,,,,,,,,,,,,,,,,,,,,,,,,,,,,,,,,,judge,10,50,sing,white,1272.041791299358,None,None,1272.041791299358,None,,,,,,,,,,,,,,,,,,,,,,,,,,,,,,39YC,001,2023_Apr_14_1047,ExactRep-v3-final,2021.2.3,59.91069709052581,
,,,,,,,,50,0,50,0,,,,,,,,,,,,,,,,,,,,,,,,,,,,,,,,,,,,,,,,,,,,,,,,,,,,,1276.5462060999125,None,,,,,,,,,,,,,,,,,,,,,,,,,,,,,,,,,,,home,98,51,aloud,blue,1274.544504199177,None,None,1274.544504199177,None,,,,,,,,,,,,,,,,,,,,,,,,,,,,,,39YC,001,2023_Apr_14_1047,ExactRep-v3-final,2021.2.3,59.91069709052581,
,,,,,,,,51,0,51,0,,,,,,,,,,,,,,,,,,,,,,,,,,,,,,,,,,,,,,,,,,,,,,,,,,,,,1279.0488099996,None,,,,,,,,,,,,,,,,,,,,,,,,,,,,,,,,,,,effort,93,52,aloud,blue,1277.0465762997046,None,None,1277.0465762997046,None,,,,,,,,,,,,,,,,,,,,,,,,,,,,,,39YC,001,2023_Apr_14_1047,ExactRep-v3-final,2021.2.3,59.91069709052581,
,,,,,,,,52,0,52,0,,,,,,,,,,,,,,,,,,,,,,,,,,,,,,,,,,,,,,,,,,,,,,,,,,,,,1281.5512396991253,None,,,,,,,,,,,,,,,,,,,,,,,,,,,,,,,,,,,vision,100,53,aloud,blue,1279.551859899424,None,None,1279.551859899424,None,,,,,,,,,,,,,,,,,,,,,,,,,,,,,,39YC,001,2023_Apr_14_1047,ExactRep-v3-final,2021.2.3,59.91069709052581,
,,,,,,,,53,0,53,0,,,,,,,,,,,,,,,,,,,,,,,,,,,,,,,,,,,,,,,,,,,,,,,,,,,,,1284.0536585999653,None,,,,,,,,,,,,,,,,,,,,,,,,,,,,,,,,,,,style,113,54,aloud,blue,1282.0544824991375,None,None,1282.0544824991375,None,,,,,,,,,,,,,,,,,,,,,,,,,,,,,,39YC,001,2023_Apr_14_1047,ExactRep-v3-final,2021.2.3,59.91069709052581,
,,,,,,,,54,0,54,0,,,,,,,,,,,,,,,,,,,,,,,,,,,,,,,,,,,,,,,,,,,,,,,,,,,,,1286.573062199168,None,,,,,,,,,,,,,,,,,,,,,,,,,,,,,,,,,,,slave,77,55,silent,red,1284.5582154998556,None,None,1284.5582154998556,None,,,,,,,,,,,,,,,,,,,,,,,,,,,,,,39YC,001,2023_Apr_14_1047,ExactRep-v3-final,2021.2.3,59.91069709052581,
,,,,,,,,55,0,55,0,,,,,,,,,,,,,,,,,,,,,,,,,,,,,,,,,,,,,,,,,,,,,,,,,,,,,1289.0755322994664,None,,,,,,,,,,,,,,,,,,,,,,,,,,,,,,,,,,,fact,38,56,sing,white,1287.0736345993355,None,None,1287.0736345993355,None,,,,,,,,,,,,,,,,,,,,,,,,,,,,,,39YC,001,2023_Apr_14_1047,ExactRep-v3-final,2021.2.3,59.91069709052581,
,,,,,,,,56,0,56,0,,,,,,,,,,,,,,,,,,,,,,,,,,,,,,,,,,,,,,,,,,,,,,,,,,,,,1291.5780697995797,None,,,,,,,,,,,,,,,,,,,,,,,,,,,,,,,,,,,beast,62,57,silent,red,1289.5790596995503,None,None,1289.5790596995503,None,,,,,,,,,,,,,,,,,,,,,,,,,,,,,,39YC,001,2023_Apr_14_1047,ExactRep-v3-final,2021.2.3,59.91069709052581,
,,,,,,,,57,0,57,0,,,,,,,,,,,,,,,,,,,,,,,,,,,,,,,,,,,,,,,,,,,,,,,,,,,,,1294.0803020000458,None,,,,,,,,,,,,,,,,,,,,,,,,,,,,,,,,,,,spirit,118,58,aloud,blue,1292.0787286991253,None,None,1292.0787286991253,None,,,,,,,,,,,,,,,,,,,,,,,,,,,,,,39YC,001,2023_Apr_14_1047,ExactRep-v3-final,2021.2.3,59.91069709052581,
,,,,,,,,58,0,58,0,,,,,,,,,,,,,,,,,,,,,,,,,,,,,,,,,,,,,,,,,,,,,,,,,,,,,1296.5996722998098,None,,,,,,,,,,,,,,,,,,,,,,,,,,,,,,,,,,,kiss,106,59,aloud,blue,1294.5854301992804,None,None,1294.5854301992804,None,,,,,,,,,,,,,,,,,,,,,,,,,,,,,,39YC,001,2023_Apr_14_1047,ExactRep-v3-final,2021.2.3,59.91069709052581,
,,,,,,,,59,0,59,0,,,,,,,,,,,,,,,,,,,,,,,,,,,,,,,,,,,,,,,,,,,,,,,,,,,,,1299.1019911998883,None,,,,,,,,,,,,,,,,,,,,,,,,,,,,,,,,,,,doll,30,60,sing,white,1297.0999039998278,None,None,1297.0999039998278,None,,,,,,,,,,,,,,,,,,,,,,,,,,,,,,39YC,001,2023_Apr_14_1047,ExactRep-v3-final,2021.2.3,59.91069709052581,
,,,,,,,,60,0,60,0,,,,,,,,,,,,,,,,,,,,,,,,,,,,,,,,,,,,,,,,,,,,,,,,,,,,,1301.6045696996152,None,,,,,,,,,,,,,,,,,,,,,,,,,,,,,,,,,,,earth,102,61,aloud,blue,1299.602414299734,None,None,1299.602414299734,None,,,,,,,,,,,,,,,,,,,,,,,,,,,,,,39YC,001,2023_Apr_14_1047,ExactRep-v3-final,2021.2.3,59.91069709052581,
,,,,,,,,61,0,61,0,,,,,,,,,,,,,,,,,,,,,,,,,,,,,,,,,,,,,,,,,,,,,,,,,,,,,1304.1235704999417,None,,,,,,,,,,,,,,,,,,,,,,,,,,,,,,,,,,,rock,86,62,aloud,blue,1302.1110508991405,None,None,1302.1110508991405,None,,,,,,,,,,,,,,,,,,,,,,,,,,,,,,39YC,001,2023_Apr_14_1047,ExactRep-v3-final,2021.2.3,59.91069709052581,
,,,,,,,,62,0,62,0,,,,,,,,,,,,,,,,,,,,,,,,,,,,,,,,,,,,,,,,,,,,,,,,,,,,,1306.6261200997978,None,,,,,,,,,,,,,,,,,,,,,,,,,,,,,,,,,,,queen,78,63,silent,red,1304.6263298997656,None,None,1304.6263298997656,None,,,,,,,,,,,,,,,,,,,,,,,,,,,,,,39YC,001,2023_Apr_14_1047,ExactRep-v3-final,2021.2.3,59.91069709052581,
,,,,,,,,63,0,63,0,,,,,,,,,,,,,,,,,,,,,,,,,,,,,,,,,,,,,,,,,,,,,,,,,,,,,1309.1287211999297,None,,,,,,,,,,,,,,,,,,,,,,,,,,,,,,,,,,,soil,33,64,sing,white,1307.12930219993,None,None,1307.12930219993,None,,,,,,,,,,,,,,,,,,,,,,,,,,,,,,39YC,001,2023_Apr_14_1047,ExactRep-v3-final,2021.2.3,59.91069709052581,
,,,,,,,,64,0,64,0,,,,,,,,,,,,,,,,,,,,,,,,,,,,,,,,,,,,,,,,,,,,,,,,,,,,,1311.6481508994475,None,,,,,,,,,,,,,,,,,,,,,,,,,,,,,,,,,,,fire,1,65,sing,white,1309.634462499991,None,None,1309.634462499991,None,,,,,,,,,,,,,,,,,,,,,,,,,,,,,,39YC,001,2023_Apr_14_1047,ExactRep-v3-final,2021.2.3,59.91069709052581,
,,,,,,,,65,0,65,0,,,,,,,,,,,,,,,,,,,,,,,,,,,,,,,,,,,,,,,,,,,,,,,,,,,,,1314.1506581995636,None,,,,,,,,,,,,,,,,,,,,,,,,,,,,,,,,,,,colony,89,66,aloud,blue,1312.149754599668,None,None,1312.149754599668,None,,,,,,,,,,,,,,,,,,,,,,,,,,,,,,39YC,001,2023_Apr_14_1047,ExactRep-v3-final,2021.2.3,59.91069709052581,
,,,,,,,,66,0,66,0,,,,,,,,,,,,,,,,,,,,,,,,,,,,,,,,,,,,,,,,,,,,,,,,,,,,,1316.6531721996143,None,,,,,,,,,,,,,,,,,,,,,,,,,,,,,,,,,,,fun,63,67,silent,red,1314.6510435994714,None,None,1314.6510435994714,None,,,,,,,,,,,,,,,,,,,,,,,,,,,,,,39YC,001,2023_Apr_14_1047,ExactRep-v3-final,2021.2.3,59.91069709052581,
,,,,,,,,67,0,67,0,,,,,,,,,,,,,,,,,,,,,,,,,,,,,,,,,,,,,,,,,,,,,,,,,,,,,1319.1721763992682,None,,,,,,,,,,,,,,,,,,,,,,,,,,,,,,,,,,,dream,92,68,aloud,blue,1317.1591680999845,None,None,1317.1591680999845,None,,,,,,,,,,,,,,,,,,,,,,,,,,,,,,39YC,001,2023_Apr_14_1047,ExactRep-v3-final,2021.2.3,59.91069709052581,
,,,,,,,,68,0,68,0,,,,,,,,,,,,,,,,,,,,,,,,,,,,,,,,,,,,,,,,,,,,,,,,,,,,,1321.674677199684,None,,,,,,,,,,,,,,,,,,,,,,,,,,,,,,,,,,,wife,34,69,sing,white,1319.6736238999292,None,None,1319.6736238999292,None,,,,,,,,,,,,,,,,,,,,,,,,,,,,,,39YC,001,2023_Apr_14_1047,ExactRep-v3-final,2021.2.3,59.91069709052581,
,,,,,,,,69,0,69,0,,,,,,,,,,,,,,,,,,,,,,,,,,,,,,,,,,,,,,,,,,,,,,,,,,,,,1324.1772741992027,None,,,,,,,,,,,,,,,,,,,,,,,,,,,,,,,,,,,coffee,105,70,aloud,blue,1322.1755245998502,None,None,1322.1755245998502,None,,,,,,,,,,,,,,,,,,,,,,,,,,,,,,39YC,001,2023_Apr_14_1047,ExactRep-v3-final,2021.2.3,59.91069709052581,
,,,,,,,,70,0,70,0,,,,,,,,,,,,,,,,,,,,,,,,,,,,,,,,,,,,,,,,,,,,,,,,,,,,,1326.6963569996879,None,,,,,,,,,,,,,,,,,,,,,,,,,,,,,,,,,,,dollar,2,71,sing,white,1324.6814590999857,None,None,1324.6814590999857,None,,,,,,,,,,,,,,,,,,,,,,,,,,,,,,39YC,001,2023_Apr_14_1047,ExactRep-v3-final,2021.2.3,59.91069709052581,
,,,,,,,,71,0,71,0,,,,,,,,,,,,,,,,,,,,,,,,,,,,,,,,,,,,,,,,,,,,,,,,,,,,,1329.2156654000282,None,,,,,,,,,,,,,,,,,,,,,,,,,,,,,,,,,,,tree,72,72,silent,red,1327.2038030000404,None,None,1327.2038030000404,None,,,,,,,,,,,,,,,,,,,,,,,,,,,,,,39YC,001,2023_Apr_14_1047,ExactRep-v3-final,2021.2.3,59.91069709052581,
,,,,,,,,72,0,72,0,,,,,,,,,,,,,,,,,,,,,,,,,,,,,,,,,,,,,,,,,,,,,,,,,,,,,1331.7180121997371,None,,,,,,,,,,,,,,,,,,,,,,,,,,,,,,,,,,,chance,50,73,silent,red,1329.7161958999932,None,None,1329.7161958999932,None,,,,,,,,,,,,,,,,,,,,,,,,,,,,,,39YC,001,2023_Apr_14_1047,ExactRep-v3-final,2021.2.3,59.91069709052581,
,,,,,,,,73,0,73,0,,,,,,,,,,,,,,,,,,,,,,,,,,,,,,,,,,,,,,,,,,,,,,,,,,,,,1334.2374596996233,None,,,,,,,,,,,,,,,,,,,,,,,,,,,,,,,,,,,length,44,74,silent,red,1332.224171899259,None,None,1332.224171899259,None,,,,,,,,,,,,,,,,,,,,,,,,,,,,,,39YC,001,2023_Apr_14_1047,ExactRep-v3-final,2021.2.3,59.91069709052581,
,,,,,,,,74,0,74,0,,,,,,,,,,,,,,,,,,,,,,,,,,,,,,,,,,,,,,,,,,,,,,,,,,,,,1336.7399095995352,None,,,,,,,,,,,,,,,,,,,,,,,,,,,,,,,,,,,present,22,75,sing,white,1334.7378161000088,None,None,1334.7378161000088,None,,,,,,,,,,,,,,,,,,,,,,,,,,,,,,39YC,001,2023_Apr_14_1047,ExactRep-v3-final,2021.2.3,59.91069709052581,
,,,,,,,,75,0,75,0,,,,,,,,,,,,,,,,,,,,,,,,,,,,,,,,,,,,,,,,,,,,,,,,,,,,,1339.2590409992263,None,,,,,,,,,,,,,,,,,,,,,,,,,,,,,,,,,,,street,3,76,sing,white,1337.2436962993816,None,None,1337.2436962993816,None,,,,,,,,,,,,,,,,,,,,,,,,,,,,,,39YC,001,2023_Apr_14_1047,ExactRep-v3-final,2021.2.3,59.91069709052581,
,,,,,,,,76,0,76,0,,,,,,,,,,,,,,,,,,,,,,,,,,,,,,,,,,,,,,,,,,,,,,,,,,,,,1341.7780978996307,None,,,,,,,,,,,,,,,,,,,,,,,,,,,,,,,,,,,quality,20,77,sing,white,1339.7648108992726,None,None,1339.7648108992726,None,,,,,,,,,,,,,,,,,,,,,,,,,,,,,,39YC,001,2023_Apr_14_1047,ExactRep-v3-final,2021.2.3,59.91069709052581,
,,,,,,,,77,0,77,0,,,,,,,,,,,,,,,,,,,,,,,,,,,,,,,,,,,,,,,,,,,,,,,,,,,,,1344.2806160999462,None,,,,,,,,,,,,,,,,,,,,,,,,,,,,,,,,,,,student,55,78,silent,red,1342.278606900014,None,None,1342.278606900014,None,,,,,,,,,,,,,,,,,,,,,,,,,,,,,,39YC,001,2023_Apr_14_1047,ExactRep-v3-final,2021.2.3,59.91069709052581,
,,,,,,,,78,0,78,0,,,,,,,,,,,,,,,,,,,,,,,,,,,,,,,,,,,,,,,,,,,,,,,,,,,,,1346.7830261997879,None,,,,,,,,,,,,,,,,,,,,,,,,,,,,,,,,,,,friend,67,79,silent,red,1344.782807899639,None,None,1344.782807899639,None,,,,,,,,,,,,,,,,,,,,,,,,,,,,,,39YC,001,2023_Apr_14_1047,ExactRep-v3-final,2021.2.3,59.91069709052581,
,,,,,,,,79,0,79,0,,,,,,,,,,,,,,,,,,,,,,,,,,,,,,,,,,,,,,,,,,,,,,,,,,,,,1349.28562780004,None,,,,,,,,,,,,,,,,,,,,,,,,,,,,,,,,,,,theory,26,80,sing,white,1347.2834588997066,None,None,1347.2834588997066,None,,,,,,,,,,,,,,,,,,,,,,,,,,,,,,39YC,001,2023_Apr_14_1047,ExactRep-v3-final,2021.2.3,59.91069709052581,
,,,,,,,,80,0,80,0,,,,,,,,,,,,,,,,,,,,,,,,,,,,,,,,,,,,,,,,,,,,,,,,,,,,,1351.804545099847,None,,,,,,,,,,,,,,,,,,,,,,,,,,,,,,,,,,,temple,51,81,silent,red,1349.794751599431,None,None,1349.794751599431,None,,,,,,,,,,,,,,,,,,,,,,,,,,,,,,39YC,001,2023_Apr_14_1047,ExactRep-v3-final,2021.2.3,59.91069709052581,
,,,,,,,,81,0,81,0,,,,,,,,,,,,,,,,,,,,,,,,,,,,,,,,,,,,,,,,,,,,,,,,,,,,,1354.3074298994616,None,,,,,,,,,,,,,,,,,,,,,,,,,,,,,,,,,,,time,99,82,aloud,blue,1352.3051562998444,None,None,1352.3051562998444,None,,,,,,,,,,,,,,,,,,,,,,,,,,,,,,39YC,001,2023_Apr_14_1047,ExactRep-v3-final,2021.2.3,59.91069709052581,
,,,,,,,,82,0,82,0,,,,,,,,,,,,,,,,,,,,,,,,,,,,,,,,,,,,,,,,,,,,,,,,,,,,,1356.8096347991377,None,,,,,,,,,,,,,,,,,,,,,,,,,,,,,,,,,,,cat,45,83,silent,red,1354.8084958000109,None,None,1354.8084958000109,None,,,,,,,,,,,,,,,,,,,,,,,,,,,,,,39YC,001,2023_Apr_14_1047,ExactRep-v3-final,2021.2.3,59.91069709052581,
,,,,,,,,83,0,83,0,,,,,,,,,,,,,,,,,,,,,,,,,,,,,,,,,,,,,,,,,,,,,,,,,,,,,1359.3124508997425,None,,,,,,,,,,,,,,,,,,,,,,,,,,,,,,,,,,,honour,87,84,aloud,blue,1357.3127389997244,None,None,1357.3127389997244,None,,,,,,,,,,,,,,,,,,,,,,,,,,,,,,39YC,001,2023_Apr_14_1047,ExactRep-v3-final,2021.2.3,59.91069709052581,
,,,,,,,,84,0,84,0,,,,,,,,,,,,,,,,,,,,,,,,,,,,,,,,,,,,,,,,,,,,,,,,,,,,,1361.814902799204,None,,,,,,,,,,,,,,,,,,,,,,,,,,,,,,,,,,,history,110,85,aloud,blue,1359.8141728993505,None,None,1359.8141728993505,None,,,,,,,,,,,,,,,,,,,,,,,,,,,,,,39YC,001,2023_Apr_14_1047,ExactRep-v3-final,2021.2.3,59.91069709052581,
,,,,,,,,85,0,85,0,,,,,,,,,,,,,,,,,,,,,,,,,,,,,,,,,,,,,,,,,,,,,,,,,,,,,1364.317423099652,None,,,,,,,,,,,,,,,,,,,,,,,,,,,,,,,,,,,avenue,21,86,sing,white,1362.3154411995783,None,None,1362.3154411995783,None,,,,,,,,,,,,,,,,,,,,,,,,,,,,,,39YC,001,2023_Apr_14_1047,ExactRep-v3-final,2021.2.3,59.91069709052581,
,,,,,,,,86,0,86,0,,,,,,,,,,,,,,,,,,,,,,,,,,,,,,,,,,,,,,,,,,,,,,,,,,,,,1366.8197855995968,None,,,,,,,,,,,,,,,,,,,,,,,,,,,,,,,,,,,camp,107,87,aloud,blue,1364.8193899998441,None,None,1364.8193899998441,None,,,,,,,,,,,,,,,,,,,,,,,,,,,,,,39YC,001,2023_Apr_14_1047,ExactRep-v3-final,2021.2.3,59.91069709052581,
,,,,,,,,87,0,87,0,,,,,,,,,,,,,,,,,,,,,,,,,,,,,,,,,,,,,,,,,,,,,,,,,,,,,1369.3222478991374,None,,,,,,,,,,,,,,,,,,,,,,,,,,,,,,,,,,,shame,91,88,aloud,blue,1367.320450999774,None,None,1367.320450999774,None,,,,,,,,,,,,,,,,,,,,,,,,,,,,,,39YC,001,2023_Apr_14_1047,ExactRep-v3-final,2021.2.3,59.91069709052581,
,,,,,,,,88,0,88,0,,,,,,,,,,,,,,,,,,,,,,,,,,,,,,,,,,,,,,,,,,,,,,,,,,,,,1371.8247008994222,None,,,,,,,,,,,,,,,,,,,,,,,,,,,,,,,,,,,body,68,89,silent,red,1369.8248731996864,None,None,1369.8248731996864,None,,,,,,,,,,,,,,,,,,,,,,,,,,,,,,39YC,001,2023_Apr_14_1047,ExactRep-v3-final,2021.2.3,59.91069709052581,
,,,,,,,,89,0,89,0,,,,,,,,,,,,,,,,,,,,,,,,,,,,,,,,,,,,,,,,,,,,,,,,,,,,,1374.3272039992735,None,,,,,,,,,,,,,,,,,,,,,,,,,,,,,,,,,,,amount,58,90,silent,red,1372.3252406995744,None,None,1372.3252406995744,None,,,,,,,,,,,,,,,,,,,,,,,,,,,,,,39YC,001,2023_Apr_14_1047,ExactRep-v3-final,2021.2.3,59.91069709052581,
,,,,,,,,90,0,90,0,,,,,,,,,,,,,,,,,,,,,,,,,,,,,,,,,,,,,,,,,,,,,,,,,,,,,1376.829991299659,None,,,,,,,,,,,,,,,,,,,,,,,,,,,,,,,,,,,winter,57,91,silent,red,1374.8277121996507,None,None,1374.8277121996507,None,,,,,,,,,,,,,,,,,,,,,,,,,,,,,,39YC,001,2023_Apr_14_1047,ExactRep-v3-final,2021.2.3,59.91069709052581,
,,,,,,,,91,0,91,0,,,,,,,,,,,,,,,,,,,,,,,,,,,,,,,,,,,,,,,,,,,,,,,,,,,,,1379.3489953996614,None,,,,,,,,,,,,,,,,,,,,,,,,,,,,,,,,,,,season,42,92,silent,red,1377.3337699994445,None,None,1377.3337699994445,None,,,,,,,,,,,,,,,,,,,,,,,,,,,,,,39YC,001,2023_Apr_14_1047,ExactRep-v3-final,2021.2.3,59.91069709052581,
,,,,,,,,92,0,92,0,,,,,,,,,,,,,,,,,,,,,,,,,,,,,,,,,,,,,,,,,,,,,,,,,,,,,1381.8513926994056,None,,,,,,,,,,,,,,,,,,,,,,,,,,,,,,,,,,,city,49,93,silent,red,1379.8493705997244,None,None,1379.8493705997244,None,,,,,,,,,,,,,,,,,,,,,,,,,,,,,,39YC,001,2023_Apr_14_1047,ExactRep-v3-final,2021.2.3,59.91069709052581,
,,,,,,,,93,0,93,0,,,,,,,,,,,,,,,,,,,,,,,,,,,,,,,,,,,,,,,,,,,,,,,,,,,,,1384.353859199211,None,,,,,,,,,,,,,,,,,,,,,,,,,,,,,,,,,,,pride,76,94,silent,red,1382.3541504992172,None,None,1382.3541504992172,None,,,,,,,,,,,,,,,,,,,,,,,,,,,,,,39YC,001,2023_Apr_14_1047,ExactRep-v3-final,2021.2.3,59.91069709052581,
,,,,,,,,94,0,94,0,,,,,,,,,,,,,,,,,,,,,,,,,,,,,,,,,,,,,,,,,,,,,,,,,,,,,1386.8567553991452,None,,,,,,,,,,,,,,,,,,,,,,,,,,,,,,,,,,,science,83,95,aloud,blue,1384.8547008000314,None,None,1384.8547008000314,None,,,,,,,,,,,,,,,,,,,,,,,,,,,,,,39YC,001,2023_Apr_14_1047,ExactRep-v3-final,2021.2.3,59.91069709052581,
,,,,,,,,95,0,95,0,,,,,,,,,,,,,,,,,,,,,,,,,,,,,,,,,,,,,,,,,,,,,,,,,,,,,1389.3758699996397,None,,,,,,,,,,,,,,,,,,,,,,,,,,,,,,,,,,,lake,108,96,aloud,blue,1387.3607891993597,None,None,1387.3607891993597,None,,,,,,,,,,,,,,,,,,,,,,,,,,,,,,39YC,001,2023_Apr_14_1047,ExactRep-v3-final,2021.2.3,59.91069709052581,
,,,,,,,,96,0,96,0,,,,,,,,,,,,,,,,,,,,,,,,,,,,,,,,,,,,,,,,,,,,,,,,,,,,,1391.8783214995638,None,,,,,,,,,,,,,,,,,,,,,,,,,,,,,,,,,,,girl,12,97,sing,white,1389.8763454994187,None,None,1389.8763454994187,None,,,,,,,,,,,,,,,,,,,,,,,,,,,,,,39YC,001,2023_Apr_14_1047,ExactRep-v3-final,2021.2.3,59.91069709052581,
,,,,,,,,97,0,97,0,,,,,,,,,,,,,,,,,,,,,,,,,,,,,,,,,,,,,,,,,,,,,,,,,,,,,1394.3806888991967,None,,,,,,,,,,,,,,,,,,,,,,,,,,,,,,,,,,,weapon,88,98,aloud,blue,1392.378491600044,None,None,1392.378491600044,None,,,,,,,,,,,,,,,,,,,,,,,,,,,,,,39YC,001,2023_Apr_14_1047,ExactRep-v3-final,2021.2.3,59.91069709052581,
,,,,,,,,98,0,98,0,,,,,,,,,,,,,,,,,,,,,,,,,,,,,,,,,,,,,,,,,,,,,,,,,,,,,1396.8831792995334,None,,,,,,,,,,,,,,,,,,,,,,,,,,,,,,,,,,,hide,28,99,sing,white,1394.8833241993561,None,None,1394.8833241993561,None,,,,,,,,,,,,,,,,,,,,,,,,,,,,,,39YC,001,2023_Apr_14_1047,ExactRep-v3-final,2021.2.3,59.91069709052581,
,,,,,,,,99,0,99,0,,,,,,,,,,,,,,,,,,,,,,,,,,,,,,,,,,,,,,,,,,,,,,,,,,,,,1399.385859299451,None,,,,,,,,,,,,,,,,,,,,,,,,,,,,,,,,,,,priest,59,100,silent,red,1397.3854575995356,None,None,1397.3854575995356,None,,,,,,,,,,,,,,,,,,,,,,,,,,,,,,39YC,001,2023_Apr_14_1047,ExactRep-v3-final,2021.2.3,59.91069709052581,
,,,,,,,,100,0,100,0,,,,,,,,,,,,,,,,,,,,,,,,,,,,,,,,,,,,,,,,,,,,,,,,,,,,,1401.8884117994457,None,,,,,,,,,,,,,,,,,,,,,,,,,,,,,,,,,,,diamond,75,101,silent,red,1399.8891130993143,None,None,1399.8891130993143,None,,,,,,,,,,,,,,,,,,,,,,,,,,,,,,39YC,001,2023_Apr_14_1047,ExactRep-v3-final,2021.2.3,59.91069709052581,
,,,,,,,,101,0,101,0,,,,,,,,,,,,,,,,,,,,,,,,,,,,,,,,,,,,,,,,,,,,,,,,,,,,,1404.4075289992616,None,,,,,,,,,,,,,,,,,,,,,,,,,,,,,,,,,,,opinion,13,102,sing,white,1402.3982883999124,None,None,1402.3982883999124,None,,,,,,,,,,,,,,,,,,,,,,,,,,,,,,39YC,001,2023_Apr_14_1047,ExactRep-v3-final,2021.2.3,59.91069709052581,
,,,,,,,,102,0,102,0,,,,,,,,,,,,,,,,,,,,,,,,,,,,,,,,,,,,,,,,,,,,,,,,,,,,,1406.9265089994296,None,,,,,,,,,,,,,,,,,,,,,,,,,,,,,,,,,,,boy,95,103,aloud,blue,1404.9135340992361,None,None,1404.9135340992361,None,,,,,,,,,,,,,,,,,,,,,,,,,,,,,,39YC,001,2023_Apr_14_1047,ExactRep-v3-final,2021.2.3,59.91069709052581,
,,,,,,,,103,0,103,0,,,,,,,,,,,,,,,,,,,,,,,,,,,,,,,,,,,,,,,,,,,,,,,,,,,,,1409.4459682991728,None,,,,,,,,,,,,,,,,,,,,,,,,,,,,,,,,,,,vessel,17,104,sing,white,1407.4316324992105,None,None,1407.4316324992105,None,,,,,,,,,,,,,,,,,,,,,,,,,,,,,,39YC,001,2023_Apr_14_1047,ExactRep-v3-final,2021.2.3,59.91069709052581,
,,,,,,,,104,0,104,0,,,,,,,,,,,,,,,,,,,,,,,,,,,,,,,,,,,,,,,,,,,,,,,,,,,,,1411.9652550993487,None,,,,,,,,,,,,,,,,,,,,,,,,,,,,,,,,,,,crime,6,105,sing,white,1409.9576914999634,None,None,1409.9576914999634,None,,,,,,,,,,,,,,,,,,,,,,,,,,,,,,39YC,001,2023_Apr_14_1047,ExactRep-v3-final,2021.2.3,59.91069709052581,
,,,,,,,,105,0,105,0,,,,,,,,,,,,,,,,,,,,,,,,,,,,,,,,,,,,,,,,,,,,,,,,,,,,,1414.4839325994253,None,,,,,,,,,,,,,,,,,,,,,,,,,,,,,,,,,,,table,53,106,silent,red,1412.4693135991693,None,None,1412.4693135991693,None,,,,,,,,,,,,,,,,,,,,,,,,,,,,,,39YC,001,2023_Apr_14_1047,ExactRep-v3-final,2021.2.3,59.91069709052581,
,,,,,,,,106,0,106,0,,,,,,,,,,,,,,,,,,,,,,,,,,,,,,,,,,,,,,,,,,,,,,,,,,,,,1416.986819899641,None,,,,,,,,,,,,,,,,,,,,,,,,,,,,,,,,,,,fault,73,107,silent,red,1414.9844487998635,None,None,1414.9844487998635,None,,,,,,,,,,,,,,,,,,,,,,,,,,,,,,39YC,001,2023_Apr_14_1047,ExactRep-v3-final,2021.2.3,59.91069709052581,
,,,,,,,,107,0,107,0,,,,,,,,,,,,,,,,,,,,,,,,,,,,,,,,,,,,,,,,,,,,,,,,,,,,,1419.5059893997386,None,,,,,,,,,,,,,,,,,,,,,,,,,,,,,,,,,,,memory,66,108,silent,red,1417.4903558995575,None,None,1417.4903558995575,None,,,,,,,,,,,,,,,,,,,,,,,,,,,,,,39YC,001,2023_Apr_14_1047,ExactRep-v3-final,2021.2.3,59.91069709052581,
,,,,,,,,108,0,108,0,,,,,,,,,,,,,,,,,,,,,,,,,,,,,,,,,,,,,,,,,,,,,,,,,,,,,1422.0085026994348,None,,,,,,,,,,,,,,,,,,,,,,,,,,,,,,,,,,,product,94,109,aloud,blue,1420.0085926996544,None,None,1420.0085926996544,None,,,,,,,,,,,,,,,,,,,,,,,,,,,,,,39YC,001,2023_Apr_14_1047,ExactRep-v3-final,2021.2.3,59.91069709052581,
,,,,,,,,109,0,109,0,,,,,,,,,,,,,,,,,,,,,,,,,,,,,,,,,,,,,,,,,,,,,,,,,,,,,1424.5108495997265,None,,,,,,,,,,,,,,,,,,,,,,,,,,,,,,,,,,,speech,112,110,aloud,blue,1422.51176699996,None,None,1422.51176699996,None,,,,,,,,,,,,,,,,,,,,,,,,,,,,,,39YC,001,2023_Apr_14_1047,ExactRep-v3-final,2021.2.3,59.91069709052581,
,,,,,,,,110,0,110,0,,,,,,,,,,,,,,,,,,,,,,,,,,,,,,,,,,,,,,,,,,,,,,,,,,,,,1427.030151099898,None,,,,,,,,,,,,,,,,,,,,,,,,,,,,,,,,,,,prayer,14,111,sing,white,1425.0168541995808,None,None,1425.0168541995808,None,,,,,,,,,,,,,,,,,,,,,,,,,,,,,,39YC,001,2023_Apr_14_1047,ExactRep-v3-final,2021.2.3,59.91069709052581,
,,,,,,,,111,0,111,0,,,,,,,,,,,,,,,,,,,,,,,,,,,,,,,,,,,,,,,,,,,,,,,,,,,,,1429.532449199818,None,,,,,,,,,,,,,,,,,,,,,,,,,,,,,,,,,,,bar,19,112,sing,white,1427.5333904996514,None,None,1427.5333904996514,None,,,,,,,,,,,,,,,,,,,,,,,,,,,,,,39YC,001,2023_Apr_14_1047,ExactRep-v3-final,2021.2.3,59.91069709052581,
,,,,,,,,112,0,112,0,,,,,,,,,,,,,,,,,,,,,,,,,,,,,,,,,,,,,,,,,,,,,,,,,,,,,1432.0350624993443,None,,,,,,,,,,,,,,,,,,,,,,,,,,,,,,,,,,,fate,36,113,sing,white,1430.0351344998926,None,None,1430.0351344998926,None,,,,,,,,,,,,,,,,,,,,,,,,,,,,,,39YC,001,2023_Apr_14_1047,ExactRep-v3-final,2021.2.3,59.91069709052581,
,,,,,,,,113,0,113,0,,,,,,,,,,,,,,,,,,,,,,,,,,,,,,,,,,,,,,,,,,,,,,,,,,,,,1434.5541901998222,None,,,,,,,,,,,,,,,,,,,,,,,,,,,,,,,,,,,brain,109,114,aloud,blue,1432.5447016991675,None,None,1432.5447016991675,None,,,,,,,,,,,,,,,,,,,,,,,,,,,,,,39YC,001,2023_Apr_14_1047,ExactRep-v3-final,2021.2.3,59.91069709052581,
,,,,,,,,114,0,114,0,,,,,,,,,,,,,,,,,,,,,,,,,,,,,,,,,,,,,,,,,,,,,,,,,,,,,1437.056710199453,None,,,,,,,,,,,,,,,,,,,,,,,,,,,,,,,,,,,door,114,115,aloud,blue,1435.0546957999468,None,None,1435.0546957999468,None,,,,,,,,,,,,,,,,,,,,,,,,,,,,,,39YC,001,2023_Apr_14_1047,ExactRep-v3-final,2021.2.3,59.91069709052581,
,,,,,,,,115,0,115,0,,,,,,,,,,,,,,,,,,,,,,,,,,,,,,,,,,,,,,,,,,,,,,,,,,,,,1439.5760734993964,None,,,,,,,,,,,,,,,,,,,,,,,,,,,,,,,,,,,fur,70,116,silent,red,1437.5664668995887,None,None,1437.5664668995887,None,,,,,,,,,,,,,,,,,,,,,,,,,,,,,,39YC,001,2023_Apr_14_1047,ExactRep-v3-final,2021.2.3,59.91069709052581,
,,,,,,,,116,0,116,0,,,,,,,,,,,,,,,,,,,,,,,,,,,,,,,,,,,,,,,,,,,,,,,,,,,,,1442.0785364992917,None,,,,,,,,,,,,,,,,,,,,,,,,,,,,,,,,,,,poet,60,117,silent,red,1440.0764253996313,None,None,1440.0764253996313,None,,,,,,,,,,,,,,,,,,,,,,,,,,,,,,39YC,001,2023_Apr_14_1047,ExactRep-v3-final,2021.2.3,59.91069709052581,
,,,,,,,,117,0,117,0,,,,,,,,,,,,,,,,,,,,,,,,,,,,,,,,,,,,,,,,,,,,,,,,,,,,,1444.5810817992315,None,,,,,,,,,,,,,,,,,,,,,,,,,,,,,,,,,,,woods,81,118,aloud,blue,1442.578933599405,None,None,1442.578933599405,None,,,,,,,,,,,,,,,,,,,,,,,,,,,,,,39YC,001,2023_Apr_14_1047,ExactRep-v3-final,2021.2.3,59.91069709052581,
,,,,,,,,118,0,118,0,,,,,,,,,,,,,,,,,,,,,,,,,,,,,,,,,,,,,,,,,,,,,,,,,,,,,1447.0834965994582,None,,,,,,,,,,,,,,,,,,,,,,,,,,,,,,,,,,,coin,32,119,sing,white,1445.0840244991705,None,None,1445.0840244991705,None,,,,,,,,,,,,,,,,,,,,,,,,,,,,,,39YC,001,2023_Apr_14_1047,ExactRep-v3-final,2021.2.3,59.91069709052581,
,,,,,,,,119,0,119,0,,,,,,,,,,,,,,,,,,,,,,,,,,,,,,,,,,,,,,,,,,,,,,,,,,,,,1449.586109499447,None,,,,,,,,,,,,,,,,,,,,,,,,,,,,,,,,,,,insect,90,120,aloud,blue,1447.5855417996645,None,None,1447.5855417996645,None,,,,,,,,,,,,,,,,,,,,,,,,,,,,,,39YC,001,2023_Apr_14_1047,ExactRep-v3-final,2021.2.3,59.91069709052581,
,,,,,,,,,,,,,,,,,,,,,,,,,,,,,,,,,,,,,,,,,,,,,,,,,,,,,,,,,,,,,,,,,,,,,,,,,,,,,,,,,,,,,,,,,,,,,,,,,,,,,,,,,,,,,,1450.088067099452,None,space,1.7125277994200587,1460.0643886998296,None,,,,,,,,,,,,,,,,,,,,,,,,39YC,001,2023_Apr_14_1047,ExactRep-v3-final,2021.2.3,59.91069709052581,
,,,,,,,,,,,,,,,,,,,,,,,,,,,,,,,,,,,,,,,,,,,,,,,,,,,,,,,,,,,,,,,,,,,,,,,,,,,,,,,,,,,,,,,,,,,,,,,,,,,,,,,,,,,,,,,,,,,,1461.8001052998006,None,space,29.80025270022452,1471.776389800012,None,,,,,,,,,,,,,,,,,,39YC,001,2023_Apr_14_1047,ExactRep-v3-final,2021.2.3,59.91069709052581,
,,,,,,,,,,,,0,0,0,0,,,,,,,,,,,,,,,,,,,,,,,,,,,,,,,,,,,,,,,,,,,,,,,,,1509.3287473991513,None,,,,,,,,,,,,,,,,,,,,,,,,,,,,,,,,,,,,,,,,,,,,,,,,,,,,,,,,,wife,34,1,sing,old,white,1502.1181737994775,None,y,1502.1181737994775,None,"['y', 'return']","[4.306295399554074, 7.170390799641609]",1502.1181737994775,None,,,39YC,001,2023_Apr_14_1047,ExactRep-v3-final,2021.2.3,59.91069709052581,
,,,,,,,,,,,,1,0,1,0,,,,,,,,,,,,,,,,,,,,,,,,,,,,,,,,,,,,,,,,,,,,,,,,,1517.3369416994974,None,,,,,,,,,,,,,,,,,,,,,,,,,,,,,,,,,,,,,,,,,,,,,,,,,,,,,,,,,chief,48,2,silent,old,red,1509.838799899444,None,n,1509.838799899444,None,"['n', 'return']","[5.3937499998137355, 7.4657824002206326]",1509.838799899444,None,,,39YC,001,2023_Apr_14_1047,ExactRep-v3-final,2021.2.3,59.91069709052581,
,,,,,,,,,,,,2,0,2,0,,,,,,,,,,,,,,,,,,,,,,,,,,,,,,,,,,,,,,,,,,,,,,,,,1519.9062313996255,None,,,,,,,,,,,,,,,,,,,,,,,,,,,,,,,,,,,,,,,,,,,,,,,,,,,,,,,,,officer,138,3,silent,new,red,1517.8467765999958,None,n,1517.8467765999958,None,"['n', 'return']","[1.8257571998983622, 2.025839699432254]",1517.8467765999958,None,,,39YC,001,2023_Apr_14_1047,ExactRep-v3-final,2021.2.3,59.91069709052581,
,,,,,,,,,,,,3,0,3,0,,,,,,,,,,,,,,,,,,,,,,,,,,,,,,,,,,,,,,,,,,,,,,,,,1522.4921275991946,None,,,,,,,,,,,,,,,,,,,,,,,,,,,,,,,,,,,,,,,,,,,,,,,,,,,,,,,,,machine,54,4,silent,old,red,1520.4162034997717,None,n,1520.4162034997717,None,"['n', 'return']","[1.7444548001512885, 2.040417700074613]",1520.4162034997717,None,,,39YC,001,2023_Apr_14_1047,ExactRep-v3-final,2021.2.3,59.91069709052581,
,,,,,,,,,,,,4,0,4,0,,,,,,,,,,,,,,,,,,,,,,,,,,,,,,,,,,,,,,,,,,,,,,,,,1524.6777738993987,None,,,,,,,,,,,,,,,,,,,,,,,,,,,,,,,,,,,,,,,,,,,,,,,,,,,,,,,,,hide,28,5,sing,old,white,1523.008167299442,None,y,1523.008167299442,None,"['y', 'return']","[1.416456799954176, 1.6324185002595186]",1523.008167299442,None,,,39YC,001,2023_Apr_14_1047,ExactRep-v3-final,2021.2.3,59.91069709052581,
,,,,,,,,,,,,5,0,5,0,,,,,,,,,,,,,,,,,,,,,,,,,,,,,,,,,,,,,,,,,,,,,,,,,1526.4293819991872,None,,,,,,,,,,,,,,,,,,,,,,,,,,,,,,,,,,,,,,,,,,,,,,,,,,,,,,,,,lord,231,6,sing,new,white,1525.1851522997022,None,n,1525.1851522997022,None,"['n', 'return']","[1.031483999453485, 1.1995322993025184]",1525.1851522997022,None,,,39YC,001,2023_Apr_14_1047,ExactRep-v3-final,2021.2.3,59.91069709052581,
,,,,,,,,,,,,6,0,6,0,,,,,,,,,,,,,,,,,,,,,,,,,,,,,,,,,,,,,,,,,,,,,,,,,1534.6042598998174,None,,,,,,,,,,,,,,,,,,,,,,,,,,,,,,,,,,,,,,,,,,,,,,,,,,,,,,,,,circle,141,7,silent,new,red,1526.9392959000543,None,n,1526.9392959000543,None,"['n', 'return']","[7.197277500294149, 7.621255900710821]",1526.9392959000543,None,,,39YC,001,2023_Apr_14_1047,ExactRep-v3-final,2021.2.3,59.91069709052581,
,,,,,,,,,,,,7,0,7,0,,,,,,,,,,,,,,,,,,,,,,,,,,,,,,,,,,,,,,,,,,,,,,,,,1537.4404393993318,None,,,,,,,,,,,,,,,,,,,,,,,,,,,,,,,,,,,,,,,,,,,,,,,,,,,,,,,,,ticket,144,8,silent,new,red,1535.1081775994971,None,n,1535.1081775994971,None,"['n', 'return']","[2.0765728997066617, 2.292434899136424]",1535.1081775994971,None,,,39YC,001,2023_Apr_14_1047,ExactRep-v3-final,2021.2.3,59.91069709052581,
,,,,,,,,,,,,8,0,8,0,,,,,,,,,,,,,,,,,,,,,,,,,,,,,,,,,,,,,,,,,,,,,,,,,1542.5788913993165,None,,,,,,,,,,,,,,,,,,,,,,,,,,,,,,,,,,,,,,,,,,,,,,,,,,,,,,,,,trouble,170,9,aloud,new,blue,1537.9421534994617,None,n,1537.9421534994617,None,"['n', 'return']","[4.394469399936497, 4.594734099693596]",1537.9421534994617,None,,,39YC,001,2023_Apr_14_1047,ExactRep-v3-final,2021.2.3,59.91069709052581,
,,,,,,,,,,,,9,0,9,0,,,,,,,,,,,,,,,,,,,,,,,,,,,,,,,,,,,,,,,,,,,,,,,,,1545.1815216997638,None,,,,,,,,,,,,,,,,,,,,,,,,,,,,,,,,,,,,,,,,,,,,,,,,,,,,,,,,,child,56,10,silent,old,red,1543.084955599159,None,y,1543.084955599159,None,"['y', 'return']","[1.2676872005686164, 2.0596769005060196]",1543.084955599159,None,,,39YC,001,2023_Apr_14_1047,ExactRep-v3-final,2021.2.3,59.91069709052581,
,,,,,,,,,,,,10,0,10,0,,,,,,,,,,,,,,,,,,,,,,,,,,,,,,,,,,,,,,,,,,,,,,,,,1547.2179370997474,None,,,,,,,,,,,,,,,,,,,,,,,,,,,,,,,,,,,,,,,,,,,,,,,,,,,,,,,,,life,217,11,sing,new,white,1545.690654099919,None,y,1545.690654099919,None,"['y', 'return']","[0.9659712007269263, 1.4939898001030087]",1545.690654099919,None,,,39YC,001,2023_Apr_14_1047,ExactRep-v3-final,2021.2.3,59.91069709052581,
,,,,,,,,,,,,11,0,11,0,,,,,,,,,,,,,,,,,,,,,,,,,,,,,,,,,,,,,,,,,,,,,,,,,1548.768554199487,None,,,,,,,,,,,,,,,,,,,,,,,,,,,,,,,,,,,,,,,,,,,,,,,,,,,,,,,,,table,53,12,silent,old,red,1547.7281829994172,None,y,1547.7281829994172,None,"['y', 'return']","[0.6402424992993474, 0.9925627997145057]",1547.7281829994172,None,,,39YC,001,2023_Apr_14_1047,ExactRep-v3-final,2021.2.3,59.91069709052581,
,,,,,,,,,,,,12,0,12,0,,,,,,,,,,,,,,,,,,,,,,,,,,,,,,,,,,,,,,,,,,,,,,,,,1550.1364670991898,None,,,,,,,,,,,,,,,,,,,,,,,,,,,,,,,,,,,,,,,,,,,,,,,,,,,,,,,,,blossom,142,13,silent,new,red,1549.2782161999494,None,n,1549.2782161999494,None,"['n', 'return']","[0.6663667000830173, 0.8103956999257207]",1549.2782161999494,None,,,39YC,001,2023_Apr_14_1047,ExactRep-v3-final,2021.2.3,59.91069709052581,
,,,,,,,,,,,,13,0,13,0,,,,,,,,,,,,,,,,,,,,,,,,,,,,,,,,,,,,,,,,,,,,,,,,,1554.841085399501,None,,,,,,,,,,,,,,,,,,,,,,,,,,,,,,,,,,,,,,,,,,,,,,,,,,,,,,,,,justice,124,14,silent,new,red,1550.6449535991997,None,n,1550.6449535991997,None,"['n', 'return']","[4.051825499162078, 4.163617399521172]",1550.6449535991997,None,,,39YC,001,2023_Apr_14_1047,ExactRep-v3-final,2021.2.3,59.91069709052581,
,,,,,,,,,,,,14,0,14,0,,,,,,,,,,,,,,,,,,,,,,,,,,,,,,,,,,,,,,,,,,,,,,,,,1558.144438199699,None,,,,,,,,,,,,,,,,,,,,,,,,,,,,,,,,,,,,,,,,,,,,,,,,,,,,,,,,,mother,190,15,aloud,new,blue,1555.3517646994442,None,n,1555.3517646994442,None,"['n', 'return']","[2.6572118001058698, 2.744951999746263]",1555.3517646994442,None,,,39YC,001,2023_Apr_14_1047,ExactRep-v3-final,2021.2.3,59.91069709052581,
,,,,,,,,,,,,15,0,15,0,,,,,,,,,,,,,,,,,,,,,,,,,,,,,,,,,,,,,,,,,,,,,,,,,1560.0297125997022,None,,,,,,,,,,,,,,,,,,,,,,,,,,,,,,,,,,,,,,,,,,,,,,,,,,,,,,,,,month,65,16,silent,old,red,1558.6518327994272,None,y,1558.6518327994272,None,"['y', 'return']","[1.1967705003917217, 1.3407800998538733]",1558.6518327994272,None,,,39YC,001,2023_Apr_14_1047,ExactRep-v3-final,2021.2.3,59.91069709052581,
,,,,,,,,,,,,16,0,16,0,,,,,,,,,,,,,,,,,,,,,,,,,,,,,,,,,,,,,,,,,,,,,,,,,1561.531189499423,None,,,,,,,,,,,,,,,,,,,,,,,,,,,,,,,,,,,,,,,,,,,,,,,,,,,,,,,,,cattle,177,17,sing,new,white,1560.5390792991966,None,n,1560.5390792991966,None,"['n', 'return']","[0.8058144999668002, 0.9575926000252366]",1560.5390792991966,None,,,39YC,001,2023_Apr_14_1047,ExactRep-v3-final,2021.2.3,59.91069709052581,
,,,,,,,,,,,,17,0,17,0,,,,,,,,,,,,,,,,,,,,,,,,,,,,,,,,,,,,,,,,,,,,,,,,,1563.0826822994277,None,,,,,,,,,,,,,,,,,,,,,,,,,,,,,,,,,,,,,,,,,,,,,,,,,,,,,,,,,friend,67,18,silent,old,red,1562.0448022000492,None,y,1562.0448022000492,None,"['y', 'return']","[0.7798210997134447, 1.0038259997963905]",1562.0448022000492,None,,,39YC,001,2023_Apr_14_1047,ExactRep-v3-final,2021.2.3,59.91069709052581,
,,,,,,,,,,,,18,0,18,0,,,,,,,,,,,,,,,,,,,,,,,,,,,,,,,,,,,,,,,,,,,,,,,,,1564.7343611000106,None,,,,,,,,,,,,,,,,,,,,,,,,,,,,,,,,,,,,,,,,,,,,,,,,,,,,,,,,,avenue,21,19,sing,old,white,1563.590718199499,None,y,1563.590718199499,None,"['y', 'return']","[0.9938637996092439, 1.1058922996744514]",1563.590718199499,None,,,39YC,001,2023_Apr_14_1047,ExactRep-v3-final,2021.2.3,59.91069709052581,
,,,,,,,,,,,,19,0,19,0,,,,,,,,,,,,,,,,,,,,,,,,,,,,,,,,,,,,,,,,,,,,,,,,,1566.2524904999882,None,,,,,,,,,,,,,,,,,,,,,,,,,,,,,,,,,,,,,,,,,,,,,,,,,,,,,,,,,tree,72,20,silent,old,red,1565.2368325991556,None,n,1565.2368325991556,None,"['n', 'return']","[0.8677592994645238, 0.9798341002315283]",1565.2368325991556,None,,,39YC,001,2023_Apr_14_1047,ExactRep-v3-final,2021.2.3,59.91069709052581,
,,,,,,,,,,,,20,0,20,0,,,,,,,,,,,,,,,,,,,,,,,,,,,,,,,,,,,,,,,,,,,,,,,,,1568.3222688995302,None,,,,,,,,,,,,,,,,,,,,,,,,,,,,,,,,,,,,,,,,,,,,,,,,,,,,,,,,,star,221,21,sing,new,white,1566.7614946998656,None,n,1566.7614946998656,None,"['n', 'return']","[1.3912724005058408, 1.5191971007734537]",1566.7614946998656,None,,,39YC,001,2023_Apr_14_1047,ExactRep-v3-final,2021.2.3,59.91069709052581,
,,,,,,,,,,,,21,0,21,0,,,,,,,,,,,,,,,,,,,,,,,,,,,,,,,,,,,,,,,,,,,,,,,,,1570.1731513999403,None,,,,,,,,,,,,,,,,,,,,,,,,,,,,,,,,,,,,,,,,,,,,,,,,,,,,,,,,,flower,237,22,sing,new,white,1568.8299356000498,None,y,1568.8299356000498,None,"['y', 'return']","[1.0747475000098348, 1.2986147999763489]",1568.8299356000498,None,,,39YC,001,2023_Apr_14_1047,ExactRep-v3-final,2021.2.3,59.91069709052581,
,,,,,,,,,,,,22,0,22,0,,,,,,,,,,,,,,,,,,,,,,,,,,,,,,,,,,,,,,,,,,,,,,,,,1571.6246022991836,None,,,,,,,,,,,,,,,,,,,,,,,,,,,,,,,,,,,,,,,,,,,,,,,,,,,,,,,,,world,196,23,aloud,new,blue,1570.6803085999563,None,y,1570.6803085999563,None,"['y', 'return']","[0.7762781996279955, 0.9042918998748064]",1570.6803085999563,None,,,39YC,001,2023_Apr_14_1047,ExactRep-v3-final,2021.2.3,59.91069709052581,
,,,,,,,,,,,,23,0,23,0,,,,,,,,,,,,,,,,,,,,,,,,,,,,,,,,,,,,,,,,,,,,,,,,,1572.975915699266,None,,,,,,,,,,,,,,,,,,,,,,,,,,,,,,,,,,,,,,,,,,,,,,,,,,,,,,,,,cash,24,24,sing,old,white,1572.134451800026,None,y,1572.134451800026,None,"['y', 'return']","[0.6662013996392488, 0.7942068995907903]",1572.134451800026,None,,,39YC,001,2023_Apr_14_1047,ExactRep-v3-final,2021.2.3,59.91069709052581,
,,,,,,,,,,,,24,0,24,0,,,,,,,,,,,,,,,,,,,,,,,,,,,,,,,,,,,,,,,,,,,,,,,,,1576.6796036995947,None,,,,,,,,,,,,,,,,,,,,,,,,,,,,,,,,,,,,,,,,,,,,,,,,,,,,,,,,,car,194,25,aloud,new,blue,1573.4774616993964,None,n,1573.4774616993964,None,"['n', 'return']","[3.0431680995970964, 3.163252799771726]",1573.4774616993964,None,,,39YC,001,2023_Apr_14_1047,ExactRep-v3-final,2021.2.3,59.91069709052581,
,,,,,,,,,,,,25,0,25,0,,,,,,,,,,,,,,,,,,,,,,,,,,,,,,,,,,,,,,,,,,,,,,,,,1578.097531300038,None,,,,,,,,,,,,,,,,,,,,,,,,,,,,,,,,,,,,,,,,,,,,,,,,,,,,,,,,,leader,148,26,silent,new,red,1577.1871801996604,None,n,1577.1871801996604,None,"['n', 'return']","[0.7414632998406887, 0.8695470001548529]",1577.1871801996604,None,,,39YC,001,2023_Apr_14_1047,ExactRep-v3-final,2021.2.3,59.91069709052581,
,,,,,,,,,,,,26,0,26,0,,,,,,,,,,,,,,,,,,,,,,,,,,,,,,,,,,,,,,,,,,,,,,,,,1579.4323911992833,None,,,,,,,,,,,,,,,,,,,,,,,,,,,,,,,,,,,,,,,,,,,,,,,,,,,,,,,,,tool,79,27,sing,old,white,1578.6045852992684,None,y,1578.6045852992684,None,"['y', 'return']","[0.6521519003435969, 0.7800972005352378]",1578.6045852992684,None,,,39YC,001,2023_Apr_14_1047,ExactRep-v3-final,2021.2.3,59.91069709052581,
,,,,,,,,,,,,27,0,27,0,,,,,,,,,,,,,,,,,,,,,,,,,,,,,,,,,,,,,,,,,,,,,,,,,1580.9171871999279,None,,,,,,,,,,,,,,,,,,,,,,,,,,,,,,,,,,,,,,,,,,,,,,,,,,,,,,,,,wheat,207,28,sing,new,white,1579.938615099527,None,n,1579.938615099527,None,"['n', 'return']","[0.8060897001996636, 0.9420480998232961]",1579.938615099527,None,,,39YC,001,2023_Apr_14_1047,ExactRep-v3-final,2021.2.3,59.91069709052581,
,,,,,,,,,,,,28,0,28,0,,,,,,,,,,,,,,,,,,,,,,,,,,,,,,,,,,,,,,,,,,,,,,,,,1583.6698153000325,None,,,,,,,,,,,,,,,,,,,,,,,,,,,,,,,,,,,,,,,,,,,,,,,,,,,,,,,,,party,64,29,silent,old,red,1581.4306858992204,None,n,1581.4306858992204,None,"['n', 'return']","[2.08999489992857, 2.2019543005153537]",1581.4306858992204,None,,,39YC,001,2023_Apr_14_1047,ExactRep-v3-final,2021.2.3,59.91069709052581,
,,,,,,,,,,,,29,0,29,0,,,,,,,,,,,,,,,,,,,,,,,,,,,,,,,,,,,,,,,,,,,,,,,,,1585.672015699558,None,,,,,,,,,,,,,,,,,,,,,,,,,,,,,,,,,,,,,,,,,,,,,,,,,,,,,,,,,string,96,30,aloud,old,blue,1584.181392999366,None,y,1584.181392999366,None,"['y', 'return']","[1.355442799627781, 1.4512623995542526]",1584.181392999366,None,,,39YC,001,2023_Apr_14_1047,ExactRep-v3-final,2021.2.3,59.91069709052581,
,,,,,,,,,,,,30,0,30,0,,,,,,,,,,,,,,,,,,,,,,,,,,,,,,,,,,,,,,,,,,,,,,,,,1587.8574910992756,None,,,,,,,,,,,,,,,,,,,,,,,,,,,,,,,,,,,,,,,,,,,,,,,,,,,,,,,,,plain,132,31,silent,new,red,1586.1814337996766,None,n,1586.1814337996766,None,"['n', 'return']","[1.3231966001912951, 1.6431237002834678]",1586.1814337996766,None,,,39YC,001,2023_Apr_14_1047,ExactRep-v3-final,2021.2.3,59.91069709052581,
,,,,,,,,,,,,31,0,31,0,,,,,,,,,,,,,,,,,,,,,,,,,,,,,,,,,,,,,,,,,,,,,,,,,1590.8101895991713,None,,,,,,,,,,,,,,,,,,,,,,,,,,,,,,,,,,,,,,,,,,,,,,,,,,,,,,,,,meadow,215,32,sing,new,white,1588.3660551998764,None,y,1588.3660551998764,None,"['y', 'return']","[2.2667757999151945, 2.4025983000174165]",1588.3660551998764,None,,,39YC,001,2023_Apr_14_1047,ExactRep-v3-final,2021.2.3,59.91069709052581,
,,,,,,,,,,,,32,0,32,0,,,,,,,,,,,,,,,,,,,,,,,,,,,,,,,,,,,,,,,,,,,,,,,,,1592.3621779000387,None,,,,,,,,,,,,,,,,,,,,,,,,,,,,,,,,,,,,,,,,,,,,,,,,,,,,,,,,,grief,122,33,silent,new,red,1591.320323399268,None,y,1591.320323399268,None,"['y', 'return']","[0.8804021999239922, 1.0002338998019695]",1591.320323399268,None,,,39YC,001,2023_Apr_14_1047,ExactRep-v3-final,2021.2.3,59.91069709052581,
,,,,,,,,,,,,33,0,33,0,,,,,,,,,,,,,,,,,,,,,,,,,,,,,,,,,,,,,,,,,,,,,,,,,1593.8300791997463,None,,,,,,,,,,,,,,,,,,,,,,,,,,,,,,,,,,,,,,,,,,,,,,,,,,,,,,,,,spirit,118,34,aloud,old,blue,1592.8717032996938,None,y,1592.8717032996938,None,"['y', 'return']","[0.7849051998928189, 0.9129280000925064]",1592.8717032996938,None,,,39YC,001,2023_Apr_14_1047,ExactRep-v3-final,2021.2.3,59.91069709052581,
,,,,,,,,,,,,34,0,34,0,,,,,,,,,,,,,,,,,,,,,,,,,,,,,,,,,,,,,,,,,,,,,,,,,1596.299260799773,None,,,,,,,,,,,,,,,,,,,,,,,,,,,,,,,,,,,,,,,,,,,,,,,,,,,,,,,,,artist,84,35,aloud,old,blue,1594.3384642992169,None,n,1594.3384642992169,None,"['n', 'return']","[1.7823863001540303, 1.9182980004698038]",1594.3384642992169,None,,,39YC,001,2023_Apr_14_1047,ExactRep-v3-final,2021.2.3,59.91069709052581,
,,,,,,,,,,,,35,0,35,0,,,,,,,,,,,,,,,,,,,,,,,,,,,,,,,,,,,,,,,,,,,,,,,,,1598.5850452994928,None,,,,,,,,,,,,,,,,,,,,,,,,,,,,,,,,,,,,,,,,,,,,,,,,,,,,,,,,,picture,80,36,aloud,old,blue,1596.809178499505,None,y,1596.809178499505,None,"['y', 'return']","[1.2156269997358322, 1.743532500229776]",1596.809178499505,None,,,39YC,001,2023_Apr_14_1047,ExactRep-v3-final,2021.2.3,59.91069709052581,
,,,,,,,,,,,,36,0,36,0,,,,,,,,,,,,,,,,,,,,,,,,,,,,,,,,,,,,,,,,,,,,,,,,,1600.2699388992041,None,,,,,,,,,,,,,,,,,,,,,,,,,,,,,,,,,,,,,,,,,,,,,,,,,,,,,,,,,cottage,183,37,sing,new,white,1599.0939185991883,None,n,1599.0939185991883,None,"['n', 'return']","[0.8107161996886134, 1.1307317996397614]",1599.0939185991883,None,,,39YC,001,2023_Apr_14_1047,ExactRep-v3-final,2021.2.3,59.91069709052581,
,,,,,,,,,,,,37,0,37,0,,,,,,,,,,,,,,,,,,,,,,,,,,,,,,,,,,,,,,,,,,,,,,,,,1601.8881911998615,None,,,,,,,,,,,,,,,,,,,,,,,,,,,,,,,,,,,,,,,,,,,,,,,,,,,,,,,,,pupil,236,38,aloud,new,blue,1600.777843799442,None,n,1600.777843799442,None,"['n', 'return']","[0.8548440001904964, 1.0788671998307109]",1600.777843799442,None,,,39YC,001,2023_Apr_14_1047,ExactRep-v3-final,2021.2.3,59.91069709052581,
,,,,,,,,,,,,38,0,38,0,,,,,,,,,,,,,,,,,,,,,,,,,,,,,,,,,,,,,,,,,,,,,,,,,1605.725430299528,None,,,,,,,,,,,,,,,,,,,,,,,,,,,,,,,,,,,,,,,,,,,,,,,,,,,,,,,,,cabin,135,39,silent,new,red,1602.3923498997465,None,n,1602.3923498997465,None,"['n', 'return']","[3.016693599522114, 3.288472400046885]",1602.3923498997465,None,,,39YC,001,2023_Apr_14_1047,ExactRep-v3-final,2021.2.3,59.91069709052581,
,,,,,,,,,,,,39,0,39,0,,,,,,,,,,,,,,,,,,,,,,,,,,,,,,,,,,,,,,,,,,,,,,,,,1607.2436152994633,None,,,,,,,,,,,,,,,,,,,,,,,,,,,,,,,,,,,,,,,,,,,,,,,,,,,,,,,,,health,82,40,aloud,old,blue,1606.2348479991779,None,y,1606.2348479991779,None,"['y', 'return']","[0.7899655001237988, 0.9737807000055909]",1606.2348479991779,None,,,39YC,001,2023_Apr_14_1047,ExactRep-v3-final,2021.2.3,59.91069709052581,
,,,,,,,,,,,,40,0,40,0,,,,,,,,,,,,,,,,,,,,,,,,,,,,,,,,,,,,,,,,,,,,,,,,,1609.1787000000477,None,,,,,,,,,,,,,,,,,,,,,,,,,,,,,,,,,,,,,,,,,,,,,,,,,,,,,,,,,body,68,41,silent,old,red,1607.7489725993946,None,y,1607.7489725993946,None,"['y', 'return']","[1.1318377992138267, 1.395762899890542]",1607.7489725993946,None,,,39YC,001,2023_Apr_14_1047,ExactRep-v3-final,2021.2.3,59.91069709052581,
,,,,,,,,,,,,41,0,41,0,,,,,,,,,,,,,,,,,,,,,,,,,,,,,,,,,,,,,,,,,,,,,,,,,1611.480973799713,None,,,,,,,,,,,,,,,,,,,,,,,,,,,,,,,,,,,,,,,,,,,,,,,,,,,,,,,,,form,173,42,sing,new,white,1609.6847987994552,None,y,1609.6847987994552,None,"['y', 'return']","[1.5480117993429303, 1.7639745995402336]",1609.6847987994552,None,,,39YC,001,2023_Apr_14_1047,ExactRep-v3-final,2021.2.3,59.91069709052581,
,,,,,,,,,,,,42,0,42,0,,,,,,,,,,,,,,,,,,,,,,,,,,,,,,,,,,,,,,,,,,,,,,,,,1612.6990043995902,None,,,,,,,,,,,,,,,,,,,,,,,,,,,,,,,,,,,,,,,,,,,,,,,,,,,,,,,,,safety,23,43,sing,old,white,1611.9907573992386,None,y,1611.9907573992386,None,"['y', 'return']","[0.4978481000289321, 0.665918399579823]",1611.9907573992386,None,,,39YC,001,2023_Apr_14_1047,ExactRep-v3-final,2021.2.3,59.91069709052581,
,,,,,,,,,,,,43,0,43,0,,,,,,,,,,,,,,,,,,,,,,,,,,,,,,,,,,,,,,,,,,,,,,,,,1614.0169909996912,None,,,,,,,,,,,,,,,,,,,,,,,,,,,,,,,,,,,,,,,,,,,,,,,,,,,,,,,,,cat,45,44,silent,old,red,1613.2093209000304,None,y,1613.2093209000304,None,"['y', 'return']","[0.6473797000944614, 0.7673901999369264]",1613.2093209000304,None,,,39YC,001,2023_Apr_14_1047,ExactRep-v3-final,2021.2.3,59.91069709052581,
,,,,,,,,,,,,44,0,44,0,,,,,,,,,,,,,,,,,,,,,,,,,,,,,,,,,,,,,,,,,,,,,,,,,1615.3851807992905,None,,,,,,,,,,,,,,,,,,,,,,,,,,,,,,,,,,,,,,,,,,,,,,,,,,,,,,,,,village,191,45,sing,new,white,1614.5266824997962,None,y,1614.5266824997962,None,"['y', 'return']","[0.6502429991960526, 0.817990799434483]",1614.5266824997962,None,,,39YC,001,2023_Apr_14_1047,ExactRep-v3-final,2021.2.3,59.91069709052581,
,,,,,,,,,,,,45,0,45,0,,,,,,,,,,,,,,,,,,,,,,,,,,,,,,,,,,,,,,,,,,,,,,,,,1621.441186399199,None,,,,,,,,,,,,,,,,,,,,,,,,,,,,,,,,,,,,,,,,,,,,,,,,,,,,,,,,,sea,165,46,sing,new,white,1615.8951958995312,None,n,1615.8951958995312,None,"['y', 'backspace', 'n', 'return']","[0.6094866991043091, 2.3774680998176336, 4.777444599196315, 5.50550099927932]",1615.8951958995312,None,,,39YC,001,2023_Apr_14_1047,ExactRep-v3-final,2021.2.3,59.91069709052581,
,,,,,,,,,,,,46,0,46,0,,,,,,,,,,,,,,,,,,,,,,,,,,,,,,,,,,,,,,,,,,,,,,,,,1623.0260114995763,None,,,,,,,,,,,,,,,,,,,,,,,,,,,,,,,,,,,,,,,,,,,,,,,,,,,,,,,,,glory,121,47,silent,new,red,1621.9510357994586,None,n,1621.9510357994586,None,"['n', 'return']","[0.8816180992871523, 1.0417665001004934]",1621.9510357994586,None,,,39YC,001,2023_Apr_14_1047,ExactRep-v3-final,2021.2.3,59.91069709052581,
,,,,,,,,,,,,47,0,47,0,,,,,,,,,,,,,,,,,,,,,,,,,,,,,,,,,,,,,,,,,,,,,,,,,1624.6110766995698,None,,,,,,,,,,,,,,,,,,,,,,,,,,,,,,,,,,,,,,,,,,,,,,,,,,,,,,,,,devil,189,48,sing,new,white,1623.535889199935,None,n,1623.535889199935,None,"['n', 'return']","[0.8970108004286885, 1.0407354002818465]",1623.535889199935,None,,,39YC,001,2023_Apr_14_1047,ExactRep-v3-final,2021.2.3,59.91069709052581,
,,,,,,,,,,,,48,0,48,0,,,,,,,,,,,,,,,,,,,,,,,,,,,,,,,,,,,,,,,,,,,,,,,,,1626.7964690998197,None,,,,,,,,,,,,,,,,,,,,,,,,,,,,,,,,,,,,,,,,,,,,,,,,,,,,,,,,,amount,58,49,silent,old,red,1625.1262411000207,None,y,1625.1262411000207,None,"['y', 'return']","[1.4423610009253025, 1.6263901004567742]",1625.1262411000207,None,,,39YC,001,2023_Apr_14_1047,ExactRep-v3-final,2021.2.3,59.91069709052581,
,,,,,,,,,,,,49,0,49,0,,,,,,,,,,,,,,,,,,,,,,,,,,,,,,,,,,,,,,,,,,,,,,,,,1628.1479410994798,None,,,,,,,,,,,,,,,,,,,,,,,,,,,,,,,,,,,,,,,,,,,,,,,,,,,,,,,,,chance,50,50,silent,old,red,1627.3060749992728,None,y,1627.3060749992728,None,"['y', 'return']","[0.6705873999744654, 0.8065896006301045]",1627.3060749992728,None,,,39YC,001,2023_Apr_14_1047,ExactRep-v3-final,2021.2.3,59.91069709052581,
,,,,,,,,,,,,50,0,50,0,,,,,,,,,,,,,,,,,,,,,,,,,,,,,,,,,,,,,,,,,,,,,,,,,1629.903277299367,None,,,,,,,,,,,,,,,,,,,,,,,,,,,,,,,,,,,,,,,,,,,,,,,,,,,,,,,,,power,128,51,silent,new,red,1628.6615445995703,None,n,1628.6615445995703,None,"['n', 'return']","[1.0350021999329329, 1.2030378002673388]",1628.6615445995703,None,,,39YC,001,2023_Apr_14_1047,ExactRep-v3-final,2021.2.3,59.91069709052581,
,,,,,,,,,,,,51,0,51,0,,,,,,,,,,,,,,,,,,,,,,,,,,,,,,,,,,,,,,,,,,,,,,,,,1632.669017699547,None,,,,,,,,,,,,,,,,,,,,,,,,,,,,,,,,,,,,,,,,,,,,,,,,,,,,,,,,,owner,160,52,aloud,new,blue,1630.423958399333,None,y,1630.423958399333,None,"['y', 'return']","[1.0328655997291207, 2.200722999870777]",1630.423958399333,None,,,39YC,001,2023_Apr_14_1047,ExactRep-v3-final,2021.2.3,59.91069709052581,
,,,,,,,,,,,,52,0,52,0,,,,,,,,,,,,,,,,,,,,,,,,,,,,,,,,,,,,,,,,,,,,,,,,,1634.4539627991617,None,,,,,,,,,,,,,,,,,,,,,,,,,,,,,,,,,,,,,,,,,,,,,,,,,,,,,,,,,gold,150,53,silent,new,red,1633.179207299836,None,n,1633.179207299836,None,"['n', 'return']","[0.94960100017488, 1.237546700052917]",1633.179207299836,None,,,39YC,001,2023_Apr_14_1047,ExactRep-v3-final,2021.2.3,59.91069709052581,
,,,,,,,,,,,,53,0,53,0,,,,,,,,,,,,,,,,,,,,,,,,,,,,,,,,,,,,,,,,,,,,,,,,,1635.905457799323,None,,,,,,,,,,,,,,,,,,,,,,,,,,,,,,,,,,,,,,,,,,,,,,,,,,,,,,,,,corn,115,54,aloud,old,blue,1634.963552299887,None,y,1634.963552299887,None,"['y', 'return']","[0.7492244997993112, 0.9091629004105926]",1634.963552299887,None,,,39YC,001,2023_Apr_14_1047,ExactRep-v3-final,2021.2.3,59.91069709052581,
,,,,,,,,,,,,54,0,54,0,,,,,,,,,,,,,,,,,,,,,,,,,,,,,,,,,,,,,,,,,,,,,,,,,1637.2402288997546,None,,,,,,,,,,,,,,,,,,,,,,,,,,,,,,,,,,,,,,,,,,,,,,,,,,,,,,,,,vessel,17,55,sing,old,white,1636.4125318992883,None,y,1636.4125318992883,None,"['y', 'return']","[0.6361677004024386, 0.7961735995486379]",1636.4125318992883,None,,,39YC,001,2023_Apr_14_1047,ExactRep-v3-final,2021.2.3,59.91069709052581,
,,,,,,,,,,,,55,0,55,0,,,,,,,,,,,,,,,,,,,,,,,,,,,,,,,,,,,,,,,,,,,,,,,,,1638.6084033995867,None,,,,,,,,,,,,,,,,,,,,,,,,,,,,,,,,,,,,,,,,,,,,,,,,,,,,,,,,,opinion,13,56,sing,old,white,1637.7495508994907,None,y,1637.7495508994907,None,"['y', 'return']","[0.6031174995005131, 0.8111149994656444]",1637.7495508994907,None,,,39YC,001,2023_Apr_14_1047,ExactRep-v3-final,2021.2.3,59.91069709052581,
,,,,,,,,,,,,56,0,56,0,,,,,,,,,,,,,,,,,,,,,,,,,,,,,,,,,,,,,,,,,,,,,,,,,1646.7497814996168,None,,,,,,,,,,,,,,,,,,,,,,,,,,,,,,,,,,,,,,,,,,,,,,,,,,,,,,,,,idea,152,57,silent,new,red,1639.1172763993964,None,n,1639.1172763993964,None,"['n', 'return']","[7.499618399888277, 7.587350700050592]",1639.1172763993964,None,,,39YC,001,2023_Apr_14_1047,ExactRep-v3-final,2021.2.3,59.91069709052581,
,,,,,,,,,,,,57,0,57,0,,,,,,,,,,,,,,,,,,,,,,,,,,,,,,,,,,,,,,,,,,,,,,,,,1652.5054289000109,None,,,,,,,,,,,,,,,,,,,,,,,,,,,,,,,,,,,,,,,,,,,,,,,,,,,,,,,,,home,98,58,aloud,old,blue,1647.255629199557,None,y,1647.255629199557,None,"['y', 'return']","[4.265252900309861, 5.217031500302255]",1647.255629199557,None,,,39YC,001,2023_Apr_14_1047,ExactRep-v3-final,2021.2.3,59.91069709052581,
,,,,,,,,,,,,58,0,58,0,,,,,,,,,,,,,,,,,,,,,,,,,,,,,,,,,,,,,,,,,,,,,,,,,1655.6584850996733,None,,,,,,,,,,,,,,,,,,,,,,,,,,,,,,,,,,,,,,,,,,,,,,,,,,,,,,,,,dream,92,59,aloud,old,blue,1653.0129835000262,None,y,1653.0129835000262,None,"['y', 'return']","[0.8436332000419497, 2.6036895997822285]",1653.0129835000262,None,,,39YC,001,2023_Apr_14_1047,ExactRep-v3-final,2021.2.3,59.91069709052581,
,,,,,,,,,,,,59,0,59,0,,,,,,,,,,,,,,,,,,,,,,,,,,,,,,,,,,,,,,,,,,,,,,,,,1665.2682217992842,None,,,,,,,,,,,,,,,,,,,,,,,,,,,,,,,,,,,,,,,,,,,,,,,,,,,,,,,,,forest,146,60,silent,new,red,1656.1668426999822,None,n,1656.1668426999822,None,"['n', 'return']","[8.857859100215137, 9.065980699844658]",1656.1668426999822,None,,,39YC,001,2023_Apr_14_1047,ExactRep-v3-final,2021.2.3,59.91069709052581,
,,,,,,,,,,,,60,0,60,0,,,,,,,,,,,,,,,,,,,,,,,,,,,,,,,,,,,,,,,,,,,,,,,,,1667.2201453996822,None,,,,,,,,,,,,,,,,,,,,,,,,,,,,,,,,,,,,,,,,,,,,,,,,,,,,,,,,,meeting,225,61,sing,new,white,1665.7780483998358,None,n,1665.7780483998358,None,"['n', 'return']","[1.278867700137198, 1.398680199868977]",1665.7780483998358,None,,,39YC,001,2023_Apr_14_1047,ExactRep-v3-final,2021.2.3,59.91069709052581,
,,,,,,,,,,,,61,0,61,0,,,,,,,,,,,,,,,,,,,,,,,,,,,,,,,,,,,,,,,,,,,,,,,,,1668.6382840992883,None,,,,,,,,,,,,,,,,,,,,,,,,,,,,,,,,,,,,,,,,,,,,,,,,,,,,,,,,,queen,78,62,silent,old,red,1667.7330293999985,None,y,1667.7330293999985,None,"['y', 'return']","[0.7397873001173139, 0.8597635002806783]",1667.7330293999985,None,,,39YC,001,2023_Apr_14_1047,ExactRep-v3-final,2021.2.3,59.91069709052581,
,,,,,,,,,,,,62,0,62,0,,,,,,,,,,,,,,,,,,,,,,,,,,,,,,,,,,,,,,,,,,,,,,,,,1670.9403894999996,None,,,,,,,,,,,,,,,,,,,,,,,,,,,,,,,,,,,,,,,,,,,,,,,,,,,,,,,,,rod,238,63,aloud,new,blue,1669.1462609991431,None,n,1669.1462609991431,None,"['n', 'return']","[1.2146244002506137, 1.7586142998188734]",1669.1462609991431,None,,,39YC,001,2023_Apr_14_1047,ExactRep-v3-final,2021.2.3,59.91069709052581,
,,,,,,,,,,,,63,0,63,0,,,,,,,,,,,,,,,,,,,,,,,,,,,,,,,,,,,,,,,,,,,,,,,,,1680.2665390996262,None,,,,,,,,,,,,,,,,,,,,,,,,,,,,,,,,,,,,,,,,,,,,,,,,,,,,,,,,,bottle,143,64,silent,new,red,1671.448744699359,None,n,1671.448744699359,None,"['n', 'return', 'n', 'return']","[8.024171599186957, 8.024171599186957, 8.607987999916077, 8.784011399373412]",1671.448744699359,None,,,39YC,001,2023_Apr_14_1047,ExactRep-v3-final,2021.2.3,59.91069709052581,
,,,,,,,,,,,,64,0,64,0,,,,,,,,,,,,,,,,,,,,,,,,,,,,,,,,,,,,,,,,,,,,,,,,,1681.6846592994407,None,,,,,,,,,,,,,,,,,,,,,,,,,,,,,,,,,,,,,,,,,,,,,,,,,,,,,,,,,nail,234,65,aloud,new,blue,1680.7739876993,None,n,1680.7739876993,None,"['n', 'return']","[0.7470543999224901, 0.866783999837935]",1680.7739876993,None,,,39YC,001,2023_Apr_14_1047,ExactRep-v3-final,2021.2.3,59.91069709052581,
,,,,,,,,,,,,65,0,65,0,,,,,,,,,,,,,,,,,,,,,,,,,,,,,,,,,,,,,,,,,,,,,,,,,1685.1883394997567,None,,,,,,,,,,,,,,,,,,,,,,,,,,,,,,,,,,,,,,,,,,,,,,,,,,,,,,,,,humour,140,66,silent,new,red,1682.194173399359,None,n,1682.194173399359,None,"['n', 'return']","[0.7105617001652718, 2.9505489002913237]",1682.194173399359,None,,,39YC,001,2023_Apr_14_1047,ExactRep-v3-final,2021.2.3,59.91069709052581,
,,,,,,,,,,,,66,0,66,0,,,,,,,,,,,,,,,,,,,,,,,,,,,,,,,,,,,,,,,,,,,,,,,,,1688.4580638995394,None,,,,,,,,,,,,,,,,,,,,,,,,,,,,,,,,,,,,,,,,,,,,,,,,,,,,,,,,,winter,57,67,silent,old,red,1685.704504800029,None,y,1685.704504800029,None,"['y', 'return']","[2.376172199845314, 2.7123192995786667]",1685.704504800029,None,,,39YC,001,2023_Apr_14_1047,ExactRep-v3-final,2021.2.3,59.91069709052581,
,,,,,,,,,,,,67,0,67,0,,,,,,,,,,,,,,,,,,,,,,,,,,,,,,,,,,,,,,,,,,,,,,,,,1691.4109335998073,None,,,,,,,,,,,,,,,,,,,,,,,,,,,,,,,,,,,,,,,,,,,,,,,,,,,,,,,,,green,41,68,silent,old,red,1688.9695194996893,None,n,1688.9695194996893,None,"['n', 'return']","[2.0952292000874877, 2.3992122998461127]",1688.9695194996893,None,,,39YC,001,2023_Apr_14_1047,ExactRep-v3-final,2021.2.3,59.91069709052581,
,,,,,,,,,,,,68,0,68,0,,,,,,,,,,,,,,,,,,,,,,,,,,,,,,,,,,,,,,,,,,,,,,,,,1692.7123434999958,None,,,,,,,,,,,,,,,,,,,,,,,,,,,,,,,,,,,,,,,,,,,,,,,,,,,,,,,,,prayer,14,69,sing,old,white,1691.9209526991472,None,y,1691.9209526991472,None,"['y', 'return']","[0.5761115998029709, 0.7518758000805974]",1691.9209526991472,None,,,39YC,001,2023_Apr_14_1047,ExactRep-v3-final,2021.2.3,59.91069709052581,
,,,,,,,,,,,,69,0,69,0,,,,,,,,,,,,,,,,,,,,,,,,,,,,,,,,,,,,,,,,,,,,,,,,,1694.714346099645,None,,,,,,,,,,,,,,,,,,,,,,,,,,,,,,,,,,,,,,,,,,,,,,,,,,,,,,,,,apple,213,70,sing,new,white,1693.2201408995315,None,n,1693.2201408995315,None,"['n', 'return']","[1.2845544992014766, 1.4525570999830961]",1693.2201408995315,None,,,39YC,001,2023_Apr_14_1047,ExactRep-v3-final,2021.2.3,59.91069709052581,
,,,,,,,,,,,,70,0,70,0,,,,,,,,,,,,,,,,,,,,,,,,,,,,,,,,,,,,,,,,,,,,,,,,,1696.3828453999013,None,,,,,,,,,,,,,,,,,,,,,,,,,,,,,,,,,,,,,,,,,,,,,,,,,,,,,,,,,style,113,71,aloud,old,blue,1695.2150530992076,None,y,1695.2150530992076,None,"['y', 'return']","[0.9939254000782967, 1.121794699691236]",1695.2150530992076,None,,,39YC,001,2023_Apr_14_1047,ExactRep-v3-final,2021.2.3,59.91069709052581,
,,,,,,,,,,,,71,0,71,0,,,,,,,,,,,,,,,,,,,,,,,,,,,,,,,,,,,,,,,,,,,,,,,,,1697.6839645998552,None,,,,,,,,,,,,,,,,,,,,,,,,,,,,,,,,,,,,,,,,,,,,,,,,,,,,,,,,,soul,0,72,sing,old,white,1696.8927480997518,None,y,1696.8927480997518,None,"['y', 'return']","[0.6042704991996288, 0.7561869993805885]",1696.8927480997518,None,,,39YC,001,2023_Apr_14_1047,ExactRep-v3-final,2021.2.3,59.91069709052581,
,,,,,,,,,,,,72,0,72,0,,,,,,,,,,,,,,,,,,,,,,,,,,,,,,,,,,,,,,,,,,,,,,,,,1699.685973599553,None,,,,,,,,,,,,,,,,,,,,,,,,,,,,,,,,,,,,,,,,,,,,,,,,,,,,,,,,,army,168,73,aloud,new,blue,1698.185889299959,None,n,1698.185889299959,None,"['n', 'return']","[1.1749137993901968, 1.4549142001196742]",1698.185889299959,None,,,39YC,001,2023_Apr_14_1047,ExactRep-v3-final,2021.2.3,59.91069709052581,
,,,,,,,,,,,,73,0,73,0,,,,,,,,,,,,,,,,,,,,,,,,,,,,,,,,,,,,,,,,,,,,,,,,,1703.5731876995414,None,,,,,,,,,,,,,,,,,,,,,,,,,,,,,,,,,,,,,,,,,,,,,,,,,,,,,,,,,fortune,197,74,sing,new,white,1700.194349099882,None,n,1700.194349099882,None,"['y', 'backspace', 'n', 'return']","[0.6947058001533151, 2.070292799733579, 3.1663913000375032, 3.3344596000388265]",1700.194349099882,None,,,39YC,001,2023_Apr_14_1047,ExactRep-v3-final,2021.2.3,59.91069709052581,
,,,,,,,,,,,,74,0,74,0,,,,,,,,,,,,,,,,,,,,,,,,,,,,,,,,,,,,,,,,,,,,,,,,,1707.2102783992887,None,,,,,,,,,,,,,,,,,,,,,,,,,,,,,,,,,,,,,,,,,,,,,,,,,,,,,,,,,speech,112,75,aloud,old,blue,1704.084040099755,None,y,1704.084040099755,None,"['y', 'return']","[2.908674799837172, 3.0926860002800822]",1704.084040099755,None,,,39YC,001,2023_Apr_14_1047,ExactRep-v3-final,2021.2.3,59.91069709052581,
,,,,,,,,,,,,75,0,75,0,,,,,,,,,,,,,,,,,,,,,,,,,,,,,,,,,,,,,,,,,,,,,,,,,1709.0621352996677,None,,,,,,,,,,,,,,,,,,,,,,,,,,,,,,,,,,,,,,,,,,,,,,,,,,,,,,,,,volume,7,76,sing,old,white,1707.7168198991567,None,y,1707.7168198991567,None,"['y', 'return']","[1.139959099702537, 1.2999831000342965]",1707.7168198991567,None,,,39YC,001,2023_Apr_14_1047,ExactRep-v3-final,2021.2.3,59.91069709052581,
,,,,,,,,,,,,76,0,76,0,,,,,,,,,,,,,,,,,,,,,,,,,,,,,,,,,,,,,,,,,,,,,,,,,1713.3160578999668,None,,,,,,,,,,,,,,,,,,,,,,,,,,,,,,,,,,,,,,,,,,,,,,,,,,,,,,,,,author,61,77,silent,old,red,1709.5685860998929,None,n,1709.5685860998929,None,"['n', 'return']","[3.632226699963212, 3.7121705003082752]",1709.5685860998929,None,,,39YC,001,2023_Apr_14_1047,ExactRep-v3-final,2021.2.3,59.91069709052581,
,,,,,,,,,,,,77,0,77,0,,,,,,,,,,,,,,,,,,,,,,,,,,,,,,,,,,,,,,,,,,,,,,,,,1715.3685145992786,None,,,,,,,,,,,,,,,,,,,,,,,,,,,,,,,,,,,,,,,,,,,,,,,,,,,,,,,,,street,3,78,sing,old,white,1713.8264822997153,None,y,1713.8264822997153,None,"['y', 'return']","[1.1663179006427526, 1.5023336000740528]",1713.8264822997153,None,,,39YC,001,2023_Apr_14_1047,ExactRep-v3-final,2021.2.3,59.91069709052581,
,,,,,,,,,,,,78,0,78,0,,,,,,,,,,,,,,,,,,,,,,,,,,,,,,,,,,,,,,,,,,,,,,,,,1716.8031215993688,None,,,,,,,,,,,,,,,,,,,,,,,,,,,,,,,,,,,,,,,,,,,,,,,,,,,,,,,,,lad,180,79,aloud,new,blue,1715.8798593999818,None,n,1715.8798593999818,None,"['n', 'return']","[0.7450072998180985, 0.888842299580574]",1715.8798593999818,None,,,39YC,001,2023_Apr_14_1047,ExactRep-v3-final,2021.2.3,59.91069709052581,
,,,,,,,,,,,,79,0,79,0,,,,,,,,,,,,,,,,,,,,,,,,,,,,,,,,,,,,,,,,,,,,,,,,,1726.1958754993975,None,,,,,,,,,,,,,,,,,,,,,,,,,,,,,,,,,,,,,,,,,,,,,,,,,,,,,,,,,seat,167,80,sing,new,white,1717.3204401992261,None,y,1717.3204401992261,None,"['n', 'y', 'backspace', 'return', 'y', 'return']","[2.5604786993935704, 3.5522790998220444, 3.7764922995120287, 7.032320999540389, 8.03234799951315, 8.83223669975996]",1717.3204401992261,None,,,39YC,001,2023_Apr_14_1047,ExactRep-v3-final,2021.2.3,59.91069709052581,
,,,,,,,,,,,,80,0,80,0,,,,,,,,,,,,,,,,,,,,,,,,,,,,,,,,,,,,,,,,,,,,,,,,,1728.030942699872,None,,,,,,,,,,,,,,,,,,,,,,,,,,,,,,,,,,,,,,,,,,,,,,,,,,,,,,,,,prison,211,81,sing,new,white,1726.7060710992664,None,n,1726.7060710992664,None,"['n', 'return']","[0.9667630000039935, 1.2787567004561424]",1726.7060710992664,None,,,39YC,001,2023_Apr_14_1047,ExactRep-v3-final,2021.2.3,59.91069709052581,
,,,,,,,,,,,,81,0,81,0,,,,,,,,,,,,,,,,,,,,,,,,,,,,,,,,,,,,,,,,,,,,,,,,,1730.1499688997865,None,,,,,,,,,,,,,,,,,,,,,,,,,,,,,,,,,,,,,,,,,,,,,,,,,,,,,,,,,quality,20,82,sing,old,white,1728.5422043995932,None,y,1728.5422043995932,None,"['y', 'return']","[0.618605799973011, 1.5706638004630804]",1728.5422043995932,None,,,39YC,001,2023_Apr_14_1047,ExactRep-v3-final,2021.2.3,59.91069709052581,
,,,,,,,,,,,,82,0,82,0,,,,,,,,,,,,,,,,,,,,,,,,,,,,,,,,,,,,,,,,,,,,,,,,,1733.803338199854,None,,,,,,,,,,,,,,,,,,,,,,,,,,,,,,,,,,,,,,,,,,,,,,,,,,,,,,,,,board,130,83,silent,new,red,1730.6621763994917,None,y,1730.6621763994917,None,"['y', 'return']","[2.722587199881673, 3.1065167002379894]",1730.6621763994917,None,,,39YC,001,2023_Apr_14_1047,ExactRep-v3-final,2021.2.3,59.91069709052581,
,,,,,,,,,,,,83,0,83,0,,,,,,,,,,,,,,,,,,,,,,,,,,,,,,,,,,,,,,,,,,,,,,,,,1735.6553511992097,None,,,,,,,,,,,,,,,,,,,,,,,,,,,,,,,,,,,,,,,,,,,,,,,,,,,,,,,,,metal,179,84,sing,new,white,1734.3082545995712,None,y,1734.3082545995712,None,"['y', 'return']","[0.516619399189949, 1.3005857998505235]",1734.3082545995712,None,,,39YC,001,2023_Apr_14_1047,ExactRep-v3-final,2021.2.3,59.91069709052581,
,,,,,,,,,,,,84,0,84,0,,,,,,,,,,,,,,,,,,,,,,,,,,,,,,,,,,,,,,,,,,,,,,,,,1749.852788599208,None,,,,,,,,,,,,,,,,,,,,,,,,,,,,,,,,,,,,,,,,,,,,,,,,,,,,,,,,,love,164,85,aloud,new,blue,1736.1638041995466,None,n,1736.1638041995466,None,"['y', 'backspace', 'n', 'return']","[2.149137199856341, 13.109105099923909, 13.444959400221705, 13.64506100025028]",1736.1638041995466,None,,,39YC,001,2023_Apr_14_1047,ExactRep-v3-final,2021.2.3,59.91069709052581,
,,,,,,,,,,,,85,0,85,0,,,,,,,,,,,,,,,,,,,,,,,,,,,,,,,,,,,,,,,,,,,,,,,,,1753.5757579999045,None,,,,,,,,,,,,,,,,,,,,,,,,,,,,,,,,,,,,,,,,,,,,,,,,,,,,,,,,,event,204,86,aloud,new,blue,1750.3602864993736,None,y,1750.3602864993736,None,"['y', 'return']","[2.7364791994914412, 3.1684508994221687]",1750.3602864993736,None,,,39YC,001,2023_Apr_14_1047,ExactRep-v3-final,2021.2.3,59.91069709052581,
,,,,,,,,,,,,86,0,86,0,,,,,,,,,,,,,,,,,,,,,,,,,,,,,,,,,,,,,,,,,,,,,,,,,1756.8765497999266,None,,,,,,,,,,,,,,,,,,,,,,,,,,,,,,,,,,,,,,,,,,,,,,,,,,,,,,,,,effort,93,87,aloud,old,blue,1754.098932299763,None,n,1754.098932299763,None,"['n', 'return']","[2.574107300490141, 2.7338952999562025]",1754.098932299763,None,,,39YC,001,2023_Apr_14_1047,ExactRep-v3-final,2021.2.3,59.91069709052581,
,,,,,,,,,,,,87,0,87,0,,,,,,,,,,,,,,,,,,,,,,,,,,,,,,,,,,,,,,,,,,,,,,,,,1758.9119703993201,None,,,,,,,,,,,,,,,,,,,,,,,,,,,,,,,,,,,,,,,,,,,,,,,,,,,,,,,,,factory,74,88,silent,old,red,1757.3882020991296,None,y,1757.3882020991296,None,"['y', 'return']","[0.7326159002259374, 1.4766452005133033]",1757.3882020991296,None,,,39YC,001,2023_Apr_14_1047,ExactRep-v3-final,2021.2.3,59.91069709052581,
,,,,,,,,,,,,88,0,88,0,,,,,,,,,,,,,,,,,,,,,,,,,,,,,,,,,,,,,,,,,,,,,,,,,1761.1975379996002,None,,,,,,,,,,,,,,,,,,,,,,,,,,,,,,,,,,,,,,,,,,,,,,,,,,,,,,,,,arm,116,89,aloud,old,blue,1759.417859999463,None,y,1759.417859999463,None,"['y', 'return']","[0.8870767001062632, 1.7349974997341633]",1759.417859999463,None,,,39YC,001,2023_Apr_14_1047,ExactRep-v3-final,2021.2.3,59.91069709052581,
,,,,,,,,,,,,89,0,89,0,,,,,,,,,,,,,,,,,,,,,,,,,,,,,,,,,,,,,,,,,,,,,,,,,1762.7823357991874,None,,,,,,,,,,,,,,,,,,,,,,,,,,,,,,,,,,,,,,,,,,,,,,,,,,,,,,,,,bowl,31,90,sing,old,white,1761.7061442993581,None,y,1761.7061442993581,None,"['y', 'return']","[0.5986082004383206, 1.0386845003813505]",1761.7061442993581,None,,,39YC,001,2023_Apr_14_1047,ExactRep-v3-final,2021.2.3,59.91069709052581,
,,,,,,,,,,,,90,0,90,0,,,,,,,,,,,,,,,,,,,,,,,,,,,,,,,,,,,,,,,,,,,,,,,,,1765.3850617995486,None,,,,,,,,,,,,,,,,,,,,,,,,,,,,,,,,,,,,,,,,,,,,,,,,,,,,,,,,,victory,232,91,aloud,new,blue,1763.298766599968,None,y,1763.298766599968,None,"['y', 'return']","[1.5339195001870394, 2.0541020995005965]",1763.298766599968,None,,,39YC,001,2023_Apr_14_1047,ExactRep-v3-final,2021.2.3,59.91069709052581,
,,,,,,,,,,,,91,0,91,0,,,,,,,,,,,,,,,,,,,,,,,,,,,,,,,,,,,,,,,,,,,,,,,,,1767.2369068991393,None,,,,,,,,,,,,,,,,,,,,,,,,,,,,,,,,,,,,,,,,,,,,,,,,,,,,,,,,,ability,134,92,silent,new,red,1765.8933484992012,None,n,1765.8933484992012,None,"['n', 'y', 'return']","[0.8995429994538426, 1.1635780995711684, 1.307514799758792]",1765.8933484992012,None,,,39YC,001,2023_Apr_14_1047,ExactRep-v3-final,2021.2.3,59.91069709052581,
,,,,,,,,,,,,92,0,92,0,,,,,,,,,,,,,,,,,,,,,,,,,,,,,,,,,,,,,,,,,,,,,,,,,1769.9229096993804,None,,,,,,,,,,,,,,,,,,,,,,,,,,,,,,,,,,,,,,,,,,,,,,,,,,,,,,,,,judge,10,93,sing,old,white,1767.7414627997205,None,y,1767.7414627997205,None,"['y', 'return']","[1.7235182002186775, 2.139466100372374]",1767.7414627997205,None,,,39YC,001,2023_Apr_14_1047,ExactRep-v3-final,2021.2.3,59.91069709052581,
,,,,,,,,,,,,93,0,93,0,,,,,,,,,,,,,,,,,,,,,,,,,,,,,,,,,,,,,,,,,,,,,,,,,1772.992662199773,None,,,,,,,,,,,,,,,,,,,,,,,,,,,,,,,,,,,,,,,,,,,,,,,,,,,,,,,,,cost,149,94,silent,new,red,1770.4328813999891,None,y,1770.4328813999891,None,"['n', 'backspace', 'y', 'return']","[0.8879937008023262, 1.9598872000351548, 2.2321266001090407, 2.5124341007322073]",1770.4328813999891,None,,,39YC,001,2023_Apr_14_1047,ExactRep-v3-final,2021.2.3,59.91069709052581,
,,,,,,,,,,,,94,0,94,0,,,,,,,,,,,,,,,,,,,,,,,,,,,,,,,,,,,,,,,,,,,,,,,,,1774.9614718994126,None,,,,,,,,,,,,,,,,,,,,,,,,,,,,,,,,,,,,,,,,,,,,,,,,,,,,,,,,,skin,158,95,silent,new,red,1773.4994541993365,None,y,1773.4994541993365,None,"['y', 'return']","[0.861438300460577, 1.413739999756217]",1773.4994541993365,None,,,39YC,001,2023_Apr_14_1047,ExactRep-v3-final,2021.2.3,59.91069709052581,
,,,,,,,,,,,,95,0,95,0,,,,,,,,,,,,,,,,,,,,,,,,,,,,,,,,,,,,,,,,,,,,,,,,,1776.6629893993959,None,,,,,,,,,,,,,,,,,,,,,,,,,,,,,,,,,,,,,,,,,,,,,,,,,,,,,,,,,troops,192,96,aloud,new,blue,1775.462732299231,None,n,1775.462732299231,None,"['n', 'return']","[0.8340464001521468, 1.1621273001655936]",1775.462732299231,None,,,39YC,001,2023_Apr_14_1047,ExactRep-v3-final,2021.2.3,59.91069709052581,
,,,,,,,,,,,,96,0,96,0,,,,,,,,,,,,,,,,,,,,,,,,,,,,,,,,,,,,,,,,,,,,,,,,,1779.9664372997358,None,,,,,,,,,,,,,,,,,,,,,,,,,,,,,,,,,,,,,,,,,,,,,,,,,,,,,,,,,river,101,97,aloud,old,blue,1777.172390899621,None,y,1777.172390899621,None,"['y', 'return']","[0.036445800215005875, 2.7564554000273347]",1777.172390899621,None,,,39YC,001,2023_Apr_14_1047,ExactRep-v3-final,2021.2.3,59.91069709052581,
,,,,,,,,,,,,97,0,97,0,,,,,,,,,,,,,,,,,,,,,,,,,,,,,,,,,,,,,,,,,,,,,,,,,1781.6846958994865,None,,,,,,,,,,,,,,,,,,,,,,,,,,,,,,,,,,,,,,,,,,,,,,,,,,,,,,,,,bar,19,98,sing,old,white,1780.4759911997244,None,y,1780.4759911997244,None,"['y', 'return']","[0.7889024000614882, 1.1727324007079005]",1780.4759911997244,None,,,39YC,001,2023_Apr_14_1047,ExactRep-v3-final,2021.2.3,59.91069709052581,
,,,,,,,,,,,,98,0,98,0,,,,,,,,,,,,,,,,,,,,,,,,,,,,,,,,,,,,,,,,,,,,,,,,,1784.0205488000065,None,,,,,,,,,,,,,,,,,,,,,,,,,,,,,,,,,,,,,,,,,,,,,,,,,,,,,,,,,shore,147,99,silent,new,red,1782.1943089999259,None,n,1782.1943089999259,None,"['n', 'return']","[1.3185895001515746, 1.7904690001159906]",1782.1943089999259,None,,,39YC,001,2023_Apr_14_1047,ExactRep-v3-final,2021.2.3,59.91069709052581,
,,,,,,,,,,,,99,0,99,0,,,,,,,,,,,,,,,,,,,,,,,,,,,,,,,,,,,,,,,,,,,,,,,,,1788.975285699591,None,,,,,,,,,,,,,,,,,,,,,,,,,,,,,,,,,,,,,,,,,,,,,,,,,,,,,,,,,hotel,229,100,sing,new,white,1784.528147299774,None,n,1784.528147299774,None,"['n', 'return']","[4.088737900368869, 4.400749400258064]",1784.528147299774,None,,,39YC,001,2023_Apr_14_1047,ExactRep-v3-final,2021.2.3,59.91069709052581,
,,,,,,,,,,,,100,0,100,0,,,,,,,,,,,,,,,,,,,,,,,,,,,,,,,,,,,,,,,,,,,,,,,,,1795.031516599469,None,,,,,,,,,,,,,,,,,,,,,,,,,,,,,,,,,,,,,,,,,,,,,,,,,,,,,,,,,money,126,101,silent,new,red,1789.4865800999105,None,n,1789.4865800999105,None,"['y', 'backspace', 'backspace', 'n', 'return']","[1.0022692000493407, 4.106271700002253, 4.2662443006411195, 4.50627320073545, 5.506269200704992]",1789.4865800999105,None,,,39YC,001,2023_Apr_14_1047,ExactRep-v3-final,2021.2.3,59.91069709052581,
,,,,,,,,,,,,101,0,101,0,,,,,,,,,,,,,,,,,,,,,,,,,,,,,,,,,,,,,,,,,,,,,,,,,1797.7006357992068,None,,,,,,,,,,,,,,,,,,,,,,,,,,,,,,,,,,,,,,,,,,,,,,,,,,,,,,,,,woman,216,102,aloud,new,blue,1795.5392416995019,None,n,1795.5392416995019,None,"['n', 'return']","[2.0215994995087385, 2.125601500272751]",1795.5392416995019,None,,,39YC,001,2023_Apr_14_1047,ExactRep-v3-final,2021.2.3,59.91069709052581,
,,,,,,,,,,,,102,0,102,0,,,,,,,,,,,,,,,,,,,,,,,,,,,,,,,,,,,,,,,,,,,,,,,,,1799.619458399713,None,,,,,,,,,,,,,,,,,,,,,,,,,,,,,,,,,,,,,,,,,,,,,,,,,,,,,,,,,advice,226,103,aloud,new,blue,1798.2023171996698,None,n,1798.2023171996698,None,"['n', 'return']","[1.2145959995687008, 1.3745189001783729]",1798.2023171996698,None,,,39YC,001,2023_Apr_14_1047,ExactRep-v3-final,2021.2.3,59.91069709052581,
,,,,,,,,,,,,103,0,103,0,,,,,,,,,,,,,,,,,,,,,,,,,,,,,,,,,,,,,,,,,,,,,,,,,1801.4544021999463,None,,,,,,,,,,,,,,,,,,,,,,,,,,,,,,,,,,,,,,,,,,,,,,,,,,,,,,,,,moment,4,104,sing,old,white,1800.1285661999136,None,y,1800.1285661999136,None,"['y', 'return']","[1.0563872996717691, 1.2883425001055002]",1800.1285661999136,None,,,39YC,001,2023_Apr_14_1047,ExactRep-v3-final,2021.2.3,59.91069709052581,
,,,,,,,,,,,,104,0,104,0,,,,,,,,,,,,,,,,,,,,,,,,,,,,,,,,,,,,,,,,,,,,,,,,,1803.5400019995868,None,,,,,,,,,,,,,,,,,,,,,,,,,,,,,,,,,,,,,,,,,,,,,,,,,,,,,,,,,series,169,105,sing,new,white,1801.9643631996587,None,n,1801.9643631996587,None,"['n', 'return']","[1.3885372998192906, 1.532430499792099]",1801.9643631996587,None,,,39YC,001,2023_Apr_14_1047,ExactRep-v3-final,2021.2.3,59.91069709052581,
,,,,,,,,,,,,105,0,105,0,,,,,,,,,,,,,,,,,,,,,,,,,,,,,,,,,,,,,,,,,,,,,,,,,1805.6921647991985,None,,,,,,,,,,,,,,,,,,,,,,,,,,,,,,,,,,,,,,,,,,,,,,,,,,,,,,,,,butter,133,106,silent,new,red,1804.0425660992041,None,n,1804.0425660992041,None,"['n', 'return']","[1.478303000330925, 1.6143314000219107]",1804.0425660992041,None,,,39YC,001,2023_Apr_14_1047,ExactRep-v3-final,2021.2.3,59.91069709052581,
,,,,,,,,,,,,106,0,106,0,,,,,,,,,,,,,,,,,,,,,,,,,,,,,,,,,,,,,,,,,,,,,,,,,1807.276769399643,None,,,,,,,,,,,,,,,,,,,,,,,,,,,,,,,,,,,,,,,,,,,,,,,,,,,,,,,,,mind,97,107,aloud,old,blue,1806.1993637997657,None,y,1806.1993637997657,None,"['y', 'return']","[0.7535731997340918, 1.0334171997383237]",1806.1993637997657,None,,,39YC,001,2023_Apr_14_1047,ExactRep-v3-final,2021.2.3,59.91069709052581,
,,,,,,,,,,,,107,0,107,0,,,,,,,,,,,,,,,,,,,,,,,,,,,,,,,,,,,,,,,,,,,,,,,,,1809.6294096000493,None,,,,,,,,,,,,,,,,,,,,,,,,,,,,,,,,,,,,,,,,,,,,,,,,,,,,,,,,,clock,235,108,sing,new,white,1807.7872065994889,None,n,1807.7872065994889,None,"['n', 'return']","[1.6138436999171972, 1.7977448999881744]",1807.7872065994889,None,,,39YC,001,2023_Apr_14_1047,ExactRep-v3-final,2021.2.3,59.91069709052581,
,,,,,,,,,,,,108,0,108,0,,,,,,,,,,,,,,,,,,,,,,,,,,,,,,,,,,,,,,,,,,,,,,,,,1812.9659583996981,None,,,,,,,,,,,,,,,,,,,,,,,,,,,,,,,,,,,,,,,,,,,,,,,,,,,,,,,,,woods,81,109,aloud,old,blue,1810.133351800032,None,y,1810.133351800032,None,"['y', 'return']","[2.4994659004732966, 2.795566899701953]",1810.133351800032,None,,,39YC,001,2023_Apr_14_1047,ExactRep-v3-final,2021.2.3,59.91069709052581,
,,,,,,,,,,,,109,0,109,0,,,,,,,,,,,,,,,,,,,,,,,,,,,,,,,,,,,,,,,,,,,,,,,,,1814.4008893994614,None,,,,,,,,,,,,,,,,,,,,,,,,,,,,,,,,,,,,,,,,,,,,,,,,,,,,,,,,,wine,145,110,silent,new,red,1813.4778094999492,None,n,1813.4778094999492,None,"['n', 'return']","[0.7711460003629327, 0.883122400380671]",1813.4778094999492,None,,,39YC,001,2023_Apr_14_1047,ExactRep-v3-final,2021.2.3,59.91069709052581,
,,,,,,,,,,,,110,0,110,0,,,,,,,,,,,,,,,,,,,,,,,,,,,,,,,,,,,,,,,,,,,,,,,,,1816.936595599167,None,,,,,,,,,,,,,,,,,,,,,,,,,,,,,,,,,,,,,,,,,,,,,,,,,,,,,,,,,soil,33,111,sing,old,white,1814.9096334995702,None,n,1814.9096334995702,None,"['y', 'backspace', 'n', 'return']","[0.5552555005997419, 1.523246900178492, 1.843211400322616, 1.9872408006340265]",1814.9096334995702,None,,,39YC,001,2023_Apr_14_1047,ExactRep-v3-final,2021.2.3,59.91069709052581,
,,,,,,,,,,,,111,0,111,0,,,,,,,,,,,,,,,,,,,,,,,,,,,,,,,,,,,,,,,,,,,,,,,,,1819.672657799907,None,,,,,,,,,,,,,,,,,,,,,,,,,,,,,,,,,,,,,,,,,,,,,,,,,,,,,,,,,law,214,112,aloud,new,blue,1817.4455319996923,None,n,1817.4455319996923,None,"['n', 'return']","[2.043297099880874, 2.1953543005511165]",1817.4455319996923,None,,,39YC,001,2023_Apr_14_1047,ExactRep-v3-final,2021.2.3,59.91069709052581,
,,,,,,,,,,,,112,0,112,0,,,,,,,,,,,,,,,,,,,,,,,,,,,,,,,,,,,,,,,,,,,,,,,,,1821.8915326995775,None,,,,,,,,,,,,,,,,,,,,,,,,,,,,,,,,,,,,,,,,,,,,,,,,,,,,,,,,,boy,95,113,aloud,old,blue,1820.1764878993854,None,y,1820.1764878993854,None,"['y', 'return']","[0.9363208003342152, 1.6724000005051494]",1820.1764878993854,None,,,39YC,001,2023_Apr_14_1047,ExactRep-v3-final,2021.2.3,59.91069709052581,
,,,,,,,,,,,,113,0,113,0,,,,,,,,,,,,,,,,,,,,,,,,,,,,,,,,,,,,,,,,,,,,,,,,,1825.2950647994876,None,,,,,,,,,,,,,,,,,,,,,,,,,,,,,,,,,,,,,,,,,,,,,,,,,,,,,,,,,product,94,114,aloud,old,blue,1822.402837199159,None,y,1822.402837199159,None,"['return', 'return', 'y', 'return']","[1.1899808999150991, 1.8380421996116638, 2.4380940003320575, 2.854059400036931]",1822.402837199159,None,,,39YC,001,2023_Apr_14_1047,ExactRep-v3-final,2021.2.3,59.91069709052581,
,,,,,,,,,,,,114,0,114,0,,,,,,,,,,,,,,,,,,,,,,,,,,,,,,,,,,,,,,,,,,,,,,,,,1828.3812539000064,None,,,,,,,,,,,,,,,,,,,,,,,,,,,,,,,,,,,,,,,,,,,,,,,,,,,,,,,,,shoes,69,115,silent,old,red,1825.803935999982,None,n,1825.803935999982,None,"['n', 'return']","[1.2771703004837036, 2.540974900126457]",1825.803935999982,None,,,39YC,001,2023_Apr_14_1047,ExactRep-v3-final,2021.2.3,59.91069709052581,
,,,,,,,,,,,,115,0,115,0,,,,,,,,,,,,,,,,,,,,,,,,,,,,,,,,,,,,,,,,,,,,,,,,,1832.585697999224,None,,,,,,,,,,,,,,,,,,,,,,,,,,,,,,,,,,,,,,,,,,,,,,,,,,,,,,,,,flood,186,116,aloud,new,blue,1828.891222300008,None,n,1828.891222300008,None,"['n', 'y', 'return']","[2.397727499715984, 2.613871299661696, 3.661615800112486]",1828.891222300008,None,,,39YC,001,2023_Apr_14_1047,ExactRep-v3-final,2021.2.3,59.91069709052581,
,,,,,,,,,,,,116,0,116,0,,,,,,,,,,,,,,,,,,,,,,,,,,,,,,,,,,,,,,,,,,,,,,,,,1834.3039948996156,None,,,,,,,,,,,,,,,,,,,,,,,,,,,,,,,,,,,,,,,,,,,,,,,,,,,,,,,,,anger,162,117,aloud,new,blue,1833.0953152999282,None,n,1833.0953152999282,None,"['n', 'return']","[0.9216184997931123, 1.1616626996546984]",1833.0953152999282,None,,,39YC,001,2023_Apr_14_1047,ExactRep-v3-final,2021.2.3,59.91069709052581,
,,,,,,,,,,,,117,0,117,0,,,,,,,,,,,,,,,,,,,,,,,,,,,,,,,,,,,,,,,,,,,,,,,,,1836.072447099723,None,,,,,,,,,,,,,,,,,,,,,,,,,,,,,,,,,,,,,,,,,,,,,,,,,,,,,,,,,deed,175,118,sing,new,white,1834.8128287997097,None,n,1834.8128287997097,None,"['n', 'return']","[0.9880436006933451, 1.2121180007234216]",1834.8128287997097,None,,,39YC,001,2023_Apr_14_1047,ExactRep-v3-final,2021.2.3,59.91069709052581,
,,,,,,,,,,,,118,0,118,0,,,,,,,,,,,,,,,,,,,,,,,,,,,,,,,,,,,,,,,,,,,,,,,,,1839.5426770998165,None,,,,,,,,,,,,,,,,,,,,,,,,,,,,,,,,,,,,,,,,,,,,,,,,,,,,,,,,,iron,198,119,aloud,new,blue,1836.5792490998283,None,y,1836.5792490998283,None,"['n', 'backspace', 'y', 'return']","[0.7176759000867605, 2.0217348001897335, 2.5417361008003354, 2.9258467005565763]",1836.5792490998283,None,,,39YC,001,2023_Apr_14_1047,ExactRep-v3-final,2021.2.3,59.91069709052581,
,,,,,,,,,,,,119,0,119,0,,,,,,,,,,,,,,,,,,,,,,,,,,,,,,,,,,,,,,,,,,,,,,,,,1843.4964466998354,None,,,,,,,,,,,,,,,,,,,,,,,,,,,,,,,,,,,,,,,,,,,,,,,,,,,,,,,,,market,153,120,silent,new,red,1840.0544780995697,None,y,1840.0544780995697,None,"['return', 'y', 'return']","[2.3865045001730323, 3.026519799605012, 3.4104266995564103]",1840.0544780995697,None,,,39YC,001,2023_Apr_14_1047,ExactRep-v3-final,2021.2.3,59.91069709052581,
,,,,,,,,,,,,120,0,120,0,,,,,,,,,,,,,,,,,,,,,,,,,,,,,,,,,,,,,,,,,,,,,,,,,1846.6996670998633,None,,,,,,,,,,,,,,,,,,,,,,,,,,,,,,,,,,,,,,,,,,,,,,,,,,,,,,,,,dust,157,121,silent,new,red,1843.9969840999693,None,n,1843.9969840999693,None,"['n', 'return']","[1.4759273007512093, 2.6677947007119656]",1843.9969840999693,None,,,39YC,001,2023_Apr_14_1047,ExactRep-v3-final,2021.2.3,59.91069709052581,
,,,,,,,,,,,,121,0,121,0,,,,,,,,,,,,,,,,,,,,,,,,,,,,,,,,,,,,,,,,,,,,,,,,,1848.3846824998036,None,,,,,,,,,,,,,,,,,,,,,,,,,,,,,,,,,,,,,,,,,,,,,,,,,,,,,,,,,engine,8,122,sing,old,white,1847.2097793994471,None,y,1847.2097793994471,None,"['y', 'return']","[0.7271994994953275, 1.1431314991787076]",1847.2097793994471,None,,,39YC,001,2023_Apr_14_1047,ExactRep-v3-final,2021.2.3,59.91069709052581,
,,,,,,,,,,,,122,0,122,0,,,,,,,,,,,,,,,,,,,,,,,,,,,,,,,,,,,,,,,,,,,,,,,,,1851.688039499335,None,,,,,,,,,,,,,,,,,,,,,,,,,,,,,,,,,,,,,,,,,,,,,,,,,,,,,,,,,weapon,88,123,aloud,old,blue,1848.8990202993155,None,y,1848.8990202993155,None,"['y', 'return']","[2.3901669001206756, 2.749948499724269]",1848.8990202993155,None,,,39YC,001,2023_Apr_14_1047,ExactRep-v3-final,2021.2.3,59.91069709052581,
,,,,,,,,,,,,123,0,123,0,,,,,,,,,,,,,,,,,,,,,,,,,,,,,,,,,,,,,,,,,,,,,,,,,1859.2622565999627,None,,,,,,,,,,,,,,,,,,,,,,,,,,,,,,,,,,,,,,,,,,,,,,,,,,,,,,,,,plant,27,124,sing,old,white,1852.1992496997118,None,n,1852.1992496997118,None,"['y', 'backspace', 'n', 'return']","[4.185643999837339, 6.449784900061786, 6.849607200361788, 7.025847500190139]",1852.1992496997118,None,,,39YC,001,2023_Apr_14_1047,ExactRep-v3-final,2021.2.3,59.91069709052581,
,,,,,,,,,,,,124,0,124,0,,,,,,,,,,,,,,,,,,,,,,,,,,,,,,,,,,,,,,,,,,,,,,,,,1861.9484209995717,None,,,,,,,,,,,,,,,,,,,,,,,,,,,,,,,,,,,,,,,,,,,,,,,,,,,,,,,,,lake,108,125,aloud,old,blue,1859.7740059997886,None,y,1859.7740059997886,None,"['y', 'return']","[1.282948900014162, 2.130876399576664]",1859.7740059997886,None,,,39YC,001,2023_Apr_14_1047,ExactRep-v3-final,2021.2.3,59.91069709052581,
,,,,,,,,,,,,125,0,125,0,,,,,,,,,,,,,,,,,,,,,,,,,,,,,,,,,,,,,,,,,,,,,,,,,1866.8531048996374,None,,,,,,,,,,,,,,,,,,,,,,,,,,,,,,,,,,,,,,,,,,,,,,,,,,,,,,,,,fact,38,126,sing,old,white,1862.4568747999147,None,n,1862.4568747999147,None,"['n', 'return']","[3.984094899147749, 4.352059599943459]",1862.4568747999147,None,,,39YC,001,2023_Apr_14_1047,ExactRep-v3-final,2021.2.3,59.91069709052581,
,,,,,,,,,,,,126,0,126,0,,,,,,,,,,,,,,,,,,,,,,,,,,,,,,,,,,,,,,,,,,,,,,,,,1875.9456003997475,None,,,,,,,,,,,,,,,,,,,,,,,,,,,,,,,,,,,,,,,,,,,,,,,,,,,,,,,,,storm,104,127,aloud,old,blue,1867.361429899931,None,y,1867.361429899931,None,"['n', 'backspace', 'y', 'return']","[3.895641600713134, 7.415613500401378, 7.639572400599718, 8.543503100052476]",1867.361429899931,None,,,39YC,001,2023_Apr_14_1047,ExactRep-v3-final,2021.2.3,59.91069709052581,
,,,,,,,,,,,,127,0,127,0,,,,,,,,,,,,,,,,,,,,,,,,,,,,,,,,,,,,,,,,,,,,,,,,,1889.8761638998985,None,,,,,,,,,,,,,,,,,,,,,,,,,,,,,,,,,,,,,,,,,,,,,,,,,,,,,,,,,insect,90,128,aloud,old,blue,1876.4602552996948,None,n,1876.4602552996948,None,"['n', 'return']","[12.548686999827623, 13.380770499818027]",1876.4602552996948,None,,,39YC,001,2023_Apr_14_1047,ExactRep-v3-final,2021.2.3,59.91069709052581,
