trials_fam.thisRepN,trials_fam.thisTrialN,trials_fam.thisN,trials_fam.thisIndex,trials_prc.thisRepN,trials_prc.thisTrialN,trials_prc.thisN,trials_prc.thisIndex,StudyLoop.thisRepN,StudyLoop.thisTrialN,StudyLoop.thisN,StudyLoop.thisIndex,TestLoop.thisRepN,TestLoop.thisTrialN,TestLoop.thisN,TestLoop.thisIndex,text_colortest.started,text_colortest.stopped,key_colortest.keys,key_colortest.rt,key_colortest.started,key_colortest.stopped,textCondition.started,textCondition.stopped,keyCondition.keys,keyCondition.rt,keyCondition.started,keyCondition.stopped,Condition_between,Condition_counterbal,keyWelcome.keys,keyWelcome.rt,keyWelcome.started,keyWelcome.stopped,welcome_a.started,welcome_a.stopped,welcome_b.started,welcome_b.stopped,welcome_c.started,welcome_c.stopped,welcome_d.started,welcome_d.stopped,welcome_e.started,welcome_e.stopped,welcome_f.started,welcome_f.stopped,key_resp_fam_inst.keys,key_resp_fam_inst.rt,key_resp_fam_inst.started,key_resp_fam_inst.stopped,fam_a.started,fam_a.stopped,fam_b.started,fam_b.stopped,fam_c.started,fam_c.stopped,fam_d.started,fam_d.stopped,fam_e.started,fam_e.stopped,fam_f.started,fam_f.stopped,text_famil.started,text_famil.stopped,textBlank500.started,textBlank500.stopped,key_resp_prc_inst.keys,key_resp_prc_inst.rt,key_resp_prc_inst.started,key_resp_prc_inst.stopped,prac_a.started,prac_a.stopped,prac_b.started,prac_b.stopped,prac_c.started,prac_c.stopped,prac_d.started,prac_d.stopped,prac_e.started,prac_e.stopped,prac_f.started,prac_f.stopped,text_prc_trial.started,text_prc_trial.stopped,key_resp_study_inst.keys,key_resp_study_inst.rt,key_resp_study_inst.started,key_resp_study_inst.stopped,crit_a.started,crit_a.stopped,crit_b.started,crit_b.stopped,crit_c.started,crit_c.stopped,crit_d.started,crit_d.stopped,crit_e.started,crit_e.stopped,crit_f.started,crit_f.stopped,study_word,study_num,study_order,study_type,word_color,textStudy.started,textStudy.stopped,keyStudy.keys,keyStudy.started,keyStudy.stopped,post_study.started,post_study.stopped,key_resp_post_study.keys,key_resp_post_study.rt,key_resp_post_study.started,key_resp_post_study.stopped,test_inst.started,test_inst.stopped,key_resp_test_inst.keys,key_resp_test_inst.rt,key_resp_test_inst.started,key_resp_test_inst.stopped,test_word,test_num,test_order,test_condition,old_new_test,word_color_test,textConf.started,textConf.stopped,Participant Response,textInput.started,textInput.stopped,keyResp.keys,keyResp.rt,keyResp.started,keyResp.stopped,textEnd.started,textEnd.stopped,participant,session,date,expName,psychopyVersion,frameRate,
,,,,,,,,,,,,,,,,27.152186100021936,None,y,4.752673799986951,27.152186100021936,None,,,,,,,,,,,,,,,,,,,,,,,,,,,,,,,,,,,,,,,,,,,,,,,,,,,,,,,,,,,,,,,,,,,,,,,,,,,,,,,,,,,,,,,,,,,,,,,,,,,,,,,,,,,,,,,,,,,,,,3,001,2023_Jan_30_1118,ExactRep-v3-final,2021.2.3,59.906210819583976,
,,,,,,,,,,,,,,,,,,,,,,31.92141539999284,None,c,3.567489300039597,31.92141539999284,None,,,,,,,,,,,,,,,,,,,,,,,,,,,,,,,,,,,,,,,,,,,,,,,,,,,,,,,,,,,,,,,,,,,,,,,,,,,,,,,,,,,,,,,,,,,,,,,,,,,,,,,,,,,,,,,,3,001,2023_Jan_30_1118,ExactRep-v3-final,2021.2.3,59.906210819583976,
,,,,,,,,,,,,,,,,,,,,,,,,,,,,colorfoils,c,space,497.9829809999792,45.63382200000342,None,,,,,,,,,,,,,,,,,,,,,,,,,,,,,,,,,,,,,,,,,,,,,,,,,,,,,,,,,,,,,,,,,,,,,,,,,,,,,,,,,,,,,,,,,,,,,,,,,,,,,,,,,,3,001,2023_Jan_30_1118,ExactRep-v3-final,2021.2.3,59.906210819583976,
,,,,,,,,,,,,,,,,,,,,,,,,,,,,,,,,,,35.66345240001101,None,35.66345240001101,None,35.66345240001101,None,35.66345240001101,None,35.66345240001101,None,35.66345240001101,None,space,15.911453999928199,553.7853822000325,None,,,,,,,,,,,,,,,,,,,,,,,,,,,,,,,,,,,,,,,,,,,,,,,,,,,,,,,,,,,,,,,,,,,,,,,,,,,,,,,,,,,,,,,,,,3,001,2023_Jan_30_1118,ExactRep-v3-final,2021.2.3,59.906210819583976,
0,0,0,0,,,,,,,,,,,,,,,,,,,,,,,,,,,,,,,,,,,,,,,,,,,,,,,543.8228352000006,None,543.8228352000006,None,543.8228352000006,None,543.8228352000006,None,543.8228352000006,None,543.8228352000006,None,569.8093984000152,None,571.8107029999373,None,,,,,,,,,,,,,,,,,,,,,,,,,,,,,,,,,,,,,,,,,,,,,,,,,,,,,,,,,,,,,,,,,,,,,,,,,,3,001,2023_Jan_30_1118,ExactRep-v3-final,2021.2.3,59.906210819583976,
1,0,1,0,,,,,,,,,,,,,,,,,,,,,,,,,,,,,,,,,,,,,,,,,,,,,,,,,,,,,,,,,,,572.3215768999653,None,574.3298864000244,None,,,,,,,,,,,,,,,,,,,,,,,,,,,,,,,,,,,,,,,,,,,,,,,,,,,,,,,,,,,,,,,,,,,,,,,,,,3,001,2023_Jan_30_1118,ExactRep-v3-final,2021.2.3,59.906210819583976,
2,0,2,0,,,,,,,,,,,,,,,,,,,,,,,,,,,,,,,,,,,,,,,,,,,,,,,,,,,,,,,,,,,574.8197713999543,None,576.8324324999703,None,,,,,,,,,,,,,,,,,,,,,,,,,,,,,,,,,,,,,,,,,,,,,,,,,,,,,,,,,,,,,,,,,,,,,,,,,,3,001,2023_Jan_30_1118,ExactRep-v3-final,2021.2.3,59.906210819583976,
3,0,3,0,,,,,,,,,,,,,,,,,,,,,,,,,,,,,,,,,,,,,,,,,,,,,,,,,,,,,,,,,,,577.3416289000306,None,579.3515287999762,None,,,,,,,,,,,,,,,,,,,,,,,,,,,,,,,,,,,,,,,,,,,,,,,,,,,,,,,,,,,,,,,,,,,,,,,,,,3,001,2023_Jan_30_1118,ExactRep-v3-final,2021.2.3,59.906210819583976,
4,0,4,0,,,,,,,,,,,,,,,,,,,,,,,,,,,,,,,,,,,,,,,,,,,,,,,,,,,,,,,,,,,579.8521182999248,None,581.8540755999275,None,,,,,,,,,,,,,,,,,,,,,,,,,,,,,,,,,,,,,,,,,,,,,,,,,,,,,,,,,,,,,,,,,,,,,,,,,,3,001,2023_Jan_30_1118,ExactRep-v3-final,2021.2.3,59.906210819583976,
5,0,5,0,,,,,,,,,,,,,,,,,,,,,,,,,,,,,,,,,,,,,,,,,,,,,,,,,,,,,,,,,,,582.3546461999649,None,584.3566069999943,None,,,,,,,,,,,,,,,,,,,,,,,,,,,,,,,,,,,,,,,,,,,,,,,,,,,,,,,,,,,,,,,,,,,,,,,,,,3,001,2023_Jan_30_1118,ExactRep-v3-final,2021.2.3,59.906210819583976,
6,0,6,0,,,,,,,,,,,,,,,,,,,,,,,,,,,,,,,,,,,,,,,,,,,,,,,,,,,,,,,,,,,584.8600552999415,None,586.8589723999612,None,,,,,,,,,,,,,,,,,,,,,,,,,,,,,,,,,,,,,,,,,,,,,,,,,,,,,,,,,,,,,,,,,,,,,,,,,,3,001,2023_Jan_30_1118,ExactRep-v3-final,2021.2.3,59.906210819583976,
7,0,7,0,,,,,,,,,,,,,,,,,,,,,,,,,,,,,,,,,,,,,,,,,,,,,,,,,,,,,,,,,,,587.3653374999994,None,589.3782675999682,None,,,,,,,,,,,,,,,,,,,,,,,,,,,,,,,,,,,,,,,,,,,,,,,,,,,,,,,,,,,,,,,,,,,,,,,,,,3,001,2023_Jan_30_1118,ExactRep-v3-final,2021.2.3,59.906210819583976,
8,0,8,0,,,,,,,,,,,,,,,,,,,,,,,,,,,,,,,,,,,,,,,,,,,,,,,,,,,,,,,,,,,589.8784415000118,None,591.8807289999677,None,,,,,,,,,,,,,,,,,,,,,,,,,,,,,,,,,,,,,,,,,,,,,,,,,,,,,,,,,,,,,,,,,,,,,,,,,,3,001,2023_Jan_30_1118,ExactRep-v3-final,2021.2.3,59.906210819583976,
9,0,9,0,,,,,,,,,,,,,,,,,,,,,,,,,,,,,,,,,,,,,,,,,,,,,,,,,,,,,,,,,,,592.3833586999681,None,594.3834351999685,None,,,,,,,,,,,,,,,,,,,,,,,,,,,,,,,,,,,,,,,,,,,,,,,,,,,,,,,,,,,,,,,,,,,,,,,,,,3,001,2023_Jan_30_1118,ExactRep-v3-final,2021.2.3,59.906210819583976,
10,0,10,0,,,,,,,,,,,,,,,,,,,,,,,,,,,,,,,,,,,,,,,,,,,,,,,,,,,,,,,,,,,594.8866485999897,None,596.8858913999284,None,,,,,,,,,,,,,,,,,,,,,,,,,,,,,,,,,,,,,,,,,,,,,,,,,,,,,,,,,,,,,,,,,,,,,,,,,,3,001,2023_Jan_30_1118,ExactRep-v3-final,2021.2.3,59.906210819583976,
11,0,11,0,,,,,,,,,,,,,,,,,,,,,,,,,,,,,,,,,,,,,,,,,,,,,,,,,,,,,,,,,,,597.3914333999855,None,599.404967200011,None,,,,,,,,,,,,,,,,,,,,,,,,,,,,,,,,,,,,,,,,,,,,,,,,,,,,,,,,,,,,,,,,,,,,,,,,,,3,001,2023_Jan_30_1118,ExactRep-v3-final,2021.2.3,59.906210819583976,
12,0,12,0,,,,,,,,,,,,,,,,,,,,,,,,,,,,,,,,,,,,,,,,,,,,,,,,,,,,,,,,,,,599.9054550000001,None,601.9074459000258,None,,,,,,,,,,,,,,,,,,,,,,,,,,,,,,,,,,,,,,,,,,,,,,,,,,,,,,,,,,,,,,,,,,,,,,,,,,3,001,2023_Jan_30_1118,ExactRep-v3-final,2021.2.3,59.906210819583976,
13,0,13,0,,,,,,,,,,,,,,,,,,,,,,,,,,,,,,,,,,,,,,,,,,,,,,,,,,,,,,,,,,,602.4096979999449,None,604.4099858999252,None,,,,,,,,,,,,,,,,,,,,,,,,,,,,,,,,,,,,,,,,,,,,,,,,,,,,,,,,,,,,,,,,,,,,,,,,,,3,001,2023_Jan_30_1118,ExactRep-v3-final,2021.2.3,59.906210819583976,
14,0,14,0,,,,,,,,,,,,,,,,,,,,,,,,,,,,,,,,,,,,,,,,,,,,,,,,,,,,,,,,,,,604.9104082999984,None,606.9123845000286,None,,,,,,,,,,,,,,,,,,,,,,,,,,,,,,,,,,,,,,,,,,,,,,,,,,,,,,,,,,,,,,,,,,,,,,,,,,3,001,2023_Jan_30_1118,ExactRep-v3-final,2021.2.3,59.906210819583976,
,,,,,,,,,,,,,,,,,,,,,,,,,,,,,,,,,,,,,,,,,,,,,,,,,,,,,,,,,,,,,,,,,,space,18.827239600010216,617.5176002000226,None,,,,,,,,,,,,,,,,,,,,,,,,,,,,,,,,,,,,,,,,,,,,,,,,,,,,,,,,,,,,,,,,,,,,,,3,001,2023_Jan_30_1118,ExactRep-v3-final,2021.2.3,59.906210819583976,
,,,,0,0,0,0,,,,,,,,,,,,,,,,,,,,,,,,,,,,,,,,,,,,,,,,,,,,,,,,,,,,,,,,,638.4438024000265,None,,,,,607.5794511999702,None,607.5794511999702,None,607.5794511999702,None,607.5794511999702,None,607.5794511999702,None,607.5794511999702,None,636.4397205000278,None,,,,,,,,,,,,,,,,,,,,,,,,,,,,,,,,,,,,,,,,,,,,,,,,,,,,,,,,3,001,2023_Jan_30_1118,ExactRep-v3-final,2021.2.3,59.906210819583976,
,,,,1,0,1,0,,,,,,,,,,,,,,,,,,,,,,,,,,,,,,,,,,,,,,,,,,,,,,,,,,,,,,,,,640.946424899972,None,,,,,,,,,,,,,,,,,638.9445020999992,None,,,,,,,,,,,,,,,,,,,,,,,,,,,,,,,,,,,,,,,,,,,,,,,,,,,,,,,,3,001,2023_Jan_30_1118,ExactRep-v3-final,2021.2.3,59.906210819583976,
,,,,2,0,2,0,,,,,,,,,,,,,,,,,,,,,,,,,,,,,,,,,,,,,,,,,,,,,,,,,,,,,,,,,643.4489285999443,None,,,,,,,,,,,,,,,,,641.4469477999955,None,,,,,,,,,,,,,,,,,,,,,,,,,,,,,,,,,,,,,,,,,,,,,,,,,,,,,,,,3,001,2023_Jan_30_1118,ExactRep-v3-final,2021.2.3,59.906210819583976,
,,,,3,0,3,0,,,,,,,,,,,,,,,,,,,,,,,,,,,,,,,,,,,,,,,,,,,,,,,,,,,,,,,,,645.9514767000219,None,,,,,,,,,,,,,,,,,643.9494712000014,None,,,,,,,,,,,,,,,,,,,,,,,,,,,,,,,,,,,,,,,,,,,,,,,,,,,,,,,,3,001,2023_Jan_30_1118,ExactRep-v3-final,2021.2.3,59.906210819583976,
,,,,4,0,4,0,,,,,,,,,,,,,,,,,,,,,,,,,,,,,,,,,,,,,,,,,,,,,,,,,,,,,,,,,648.4540317999199,None,,,,,,,,,,,,,,,,,646.4519554999424,None,,,,,,,,,,,,,,,,,,,,,,,,,,,,,,,,,,,,,,,,,,,,,,,,,,,,,,,,3,001,2023_Jan_30_1118,ExactRep-v3-final,2021.2.3,59.906210819583976,
,,,,5,0,5,0,,,,,,,,,,,,,,,,,,,,,,,,,,,,,,,,,,,,,,,,,,,,,,,,,,,,,,,,,650.9563759999583,None,,,,,,,,,,,,,,,,,648.9544469999382,None,,,,,,,,,,,,,,,,,,,,,,,,,,,,,,,,,,,,,,,,,,,,,,,,,,,,,,,,3,001,2023_Jan_30_1118,ExactRep-v3-final,2021.2.3,59.906210819583976,
,,,,6,0,6,0,,,,,,,,,,,,,,,,,,,,,,,,,,,,,,,,,,,,,,,,,,,,,,,,,,,,,,,,,653.458923200029,None,,,,,,,,,,,,,,,,,651.4569986999268,None,,,,,,,,,,,,,,,,,,,,,,,,,,,,,,,,,,,,,,,,,,,,,,,,,,,,,,,,3,001,2023_Jan_30_1118,ExactRep-v3-final,2021.2.3,59.906210819583976,
,,,,7,0,7,0,,,,,,,,,,,,,,,,,,,,,,,,,,,,,,,,,,,,,,,,,,,,,,,,,,,,,,,,,655.9613363000099,None,,,,,,,,,,,,,,,,,653.9594262000173,None,,,,,,,,,,,,,,,,,,,,,,,,,,,,,,,,,,,,,,,,,,,,,,,,,,,,,,,,3,001,2023_Jan_30_1118,ExactRep-v3-final,2021.2.3,59.906210819583976,
,,,,8,0,8,0,,,,,,,,,,,,,,,,,,,,,,,,,,,,,,,,,,,,,,,,,,,,,,,,,,,,,,,,,658.4640157999238,None,,,,,,,,,,,,,,,,,656.4620524999918,None,,,,,,,,,,,,,,,,,,,,,,,,,,,,,,,,,,,,,,,,,,,,,,,,,,,,,,,,3,001,2023_Jan_30_1118,ExactRep-v3-final,2021.2.3,59.906210819583976,
,,,,9,0,9,0,,,,,,,,,,,,,,,,,,,,,,,,,,,,,,,,,,,,,,,,,,,,,,,,,,,,,,,,,660.9664252999937,None,,,,,,,,,,,,,,,,,658.9644159999443,None,,,,,,,,,,,,,,,,,,,,,,,,,,,,,,,,,,,,,,,,,,,,,,,,,,,,,,,,3,001,2023_Jan_30_1118,ExactRep-v3-final,2021.2.3,59.906210819583976,
,,,,10,0,10,0,,,,,,,,,,,,,,,,,,,,,,,,,,,,,,,,,,,,,,,,,,,,,,,,,,,,,,,,,663.4689083999256,None,,,,,,,,,,,,,,,,,661.4669458999997,None,,,,,,,,,,,,,,,,,,,,,,,,,,,,,,,,,,,,,,,,,,,,,,,,,,,,,,,,3,001,2023_Jan_30_1118,ExactRep-v3-final,2021.2.3,59.906210819583976,
,,,,11,0,11,0,,,,,,,,,,,,,,,,,,,,,,,,,,,,,,,,,,,,,,,,,,,,,,,,,,,,,,,,,665.971434899955,None,,,,,,,,,,,,,,,,,663.9695831999416,None,,,,,,,,,,,,,,,,,,,,,,,,,,,,,,,,,,,,,,,,,,,,,,,,,,,,,,,,3,001,2023_Jan_30_1118,ExactRep-v3-final,2021.2.3,59.906210819583976,
,,,,12,0,12,0,,,,,,,,,,,,,,,,,,,,,,,,,,,,,,,,,,,,,,,,,,,,,,,,,,,,,,,,,668.473923399928,None,,,,,,,,,,,,,,,,,666.4719616000075,None,,,,,,,,,,,,,,,,,,,,,,,,,,,,,,,,,,,,,,,,,,,,,,,,,,,,,,,,3,001,2023_Jan_30_1118,ExactRep-v3-final,2021.2.3,59.906210819583976,
,,,,13,0,13,0,,,,,,,,,,,,,,,,,,,,,,,,,,,,,,,,,,,,,,,,,,,,,,,,,,,,,,,,,670.9764214999741,None,,,,,,,,,,,,,,,,,668.974417099962,None,,,,,,,,,,,,,,,,,,,,,,,,,,,,,,,,,,,,,,,,,,,,,,,,,,,,,,,,3,001,2023_Jan_30_1118,ExactRep-v3-final,2021.2.3,59.906210819583976,
,,,,14,0,14,0,,,,,,,,,,,,,,,,,,,,,,,,,,,,,,,,,,,,,,,,,,,,,,,,,,,,,,,,,673.4789252999472,None,,,,,,,,,,,,,,,,,671.4769279999891,None,,,,,,,,,,,,,,,,,,,,,,,,,,,,,,,,,,,,,,,,,,,,,,,,,,,,,,,,3,001,2023_Jan_30_1118,ExactRep-v3-final,2021.2.3,59.906210819583976,
,,,,,,,,,,,,,,,,,,,,,,,,,,,,,,,,,,,,,,,,,,,,,,,,,,,,,,,,,,,,,,,,,,,,,,,,,,,,,,,,,,,,space,24.873733800021,684.1031622999581,None,,,,,,,,,,,,,,,,,,,,,,,,,,,,,,,,,,,,,,,,,,,,,,,,,,,,3,001,2023_Jan_30_1118,ExactRep-v3-final,2021.2.3,59.906210819583976,
,,,,,,,,0,0,0,0,,,,,,,,,,,,,,,,,,,,,,,,,,,,,,,,,,,,,,,,,,,,,,,,,,,,,711.0998691000277,None,,,,,,,,,,,,,,,,,,,,,,,674.1530921999365,None,674.1530921999365,None,674.1530921999365,None,674.1530921999365,None,674.1530921999365,None,674.1530921999365,None,shock,108,1,aloud,blue,709.0972955999896,None,None,709.0972955999896,None,,,,,,,,,,,,,,,,,,,,,,,,,,,,,,3,001,2023_Jan_30_1118,ExactRep-v3-final,2021.2.3,59.906210819583976,
,,,,,,,,1,0,1,0,,,,,,,,,,,,,,,,,,,,,,,,,,,,,,,,,,,,,,,,,,,,,,,,,,,,,713.6023523999611,None,,,,,,,,,,,,,,,,,,,,,,,,,,,,,,,,,,,crime,63,2,silent,red,711.6031694000121,None,None,711.6031694000121,None,,,,,,,,,,,,,,,,,,,,,,,,,,,,,,3,001,2023_Jan_30_1118,ExactRep-v3-final,2021.2.3,59.906210819583976,
,,,,,,,,2,0,2,0,,,,,,,,,,,,,,,,,,,,,,,,,,,,,,,,,,,,,,,,,,,,,,,,,,,,,716.121383599937,None,,,,,,,,,,,,,,,,,,,,,,,,,,,,,,,,,,,mother,61,3,silent,red,714.1076697999379,None,None,714.1076697999379,None,,,,,,,,,,,,,,,,,,,,,,,,,,,,,,3,001,2023_Jan_30_1118,ExactRep-v3-final,2021.2.3,59.906210819583976,
,,,,,,,,3,0,3,0,,,,,,,,,,,,,,,,,,,,,,,,,,,,,,,,,,,,,,,,,,,,,,,,,,,,,718.6403995000292,None,,,,,,,,,,,,,,,,,,,,,,,,,,,,,,,,,,,hour,47,4,silent,red,716.6307847999269,None,None,716.6307847999269,None,,,,,,,,,,,,,,,,,,,,,,,,,,,,,,3,001,2023_Jan_30_1118,ExactRep-v3-final,2021.2.3,59.906210819583976,
,,,,,,,,4,0,4,0,,,,,,,,,,,,,,,,,,,,,,,,,,,,,,,,,,,,,,,,,,,,,,,,,,,,,721.1431522999192,None,,,,,,,,,,,,,,,,,,,,,,,,,,,,,,,,,,,death,12,5,sing,white,719.1421155999415,None,None,719.1421155999415,None,,,,,,,,,,,,,,,,,,,,,,,,,,,,,,3,001,2023_Jan_30_1118,ExactRep-v3-final,2021.2.3,59.906210819583976,
,,,,,,,,5,0,5,0,,,,,,,,,,,,,,,,,,,,,,,,,,,,,,,,,,,,,,,,,,,,,,,,,,,,,723.6623665000079,None,,,,,,,,,,,,,,,,,,,,,,,,,,,,,,,,,,,series,77,6,silent,red,721.6494212999241,None,None,721.6494212999241,None,,,,,,,,,,,,,,,,,,,,,,,,,,,,,,3,001,2023_Jan_30_1118,ExactRep-v3-final,2021.2.3,59.906210819583976,
,,,,,,,,6,0,6,0,,,,,,,,,,,,,,,,,,,,,,,,,,,,,,,,,,,,,,,,,,,,,,,,,,,,,726.1647794999881,None,,,,,,,,,,,,,,,,,,,,,,,,,,,,,,,,,,,garden,45,7,silent,red,724.1629363999236,None,None,724.1629363999236,None,,,,,,,,,,,,,,,,,,,,,,,,,,,,,,3,001,2023_Jan_30_1118,ExactRep-v3-final,2021.2.3,59.906210819583976,
,,,,,,,,7,0,7,0,,,,,,,,,,,,,,,,,,,,,,,,,,,,,,,,,,,,,,,,,,,,,,,,,,,,,728.6840457000071,None,,,,,,,,,,,,,,,,,,,,,,,,,,,,,,,,,,,product,32,8,sing,white,726.6737398999976,None,None,726.6737398999976,None,,,,,,,,,,,,,,,,,,,,,,,,,,,,,,3,001,2023_Jan_30_1118,ExactRep-v3-final,2021.2.3,59.906210819583976,
,,,,,,,,8,0,8,0,,,,,,,,,,,,,,,,,,,,,,,,,,,,,,,,,,,,,,,,,,,,,,,,,,,,,731.2030534999212,None,,,,,,,,,,,,,,,,,,,,,,,,,,,,,,,,,,,poet,80,9,aloud,blue,729.1894448000239,None,None,729.1894448000239,None,,,,,,,,,,,,,,,,,,,,,,,,,,,,,,3,001,2023_Jan_30_1118,ExactRep-v3-final,2021.2.3,59.906210819583976,
,,,,,,,,9,0,9,0,,,,,,,,,,,,,,,,,,,,,,,,,,,,,,,,,,,,,,,,,,,,,,,,,,,,,733.7055634999415,None,,,,,,,,,,,,,,,,,,,,,,,,,,,,,,,,,,,tool,89,10,aloud,blue,731.7037502999883,None,None,731.7037502999883,None,,,,,,,,,,,,,,,,,,,,,,,,,,,,,,3,001,2023_Jan_30_1118,ExactRep-v3-final,2021.2.3,59.906210819583976,
,,,,,,,,10,0,10,0,,,,,,,,,,,,,,,,,,,,,,,,,,,,,,,,,,,,,,,,,,,,,,,,,,,,,736.2104657000164,None,,,,,,,,,,,,,,,,,,,,,,,,,,,,,,,,,,,temple,25,11,sing,white,734.2088350999402,None,None,734.2088350999402,None,,,,,,,,,,,,,,,,,,,,,,,,,,,,,,3,001,2023_Jan_30_1118,ExactRep-v3-final,2021.2.3,59.906210819583976,
,,,,,,,,11,0,11,0,,,,,,,,,,,,,,,,,,,,,,,,,,,,,,,,,,,,,,,,,,,,,,,,,,,,,738.7274942999939,None,,,,,,,,,,,,,,,,,,,,,,,,,,,,,,,,,,,honour,27,12,sing,white,736.7254558999557,None,None,736.7254558999557,None,,,,,,,,,,,,,,,,,,,,,,,,,,,,,,3,001,2023_Jan_30_1118,ExactRep-v3-final,2021.2.3,59.906210819583976,
,,,,,,,,12,0,12,0,,,,,,,,,,,,,,,,,,,,,,,,,,,,,,,,,,,,,,,,,,,,,,,,,,,,,741.2466616999591,None,,,,,,,,,,,,,,,,,,,,,,,,,,,,,,,,,,,power,95,13,aloud,blue,739.2338371999795,None,None,739.2338371999795,None,,,,,,,,,,,,,,,,,,,,,,,,,,,,,,3,001,2023_Jan_30_1118,ExactRep-v3-final,2021.2.3,59.906210819583976,
,,,,,,,,13,0,13,0,,,,,,,,,,,,,,,,,,,,,,,,,,,,,,,,,,,,,,,,,,,,,,,,,,,,,743.7489704999607,None,,,,,,,,,,,,,,,,,,,,,,,,,,,,,,,,,,,maiden,97,14,aloud,blue,741.7491427999921,None,None,741.7491427999921,None,,,,,,,,,,,,,,,,,,,,,,,,,,,,,,3,001,2023_Jan_30_1118,ExactRep-v3-final,2021.2.3,59.906210819583976,
,,,,,,,,14,0,14,0,,,,,,,,,,,,,,,,,,,,,,,,,,,,,,,,,,,,,,,,,,,,,,,,,,,,,746.251705499948,None,,,,,,,,,,,,,,,,,,,,,,,,,,,,,,,,,,,pupil,64,15,silent,red,744.2518020999851,None,None,744.2518020999851,None,,,,,,,,,,,,,,,,,,,,,,,,,,,,,,3,001,2023_Jan_30_1118,ExactRep-v3-final,2021.2.3,59.906210819583976,
,,,,,,,,15,0,15,0,,,,,,,,,,,,,,,,,,,,,,,,,,,,,,,,,,,,,,,,,,,,,,,,,,,,,748.7707886999706,None,,,,,,,,,,,,,,,,,,,,,,,,,,,,,,,,,,,table,29,16,sing,white,746.7616752999602,None,None,746.7616752999602,None,,,,,,,,,,,,,,,,,,,,,,,,,,,,,,3,001,2023_Jan_30_1118,ExactRep-v3-final,2021.2.3,59.906210819583976,
,,,,,,,,16,0,16,0,,,,,,,,,,,,,,,,,,,,,,,,,,,,,,,,,,,,,,,,,,,,,,,,,,,,,751.2899902999634,None,,,,,,,,,,,,,,,,,,,,,,,,,,,,,,,,,,,cash,83,17,aloud,blue,749.280059200013,None,None,749.280059200013,None,,,,,,,,,,,,,,,,,,,,,,,,,,,,,,3,001,2023_Jan_30_1118,ExactRep-v3-final,2021.2.3,59.906210819583976,
,,,,,,,,17,0,17,0,,,,,,,,,,,,,,,,,,,,,,,,,,,,,,,,,,,,,,,,,,,,,,,,,,,,,753.8093934999779,None,,,,,,,,,,,,,,,,,,,,,,,,,,,,,,,,,,,officer,78,18,silent,red,751.7943488999736,None,None,751.7943488999736,None,,,,,,,,,,,,,,,,,,,,,,,,,,,,,,3,001,2023_Jan_30_1118,ExactRep-v3-final,2021.2.3,59.906210819583976,
,,,,,,,,18,0,18,0,,,,,,,,,,,,,,,,,,,,,,,,,,,,,,,,,,,,,,,,,,,,,,,,,,,,,756.3117393000284,None,,,,,,,,,,,,,,,,,,,,,,,,,,,,,,,,,,,virtue,81,19,aloud,blue,754.3098207999719,None,None,754.3098207999719,None,,,,,,,,,,,,,,,,,,,,,,,,,,,,,,3,001,2023_Jan_30_1118,ExactRep-v3-final,2021.2.3,59.906210819583976,
,,,,,,,,19,0,19,0,,,,,,,,,,,,,,,,,,,,,,,,,,,,,,,,,,,,,,,,,,,,,,,,,,,,,758.8140034999233,None,,,,,,,,,,,,,,,,,,,,,,,,,,,,,,,,,,,method,73,20,silent,red,756.8149849999463,None,None,756.8149849999463,None,,,,,,,,,,,,,,,,,,,,,,,,,,,,,,3,001,2023_Jan_30_1118,ExactRep-v3-final,2021.2.3,59.906210819583976,
,,,,,,,,20,0,20,0,,,,,,,,,,,,,,,,,,,,,,,,,,,,,,,,,,,,,,,,,,,,,,,,,,,,,761.3166810999392,None,,,,,,,,,,,,,,,,,,,,,,,,,,,,,,,,,,,month,28,21,sing,white,759.3165720999241,None,None,759.3165720999241,None,,,,,,,,,,,,,,,,,,,,,,,,,,,,,,3,001,2023_Jan_30_1118,ExactRep-v3-final,2021.2.3,59.906210819583976,
,,,,,,,,21,0,21,0,,,,,,,,,,,,,,,,,,,,,,,,,,,,,,,,,,,,,,,,,,,,,,,,,,,,,763.8191824000096,None,,,,,,,,,,,,,,,,,,,,,,,,,,,,,,,,,,,custom,112,22,aloud,blue,761.8191398999188,None,None,761.8191398999188,None,,,,,,,,,,,,,,,,,,,,,,,,,,,,,,3,001,2023_Jan_30_1118,ExactRep-v3-final,2021.2.3,59.906210819583976,
,,,,,,,,22,0,22,0,,,,,,,,,,,,,,,,,,,,,,,,,,,,,,,,,,,,,,,,,,,,,,,,,,,,,766.3216736000031,None,,,,,,,,,,,,,,,,,,,,,,,,,,,,,,,,,,,spirit,65,23,silent,red,764.3222061999841,None,None,764.3222061999841,None,,,,,,,,,,,,,,,,,,,,,,,,,,,,,,3,001,2023_Jan_30_1118,ExactRep-v3-final,2021.2.3,59.906210819583976,
,,,,,,,,23,0,23,0,,,,,,,,,,,,,,,,,,,,,,,,,,,,,,,,,,,,,,,,,,,,,,,,,,,,,768.8408853999572,None,,,,,,,,,,,,,,,,,,,,,,,,,,,,,,,,,,,volume,58,24,silent,red,766.8257488999516,None,None,766.8257488999516,None,,,,,,,,,,,,,,,,,,,,,,,,,,,,,,3,001,2023_Jan_30_1118,ExactRep-v3-final,2021.2.3,59.906210819583976,
,,,,,,,,24,0,24,0,,,,,,,,,,,,,,,,,,,,,,,,,,,,,,,,,,,,,,,,,,,,,,,,,,,,,771.3434107999783,None,,,,,,,,,,,,,,,,,,,,,,,,,,,,,,,,,,,machine,16,25,sing,white,769.3428021,None,None,769.3428021,None,,,,,,,,,,,,,,,,,,,,,,,,,,,,,,3,001,2023_Jan_30_1118,ExactRep-v3-final,2021.2.3,59.906210819583976,
,,,,,,,,25,0,25,0,,,,,,,,,,,,,,,,,,,,,,,,,,,,,,,,,,,,,,,,,,,,,,,,,,,,,773.8458635000279,None,,,,,,,,,,,,,,,,,,,,,,,,,,,,,,,,,,,friend,39,26,silent,red,771.8467131999787,None,None,771.8467131999787,None,,,,,,,,,,,,,,,,,,,,,,,,,,,,,,3,001,2023_Jan_30_1118,ExactRep-v3-final,2021.2.3,59.906210819583976,
,,,,,,,,26,0,26,0,,,,,,,,,,,,,,,,,,,,,,,,,,,,,,,,,,,,,,,,,,,,,,,,,,,,,776.3650862999493,None,,,,,,,,,,,,,,,,,,,,,,,,,,,,,,,,,,,picture,104,27,aloud,blue,774.3496550000273,None,None,774.3496550000273,None,,,,,,,,,,,,,,,,,,,,,,,,,,,,,,3,001,2023_Jan_30_1118,ExactRep-v3-final,2021.2.3,59.906210819583976,
,,,,,,,,27,0,27,0,,,,,,,,,,,,,,,,,,,,,,,,,,,,,,,,,,,,,,,,,,,,,,,,,,,,,778.8842161999783,None,,,,,,,,,,,,,,,,,,,,,,,,,,,,,,,,,,,star,118,28,aloud,blue,776.8691475000232,None,None,776.8691475000232,None,,,,,,,,,,,,,,,,,,,,,,,,,,,,,,3,001,2023_Jan_30_1118,ExactRep-v3-final,2021.2.3,59.906210819583976,
,,,,,,,,28,0,28,0,,,,,,,,,,,,,,,,,,,,,,,,,,,,,,,,,,,,,,,,,,,,,,,,,,,,,781.3867884000065,None,,,,,,,,,,,,,,,,,,,,,,,,,,,,,,,,,,,breast,115,29,aloud,blue,779.3863625000231,None,None,779.3863625000231,None,,,,,,,,,,,,,,,,,,,,,,,,,,,,,,3,001,2023_Jan_30_1118,ExactRep-v3-final,2021.2.3,59.906210819583976,
,,,,,,,,29,0,29,0,,,,,,,,,,,,,,,,,,,,,,,,,,,,,,,,,,,,,,,,,,,,,,,,,,,,,783.905904199928,None,,,,,,,,,,,,,,,,,,,,,,,,,,,,,,,,,,,lord,34,30,sing,white,781.8959037000313,None,None,781.8959037000313,None,,,,,,,,,,,,,,,,,,,,,,,,,,,,,,3,001,2023_Jan_30_1118,ExactRep-v3-final,2021.2.3,59.906210819583976,
,,,,,,,,30,0,30,0,,,,,,,,,,,,,,,,,,,,,,,,,,,,,,,,,,,,,,,,,,,,,,,,,,,,,786.4084784999723,None,,,,,,,,,,,,,,,,,,,,,,,,,,,,,,,,,,,corner,110,31,aloud,blue,784.4063384999754,None,None,784.4063384999754,None,,,,,,,,,,,,,,,,,,,,,,,,,,,,,,3,001,2023_Jan_30_1118,ExactRep-v3-final,2021.2.3,59.906210819583976,
,,,,,,,,31,0,31,0,,,,,,,,,,,,,,,,,,,,,,,,,,,,,,,,,,,,,,,,,,,,,,,,,,,,,788.9108879999258,None,,,,,,,,,,,,,,,,,,,,,,,,,,,,,,,,,,,shadow,98,32,aloud,blue,786.9113713999977,None,None,786.9113713999977,None,,,,,,,,,,,,,,,,,,,,,,,,,,,,,,3,001,2023_Jan_30_1118,ExactRep-v3-final,2021.2.3,59.906210819583976,
,,,,,,,,32,0,32,0,,,,,,,,,,,,,,,,,,,,,,,,,,,,,,,,,,,,,,,,,,,,,,,,,,,,,791.4300863000099,None,,,,,,,,,,,,,,,,,,,,,,,,,,,,,,,,,,,meadow,88,33,aloud,blue,789.4186408999376,None,None,789.4186408999376,None,,,,,,,,,,,,,,,,,,,,,,,,,,,,,,3,001,2023_Jan_30_1118,ExactRep-v3-final,2021.2.3,59.906210819583976,
,,,,,,,,33,0,33,0,,,,,,,,,,,,,,,,,,,,,,,,,,,,,,,,,,,,,,,,,,,,,,,,,,,,,793.932701200014,None,,,,,,,,,,,,,,,,,,,,,,,,,,,,,,,,,,,prayer,41,34,silent,red,791.931234800024,None,None,791.931234800024,None,,,,,,,,,,,,,,,,,,,,,,,,,,,,,,3,001,2023_Jan_30_1118,ExactRep-v3-final,2021.2.3,59.906210819583976,
,,,,,,,,34,0,34,0,,,,,,,,,,,,,,,,,,,,,,,,,,,,,,,,,,,,,,,,,,,,,,,,,,,,,796.4517667000182,None,,,,,,,,,,,,,,,,,,,,,,,,,,,,,,,,,,,quality,0,35,sing,white,794.4520516999764,None,None,794.4520516999764,None,,,,,,,,,,,,,,,,,,,,,,,,,,,,,,3,001,2023_Jan_30_1118,ExactRep-v3-final,2021.2.3,59.906210819583976,
,,,,,,,,35,0,35,0,,,,,,,,,,,,,,,,,,,,,,,,,,,,,,,,,,,,,,,,,,,,,,,,,,,,,798.9579325999366,None,,,,,,,,,,,,,,,,,,,,,,,,,,,,,,,,,,,person,11,36,sing,white,796.9522625999525,None,None,796.9522625999525,None,,,,,,,,,,,,,,,,,,,,,,,,,,,,,,3,001,2023_Jan_30_1118,ExactRep-v3-final,2021.2.3,59.906210819583976,
,,,,,,,,36,0,36,0,,,,,,,,,,,,,,,,,,,,,,,,,,,,,,,,,,,,,,,,,,,,,,,,,,,,,801.4901461999398,None,,,,,,,,,,,,,,,,,,,,,,,,,,,,,,,,,,,metal,57,37,silent,red,799.4749698999804,None,None,799.4749698999804,None,,,,,,,,,,,,,,,,,,,,,,,,,,,,,,3,001,2023_Jan_30_1118,ExactRep-v3-final,2021.2.3,59.906210819583976,
,,,,,,,,37,0,37,0,,,,,,,,,,,,,,,,,,,,,,,,,,,,,,,,,,,,,,,,,,,,,,,,,,,,,804.0099313999526,None,,,,,,,,,,,,,,,,,,,,,,,,,,,,,,,,,,,fortune,8,38,sing,white,801.994832299999,None,None,801.994832299999,None,,,,,,,,,,,,,,,,,,,,,,,,,,,,,,3,001,2023_Jan_30_1118,ExactRep-v3-final,2021.2.3,59.906210819583976,
,,,,,,,,38,0,38,0,,,,,,,,,,,,,,,,,,,,,,,,,,,,,,,,,,,,,,,,,,,,,,,,,,,,,806.5118191000074,None,,,,,,,,,,,,,,,,,,,,,,,,,,,,,,,,,,,church,40,39,silent,red,804.5098193000304,None,None,804.5098193000304,None,,,,,,,,,,,,,,,,,,,,,,,,,,,,,,3,001,2023_Jan_30_1118,ExactRep-v3-final,2021.2.3,59.906210819583976,
,,,,,,,,39,0,39,0,,,,,,,,,,,,,,,,,,,,,,,,,,,,,,,,,,,,,,,,,,,,,,,,,,,,,809.0143928999314,None,,,,,,,,,,,,,,,,,,,,,,,,,,,,,,,,,,,valley,17,40,sing,white,807.0128904000157,None,None,807.0128904000157,None,,,,,,,,,,,,,,,,,,,,,,,,,,,,,,3,001,2023_Jan_30_1118,ExactRep-v3-final,2021.2.3,59.906210819583976,
,,,,,,,,40,0,40,0,,,,,,,,,,,,,,,,,,,,,,,,,,,,,,,,,,,,,,,,,,,,,,,,,,,,,811.5167982999701,None,,,,,,,,,,,,,,,,,,,,,,,,,,,,,,,,,,,stone,3,41,sing,white,809.5148880999768,None,None,809.5148880999768,None,,,,,,,,,,,,,,,,,,,,,,,,,,,,,,3,001,2023_Jan_30_1118,ExactRep-v3-final,2021.2.3,59.906210819583976,
,,,,,,,,41,0,41,0,,,,,,,,,,,,,,,,,,,,,,,,,,,,,,,,,,,,,,,,,,,,,,,,,,,,,814.0360243000323,None,,,,,,,,,,,,,,,,,,,,,,,,,,,,,,,,,,,boulder,48,42,silent,red,812.0291984999785,None,None,812.0291984999785,None,,,,,,,,,,,,,,,,,,,,,,,,,,,,,,3,001,2023_Jan_30_1118,ExactRep-v3-final,2021.2.3,59.906210819583976,
,,,,,,,,42,0,42,0,,,,,,,,,,,,,,,,,,,,,,,,,,,,,,,,,,,,,,,,,,,,,,,,,,,,,816.5403872999595,None,,,,,,,,,,,,,,,,,,,,,,,,,,,,,,,,,,,letter,100,43,aloud,blue,814.5362136999611,None,None,814.5362136999611,None,,,,,,,,,,,,,,,,,,,,,,,,,,,,,,3,001,2023_Jan_30_1118,ExactRep-v3-final,2021.2.3,59.906210819583976,
,,,,,,,,43,0,43,0,,,,,,,,,,,,,,,,,,,,,,,,,,,,,,,,,,,,,,,,,,,,,,,,,,,,,819.057622399996,None,,,,,,,,,,,,,,,,,,,,,,,,,,,,,,,,,,,home,103,44,aloud,blue,817.0555339999264,None,None,817.0555339999264,None,,,,,,,,,,,,,,,,,,,,,,,,,,,,,,3,001,2023_Jan_30_1118,ExactRep-v3-final,2021.2.3,59.906210819583976,
,,,,,,,,44,0,44,0,,,,,,,,,,,,,,,,,,,,,,,,,,,,,,,,,,,,,,,,,,,,,,,,,,,,,821.5768681999762,None,,,,,,,,,,,,,,,,,,,,,,,,,,,,,,,,,,,king,114,45,aloud,blue,819.565923599992,None,None,819.565923599992,None,,,,,,,,,,,,,,,,,,,,,,,,,,,,,,3,001,2023_Jan_30_1118,ExactRep-v3-final,2021.2.3,59.906210819583976,
,,,,,,,,45,0,45,0,,,,,,,,,,,,,,,,,,,,,,,,,,,,,,,,,,,,,,,,,,,,,,,,,,,,,824.0794775999384,None,,,,,,,,,,,,,,,,,,,,,,,,,,,,,,,,,,,dress,43,46,silent,red,822.077381299925,None,None,822.077381299925,None,,,,,,,,,,,,,,,,,,,,,,,,,,,,,,3,001,2023_Jan_30_1118,ExactRep-v3-final,2021.2.3,59.906210819583976,
,,,,,,,,46,0,46,0,,,,,,,,,,,,,,,,,,,,,,,,,,,,,,,,,,,,,,,,,,,,,,,,,,,,,826.5817389999283,None,,,,,,,,,,,,,,,,,,,,,,,,,,,,,,,,,,,hotel,9,47,sing,white,824.5798919999506,None,None,824.5798919999506,None,,,,,,,,,,,,,,,,,,,,,,,,,,,,,,3,001,2023_Jan_30_1118,ExactRep-v3-final,2021.2.3,59.906210819583976,
,,,,,,,,47,0,47,0,,,,,,,,,,,,,,,,,,,,,,,,,,,,,,,,,,,,,,,,,,,,,,,,,,,,,829.1011074000271,None,,,,,,,,,,,,,,,,,,,,,,,,,,,,,,,,,,,chief,6,48,sing,white,827.0921560999705,None,None,827.0921560999705,None,,,,,,,,,,,,,,,,,,,,,,,,,,,,,,3,001,2023_Jan_30_1118,ExactRep-v3-final,2021.2.3,59.906210819583976,
,,,,,,,,48,0,48,0,,,,,,,,,,,,,,,,,,,,,,,,,,,,,,,,,,,,,,,,,,,,,,,,,,,,,831.6036494999425,None,,,,,,,,,,,,,,,,,,,,,,,,,,,,,,,,,,,slave,105,49,aloud,blue,829.6015793000115,None,None,829.6015793000115,None,,,,,,,,,,,,,,,,,,,,,,,,,,,,,,3,001,2023_Jan_30_1118,ExactRep-v3-final,2021.2.3,59.906210819583976,
,,,,,,,,49,0,49,0,,,,,,,,,,,,,,,,,,,,,,,,,,,,,,,,,,,,,,,,,,,,,,,,,,,,,834.123239699984,None,,,,,,,,,,,,,,,,,,,,,,,,,,,,,,,,,,,vision,7,50,sing,white,832.1104177000234,None,None,832.1104177000234,None,,,,,,,,,,,,,,,,,,,,,,,,,,,,,,3,001,2023_Jan_30_1118,ExactRep-v3-final,2021.2.3,59.906210819583976,
,,,,,,,,50,0,50,0,,,,,,,,,,,,,,,,,,,,,,,,,,,,,,,,,,,,,,,,,,,,,,,,,,,,,836.6252408999717,None,,,,,,,,,,,,,,,,,,,,,,,,,,,,,,,,,,,sugar,62,51,silent,red,834.6239532999462,None,None,834.6239532999462,None,,,,,,,,,,,,,,,,,,,,,,,,,,,,,,3,001,2023_Jan_30_1118,ExactRep-v3-final,2021.2.3,59.906210819583976,
,,,,,,,,51,0,51,0,,,,,,,,,,,,,,,,,,,,,,,,,,,,,,,,,,,,,,,,,,,,,,,,,,,,,839.1444862999488,None,,,,,,,,,,,,,,,,,,,,,,,,,,,,,,,,,,,fact,2,52,sing,white,837.1301397000207,None,None,837.1301397000207,None,,,,,,,,,,,,,,,,,,,,,,,,,,,,,,3,001,2023_Jan_30_1118,ExactRep-v3-final,2021.2.3,59.906210819583976,
,,,,,,,,52,0,52,0,,,,,,,,,,,,,,,,,,,,,,,,,,,,,,,,,,,,,,,,,,,,,,,,,,,,,841.6635802999372,None,,,,,,,,,,,,,,,,,,,,,,,,,,,,,,,,,,,devil,70,53,silent,red,839.6536638999823,None,None,839.6536638999823,None,,,,,,,,,,,,,,,,,,,,,,,,,,,,,,3,001,2023_Jan_30_1118,ExactRep-v3-final,2021.2.3,59.906210819583976,
,,,,,,,,53,0,53,0,,,,,,,,,,,,,,,,,,,,,,,,,,,,,,,,,,,,,,,,,,,,,,,,,,,,,844.1661024999339,None,,,,,,,,,,,,,,,,,,,,,,,,,,,,,,,,,,,circle,74,54,silent,red,842.1660016999813,None,None,842.1660016999813,None,,,,,,,,,,,,,,,,,,,,,,,,,,,,,,3,001,2023_Jan_30_1118,ExactRep-v3-final,2021.2.3,59.906210819583976,
,,,,,,,,54,0,54,0,,,,,,,,,,,,,,,,,,,,,,,,,,,,,,,,,,,,,,,,,,,,,,,,,,,,,846.6685855999822,None,,,,,,,,,,,,,,,,,,,,,,,,,,,,,,,,,,,doll,111,55,aloud,blue,844.6688424999593,None,None,844.6688424999593,None,,,,,,,,,,,,,,,,,,,,,,,,,,,,,,3,001,2023_Jan_30_1118,ExactRep-v3-final,2021.2.3,59.906210819583976,
,,,,,,,,55,0,55,0,,,,,,,,,,,,,,,,,,,,,,,,,,,,,,,,,,,,,,,,,,,,,,,,,,,,,849.1711195999524,None,,,,,,,,,,,,,,,,,,,,,,,,,,,,,,,,,,,coin,21,56,sing,white,847.16910249996,None,None,847.16910249996,None,,,,,,,,,,,,,,,,,,,,,,,,,,,,,,3,001,2023_Jan_30_1118,ExactRep-v3-final,2021.2.3,59.906210819583976,
,,,,,,,,56,0,56,0,,,,,,,,,,,,,,,,,,,,,,,,,,,,,,,,,,,,,,,,,,,,,,,,,,,,,851.6736625999911,None,,,,,,,,,,,,,,,,,,,,,,,,,,,,,,,,,,,silence,117,57,aloud,blue,849.6745236000279,None,None,849.6745236000279,None,,,,,,,,,,,,,,,,,,,,,,,,,,,,,,3,001,2023_Jan_30_1118,ExactRep-v3-final,2021.2.3,59.906210819583976,
,,,,,,,,57,0,57,0,,,,,,,,,,,,,,,,,,,,,,,,,,,,,,,,,,,,,,,,,,,,,,,,,,,,,854.1761317999335,None,,,,,,,,,,,,,,,,,,,,,,,,,,,,,,,,,,,priest,82,58,aloud,blue,852.1742964999285,None,None,852.1742964999285,None,,,,,,,,,,,,,,,,,,,,,,,,,,,,,,3,001,2023_Jan_30_1118,ExactRep-v3-final,2021.2.3,59.906210819583976,
,,,,,,,,58,0,58,0,,,,,,,,,,,,,,,,,,,,,,,,,,,,,,,,,,,,,,,,,,,,,,,,,,,,,856.6786387999309,None,,,,,,,,,,,,,,,,,,,,,,,,,,,,,,,,,,,fate,55,59,silent,red,854.678366899956,None,None,854.678366899956,None,,,,,,,,,,,,,,,,,,,,,,,,,,,,,,3,001,2023_Jan_30_1118,ExactRep-v3-final,2021.2.3,59.906210819583976,
,,,,,,,,59,0,59,0,,,,,,,,,,,,,,,,,,,,,,,,,,,,,,,,,,,,,,,,,,,,,,,,,,,,,859.181107899989,None,,,,,,,,,,,,,,,,,,,,,,,,,,,,,,,,,,,blood,79,60,sing,white,857.1794002000242,None,None,857.1794002000242,None,,,,,,,,,,,,,,,,,,,,,,,,,,,,,,3,001,2023_Jan_30_1118,ExactRep-v3-final,2021.2.3,59.906210819583976,
,,,,,,,,60,0,60,0,,,,,,,,,,,,,,,,,,,,,,,,,,,,,,,,,,,,,,,,,,,,,,,,,,,,,861.6837119000265,None,,,,,,,,,,,,,,,,,,,,,,,,,,,,,,,,,,,length,113,61,aloud,blue,859.6832143999636,None,None,859.6832143999636,None,,,,,,,,,,,,,,,,,,,,,,,,,,,,,,3,001,2023_Jan_30_1118,ExactRep-v3-final,2021.2.3,59.906210819583976,
,,,,,,,,61,0,61,0,,,,,,,,,,,,,,,,,,,,,,,,,,,,,,,,,,,,,,,,,,,,,,,,,,,,,864.2027913000202,None,,,,,,,,,,,,,,,,,,,,,,,,,,,,,,,,,,,cost,76,62,silent,red,862.1922434000298,None,None,862.1922434000298,None,,,,,,,,,,,,,,,,,,,,,,,,,,,,,,3,001,2023_Jan_30_1118,ExactRep-v3-final,2021.2.3,59.906210819583976,
,,,,,,,,62,0,62,0,,,,,,,,,,,,,,,,,,,,,,,,,,,,,,,,,,,,,,,,,,,,,,,,,,,,,866.7053824999603,None,,,,,,,,,,,,,,,,,,,,,,,,,,,,,,,,,,,blossom,90,63,aloud,blue,864.7040119000012,None,None,864.7040119000012,None,,,,,,,,,,,,,,,,,,,,,,,,,,,,,,3,001,2023_Jan_30_1118,ExactRep-v3-final,2021.2.3,59.906210819583976,
,,,,,,,,63,0,63,0,,,,,,,,,,,,,,,,,,,,,,,,,,,,,,,,,,,,,,,,,,,,,,,,,,,,,869.2245183999185,None,,,,,,,,,,,,,,,,,,,,,,,,,,,,,,,,,,,beast,66,64,silent,red,867.2117860999424,None,None,867.2117860999424,None,,,,,,,,,,,,,,,,,,,,,,,,,,,,,,3,001,2023_Jan_30_1118,ExactRep-v3-final,2021.2.3,59.906210819583976,
,,,,,,,,64,0,64,0,,,,,,,,,,,,,,,,,,,,,,,,,,,,,,,,,,,,,,,,,,,,,,,,,,,,,871.7270719999215,None,,,,,,,,,,,,,,,,,,,,,,,,,,,,,,,,,,,love,60,65,silent,red,869.7258842999581,None,None,869.7258842999581,None,,,,,,,,,,,,,,,,,,,,,,,,,,,,,,3,001,2023_Jan_30_1118,ExactRep-v3-final,2021.2.3,59.906210819583976,
,,,,,,,,65,0,65,0,,,,,,,,,,,,,,,,,,,,,,,,,,,,,,,,,,,,,,,,,,,,,,,,,,,,,874.2294915999519,None,,,,,,,,,,,,,,,,,,,,,,,,,,,,,,,,,,,sea,92,66,aloud,blue,872.2292522999924,None,None,872.2292522999924,None,,,,,,,,,,,,,,,,,,,,,,,,,,,,,,3,001,2023_Jan_30_1118,ExactRep-v3-final,2021.2.3,59.906210819583976,
,,,,,,,,66,0,66,0,,,,,,,,,,,,,,,,,,,,,,,,,,,,,,,,,,,,,,,,,,,,,,,,,,,,,876.7320331999799,None,,,,,,,,,,,,,,,,,,,,,,,,,,,,,,,,,,,shore,49,67,silent,red,874.7327255000127,None,None,874.7327255000127,None,,,,,,,,,,,,,,,,,,,,,,,,,,,,,,3,001,2023_Jan_30_1118,ExactRep-v3-final,2021.2.3,59.906210819583976,
,,,,,,,,67,0,67,0,,,,,,,,,,,,,,,,,,,,,,,,,,,,,,,,,,,,,,,,,,,,,,,,,,,,,879.2345173999202,None,,,,,,,,,,,,,,,,,,,,,,,,,,,,,,,,,,,hall,71,68,silent,red,877.2323299000273,None,None,877.2323299000273,None,,,,,,,,,,,,,,,,,,,,,,,,,,,,,,3,001,2023_Jan_30_1118,ExactRep-v3-final,2021.2.3,59.906210819583976,
,,,,,,,,68,0,68,0,,,,,,,,,,,,,,,,,,,,,,,,,,,,,,,,,,,,,,,,,,,,,,,,,,,,,881.7537463000044,None,,,,,,,,,,,,,,,,,,,,,,,,,,,,,,,,,,,arm,52,69,silent,red,879.7416736999294,None,None,879.7416736999294,None,,,,,,,,,,,,,,,,,,,,,,,,,,,,,,3,001,2023_Jan_30_1118,ExactRep-v3-final,2021.2.3,59.906210819583976,
,,,,,,,,69,0,69,0,,,,,,,,,,,,,,,,,,,,,,,,,,,,,,,,,,,,,,,,,,,,,,,,,,,,,884.2728991999757,None,,,,,,,,,,,,,,,,,,,,,,,,,,,,,,,,,,,ship,33,70,sing,white,882.2589331999188,None,None,882.2589331999188,None,,,,,,,,,,,,,,,,,,,,,,,,,,,,,,3,001,2023_Jan_30_1118,ExactRep-v3-final,2021.2.3,59.906210819583976,
,,,,,,,,70,0,70,0,,,,,,,,,,,,,,,,,,,,,,,,,,,,,,,,,,,,,,,,,,,,,,,,,,,,,886.7920586999971,None,,,,,,,,,,,,,,,,,,,,,,,,,,,,,,,,,,,ability,18,71,sing,white,884.777571799932,None,None,884.777571799932,None,,,,,,,,,,,,,,,,,,,,,,,,,,,,,,3,001,2023_Jan_30_1118,ExactRep-v3-final,2021.2.3,59.906210819583976,
,,,,,,,,71,0,71,0,,,,,,,,,,,,,,,,,,,,,,,,,,,,,,,,,,,,,,,,,,,,,,,,,,,,,889.3110077999299,None,,,,,,,,,,,,,,,,,,,,,,,,,,,,,,,,,,,wife,67,72,silent,red,887.2957528999541,None,None,887.2957528999541,None,,,,,,,,,,,,,,,,,,,,,,,,,,,,,,3,001,2023_Jan_30_1118,ExactRep-v3-final,2021.2.3,59.906210819583976,
,,,,,,,,72,0,72,0,,,,,,,,,,,,,,,,,,,,,,,,,,,,,,,,,,,,,,,,,,,,,,,,,,,,,891.81379559997,None,,,,,,,,,,,,,,,,,,,,,,,,,,,,,,,,,,,meeting,36,73,sing,white,889.8117952999892,None,None,889.8117952999892,None,,,,,,,,,,,,,,,,,,,,,,,,,,,,,,3,001,2023_Jan_30_1118,ExactRep-v3-final,2021.2.3,59.906210819583976,
,,,,,,,,73,0,73,0,,,,,,,,,,,,,,,,,,,,,,,,,,,,,,,,,,,,,,,,,,,,,,,,,,,,,894.3329165999312,None,,,,,,,,,,,,,,,,,,,,,,,,,,,,,,,,,,,cabin,86,74,aloud,blue,892.3304051000159,None,None,892.3304051000159,None,,,,,,,,,,,,,,,,,,,,,,,,,,,,,,3,001,2023_Jan_30_1118,ExactRep-v3-final,2021.2.3,59.906210819583976,
,,,,,,,,74,0,74,0,,,,,,,,,,,,,,,,,,,,,,,,,,,,,,,,,,,,,,,,,,,,,,,,,,,,,896.852071100031,None,,,,,,,,,,,,,,,,,,,,,,,,,,,,,,,,,,,gold,91,75,aloud,blue,894.8429349999642,None,None,894.8429349999642,None,,,,,,,,,,,,,,,,,,,,,,,,,,,,,,3,001,2023_Jan_30_1118,ExactRep-v3-final,2021.2.3,59.906210819583976,
,,,,,,,,75,0,75,0,,,,,,,,,,,,,,,,,,,,,,,,,,,,,,,,,,,,,,,,,,,,,,,,,,,,,899.3545785000315,None,,,,,,,,,,,,,,,,,,,,,,,,,,,,,,,,,,,moment,31,76,sing,white,897.3526016999967,None,None,897.3526016999967,None,,,,,,,,,,,,,,,,,,,,,,,,,,,,,,3,001,2023_Jan_30_1118,ExactRep-v3-final,2021.2.3,59.906210819583976,
,,,,,,,,76,0,76,0,,,,,,,,,,,,,,,,,,,,,,,,,,,,,,,,,,,,,,,,,,,,,,,,,,,,,901.8737618000014,None,,,,,,,,,,,,,,,,,,,,,,,,,,,,,,,,,,,meat,1,77,sing,white,899.8654618000146,None,None,899.8654618000146,None,,,,,,,,,,,,,,,,,,,,,,,,,,,,,,3,001,2023_Jan_30_1118,ExactRep-v3-final,2021.2.3,59.906210819583976,
,,,,,,,,77,0,77,0,,,,,,,,,,,,,,,,,,,,,,,,,,,,,,,,,,,,,,,,,,,,,,,,,,,,,904.3763343000319,None,,,,,,,,,,,,,,,,,,,,,,,,,,,,,,,,,,,paper,84,78,aloud,blue,902.374272499932,None,None,902.374272499932,None,,,,,,,,,,,,,,,,,,,,,,,,,,,,,,3,001,2023_Jan_30_1118,ExactRep-v3-final,2021.2.3,59.906210819583976,
,,,,,,,,78,0,78,0,,,,,,,,,,,,,,,,,,,,,,,,,,,,,,,,,,,,,,,,,,,,,,,,,,,,,906.8788436999312,None,,,,,,,,,,,,,,,,,,,,,,,,,,,,,,,,,,,string,69,79,silent,red,904.8770305999788,None,None,904.8770305999788,None,,,,,,,,,,,,,,,,,,,,,,,,,,,,,,3,001,2023_Jan_30_1118,ExactRep-v3-final,2021.2.3,59.906210819583976,
,,,,,,,,79,0,79,0,,,,,,,,,,,,,,,,,,,,,,,,,,,,,,,,,,,,,,,,,,,,,,,,,,,,,909.3979958000127,None,,,,,,,,,,,,,,,,,,,,,,,,,,,,,,,,,,,pipe,23,80,sing,white,907.3878962999443,None,None,907.3878962999443,None,,,,,,,,,,,,,,,,,,,,,,,,,,,,,,3,001,2023_Jan_30_1118,ExactRep-v3-final,2021.2.3,59.906210819583976,
,,,,,,,,80,0,80,0,,,,,,,,,,,,,,,,,,,,,,,,,,,,,,,,,,,,,,,,,,,,,,,,,,,,,911.9005480000051,None,,,,,,,,,,,,,,,,,,,,,,,,,,,,,,,,,,,dream,51,81,silent,red,909.9006110000191,None,None,909.9006110000191,None,,,,,,,,,,,,,,,,,,,,,,,,,,,,,,3,001,2023_Jan_30_1118,ExactRep-v3-final,2021.2.3,59.906210819583976,
,,,,,,,,81,0,81,0,,,,,,,,,,,,,,,,,,,,,,,,,,,,,,,,,,,,,,,,,,,,,,,,,,,,,914.4196777000325,None,,,,,,,,,,,,,,,,,,,,,,,,,,,,,,,,,,,water,26,82,sing,white,912.4093933999538,None,None,912.4093933999538,None,,,,,,,,,,,,,,,,,,,,,,,,,,,,,,3,001,2023_Jan_30_1118,ExactRep-v3-final,2021.2.3,59.906210819583976,
,,,,,,,,82,0,82,0,,,,,,,,,,,,,,,,,,,,,,,,,,,,,,,,,,,,,,,,,,,,,,,,,,,,,916.9388346999185,None,,,,,,,,,,,,,,,,,,,,,,,,,,,,,,,,,,,potato,102,83,aloud,blue,914.9296766000334,None,None,914.9296766000334,None,,,,,,,,,,,,,,,,,,,,,,,,,,,,,,3,001,2023_Jan_30_1118,ExactRep-v3-final,2021.2.3,59.906210819583976,
,,,,,,,,83,0,83,0,,,,,,,,,,,,,,,,,,,,,,,,,,,,,,,,,,,,,,,,,,,,,,,,,,,,,919.458036200027,None,,,,,,,,,,,,,,,,,,,,,,,,,,,,,,,,,,,butter,15,84,sing,white,917.4498691000044,None,None,917.4498691000044,None,,,,,,,,,,,,,,,,,,,,,,,,,,,,,,3,001,2023_Jan_30_1118,ExactRep-v3-final,2021.2.3,59.906210819583976,
,,,,,,,,84,0,84,0,,,,,,,,,,,,,,,,,,,,,,,,,,,,,,,,,,,,,,,,,,,,,,,,,,,,,921.977208700031,None,,,,,,,,,,,,,,,,,,,,,,,,,,,,,,,,,,,author,13,85,sing,white,919.9660602000076,None,None,919.9660602000076,None,,,,,,,,,,,,,,,,,,,,,,,,,,,,,,3,001,2023_Jan_30_1118,ExactRep-v3-final,2021.2.3,59.906210819583976,
,,,,,,,,85,0,85,0,,,,,,,,,,,,,,,,,,,,,,,,,,,,,,,,,,,,,,,,,,,,,,,,,,,,,924.4796969000017,None,,,,,,,,,,,,,,,,,,,,,,,,,,,,,,,,,,,rod,44,86,silent,red,922.4786441000178,None,None,922.4786441000178,None,,,,,,,,,,,,,,,,,,,,,,,,,,,,,,3,001,2023_Jan_30_1118,ExactRep-v3-final,2021.2.3,59.906210819583976,
,,,,,,,,86,0,86,0,,,,,,,,,,,,,,,,,,,,,,,,,,,,,,,,,,,,,,,,,,,,,,,,,,,,,926.9989430999849,None,,,,,,,,,,,,,,,,,,,,,,,,,,,,,,,,,,,cattle,4,87,sing,white,924.9835540999193,None,None,924.9835540999193,None,,,,,,,,,,,,,,,,,,,,,,,,,,,,,,3,001,2023_Jan_30_1118,ExactRep-v3-final,2021.2.3,59.906210819583976,
,,,,,,,,87,0,87,0,,,,,,,,,,,,,,,,,,,,,,,,,,,,,,,,,,,,,,,,,,,,,,,,,,,,,929.5013689999469,None,,,,,,,,,,,,,,,,,,,,,,,,,,,,,,,,,,,college,37,88,sing,white,927.5018805,None,None,927.5018805,None,,,,,,,,,,,,,,,,,,,,,,,,,,,,,,3,001,2023_Jan_30_1118,ExactRep-v3-final,2021.2.3,59.906210819583976,
,,,,,,,,88,0,88,0,,,,,,,,,,,,,,,,,,,,,,,,,,,,,,,,,,,,,,,,,,,,,,,,,,,,,932.0205915999832,None,,,,,,,,,,,,,,,,,,,,,,,,,,,,,,,,,,,palace,99,89,aloud,blue,930.0113686999539,None,None,930.0113686999539,None,,,,,,,,,,,,,,,,,,,,,,,,,,,,,,3,001,2023_Jan_30_1118,ExactRep-v3-final,2021.2.3,59.906210819583976,
,,,,,,,,89,0,89,0,,,,,,,,,,,,,,,,,,,,,,,,,,,,,,,,,,,,,,,,,,,,,,,,,,,,,934.5230569000123,None,,,,,,,,,,,,,,,,,,,,,,,,,,,,,,,,,,,leader,22,90,sing,white,932.5233164000092,None,None,932.5233164000092,None,,,,,,,,,,,,,,,,,,,,,,,,,,,,,,3,001,2023_Jan_30_1118,ExactRep-v3-final,2021.2.3,59.906210819583976,
,,,,,,,,90,0,90,0,,,,,,,,,,,,,,,,,,,,,,,,,,,,,,,,,,,,,,,,,,,,,,,,,,,,,937.0256744999206,None,,,,,,,,,,,,,,,,,,,,,,,,,,,,,,,,,,,party,119,91,aloud,blue,935.0264463999774,None,None,935.0264463999774,None,,,,,,,,,,,,,,,,,,,,,,,,,,,,,,3,001,2023_Jan_30_1118,ExactRep-v3-final,2021.2.3,59.906210819583976,
,,,,,,,,91,0,91,0,,,,,,,,,,,,,,,,,,,,,,,,,,,,,,,,,,,,,,,,,,,,,,,,,,,,,939.5447472999804,None,,,,,,,,,,,,,,,,,,,,,,,,,,,,,,,,,,,plain,72,92,silent,red,937.5297891999362,None,None,937.5297891999362,None,,,,,,,,,,,,,,,,,,,,,,,,,,,,,,3,001,2023_Jan_30_1118,ExactRep-v3-final,2021.2.3,59.906210819583976,
,,,,,,,,92,0,92,0,,,,,,,,,,,,,,,,,,,,,,,,,,,,,,,,,,,,,,,,,,,,,,,,,,,,,942.0472514999565,None,,,,,,,,,,,,,,,,,,,,,,,,,,,,,,,,,,,glory,94,93,aloud,blue,940.0478239000076,None,None,940.0478239000076,None,,,,,,,,,,,,,,,,,,,,,,,,,,,,,,3,001,2023_Jan_30_1118,ExactRep-v3-final,2021.2.3,59.906210819583976,
,,,,,,,,93,0,93,0,,,,,,,,,,,,,,,,,,,,,,,,,,,,,,,,,,,,,,,,,,,,,,,,,,,,,944.5497187000001,None,,,,,,,,,,,,,,,,,,,,,,,,,,,,,,,,,,,flood,109,94,aloud,blue,942.5507256999845,None,None,942.5507256999845,None,,,,,,,,,,,,,,,,,,,,,,,,,,,,,,3,001,2023_Jan_30_1118,ExactRep-v3-final,2021.2.3,59.906210819583976,
,,,,,,,,94,0,94,0,,,,,,,,,,,,,,,,,,,,,,,,,,,,,,,,,,,,,,,,,,,,,,,,,,,,,947.0689395000227,None,,,,,,,,,,,,,,,,,,,,,,,,,,,,,,,,,,,dust,19,95,sing,white,945.0548215999734,None,None,945.0548215999734,None,,,,,,,,,,,,,,,,,,,,,,,,,,,,,,3,001,2023_Jan_30_1118,ExactRep-v3-final,2021.2.3,59.906210819583976,
,,,,,,,,95,0,95,0,,,,,,,,,,,,,,,,,,,,,,,,,,,,,,,,,,,,,,,,,,,,,,,,,,,,,949.571476800018,None,,,,,,,,,,,,,,,,,,,,,,,,,,,,,,,,,,,shoes,54,96,silent,red,947.5705739000114,None,None,947.5705739000114,None,,,,,,,,,,,,,,,,,,,,,,,,,,,,,,3,001,2023_Jan_30_1118,ExactRep-v3-final,2021.2.3,59.906210819583976,
,,,,,,,,96,0,96,0,,,,,,,,,,,,,,,,,,,,,,,,,,,,,,,,,,,,,,,,,,,,,,,,,,,,,952.0740121999988,None,,,,,,,,,,,,,,,,,,,,,,,,,,,,,,,,,,,door,106,97,aloud,blue,950.0750182999764,None,None,950.0750182999764,None,,,,,,,,,,,,,,,,,,,,,,,,,,,,,,3,001,2023_Jan_30_1118,ExactRep-v3-final,2021.2.3,59.906210819583976,
,,,,,,,,97,0,97,0,,,,,,,,,,,,,,,,,,,,,,,,,,,,,,,,,,,,,,,,,,,,,,,,,,,,,954.5931397000095,None,,,,,,,,,,,,,,,,,,,,,,,,,,,,,,,,,,,wine,85,98,aloud,blue,952.5813381000189,None,None,952.5813381000189,None,,,,,,,,,,,,,,,,,,,,,,,,,,,,,,3,001,2023_Jan_30_1118,ExactRep-v3-final,2021.2.3,59.906210819583976,
,,,,,,,,98,0,98,0,,,,,,,,,,,,,,,,,,,,,,,,,,,,,,,,,,,,,,,,,,,,,,,,,,,,,957.0956418999704,None,,,,,,,,,,,,,,,,,,,,,,,,,,,,,,,,,,,soil,53,99,silent,red,955.0936612000223,None,None,955.0936612000223,None,,,,,,,,,,,,,,,,,,,,,,,,,,,,,,3,001,2023_Jan_30_1118,ExactRep-v3-final,2021.2.3,59.906210819583976,
,,,,,,,,99,0,99,0,,,,,,,,,,,,,,,,,,,,,,,,,,,,,,,,,,,,,,,,,,,,,,,,,,,,,959.6147864999948,None,,,,,,,,,,,,,,,,,,,,,,,,,,,,,,,,,,,vessel,59,100,silent,red,957.5994188999757,None,None,957.5994188999757,None,,,,,,,,,,,,,,,,,,,,,,,,,,,,,,3,001,2023_Jan_30_1118,ExactRep-v3-final,2021.2.3,59.906210819583976,
,,,,,,,,100,0,100,0,,,,,,,,,,,,,,,,,,,,,,,,,,,,,,,,,,,,,,,,,,,,,,,,,,,,,962.1173298999202,None,,,,,,,,,,,,,,,,,,,,,,,,,,,,,,,,,,,book,56,101,silent,red,960.1152966999216,None,None,960.1152966999216,None,,,,,,,,,,,,,,,,,,,,,,,,,,,,,,3,001,2023_Jan_30_1118,ExactRep-v3-final,2021.2.3,59.906210819583976,
,,,,,,,,101,0,101,0,,,,,,,,,,,,,,,,,,,,,,,,,,,,,,,,,,,,,,,,,,,,,,,,,,,,,964.6365109999897,None,,,,,,,,,,,,,,,,,,,,,,,,,,,,,,,,,,,corn,38,102,sing,white,962.6233667000197,None,None,962.6233667000197,None,,,,,,,,,,,,,,,,,,,,,,,,,,,,,,3,001,2023_Jan_30_1118,ExactRep-v3-final,2021.2.3,59.906210819583976,
,,,,,,,,102,0,102,0,,,,,,,,,,,,,,,,,,,,,,,,,,,,,,,,,,,,,,,,,,,,,,,,,,,,,967.1390123999445,None,,,,,,,,,,,,,,,,,,,,,,,,,,,,,,,,,,,window,5,103,sing,white,965.1372171000112,None,None,965.1372171000112,None,,,,,,,,,,,,,,,,,,,,,,,,,,,,,,3,001,2023_Jan_30_1118,ExactRep-v3-final,2021.2.3,59.906210819583976,
,,,,,,,,103,0,103,0,,,,,,,,,,,,,,,,,,,,,,,,,,,,,,,,,,,,,,,,,,,,,,,,,,,,,969.642255899962,None,,,,,,,,,,,,,,,,,,,,,,,,,,,,,,,,,,,memory,93,104,aloud,blue,967.6395941999508,None,None,967.6395941999508,None,,,,,,,,,,,,,,,,,,,,,,,,,,,,,,3,001,2023_Jan_30_1118,ExactRep-v3-final,2021.2.3,59.906210819583976,
,,,,,,,,104,0,104,0,,,,,,,,,,,,,,,,,,,,,,,,,,,,,,,,,,,,,,,,,,,,,,,,,,,,,972.1606563000241,None,,,,,,,,,,,,,,,,,,,,,,,,,,,,,,,,,,,fun,107,105,aloud,blue,970.1506118000252,None,None,970.1506118000252,None,,,,,,,,,,,,,,,,,,,,,,,,,,,,,,3,001,2023_Jan_30_1118,ExactRep-v3-final,2021.2.3,59.906210819583976,
,,,,,,,,105,0,105,0,,,,,,,,,,,,,,,,,,,,,,,,,,,,,,,,,,,,,,,,,,,,,,,,,,,,,974.6631920000073,None,,,,,,,,,,,,,,,,,,,,,,,,,,,,,,,,,,,opinion,116,106,aloud,blue,972.6615791999502,None,None,972.6615791999502,None,,,,,,,,,,,,,,,,,,,,,,,,,,,,,,3,001,2023_Jan_30_1118,ExactRep-v3-final,2021.2.3,59.906210819583976,
,,,,,,,,106,0,106,0,,,,,,,,,,,,,,,,,,,,,,,,,,,,,,,,,,,,,,,,,,,,,,,,,,,,,977.1823991999263,None,,,,,,,,,,,,,,,,,,,,,,,,,,,,,,,,,,,murder,75,107,silent,red,975.1667655999772,None,None,975.1667655999772,None,,,,,,,,,,,,,,,,,,,,,,,,,,,,,,3,001,2023_Jan_30_1118,ExactRep-v3-final,2021.2.3,59.906210819583976,
,,,,,,,,107,0,107,0,,,,,,,,,,,,,,,,,,,,,,,,,,,,,,,,,,,,,,,,,,,,,,,,,,,,,979.6848333999515,None,,,,,,,,,,,,,,,,,,,,,,,,,,,,,,,,,,,safety,20,108,sing,white,977.6829135000007,None,None,977.6829135000007,None,,,,,,,,,,,,,,,,,,,,,,,,,,,,,,3,001,2023_Jan_30_1118,ExactRep-v3-final,2021.2.3,59.906210819583976,
,,,,,,,,108,0,108,0,,,,,,,,,,,,,,,,,,,,,,,,,,,,,,,,,,,,,,,,,,,,,,,,,,,,,982.1873858999461,None,,,,,,,,,,,,,,,,,,,,,,,,,,,,,,,,,,,fire,46,109,silent,red,980.1877466000151,None,None,980.1877466000151,None,,,,,,,,,,,,,,,,,,,,,,,,,,,,,,3,001,2023_Jan_30_1118,ExactRep-v3-final,2021.2.3,59.906210819583976,
,,,,,,,,109,0,109,0,,,,,,,,,,,,,,,,,,,,,,,,,,,,,,,,,,,,,,,,,,,,,,,,,,,,,984.7065333999926,None,,,,,,,,,,,,,,,,,,,,,,,,,,,,,,,,,,,bird,14,110,sing,white,982.6909753999207,None,None,982.6909753999207,None,,,,,,,,,,,,,,,,,,,,,,,,,,,,,,3,001,2023_Jan_30_1118,ExactRep-v3-final,2021.2.3,59.906210819583976,
,,,,,,,,110,0,110,0,,,,,,,,,,,,,,,,,,,,,,,,,,,,,,,,,,,,,,,,,,,,,,,,,,,,,987.2090396999847,None,,,,,,,,,,,,,,,,,,,,,,,,,,,,,,,,,,,village,50,111,silent,red,985.2070238000015,None,None,985.2070238000015,None,,,,,,,,,,,,,,,,,,,,,,,,,,,,,,3,001,2023_Jan_30_1118,ExactRep-v3-final,2021.2.3,59.906210819583976,
,,,,,,,,111,0,111,0,,,,,,,,,,,,,,,,,,,,,,,,,,,,,,,,,,,,,,,,,,,,,,,,,,,,,989.728032700019,None,,,,,,,,,,,,,,,,,,,,,,,,,,,,,,,,,,,nail,24,112,sing,white,987.7158761000028,None,None,987.7158761000028,None,,,,,,,,,,,,,,,,,,,,,,,,,,,,,,3,001,2023_Jan_30_1118,ExactRep-v3-final,2021.2.3,59.906210819583976,
,,,,,,,,112,0,112,0,,,,,,,,,,,,,,,,,,,,,,,,,,,,,,,,,,,,,,,,,,,,,,,,,,,,,992.2307767999591,None,,,,,,,,,,,,,,,,,,,,,,,,,,,,,,,,,,,humour,10,113,sing,white,990.228805199964,None,None,990.228805199964,None,,,,,,,,,,,,,,,,,,,,,,,,,,,,,,3,001,2023_Jan_30_1118,ExactRep-v3-final,2021.2.3,59.906210819583976,
,,,,,,,,113,0,113,0,,,,,,,,,,,,,,,,,,,,,,,,,,,,,,,,,,,,,,,,,,,,,,,,,,,,,994.7332172000315,None,,,,,,,,,,,,,,,,,,,,,,,,,,,,,,,,,,,seat,35,114,sing,white,992.7331656999886,None,None,992.7331656999886,None,,,,,,,,,,,,,,,,,,,,,,,,,,,,,,3,001,2023_Jan_30_1118,ExactRep-v3-final,2021.2.3,59.906210819583976,
,,,,,,,,114,0,114,0,,,,,,,,,,,,,,,,,,,,,,,,,,,,,,,,,,,,,,,,,,,,,,,,,,,,,997.2357005999656,None,,,,,,,,,,,,,,,,,,,,,,,,,,,,,,,,,,,student,87,115,aloud,blue,995.2352652000263,None,None,995.2352652000263,None,,,,,,,,,,,,,,,,,,,,,,,,,,,,,,3,001,2023_Jan_30_1118,ExactRep-v3-final,2021.2.3,59.906210819583976,
,,,,,,,,115,0,115,0,,,,,,,,,,,,,,,,,,,,,,,,,,,,,,,,,,,,,,,,,,,,,,,,,,,,,999.754878000007,None,,,,,,,,,,,,,,,,,,,,,,,,,,,,,,,,,,,passion,68,116,silent,red,997.7445133000147,None,None,997.7445133000147,None,,,,,,,,,,,,,,,,,,,,,,,,,,,,,,3,001,2023_Jan_30_1118,ExactRep-v3-final,2021.2.3,59.906210819583976,
,,,,,,,,116,0,116,0,,,,,,,,,,,,,,,,,,,,,,,,,,,,,,,,,,,,,,,,,,,,,,,,,,,,,1002.2575283999322,None,,,,,,,,,,,,,,,,,,,,,,,,,,,,,,,,,,,cat,101,117,aloud,blue,1000.255392299965,None,None,1000.255392299965,None,,,,,,,,,,,,,,,,,,,,,,,,,,,,,,3,001,2023_Jan_30_1118,ExactRep-v3-final,2021.2.3,59.906210819583976,
,,,,,,,,117,0,117,0,,,,,,,,,,,,,,,,,,,,,,,,,,,,,,,,,,,,,,,,,,,,,,,,,,,,,1004.7766635000007,None,,,,,,,,,,,,,,,,,,,,,,,,,,,,,,,,,,,car,30,118,sing,white,1002.7662920999574,None,None,1002.7662920999574,None,,,,,,,,,,,,,,,,,,,,,,,,,,,,,,3,001,2023_Jan_30_1118,ExactRep-v3-final,2021.2.3,59.906210819583976,
,,,,,,,,118,0,118,0,,,,,,,,,,,,,,,,,,,,,,,,,,,,,,,,,,,,,,,,,,,,,,,,,,,,,1007.2958539000247,None,,,,,,,,,,,,,,,,,,,,,,,,,,,,,,,,,,,cottage,96,119,aloud,blue,1005.2813414999982,None,None,1005.2813414999982,None,,,,,,,,,,,,,,,,,,,,,,,,,,,,,,3,001,2023_Jan_30_1118,ExactRep-v3-final,2021.2.3,59.906210819583976,
,,,,,,,,119,0,119,0,,,,,,,,,,,,,,,,,,,,,,,,,,,,,,,,,,,,,,,,,,,,,,,,,,,,,1009.7984370000195,None,,,,,,,,,,,,,,,,,,,,,,,,,,,,,,,,,,,doctor,42,120,silent,red,1007.796268099919,None,None,1007.796268099919,None,,,,,,,,,,,,,,,,,,,,,,,,,,,,,,3,001,2023_Jan_30_1118,ExactRep-v3-final,2021.2.3,59.906210819583976,
,,,,,,,,,,,,,,,,,,,,,,,,,,,,,,,,,,,,,,,,,,,,,,,,,,,,,,,,,,,,,,,,,,,,,,,,,,,,,,,,,,,,,,,,,,,,,,,,,,,,,,,,,,,,,,1010.3005479000276,None,space,7.532308699912392,1020.2767351999646,None,,,,,,,,,,,,,,,,,,,,,,,,3,001,2023_Jan_30_1118,ExactRep-v3-final,2021.2.3,59.906210819583976,
,,,,,,,,,,,,,,,,,,,,,,,,,,,,,,,,,,,,,,,,,,,,,,,,,,,,,,,,,,,,,,,,,,,,,,,,,,,,,,,,,,,,,,,,,,,,,,,,,,,,,,,,,,,,,,,,,,,,1027.834464399959,None,space,37.67030419991352,1037.8110594999744,None,,,,,,,,,,,,,,,,,,3,001,2023_Jan_30_1118,ExactRep-v3-final,2021.2.3,59.906210819583976,
,,,,,,,,,,,,0,0,0,0,,,,,,,,,,,,,,,,,,,,,,,,,,,,,,,,,,,,,,,,,,,,,,,,,1085.8595003000228,None,,,,,,,,,,,,,,,,,,,,,,,,,,,,,,,,,,,,,,,,,,,,,,,,,,,,,,,,,woods,126,1,silent,new,red,1076.00846859999,None,n,1076.00846859999,None,"['n', 'return']","[2.9764514999696985, 9.808460999978706]",1076.00846859999,None,,,3,001,2023_Jan_30_1118,ExactRep-v3-final,2021.2.3,59.906210819583976,
,,,,,,,,,,,,1,0,1,0,,,,,,,,,,,,,,,,,,,,,,,,,,,,,,,,,,,,,,,,,,,,,,,,,1091.7468079000246,None,,,,,,,,,,,,,,,,,,,,,,,,,,,,,,,,,,,,,,,,,,,,,,,,,,,,,,,,,valley,17,2,sing,old,white,1086.38057379995,None,y,1086.38057379995,None,"['y', 'return']","[4.028428700054064, 5.324363899999298]",1086.38057379995,None,,,3,001,2023_Jan_30_1118,ExactRep-v3-final,2021.2.3,59.906210819583976,
,,,,,,,,,,,,2,0,2,0,,,,,,,,,,,,,,,,,,,,,,,,,,,,,,,,,,,,,,,,,,,,,,,,,1098.1042661999818,None,,,,,,,,,,,,,,,,,,,,,,,,,,,,,,,,,,,,,,,,,,,,,,,,,,,,,,,,,winter,220,3,aloud,new,blue,1092.258819199982,None,n,1092.258819199982,None,"['n', 'return']","[5.166047099977732, 5.798167899949476]",1092.258819199982,None,,,3,001,2023_Jan_30_1118,ExactRep-v3-final,2021.2.3,59.906210819583976,
,,,,,,,,,,,,3,0,3,0,,,,,,,,,,,,,,,,,,,,,,,,,,,,,,,,,,,,,,,,,,,,,,,,,1103.9923687999835,None,,,,,,,,,,,,,,,,,,,,,,,,,,,,,,,,,,,,,,,,,,,,,,,,,,,,,,,,,prison,210,4,aloud,new,blue,1098.6155482999748,None,n,1098.6155482999748,None,"['n', 'return']","[4.297459700028412, 5.329389299964532]",1098.6155482999748,None,,,3,001,2023_Jan_30_1118,ExactRep-v3-final,2021.2.3,59.906210819583976,
,,,,,,,,,,,,4,0,4,0,,,,,,,,,,,,,,,,,,,,,,,,,,,,,,,,,,,,,,,,,,,,,,,,,1111.2329469999531,None,,,,,,,,,,,,,,,,,,,,,,,,,,,,,,,,,,,,,,,,,,,,,,,,,,,,,,,,,city,129,5,silent,new,red,1104.5033756999765,None,n,1104.5033756999765,None,"['n', 'return']","[5.833779599983245, 6.689641100005247]",1104.5033756999765,None,,,3,001,2023_Jan_30_1118,ExactRep-v3-final,2021.2.3,59.906210819583976,
,,,,,,,,,,,,5,0,5,0,,,,,,,,,,,,,,,,,,,,,,,,,,,,,,,,,,,,,,,,,,,,,,,,,1115.13681419997,None,,,,,,,,,,,,,,,,,,,,,,,,,,,,,,,,,,,,,,,,,,,,,,,,,,,,,,,,,season,139,6,silent,new,red,1111.7452021000208,None,n,1111.7452021000208,None,"['n', 'return']","[2.335790100041777, 3.3437530000228435]",1111.7452021000208,None,,,3,001,2023_Jan_30_1118,ExactRep-v3-final,2021.2.3,59.906210819583976,
,,,,,,,,,,,,6,0,6,0,,,,,,,,,,,,,,,,,,,,,,,,,,,,,,,,,,,,,,,,,,,,,,,,,1119.3910815999843,None,,,,,,,,,,,,,,,,,,,,,,,,,,,,,,,,,,,,,,,,,,,,,,,,,,,,,,,,,street,160,7,aloud,new,blue,1115.6465380999725,None,n,1115.6465380999725,None,"['n', 'return']","[3.298464299994521, 3.7063831000123173]",1115.6465380999725,None,,,3,001,2023_Jan_30_1118,ExactRep-v3-final,2021.2.3,59.906210819583976,
,,,,,,,,,,,,7,0,7,0,,,,,,,,,,,,,,,,,,,,,,,,,,,,,,,,,,,,,,,,,,,,,,,,,1124.7308577999938,None,,,,,,,,,,,,,,,,,,,,,,,,,,,,,,,,,,,,,,,,,,,,,,,,,,,,,,,,,meat,1,8,sing,old,white,1119.908967299969,None,y,1119.908967299969,None,"['y', 'return']","[4.380059299990535, 4.779935500002466]",1119.908967299969,None,,,3,001,2023_Jan_30_1118,ExactRep-v3-final,2021.2.3,59.906210819583976,
,,,,,,,,,,,,8,0,8,0,,,,,,,,,,,,,,,,,,,,,,,,,,,,,,,,,,,,,,,,,,,,,,,,,1132.1577503000153,None,,,,,,,,,,,,,,,,,,,,,,,,,,,,,,,,,,,,,,,,,,,,,,,,,,,,,,,,,lord,34,9,sing,old,white,1125.2384607000276,None,n,1125.2384607000276,None,"['n', 'return']","[6.330397900077514, 6.87449800001923]",1125.2384607000276,None,,,3,001,2023_Jan_30_1118,ExactRep-v3-final,2021.2.3,59.906210819583976,
,,,,,,,,,,,,9,0,9,0,,,,,,,,,,,,,,,,,,,,,,,,,,,,,,,,,,,,,,,,,,,,,,,,,1138.9618635999504,None,,,,,,,,,,,,,,,,,,,,,,,,,,,,,,,,,,,,,,,,,,,,,,,,,,,,,,,,,rod,44,10,silent,old,red,1132.6794696999714,None,n,1132.6794696999714,None,"['n', 'return']","[5.90547749993857, 6.249455399927683]",1132.6794696999714,None,,,3,001,2023_Jan_30_1118,ExactRep-v3-final,2021.2.3,59.906210819583976,
,,,,,,,,,,,,10,0,10,0,,,,,,,,,,,,,,,,,,,,,,,,,,,,,,,,,,,,,,,,,,,,,,,,,1145.9857234000228,None,,,,,,,,,,,,,,,,,,,,,,,,,,,,,,,,,,,,,,,,,,,,,,,,,,,,,,,,,plant,238,11,aloud,new,blue,1139.4807134999428,None,n,1139.4807134999428,None,"['n', 'return']","[5.832233699969947, 6.464228299912065]",1139.4807134999428,None,,,3,001,2023_Jan_30_1118,ExactRep-v3-final,2021.2.3,59.906210819583976,
,,,,,,,,,,,,11,0,11,0,,,,,,,,,,,,,,,,,,,,,,,,,,,,,,,,,,,,,,,,,,,,,,,,,1155.2935692999745,None,,,,,,,,,,,,,,,,,,,,,,,,,,,,,,,,,,,,,,,,,,,,,,,,,,,,,,,,,maiden,97,12,aloud,old,blue,1146.497234600014,None,n,1146.497234600014,None,"['n', 'return']","[8.327817400102504, 8.75167870009318]",1146.497234600014,None,,,3,001,2023_Jan_30_1118,ExactRep-v3-final,2021.2.3,59.906210819583976,
,,,,,,,,,,,,12,0,12,0,,,,,,,,,,,,,,,,,,,,,,,,,,,,,,,,,,,,,,,,,,,,,,,,,1159.64800809999,None,,,,,,,,,,,,,,,,,,,,,,,,,,,,,,,,,,,,,,,,,,,,,,,,,,,,,,,,,glory,94,13,aloud,old,blue,1155.8016092999605,None,n,1155.8016092999605,None,"['n', 'return']","[3.431440799962729, 3.8073770999908447]",1155.8016092999605,None,,,3,001,2023_Jan_30_1118,ExactRep-v3-final,2021.2.3,59.906210819583976,
,,,,,,,,,,,,13,0,13,0,,,,,,,,,,,,,,,,,,,,,,,,,,,,,,,,,,,,,,,,,,,,,,,,,1165.5383339999244,None,,,,,,,,,,,,,,,,,,,,,,,,,,,,,,,,,,,,,,,,,,,,,,,,,,,,,,,,,journal,124,14,silent,new,red,1160.156808199943,None,n,1160.156808199943,None,"['n', 'return']","[4.996126800077036, 5.348152399994433]",1160.156808199943,None,,,3,001,2023_Jan_30_1118,ExactRep-v3-final,2021.2.3,59.906210819583976,
,,,,,,,,,,,,14,0,14,0,,,,,,,,,,,,,,,,,,,,,,,,,,,,,,,,,,,,,,,,,,,,,,,,,1168.6570615000091,None,,,,,,,,,,,,,,,,,,,,,,,,,,,,,,,,,,,,,,,,,,,,,,,,,,,,,,,,,advice,218,15,aloud,new,blue,1166.0494570999872,None,n,1166.0494570999872,None,"['n', 'return']","[2.2234146000118926, 2.5596297000302]",1166.0494570999872,None,,,3,001,2023_Jan_30_1118,ExactRep-v3-final,2021.2.3,59.906210819583976,
,,,,,,,,,,,,15,0,15,0,,,,,,,,,,,,,,,,,,,,,,,,,,,,,,,,,,,,,,,,,,,,,,,,,1171.426424699952,None,,,,,,,,,,,,,,,,,,,,,,,,,,,,,,,,,,,,,,,,,,,,,,,,,,,,,,,,,love,60,16,silent,old,red,1169.1706389000174,None,n,1169.1706389000174,None,"['n', 'return']","[1.8942717999452725, 2.222298300010152]",1169.1706389000174,None,,,3,001,2023_Jan_30_1118,ExactRep-v3-final,2021.2.3,59.906210819583976,
,,,,,,,,,,,,16,0,16,0,,,,,,,,,,,,,,,,,,,,,,,,,,,,,,,,,,,,,,,,,,,,,,,,,1174.0957631999627,None,,,,,,,,,,,,,,,,,,,,,,,,,,,,,,,,,,,,,,,,,,,,,,,,,,,,,,,,,apple,163,17,sing,new,white,1171.933493199991,None,n,1171.933493199991,None,"['n', 'return']","[1.795426300028339, 2.1235038000158966]",1171.933493199991,None,,,3,001,2023_Jan_30_1118,ExactRep-v3-final,2021.2.3,59.906210819583976,
,,,,,,,,,,,,17,0,17,0,,,,,,,,,,,,,,,,,,,,,,,,,,,,,,,,,,,,,,,,,,,,,,,,,1176.7150391000323,None,,,,,,,,,,,,,,,,,,,,,,,,,,,,,,,,,,,,,,,,,,,,,,,,,,,,,,,,,volume,58,18,silent,old,red,1174.6103219999932,None,n,1174.6103219999932,None,"['n', 'return']","[1.6306879000039771, 2.070621300023049]",1174.6103219999932,None,,,3,001,2023_Jan_30_1118,ExactRep-v3-final,2021.2.3,59.906210819583976,
,,,,,,,,,,,,18,0,18,0,,,,,,,,,,,,,,,,,,,,,,,,,,,,,,,,,,,,,,,,,,,,,,,,,1178.4667577999644,None,,,,,,,,,,,,,,,,,,,,,,,,,,,,,,,,,,,,,,,,,,,,,,,,,,,,,,,,,law,152,19,silent,new,red,1177.2243207999272,None,n,1177.2243207999272,None,"['n', 'return']","[0.896620300016366, 1.20859890000429]",1177.2243207999272,None,,,3,001,2023_Jan_30_1118,ExactRep-v3-final,2021.2.3,59.906210819583976,
,,,,,,,,,,,,19,0,19,0,,,,,,,,,,,,,,,,,,,,,,,,,,,,,,,,,,,,,,,,,,,,,,,,,1182.2205697000027,None,,,,,,,,,,,,,,,,,,,,,,,,,,,,,,,,,,,,,,,,,,,,,,,,,,,,,,,,,corner,110,20,aloud,old,blue,1178.9768088000128,None,y,1178.9768088000128,None,"['y', 'return']","[2.600195499951951, 3.2000716999173164]",1178.9768088000128,None,,,3,001,2023_Jan_30_1118,ExactRep-v3-final,2021.2.3,59.906210819583976,
,,,,,,,,,,,,20,0,20,0,,,,,,,,,,,,,,,,,,,,,,,,,,,,,,,,,,,,,,,,,,,,,,,,,1184.6229385000188,None,,,,,,,,,,,,,,,,,,,,,,,,,,,,,,,,,,,,,,,,,,,,,,,,,,,,,,,,,length,113,21,aloud,old,blue,1182.7342945999699,None,n,1182.7342945999699,None,"['n', 'return']","[1.538775899913162, 1.8507227000081912]",1182.7342945999699,None,,,3,001,2023_Jan_30_1118,ExactRep-v3-final,2021.2.3,59.906210819583976,
,,,,,,,,,,,,21,0,21,0,,,,,,,,,,,,,,,,,,,,,,,,,,,,,,,,,,,,,,,,,,,,,,,,,1188.5768743000226,None,,,,,,,,,,,,,,,,,,,,,,,,,,,,,,,,,,,,,,,,,,,,,,,,,,,,,,,,,string,69,22,silent,old,red,1185.1326531999512,None,n,1185.1326531999512,None,"['n', 'return']","[3.076235199929215, 3.3963749000104144]",1185.1326531999512,None,,,3,001,2023_Jan_30_1118,ExactRep-v3-final,2021.2.3,59.906210819583976,
,,,,,,,,,,,,22,0,22,0,,,,,,,,,,,,,,,,,,,,,,,,,,,,,,,,,,,,,,,,,,,,,,,,,1206.0943953000242,None,,,,,,,,,,,,,,,,,,,,,,,,,,,,,,,,,,,,,,,,,,,,,,,,,,,,,,,,,stone,3,23,sing,old,white,1189.0958742999937,None,n,1189.0958742999937,None,"['n', 'return']","[16.617060699965805, 16.95321279997006]",1189.0958742999937,None,,,3,001,2023_Jan_30_1118,ExactRep-v3-final,2021.2.3,59.906210819583976,
,,,,,,,,,,,,23,0,23,0,,,,,,,,,,,,,,,,,,,,,,,,,,,,,,,,,,,,,,,,,,,,,,,,,1211.7512140999315,None,,,,,,,,,,,,,,,,,,,,,,,,,,,,,,,,,,,,,,,,,,,,,,,,,,,,,,,,,custom,112,24,aloud,old,blue,1206.6045033999253,None,n,1206.6045033999253,None,"['n', 'return']","[4.036505800089799, 5.108451700070873]",1206.6045033999253,None,,,3,001,2023_Jan_30_1118,ExactRep-v3-final,2021.2.3,59.906210819583976,
,,,,,,,,,,,,24,0,24,0,,,,,,,,,,,,,,,,,,,,,,,,,,,,,,,,,,,,,,,,,,,,,,,,,1214.5027692000149,None,,,,,,,,,,,,,,,,,,,,,,,,,,,,,,,,,,,,,,,,,,,,,,,,,,,,,,,,,lake,199,25,sing,new,white,1212.266174599994,None,n,1212.266174599994,None,"['n', 'return']","[1.9026896000141278, 2.1908133000833914]",1212.266174599994,None,,,3,001,2023_Jan_30_1118,ExactRep-v3-final,2021.2.3,59.906210819583976,
,,,,,,,,,,,,25,0,25,0,,,,,,,,,,,,,,,,,,,,,,,,,,,,,,,,,,,,,,,,,,,,,,,,,1216.6382612999296,None,,,,,,,,,,,,,,,,,,,,,,,,,,,,,,,,,,,,,,,,,,,,,,,,,,,,,,,,,method,73,26,silent,old,red,1215.015036799945,None,n,1215.015036799945,None,"['n', 'return']","[1.257912499946542, 1.577952399966307]",1215.015036799945,None,,,3,001,2023_Jan_30_1118,ExactRep-v3-final,2021.2.3,59.906210819583976,
,,,,,,,,,,,,26,0,26,0,,,,,,,,,,,,,,,,,,,,,,,,,,,,,,,,,,,,,,,,,,,,,,,,,1219.457737699966,None,,,,,,,,,,,,,,,,,,,,,,,,,,,,,,,,,,,,,,,,,,,,,,,,,,,,,,,,,chair,179,27,sing,new,white,1217.1542001999915,None,n,1217.1542001999915,None,"['n', 'return']","[1.9907975000096485, 2.2706687999889255]",1217.1542001999915,None,,,3,001,2023_Jan_30_1118,ExactRep-v3-final,2021.2.3,59.906210819583976,
,,,,,,,,,,,,27,0,27,0,,,,,,,,,,,,,,,,,,,,,,,,,,,,,,,,,,,,,,,,,,,,,,,,,1223.9802394999424,None,,,,,,,,,,,,,,,,,,,,,,,,,,,,,,,,,,,,,,,,,,,,,,,,,,,,,,,,,clock,232,28,aloud,new,blue,1219.9654846999329,None,n,1219.9654846999329,None,"['n', 'return']","[3.083662400022149, 3.9715886000776663]",1219.9654846999329,None,,,3,001,2023_Jan_30_1118,ExactRep-v3-final,2021.2.3,59.906210819583976,
,,,,,,,,,,,,28,0,28,0,,,,,,,,,,,,,,,,,,,,,,,,,,,,,,,,,,,,,,,,,,,,,,,,,1227.215490099974,None,,,,,,,,,,,,,,,,,,,,,,,,,,,,,,,,,,,,,,,,,,,,,,,,,,,,,,,,,bar,169,29,sing,new,white,1224.4872555999318,None,n,1224.4872555999318,None,"['n', 'return']","[2.169987400062382, 2.6897412000689656]",1224.4872555999318,None,,,3,001,2023_Jan_30_1118,ExactRep-v3-final,2021.2.3,59.906210819583976,
,,,,,,,,,,,,29,0,29,0,,,,,,,,,,,,,,,,,,,,,,,,,,,,,,,,,,,,,,,,,,,,,,,,,1232.6046775999712,None,,,,,,,,,,,,,,,,,,,,,,,,,,,,,,,,,,,,,,,,,,,,,,,,,,,,,,,,,body,192,30,aloud,new,blue,1227.719387399964,None,n,1227.719387399964,None,"['n', 'return']","[4.521584299975075, 4.841506999917328]",1227.719387399964,None,,,3,001,2023_Jan_30_1118,ExactRep-v3-final,2021.2.3,59.906210819583976,
,,,,,,,,,,,,30,0,30,0,,,,,,,,,,,,,,,,,,,,,,,,,,,,,,,,,,,,,,,,,,,,,,,,,1234.6241255999776,None,,,,,,,,,,,,,,,,,,,,,,,,,,,,,,,,,,,,,,,,,,,,,,,,,,,,,,,,,cat,101,31,aloud,old,blue,1233.1147538999794,None,n,1233.1147538999794,None,"['n', 'return']","[0.8622635999927297, 1.46231080009602]",1233.1147538999794,None,,,3,001,2023_Jan_30_1118,ExactRep-v3-final,2021.2.3,59.906210819583976,
,,,,,,,,,,,,31,0,31,0,,,,,,,,,,,,,,,,,,,,,,,,,,,,,,,,,,,,,,,,,,,,,,,,,1236.3079527999507,None,,,,,,,,,,,,,,,,,,,,,,,,,,,,,,,,,,,,,,,,,,,,,,,,,,,,,,,,,sea,92,32,aloud,old,blue,1235.1272679999238,None,n,1235.1272679999238,None,"['n', 'return']","[0.7780367999803275, 1.1377010999713093]",1235.1272679999238,None,,,3,001,2023_Jan_30_1118,ExactRep-v3-final,2021.2.3,59.906210819583976,
,,,,,,,,,,,,32,0,32,0,,,,,,,,,,,,,,,,,,,,,,,,,,,,,,,,,,,,,,,,,,,,,,,,,1238.5935513000004,None,,,,,,,,,,,,,,,,,,,,,,,,,,,,,,,,,,,,,,,,,,,,,,,,,,,,,,,,,disease,195,33,sing,new,white,1236.8181407999946,None,n,1236.8181407999946,None,"['n', 'return']","[1.3987439998891205, 1.734802099992521]",1236.8181407999946,None,,,3,001,2023_Jan_30_1118,ExactRep-v3-final,2021.2.3,59.906210819583976,
,,,,,,,,,,,,33,0,33,0,,,,,,,,,,,,,,,,,,,,,,,,,,,,,,,,,,,,,,,,,,,,,,,,,1240.2785949999234,None,,,,,,,,,,,,,,,,,,,,,,,,,,,,,,,,,,,,,,,,,,,,,,,,,,,,,,,,,insect,221,34,sing,new,white,1239.1030596999917,None,n,1239.1030596999917,None,"['n', 'return']","[0.8338657999411225, 1.1378674999577925]",1239.1030596999917,None,,,3,001,2023_Jan_30_1118,ExactRep-v3-final,2021.2.3,59.906210819583976,
,,,,,,,,,,,,34,0,34,0,,,,,,,,,,,,,,,,,,,,,,,,,,,,,,,,,,,,,,,,,,,,,,,,,1242.015200600028,None,,,,,,,,,,,,,,,,,,,,,,,,,,,,,,,,,,,,,,,,,,,,,,,,,,,,,,,,,soil,53,35,silent,old,red,1240.7892735999776,None,n,1240.7892735999776,None,"['n', 'return']","[0.8358281999826431, 1.1875540999462828]",1240.7892735999776,None,,,3,001,2023_Jan_30_1118,ExactRep-v3-final,2021.2.3,59.906210819583976,
,,,,,,,,,,,,35,0,35,0,,,,,,,,,,,,,,,,,,,,,,,,,,,,,,,,,,,,,,,,,,,,,,,,,1248.5701728999848,None,,,,,,,,,,,,,,,,,,,,,,,,,,,,,,,,,,,,,,,,,,,,,,,,,,,,,,,,,table,29,36,sing,old,white,1242.5251323999837,None,n,1242.5251323999837,None,"['n', 'return']","[5.555848599993624, 6.003816699958406]",1242.5251323999837,None,,,3,001,2023_Jan_30_1118,ExactRep-v3-final,2021.2.3,59.906210819583976,
,,,,,,,,,,,,36,0,36,0,,,,,,,,,,,,,,,,,,,,,,,,,,,,,,,,,,,,,,,,,,,,,,,,,1251.1895281999605,None,,,,,,,,,,,,,,,,,,,,,,,,,,,,,,,,,,,,,,,,,,,,,,,,,,,,,,,,,month,28,37,sing,old,white,1249.079336100025,None,n,1249.079336100025,None,"['n', 'return']","[1.5376296000322327, 2.0736221000552177]",1249.079336100025,None,,,3,001,2023_Jan_30_1118,ExactRep-v3-final,2021.2.3,59.906210819583976,
,,,,,,,,,,,,37,0,37,0,,,,,,,,,,,,,,,,,,,,,,,,,,,,,,,,,,,,,,,,,,,,,,,,,1252.9422923999373,None,,,,,,,,,,,,,,,,,,,,,,,,,,,,,,,,,,,,,,,,,,,,,,,,,,,,,,,,,cost,76,38,silent,old,red,1251.6950465999544,None,n,1251.6950465999544,None,"['n', 'return']","[0.9297772999852896, 1.2018639000598341]",1251.6950465999544,None,,,3,001,2023_Jan_30_1118,ExactRep-v3-final,2021.2.3,59.906210819583976,
,,,,,,,,,,,,38,0,38,0,,,,,,,,,,,,,,,,,,,,,,,,,,,,,,,,,,,,,,,,,,,,,,,,,1254.6813991999952,None,,,,,,,,,,,,,,,,,,,,,,,,,,,,,,,,,,,,,,,,,,,,,,,,,,,,,,,,,mercy,134,39,silent,new,red,1253.4534056999255,None,n,1253.4534056999255,None,"['n', 'return']","[0.8355235999915749, 1.1874962999718264]",1253.4534056999255,None,,,3,001,2023_Jan_30_1118,ExactRep-v3-final,2021.2.3,59.906210819583976,
,,,,,,,,,,,,39,0,39,0,,,,,,,,,,,,,,,,,,,,,,,,,,,,,,,,,,,,,,,,,,,,,,,,,1257.8628297999967,None,,,,,,,,,,,,,,,,,,,,,,,,,,,,,,,,,,,,,,,,,,,,,,,,,,,,,,,,,dollar,226,40,aloud,new,blue,1255.1935289999237,None,n,1255.1935289999237,None,"['n', 'return']","[2.1674679999705404, 2.631515600020066]",1255.1935289999237,None,,,3,001,2023_Jan_30_1118,ExactRep-v3-final,2021.2.3,59.906210819583976,
,,,,,,,,,,,,40,0,40,0,,,,,,,,,,,,,,,,,,,,,,,,,,,,,,,,,,,,,,,,,,,,,,,,,1259.8479262000183,None,,,,,,,,,,,,,,,,,,,,,,,,,,,,,,,,,,,,,,,,,,,,,,,,,,,,,,,,,flag,146,41,silent,new,red,1258.376715100021,None,n,1258.376715100021,None,"['n', 'return']","[1.0723051000386477, 1.432269599987194]",1258.376715100021,None,,,3,001,2023_Jan_30_1118,ExactRep-v3-final,2021.2.3,59.906210819583976,
,,,,,,,,,,,,41,0,41,0,,,,,,,,,,,,,,,,,,,,,,,,,,,,,,,,,,,,,,,,,,,,,,,,,1265.3539217999205,None,,,,,,,,,,,,,,,,,,,,,,,,,,,,,,,,,,,,,,,,,,,,,,,,,,,,,,,,,shock,108,42,aloud,old,blue,1260.3541774000041,None,n,1260.3541774000041,None,"['n', 'return']","[4.630843900027685, 4.958829700015485]",1260.3541774000041,None,,,3,001,2023_Jan_30_1118,ExactRep-v3-final,2021.2.3,59.906210819583976,
,,,,,,,,,,,,42,0,42,0,,,,,,,,,,,,,,,,,,,,,,,,,,,,,,,,,,,,,,,,,,,,,,,,,1269.1573284999467,None,,,,,,,,,,,,,,,,,,,,,,,,,,,,,,,,,,,,,,,,,,,,,,,,,,,,,,,,,market,229,43,sing,new,white,1265.8634389999788,None,n,1265.8634389999788,None,"['n', 'return']","[2.9457796999486163, 3.249374600010924]",1265.8634389999788,None,,,3,001,2023_Jan_30_1118,ExactRep-v3-final,2021.2.3,59.906210819583976,
,,,,,,,,,,,,43,0,43,0,,,,,,,,,,,,,,,,,,,,,,,,,,,,,,,,,,,,,,,,,,,,,,,,,1272.2938687999267,None,,,,,,,,,,,,,,,,,,,,,,,,,,,,,,,,,,,,,,,,,,,,,,,,,,,,,,,,,amount,171,44,sing,new,white,1269.6664422999602,None,n,1269.6664422999602,None,"['n', 'return']","[1.7746012000134215, 2.582553599961102]",1269.6664422999602,None,,,3,001,2023_Jan_30_1118,ExactRep-v3-final,2021.2.3,59.906210819583976,
,,,,,,,,,,,,44,0,44,0,,,,,,,,,,,,,,,,,,,,,,,,,,,,,,,,,,,,,,,,,,,,,,,,,1274.3294177999487,None,,,,,,,,,,,,,,,,,,,,,,,,,,,,,,,,,,,,,,,,,,,,,,,,,,,,,,,,,doctor,42,45,silent,old,red,1272.8023222000338,None,n,1272.8023222000338,None,"['n', 'return']","[1.142638000077568, 1.4867140999995172]",1272.8023222000338,None,,,3,001,2023_Jan_30_1118,ExactRep-v3-final,2021.2.3,59.906210819583976,
,,,,,,,,,,,,45,0,45,0,,,,,,,,,,,,,,,,,,,,,,,,,,,,,,,,,,,,,,,,,,,,,,,,,1276.1978089000331,None,,,,,,,,,,,,,,,,,,,,,,,,,,,,,,,,,,,,,,,,,,,,,,,,,,,,,,,,,grief,191,46,sing,new,white,1274.8373377999524,None,n,1274.8373377999524,None,"['n', 'return']","[0.971887500025332, 1.3155716999899596]",1274.8373377999524,None,,,3,001,2023_Jan_30_1118,ExactRep-v3-final,2021.2.3,59.906210819583976,
,,,,,,,,,,,,46,0,46,0,,,,,,,,,,,,,,,,,,,,,,,,,,,,,,,,,,,,,,,,,,,,,,,,,1278.3666277999291,None,,,,,,,,,,,,,,,,,,,,,,,,,,,,,,,,,,,,,,,,,,,,,,,,,,,,,,,,,pipe,23,47,sing,old,white,1276.699372199946,None,n,1276.699372199946,None,"['n', 'return']","[1.253686900017783, 1.6215458000078797]",1276.699372199946,None,,,3,001,2023_Jan_30_1118,ExactRep-v3-final,2021.2.3,59.906210819583976,
,,,,,,,,,,,,47,0,47,0,,,,,,,,,,,,,,,,,,,,,,,,,,,,,,,,,,,,,,,,,,,,,,,,,1280.7356708999723,None,,,,,,,,,,,,,,,,,,,,,,,,,,,,,,,,,,,,,,,,,,,,,,,,,,,,,,,,,butter,15,48,sing,old,white,1278.8773486999562,None,n,1278.8773486999562,None,"['n', 'return']","[1.5076608000090346, 1.8115898999385536]",1278.8773486999562,None,,,3,001,2023_Jan_30_1118,ExactRep-v3-final,2021.2.3,59.906210819583976,
,,,,,,,,,,,,48,0,48,0,,,,,,,,,,,,,,,,,,,,,,,,,,,,,,,,,,,,,,,,,,,,,,,,,1284.422918300028,None,,,,,,,,,,,,,,,,,,,,,,,,,,,,,,,,,,,,,,,,,,,,,,,,,,,,,,,,,artist,178,49,aloud,new,blue,1281.2471734000137,None,n,1281.2471734000137,None,"['n', 'return']","[2.8338203000603244, 3.129825600073673]",1281.2471734000137,None,,,3,001,2023_Jan_30_1118,ExactRep-v3-final,2021.2.3,59.906210819583976,
,,,,,,,,,,,,49,0,49,0,,,,,,,,,,,,,,,,,,,,,,,,,,,,,,,,,,,,,,,,,,,,,,,,,1289.1949795000255,None,,,,,,,,,,,,,,,,,,,,,,,,,,,,,,,,,,,,,,,,,,,,,,,,,,,,,,,,,justice,219,50,sing,new,white,1284.9274005999323,None,n,1284.9274005999323,None,"['n', 'return']","[2.7375576000194997, 4.2336184999439865]",1284.9274005999323,None,,,3,001,2023_Jan_30_1118,ExactRep-v3-final,2021.2.3,59.906210819583976,
,,,,,,,,,,,,50,0,50,0,,,,,,,,,,,,,,,,,,,,,,,,,,,,,,,,,,,,,,,,,,,,,,,,,1292.3138703999575,None,,,,,,,,,,,,,,,,,,,,,,,,,,,,,,,,,,,,,,,,,,,,,,,,,,,,,,,,,army,236,51,aloud,new,blue,1289.6998659999808,None,n,1289.6998659999808,None,"['n', 'return']","[2.2690175999887288, 2.5731088999891654]",1289.6998659999808,None,,,3,001,2023_Jan_30_1118,ExactRep-v3-final,2021.2.3,59.906210819583976,
,,,,,,,,,,,,51,0,51,0,,,,,,,,,,,,,,,,,,,,,,,,,,,,,,,,,,,,,,,,,,,,,,,,,1296.8350662000012,None,,,,,,,,,,,,,,,,,,,,,,,,,,,,,,,,,,,,,,,,,,,,,,,,,,,,,,,,,ability,18,52,sing,old,white,1292.825640099938,None,y,1292.825640099938,None,"['y', 'return']","[3.6392840000335127, 3.9752898999722674]",1292.825640099938,None,,,3,001,2023_Jan_30_1118,ExactRep-v3-final,2021.2.3,59.906210819583976,
,,,,,,,,,,,,52,0,52,0,,,,,,,,,,,,,,,,,,,,,,,,,,,,,,,,,,,,,,,,,,,,,,,,,1302.8744881999446,None,,,,,,,,,,,,,,,,,,,,,,,,,,,,,,,,,,,,,,,,,,,,,,,,,,,,,,,,,virtue,81,53,aloud,old,blue,1297.3449790999293,None,y,1297.3449790999293,None,"['y', 'return']","[5.1519375999923795, 5.496073400019668]",1297.3449790999293,None,,,3,001,2023_Jan_30_1118,ExactRep-v3-final,2021.2.3,59.906210819583976,
,,,,,,,,,,,,53,0,53,0,,,,,,,,,,,,,,,,,,,,,,,,,,,,,,,,,,,,,,,,,,,,,,,,,1306.4291103000287,None,,,,,,,,,,,,,,,,,,,,,,,,,,,,,,,,,,,,,,,,,,,,,,,,,,,,,,,,,iron,213,54,sing,new,white,1303.3867564999964,None,n,1303.3867564999964,None,"['n', 'return']","[2.7264161000493914, 3.0062460000626743]",1303.3867564999964,None,,,3,001,2023_Jan_30_1118,ExactRep-v3-final,2021.2.3,59.906210819583976,
,,,,,,,,,,,,54,0,54,0,,,,,,,,,,,,,,,,,,,,,,,,,,,,,,,,,,,,,,,,,,,,,,,,,1310.5988234999822,None,,,,,,,,,,,,,,,,,,,,,,,,,,,,,,,,,,,,,,,,,,,,,,,,,,,,,,,,,present,198,55,aloud,new,blue,1306.9390742999967,None,n,1306.9390742999967,None,"['n', 'return']","[1.893977400031872, 3.62194450001698]",1306.9390742999967,None,,,3,001,2023_Jan_30_1118,ExactRep-v3-final,2021.2.3,59.906210819583976,
,,,,,,,,,,,,55,0,55,0,,,,,,,,,,,,,,,,,,,,,,,,,,,,,,,,,,,,,,,,,,,,,,,,,1312.984389899997,None,,,,,,,,,,,,,,,,,,,,,,,,,,,,,,,,,,,,,,,,,,,,,,,,,,,,,,,,,chief,6,56,sing,old,white,1311.1082088999683,None,n,1311.1082088999683,None,"['n', 'return']","[1.5807497999630868, 1.8366045999573544]",1311.1082088999683,None,,,3,001,2023_Jan_30_1118,ExactRep-v3-final,2021.2.3,59.906210819583976,
,,,,,,,,,,,,56,0,56,0,,,,,,,,,,,,,,,,,,,,,,,,,,,,,,,,,,,,,,,,,,,,,,,,,1314.9209495999385,None,,,,,,,,,,,,,,,,,,,,,,,,,,,,,,,,,,,,,,,,,,,,,,,,,,,,,,,,,deed,181,57,sing,new,white,1313.4984950999497,None,n,1313.4984950999497,None,"['n', 'return']","[1.1346280999714509, 1.3824747999897227]",1313.4984950999497,None,,,3,001,2023_Jan_30_1118,ExactRep-v3-final,2021.2.3,59.906210819583976,
,,,,,,,,,,,,57,0,57,0,,,,,,,,,,,,,,,,,,,,,,,,,,,,,,,,,,,,,,,,,,,,,,,,,1329.7512649999699,None,,,,,,,,,,,,,,,,,,,,,,,,,,,,,,,,,,,,,,,,,,,,,,,,,,,,,,,,,owner,176,58,aloud,new,blue,1315.426279700012,None,n,1315.426279700012,None,"['n', 'return']","[10.590764999971725, 14.286673299968243]",1315.426279700012,None,,,3,001,2023_Jan_30_1118,ExactRep-v3-final,2021.2.3,59.906210819583976,
,,,,,,,,,,,,58,0,58,0,,,,,,,,,,,,,,,,,,,,,,,,,,,,,,,,,,,,,,,,,,,,,,,,,1334.8103582999902,None,,,,,,,,,,,,,,,,,,,,,,,,,,,,,,,,,,,,,,,,,,,,,,,,,,,,,,,,,garden,45,59,silent,old,red,1330.2618559999391,None,y,1330.2618559999391,None,"['y', 'return']","[4.0912355000618845, 4.4991473000263795]",1330.2618559999391,None,,,3,001,2023_Jan_30_1118,ExactRep-v3-final,2021.2.3,59.906210819583976,
,,,,,,,,,,,,59,0,59,0,,,,,,,,,,,,,,,,,,,,,,,,,,,,,,,,,,,,,,,,,,,,,,,,,1340.2951542999363,None,,,,,,,,,,,,,,,,,,,,,,,,,,,,,,,,,,,,,,,,,,,,,,,,,,,,,,,,,house,215,60,sing,new,white,1335.328133199946,None,n,1335.328133199946,None,"['n', 'return']","[4.617093400098383, 4.920855400036089]",1335.328133199946,None,,,3,001,2023_Jan_30_1118,ExactRep-v3-final,2021.2.3,59.906210819583976,
,,,,,,,,,,,,60,0,60,0,,,,,,,,,,,,,,,,,,,,,,,,,,,,,,,,,,,,,,,,,,,,,,,,,1344.266966599971,None,,,,,,,,,,,,,,,,,,,,,,,,,,,,,,,,,,,,,,,,,,,,,,,,,,,,,,,,,breast,115,61,aloud,old,blue,1340.7975908999797,None,y,1340.7975908999797,None,"['y', 'return']","[3.1076873000711203, 3.435282300109975]",1340.7975908999797,None,,,3,001,2023_Jan_30_1118,ExactRep-v3-final,2021.2.3,59.906210819583976,
,,,,,,,,,,,,61,0,61,0,,,,,,,,,,,,,,,,,,,,,,,,,,,,,,,,,,,,,,,,,,,,,,,,,1346.435810499941,None,,,,,,,,,,,,,,,,,,,,,,,,,,,,,,,,,,,,,,,,,,,,,,,,,,,,,,,,,grass,184,62,aloud,new,blue,1344.778489499935,None,n,1344.778489499935,None,"['n', 'return']","[1.3344585000304505, 1.622413800098002]",1344.778489499935,None,,,3,001,2023_Jan_30_1118,ExactRep-v3-final,2021.2.3,59.906210819583976,
,,,,,,,,,,,,62,0,62,0,,,,,,,,,,,,,,,,,,,,,,,,,,,,,,,,,,,,,,,,,,,,,,,,,1350.4386323000072,None,,,,,,,,,,,,,,,,,,,,,,,,,,,,,,,,,,,,,,,,,,,,,,,,,,,,,,,,,green,136,63,silent,new,red,1346.93860819994,None,n,1346.93860819994,None,"['n', 'return']","[3.150484799989499, 3.454431699938141]",1346.93860819994,None,,,3,001,2023_Jan_30_1118,ExactRep-v3-final,2021.2.3,59.906210819583976,
,,,,,,,,,,,,63,0,63,0,,,,,,,,,,,,,,,,,,,,,,,,,,,,,,,,,,,,,,,,,,,,,,,,,1352.293627099949,None,,,,,,,,,,,,,,,,,,,,,,,,,,,,,,,,,,,,,,,,,,,,,,,,,,,,,,,,,sugar,62,64,silent,old,red,1350.948963599978,None,n,1350.948963599978,None,"['n', 'return']","[1.0201508000027388, 1.2999940000008792]",1350.948963599978,None,,,3,001,2023_Jan_30_1118,ExactRep-v3-final,2021.2.3,59.906210819583976,
,,,,,,,,,,,,64,0,64,0,,,,,,,,,,,,,,,,,,,,,,,,,,,,,,,,,,,,,,,,,,,,,,,,,1354.008829499944,None,,,,,,,,,,,,,,,,,,,,,,,,,,,,,,,,,,,,,,,,,,,,,,,,,,,,,,,,,dawn,132,65,silent,new,red,1352.8150121999206,None,n,1352.8150121999206,None,"['n', 'return']","[0.8499649000586942, 1.1619901000522077]",1352.8150121999206,None,,,3,001,2023_Jan_30_1118,ExactRep-v3-final,2021.2.3,59.906210819583976,
,,,,,,,,,,,,65,0,65,0,,,,,,,,,,,,,,,,,,,,,,,,,,,,,,,,,,,,,,,,,,,,,,,,,1356.1276501999237,None,,,,,,,,,,,,,,,,,,,,,,,,,,,,,,,,,,,,,,,,,,,,,,,,,,,,,,,,,moral,141,66,silent,new,red,1354.5195539999986,None,n,1354.5195539999986,None,"['n', 'return']","[1.281284499913454, 1.5614005998941138]",1354.5195539999986,None,,,3,001,2023_Jan_30_1118,ExactRep-v3-final,2021.2.3,59.906210819583976,
,,,,,,,,,,,,66,0,66,0,,,,,,,,,,,,,,,,,,,,,,,,,,,,,,,,,,,,,,,,,,,,,,,,,1358.1306536999764,None,,,,,,,,,,,,,,,,,,,,,,,,,,,,,,,,,,,,,,,,,,,,,,,,,,,,,,,,,factory,135,67,silent,new,red,1356.635816999944,None,n,1356.635816999944,None,"['n', 'return']","[1.1812294999836013, 1.4531195000745356]",1356.635816999944,None,,,3,001,2023_Jan_30_1118,ExactRep-v3-final,2021.2.3,59.906210819583976,
,,,,,,,,,,,,67,0,67,0,,,,,,,,,,,,,,,,,,,,,,,,,,,,,,,,,,,,,,,,,,,,,,,,,1362.4507370999781,None,,,,,,,,,,,,,,,,,,,,,,,,,,,,,,,,,,,,,,,,,,,,,,,,,,,,,,,,,cash,83,68,aloud,old,blue,1358.6372832999332,None,y,1358.6372832999332,None,"['y', 'y', 'return']","[2.5638817000435665, 2.811766800004989, 3.7717049999628216]",1358.6372832999332,None,,,3,001,2023_Jan_30_1118,ExactRep-v3-final,2021.2.3,59.906210819583976,
,,,,,,,,,,,,68,0,68,0,,,,,,,,,,,,,,,,,,,,,,,,,,,,,,,,,,,,,,,,,,,,,,,,,1365.9719232999487,None,,,,,,,,,,,,,,,,,,,,,,,,,,,,,,,,,,,,,,,,,,,,,,,,,,,,,,,,,letter,100,69,aloud,old,blue,1362.9611250000307,None,n,1362.9611250000307,None,"['n', 'return']","[2.623978899908252, 2.975844100001268]",1362.9611250000307,None,,,3,001,2023_Jan_30_1118,ExactRep-v3-final,2021.2.3,59.906210819583976,
,,,,,,,,,,,,69,0,69,0,,,,,,,,,,,,,,,,,,,,,,,,,,,,,,,,,,,,,,,,,,,,,,,,,1368.373204799951,None,,,,,,,,,,,,,,,,,,,,,,,,,,,,,,,,,,,,,,,,,,,,,,,,,,,,,,,,,pride,231,70,sing,new,white,1366.4805524999974,None,n,1366.4805524999974,None,"['n', 'return']","[1.560391299892217, 1.848337100003846]",1366.4805524999974,None,,,3,001,2023_Jan_30_1118,ExactRep-v3-final,2021.2.3,59.906210819583976,
,,,,,,,,,,,,70,0,70,0,,,,,,,,,,,,,,,,,,,,,,,,,,,,,,,,,,,,,,,,,,,,,,,,,1370.3585097999312,None,,,,,,,,,,,,,,,,,,,,,,,,,,,,,,,,,,,,,,,,,,,,,,,,,,,,,,,,,event,204,71,aloud,new,blue,1368.8893820999656,None,n,1368.8893820999656,None,"['n', 'return']","[1.143557000090368, 1.4235874000005424]",1368.8893820999656,None,,,3,001,2023_Jan_30_1118,ExactRep-v3-final,2021.2.3,59.906210819583976,
,,,,,,,,,,,,71,0,71,0,,,,,,,,,,,,,,,,,,,,,,,,,,,,,,,,,,,,,,,,,,,,,,,,,1374.1956954000052,None,,,,,,,,,,,,,,,,,,,,,,,,,,,,,,,,,,,,,,,,,,,,,,,,,,,,,,,,,woman,208,72,aloud,new,blue,1370.8681197999977,None,n,1370.8681197999977,None,"['n', 'return']","[3.0370032999198884, 3.2848795999307185]",1370.8681197999977,None,,,3,001,2023_Jan_30_1118,ExactRep-v3-final,2021.2.3,59.906210819583976,
,,,,,,,,,,,,72,0,72,0,,,,,,,,,,,,,,,,,,,,,,,,,,,,,,,,,,,,,,,,,,,,,,,,,1375.864014999941,None,,,,,,,,,,,,,,,,,,,,,,,,,,,,,,,,,,,,,,,,,,,,,,,,,,,,,,,,,flower,197,73,sing,new,white,1374.7055148999207,None,n,1374.7055148999207,None,"['n', 'return']","[0.8794551000464708, 1.119431099970825]",1374.7055148999207,None,,,3,001,2023_Jan_30_1118,ExactRep-v3-final,2021.2.3,59.906210819583976,
,,,,,,,,,,,,73,0,73,0,,,,,,,,,,,,,,,,,,,,,,,,,,,,,,,,,,,,,,,,,,,,,,,,,1379.5677471000236,None,,,,,,,,,,,,,,,,,,,,,,,,,,,,,,,,,,,,,,,,,,,,,,,,,,,,,,,,,power,95,74,aloud,old,blue,1376.386596999946,None,n,1376.386596999946,None,"['n', 'return']","[2.854260199936107, 3.1344072999199852]",1376.386596999946,None,,,3,001,2023_Jan_30_1118,ExactRep-v3-final,2021.2.3,59.906210819583976,
,,,,,,,,,,,,74,0,74,0,,,,,,,,,,,,,,,,,,,,,,,,,,,,,,,,,,,,,,,,,,,,,,,,,1383.555023199995,None,,,,,,,,,,,,,,,,,,,,,,,,,,,,,,,,,,,,,,,,,,,,,,,,,,,,,,,,,blood,79,75,sing,old,white,1380.0867638000054,None,y,1380.0867638000054,None,"['y', 'return']","[3.0902090000454336, 3.4341978000011295]",1380.0867638000054,None,,,3,001,2023_Jan_30_1118,ExactRep-v3-final,2021.2.3,59.906210819583976,
,,,,,,,,,,,,75,0,75,0,,,,,,,,,,,,,,,,,,,,,,,,,,,,,,,,,,,,,,,,,,,,,,,,,1385.4569342000177,None,,,,,,,,,,,,,,,,,,,,,,,,,,,,,,,,,,,,,,,,,,,,,,,,,,,,,,,,,machine,16,76,sing,old,white,1384.0651693999534,None,n,1384.0651693999534,None,"['n', 'return']","[1.1038358999649063, 1.35180780000519]",1384.0651693999534,None,,,3,001,2023_Jan_30_1118,ExactRep-v3-final,2021.2.3,59.906210819583976,
,,,,,,,,,,,,76,0,76,0,,,,,,,,,,,,,,,,,,,,,,,,,,,,,,,,,,,,,,,,,,,,,,,,,1408.8136241999455,None,,,,,,,,,,,,,,,,,,,,,,,,,,,,,,,,,,,,,,,,,,,,,,,,,,,,,,,,,salary,159,77,silent,new,red,1385.9612678999547,None,n,1385.9612678999547,None,"['backspace', 'return', 'n', 'return']","[8.031851100036874, 8.903678600094281, 22.495737400022335, 22.815738000092097]",1385.9612678999547,None,,,3,001,2023_Jan_30_1118,ExactRep-v3-final,2021.2.3,59.906210819583976,
,,,,,,,,,,,,77,0,77,0,,,,,,,,,,,,,,,,,,,,,,,,,,,,,,,,,,,,,,,,,,,,,,,,,1410.4986441999208,None,,,,,,,,,,,,,,,,,,,,,,,,,,,,,,,,,,,,,,,,,,,,,,,,,,,,,,,,,dress,43,78,silent,old,red,1409.33124650002,None,n,1409.33124650002,None,"['n', 'return']","[0.8538412000052631, 1.1257208000170067]",1409.33124650002,None,,,3,001,2023_Jan_30_1118,ExactRep-v3-final,2021.2.3,59.906210819583976,
,,,,,,,,,,,,78,0,78,0,,,,,,,,,,,,,,,,,,,,,,,,,,,,,,,,,,,,,,,,,,,,,,,,,1414.3192737000063,None,,,,,,,,,,,,,,,,,,,,,,,,,,,,,,,,,,,,,,,,,,,,,,,,,,,,,,,,,coin,21,79,sing,old,white,1411.008405599976,None,y,1411.008405599976,None,"['y', 'return']","[2.9205621000146493, 3.2725835000164807]",1411.008405599976,None,,,3,001,2023_Jan_30_1118,ExactRep-v3-final,2021.2.3,59.906210819583976,
,,,,,,,,,,,,79,0,79,0,,,,,,,,,,,,,,,,,,,,,,,,,,,,,,,,,,,,,,,,,,,,,,,,,1416.6047394999769,None,,,,,,,,,,,,,,,,,,,,,,,,,,,,,,,,,,,,,,,,,,,,,,,,,,,,,,,,,pole,216,80,aloud,new,blue,1414.8255312999245,None,n,1414.8255312999245,None,"['n', 'return']","[1.4955594999482855, 1.7434798999456689]",1414.8255312999245,None,,,3,001,2023_Jan_30_1118,ExactRep-v3-final,2021.2.3,59.906210819583976,
,,,,,,,,,,,,80,0,80,0,,,,,,,,,,,,,,,,,,,,,,,,,,,,,,,,,,,,,,,,,,,,,,,,,1418.2241020000074,None,,,,,,,,,,,,,,,,,,,,,,,,,,,,,,,,,,,,,,,,,,,,,,,,,,,,,,,,,chance,180,81,aloud,new,blue,1417.1160085999873,None,n,1417.1160085999873,None,"['n', 'return']","[0.8291085000382736, 1.0689877000404522]",1417.1160085999873,None,,,3,001,2023_Jan_30_1118,ExactRep-v3-final,2021.2.3,59.906210819583976,
,,,,,,,,,,,,81,0,81,0,,,,,,,,,,,,,,,,,,,,,,,,,,,,,,,,,,,,,,,,,,,,,,,,,1420.441863899934,None,,,,,,,,,,,,,,,,,,,,,,,,,,,,,,,,,,,,,,,,,,,,,,,,,,,,,,,,,toy,157,82,silent,new,red,1418.73418889998,None,n,1418.73418889998,None,"['n', 'return']","[1.354666500003077, 1.6746275998884812]",1418.73418889998,None,,,3,001,2023_Jan_30_1118,ExactRep-v3-final,2021.2.3,59.906210819583976,
,,,,,,,,,,,,82,0,82,0,,,,,,,,,,,,,,,,,,,,,,,,,,,,,,,,,,,,,,,,,,,,,,,,,1426.5824920999585,None,,,,,,,,,,,,,,,,,,,,,,,,,,,,,,,,,,,,,,,,,,,,,,,,,,,,,,,,,duty,233,83,sing,new,white,1420.9508067999268,None,n,1420.9508067999268,None,"['n', 'return']","[5.274194800062105, 5.5861131000565365]",1420.9508067999268,None,,,3,001,2023_Jan_30_1118,ExactRep-v3-final,2021.2.3,59.906210819583976,
,,,,,,,,,,,,83,0,83,0,,,,,,,,,,,,,,,,,,,,,,,,,,,,,,,,,,,,,,,,,,,,,,,,,1428.8169159999816,None,,,,,,,,,,,,,,,,,,,,,,,,,,,,,,,,,,,,,,,,,,,,,,,,,,,,,,,,,college,37,84,sing,old,white,1427.0904036000138,None,y,1427.0904036000138,None,"['y', 'return']","[1.254573299898766, 1.6865983000025153]",1427.0904036000138,None,,,3,001,2023_Jan_30_1118,ExactRep-v3-final,2021.2.3,59.906210819583976,
,,,,,,,,,,,,84,0,84,0,,,,,,,,,,,,,,,,,,,,,,,,,,,,,,,,,,,,,,,,,,,,,,,,,1431.753186399932,None,,,,,,,,,,,,,,,,,,,,,,,,,,,,,,,,,,,,,,,,,,,,,,,,,,,,,,,,,shadow,98,85,aloud,old,blue,1429.3318194999592,None,n,1429.3318194999592,None,"['n', 'return']","[2.0852084000362083, 2.381172199966386]",1429.3318194999592,None,,,3,001,2023_Jan_30_1118,ExactRep-v3-final,2021.2.3,59.906210819583976,
,,,,,,,,,,,,85,0,85,0,,,,,,,,,,,,,,,,,,,,,,,,,,,,,,,,,,,,,,,,,,,,,,,,,1433.5717391999206,None,,,,,,,,,,,,,,,,,,,,,,,,,,,,,,,,,,,,,,,,,,,,,,,,,,,,,,,,,metal,57,86,silent,old,red,1432.2708859000122,None,n,1432.2708859000122,None,"['n', 'return']","[0.9859582999488339, 1.2660569000290707]",1432.2708859000122,None,,,3,001,2023_Jan_30_1118,ExactRep-v3-final,2021.2.3,59.906210819583976,
,,,,,,,,,,,,86,0,86,0,,,,,,,,,,,,,,,,,,,,,,,,,,,,,,,,,,,,,,,,,,,,,,,,,1435.256732299924,None,,,,,,,,,,,,,,,,,,,,,,,,,,,,,,,,,,,,,,,,,,,,,,,,,,,,,,,,,pupil,64,87,silent,old,red,1434.081097999937,None,n,1434.081097999937,None,"['n', 'return']","[0.8478302999865264, 1.135876000043936]",1434.081097999937,None,,,3,001,2023_Jan_30_1118,ExactRep-v3-final,2021.2.3,59.906210819583976,
,,,,,,,,,,,,87,0,87,0,,,,,,,,,,,,,,,,,,,,,,,,,,,,,,,,,,,,,,,,,,,,,,,,,1437.9927966999821,None,,,,,,,,,,,,,,,,,,,,,,,,,,,,,,,,,,,,,,,,,,,,,,,,,,,,,,,,,origin,185,88,sing,new,white,1435.7687874999829,None,n,1435.7687874999829,None,"['n', 'return']","[1.816157600027509, 2.176179000060074]",1435.7687874999829,None,,,3,001,2023_Jan_30_1118,ExactRep-v3-final,2021.2.3,59.906210819583976,
,,,,,,,,,,,,88,0,88,0,,,,,,,,,,,,,,,,,,,,,,,,,,,,,,,,,,,,,,,,,,,,,,,,,1439.9625352999428,None,,,,,,,,,,,,,,,,,,,,,,,,,,,,,,,,,,,,,,,,,,,,,,,,,,,,,,,,,skin,217,89,sing,new,white,1438.5067720999941,None,n,1438.5067720999941,None,"['n', 'return']","[1.1504576000152156, 1.4142268999712542]",1438.5067720999941,None,,,3,001,2023_Jan_30_1118,ExactRep-v3-final,2021.2.3,59.906210819583976,
,,,,,,,,,,,,89,0,89,0,,,,,,,,,,,,,,,,,,,,,,,,,,,,,,,,,,,,,,,,,,,,,,,,,1444.1834165999899,None,,,,,,,,,,,,,,,,,,,,,,,,,,,,,,,,,,,,,,,,,,,,,,,,,,,,,,,,,slave,105,90,aloud,old,blue,1440.4695086999564,None,n,1440.4695086999564,None,"['n', 'return']","[3.4114688000408933, 3.6755001000128686]",1440.4695086999564,None,,,3,001,2023_Jan_30_1118,ExactRep-v3-final,2021.2.3,59.906210819583976,
,,,,,,,,,,,,90,0,90,0,,,,,,,,,,,,,,,,,,,,,,,,,,,,,,,,,,,,,,,,,,,,,,,,,1445.867277799989,None,,,,,,,,,,,,,,,,,,,,,,,,,,,,,,,,,,,,,,,,,,,,,,,,,,,,,,,,,board,131,91,silent,new,red,1444.690427799942,None,n,1444.690427799942,None,"['n', 'return']","[0.8946304999990389, 1.1345280000241473]",1444.690427799942,None,,,3,001,2023_Jan_30_1118,ExactRep-v3-final,2021.2.3,59.906210819583976,
,,,,,,,,,,,,91,0,91,0,,,,,,,,,,,,,,,,,,,,,,,,,,,,,,,,,,,,,,,,,,,,,,,,,1447.48558759992,None,,,,,,,,,,,,,,,,,,,,,,,,,,,,,,,,,,,,,,,,,,,,,,,,,,,,,,,,,fate,55,92,silent,old,red,1446.3797871000133,None,n,1446.3797871000133,None,"['n', 'return']","[0.7891575000248849, 1.0692074000835419]",1446.3797871000133,None,,,3,001,2023_Jan_30_1118,ExactRep-v3-final,2021.2.3,59.906210819583976,
,,,,,,,,,,,,92,0,92,0,,,,,,,,,,,,,,,,,,,,,,,,,,,,,,,,,,,,,,,,,,,,,,,,,1449.5376270000124,None,,,,,,,,,,,,,,,,,,,,,,,,,,,,,,,,,,,,,,,,,,,,,,,,,,,,,,,,,flesh,175,93,sing,new,white,1447.9955949999858,None,n,1447.9955949999858,None,"['n', 'return']","[1.24551109992899, 1.5013971999287605]",1447.9955949999858,None,,,3,001,2023_Jan_30_1118,ExactRep-v3-final,2021.2.3,59.906210819583976,
,,,,,,,,,,,,93,0,93,0,,,,,,,,,,,,,,,,,,,,,,,,,,,,,,,,,,,,,,,,,,,,,,,,,1454.7261508000083,None,,,,,,,,,,,,,,,,,,,,,,,,,,,,,,,,,,,,,,,,,,,,,,,,,,,,,,,,,beast,66,94,silent,old,red,1450.0472063999623,None,y,1450.0472063999623,None,"['y', 'return']","[4.201841600006446, 4.633830799954012]",1450.0472063999623,None,,,3,001,2023_Jan_30_1118,ExactRep-v3-final,2021.2.3,59.906210819583976,
,,,,,,,,,,,,94,0,94,0,,,,,,,,,,,,,,,,,,,,,,,,,,,,,,,,,,,,,,,,,,,,,,,,,1456.8948515999364,None,,,,,,,,,,,,,,,,,,,,,,,,,,,,,,,,,,,,,,,,,,,,,,,,,,,,,,,,,soul,125,95,silent,new,red,1455.235242899973,None,n,1455.235242899973,None,"['n', 'return']","[1.3338145000161603, 1.613603200064972]",1455.235242899973,None,,,3,001,2023_Jan_30_1118,ExactRep-v3-final,2021.2.3,59.906210819583976,
,,,,,,,,,,,,95,0,95,0,,,,,,,,,,,,,,,,,,,,,,,,,,,,,,,,,,,,,,,,,,,,,,,,,1460.1482275000308,None,,,,,,,,,,,,,,,,,,,,,,,,,,,,,,,,,,,,,,,,,,,,,,,,,,,,,,,,,vision,7,96,sing,old,white,1457.4057041000342,None,y,1457.4057041000342,None,"['y', 'return']","[2.4193175999680534, 2.6992745000170544]",1457.4057041000342,None,,,3,001,2023_Jan_30_1118,ExactRep-v3-final,2021.2.3,59.906210819583976,
,,,,,,,,,,,,96,0,96,0,,,,,,,,,,,,,,,,,,,,,,,,,,,,,,,,,,,,,,,,,,,,,,,,,1462.1669146999484,None,,,,,,,,,,,,,,,,,,,,,,,,,,,,,,,,,,,,,,,,,,,,,,,,,,,,,,,,,palace,99,97,aloud,old,blue,1460.660391399986,None,y,1460.660391399986,None,"['y', 'return']","[1.180767299956642, 1.4686345999361947]",1460.660391399986,None,,,3,001,2023_Jan_30_1118,ExactRep-v3-final,2021.2.3,59.906210819583976,
,,,,,,,,,,,,97,0,97,0,,,,,,,,,,,,,,,,,,,,,,,,,,,,,,,,,,,,,,,,,,,,,,,,,1464.2190267000115,None,,,,,,,,,,,,,,,,,,,,,,,,,,,,,,,,,,,,,,,,,,,,,,,,,,,,,,,,,science,201,98,sing,new,white,1462.6766983999405,None,n,1462.6766983999405,None,"['n', 'return']","[1.220377300051041, 1.5082554999971762]",1462.6766983999405,None,,,3,001,2023_Jan_30_1118,ExactRep-v3-final,2021.2.3,59.906210819583976,
,,,,,,,,,,,,98,0,98,0,,,,,,,,,,,,,,,,,,,,,,,,,,,,,,,,,,,,,,,,,,,,,,,,,1467.0718172999332,None,,,,,,,,,,,,,,,,,,,,,,,,,,,,,,,,,,,,,,,,,,,,,,,,,,,,,,,,,vessel,59,99,silent,old,red,1464.7313274999615,None,y,1464.7313274999615,None,"['y', 'return']","[1.9417489999905229, 2.301683299941942]",1464.7313274999615,None,,,3,001,2023_Jan_30_1118,ExactRep-v3-final,2021.2.3,59.906210819583976,
,,,,,,,,,,,,99,0,99,0,,,,,,,,,,,,,,,,,,,,,,,,,,,,,,,,,,,,,,,,,,,,,,,,,1471.909850099939,None,,,,,,,,,,,,,,,,,,,,,,,,,,,,,,,,,,,,,,,,,,,,,,,,,,,,,,,,,fact,2,100,sing,old,white,1467.5803432000102,None,n,1467.5803432000102,None,"['n', 'return']","[4.012614500010386, 4.284676999901421]",1467.5803432000102,None,,,3,001,2023_Jan_30_1118,ExactRep-v3-final,2021.2.3,59.906210819583976,
,,,,,,,,,,,,100,0,100,0,,,,,,,,,,,,,,,,,,,,,,,,,,,,,,,,,,,,,,,,,,,,,,,,,1473.4615430999547,None,,,,,,,,,,,,,,,,,,,,,,,,,,,,,,,,,,,,,,,,,,,,,,,,,,,,,,,,,camp,149,101,silent,new,red,1472.4165605999297,None,n,1472.4165605999297,None,"['n', 'return']","[0.736364199896343, 1.0084374999860302]",1472.4165605999297,None,,,3,001,2023_Jan_30_1118,ExactRep-v3-final,2021.2.3,59.906210819583976,
,,,,,,,,,,,,101,0,101,0,,,,,,,,,,,,,,,,,,,,,,,,,,,,,,,,,,,,,,,,,,,,,,,,,1475.013093699934,None,,,,,,,,,,,,,,,,,,,,,,,,,,,,,,,,,,,,,,,,,,,,,,,,,,,,,,,,,health,151,102,silent,new,red,1473.9644865000155,None,n,1473.9644865000155,None,"['n', 'return']","[0.7564981000032276, 1.0125075000105426]",1473.9644865000155,None,,,3,001,2023_Jan_30_1118,ExactRep-v3-final,2021.2.3,59.906210819583976,
,,,,,,,,,,,,102,0,102,0,,,,,,,,,,,,,,,,,,,,,,,,,,,,,,,,,,,,,,,,,,,,,,,,,1476.5144226999255,None,,,,,,,,,,,,,,,,,,,,,,,,,,,,,,,,,,,,,,,,,,,,,,,,,,,,,,,,,speech,154,103,silent,new,red,1475.525286899996,None,n,1475.525286899996,None,"['n', 'return']","[0.7157295000506565, 0.95565430005081]",1475.525286899996,None,,,3,001,2023_Jan_30_1118,ExactRep-v3-final,2021.2.3,59.906210819583976,
,,,,,,,,,,,,103,0,103,0,,,,,,,,,,,,,,,,,,,,,,,,,,,,,,,,,,,,,,,,,,,,,,,,,1478.0005032999907,None,,,,,,,,,,,,,,,,,,,,,,,,,,,,,,,,,,,,,,,,,,,,,,,,,,,,,,,,,officer,78,104,silent,old,red,1477.0203030999983,None,n,1477.0203030999983,None,"['n', 'return']","[0.700687300064601, 0.9406644999980927]",1477.0203030999983,None,,,3,001,2023_Jan_30_1118,ExactRep-v3-final,2021.2.3,59.906210819583976,
,,,,,,,,,,,,104,0,104,0,,,,,,,,,,,,,,,,,,,,,,,,,,,,,,,,,,,,,,,,,,,,,,,,,1479.5843153999886,None,,,,,,,,,,,,,,,,,,,,,,,,,,,,,,,,,,,,,,,,,,,,,,,,,,,,,,,,,shore,49,105,silent,old,red,1478.5075269999215,None,n,1478.5075269999215,None,"['n', 'return']","[0.7018090999918059, 1.0294617000035942]",1478.5075269999215,None,,,3,001,2023_Jan_30_1118,ExactRep-v3-final,2021.2.3,59.906210819583976,
,,,,,,,,,,,,105,0,105,0,,,,,,,,,,,,,,,,,,,,,,,,,,,,,,,,,,,,,,,,,,,,,,,,,1481.185656299931,None,,,,,,,,,,,,,,,,,,,,,,,,,,,,,,,,,,,,,,,,,,,,,,,,,,,,,,,,,money,128,106,silent,new,red,1480.1043442999944,None,n,1480.1043442999944,None,"['n', 'return']","[0.808520800084807, 1.0485121000092477]",1480.1043442999944,None,,,3,001,2023_Jan_30_1118,ExactRep-v3-final,2021.2.3,59.906210819583976,
,,,,,,,,,,,,106,0,106,0,,,,,,,,,,,,,,,,,,,,,,,,,,,,,,,,,,,,,,,,,,,,,,,,,1484.756097399979,None,,,,,,,,,,,,,,,,,,,,,,,,,,,,,,,,,,,,,,,,,,,,,,,,,,,,,,,,,car,30,107,sing,old,white,1481.6934492000146,None,y,1481.6934492000146,None,"['y', 'return']","[2.539585000020452, 3.0195051999762654]",1481.6934492000146,None,,,3,001,2023_Jan_30_1118,ExactRep-v3-final,2021.2.3,59.906210819583976,
,,,,,,,,,,,,107,0,107,0,,,,,,,,,,,,,,,,,,,,,,,,,,,,,,,,,,,,,,,,,,,,,,,,,1486.9917673999444,None,,,,,,,,,,,,,,,,,,,,,,,,,,,,,,,,,,,,,,,,,,,,,,,,,,,,,,,,,potato,102,108,aloud,old,blue,1485.2567732000025,None,y,1485.2567732000025,None,"['y', 'return']","[1.3602180000161752, 1.688140399986878]",1485.2567732000025,None,,,3,001,2023_Jan_30_1118,ExactRep-v3-final,2021.2.3,59.906210819583976,
,,,,,,,,,,,,108,0,108,0,,,,,,,,,,,,,,,,,,,,,,,,,,,,,,,,,,,,,,,,,,,,,,,,,1488.89363159996,None,,,,,,,,,,,,,,,,,,,,,,,,,,,,,,,,,,,,,,,,,,,,,,,,,,,,,,,,,bowl,120,109,silent,new,red,1487.5038929999573,None,n,1487.5038929999573,None,"['n', 'return']","[1.0650592999299988, 1.353076500003226]",1487.5038929999573,None,,,3,001,2023_Jan_30_1118,ExactRep-v3-final,2021.2.3,59.906210819583976,
,,,,,,,,,,,,109,0,109,0,,,,,,,,,,,,,,,,,,,,,,,,,,,,,,,,,,,,,,,,,,,,,,,,,1490.5118959000101,None,,,,,,,,,,,,,,,,,,,,,,,,,,,,,,,,,,,,,,,,,,,,,,,,,,,,,,,,,shame,166,110,aloud,new,blue,1489.4060744999442,None,n,1489.4060744999442,None,"['n', 'return']","[0.7950598000315949, 1.0589665999868885]",1489.4060744999442,None,,,3,001,2023_Jan_30_1118,ExactRep-v3-final,2021.2.3,59.906210819583976,
,,,,,,,,,,,,110,0,110,0,,,,,,,,,,,,,,,,,,,,,,,,,,,,,,,,,,,,,,,,,,,,,,,,,1492.6139951000223,None,,,,,,,,,,,,,,,,,,,,,,,,,,,,,,,,,,,,,,,,,,,,,,,,,,,,,,,,,idea,174,111,aloud,new,blue,1491.020188299939,None,n,1491.020188299939,None,"['n', 'return']","[1.292758599971421, 1.5487787999445572]",1491.020188299939,None,,,3,001,2023_Jan_30_1118,ExactRep-v3-final,2021.2.3,59.906210819583976,
,,,,,,,,,,,,111,0,111,0,,,,,,,,,,,,,,,,,,,,,,,,,,,,,,,,,,,,,,,,,,,,,,,,,1500.6554678999819,None,,,,,,,,,,,,,,,,,,,,,,,,,,,,,,,,,,,,,,,,,,,,,,,,,,,,,,,,,silence,117,112,aloud,old,blue,1493.1237604999915,None,n,1493.1237604999915,None,"['n', 'backspace', 'n', 'return']","[1.2372968000127003, 3.005213399999775, 7.181352499988861, 7.485278300009668]",1493.1237604999915,None,,,3,001,2023_Jan_30_1118,ExactRep-v3-final,2021.2.3,59.906210819583976,
,,,,,,,,,,,,112,0,112,0,,,,,,,,,,,,,,,,,,,,,,,,,,,,,,,,,,,,,,,,,,,,,,,,,1505.8940308999736,None,,,,,,,,,,,,,,,,,,,,,,,,,,,,,,,,,,,,,,,,,,,,,,,,,,,,,,,,,horse,153,113,silent,new,red,1501.1642457999988,None,n,1501.1642457999988,None,"['n', 'return']","[2.3247445999877527, 4.684785299934447]",1501.1642457999988,None,,,3,001,2023_Jan_30_1118,ExactRep-v3-final,2021.2.3,59.906210819583976,
,,,,,,,,,,,,113,0,113,0,,,,,,,,,,,,,,,,,,,,,,,,,,,,,,,,,,,,,,,,,,,,,,,,,1509.1138029999565,None,,,,,,,,,,,,,,,,,,,,,,,,,,,,,,,,,,,,,,,,,,,,,,,,,,,,,,,,,fault,230,114,aloud,new,blue,1506.4054834999843,None,n,1506.4054834999843,None,"['n', 'return']","[2.3795547999907285, 2.6755078999558464]",1506.4054834999843,None,,,3,001,2023_Jan_30_1118,ExactRep-v3-final,2021.2.3,59.906210819583976,
,,,,,,,,,,,,114,0,114,0,,,,,,,,,,,,,,,,,,,,,,,,,,,,,,,,,,,,,,,,,,,,,,,,,1533.6383792000124,None,,,,,,,,,,,,,,,,,,,,,,,,,,,,,,,,,,,,,,,,,,,,,,,,,,,,,,,,,memory,93,115,aloud,old,blue,1509.6215332000284,None,n,1509.6215332000284,None,"['n', 'return']","[23.571660100016743, 23.97155300003942]",1509.6215332000284,None,,,3,001,2023_Jan_30_1118,ExactRep-v3-final,2021.2.3,59.906210819583976,
,,,,,,,,,,,,115,0,115,0,,,,,,,,,,,,,,,,,,,,,,,,,,,,,,,,,,,,,,,,,,,,,,,,,1535.423451700015,None,,,,,,,,,,,,,,,,,,,,,,,,,,,,,,,,,,,,,,,,,,,,,,,,,,,,,,,,,animal,162,116,aloud,new,blue,1534.1552649999503,None,n,1534.1552649999503,None,"['n', 'return']","[0.9737044000066817, 1.229748500045389]",1534.1552649999503,None,,,3,001,2023_Jan_30_1118,ExactRep-v3-final,2021.2.3,59.906210819583976,
,,,,,,,,,,,,116,0,116,0,,,,,,,,,,,,,,,,,,,,,,,,,,,,,,,,,,,,,,,,,,,,,,,,,1539.4776014999952,None,,,,,,,,,,,,,,,,,,,,,,,,,,,,,,,,,,,,,,,,,,,,,,,,,,,,,,,,,person,11,117,sing,old,white,1535.9328015999636,None,y,1535.9328015999636,None,"['y', 'return']","[3.1883021000539884, 3.5084482999518514]",1535.9328015999636,None,,,3,001,2023_Jan_30_1118,ExactRep-v3-final,2021.2.3,59.906210819583976,
,,,,,,,,,,,,117,0,117,0,,,,,,,,,,,,,,,,,,,,,,,,,,,,,,,,,,,,,,,,,,,,,,,,,1545.8020626999205,None,,,,,,,,,,,,,,,,,,,,,,,,,,,,,,,,,,,,,,,,,,,,,,,,,,,,,,,,,mother,61,118,silent,old,red,1539.9882940999232,None,n,1539.9882940999232,None,"['n', 'return']","[5.492817900027148, 5.780728599987924]",1539.9882940999232,None,,,3,001,2023_Jan_30_1118,ExactRep-v3-final,2021.2.3,59.906210819583976,
,,,,,,,,,,,,118,0,118,0,,,,,,,,,,,,,,,,,,,,,,,,,,,,,,,,,,,,,,,,,,,,,,,,,1547.8858918999322,None,,,,,,,,,,,,,,,,,,,,,,,,,,,,,,,,,,,,,,,,,,,,,,,,,,,,,,,,,mind,183,119,sing,new,white,1546.3282708999468,None,n,1546.3282708999468,None,"['n', 'return']","[1.1768342999275774, 1.5127574999351054]",1546.3282708999468,None,,,3,001,2023_Jan_30_1118,ExactRep-v3-final,2021.2.3,59.906210819583976,
,,,,,,,,,,,,119,0,119,0,,,,,,,,,,,,,,,,,,,,,,,,,,,,,,,,,,,,,,,,,,,,,,,,,1551.2225681999698,None,,,,,,,,,,,,,,,,,,,,,,,,,,,,,,,,,,,,,,,,,,,,,,,,,,,,,,,,,history,225,120,sing,new,white,1548.4018666000338,None,n,1548.4018666000338,None,"['n', 'return']","[2.4631670999806374, 2.775158300064504]",1548.4018666000338,None,,,3,001,2023_Jan_30_1118,ExactRep-v3-final,2021.2.3,59.906210819583976,
,,,,,,,,,,,,120,0,120,0,,,,,,,,,,,,,,,,,,,,,,,,,,,,,,,,,,,,,,,,,,,,,,,,,1557.1618891999824,None,,,,,,,,,,,,,,,,,,,,,,,,,,,,,,,,,,,,,,,,,,,,,,,,,,,,,,,,,king,114,121,aloud,old,blue,1551.7352264999645,None,n,1551.7352264999645,None,"['n', 'return']","[1.4817401999607682, 5.393664099974558]",1551.7352264999645,None,,,3,001,2023_Jan_30_1118,ExactRep-v3-final,2021.2.3,59.906210819583976,
,,,,,,,,,,,,121,0,121,0,,,,,,,,,,,,,,,,,,,,,,,,,,,,,,,,,,,,,,,,,,,,,,,,,1560.8488575000083,None,,,,,,,,,,,,,,,,,,,,,,,,,,,,,,,,,,,,,,,,,,,,,,,,,,,,,,,,,wine,85,122,aloud,old,blue,1557.6736052000197,None,n,1557.6736052000197,None,"['n', 'return']","[2.70341209997423, 3.12739939999301]",1557.6736052000197,None,,,3,001,2023_Jan_30_1118,ExactRep-v3-final,2021.2.3,59.906210819583976,
,,,,,,,,,,,,122,0,122,0,,,,,,,,,,,,,,,,,,,,,,,,,,,,,,,,,,,,,,,,,,,,,,,,,1564.00205869996,None,,,,,,,,,,,,,,,,,,,,,,,,,,,,,,,,,,,,,,,,,,,,,,,,,,,,,,,,,wheat,145,123,silent,new,red,1561.3585547999246,None,n,1561.3585547999246,None,"['n', 'return']","[1.1462906000670046, 2.610493000014685]",1561.3585547999246,None,,,3,001,2023_Jan_30_1118,ExactRep-v3-final,2021.2.3,59.906210819583976,
,,,,,,,,,,,,123,0,123,0,,,,,,,,,,,,,,,,,,,,,,,,,,,,,,,,,,,,,,,,,,,,,,,,,1566.9049174999818,None,,,,,,,,,,,,,,,,,,,,,,,,,,,,,,,,,,,,,,,,,,,,,,,,,,,,,,,,,fortune,8,124,sing,old,white,1564.5159420999698,None,n,1564.5159420999698,None,"['n', 'return']","[2.0369733000406995, 2.340977599960752]",1564.5159420999698,None,,,3,001,2023_Jan_30_1118,ExactRep-v3-final,2021.2.3,59.906210819583976,
,,,,,,,,,,,,124,0,124,0,,,,,,,,,,,,,,,,,,,,,,,,,,,,,,,,,,,,,,,,,,,,,,,,,1568.7734426999232,None,,,,,,,,,,,,,,,,,,,,,,,,,,,,,,,,,,,,,,,,,,,,,,,,,,,,,,,,,heaven,138,125,silent,new,red,1567.4196295000147,None,n,1567.4196295000147,None,"['n', 'return']","[0.9015091999899596, 1.3173948000185192]",1567.4196295000147,None,,,3,001,2023_Jan_30_1118,ExactRep-v3-final,2021.2.3,59.906210819583976,
,,,,,,,,,,,,125,0,125,0,,,,,,,,,,,,,,,,,,,,,,,,,,,,,,,,,,,,,,,,,,,,,,,,,1570.8590819999808,None,,,,,,,,,,,,,,,,,,,,,,,,,,,,,,,,,,,,,,,,,,,,,,,,,,,,,,,,,fur,237,126,sing,new,white,1569.273883100017,None,n,1569.273883100017,None,"['n', 'return']","[1.0712363999336958, 1.5431264999788254]",1569.273883100017,None,,,3,001,2023_Jan_30_1118,ExactRep-v3-final,2021.2.3,59.906210819583976,
,,,,,,,,,,,,126,0,126,0,,,,,,,,,,,,,,,,,,,,,,,,,,,,,,,,,,,,,,,,,,,,,,,,,1573.396579299937,None,,,,,,,,,,,,,,,,,,,,,,,,,,,,,,,,,,,,,,,,,,,,,,,,,,,,,,,,,leader,22,127,sing,old,white,1571.36796589999,None,y,1571.36796589999,None,"['y', 'return']","[1.5692375999642536, 1.9850870000664145]",1571.36796589999,None,,,3,001,2023_Jan_30_1118,ExactRep-v3-final,2021.2.3,59.906210819583976,
,,,,,,,,,,,,127,0,127,0,,,,,,,,,,,,,,,,,,,,,,,,,,,,,,,,,,,,,,,,,,,,,,,,,1575.012953999918,None,,,,,,,,,,,,,,,,,,,,,,,,,,,,,,,,,,,,,,,,,,,,,,,,,,,,,,,,,style,133,128,silent,new,red,1573.9189953999594,None,n,1573.9189953999594,None,"['n', 'return']","[0.7860162000870332, 1.049918600008823]",1573.9189953999594,None,,,3,001,2023_Jan_30_1118,ExactRep-v3-final,2021.2.3,59.906210819583976,
,,,,,,,,,,,,128,0,128,0,,,,,,,,,,,,,,,,,,,,,,,,,,,,,,,,,,,,,,,,,,,,,,,,,1576.7480904000113,None,,,,,,,,,,,,,,,,,,,,,,,,,,,,,,,,,,,,,,,,,,,,,,,,,,,,,,,,,library,143,129,silent,new,red,1575.5225324999774,None,n,1575.5225324999774,None,"['n', 'return']","[0.8785935000050813, 1.1824054999742657]",1575.5225324999774,None,,,3,001,2023_Jan_30_1118,ExactRep-v3-final,2021.2.3,59.906210819583976,
,,,,,,,,,,,,129,0,129,0,,,,,,,,,,,,,,,,,,,,,,,,,,,,,,,,,,,,,,,,,,,,,,,,,1580.5185306000058,None,,,,,,,,,,,,,,,,,,,,,,,,,,,,,,,,,,,,,,,,,,,,,,,,,,,,,,,,,teacher,228,130,aloud,new,blue,1577.2617570000002,None,n,1577.2617570000002,None,"['n', 'return']","[2.811237800051458, 3.2192813999718055]",1577.2617570000002,None,,,3,001,2023_Jan_30_1118,ExactRep-v3-final,2021.2.3,59.906210819583976,
,,,,,,,,,,,,130,0,130,0,,,,,,,,,,,,,,,,,,,,,,,,,,,,,,,,,,,,,,,,,,,,,,,,,1582.2873380000237,None,,,,,,,,,,,,,,,,,,,,,,,,,,,,,,,,,,,,,,,,,,,,,,,,,,,,,,,,,queen,137,131,silent,new,red,1581.0279147999827,None,n,1581.0279147999827,None,"['n', 'return']","[0.8131756000220776, 1.2131895000347868]",1581.0279147999827,None,,,3,001,2023_Jan_30_1118,ExactRep-v3-final,2021.2.3,59.906210819583976,
,,,,,,,,,,,,131,0,131,0,,,,,,,,,,,,,,,,,,,,,,,,,,,,,,,,,,,,,,,,,,,,,,,,,1584.2566313999705,None,,,,,,,,,,,,,,,,,,,,,,,,,,,,,,,,,,,,,,,,,,,,,,,,,,,,,,,,,truth,173,132,sing,new,white,1582.797808000003,None,n,1582.797808000003,None,"['n', 'return']","[1.1553125000791624, 1.4112841000314802]",1582.797808000003,None,,,3,001,2023_Jan_30_1118,ExactRep-v3-final,2021.2.3,59.906210819583976,
,,,,,,,,,,,,132,0,132,0,,,,,,,,,,,,,,,,,,,,,,,,,,,,,,,,,,,,,,,,,,,,,,,,,1596.2842657000292,None,,,,,,,,,,,,,,,,,,,,,,,,,,,,,,,,,,,,,,,,,,,,,,,,,,,,,,,,,judge,202,133,aloud,new,blue,1584.772402200033,None,n,1584.772402200033,None,"['n', 'return']","[10.892684300080873, 11.468716999981552]",1584.772402200033,None,,,3,001,2023_Jan_30_1118,ExactRep-v3-final,2021.2.3,59.906210819583976,
