trials_fam.thisRepN,trials_fam.thisTrialN,trials_fam.thisN,trials_fam.thisIndex,trials_prc.thisRepN,trials_prc.thisTrialN,trials_prc.thisN,trials_prc.thisIndex,StudyLoop.thisRepN,StudyLoop.thisTrialN,StudyLoop.thisN,StudyLoop.thisIndex,TestLoop.thisRepN,TestLoop.thisTrialN,TestLoop.thisN,TestLoop.thisIndex,text_colortest.started,text_colortest.stopped,key_colortest.keys,key_colortest.rt,key_colortest.started,key_colortest.stopped,textCondition.started,textCondition.stopped,keyCondition.keys,keyCondition.rt,keyCondition.started,keyCondition.stopped,Condition_between,Condition_counterbal,keyWelcome.keys,keyWelcome.rt,keyWelcome.started,keyWelcome.stopped,welcome_a.started,welcome_a.stopped,welcome_b.started,welcome_b.stopped,welcome_c.started,welcome_c.stopped,welcome_d.started,welcome_d.stopped,welcome_e.started,welcome_e.stopped,welcome_f.started,welcome_f.stopped,key_resp_fam_inst.keys,key_resp_fam_inst.rt,key_resp_fam_inst.started,key_resp_fam_inst.stopped,fam_a.started,fam_a.stopped,fam_b.started,fam_b.stopped,fam_c.started,fam_c.stopped,fam_d.started,fam_d.stopped,fam_e.started,fam_e.stopped,fam_f.started,fam_f.stopped,text_famil.started,text_famil.stopped,textBlank500.started,textBlank500.stopped,key_resp_prc_inst.keys,key_resp_prc_inst.rt,key_resp_prc_inst.started,key_resp_prc_inst.stopped,prac_a.started,prac_a.stopped,prac_b.started,prac_b.stopped,prac_c.started,prac_c.stopped,prac_d.started,prac_d.stopped,prac_e.started,prac_e.stopped,prac_f.started,prac_f.stopped,text_prc_trial.started,text_prc_trial.stopped,key_resp_study_inst.keys,key_resp_study_inst.rt,key_resp_study_inst.started,key_resp_study_inst.stopped,crit_a.started,crit_a.stopped,crit_b.started,crit_b.stopped,crit_c.started,crit_c.stopped,crit_d.started,crit_d.stopped,crit_e.started,crit_e.stopped,crit_f.started,crit_f.stopped,study_word,study_num,study_order,study_type,word_color,textStudy.started,textStudy.stopped,keyStudy.keys,keyStudy.started,keyStudy.stopped,post_study.started,post_study.stopped,key_resp_post_study.keys,key_resp_post_study.rt,key_resp_post_study.started,key_resp_post_study.stopped,test_inst.started,test_inst.stopped,key_resp_test_inst.keys,key_resp_test_inst.rt,key_resp_test_inst.started,key_resp_test_inst.stopped,test_word,test_num,test_order,test_condition,old_new_test,word_color_test,textConf.started,textConf.stopped,Participant Response,textInput.started,textInput.stopped,keyResp.keys,keyResp.rt,keyResp.started,keyResp.stopped,textEnd.started,textEnd.stopped,participant,session,date,expName,psychopyVersion,frameRate,
,,,,,,,,,,,,,,,,52.51080169994384,None,y,49.62713489960879,52.51080169994384,None,,,,,,,,,,,,,,,,,,,,,,,,,,,,,,,,,,,,,,,,,,,,,,,,,,,,,,,,,,,,,,,,,,,,,,,,,,,,,,,,,,,,,,,,,,,,,,,,,,,,,,,,,,,,,,,,,,,,,,40YD,001,2023_Apr_14_1150,ExactRep-v3-final,2021.2.3,59.95487785265527,
,,,,,,,,,,,,,,,,,,,,,,102.15604559984058,None,d,0.5178791992366314,102.15604559984058,None,,,,,,,,,,,,,,,,,,,,,,,,,,,,,,,,,,,,,,,,,,,,,,,,,,,,,,,,,,,,,,,,,,,,,,,,,,,,,,,,,,,,,,,,,,,,,,,,,,,,,,,,,,,,,,,,40YD,001,2023_Apr_14_1150,ExactRep-v3-final,2021.2.3,59.95487785265527,
,,,,,,,,,,,,,,,,,,,,,,,,,,,,colorfoils,d,space,3936.88712960016,112.83876639977098,None,,,,,,,,,,,,,,,,,,,,,,,,,,,,,,,,,,,,,,,,,,,,,,,,,,,,,,,,,,,,,,,,,,,,,,,,,,,,,,,,,,,,,,,,,,,,,,,,,,,,,,,,,,40YD,001,2023_Apr_14_1150,ExactRep-v3-final,2021.2.3,59.95487785265527,
,,,,,,,,,,,,,,,,,,,,,,,,,,,,,,,,,,102.8646656004712,None,102.8646656004712,None,102.8646656004712,None,102.8646656004712,None,102.8646656004712,None,102.8646656004712,None,space,14.987359199672937,4059.9386454997584,None,,,,,,,,,,,,,,,,,,,,,,,,,,,,,,,,,,,,,,,,,,,,,,,,,,,,,,,,,,,,,,,,,,,,,,,,,,,,,,,,,,,,,,,,,,40YD,001,2023_Apr_14_1150,ExactRep-v3-final,2021.2.3,59.95487785265527,
0,0,0,0,,,,,,,,,,,,,,,,,,,,,,,,,,,,,,,,,,,,,,,,,,,,,,,4050.000197700225,None,4050.000197700225,None,4050.000197700225,None,4050.000197700225,None,4050.000197700225,None,4050.000197700225,None,4075.0327364001423,None,4077.0311647001654,None,,,,,,,,,,,,,,,,,,,,,,,,,,,,,,,,,,,,,,,,,,,,,,,,,,,,,,,,,,,,,,,,,,,,,,,,,,40YD,001,2023_Apr_14_1150,ExactRep-v3-final,2021.2.3,59.95487785265527,
1,0,1,0,,,,,,,,,,,,,,,,,,,,,,,,,,,,,,,,,,,,,,,,,,,,,,,,,,,,,,,,,,,4077.5474047996104,None,4079.550337499939,None,,,,,,,,,,,,,,,,,,,,,,,,,,,,,,,,,,,,,,,,,,,,,,,,,,,,,,,,,,,,,,,,,,,,,,,,,,40YD,001,2023_Apr_14_1150,ExactRep-v3-final,2021.2.3,59.95487785265527,
2,0,2,0,,,,,,,,,,,,,,,,,,,,,,,,,,,,,,,,,,,,,,,,,,,,,,,,,,,,,,,,,,,4080.0506311999634,None,4082.052842600271,None,,,,,,,,,,,,,,,,,,,,,,,,,,,,,,,,,,,,,,,,,,,,,,,,,,,,,,,,,,,,,,,,,,,,,,,,,,40YD,001,2023_Apr_14_1150,ExactRep-v3-final,2021.2.3,59.95487785265527,
3,0,3,0,,,,,,,,,,,,,,,,,,,,,,,,,,,,,,,,,,,,,,,,,,,,,,,,,,,,,,,,,,,4082.553061200306,None,4084.5551533000544,None,,,,,,,,,,,,,,,,,,,,,,,,,,,,,,,,,,,,,,,,,,,,,,,,,,,,,,,,,,,,,,,,,,,,,,,,,,40YD,001,2023_Apr_14_1150,ExactRep-v3-final,2021.2.3,59.95487785265527,
4,0,4,0,,,,,,,,,,,,,,,,,,,,,,,,,,,,,,,,,,,,,,,,,,,,,,,,,,,,,,,,,,,4085.05736360047,None,4087.0578242000192,None,,,,,,,,,,,,,,,,,,,,,,,,,,,,,,,,,,,,,,,,,,,,,,,,,,,,,,,,,,,,,,,,,,,,,,,,,,40YD,001,2023_Apr_14_1150,ExactRep-v3-final,2021.2.3,59.95487785265527,
5,0,5,0,,,,,,,,,,,,,,,,,,,,,,,,,,,,,,,,,,,,,,,,,,,,,,,,,,,,,,,,,,,4087.558242799714,None,4089.56036259979,None,,,,,,,,,,,,,,,,,,,,,,,,,,,,,,,,,,,,,,,,,,,,,,,,,,,,,,,,,,,,,,,,,,,,,,,,,,40YD,001,2023_Apr_14_1150,ExactRep-v3-final,2021.2.3,59.95487785265527,
6,0,6,0,,,,,,,,,,,,,,,,,,,,,,,,,,,,,,,,,,,,,,,,,,,,,,,,,,,,,,,,,,,4090.0624436996877,None,4092.062867499888,None,,,,,,,,,,,,,,,,,,,,,,,,,,,,,,,,,,,,,,,,,,,,,,,,,,,,,,,,,,,,,,,,,,,,,,,,,,40YD,001,2023_Apr_14_1150,ExactRep-v3-final,2021.2.3,59.95487785265527,
7,0,7,0,,,,,,,,,,,,,,,,,,,,,,,,,,,,,,,,,,,,,,,,,,,,,,,,,,,,,,,,,,,4092.5633955998346,None,4094.5651267999783,None,,,,,,,,,,,,,,,,,,,,,,,,,,,,,,,,,,,,,,,,,,,,,,,,,,,,,,,,,,,,,,,,,,,,,,,,,,40YD,001,2023_Apr_14_1150,ExactRep-v3-final,2021.2.3,59.95487785265527,
8,0,8,0,,,,,,,,,,,,,,,,,,,,,,,,,,,,,,,,,,,,,,,,,,,,,,,,,,,,,,,,,,,4095.066131600179,None,4097.067626800388,None,,,,,,,,,,,,,,,,,,,,,,,,,,,,,,,,,,,,,,,,,,,,,,,,,,,,,,,,,,,,,,,,,,,,,,,,,,40YD,001,2023_Apr_14_1150,ExactRep-v3-final,2021.2.3,59.95487785265527,
9,0,9,0,,,,,,,,,,,,,,,,,,,,,,,,,,,,,,,,,,,,,,,,,,,,,,,,,,,,,,,,,,,4097.568443399854,None,4099.570535199717,None,,,,,,,,,,,,,,,,,,,,,,,,,,,,,,,,,,,,,,,,,,,,,,,,,,,,,,,,,,,,,,,,,,,,,,,,,,40YD,001,2023_Apr_14_1150,ExactRep-v3-final,2021.2.3,59.95487785265527,
10,0,10,0,,,,,,,,,,,,,,,,,,,,,,,,,,,,,,,,,,,,,,,,,,,,,,,,,,,,,,,,,,,4100.078328100033,None,4102.08958709985,None,,,,,,,,,,,,,,,,,,,,,,,,,,,,,,,,,,,,,,,,,,,,,,,,,,,,,,,,,,,,,,,,,,,,,,,,,,40YD,001,2023_Apr_14_1150,ExactRep-v3-final,2021.2.3,59.95487785265527,
11,0,11,0,,,,,,,,,,,,,,,,,,,,,,,,,,,,,,,,,,,,,,,,,,,,,,,,,,,,,,,,,,,4102.591252299957,None,4104.59165539965,None,,,,,,,,,,,,,,,,,,,,,,,,,,,,,,,,,,,,,,,,,,,,,,,,,,,,,,,,,,,,,,,,,,,,,,,,,,40YD,001,2023_Apr_14_1150,ExactRep-v3-final,2021.2.3,59.95487785265527,
12,0,12,0,,,,,,,,,,,,,,,,,,,,,,,,,,,,,,,,,,,,,,,,,,,,,,,,,,,,,,,,,,,4105.092743099667,None,4107.094662900083,None,,,,,,,,,,,,,,,,,,,,,,,,,,,,,,,,,,,,,,,,,,,,,,,,,,,,,,,,,,,,,,,,,,,,,,,,,,40YD,001,2023_Apr_14_1150,ExactRep-v3-final,2021.2.3,59.95487785265527,
13,0,13,0,,,,,,,,,,,,,,,,,,,,,,,,,,,,,,,,,,,,,,,,,,,,,,,,,,,,,,,,,,,4107.604558699764,None,4109.613708600402,None,,,,,,,,,,,,,,,,,,,,,,,,,,,,,,,,,,,,,,,,,,,,,,,,,,,,,,,,,,,,,,,,,,,,,,,,,,40YD,001,2023_Apr_14_1150,ExactRep-v3-final,2021.2.3,59.95487785265527,
14,0,14,0,,,,,,,,,,,,,,,,,,,,,,,,,,,,,,,,,,,,,,,,,,,,,,,,,,,,,,,,,,,4110.114203800447,None,4112.115802300163,None,,,,,,,,,,,,,,,,,,,,,,,,,,,,,,,,,,,,,,,,,,,,,,,,,,,,,,,,,,,,,,,,,,,,,,,,,,40YD,001,2023_Apr_14_1150,ExactRep-v3-final,2021.2.3,59.95487785265527,
,,,,,,,,,,,,,,,,,,,,,,,,,,,,,,,,,,,,,,,,,,,,,,,,,,,,,,,,,,,,,,,,,,space,16.07159300055355,4122.7585834003985,None,,,,,,,,,,,,,,,,,,,,,,,,,,,,,,,,,,,,,,,,,,,,,,,,,,,,,,,,,,,,,,,,,,,,,,40YD,001,2023_Apr_14_1150,ExactRep-v3-final,2021.2.3,59.95487785265527,
,,,,0,0,0,0,,,,,,,,,,,,,,,,,,,,,,,,,,,,,,,,,,,,,,,,,,,,,,,,,,,,,,,,,4140.944913499989,None,,,,,4112.828475800343,None,4112.828475800343,None,4112.828475800343,None,4112.828475800343,None,4112.828475800343,None,4112.828475800343,None,4138.938798000105,None,,,,,,,,,,,,,,,,,,,,,,,,,,,,,,,,,,,,,,,,,,,,,,,,,,,,,,,,40YD,001,2023_Apr_14_1150,ExactRep-v3-final,2021.2.3,59.95487785265527,
,,,,1,0,1,0,,,,,,,,,,,,,,,,,,,,,,,,,,,,,,,,,,,,,,,,,,,,,,,,,,,,,,,,,4143.447497500107,None,,,,,,,,,,,,,,,,,4141.445439700037,None,,,,,,,,,,,,,,,,,,,,,,,,,,,,,,,,,,,,,,,,,,,,,,,,,,,,,,,,40YD,001,2023_Apr_14_1150,ExactRep-v3-final,2021.2.3,59.95487785265527,
,,,,2,0,2,0,,,,,,,,,,,,,,,,,,,,,,,,,,,,,,,,,,,,,,,,,,,,,,,,,,,,,,,,,4145.950106999837,None,,,,,,,,,,,,,,,,,4143.948027499951,None,,,,,,,,,,,,,,,,,,,,,,,,,,,,,,,,,,,,,,,,,,,,,,,,,,,,,,,,40YD,001,2023_Apr_14_1150,ExactRep-v3-final,2021.2.3,59.95487785265527,
,,,,3,0,3,0,,,,,,,,,,,,,,,,,,,,,,,,,,,,,,,,,,,,,,,,,,,,,,,,,,,,,,,,,4148.452480399981,None,,,,,,,,,,,,,,,,,4146.450727299787,None,,,,,,,,,,,,,,,,,,,,,,,,,,,,,,,,,,,,,,,,,,,,,,,,,,,,,,,,40YD,001,2023_Apr_14_1150,ExactRep-v3-final,2021.2.3,59.95487785265527,
,,,,4,0,4,0,,,,,,,,,,,,,,,,,,,,,,,,,,,,,,,,,,,,,,,,,,,,,,,,,,,,,,,,,4150.955037999898,None,,,,,,,,,,,,,,,,,4148.953107899986,None,,,,,,,,,,,,,,,,,,,,,,,,,,,,,,,,,,,,,,,,,,,,,,,,,,,,,,,,40YD,001,2023_Apr_14_1150,ExactRep-v3-final,2021.2.3,59.95487785265527,
,,,,5,0,5,0,,,,,,,,,,,,,,,,,,,,,,,,,,,,,,,,,,,,,,,,,,,,,,,,,,,,,,,,,4153.457553699613,None,,,,,,,,,,,,,,,,,4151.455529799685,None,,,,,,,,,,,,,,,,,,,,,,,,,,,,,,,,,,,,,,,,,,,,,,,,,,,,,,,,40YD,001,2023_Apr_14_1150,ExactRep-v3-final,2021.2.3,59.95487785265527,
,,,,6,0,6,0,,,,,,,,,,,,,,,,,,,,,,,,,,,,,,,,,,,,,,,,,,,,,,,,,,,,,,,,,4155.960007200018,None,,,,,,,,,,,,,,,,,4153.958048400469,None,,,,,,,,,,,,,,,,,,,,,,,,,,,,,,,,,,,,,,,,,,,,,,,,,,,,,,,,40YD,001,2023_Apr_14_1150,ExactRep-v3-final,2021.2.3,59.95487785265527,
,,,,7,0,7,0,,,,,,,,,,,,,,,,,,,,,,,,,,,,,,,,,,,,,,,,,,,,,,,,,,,,,,,,,4158.462507800199,None,,,,,,,,,,,,,,,,,4156.460532699712,None,,,,,,,,,,,,,,,,,,,,,,,,,,,,,,,,,,,,,,,,,,,,,,,,,,,,,,,,40YD,001,2023_Apr_14_1150,ExactRep-v3-final,2021.2.3,59.95487785265527,
,,,,8,0,8,0,,,,,,,,,,,,,,,,,,,,,,,,,,,,,,,,,,,,,,,,,,,,,,,,,,,,,,,,,4160.9648053003475,None,,,,,,,,,,,,,,,,,4158.963023499586,None,,,,,,,,,,,,,,,,,,,,,,,,,,,,,,,,,,,,,,,,,,,,,,,,,,,,,,,,40YD,001,2023_Apr_14_1150,ExactRep-v3-final,2021.2.3,59.95487785265527,
,,,,9,0,9,0,,,,,,,,,,,,,,,,,,,,,,,,,,,,,,,,,,,,,,,,,,,,,,,,,,,,,,,,,4163.467259500176,None,,,,,,,,,,,,,,,,,4161.465155700222,None,,,,,,,,,,,,,,,,,,,,,,,,,,,,,,,,,,,,,,,,,,,,,,,,,,,,,,,,40YD,001,2023_Apr_14_1150,ExactRep-v3-final,2021.2.3,59.95487785265527,
,,,,10,0,10,0,,,,,,,,,,,,,,,,,,,,,,,,,,,,,,,,,,,,,,,,,,,,,,,,,,,,,,,,,4165.970033000223,None,,,,,,,,,,,,,,,,,4163.967875000089,None,,,,,,,,,,,,,,,,,,,,,,,,,,,,,,,,,,,,,,,,,,,,,,,,,,,,,,,,40YD,001,2023_Apr_14_1150,ExactRep-v3-final,2021.2.3,59.95487785265527,
,,,,11,0,11,0,,,,,,,,,,,,,,,,,,,,,,,,,,,,,,,,,,,,,,,,,,,,,,,,,,,,,,,,,4168.472605899908,None,,,,,,,,,,,,,,,,,4166.470575200394,None,,,,,,,,,,,,,,,,,,,,,,,,,,,,,,,,,,,,,,,,,,,,,,,,,,,,,,,,40YD,001,2023_Apr_14_1150,ExactRep-v3-final,2021.2.3,59.95487785265527,
,,,,12,0,12,0,,,,,,,,,,,,,,,,,,,,,,,,,,,,,,,,,,,,,,,,,,,,,,,,,,,,,,,,,4170.97507769987,None,,,,,,,,,,,,,,,,,4168.97301690001,None,,,,,,,,,,,,,,,,,,,,,,,,,,,,,,,,,,,,,,,,,,,,,,,,,,,,,,,,40YD,001,2023_Apr_14_1150,ExactRep-v3-final,2021.2.3,59.95487785265527,
,,,,13,0,13,0,,,,,,,,,,,,,,,,,,,,,,,,,,,,,,,,,,,,,,,,,,,,,,,,,,,,,,,,,4173.477540300228,None,,,,,,,,,,,,,,,,,4171.475560300052,None,,,,,,,,,,,,,,,,,,,,,,,,,,,,,,,,,,,,,,,,,,,,,,,,,,,,,,,,40YD,001,2023_Apr_14_1150,ExactRep-v3-final,2021.2.3,59.95487785265527,
,,,,14,0,14,0,,,,,,,,,,,,,,,,,,,,,,,,,,,,,,,,,,,,,,,,,,,,,,,,,,,,,,,,,4175.980201199651,None,,,,,,,,,,,,,,,,,4173.978052699938,None,,,,,,,,,,,,,,,,,,,,,,,,,,,,,,,,,,,,,,,,,,,,,,,,,,,,,,,,40YD,001,2023_Apr_14_1150,ExactRep-v3-final,2021.2.3,59.95487785265527,
,,,,,,,,,,,,,,,,,,,,,,,,,,,,,,,,,,,,,,,,,,,,,,,,,,,,,,,,,,,,,,,,,,,,,,,,,,,,,,,,,,,,space,13.557590099982917,4186.672528400086,None,,,,,,,,,,,,,,,,,,,,,,,,,,,,,,,,,,,,,,,,,,,,,,,,,,,,40YD,001,2023_Apr_14_1150,ExactRep-v3-final,2021.2.3,59.95487785265527,
,,,,,,,,0,0,0,0,,,,,,,,,,,,,,,,,,,,,,,,,,,,,,,,,,,,,,,,,,,,,,,,,,,,,4202.339802700095,None,,,,,,,,,,,,,,,,,,,,,,,4176.683172499761,None,4176.683172499761,None,4176.683172499761,None,4176.683172499761,None,4176.683172499761,None,4176.683172499761,None,judge,29,1,sing,red,4200.335817700252,None,None,4200.335817700252,None,,,,,,,,,,,,,,,,,,,,,,,,,,,,,,40YD,001,2023_Apr_14_1150,ExactRep-v3-final,2021.2.3,59.95487785265527,
,,,,,,,,1,0,1,0,,,,,,,,,,,,,,,,,,,,,,,,,,,,,,,,,,,,,,,,,,,,,,,,,,,,,4204.858980700374,None,,,,,,,,,,,,,,,,,,,,,,,,,,,,,,,,,,,style,4,2,sing,red,4202.848110100254,None,None,4202.848110100254,None,,,,,,,,,,,,,,,,,,,,,,,,,,,,,,40YD,001,2023_Apr_14_1150,ExactRep-v3-final,2021.2.3,59.95487785265527,
,,,,,,,,2,0,2,0,,,,,,,,,,,,,,,,,,,,,,,,,,,,,,,,,,,,,,,,,,,,,,,,,,,,,4207.3778916997835,None,,,,,,,,,,,,,,,,,,,,,,,,,,,,,,,,,,,winter,77,3,silent,white,4205.363447999582,None,None,4205.363447999582,None,,,,,,,,,,,,,,,,,,,,,,,,,,,,,,40YD,001,2023_Apr_14_1150,ExactRep-v3-final,2021.2.3,59.95487785265527,
,,,,,,,,3,0,3,0,,,,,,,,,,,,,,,,,,,,,,,,,,,,,,,,,,,,,,,,,,,,,,,,,,,,,4209.897202400491,None,,,,,,,,,,,,,,,,,,,,,,,,,,,,,,,,,,,church,45,4,silent,white,4207.882109500468,None,None,4207.882109500468,None,,,,,,,,,,,,,,,,,,,,,,,,,,,,,,40YD,001,2023_Apr_14_1150,ExactRep-v3-final,2021.2.3,59.95487785265527,
,,,,,,,,4,0,4,0,,,,,,,,,,,,,,,,,,,,,,,,,,,,,,,,,,,,,,,,,,,,,,,,,,,,,4212.416118199937,None,,,,,,,,,,,,,,,,,,,,,,,,,,,,,,,,,,,party,102,5,aloud,blue,4210.404393300414,None,None,4210.404393300414,None,,,,,,,,,,,,,,,,,,,,,,,,,,,,,,40YD,001,2023_Apr_14_1150,ExactRep-v3-final,2021.2.3,59.95487785265527,
,,,,,,,,5,0,5,0,,,,,,,,,,,,,,,,,,,,,,,,,,,,,,,,,,,,,,,,,,,,,,,,,,,,,4214.919329600409,None,,,,,,,,,,,,,,,,,,,,,,,,,,,,,,,,,,,bottle,108,6,aloud,blue,4212.916979500093,None,None,4212.916979500093,None,,,,,,,,,,,,,,,,,,,,,,,,,,,,,,40YD,001,2023_Apr_14_1150,ExactRep-v3-final,2021.2.3,59.95487785265527,
,,,,,,,,6,0,6,0,,,,,,,,,,,,,,,,,,,,,,,,,,,,,,,,,,,,,,,,,,,,,,,,,,,,,4217.421177200042,None,,,,,,,,,,,,,,,,,,,,,,,,,,,,,,,,,,,palace,68,7,silent,white,4215.4193674996495,None,None,4215.4193674996495,None,,,,,,,,,,,,,,,,,,,,,,,,,,,,,,40YD,001,2023_Apr_14_1150,ExactRep-v3-final,2021.2.3,59.95487785265527,
,,,,,,,,7,0,7,0,,,,,,,,,,,,,,,,,,,,,,,,,,,,,,,,,,,,,,,,,,,,,,,,,,,,,4219.94073870033,None,,,,,,,,,,,,,,,,,,,,,,,,,,,,,,,,,,,nail,64,8,silent,white,4217.927493300289,None,None,4217.927493300289,None,,,,,,,,,,,,,,,,,,,,,,,,,,,,,,40YD,001,2023_Apr_14_1150,ExactRep-v3-final,2021.2.3,59.95487785265527,
,,,,,,,,8,0,8,0,,,,,,,,,,,,,,,,,,,,,,,,,,,,,,,,,,,,,,,,,,,,,,,,,,,,,4222.442941900343,None,,,,,,,,,,,,,,,,,,,,,,,,,,,,,,,,,,,earth,41,9,silent,white,4220.441041699611,None,None,4220.441041699611,None,,,,,,,,,,,,,,,,,,,,,,,,,,,,,,40YD,001,2023_Apr_14_1150,ExactRep-v3-final,2021.2.3,59.95487785265527,
,,,,,,,,9,0,9,0,,,,,,,,,,,,,,,,,,,,,,,,,,,,,,,,,,,,,,,,,,,,,,,,,,,,,4224.962386700325,None,,,,,,,,,,,,,,,,,,,,,,,,,,,,,,,,,,,event,16,10,sing,red,4222.958754500374,None,None,4222.958754500374,None,,,,,,,,,,,,,,,,,,,,,,,,,,,,,,40YD,001,2023_Apr_14_1150,ExactRep-v3-final,2021.2.3,59.95487785265527,
,,,,,,,,10,0,10,0,,,,,,,,,,,,,,,,,,,,,,,,,,,,,,,,,,,,,,,,,,,,,,,,,,,,,4227.464865599759,None,,,,,,,,,,,,,,,,,,,,,,,,,,,,,,,,,,,rod,113,11,aloud,blue,4225.464898699895,None,None,4225.464898699895,None,,,,,,,,,,,,,,,,,,,,,,,,,,,,,,40YD,001,2023_Apr_14_1150,ExactRep-v3-final,2021.2.3,59.95487785265527,
,,,,,,,,11,0,11,0,,,,,,,,,,,,,,,,,,,,,,,,,,,,,,,,,,,,,,,,,,,,,,,,,,,,,4229.984064900316,None,,,,,,,,,,,,,,,,,,,,,,,,,,,,,,,,,,,coffee,11,12,sing,red,4227.970576999709,None,None,4227.970576999709,None,,,,,,,,,,,,,,,,,,,,,,,,,,,,,,40YD,001,2023_Apr_14_1150,ExactRep-v3-final,2021.2.3,59.95487785265527,
,,,,,,,,12,0,12,0,,,,,,,,,,,,,,,,,,,,,,,,,,,,,,,,,,,,,,,,,,,,,,,,,,,,,4232.48659349978,None,,,,,,,,,,,,,,,,,,,,,,,,,,,,,,,,,,,lip,114,13,aloud,blue,4230.484534599818,None,None,4230.484534599818,None,,,,,,,,,,,,,,,,,,,,,,,,,,,,,,40YD,001,2023_Apr_14_1150,ExactRep-v3-final,2021.2.3,59.95487785265527,
,,,,,,,,13,0,13,0,,,,,,,,,,,,,,,,,,,,,,,,,,,,,,,,,,,,,,,,,,,,,,,,,,,,,4234.989064600319,None,,,,,,,,,,,,,,,,,,,,,,,,,,,,,,,,,,,wife,116,14,aloud,blue,4232.9896886004135,None,None,4232.9896886004135,None,,,,,,,,,,,,,,,,,,,,,,,,,,,,,,40YD,001,2023_Apr_14_1150,ExactRep-v3-final,2021.2.3,59.95487785265527,
,,,,,,,,14,0,14,0,,,,,,,,,,,,,,,,,,,,,,,,,,,,,,,,,,,,,,,,,,,,,,,,,,,,,4237.508080800064,None,,,,,,,,,,,,,,,,,,,,,,,,,,,,,,,,,,,king,99,15,aloud,blue,4235.4967401996255,None,None,4235.4967401996255,None,,,,,,,,,,,,,,,,,,,,,,,,,,,,,,40YD,001,2023_Apr_14_1150,ExactRep-v3-final,2021.2.3,59.95487785265527,
,,,,,,,,15,0,15,0,,,,,,,,,,,,,,,,,,,,,,,,,,,,,,,,,,,,,,,,,,,,,,,,,,,,,4240.027430200018,None,,,,,,,,,,,,,,,,,,,,,,,,,,,,,,,,,,,metal,0,16,sing,red,4238.023873199709,None,None,4238.023873199709,None,,,,,,,,,,,,,,,,,,,,,,,,,,,,,,40YD,001,2023_Apr_14_1150,ExactRep-v3-final,2021.2.3,59.95487785265527,
,,,,,,,,16,0,16,0,,,,,,,,,,,,,,,,,,,,,,,,,,,,,,,,,,,,,,,,,,,,,,,,,,,,,4242.529864099808,None,,,,,,,,,,,,,,,,,,,,,,,,,,,,,,,,,,,journal,101,17,aloud,blue,4240.529801799916,None,None,4240.529801799916,None,,,,,,,,,,,,,,,,,,,,,,,,,,,,,,40YD,001,2023_Apr_14_1150,ExactRep-v3-final,2021.2.3,59.95487785265527,
,,,,,,,,17,0,17,0,,,,,,,,,,,,,,,,,,,,,,,,,,,,,,,,,,,,,,,,,,,,,,,,,,,,,4245.033850200474,None,,,,,,,,,,,,,,,,,,,,,,,,,,,,,,,,,,,plant,9,18,sing,red,4243.03053270001,None,None,4243.03053270001,None,,,,,,,,,,,,,,,,,,,,,,,,,,,,,,40YD,001,2023_Apr_14_1150,ExactRep-v3-final,2021.2.3,59.95487785265527,
,,,,,,,,18,0,18,0,,,,,,,,,,,,,,,,,,,,,,,,,,,,,,,,,,,,,,,,,,,,,,,,,,,,,4247.534979299642,None,,,,,,,,,,,,,,,,,,,,,,,,,,,,,,,,,,,season,42,19,silent,white,4245.534385699779,None,None,4245.534385699779,None,,,,,,,,,,,,,,,,,,,,,,,,,,,,,,40YD,001,2023_Apr_14_1150,ExactRep-v3-final,2021.2.3,59.95487785265527,
,,,,,,,,19,0,19,0,,,,,,,,,,,,,,,,,,,,,,,,,,,,,,,,,,,,,,,,,,,,,,,,,,,,,4250.053923700005,None,,,,,,,,,,,,,,,,,,,,,,,,,,,,,,,,,,,diamond,54,20,silent,white,4248.0434830999,None,None,4248.0434830999,None,,,,,,,,,,,,,,,,,,,,,,,,,,,,,,40YD,001,2023_Apr_14_1150,ExactRep-v3-final,2021.2.3,59.95487785265527,
,,,,,,,,20,0,20,0,,,,,,,,,,,,,,,,,,,,,,,,,,,,,,,,,,,,,,,,,,,,,,,,,,,,,4252.572980499826,None,,,,,,,,,,,,,,,,,,,,,,,,,,,,,,,,,,,green,63,21,silent,white,4250.560628900304,None,None,4250.560628900304,None,,,,,,,,,,,,,,,,,,,,,,,,,,,,,,40YD,001,2023_Apr_14_1150,ExactRep-v3-final,2021.2.3,59.95487785265527,
,,,,,,,,21,0,21,0,,,,,,,,,,,,,,,,,,,,,,,,,,,,,,,,,,,,,,,,,,,,,,,,,,,,,4255.092539500445,None,,,,,,,,,,,,,,,,,,,,,,,,,,,,,,,,,,,coast,83,22,aloud,blue,4253.078333100304,None,None,4253.078333100304,None,,,,,,,,,,,,,,,,,,,,,,,,,,,,,,40YD,001,2023_Apr_14_1150,ExactRep-v3-final,2021.2.3,59.95487785265527,
,,,,,,,,22,0,22,0,,,,,,,,,,,,,,,,,,,,,,,,,,,,,,,,,,,,,,,,,,,,,,,,,,,,,4257.595006200485,None,,,,,,,,,,,,,,,,,,,,,,,,,,,,,,,,,,,camp,96,23,aloud,blue,4255.595385200344,None,None,4255.595385200344,None,,,,,,,,,,,,,,,,,,,,,,,,,,,,,,40YD,001,2023_Apr_14_1150,ExactRep-v3-final,2021.2.3,59.95487785265527,
,,,,,,,,23,0,23,0,,,,,,,,,,,,,,,,,,,,,,,,,,,,,,,,,,,,,,,,,,,,,,,,,,,,,4260.097524800338,None,,,,,,,,,,,,,,,,,,,,,,,,,,,,,,,,,,,library,48,24,silent,white,4258.095552800223,None,None,4258.095552800223,None,,,,,,,,,,,,,,,,,,,,,,,,,,,,,,40YD,001,2023_Apr_14_1150,ExactRep-v3-final,2021.2.3,59.95487785265527,
,,,,,,,,24,0,24,0,,,,,,,,,,,,,,,,,,,,,,,,,,,,,,,,,,,,,,,,,,,,,,,,,,,,,4262.599995800294,None,,,,,,,,,,,,,,,,,,,,,,,,,,,,,,,,,,,prayer,62,25,silent,white,4260.598162700422,None,None,4260.598162700422,None,,,,,,,,,,,,,,,,,,,,,,,,,,,,,,40YD,001,2023_Apr_14_1150,ExactRep-v3-final,2021.2.3,59.95487785265527,
,,,,,,,,25,0,25,0,,,,,,,,,,,,,,,,,,,,,,,,,,,,,,,,,,,,,,,,,,,,,,,,,,,,,4265.102497800253,None,,,,,,,,,,,,,,,,,,,,,,,,,,,,,,,,,,,form,36,26,sing,red,4263.102294799872,None,None,4263.102294799872,None,,,,,,,,,,,,,,,,,,,,,,,,,,,,,,40YD,001,2023_Apr_14_1150,ExactRep-v3-final,2021.2.3,59.95487785265527,
,,,,,,,,26,0,26,0,,,,,,,,,,,,,,,,,,,,,,,,,,,,,,,,,,,,,,,,,,,,,,,,,,,,,4267.604844599962,None,,,,,,,,,,,,,,,,,,,,,,,,,,,,,,,,,,,village,82,27,aloud,blue,4265.604422000237,None,None,4265.604422000237,None,,,,,,,,,,,,,,,,,,,,,,,,,,,,,,40YD,001,2023_Apr_14_1150,ExactRep-v3-final,2021.2.3,59.95487785265527,
,,,,,,,,27,0,27,0,,,,,,,,,,,,,,,,,,,,,,,,,,,,,,,,,,,,,,,,,,,,,,,,,,,,,4270.124217499979,None,,,,,,,,,,,,,,,,,,,,,,,,,,,,,,,,,,,quality,18,28,sing,red,4268.1121859001,None,None,4268.1121859001,None,,,,,,,,,,,,,,,,,,,,,,,,,,,,,,40YD,001,2023_Apr_14_1150,ExactRep-v3-final,2021.2.3,59.95487785265527,
,,,,,,,,28,0,28,0,,,,,,,,,,,,,,,,,,,,,,,,,,,,,,,,,,,,,,,,,,,,,,,,,,,,,4272.626600399613,None,,,,,,,,,,,,,,,,,,,,,,,,,,,,,,,,,,,virtue,8,29,sing,red,4270.625905700028,None,None,4270.625905700028,None,,,,,,,,,,,,,,,,,,,,,,,,,,,,,,40YD,001,2023_Apr_14_1150,ExactRep-v3-final,2021.2.3,59.95487785265527,
,,,,,,,,29,0,29,0,,,,,,,,,,,,,,,,,,,,,,,,,,,,,,,,,,,,,,,,,,,,,,,,,,,,,4275.1473797000945,None,,,,,,,,,,,,,,,,,,,,,,,,,,,,,,,,,,,shame,51,30,silent,white,4273.138770700432,None,None,4273.138770700432,None,,,,,,,,,,,,,,,,,,,,,,,,,,,,,,40YD,001,2023_Apr_14_1150,ExactRep-v3-final,2021.2.3,59.95487785265527,
,,,,,,,,30,0,30,0,,,,,,,,,,,,,,,,,,,,,,,,,,,,,,,,,,,,,,,,,,,,,,,,,,,,,4277.648338899948,None,,,,,,,,,,,,,,,,,,,,,,,,,,,,,,,,,,,wheat,76,31,silent,white,4275.646260900423,None,None,4275.646260900423,None,,,,,,,,,,,,,,,,,,,,,,,,,,,,,,40YD,001,2023_Apr_14_1150,ExactRep-v3-final,2021.2.3,59.95487785265527,
,,,,,,,,31,0,31,0,,,,,,,,,,,,,,,,,,,,,,,,,,,,,,,,,,,,,,,,,,,,,,,,,,,,,4280.15092010051,None,,,,,,,,,,,,,,,,,,,,,,,,,,,,,,,,,,,shore,3,32,sing,red,4278.150480000302,None,None,4278.150480000302,None,,,,,,,,,,,,,,,,,,,,,,,,,,,,,,40YD,001,2023_Apr_14_1150,ExactRep-v3-final,2021.2.3,59.95487785265527,
,,,,,,,,32,0,32,0,,,,,,,,,,,,,,,,,,,,,,,,,,,,,,,,,,,,,,,,,,,,,,,,,,,,,4282.6701570004225,None,,,,,,,,,,,,,,,,,,,,,,,,,,,,,,,,,,,murder,93,33,aloud,blue,4280.655963299796,None,None,4280.655963299796,None,,,,,,,,,,,,,,,,,,,,,,,,,,,,,,40YD,001,2023_Apr_14_1150,ExactRep-v3-final,2021.2.3,59.95487785265527,
,,,,,,,,33,0,33,0,,,,,,,,,,,,,,,,,,,,,,,,,,,,,,,,,,,,,,,,,,,,,,,,,,,,,4285.172388199717,None,,,,,,,,,,,,,,,,,,,,,,,,,,,,,,,,,,,car,60,34,silent,white,4283.173438199796,None,None,4283.173438199796,None,,,,,,,,,,,,,,,,,,,,,,,,,,,,,,40YD,001,2023_Apr_14_1150,ExactRep-v3-final,2021.2.3,59.95487785265527,
,,,,,,,,34,0,34,0,,,,,,,,,,,,,,,,,,,,,,,,,,,,,,,,,,,,,,,,,,,,,,,,,,,,,4287.677012600005,None,,,,,,,,,,,,,,,,,,,,,,,,,,,,,,,,,,,death,97,35,aloud,blue,4285.672923300415,None,None,4285.672923300415,None,,,,,,,,,,,,,,,,,,,,,,,,,,,,,,40YD,001,2023_Apr_14_1150,ExactRep-v3-final,2021.2.3,59.95487785265527,
,,,,,,,,35,0,35,0,,,,,,,,,,,,,,,,,,,,,,,,,,,,,,,,,,,,,,,,,,,,,,,,,,,,,4290.210948600434,None,,,,,,,,,,,,,,,,,,,,,,,,,,,,,,,,,,,cost,28,36,sing,red,4288.197871800512,None,None,4288.197871800512,None,,,,,,,,,,,,,,,,,,,,,,,,,,,,,,40YD,001,2023_Apr_14_1150,ExactRep-v3-final,2021.2.3,59.95487785265527,
,,,,,,,,36,0,36,0,,,,,,,,,,,,,,,,,,,,,,,,,,,,,,,,,,,,,,,,,,,,,,,,,,,,,4292.7301190998405,None,,,,,,,,,,,,,,,,,,,,,,,,,,,,,,,,,,,victory,17,37,sing,red,4290.715510400012,None,None,4290.715510400012,None,,,,,,,,,,,,,,,,,,,,,,,,,,,,,,40YD,001,2023_Apr_14_1150,ExactRep-v3-final,2021.2.3,59.95487785265527,
,,,,,,,,37,0,37,0,,,,,,,,,,,,,,,,,,,,,,,,,,,,,,,,,,,,,,,,,,,,,,,,,,,,,4295.232584199868,None,,,,,,,,,,,,,,,,,,,,,,,,,,,,,,,,,,,storm,84,38,aloud,blue,4293.23058069963,None,None,4293.23058069963,None,,,,,,,,,,,,,,,,,,,,,,,,,,,,,,40YD,001,2023_Apr_14_1150,ExactRep-v3-final,2021.2.3,59.95487785265527,
,,,,,,,,38,0,38,0,,,,,,,,,,,,,,,,,,,,,,,,,,,,,,,,,,,,,,,,,,,,,,,,,,,,,4297.734987700358,None,,,,,,,,,,,,,,,,,,,,,,,,,,,,,,,,,,,river,79,39,sing,red,4295.735198800452,None,None,4295.735198800452,None,,,,,,,,,,,,,,,,,,,,,,,,,,,,,,40YD,001,2023_Apr_14_1150,ExactRep-v3-final,2021.2.3,59.95487785265527,
,,,,,,,,39,0,39,0,,,,,,,,,,,,,,,,,,,,,,,,,,,,,,,,,,,,,,,,,,,,,,,,,,,,,4300.237502899952,None,,,,,,,,,,,,,,,,,,,,,,,,,,,,,,,,,,,avenue,73,40,silent,white,4298.237339800224,None,None,4298.237339800224,None,,,,,,,,,,,,,,,,,,,,,,,,,,,,,,40YD,001,2023_Apr_14_1150,ExactRep-v3-final,2021.2.3,59.95487785265527,
,,,,,,,,40,0,40,0,,,,,,,,,,,,,,,,,,,,,,,,,,,,,,,,,,,,,,,,,,,,,,,,,,,,,4302.757103599608,None,,,,,,,,,,,,,,,,,,,,,,,,,,,,,,,,,,,stone,115,41,aloud,blue,4300.742714500055,None,None,4300.742714500055,None,,,,,,,,,,,,,,,,,,,,,,,,,,,,,,40YD,001,2023_Apr_14_1150,ExactRep-v3-final,2021.2.3,59.95487785265527,
,,,,,,,,41,0,41,0,,,,,,,,,,,,,,,,,,,,,,,,,,,,,,,,,,,,,,,,,,,,,,,,,,,,,4305.259366500191,None,,,,,,,,,,,,,,,,,,,,,,,,,,,,,,,,,,,colony,37,42,sing,red,4303.2572074001655,None,None,4303.2572074001655,None,,,,,,,,,,,,,,,,,,,,,,,,,,,,,,40YD,001,2023_Apr_14_1150,ExactRep-v3-final,2021.2.3,59.95487785265527,
,,,,,,,,42,0,42,0,,,,,,,,,,,,,,,,,,,,,,,,,,,,,,,,,,,,,,,,,,,,,,,,,,,,,4307.778553100303,None,,,,,,,,,,,,,,,,,,,,,,,,,,,,,,,,,,,hope,1,43,sing,red,4305.763218699954,None,None,4305.763218699954,None,,,,,,,,,,,,,,,,,,,,,,,,,,,,,,40YD,001,2023_Apr_14_1150,ExactRep-v3-final,2021.2.3,59.95487785265527,
,,,,,,,,43,0,43,0,,,,,,,,,,,,,,,,,,,,,,,,,,,,,,,,,,,,,,,,,,,,,,,,,,,,,4310.281097699888,None,,,,,,,,,,,,,,,,,,,,,,,,,,,,,,,,,,,sky,26,44,sing,red,4308.279041799717,None,None,4308.279041799717,None,,,,,,,,,,,,,,,,,,,,,,,,,,,,,,40YD,001,2023_Apr_14_1150,ExactRep-v3-final,2021.2.3,59.95487785265527,
,,,,,,,,44,0,44,0,,,,,,,,,,,,,,,,,,,,,,,,,,,,,,,,,,,,,,,,,,,,,,,,,,,,,4312.8001969000325,None,,,,,,,,,,,,,,,,,,,,,,,,,,,,,,,,,,,body,49,45,silent,white,4310.790010700002,None,None,4310.790010700002,None,,,,,,,,,,,,,,,,,,,,,,,,,,,,,,40YD,001,2023_Apr_14_1150,ExactRep-v3-final,2021.2.3,59.95487785265527,
,,,,,,,,45,0,45,0,,,,,,,,,,,,,,,,,,,,,,,,,,,,,,,,,,,,,,,,,,,,,,,,,,,,,4315.302721300162,None,,,,,,,,,,,,,,,,,,,,,,,,,,,,,,,,,,,forest,65,46,silent,white,4313.300621000119,None,None,4313.300621000119,None,,,,,,,,,,,,,,,,,,,,,,,,,,,,,,40YD,001,2023_Apr_14_1150,ExactRep-v3-final,2021.2.3,59.95487785265527,
,,,,,,,,46,0,46,0,,,,,,,,,,,,,,,,,,,,,,,,,,,,,,,,,,,,,,,,,,,,,,,,,,,,,4317.805234700441,None,,,,,,,,,,,,,,,,,,,,,,,,,,,,,,,,,,,vision,12,47,sing,red,4315.805959699675,None,None,4315.805959699675,None,,,,,,,,,,,,,,,,,,,,,,,,,,,,,,40YD,001,2023_Apr_14_1150,ExactRep-v3-final,2021.2.3,59.95487785265527,
,,,,,,,,47,0,47,0,,,,,,,,,,,,,,,,,,,,,,,,,,,,,,,,,,,,,,,,,,,,,,,,,,,,,4320.307892000303,None,,,,,,,,,,,,,,,,,,,,,,,,,,,,,,,,,,,star,106,48,aloud,blue,4318.308060100302,None,None,4318.308060100302,None,,,,,,,,,,,,,,,,,,,,,,,,,,,,,,40YD,001,2023_Apr_14_1150,ExactRep-v3-final,2021.2.3,59.95487785265527,
,,,,,,,,48,0,48,0,,,,,,,,,,,,,,,,,,,,,,,,,,,,,,,,,,,,,,,,,,,,,,,,,,,,,4322.810246500187,None,,,,,,,,,,,,,,,,,,,,,,,,,,,,,,,,,,,custom,33,49,sing,red,4320.8112083002925,None,None,4320.8112083002925,None,,,,,,,,,,,,,,,,,,,,,,,,,,,,,,40YD,001,2023_Apr_14_1150,ExactRep-v3-final,2021.2.3,59.95487785265527,
,,,,,,,,49,0,49,0,,,,,,,,,,,,,,,,,,,,,,,,,,,,,,,,,,,,,,,,,,,,,,,,,,,,,4325.329431399703,None,,,,,,,,,,,,,,,,,,,,,,,,,,,,,,,,,,,string,58,50,silent,white,4323.318161100149,None,None,4323.318161100149,None,,,,,,,,,,,,,,,,,,,,,,,,,,,,,,40YD,001,2023_Apr_14_1150,ExactRep-v3-final,2021.2.3,59.95487785265527,
,,,,,,,,50,0,50,0,,,,,,,,,,,,,,,,,,,,,,,,,,,,,,,,,,,,,,,,,,,,,,,,,,,,,4327.831910800189,None,,,,,,,,,,,,,,,,,,,,,,,,,,,,,,,,,,,thought,81,51,aloud,blue,4325.83184919972,None,None,4325.83184919972,None,,,,,,,,,,,,,,,,,,,,,,,,,,,,,,40YD,001,2023_Apr_14_1150,ExactRep-v3-final,2021.2.3,59.95487785265527,
,,,,,,,,51,0,51,0,,,,,,,,,,,,,,,,,,,,,,,,,,,,,,,,,,,,,,,,,,,,,,,,,,,,,4330.350936300121,None,,,,,,,,,,,,,,,,,,,,,,,,,,,,,,,,,,,month,38,52,sing,red,4328.33624690026,None,None,4328.33624690026,None,,,,,,,,,,,,,,,,,,,,,,,,,,,,,,40YD,001,2023_Apr_14_1150,ExactRep-v3-final,2021.2.3,59.95487785265527,
,,,,,,,,52,0,52,0,,,,,,,,,,,,,,,,,,,,,,,,,,,,,,,,,,,,,,,,,,,,,,,,,,,,,4332.853617000394,None,,,,,,,,,,,,,,,,,,,,,,,,,,,,,,,,,,,city,23,53,sing,red,4330.851820100099,None,None,4330.851820100099,None,,,,,,,,,,,,,,,,,,,,,,,,,,,,,,40YD,001,2023_Apr_14_1150,ExactRep-v3-final,2021.2.3,59.95487785265527,
,,,,,,,,53,0,53,0,,,,,,,,,,,,,,,,,,,,,,,,,,,,,,,,,,,,,,,,,,,,,,,,,,,,,4335.372743500397,None,,,,,,,,,,,,,,,,,,,,,,,,,,,,,,,,,,,chair,30,54,sing,red,4333.3575128996745,None,None,4333.3575128996745,None,,,,,,,,,,,,,,,,,,,,,,,,,,,,,,40YD,001,2023_Apr_14_1150,ExactRep-v3-final,2021.2.3,59.95487785265527,
,,,,,,,,54,0,54,0,,,,,,,,,,,,,,,,,,,,,,,,,,,,,,,,,,,,,,,,,,,,,,,,,,,,,4337.87533629965,None,,,,,,,,,,,,,,,,,,,,,,,,,,,,,,,,,,,artist,112,55,aloud,blue,4335.875235499814,None,None,4335.875235499814,None,,,,,,,,,,,,,,,,,,,,,,,,,,,,,,40YD,001,2023_Apr_14_1150,ExactRep-v3-final,2021.2.3,59.95487785265527,
,,,,,,,,55,0,55,0,,,,,,,,,,,,,,,,,,,,,,,,,,,,,,,,,,,,,,,,,,,,,,,,,,,,,4340.394431400113,None,,,,,,,,,,,,,,,,,,,,,,,,,,,,,,,,,,,freedom,43,56,silent,white,4338.3804777003825,None,None,4338.3804777003825,None,,,,,,,,,,,,,,,,,,,,,,,,,,,,,,40YD,001,2023_Apr_14_1150,ExactRep-v3-final,2021.2.3,59.95487785265527,
,,,,,,,,56,0,56,0,,,,,,,,,,,,,,,,,,,,,,,,,,,,,,,,,,,,,,,,,,,,,,,,,,,,,4342.896669500507,None,,,,,,,,,,,,,,,,,,,,,,,,,,,,,,,,,,,seat,69,57,silent,white,4340.89580960013,None,None,4340.89580960013,None,,,,,,,,,,,,,,,,,,,,,,,,,,,,,,40YD,001,2023_Apr_14_1150,ExactRep-v3-final,2021.2.3,59.95487785265527,
,,,,,,,,57,0,57,0,,,,,,,,,,,,,,,,,,,,,,,,,,,,,,,,,,,,,,,,,,,,,,,,,,,,,4345.416173400357,None,,,,,,,,,,,,,,,,,,,,,,,,,,,,,,,,,,,home,13,58,sing,red,4343.407292500138,None,None,4343.407292500138,None,,,,,,,,,,,,,,,,,,,,,,,,,,,,,,40YD,001,2023_Apr_14_1150,ExactRep-v3-final,2021.2.3,59.95487785265527,
,,,,,,,,58,0,58,0,,,,,,,,,,,,,,,,,,,,,,,,,,,,,,,,,,,,,,,,,,,,,,,,,,,,,4347.935317000374,None,,,,,,,,,,,,,,,,,,,,,,,,,,,,,,,,,,,pole,6,59,sing,red,4345.927417599596,None,None,4345.927417599596,None,,,,,,,,,,,,,,,,,,,,,,,,,,,,,,40YD,001,2023_Apr_14_1150,ExactRep-v3-final,2021.2.3,59.95487785265527,
,,,,,,,,59,0,59,0,,,,,,,,,,,,,,,,,,,,,,,,,,,,,,,,,,,,,,,,,,,,,,,,,,,,,4350.437806700356,None,,,,,,,,,,,,,,,,,,,,,,,,,,,,,,,,,,,ticket,74,60,silent,white,4348.435804599896,None,None,4348.435804599896,None,,,,,,,,,,,,,,,,,,,,,,,,,,,,,,40YD,001,2023_Apr_14_1150,ExactRep-v3-final,2021.2.3,59.95487785265527,
,,,,,,,,60,0,60,0,,,,,,,,,,,,,,,,,,,,,,,,,,,,,,,,,,,,,,,,,,,,,,,,,,,,,4352.940349300392,None,,,,,,,,,,,,,,,,,,,,,,,,,,,,,,,,,,,potato,87,61,aloud,blue,4350.941129599698,None,None,4350.941129599698,None,,,,,,,,,,,,,,,,,,,,,,,,,,,,,,40YD,001,2023_Apr_14_1150,ExactRep-v3-final,2021.2.3,59.95487785265527,
,,,,,,,,61,0,61,0,,,,,,,,,,,,,,,,,,,,,,,,,,,,,,,,,,,,,,,,,,,,,,,,,,,,,4355.442858699709,None,,,,,,,,,,,,,,,,,,,,,,,,,,,,,,,,,,,world,103,62,aloud,blue,4353.4435464004055,None,None,4353.4435464004055,None,,,,,,,,,,,,,,,,,,,,,,,,,,,,,,40YD,001,2023_Apr_14_1150,ExactRep-v3-final,2021.2.3,59.95487785265527,
,,,,,,,,62,0,62,0,,,,,,,,,,,,,,,,,,,,,,,,,,,,,,,,,,,,,,,,,,,,,,,,,,,,,4357.945347599685,None,,,,,,,,,,,,,,,,,,,,,,,,,,,,,,,,,,,disease,20,63,sing,red,4355.946067100391,None,None,4355.946067100391,None,,,,,,,,,,,,,,,,,,,,,,,,,,,,,,40YD,001,2023_Apr_14_1150,ExactRep-v3-final,2021.2.3,59.95487785265527,
,,,,,,,,63,0,63,0,,,,,,,,,,,,,,,,,,,,,,,,,,,,,,,,,,,,,,,,,,,,,,,,,,,,,4360.448593200184,None,,,,,,,,,,,,,,,,,,,,,,,,,,,,,,,,,,,life,80,64,aloud,blue,4358.448538400233,None,None,4358.448538400233,None,,,,,,,,,,,,,,,,,,,,,,,,,,,,,,40YD,001,2023_Apr_14_1150,ExactRep-v3-final,2021.2.3,59.95487785265527,
,,,,,,,,64,0,64,0,,,,,,,,,,,,,,,,,,,,,,,,,,,,,,,,,,,,,,,,,,,,,,,,,,,,,4362.9504907997325,None,,,,,,,,,,,,,,,,,,,,,,,,,,,,,,,,,,,lake,104,65,aloud,blue,4360.949840599671,None,None,4360.949840599671,None,,,,,,,,,,,,,,,,,,,,,,,,,,,,,,40YD,001,2023_Apr_14_1150,ExactRep-v3-final,2021.2.3,59.95487785265527,
,,,,,,,,65,0,65,0,,,,,,,,,,,,,,,,,,,,,,,,,,,,,,,,,,,,,,,,,,,,,,,,,,,,,4365.469687200151,None,,,,,,,,,,,,,,,,,,,,,,,,,,,,,,,,,,,theory,19,66,sing,red,4363.454251199961,None,None,4363.454251199961,None,,,,,,,,,,,,,,,,,,,,,,,,,,,,,,40YD,001,2023_Apr_14_1150,ExactRep-v3-final,2021.2.3,59.95487785265527,
,,,,,,,,66,0,66,0,,,,,,,,,,,,,,,,,,,,,,,,,,,,,,,,,,,,,,,,,,,,,,,,,,,,,4367.972091900185,None,,,,,,,,,,,,,,,,,,,,,,,,,,,,,,,,,,,salary,32,67,sing,red,4365.9723781002685,None,None,4365.9723781002685,None,,,,,,,,,,,,,,,,,,,,,,,,,,,,,,40YD,001,2023_Apr_14_1150,ExactRep-v3-final,2021.2.3,59.95487785265527,
,,,,,,,,67,0,67,0,,,,,,,,,,,,,,,,,,,,,,,,,,,,,,,,,,,,,,,,,,,,,,,,,,,,,4370.4746147003025,None,,,,,,,,,,,,,,,,,,,,,,,,,,,,,,,,,,,doctor,110,68,aloud,blue,4368.474178300239,None,None,4368.474178300239,None,,,,,,,,,,,,,,,,,,,,,,,,,,,,,,40YD,001,2023_Apr_14_1150,ExactRep-v3-final,2021.2.3,59.95487785265527,
,,,,,,,,68,0,68,0,,,,,,,,,,,,,,,,,,,,,,,,,,,,,,,,,,,,,,,,,,,,,,,,,,,,,4372.977122399956,None,,,,,,,,,,,,,,,,,,,,,,,,,,,,,,,,,,,meeting,61,69,silent,white,4370.978126999922,None,None,4370.978126999922,None,,,,,,,,,,,,,,,,,,,,,,,,,,,,,,40YD,001,2023_Apr_14_1150,ExactRep-v3-final,2021.2.3,59.95487785265527,
,,,,,,,,69,0,69,0,,,,,,,,,,,,,,,,,,,,,,,,,,,,,,,,,,,,,,,,,,,,,,,,,,,,,4375.496359500103,None,,,,,,,,,,,,,,,,,,,,,,,,,,,,,,,,,,,shock,10,70,sing,red,4373.481092900038,None,None,4373.481092900038,None,,,,,,,,,,,,,,,,,,,,,,,,,,,,,,40YD,001,2023_Apr_14_1150,ExactRep-v3-final,2021.2.3,59.95487785265527,
,,,,,,,,70,0,70,0,,,,,,,,,,,,,,,,,,,,,,,,,,,,,,,,,,,,,,,,,,,,,,,,,,,,,4378.0153136998415,None,,,,,,,,,,,,,,,,,,,,,,,,,,,,,,,,,,,corn,78,71,silent,white,4376.001544100232,None,None,4376.001544100232,None,,,,,,,,,,,,,,,,,,,,,,,,,,,,,,40YD,001,2023_Apr_14_1150,ExactRep-v3-final,2021.2.3,59.95487785265527,
,,,,,,,,71,0,71,0,,,,,,,,,,,,,,,,,,,,,,,,,,,,,,,,,,,,,,,,,,,,,,,,,,,,,4380.534601599909,None,,,,,,,,,,,,,,,,,,,,,,,,,,,,,,,,,,,justice,88,72,aloud,blue,4378.522119199857,None,None,4378.522119199857,None,,,,,,,,,,,,,,,,,,,,,,,,,,,,,,40YD,001,2023_Apr_14_1150,ExactRep-v3-final,2021.2.3,59.95487785265527,
,,,,,,,,72,0,72,0,,,,,,,,,,,,,,,,,,,,,,,,,,,,,,,,,,,,,,,,,,,,,,,,,,,,,4383.036961199716,None,,,,,,,,,,,,,,,,,,,,,,,,,,,,,,,,,,,method,2,73,sing,red,4381.035351299681,None,None,4381.035351299681,None,,,,,,,,,,,,,,,,,,,,,,,,,,,,,,40YD,001,2023_Apr_14_1150,ExactRep-v3-final,2021.2.3,59.95487785265527,
,,,,,,,,73,0,73,0,,,,,,,,,,,,,,,,,,,,,,,,,,,,,,,,,,,,,,,,,,,,,,,,,,,,,4385.5562856998295,None,,,,,,,,,,,,,,,,,,,,,,,,,,,,,,,,,,,boulder,22,74,sing,red,4383.546870299615,None,None,4383.546870299615,None,,,,,,,,,,,,,,,,,,,,,,,,,,,,,,40YD,001,2023_Apr_14_1150,ExactRep-v3-final,2021.2.3,59.95487785265527,
,,,,,,,,74,0,74,0,,,,,,,,,,,,,,,,,,,,,,,,,,,,,,,,,,,,,,,,,,,,,,,,,,,,,4388.075546200387,None,,,,,,,,,,,,,,,,,,,,,,,,,,,,,,,,,,,beast,85,75,aloud,blue,4386.065186999738,None,None,4386.065186999738,None,,,,,,,,,,,,,,,,,,,,,,,,,,,,,,40YD,001,2023_Apr_14_1150,ExactRep-v3-final,2021.2.3,59.95487785265527,
,,,,,,,,75,0,75,0,,,,,,,,,,,,,,,,,,,,,,,,,,,,,,,,,,,,,,,,,,,,,,,,,,,,,4390.577981799841,None,,,,,,,,,,,,,,,,,,,,,,,,,,,,,,,,,,,humour,71,76,silent,white,4388.578295299783,None,None,4388.578295299783,None,,,,,,,,,,,,,,,,,,,,,,,,,,,,,,40YD,001,2023_Apr_14_1150,ExactRep-v3-final,2021.2.3,59.95487785265527,
,,,,,,,,76,0,76,0,,,,,,,,,,,,,,,,,,,,,,,,,,,,,,,,,,,,,,,,,,,,,,,,,,,,,4393.0805863002315,None,,,,,,,,,,,,,,,,,,,,,,,,,,,,,,,,,,,ship,119,77,aloud,blue,4391.080201599747,None,None,4391.080201599747,None,,,,,,,,,,,,,,,,,,,,,,,,,,,,,,40YD,001,2023_Apr_14_1150,ExactRep-v3-final,2021.2.3,59.95487785265527,
,,,,,,,,77,0,77,0,,,,,,,,,,,,,,,,,,,,,,,,,,,,,,,,,,,,,,,,,,,,,,,,,,,,,4395.599647399969,None,,,,,,,,,,,,,,,,,,,,,,,,,,,,,,,,,,,letter,105,78,aloud,blue,4393.588028299622,None,None,4393.588028299622,None,,,,,,,,,,,,,,,,,,,,,,,,,,,,,,40YD,001,2023_Apr_14_1150,ExactRep-v3-final,2021.2.3,59.95487785265527,
,,,,,,,,78,0,78,0,,,,,,,,,,,,,,,,,,,,,,,,,,,,,,,,,,,,,,,,,,,,,,,,,,,,,4398.102162200026,None,,,,,,,,,,,,,,,,,,,,,,,,,,,,,,,,,,,hour,59,79,silent,white,4396.102725700475,None,None,4396.102725700475,None,,,,,,,,,,,,,,,,,,,,,,,,,,,,,,40YD,001,2023_Apr_14_1150,ExactRep-v3-final,2021.2.3,59.95487785265527,
,,,,,,,,79,0,79,0,,,,,,,,,,,,,,,,,,,,,,,,,,,,,,,,,,,,,,,,,,,,,,,,,,,,,4400.604522000067,None,,,,,,,,,,,,,,,,,,,,,,,,,,,,,,,,,,,board,27,80,sing,red,4398.6040906002745,None,None,4398.6040906002745,None,,,,,,,,,,,,,,,,,,,,,,,,,,,,,,40YD,001,2023_Apr_14_1150,ExactRep-v3-final,2021.2.3,59.95487785265527,
,,,,,,,,80,0,80,0,,,,,,,,,,,,,,,,,,,,,,,,,,,,,,,,,,,,,,,,,,,,,,,,,,,,,4403.107008599676,None,,,,,,,,,,,,,,,,,,,,,,,,,,,,,,,,,,,steam,52,81,silent,white,4401.105657399632,None,None,4401.105657399632,None,,,,,,,,,,,,,,,,,,,,,,,,,,,,,,40YD,001,2023_Apr_14_1150,ExactRep-v3-final,2021.2.3,59.95487785265527,
,,,,,,,,81,0,81,0,,,,,,,,,,,,,,,,,,,,,,,,,,,,,,,,,,,,,,,,,,,,,,,,,,,,,4405.609834300354,None,,,,,,,,,,,,,,,,,,,,,,,,,,,,,,,,,,,clock,111,82,aloud,blue,4403.608983100392,None,None,4403.608983100392,None,,,,,,,,,,,,,,,,,,,,,,,,,,,,,,40YD,001,2023_Apr_14_1150,ExactRep-v3-final,2021.2.3,59.95487785265527,
,,,,,,,,82,0,82,0,,,,,,,,,,,,,,,,,,,,,,,,,,,,,,,,,,,,,,,,,,,,,,,,,,,,,4408.128682300448,None,,,,,,,,,,,,,,,,,,,,,,,,,,,,,,,,,,,maiden,94,83,aloud,blue,4406.1225011004135,None,None,4406.1225011004135,None,,,,,,,,,,,,,,,,,,,,,,,,,,,,,,40YD,001,2023_Apr_14_1150,ExactRep-v3-final,2021.2.3,59.95487785265527,
,,,,,,,,83,0,83,0,,,,,,,,,,,,,,,,,,,,,,,,,,,,,,,,,,,,,,,,,,,,,,,,,,,,,4410.631432199851,None,,,,,,,,,,,,,,,,,,,,,,,,,,,,,,,,,,,tree,107,84,aloud,blue,4408.630388299935,None,None,4408.630388299935,None,,,,,,,,,,,,,,,,,,,,,,,,,,,,,,40YD,001,2023_Apr_14_1150,ExactRep-v3-final,2021.2.3,59.95487785265527,
,,,,,,,,84,0,84,0,,,,,,,,,,,,,,,,,,,,,,,,,,,,,,,,,,,,,,,,,,,,,,,,,,,,,4413.133671999909,None,,,,,,,,,,,,,,,,,,,,,,,,,,,,,,,,,,,effort,75,85,silent,white,4411.131643899716,None,None,4411.131643899716,None,,,,,,,,,,,,,,,,,,,,,,,,,,,,,,40YD,001,2023_Apr_14_1150,ExactRep-v3-final,2021.2.3,59.95487785265527,
,,,,,,,,85,0,85,0,,,,,,,,,,,,,,,,,,,,,,,,,,,,,,,,,,,,,,,,,,,,,,,,,,,,,4415.652860900387,None,,,,,,,,,,,,,,,,,,,,,,,,,,,,,,,,,,,wine,53,86,silent,white,4413.640186600387,None,None,4413.640186600387,None,,,,,,,,,,,,,,,,,,,,,,,,,,,,,,40YD,001,2023_Apr_14_1150,ExactRep-v3-final,2021.2.3,59.95487785265527,
,,,,,,,,86,0,86,0,,,,,,,,,,,,,,,,,,,,,,,,,,,,,,,,,,,,,,,,,,,,,,,,,,,,,4418.172014200129,None,,,,,,,,,,,,,,,,,,,,,,,,,,,,,,,,,,,cat,95,87,aloud,blue,4416.160915900022,None,None,4416.160915900022,None,,,,,,,,,,,,,,,,,,,,,,,,,,,,,,40YD,001,2023_Apr_14_1150,ExactRep-v3-final,2021.2.3,59.95487785265527,
,,,,,,,,87,0,87,0,,,,,,,,,,,,,,,,,,,,,,,,,,,,,,,,,,,,,,,,,,,,,,,,,,,,,4420.691244900227,None,,,,,,,,,,,,,,,,,,,,,,,,,,,,,,,,,,,moral,57,88,silent,white,4418.676305499859,None,None,4418.676305499859,None,,,,,,,,,,,,,,,,,,,,,,,,,,,,,,40YD,001,2023_Apr_14_1150,ExactRep-v3-final,2021.2.3,59.95487785265527,
,,,,,,,,88,0,88,0,,,,,,,,,,,,,,,,,,,,,,,,,,,,,,,,,,,,,,,,,,,,,,,,,,,,,4423.193749300204,None,,,,,,,,,,,,,,,,,,,,,,,,,,,,,,,,,,,chance,24,89,sing,red,4421.191797999665,None,None,4421.191797999665,None,,,,,,,,,,,,,,,,,,,,,,,,,,,,,,40YD,001,2023_Apr_14_1150,ExactRep-v3-final,2021.2.3,59.95487785265527,
,,,,,,,,89,0,89,0,,,,,,,,,,,,,,,,,,,,,,,,,,,,,,,,,,,,,,,,,,,,,,,,,,,,,4425.713082999922,None,,,,,,,,,,,,,,,,,,,,,,,,,,,,,,,,,,,shadow,21,90,sing,red,4423.702980699949,None,None,4423.702980699949,None,,,,,,,,,,,,,,,,,,,,,,,,,,,,,,40YD,001,2023_Apr_14_1150,ExactRep-v3-final,2021.2.3,59.95487785265527,
,,,,,,,,90,0,90,0,,,,,,,,,,,,,,,,,,,,,,,,,,,,,,,,,,,,,,,,,,,,,,,,,,,,,4428.215682200156,None,,,,,,,,,,,,,,,,,,,,,,,,,,,,,,,,,,,arm,91,91,aloud,blue,4426.21563860029,None,None,4426.21563860029,None,,,,,,,,,,,,,,,,,,,,,,,,,,,,,,40YD,001,2023_Apr_14_1150,ExactRep-v3-final,2021.2.3,59.95487785265527,
,,,,,,,,91,0,91,0,,,,,,,,,,,,,,,,,,,,,,,,,,,,,,,,,,,,,,,,,,,,,,,,,,,,,4430.717929800041,None,,,,,,,,,,,,,,,,,,,,,,,,,,,,,,,,,,,paper,46,92,silent,white,4428.718130899593,None,None,4428.718130899593,None,,,,,,,,,,,,,,,,,,,,,,,,,,,,,,40YD,001,2023_Apr_14_1150,ExactRep-v3-final,2021.2.3,59.95487785265527,
,,,,,,,,92,0,92,0,,,,,,,,,,,,,,,,,,,,,,,,,,,,,,,,,,,,,,,,,,,,,,,,,,,,,4433.220637500286,None,,,,,,,,,,,,,,,,,,,,,,,,,,,,,,,,,,,dust,92,93,aloud,blue,4431.218468599953,None,None,4431.218468599953,None,,,,,,,,,,,,,,,,,,,,,,,,,,,,,,40YD,001,2023_Apr_14_1150,ExactRep-v3-final,2021.2.3,59.95487785265527,
,,,,,,,,93,0,93,0,,,,,,,,,,,,,,,,,,,,,,,,,,,,,,,,,,,,,,,,,,,,,,,,,,,,,4435.7230933001265,None,,,,,,,,,,,,,,,,,,,,,,,,,,,,,,,,,,,troops,7,94,sing,red,4433.721224700101,None,None,4433.721224700101,None,,,,,,,,,,,,,,,,,,,,,,,,,,,,,,40YD,001,2023_Apr_14_1150,ExactRep-v3-final,2021.2.3,59.95487785265527,
,,,,,,,,94,0,94,0,,,,,,,,,,,,,,,,,,,,,,,,,,,,,,,,,,,,,,,,,,,,,,,,,,,,,4438.225801699795,None,,,,,,,,,,,,,,,,,,,,,,,,,,,,,,,,,,,fire,47,95,silent,white,4436.225075400434,None,None,4436.225075400434,None,,,,,,,,,,,,,,,,,,,,,,,,,,,,,,40YD,001,2023_Apr_14_1150,ExactRep-v3-final,2021.2.3,59.95487785265527,
,,,,,,,,95,0,95,0,,,,,,,,,,,,,,,,,,,,,,,,,,,,,,,,,,,,,,,,,,,,,,,,,,,,,4440.74472980015,None,,,,,,,,,,,,,,,,,,,,,,,,,,,,,,,,,,,coin,44,96,silent,white,4438.730753599666,None,None,4438.730753599666,None,,,,,,,,,,,,,,,,,,,,,,,,,,,,,,40YD,001,2023_Apr_14_1150,ExactRep-v3-final,2021.2.3,59.95487785265527,
,,,,,,,,96,0,96,0,,,,,,,,,,,,,,,,,,,,,,,,,,,,,,,,,,,,,,,,,,,,,,,,,,,,,4443.2474424997345,None,,,,,,,,,,,,,,,,,,,,,,,,,,,,,,,,,,,window,70,97,silent,white,4441.245331799611,None,None,4441.245331799611,None,,,,,,,,,,,,,,,,,,,,,,,,,,,,,,40YD,001,2023_Apr_14_1150,ExactRep-v3-final,2021.2.3,59.95487785265527,
,,,,,,,,97,0,97,0,,,,,,,,,,,,,,,,,,,,,,,,,,,,,,,,,,,,,,,,,,,,,,,,,,,,,4445.7665571998805,None,,,,,,,,,,,,,,,,,,,,,,,,,,,,,,,,,,,water,100,98,aloud,blue,4443.751165299676,None,None,4443.751165299676,None,,,,,,,,,,,,,,,,,,,,,,,,,,,,,,40YD,001,2023_Apr_14_1150,ExactRep-v3-final,2021.2.3,59.95487785265527,
,,,,,,,,98,0,98,0,,,,,,,,,,,,,,,,,,,,,,,,,,,,,,,,,,,,,,,,,,,,,,,,,,,,,4448.268830800429,None,,,,,,,,,,,,,,,,,,,,,,,,,,,,,,,,,,,grass,117,99,aloud,blue,4446.266856900416,None,None,4446.266856900416,None,,,,,,,,,,,,,,,,,,,,,,,,,,,,,,40YD,001,2023_Apr_14_1150,ExactRep-v3-final,2021.2.3,59.95487785265527,
,,,,,,,,99,0,99,0,,,,,,,,,,,,,,,,,,,,,,,,,,,,,,,,,,,,,,,,,,,,,,,,,,,,,4450.788200000301,None,,,,,,,,,,,,,,,,,,,,,,,,,,,,,,,,,,,dawn,15,100,sing,red,4448.776902300306,None,None,4448.776902300306,None,,,,,,,,,,,,,,,,,,,,,,,,,,,,,,40YD,001,2023_Apr_14_1150,ExactRep-v3-final,2021.2.3,59.95487785265527,
,,,,,,,,100,0,100,0,,,,,,,,,,,,,,,,,,,,,,,,,,,,,,,,,,,,,,,,,,,,,,,,,,,,,4453.290694599971,None,,,,,,,,,,,,,,,,,,,,,,,,,,,,,,,,,,,cabin,5,101,sing,red,4451.289826200344,None,None,4451.289826200344,None,,,,,,,,,,,,,,,,,,,,,,,,,,,,,,40YD,001,2023_Apr_14_1150,ExactRep-v3-final,2021.2.3,59.95487785265527,
,,,,,,,,101,0,101,0,,,,,,,,,,,,,,,,,,,,,,,,,,,,,,,,,,,,,,,,,,,,,,,,,,,,,4455.793173099868,None,,,,,,,,,,,,,,,,,,,,,,,,,,,,,,,,,,,love,40,102,silent,white,4453.793545800261,None,None,4453.793545800261,None,,,,,,,,,,,,,,,,,,,,,,,,,,,,,,40YD,001,2023_Apr_14_1150,ExactRep-v3-final,2021.2.3,59.95487785265527,
,,,,,,,,102,0,102,0,,,,,,,,,,,,,,,,,,,,,,,,,,,,,,,,,,,,,,,,,,,,,,,,,,,,,4458.312411700375,None,,,,,,,,,,,,,,,,,,,,,,,,,,,,,,,,,,,volume,118,103,aloud,blue,4456.296920900233,None,None,4456.296920900233,None,,,,,,,,,,,,,,,,,,,,,,,,,,,,,,40YD,001,2023_Apr_14_1150,ExactRep-v3-final,2021.2.3,59.95487785265527,
,,,,,,,,103,0,103,0,,,,,,,,,,,,,,,,,,,,,,,,,,,,,,,,,,,,,,,,,,,,,,,,,,,,,4460.8149712001905,None,,,,,,,,,,,,,,,,,,,,,,,,,,,,,,,,,,,square,35,104,sing,red,4458.815275399946,None,None,4458.815275399946,None,,,,,,,,,,,,,,,,,,,,,,,,,,,,,,40YD,001,2023_Apr_14_1150,ExactRep-v3-final,2021.2.3,59.95487785265527,
,,,,,,,,104,0,104,0,,,,,,,,,,,,,,,,,,,,,,,,,,,,,,,,,,,,,,,,,,,,,,,,,,,,,4463.317199899815,None,,,,,,,,,,,,,,,,,,,,,,,,,,,,,,,,,,,temple,109,105,aloud,blue,4461.315331700258,None,None,4461.315331700258,None,,,,,,,,,,,,,,,,,,,,,,,,,,,,,,40YD,001,2023_Apr_14_1150,ExactRep-v3-final,2021.2.3,59.95487785265527,
,,,,,,,,105,0,105,0,,,,,,,,,,,,,,,,,,,,,,,,,,,,,,,,,,,,,,,,,,,,,,,,,,,,,4465.8199372002855,None,,,,,,,,,,,,,,,,,,,,,,,,,,,,,,,,,,,soul,98,106,aloud,blue,4463.817691200413,None,None,4463.817691200413,None,,,,,,,,,,,,,,,,,,,,,,,,,,,,,,40YD,001,2023_Apr_14_1150,ExactRep-v3-final,2021.2.3,59.95487785265527,
,,,,,,,,106,0,106,0,,,,,,,,,,,,,,,,,,,,,,,,,,,,,,,,,,,,,,,,,,,,,,,,,,,,,4468.339030500501,None,,,,,,,,,,,,,,,,,,,,,,,,,,,,,,,,,,,spirit,86,107,aloud,blue,4466.326717699878,None,None,4466.326717699878,None,,,,,,,,,,,,,,,,,,,,,,,,,,,,,,40YD,001,2023_Apr_14_1150,ExactRep-v3-final,2021.2.3,59.95487785265527,
,,,,,,,,107,0,107,0,,,,,,,,,,,,,,,,,,,,,,,,,,,,,,,,,,,,,,,,,,,,,,,,,,,,,4470.841560999863,None,,,,,,,,,,,,,,,,,,,,,,,,,,,,,,,,,,,door,25,108,sing,red,4468.839692199603,None,None,4468.839692199603,None,,,,,,,,,,,,,,,,,,,,,,,,,,,,,,40YD,001,2023_Apr_14_1150,ExactRep-v3-final,2021.2.3,59.95487785265527,
,,,,,,,,108,0,108,0,,,,,,,,,,,,,,,,,,,,,,,,,,,,,,,,,,,,,,,,,,,,,,,,,,,,,4473.344051999971,None,,,,,,,,,,,,,,,,,,,,,,,,,,,,,,,,,,,truth,90,109,aloud,blue,4471.3447000999,None,None,4471.3447000999,None,,,,,,,,,,,,,,,,,,,,,,,,,,,,,,40YD,001,2023_Apr_14_1150,ExactRep-v3-final,2021.2.3,59.95487785265527,
,,,,,,,,109,0,109,0,,,,,,,,,,,,,,,,,,,,,,,,,,,,,,,,,,,,,,,,,,,,,,,,,,,,,4475.86321759969,None,,,,,,,,,,,,,,,,,,,,,,,,,,,,,,,,,,,college,50,110,silent,white,4473.851663700305,None,None,4473.851663700305,None,,,,,,,,,,,,,,,,,,,,,,,,,,,,,,40YD,001,2023_Apr_14_1150,ExactRep-v3-final,2021.2.3,59.95487785265527,
,,,,,,,,110,0,110,0,,,,,,,,,,,,,,,,,,,,,,,,,,,,,,,,,,,,,,,,,,,,,,,,,,,,,4478.3838724996895,None,,,,,,,,,,,,,,,,,,,,,,,,,,,,,,,,,,,product,14,111,sing,red,4476.373318900354,None,None,4476.373318900354,None,,,,,,,,,,,,,,,,,,,,,,,,,,,,,,40YD,001,2023_Apr_14_1150,ExactRep-v3-final,2021.2.3,59.95487785265527,
,,,,,,,,111,0,111,0,,,,,,,,,,,,,,,,,,,,,,,,,,,,,,,,,,,,,,,,,,,,,,,,,,,,,4480.884959200397,None,,,,,,,,,,,,,,,,,,,,,,,,,,,,,,,,,,,valley,89,112,aloud,blue,4478.882916100323,None,None,4478.882916100323,None,,,,,,,,,,,,,,,,,,,,,,,,,,,,,,40YD,001,2023_Apr_14_1150,ExactRep-v3-final,2021.2.3,59.95487785265527,
,,,,,,,,112,0,112,0,,,,,,,,,,,,,,,,,,,,,,,,,,,,,,,,,,,,,,,,,,,,,,,,,,,,,4483.4041069997475,None,,,,,,,,,,,,,,,,,,,,,,,,,,,,,,,,,,,amount,67,113,silent,white,4481.388873799704,None,None,4481.388873799704,None,,,,,,,,,,,,,,,,,,,,,,,,,,,,,,40YD,001,2023_Apr_14_1150,ExactRep-v3-final,2021.2.3,59.95487785265527,
,,,,,,,,113,0,113,0,,,,,,,,,,,,,,,,,,,,,,,,,,,,,,,,,,,,,,,,,,,,,,,,,,,,,4485.9066997999325,None,,,,,,,,,,,,,,,,,,,,,,,,,,,,,,,,,,,speech,55,114,silent,white,4483.906488999724,None,None,4483.906488999724,None,,,,,,,,,,,,,,,,,,,,,,,,,,,,,,40YD,001,2023_Apr_14_1150,ExactRep-v3-final,2021.2.3,59.95487785265527,
,,,,,,,,114,0,114,0,,,,,,,,,,,,,,,,,,,,,,,,,,,,,,,,,,,,,,,,,,,,,,,,,,,,,4488.409150100313,None,,,,,,,,,,,,,,,,,,,,,,,,,,,,,,,,,,,glory,34,115,sing,red,4486.409840100445,None,None,4486.409840100445,None,,,,,,,,,,,,,,,,,,,,,,,,,,,,,,40YD,001,2023_Apr_14_1150,ExactRep-v3-final,2021.2.3,59.95487785265527,
,,,,,,,,115,0,115,0,,,,,,,,,,,,,,,,,,,,,,,,,,,,,,,,,,,,,,,,,,,,,,,,,,,,,4490.911660299636,None,,,,,,,,,,,,,,,,,,,,,,,,,,,,,,,,,,,advice,66,116,silent,white,4488.912625799887,None,None,4488.912625799887,None,,,,,,,,,,,,,,,,,,,,,,,,,,,,,,40YD,001,2023_Apr_14_1150,ExactRep-v3-final,2021.2.3,59.95487785265527,
,,,,,,,,116,0,116,0,,,,,,,,,,,,,,,,,,,,,,,,,,,,,,,,,,,,,,,,,,,,,,,,,,,,,4493.4142776001245,None,,,,,,,,,,,,,,,,,,,,,,,,,,,,,,,,,,,opinion,39,117,silent,white,4491.415030200034,None,None,4491.415030200034,None,,,,,,,,,,,,,,,,,,,,,,,,,,,,,,40YD,001,2023_Apr_14_1150,ExactRep-v3-final,2021.2.3,59.95487785265527,
,,,,,,,,117,0,117,0,,,,,,,,,,,,,,,,,,,,,,,,,,,,,,,,,,,,,,,,,,,,,,,,,,,,,4495.916573099792,None,,,,,,,,,,,,,,,,,,,,,,,,,,,,,,,,,,,table,31,118,sing,red,4493.914469099604,None,None,4493.914469099604,None,,,,,,,,,,,,,,,,,,,,,,,,,,,,,,40YD,001,2023_Apr_14_1150,ExactRep-v3-final,2021.2.3,59.95487785265527,
,,,,,,,,118,0,118,0,,,,,,,,,,,,,,,,,,,,,,,,,,,,,,,,,,,,,,,,,,,,,,,,,,,,,4498.435794600286,None,,,,,,,,,,,,,,,,,,,,,,,,,,,,,,,,,,,cash,72,119,silent,white,4496.426555000246,None,None,4496.426555000246,None,,,,,,,,,,,,,,,,,,,,,,,,,,,,,,40YD,001,2023_Apr_14_1150,ExactRep-v3-final,2021.2.3,59.95487785265527,
,,,,,,,,119,0,119,0,,,,,,,,,,,,,,,,,,,,,,,,,,,,,,,,,,,,,,,,,,,,,,,,,,,,,4500.938183000311,None,,,,,,,,,,,,,,,,,,,,,,,,,,,,,,,,,,,mind,56,120,silent,white,4498.9362246003,None,None,4498.9362246003,None,,,,,,,,,,,,,,,,,,,,,,,,,,,,,,40YD,001,2023_Apr_14_1150,ExactRep-v3-final,2021.2.3,59.95487785265527,
,,,,,,,,,,,,,,,,,,,,,,,,,,,,,,,,,,,,,,,,,,,,,,,,,,,,,,,,,,,,,,,,,,,,,,,,,,,,,,,,,,,,,,,,,,,,,,,,,,,,,,,,,,,,,,4501.440220800228,None,space,7.997883300296962,4511.416779099964,None,,,,,,,,,,,,,,,,,,,,,,,,40YD,001,2023_Apr_14_1150,ExactRep-v3-final,2021.2.3,59.95487785265527,
,,,,,,,,,,,,,,,,,,,,,,,,,,,,,,,,,,,,,,,,,,,,,,,,,,,,,,,,,,,,,,,,,,,,,,,,,,,,,,,,,,,,,,,,,,,,,,,,,,,,,,,,,,,,,,,,,,,,4519.441889500245,None,space,20.57246300019324,4529.418406300247,None,,,,,,,,,,,,,,,,,,40YD,001,2023_Apr_14_1150,ExactRep-v3-final,2021.2.3,59.95487785265527,
,,,,,,,,,,,,0,0,0,0,,,,,,,,,,,,,,,,,,,,,,,,,,,,,,,,,,,,,,,,,,,,,,,,,4555.409268800169,None,,,,,,,,,,,,,,,,,,,,,,,,,,,,,,,,,,,,,,,,,,,,,,,,,,,,,,,,,truth,90,1,aloud,old,blue,4550.538728600368,None,y,4550.538728600368,None,"['y', 'return']","[3.236015699803829, 4.827722200192511]",4550.538728600368,None,,,40YD,001,2023_Apr_14_1150,ExactRep-v3-final,2021.2.3,59.95487785265527,
,,,,,,,,,,,,1,0,1,0,,,,,,,,,,,,,,,,,,,,,,,,,,,,,,,,,,,,,,,,,,,,,,,,,4570.224164100364,None,,,,,,,,,,,,,,,,,,,,,,,,,,,,,,,,,,,,,,,,,,,,,,,,,,,,,,,,,disease,20,2,sing,old,red,4555.921113699675,None,n,4555.921113699675,None,"['n', 'return']","[13.89343240018934, 14.261288999579847]",4555.921113699675,None,,,40YD,001,2023_Apr_14_1150,ExactRep-v3-final,2021.2.3,59.95487785265527,
,,,,,,,,,,,,2,0,2,0,,,,,,,,,,,,,,,,,,,,,,,,,,,,,,,,,,,,,,,,,,,,,,,,,4573.461763000116,None,,,,,,,,,,,,,,,,,,,,,,,,,,,,,,,,,,,,,,,,,,,,,,,,,,,,,,,,,teacher,124,3,silent,new,white,4570.734082600102,None,n,4570.734082600102,None,"['n', 'return']","[2.4885070994496346, 2.6804178999736905]",4570.734082600102,None,,,40YD,001,2023_Apr_14_1150,ExactRep-v3-final,2021.2.3,59.95487785265527,
,,,,,,,,,,,,3,0,3,0,,,,,,,,,,,,,,,,,,,,,,,,,,,,,,,,,,,,,,,,,,,,,,,,,4575.498014600016,None,,,,,,,,,,,,,,,,,,,,,,,,,,,,,,,,,,,,,,,,,,,,,,,,,,,,,,,,,law,213,4,sing,new,red,4573.967866700143,None,n,4573.967866700143,None,"['n', 'return']","[1.3027527993544936, 1.4866269994527102]",4573.967866700143,None,,,40YD,001,2023_Apr_14_1150,ExactRep-v3-final,2021.2.3,59.95487785265527,
,,,,,,,,,,,,4,0,4,0,,,,,,,,,,,,,,,,,,,,,,,,,,,,,,,,,,,,,,,,,,,,,,,,,4579.283312099986,None,,,,,,,,,,,,,,,,,,,,,,,,,,,,,,,,,,,,,,,,,,,,,,,,,,,,,,,,,water,100,5,aloud,old,blue,4576.020131500438,None,y,4576.020131500438,None,"['y', 'return']","[2.946311100386083, 3.2184039000421762]",4576.020131500438,None,,,40YD,001,2023_Apr_14_1150,ExactRep-v3-final,2021.2.3,59.95487785265527,
,,,,,,,,,,,,5,0,5,0,,,,,,,,,,,,,,,,,,,,,,,,,,,,,,,,,,,,,,,,,,,,,,,,,4581.068249200471,None,,,,,,,,,,,,,,,,,,,,,,,,,,,,,,,,,,,,,,,,,,,,,,,,,,,,,,,,,mind,56,6,silent,old,white,4579.792300400324,None,n,4579.792300400324,None,"['n', 'return']","[1.1021667001768947, 1.2302417000755668]",4579.792300400324,None,,,40YD,001,2023_Apr_14_1150,ExactRep-v3-final,2021.2.3,59.95487785265527,
,,,,,,,,,,,,6,0,6,0,,,,,,,,,,,,,,,,,,,,,,,,,,,,,,,,,,,,,,,,,,,,,,,,,4582.66984899994,None,,,,,,,,,,,,,,,,,,,,,,,,,,,,,,,,,,,,,,,,,,,,,,,,,,,,,,,,,memory,123,7,silent,new,white,4581.582736800425,None,n,4581.582736800425,None,"['n', 'return']","[0.9277496999129653, 1.055800599977374]",4581.582736800425,None,,,40YD,001,2023_Apr_14_1150,ExactRep-v3-final,2021.2.3,59.95487785265527,
,,,,,,,,,,,,7,0,7,0,,,,,,,,,,,,,,,,,,,,,,,,,,,,,,,,,,,,,,,,,,,,,,,,,4584.605226599611,None,,,,,,,,,,,,,,,,,,,,,,,,,,,,,,,,,,,,,,,,,,,,,,,,,,,,,,,,,meadow,220,8,aloud,new,blue,4583.178581199609,None,n,4583.178581199609,None,"['n', 'return']","[1.2438487000763416, 1.3881350997835398]",4583.178581199609,None,,,40YD,001,2023_Apr_14_1150,ExactRep-v3-final,2021.2.3,59.95487785265527,
,,,,,,,,,,,,8,0,8,0,,,,,,,,,,,,,,,,,,,,,,,,,,,,,,,,,,,,,,,,,,,,,,,,,4586.173379600048,None,,,,,,,,,,,,,,,,,,,,,,,,,,,,,,,,,,,,,,,,,,,,,,,,,,,,,,,,,judge,29,9,sing,old,red,4585.128322600387,None,y,4585.128322600387,None,"['y', 'return']","[0.8062343001365662, 1.0062394998967648]",4585.128322600387,None,,,40YD,001,2023_Apr_14_1150,ExactRep-v3-final,2021.2.3,59.95487785265527,
,,,,,,,,,,,,9,0,9,0,,,,,,,,,,,,,,,,,,,,,,,,,,,,,,,,,,,,,,,,,,,,,,,,,4587.558136300184,None,,,,,,,,,,,,,,,,,,,,,,,,,,,,,,,,,,,,,,,,,,,,,,,,,,,,,,,,,owner,130,10,silent,new,white,4586.685391000472,None,n,4586.685391000472,None,"['n', 'return']","[0.641172400675714, 0.833139699883759]",4586.685391000472,None,,,40YD,001,2023_Apr_14_1150,ExactRep-v3-final,2021.2.3,59.95487785265527,
,,,,,,,,,,,,10,0,10,0,,,,,,,,,,,,,,,,,,,,,,,,,,,,,,,,,,,,,,,,,,,,,,,,,4589.126298500225,None,,,,,,,,,,,,,,,,,,,,,,,,,,,,,,,,,,,,,,,,,,,,,,,,,,,,,,,,,camp,96,11,aloud,old,blue,4588.06145989988,None,y,4588.06145989988,None,"['y', 'return']","[0.8810205003246665, 1.0172794004902244]",4588.06145989988,None,,,40YD,001,2023_Apr_14_1150,ExactRep-v3-final,2021.2.3,59.95487785265527,
,,,,,,,,,,,,11,0,11,0,,,,,,,,,,,,,,,,,,,,,,,,,,,,,,,,,,,,,,,,,,,,,,,,,4590.444521900266,None,,,,,,,,,,,,,,,,,,,,,,,,,,,,,,,,,,,,,,,,,,,,,,,,,,,,,,,,,month,38,12,sing,old,red,4589.64429299999,None,y,4589.64429299999,None,"['y', 'return']","[0.602283900603652, 0.7542999004945159]",4589.64429299999,None,,,40YD,001,2023_Apr_14_1150,ExactRep-v3-final,2021.2.3,59.95487785265527,
,,,,,,,,,,,,12,0,12,0,,,,,,,,,,,,,,,,,,,,,,,,,,,,,,,,,,,,,,,,,,,,,,,,,4592.012526100501,None,,,,,,,,,,,,,,,,,,,,,,,,,,,,,,,,,,,,,,,,,,,,,,,,,,,,,,,,,pride,172,13,aloud,new,blue,4590.952776500024,None,n,4590.952776500024,None,"['n', 'return']","[0.8377524996176362, 1.0137212993577123]",4590.952776500024,None,,,40YD,001,2023_Apr_14_1150,ExactRep-v3-final,2021.2.3,59.95487785265527,
,,,,,,,,,,,,13,0,13,0,,,,,,,,,,,,,,,,,,,,,,,,,,,,,,,,,,,,,,,,,,,,,,,,,4593.463971800171,None,,,,,,,,,,,,,,,,,,,,,,,,,,,,,,,,,,,,,,,,,,,,,,,,,,,,,,,,,fur,180,14,aloud,new,blue,4592.521126599982,None,n,4592.521126599982,None,"['n', 'return']","[0.7576754000037909, 0.9017246002331376]",4592.521126599982,None,,,40YD,001,2023_Apr_14_1150,ExactRep-v3-final,2021.2.3,59.95487785265527,
,,,,,,,,,,,,14,0,14,0,,,,,,,,,,,,,,,,,,,,,,,,,,,,,,,,,,,,,,,,,,,,,,,,,4595.649769799784,None,,,,,,,,,,,,,,,,,,,,,,,,,,,,,,,,,,,,,,,,,,,,,,,,,,,,,,,,,gift,190,15,aloud,new,blue,4593.967223200016,None,n,4593.967223200016,None,"['n', 'return']","[1.487283700145781, 1.639338799752295]",4593.967223200016,None,,,40YD,001,2023_Apr_14_1150,ExactRep-v3-final,2021.2.3,59.95487785265527,
,,,,,,,,,,,,15,0,15,0,,,,,,,,,,,,,,,,,,,,,,,,,,,,,,,,,,,,,,,,,,,,,,,,,4597.284532199614,None,,,,,,,,,,,,,,,,,,,,,,,,,,,,,,,,,,,,,,,,,,,,,,,,,,,,,,,,,meat,126,16,silent,new,white,4596.160095199943,None,n,4596.160095199943,None,"['n', 'return']","[0.9584274999797344, 1.0866603003814816]",4596.160095199943,None,,,40YD,001,2023_Apr_14_1150,ExactRep-v3-final,2021.2.3,59.95487785265527,
,,,,,,,,,,,,16,0,16,0,,,,,,,,,,,,,,,,,,,,,,,,,,,,,,,,,,,,,,,,,,,,,,,,,4600.9715836998075,None,,,,,,,,,,,,,,,,,,,,,,,,,,,,,,,,,,,,,,,,,,,,,,,,,,,,,,,,,rock,121,17,silent,new,white,4597.791493000463,None,n,4597.791493000463,None,"['n', 'return']","[3.006938099861145, 3.1432201005518436]",4597.791493000463,None,,,40YD,001,2023_Apr_14_1150,ExactRep-v3-final,2021.2.3,59.95487785265527,
,,,,,,,,,,,,17,0,17,0,,,,,,,,,,,,,,,,,,,,,,,,,,,,,,,,,,,,,,,,,,,,,,,,,4602.206176499836,None,,,,,,,,,,,,,,,,,,,,,,,,,,,,,,,,,,,,,,,,,,,,,,,,,,,,,,,,,amount,67,18,silent,old,white,4601.4824508000165,None,n,4601.4824508000165,None,"['n', 'return']","[0.5480936001986265, 0.6760410005226731]",4601.4824508000165,None,,,40YD,001,2023_Apr_14_1150,ExactRep-v3-final,2021.2.3,59.95487785265527,
,,,,,,,,,,,,18,0,18,0,,,,,,,,,,,,,,,,,,,,,,,,,,,,,,,,,,,,,,,,,,,,,,,,,4605.559416600503,None,,,,,,,,,,,,,,,,,,,,,,,,,,,,,,,,,,,,,,,,,,,,,,,,,,,,,,,,,rod,113,19,aloud,old,blue,4602.714826200157,None,y,4602.714826200157,None,"['y', 'return']","[2.651799799874425, 2.803847599774599]",4602.714826200157,None,,,40YD,001,2023_Apr_14_1150,ExactRep-v3-final,2021.2.3,59.95487785265527,
,,,,,,,,,,,,19,0,19,0,,,,,,,,,,,,,,,,,,,,,,,,,,,,,,,,,,,,,,,,,,,,,,,,,4607.4447566000745,None,,,,,,,,,,,,,,,,,,,,,,,,,,,,,,,,,,,,,,,,,,,,,,,,,,,,,,,,,dress,165,20,sing,new,red,4606.072155499831,None,n,4606.072155499831,None,"['n', 'return']","[1.2385505000129342, 1.3343596998602152]",4606.072155499831,None,,,40YD,001,2023_Apr_14_1150,ExactRep-v3-final,2021.2.3,59.95487785265527,
,,,,,,,,,,,,20,0,20,0,,,,,,,,,,,,,,,,,,,,,,,,,,,,,,,,,,,,,,,,,,,,,,,,,4609.7802844997495,None,,,,,,,,,,,,,,,,,,,,,,,,,,,,,,,,,,,,,,,,,,,,,,,,,,,,,,,,,lord,225,21,sing,new,red,4607.9533369001,None,y,4607.9533369001,None,"['y', 'return']","[1.6131910001859069, 1.7812762996181846]",4607.9533369001,None,,,40YD,001,2023_Apr_14_1150,ExactRep-v3-final,2021.2.3,59.95487785265527,
,,,,,,,,,,,,21,0,21,0,,,,,,,,,,,,,,,,,,,,,,,,,,,,,,,,,,,,,,,,,,,,,,,,,4612.032551200129,None,,,,,,,,,,,,,,,,,,,,,,,,,,,,,,,,,,,,,,,,,,,,,,,,,,,,,,,,,advice,66,22,silent,old,white,4610.295207600109,None,n,4610.295207600109,None,"['n', 'return']","[1.5433325003832579, 1.695375300012529]",4610.295207600109,None,,,40YD,001,2023_Apr_14_1150,ExactRep-v3-final,2021.2.3,59.95487785265527,
,,,,,,,,,,,,22,0,22,0,,,,,,,,,,,,,,,,,,,,,,,,,,,,,,,,,,,,,,,,,,,,,,,,,4613.350584000349,None,,,,,,,,,,,,,,,,,,,,,,,,,,,,,,,,,,,,,,,,,,,,,,,,,,,,,,,,,college,50,23,silent,old,white,4612.542252800427,None,n,4612.542252800427,None,"['n', 'return']","[0.6242239000275731, 0.7764770006760955]",4612.542252800427,None,,,40YD,001,2023_Apr_14_1150,ExactRep-v3-final,2021.2.3,59.95487785265527,
,,,,,,,,,,,,23,0,23,0,,,,,,,,,,,,,,,,,,,,,,,,,,,,,,,,,,,,,,,,,,,,,,,,,4614.835536999628,None,,,,,,,,,,,,,,,,,,,,,,,,,,,,,,,,,,,,,,,,,,,,,,,,,,,,,,,,,shame,51,24,silent,old,white,4613.861190799624,None,n,4613.861190799624,None,"['n', 'return']","[0.8095209999009967, 0.9373393002897501]",4613.861190799624,None,,,40YD,001,2023_Apr_14_1150,ExactRep-v3-final,2021.2.3,59.95487785265527,
,,,,,,,,,,,,24,0,24,0,,,,,,,,,,,,,,,,,,,,,,,,,,,,,,,,,,,,,,,,,,,,,,,,,4616.153411099687,None,,,,,,,,,,,,,,,,,,,,,,,,,,,,,,,,,,,,,,,,,,,,,,,,,,,,,,,,,shock,10,25,sing,old,red,4615.348379399627,None,y,4615.348379399627,None,"['y', 'return']","[0.6420468995347619, 0.7702599996700883]",4615.348379399627,None,,,40YD,001,2023_Apr_14_1150,ExactRep-v3-final,2021.2.3,59.95487785265527,
,,,,,,,,,,,,25,0,25,0,,,,,,,,,,,,,,,,,,,,,,,,,,,,,,,,,,,,,,,,,,,,,,,,,4618.489086899906,None,,,,,,,,,,,,,,,,,,,,,,,,,,,,,,,,,,,,,,,,,,,,,,,,,,,,,,,,,fate,134,26,silent,new,white,4616.667240199633,None,n,4616.667240199633,None,"['n', 'return']","[1.6752970004454255, 1.7792132003232837]",4616.667240199633,None,,,40YD,001,2023_Apr_14_1150,ExactRep-v3-final,2021.2.3,59.95487785265527,
,,,,,,,,,,,,26,0,26,0,,,,,,,,,,,,,,,,,,,,,,,,,,,,,,,,,,,,,,,,,,,,,,,,,4620.324235299602,None,,,,,,,,,,,,,,,,,,,,,,,,,,,,,,,,,,,,,,,,,,,,,,,,,,,,,,,,,ship,119,27,aloud,old,blue,4618.995083000511,None,n,4618.995083000511,None,"['n', 'return']","[1.1634288001805544, 1.2914662007242441]",4618.995083000511,None,,,40YD,001,2023_Apr_14_1150,ExactRep-v3-final,2021.2.3,59.95487785265527,
,,,,,,,,,,,,27,0,27,0,,,,,,,,,,,,,,,,,,,,,,,,,,,,,,,,,,,,,,,,,,,,,,,,,4621.942693799734,None,,,,,,,,,,,,,,,,,,,,,,,,,,,,,,,,,,,,,,,,,,,,,,,,,,,,,,,,,event,16,28,sing,old,red,4620.833800899796,None,y,4620.833800899796,None,"['y', 'return']","[0.9086726000532508, 1.0608713002875447]",4620.833800899796,None,,,40YD,001,2023_Apr_14_1150,ExactRep-v3-final,2021.2.3,59.95487785265527,
,,,,,,,,,,,,28,0,28,0,,,,,,,,,,,,,,,,,,,,,,,,,,,,,,,,,,,,,,,,,,,,,,,,,4623.494067099877,None,,,,,,,,,,,,,,,,,,,,,,,,,,,,,,,,,,,,,,,,,,,,,,,,,,,,,,,,,maiden,94,29,aloud,old,blue,4622.451792599633,None,y,4622.451792599633,None,"['y', 'return']","[0.8746651001274586, 1.002946300432086]",4622.451792599633,None,,,40YD,001,2023_Apr_14_1150,ExactRep-v3-final,2021.2.3,59.95487785265527,
,,,,,,,,,,,,29,0,29,0,,,,,,,,,,,,,,,,,,,,,,,,,,,,,,,,,,,,,,,,,,,,,,,,,4625.96319629997,None,,,,,,,,,,,,,,,,,,,,,,,,,,,,,,,,,,,,,,,,,,,,,,,,,,,,,,,,,dawn,15,30,sing,old,red,4624.0026823002845,None,y,4624.0026823002845,None,"['y', 'return']","[1.7958204001188278, 1.9238657001405954]",4624.0026823002845,None,,,40YD,001,2023_Apr_14_1150,ExactRep-v3-final,2021.2.3,59.95487785265527,
,,,,,,,,,,,,30,0,30,0,,,,,,,,,,,,,,,,,,,,,,,,,,,,,,,,,,,,,,,,,,,,,,,,,4627.331175800413,None,,,,,,,,,,,,,,,,,,,,,,,,,,,,,,,,,,,,,,,,,,,,,,,,,,,,,,,,,iron,143,31,silent,new,white,4626.470482200384,None,n,4626.470482200384,None,"['n', 'return']","[0.7120896000415087, 0.824099900200963]",4626.470482200384,None,,,40YD,001,2023_Apr_14_1150,ExactRep-v3-final,2021.2.3,59.95487785265527,
,,,,,,,,,,,,31,0,31,0,,,,,,,,,,,,,,,,,,,,,,,,,,,,,,,,,,,,,,,,,,,,,,,,,4629.817058200017,None,,,,,,,,,,,,,,,,,,,,,,,,,,,,,,,,,,,,,,,,,,,,,,,,,,,,,,,,,speech,55,32,silent,old,white,4627.8457998000085,None,y,4627.8457998000085,None,"['y', 'return']","[1.8247803999111056, 1.928715799935162]",4627.8457998000085,None,,,40YD,001,2023_Apr_14_1150,ExactRep-v3-final,2021.2.3,59.95487785265527,
,,,,,,,,,,,,32,0,32,0,,,,,,,,,,,,,,,,,,,,,,,,,,,,,,,,,,,,,,,,,,,,,,,,,4632.65322369989,None,,,,,,,,,,,,,,,,,,,,,,,,,,,,,,,,,,,,,,,,,,,,,,,,,,,,,,,,,pole,6,33,sing,old,red,4630.317426900379,None,y,4630.317426900379,None,"['y', 'return']","[2.1694507002830505, 2.289195300079882]",4630.317426900379,None,,,40YD,001,2023_Apr_14_1150,ExactRep-v3-final,2021.2.3,59.95487785265527,
,,,,,,,,,,,,33,0,33,0,,,,,,,,,,,,,,,,,,,,,,,,,,,,,,,,,,,,,,,,,,,,,,,,,4634.638687400147,None,,,,,,,,,,,,,,,,,,,,,,,,,,,,,,,,,,,,,,,,,,,,,,,,,,,,,,,,,thought,81,34,aloud,old,blue,4633.165997600183,None,y,4633.165997600183,None,"['y', 'return']","[1.3126344000920653, 1.4405830996111035]",4633.165997600183,None,,,40YD,001,2023_Apr_14_1150,ExactRep-v3-final,2021.2.3,59.95487785265527,
,,,,,,,,,,,,34,0,34,0,,,,,,,,,,,,,,,,,,,,,,,,,,,,,,,,,,,,,,,,,,,,,,,,,4636.106740499847,None,,,,,,,,,,,,,,,,,,,,,,,,,,,,,,,,,,,,,,,,,,,,,,,,,,,,,,,,,window,70,35,silent,old,white,4635.146669399925,None,n,4635.146669399925,None,"['n', 'return']","[0.8038606001064181, 0.9239541003480554]",4635.146669399925,None,,,40YD,001,2023_Apr_14_1150,ExactRep-v3-final,2021.2.3,59.95487785265527,
,,,,,,,,,,,,35,0,35,0,,,,,,,,,,,,,,,,,,,,,,,,,,,,,,,,,,,,,,,,,,,,,,,,,4638.141996099614,None,,,,,,,,,,,,,,,,,,,,,,,,,,,,,,,,,,,,,,,,,,,,,,,,,,,,,,,,,fault,125,36,silent,new,white,4636.618781100027,None,n,4636.618781100027,None,"['n', 'return']","[1.3716265000402927, 1.4757543997839093]",4636.618781100027,None,,,40YD,001,2023_Apr_14_1150,ExactRep-v3-final,2021.2.3,59.95487785265527,
,,,,,,,,,,,,36,0,36,0,,,,,,,,,,,,,,,,,,,,,,,,,,,,,,,,,,,,,,,,,,,,,,,,,4640.044137000106,None,,,,,,,,,,,,,,,,,,,,,,,,,,,,,,,,,,,,,,,,,,,,,,,,,,,,,,,,,queen,179,37,sing,new,red,4638.650627600029,None,n,4638.650627600029,None,"['n', 'return']","[1.1960152005776763, 1.3561358004808426]",4638.650627600029,None,,,40YD,001,2023_Apr_14_1150,ExactRep-v3-final,2021.2.3,59.95487785265527,
,,,,,,,,,,,,37,0,37,0,,,,,,,,,,,,,,,,,,,,,,,,,,,,,,,,,,,,,,,,,,,,,,,,,4641.6122174998745,None,,,,,,,,,,,,,,,,,,,,,,,,,,,,,,,,,,,,,,,,,,,,,,,,,,,,,,,,,ticket,74,38,silent,old,white,4640.552028000355,None,n,4640.552028000355,None,"['n', 'return']","[0.942454700358212, 1.0145261995494366]",4640.552028000355,None,,,40YD,001,2023_Apr_14_1150,ExactRep-v3-final,2021.2.3,59.95487785265527,
,,,,,,,,,,,,38,0,38,0,,,,,,,,,,,,,,,,,,,,,,,,,,,,,,,,,,,,,,,,,,,,,,,,,4643.198641099967,None,,,,,,,,,,,,,,,,,,,,,,,,,,,,,,,,,,,,,,,,,,,,,,,,,,,,,,,,,author,148,39,silent,new,white,4642.131697200239,None,n,4642.131697200239,None,"['n', 'return']","[0.9148822007700801, 1.026834100484848]",4642.131697200239,None,,,40YD,001,2023_Apr_14_1150,ExactRep-v3-final,2021.2.3,59.95487785265527,
,,,,,,,,,,,,39,0,39,0,,,,,,,,,,,,,,,,,,,,,,,,,,,,,,,,,,,,,,,,,,,,,,,,,4644.781740600243,None,,,,,,,,,,,,,,,,,,,,,,,,,,,,,,,,,,,,,,,,,,,,,,,,,,,,,,,,,effort,75,40,silent,old,white,4643.704138499685,None,y,4643.704138499685,None,"['y', 'return']","[0.9263201002031565, 1.0384936006739736]",4643.704138499685,None,,,40YD,001,2023_Apr_14_1150,ExactRep-v3-final,2021.2.3,59.95487785265527,
,,,,,,,,,,,,40,0,40,0,,,,,,,,,,,,,,,,,,,,,,,,,,,,,,,,,,,,,,,,,,,,,,,,,4647.334638000466,None,,,,,,,,,,,,,,,,,,,,,,,,,,,,,,,,,,,,,,,,,,,,,,,,,,,,,,,,,opinion,39,41,silent,old,white,4645.296893199906,None,y,4645.296893199906,None,"['y', 'return']","[1.8859954001381993, 1.9976912001147866]",4645.296893199906,None,,,40YD,001,2023_Apr_14_1150,ExactRep-v3-final,2021.2.3,59.95487785265527,
,,,,,,,,,,,,41,0,41,0,,,,,,,,,,,,,,,,,,,,,,,,,,,,,,,,,,,,,,,,,,,,,,,,,4649.320066699758,None,,,,,,,,,,,,,,,,,,,,,,,,,,,,,,,,,,,,,,,,,,,,,,,,,,,,,,,,,student,214,42,aloud,new,blue,4647.84442200046,None,n,4647.84442200046,None,"['n', 'return']","[1.3221071995794773, 1.4342096000909805]",4647.84442200046,None,,,40YD,001,2023_Apr_14_1150,ExactRep-v3-final,2021.2.3,59.95487785265527,
,,,,,,,,,,,,42,0,42,0,,,,,,,,,,,,,,,,,,,,,,,,,,,,,,,,,,,,,,,,,,,,,,,,,4651.588774399832,None,,,,,,,,,,,,,,,,,,,,,,,,,,,,,,,,,,,,,,,,,,,,,,,,,,,,,,,,,potato,87,43,aloud,old,blue,4649.830608899705,None,y,4649.830608899705,None,"['y', 'return']","[1.6479633003473282, 1.7199947005137801]",4649.830608899705,None,,,40YD,001,2023_Apr_14_1150,ExactRep-v3-final,2021.2.3,59.95487785265527,
,,,,,,,,,,,,43,0,43,0,,,,,,,,,,,,,,,,,,,,,,,,,,,,,,,,,,,,,,,,,,,,,,,,,4653.257184600458,None,,,,,,,,,,,,,,,,,,,,,,,,,,,,,,,,,,,,,,,,,,,,,,,,,,,,,,,,,shoes,210,44,aloud,new,blue,4652.10302690044,None,n,4652.10302690044,None,"['n', 'return']","[1.0235945004969835, 1.1195578007027507]",4652.10302690044,None,,,40YD,001,2023_Apr_14_1150,ExactRep-v3-final,2021.2.3,59.95487785265527,
,,,,,,,,,,,,44,0,44,0,,,,,,,,,,,,,,,,,,,,,,,,,,,,,,,,,,,,,,,,,,,,,,,,,4655.3925708997995,None,,,,,,,,,,,,,,,,,,,,,,,,,,,,,,,,,,,,,,,,,,,,,,,,,,,,,,,,,gold,131,45,silent,new,white,4653.765371100046,None,n,4653.765371100046,None,"['n', 'return']","[1.5131764998659492, 1.5931249000132084]",4653.765371100046,None,,,40YD,001,2023_Apr_14_1150,ExactRep-v3-final,2021.2.3,59.95487785265527,
,,,,,,,,,,,,45,0,45,0,,,,,,,,,,,,,,,,,,,,,,,,,,,,,,,,,,,,,,,,,,,,,,,,,4656.8606912000105,None,,,,,,,,,,,,,,,,,,,,,,,,,,,,,,,,,,,,,,,,,,,,,,,,,,,,,,,,,metal,0,46,sing,old,red,4655.901802199893,None,y,4655.901802199893,None,"['y', 'return']","[0.8247169991955161, 0.9128004992380738]",4655.901802199893,None,,,40YD,001,2023_Apr_14_1150,ExactRep-v3-final,2021.2.3,59.95487785265527,
,,,,,,,,,,,,46,0,46,0,,,,,,,,,,,,,,,,,,,,,,,,,,,,,,,,,,,,,,,,,,,,,,,,,4659.029624000192,None,,,,,,,,,,,,,,,,,,,,,,,,,,,,,,,,,,,,,,,,,,,,,,,,,,,,,,,,,boy,192,47,aloud,new,blue,4657.369805499911,None,n,4657.369805499911,None,"['n', 'return']","[1.524677099660039, 1.6206628000363708]",4657.369805499911,None,,,40YD,001,2023_Apr_14_1150,ExactRep-v3-final,2021.2.3,59.95487785265527,
,,,,,,,,,,,,47,0,47,0,,,,,,,,,,,,,,,,,,,,,,,,,,,,,,,,,,,,,,,,,,,,,,,,,4661.29855229985,None,,,,,,,,,,,,,,,,,,,,,,,,,,,,,,,,,,,,,,,,,,,,,,,,,,,,,,,,,style,4,48,sing,old,red,4659.530184700154,None,y,4659.530184700154,None,"['y', 'return']","[1.5963501995429397, 1.724413599818945]",4659.530184700154,None,,,40YD,001,2023_Apr_14_1150,ExactRep-v3-final,2021.2.3,59.95487785265527,
,,,,,,,,,,,,48,0,48,0,,,,,,,,,,,,,,,,,,,,,,,,,,,,,,,,,,,,,,,,,,,,,,,,,4665.052302599885,None,,,,,,,,,,,,,,,,,,,,,,,,,,,,,,,,,,,,,,,,,,,,,,,,,,,,,,,,,slave,237,49,sing,new,red,4661.808610700071,None,n,4661.808610700071,None,"['n', 'return']","[3.0779953002929688, 3.2060169000178576]",4661.808610700071,None,,,40YD,001,2023_Apr_14_1150,ExactRep-v3-final,2021.2.3,59.95487785265527,
,,,,,,,,,,,,49,0,49,0,,,,,,,,,,,,,,,,,,,,,,,,,,,,,,,,,,,,,,,,,,,,,,,,,4668.071920800023,None,,,,,,,,,,,,,,,,,,,,,,,,,,,,,,,,,,,,,,,,,,,,,,,,,,,,,,,,,body,49,50,silent,old,white,4665.5614117002115,None,y,4665.5614117002115,None,"['y', 'return']","[2.3652145005762577, 2.4774255007505417]",4665.5614117002115,None,,,40YD,001,2023_Apr_14_1150,ExactRep-v3-final,2021.2.3,59.95487785265527,
,,,,,,,,,,,,50,0,50,0,,,,,,,,,,,,,,,,,,,,,,,,,,,,,,,,,,,,,,,,,,,,,,,,,4670.84135290049,None,,,,,,,,,,,,,,,,,,,,,,,,,,,,,,,,,,,,,,,,,,,,,,,,,,,,,,,,,cash,72,51,silent,old,white,4668.581070300192,None,y,4668.581070300192,None,"['y', 'return']","[2.137669099494815, 2.2256688997149467]",4668.581070300192,None,,,40YD,001,2023_Apr_14_1150,ExactRep-v3-final,2021.2.3,59.95487785265527,
,,,,,,,,,,,,51,0,51,0,,,,,,,,,,,,,,,,,,,,,,,,,,,,,,,,,,,,,,,,,,,,,,,,,4672.609639000148,None,,,,,,,,,,,,,,,,,,,,,,,,,,,,,,,,,,,,,,,,,,,,,,,,,,,,,,,,,plain,156,52,silent,new,white,4671.3486472005025,None,n,4671.3486472005025,None,"['n', 'return']","[1.1059165997430682, 1.2260727994143963]",4671.3486472005025,None,,,40YD,001,2023_Apr_14_1150,ExactRep-v3-final,2021.2.3,59.95487785265527,
,,,,,,,,,,,,52,0,52,0,,,,,,,,,,,,,,,,,,,,,,,,,,,,,,,,,,,,,,,,,,,,,,,,,4674.228142700158,None,,,,,,,,,,,,,,,,,,,,,,,,,,,,,,,,,,,,,,,,,,,,,,,,,,,,,,,,,palace,68,53,silent,old,white,4673.1212165998295,None,n,4673.1212165998295,None,"['n', 'return']","[0.9893112005665898, 1.0613692998886108]",4673.1212165998295,None,,,40YD,001,2023_Apr_14_1150,ExactRep-v3-final,2021.2.3,59.95487785265527,
,,,,,,,,,,,,53,0,53,0,,,,,,,,,,,,,,,,,,,,,,,,,,,,,,,,,,,,,,,,,,,,,,,,,4675.863232200034,None,,,,,,,,,,,,,,,,,,,,,,,,,,,,,,,,,,,,,,,,,,,,,,,,,,,,,,,,,humour,71,54,silent,old,white,4674.739127299748,None,y,4674.739127299748,None,"['y', 'return']","[0.987716100178659, 1.0914666000753641]",4674.739127299748,None,,,40YD,001,2023_Apr_14_1150,ExactRep-v3-final,2021.2.3,59.95487785265527,
,,,,,,,,,,,,54,0,54,0,,,,,,,,,,,,,,,,,,,,,,,,,,,,,,,,,,,,,,,,,,,,,,,,,4680.034113399684,None,,,,,,,,,,,,,,,,,,,,,,,,,,,,,,,,,,,,,,,,,,,,,,,,,,,,,,,,,origin,158,55,silent,new,white,4676.363661800511,None,y,4676.363661800511,None,"['return', 'n', 'backspace', 'y', 'return']","[0.7150202002376318, 1.26690339948982, 3.0830405997112393, 3.2032746002078056, 3.6269046999514103]",4676.363661800511,None,,,40YD,001,2023_Apr_14_1150,ExactRep-v3-final,2021.2.3,59.95487785265527,
,,,,,,,,,,,,55,0,55,0,,,,,,,,,,,,,,,,,,,,,,,,,,,,,,,,,,,,,,,,,,,,,,,,,4681.7024365998805,None,,,,,,,,,,,,,,,,,,,,,,,,,,,,,,,,,,,,,,,,,,,,,,,,,,,,,,,,,answer,200,56,aloud,new,blue,4680.545645600185,None,y,4680.545645600185,None,"['y', 'return']","[1.0209136996418238, 1.116932200267911]",4680.545645600185,None,,,40YD,001,2023_Apr_14_1150,ExactRep-v3-final,2021.2.3,59.95487785265527,
,,,,,,,,,,,,56,0,56,0,,,,,,,,,,,,,,,,,,,,,,,,,,,,,,,,,,,,,,,,,,,,,,,,,4682.953372799791,None,,,,,,,,,,,,,,,,,,,,,,,,,,,,,,,,,,,,,,,,,,,,,,,,,,,,,,,,,soul,98,57,aloud,old,blue,4682.210720700212,None,y,4682.210720700212,None,"['y', 'return']","[0.6118489997461438, 0.6998620992526412]",4682.210720700212,None,,,40YD,001,2023_Apr_14_1150,ExactRep-v3-final,2021.2.3,59.95487785265527,
,,,,,,,,,,,,57,0,57,0,,,,,,,,,,,,,,,,,,,,,,,,,,,,,,,,,,,,,,,,,,,,,,,,,4686.039892099798,None,,,,,,,,,,,,,,,,,,,,,,,,,,,,,,,,,,,,,,,,,,,,,,,,,,,,,,,,,church,45,58,silent,old,white,4683.46812970005,None,y,4683.46812970005,None,"['y', 'return']","[2.4425798999145627, 2.5385686000809073]",4683.46812970005,None,,,40YD,001,2023_Apr_14_1150,ExactRep-v3-final,2021.2.3,59.95487785265527,
,,,,,,,,,,,,58,0,58,0,,,,,,,,,,,,,,,,,,,,,,,,,,,,,,,,,,,,,,,,,,,,,,,,,4687.675940000452,None,,,,,,,,,,,,,,,,,,,,,,,,,,,,,,,,,,,,,,,,,,,,,,,,,,,,,,,,,wine,53,59,silent,old,white,4686.548800899647,None,n,4686.548800899647,None,"['n', 'return']","[0.9298716001212597, 1.0819194000214338]",4686.548800899647,None,,,40YD,001,2023_Apr_14_1150,ExactRep-v3-final,2021.2.3,59.95487785265527,
,,,,,,,,,,,,59,0,59,0,,,,,,,,,,,,,,,,,,,,,,,,,,,,,,,,,,,,,,,,,,,,,,,,,4689.226431500167,None,,,,,,,,,,,,,,,,,,,,,,,,,,,,,,,,,,,,,,,,,,,,,,,,,,,,,,,,,flood,163,60,sing,new,red,4688.186038499698,None,y,4688.186038499698,None,"['y', 'return']","[0.8285828996449709, 0.9965524999424815]",4688.186038499698,None,,,40YD,001,2023_Apr_14_1150,ExactRep-v3-final,2021.2.3,59.95487785265527,
,,,,,,,,,,,,60,0,60,0,,,,,,,,,,,,,,,,,,,,,,,,,,,,,,,,,,,,,,,,,,,,,,,,,4690.828104699962,None,,,,,,,,,,,,,,,,,,,,,,,,,,,,,,,,,,,,,,,,,,,,,,,,,,,,,,,,,prison,228,61,aloud,new,blue,4689.734509100206,None,n,4689.734509100206,None,"['n', 'return']","[0.8160001998767257, 1.0481463000178337]",4689.734509100206,None,,,40YD,001,2023_Apr_14_1150,ExactRep-v3-final,2021.2.3,59.95487785265527,
,,,,,,,,,,,,61,0,61,0,,,,,,,,,,,,,,,,,,,,,,,,,,,,,,,,,,,,,,,,,,,,,,,,,4692.6299484996125,None,,,,,,,,,,,,,,,,,,,,,,,,,,,,,,,,,,,,,,,,,,,,,,,,,,,,,,,,,series,184,62,aloud,new,blue,4691.3377743000165,None,n,4691.3377743000165,None,"['n', 'return']","[1.132842100225389, 1.2448599999770522]",4691.3377743000165,None,,,40YD,001,2023_Apr_14_1150,ExactRep-v3-final,2021.2.3,59.95487785265527,
,,,,,,,,,,,,62,0,62,0,,,,,,,,,,,,,,,,,,,,,,,,,,,,,,,,,,,,,,,,,,,,,,,,,4694.114743700251,None,,,,,,,,,,,,,,,,,,,,,,,,,,,,,,,,,,,,,,,,,,,,,,,,,,,,,,,,,cabin,5,63,sing,old,red,4693.139845400117,None,y,4693.139845400117,None,"['y', 'return']","[0.7868273993954062, 0.9390353998169303]",4693.139845400117,None,,,40YD,001,2023_Apr_14_1150,ExactRep-v3-final,2021.2.3,59.95487785265527,
,,,,,,,,,,,,63,0,63,0,,,,,,,,,,,,,,,,,,,,,,,,,,,,,,,,,,,,,,,,,,,,,,,,,4695.649362900294,None,,,,,,,,,,,,,,,,,,,,,,,,,,,,,,,,,,,,,,,,,,,,,,,,,,,,,,,,,heaven,191,64,sing,new,red,4694.622407699935,None,y,4694.622407699935,None,"['y', 'return']","[0.8642488997429609, 0.9921551998704672]",4694.622407699935,None,,,40YD,001,2023_Apr_14_1150,ExactRep-v3-final,2021.2.3,59.95487785265527,
,,,,,,,,,,,,64,0,64,0,,,,,,,,,,,,,,,,,,,,,,,,,,,,,,,,,,,,,,,,,,,,,,,,,4696.967634500004,None,,,,,,,,,,,,,,,,,,,,,,,,,,,,,,,,,,,,,,,,,,,,,,,,,,,,,,,,,lad,203,65,sing,new,red,4696.1569236004725,None,y,4696.1569236004725,None,"['y', 'return']","[0.6497010001912713, 0.7697413004934788]",4696.1569236004725,None,,,40YD,001,2023_Apr_14_1150,ExactRep-v3-final,2021.2.3,59.95487785265527,
,,,,,,,,,,,,65,0,65,0,,,,,,,,,,,,,,,,,,,,,,,,,,,,,,,,,,,,,,,,,,,,,,,,,4698.936185900122,None,,,,,,,,,,,,,,,,,,,,,,,,,,,,,,,,,,,,,,,,,,,,,,,,,,,,,,,,,street,147,66,silent,new,white,4697.47044620011,None,n,4697.47044620011,None,"['n', 'return']","[1.1761493002995849, 1.4243908999487758]",4697.47044620011,None,,,40YD,001,2023_Apr_14_1150,ExactRep-v3-final,2021.2.3,59.95487785265527,
,,,,,,,,,,,,66,0,66,0,,,,,,,,,,,,,,,,,,,,,,,,,,,,,,,,,,,,,,,,,,,,,,,,,4700.604733900167,None,,,,,,,,,,,,,,,,,,,,,,,,,,,,,,,,,,,,,,,,,,,,,,,,,,,,,,,,,nail,64,67,silent,old,white,4699.445155899972,None,y,4699.445155899972,None,"['y', 'return']","[1.0097434995695949, 1.121522999368608]",4699.445155899972,None,,,40YD,001,2023_Apr_14_1150,ExactRep-v3-final,2021.2.3,59.95487785265527,
,,,,,,,,,,,,67,0,67,0,,,,,,,,,,,,,,,,,,,,,,,,,,,,,,,,,,,,,,,,,,,,,,,,,4703.841091600247,None,,,,,,,,,,,,,,,,,,,,,,,,,,,,,,,,,,,,,,,,,,,,,,,,,,,,,,,,,breast,160,68,aloud,new,blue,4701.111735600047,None,n,4701.111735600047,None,"['n', 'return']","[2.5828924998641014, 2.687033399939537]",4701.111735600047,None,,,40YD,001,2023_Apr_14_1150,ExactRep-v3-final,2021.2.3,59.95487785265527,
,,,,,,,,,,,,68,0,68,0,,,,,,,,,,,,,,,,,,,,,,,,,,,,,,,,,,,,,,,,,,,,,,,,,4705.2259112000465,None,,,,,,,,,,,,,,,,,,,,,,,,,,,,,,,,,,,,,,,,,,,,,,,,,,,,,,,,,tool,208,69,aloud,new,blue,4704.34963000007,None,y,4704.34963000007,None,"['y', 'return']","[0.7370289005339146, 0.8329330999404192]",4704.34963000007,None,,,40YD,001,2023_Apr_14_1150,ExactRep-v3-final,2021.2.3,59.95487785265527,
,,,,,,,,,,,,69,0,69,0,,,,,,,,,,,,,,,,,,,,,,,,,,,,,,,,,,,,,,,,,,,,,,,,,4706.727369599976,None,,,,,,,,,,,,,,,,,,,,,,,,,,,,,,,,,,,,,,,,,,,,,,,,,,,,,,,,,apple,223,70,sing,new,red,4705.735605300404,None,y,4705.735605300404,None,"['y', 'return']","[0.8549089003354311, 0.9510280005633831]",4705.735605300404,None,,,40YD,001,2023_Apr_14_1150,ExactRep-v3-final,2021.2.3,59.95487785265527,
,,,,,,,,,,,,70,0,70,0,,,,,,,,,,,,,,,,,,,,,,,,,,,,,,,,,,,,,,,,,,,,,,,,,4708.112133700401,None,,,,,,,,,,,,,,,,,,,,,,,,,,,,,,,,,,,,,,,,,,,,,,,,,,,,,,,,,string,58,71,silent,old,white,4707.234480800107,None,n,4707.234480800107,None,"['n', 'return']","[0.7242241995409131, 0.8441474996507168]",4707.234480800107,None,,,40YD,001,2023_Apr_14_1150,ExactRep-v3-final,2021.2.3,59.95487785265527,
,,,,,,,,,,,,71,0,71,0,,,,,,,,,,,,,,,,,,,,,,,,,,,,,,,,,,,,,,,,,,,,,,,,,4710.94815129973,None,,,,,,,,,,,,,,,,,,,,,,,,,,,,,,,,,,,,,,,,,,,,,,,,,,,,,,,,,money,168,72,aloud,new,blue,4708.631199499592,None,n,4708.631199499592,None,"['n', 'return']","[2.1434289002791047, 2.2796135004609823]",4708.631199499592,None,,,40YD,001,2023_Apr_14_1150,ExactRep-v3-final,2021.2.3,59.95487785265527,
,,,,,,,,,,,,72,0,72,0,,,,,,,,,,,,,,,,,,,,,,,,,,,,,,,,,,,,,,,,,,,,,,,,,4712.783328999765,None,,,,,,,,,,,,,,,,,,,,,,,,,,,,,,,,,,,,,,,,,,,,,,,,,,,,,,,,,picture,204,73,aloud,new,blue,4711.454128500074,None,n,4711.454128500074,None,"['n', 'return']","[1.2004729006439447, 1.296454000286758]",4711.454128500074,None,,,40YD,001,2023_Apr_14_1150,ExactRep-v3-final,2021.2.3,59.95487785265527,
,,,,,,,,,,,,73,0,73,0,,,,,,,,,,,,,,,,,,,,,,,,,,,,,,,,,,,,,,,,,,,,,,,,,4714.368298499845,None,,,,,,,,,,,,,,,,,,,,,,,,,,,,,,,,,,,,,,,,,,,,,,,,,,,,,,,,,world,103,74,aloud,old,blue,4713.29302349966,None,y,4713.29302349966,None,"['y', 'return']","[0.9295670995488763, 1.0415444998070598]",4713.29302349966,None,,,40YD,001,2023_Apr_14_1150,ExactRep-v3-final,2021.2.3,59.95487785265527,
,,,,,,,,,,,,74,0,74,0,,,,,,,,,,,,,,,,,,,,,,,,,,,,,,,,,,,,,,,,,,,,,,,,,4715.719666100107,None,,,,,,,,,,,,,,,,,,,,,,,,,,,,,,,,,,,,,,,,,,,,,,,,,,,,,,,,,crime,174,75,aloud,new,blue,4714.879704499617,None,y,4714.879704499617,None,"['y', 'return']","[0.6949148001149297, 0.806844299659133]",4714.879704499617,None,,,40YD,001,2023_Apr_14_1150,ExactRep-v3-final,2021.2.3,59.95487785265527,
,,,,,,,,,,,,75,0,75,0,,,,,,,,,,,,,,,,,,,,,,,,,,,,,,,,,,,,,,,,,,,,,,,,,4717.538068099879,None,,,,,,,,,,,,,,,,,,,,,,,,,,,,,,,,,,,,,,,,,,,,,,,,,,,,,,,,,shadow,21,76,sing,old,red,4716.223401900381,None,y,4716.223401900381,None,"['y', 'return']","[1.1672813007608056, 1.2712004007771611]",4716.223401900381,None,,,40YD,001,2023_Apr_14_1150,ExactRep-v3-final,2021.2.3,59.95487785265527,
,,,,,,,,,,,,76,0,76,0,,,,,,,,,,,,,,,,,,,,,,,,,,,,,,,,,,,,,,,,,,,,,,,,,4720.758025499992,None,,,,,,,,,,,,,,,,,,,,,,,,,,,,,,,,,,,,,,,,,,,,,,,,,,,,,,,,,power,129,77,silent,new,white,4718.049012199976,None,y,4718.049012199976,None,"['n', 'backspace', 'y', 'return']","[1.2377442996948957, 2.325870499946177, 2.478068300522864, 2.669616900384426]",4718.049012199976,None,,,40YD,001,2023_Apr_14_1150,ExactRep-v3-final,2021.2.3,59.95487785265527,
,,,,,,,,,,,,77,0,77,0,,,,,,,,,,,,,,,,,,,,,,,,,,,,,,,,,,,,,,,,,,,,,,,,,4722.176148300059,None,,,,,,,,,,,,,,,,,,,,,,,,,,,,,,,,,,,,,,,,,,,,,,,,,,,,,,,,,moral,57,78,silent,old,white,4721.271340699866,None,y,4721.271340699866,None,"['y', 'return']","[0.7432232005521655, 0.863430299796164]",4721.271340699866,None,,,40YD,001,2023_Apr_14_1150,ExactRep-v3-final,2021.2.3,59.95487785265527,
,,,,,,,,,,,,78,0,78,0,,,,,,,,,,,,,,,,,,,,,,,,,,,,,,,,,,,,,,,,,,,,,,,,,4725.7963544996455,None,,,,,,,,,,,,,,,,,,,,,,,,,,,,,,,,,,,,,,,,,,,,,,,,,,,,,,,,,chance,24,79,sing,old,red,4722.686310600489,None,y,4722.686310600489,None,"['y', 'return']","[2.864490400068462, 3.0644613998010755]",4722.686310600489,None,,,40YD,001,2023_Apr_14_1150,ExactRep-v3-final,2021.2.3,59.95487785265527,
,,,,,,,,,,,,79,0,79,0,,,,,,,,,,,,,,,,,,,,,,,,,,,,,,,,,,,,,,,,,,,,,,,,,4727.247917200439,None,,,,,,,,,,,,,,,,,,,,,,,,,,,,,,,,,,,,,,,,,,,,,,,,,,,,,,,,,length,169,80,sing,new,red,4726.301813299768,None,n,4726.301813299768,None,"['n', 'return']","[0.8331079995259643, 0.9048616997897625]",4726.301813299768,None,,,40YD,001,2023_Apr_14_1150,ExactRep-v3-final,2021.2.3,59.95487785265527,
,,,,,,,,,,,,80,0,80,0,,,,,,,,,,,,,,,,,,,,,,,,,,,,,,,,,,,,,,,,,,,,,,,,,4728.899485100061,None,,,,,,,,,,,,,,,,,,,,,,,,,,,,,,,,,,,,,,,,,,,,,,,,,,,,,,,,,quality,18,81,sing,old,red,4727.756606199779,None,n,4727.756606199779,None,"['n', 'return']","[1.0260351998731494, 1.1060224995017052]",4727.756606199779,None,,,40YD,001,2023_Apr_14_1150,ExactRep-v3-final,2021.2.3,59.95487785265527,
,,,,,,,,,,,,81,0,81,0,,,,,,,,,,,,,,,,,,,,,,,,,,,,,,,,,,,,,,,,,,,,,,,,,4730.634712999687,None,,,,,,,,,,,,,,,,,,,,,,,,,,,,,,,,,,,,,,,,,,,,,,,,,,,,,,,,,chair,30,82,sing,old,red,4729.413415599614,None,y,4729.413415599614,None,"['y', 'return']","[1.0813360996544361, 1.1853454997763038]",4729.413415599614,None,,,40YD,001,2023_Apr_14_1150,ExactRep-v3-final,2021.2.3,59.95487785265527,
,,,,,,,,,,,,82,0,82,0,,,,,,,,,,,,,,,,,,,,,,,,,,,,,,,,,,,,,,,,,,,,,,,,,4732.886745500378,None,,,,,,,,,,,,,,,,,,,,,,,,,,,,,,,,,,,,,,,,,,,,,,,,,,,,,,,,,book,152,83,silent,new,white,4731.14299769979,None,y,4731.14299769979,None,"['y', 'return']","[1.6396548999473453, 1.7116823997348547]",4731.14299769979,None,,,40YD,001,2023_Apr_14_1150,ExactRep-v3-final,2021.2.3,59.95487785265527,
,,,,,,,,,,,,83,0,83,0,,,,,,,,,,,,,,,,,,,,,,,,,,,,,,,,,,,,,,,,,,,,,,,,,4734.955559999682,None,,,,,,,,,,,,,,,,,,,,,,,,,,,,,,,,,,,,,,,,,,,,,,,,,,,,,,,,,coffee,11,84,sing,old,red,4733.396496600471,None,y,4733.396496600471,None,"['y', 'return']","[1.4501303993165493, 1.5222220998257399]",4733.396496600471,None,,,40YD,001,2023_Apr_14_1150,ExactRep-v3-final,2021.2.3,59.95487785265527,
,,,,,,,,,,,,84,0,84,0,,,,,,,,,,,,,,,,,,,,,,,,,,,,,,,,,,,,,,,,,,,,,,,,,4736.874184199609,None,,,,,,,,,,,,,,,,,,,,,,,,,,,,,,,,,,,,,,,,,,,,,,,,,,,,,,,,,hour,59,85,silent,old,white,4735.464689499699,None,n,4735.464689499699,None,"['n', 'return']","[1.2938579004257917, 1.374056700617075]",4735.464689499699,None,,,40YD,001,2023_Apr_14_1150,ExactRep-v3-final,2021.2.3,59.95487785265527,
,,,,,,,,,,,,85,0,85,0,,,,,,,,,,,,,,,,,,,,,,,,,,,,,,,,,,,,,,,,,,,,,,,,,4738.776097799651,None,,,,,,,,,,,,,,,,,,,,,,,,,,,,,,,,,,,,,,,,,,,,,,,,,,,,,,,,,chief,209,86,sing,new,red,4737.378660599701,None,n,4737.378660599701,None,"['n', 'return']","[1.1959811002016068, 1.3561518006026745]",4737.378660599701,None,,,40YD,001,2023_Apr_14_1150,ExactRep-v3-final,2021.2.3,59.95487785265527,
,,,,,,,,,,,,86,0,86,0,,,,,,,,,,,,,,,,,,,,,,,,,,,,,,,,,,,,,,,,,,,,,,,,,4742.729919999838,None,,,,,,,,,,,,,,,,,,,,,,,,,,,,,,,,,,,,,,,,,,,,,,,,,,,,,,,,,fun,127,87,silent,new,white,4739.285136899911,None,y,4739.285136899911,None,"['y', 'return']","[3.3136174995452166, 3.401602699421346]",4739.285136899911,None,,,40YD,001,2023_Apr_14_1150,ExactRep-v3-final,2021.2.3,59.95487785265527,
,,,,,,,,,,,,87,0,87,0,,,,,,,,,,,,,,,,,,,,,,,,,,,,,,,,,,,,,,,,,,,,,,,,,4744.164889500476,None,,,,,,,,,,,,,,,,,,,,,,,,,,,,,,,,,,,,,,,,,,,,,,,,,,,,,,,,,sea,154,88,silent,new,white,4743.24566200003,None,y,4743.24566200003,None,"['y', 'return']","[0.7929870001971722, 0.8730567004531622]",4743.24566200003,None,,,40YD,001,2023_Apr_14_1150,ExactRep-v3-final,2021.2.3,59.95487785265527,
,,,,,,,,,,,,88,0,88,0,,,,,,,,,,,,,,,,,,,,,,,,,,,,,,,,,,,,,,,,,,,,,,,,,4746.250108799897,None,,,,,,,,,,,,,,,,,,,,,,,,,,,,,,,,,,,,,,,,,,,,,,,,,,,,,,,,,earth,41,89,silent,old,white,4744.674204200506,None,y,4744.674204200506,None,"['y', 'return']","[1.4524800004437566, 1.532341199927032]",4744.674204200506,None,,,40YD,001,2023_Apr_14_1150,ExactRep-v3-final,2021.2.3,59.95487785265527,
,,,,,,,,,,,,89,0,89,0,,,,,,,,,,,,,,,,,,,,,,,,,,,,,,,,,,,,,,,,,,,,,,,,,4749.203111300245,None,,,,,,,,,,,,,,,,,,,,,,,,,,,,,,,,,,,,,,,,,,,,,,,,,,,,,,,,,freedom,43,90,silent,old,white,4746.762671899982,None,y,4746.762671899982,None,"['y', 'return']","[2.316007999703288, 2.4041008995845914]",4746.762671899982,None,,,40YD,001,2023_Apr_14_1150,ExactRep-v3-final,2021.2.3,59.95487785265527,
,,,,,,,,,,,,90,0,90,0,,,,,,,,,,,,,,,,,,,,,,,,,,,,,,,,,,,,,,,,,,,,,,,,,4751.038248799741,None,,,,,,,,,,,,,,,,,,,,,,,,,,,,,,,,,,,,,,,,,,,,,,,,,,,,,,,,,diamond,54,91,silent,old,white,4749.714420599863,None,y,4749.714420599863,None,"['y', 'return']","[1.1721157999709249, 1.2763294000178576]",4749.714420599863,None,,,40YD,001,2023_Apr_14_1150,ExactRep-v3-final,2021.2.3,59.95487785265527,
,,,,,,,,,,,,91,0,91,0,,,,,,,,,,,,,,,,,,,,,,,,,,,,,,,,,,,,,,,,,,,,,,,,,4752.456529299729,None,,,,,,,,,,,,,,,,,,,,,,,,,,,,,,,,,,,,,,,,,,,,,,,,,,,,,,,,,engine,138,92,silent,new,white,4751.550386699848,None,n,4751.550386699848,None,"['n', 'return']","[0.7765103997662663, 0.8642745995894074]",4751.550386699848,None,,,40YD,001,2023_Apr_14_1150,ExactRep-v3-final,2021.2.3,59.95487785265527,
,,,,,,,,,,,,92,0,92,0,,,,,,,,,,,,,,,,,,,,,,,,,,,,,,,,,,,,,,,,,,,,,,,,,4753.941176800057,None,,,,,,,,,,,,,,,,,,,,,,,,,,,,,,,,,,,,,,,,,,,,,,,,,,,,,,,,,moment,229,93,sing,new,red,4752.957712300122,None,y,4752.957712300122,None,"['y', 'return']","[0.8409846005961299, 0.9370276005938649]",4752.957712300122,None,,,40YD,001,2023_Apr_14_1150,ExactRep-v3-final,2021.2.3,59.95487785265527,
,,,,,,,,,,,,93,0,93,0,,,,,,,,,,,,,,,,,,,,,,,,,,,,,,,,,,,,,,,,,,,,,,,,,4755.092312199995,None,,,,,,,,,,,,,,,,,,,,,,,,,,,,,,,,,,,,,,,,,,,,,,,,,,,,,,,,,hope,1,94,sing,old,red,4754.448992500082,None,y,4754.448992500082,None,"['y', 'return']","[0.533801400102675, 0.6057214997708797]",4754.448992500082,None,,,40YD,001,2023_Apr_14_1150,ExactRep-v3-final,2021.2.3,59.95487785265527,
,,,,,,,,,,,,94,0,94,0,,,,,,,,,,,,,,,,,,,,,,,,,,,,,,,,,,,,,,,,,,,,,,,,,4756.493681600317,None,,,,,,,,,,,,,,,,,,,,,,,,,,,,,,,,,,,,,,,,,,,,,,,,,,,,,,,,,charm,196,95,aloud,new,blue,4755.607698500156,None,y,4755.607698500156,None,"['y', 'return']","[0.7588464999571443, 0.8469310998916626]",4755.607698500156,None,,,40YD,001,2023_Apr_14_1150,ExactRep-v3-final,2021.2.3,59.95487785265527,
,,,,,,,,,,,,95,0,95,0,,,,,,,,,,,,,,,,,,,,,,,,,,,,,,,,,,,,,,,,,,,,,,,,,4758.011883200146,None,,,,,,,,,,,,,,,,,,,,,,,,,,,,,,,,,,,,,,,,,,,,,,,,,,,,,,,,,salary,32,96,sing,old,red,4757.010458099656,None,y,4757.010458099656,None,"['y', 'return']","[0.8683455996215343, 0.9562107995152473]",4757.010458099656,None,,,40YD,001,2023_Apr_14_1150,ExactRep-v3-final,2021.2.3,59.95487785265527,
,,,,,,,,,,,,96,0,96,0,,,,,,,,,,,,,,,,,,,,,,,,,,,,,,,,,,,,,,,,,,,,,,,,,4759.496635000221,None,,,,,,,,,,,,,,,,,,,,,,,,,,,,,,,,,,,,,,,,,,,,,,,,,,,,,,,,,hotel,155,97,silent,new,white,4758.522218000144,None,n,4758.522218000144,None,"['n', 'return']","[0.8285234002396464, 0.9403943000361323]",4758.522218000144,None,,,40YD,001,2023_Apr_14_1150,ExactRep-v3-final,2021.2.3,59.95487785265527,
,,,,,,,,,,,,97,0,97,0,,,,,,,,,,,,,,,,,,,,,,,,,,,,,,,,,,,,,,,,,,,,,,,,,4760.964821499772,None,,,,,,,,,,,,,,,,,,,,,,,,,,,,,,,,,,,,,,,,,,,,,,,,,,,,,,,,,boulder,22,98,sing,old,red,4760.00671469979,None,y,4760.00671469979,None,"['y', 'return']","[0.8239416992291808, 0.9200794994831085]",4760.00671469979,None,,,40YD,001,2023_Apr_14_1150,ExactRep-v3-final,2021.2.3,59.95487785265527,
,,,,,,,,,,,,98,0,98,0,,,,,,,,,,,,,,,,,,,,,,,,,,,,,,,,,,,,,,,,,,,,,,,,,4763.01688649971,None,,,,,,,,,,,,,,,,,,,,,,,,,,,,,,,,,,,,,,,,,,,,,,,,,,,,,,,,,fire,47,99,silent,old,white,4761.473609199747,None,y,4761.473609199747,None,"['y', 'return']","[1.413183099590242, 1.5010497998446226]",4761.473609199747,None,,,40YD,001,2023_Apr_14_1150,ExactRep-v3-final,2021.2.3,59.95487785265527,
,,,,,,,,,,,,99,0,99,0,,,,,,,,,,,,,,,,,,,,,,,,,,,,,,,,,,,,,,,,,,,,,,,,,4765.152480900288,None,,,,,,,,,,,,,,,,,,,,,,,,,,,,,,,,,,,,,,,,,,,,,,,,,,,,,,,,,cost,28,100,sing,old,red,4763.5257564000785,None,n,4763.5257564000785,None,"['n', 'return']","[1.4568985998630524, 1.5930126998573542]",4763.5257564000785,None,,,40YD,001,2023_Apr_14_1150,ExactRep-v3-final,2021.2.3,59.95487785265527,
,,,,,,,,,,,,100,0,100,0,,,,,,,,,,,,,,,,,,,,,,,,,,,,,,,,,,,,,,,,,,,,,,,,,4769.5903898999095,None,,,,,,,,,,,,,,,,,,,,,,,,,,,,,,,,,,,,,,,,,,,,,,,,,,,,,,,,,hide,206,101,aloud,new,blue,4765.660859899595,None,y,4765.660859899595,None,"['y', 'return']","[3.809913699515164, 3.8819997999817133]",4765.660859899595,None,,,40YD,001,2023_Apr_14_1150,ExactRep-v3-final,2021.2.3,59.95487785265527,
,,,,,,,,,,,,101,0,101,0,,,,,,,,,,,,,,,,,,,,,,,,,,,,,,,,,,,,,,,,,,,,,,,,,4770.841416300274,None,,,,,,,,,,,,,,,,,,,,,,,,,,,,,,,,,,,,,,,,,,,,,,,,,,,,,,,,,bowl,222,102,aloud,new,blue,4770.097670399584,None,y,4770.097670399584,None,"['y', 'return']","[0.6210087994113564, 0.7089104996994138]",4770.097670399584,None,,,40YD,001,2023_Apr_14_1150,ExactRep-v3-final,2021.2.3,59.95487785265527,
,,,,,,,,,,,,102,0,102,0,,,,,,,,,,,,,,,,,,,,,,,,,,,,,,,,,,,,,,,,,,,,,,,,,4772.359654200263,None,,,,,,,,,,,,,,,,,,,,,,,,,,,,,,,,,,,,,,,,,,,,,,,,,,,,,,,,,avenue,73,103,silent,old,white,4771.34515819978,None,n,4771.34515819978,None,"['n', 'return']","[0.9015766000375152, 0.9735702006146312]",4771.34515819978,None,,,40YD,001,2023_Apr_14_1150,ExactRep-v3-final,2021.2.3,59.95487785265527,
,,,,,,,,,,,,103,0,103,0,,,,,,,,,,,,,,,,,,,,,,,,,,,,,,,,,,,,,,,,,,,,,,,,,4774.128059299663,None,,,,,,,,,,,,,,,,,,,,,,,,,,,,,,,,,,,,,,,,,,,,,,,,,,,,,,,,,coin,44,104,silent,old,white,4772.864839700051,None,y,4772.864839700051,None,"['y', 'return']","[1.1498678997159004, 1.2299101995304227]",4772.864839700051,None,,,40YD,001,2023_Apr_14_1150,ExactRep-v3-final,2021.2.3,59.95487785265527,
,,,,,,,,,,,,104,0,104,0,,,,,,,,,,,,,,,,,,,,,,,,,,,,,,,,,,,,,,,,,,,,,,,,,4776.413735600188,None,,,,,,,,,,,,,,,,,,,,,,,,,,,,,,,,,,,,,,,,,,,,,,,,,,,,,,,,,cotton,216,105,aloud,new,blue,4774.634304000065,None,n,4774.634304000065,None,"['n', 'return']","[1.6844049002975225, 1.7403309000656009]",4774.634304000065,None,,,40YD,001,2023_Apr_14_1150,ExactRep-v3-final,2021.2.3,59.95487785265527,
,,,,,,,,,,,,105,0,105,0,,,,,,,,,,,,,,,,,,,,,,,,,,,,,,,,,,,,,,,,,,,,,,,,,4777.71506510023,None,,,,,,,,,,,,,,,,,,,,,,,,,,,,,,,,,,,,,,,,,,,,,,,,,,,,,,,,,person,162,106,aloud,new,blue,4776.9232815997675,None,y,4776.9232815997675,None,"['y', 'return']","[0.6834449004381895, 0.7554283998906612]",4776.9232815997675,None,,,40YD,001,2023_Apr_14_1150,ExactRep-v3-final,2021.2.3,59.95487785265527,
,,,,,,,,,,,,106,0,106,0,,,,,,,,,,,,,,,,,,,,,,,,,,,,,,,,,,,,,,,,,,,,,,,,,4779.483445100486,None,,,,,,,,,,,,,,,,,,,,,,,,,,,,,,,,,,,,,,,,,,,,,,,,,,,,,,,,,stone,115,107,aloud,old,blue,4778.2232427001,None,y,4778.2232427001,None,"['y', 'return']","[1.1194334998726845, 1.215339899994433]",4778.2232427001,None,,,40YD,001,2023_Apr_14_1150,ExactRep-v3-final,2021.2.3,59.95487785265527,
,,,,,,,,,,,,107,0,107,0,,,,,,,,,,,,,,,,,,,,,,,,,,,,,,,,,,,,,,,,,,,,,,,,,4780.751328599639,None,,,,,,,,,,,,,,,,,,,,,,,,,,,,,,,,,,,,,,,,,,,,,,,,,,,,,,,,,beast,85,108,aloud,old,blue,4779.991409700364,None,y,4779.991409700364,None,"['y', 'return']","[0.6394338002428412, 0.7272095000371337]",4779.991409700364,None,,,40YD,001,2023_Apr_14_1150,ExactRep-v3-final,2021.2.3,59.95487785265527,
,,,,,,,,,,,,108,0,108,0,,,,,,,,,,,,,,,,,,,,,,,,,,,,,,,,,,,,,,,,,,,,,,,,,4782.185988999903,None,,,,,,,,,,,,,,,,,,,,,,,,,,,,,,,,,,,,,,,,,,,,,,,,,,,,,,,,,duty,182,109,aloud,new,blue,4781.268266400322,None,y,4781.268266400322,None,"['y', 'return']","[0.754504800774157, 0.8744087005034089]",4781.268266400322,None,,,40YD,001,2023_Apr_14_1150,ExactRep-v3-final,2021.2.3,59.95487785265527,
,,,,,,,,,,,,109,0,109,0,,,,,,,,,,,,,,,,,,,,,,,,,,,,,,,,,,,,,,,,,,,,,,,,,4784.388343200088,None,,,,,,,,,,,,,,,,,,,,,,,,,,,,,,,,,,,,,,,,,,,,,,,,,,,,,,,,,fact,175,110,sing,new,red,4782.702024499886,None,n,4782.702024499886,None,"['n', 'return']","[1.5206912998110056, 1.6487288996577263]",4782.702024499886,None,,,40YD,001,2023_Apr_14_1150,ExactRep-v3-final,2021.2.3,59.95487785265527,
,,,,,,,,,,,,110,0,110,0,,,,,,,,,,,,,,,,,,,,,,,,,,,,,,,,,,,,,,,,,,,,,,,,,4788.976100499742,None,,,,,,,,,,,,,,,,,,,,,,,,,,,,,,,,,,,,,,,,,,,,,,,,,,,,,,,,,paper,46,111,silent,old,white,4784.894056499936,None,y,4784.894056499936,None,"['n', 'backspace', 'y', 'return']","[1.2247411999851465, 3.5527302995324135, 3.672606499865651, 4.048856800422072]",4784.894056499936,None,,,40YD,001,2023_Apr_14_1150,ExactRep-v3-final,2021.2.3,59.95487785265527,
,,,,,,,,,,,,111,0,111,0,,,,,,,,,,,,,,,,,,,,,,,,,,,,,,,,,,,,,,,,,,,,,,,,,4791.912549600005,None,,,,,,,,,,,,,,,,,,,,,,,,,,,,,,,,,,,,,,,,,,,,,,,,,,,,,,,,,virtue,8,112,sing,old,red,4789.480435799807,None,y,4789.480435799807,None,"['y', 'return']","[2.310339800082147, 2.398322000168264]",4789.480435799807,None,,,40YD,001,2023_Apr_14_1150,ExactRep-v3-final,2021.2.3,59.95487785265527,
,,,,,,,,,,,,112,0,112,0,,,,,,,,,,,,,,,,,,,,,,,,,,,,,,,,,,,,,,,,,,,,,,,,,4793.931179200299,None,,,,,,,,,,,,,,,,,,,,,,,,,,,,,,,,,,,,,,,,,,,,,,,,,,,,,,,,,cattle,226,113,aloud,new,blue,4792.420821200125,None,y,4792.420821200125,None,"['y', 'return']","[1.3701762994751334, 1.4740330995991826]",4792.420821200125,None,,,40YD,001,2023_Apr_14_1150,ExactRep-v3-final,2021.2.3,59.95487785265527,
,,,,,,,,,,,,113,0,113,0,,,,,,,,,,,,,,,,,,,,,,,,,,,,,,,,,,,,,,,,,,,,,,,,,4795.666190200485,None,,,,,,,,,,,,,,,,,,,,,,,,,,,,,,,,,,,,,,,,,,,,,,,,,,,,,,,,,excuse,149,114,silent,new,white,4794.443611199968,None,n,4794.443611199968,None,"['n', 'return']","[1.067026600241661, 1.1871672002598643]",4794.443611199968,None,,,40YD,001,2023_Apr_14_1150,ExactRep-v3-final,2021.2.3,59.95487785265527,
,,,,,,,,,,,,114,0,114,0,,,,,,,,,,,,,,,,,,,,,,,,,,,,,,,,,,,,,,,,,,,,,,,,,4800.554527699947,None,,,,,,,,,,,,,,,,,,,,,,,,,,,,,,,,,,,,,,,,,,,,,,,,,,,,,,,,,weapon,188,115,aloud,new,blue,4796.174821100198,None,n,4796.174821100198,None,"['n', 'return']","[4.167903400026262, 4.34392680041492]",4796.174821100198,None,,,40YD,001,2023_Apr_14_1150,ExactRep-v3-final,2021.2.3,59.95487785265527,
,,,,,,,,,,,,115,0,115,0,,,,,,,,,,,,,,,,,,,,,,,,,,,,,,,,,,,,,,,,,,,,,,,,,4802.15607240051,None,,,,,,,,,,,,,,,,,,,,,,,,,,,,,,,,,,,,,,,,,,,,,,,,,,,,,,,,,machine,159,116,silent,new,white,4801.064853999764,None,n,4801.064853999764,None,"['n', 'return']","[0.9580280994996428, 1.0538975996896625]",4801.064853999764,None,,,40YD,001,2023_Apr_14_1150,ExactRep-v3-final,2021.2.3,59.95487785265527,
,,,,,,,,,,,,116,0,116,0,,,,,,,,,,,,,,,,,,,,,,,,,,,,,,,,,,,,,,,,,,,,,,,,,4803.574091999792,None,,,,,,,,,,,,,,,,,,,,,,,,,,,,,,,,,,,,,,,,,,,,,,,,,,,,,,,,,ocean,202,117,aloud,new,blue,4802.661837999709,None,y,4802.661837999709,None,"['y', 'return']","[0.7609278997406363, 0.8649945994839072]",4802.661837999709,None,,,40YD,001,2023_Apr_14_1150,ExactRep-v3-final,2021.2.3,59.95487785265527,
,,,,,,,,,,,,117,0,117,0,,,,,,,,,,,,,,,,,,,,,,,,,,,,,,,,,,,,,,,,,,,,,,,,,4804.858647899702,None,,,,,,,,,,,,,,,,,,,,,,,,,,,,,,,,,,,,,,,,,,,,,,,,,,,,,,,,,science,183,118,sing,new,red,4804.082265200093,None,y,4804.082265200093,None,"['y', 'return']","[0.6444506999105215, 0.7404815992340446]",4804.082265200093,None,,,40YD,001,2023_Apr_14_1150,ExactRep-v3-final,2021.2.3,59.95487785265527,
,,,,,,,,,,,,118,0,118,0,,,,,,,,,,,,,,,,,,,,,,,,,,,,,,,,,,,,,,,,,,,,,,,,,4806.376989999786,None,,,,,,,,,,,,,,,,,,,,,,,,,,,,,,,,,,,,,,,,,,,,,,,,,,,,,,,,,car,60,119,silent,old,white,4805.371287100017,None,n,4805.371287100017,None,"['n', 'return']","[0.8275193003937602, 0.9713687999173999]",4805.371287100017,None,,,40YD,001,2023_Apr_14_1150,ExactRep-v3-final,2021.2.3,59.95487785265527,
,,,,,,,,,,,,119,0,119,0,,,,,,,,,,,,,,,,,,,,,,,,,,,,,,,,,,,,,,,,,,,,,,,,,4807.961737699807,None,,,,,,,,,,,,,,,,,,,,,,,,,,,,,,,,,,,,,,,,,,,,,,,,,,,,,,,,,coast,83,120,aloud,old,blue,4806.883748100139,None,y,4806.883748100139,None,"['y', 'return']","[0.9471698002889752, 1.034968700259924]",4806.883748100139,None,,,40YD,001,2023_Apr_14_1150,ExactRep-v3-final,2021.2.3,59.95487785265527,
,,,,,,,,,,,,120,0,120,0,,,,,,,,,,,,,,,,,,,,,,,,,,,,,,,,,,,,,,,,,,,,,,,,,4809.513460099697,None,,,,,,,,,,,,,,,,,,,,,,,,,,,,,,,,,,,,,,,,,,,,,,,,,,,,,,,,,plant,9,121,sing,old,red,4808.476939300075,None,y,4808.476939300075,None,"['y', 'return']","[0.913825299590826, 1.0017025992274284]",4808.476939300075,None,,,40YD,001,2023_Apr_14_1150,ExactRep-v3-final,2021.2.3,59.95487785265527,
,,,,,,,,,,,,121,0,121,0,,,,,,,,,,,,,,,,,,,,,,,,,,,,,,,,,,,,,,,,,,,,,,,,,4811.148262999952,None,,,,,,,,,,,,,,,,,,,,,,,,,,,,,,,,,,,,,,,,,,,,,,,,,,,,,,,,,air,215,122,sing,new,red,4810.022189999931,None,n,4810.022189999931,None,"['n', 'return']","[0.968418899923563, 1.088438400067389]",4810.022189999931,None,,,40YD,001,2023_Apr_14_1150,ExactRep-v3-final,2021.2.3,59.95487785265527,
,,,,,,,,,,,,122,0,122,0,,,,,,,,,,,,,,,,,,,,,,,,,,,,,,,,,,,,,,,,,,,,,,,,,4812.6666358998045,None,,,,,,,,,,,,,,,,,,,,,,,,,,,,,,,,,,,,,,,,,,,,,,,,,,,,,,,,,toy,139,123,silent,new,white,4811.658110300079,None,n,4811.658110300079,None,"['n', 'return']","[0.8766652001067996, 0.9726608004420996]",4811.658110300079,None,,,40YD,001,2023_Apr_14_1150,ExactRep-v3-final,2021.2.3,59.95487785265527,
,,,,,,,,,,,,123,0,123,0,,,,,,,,,,,,,,,,,,,,,,,,,,,,,,,,,,,,,,,,,,,,,,,,,4814.368339399807,None,,,,,,,,,,,,,,,,,,,,,,,,,,,,,,,,,,,,,,,,,,,,,,,,,,,,,,,,,priest,135,124,silent,new,white,4813.172918300144,None,n,4813.172918300144,None,"['n', 'return']","[1.089966899715364, 1.16182029992342]",4813.172918300144,None,,,40YD,001,2023_Apr_14_1150,ExactRep-v3-final,2021.2.3,59.95487785265527,
,,,,,,,,,,,,124,0,124,0,,,,,,,,,,,,,,,,,,,,,,,,,,,,,,,,,,,,,,,,,,,,,,,,,4816.405445800163,None,,,,,,,,,,,,,,,,,,,,,,,,,,,,,,,,,,,,,,,,,,,,,,,,,,,,,,,,,victory,17,125,sing,old,red,4814.880410999991,None,y,4814.880410999991,None,"['y', 'return']","[1.3662915993481874, 1.4782413002103567]",4814.880410999991,None,,,40YD,001,2023_Apr_14_1150,ExactRep-v3-final,2021.2.3,59.95487785265527,
,,,,,,,,,,,,125,0,125,0,,,,,,,,,,,,,,,,,,,,,,,,,,,,,,,,,,,,,,,,,,,,,,,,,4817.8551395004615,None,,,,,,,,,,,,,,,,,,,,,,,,,,,,,,,,,,,,,,,,,,,,,,,,,,,,,,,,,anger,201,126,sing,new,red,4816.91458280012,None,n,4816.91458280012,None,"['n', 'return']","[0.788463699631393, 0.9002267001196742]",4816.91458280012,None,,,40YD,001,2023_Apr_14_1150,ExactRep-v3-final,2021.2.3,59.95487785265527,
,,,,,,,,,,,,126,0,126,0,,,,,,,,,,,,,,,,,,,,,,,,,,,,,,,,,,,,,,,,,,,,,,,,,4819.723559300415,None,,,,,,,,,,,,,,,,,,,,,,,,,,,,,,,,,,,,,,,,,,,,,,,,,,,,,,,,,poet,189,127,sing,new,red,4818.366645200178,None,n,4818.366645200178,None,"['n', 'return']","[1.2160991998389363, 1.3120951000601053]",4818.366645200178,None,,,40YD,001,2023_Apr_14_1150,ExactRep-v3-final,2021.2.3,59.95487785265527,
,,,,,,,,,,,,127,0,127,0,,,,,,,,,,,,,,,,,,,,,,,,,,,,,,,,,,,,,,,,,,,,,,,,,4821.108334300108,None,,,,,,,,,,,,,,,,,,,,,,,,,,,,,,,,,,,,,,,,,,,,,,,,,,,,,,,,,star,106,128,aloud,old,blue,4820.230948500335,None,y,4820.230948500335,None,"['y', 'return']","[0.7038047993555665, 0.8320600995793939]",4820.230948500335,None,,,40YD,001,2023_Apr_14_1150,ExactRep-v3-final,2021.2.3,59.95487785265527,
,,,,,,,,,,,,128,0,128,0,,,,,,,,,,,,,,,,,,,,,,,,,,,,,,,,,,,,,,,,,,,,,,,,,4822.509746300057,None,,,,,,,,,,,,,,,,,,,,,,,,,,,,,,,,,,,,,,,,,,,,,,,,,,,,,,,,,clock,111,129,aloud,old,blue,4821.614014999941,None,y,4821.614014999941,None,"['y', 'return']","[0.736736599355936, 0.8568209996446967]",4821.614014999941,None,,,40YD,001,2023_Apr_14_1150,ExactRep-v3-final,2021.2.3,59.95487785265527,
,,,,,,,,,,,,129,0,129,0,,,,,,,,,,,,,,,,,,,,,,,,,,,,,,,,,,,,,,,,,,,,,,,,,4825.462694499642,None,,,,,,,,,,,,,,,,,,,,,,,,,,,,,,,,,,,,,,,,,,,,,,,,,,,,,,,,,seat,69,130,silent,old,white,4823.011474099942,None,y,4823.011474099942,None,"['n', 'backspace', 'y', 'return']","[0.9313914002850652, 2.083243199624121, 2.275255000218749, 2.4113146997988224]",4823.011474099942,None,,,40YD,001,2023_Apr_14_1150,ExactRep-v3-final,2021.2.3,59.95487785265527,
,,,,,,,,,,,,130,0,130,0,,,,,,,,,,,,,,,,,,,,,,,,,,,,,,,,,,,,,,,,,,,,,,,,,4827.598760600202,None,,,,,,,,,,,,,,,,,,,,,,,,,,,,,,,,,,,,,,,,,,,,,,,,,,,,,,,,,silence,140,131,silent,new,white,4825.969576899894,None,y,4825.969576899894,None,"['y', 'return']","[1.4690548991784453, 1.5810814993456006]",4825.969576899894,None,,,40YD,001,2023_Apr_14_1150,ExactRep-v3-final,2021.2.3,59.95487785265527,
