trials_fam.thisRepN,trials_fam.thisTrialN,trials_fam.thisN,trials_fam.thisIndex,trials_prc.thisRepN,trials_prc.thisTrialN,trials_prc.thisN,trials_prc.thisIndex,StudyLoop.thisRepN,StudyLoop.thisTrialN,StudyLoop.thisN,StudyLoop.thisIndex,TestLoop.thisRepN,TestLoop.thisTrialN,TestLoop.thisN,TestLoop.thisIndex,text_colortest.started,text_colortest.stopped,key_colortest.keys,key_colortest.rt,key_colortest.started,key_colortest.stopped,textCondition.started,textCondition.stopped,keyCondition.keys,keyCondition.rt,keyCondition.started,keyCondition.stopped,Condition_between,Condition_counterbal,keyWelcome.keys,keyWelcome.rt,keyWelcome.started,keyWelcome.stopped,welcome_a.started,welcome_a.stopped,welcome_b.started,welcome_b.stopped,welcome_c.started,welcome_c.stopped,welcome_d.started,welcome_d.stopped,welcome_e.started,welcome_e.stopped,welcome_f.started,welcome_f.stopped,key_resp_fam_inst.keys,key_resp_fam_inst.rt,key_resp_fam_inst.started,key_resp_fam_inst.stopped,fam_a.started,fam_a.stopped,fam_b.started,fam_b.stopped,fam_c.started,fam_c.stopped,fam_d.started,fam_d.stopped,fam_e.started,fam_e.stopped,fam_f.started,fam_f.stopped,text_famil.started,text_famil.stopped,textBlank500.started,textBlank500.stopped,key_resp_prc_inst.keys,key_resp_prc_inst.rt,key_resp_prc_inst.started,key_resp_prc_inst.stopped,prac_a.started,prac_a.stopped,prac_b.started,prac_b.stopped,prac_c.started,prac_c.stopped,prac_d.started,prac_d.stopped,prac_e.started,prac_e.stopped,prac_f.started,prac_f.stopped,text_prc_trial.started,text_prc_trial.stopped,key_resp_study_inst.keys,key_resp_study_inst.rt,key_resp_study_inst.started,key_resp_study_inst.stopped,crit_a.started,crit_a.stopped,crit_b.started,crit_b.stopped,crit_c.started,crit_c.stopped,crit_d.started,crit_d.stopped,crit_e.started,crit_e.stopped,crit_f.started,crit_f.stopped,study_word,study_num,study_order,study_type,word_color,textStudy.started,textStudy.stopped,keyStudy.keys,keyStudy.started,keyStudy.stopped,post_study.started,post_study.stopped,key_resp_post_study.keys,key_resp_post_study.rt,key_resp_post_study.started,key_resp_post_study.stopped,test_inst.started,test_inst.stopped,key_resp_test_inst.keys,key_resp_test_inst.rt,key_resp_test_inst.started,key_resp_test_inst.stopped,test_word,test_num,test_order,test_condition,old_new_test,word_color_test,textConf.started,textConf.stopped,Participant Response,textInput.started,textInput.stopped,keyResp.keys,keyResp.rt,keyResp.started,keyResp.stopped,textEnd.started,textEnd.stopped,participant,session,date,expName,psychopyVersion,frameRate,
,,,,,,,,,,,,,,,,14.212671299465,None,y,1.1446643006056547,14.212671299465,None,,,,,,,,,,,,,,,,,,,,,,,,,,,,,,,,,,,,,,,,,,,,,,,,,,,,,,,,,,,,,,,,,,,,,,,,,,,,,,,,,,,,,,,,,,,,,,,,,,,,,,,,,,,,,,,,,,,,,,41,001,2023_Apr_17_1152,ExactRep-v3-final,2021.2.3,59.94510209475323,
,,,,,,,,,,,,,,,,,,,,,,15.378832600079477,None,e,0.6742110000923276,15.378832600079477,None,,,,,,,,,,,,,,,,,,,,,,,,,,,,,,,,,,,,,,,,,,,,,,,,,,,,,,,,,,,,,,,,,,,,,,,,,,,,,,,,,,,,,,,,,,,,,,,,,,,,,,,,,,,,,,,,41,001,2023_Apr_17_1152,ExactRep-v3-final,2021.2.3,59.94510209475323,
,,,,,,,,,,,,,,,,,,,,,,,,,,,,colorfoils,e,space,260.35761559940875,26.183666399680078,None,,,,,,,,,,,,,,,,,,,,,,,,,,,,,,,,,,,,,,,,,,,,,,,,,,,,,,,,,,,,,,,,,,,,,,,,,,,,,,,,,,,,,,,,,,,,,,,,,,,,,,,,,,41,001,2023_Apr_17_1152,ExactRep-v3-final,2021.2.3,59.94510209475323,
,,,,,,,,,,,,,,,,,,,,,,,,,,,,,,,,,,16.22533129993826,None,16.22533129993826,None,16.22533129993826,None,16.22533129993826,None,16.22533129993826,None,16.22533129993826,None,space,15.69130009971559,296.7381195994094,None,,,,,,,,,,,,,,,,,,,,,,,,,,,,,,,,,,,,,,,,,,,,,,,,,,,,,,,,,,,,,,,,,,,,,,,,,,,,,,,,,,,,,,,,,,41,001,2023_Apr_17_1152,ExactRep-v3-final,2021.2.3,59.94510209475323,
0,0,0,0,,,,,,,,,,,,,,,,,,,,,,,,,,,,,,,,,,,,,,,,,,,,,,,286.7315528001636,None,286.7315528001636,None,286.7315528001636,None,286.7315528001636,None,286.7315528001636,None,286.7315528001636,None,312.50872279983014,None,314.5111718000844,None,,,,,,,,,,,,,,,,,,,,,,,,,,,,,,,,,,,,,,,,,,,,,,,,,,,,,,,,,,,,,,,,,,,,,,,,,,41,001,2023_Apr_17_1152,ExactRep-v3-final,2021.2.3,59.94510209475323,
1,0,1,0,,,,,,,,,,,,,,,,,,,,,,,,,,,,,,,,,,,,,,,,,,,,,,,,,,,,,,,,,,,315.0298472996801,None,317.030224699527,None,,,,,,,,,,,,,,,,,,,,,,,,,,,,,,,,,,,,,,,,,,,,,,,,,,,,,,,,,,,,,,,,,,,,,,,,,,41,001,2023_Apr_17_1152,ExactRep-v3-final,2021.2.3,59.94510209475323,
2,0,2,0,,,,,,,,,,,,,,,,,,,,,,,,,,,,,,,,,,,,,,,,,,,,,,,,,,,,,,,,,,,317.541743199341,None,319.5499569000676,None,,,,,,,,,,,,,,,,,,,,,,,,,,,,,,,,,,,,,,,,,,,,,,,,,,,,,,,,,,,,,,,,,,,,,,,,,,41,001,2023_Apr_17_1152,ExactRep-v3-final,2021.2.3,59.94510209475323,
3,0,3,0,,,,,,,,,,,,,,,,,,,,,,,,,,,,,,,,,,,,,,,,,,,,,,,,,,,,,,,,,,,320.05145129933953,None,322.0520909000188,None,,,,,,,,,,,,,,,,,,,,,,,,,,,,,,,,,,,,,,,,,,,,,,,,,,,,,,,,,,,,,,,,,,,,,,,,,,41,001,2023_Apr_17_1152,ExactRep-v3-final,2021.2.3,59.94510209475323,
4,0,4,0,,,,,,,,,,,,,,,,,,,,,,,,,,,,,,,,,,,,,,,,,,,,,,,,,,,,,,,,,,,322.55458039976656,None,324.5545683000237,None,,,,,,,,,,,,,,,,,,,,,,,,,,,,,,,,,,,,,,,,,,,,,,,,,,,,,,,,,,,,,,,,,,,,,,,,,,41,001,2023_Apr_17_1152,ExactRep-v3-final,2021.2.3,59.94510209475323,
5,0,5,0,,,,,,,,,,,,,,,,,,,,,,,,,,,,,,,,,,,,,,,,,,,,,,,,,,,,,,,,,,,325.0571534996852,None,327.0571329994127,None,,,,,,,,,,,,,,,,,,,,,,,,,,,,,,,,,,,,,,,,,,,,,,,,,,,,,,,,,,,,,,,,,,,,,,,,,,41,001,2023_Apr_17_1152,ExactRep-v3-final,2021.2.3,59.94510209475323,
6,0,6,0,,,,,,,,,,,,,,,,,,,,,,,,,,,,,,,,,,,,,,,,,,,,,,,,,,,,,,,,,,,327.56289509963244,None,329.57641910016537,None,,,,,,,,,,,,,,,,,,,,,,,,,,,,,,,,,,,,,,,,,,,,,,,,,,,,,,,,,,,,,,,,,,,,,,,,,,41,001,2023_Apr_17_1152,ExactRep-v3-final,2021.2.3,59.94510209475323,
7,0,7,0,,,,,,,,,,,,,,,,,,,,,,,,,,,,,,,,,,,,,,,,,,,,,,,,,,,,,,,,,,,330.0782402995974,None,332.07878839969635,None,,,,,,,,,,,,,,,,,,,,,,,,,,,,,,,,,,,,,,,,,,,,,,,,,,,,,,,,,,,,,,,,,,,,,,,,,,41,001,2023_Apr_17_1152,ExactRep-v3-final,2021.2.3,59.94510209475323,
8,0,8,0,,,,,,,,,,,,,,,,,,,,,,,,,,,,,,,,,,,,,,,,,,,,,,,,,,,,,,,,,,,332.5870882999152,None,334.5977815994993,None,,,,,,,,,,,,,,,,,,,,,,,,,,,,,,,,,,,,,,,,,,,,,,,,,,,,,,,,,,,,,,,,,,,,,,,,,,41,001,2023_Apr_17_1152,ExactRep-v3-final,2021.2.3,59.94510209475323,
9,0,9,0,,,,,,,,,,,,,,,,,,,,,,,,,,,,,,,,,,,,,,,,,,,,,,,,,,,,,,,,,,,335.09837470017374,None,337.1002824995667,None,,,,,,,,,,,,,,,,,,,,,,,,,,,,,,,,,,,,,,,,,,,,,,,,,,,,,,,,,,,,,,,,,,,,,,,,,,41,001,2023_Apr_17_1152,ExactRep-v3-final,2021.2.3,59.94510209475323,
10,0,10,0,,,,,,,,,,,,,,,,,,,,,,,,,,,,,,,,,,,,,,,,,,,,,,,,,,,,,,,,,,,337.60055529978126,None,339.60276579950005,None,,,,,,,,,,,,,,,,,,,,,,,,,,,,,,,,,,,,,,,,,,,,,,,,,,,,,,,,,,,,,,,,,,,,,,,,,,41,001,2023_Apr_17_1152,ExactRep-v3-final,2021.2.3,59.94510209475323,
11,0,11,0,,,,,,,,,,,,,,,,,,,,,,,,,,,,,,,,,,,,,,,,,,,,,,,,,,,,,,,,,,,340.10404319968075,None,342.1054624998942,None,,,,,,,,,,,,,,,,,,,,,,,,,,,,,,,,,,,,,,,,,,,,,,,,,,,,,,,,,,,,,,,,,,,,,,,,,,41,001,2023_Apr_17_1152,ExactRep-v3-final,2021.2.3,59.94510209475323,
12,0,12,0,,,,,,,,,,,,,,,,,,,,,,,,,,,,,,,,,,,,,,,,,,,,,,,,,,,,,,,,,,,342.60774930007756,None,344.60783489979804,None,,,,,,,,,,,,,,,,,,,,,,,,,,,,,,,,,,,,,,,,,,,,,,,,,,,,,,,,,,,,,,,,,,,,,,,,,,41,001,2023_Apr_17_1152,ExactRep-v3-final,2021.2.3,59.94510209475323,
13,0,13,0,,,,,,,,,,,,,,,,,,,,,,,,,,,,,,,,,,,,,,,,,,,,,,,,,,,,,,,,,,,345.1151491999626,None,347.1269835997373,None,,,,,,,,,,,,,,,,,,,,,,,,,,,,,,,,,,,,,,,,,,,,,,,,,,,,,,,,,,,,,,,,,,,,,,,,,,41,001,2023_Apr_17_1152,ExactRep-v3-final,2021.2.3,59.94510209475323,
14,0,14,0,,,,,,,,,,,,,,,,,,,,,,,,,,,,,,,,,,,,,,,,,,,,,,,,,,,,,,,,,,,347.6276092994958,None,349.6294548995793,None,,,,,,,,,,,,,,,,,,,,,,,,,,,,,,,,,,,,,,,,,,,,,,,,,,,,,,,,,,,,,,,,,,,,,,,,,,41,001,2023_Apr_17_1152,ExactRep-v3-final,2021.2.3,59.94510209475323,
,,,,,,,,,,,,,,,,,,,,,,,,,,,,,,,,,,,,,,,,,,,,,,,,,,,,,,,,,,,,,,,,,,space,19.401385799981654,360.219924999401,None,,,,,,,,,,,,,,,,,,,,,,,,,,,,,,,,,,,,,,,,,,,,,,,,,,,,,,,,,,,,,,,,,,,,,,41,001,2023_Apr_17_1152,ExactRep-v3-final,2021.2.3,59.94510209475323,
,,,,0,0,0,0,,,,,,,,,,,,,,,,,,,,,,,,,,,,,,,,,,,,,,,,,,,,,,,,,,,,,,,,,381.7284007994458,None,,,,,350.27471849974245,None,350.27471849974245,None,350.27471849974245,None,350.27471849974245,None,350.27471849974245,None,350.27471849974245,None,379.71775439940393,None,,,,,,,,,,,,,,,,,,,,,,,,,,,,,,,,,,,,,,,,,,,,,,,,,,,,,,,,41,001,2023_Apr_17_1152,ExactRep-v3-final,2021.2.3,59.94510209475323,
,,,,1,0,1,0,,,,,,,,,,,,,,,,,,,,,,,,,,,,,,,,,,,,,,,,,,,,,,,,,,,,,,,,,384.23064740002155,None,,,,,,,,,,,,,,,,,382.2289509996772,None,,,,,,,,,,,,,,,,,,,,,,,,,,,,,,,,,,,,,,,,,,,,,,,,,,,,,,,,41,001,2023_Apr_17_1152,ExactRep-v3-final,2021.2.3,59.94510209475323,
,,,,2,0,2,0,,,,,,,,,,,,,,,,,,,,,,,,,,,,,,,,,,,,,,,,,,,,,,,,,,,,,,,,,386.73343499936163,None,,,,,,,,,,,,,,,,,384.73148769978434,None,,,,,,,,,,,,,,,,,,,,,,,,,,,,,,,,,,,,,,,,,,,,,,,,,,,,,,,,41,001,2023_Apr_17_1152,ExactRep-v3-final,2021.2.3,59.94510209475323,
,,,,3,0,3,0,,,,,,,,,,,,,,,,,,,,,,,,,,,,,,,,,,,,,,,,,,,,,,,,,,,,,,,,,389.2355503998697,None,,,,,,,,,,,,,,,,,387.2337499000132,None,,,,,,,,,,,,,,,,,,,,,,,,,,,,,,,,,,,,,,,,,,,,,,,,,,,,,,,,41,001,2023_Apr_17_1152,ExactRep-v3-final,2021.2.3,59.94510209475323,
,,,,4,0,4,0,,,,,,,,,,,,,,,,,,,,,,,,,,,,,,,,,,,,,,,,,,,,,,,,,,,,,,,,,391.7383133992553,None,,,,,,,,,,,,,,,,,389.7363615995273,None,,,,,,,,,,,,,,,,,,,,,,,,,,,,,,,,,,,,,,,,,,,,,,,,,,,,,,,,41,001,2023_Apr_17_1152,ExactRep-v3-final,2021.2.3,59.94510209475323,
,,,,5,0,5,0,,,,,,,,,,,,,,,,,,,,,,,,,,,,,,,,,,,,,,,,,,,,,,,,,,,,,,,,,394.2407705998048,None,,,,,,,,,,,,,,,,,392.23895259946585,None,,,,,,,,,,,,,,,,,,,,,,,,,,,,,,,,,,,,,,,,,,,,,,,,,,,,,,,,41,001,2023_Apr_17_1152,ExactRep-v3-final,2021.2.3,59.94510209475323,
,,,,6,0,6,0,,,,,,,,,,,,,,,,,,,,,,,,,,,,,,,,,,,,,,,,,,,,,,,,,,,,,,,,,396.74340240005404,None,,,,,,,,,,,,,,,,,394.7413067994639,None,,,,,,,,,,,,,,,,,,,,,,,,,,,,,,,,,,,,,,,,,,,,,,,,,,,,,,,,41,001,2023_Apr_17_1152,ExactRep-v3-final,2021.2.3,59.94510209475323,
,,,,7,0,7,0,,,,,,,,,,,,,,,,,,,,,,,,,,,,,,,,,,,,,,,,,,,,,,,,,,,,,,,,,399.2459036996588,None,,,,,,,,,,,,,,,,,397.2440577996895,None,,,,,,,,,,,,,,,,,,,,,,,,,,,,,,,,,,,,,,,,,,,,,,,,,,,,,,,,41,001,2023_Apr_17_1152,ExactRep-v3-final,2021.2.3,59.94510209475323,
,,,,8,0,8,0,,,,,,,,,,,,,,,,,,,,,,,,,,,,,,,,,,,,,,,,,,,,,,,,,,,,,,,,,401.7485713995993,None,,,,,,,,,,,,,,,,,399.7464285995811,None,,,,,,,,,,,,,,,,,,,,,,,,,,,,,,,,,,,,,,,,,,,,,,,,,,,,,,,,41,001,2023_Apr_17_1152,ExactRep-v3-final,2021.2.3,59.94510209475323,
,,,,9,0,9,0,,,,,,,,,,,,,,,,,,,,,,,,,,,,,,,,,,,,,,,,,,,,,,,,,,,,,,,,,404.2509293993935,None,,,,,,,,,,,,,,,,,402.24902370013297,None,,,,,,,,,,,,,,,,,,,,,,,,,,,,,,,,,,,,,,,,,,,,,,,,,,,,,,,,41,001,2023_Apr_17_1152,ExactRep-v3-final,2021.2.3,59.94510209475323,
,,,,10,0,10,0,,,,,,,,,,,,,,,,,,,,,,,,,,,,,,,,,,,,,,,,,,,,,,,,,,,,,,,,,406.75339929945767,None,,,,,,,,,,,,,,,,,404.7514511998743,None,,,,,,,,,,,,,,,,,,,,,,,,,,,,,,,,,,,,,,,,,,,,,,,,,,,,,,,,41,001,2023_Apr_17_1152,ExactRep-v3-final,2021.2.3,59.94510209475323,
,,,,11,0,11,0,,,,,,,,,,,,,,,,,,,,,,,,,,,,,,,,,,,,,,,,,,,,,,,,,,,,,,,,,409.2559174997732,None,,,,,,,,,,,,,,,,,407.2539366995916,None,,,,,,,,,,,,,,,,,,,,,,,,,,,,,,,,,,,,,,,,,,,,,,,,,,,,,,,,41,001,2023_Apr_17_1152,ExactRep-v3-final,2021.2.3,59.94510209475323,
,,,,12,0,12,0,,,,,,,,,,,,,,,,,,,,,,,,,,,,,,,,,,,,,,,,,,,,,,,,,,,,,,,,,411.7585273999721,None,,,,,,,,,,,,,,,,,409.7566492995247,None,,,,,,,,,,,,,,,,,,,,,,,,,,,,,,,,,,,,,,,,,,,,,,,,,,,,,,,,41,001,2023_Apr_17_1152,ExactRep-v3-final,2021.2.3,59.94510209475323,
,,,,13,0,13,0,,,,,,,,,,,,,,,,,,,,,,,,,,,,,,,,,,,,,,,,,,,,,,,,,,,,,,,,,414.26095960009843,None,,,,,,,,,,,,,,,,,412.2589052999392,None,,,,,,,,,,,,,,,,,,,,,,,,,,,,,,,,,,,,,,,,,,,,,,,,,,,,,,,,41,001,2023_Apr_17_1152,ExactRep-v3-final,2021.2.3,59.94510209475323,
,,,,14,0,14,0,,,,,,,,,,,,,,,,,,,,,,,,,,,,,,,,,,,,,,,,,,,,,,,,,,,,,,,,,416.7632431993261,None,,,,,,,,,,,,,,,,,414.76146279927343,None,,,,,,,,,,,,,,,,,,,,,,,,,,,,,,,,,,,,,,,,,,,,,,,,,,,,,,,,41,001,2023_Apr_17_1152,ExactRep-v3-final,2021.2.3,59.94510209475323,
,,,,,,,,,,,,,,,,,,,,,,,,,,,,,,,,,,,,,,,,,,,,,,,,,,,,,,,,,,,,,,,,,,,,,,,,,,,,,,,,,,,,space,24.420622799545527,427.38469989970326,None,,,,,,,,,,,,,,,,,,,,,,,,,,,,,,,,,,,,,,,,,,,,,,,,,,,,41,001,2023_Apr_17_1152,ExactRep-v3-final,2021.2.3,59.94510209475323,
,,,,,,,,0,0,0,0,,,,,,,,,,,,,,,,,,,,,,,,,,,,,,,,,,,,,,,,,,,,,,,,,,,,,453.9002379998565,None,,,,,,,,,,,,,,,,,,,,,,,417.4196795001626,None,417.4196795001626,None,417.4196795001626,None,417.4196795001626,None,417.4196795001626,None,417.4196795001626,None,moment,115,1,aloud,white,451.8982261000201,None,None,451.8982261000201,None,,,,,,,,,,,,,,,,,,,,,,,,,,,,,,41,001,2023_Apr_17_1152,ExactRep-v3-final,2021.2.3,59.94510209475323,
,,,,,,,,1,0,1,0,,,,,,,,,,,,,,,,,,,,,,,,,,,,,,,,,,,,,,,,,,,,,,,,,,,,,456.4036254994571,None,,,,,,,,,,,,,,,,,,,,,,,,,,,,,,,,,,,army,114,2,aloud,white,454.4007989997044,None,None,454.4007989997044,None,,,,,,,,,,,,,,,,,,,,,,,,,,,,,,41,001,2023_Apr_17_1152,ExactRep-v3-final,2021.2.3,59.94510209475323,
,,,,,,,,2,0,2,0,,,,,,,,,,,,,,,,,,,,,,,,,,,,,,,,,,,,,,,,,,,,,,,,,,,,,458.9220706000924,None,,,,,,,,,,,,,,,,,,,,,,,,,,,,,,,,,,,person,92,3,aloud,white,456.9094006996602,None,None,456.9094006996602,None,,,,,,,,,,,,,,,,,,,,,,,,,,,,,,41,001,2023_Apr_17_1152,ExactRep-v3-final,2021.2.3,59.94510209475323,
,,,,,,,,3,0,3,0,,,,,,,,,,,,,,,,,,,,,,,,,,,,,,,,,,,,,,,,,,,,,,,,,,,,,461.4410803997889,None,,,,,,,,,,,,,,,,,,,,,,,,,,,,,,,,,,,college,55,4,silent,red,459.426869799383,None,None,459.426869799383,None,,,,,,,,,,,,,,,,,,,,,,,,,,,,,,41,001,2023_Apr_17_1152,ExactRep-v3-final,2021.2.3,59.94510209475323,
,,,,,,,,4,0,4,0,,,,,,,,,,,,,,,,,,,,,,,,,,,,,,,,,,,,,,,,,,,,,,,,,,,,,463.96049979981035,None,,,,,,,,,,,,,,,,,,,,,,,,,,,,,,,,,,,slave,69,5,silent,red,461.94533659983426,None,None,461.94533659983426,None,,,,,,,,,,,,,,,,,,,,,,,,,,,,,,41,001,2023_Apr_17_1152,ExactRep-v3-final,2021.2.3,59.94510209475323,
,,,,,,,,5,0,5,0,,,,,,,,,,,,,,,,,,,,,,,,,,,,,,,,,,,,,,,,,,,,,,,,,,,,,466.4798307996243,None,,,,,,,,,,,,,,,,,,,,,,,,,,,,,,,,,,,dress,48,6,silent,red,464.46538050007075,None,None,464.46538050007075,None,,,,,,,,,,,,,,,,,,,,,,,,,,,,,,41,001,2023_Apr_17_1152,ExactRep-v3-final,2021.2.3,59.94510209475323,
,,,,,,,,6,0,6,0,,,,,,,,,,,,,,,,,,,,,,,,,,,,,,,,,,,,,,,,,,,,,,,,,,,,,468.9990293001756,None,,,,,,,,,,,,,,,,,,,,,,,,,,,,,,,,,,,life,72,7,silent,red,466.9852470001206,None,None,466.9852470001206,None,,,,,,,,,,,,,,,,,,,,,,,,,,,,,,41,001,2023_Apr_17_1152,ExactRep-v3-final,2021.2.3,59.94510209475323,
,,,,,,,,7,0,7,0,,,,,,,,,,,,,,,,,,,,,,,,,,,,,,,,,,,,,,,,,,,,,,,,,,,,,471.5013350993395,None,,,,,,,,,,,,,,,,,,,,,,,,,,,,,,,,,,,tree,111,8,aloud,white,469.50063879974186,None,None,469.50063879974186,None,,,,,,,,,,,,,,,,,,,,,,,,,,,,,,41,001,2023_Apr_17_1152,ExactRep-v3-final,2021.2.3,59.94510209475323,
,,,,,,,,8,0,8,0,,,,,,,,,,,,,,,,,,,,,,,,,,,,,,,,,,,,,,,,,,,,,,,,,,,,,474.02073400001973,None,,,,,,,,,,,,,,,,,,,,,,,,,,,,,,,,,,,humour,99,9,aloud,white,472.011149299331,None,None,472.011149299331,None,,,,,,,,,,,,,,,,,,,,,,,,,,,,,,41,001,2023_Apr_17_1152,ExactRep-v3-final,2021.2.3,59.94510209475323,
,,,,,,,,9,0,9,0,,,,,,,,,,,,,,,,,,,,,,,,,,,,,,,,,,,,,,,,,,,,,,,,,,,,,476.52315909974277,None,,,,,,,,,,,,,,,,,,,,,,,,,,,,,,,,,,,advice,58,10,silent,red,474.5210711993277,None,None,474.5210711993277,None,,,,,,,,,,,,,,,,,,,,,,,,,,,,,,41,001,2023_Apr_17_1152,ExactRep-v3-final,2021.2.3,59.94510209475323,
,,,,,,,,10,0,10,0,,,,,,,,,,,,,,,,,,,,,,,,,,,,,,,,,,,,,,,,,,,,,,,,,,,,,479.02565739955753,None,,,,,,,,,,,,,,,,,,,,,,,,,,,,,,,,,,,coast,90,11,aloud,white,477.0250280993059,None,None,477.0250280993059,None,,,,,,,,,,,,,,,,,,,,,,,,,,,,,,41,001,2023_Apr_17_1152,ExactRep-v3-final,2021.2.3,59.94510209475323,
,,,,,,,,11,0,11,0,,,,,,,,,,,,,,,,,,,,,,,,,,,,,,,,,,,,,,,,,,,,,,,,,,,,,481.52818109933287,None,,,,,,,,,,,,,,,,,,,,,,,,,,,,,,,,,,,valley,94,12,aloud,white,479.5273893997073,None,None,479.5273893997073,None,,,,,,,,,,,,,,,,,,,,,,,,,,,,,,41,001,2023_Apr_17_1152,ExactRep-v3-final,2021.2.3,59.94510209475323,
,,,,,,,,12,0,12,0,,,,,,,,,,,,,,,,,,,,,,,,,,,,,,,,,,,,,,,,,,,,,,,,,,,,,484.0304651996121,None,,,,,,,,,,,,,,,,,,,,,,,,,,,,,,,,,,,effort,36,13,sing,blue,482.0303344000131,None,None,482.0303344000131,None,,,,,,,,,,,,,,,,,,,,,,,,,,,,,,41,001,2023_Apr_17_1152,ExactRep-v3-final,2021.2.3,59.94510209475323,
,,,,,,,,13,0,13,0,,,,,,,,,,,,,,,,,,,,,,,,,,,,,,,,,,,,,,,,,,,,,,,,,,,,,486.5331950997934,None,,,,,,,,,,,,,,,,,,,,,,,,,,,,,,,,,,,colony,8,14,sing,blue,484.5310522997752,None,None,484.5310522997752,None,,,,,,,,,,,,,,,,,,,,,,,,,,,,,,41,001,2023_Apr_17_1152,ExactRep-v3-final,2021.2.3,59.94510209475323,
,,,,,,,,14,0,14,0,,,,,,,,,,,,,,,,,,,,,,,,,,,,,,,,,,,,,,,,,,,,,,,,,,,,,489.0357045000419,None,,,,,,,,,,,,,,,,,,,,,,,,,,,,,,,,,,,gold,1,15,sing,blue,487.03527429979295,None,None,487.03527429979295,None,,,,,,,,,,,,,,,,,,,,,,,,,,,,,,41,001,2023_Apr_17_1152,ExactRep-v3-final,2021.2.3,59.94510209475323,
,,,,,,,,15,0,15,0,,,,,,,,,,,,,,,,,,,,,,,,,,,,,,,,,,,,,,,,,,,,,,,,,,,,,491.5382151994854,None,,,,,,,,,,,,,,,,,,,,,,,,,,,,,,,,,,,murder,98,16,aloud,white,489.53792240004987,None,None,489.53792240004987,None,,,,,,,,,,,,,,,,,,,,,,,,,,,,,,41,001,2023_Apr_17_1152,ExactRep-v3-final,2021.2.3,59.94510209475323,
,,,,,,,,16,0,16,0,,,,,,,,,,,,,,,,,,,,,,,,,,,,,,,,,,,,,,,,,,,,,,,,,,,,,494.0573872998357,None,,,,,,,,,,,,,,,,,,,,,,,,,,,,,,,,,,,lake,25,17,sing,blue,492.04653519950807,None,None,492.04653519950807,None,,,,,,,,,,,,,,,,,,,,,,,,,,,,,,41,001,2023_Apr_17_1152,ExactRep-v3-final,2021.2.3,59.94510209475323,
,,,,,,,,17,0,17,0,,,,,,,,,,,,,,,,,,,,,,,,,,,,,,,,,,,,,,,,,,,,,,,,,,,,,496.5599547997117,None,,,,,,,,,,,,,,,,,,,,,,,,,,,,,,,,,,,memory,60,18,silent,red,494.55909089930356,None,None,494.55909089930356,None,,,,,,,,,,,,,,,,,,,,,,,,,,,,,,41,001,2023_Apr_17_1152,ExactRep-v3-final,2021.2.3,59.94510209475323,
,,,,,,,,18,0,18,0,,,,,,,,,,,,,,,,,,,,,,,,,,,,,,,,,,,,,,,,,,,,,,,,,,,,,499.0623972993344,None,,,,,,,,,,,,,,,,,,,,,,,,,,,,,,,,,,,library,10,19,sing,blue,497.0619115997106,None,None,497.0619115997106,None,,,,,,,,,,,,,,,,,,,,,,,,,,,,,,41,001,2023_Apr_17_1152,ExactRep-v3-final,2021.2.3,59.94510209475323,
,,,,,,,,19,0,19,0,,,,,,,,,,,,,,,,,,,,,,,,,,,,,,,,,,,,,,,,,,,,,,,,,,,,,501.5814621997997,None,,,,,,,,,,,,,,,,,,,,,,,,,,,,,,,,,,,machine,11,20,sing,blue,499.56743869930506,None,None,499.56743869930506,None,,,,,,,,,,,,,,,,,,,,,,,,,,,,,,41,001,2023_Apr_17_1152,ExactRep-v3-final,2021.2.3,59.94510209475323,
,,,,,,,,20,0,20,0,,,,,,,,,,,,,,,,,,,,,,,,,,,,,,,,,,,,,,,,,,,,,,,,,,,,,504.1006599999964,None,,,,,,,,,,,,,,,,,,,,,,,,,,,,,,,,,,,meeting,16,21,sing,blue,502.0903856996447,None,None,502.0903856996447,None,,,,,,,,,,,,,,,,,,,,,,,,,,,,,,41,001,2023_Apr_17_1152,ExactRep-v3-final,2021.2.3,59.94510209475323,
,,,,,,,,21,0,21,0,,,,,,,,,,,,,,,,,,,,,,,,,,,,,,,,,,,,,,,,,,,,,,,,,,,,,506.60314559936523,None,,,,,,,,,,,,,,,,,,,,,,,,,,,,,,,,,,,fate,49,22,silent,red,504.60276919975877,None,None,504.60276919975877,None,,,,,,,,,,,,,,,,,,,,,,,,,,,,,,41,001,2023_Apr_17_1152,ExactRep-v3-final,2021.2.3,59.94510209475323,
,,,,,,,,22,0,22,0,,,,,,,,,,,,,,,,,,,,,,,,,,,,,,,,,,,,,,,,,,,,,,,,,,,,,509.12229249998927,None,,,,,,,,,,,,,,,,,,,,,,,,,,,,,,,,,,,anger,6,23,sing,blue,507.10816049948335,None,None,507.10816049948335,None,,,,,,,,,,,,,,,,,,,,,,,,,,,,,,41,001,2023_Apr_17_1152,ExactRep-v3-final,2021.2.3,59.94510209475323,
,,,,,,,,23,0,23,0,,,,,,,,,,,,,,,,,,,,,,,,,,,,,,,,,,,,,,,,,,,,,,,,,,,,,511.6247151000425,None,,,,,,,,,,,,,,,,,,,,,,,,,,,,,,,,,,,pupil,45,24,silent,red,509.62280769925565,None,None,509.62280769925565,None,,,,,,,,,,,,,,,,,,,,,,,,,,,,,,41,001,2023_Apr_17_1152,ExactRep-v3-final,2021.2.3,59.94510209475323,
,,,,,,,,24,0,24,0,,,,,,,,,,,,,,,,,,,,,,,,,,,,,,,,,,,,,,,,,,,,,,,,,,,,,514.1273401994258,None,,,,,,,,,,,,,,,,,,,,,,,,,,,,,,,,,,,prison,109,25,aloud,white,512.1268461998552,None,None,512.1268461998552,None,,,,,,,,,,,,,,,,,,,,,,,,,,,,,,41,001,2023_Apr_17_1152,ExactRep-v3-final,2021.2.3,59.94510209475323,
,,,,,,,,25,0,25,0,,,,,,,,,,,,,,,,,,,,,,,,,,,,,,,,,,,,,,,,,,,,,,,,,,,,,516.6299644000828,None,,,,,,,,,,,,,,,,,,,,,,,,,,,,,,,,,,,volume,19,26,sing,blue,514.6295221997425,None,None,514.6295221997425,None,,,,,,,,,,,,,,,,,,,,,,,,,,,,,,41,001,2023_Apr_17_1152,ExactRep-v3-final,2021.2.3,59.94510209475323,
,,,,,,,,26,0,26,0,,,,,,,,,,,,,,,,,,,,,,,,,,,,,,,,,,,,,,,,,,,,,,,,,,,,,519.149151599966,None,,,,,,,,,,,,,,,,,,,,,,,,,,,,,,,,,,,journal,13,27,sing,blue,517.1389262992889,None,None,517.1389262992889,None,,,,,,,,,,,,,,,,,,,,,,,,,,,,,,41,001,2023_Apr_17_1152,ExactRep-v3-final,2021.2.3,59.94510209475323,
,,,,,,,,27,0,27,0,,,,,,,,,,,,,,,,,,,,,,,,,,,,,,,,,,,,,,,,,,,,,,,,,,,,,521.6513732997701,None,,,,,,,,,,,,,,,,,,,,,,,,,,,,,,,,,,,ship,70,28,silent,red,519.6505976999179,None,None,519.6505976999179,None,,,,,,,,,,,,,,,,,,,,,,,,,,,,,,41,001,2023_Apr_17_1152,ExactRep-v3-final,2021.2.3,59.94510209475323,
,,,,,,,,28,0,28,0,,,,,,,,,,,,,,,,,,,,,,,,,,,,,,,,,,,,,,,,,,,,,,,,,,,,,524.1708600996062,None,,,,,,,,,,,,,,,,,,,,,,,,,,,,,,,,,,,gift,7,29,sing,blue,522.1578391995281,None,None,522.1578391995281,None,,,,,,,,,,,,,,,,,,,,,,,,,,,,,,41,001,2023_Apr_17_1152,ExactRep-v3-final,2021.2.3,59.94510209475323,
,,,,,,,,29,0,29,0,,,,,,,,,,,,,,,,,,,,,,,,,,,,,,,,,,,,,,,,,,,,,,,,,,,,,526.6734010996297,None,,,,,,,,,,,,,,,,,,,,,,,,,,,,,,,,,,,ocean,56,30,silent,red,524.6714004995301,None,None,524.6714004995301,None,,,,,,,,,,,,,,,,,,,,,,,,,,,,,,41,001,2023_Apr_17_1152,ExactRep-v3-final,2021.2.3,59.94510209475323,
,,,,,,,,30,0,30,0,,,,,,,,,,,,,,,,,,,,,,,,,,,,,,,,,,,,,,,,,,,,,,,,,,,,,529.1758821997792,None,,,,,,,,,,,,,,,,,,,,,,,,,,,,,,,,,,,metal,77,31,silent,red,527.1767676994205,None,None,527.1767676994205,None,,,,,,,,,,,,,,,,,,,,,,,,,,,,,,41,001,2023_Apr_17_1152,ExactRep-v3-final,2021.2.3,59.94510209475323,
,,,,,,,,31,0,31,0,,,,,,,,,,,,,,,,,,,,,,,,,,,,,,,,,,,,,,,,,,,,,,,,,,,,,531.694655300118,None,,,,,,,,,,,,,,,,,,,,,,,,,,,,,,,,,,,power,35,32,sing,blue,529.6909680999815,None,None,529.6909680999815,None,,,,,,,,,,,,,,,,,,,,,,,,,,,,,,41,001,2023_Apr_17_1152,ExactRep-v3-final,2021.2.3,59.94510209475323,
,,,,,,,,32,0,32,0,,,,,,,,,,,,,,,,,,,,,,,,,,,,,,,,,,,,,,,,,,,,,,,,,,,,,534.2141840001568,None,,,,,,,,,,,,,,,,,,,,,,,,,,,,,,,,,,,soul,9,33,sing,blue,532.2032343996689,None,None,532.2032343996689,None,,,,,,,,,,,,,,,,,,,,,,,,,,,,,,41,001,2023_Apr_17_1152,ExactRep-v3-final,2021.2.3,59.94510209475323,
,,,,,,,,33,0,33,0,,,,,,,,,,,,,,,,,,,,,,,,,,,,,,,,,,,,,,,,,,,,,,,,,,,,,536.7167440000921,None,,,,,,,,,,,,,,,,,,,,,,,,,,,,,,,,,,,passion,15,34,sing,blue,534.7149604996666,None,None,534.7149604996666,None,,,,,,,,,,,,,,,,,,,,,,,,,,,,,,41,001,2023_Apr_17_1152,ExactRep-v3-final,2021.2.3,59.94510209475323,
,,,,,,,,34,0,34,0,,,,,,,,,,,,,,,,,,,,,,,,,,,,,,,,,,,,,,,,,,,,,,,,,,,,,539.2193156993017,None,,,,,,,,,,,,,,,,,,,,,,,,,,,,,,,,,,,style,85,35,aloud,white,537.2200374994427,None,None,537.2200374994427,None,,,,,,,,,,,,,,,,,,,,,,,,,,,,,,41,001,2023_Apr_17_1152,ExactRep-v3-final,2021.2.3,59.94510209475323,
,,,,,,,,35,0,35,0,,,,,,,,,,,,,,,,,,,,,,,,,,,,,,,,,,,,,,,,,,,,,,,,,,,,,541.7215204993263,None,,,,,,,,,,,,,,,,,,,,,,,,,,,,,,,,,,,science,118,36,aloud,white,539.7211168995127,None,None,539.7211168995127,None,,,,,,,,,,,,,,,,,,,,,,,,,,,,,,41,001,2023_Apr_17_1152,ExactRep-v3-final,2021.2.3,59.94510209475323,
,,,,,,,,36,0,36,0,,,,,,,,,,,,,,,,,,,,,,,,,,,,,,,,,,,,,,,,,,,,,,,,,,,,,544.2243237998337,None,,,,,,,,,,,,,,,,,,,,,,,,,,,,,,,,,,,fault,5,37,sing,blue,542.2238839995116,None,None,542.2238839995116,None,,,,,,,,,,,,,,,,,,,,,,,,,,,,,,41,001,2023_Apr_17_1152,ExactRep-v3-final,2021.2.3,59.94510209475323,
,,,,,,,,37,0,37,0,,,,,,,,,,,,,,,,,,,,,,,,,,,,,,,,,,,,,,,,,,,,,,,,,,,,,546.7267180997878,None,,,,,,,,,,,,,,,,,,,,,,,,,,,,,,,,,,,beast,44,38,silent,red,544.7277608001605,None,None,544.7277608001605,None,,,,,,,,,,,,,,,,,,,,,,,,,,,,,,41,001,2023_Apr_17_1152,ExactRep-v3-final,2021.2.3,59.94510209475323,
,,,,,,,,38,0,38,0,,,,,,,,,,,,,,,,,,,,,,,,,,,,,,,,,,,,,,,,,,,,,,,,,,,,,549.2459686994553,None,,,,,,,,,,,,,,,,,,,,,,,,,,,,,,,,,,,dawn,83,39,aloud,white,547.2370582995936,None,None,547.2370582995936,None,,,,,,,,,,,,,,,,,,,,,,,,,,,,,,41,001,2023_Apr_17_1152,ExactRep-v3-final,2021.2.3,59.94510209475323,
,,,,,,,,39,0,39,0,,,,,,,,,,,,,,,,,,,,,,,,,,,,,,,,,,,,,,,,,,,,,,,,,,,,,551.7484869994223,None,,,,,,,,,,,,,,,,,,,,,,,,,,,,,,,,,,,stone,66,40,silent,red,549.7477326998487,None,None,549.7477326998487,None,,,,,,,,,,,,,,,,,,,,,,,,,,,,,,41,001,2023_Apr_17_1152,ExactRep-v3-final,2021.2.3,59.94510209475323,
,,,,,,,,40,0,40,0,,,,,,,,,,,,,,,,,,,,,,,,,,,,,,,,,,,,,,,,,,,,,,,,,,,,,554.2509701000527,None,,,,,,,,,,,,,,,,,,,,,,,,,,,,,,,,,,,potato,34,41,sing,blue,552.251598100178,None,None,552.251598100178,None,,,,,,,,,,,,,,,,,,,,,,,,,,,,,,41,001,2023_Apr_17_1152,ExactRep-v3-final,2021.2.3,59.94510209475323,
,,,,,,,,41,0,41,0,,,,,,,,,,,,,,,,,,,,,,,,,,,,,,,,,,,,,,,,,,,,,,,,,,,,,556.7534158993512,None,,,,,,,,,,,,,,,,,,,,,,,,,,,,,,,,,,,time,37,42,sing,blue,554.7529568001628,None,None,554.7529568001628,None,,,,,,,,,,,,,,,,,,,,,,,,,,,,,,41,001,2023_Apr_17_1152,ExactRep-v3-final,2021.2.3,59.94510209475323,
,,,,,,,,42,0,42,0,,,,,,,,,,,,,,,,,,,,,,,,,,,,,,,,,,,,,,,,,,,,,,,,,,,,,559.255909900181,None,,,,,,,,,,,,,,,,,,,,,,,,,,,,,,,,,,,blossom,59,43,silent,red,557.2559730997309,None,None,557.2559730997309,None,,,,,,,,,,,,,,,,,,,,,,,,,,,,,,41,001,2023_Apr_17_1152,ExactRep-v3-final,2021.2.3,59.94510209475323,
,,,,,,,,43,0,43,0,,,,,,,,,,,,,,,,,,,,,,,,,,,,,,,,,,,,,,,,,,,,,,,,,,,,,561.7581762997434,None,,,,,,,,,,,,,,,,,,,,,,,,,,,,,,,,,,,green,75,44,silent,red,559.7579179992899,None,None,559.7579179992899,None,,,,,,,,,,,,,,,,,,,,,,,,,,,,,,41,001,2023_Apr_17_1152,ExactRep-v3-final,2021.2.3,59.94510209475323,
,,,,,,,,44,0,44,0,,,,,,,,,,,,,,,,,,,,,,,,,,,,,,,,,,,,,,,,,,,,,,,,,,,,,564.2607901999727,None,,,,,,,,,,,,,,,,,,,,,,,,,,,,,,,,,,,poet,106,45,aloud,white,562.2608715994284,None,None,562.2608715994284,None,,,,,,,,,,,,,,,,,,,,,,,,,,,,,,41,001,2023_Apr_17_1152,ExactRep-v3-final,2021.2.3,59.94510209475323,
,,,,,,,,45,0,45,0,,,,,,,,,,,,,,,,,,,,,,,,,,,,,,,,,,,,,,,,,,,,,,,,,,,,,566.7797679994255,None,,,,,,,,,,,,,,,,,,,,,,,,,,,,,,,,,,,church,65,46,silent,red,564.7642590999603,None,None,564.7642590999603,None,,,,,,,,,,,,,,,,,,,,,,,,,,,,,,41,001,2023_Apr_17_1152,ExactRep-v3-final,2021.2.3,59.94510209475323,
,,,,,,,,46,0,46,0,,,,,,,,,,,,,,,,,,,,,,,,,,,,,,,,,,,,,,,,,,,,,,,,,,,,,569.2824369994923,None,,,,,,,,,,,,,,,,,,,,,,,,,,,,,,,,,,,animal,116,47,aloud,white,567.2802569996566,None,None,567.2802569996566,None,,,,,,,,,,,,,,,,,,,,,,,,,,,,,,41,001,2023_Apr_17_1152,ExactRep-v3-final,2021.2.3,59.94510209475323,
,,,,,,,,47,0,47,0,,,,,,,,,,,,,,,,,,,,,,,,,,,,,,,,,,,,,,,,,,,,,,,,,,,,,571.8031362993643,None,,,,,,,,,,,,,,,,,,,,,,,,,,,,,,,,,,,grief,24,48,sing,blue,569.7965335994959,None,None,569.7965335994959,None,,,,,,,,,,,,,,,,,,,,,,,,,,,,,,41,001,2023_Apr_17_1152,ExactRep-v3-final,2021.2.3,59.94510209475323,
,,,,,,,,48,0,48,0,,,,,,,,,,,,,,,,,,,,,,,,,,,,,,,,,,,,,,,,,,,,,,,,,,,,,574.3208280997351,None,,,,,,,,,,,,,,,,,,,,,,,,,,,,,,,,,,,world,105,49,aloud,white,572.3073253994808,None,None,572.3073253994808,None,,,,,,,,,,,,,,,,,,,,,,,,,,,,,,41,001,2023_Apr_17_1152,ExactRep-v3-final,2021.2.3,59.94510209475323,
,,,,,,,,49,0,49,0,,,,,,,,,,,,,,,,,,,,,,,,,,,,,,,,,,,,,,,,,,,,,,,,,,,,,576.8231357997283,None,,,,,,,,,,,,,,,,,,,,,,,,,,,,,,,,,,,money,71,50,silent,red,574.8212656993419,None,None,574.8212656993419,None,,,,,,,,,,,,,,,,,,,,,,,,,,,,,,41,001,2023_Apr_17_1152,ExactRep-v3-final,2021.2.3,59.94510209475323,
,,,,,,,,50,0,50,0,,,,,,,,,,,,,,,,,,,,,,,,,,,,,,,,,,,,,,,,,,,,,,,,,,,,,579.3428221000358,None,,,,,,,,,,,,,,,,,,,,,,,,,,,,,,,,,,,duty,3,51,sing,blue,577.3307044999674,None,None,577.3307044999674,None,,,,,,,,,,,,,,,,,,,,,,,,,,,,,,41,001,2023_Apr_17_1152,ExactRep-v3-final,2021.2.3,59.94510209475323,
,,,,,,,,51,0,51,0,,,,,,,,,,,,,,,,,,,,,,,,,,,,,,,,,,,,,,,,,,,,,,,,,,,,,581.8618639996275,None,,,,,,,,,,,,,,,,,,,,,,,,,,,,,,,,,,,sea,32,52,sing,blue,579.8495601993054,None,None,579.8495601993054,None,,,,,,,,,,,,,,,,,,,,,,,,,,,,,,41,001,2023_Apr_17_1152,ExactRep-v3-final,2021.2.3,59.94510209475323,
,,,,,,,,52,0,52,0,,,,,,,,,,,,,,,,,,,,,,,,,,,,,,,,,,,,,,,,,,,,,,,,,,,,,584.3643966997042,None,,,,,,,,,,,,,,,,,,,,,,,,,,,,,,,,,,,paper,17,53,sing,blue,582.3631335999817,None,None,582.3631335999817,None,,,,,,,,,,,,,,,,,,,,,,,,,,,,,,41,001,2023_Apr_17_1152,ExactRep-v3-final,2021.2.3,59.94510209475323,
,,,,,,,,53,0,53,0,,,,,,,,,,,,,,,,,,,,,,,,,,,,,,,,,,,,,,,,,,,,,,,,,,,,,586.8835242995992,None,,,,,,,,,,,,,,,,,,,,,,,,,,,,,,,,,,,insect,87,54,aloud,white,584.8698907997459,None,None,584.8698907997459,None,,,,,,,,,,,,,,,,,,,,,,,,,,,,,,41,001,2023_Apr_17_1152,ExactRep-v3-final,2021.2.3,59.94510209475323,
,,,,,,,,54,0,54,0,,,,,,,,,,,,,,,,,,,,,,,,,,,,,,,,,,,,,,,,,,,,,,,,,,,,,589.3860977999866,None,,,,,,,,,,,,,,,,,,,,,,,,,,,,,,,,,,,chance,30,55,sing,blue,587.3855552999303,None,None,587.3855552999303,None,,,,,,,,,,,,,,,,,,,,,,,,,,,,,,41,001,2023_Apr_17_1152,ExactRep-v3-final,2021.2.3,59.94510209475323,
,,,,,,,,55,0,55,0,,,,,,,,,,,,,,,,,,,,,,,,,,,,,,,,,,,,,,,,,,,,,,,,,,,,,591.9052435997874,None,,,,,,,,,,,,,,,,,,,,,,,,,,,,,,,,,,,string,62,56,silent,red,589.8910590996966,None,None,589.8910590996966,None,,,,,,,,,,,,,,,,,,,,,,,,,,,,,,41,001,2023_Apr_17_1152,ExactRep-v3-final,2021.2.3,59.94510209475323,
,,,,,,,,56,0,56,0,,,,,,,,,,,,,,,,,,,,,,,,,,,,,,,,,,,,,,,,,,,,,,,,,,,,,594.407814799808,None,,,,,,,,,,,,,,,,,,,,,,,,,,,,,,,,,,,square,101,57,aloud,white,592.4056238001212,None,None,592.4056238001212,None,,,,,,,,,,,,,,,,,,,,,,,,,,,,,,41,001,2023_Apr_17_1152,ExactRep-v3-final,2021.2.3,59.94510209475323,
,,,,,,,,57,0,57,0,,,,,,,,,,,,,,,,,,,,,,,,,,,,,,,,,,,,,,,,,,,,,,,,,,,,,596.910233899951,None,,,,,,,,,,,,,,,,,,,,,,,,,,,,,,,,,,,troops,20,58,sing,blue,594.9098275993019,None,None,594.9098275993019,None,,,,,,,,,,,,,,,,,,,,,,,,,,,,,,41,001,2023_Apr_17_1152,ExactRep-v3-final,2021.2.3,59.94510209475323,
,,,,,,,,58,0,58,0,,,,,,,,,,,,,,,,,,,,,,,,,,,,,,,,,,,,,,,,,,,,,,,,,,,,,599.4127452000976,None,,,,,,,,,,,,,,,,,,,,,,,,,,,,,,,,,,,body,2,59,sing,blue,597.4123097993433,None,None,597.4123097993433,None,,,,,,,,,,,,,,,,,,,,,,,,,,,,,,41,001,2023_Apr_17_1152,ExactRep-v3-final,2021.2.3,59.94510209475323,
,,,,,,,,59,0,59,0,,,,,,,,,,,,,,,,,,,,,,,,,,,,,,,,,,,,,,,,,,,,,,,,,,,,,601.9152381997555,None,,,,,,,,,,,,,,,,,,,,,,,,,,,,,,,,,,,honour,76,60,silent,red,599.9152341000736,None,None,599.9152341000736,None,,,,,,,,,,,,,,,,,,,,,,,,,,,,,,41,001,2023_Apr_17_1152,ExactRep-v3-final,2021.2.3,59.94510209475323,
,,,,,,,,60,0,60,0,,,,,,,,,,,,,,,,,,,,,,,,,,,,,,,,,,,,,,,,,,,,,,,,,,,,,604.417707699351,None,,,,,,,,,,,,,,,,,,,,,,,,,,,,,,,,,,,freedom,103,61,aloud,white,602.4174354998395,None,None,602.4174354998395,None,,,,,,,,,,,,,,,,,,,,,,,,,,,,,,41,001,2023_Apr_17_1152,ExactRep-v3-final,2021.2.3,59.94510209475323,
,,,,,,,,61,0,61,0,,,,,,,,,,,,,,,,,,,,,,,,,,,,,,,,,,,,,,,,,,,,,,,,,,,,,606.920314299874,None,,,,,,,,,,,,,,,,,,,,,,,,,,,,,,,,,,,brain,104,62,aloud,white,604.9198337998241,None,None,604.9198337998241,None,,,,,,,,,,,,,,,,,,,,,,,,,,,,,,41,001,2023_Apr_17_1152,ExactRep-v3-final,2021.2.3,59.94510209475323,
,,,,,,,,62,0,62,0,,,,,,,,,,,,,,,,,,,,,,,,,,,,,,,,,,,,,,,,,,,,,,,,,,,,,609.4227515999228,None,,,,,,,,,,,,,,,,,,,,,,,,,,,,,,,,,,,chair,40,63,silent,red,607.420596299693,None,None,607.420596299693,None,,,,,,,,,,,,,,,,,,,,,,,,,,,,,,41,001,2023_Apr_17_1152,ExactRep-v3-final,2021.2.3,59.94510209475323,
,,,,,,,,63,0,63,0,,,,,,,,,,,,,,,,,,,,,,,,,,,,,,,,,,,,,,,,,,,,,,,,,,,,,611.941924999468,None,,,,,,,,,,,,,,,,,,,,,,,,,,,,,,,,,,,table,112,64,aloud,white,609.9330367995426,None,None,609.9330367995426,None,,,,,,,,,,,,,,,,,,,,,,,,,,,,,,41,001,2023_Apr_17_1152,ExactRep-v3-final,2021.2.3,59.94510209475323,
,,,,,,,,64,0,64,0,,,,,,,,,,,,,,,,,,,,,,,,,,,,,,,,,,,,,,,,,,,,,,,,,,,,,614.4612003993243,None,,,,,,,,,,,,,,,,,,,,,,,,,,,,,,,,,,,plain,67,65,silent,red,612.456709199585,None,None,612.456709199585,None,,,,,,,,,,,,,,,,,,,,,,,,,,,,,,41,001,2023_Apr_17_1152,ExactRep-v3-final,2021.2.3,59.94510209475323,
,,,,,,,,65,0,65,0,,,,,,,,,,,,,,,,,,,,,,,,,,,,,,,,,,,,,,,,,,,,,,,,,,,,,616.963451099582,None,,,,,,,,,,,,,,,,,,,,,,,,,,,,,,,,,,,season,117,66,aloud,white,614.9637758992612,None,None,614.9637758992612,None,,,,,,,,,,,,,,,,,,,,,,,,,,,,,,41,001,2023_Apr_17_1152,ExactRep-v3-final,2021.2.3,59.94510209475323,
,,,,,,,,66,0,66,0,,,,,,,,,,,,,,,,,,,,,,,,,,,,,,,,,,,,,,,,,,,,,,,,,,,,,619.4825642993674,None,,,,,,,,,,,,,,,,,,,,,,,,,,,,,,,,,,,death,14,67,sing,blue,617.4717765999958,None,None,617.4717765999958,None,,,,,,,,,,,,,,,,,,,,,,,,,,,,,,41,001,2023_Apr_17_1152,ExactRep-v3-final,2021.2.3,59.94510209475323,
,,,,,,,,67,0,67,0,,,,,,,,,,,,,,,,,,,,,,,,,,,,,,,,,,,,,,,,,,,,,,,,,,,,,621.9853138998151,None,,,,,,,,,,,,,,,,,,,,,,,,,,,,,,,,,,,boy,33,68,sing,blue,619.9838493997231,None,None,619.9838493997231,None,,,,,,,,,,,,,,,,,,,,,,,,,,,,,,41,001,2023_Apr_17_1152,ExactRep-v3-final,2021.2.3,59.94510209475323,
,,,,,,,,68,0,68,0,,,,,,,,,,,,,,,,,,,,,,,,,,,,,,,,,,,,,,,,,,,,,,,,,,,,,624.4878742992878,None,,,,,,,,,,,,,,,,,,,,,,,,,,,,,,,,,,,palace,79,69,sing,blue,622.4872602997348,None,None,622.4872602997348,None,,,,,,,,,,,,,,,,,,,,,,,,,,,,,,41,001,2023_Apr_17_1152,ExactRep-v3-final,2021.2.3,59.94510209475323,
,,,,,,,,69,0,69,0,,,,,,,,,,,,,,,,,,,,,,,,,,,,,,,,,,,,,,,,,,,,,,,,,,,,,627.00701119937,None,,,,,,,,,,,,,,,,,,,,,,,,,,,,,,,,,,,heaven,110,70,aloud,white,624.993978199549,None,None,624.993978199549,None,,,,,,,,,,,,,,,,,,,,,,,,,,,,,,41,001,2023_Apr_17_1152,ExactRep-v3-final,2021.2.3,59.94510209475323,
,,,,,,,,70,0,70,0,,,,,,,,,,,,,,,,,,,,,,,,,,,,,,,,,,,,,,,,,,,,,,,,,,,,,629.5261703999713,None,,,,,,,,,,,,,,,,,,,,,,,,,,,,,,,,,,,rock,39,71,silent,red,627.5128812994808,None,None,627.5128812994808,None,,,,,,,,,,,,,,,,,,,,,,,,,,,,,,41,001,2023_Apr_17_1152,ExactRep-v3-final,2021.2.3,59.94510209475323,
,,,,,,,,71,0,71,0,,,,,,,,,,,,,,,,,,,,,,,,,,,,,,,,,,,,,,,,,,,,,,,,,,,,,632.0452486993745,None,,,,,,,,,,,,,,,,,,,,,,,,,,,,,,,,,,,wine,68,72,silent,red,630.0405770996585,None,None,630.0405770996585,None,,,,,,,,,,,,,,,,,,,,,,,,,,,,,,41,001,2023_Apr_17_1152,ExactRep-v3-final,2021.2.3,59.94510209475323,
,,,,,,,,72,0,72,0,,,,,,,,,,,,,,,,,,,,,,,,,,,,,,,,,,,,,,,,,,,,,,,,,,,,,634.547679499723,None,,,,,,,,,,,,,,,,,,,,,,,,,,,,,,,,,,,meat,107,73,aloud,white,632.5457572992891,None,None,632.5457572992891,None,,,,,,,,,,,,,,,,,,,,,,,,,,,,,,41,001,2023_Apr_17_1152,ExactRep-v3-final,2021.2.3,59.94510209475323,
,,,,,,,,73,0,73,0,,,,,,,,,,,,,,,,,,,,,,,,,,,,,,,,,,,,,,,,,,,,,,,,,,,,,637.0503537999466,None,,,,,,,,,,,,,,,,,,,,,,,,,,,,,,,,,,,fire,119,74,aloud,white,635.0500488998368,None,None,635.0500488998368,None,,,,,,,,,,,,,,,,,,,,,,,,,,,,,,41,001,2023_Apr_17_1152,ExactRep-v3-final,2021.2.3,59.94510209475323,
,,,,,,,,74,0,74,0,,,,,,,,,,,,,,,,,,,,,,,,,,,,,,,,,,,,,,,,,,,,,,,,,,,,,639.5527077000588,None,,,,,,,,,,,,,,,,,,,,,,,,,,,,,,,,,,,weapon,89,75,aloud,white,637.5535085992888,None,None,637.5535085992888,None,,,,,,,,,,,,,,,,,,,,,,,,,,,,,,41,001,2023_Apr_17_1152,ExactRep-v3-final,2021.2.3,59.94510209475323,
,,,,,,,,75,0,75,0,,,,,,,,,,,,,,,,,,,,,,,,,,,,,,,,,,,,,,,,,,,,,,,,,,,,,642.0719755999744,None,,,,,,,,,,,,,,,,,,,,,,,,,,,,,,,,,,,hope,88,76,aloud,white,640.059871699661,None,None,640.059871699661,None,,,,,,,,,,,,,,,,,,,,,,,,,,,,,,41,001,2023_Apr_17_1152,ExactRep-v3-final,2021.2.3,59.94510209475323,
,,,,,,,,76,0,76,0,,,,,,,,,,,,,,,,,,,,,,,,,,,,,,,,,,,,,,,,,,,,,,,,,,,,,644.5910505997017,None,,,,,,,,,,,,,,,,,,,,,,,,,,,,,,,,,,,shadow,43,77,silent,red,642.5814897995442,None,None,642.5814897995442,None,,,,,,,,,,,,,,,,,,,,,,,,,,,,,,41,001,2023_Apr_17_1152,ExactRep-v3-final,2021.2.3,59.94510209475323,
,,,,,,,,77,0,77,0,,,,,,,,,,,,,,,,,,,,,,,,,,,,,,,,,,,,,,,,,,,,,,,,,,,,,647.0937123997137,None,,,,,,,,,,,,,,,,,,,,,,,,,,,,,,,,,,,ticket,26,78,sing,blue,645.0921054994687,None,None,645.0921054994687,None,,,,,,,,,,,,,,,,,,,,,,,,,,,,,,41,001,2023_Apr_17_1152,ExactRep-v3-final,2021.2.3,59.94510209475323,
,,,,,,,,78,0,78,0,,,,,,,,,,,,,,,,,,,,,,,,,,,,,,,,,,,,,,,,,,,,,,,,,,,,,649.596288099885,None,,,,,,,,,,,,,,,,,,,,,,,,,,,,,,,,,,,tool,29,79,sing,blue,647.5945528000593,None,None,647.5945528000593,None,,,,,,,,,,,,,,,,,,,,,,,,,,,,,,41,001,2023_Apr_17_1152,ExactRep-v3-final,2021.2.3,59.94510209475323,
,,,,,,,,79,0,79,0,,,,,,,,,,,,,,,,,,,,,,,,,,,,,,,,,,,,,,,,,,,,,,,,,,,,,652.1153091993183,None,,,,,,,,,,,,,,,,,,,,,,,,,,,,,,,,,,,present,102,80,aloud,white,650.1017754999921,None,None,650.1017754999921,None,,,,,,,,,,,,,,,,,,,,,,,,,,,,,,41,001,2023_Apr_17_1152,ExactRep-v3-final,2021.2.3,59.94510209475323,
,,,,,,,,80,0,80,0,,,,,,,,,,,,,,,,,,,,,,,,,,,,,,,,,,,,,,,,,,,,,,,,,,,,,654.6179630998522,None,,,,,,,,,,,,,,,,,,,,,,,,,,,,,,,,,,,disease,64,81,silent,red,652.6156234992668,None,None,652.6156234992668,None,,,,,,,,,,,,,,,,,,,,,,,,,,,,,,41,001,2023_Apr_17_1152,ExactRep-v3-final,2021.2.3,59.94510209475323,
,,,,,,,,81,0,81,0,,,,,,,,,,,,,,,,,,,,,,,,,,,,,,,,,,,,,,,,,,,,,,,,,,,,,657.1205234993249,None,,,,,,,,,,,,,,,,,,,,,,,,,,,,,,,,,,,child,46,82,silent,red,655.1183252995834,None,None,655.1183252995834,None,,,,,,,,,,,,,,,,,,,,,,,,,,,,,,41,001,2023_Apr_17_1152,ExactRep-v3-final,2021.2.3,59.94510209475323,
,,,,,,,,82,0,82,0,,,,,,,,,,,,,,,,,,,,,,,,,,,,,,,,,,,,,,,,,,,,,,,,,,,,,659.6229957994074,None,,,,,,,,,,,,,,,,,,,,,,,,,,,,,,,,,,,teacher,38,83,sing,blue,657.6225330997258,None,None,657.6225330997258,None,,,,,,,,,,,,,,,,,,,,,,,,,,,,,,41,001,2023_Apr_17_1152,ExactRep-v3-final,2021.2.3,59.94510209475323,
,,,,,,,,83,0,83,0,,,,,,,,,,,,,,,,,,,,,,,,,,,,,,,,,,,,,,,,,,,,,,,,,,,,,662.1421273993328,None,,,,,,,,,,,,,,,,,,,,,,,,,,,,,,,,,,,lip,63,84,silent,red,660.1286590993404,None,None,660.1286590993404,None,,,,,,,,,,,,,,,,,,,,,,,,,,,,,,41,001,2023_Apr_17_1152,ExactRep-v3-final,2021.2.3,59.94510209475323,
,,,,,,,,84,0,84,0,,,,,,,,,,,,,,,,,,,,,,,,,,,,,,,,,,,,,,,,,,,,,,,,,,,,,664.6614271998405,None,,,,,,,,,,,,,,,,,,,,,,,,,,,,,,,,,,,product,42,85,silent,red,662.6482072994113,None,None,662.6482072994113,None,,,,,,,,,,,,,,,,,,,,,,,,,,,,,,41,001,2023_Apr_17_1152,ExactRep-v3-final,2021.2.3,59.94510209475323,
,,,,,,,,85,0,85,0,,,,,,,,,,,,,,,,,,,,,,,,,,,,,,,,,,,,,,,,,,,,,,,,,,,,,667.1805155994371,None,,,,,,,,,,,,,,,,,,,,,,,,,,,,,,,,,,,coffee,61,86,silent,red,665.1655760994181,None,None,665.1655760994181,None,,,,,,,,,,,,,,,,,,,,,,,,,,,,,,41,001,2023_Apr_17_1152,ExactRep-v3-final,2021.2.3,59.94510209475323,
,,,,,,,,86,0,86,0,,,,,,,,,,,,,,,,,,,,,,,,,,,,,,,,,,,,,,,,,,,,,,,,,,,,,669.6829814994708,None,,,,,,,,,,,,,,,,,,,,,,,,,,,,,,,,,,,bird,41,87,silent,red,667.6810021996498,None,None,667.6810021996498,None,,,,,,,,,,,,,,,,,,,,,,,,,,,,,,41,001,2023_Apr_17_1152,ExactRep-v3-final,2021.2.3,59.94510209475323,
,,,,,,,,87,0,87,0,,,,,,,,,,,,,,,,,,,,,,,,,,,,,,,,,,,,,,,,,,,,,,,,,,,,,672.1853744992986,None,,,,,,,,,,,,,,,,,,,,,,,,,,,,,,,,,,,custom,93,88,aloud,white,670.1839549001306,None,None,670.1839549001306,None,,,,,,,,,,,,,,,,,,,,,,,,,,,,,,41,001,2023_Apr_17_1152,ExactRep-v3-final,2021.2.3,59.94510209475323,
,,,,,,,,88,0,88,0,,,,,,,,,,,,,,,,,,,,,,,,,,,,,,,,,,,,,,,,,,,,,,,,,,,,,674.6880032997578,None,,,,,,,,,,,,,,,,,,,,,,,,,,,,,,,,,,,corner,0,89,sing,blue,672.6875094994903,None,None,672.6875094994903,None,,,,,,,,,,,,,,,,,,,,,,,,,,,,,,41,001,2023_Apr_17_1152,ExactRep-v3-final,2021.2.3,59.94510209475323,
,,,,,,,,89,0,89,0,,,,,,,,,,,,,,,,,,,,,,,,,,,,,,,,,,,,,,,,,,,,,,,,,,,,,677.1904945997521,None,,,,,,,,,,,,,,,,,,,,,,,,,,,,,,,,,,,mind,84,90,aloud,white,675.1892791995779,None,None,675.1892791995779,None,,,,,,,,,,,,,,,,,,,,,,,,,,,,,,41,001,2023_Apr_17_1152,ExactRep-v3-final,2021.2.3,59.94510209475323,
,,,,,,,,90,0,90,0,,,,,,,,,,,,,,,,,,,,,,,,,,,,,,,,,,,,,,,,,,,,,,,,,,,,,679.7095823995769,None,,,,,,,,,,,,,,,,,,,,,,,,,,,,,,,,,,,shame,100,91,aloud,white,677.6971824001521,None,None,677.6971824001521,None,,,,,,,,,,,,,,,,,,,,,,,,,,,,,,41,001,2023_Apr_17_1152,ExactRep-v3-final,2021.2.3,59.94510209475323,
,,,,,,,,91,0,91,0,,,,,,,,,,,,,,,,,,,,,,,,,,,,,,,,,,,,,,,,,,,,,,,,,,,,,682.2288860995322,None,,,,,,,,,,,,,,,,,,,,,,,,,,,,,,,,,,,rod,22,92,sing,blue,680.2173758996651,None,None,680.2173758996651,None,,,,,,,,,,,,,,,,,,,,,,,,,,,,,,41,001,2023_Apr_17_1152,ExactRep-v3-final,2021.2.3,59.94510209475323,
,,,,,,,,92,0,92,0,,,,,,,,,,,,,,,,,,,,,,,,,,,,,,,,,,,,,,,,,,,,,,,,,,,,,684.7502605998889,None,,,,,,,,,,,,,,,,,,,,,,,,,,,,,,,,,,,doctor,95,93,aloud,white,682.7379647996277,None,None,682.7379647996277,None,,,,,,,,,,,,,,,,,,,,,,,,,,,,,,41,001,2023_Apr_17_1152,ExactRep-v3-final,2021.2.3,59.94510209475323,
,,,,,,,,93,0,93,0,,,,,,,,,,,,,,,,,,,,,,,,,,,,,,,,,,,,,,,,,,,,,,,,,,,,,687.2672611996531,None,,,,,,,,,,,,,,,,,,,,,,,,,,,,,,,,,,,lord,57,94,silent,red,685.2531052995473,None,None,685.2531052995473,None,,,,,,,,,,,,,,,,,,,,,,,,,,,,,,41,001,2023_Apr_17_1152,ExactRep-v3-final,2021.2.3,59.94510209475323,
,,,,,,,,94,0,94,0,,,,,,,,,,,,,,,,,,,,,,,,,,,,,,,,,,,,,,,,,,,,,,,,,,,,,689.7697665998712,None,,,,,,,,,,,,,,,,,,,,,,,,,,,,,,,,,,,answer,31,95,sing,blue,687.7690466996282,None,None,687.7690466996282,None,,,,,,,,,,,,,,,,,,,,,,,,,,,,,,41,001,2023_Apr_17_1152,ExactRep-v3-final,2021.2.3,59.94510209475323,
,,,,,,,,95,0,95,0,,,,,,,,,,,,,,,,,,,,,,,,,,,,,,,,,,,,,,,,,,,,,,,,,,,,,692.2890208996832,None,,,,,,,,,,,,,,,,,,,,,,,,,,,,,,,,,,,market,53,96,silent,red,690.2814694996923,None,None,690.2814694996923,None,,,,,,,,,,,,,,,,,,,,,,,,,,,,,,41,001,2023_Apr_17_1152,ExactRep-v3-final,2021.2.3,59.94510209475323,
,,,,,,,,96,0,96,0,,,,,,,,,,,,,,,,,,,,,,,,,,,,,,,,,,,,,,,,,,,,,,,,,,,,,694.7914824001491,None,,,,,,,,,,,,,,,,,,,,,,,,,,,,,,,,,,,window,74,97,silent,red,692.7908689994365,None,None,692.7908689994365,None,,,,,,,,,,,,,,,,,,,,,,,,,,,,,,41,001,2023_Apr_17_1152,ExactRep-v3-final,2021.2.3,59.94510209475323,
,,,,,,,,97,0,97,0,,,,,,,,,,,,,,,,,,,,,,,,,,,,,,,,,,,,,,,,,,,,,,,,,,,,,697.3121011992916,None,,,,,,,,,,,,,,,,,,,,,,,,,,,,,,,,,,,woman,86,98,aloud,white,695.2974259993061,None,None,695.2974259993061,None,,,,,,,,,,,,,,,,,,,,,,,,,,,,,,41,001,2023_Apr_17_1152,ExactRep-v3-final,2021.2.3,59.94510209475323,
,,,,,,,,98,0,98,0,,,,,,,,,,,,,,,,,,,,,,,,,,,,,,,,,,,,,,,,,,,,,,,,,,,,,699.8298805998638,None,,,,,,,,,,,,,,,,,,,,,,,,,,,,,,,,,,,temple,96,99,aloud,white,697.8158224001527,None,None,697.8158224001527,None,,,,,,,,,,,,,,,,,,,,,,,,,,,,,,41,001,2023_Apr_17_1152,ExactRep-v3-final,2021.2.3,59.94510209475323,
,,,,,,,,99,0,99,0,,,,,,,,,,,,,,,,,,,,,,,,,,,,,,,,,,,,,,,,,,,,,,,,,,,,,702.332281799987,None,,,,,,,,,,,,,,,,,,,,,,,,,,,,,,,,,,,village,73,100,silent,red,700.3325199997053,None,None,700.3325199997053,None,,,,,,,,,,,,,,,,,,,,,,,,,,,,,,41,001,2023_Apr_17_1152,ExactRep-v3-final,2021.2.3,59.94510209475323,
,,,,,,,,100,0,100,0,,,,,,,,,,,,,,,,,,,,,,,,,,,,,,,,,,,,,,,,,,,,,,,,,,,,,704.8349486999214,None,,,,,,,,,,,,,,,,,,,,,,,,,,,,,,,,,,,forest,21,101,sing,blue,702.8340090997517,None,None,702.8340090997517,None,,,,,,,,,,,,,,,,,,,,,,,,,,,,,,41,001,2023_Apr_17_1152,ExactRep-v3-final,2021.2.3,59.94510209475323,
,,,,,,,,101,0,101,0,,,,,,,,,,,,,,,,,,,,,,,,,,,,,,,,,,,,,,,,,,,,,,,,,,,,,707.3542029997334,None,,,,,,,,,,,,,,,,,,,,,,,,,,,,,,,,,,,nail,82,102,aloud,white,705.3417480001226,None,None,705.3417480001226,None,,,,,,,,,,,,,,,,,,,,,,,,,,,,,,41,001,2023_Apr_17_1152,ExactRep-v3-final,2021.2.3,59.94510209475323,
,,,,,,,,102,0,102,0,,,,,,,,,,,,,,,,,,,,,,,,,,,,,,,,,,,,,,,,,,,,,,,,,,,,,709.856531499885,None,,,,,,,,,,,,,,,,,,,,,,,,,,,,,,,,,,,fact,54,103,silent,red,707.8545180000365,None,None,707.8545180000365,None,,,,,,,,,,,,,,,,,,,,,,,,,,,,,,41,001,2023_Apr_17_1152,ExactRep-v3-final,2021.2.3,59.94510209475323,
,,,,,,,,103,0,103,0,,,,,,,,,,,,,,,,,,,,,,,,,,,,,,,,,,,,,,,,,,,,,,,,,,,,,712.3590787993744,None,,,,,,,,,,,,,,,,,,,,,,,,,,,,,,,,,,,board,81,104,aloud,white,710.3597961999476,None,None,710.3597961999476,None,,,,,,,,,,,,,,,,,,,,,,,,,,,,,,41,001,2023_Apr_17_1152,ExactRep-v3-final,2021.2.3,59.94510209475323,
,,,,,,,,104,0,104,0,,,,,,,,,,,,,,,,,,,,,,,,,,,,,,,,,,,,,,,,,,,,,,,,,,,,,714.8782305996865,None,,,,,,,,,,,,,,,,,,,,,,,,,,,,,,,,,,,thought,91,105,aloud,white,712.8635481996462,None,None,712.8635481996462,None,,,,,,,,,,,,,,,,,,,,,,,,,,,,,,41,001,2023_Apr_17_1152,ExactRep-v3-final,2021.2.3,59.94510209475323,
,,,,,,,,105,0,105,0,,,,,,,,,,,,,,,,,,,,,,,,,,,,,,,,,,,,,,,,,,,,,,,,,,,,,717.3805962000042,None,,,,,,,,,,,,,,,,,,,,,,,,,,,,,,,,,,,leader,18,106,sing,blue,715.3784929998219,None,None,715.3784929998219,None,,,,,,,,,,,,,,,,,,,,,,,,,,,,,,41,001,2023_Apr_17_1152,ExactRep-v3-final,2021.2.3,59.94510209475323,
,,,,,,,,106,0,106,0,,,,,,,,,,,,,,,,,,,,,,,,,,,,,,,,,,,,,,,,,,,,,,,,,,,,,719.8997259996831,None,,,,,,,,,,,,,,,,,,,,,,,,,,,,,,,,,,,silence,113,107,aloud,white,717.887856000103,None,None,717.887856000103,None,,,,,,,,,,,,,,,,,,,,,,,,,,,,,,41,001,2023_Apr_17_1152,ExactRep-v3-final,2021.2.3,59.94510209475323,
,,,,,,,,107,0,107,0,,,,,,,,,,,,,,,,,,,,,,,,,,,,,,,,,,,,,,,,,,,,,,,,,,,,,722.4192531993613,None,,,,,,,,,,,,,,,,,,,,,,,,,,,,,,,,,,,amount,97,108,aloud,white,720.4100487995893,None,None,720.4100487995893,None,,,,,,,,,,,,,,,,,,,,,,,,,,,,,,41,001,2023_Apr_17_1152,ExactRep-v3-final,2021.2.3,59.94510209475323,
,,,,,,,,108,0,108,0,,,,,,,,,,,,,,,,,,,,,,,,,,,,,,,,,,,,,,,,,,,,,,,,,,,,,724.9216208001599,None,,,,,,,,,,,,,,,,,,,,,,,,,,,,,,,,,,,idea,23,109,sing,blue,722.9205336999148,None,None,722.9205336999148,None,,,,,,,,,,,,,,,,,,,,,,,,,,,,,,41,001,2023_Apr_17_1152,ExactRep-v3-final,2021.2.3,59.94510209475323,
,,,,,,,,109,0,109,0,,,,,,,,,,,,,,,,,,,,,,,,,,,,,,,,,,,,,,,,,,,,,,,,,,,,,727.4241213994101,None,,,,,,,,,,,,,,,,,,,,,,,,,,,,,,,,,,,artist,80,110,aloud,white,725.4242720995098,None,None,725.4242720995098,None,,,,,,,,,,,,,,,,,,,,,,,,,,,,,,41,001,2023_Apr_17_1152,ExactRep-v3-final,2021.2.3,59.94510209475323,
,,,,,,,,110,0,110,0,,,,,,,,,,,,,,,,,,,,,,,,,,,,,,,,,,,,,,,,,,,,,,,,,,,,,729.9433182999492,None,,,,,,,,,,,,,,,,,,,,,,,,,,,,,,,,,,,crime,50,111,silent,red,727.930704199709,None,None,727.930704199709,None,,,,,,,,,,,,,,,,,,,,,,,,,,,,,,41,001,2023_Apr_17_1152,ExactRep-v3-final,2021.2.3,59.94510209475323,
,,,,,,,,111,0,111,0,,,,,,,,,,,,,,,,,,,,,,,,,,,,,,,,,,,,,,,,,,,,,,,,,,,,,732.4457418993115,None,,,,,,,,,,,,,,,,,,,,,,,,,,,,,,,,,,,sugar,47,112,silent,red,730.4438332999125,None,None,730.4438332999125,None,,,,,,,,,,,,,,,,,,,,,,,,,,,,,,41,001,2023_Apr_17_1152,ExactRep-v3-final,2021.2.3,59.94510209475323,
,,,,,,,,112,0,112,0,,,,,,,,,,,,,,,,,,,,,,,,,,,,,,,,,,,,,,,,,,,,,,,,,,,,,734.948324999772,None,,,,,,,,,,,,,,,,,,,,,,,,,,,,,,,,,,,fur,78,113,silent,red,732.946150499396,None,None,732.946150499396,None,,,,,,,,,,,,,,,,,,,,,,,,,,,,,,41,001,2023_Apr_17_1152,ExactRep-v3-final,2021.2.3,59.94510209475323,
,,,,,,,,113,0,113,0,,,,,,,,,,,,,,,,,,,,,,,,,,,,,,,,,,,,,,,,,,,,,,,,,,,,,737.4508466999978,None,,,,,,,,,,,,,,,,,,,,,,,,,,,,,,,,,,,hour,27,114,sing,blue,735.45151339937,None,None,735.45151339937,None,,,,,,,,,,,,,,,,,,,,,,,,,,,,,,41,001,2023_Apr_17_1152,ExactRep-v3-final,2021.2.3,59.94510209475323,
,,,,,,,,114,0,114,0,,,,,,,,,,,,,,,,,,,,,,,,,,,,,,,,,,,,,,,,,,,,,,,,,,,,,739.9532907996327,None,,,,,,,,,,,,,,,,,,,,,,,,,,,,,,,,,,,spirit,12,115,sing,blue,737.9526916993782,None,None,737.9526916993782,None,,,,,,,,,,,,,,,,,,,,,,,,,,,,,,41,001,2023_Apr_17_1152,ExactRep-v3-final,2021.2.3,59.94510209475323,
,,,,,,,,115,0,115,0,,,,,,,,,,,,,,,,,,,,,,,,,,,,,,,,,,,,,,,,,,,,,,,,,,,,,742.4724492998794,None,,,,,,,,,,,,,,,,,,,,,,,,,,,,,,,,,,,master,108,116,aloud,white,740.4568905998021,None,None,740.4568905998021,None,,,,,,,,,,,,,,,,,,,,,,,,,,,,,,41,001,2023_Apr_17_1152,ExactRep-v3-final,2021.2.3,59.94510209475323,
,,,,,,,,116,0,116,0,,,,,,,,,,,,,,,,,,,,,,,,,,,,,,,,,,,,,,,,,,,,,,,,,,,,,744.974974299781,None,,,,,,,,,,,,,,,,,,,,,,,,,,,,,,,,,,,girl,52,117,silent,red,742.9738101996481,None,None,742.9738101996481,None,,,,,,,,,,,,,,,,,,,,,,,,,,,,,,41,001,2023_Apr_17_1152,ExactRep-v3-final,2021.2.3,59.94510209475323,
,,,,,,,,117,0,117,0,,,,,,,,,,,,,,,,,,,,,,,,,,,,,,,,,,,,,,,,,,,,,,,,,,,,,747.4940932998434,None,,,,,,,,,,,,,,,,,,,,,,,,,,,,,,,,,,,cash,28,118,sing,blue,745.481511999853,None,None,745.481511999853,None,,,,,,,,,,,,,,,,,,,,,,,,,,,,,,41,001,2023_Apr_17_1152,ExactRep-v3-final,2021.2.3,59.94510209475323,
,,,,,,,,118,0,118,0,,,,,,,,,,,,,,,,,,,,,,,,,,,,,,,,,,,,,,,,,,,,,,,,,,,,,749.9965393999591,None,,,,,,,,,,,,,,,,,,,,,,,,,,,,,,,,,,,clock,4,119,sing,blue,747.9959971001372,None,None,747.9959971001372,None,,,,,,,,,,,,,,,,,,,,,,,,,,,,,,41,001,2023_Apr_17_1152,ExactRep-v3-final,2021.2.3,59.94510209475323,
,,,,,,,,119,0,119,0,,,,,,,,,,,,,,,,,,,,,,,,,,,,,,,,,,,,,,,,,,,,,,,,,,,,,752.4991425992921,None,,,,,,,,,,,,,,,,,,,,,,,,,,,,,,,,,,,coin,51,120,silent,red,750.4994184998795,None,None,750.4994184998795,None,,,,,,,,,,,,,,,,,,,,,,,,,,,,,,41,001,2023_Apr_17_1152,ExactRep-v3-final,2021.2.3,59.94510209475323,
,,,,,,,,,,,,,,,,,,,,,,,,,,,,,,,,,,,,,,,,,,,,,,,,,,,,,,,,,,,,,,,,,,,,,,,,,,,,,,,,,,,,,,,,,,,,,,,,,,,,,,,,,,,,,,753.0011892998591,None,space,3.80452729947865,762.9776439992711,None,,,,,,,,,,,,,,,,,,,,,,,,41,001,2023_Apr_17_1152,ExactRep-v3-final,2021.2.3,59.94510209475323,
,,,,,,,,,,,,,,,,,,,,,,,,,,,,,,,,,,,,,,,,,,,,,,,,,,,,,,,,,,,,,,,,,,,,,,,,,,,,,,,,,,,,,,,,,,,,,,,,,,,,,,,,,,,,,,,,,,,,766.7985968999565,None,space,29.751617499627173,776.7745861001313,None,,,,,,,,,,,,,,,,,,41,001,2023_Apr_17_1152,ExactRep-v3-final,2021.2.3,59.94510209475323,
,,,,,,,,,,,,0,0,0,0,,,,,,,,,,,,,,,,,,,,,,,,,,,,,,,,,,,,,,,,,,,,,,,,,813.9605288999155,None,,,,,,,,,,,,,,,,,,,,,,,,,,,,,,,,,,,,,,,,,,,,,,,,,,,,,,,,,cost,194,1,aloud,new,white,807.0665381001309,None,n,807.0665381001309,None,"['n', 'return']","[2.9550952995195985, 6.851221399381757]",807.0665381001309,None,,,41,001,2023_Apr_17_1152,ExactRep-v3-final,2021.2.3,59.94510209475323,
,,,,,,,,,,,,1,0,1,0,,,,,,,,,,,,,,,,,,,,,,,,,,,,,,,,,,,,,,,,,,,,,,,,,817.3304570000619,None,,,,,,,,,,,,,,,,,,,,,,,,,,,,,,,,,,,,,,,,,,,,,,,,,,,,,,,,,humour,99,2,aloud,old,white,814.4700435996056,None,y,814.4700435996056,None,"['y', 'return']","[1.751762400381267, 2.823874100111425]",814.4700435996056,None,,,41,001,2023_Apr_17_1152,ExactRep-v3-final,2021.2.3,59.94510209475323,
,,,,,,,,,,,,2,0,2,0,,,,,,,,,,,,,,,,,,,,,,,,,,,,,,,,,,,,,,,,,,,,,,,,,822.8860860997811,None,,,,,,,,,,,,,,,,,,,,,,,,,,,,,,,,,,,,,,,,,,,,,,,,,,,,,,,,,animal,116,3,aloud,old,white,817.8443300994113,None,y,817.8443300994113,None,"['y', 'return']","[1.8174618994817138, 5.0014180997386575]",817.8443300994113,None,,,41,001,2023_Apr_17_1152,ExactRep-v3-final,2021.2.3,59.94510209475323,
,,,,,,,,,,,,3,0,3,0,,,,,,,,,,,,,,,,,,,,,,,,,,,,,,,,,,,,,,,,,,,,,,,,,829.2590141994879,None,,,,,,,,,,,,,,,,,,,,,,,,,,,,,,,,,,,,,,,,,,,,,,,,,,,,,,,,,plain,67,4,silent,old,red,823.3925944995135,None,y,823.3925944995135,None,"['y', 'return']","[4.741202199831605, 5.829193499870598]",823.3925944995135,None,,,41,001,2023_Apr_17_1152,ExactRep-v3-final,2021.2.3,59.94510209475323,
,,,,,,,,,,,,4,0,4,0,,,,,,,,,,,,,,,,,,,,,,,,,,,,,,,,,,,,,,,,,,,,,,,,,832.6793011995032,None,,,,,,,,,,,,,,,,,,,,,,,,,,,,,,,,,,,,,,,,,,,,,,,,,,,,,,,,,flesh,159,5,silent,new,red,829.7686417000368,None,n,829.7686417000368,None,"['n', 'return']","[1.9652324002236128, 2.8692196998745203]",829.7686417000368,None,,,41,001,2023_Apr_17_1152,ExactRep-v3-final,2021.2.3,59.94510209475323,
,,,,,,,,,,,,5,0,5,0,,,,,,,,,,,,,,,,,,,,,,,,,,,,,,,,,,,,,,,,,,,,,,,,,837.4505620999262,None,,,,,,,,,,,,,,,,,,,,,,,,,,,,,,,,,,,,,,,,,,,,,,,,,,,,,,,,,chief,228,6,aloud,new,white,833.1875871000811,None,n,833.1875871000811,None,"['n', 'return']","[2.6265329997986555, 4.218233400024474]",833.1875871000811,None,,,41,001,2023_Apr_17_1152,ExactRep-v3-final,2021.2.3,59.94510209475323,
,,,,,,,,,,,,6,0,6,0,,,,,,,,,,,,,,,,,,,,,,,,,,,,,,,,,,,,,,,,,,,,,,,,,840.9540780000389,None,,,,,,,,,,,,,,,,,,,,,,,,,,,,,,,,,,,,,,,,,,,,,,,,,,,,,,,,,hour,27,7,sing,old,blue,837.9536707997322,None,y,837.9536707997322,None,"['y', 'return']","[2.324191700667143, 2.9641343001276255]",837.9536707997322,None,,,41,001,2023_Apr_17_1152,ExactRep-v3-final,2021.2.3,59.94510209475323,
,,,,,,,,,,,,7,0,7,0,,,,,,,,,,,,,,,,,,,,,,,,,,,,,,,,,,,,,,,,,,,,,,,,,843.9071017997339,None,,,,,,,,,,,,,,,,,,,,,,,,,,,,,,,,,,,,,,,,,,,,,,,,,,,,,,,,,ocean,56,8,silent,old,red,841.4641311001033,None,y,841.4641311001033,None,"['y', 'return']","[1.7340113995596766, 2.4057259997352958]",841.4641311001033,None,,,41,001,2023_Apr_17_1152,ExactRep-v3-final,2021.2.3,59.94510209475323,
,,,,,,,,,,,,8,0,8,0,,,,,,,,,,,,,,,,,,,,,,,,,,,,,,,,,,,,,,,,,,,,,,,,,847.4606502000242,None,,,,,,,,,,,,,,,,,,,,,,,,,,,,,,,,,,,,,,,,,,,,,,,,,,,,,,,,,sugar,47,9,silent,old,red,844.4205195000395,None,y,844.4205195000395,None,"['y', 'return']","[2.129323599860072, 3.0012536998838186]",844.4205195000395,None,,,41,001,2023_Apr_17_1152,ExactRep-v3-final,2021.2.3,59.94510209475323,
,,,,,,,,,,,,9,0,9,0,,,,,,,,,,,,,,,,,,,,,,,,,,,,,,,,,,,,,,,,,,,,,,,,,852.2154019000009,None,,,,,,,,,,,,,,,,,,,,,,,,,,,,,,,,,,,,,,,,,,,,,,,,,,,,,,,,,city,220,10,aloud,new,white,847.9646653998643,None,n,847.9646653998643,None,"['n', 'return']","[3.4974023001268506, 4.2092204997316]",847.9646653998643,None,,,41,001,2023_Apr_17_1152,ExactRep-v3-final,2021.2.3,59.94510209475323,
,,,,,,,,,,,,10,0,10,0,,,,,,,,,,,,,,,,,,,,,,,,,,,,,,,,,,,,,,,,,,,,,,,,,855.5019609993324,None,,,,,,,,,,,,,,,,,,,,,,,,,,,,,,,,,,,,,,,,,,,,,,,,,,,,,,,,,party,139,11,silent,new,red,852.7251957999542,None,n,852.7251957999542,None,"['n', 'return']","[2.048608999699354, 2.7366036996245384]",852.7251957999542,None,,,41,001,2023_Apr_17_1152,ExactRep-v3-final,2021.2.3,59.94510209475323,
,,,,,,,,,,,,11,0,11,0,,,,,,,,,,,,,,,,,,,,,,,,,,,,,,,,,,,,,,,,,,,,,,,,,858.2048102999106,None,,,,,,,,,,,,,,,,,,,,,,,,,,,,,,,,,,,,,,,,,,,,,,,,,,,,,,,,,temple,96,12,aloud,old,white,856.0047252001241,None,y,856.0047252001241,None,"['y', 'return']","[1.1133389994502068, 2.1611481001600623]",856.0047252001241,None,,,41,001,2023_Apr_17_1152,ExactRep-v3-final,2021.2.3,59.94510209475323,
,,,,,,,,,,,,12,0,12,0,,,,,,,,,,,,,,,,,,,,,,,,,,,,,,,,,,,,,,,,,,,,,,,,,861.5914656994864,None,,,,,,,,,,,,,,,,,,,,,,,,,,,,,,,,,,,,,,,,,,,,,,,,,,,,,,,,,steam,239,13,sing,new,blue,858.7145731998608,None,n,858.7145731998608,None,"['n', 'return']","[2.1553017999976873, 2.8353018006309867]",858.7145731998608,None,,,41,001,2023_Apr_17_1152,ExactRep-v3-final,2021.2.3,59.94510209475323,
,,,,,,,,,,,,13,0,13,0,,,,,,,,,,,,,,,,,,,,,,,,,,,,,,,,,,,,,,,,,,,,,,,,,865.0124880000949,None,,,,,,,,,,,,,,,,,,,,,,,,,,,,,,,,,,,,,,,,,,,,,,,,,,,,,,,,,amount,97,14,aloud,old,white,862.1005350993946,None,y,862.1005350993946,None,"['y', 'return']","[1.6893181996420026, 2.8732610000297427]",862.1005350993946,None,,,41,001,2023_Apr_17_1152,ExactRep-v3-final,2021.2.3,59.94510209475323,
,,,,,,,,,,,,14,0,14,0,,,,,,,,,,,,,,,,,,,,,,,,,,,,,,,,,,,,,,,,,,,,,,,,,868.1813779994845,None,,,,,,,,,,,,,,,,,,,,,,,,,,,,,,,,,,,,,,,,,,,,,,,,,,,,,,,,,trouble,153,15,silent,new,red,865.5195239996538,None,y,865.5195239996538,None,"['y', 'return']","[1.6385973002761602, 2.630306400358677]",865.5195239996538,None,,,41,001,2023_Apr_17_1152,ExactRep-v3-final,2021.2.3,59.94510209475323,
,,,,,,,,,,,,15,0,15,0,,,,,,,,,,,,,,,,,,,,,,,,,,,,,,,,,,,,,,,,,,,,,,,,,871.0086273998022,None,,,,,,,,,,,,,,,,,,,,,,,,,,,,,,,,,,,,,,,,,,,,,,,,,,,,,,,,,author,150,16,silent,new,red,868.6851241001859,None,y,868.6851241001859,None,"['y', 'return']","[1.2086730999872088, 2.272846500389278]",868.6851241001859,None,,,41,001,2023_Apr_17_1152,ExactRep-v3-final,2021.2.3,59.94510209475323,
,,,,,,,,,,,,16,0,16,0,,,,,,,,,,,,,,,,,,,,,,,,,,,,,,,,,,,,,,,,,,,,,,,,,874.1372635001317,None,,,,,,,,,,,,,,,,,,,,,,,,,,,,,,,,,,,,,,,,,,,,,,,,,,,,,,,,,cat,201,17,sing,new,blue,871.5204817000777,None,n,871.5204817000777,None,"['n', 'return']","[1.9255111003294587, 2.573345700278878]",871.5204817000777,None,,,41,001,2023_Apr_17_1152,ExactRep-v3-final,2021.2.3,59.94510209475323,
,,,,,,,,,,,,17,0,17,0,,,,,,,,,,,,,,,,,,,,,,,,,,,,,,,,,,,,,,,,,,,,,,,,,877.1904751993716,None,,,,,,,,,,,,,,,,,,,,,,,,,,,,,,,,,,,,,,,,,,,,,,,,,,,,,,,,,meeting,16,18,sing,old,blue,874.6401362000033,None,n,874.6401362000033,None,"['n', 'return']","[1.965806799940765, 2.509703400544822]",874.6401362000033,None,,,41,001,2023_Apr_17_1152,ExactRep-v3-final,2021.2.3,59.94510209475323,
,,,,,,,,,,,,18,0,18,0,,,,,,,,,,,,,,,,,,,,,,,,,,,,,,,,,,,,,,,,,,,,,,,,,879.9931223997846,None,,,,,,,,,,,,,,,,,,,,,,,,,,,,,,,,,,,,,,,,,,,,,,,,,,,,,,,,,apple,195,19,sing,new,blue,877.703187899664,None,n,877.703187899664,None,"['n', 'return']","[1.4868888994678855, 2.2466657999902964]",877.703187899664,None,,,41,001,2023_Apr_17_1152,ExactRep-v3-final,2021.2.3,59.94510209475323,
,,,,,,,,,,,,19,0,19,0,,,,,,,,,,,,,,,,,,,,,,,,,,,,,,,,,,,,,,,,,,,,,,,,,882.9961489997804,None,,,,,,,,,,,,,,,,,,,,,,,,,,,,,,,,,,,,,,,,,,,,,,,,,,,,,,,,,sky,167,20,sing,new,blue,880.5038967998698,None,y,880.5038967998698,None,"['y', 'return']","[2.110051500611007, 2.453909699805081]",880.5038967998698,None,,,41,001,2023_Apr_17_1152,ExactRep-v3-final,2021.2.3,59.94510209475323,
,,,,,,,,,,,,20,0,20,0,,,,,,,,,,,,,,,,,,,,,,,,,,,,,,,,,,,,,,,,,,,,,,,,,886.8501335000619,None,,,,,,,,,,,,,,,,,,,,,,,,,,,,,,,,,,,,,,,,,,,,,,,,,,,,,,,,,present,102,21,aloud,old,white,883.514317699708,None,y,883.514317699708,None,"['y', 'return']","[2.267487100325525, 3.2995424000546336]",883.514317699708,None,,,41,001,2023_Apr_17_1152,ExactRep-v3-final,2021.2.3,59.94510209475323,
,,,,,,,,,,,,21,0,21,0,,,,,,,,,,,,,,,,,,,,,,,,,,,,,,,,,,,,,,,,,,,,,,,,,889.7697021998465,None,,,,,,,,,,,,,,,,,,,,,,,,,,,,,,,,,,,,,,,,,,,,,,,,,,,,,,,,,forest,21,22,sing,old,blue,887.357195599936,None,y,887.357195599936,None,"['y', 'return']","[1.9287808993831277, 2.3767061000689864]",887.357195599936,None,,,41,001,2023_Apr_17_1152,ExactRep-v3-final,2021.2.3,59.94510209475323,
,,,,,,,,,,,,22,0,22,0,,,,,,,,,,,,,,,,,,,,,,,,,,,,,,,,,,,,,,,,,,,,,,,,,893.656856900081,None,,,,,,,,,,,,,,,,,,,,,,,,,,,,,,,,,,,,,,,,,,,,,,,,,,,,,,,,,theory,125,23,silent,new,red,890.2859129998833,None,y,890.2859129998833,None,"['y', 'return']","[2.679902699775994, 3.32796430028975]",890.2859129998833,None,,,41,001,2023_Apr_17_1152,ExactRep-v3-final,2021.2.3,59.94510209475323,
,,,,,,,,,,,,23,0,23,0,,,,,,,,,,,,,,,,,,,,,,,,,,,,,,,,,,,,,,,,,,,,,,,,,896.276055299677,None,,,,,,,,,,,,,,,,,,,,,,,,,,,,,,,,,,,,,,,,,,,,,,,,,,,,,,,,,advice,58,24,silent,old,red,894.166715499945,None,y,894.166715499945,None,"['y', 'return']","[1.7670892998576164, 2.0630871998146176]",894.166715499945,None,,,41,001,2023_Apr_17_1152,ExactRep-v3-final,2021.2.3,59.94510209475323,
,,,,,,,,,,,,24,0,24,0,,,,,,,,,,,,,,,,,,,,,,,,,,,,,,,,,,,,,,,,,,,,,,,,,902.6493469001725,None,,,,,,,,,,,,,,,,,,,,,,,,,,,,,,,,,,,,,,,,,,,,,,,,,,,,,,,,,judge,192,25,aloud,new,white,896.7884788000956,None,n,896.7884788000956,None,"['y', 'backspace', 'n', 'return']","[1.5536241997033358, 3.3853460997343063, 4.953385399654508, 5.8255353001877666]",896.7884788000956,None,,,41,001,2023_Apr_17_1152,ExactRep-v3-final,2021.2.3,59.94510209475323,
,,,,,,,,,,,,25,0,25,0,,,,,,,,,,,,,,,,,,,,,,,,,,,,,,,,,,,,,,,,,,,,,,,,,905.3853407995775,None,,,,,,,,,,,,,,,,,,,,,,,,,,,,,,,,,,,,,,,,,,,,,,,,,,,,,,,,,soul,9,26,sing,old,blue,903.1564011992887,None,y,903.1564011992887,None,"['y', 'return']","[1.7214617999270558, 2.193588899448514]",903.1564011992887,None,,,41,001,2023_Apr_17_1152,ExactRep-v3-final,2021.2.3,59.94510209475323,
,,,,,,,,,,,,26,0,26,0,,,,,,,,,,,,,,,,,,,,,,,,,,,,,,,,,,,,,,,,,,,,,,,,,908.2048421995714,None,,,,,,,,,,,,,,,,,,,,,,,,,,,,,,,,,,,,,,,,,,,,,,,,,,,,,,,,,shame,100,27,aloud,old,white,905.8951644999906,None,y,905.8951644999906,None,"['y', 'return']","[1.558843499980867, 2.262806300073862]",905.8951644999906,None,,,41,001,2023_Apr_17_1152,ExactRep-v3-final,2021.2.3,59.94510209475323,
,,,,,,,,,,,,27,0,27,0,,,,,,,,,,,,,,,,,,,,,,,,,,,,,,,,,,,,,,,,,,,,,,,,,911.3244455996901,None,,,,,,,,,,,,,,,,,,,,,,,,,,,,,,,,,,,,,,,,,,,,,,,,,,,,,,,,,library,10,28,sing,old,blue,908.7154639000073,None,n,908.7154639000073,None,"['n', 'return']","[2.0346611998975277, 2.5623834002763033]",908.7154639000073,None,,,41,001,2023_Apr_17_1152,ExactRep-v3-final,2021.2.3,59.94510209475323,
,,,,,,,,,,,,28,0,28,0,,,,,,,,,,,,,,,,,,,,,,,,,,,,,,,,,,,,,,,,,,,,,,,,,915.9457988999784,None,,,,,,,,,,,,,,,,,,,,,,,,,,,,,,,,,,,,,,,,,,,,,,,,,,,,,,,,,street,197,29,sing,new,blue,911.8316898997873,None,y,911.8316898997873,None,"['y', 'return']","[3.6540951998904347, 4.070119199343026]",911.8316898997873,None,,,41,001,2023_Apr_17_1152,ExactRep-v3-final,2021.2.3,59.94510209475323,
,,,,,,,,,,,,29,0,29,0,,,,,,,,,,,,,,,,,,,,,,,,,,,,,,,,,,,,,,,,,,,,,,,,,918.0478980997577,None,,,,,,,,,,,,,,,,,,,,,,,,,,,,,,,,,,,,,,,,,,,,,,,,,,,,,,,,,freedom,103,30,aloud,old,white,916.4555933997035,None,y,916.4555933997035,None,"['y', 'return']","[1.1742438999935985, 1.5502647003158927]",916.4555933997035,None,,,41,001,2023_Apr_17_1152,ExactRep-v3-final,2021.2.3,59.94510209475323,
,,,,,,,,,,,,30,0,30,0,,,,,,,,,,,,,,,,,,,,,,,,,,,,,,,,,,,,,,,,,,,,,,,,,923.5867280997336,None,,,,,,,,,,,,,,,,,,,,,,,,,,,,,,,,,,,,,,,,,,,,,,,,,,,,,,,,,cash,28,31,sing,old,blue,918.555341700092,None,y,918.555341700092,None,"['y', 'return']","[2.7545520002022386, 4.9866252997890115]",918.555341700092,None,,,41,001,2023_Apr_17_1152,ExactRep-v3-final,2021.2.3,59.94510209475323,
,,,,,,,,,,,,31,0,31,0,,,,,,,,,,,,,,,,,,,,,,,,,,,,,,,,,,,,,,,,,,,,,,,,,926.1393269998953,None,,,,,,,,,,,,,,,,,,,,,,,,,,,,,,,,,,,,,,,,,,,,,,,,,,,,,,,,,truth,209,32,sing,new,blue,924.0962677998468,None,y,924.0962677998468,None,"['y', 'return']","[1.6056019002571702, 2.0056862998753786]",924.0962677998468,None,,,41,001,2023_Apr_17_1152,ExactRep-v3-final,2021.2.3,59.94510209475323,
,,,,,,,,,,,,32,0,32,0,,,,,,,,,,,,,,,,,,,,,,,,,,,,,,,,,,,,,,,,,,,,,,,,,929.6427879994735,None,,,,,,,,,,,,,,,,,,,,,,,,,,,,,,,,,,,,,,,,,,,,,,,,,,,,,,,,,dawn,83,33,aloud,old,white,926.6506984001026,None,n,926.6506984001026,None,"['n', 'return']","[2.667322600260377, 2.947189699858427]",926.6506984001026,None,,,41,001,2023_Apr_17_1152,ExactRep-v3-final,2021.2.3,59.94510209475323,
,,,,,,,,,,,,33,0,33,0,,,,,,,,,,,,,,,,,,,,,,,,,,,,,,,,,,,,,,,,,,,,,,,,,932.1789703993127,None,,,,,,,,,,,,,,,,,,,,,,,,,,,,,,,,,,,,,,,,,,,,,,,,,,,,,,,,,grass,132,34,silent,new,red,930.1543785994872,None,n,930.1543785994872,None,"['n', 'return']","[1.6433878997340798, 1.9874433996155858]",930.1543785994872,None,,,41,001,2023_Apr_17_1152,ExactRep-v3-final,2021.2.3,59.94510209475323,
,,,,,,,,,,,,34,0,34,0,,,,,,,,,,,,,,,,,,,,,,,,,,,,,,,,,,,,,,,,,,,,,,,,,936.4328935993835,None,,,,,,,,,,,,,,,,,,,,,,,,,,,,,,,,,,,,,,,,,,,,,,,,,,,,,,,,,mother,186,35,aloud,new,white,932.6835392992944,None,n,932.6835392992944,None,"['n', 'return']","[3.3142809001728892, 3.714278600178659]",932.6835392992944,None,,,41,001,2023_Apr_17_1152,ExactRep-v3-final,2021.2.3,59.94510209475323,
,,,,,,,,,,,,35,0,35,0,,,,,,,,,,,,,,,,,,,,,,,,,,,,,,,,,,,,,,,,,,,,,,,,,938.6685135001317,None,,,,,,,,,,,,,,,,,,,,,,,,,,,,,,,,,,,,,,,,,,,,,,,,,,,,,,,,,potato,34,36,sing,old,blue,936.9446053998545,None,y,936.9446053998545,None,"['y', 'return']","[1.2372869001701474, 1.6852946002036333]",936.9446053998545,None,,,41,001,2023_Apr_17_1152,ExactRep-v3-final,2021.2.3,59.94510209475323,
,,,,,,,,,,,,36,0,36,0,,,,,,,,,,,,,,,,,,,,,,,,,,,,,,,,,,,,,,,,,,,,,,,,,941.204485299997,None,,,,,,,,,,,,,,,,,,,,,,,,,,,,,,,,,,,,,,,,,,,,,,,,,,,,,,,,,weapon,89,37,aloud,old,white,939.1843282999471,None,y,939.1843282999471,None,"['y', 'return']","[1.4535948000848293, 1.973508500494063]",939.1843282999471,None,,,41,001,2023_Apr_17_1152,ExactRep-v3-final,2021.2.3,59.94510209475323,
,,,,,,,,,,,,37,0,37,0,,,,,,,,,,,,,,,,,,,,,,,,,,,,,,,,,,,,,,,,,,,,,,,,,943.5233410000801,None,,,,,,,,,,,,,,,,,,,,,,,,,,,,,,,,,,,,,,,,,,,,,,,,,,,,,,,,,method,141,38,silent,new,red,941.724648299627,None,y,941.724648299627,None,"['y', 'return']","[1.3295944007113576, 1.7612933004274964]",941.724648299627,None,,,41,001,2023_Apr_17_1152,ExactRep-v3-final,2021.2.3,59.94510209475323,
,,,,,,,,,,,,38,0,38,0,,,,,,,,,,,,,,,,,,,,,,,,,,,,,,,,,,,,,,,,,,,,,,,,,946.2760916994885,None,,,,,,,,,,,,,,,,,,,,,,,,,,,,,,,,,,,,,,,,,,,,,,,,,,,,,,,,,seat,162,39,aloud,new,white,944.0325283994898,None,n,944.0325283994898,None,"['n', 'return']","[1.8454798003658652, 2.20539060048759]",944.0325283994898,None,,,41,001,2023_Apr_17_1152,ExactRep-v3-final,2021.2.3,59.94510209475323,
,,,,,,,,,,,,39,0,39,0,,,,,,,,,,,,,,,,,,,,,,,,,,,,,,,,,,,,,,,,,,,,,,,,,948.8119173999876,None,,,,,,,,,,,,,,,,,,,,,,,,,,,,,,,,,,,,,,,,,,,,,,,,,,,,,,,,,friend,127,40,silent,new,red,946.7869446994737,None,n,946.7869446994737,None,"['n', 'return']","[1.5949031999334693, 1.9869512002915144]",946.7869446994737,None,,,41,001,2023_Apr_17_1152,ExactRep-v3-final,2021.2.3,59.94510209475323,
,,,,,,,,,,,,40,0,40,0,,,,,,,,,,,,,,,,,,,,,,,,,,,,,,,,,,,,,,,,,,,,,,,,,951.9486005995423,None,,,,,,,,,,,,,,,,,,,,,,,,,,,,,,,,,,,,,,,,,,,,,,,,,,,,,,,,,brain,104,41,aloud,old,white,949.3208906995133,None,n,949.3208906995133,None,"['n', 'return']","[2.173114700242877, 2.5889813005924225]",949.3208906995133,None,,,41,001,2023_Apr_17_1152,ExactRep-v3-final,2021.2.3,59.94510209475323,
,,,,,,,,,,,,41,0,41,0,,,,,,,,,,,,,,,,,,,,,,,,,,,,,,,,,,,,,,,,,,,,,,,,,954.4176324997097,None,,,,,,,,,,,,,,,,,,,,,,,,,,,,,,,,,,,,,,,,,,,,,,,,,,,,,,,,,priest,198,42,aloud,new,white,952.4585079997778,None,n,952.4585079997778,None,"['n', 'return']","[1.0917668007314205, 1.9154823003336787]",952.4585079997778,None,,,41,001,2023_Apr_17_1152,ExactRep-v3-final,2021.2.3,59.94510209475323,
,,,,,,,,,,,,42,0,42,0,,,,,,,,,,,,,,,,,,,,,,,,,,,,,,,,,,,,,,,,,,,,,,,,,959.7895900001749,None,,,,,,,,,,,,,,,,,,,,,,,,,,,,,,,,,,,,,,,,,,,,,,,,,,,,,,,,,excuse,138,43,silent,new,red,954.9196271998808,None,n,954.9196271998808,None,"['n', 'return']","[4.4623160995543, 4.838322900235653]",954.9196271998808,None,,,41,001,2023_Apr_17_1152,ExactRep-v3-final,2021.2.3,59.94510209475323,
,,,,,,,,,,,,43,0,43,0,,,,,,,,,,,,,,,,,,,,,,,,,,,,,,,,,,,,,,,,,,,,,,,,,961.7915920000523,None,,,,,,,,,,,,,,,,,,,,,,,,,,,,,,,,,,,,,,,,,,,,,,,,,,,,,,,,,sea,32,44,sing,old,blue,960.3028343999758,None,y,960.3028343999758,None,"['y', 'return']","[1.1352989003062248, 1.4472665004432201]",960.3028343999758,None,,,41,001,2023_Apr_17_1152,ExactRep-v3-final,2021.2.3,59.94510209475323,
,,,,,,,,,,,,44,0,44,0,,,,,,,,,,,,,,,,,,,,,,,,,,,,,,,,,,,,,,,,,,,,,,,,,964.0437802001834,None,,,,,,,,,,,,,,,,,,,,,,,,,,,,,,,,,,,,,,,,,,,,,,,,,,,,,,,,,victory,211,45,sing,new,blue,962.3013642998412,None,n,962.3013642998412,None,"['n', 'return']","[1.3525388995185494, 1.696604199707508]",962.3013642998412,None,,,41,001,2023_Apr_17_1152,ExactRep-v3-final,2021.2.3,59.94510209475323,
,,,,,,,,,,,,45,0,45,0,,,,,,,,,,,,,,,,,,,,,,,,,,,,,,,,,,,,,,,,,,,,,,,,,966.6798380995169,None,,,,,,,,,,,,,,,,,,,,,,,,,,,,,,,,,,,,,,,,,,,,,,,,,,,,,,,,,board,81,46,aloud,old,white,964.5537951998413,None,y,964.5537951998413,None,"['y', 'return']","[1.5480887005105615, 2.0921326000243425]",964.5537951998413,None,,,41,001,2023_Apr_17_1152,ExactRep-v3-final,2021.2.3,59.94510209475323,
,,,,,,,,,,,,46,0,46,0,,,,,,,,,,,,,,,,,,,,,,,,,,,,,,,,,,,,,,,,,,,,,,,,,969.0990343997255,None,,,,,,,,,,,,,,,,,,,,,,,,,,,,,,,,,,,,,,,,,,,,,,,,,,,,,,,,,doll,169,47,sing,new,blue,967.1884677000344,None,n,967.1884677000344,None,"['n', 'return']","[1.5455905999988317, 1.8735100999474525]",967.1884677000344,None,,,41,001,2023_Apr_17_1152,ExactRep-v3-final,2021.2.3,59.94510209475323,
,,,,,,,,,,,,47,0,47,0,,,,,,,,,,,,,,,,,,,,,,,,,,,,,,,,,,,,,,,,,,,,,,,,,972.5524245994166,None,,,,,,,,,,,,,,,,,,,,,,,,,,,,,,,,,,,,,,,,,,,,,,,,,,,,,,,,,star,222,48,aloud,new,white,969.6069184001535,None,n,969.6069184001535,None,"['n', 'return']","[2.5830387994647026, 2.9030342996120453]",969.6069184001535,None,,,41,001,2023_Apr_17_1152,ExactRep-v3-final,2021.2.3,59.94510209475323,
,,,,,,,,,,,,48,0,48,0,,,,,,,,,,,,,,,,,,,,,,,,,,,,,,,,,,,,,,,,,,,,,,,,,975.288377199322,None,,,,,,,,,,,,,,,,,,,,,,,,,,,,,,,,,,,,,,,,,,,,,,,,,,,,,,,,,justice,189,49,sing,new,blue,973.0609598001465,None,n,973.0609598001465,None,"['n', 'return']","[1.8729686001315713, 2.1848954996094108]",973.0609598001465,None,,,41,001,2023_Apr_17_1152,ExactRep-v3-final,2021.2.3,59.94510209475323,
,,,,,,,,,,,,49,0,49,0,,,,,,,,,,,,,,,,,,,,,,,,,,,,,,,,,,,,,,,,,,,,,,,,,977.7743921997026,None,,,,,,,,,,,,,,,,,,,,,,,,,,,,,,,,,,,,,,,,,,,,,,,,,,,,,,,,,salary,238,50,aloud,new,white,975.8003207994625,None,n,975.8003207994625,None,"['n', 'return']","[1.5656061004847288, 1.9416605001315475]",975.8003207994625,None,,,41,001,2023_Apr_17_1152,ExactRep-v3-final,2021.2.3,59.94510209475323,
,,,,,,,,,,,,50,0,50,0,,,,,,,,,,,,,,,,,,,,,,,,,,,,,,,,,,,,,,,,,,,,,,,,,980.6937953000888,None,,,,,,,,,,,,,,,,,,,,,,,,,,,,,,,,,,,,,,,,,,,,,,,,,,,,,,,,,honour,76,51,silent,old,red,978.2847184995189,None,y,978.2847184995189,None,"['y', 'return']","[2.017238900065422, 2.3772223005071282]",978.2847184995189,None,,,41,001,2023_Apr_17_1152,ExactRep-v3-final,2021.2.3,59.94510209475323,
,,,,,,,,,,,,51,0,51,0,,,,,,,,,,,,,,,,,,,,,,,,,,,,,,,,,,,,,,,,,,,,,,,,,982.7293583992869,None,,,,,,,,,,,,,,,,,,,,,,,,,,,,,,,,,,,,,,,,,,,,,,,,,,,,,,,,,history,134,52,silent,new,red,981.2020610999316,None,y,981.2020610999316,None,"['y', 'return']","[1.1721097994595766, 1.4838517000898719]",981.2020610999316,None,,,41,001,2023_Apr_17_1152,ExactRep-v3-final,2021.2.3,59.94510209475323,
,,,,,,,,,,,,52,0,52,0,,,,,,,,,,,,,,,,,,,,,,,,,,,,,,,,,,,,,,,,,,,,,,,,,985.3986940998584,None,,,,,,,,,,,,,,,,,,,,,,,,,,,,,,,,,,,,,,,,,,,,,,,,,,,,,,,,,student,187,53,sing,new,blue,983.2380920993164,None,n,983.2380920993164,None,"['n', 'return']","[1.7516641998663545, 2.1198069993406534]",983.2380920993164,None,,,41,001,2023_Apr_17_1152,ExactRep-v3-final,2021.2.3,59.94510209475323,
,,,,,,,,,,,,53,0,53,0,,,,,,,,,,,,,,,,,,,,,,,,,,,,,,,,,,,,,,,,,,,,,,,,,996.0258283000439,None,,,,,,,,,,,,,,,,,,,,,,,,,,,,,,,,,,,,,,,,,,,,,,,,,,,,,,,,,letter,232,54,aloud,new,white,985.9085414996371,None,n,985.9085414996371,None,"['y', 'backspace', 'n', 'return']","[5.921605399809778, 9.041401299647987, 9.481491000391543, 10.081378400325775]",985.9085414996371,None,,,41,001,2023_Apr_17_1152,ExactRep-v3-final,2021.2.3,59.94510209475323,
,,,,,,,,,,,,54,0,54,0,,,,,,,,,,,,,,,,,,,,,,,,,,,,,,,,,,,,,,,,,,,,,,,,,998.8619825001806,None,,,,,,,,,,,,,,,,,,,,,,,,,,,,,,,,,,,,,,,,,,,,,,,,,,,,,,,,,book,152,55,silent,new,red,996.5343386000022,None,y,996.5343386000022,None,"['y', 'return']","[1.9435504004359245, 2.2955606998875737]",996.5343386000022,None,,,41,001,2023_Apr_17_1152,ExactRep-v3-final,2021.2.3,59.94510209475323,
,,,,,,,,,,,,55,0,55,0,,,,,,,,,,,,,,,,,,,,,,,,,,,,,,,,,,,,,,,,,,,,,,,,,1002.1518655000255,None,,,,,,,,,,,,,,,,,,,,,,,,,,,,,,,,,,,,,,,,,,,,,,,,,,,,,,,,,bottle,172,56,aloud,new,white,999.3708164999261,None,n,999.3708164999261,None,"['n', 'return']","[2.283277800306678, 2.7311092000454664]",999.3708164999261,None,,,41,001,2023_Apr_17_1152,ExactRep-v3-final,2021.2.3,59.94510209475323,
,,,,,,,,,,,,56,0,56,0,,,,,,,,,,,,,,,,,,,,,,,,,,,,,,,,,,,,,,,,,,,,,,,,,1004.200837300159,None,,,,,,,,,,,,,,,,,,,,,,,,,,,,,,,,,,,,,,,,,,,,,,,,,,,,,,,,,custom,93,57,aloud,old,white,1002.671782899648,None,y,1002.671782899648,None,"['y', 'return']","[1.13426429964602, 1.4861340997740626]",1002.671782899648,None,,,41,001,2023_Apr_17_1152,ExactRep-v3-final,2021.2.3,59.94510209475323,
,,,,,,,,,,,,57,0,57,0,,,,,,,,,,,,,,,,,,,,,,,,,,,,,,,,,,,,,,,,,,,,,,,,,1007.3371700998396,None,,,,,,,,,,,,,,,,,,,,,,,,,,,,,,,,,,,,,,,,,,,,,,,,,,,,,,,,,ticket,26,58,sing,old,blue,1004.7111904993653,None,n,1004.7111904993653,None,"['n', 'return']","[2.32675820030272, 2.590868799947202]",1004.7111904993653,None,,,41,001,2023_Apr_17_1152,ExactRep-v3-final,2021.2.3,59.94510209475323,
,,,,,,,,,,,,58,0,58,0,,,,,,,,,,,,,,,,,,,,,,,,,,,,,,,,,,,,,,,,,,,,,,,,,1012.5089911995456,None,,,,,,,,,,,,,,,,,,,,,,,,,,,,,,,,,,,,,,,,,,,,,,,,,,,,,,,,,dream,166,59,aloud,new,white,1007.8409963995218,None,n,1007.8409963995218,None,"['n', 'return']","[4.357111000455916, 4.621074200607836]",1007.8409963995218,None,,,41,001,2023_Apr_17_1152,ExactRep-v3-final,2021.2.3,59.94510209475323,
,,,,,,,,,,,,59,0,59,0,,,,,,,,,,,,,,,,,,,,,,,,,,,,,,,,,,,,,,,,,,,,,,,,,1014.3941867994145,None,,,,,,,,,,,,,,,,,,,,,,,,,,,,,,,,,,,,,,,,,,,,,,,,,,,,,,,,,nail,82,60,aloud,old,white,1013.0181056996807,None,y,1013.0181056996807,None,"['y', 'return']","[1.0198587998747826, 1.3318370999768376]",1013.0181056996807,None,,,41,001,2023_Apr_17_1152,ExactRep-v3-final,2021.2.3,59.94510209475323,
,,,,,,,,,,,,60,0,60,0,,,,,,,,,,,,,,,,,,,,,,,,,,,,,,,,,,,,,,,,,,,,,,,,,1017.2805009000003,None,,,,,,,,,,,,,,,,,,,,,,,,,,,,,,,,,,,,,,,,,,,,,,,,,,,,,,,,,safety,129,61,silent,new,red,1014.9050535000861,None,n,1014.9050535000861,None,"['n', 'return']","[1.9970428999513388, 2.3329125000163913]",1014.9050535000861,None,,,41,001,2023_Apr_17_1152,ExactRep-v3-final,2021.2.3,59.94510209475323,
,,,,,,,,,,,,61,0,61,0,,,,,,,,,,,,,,,,,,,,,,,,,,,,,,,,,,,,,,,,,,,,,,,,,1019.6829637000337,None,,,,,,,,,,,,,,,,,,,,,,,,,,,,,,,,,,,,,,,,,,,,,,,,,,,,,,,,,wife,199,62,sing,new,blue,1017.78913810011,None,n,1017.78913810011,None,"['n', 'return']","[1.4489781996235251, 1.8569089993834496]",1017.78913810011,None,,,41,001,2023_Apr_17_1152,ExactRep-v3-final,2021.2.3,59.94510209475323,
,,,,,,,,,,,,62,0,62,0,,,,,,,,,,,,,,,,,,,,,,,,,,,,,,,,,,,,,,,,,,,,,,,,,1022.9361376995221,None,,,,,,,,,,,,,,,,,,,,,,,,,,,,,,,,,,,,,,,,,,,,,,,,,,,,,,,,,engine,224,63,aloud,new,white,1020.1927036996931,None,n,1020.1927036996931,None,"['n', 'return']","[1.765371199697256, 2.7092441003769636]",1020.1927036996931,None,,,41,001,2023_Apr_17_1152,ExactRep-v3-final,2021.2.3,59.94510209475323,
,,,,,,,,,,,,63,0,63,0,,,,,,,,,,,,,,,,,,,,,,,,,,,,,,,,,,,,,,,,,,,,,,,,,1026.289572400041,None,,,,,,,,,,,,,,,,,,,,,,,,,,,,,,,,,,,,,,,,,,,,,,,,,,,,,,,,,fire,119,64,aloud,old,white,1023.4460666999221,None,n,1023.4460666999221,None,"['n', 'return']","[1.3280596006661654, 2.799910600297153]",1023.4460666999221,None,,,41,001,2023_Apr_17_1152,ExactRep-v3-final,2021.2.3,59.94510209475323,
,,,,,,,,,,,,64,0,64,0,,,,,,,,,,,,,,,,,,,,,,,,,,,,,,,,,,,,,,,,,,,,,,,,,1030.0598858995363,None,,,,,,,,,,,,,,,,,,,,,,,,,,,,,,,,,,,,,,,,,,,,,,,,,,,,,,,,,flower,156,65,silent,new,red,1026.8028820995241,None,y,1026.8028820995241,None,"['y', 'return']","[2.9791587004438043, 3.2191507006064057]",1026.8028820995241,None,,,41,001,2023_Apr_17_1152,ExactRep-v3-final,2021.2.3,59.94510209475323,
,,,,,,,,,,,,65,0,65,0,,,,,,,,,,,,,,,,,,,,,,,,,,,,,,,,,,,,,,,,,,,,,,,,,1032.2620884999633,None,,,,,,,,,,,,,,,,,,,,,,,,,,,,,,,,,,,,,,,,,,,,,,,,,,,,,,,,,moment,115,66,aloud,old,white,1030.5681163994595,None,y,1030.5681163994595,None,"['y', 'return']","[1.3018877999857068, 1.6538754999637604]",1030.5681163994595,None,,,41,001,2023_Apr_17_1152,ExactRep-v3-final,2021.2.3,59.94510209475323,
,,,,,,,,,,,,66,0,66,0,,,,,,,,,,,,,,,,,,,,,,,,,,,,,,,,,,,,,,,,,,,,,,,,,1036.1493146996945,None,,,,,,,,,,,,,,,,,,,,,,,,,,,,,,,,,,,,,,,,,,,,,,,,,,,,,,,,,hide,145,67,silent,new,red,1032.7707714000717,None,n,1032.7707714000717,None,"['n', 'return']","[2.883225199766457, 3.3392383996397257]",1032.7707714000717,None,,,41,001,2023_Apr_17_1152,ExactRep-v3-final,2021.2.3,59.94510209475323,
,,,,,,,,,,,,67,0,67,0,,,,,,,,,,,,,,,,,,,,,,,,,,,,,,,,,,,,,,,,,,,,,,,,,1041.4379289001226,None,,,,,,,,,,,,,,,,,,,,,,,,,,,,,,,,,,,,,,,,,,,,,,,,,,,,,,,,,machine,11,68,sing,old,blue,1036.6578153995797,None,n,1036.6578153995797,None,"['n', 'return']","[2.9883844992145896, 4.732303800061345]",1036.6578153995797,None,,,41,001,2023_Apr_17_1152,ExactRep-v3-final,2021.2.3,59.94510209475323,
,,,,,,,,,,,,68,0,68,0,,,,,,,,,,,,,,,,,,,,,,,,,,,,,,,,,,,,,,,,,,,,,,,,,1043.8736766995862,None,,,,,,,,,,,,,,,,,,,,,,,,,,,,,,,,,,,,,,,,,,,,,,,,,,,,,,,,,dust,191,69,sing,new,blue,1041.952807799913,None,y,1041.952807799913,None,"['y', 'return']","[1.4691607002168894, 1.8851498002186418]",1041.952807799913,None,,,41,001,2023_Apr_17_1152,ExactRep-v3-final,2021.2.3,59.94510209475323,
,,,,,,,,,,,,69,0,69,0,,,,,,,,,,,,,,,,,,,,,,,,,,,,,,,,,,,,,,,,,,,,,,,,,1046.5431361999363,None,,,,,,,,,,,,,,,,,,,,,,,,,,,,,,,,,,,,,,,,,,,,,,,,,,,,,,,,,fun,160,70,aloud,new,white,1044.3835910996422,None,n,1044.3835910996422,None,"['n', 'return']","[1.7263150997459888, 2.118385899811983]",1044.3835910996422,None,,,41,001,2023_Apr_17_1152,ExactRep-v3-final,2021.2.3,59.94510209475323,
,,,,,,,,,,,,70,0,70,0,,,,,,,,,,,,,,,,,,,,,,,,,,,,,,,,,,,,,,,,,,,,,,,,,1049.362556799315,None,,,,,,,,,,,,,,,,,,,,,,,,,,,,,,,,,,,,,,,,,,,,,,,,,,,,,,,,,cattle,185,71,sing,new,blue,1047.0527194999158,None,n,1047.0527194999158,None,"['n', 'return']","[1.7133446000516415, 2.2652535000815988]",1047.0527194999158,None,,,41,001,2023_Apr_17_1152,ExactRep-v3-final,2021.2.3,59.94510209475323,
,,,,,,,,,,,,71,0,71,0,,,,,,,,,,,,,,,,,,,,,,,,,,,,,,,,,,,,,,,,,,,,,,,,,1052.1821397999302,None,,,,,,,,,,,,,,,,,,,,,,,,,,,,,,,,,,,,,,,,,,,,,,,,,,,,,,,,,gift,7,72,sing,old,blue,1049.871048799716,None,y,1049.871048799716,None,"['y', 'return']","[1.9747989000752568, 2.2709534000605345]",1049.871048799716,None,,,41,001,2023_Apr_17_1152,ExactRep-v3-final,2021.2.3,59.94510209475323,
,,,,,,,,,,,,72,0,72,0,,,,,,,,,,,,,,,,,,,,,,,,,,,,,,,,,,,,,,,,,,,,,,,,,1054.8847652999684,None,,,,,,,,,,,,,,,,,,,,,,,,,,,,,,,,,,,,,,,,,,,,,,,,,,,,,,,,,square,101,73,aloud,old,white,1052.6933850999922,None,n,1052.6933850999922,None,"['n', 'return']","[1.8005807995796204, 2.1525935996323824]",1052.6933850999922,None,,,41,001,2023_Apr_17_1152,ExactRep-v3-final,2021.2.3,59.94510209475323,
,,,,,,,,,,,,73,0,73,0,,,,,,,,,,,,,,,,,,,,,,,,,,,,,,,,,,,,,,,,,,,,,,,,,1058.658066299744,None,,,,,,,,,,,,,,,,,,,,,,,,,,,,,,,,,,,,,,,,,,,,,,,,,,,,,,,,,blood,177,74,sing,new,blue,1055.3886561999097,None,n,1055.3886561999097,None,"['n', 'return']","[2.889498299919069, 3.233629299327731]",1055.3886561999097,None,,,41,001,2023_Apr_17_1152,ExactRep-v3-final,2021.2.3,59.94510209475323,
,,,,,,,,,,,,74,0,74,0,,,,,,,,,,,,,,,,,,,,,,,,,,,,,,,,,,,,,,,,,,,,,,,,,1062.592389899306,None,,,,,,,,,,,,,,,,,,,,,,,,,,,,,,,,,,,,,,,,,,,,,,,,,,,,,,,,,disease,64,75,silent,old,red,1059.1754193995148,None,n,1059.1754193995148,None,"['n', 'return']","[2.71855410002172, 3.3825516998767853]",1059.1754193995148,None,,,41,001,2023_Apr_17_1152,ExactRep-v3-final,2021.2.3,59.94510209475323,
,,,,,,,,,,,,75,0,75,0,,,,,,,,,,,,,,,,,,,,,,,,,,,,,,,,,,,,,,,,,,,,,,,,,1064.477682000026,None,,,,,,,,,,,,,,,,,,,,,,,,,,,,,,,,,,,,,,,,,,,,,,,,,,,,,,,,,hotel,154,76,silent,new,red,1063.1021160995588,None,y,1063.1021160995588,None,"['y', 'return']","[1.0319079998880625, 1.335911000147462]",1063.1021160995588,None,,,41,001,2023_Apr_17_1152,ExactRep-v3-final,2021.2.3,59.94510209475323,
,,,,,,,,,,,,76,0,76,0,,,,,,,,,,,,,,,,,,,,,,,,,,,,,,,,,,,,,,,,,,,,,,,,,1068.5983873000368,None,,,,,,,,,,,,,,,,,,,,,,,,,,,,,,,,,,,,,,,,,,,,,,,,,,,,,,,,,army,114,77,aloud,old,white,1064.9861260997131,None,y,1064.9861260997131,None,"['y', 'return']","[2.7638822998851538, 3.5719614000990987]",1064.9861260997131,None,,,41,001,2023_Apr_17_1152,ExactRep-v3-final,2021.2.3,59.94510209475323,
,,,,,,,,,,,,77,0,77,0,,,,,,,,,,,,,,,,,,,,,,,,,,,,,,,,,,,,,,,,,,,,,,,,,1071.9018110996112,None,,,,,,,,,,,,,,,,,,,,,,,,,,,,,,,,,,,,,,,,,,,,,,,,,,,,,,,,,body,2,78,sing,old,blue,1069.1057418994606,None,y,1069.1057418994606,None,"['y', 'return']","[2.284214399755001, 2.756297900341451]",1069.1057418994606,None,,,41,001,2023_Apr_17_1152,ExactRep-v3-final,2021.2.3,59.94510209475323,
,,,,,,,,,,,,78,0,78,0,,,,,,,,,,,,,,,,,,,,,,,,,,,,,,,,,,,,,,,,,,,,,,,,,1075.1882786992937,None,,,,,,,,,,,,,,,,,,,,,,,,,,,,,,,,,,,,,,,,,,,,,,,,,,,,,,,,,event,226,79,aloud,new,white,1072.4117479994893,None,n,1072.4117479994893,None,"['n', 'return']","[2.4662580005824566, 2.7382869999855757]",1072.4117479994893,None,,,41,001,2023_Apr_17_1152,ExactRep-v3-final,2021.2.3,59.94510209475323,
,,,,,,,,,,,,79,0,79,0,,,,,,,,,,,,,,,,,,,,,,,,,,,,,,,,,,,,,,,,,,,,,,,,,1078.8587472997606,None,,,,,,,,,,,,,,,,,,,,,,,,,,,,,,,,,,,,,,,,,,,,,,,,,,,,,,,,,cottage,131,80,silent,new,red,1075.6983313998207,None,n,1075.6983313998207,None,"['n', 'return']","[2.6597939003258944, 3.1156628001481295]",1075.6983313998207,None,,,41,001,2023_Apr_17_1152,ExactRep-v3-final,2021.2.3,59.94510209475323,
,,,,,,,,,,,,80,0,80,0,,,,,,,,,,,,,,,,,,,,,,,,,,,,,,,,,,,,,,,,,,,,,,,,,1083.1463449997827,None,,,,,,,,,,,,,,,,,,,,,,,,,,,,,,,,,,,,,,,,,,,,,,,,,,,,,,,,,prayer,146,81,silent,new,red,1079.3714796993881,None,n,1079.3714796993881,None,"['n', 'return']","[1.5305171003565192, 3.7385306004434824]",1079.3714796993881,None,,,41,001,2023_Apr_17_1152,ExactRep-v3-final,2021.2.3,59.94510209475323,
,,,,,,,,,,,,81,0,81,0,,,,,,,,,,,,,,,,,,,,,,,,,,,,,,,,,,,,,,,,,,,,,,,,,1085.1482908995822,None,,,,,,,,,,,,,,,,,,,,,,,,,,,,,,,,,,,,,,,,,,,,,,,,,,,,,,,,,wine,68,82,silent,old,red,1083.6545025995001,None,y,1083.6545025995001,None,"['y', 'return']","[1.1275375001132488, 1.4555850001052022]",1083.6545025995001,None,,,41,001,2023_Apr_17_1152,ExactRep-v3-final,2021.2.3,59.94510209475323,
,,,,,,,,,,,,82,0,82,0,,,,,,,,,,,,,,,,,,,,,,,,,,,,,,,,,,,,,,,,,,,,,,,,,1087.8677487997338,None,,,,,,,,,,,,,,,,,,,,,,,,,,,,,,,,,,,,,,,,,,,,,,,,,,,,,,,,,master,108,83,aloud,old,white,1085.658081700094,None,y,1085.658081700094,None,"['y', 'return']","[1.7319408999755979, 2.1639878004789352]",1085.658081700094,None,,,41,001,2023_Apr_17_1152,ExactRep-v3-final,2021.2.3,59.94510209475323,
,,,,,,,,,,,,83,0,83,0,,,,,,,,,,,,,,,,,,,,,,,,,,,,,,,,,,,,,,,,,,,,,,,,,1090.5370606994256,None,,,,,,,,,,,,,,,,,,,,,,,,,,,,,,,,,,,,,,,,,,,,,,,,,,,,,,,,,string,62,84,silent,old,red,1088.3779355995357,None,y,1088.3779355995357,None,"['y', 'return']","[1.8044314999133348, 2.1240552002564073]",1088.3779355995357,None,,,41,001,2023_Apr_17_1152,ExactRep-v3-final,2021.2.3,59.94510209475323,
,,,,,,,,,,,,84,0,84,0,,,,,,,,,,,,,,,,,,,,,,,,,,,,,,,,,,,,,,,,,,,,,,,,,1094.6255093999207,None,,,,,,,,,,,,,,,,,,,,,,,,,,,,,,,,,,,,,,,,,,,,,,,,,,,,,,,,,shoes,206,85,aloud,new,white,1091.0441736998037,None,n,1091.0441736998037,None,"['n', 'return']","[3.330083799548447, 3.545919499360025]",1091.0441736998037,None,,,41,001,2023_Apr_17_1152,ExactRep-v3-final,2021.2.3,59.94510209475323,
,,,,,,,,,,,,85,0,85,0,,,,,,,,,,,,,,,,,,,,,,,,,,,,,,,,,,,,,,,,,,,,,,,,,1097.961063399911,None,,,,,,,,,,,,,,,,,,,,,,,,,,,,,,,,,,,,,,,,,,,,,,,,,,,,,,,,,flag,214,86,aloud,new,white,1095.1448983997107,None,n,1095.1448983997107,None,"['n', 'return']","[2.5492619005963206, 2.773130800575018]",1095.1448983997107,None,,,41,001,2023_Apr_17_1152,ExactRep-v3-final,2021.2.3,59.94510209475323,
,,,,,,,,,,,,86,0,86,0,,,,,,,,,,,,,,,,,,,,,,,,,,,,,,,,,,,,,,,,,,,,,,,,,1099.7796000996605,None,,,,,,,,,,,,,,,,,,,,,,,,,,,,,,,,,,,,,,,,,,,,,,,,,,,,,,,,,meadow,204,87,aloud,new,white,1098.4685827000067,None,n,1098.4685827000067,None,"['n', 'return']","[1.0334941009059548, 1.2655117008835077]",1098.4685827000067,None,,,41,001,2023_Apr_17_1152,ExactRep-v3-final,2021.2.3,59.94510209475323,
,,,,,,,,,,,,87,0,87,0,,,,,,,,,,,,,,,,,,,,,,,,,,,,,,,,,,,,,,,,,,,,,,,,,1102.465676999651,None,,,,,,,,,,,,,,,,,,,,,,,,,,,,,,,,,,,,,,,,,,,,,,,,,,,,,,,,,house,121,88,silent,new,red,1100.2877357993275,None,n,1100.2877357993275,None,"['n', 'return']","[1.886349099688232, 2.134301000274718]",1100.2877357993275,None,,,41,001,2023_Apr_17_1152,ExactRep-v3-final,2021.2.3,59.94510209475323,
,,,,,,,,,,,,88,0,88,0,,,,,,,,,,,,,,,,,,,,,,,,,,,,,,,,,,,,,,,,,,,,,,,,,1104.617747599259,None,,,,,,,,,,,,,,,,,,,,,,,,,,,,,,,,,,,,,,,,,,,,,,,,,,,,,,,,,crime,50,89,silent,old,red,1102.983248299919,None,y,1102.983248299919,None,"['y', 'return']","[1.4069124003872275, 1.590832100249827]",1102.983248299919,None,,,41,001,2023_Apr_17_1152,ExactRep-v3-final,2021.2.3,59.94510209475323,
,,,,,,,,,,,,89,0,89,0,,,,,,,,,,,,,,,,,,,,,,,,,,,,,,,,,,,,,,,,,,,,,,,,,1106.9201986994594,None,,,,,,,,,,,,,,,,,,,,,,,,,,,,,,,,,,,,,,,,,,,,,,,,,,,,,,,,,horse,120,90,silent,new,red,1105.131526099518,None,y,1105.131526099518,None,"['y', 'return']","[1.5704495999962091, 1.7466892004013062]",1105.131526099518,None,,,41,001,2023_Apr_17_1152,ExactRep-v3-final,2021.2.3,59.94510209475323,
,,,,,,,,,,,,90,0,90,0,,,,,,,,,,,,,,,,,,,,,,,,,,,,,,,,,,,,,,,,,,,,,,,,,1109.9731350997463,None,,,,,,,,,,,,,,,,,,,,,,,,,,,,,,,,,,,,,,,,,,,,,,,,,,,,,,,,,journal,13,91,sing,old,blue,1107.430924399756,None,n,1107.430924399756,None,"['n', 'return']","[2.1831737998872995, 2.503180400468409]",1107.430924399756,None,,,41,001,2023_Apr_17_1152,ExactRep-v3-final,2021.2.3,59.94510209475323,
,,,,,,,,,,,,91,0,91,0,,,,,,,,,,,,,,,,,,,,,,,,,,,,,,,,,,,,,,,,,,,,,,,,,1113.2945802994072,None,,,,,,,,,,,,,,,,,,,,,,,,,,,,,,,,,,,,,,,,,,,,,,,,,,,,,,,,,opinion,136,92,silent,new,red,1110.483288999647,None,n,1110.483288999647,None,"['n', 'return']","[2.3867436004802585, 2.762750900350511]",1110.483288999647,None,,,41,001,2023_Apr_17_1152,ExactRep-v3-final,2021.2.3,59.94510209475323,
,,,,,,,,,,,,92,0,92,0,,,,,,,,,,,,,,,,,,,,,,,,,,,,,,,,,,,,,,,,,,,,,,,,,1115.862491699867,None,,,,,,,,,,,,,,,,,,,,,,,,,,,,,,,,,,,,,,,,,,,,,,,,,,,,,,,,,lord,57,93,silent,old,red,1113.801696400158,None,y,1113.801696400158,None,"['y', 'return']","[1.7485400000587106, 2.0284672994166613]",1113.801696400158,None,,,41,001,2023_Apr_17_1152,ExactRep-v3-final,2021.2.3,59.94510209475323,
,,,,,,,,,,,,93,0,93,0,,,,,,,,,,,,,,,,,,,,,,,,,,,,,,,,,,,,,,,,,,,,,,,,,1118.5817137993872,None,,,,,,,,,,,,,,,,,,,,,,,,,,,,,,,,,,,,,,,,,,,,,,,,,,,,,,,,,answer,31,94,sing,old,blue,1116.3665542993695,None,y,1116.3665542993695,None,"['y', 'return']","[1.8555223001167178, 2.167453699745238]",1116.3665542993695,None,,,41,001,2023_Apr_17_1152,ExactRep-v3-final,2021.2.3,59.94510209475323,
,,,,,,,,,,,,94,0,94,0,,,,,,,,,,,,,,,,,,,,,,,,,,,,,,,,,,,,,,,,,,,,,,,,,1120.4502582000569,None,,,,,,,,,,,,,,,,,,,,,,,,,,,,,,,,,,,,,,,,,,,,,,,,,,,,,,,,,gold,1,95,sing,old,blue,1119.0963007993996,None,y,1119.0963007993996,None,"['y', 'return']","[1.0217966996133327, 1.3097211001440883]",1119.0963007993996,None,,,41,001,2023_Apr_17_1152,ExactRep-v3-final,2021.2.3,59.94510209475323,
,,,,,,,,,,,,95,0,95,0,,,,,,,,,,,,,,,,,,,,,,,,,,,,,,,,,,,,,,,,,,,,,,,,,1123.1697174999863,None,,,,,,,,,,,,,,,,,,,,,,,,,,,,,,,,,,,,,,,,,,,,,,,,,,,,,,,,,queen,188,96,aloud,new,white,1120.9596957992762,None,n,1120.9596957992762,None,"['n', 'return']","[1.646365400403738, 2.1745227007195354]",1120.9596957992762,None,,,41,001,2023_Apr_17_1152,ExactRep-v3-final,2021.2.3,59.94510209475323,
,,,,,,,,,,,,96,0,96,0,,,,,,,,,,,,,,,,,,,,,,,,,,,,,,,,,,,,,,,,,,,,,,,,,1126.389517299831,None,,,,,,,,,,,,,,,,,,,,,,,,,,,,,,,,,,,,,,,,,,,,,,,,,,,,,,,,,ship,70,97,silent,old,red,1123.6811294993386,None,n,1123.6811294993386,None,"['n', 'return']","[2.2612036000937223, 2.6609722999855876]",1123.6811294993386,None,,,41,001,2023_Apr_17_1152,ExactRep-v3-final,2021.2.3,59.94510209475323,
,,,,,,,,,,,,97,0,97,0,,,,,,,,,,,,,,,,,,,,,,,,,,,,,,,,,,,,,,,,,,,,,,,,,1132.4789563994855,None,,,,,,,,,,,,,,,,,,,,,,,,,,,,,,,,,,,,,,,,,,,,,,,,,,,,,,,,,mercy,205,98,sing,new,blue,1126.8987818993628,None,n,1126.8987818993628,None,"['n', 'return']","[5.32345260027796, 5.5473629999905825]",1126.8987818993628,None,,,41,001,2023_Apr_17_1152,ExactRep-v3-final,2021.2.3,59.94510209475323,
,,,,,,,,,,,,98,0,98,0,,,,,,,,,,,,,,,,,,,,,,,,,,,,,,,,,,,,,,,,,,,,,,,,,1134.1138739995658,None,,,,,,,,,,,,,,,,,,,,,,,,,,,,,,,,,,,,,,,,,,,,,,,,,,,,,,,,,deed,233,99,sing,new,blue,1132.9908258998767,None,n,1132.9908258998767,None,"['n', 'return']","[0.887465400621295, 1.0792450001463294]",1132.9908258998767,None,,,41,001,2023_Apr_17_1152,ExactRep-v3-final,2021.2.3,59.94510209475323,
,,,,,,,,,,,,99,0,99,0,,,,,,,,,,,,,,,,,,,,,,,,,,,,,,,,,,,,,,,,,,,,,,,,,1136.5162288993597,None,,,,,,,,,,,,,,,,,,,,,,,,,,,,,,,,,,,,,,,,,,,,,,,,,,,,,,,,,lake,25,100,sing,old,blue,1134.6169217992574,None,y,1134.6169217992574,None,"['y', 'return']","[1.7250318005681038, 1.8610419007018209]",1134.6169217992574,None,,,41,001,2023_Apr_17_1152,ExactRep-v3-final,2021.2.3,59.94510209475323,
,,,,,,,,,,,,100,0,100,0,,,,,,,,,,,,,,,,,,,,,,,,,,,,,,,,,,,,,,,,,,,,,,,,,1139.6525729000568,None,,,,,,,,,,,,,,,,,,,,,,,,,,,,,,,,,,,,,,,,,,,,,,,,,,,,,,,,,slave,69,101,silent,old,red,1137.016779099591,None,y,1137.016779099591,None,"['y', 'return']","[2.2933943001553416, 2.5893949000164866]",1137.016779099591,None,,,41,001,2023_Apr_17_1152,ExactRep-v3-final,2021.2.3,59.94510209475323,
,,,,,,,,,,,,101,0,101,0,,,,,,,,,,,,,,,,,,,,,,,,,,,,,,,,,,,,,,,,,,,,,,,,,1141.50471359957,None,,,,,,,,,,,,,,,,,,,,,,,,,,,,,,,,,,,,,,,,,,,,,,,,,,,,,,,,,money,71,102,silent,old,red,1140.1619004998356,None,y,1140.1619004998356,None,"['y', 'return']","[1.0123802004382014, 1.3081502001732588]",1140.1619004998356,None,,,41,001,2023_Apr_17_1152,ExactRep-v3-final,2021.2.3,59.94510209475323,
,,,,,,,,,,,,102,0,102,0,,,,,,,,,,,,,,,,,,,,,,,,,,,,,,,,,,,,,,,,,,,,,,,,,1144.2740736994892,None,,,,,,,,,,,,,,,,,,,,,,,,,,,,,,,,,,,,,,,,,,,,,,,,,,,,,,,,,person,92,103,aloud,old,white,1142.014591500163,None,y,1142.014591500163,None,"['y', 'return']","[1.9515345003455877, 2.2235719999298453]",1142.014591500163,None,,,41,001,2023_Apr_17_1152,ExactRep-v3-final,2021.2.3,59.94510209475323,
,,,,,,,,,,,,103,0,103,0,,,,,,,,,,,,,,,,,,,,,,,,,,,,,,,,,,,,,,,,,,,,,,,,,1147.110316899605,None,,,,,,,,,,,,,,,,,,,,,,,,,,,,,,,,,,,,,,,,,,,,,,,,,,,,,,,,,woman,86,104,aloud,old,white,1144.7837793994695,None,y,1144.7837793994695,None,"['y', 'return']","[1.310288599692285, 2.294430499896407]",1144.7837793994695,None,,,41,001,2023_Apr_17_1152,ExactRep-v3-final,2021.2.3,59.94510209475323,
,,,,,,,,,,,,104,0,104,0,,,,,,,,,,,,,,,,,,,,,,,,,,,,,,,,,,,,,,,,,,,,,,,,,1150.4636145997792,None,,,,,,,,,,,,,,,,,,,,,,,,,,,,,,,,,,,,,,,,,,,,,,,,,,,,,,,,,child,46,105,silent,old,red,1147.6220892993733,None,n,1147.6220892993733,None,"['n', 'return']","[2.7360127000138164, 2.8079857993870974]",1147.6220892993733,None,,,41,001,2023_Apr_17_1152,ExactRep-v3-final,2021.2.3,59.94510209475323,
,,,,,,,,,,,,105,0,105,0,,,,,,,,,,,,,,,,,,,,,,,,,,,,,,,,,,,,,,,,,,,,,,,,,1152.4656368996948,None,,,,,,,,,,,,,,,,,,,,,,,,,,,,,,,,,,,,,,,,,,,,,,,,,,,,,,,,,kiss,173,106,sing,new,blue,1150.9756151000038,None,n,1150.9756151000038,None,"['n', 'return']","[1.2784708002582192, 1.44654450006783]",1150.9756151000038,None,,,41,001,2023_Apr_17_1152,ExactRep-v3-final,2021.2.3,59.94510209475323,
,,,,,,,,,,,,106,0,106,0,,,,,,,,,,,,,,,,,,,,,,,,,,,,,,,,,,,,,,,,,,,,,,,,,1155.8690355001017,None,,,,,,,,,,,,,,,,,,,,,,,,,,,,,,,,,,,,,,,,,,,,,,,,,,,,,,,,,silence,113,107,aloud,old,white,1152.9765833001584,None,n,1152.9765833001584,None,"['n', 'return']","[2.701523299328983, 2.8534613996744156]",1152.9765833001584,None,,,41,001,2023_Apr_17_1152,ExactRep-v3-final,2021.2.3,59.94510209475323,
,,,,,,,,,,,,107,0,107,0,,,,,,,,,,,,,,,,,,,,,,,,,,,,,,,,,,,,,,,,,,,,,,,,,1158.171376899816,None,,,,,,,,,,,,,,,,,,,,,,,,,,,,,,,,,,,,,,,,,,,,,,,,,,,,,,,,,metal,77,108,silent,old,red,1156.3830359997228,None,y,1156.3830359997228,None,"['y', 'return']","[1.6390476999804378, 1.7430618004873395]",1156.3830359997228,None,,,41,001,2023_Apr_17_1152,ExactRep-v3-final,2021.2.3,59.94510209475323,
,,,,,,,,,,,,108,0,108,0,,,,,,,,,,,,,,,,,,,,,,,,,,,,,,,,,,,,,,,,,,,,,,,,,1160.056544999592,None,,,,,,,,,,,,,,,,,,,,,,,,,,,,,,,,,,,,,,,,,,,,,,,,,,,,,,,,,lad,174,109,aloud,new,white,1158.6742321001366,None,n,1158.6742321001366,None,"['n', 'return']","[1.2038690000772476, 1.3399636996909976]",1158.6742321001366,None,,,41,001,2023_Apr_17_1152,ExactRep-v3-final,2021.2.3,59.94510209475323,
,,,,,,,,,,,,109,0,109,0,,,,,,,,,,,,,,,,,,,,,,,,,,,,,,,,,,,,,,,,,,,,,,,,,1163.1097470996901,None,,,,,,,,,,,,,,,,,,,,,,,,,,,,,,,,,,,,,,,,,,,,,,,,,,,,,,,,,vision,230,110,aloud,new,white,1160.5678407996893,None,n,1160.5678407996893,None,"['n', 'return']","[2.3742506997659802, 2.5102645000442863]",1160.5678407996893,None,,,41,001,2023_Apr_17_1152,ExactRep-v3-final,2021.2.3,59.94510209475323,
,,,,,,,,,,,,110,0,110,0,,,,,,,,,,,,,,,,,,,,,,,,,,,,,,,,,,,,,,,,,,,,,,,,,1166.279409199953,None,,,,,,,,,,,,,,,,,,,,,,,,,,,,,,,,,,,,,,,,,,,,,,,,,,,,,,,,,speech,178,111,aloud,new,white,1163.619482299313,None,y,1163.619482299313,None,"['y', 'return']","[2.4826319999992847, 2.6186589999124408]",1163.619482299313,None,,,41,001,2023_Apr_17_1152,ExactRep-v3-final,2021.2.3,59.94510209475323,
,,,,,,,,,,,,111,0,111,0,,,,,,,,,,,,,,,,,,,,,,,,,,,,,,,,,,,,,,,,,,,,,,,,,1168.681884699501,None,,,,,,,,,,,,,,,,,,,,,,,,,,,,,,,,,,,,,,,,,,,,,,,,,,,,,,,,,plant,193,112,sing,new,blue,1166.789864799939,None,n,1166.789864799939,None,"['n', 'return']","[1.736273200251162, 1.8482405999675393]",1166.789864799939,None,,,41,001,2023_Apr_17_1152,ExactRep-v3-final,2021.2.3,59.94510209475323,
,,,,,,,,,,,,112,0,112,0,,,,,,,,,,,,,,,,,,,,,,,,,,,,,,,,,,,,,,,,,,,,,,,,,1170.5171646997333,None,,,,,,,,,,,,,,,,,,,,,,,,,,,,,,,,,,,,,,,,,,,,,,,,,,,,,,,,,boy,33,113,sing,old,blue,1169.1926250001416,None,n,1169.1926250001416,None,"['n', 'return']","[1.1737115001305938, 1.2855856008827686]",1169.1926250001416,None,,,41,001,2023_Apr_17_1152,ExactRep-v3-final,2021.2.3,59.94510209475323,
,,,,,,,,,,,,113,0,113,0,,,,,,,,,,,,,,,,,,,,,,,,,,,,,,,,,,,,,,,,,,,,,,,,,1174.6713531995192,None,,,,,,,,,,,,,,,,,,,,,,,,,,,,,,,,,,,,,,,,,,,,,,,,,,,,,,,,,memory,60,114,silent,old,red,1171.0262450994924,None,y,1171.0262450994924,None,"['y', 'return']","[3.4760207002982497, 3.6039998000487685]",1171.0262450994924,None,,,41,001,2023_Apr_17_1152,ExactRep-v3-final,2021.2.3,59.94510209475323,
,,,,,,,,,,,,114,0,114,0,,,,,,,,,,,,,,,,,,,,,,,,,,,,,,,,,,,,,,,,,,,,,,,,,1177.2570773996413,None,,,,,,,,,,,,,,,,,,,,,,,,,,,,,,,,,,,,,,,,,,,,,,,,,,,,,,,,,volume,19,115,sing,old,blue,1175.181106899865,None,n,1175.181106899865,None,"['n', 'return']","[1.8810662999749184, 2.032953799702227]",1175.181106899865,None,,,41,001,2023_Apr_17_1152,ExactRep-v3-final,2021.2.3,59.94510209475323,
,,,,,,,,,,,,115,0,115,0,,,,,,,,,,,,,,,,,,,,,,,,,,,,,,,,,,,,,,,,,,,,,,,,,1179.1923145996407,None,,,,,,,,,,,,,,,,,,,,,,,,,,,,,,,,,,,,,,,,,,,,,,,,,,,,,,,,,fur,78,116,silent,old,red,1177.768422299996,None,n,1177.768422299996,None,"['n', 'return']","[1.277721899561584, 1.3896677000448108]",1177.768422299996,None,,,41,001,2023_Apr_17_1152,ExactRep-v3-final,2021.2.3,59.94510209475323,
,,,,,,,,,,,,116,0,116,0,,,,,,,,,,,,,,,,,,,,,,,,,,,,,,,,,,,,,,,,,,,,,,,,,1181.2777156997472,None,,,,,,,,,,,,,,,,,,,,,,,,,,,,,,,,,,,,,,,,,,,,,,,,,,,,,,,,,door,175,117,sing,new,blue,1179.706964300014,None,n,1179.706964300014,None,"['n', 'return']","[1.4191971998661757, 1.5231053996831179]",1179.706964300014,None,,,41,001,2023_Apr_17_1152,ExactRep-v3-final,2021.2.3,59.94510209475323,
,,,,,,,,,,,,117,0,117,0,,,,,,,,,,,,,,,,,,,,,,,,,,,,,,,,,,,,,,,,,,,,,,,,,1183.947077400051,None,,,,,,,,,,,,,,,,,,,,,,,,,,,,,,,,,,,,,,,,,,,,,,,,,,,,,,,,,tool,29,118,sing,old,blue,1181.7878355998546,None,y,1181.7878355998546,None,"['y', 'return']","[1.9785147001966834, 2.122373099438846]",1181.7878355998546,None,,,41,001,2023_Apr_17_1152,ExactRep-v3-final,2021.2.3,59.94510209475323,
,,,,,,,,,,,,118,0,118,0,,,,,,,,,,,,,,,,,,,,,,,,,,,,,,,,,,,,,,,,,,,,,,,,,1187.333822899498,None,,,,,,,,,,,,,,,,,,,,,,,,,,,,,,,,,,,,,,,,,,,,,,,,,,,,,,,,,troops,20,119,sing,old,blue,1184.4511055992916,None,n,1184.4511055992916,None,"['n', 'return']","[2.6910555996000767, 2.8430433003231883]",1184.4511055992916,None,,,41,001,2023_Apr_17_1152,ExactRep-v3-final,2021.2.3,59.94510209475323,
,,,,,,,,,,,,119,0,119,0,,,,,,,,,,,,,,,,,,,,,,,,,,,,,,,,,,,,,,,,,,,,,,,,,1189.6195818996057,None,,,,,,,,,,,,,,,,,,,,,,,,,,,,,,,,,,,,,,,,,,,,,,,,,,,,,,,,,devil,168,120,aloud,new,white,1187.8475810997188,None,n,1187.8475810997188,None,"['n', 'return']","[1.6145125003531575, 1.7345307003706694]",1187.8475810997188,None,,,41,001,2023_Apr_17_1152,ExactRep-v3-final,2021.2.3,59.94510209475323,
,,,,,,,,,,,,120,0,120,0,,,,,,,,,,,,,,,,,,,,,,,,,,,,,,,,,,,,,,,,,,,,,,,,,1192.5224008001387,None,,,,,,,,,,,,,,,,,,,,,,,,,,,,,,,,,,,,,,,,,,,,,,,,,,,,,,,,,arm,218,121,aloud,new,white,1190.1270848000422,None,n,1190.1270848000422,None,"['n', 'return']","[2.135038999840617, 2.3590842001140118]",1190.1270848000422,None,,,41,001,2023_Apr_17_1152,ExactRep-v3-final,2021.2.3,59.94510209475323,
,,,,,,,,,,,,121,0,121,0,,,,,,,,,,,,,,,,,,,,,,,,,,,,,,,,,,,,,,,,,,,,,,,,,1195.4585929997265,None,,,,,,,,,,,,,,,,,,,,,,,,,,,,,,,,,,,,,,,,,,,,,,,,,,,,,,,,,style,85,122,aloud,old,white,1193.0325675001368,None,n,1193.0325675001368,None,"['n', 'return']","[2.229568799957633, 2.3898152001202106]",1193.0325675001368,None,,,41,001,2023_Apr_17_1152,ExactRep-v3-final,2021.2.3,59.94510209475323,
,,,,,,,,,,,,122,0,122,0,,,,,,,,,,,,,,,,,,,,,,,,,,,,,,,,,,,,,,,,,,,,,,,,,1197.293724199757,None,,,,,,,,,,,,,,,,,,,,,,,,,,,,,,,,,,,,,,,,,,,,,,,,,,,,,,,,,flood,221,123,sing,new,blue,1195.9695947999135,None,n,1195.9695947999135,None,"['n', 'return']","[1.116528700105846, 1.2845254996791482]",1195.9695947999135,None,,,41,001,2023_Apr_17_1152,ExactRep-v3-final,2021.2.3,59.94510209475323,
,,,,,,,,,,,,123,0,123,0,,,,,,,,,,,,,,,,,,,,,,,,,,,,,,,,,,,,,,,,,,,,,,,,,1200.1634051995352,None,,,,,,,,,,,,,,,,,,,,,,,,,,,,,,,,,,,,,,,,,,,,,,,,,,,,,,,,,idea,23,124,sing,old,blue,1197.8026163000613,None,n,1197.8026163000613,None,"['n', 'return']","[2.0994686000049114, 2.323648899793625]",1197.8026163000613,None,,,41,001,2023_Apr_17_1152,ExactRep-v3-final,2021.2.3,59.94510209475323,
,,,,,,,,,,,,124,0,124,0,,,,,,,,,,,,,,,,,,,,,,,,,,,,,,,,,,,,,,,,,,,,,,,,,1203.9505734993145,None,,,,,,,,,,,,,,,,,,,,,,,,,,,,,,,,,,,,,,,,,,,,,,,,,,,,,,,,,world,105,125,aloud,old,white,1200.6731628999114,None,n,1200.6731628999114,None,"['n', 'return']","[2.4530025999993086, 3.237041600048542]",1200.6731628999114,None,,,41,001,2023_Apr_17_1152,ExactRep-v3-final,2021.2.3,59.94510209475323,
,,,,,,,,,,,,125,0,125,0,,,,,,,,,,,,,,,,,,,,,,,,,,,,,,,,,,,,,,,,,,,,,,,,,1214.677851099521,None,,,,,,,,,,,,,,,,,,,,,,,,,,,,,,,,,,,,,,,,,,,,,,,,,,,,,,,,,artist,80,126,aloud,old,white,1204.459691000171,None,y,1204.459691000171,None,"['n', 'backspace', 'y', 'return']","[6.290701099671423, 8.93069490045309, 9.514578799717128, 10.170570899732411]",1204.459691000171,None,,,41,001,2023_Apr_17_1152,ExactRep-v3-final,2021.2.3,59.94510209475323,
,,,,,,,,,,,,126,0,126,0,,,,,,,,,,,,,,,,,,,,,,,,,,,,,,,,,,,,,,,,,,,,,,,,,1217.347146499902,None,,,,,,,,,,,,,,,,,,,,,,,,,,,,,,,,,,,,,,,,,,,,,,,,,,,,,,,,,diamond,124,127,silent,new,red,1215.1890985993668,None,y,1215.1890985993668,None,"['y', 'return']","[1.8010508995503187, 2.113153100013733]",1215.1890985993668,None,,,41,001,2023_Apr_17_1152,ExactRep-v3-final,2021.2.3,59.94510209475323,
,,,,,,,,,,,,127,0,127,0,,,,,,,,,,,,,,,,,,,,,,,,,,,,,,,,,,,,,,,,,,,,,,,,,1219.8997521996498,None,,,,,,,,,,,,,,,,,,,,,,,,,,,,,,,,,,,,,,,,,,,,,,,,,,,,,,,,,charm,182,128,aloud,new,white,1217.8567086998373,None,n,1217.8567086998373,None,"['n', 'return']","[1.8215297004207969, 1.9973927000537515]",1217.8567086998373,None,,,41,001,2023_Apr_17_1152,ExactRep-v3-final,2021.2.3,59.94510209475323,
,,,,,,,,,,,,128,0,128,0,,,,,,,,,,,,,,,,,,,,,,,,,,,,,,,,,,,,,,,,,,,,,,,,,1223.7371501000598,None,,,,,,,,,,,,,,,,,,,,,,,,,,,,,,,,,,,,,,,,,,,,,,,,,,,,,,,,,dress,48,129,silent,old,red,1220.4035201994702,None,y,1220.4035201994702,None,"['y', 'return']","[3.1547082997858524, 3.298565600067377]",1220.4035201994702,None,,,41,001,2023_Apr_17_1152,ExactRep-v3-final,2021.2.3,59.94510209475323,
,,,,,,,,,,,,129,0,129,0,,,,,,,,,,,,,,,,,,,,,,,,,,,,,,,,,,,,,,,,,,,,,,,,,1227.574097099714,None,,,,,,,,,,,,,,,,,,,,,,,,,,,,,,,,,,,,,,,,,,,,,,,,,,,,,,,,,beast,44,130,silent,old,red,1224.2490603998303,None,y,1224.2490603998303,None,"['y', 'return']","[3.157039100304246, 3.285128000192344]",1224.2490603998303,None,,,41,001,2023_Apr_17_1152,ExactRep-v3-final,2021.2.3,59.94510209475323,
,,,,,,,,,,,,130,0,130,0,,,,,,,,,,,,,,,,,,,,,,,,,,,,,,,,,,,,,,,,,,,,,,,,,1229.8596682995558,None,,,,,,,,,,,,,,,,,,,,,,,,,,,,,,,,,,,,,,,,,,,,,,,,,,,,,,,,,fortune,215,131,sing,new,blue,1228.0836573000997,None,n,1228.0836573000997,None,"['n', 'return']","[1.6345207998529077, 1.7306156000122428]",1228.0836573000997,None,,,41,001,2023_Apr_17_1152,ExactRep-v3-final,2021.2.3,59.94510209475323,
,,,,,,,,,,,,131,0,131,0,,,,,,,,,,,,,,,,,,,,,,,,,,,,,,,,,,,,,,,,,,,,,,,,,1231.5113124996424,None,,,,,,,,,,,,,,,,,,,,,,,,,,,,,,,,,,,,,,,,,,,,,,,,,,,,,,,,,moral,208,132,aloud,new,white,1230.3713424997404,None,n,1230.3713424997404,None,"['n', 'return']","[0.9388832999393344, 1.0988814998418093]",1230.3713424997404,None,,,41,001,2023_Apr_17_1152,ExactRep-v3-final,2021.2.3,59.94510209475323,
,,,,,,,,,,,,132,0,132,0,,,,,,,,,,,,,,,,,,,,,,,,,,,,,,,,,,,,,,,,,,,,,,,,,1234.3975310996175,None,,,,,,,,,,,,,,,,,,,,,,,,,,,,,,,,,,,,,,,,,,,,,,,,,,,,,,,,,paper,17,133,sing,old,blue,1232.0215956997126,None,n,1232.0215956997126,None,"['n', 'return']","[2.1685751993209124, 2.336605899967253]",1232.0215956997126,None,,,41,001,2023_Apr_17_1152,ExactRep-v3-final,2021.2.3,59.94510209475323,
