trials_fam.thisRepN,trials_fam.thisTrialN,trials_fam.thisN,trials_fam.thisIndex,trials_prc.thisRepN,trials_prc.thisTrialN,trials_prc.thisN,trials_prc.thisIndex,StudyLoop.thisRepN,StudyLoop.thisTrialN,StudyLoop.thisN,StudyLoop.thisIndex,TestLoop.thisRepN,TestLoop.thisTrialN,TestLoop.thisN,TestLoop.thisIndex,text_colortest.started,text_colortest.stopped,key_colortest.keys,key_colortest.rt,key_colortest.started,key_colortest.stopped,textCondition.started,textCondition.stopped,keyCondition.keys,keyCondition.rt,keyCondition.started,keyCondition.stopped,Condition_between,Condition_counterbal,keyWelcome.keys,keyWelcome.rt,keyWelcome.started,keyWelcome.stopped,welcome_a.started,welcome_a.stopped,welcome_b.started,welcome_b.stopped,welcome_c.started,welcome_c.stopped,welcome_d.started,welcome_d.stopped,welcome_e.started,welcome_e.stopped,welcome_f.started,welcome_f.stopped,key_resp_fam_inst.keys,key_resp_fam_inst.rt,key_resp_fam_inst.started,key_resp_fam_inst.stopped,fam_a.started,fam_a.stopped,fam_b.started,fam_b.stopped,fam_c.started,fam_c.stopped,fam_d.started,fam_d.stopped,fam_e.started,fam_e.stopped,fam_f.started,fam_f.stopped,text_famil.started,text_famil.stopped,textBlank500.started,textBlank500.stopped,key_resp_prc_inst.keys,key_resp_prc_inst.rt,key_resp_prc_inst.started,key_resp_prc_inst.stopped,prac_a.started,prac_a.stopped,prac_b.started,prac_b.stopped,prac_c.started,prac_c.stopped,prac_d.started,prac_d.stopped,prac_e.started,prac_e.stopped,prac_f.started,prac_f.stopped,text_prc_trial.started,text_prc_trial.stopped,key_resp_study_inst.keys,key_resp_study_inst.rt,key_resp_study_inst.started,key_resp_study_inst.stopped,crit_a.started,crit_a.stopped,crit_b.started,crit_b.stopped,crit_c.started,crit_c.stopped,crit_d.started,crit_d.stopped,crit_e.started,crit_e.stopped,crit_f.started,crit_f.stopped,study_word,study_num,study_order,study_type,word_color,textStudy.started,textStudy.stopped,keyStudy.keys,keyStudy.started,keyStudy.stopped,post_study.started,post_study.stopped,key_resp_post_study.keys,key_resp_post_study.rt,key_resp_post_study.started,key_resp_post_study.stopped,test_inst.started,test_inst.stopped,key_resp_test_inst.keys,key_resp_test_inst.rt,key_resp_test_inst.started,key_resp_test_inst.stopped,test_word,test_num,test_order,test_condition,old_new_test,word_color_test,textConf.started,textConf.stopped,Participant Response,textInput.started,textInput.stopped,keyResp.keys,keyResp.rt,keyResp.started,keyResp.stopped,textEnd.started,textEnd.stopped,participant,session,date,expName,psychopyVersion,frameRate,
,,,,,,,,,,,,,,,,16.034934899769723,None,y,2.834126800298691,16.034934899769723,None,,,,,,,,,,,,,,,,,,,,,,,,,,,,,,,,,,,,,,,,,,,,,,,,,,,,,,,,,,,,,,,,,,,,,,,,,,,,,,,,,,,,,,,,,,,,,,,,,,,,,,,,,,,,,,,,,,,,,,42,001,2023_Apr_17_1321,ExactRep-v3-final,2021.2.3,59.9306243949019,
,,,,,,,,,,,,,,,,,,,,,,18.887313399463892,None,f,0.5097754998132586,18.887313399463892,None,,,,,,,,,,,,,,,,,,,,,,,,,,,,,,,,,,,,,,,,,,,,,,,,,,,,,,,,,,,,,,,,,,,,,,,,,,,,,,,,,,,,,,,,,,,,,,,,,,,,,,,,,,,,,,,,42,001,2023_Apr_17_1321,ExactRep-v3-final,2021.2.3,59.9306243949019,
,,,,,,,,,,,,,,,,,,,,,,,,,,,,colorfoils,f,space,868.4763315003365,29.54539390001446,None,,,,,,,,,,,,,,,,,,,,,,,,,,,,,,,,,,,,,,,,,,,,,,,,,,,,,,,,,,,,,,,,,,,,,,,,,,,,,,,,,,,,,,,,,,,,,,,,,,,,,,,,,,42,001,2023_Apr_17_1321,ExactRep-v3-final,2021.2.3,59.9306243949019,
,,,,,,,,,,,,,,,,,,,,,,,,,,,,,,,,,,19.571283100172877,None,19.571283100172877,None,19.571283100172877,None,19.571283100172877,None,19.571283100172877,None,19.571283100172877,None,space,18.65459970012307,908.1754788001999,None,,,,,,,,,,,,,,,,,,,,,,,,,,,,,,,,,,,,,,,,,,,,,,,,,,,,,,,,,,,,,,,,,,,,,,,,,,,,,,,,,,,,,,,,,,42,001,2023_Apr_17_1321,ExactRep-v3-final,2021.2.3,59.9306243949019,
0,0,0,0,,,,,,,,,,,,,,,,,,,,,,,,,,,,,,,,,,,,,,,,,,,,,,,898.2047777995467,None,898.2047777995467,None,898.2047777995467,None,898.2047777995467,None,898.2047777995467,None,898.2047777995467,None,926.9062888994813,None,928.9145364994183,None,,,,,,,,,,,,,,,,,,,,,,,,,,,,,,,,,,,,,,,,,,,,,,,,,,,,,,,,,,,,,,,,,,,,,,,,,,42,001,2023_Apr_17_1321,ExactRep-v3-final,2021.2.3,59.9306243949019,
1,0,1,0,,,,,,,,,,,,,,,,,,,,,,,,,,,,,,,,,,,,,,,,,,,,,,,,,,,,,,,,,,,929.4147621002048,None,931.4168525999412,None,,,,,,,,,,,,,,,,,,,,,,,,,,,,,,,,,,,,,,,,,,,,,,,,,,,,,,,,,,,,,,,,,,,,,,,,,,42,001,2023_Apr_17_1321,ExactRep-v3-final,2021.2.3,59.9306243949019,
2,0,2,0,,,,,,,,,,,,,,,,,,,,,,,,,,,,,,,,,,,,,,,,,,,,,,,,,,,,,,,,,,,931.9540171995759,None,933.9357925001532,None,,,,,,,,,,,,,,,,,,,,,,,,,,,,,,,,,,,,,,,,,,,,,,,,,,,,,,,,,,,,,,,,,,,,,,,,,,42,001,2023_Apr_17_1321,ExactRep-v3-final,2021.2.3,59.9306243949019,
3,0,3,0,,,,,,,,,,,,,,,,,,,,,,,,,,,,,,,,,,,,,,,,,,,,,,,,,,,,,,,,,,,934.459652800113,None,936.4554051002488,None,,,,,,,,,,,,,,,,,,,,,,,,,,,,,,,,,,,,,,,,,,,,,,,,,,,,,,,,,,,,,,,,,,,,,,,,,,42,001,2023_Apr_17_1321,ExactRep-v3-final,2021.2.3,59.9306243949019,
4,0,4,0,,,,,,,,,,,,,,,,,,,,,,,,,,,,,,,,,,,,,,,,,,,,,,,,,,,,,,,,,,,936.955648499541,None,938.9575169999152,None,,,,,,,,,,,,,,,,,,,,,,,,,,,,,,,,,,,,,,,,,,,,,,,,,,,,,,,,,,,,,,,,,,,,,,,,,,42,001,2023_Apr_17_1321,ExactRep-v3-final,2021.2.3,59.9306243949019,
5,0,5,0,,,,,,,,,,,,,,,,,,,,,,,,,,,,,,,,,,,,,,,,,,,,,,,,,,,,,,,,,,,939.4582211002707,None,941.4600871000439,None,,,,,,,,,,,,,,,,,,,,,,,,,,,,,,,,,,,,,,,,,,,,,,,,,,,,,,,,,,,,,,,,,,,,,,,,,,42,001,2023_Apr_17_1321,ExactRep-v3-final,2021.2.3,59.9306243949019,
6,0,6,0,,,,,,,,,,,,,,,,,,,,,,,,,,,,,,,,,,,,,,,,,,,,,,,,,,,,,,,,,,,941.9609003001824,None,943.9625092996284,None,,,,,,,,,,,,,,,,,,,,,,,,,,,,,,,,,,,,,,,,,,,,,,,,,,,,,,,,,,,,,,,,,,,,,,,,,,42,001,2023_Apr_17_1321,ExactRep-v3-final,2021.2.3,59.9306243949019,
7,0,7,0,,,,,,,,,,,,,,,,,,,,,,,,,,,,,,,,,,,,,,,,,,,,,,,,,,,,,,,,,,,944.4631786998361,None,946.4652712997049,None,,,,,,,,,,,,,,,,,,,,,,,,,,,,,,,,,,,,,,,,,,,,,,,,,,,,,,,,,,,,,,,,,,,,,,,,,,42,001,2023_Apr_17_1321,ExactRep-v3-final,2021.2.3,59.9306243949019,
8,0,8,0,,,,,,,,,,,,,,,,,,,,,,,,,,,,,,,,,,,,,,,,,,,,,,,,,,,,,,,,,,,946.9725778000429,None,948.9841300994158,None,,,,,,,,,,,,,,,,,,,,,,,,,,,,,,,,,,,,,,,,,,,,,,,,,,,,,,,,,,,,,,,,,,,,,,,,,,42,001,2023_Apr_17_1321,ExactRep-v3-final,2021.2.3,59.9306243949019,
9,0,9,0,,,,,,,,,,,,,,,,,,,,,,,,,,,,,,,,,,,,,,,,,,,,,,,,,,,,,,,,,,,949.4888511002064,None,951.5035643000156,None,,,,,,,,,,,,,,,,,,,,,,,,,,,,,,,,,,,,,,,,,,,,,,,,,,,,,,,,,,,,,,,,,,,,,,,,,,42,001,2023_Apr_17_1321,ExactRep-v3-final,2021.2.3,59.9306243949019,
10,0,10,0,,,,,,,,,,,,,,,,,,,,,,,,,,,,,,,,,,,,,,,,,,,,,,,,,,,,,,,,,,,952.0039575994015,None,954.0061751995236,None,,,,,,,,,,,,,,,,,,,,,,,,,,,,,,,,,,,,,,,,,,,,,,,,,,,,,,,,,,,,,,,,,,,,,,,,,,42,001,2023_Apr_17_1321,ExactRep-v3-final,2021.2.3,59.9306243949019,
11,0,11,0,,,,,,,,,,,,,,,,,,,,,,,,,,,,,,,,,,,,,,,,,,,,,,,,,,,,,,,,,,,954.5109796002507,None,956.5254464996979,None,,,,,,,,,,,,,,,,,,,,,,,,,,,,,,,,,,,,,,,,,,,,,,,,,,,,,,,,,,,,,,,,,,,,,,,,,,42,001,2023_Apr_17_1321,ExactRep-v3-final,2021.2.3,59.9306243949019,
12,0,12,0,,,,,,,,,,,,,,,,,,,,,,,,,,,,,,,,,,,,,,,,,,,,,,,,,,,,,,,,,,,957.0322492001578,None,959.044499299489,None,,,,,,,,,,,,,,,,,,,,,,,,,,,,,,,,,,,,,,,,,,,,,,,,,,,,,,,,,,,,,,,,,,,,,,,,,,42,001,2023_Apr_17_1321,ExactRep-v3-final,2021.2.3,59.9306243949019,
13,0,13,0,,,,,,,,,,,,,,,,,,,,,,,,,,,,,,,,,,,,,,,,,,,,,,,,,,,,,,,,,,,959.5457234997302,None,961.5471013998613,None,,,,,,,,,,,,,,,,,,,,,,,,,,,,,,,,,,,,,,,,,,,,,,,,,,,,,,,,,,,,,,,,,,,,,,,,,,42,001,2023_Apr_17_1321,ExactRep-v3-final,2021.2.3,59.9306243949019,
14,0,14,0,,,,,,,,,,,,,,,,,,,,,,,,,,,,,,,,,,,,,,,,,,,,,,,,,,,,,,,,,,,962.0560595002025,None,964.06601030007,None,,,,,,,,,,,,,,,,,,,,,,,,,,,,,,,,,,,,,,,,,,,,,,,,,,,,,,,,,,,,,,,,,,,,,,,,,,42,001,2023_Apr_17_1321,ExactRep-v3-final,2021.2.3,59.9306243949019,
,,,,,,,,,,,,,,,,,,,,,,,,,,,,,,,,,,,,,,,,,,,,,,,,,,,,,,,,,,,,,,,,,,space,33.57208780013025,974.6821548994631,None,,,,,,,,,,,,,,,,,,,,,,,,,,,,,,,,,,,,,,,,,,,,,,,,,,,,,,,,,,,,,,,,,,,,,,42,001,2023_Apr_17_1321,ExactRep-v3-final,2021.2.3,59.9306243949019,
,,,,0,0,0,0,,,,,,,,,,,,,,,,,,,,,,,,,,,,,,,,,,,,,,,,,,,,,,,,,,,,,,,,,1010.3289320999756,None,,,,,964.7250725002959,None,964.7250725002959,None,964.7250725002959,None,964.7250725002959,None,964.7250725002959,None,964.7250725002959,None,1008.3175579998642,None,,,,,,,,,,,,,,,,,,,,,,,,,,,,,,,,,,,,,,,,,,,,,,,,,,,,,,,,42,001,2023_Apr_17_1321,ExactRep-v3-final,2021.2.3,59.9306243949019,
,,,,1,0,1,0,,,,,,,,,,,,,,,,,,,,,,,,,,,,,,,,,,,,,,,,,,,,,,,,,,,,,,,,,1012.8317761002108,None,,,,,,,,,,,,,,,,,1010.8293798994273,None,,,,,,,,,,,,,,,,,,,,,,,,,,,,,,,,,,,,,,,,,,,,,,,,,,,,,,,,42,001,2023_Apr_17_1321,ExactRep-v3-final,2021.2.3,59.9306243949019,
,,,,2,0,2,0,,,,,,,,,,,,,,,,,,,,,,,,,,,,,,,,,,,,,,,,,,,,,,,,,,,,,,,,,1015.3342309994623,None,,,,,,,,,,,,,,,,,1013.3322840994224,None,,,,,,,,,,,,,,,,,,,,,,,,,,,,,,,,,,,,,,,,,,,,,,,,,,,,,,,,42,001,2023_Apr_17_1321,ExactRep-v3-final,2021.2.3,59.9306243949019,
,,,,3,0,3,0,,,,,,,,,,,,,,,,,,,,,,,,,,,,,,,,,,,,,,,,,,,,,,,,,,,,,,,,,1017.8366594994441,None,,,,,,,,,,,,,,,,,1015.8346148999408,None,,,,,,,,,,,,,,,,,,,,,,,,,,,,,,,,,,,,,,,,,,,,,,,,,,,,,,,,42,001,2023_Apr_17_1321,ExactRep-v3-final,2021.2.3,59.9306243949019,
,,,,4,0,4,0,,,,,,,,,,,,,,,,,,,,,,,,,,,,,,,,,,,,,,,,,,,,,,,,,,,,,,,,,1020.3389624999836,None,,,,,,,,,,,,,,,,,1018.3369611995295,None,,,,,,,,,,,,,,,,,,,,,,,,,,,,,,,,,,,,,,,,,,,,,,,,,,,,,,,,42,001,2023_Apr_17_1321,ExactRep-v3-final,2021.2.3,59.9306243949019,
,,,,5,0,5,0,,,,,,,,,,,,,,,,,,,,,,,,,,,,,,,,,,,,,,,,,,,,,,,,,,,,,,,,,1022.8416587002575,None,,,,,,,,,,,,,,,,,1020.8397329999134,None,,,,,,,,,,,,,,,,,,,,,,,,,,,,,,,,,,,,,,,,,,,,,,,,,,,,,,,,42,001,2023_Apr_17_1321,ExactRep-v3-final,2021.2.3,59.9306243949019,
,,,,6,0,6,0,,,,,,,,,,,,,,,,,,,,,,,,,,,,,,,,,,,,,,,,,,,,,,,,,,,,,,,,,1025.3440378997475,None,,,,,,,,,,,,,,,,,1023.3420383995399,None,,,,,,,,,,,,,,,,,,,,,,,,,,,,,,,,,,,,,,,,,,,,,,,,,,,,,,,,42,001,2023_Apr_17_1321,ExactRep-v3-final,2021.2.3,59.9306243949019,
,,,,7,0,7,0,,,,,,,,,,,,,,,,,,,,,,,,,,,,,,,,,,,,,,,,,,,,,,,,,,,,,,,,,1027.8464583000168,None,,,,,,,,,,,,,,,,,1025.8445344995707,None,,,,,,,,,,,,,,,,,,,,,,,,,,,,,,,,,,,,,,,,,,,,,,,,,,,,,,,,42,001,2023_Apr_17_1321,ExactRep-v3-final,2021.2.3,59.9306243949019,
,,,,8,0,8,0,,,,,,,,,,,,,,,,,,,,,,,,,,,,,,,,,,,,,,,,,,,,,,,,,,,,,,,,,1030.3492972999811,None,,,,,,,,,,,,,,,,,1028.346993399784,None,,,,,,,,,,,,,,,,,,,,,,,,,,,,,,,,,,,,,,,,,,,,,,,,,,,,,,,,42,001,2023_Apr_17_1321,ExactRep-v3-final,2021.2.3,59.9306243949019,
,,,,9,0,9,0,,,,,,,,,,,,,,,,,,,,,,,,,,,,,,,,,,,,,,,,,,,,,,,,,,,,,,,,,1032.851636099629,None,,,,,,,,,,,,,,,,,1030.849552099593,None,,,,,,,,,,,,,,,,,,,,,,,,,,,,,,,,,,,,,,,,,,,,,,,,,,,,,,,,42,001,2023_Apr_17_1321,ExactRep-v3-final,2021.2.3,59.9306243949019,
,,,,10,0,10,0,,,,,,,,,,,,,,,,,,,,,,,,,,,,,,,,,,,,,,,,,,,,,,,,,,,,,,,,,1035.3541852002963,None,,,,,,,,,,,,,,,,,1033.3519578995183,None,,,,,,,,,,,,,,,,,,,,,,,,,,,,,,,,,,,,,,,,,,,,,,,,,,,,,,,,42,001,2023_Apr_17_1321,ExactRep-v3-final,2021.2.3,59.9306243949019,
,,,,11,0,11,0,,,,,,,,,,,,,,,,,,,,,,,,,,,,,,,,,,,,,,,,,,,,,,,,,,,,,,,,,1037.8562137000263,None,,,,,,,,,,,,,,,,,1035.854756699875,None,,,,,,,,,,,,,,,,,,,,,,,,,,,,,,,,,,,,,,,,,,,,,,,,,,,,,,,,42,001,2023_Apr_17_1321,ExactRep-v3-final,2021.2.3,59.9306243949019,
,,,,12,0,12,0,,,,,,,,,,,,,,,,,,,,,,,,,,,,,,,,,,,,,,,,,,,,,,,,,,,,,,,,,1040.3591700997204,None,,,,,,,,,,,,,,,,,1038.35721320007,None,,,,,,,,,,,,,,,,,,,,,,,,,,,,,,,,,,,,,,,,,,,,,,,,,,,,,,,,42,001,2023_Apr_17_1321,ExactRep-v3-final,2021.2.3,59.9306243949019,
,,,,13,0,13,0,,,,,,,,,,,,,,,,,,,,,,,,,,,,,,,,,,,,,,,,,,,,,,,,,,,,,,,,,1042.861764700152,None,,,,,,,,,,,,,,,,,1040.8597056996077,None,,,,,,,,,,,,,,,,,,,,,,,,,,,,,,,,,,,,,,,,,,,,,,,,,,,,,,,,42,001,2023_Apr_17_1321,ExactRep-v3-final,2021.2.3,59.9306243949019,
,,,,14,0,14,0,,,,,,,,,,,,,,,,,,,,,,,,,,,,,,,,,,,,,,,,,,,,,,,,,,,,,,,,,1045.3641641000286,None,,,,,,,,,,,,,,,,,1043.362276699394,None,,,,,,,,,,,,,,,,,,,,,,,,,,,,,,,,,,,,,,,,,,,,,,,,,,,,,,,,42,001,2023_Apr_17_1321,ExactRep-v3-final,2021.2.3,59.9306243949019,
,,,,,,,,,,,,,,,,,,,,,,,,,,,,,,,,,,,,,,,,,,,,,,,,,,,,,,,,,,,,,,,,,,,,,,,,,,,,,,,,,,,,space,27.334923800081015,1055.9910399001092,None,,,,,,,,,,,,,,,,,,,,,,,,,,,,,,,,,,,,,,,,,,,,,,,,,,,,42,001,2023_Apr_17_1321,ExactRep-v3-final,2021.2.3,59.9306243949019,
,,,,,,,,0,0,0,0,,,,,,,,,,,,,,,,,,,,,,,,,,,,,,,,,,,,,,,,,,,,,,,,,,,,,1085.4208135996014,None,,,,,,,,,,,,,,,,,,,,,,,1046.03327250015,None,1046.03327250015,None,1046.03327250015,None,1046.03327250015,None,1046.03327250015,None,1046.03327250015,None,history,2,1,sing,red,1083.4115779995918,None,None,1083.4115779995918,None,,,,,,,,,,,,,,,,,,,,,,,,,,,,,,42,001,2023_Apr_17_1321,ExactRep-v3-final,2021.2.3,59.9306243949019,
,,,,,,,,1,0,1,0,,,,,,,,,,,,,,,,,,,,,,,,,,,,,,,,,,,,,,,,,,,,,,,,,,,,,1087.923159999773,None,,,,,,,,,,,,,,,,,,,,,,,,,,,,,,,,,,,cost,103,2,aloud,white,1085.922161099501,None,None,1085.922161099501,None,,,,,,,,,,,,,,,,,,,,,,,,,,,,,,42,001,2023_Apr_17_1321,ExactRep-v3-final,2021.2.3,59.9306243949019,
,,,,,,,,2,0,2,0,,,,,,,,,,,,,,,,,,,,,,,,,,,,,,,,,,,,,,,,,,,,,,,,,,,,,1090.4258679999039,None,,,,,,,,,,,,,,,,,,,,,,,,,,,,,,,,,,,teacher,25,3,sing,red,1088.4237444000319,None,None,1088.4237444000319,None,,,,,,,,,,,,,,,,,,,,,,,,,,,,,,42,001,2023_Apr_17_1321,ExactRep-v3-final,2021.2.3,59.9306243949019,
,,,,,,,,3,0,3,0,,,,,,,,,,,,,,,,,,,,,,,,,,,,,,,,,,,,,,,,,,,,,,,,,,,,,1092.9449966996908,None,,,,,,,,,,,,,,,,,,,,,,,,,,,,,,,,,,,justice,1,4,sing,red,1090.9320267997682,None,None,1090.9320267997682,None,,,,,,,,,,,,,,,,,,,,,,,,,,,,,,42,001,2023_Apr_17_1321,ExactRep-v3-final,2021.2.3,59.9306243949019,
,,,,,,,,4,0,4,0,,,,,,,,,,,,,,,,,,,,,,,,,,,,,,,,,,,,,,,,,,,,,,,,,,,,,1095.4474269002676,None,,,,,,,,,,,,,,,,,,,,,,,,,,,,,,,,,,,hall,68,5,silent,blue,1093.4464325001463,None,None,1093.4464325001463,None,,,,,,,,,,,,,,,,,,,,,,,,,,,,,,42,001,2023_Apr_17_1321,ExactRep-v3-final,2021.2.3,59.9306243949019,
,,,,,,,,5,0,5,0,,,,,,,,,,,,,,,,,,,,,,,,,,,,,,,,,,,,,,,,,,,,,,,,,,,,,1097.9666181998327,None,,,,,,,,,,,,,,,,,,,,,,,,,,,,,,,,,,,picture,92,6,aloud,white,1095.9604517994449,None,None,1095.9604517994449,None,,,,,,,,,,,,,,,,,,,,,,,,,,,,,,42,001,2023_Apr_17_1321,ExactRep-v3-final,2021.2.3,59.9306243949019,
,,,,,,,,6,0,6,0,,,,,,,,,,,,,,,,,,,,,,,,,,,,,,,,,,,,,,,,,,,,,,,,,,,,,1100.4690637998283,None,,,,,,,,,,,,,,,,,,,,,,,,,,,,,,,,,,,poet,50,7,silent,blue,1098.4671006994322,None,None,1098.4671006994322,None,,,,,,,,,,,,,,,,,,,,,,,,,,,,,,42,001,2023_Apr_17_1321,ExactRep-v3-final,2021.2.3,59.9306243949019,
,,,,,,,,7,0,7,0,,,,,,,,,,,,,,,,,,,,,,,,,,,,,,,,,,,,,,,,,,,,,,,,,,,,,1102.9716649996117,None,,,,,,,,,,,,,,,,,,,,,,,,,,,,,,,,,,,truth,28,8,sing,red,1100.971149799414,None,None,1100.971149799414,None,,,,,,,,,,,,,,,,,,,,,,,,,,,,,,42,001,2023_Apr_17_1321,ExactRep-v3-final,2021.2.3,59.9306243949019,
,,,,,,,,8,0,8,0,,,,,,,,,,,,,,,,,,,,,,,,,,,,,,,,,,,,,,,,,,,,,,,,,,,,,1105.4908199002966,None,,,,,,,,,,,,,,,,,,,,,,,,,,,,,,,,,,,chief,81,9,aloud,white,1103.481731900014,None,None,1103.481731900014,None,,,,,,,,,,,,,,,,,,,,,,,,,,,,,,42,001,2023_Apr_17_1321,ExactRep-v3-final,2021.2.3,59.9306243949019,
,,,,,,,,9,0,9,0,,,,,,,,,,,,,,,,,,,,,,,,,,,,,,,,,,,,,,,,,,,,,,,,,,,,,1108.0098586995155,None,,,,,,,,,,,,,,,,,,,,,,,,,,,,,,,,,,,excuse,62,10,silent,blue,1105.9975884994492,None,None,1105.9975884994492,None,,,,,,,,,,,,,,,,,,,,,,,,,,,,,,42,001,2023_Apr_17_1321,ExactRep-v3-final,2021.2.3,59.9306243949019,
,,,,,,,,10,0,10,0,,,,,,,,,,,,,,,,,,,,,,,,,,,,,,,,,,,,,,,,,,,,,,,,,,,,,1110.5293300002813,None,,,,,,,,,,,,,,,,,,,,,,,,,,,,,,,,,,,cabin,97,11,aloud,white,1108.5182342994958,None,None,1108.5182342994958,None,,,,,,,,,,,,,,,,,,,,,,,,,,,,,,42,001,2023_Apr_17_1321,ExactRep-v3-final,2021.2.3,59.9306243949019,
,,,,,,,,11,0,11,0,,,,,,,,,,,,,,,,,,,,,,,,,,,,,,,,,,,,,,,,,,,,,,,,,,,,,1113.0482868002728,None,,,,,,,,,,,,,,,,,,,,,,,,,,,,,,,,,,,ocean,109,12,aloud,white,1111.0327530996874,None,None,1111.0327530996874,None,,,,,,,,,,,,,,,,,,,,,,,,,,,,,,42,001,2023_Apr_17_1321,ExactRep-v3-final,2021.2.3,59.9306243949019,
,,,,,,,,12,0,12,0,,,,,,,,,,,,,,,,,,,,,,,,,,,,,,,,,,,,,,,,,,,,,,,,,,,,,1115.5507840001956,None,,,,,,,,,,,,,,,,,,,,,,,,,,,,,,,,,,,beast,37,13,sing,red,1113.5510767996311,None,None,1113.5510767996311,None,,,,,,,,,,,,,,,,,,,,,,,,,,,,,,42,001,2023_Apr_17_1321,ExactRep-v3-final,2021.2.3,59.9306243949019,
,,,,,,,,13,0,13,0,,,,,,,,,,,,,,,,,,,,,,,,,,,,,,,,,,,,,,,,,,,,,,,,,,,,,1118.0701679997146,None,,,,,,,,,,,,,,,,,,,,,,,,,,,,,,,,,,,moment,117,14,aloud,white,1116.0659774001688,None,None,1116.0659774001688,None,,,,,,,,,,,,,,,,,,,,,,,,,,,,,,42,001,2023_Apr_17_1321,ExactRep-v3-final,2021.2.3,59.9306243949019,
,,,,,,,,14,0,14,0,,,,,,,,,,,,,,,,,,,,,,,,,,,,,,,,,,,,,,,,,,,,,,,,,,,,,1120.5726788993925,None,,,,,,,,,,,,,,,,,,,,,,,,,,,,,,,,,,,chance,114,15,aloud,white,1118.5708806999028,None,None,1118.5708806999028,None,,,,,,,,,,,,,,,,,,,,,,,,,,,,,,42,001,2023_Apr_17_1321,ExactRep-v3-final,2021.2.3,59.9306243949019,
,,,,,,,,15,0,15,0,,,,,,,,,,,,,,,,,,,,,,,,,,,,,,,,,,,,,,,,,,,,,,,,,,,,,1123.074907399714,None,,,,,,,,,,,,,,,,,,,,,,,,,,,,,,,,,,,camp,3,16,sing,red,1121.074870900251,None,None,1121.074870900251,None,,,,,,,,,,,,,,,,,,,,,,,,,,,,,,42,001,2023_Apr_17_1321,ExactRep-v3-final,2021.2.3,59.9306243949019,
,,,,,,,,16,0,16,0,,,,,,,,,,,,,,,,,,,,,,,,,,,,,,,,,,,,,,,,,,,,,,,,,,,,,1125.577555499971,None,,,,,,,,,,,,,,,,,,,,,,,,,,,,,,,,,,,gold,64,17,silent,blue,1123.575631099753,None,None,1123.575631099753,None,,,,,,,,,,,,,,,,,,,,,,,,,,,,,,42,001,2023_Apr_17_1321,ExactRep-v3-final,2021.2.3,59.9306243949019,
,,,,,,,,17,0,17,0,,,,,,,,,,,,,,,,,,,,,,,,,,,,,,,,,,,,,,,,,,,,,,,,,,,,,1128.0801785998046,None,,,,,,,,,,,,,,,,,,,,,,,,,,,,,,,,,,,star,10,18,sing,red,1126.077988599427,None,None,1126.077988599427,None,,,,,,,,,,,,,,,,,,,,,,,,,,,,,,42,001,2023_Apr_17_1321,ExactRep-v3-final,2021.2.3,59.9306243949019,
,,,,,,,,18,0,18,0,,,,,,,,,,,,,,,,,,,,,,,,,,,,,,,,,,,,,,,,,,,,,,,,,,,,,1130.5826949998736,None,,,,,,,,,,,,,,,,,,,,,,,,,,,,,,,,,,,coin,84,19,aloud,white,1128.5828622002155,None,None,1128.5828622002155,None,,,,,,,,,,,,,,,,,,,,,,,,,,,,,,42,001,2023_Apr_17_1321,ExactRep-v3-final,2021.2.3,59.9306243949019,
,,,,,,,,19,0,19,0,,,,,,,,,,,,,,,,,,,,,,,,,,,,,,,,,,,,,,,,,,,,,,,,,,,,,1133.0851509002969,None,,,,,,,,,,,,,,,,,,,,,,,,,,,,,,,,,,,person,57,20,silent,blue,1131.0861392002553,None,None,1131.0861392002553,None,,,,,,,,,,,,,,,,,,,,,,,,,,,,,,42,001,2023_Apr_17_1321,ExactRep-v3-final,2021.2.3,59.9306243949019,
,,,,,,,,20,0,20,0,,,,,,,,,,,,,,,,,,,,,,,,,,,,,,,,,,,,,,,,,,,,,,,,,,,,,1135.6044101994485,None,,,,,,,,,,,,,,,,,,,,,,,,,,,,,,,,,,,avenue,99,21,aloud,white,1133.5910120001063,None,None,1133.5910120001063,None,,,,,,,,,,,,,,,,,,,,,,,,,,,,,,42,001,2023_Apr_17_1321,ExactRep-v3-final,2021.2.3,59.9306243949019,
,,,,,,,,21,0,21,0,,,,,,,,,,,,,,,,,,,,,,,,,,,,,,,,,,,,,,,,,,,,,,,,,,,,,1138.1069208001718,None,,,,,,,,,,,,,,,,,,,,,,,,,,,,,,,,,,,iron,95,22,aloud,white,1136.1071568001062,None,None,1136.1071568001062,None,,,,,,,,,,,,,,,,,,,,,,,,,,,,,,42,001,2023_Apr_17_1321,ExactRep-v3-final,2021.2.3,59.9306243949019,
,,,,,,,,22,0,22,0,,,,,,,,,,,,,,,,,,,,,,,,,,,,,,,,,,,,,,,,,,,,,,,,,,,,,1140.6262227995321,None,,,,,,,,,,,,,,,,,,,,,,,,,,,,,,,,,,,sugar,31,23,sing,red,1138.6132378000766,None,None,1138.6132378000766,None,,,,,,,,,,,,,,,,,,,,,,,,,,,,,,42,001,2023_Apr_17_1321,ExactRep-v3-final,2021.2.3,59.9306243949019,
,,,,,,,,23,0,23,0,,,,,,,,,,,,,,,,,,,,,,,,,,,,,,,,,,,,,,,,,,,,,,,,,,,,,1143.1453114999458,None,,,,,,,,,,,,,,,,,,,,,,,,,,,,,,,,,,,bowl,78,24,silent,blue,1141.1294563002884,None,None,1141.1294563002884,None,,,,,,,,,,,,,,,,,,,,,,,,,,,,,,42,001,2023_Apr_17_1321,ExactRep-v3-final,2021.2.3,59.9306243949019,
,,,,,,,,24,0,24,0,,,,,,,,,,,,,,,,,,,,,,,,,,,,,,,,,,,,,,,,,,,,,,,,,,,,,1145.6474083000794,None,,,,,,,,,,,,,,,,,,,,,,,,,,,,,,,,,,,earth,108,25,aloud,white,1143.645608799532,None,None,1143.645608799532,None,,,,,,,,,,,,,,,,,,,,,,,,,,,,,,42,001,2023_Apr_17_1321,ExactRep-v3-final,2021.2.3,59.9306243949019,
,,,,,,,,25,0,25,0,,,,,,,,,,,,,,,,,,,,,,,,,,,,,,,,,,,,,,,,,,,,,,,,,,,,,1148.1502419002354,None,,,,,,,,,,,,,,,,,,,,,,,,,,,,,,,,,,,shoes,94,26,aloud,white,1146.1483173994347,None,None,1146.1483173994347,None,,,,,,,,,,,,,,,,,,,,,,,,,,,,,,42,001,2023_Apr_17_1321,ExactRep-v3-final,2021.2.3,59.9306243949019,
,,,,,,,,26,0,26,0,,,,,,,,,,,,,,,,,,,,,,,,,,,,,,,,,,,,,,,,,,,,,,,,,,,,,1150.6525243995711,None,,,,,,,,,,,,,,,,,,,,,,,,,,,,,,,,,,,wine,65,27,silent,blue,1148.652928300202,None,None,1148.652928300202,None,,,,,,,,,,,,,,,,,,,,,,,,,,,,,,42,001,2023_Apr_17_1321,ExactRep-v3-final,2021.2.3,59.9306243949019,
,,,,,,,,27,0,27,0,,,,,,,,,,,,,,,,,,,,,,,,,,,,,,,,,,,,,,,,,,,,,,,,,,,,,1153.1719170995057,None,,,,,,,,,,,,,,,,,,,,,,,,,,,,,,,,,,,owner,0,28,sing,red,1151.1565129999071,None,None,1151.1565129999071,None,,,,,,,,,,,,,,,,,,,,,,,,,,,,,,42,001,2023_Apr_17_1321,ExactRep-v3-final,2021.2.3,59.9306243949019,
,,,,,,,,28,0,28,0,,,,,,,,,,,,,,,,,,,,,,,,,,,,,,,,,,,,,,,,,,,,,,,,,,,,,1155.6910939998925,None,,,,,,,,,,,,,,,,,,,,,,,,,,,,,,,,,,,moral,51,29,silent,blue,1153.6863938001916,None,None,1153.6863938001916,None,,,,,,,,,,,,,,,,,,,,,,,,,,,,,,42,001,2023_Apr_17_1321,ExactRep-v3-final,2021.2.3,59.9306243949019,
,,,,,,,,29,0,29,0,,,,,,,,,,,,,,,,,,,,,,,,,,,,,,,,,,,,,,,,,,,,,,,,,,,,,1158.1936087999493,None,,,,,,,,,,,,,,,,,,,,,,,,,,,,,,,,,,,meadow,5,30,sing,red,1156.1938760997728,None,None,1156.1938760997728,None,,,,,,,,,,,,,,,,,,,,,,,,,,,,,,42,001,2023_Apr_17_1321,ExactRep-v3-final,2021.2.3,59.9306243949019,
,,,,,,,,30,0,30,0,,,,,,,,,,,,,,,,,,,,,,,,,,,,,,,,,,,,,,,,,,,,,,,,,,,,,1160.6959405001253,None,,,,,,,,,,,,,,,,,,,,,,,,,,,,,,,,,,,silence,19,31,sing,red,1158.696877299808,None,None,1158.696877299808,None,,,,,,,,,,,,,,,,,,,,,,,,,,,,,,42,001,2023_Apr_17_1321,ExactRep-v3-final,2021.2.3,59.9306243949019,
,,,,,,,,31,0,31,0,,,,,,,,,,,,,,,,,,,,,,,,,,,,,,,,,,,,,,,,,,,,,,,,,,,,,1163.198675999418,None,,,,,,,,,,,,,,,,,,,,,,,,,,,,,,,,,,,power,9,32,sing,red,1161.19955749996,None,None,1161.19955749996,None,,,,,,,,,,,,,,,,,,,,,,,,,,,,,,42,001,2023_Apr_17_1321,ExactRep-v3-final,2021.2.3,59.9306243949019,
,,,,,,,,32,0,32,0,,,,,,,,,,,,,,,,,,,,,,,,,,,,,,,,,,,,,,,,,,,,,,,,,,,,,1165.7009550994262,None,,,,,,,,,,,,,,,,,,,,,,,,,,,,,,,,,,,cash,15,33,sing,red,1163.7008370999247,None,None,1163.7008370999247,None,,,,,,,,,,,,,,,,,,,,,,,,,,,,,,42,001,2023_Apr_17_1321,ExactRep-v3-final,2021.2.3,59.9306243949019,
,,,,,,,,33,0,33,0,,,,,,,,,,,,,,,,,,,,,,,,,,,,,,,,,,,,,,,,,,,,,,,,,,,,,1168.2036341996863,None,,,,,,,,,,,,,,,,,,,,,,,,,,,,,,,,,,,hour,44,34,silent,blue,1166.203893800266,None,None,1166.203893800266,None,,,,,,,,,,,,,,,,,,,,,,,,,,,,,,42,001,2023_Apr_17_1321,ExactRep-v3-final,2021.2.3,59.9306243949019,
,,,,,,,,34,0,34,0,,,,,,,,,,,,,,,,,,,,,,,,,,,,,,,,,,,,,,,,,,,,,,,,,,,,,1170.7228180002421,None,,,,,,,,,,,,,,,,,,,,,,,,,,,,,,,,,,,breast,59,35,silent,blue,1168.7148995995522,None,None,1168.7148995995522,None,,,,,,,,,,,,,,,,,,,,,,,,,,,,,,42,001,2023_Apr_17_1321,ExactRep-v3-final,2021.2.3,59.9306243949019,
,,,,,,,,35,0,35,0,,,,,,,,,,,,,,,,,,,,,,,,,,,,,,,,,,,,,,,,,,,,,,,,,,,,,1173.2418627999723,None,,,,,,,,,,,,,,,,,,,,,,,,,,,,,,,,,,,boy,85,36,aloud,white,1171.2282221997157,None,None,1171.2282221997157,None,,,,,,,,,,,,,,,,,,,,,,,,,,,,,,42,001,2023_Apr_17_1321,ExactRep-v3-final,2021.2.3,59.9306243949019,
,,,,,,,,36,0,36,0,,,,,,,,,,,,,,,,,,,,,,,,,,,,,,,,,,,,,,,,,,,,,,,,,,,,,1175.7444236995652,None,,,,,,,,,,,,,,,,,,,,,,,,,,,,,,,,,,,spirit,72,37,silent,blue,1173.7448918996379,None,None,1173.7448918996379,None,,,,,,,,,,,,,,,,,,,,,,,,,,,,,,42,001,2023_Apr_17_1321,ExactRep-v3-final,2021.2.3,59.9306243949019,
,,,,,,,,37,0,37,0,,,,,,,,,,,,,,,,,,,,,,,,,,,,,,,,,,,,,,,,,,,,,,,,,,,,,1178.263691100292,None,,,,,,,,,,,,,,,,,,,,,,,,,,,,,,,,,,,clock,119,38,aloud,white,1176.2498802999035,None,None,1176.2498802999035,None,,,,,,,,,,,,,,,,,,,,,,,,,,,,,,42,001,2023_Apr_17_1321,ExactRep-v3-final,2021.2.3,59.9306243949019,
,,,,,,,,38,0,38,0,,,,,,,,,,,,,,,,,,,,,,,,,,,,,,,,,,,,,,,,,,,,,,,,,,,,,1180.7659633001313,None,,,,,,,,,,,,,,,,,,,,,,,,,,,,,,,,,,,idea,14,39,sing,red,1178.7664457997307,None,None,1178.7664457997307,None,,,,,,,,,,,,,,,,,,,,,,,,,,,,,,42,001,2023_Apr_17_1321,ExactRep-v3-final,2021.2.3,59.9306243949019,
,,,,,,,,39,0,39,0,,,,,,,,,,,,,,,,,,,,,,,,,,,,,,,,,,,,,,,,,,,,,,,,,,,,,1183.28528609965,None,,,,,,,,,,,,,,,,,,,,,,,,,,,,,,,,,,,seat,88,40,aloud,white,1181.273548600264,None,None,1181.273548600264,None,,,,,,,,,,,,,,,,,,,,,,,,,,,,,,42,001,2023_Apr_17_1321,ExactRep-v3-final,2021.2.3,59.9306243949019,
,,,,,,,,40,0,40,0,,,,,,,,,,,,,,,,,,,,,,,,,,,,,,,,,,,,,,,,,,,,,,,,,,,,,1185.8043766003102,None,,,,,,,,,,,,,,,,,,,,,,,,,,,,,,,,,,,shame,29,41,sing,red,1183.7892415001988,None,None,1183.7892415001988,None,,,,,,,,,,,,,,,,,,,,,,,,,,,,,,42,001,2023_Apr_17_1321,ExactRep-v3-final,2021.2.3,59.9306243949019,
,,,,,,,,41,0,41,0,,,,,,,,,,,,,,,,,,,,,,,,,,,,,,,,,,,,,,,,,,,,,,,,,,,,,1188.3237234000117,None,,,,,,,,,,,,,,,,,,,,,,,,,,,,,,,,,,,home,4,42,sing,red,1186.3105245996267,None,None,1186.3105245996267,None,,,,,,,,,,,,,,,,,,,,,,,,,,,,,,42,001,2023_Apr_17_1321,ExactRep-v3-final,2021.2.3,59.9306243949019,
,,,,,,,,42,0,42,0,,,,,,,,,,,,,,,,,,,,,,,,,,,,,,,,,,,,,,,,,,,,,,,,,,,,,1190.8263822998852,None,,,,,,,,,,,,,,,,,,,,,,,,,,,,,,,,,,,steam,35,43,sing,red,1188.8240663995966,None,None,1188.8240663995966,None,,,,,,,,,,,,,,,,,,,,,,,,,,,,,,42,001,2023_Apr_17_1321,ExactRep-v3-final,2021.2.3,59.9306243949019,
,,,,,,,,43,0,43,0,,,,,,,,,,,,,,,,,,,,,,,,,,,,,,,,,,,,,,,,,,,,,,,,,,,,,1193.3287659995258,None,,,,,,,,,,,,,,,,,,,,,,,,,,,,,,,,,,,month,112,44,aloud,white,1191.3269929997623,None,None,1191.3269929997623,None,,,,,,,,,,,,,,,,,,,,,,,,,,,,,,42,001,2023_Apr_17_1321,ExactRep-v3-final,2021.2.3,59.9306243949019,
,,,,,,,,44,0,44,0,,,,,,,,,,,,,,,,,,,,,,,,,,,,,,,,,,,,,,,,,,,,,,,,,,,,,1195.8478504000232,None,,,,,,,,,,,,,,,,,,,,,,,,,,,,,,,,,,,doctor,115,45,aloud,white,1193.8357605999336,None,None,1193.8357605999336,None,,,,,,,,,,,,,,,,,,,,,,,,,,,,,,42,001,2023_Apr_17_1321,ExactRep-v3-final,2021.2.3,59.9306243949019,
,,,,,,,,45,0,45,0,,,,,,,,,,,,,,,,,,,,,,,,,,,,,,,,,,,,,,,,,,,,,,,,,,,,,1198.350448699668,None,,,,,,,,,,,,,,,,,,,,,,,,,,,,,,,,,,,car,113,46,aloud,white,1196.3513364000246,None,None,1196.3513364000246,None,,,,,,,,,,,,,,,,,,,,,,,,,,,,,,42,001,2023_Apr_17_1321,ExactRep-v3-final,2021.2.3,59.9306243949019,
,,,,,,,,46,0,46,0,,,,,,,,,,,,,,,,,,,,,,,,,,,,,,,,,,,,,,,,,,,,,,,,,,,,,1200.8528073001653,None,,,,,,,,,,,,,,,,,,,,,,,,,,,,,,,,,,,virtue,58,47,silent,blue,1198.8520340994,None,None,1198.8520340994,None,,,,,,,,,,,,,,,,,,,,,,,,,,,,,,42,001,2023_Apr_17_1321,ExactRep-v3-final,2021.2.3,59.9306243949019,
,,,,,,,,47,0,47,0,,,,,,,,,,,,,,,,,,,,,,,,,,,,,,,,,,,,,,,,,,,,,,,,,,,,,1203.3722230996937,None,,,,,,,,,,,,,,,,,,,,,,,,,,,,,,,,,,,water,102,48,aloud,white,1201.3576226001605,None,None,1201.3576226001605,None,,,,,,,,,,,,,,,,,,,,,,,,,,,,,,42,001,2023_Apr_17_1321,ExactRep-v3-final,2021.2.3,59.9306243949019,
,,,,,,,,48,0,48,0,,,,,,,,,,,,,,,,,,,,,,,,,,,,,,,,,,,,,,,,,,,,,,,,,,,,,1205.891350099817,None,,,,,,,,,,,,,,,,,,,,,,,,,,,,,,,,,,,dust,60,49,silent,blue,1203.8758255997673,None,None,1203.8758255997673,None,,,,,,,,,,,,,,,,,,,,,,,,,,,,,,42,001,2023_Apr_17_1321,ExactRep-v3-final,2021.2.3,59.9306243949019,
,,,,,,,,49,0,49,0,,,,,,,,,,,,,,,,,,,,,,,,,,,,,,,,,,,,,,,,,,,,,,,,,,,,,1208.3938049999997,None,,,,,,,,,,,,,,,,,,,,,,,,,,,,,,,,,,,animal,52,50,silent,blue,1206.394248300232,None,None,1206.394248300232,None,,,,,,,,,,,,,,,,,,,,,,,,,,,,,,42,001,2023_Apr_17_1321,ExactRep-v3-final,2021.2.3,59.9306243949019,
,,,,,,,,50,0,50,0,,,,,,,,,,,,,,,,,,,,,,,,,,,,,,,,,,,,,,,,,,,,,,,,,,,,,1210.9128799000755,None,,,,,,,,,,,,,,,,,,,,,,,,,,,,,,,,,,,market,33,51,sing,red,1208.8999566994607,None,None,1208.8999566994607,None,,,,,,,,,,,,,,,,,,,,,,,,,,,,,,42,001,2023_Apr_17_1321,ExactRep-v3-final,2021.2.3,59.9306243949019,
,,,,,,,,51,0,51,0,,,,,,,,,,,,,,,,,,,,,,,,,,,,,,,,,,,,,,,,,,,,,,,,,,,,,1213.4155091997236,None,,,,,,,,,,,,,,,,,,,,,,,,,,,,,,,,,,,style,70,52,silent,blue,1211.4135603997856,None,None,1211.4135603997856,None,,,,,,,,,,,,,,,,,,,,,,,,,,,,,,42,001,2023_Apr_17_1321,ExactRep-v3-final,2021.2.3,59.9306243949019,
,,,,,,,,52,0,52,0,,,,,,,,,,,,,,,,,,,,,,,,,,,,,,,,,,,,,,,,,,,,,,,,,,,,,1215.9347088001668,None,,,,,,,,,,,,,,,,,,,,,,,,,,,,,,,,,,,glory,69,53,silent,blue,1213.924508499913,None,None,1213.924508499913,None,,,,,,,,,,,,,,,,,,,,,,,,,,,,,,42,001,2023_Apr_17_1321,ExactRep-v3-final,2021.2.3,59.9306243949019,
,,,,,,,,53,0,53,0,,,,,,,,,,,,,,,,,,,,,,,,,,,,,,,,,,,,,,,,,,,,,,,,,,,,,1218.4538479996845,None,,,,,,,,,,,,,,,,,,,,,,,,,,,,,,,,,,,chair,6,54,sing,red,1216.4408596996218,None,None,1216.4408596996218,None,,,,,,,,,,,,,,,,,,,,,,,,,,,,,,42,001,2023_Apr_17_1321,ExactRep-v3-final,2021.2.3,59.9306243949019,
,,,,,,,,54,0,54,0,,,,,,,,,,,,,,,,,,,,,,,,,,,,,,,,,,,,,,,,,,,,,,,,,,,,,1220.956382099539,None,,,,,,,,,,,,,,,,,,,,,,,,,,,,,,,,,,,world,93,55,aloud,white,1218.9543522000313,None,None,1218.9543522000313,None,,,,,,,,,,,,,,,,,,,,,,,,,,,,,,42,001,2023_Apr_17_1321,ExactRep-v3-final,2021.2.3,59.9306243949019,
,,,,,,,,55,0,55,0,,,,,,,,,,,,,,,,,,,,,,,,,,,,,,,,,,,,,,,,,,,,,,,,,,,,,1223.4589096996933,None,,,,,,,,,,,,,,,,,,,,,,,,,,,,,,,,,,,fault,49,56,silent,blue,1221.45710089989,None,None,1221.45710089989,None,,,,,,,,,,,,,,,,,,,,,,,,,,,,,,42,001,2023_Apr_17_1321,ExactRep-v3-final,2021.2.3,59.9306243949019,
,,,,,,,,56,0,56,0,,,,,,,,,,,,,,,,,,,,,,,,,,,,,,,,,,,,,,,,,,,,,,,,,,,,,1225.9781627003103,None,,,,,,,,,,,,,,,,,,,,,,,,,,,,,,,,,,,doll,67,57,silent,blue,1223.9639174994081,None,None,1223.9639174994081,None,,,,,,,,,,,,,,,,,,,,,,,,,,,,,,42,001,2023_Apr_17_1321,ExactRep-v3-final,2021.2.3,59.9306243949019,
,,,,,,,,57,0,57,0,,,,,,,,,,,,,,,,,,,,,,,,,,,,,,,,,,,,,,,,,,,,,,,,,,,,,1228.4803887000307,None,,,,,,,,,,,,,,,,,,,,,,,,,,,,,,,,,,,humour,91,58,aloud,white,1226.4807257996872,None,None,1226.4807257996872,None,,,,,,,,,,,,,,,,,,,,,,,,,,,,,,42,001,2023_Apr_17_1321,ExactRep-v3-final,2021.2.3,59.9306243949019,
,,,,,,,,58,0,58,0,,,,,,,,,,,,,,,,,,,,,,,,,,,,,,,,,,,,,,,,,,,,,,,,,,,,,1230.9830548996106,None,,,,,,,,,,,,,,,,,,,,,,,,,,,,,,,,,,,fun,17,59,sing,red,1228.9818593002856,None,None,1228.9818593002856,None,,,,,,,,,,,,,,,,,,,,,,,,,,,,,,42,001,2023_Apr_17_1321,ExactRep-v3-final,2021.2.3,59.9306243949019,
,,,,,,,,59,0,59,0,,,,,,,,,,,,,,,,,,,,,,,,,,,,,,,,,,,,,,,,,,,,,,,,,,,,,1233.485578100197,None,,,,,,,,,,,,,,,,,,,,,,,,,,,,,,,,,,,science,16,60,sing,red,1231.4854346998036,None,None,1231.4854346998036,None,,,,,,,,,,,,,,,,,,,,,,,,,,,,,,42,001,2023_Apr_17_1321,ExactRep-v3-final,2021.2.3,59.9306243949019,
,,,,,,,,60,0,60,0,,,,,,,,,,,,,,,,,,,,,,,,,,,,,,,,,,,,,,,,,,,,,,,,,,,,,1236.0043858001009,None,,,,,,,,,,,,,,,,,,,,,,,,,,,,,,,,,,,life,21,61,sing,red,1233.9906842000782,None,None,1233.9906842000782,None,,,,,,,,,,,,,,,,,,,,,,,,,,,,,,42,001,2023_Apr_17_1321,ExactRep-v3-final,2021.2.3,59.9306243949019,
,,,,,,,,61,0,61,0,,,,,,,,,,,,,,,,,,,,,,,,,,,,,,,,,,,,,,,,,,,,,,,,,,,,,1238.5238849995658,None,,,,,,,,,,,,,,,,,,,,,,,,,,,,,,,,,,,vessel,40,62,silent,blue,1236.5085869999602,None,None,1236.5085869999602,None,,,,,,,,,,,,,,,,,,,,,,,,,,,,,,42,001,2023_Apr_17_1321,ExactRep-v3-final,2021.2.3,59.9306243949019,
,,,,,,,,62,0,62,0,,,,,,,,,,,,,,,,,,,,,,,,,,,,,,,,,,,,,,,,,,,,,,,,,,,,,1241.0431333994493,None,,,,,,,,,,,,,,,,,,,,,,,,,,,,,,,,,,,pride,106,63,aloud,white,1239.0294906999916,None,None,1239.0294906999916,None,,,,,,,,,,,,,,,,,,,,,,,,,,,,,,42,001,2023_Apr_17_1321,ExactRep-v3-final,2021.2.3,59.9306243949019,
,,,,,,,,63,0,63,0,,,,,,,,,,,,,,,,,,,,,,,,,,,,,,,,,,,,,,,,,,,,,,,,,,,,,1243.5455991998315,None,,,,,,,,,,,,,,,,,,,,,,,,,,,,,,,,,,,victory,48,64,silent,blue,1241.5441576996818,None,None,1241.5441576996818,None,,,,,,,,,,,,,,,,,,,,,,,,,,,,,,42,001,2023_Apr_17_1321,ExactRep-v3-final,2021.2.3,59.9306243949019,
,,,,,,,,64,0,64,0,,,,,,,,,,,,,,,,,,,,,,,,,,,,,,,,,,,,,,,,,,,,,,,,,,,,,1246.0647860998288,None,,,,,,,,,,,,,,,,,,,,,,,,,,,,,,,,,,,hide,22,65,sing,red,1244.0554171996191,None,None,1244.0554171996191,None,,,,,,,,,,,,,,,,,,,,,,,,,,,,,,42,001,2023_Apr_17_1321,ExactRep-v3-final,2021.2.3,59.9306243949019,
,,,,,,,,65,0,65,0,,,,,,,,,,,,,,,,,,,,,,,,,,,,,,,,,,,,,,,,,,,,,,,,,,,,,1248.5673880996183,None,,,,,,,,,,,,,,,,,,,,,,,,,,,,,,,,,,,master,53,66,silent,blue,1246.5653457995504,None,None,1246.5653457995504,None,,,,,,,,,,,,,,,,,,,,,,,,,,,,,,42,001,2023_Apr_17_1321,ExactRep-v3-final,2021.2.3,59.9306243949019,
,,,,,,,,66,0,66,0,,,,,,,,,,,,,,,,,,,,,,,,,,,,,,,,,,,,,,,,,,,,,,,,,,,,,1251.0699014998972,None,,,,,,,,,,,,,,,,,,,,,,,,,,,,,,,,,,,string,42,67,silent,blue,1249.0691126994789,None,None,1249.0691126994789,None,,,,,,,,,,,,,,,,,,,,,,,,,,,,,,42,001,2023_Apr_17_1321,ExactRep-v3-final,2021.2.3,59.9306243949019,
,,,,,,,,67,0,67,0,,,,,,,,,,,,,,,,,,,,,,,,,,,,,,,,,,,,,,,,,,,,,,,,,,,,,1253.5890955999494,None,,,,,,,,,,,,,,,,,,,,,,,,,,,,,,,,,,,quality,26,68,sing,red,1251.574730699882,None,None,1251.574730699882,None,,,,,,,,,,,,,,,,,,,,,,,,,,,,,,42,001,2023_Apr_17_1321,ExactRep-v3-final,2021.2.3,59.9306243949019,
,,,,,,,,68,0,68,0,,,,,,,,,,,,,,,,,,,,,,,,,,,,,,,,,,,,,,,,,,,,,,,,,,,,,1256.108249399811,None,,,,,,,,,,,,,,,,,,,,,,,,,,,,,,,,,,,troops,73,69,silent,blue,1254.0931156994775,None,None,1254.0931156994775,None,,,,,,,,,,,,,,,,,,,,,,,,,,,,,,42,001,2023_Apr_17_1321,ExactRep-v3-final,2021.2.3,59.9306243949019,
,,,,,,,,69,0,69,0,,,,,,,,,,,,,,,,,,,,,,,,,,,,,,,,,,,,,,,,,,,,,,,,,,,,,1258.62739759963,None,,,,,,,,,,,,,,,,,,,,,,,,,,,,,,,,,,,rock,80,70,aloud,white,1256.613442200236,None,None,1256.613442200236,None,,,,,,,,,,,,,,,,,,,,,,,,,,,,,,42,001,2023_Apr_17_1321,ExactRep-v3-final,2021.2.3,59.9306243949019,
,,,,,,,,70,0,70,0,,,,,,,,,,,,,,,,,,,,,,,,,,,,,,,,,,,,,,,,,,,,,,,,,,,,,1261.1299625001848,None,,,,,,,,,,,,,,,,,,,,,,,,,,,,,,,,,,,ability,39,71,silent,blue,1259.1291014002636,None,None,1259.1291014002636,None,,,,,,,,,,,,,,,,,,,,,,,,,,,,,,42,001,2023_Apr_17_1321,ExactRep-v3-final,2021.2.3,59.9306243949019,
,,,,,,,,71,0,71,0,,,,,,,,,,,,,,,,,,,,,,,,,,,,,,,,,,,,,,,,,,,,,,,,,,,,,1263.63238919992,None,,,,,,,,,,,,,,,,,,,,,,,,,,,,,,,,,,,speech,98,72,aloud,white,1261.6324244998395,None,None,1261.6324244998395,None,,,,,,,,,,,,,,,,,,,,,,,,,,,,,,42,001,2023_Apr_17_1321,ExactRep-v3-final,2021.2.3,59.9306243949019,
,,,,,,,,72,0,72,0,,,,,,,,,,,,,,,,,,,,,,,,,,,,,,,,,,,,,,,,,,,,,,,,,,,,,1266.1349048996344,None,,,,,,,,,,,,,,,,,,,,,,,,,,,,,,,,,,,butter,13,73,sing,red,1264.1359299002215,None,None,1264.1359299002215,None,,,,,,,,,,,,,,,,,,,,,,,,,,,,,,42,001,2023_Apr_17_1321,ExactRep-v3-final,2021.2.3,59.9306243949019,
,,,,,,,,73,0,73,0,,,,,,,,,,,,,,,,,,,,,,,,,,,,,,,,,,,,,,,,,,,,,,,,,,,,,1268.6540813995525,None,,,,,,,,,,,,,,,,,,,,,,,,,,,,,,,,,,,event,20,74,sing,red,1266.6384477997199,None,None,1266.6384477997199,None,,,,,,,,,,,,,,,,,,,,,,,,,,,,,,42,001,2023_Apr_17_1321,ExactRep-v3-final,2021.2.3,59.9306243949019,
,,,,,,,,74,0,74,0,,,,,,,,,,,,,,,,,,,,,,,,,,,,,,,,,,,,,,,,,,,,,,,,,,,,,1271.1732916003093,None,,,,,,,,,,,,,,,,,,,,,,,,,,,,,,,,,,,wife,83,75,aloud,white,1269.1595711996779,None,None,1269.1595711996779,None,,,,,,,,,,,,,,,,,,,,,,,,,,,,,,42,001,2023_Apr_17_1321,ExactRep-v3-final,2021.2.3,59.9306243949019,
,,,,,,,,75,0,75,0,,,,,,,,,,,,,,,,,,,,,,,,,,,,,,,,,,,,,,,,,,,,,,,,,,,,,1273.6929142000154,None,,,,,,,,,,,,,,,,,,,,,,,,,,,,,,,,,,,flesh,47,76,silent,blue,1271.6783103002235,None,None,1271.6783103002235,None,,,,,,,,,,,,,,,,,,,,,,,,,,,,,,42,001,2023_Apr_17_1321,ExactRep-v3-final,2021.2.3,59.9306243949019,
,,,,,,,,76,0,76,0,,,,,,,,,,,,,,,,,,,,,,,,,,,,,,,,,,,,,,,,,,,,,,,,,,,,,1276.1949503999203,None,,,,,,,,,,,,,,,,,,,,,,,,,,,,,,,,,,,present,54,77,silent,blue,1274.192905199714,None,None,1274.192905199714,None,,,,,,,,,,,,,,,,,,,,,,,,,,,,,,42,001,2023_Apr_17_1321,ExactRep-v3-final,2021.2.3,59.9306243949019,
,,,,,,,,77,0,77,0,,,,,,,,,,,,,,,,,,,,,,,,,,,,,,,,,,,,,,,,,,,,,,,,,,,,,1278.6974275996909,None,,,,,,,,,,,,,,,,,,,,,,,,,,,,,,,,,,,form,101,78,aloud,white,1276.69548510015,None,None,1276.69548510015,None,,,,,,,,,,,,,,,,,,,,,,,,,,,,,,42,001,2023_Apr_17_1321,ExactRep-v3-final,2021.2.3,59.9306243949019,
,,,,,,,,78,0,78,0,,,,,,,,,,,,,,,,,,,,,,,,,,,,,,,,,,,,,,,,,,,,,,,,,,,,,1281.1998371994123,None,,,,,,,,,,,,,,,,,,,,,,,,,,,,,,,,,,,board,63,79,silent,blue,1279.1999490000308,None,None,1279.1999490000308,None,,,,,,,,,,,,,,,,,,,,,,,,,,,,,,42,001,2023_Apr_17_1321,ExactRep-v3-final,2021.2.3,59.9306243949019,
,,,,,,,,79,0,79,0,,,,,,,,,,,,,,,,,,,,,,,,,,,,,,,,,,,,,,,,,,,,,,,,,,,,,1283.7024387000129,None,,,,,,,,,,,,,,,,,,,,,,,,,,,,,,,,,,,amount,89,80,aloud,white,1281.7018964998424,None,None,1281.7018964998424,None,,,,,,,,,,,,,,,,,,,,,,,,,,,,,,42,001,2023_Apr_17_1321,ExactRep-v3-final,2021.2.3,59.9306243949019,
,,,,,,,,80,0,80,0,,,,,,,,,,,,,,,,,,,,,,,,,,,,,,,,,,,,,,,,,,,,,,,,,,,,,1286.221715499647,None,,,,,,,,,,,,,,,,,,,,,,,,,,,,,,,,,,,college,90,81,aloud,white,1284.2082877000794,None,None,1284.2082877000794,None,,,,,,,,,,,,,,,,,,,,,,,,,,,,,,42,001,2023_Apr_17_1321,ExactRep-v3-final,2021.2.3,59.9306243949019,
,,,,,,,,81,0,81,0,,,,,,,,,,,,,,,,,,,,,,,,,,,,,,,,,,,,,,,,,,,,,,,,,,,,,1288.7241382999346,None,,,,,,,,,,,,,,,,,,,,,,,,,,,,,,,,,,,salary,66,82,silent,blue,1286.7230391995981,None,None,1286.7230391995981,None,,,,,,,,,,,,,,,,,,,,,,,,,,,,,,42,001,2023_Apr_17_1321,ExactRep-v3-final,2021.2.3,59.9306243949019,
,,,,,,,,82,0,82,0,,,,,,,,,,,,,,,,,,,,,,,,,,,,,,,,,,,,,,,,,,,,,,,,,,,,,1291.2267709998414,None,,,,,,,,,,,,,,,,,,,,,,,,,,,,,,,,,,,city,86,83,aloud,white,1289.2268597995862,None,None,1289.2268597995862,None,,,,,,,,,,,,,,,,,,,,,,,,,,,,,,42,001,2023_Apr_17_1321,ExactRep-v3-final,2021.2.3,59.9306243949019,
,,,,,,,,83,0,83,0,,,,,,,,,,,,,,,,,,,,,,,,,,,,,,,,,,,,,,,,,,,,,,,,,,,,,1293.729165399447,None,,,,,,,,,,,,,,,,,,,,,,,,,,,,,,,,,,,shore,27,84,sing,red,1291.7289319997653,None,None,1291.7289319997653,None,,,,,,,,,,,,,,,,,,,,,,,,,,,,,,42,001,2023_Apr_17_1321,ExactRep-v3-final,2021.2.3,59.9306243949019,
,,,,,,,,84,0,84,0,,,,,,,,,,,,,,,,,,,,,,,,,,,,,,,,,,,,,,,,,,,,,,,,,,,,,1296.248358800076,None,,,,,,,,,,,,,,,,,,,,,,,,,,,,,,,,,,,prison,111,85,aloud,white,1294.2390831001103,None,None,1294.2390831001103,None,,,,,,,,,,,,,,,,,,,,,,,,,,,,,,42,001,2023_Apr_17_1321,ExactRep-v3-final,2021.2.3,59.9306243949019,
,,,,,,,,85,0,85,0,,,,,,,,,,,,,,,,,,,,,,,,,,,,,,,,,,,,,,,,,,,,,,,,,,,,,1298.7675441997126,None,,,,,,,,,,,,,,,,,,,,,,,,,,,,,,,,,,,disease,74,86,silent,blue,1296.7531723994762,None,None,1296.7531723994762,None,,,,,,,,,,,,,,,,,,,,,,,,,,,,,,42,001,2023_Apr_17_1321,ExactRep-v3-final,2021.2.3,59.9306243949019,
,,,,,,,,86,0,86,0,,,,,,,,,,,,,,,,,,,,,,,,,,,,,,,,,,,,,,,,,,,,,,,,,,,,,1301.2867769002914,None,,,,,,,,,,,,,,,,,,,,,,,,,,,,,,,,,,,meat,55,87,silent,blue,1299.275396199897,None,None,1299.275396199897,None,,,,,,,,,,,,,,,,,,,,,,,,,,,,,,42,001,2023_Apr_17_1321,ExactRep-v3-final,2021.2.3,59.9306243949019,
,,,,,,,,87,0,87,0,,,,,,,,,,,,,,,,,,,,,,,,,,,,,,,,,,,,,,,,,,,,,,,,,,,,,1303.8058284996077,None,,,,,,,,,,,,,,,,,,,,,,,,,,,,,,,,,,,kiss,8,88,sing,red,1301.7912240000442,None,None,1301.7912240000442,None,,,,,,,,,,,,,,,,,,,,,,,,,,,,,,42,001,2023_Apr_17_1321,ExactRep-v3-final,2021.2.3,59.9306243949019,
,,,,,,,,88,0,88,0,,,,,,,,,,,,,,,,,,,,,,,,,,,,,,,,,,,,,,,,,,,,,,,,,,,,,1306.3091225000098,None,,,,,,,,,,,,,,,,,,,,,,,,,,,,,,,,,,,death,43,89,silent,blue,1304.3061848999932,None,None,1304.3061848999932,None,,,,,,,,,,,,,,,,,,,,,,,,,,,,,,42,001,2023_Apr_17_1321,ExactRep-v3-final,2021.2.3,59.9306243949019,
,,,,,,,,89,0,89,0,,,,,,,,,,,,,,,,,,,,,,,,,,,,,,,,,,,,,,,,,,,,,,,,,,,,,1308.8276452999562,None,,,,,,,,,,,,,,,,,,,,,,,,,,,,,,,,,,,army,76,90,silent,blue,1306.8171485997736,None,None,1306.8171485997736,None,,,,,,,,,,,,,,,,,,,,,,,,,,,,,,42,001,2023_Apr_17_1321,ExactRep-v3-final,2021.2.3,59.9306243949019,
,,,,,,,,90,0,90,0,,,,,,,,,,,,,,,,,,,,,,,,,,,,,,,,,,,,,,,,,,,,,,,,,,,,,1311.3300558002666,None,,,,,,,,,,,,,,,,,,,,,,,,,,,,,,,,,,,corner,87,91,aloud,white,1309.3304514000192,None,None,1309.3304514000192,None,,,,,,,,,,,,,,,,,,,,,,,,,,,,,,42,001,2023_Apr_17_1321,ExactRep-v3-final,2021.2.3,59.9306243949019,
,,,,,,,,91,0,91,0,,,,,,,,,,,,,,,,,,,,,,,,,,,,,,,,,,,,,,,,,,,,,,,,,,,,,1313.8492772998288,None,,,,,,,,,,,,,,,,,,,,,,,,,,,,,,,,,,,sky,116,92,aloud,white,1311.8342725001276,None,None,1311.8342725001276,None,,,,,,,,,,,,,,,,,,,,,,,,,,,,,,42,001,2023_Apr_17_1321,ExactRep-v3-final,2021.2.3,59.9306243949019,
,,,,,,,,92,0,92,0,,,,,,,,,,,,,,,,,,,,,,,,,,,,,,,,,,,,,,,,,,,,,,,,,,,,,1316.3518880996853,None,,,,,,,,,,,,,,,,,,,,,,,,,,,,,,,,,,,heaven,79,93,sing,red,1314.3515852000564,None,None,1314.3515852000564,None,,,,,,,,,,,,,,,,,,,,,,,,,,,,,,42,001,2023_Apr_17_1321,ExactRep-v3-final,2021.2.3,59.9306243949019,
,,,,,,,,93,0,93,0,,,,,,,,,,,,,,,,,,,,,,,,,,,,,,,,,,,,,,,,,,,,,,,,,,,,,1318.87094550021,None,,,,,,,,,,,,,,,,,,,,,,,,,,,,,,,,,,,door,32,94,sing,red,1316.858110100031,None,None,1316.858110100031,None,,,,,,,,,,,,,,,,,,,,,,,,,,,,,,42,001,2023_Apr_17_1321,ExactRep-v3-final,2021.2.3,59.9306243949019,
,,,,,,,,94,0,94,0,,,,,,,,,,,,,,,,,,,,,,,,,,,,,,,,,,,,,,,,,,,,,,,,,,,,,1321.3901482000947,None,,,,,,,,,,,,,,,,,,,,,,,,,,,,,,,,,,,trouble,36,95,sing,red,1319.3777540000156,None,None,1319.3777540000156,None,,,,,,,,,,,,,,,,,,,,,,,,,,,,,,42,001,2023_Apr_17_1321,ExactRep-v3-final,2021.2.3,59.9306243949019,
,,,,,,,,95,0,95,0,,,,,,,,,,,,,,,,,,,,,,,,,,,,,,,,,,,,,,,,,,,,,,,,,,,,,1323.9093311000615,None,,,,,,,,,,,,,,,,,,,,,,,,,,,,,,,,,,,letter,100,96,aloud,white,1321.9058464001864,None,None,1321.9058464001864,None,,,,,,,,,,,,,,,,,,,,,,,,,,,,,,42,001,2023_Apr_17_1321,ExactRep-v3-final,2021.2.3,59.9306243949019,
,,,,,,,,96,0,96,0,,,,,,,,,,,,,,,,,,,,,,,,,,,,,,,,,,,,,,,,,,,,,,,,,,,,,1326.4118240997195,None,,,,,,,,,,,,,,,,,,,,,,,,,,,,,,,,,,,custom,118,97,aloud,white,1324.4097079997882,None,None,1324.4097079997882,None,,,,,,,,,,,,,,,,,,,,,,,,,,,,,,42,001,2023_Apr_17_1321,ExactRep-v3-final,2021.2.3,59.9306243949019,
,,,,,,,,97,0,97,0,,,,,,,,,,,,,,,,,,,,,,,,,,,,,,,,,,,,,,,,,,,,,,,,,,,,,1328.9310098998249,None,,,,,,,,,,,,,,,,,,,,,,,,,,,,,,,,,,,woods,24,98,sing,red,1326.9157689996064,None,None,1326.9157689996064,None,,,,,,,,,,,,,,,,,,,,,,,,,,,,,,42,001,2023_Apr_17_1321,ExactRep-v3-final,2021.2.3,59.9306243949019,
,,,,,,,,98,0,98,0,,,,,,,,,,,,,,,,,,,,,,,,,,,,,,,,,,,,,,,,,,,,,,,,,,,,,1331.4337130999193,None,,,,,,,,,,,,,,,,,,,,,,,,,,,,,,,,,,,dawn,38,99,sing,red,1329.4333851998672,None,None,1329.4333851998672,None,,,,,,,,,,,,,,,,,,,,,,,,,,,,,,42,001,2023_Apr_17_1321,ExactRep-v3-final,2021.2.3,59.9306243949019,
,,,,,,,,99,0,99,0,,,,,,,,,,,,,,,,,,,,,,,,,,,,,,,,,,,,,,,,,,,,,,,,,,,,,1333.9360437998548,None,,,,,,,,,,,,,,,,,,,,,,,,,,,,,,,,,,,colony,61,100,silent,blue,1331.9370339000598,None,None,1331.9370339000598,None,,,,,,,,,,,,,,,,,,,,,,,,,,,,,,42,001,2023_Apr_17_1321,ExactRep-v3-final,2021.2.3,59.9306243949019,
,,,,,,,,100,0,100,0,,,,,,,,,,,,,,,,,,,,,,,,,,,,,,,,,,,,,,,,,,,,,,,,,,,,,1336.455061700195,None,,,,,,,,,,,,,,,,,,,,,,,,,,,,,,,,,,,library,104,101,aloud,white,1334.4396377997473,None,None,1334.4396377997473,None,,,,,,,,,,,,,,,,,,,,,,,,,,,,,,42,001,2023_Apr_17_1321,ExactRep-v3-final,2021.2.3,59.9306243949019,
,,,,,,,,101,0,101,0,,,,,,,,,,,,,,,,,,,,,,,,,,,,,,,,,,,,,,,,,,,,,,,,,,,,,1338.957714899443,None,,,,,,,,,,,,,,,,,,,,,,,,,,,,,,,,,,,factory,110,102,aloud,white,1336.955575699918,None,None,1336.955575699918,None,,,,,,,,,,,,,,,,,,,,,,,,,,,,,,42,001,2023_Apr_17_1321,ExactRep-v3-final,2021.2.3,59.9306243949019,
,,,,,,,,102,0,102,0,,,,,,,,,,,,,,,,,,,,,,,,,,,,,,,,,,,,,,,,,,,,,,,,,,,,,1341.4767674999312,None,,,,,,,,,,,,,,,,,,,,,,,,,,,,,,,,,,,blossom,82,103,aloud,white,1339.4697815002874,None,None,1339.4697815002874,None,,,,,,,,,,,,,,,,,,,,,,,,,,,,,,42,001,2023_Apr_17_1321,ExactRep-v3-final,2021.2.3,59.9306243949019,
,,,,,,,,103,0,103,0,,,,,,,,,,,,,,,,,,,,,,,,,,,,,,,,,,,,,,,,,,,,,,,,,,,,,1343.9794857995585,None,,,,,,,,,,,,,,,,,,,,,,,,,,,,,,,,,,,length,46,104,silent,blue,1341.9772991994396,None,None,1341.9772991994396,None,,,,,,,,,,,,,,,,,,,,,,,,,,,,,,42,001,2023_Apr_17_1321,ExactRep-v3-final,2021.2.3,59.9306243949019,
,,,,,,,,104,0,104,0,,,,,,,,,,,,,,,,,,,,,,,,,,,,,,,,,,,,,,,,,,,,,,,,,,,,,1346.4985563000664,None,,,,,,,,,,,,,,,,,,,,,,,,,,,,,,,,,,,flood,75,105,silent,blue,1344.4853713996708,None,None,1344.4853713996708,None,,,,,,,,,,,,,,,,,,,,,,,,,,,,,,42,001,2023_Apr_17_1321,ExactRep-v3-final,2021.2.3,59.9306243949019,
,,,,,,,,105,0,105,0,,,,,,,,,,,,,,,,,,,,,,,,,,,,,,,,,,,,,,,,,,,,,,,,,,,,,1349.0009385002777,None,,,,,,,,,,,,,,,,,,,,,,,,,,,,,,,,,,,method,45,106,silent,blue,1346.9989082999527,None,None,1346.9989082999527,None,,,,,,,,,,,,,,,,,,,,,,,,,,,,,,42,001,2023_Apr_17_1321,ExactRep-v3-final,2021.2.3,59.9306243949019,
,,,,,,,,106,0,106,0,,,,,,,,,,,,,,,,,,,,,,,,,,,,,,,,,,,,,,,,,,,,,,,,,,,,,1351.5202505998313,None,,,,,,,,,,,,,,,,,,,,,,,,,,,,,,,,,,,square,41,107,silent,blue,1349.5049960995093,None,None,1349.5049960995093,None,,,,,,,,,,,,,,,,,,,,,,,,,,,,,,42,001,2023_Apr_17_1321,ExactRep-v3-final,2021.2.3,59.9306243949019,
,,,,,,,,107,0,107,0,,,,,,,,,,,,,,,,,,,,,,,,,,,,,,,,,,,,,,,,,,,,,,,,,,,,,1354.0228230999783,None,,,,,,,,,,,,,,,,,,,,,,,,,,,,,,,,,,,valley,77,108,silent,blue,1352.0207394994795,None,None,1352.0207394994795,None,,,,,,,,,,,,,,,,,,,,,,,,,,,,,,42,001,2023_Apr_17_1321,ExactRep-v3-final,2021.2.3,59.9306243949019,
,,,,,,,,108,0,108,0,,,,,,,,,,,,,,,,,,,,,,,,,,,,,,,,,,,,,,,,,,,,,,,,,,,,,1356.5251172995195,None,,,,,,,,,,,,,,,,,,,,,,,,,,,,,,,,,,,girl,23,109,sing,red,1354.5239062998444,None,None,1354.5239062998444,None,,,,,,,,,,,,,,,,,,,,,,,,,,,,,,42,001,2023_Apr_17_1321,ExactRep-v3-final,2021.2.3,59.9306243949019,
,,,,,,,,109,0,109,0,,,,,,,,,,,,,,,,,,,,,,,,,,,,,,,,,,,,,,,,,,,,,,,,,,,,,1359.0277717001736,None,,,,,,,,,,,,,,,,,,,,,,,,,,,,,,,,,,,law,71,110,silent,blue,1357.0273134997115,None,None,1357.0273134997115,None,,,,,,,,,,,,,,,,,,,,,,,,,,,,,,42,001,2023_Apr_17_1321,ExactRep-v3-final,2021.2.3,59.9306243949019,
,,,,,,,,110,0,110,0,,,,,,,,,,,,,,,,,,,,,,,,,,,,,,,,,,,,,,,,,,,,,,,,,,,,,1361.5469873994589,None,,,,,,,,,,,,,,,,,,,,,,,,,,,,,,,,,,,child,96,111,aloud,white,1359.5342911994085,None,None,1359.5342911994085,None,,,,,,,,,,,,,,,,,,,,,,,,,,,,,,42,001,2023_Apr_17_1321,ExactRep-v3-final,2021.2.3,59.9306243949019,
,,,,,,,,111,0,111,0,,,,,,,,,,,,,,,,,,,,,,,,,,,,,,,,,,,,,,,,,,,,,,,,,,,,,1364.0494772000238,None,,,,,,,,,,,,,,,,,,,,,,,,,,,,,,,,,,,hotel,30,112,sing,red,1362.0477777998894,None,None,1362.0477777998894,None,,,,,,,,,,,,,,,,,,,,,,,,,,,,,,42,001,2023_Apr_17_1321,ExactRep-v3-final,2021.2.3,59.9306243949019,
,,,,,,,,112,0,112,0,,,,,,,,,,,,,,,,,,,,,,,,,,,,,,,,,,,,,,,,,,,,,,,,,,,,,1366.551982799545,None,,,,,,,,,,,,,,,,,,,,,,,,,,,,,,,,,,,shock,105,113,aloud,white,1364.551167299971,None,None,1364.551167299971,None,,,,,,,,,,,,,,,,,,,,,,,,,,,,,,42,001,2023_Apr_17_1321,ExactRep-v3-final,2021.2.3,59.9306243949019,
,,,,,,,,113,0,113,0,,,,,,,,,,,,,,,,,,,,,,,,,,,,,,,,,,,,,,,,,,,,,,,,,,,,,1369.0712091997266,None,,,,,,,,,,,,,,,,,,,,,,,,,,,,,,,,,,,tool,7,114,sing,red,1367.055817999877,None,None,1367.055817999877,None,,,,,,,,,,,,,,,,,,,,,,,,,,,,,,42,001,2023_Apr_17_1321,ExactRep-v3-final,2021.2.3,59.9306243949019,
,,,,,,,,114,0,114,0,,,,,,,,,,,,,,,,,,,,,,,,,,,,,,,,,,,,,,,,,,,,,,,,,,,,,1371.5903620999306,None,,,,,,,,,,,,,,,,,,,,,,,,,,,,,,,,,,,insect,56,115,silent,blue,1369.574988000095,None,None,1369.574988000095,None,,,,,,,,,,,,,,,,,,,,,,,,,,,,,,42,001,2023_Apr_17_1321,ExactRep-v3-final,2021.2.3,59.9306243949019,
,,,,,,,,115,0,115,0,,,,,,,,,,,,,,,,,,,,,,,,,,,,,,,,,,,,,,,,,,,,,,,,,,,,,1374.0929069994017,None,,,,,,,,,,,,,,,,,,,,,,,,,,,,,,,,,,,apple,12,116,sing,red,1372.0907022003084,None,None,1372.0907022003084,None,,,,,,,,,,,,,,,,,,,,,,,,,,,,,,42,001,2023_Apr_17_1321,ExactRep-v3-final,2021.2.3,59.9306243949019,
,,,,,,,,116,0,116,0,,,,,,,,,,,,,,,,,,,,,,,,,,,,,,,,,,,,,,,,,,,,,,,,,,,,,1376.5951883997768,None,,,,,,,,,,,,,,,,,,,,,,,,,,,,,,,,,,,fate,107,117,aloud,white,1374.5931762000546,None,None,1374.5931762000546,None,,,,,,,,,,,,,,,,,,,,,,,,,,,,,,42,001,2023_Apr_17_1321,ExactRep-v3-final,2021.2.3,59.9306243949019,
,,,,,,,,117,0,117,0,,,,,,,,,,,,,,,,,,,,,,,,,,,,,,,,,,,,,,,,,,,,,,,,,,,,,1379.0977079002187,None,,,,,,,,,,,,,,,,,,,,,,,,,,,,,,,,,,,mercy,34,118,sing,red,1377.095704799518,None,None,1377.095704799518,None,,,,,,,,,,,,,,,,,,,,,,,,,,,,,,42,001,2023_Apr_17_1321,ExactRep-v3-final,2021.2.3,59.9306243949019,
,,,,,,,,118,0,118,0,,,,,,,,,,,,,,,,,,,,,,,,,,,,,,,,,,,,,,,,,,,,,,,,,,,,,1381.6170819001272,None,,,,,,,,,,,,,,,,,,,,,,,,,,,,,,,,,,,grief,11,119,sing,red,1379.6065294994041,None,None,1379.6065294994041,None,,,,,,,,,,,,,,,,,,,,,,,,,,,,,,42,001,2023_Apr_17_1321,ExactRep-v3-final,2021.2.3,59.9306243949019,
,,,,,,,,119,0,119,0,,,,,,,,,,,,,,,,,,,,,,,,,,,,,,,,,,,,,,,,,,,,,,,,,,,,,1384.1366994995624,None,,,,,,,,,,,,,,,,,,,,,,,,,,,,,,,,,,,theory,18,120,sing,red,1382.1209164997563,None,None,1382.1209164997563,None,,,,,,,,,,,,,,,,,,,,,,,,,,,,,,42,001,2023_Apr_17_1321,ExactRep-v3-final,2021.2.3,59.9306243949019,
,,,,,,,,,,,,,,,,,,,,,,,,,,,,,,,,,,,,,,,,,,,,,,,,,,,,,,,,,,,,,,,,,,,,,,,,,,,,,,,,,,,,,,,,,,,,,,,,,,,,,,,,,,,,,,1384.6382380994037,None,space,4.088552599772811,1394.6144730998203,None,,,,,,,,,,,,,,,,,,,,,,,,42,001,2023_Apr_17_1321,ExactRep-v3-final,2021.2.3,59.9306243949019,
,,,,,,,,,,,,,,,,,,,,,,,,,,,,,,,,,,,,,,,,,,,,,,,,,,,,,,,,,,,,,,,,,,,,,,,,,,,,,,,,,,,,,,,,,,,,,,,,,,,,,,,,,,,,,,,,,,,,1398.719387399964,None,space,43.055281300097704,1408.6955289999023,None,,,,,,,,,,,,,,,,,,42,001,2023_Apr_17_1321,ExactRep-v3-final,2021.2.3,59.9306243949019,
,,,,,,,,,,,,0,0,0,0,,,,,,,,,,,,,,,,,,,,,,,,,,,,,,,,,,,,,,,,,,,,,,,,,1466.8186804000288,None,,,,,,,,,,,,,,,,,,,,,,,,,,,,,,,,,,,,,,,,,,,,,,,,,,,,,,,,,pole,143,1,silent,new,blue,1452.2834304003045,None,n,1452.2834304003045,None,"['n', 'return']","[12.23502289969474, 14.490971500054002]",1452.2834304003045,None,,,42,001,2023_Apr_17_1321,ExactRep-v3-final,2021.2.3,59.9306243949019,
,,,,,,,,,,,,1,0,1,0,,,,,,,,,,,,,,,,,,,,,,,,,,,,,,,,,,,,,,,,,,,,,,,,,1470.4724102998152,None,,,,,,,,,,,,,,,,,,,,,,,,,,,,,,,,,,,,,,,,,,,,,,,,,,,,,,,,,passion,170,2,aloud,new,white,1467.3358172997832,None,n,1467.3358172997832,None,"['n', 'return']","[2.686633599922061, 3.1026558997109532]",1467.3358172997832,None,,,42,001,2023_Apr_17_1321,ExactRep-v3-final,2021.2.3,59.9306243949019,
,,,,,,,,,,,,2,0,2,0,,,,,,,,,,,,,,,,,,,,,,,,,,,,,,,,,,,,,,,,,,,,,,,,,1472.5244773002341,None,,,,,,,,,,,,,,,,,,,,,,,,,,,,,,,,,,,,,,,,,,,,,,,,,,,,,,,,,garden,185,3,sing,new,red,1470.9801893001422,None,n,1470.9801893001422,None,"['n', 'return']","[1.2022660998627543, 1.5062403995543718]",1470.9801893001422,None,,,42,001,2023_Apr_17_1321,ExactRep-v3-final,2021.2.3,59.9306243949019,
,,,,,,,,,,,,3,0,3,0,,,,,,,,,,,,,,,,,,,,,,,,,,,,,,,,,,,,,,,,,,,,,,,,,1474.9935747999698,None,,,,,,,,,,,,,,,,,,,,,,,,,,,,,,,,,,,,,,,,,,,,,,,,,,,,,,,,,fun,17,4,sing,old,red,1473.032875799574,None,y,1473.032875799574,None,"['y', 'return']","[1.5418082000687718, 1.9256060002371669]",1473.032875799574,None,,,42,001,2023_Apr_17_1321,ExactRep-v3-final,2021.2.3,59.9306243949019,
,,,,,,,,,,,,4,0,4,0,,,,,,,,,,,,,,,,,,,,,,,,,,,,,,,,,,,,,,,,,,,,,,,,,1476.6786332996562,None,,,,,,,,,,,,,,,,,,,,,,,,,,,,,,,,,,,,,,,,,,,,,,,,,,,,,,,,,salary,66,5,silent,old,blue,1475.497442599386,None,y,1475.497442599386,None,"['y', 'return']","[0.949108500033617, 1.1409996002912521]",1475.497442599386,None,,,42,001,2023_Apr_17_1321,ExactRep-v3-final,2021.2.3,59.9306243949019,
,,,,,,,,,,,,5,0,5,0,,,,,,,,,,,,,,,,,,,,,,,,,,,,,,,,,,,,,,,,,,,,,,,,,1478.3636443000287,None,,,,,,,,,,,,,,,,,,,,,,,,,,,,,,,,,,,,,,,,,,,,,,,,,,,,,,,,,diamond,212,6,aloud,new,white,1477.1858620001003,None,n,1477.1858620001003,None,"['n', 'return']","[0.8765848996117711, 1.1326031992211938]",1477.1858620001003,None,,,42,001,2023_Apr_17_1321,ExactRep-v3-final,2021.2.3,59.9306243949019,
,,,,,,,,,,,,6,0,6,0,,,,,,,,,,,,,,,,,,,,,,,,,,,,,,,,,,,,,,,,,,,,,,,,,1479.8983300002292,None,,,,,,,,,,,,,,,,,,,,,,,,,,,,,,,,,,,,,,,,,,,,,,,,,,,,,,,,,skin,198,7,aloud,new,white,1478.8748009996489,None,n,1478.8748009996489,None,"['n', 'return']","[0.8035014001652598, 0.9796743001788855]",1478.8748009996489,None,,,42,001,2023_Apr_17_1321,ExactRep-v3-final,2021.2.3,59.9306243949019,
,,,,,,,,,,,,7,0,7,0,,,,,,,,,,,,,,,,,,,,,,,,,,,,,,,,,,,,,,,,,,,,,,,,,1481.5501819998026,None,,,,,,,,,,,,,,,,,,,,,,,,,,,,,,,,,,,,,,,,,,,,,,,,,,,,,,,,,seat,88,8,aloud,old,white,1480.410080799833,None,y,1480.410080799833,None,"['y', 'return']","[0.8925665002316236, 1.092475900426507]",1480.410080799833,None,,,42,001,2023_Apr_17_1321,ExactRep-v3-final,2021.2.3,59.9306243949019,
,,,,,,,,,,,,8,0,8,0,,,,,,,,,,,,,,,,,,,,,,,,,,,,,,,,,,,,,,,,,,,,,,,,,1483.7524632001296,None,,,,,,,,,,,,,,,,,,,,,,,,,,,,,,,,,,,,,,,,,,,,,,,,,,,,,,,,,science,16,9,sing,old,red,1482.057590899989,None,n,1482.057590899989,None,"['n', 'return']","[1.5009155999869108, 1.6610539006069303]",1482.057590899989,None,,,42,001,2023_Apr_17_1321,ExactRep-v3-final,2021.2.3,59.9306243949019,
,,,,,,,,,,,,9,0,9,0,,,,,,,,,,,,,,,,,,,,,,,,,,,,,,,,,,,,,,,,,,,,,,,,,1485.7543807001784,None,,,,,,,,,,,,,,,,,,,,,,,,,,,,,,,,,,,,,,,,,,,,,,,,,,,,,,,,,thought,135,10,silent,new,blue,1484.2677657995373,None,n,1484.2677657995373,None,"['n', 'return']","[1.282693300396204, 1.4426314998418093]",1484.2677657995373,None,,,42,001,2023_Apr_17_1321,ExactRep-v3-final,2021.2.3,59.9306243949019,
,,,,,,,,,,,,10,0,10,0,,,,,,,,,,,,,,,,,,,,,,,,,,,,,,,,,,,,,,,,,,,,,,,,,1487.4893699996173,None,,,,,,,,,,,,,,,,,,,,,,,,,,,,,,,,,,,,,,,,,,,,,,,,,,,,,,,,,paper,216,11,aloud,new,white,1486.2671580994502,None,n,1486.2671580994502,None,"['n', 'return']","[0.9312532003968954, 1.1871828008443117]",1486.2671580994502,None,,,42,001,2023_Apr_17_1321,ExactRep-v3-final,2021.2.3,59.9306243949019,
,,,,,,,,,,,,11,0,11,0,,,,,,,,,,,,,,,,,,,,,,,,,,,,,,,,,,,,,,,,,,,,,,,,,1489.2578034996986,None,,,,,,,,,,,,,,,,,,,,,,,,,,,,,,,,,,,,,,,,,,,,,,,,,,,,,,,,,square,41,12,silent,old,blue,1488.0010941000655,None,y,1488.0010941000655,None,"['y', 'return']","[1.0052580004557967, 1.2213556999340653]",1488.0010941000655,None,,,42,001,2023_Apr_17_1321,ExactRep-v3-final,2021.2.3,59.9306243949019,
,,,,,,,,,,,,12,0,12,0,,,,,,,,,,,,,,,,,,,,,,,,,,,,,,,,,,,,,,,,,,,,,,,,,1490.859333800152,None,,,,,,,,,,,,,,,,,,,,,,,,,,,,,,,,,,,,,,,,,,,,,,,,,,,,,,,,,chief,81,13,aloud,old,white,1489.7677282001823,None,y,1489.7677282001823,None,"['y', 'return']","[0.8547982005402446, 1.0465323003008962]",1489.7677282001823,None,,,42,001,2023_Apr_17_1321,ExactRep-v3-final,2021.2.3,59.9306243949019,
,,,,,,,,,,,,13,0,13,0,,,,,,,,,,,,,,,,,,,,,,,,,,,,,,,,,,,,,,,,,,,,,,,,,1492.6779741998762,None,,,,,,,,,,,,,,,,,,,,,,,,,,,,,,,,,,,,,,,,,,,,,,,,,,,,,,,,,hall,68,14,silent,old,blue,1491.3598587997258,None,n,1491.3598587997258,None,"['n', 'return']","[1.070550300180912, 1.2785939006134868]",1491.3598587997258,None,,,42,001,2023_Apr_17_1321,ExactRep-v3-final,2021.2.3,59.9306243949019,
,,,,,,,,,,,,14,0,14,0,,,,,,,,,,,,,,,,,,,,,,,,,,,,,,,,,,,,,,,,,,,,,,,,,1494.3462926000357,None,,,,,,,,,,,,,,,,,,,,,,,,,,,,,,,,,,,,,,,,,,,,,,,,,,,,,,,,,vision,213,15,sing,new,red,1493.1831403002143,None,n,1493.1831403002143,None,"['n', 'return']","[0.9114191997796297, 1.119314800016582]",1493.1831403002143,None,,,42,001,2023_Apr_17_1321,ExactRep-v3-final,2021.2.3,59.9306243949019,
,,,,,,,,,,,,15,0,15,0,,,,,,,,,,,,,,,,,,,,,,,,,,,,,,,,,,,,,,,,,,,,,,,,,1495.7979167001322,None,,,,,,,,,,,,,,,,,,,,,,,,,,,,,,,,,,,,,,,,,,,,,,,,,,,,,,,,,house,217,16,sing,new,red,1494.8565552998334,None,n,1494.8565552998334,None,"['n', 'return']","[0.7498636990785599, 0.8940141992643476]",1494.8565552998334,None,,,42,001,2023_Apr_17_1321,ExactRep-v3-final,2021.2.3,59.9306243949019,
,,,,,,,,,,,,16,0,16,0,,,,,,,,,,,,,,,,,,,,,,,,,,,,,,,,,,,,,,,,,,,,,,,,,1497.4827878000215,None,,,,,,,,,,,,,,,,,,,,,,,,,,,,,,,,,,,,,,,,,,,,,,,,,,,,,,,,,apple,12,17,sing,old,red,1496.3056327002123,None,y,1496.3056327002123,None,"['y', 'return']","[0.9728170000016689, 1.132859199307859]",1496.3056327002123,None,,,42,001,2023_Apr_17_1321,ExactRep-v3-final,2021.2.3,59.9306243949019,
,,,,,,,,,,,,17,0,17,0,,,,,,,,,,,,,,,,,,,,,,,,,,,,,,,,,,,,,,,,,,,,,,,,,1499.1010678000748,None,,,,,,,,,,,,,,,,,,,,,,,,,,,,,,,,,,,,,,,,,,,,,,,,,,,,,,,,,steam,35,18,sing,old,red,1497.9831166993827,None,y,1497.9831166993827,None,"['y', 'return']","[0.8232745993882418, 1.0713252993300557]",1497.9831166993827,None,,,42,001,2023_Apr_17_1321,ExactRep-v3-final,2021.2.3,59.9306243949019,
,,,,,,,,,,,,18,0,18,0,,,,,,,,,,,,,,,,,,,,,,,,,,,,,,,,,,,,,,,,,,,,,,,,,1500.5192610993981,None,,,,,,,,,,,,,,,,,,,,,,,,,,,,,,,,,,,,,,,,,,,,,,,,,,,,,,,,,cattle,195,19,sing,new,red,1499.612420000136,None,n,1499.612420000136,None,"['n', 'return']","[0.682060900144279, 0.8742300998419523]",1499.612420000136,None,,,42,001,2023_Apr_17_1321,ExactRep-v3-final,2021.2.3,59.9306243949019,
,,,,,,,,,,,,19,0,19,0,,,,,,,,,,,,,,,,,,,,,,,,,,,,,,,,,,,,,,,,,,,,,,,,,1501.8872330999002,None,,,,,,,,,,,,,,,,,,,,,,,,,,,,,,,,,,,,,,,,,,,,,,,,,,,,,,,,,home,4,20,sing,old,red,1501.0264328001067,None,y,1501.0264328001067,None,"['y', 'return']","[0.7001024000346661, 0.8200064999982715]",1501.0264328001067,None,,,42,001,2023_Apr_17_1321,ExactRep-v3-final,2021.2.3,59.9306243949019,
,,,,,,,,,,,,20,0,20,0,,,,,,,,,,,,,,,,,,,,,,,,,,,,,,,,,,,,,,,,,,,,,,,,,1510.979599200189,None,,,,,,,,,,,,,,,,,,,,,,,,,,,,,,,,,,,,,,,,,,,,,,,,,,,,,,,,,law,71,21,silent,old,blue,1502.4000493995845,None,y,1502.4000493995845,None,"['n', 'y', 'y', 'backspace', 'y', 'return']","[0.6623120000585914, 1.2784366998821497, 2.9584921998903155, 6.574480899609625, 7.190512100234628, 8.54256169963628]",1502.4000493995845,None,,,42,001,2023_Apr_17_1321,ExactRep-v3-final,2021.2.3,59.9306243949019,
,,,,,,,,,,,,21,0,21,0,,,,,,,,,,,,,,,,,,,,,,,,,,,,,,,,,,,,,,,,,,,,,,,,,1512.4477423997596,None,,,,,,,,,,,,,,,,,,,,,,,,,,,,,,,,,,,,,,,,,,,,,,,,,,,,,,,,,pride,106,22,aloud,old,white,1511.4906107997522,None,y,1511.4906107997522,None,"['return', 'y', 'return']","[0.5638282997533679, 0.8759126998484135, 0.915837099775672]",1511.4906107997522,None,,,42,001,2023_Apr_17_1321,ExactRep-v3-final,2021.2.3,59.9306243949019,
,,,,,,,,,,,,22,0,22,0,,,,,,,,,,,,,,,,,,,,,,,,,,,,,,,,,,,,,,,,,,,,,,,,,1514.8333773994818,None,,,,,,,,,,,,,,,,,,,,,,,,,,,,,,,,,,,,,,,,,,,,,,,,,,,,,,,,,girl,23,23,sing,old,red,1512.9567550001666,None,y,1512.9567550001666,None,"['y', 'return']","[0.9777285996824503, 1.8336285995319486]",1512.9567550001666,None,,,42,001,2023_Apr_17_1321,ExactRep-v3-final,2021.2.3,59.9306243949019,
,,,,,,,,,,,,23,0,23,0,,,,,,,,,,,,,,,,,,,,,,,,,,,,,,,,,,,,,,,,,,,,,,,,,1517.4527123002335,None,,,,,,,,,,,,,,,,,,,,,,,,,,,,,,,,,,,,,,,,,,,,,,,,,,,,,,,,,weapon,214,24,aloud,new,white,1515.344709799625,None,n,1515.344709799625,None,"['n', 'return']","[1.2618167996406555, 2.069780600257218]",1515.344709799625,None,,,42,001,2023_Apr_17_1321,ExactRep-v3-final,2021.2.3,59.9306243949019,
,,,,,,,,,,,,24,0,24,0,,,,,,,,,,,,,,,,,,,,,,,,,,,,,,,,,,,,,,,,,,,,,,,,,1519.0711615001783,None,,,,,,,,,,,,,,,,,,,,,,,,,,,,,,,,,,,,,,,,,,,,,,,,,,,,,,,,,horse,203,25,sing,new,red,1517.960232200101,None,n,1517.960232200101,None,"['n', 'return']","[0.8542873002588749, 1.0781693002209067]",1517.960232200101,None,,,42,001,2023_Apr_17_1321,ExactRep-v3-final,2021.2.3,59.9306243949019,
,,,,,,,,,,,,25,0,25,0,,,,,,,,,,,,,,,,,,,,,,,,,,,,,,,,,,,,,,,,,,,,,,,,,1520.6391906002536,None,,,,,,,,,,,,,,,,,,,,,,,,,,,,,,,,,,,,,,,,,,,,,,,,,,,,,,,,,palace,232,26,aloud,new,white,1519.5820829002187,None,n,1519.5820829002187,None,"['n', 'return']","[0.7445363001897931, 1.0242979004979134]",1519.5820829002187,None,,,42,001,2023_Apr_17_1321,ExactRep-v3-final,2021.2.3,59.9306243949019,
,,,,,,,,,,,,26,0,26,0,,,,,,,,,,,,,,,,,,,,,,,,,,,,,,,,,,,,,,,,,,,,,,,,,1522.1241776999086,None,,,,,,,,,,,,,,,,,,,,,,,,,,,,,,,,,,,,,,,,,,,,,,,,,,,,,,,,,nail,234,27,aloud,new,white,1521.1479182997718,None,n,1521.1479182997718,None,"['n', 'return']","[0.6427116999402642, 0.9386178003624082]",1521.1479182997718,None,,,42,001,2023_Apr_17_1321,ExactRep-v3-final,2021.2.3,59.9306243949019,
,,,,,,,,,,,,27,0,27,0,,,,,,,,,,,,,,,,,,,,,,,,,,,,,,,,,,,,,,,,,,,,,,,,,1523.7256496995687,None,,,,,,,,,,,,,,,,,,,,,,,,,,,,,,,,,,,,,,,,,,,,,,,,,,,,,,,,,hide,22,28,sing,old,red,1522.633833100088,None,y,1522.633833100088,None,"['y', 'return']","[0.772940800525248, 1.0526654003188014]",1522.633833100088,None,,,42,001,2023_Apr_17_1321,ExactRep-v3-final,2021.2.3,59.9306243949019,
,,,,,,,,,,,,28,0,28,0,,,,,,,,,,,,,,,,,,,,,,,,,,,,,,,,,,,,,,,,,,,,,,,,,1525.1102828001603,None,,,,,,,,,,,,,,,,,,,,,,,,,,,,,,,,,,,,,,,,,,,,,,,,,,,,,,,,,child,96,29,aloud,old,white,1524.2355640996248,None,y,1524.2355640996248,None,"['y', 'return']","[0.642939199693501, 0.8349936995655298]",1524.2355640996248,None,,,42,001,2023_Apr_17_1321,ExactRep-v3-final,2021.2.3,59.9306243949019,
,,,,,,,,,,,,29,0,29,0,,,,,,,,,,,,,,,,,,,,,,,,,,,,,,,,,,,,,,,,,,,,,,,,,1526.962260399945,None,,,,,,,,,,,,,,,,,,,,,,,,,,,,,,,,,,,,,,,,,,,,,,,,,,,,,,,,,library,104,30,aloud,old,white,1525.6223828000948,None,y,1525.6223828000948,None,"['y', 'return']","[1.1363809006288648, 1.3041160004213452]",1525.6223828000948,None,,,42,001,2023_Apr_17_1321,ExactRep-v3-final,2021.2.3,59.9306243949019,
,,,,,,,,,,,,30,0,30,0,,,,,,,,,,,,,,,,,,,,,,,,,,,,,,,,,,,,,,,,,,,,,,,,,1528.363647500053,None,,,,,,,,,,,,,,,,,,,,,,,,,,,,,,,,,,,,,,,,,,,,,,,,,,,,,,,,,lip,225,31,sing,new,red,1527.4692152999341,None,n,1527.4692152999341,None,"['n', 'return']","[0.7051526000723243, 0.8574727000668645]",1527.4692152999341,None,,,42,001,2023_Apr_17_1321,ExactRep-v3-final,2021.2.3,59.9306243949019,
,,,,,,,,,,,,31,0,31,0,,,,,,,,,,,,,,,,,,,,,,,,,,,,,,,,,,,,,,,,,,,,,,,,,1529.798510399647,None,,,,,,,,,,,,,,,,,,,,,,,,,,,,,,,,,,,,,,,,,,,,,,,,,,,,,,,,,heaven,79,32,sing,old,red,1528.8769942997023,None,y,1528.8769942997023,None,"['y', 'return']","[0.7534681996330619, 0.8895284002646804]",1528.8769942997023,None,,,42,001,2023_Apr_17_1321,ExactRep-v3-final,2021.2.3,59.9306243949019,
,,,,,,,,,,,,32,0,32,0,,,,,,,,,,,,,,,,,,,,,,,,,,,,,,,,,,,,,,,,,,,,,,,,,1531.4167697001249,None,,,,,,,,,,,,,,,,,,,,,,,,,,,,,,,,,,,,,,,,,,,,,,,,,,,,,,,,,dream,139,33,silent,new,blue,1530.3080795994028,None,n,1530.3080795994028,None,"['n', 'return']","[0.898369399830699, 1.0665663005784154]",1530.3080795994028,None,,,42,001,2023_Apr_17_1321,ExactRep-v3-final,2021.2.3,59.9306243949019,
,,,,,,,,,,,,33,0,33,0,,,,,,,,,,,,,,,,,,,,,,,,,,,,,,,,,,,,,,,,,,,,,,,,,1533.6688597993925,None,,,,,,,,,,,,,,,,,,,,,,,,,,,,,,,,,,,,,,,,,,,,,,,,,,,,,,,,,prayer,233,34,sing,new,red,1531.9277213001624,None,y,1531.9277213001624,None,"['y', 'return']","[1.5750834001228213, 1.6948986006900668]",1531.9277213001624,None,,,42,001,2023_Apr_17_1321,ExactRep-v3-final,2021.2.3,59.9306243949019,
,,,,,,,,,,,,34,0,34,0,,,,,,,,,,,,,,,,,,,,,,,,,,,,,,,,,,,,,,,,,,,,,,,,,1535.070356800221,None,,,,,,,,,,,,,,,,,,,,,,,,,,,,,,,,,,,,,,,,,,,,,,,,,,,,,,,,,rod,188,35,aloud,new,white,1534.178890099749,None,n,1534.178890099749,None,"['n', 'return']","[0.6356504997238517, 0.8515946995466948]",1534.178890099749,None,,,42,001,2023_Apr_17_1321,ExactRep-v3-final,2021.2.3,59.9306243949019,
,,,,,,,,,,,,35,0,35,0,,,,,,,,,,,,,,,,,,,,,,,,,,,,,,,,,,,,,,,,,,,,,,,,,1537.1891168998554,None,,,,,,,,,,,,,,,,,,,,,,,,,,,,,,,,,,,,,,,,,,,,,,,,,,,,,,,,,hotel,30,36,sing,old,red,1535.5775833996013,None,n,1535.5775833996013,None,"['n', 'return']","[1.4129429003223777, 1.5651265997439623]",1535.5775833996013,None,,,42,001,2023_Apr_17_1321,ExactRep-v3-final,2021.2.3,59.9306243949019,
,,,,,,,,,,,,36,0,36,0,,,,,,,,,,,,,,,,,,,,,,,,,,,,,,,,,,,,,,,,,,,,,,,,,1539.358000099659,None,,,,,,,,,,,,,,,,,,,,,,,,,,,,,,,,,,,,,,,,,,,,,,,,,,,,,,,,,chair,6,37,sing,old,red,1537.6958520002663,None,y,1537.6958520002663,None,"['y', 'return']","[0.7988782003521919, 1.6306178998202085]",1537.6958520002663,None,,,42,001,2023_Apr_17_1321,ExactRep-v3-final,2021.2.3,59.9306243949019,
,,,,,,,,,,,,37,0,37,0,,,,,,,,,,,,,,,,,,,,,,,,,,,,,,,,,,,,,,,,,,,,,,,,,1542.0106419995427,None,,,,,,,,,,,,,,,,,,,,,,,,,,,,,,,,,,,,,,,,,,,,,,,,,,,,,,,,,bottle,157,38,silent,new,blue,1539.871894299984,None,n,1539.871894299984,None,"['n', 'return']","[1.9746150001883507, 2.09454089961946]",1539.871894299984,None,,,42,001,2023_Apr_17_1321,ExactRep-v3-final,2021.2.3,59.9306243949019,
,,,,,,,,,,,,38,0,38,0,,,,,,,,,,,,,,,,,,,,,,,,,,,,,,,,,,,,,,,,,,,,,,,,,1543.995959999971,None,,,,,,,,,,,,,,,,,,,,,,,,,,,,,,,,,,,,,,,,,,,,,,,,,,,,,,,,,master,53,39,silent,old,blue,1542.5205645002425,None,n,1542.5205645002425,None,"['n', 'return']","[1.2860362008213997, 1.4299627002328634]",1542.5205645002425,None,,,42,001,2023_Apr_17_1321,ExactRep-v3-final,2021.2.3,59.9306243949019,
,,,,,,,,,,,,39,0,39,0,,,,,,,,,,,,,,,,,,,,,,,,,,,,,,,,,,,,,,,,,,,,,,,,,1545.5476653994992,None,,,,,,,,,,,,,,,,,,,,,,,,,,,,,,,,,,,,,,,,,,,,,,,,,,,,,,,,,fate,107,40,aloud,old,white,1544.508163999766,None,y,1544.508163999766,None,"['y', 'return']","[0.8184099001809955, 0.9943845998495817]",1544.508163999766,None,,,42,001,2023_Apr_17_1321,ExactRep-v3-final,2021.2.3,59.9306243949019,
,,,,,,,,,,,,40,0,40,0,,,,,,,,,,,,,,,,,,,,,,,,,,,,,,,,,,,,,,,,,,,,,,,,,1548.1335464995354,None,,,,,,,,,,,,,,,,,,,,,,,,,,,,,,,,,,,,,,,,,,,,,,,,,,,,,,,,,disease,74,41,silent,old,blue,1546.0572346998379,None,n,1546.0572346998379,None,"['n', 'return']","[1.9814479993656278, 2.0293339993804693]",1546.0572346998379,None,,,42,001,2023_Apr_17_1321,ExactRep-v3-final,2021.2.3,59.9306243949019,
,,,,,,,,,,,,41,0,41,0,,,,,,,,,,,,,,,,,,,,,,,,,,,,,,,,,,,,,,,,,,,,,,,,,1550.8027631994337,None,,,,,,,,,,,,,,,,,,,,,,,,,,,,,,,,,,,,,,,,,,,,,,,,,,,,,,,,,money,149,42,silent,new,blue,1548.6431387001649,None,n,1548.6431387001649,None,"['n', 'y', 'return']","[1.1072923000901937, 1.8273838004097342, 2.1233660001307726]",1548.6431387001649,None,,,42,001,2023_Apr_17_1321,ExactRep-v3-final,2021.2.3,59.9306243949019,
,,,,,,,,,,,,42,0,42,0,,,,,,,,,,,,,,,,,,,,,,,,,,,,,,,,,,,,,,,,,,,,,,,,,1552.8881554994732,None,,,,,,,,,,,,,,,,,,,,,,,,,,,,,,,,,,,,,,,,,,,,,,,,,,,,,,,,,murder,182,43,aloud,new,white,1551.3108911002055,None,y,1551.3108911002055,None,"['y', 'return']","[1.2477051001042128, 1.5435800999403]",1551.3108911002055,None,,,42,001,2023_Apr_17_1321,ExactRep-v3-final,2021.2.3,59.9306243949019,
,,,,,,,,,,,,43,0,43,0,,,,,,,,,,,,,,,,,,,,,,,,,,,,,,,,,,,,,,,,,,,,,,,,,1555.5241650994867,None,,,,,,,,,,,,,,,,,,,,,,,,,,,,,,,,,,,,,,,,,,,,,,,,,,,,,,,,,origin,197,44,sing,new,red,1553.4004827002063,None,n,1553.4004827002063,None,"['n', 'return']","[1.9181238999590278, 2.0862075006589293]",1553.4004827002063,None,,,42,001,2023_Apr_17_1321,ExactRep-v3-final,2021.2.3,59.9306243949019,
,,,,,,,,,,,,44,0,44,0,,,,,,,,,,,,,,,,,,,,,,,,,,,,,,,,,,,,,,,,,,,,,,,,,1558.4268349995837,None,,,,,,,,,,,,,,,,,,,,,,,,,,,,,,,,,,,,,,,,,,,,,,,,,,,,,,,,,animal,52,45,silent,old,blue,1556.0342168994248,None,n,1556.0342168994248,None,"['n', 'return']","[2.18817069940269, 2.34826419968158]",1556.0342168994248,None,,,42,001,2023_Apr_17_1321,ExactRep-v3-final,2021.2.3,59.9306243949019,
,,,,,,,,,,,,45,0,45,0,,,,,,,,,,,,,,,,,,,,,,,,,,,,,,,,,,,,,,,,,,,,,,,,,1561.663627100177,None,,,,,,,,,,,,,,,,,,,,,,,,,,,,,,,,,,,,,,,,,,,,,,,,,,,,,,,,,flower,178,46,aloud,new,white,1558.938799499534,None,n,1558.938799499534,None,"['n', 'return']","[2.6117463000118732, 2.691847199574113]",1558.938799499534,None,,,42,001,2023_Apr_17_1321,ExactRep-v3-final,2021.2.3,59.9306243949019,
,,,,,,,,,,,,46,0,46,0,,,,,,,,,,,,,,,,,,,,,,,,,,,,,,,,,,,,,,,,,,,,,,,,,1563.231855799444,None,,,,,,,,,,,,,,,,,,,,,,,,,,,,,,,,,,,,,,,,,,,,,,,,,,,,,,,,,string,42,47,silent,old,blue,1562.1754636000842,None,n,1562.1754636000842,None,"['n', 'return']","[0.8711111005395651, 1.0151460003107786]",1562.1754636000842,None,,,42,001,2023_Apr_17_1321,ExactRep-v3-final,2021.2.3,59.9306243949019,
,,,,,,,,,,,,47,0,47,0,,,,,,,,,,,,,,,,,,,,,,,,,,,,,,,,,,,,,,,,,,,,,,,,,1568.987614300102,None,,,,,,,,,,,,,,,,,,,,,,,,,,,,,,,,,,,,,,,,,,,,,,,,,,,,,,,,,virtue,58,48,silent,old,blue,1563.7407577997074,None,n,1563.7407577997074,None,"['backspace', 'backspace', 'n', 'return']","[1.9857321996241808, 2.5778348995372653, 5.009732499718666, 5.201755099929869]",1563.7407577997074,None,,,42,001,2023_Apr_17_1321,ExactRep-v3-final,2021.2.3,59.9306243949019,
,,,,,,,,,,,,48,0,48,0,,,,,,,,,,,,,,,,,,,,,,,,,,,,,,,,,,,,,,,,,,,,,,,,,1576.445084899664,None,,,,,,,,,,,,,,,,,,,,,,,,,,,,,,,,,,,,,,,,,,,,,,,,,,,,,,,,,sugar,31,49,sing,old,red,1569.494930099696,None,y,1569.494930099696,None,"['y', 'return']","[4.96779160015285, 6.903586000204086]",1569.494930099696,None,,,42,001,2023_Apr_17_1321,ExactRep-v3-final,2021.2.3,59.9306243949019,
,,,,,,,,,,,,49,0,49,0,,,,,,,,,,,,,,,,,,,,,,,,,,,,,,,,,,,,,,,,,,,,,,,,,1578.0300284996629,None,,,,,,,,,,,,,,,,,,,,,,,,,,,,,,,,,,,,,,,,,,,,,,,,,,,,,,,,,moral,51,50,silent,old,blue,1576.9572839001194,None,y,1576.9572839001194,None,"['y', 'return']","[0.8413190999999642, 1.0252473996952176]",1576.9572839001194,None,,,42,001,2023_Apr_17_1321,ExactRep-v3-final,2021.2.3,59.9306243949019,
,,,,,,,,,,,,50,0,50,0,,,,,,,,,,,,,,,,,,,,,,,,,,,,,,,,,,,,,,,,,,,,,,,,,1579.698337099515,None,,,,,,,,,,,,,,,,,,,,,,,,,,,,,,,,,,,,,,,,,,,,,,,,,,,,,,,,,book,238,51,aloud,new,white,1578.5406117001548,None,n,1578.5406117001548,None,"['n', 'return']","[0.8979203999042511, 1.1138521004468203]",1578.5406117001548,None,,,42,001,2023_Apr_17_1321,ExactRep-v3-final,2021.2.3,59.9306243949019,
,,,,,,,,,,,,51,0,51,0,,,,,,,,,,,,,,,,,,,,,,,,,,,,,,,,,,,,,,,,,,,,,,,,,1581.7004699995741,None,,,,,,,,,,,,,,,,,,,,,,,,,,,,,,,,,,,,,,,,,,,,,,,,,,,,,,,,,tree,168,52,aloud,new,white,1580.2082383995876,None,n,1580.2082383995876,None,"['n', 'return']","[1.1585670998319983, 1.454360299743712]",1580.2082383995876,None,,,42,001,2023_Apr_17_1321,ExactRep-v3-final,2021.2.3,59.9306243949019,
,,,,,,,,,,,,52,0,52,0,,,,,,,,,,,,,,,,,,,,,,,,,,,,,,,,,,,,,,,,,,,,,,,,,1585.2540434002876,None,,,,,,,,,,,,,,,,,,,,,,,,,,,,,,,,,,,,,,,,,,,,,,,,,,,,,,,,,method,45,53,silent,old,blue,1582.2086102999747,None,n,1582.2086102999747,None,"['n', 'return']","[2.7259534001350403, 3.005929199978709]",1582.2086102999747,None,,,42,001,2023_Apr_17_1321,ExactRep-v3-final,2021.2.3,59.9306243949019,
,,,,,,,,,,,,53,0,53,0,,,,,,,,,,,,,,,,,,,,,,,,,,,,,,,,,,,,,,,,,,,,,,,,,1587.055765999481,None,,,,,,,,,,,,,,,,,,,,,,,,,,,,,,,,,,,,,,,,,,,,,,,,,,,,,,,,,machine,123,54,silent,new,blue,1585.7604778995737,None,n,1585.7604778995737,None,"['n', 'return']","[0.9180993996560574, 1.262079699896276]",1585.7604778995737,None,,,42,001,2023_Apr_17_1321,ExactRep-v3-final,2021.2.3,59.9306243949019,
,,,,,,,,,,,,54,0,54,0,,,,,,,,,,,,,,,,,,,,,,,,,,,,,,,,,,,,,,,,,,,,,,,,,1588.6739558000118,None,,,,,,,,,,,,,,,,,,,,,,,,,,,,,,,,,,,,,,,,,,,,,,,,,,,,,,,,,camp,3,55,sing,old,red,1587.5654303003103,None,y,1587.5654303003103,None,"['y', 'return']","[0.8249853001907468, 1.0732360007241368]",1587.5654303003103,None,,,42,001,2023_Apr_17_1321,ExactRep-v3-final,2021.2.3,59.9306243949019,
,,,,,,,,,,,,55,0,55,0,,,,,,,,,,,,,,,,,,,,,,,,,,,,,,,,,,,,,,,,,,,,,,,,,1590.7260982999578,None,,,,,,,,,,,,,,,,,,,,,,,,,,,,,,,,,,,,,,,,,,,,,,,,,,,,,,,,,table,208,56,aloud,new,white,1589.1808428997174,None,n,1589.1808428997174,None,"['n', 'return']","[1.313871099613607, 1.505863600410521]",1589.1808428997174,None,,,42,001,2023_Apr_17_1321,ExactRep-v3-final,2021.2.3,59.9306243949019,
,,,,,,,,,,,,56,0,56,0,,,,,,,,,,,,,,,,,,,,,,,,,,,,,,,,,,,,,,,,,,,,,,,,,1592.4944078000262,None,,,,,,,,,,,,,,,,,,,,,,,,,,,,,,,,,,,,,,,,,,,,,,,,,,,,,,,,,beast,37,57,sing,old,red,1591.2323452997953,None,y,1591.2323452997953,None,"['y', 'return']","[0.9904755000025034, 1.214333400130272]",1591.2323452997953,None,,,42,001,2023_Apr_17_1321,ExactRep-v3-final,2021.2.3,59.9306243949019,
,,,,,,,,,,,,57,0,57,0,,,,,,,,,,,,,,,,,,,,,,,,,,,,,,,,,,,,,,,,,,,,,,,,,1594.3629916002974,None,,,,,,,,,,,,,,,,,,,,,,,,,,,,,,,,,,,,,,,,,,,,,,,,,,,,,,,,,teacher,25,58,sing,old,red,1593.0044189002365,None,y,1593.0044189002365,None,"['y', 'return']","[0.9543919004499912, 1.3221803000196815]",1593.0044189002365,None,,,42,001,2023_Apr_17_1321,ExactRep-v3-final,2021.2.3,59.9306243949019,
,,,,,,,,,,,,58,0,58,0,,,,,,,,,,,,,,,,,,,,,,,,,,,,,,,,,,,,,,,,,,,,,,,,,1595.8644554000348,None,,,,,,,,,,,,,,,,,,,,,,,,,,,,,,,,,,,,,,,,,,,,,,,,,,,,,,,,,village,159,59,silent,new,blue,1594.873819699511,None,n,1594.873819699511,None,"['n', 'return']","[0.708742099814117, 0.9487467994913459]",1594.873819699511,None,,,42,001,2023_Apr_17_1321,ExactRep-v3-final,2021.2.3,59.9306243949019,
,,,,,,,,,,,,59,0,59,0,,,,,,,,,,,,,,,,,,,,,,,,,,,,,,,,,,,,,,,,,,,,,,,,,1597.4171963995323,None,,,,,,,,,,,,,,,,,,,,,,,,,,,,,,,,,,,,,,,,,,,,,,,,,,,,,,,,,time,206,60,aloud,new,white,1596.3749099997804,None,n,1596.3749099997804,None,"['n', 'return']","[0.8078704001381993, 0.9998564003035426]",1596.3749099997804,None,,,42,001,2023_Apr_17_1321,ExactRep-v3-final,2021.2.3,59.9306243949019,
,,,,,,,,,,,,60,0,60,0,,,,,,,,,,,,,,,,,,,,,,,,,,,,,,,,,,,,,,,,,,,,,,,,,1598.8175544003025,None,,,,,,,,,,,,,,,,,,,,,,,,,,,,,,,,,,,,,,,,,,,,,,,,,,,,,,,,,boulder,211,61,sing,new,red,1597.9258340997621,None,n,1597.9258340997621,None,"['n', 'return']","[0.6806206991896033, 0.8568027997389436]",1597.9258340997621,None,,,42,001,2023_Apr_17_1321,ExactRep-v3-final,2021.2.3,59.9306243949019,
,,,,,,,,,,,,61,0,61,0,,,,,,,,,,,,,,,,,,,,,,,,,,,,,,,,,,,,,,,,,,,,,,,,,1600.3049069000408,None,,,,,,,,,,,,,,,,,,,,,,,,,,,,,,,,,,,,,,,,,,,,,,,,,,,,,,,,,lad,200,62,aloud,new,white,1599.3262008000165,None,n,1599.3262008000165,None,"['n', 'return']","[0.6563763003796339, 0.936239399947226]",1599.3262008000165,None,,,42,001,2023_Apr_17_1321,ExactRep-v3-final,2021.2.3,59.9306243949019,
,,,,,,,,,,,,62,0,62,0,,,,,,,,,,,,,,,,,,,,,,,,,,,,,,,,,,,,,,,,,,,,,,,,,1603.7390040997416,None,,,,,,,,,,,,,,,,,,,,,,,,,,,,,,,,,,,,,,,,,,,,,,,,,,,,,,,,,winter,146,63,silent,new,blue,1600.8329695994034,None,n,1600.8329695994034,None,"['n', 'return']","[2.7176983999088407, 2.869971299543977]",1600.8329695994034,None,,,42,001,2023_Apr_17_1321,ExactRep-v3-final,2021.2.3,59.9306243949019,
,,,,,,,,,,,,63,0,63,0,,,,,,,,,,,,,,,,,,,,,,,,,,,,,,,,,,,,,,,,,,,,,,,,,1605.4740830995142,None,,,,,,,,,,,,,,,,,,,,,,,,,,,,,,,,,,,,,,,,,,,,,,,,,,,,,,,,,cash,15,64,sing,old,red,1604.2498862994835,None,y,1604.2498862994835,None,"['y', 'return']","[0.780629500746727, 1.1805679006502032]",1604.2498862994835,None,,,42,001,2023_Apr_17_1321,ExactRep-v3-final,2021.2.3,59.9306243949019,
,,,,,,,,,,,,64,0,64,0,,,,,,,,,,,,,,,,,,,,,,,,,,,,,,,,,,,,,,,,,,,,,,,,,1607.6596293998882,None,,,,,,,,,,,,,,,,,,,,,,,,,,,,,,,,,,,,,,,,,,,,,,,,,,,,,,,,,leader,150,65,silent,new,blue,1605.9830847000703,None,n,1605.9830847000703,None,"['n', 'return']","[0.8955069994553924, 1.6394611997529864]",1605.9830847000703,None,,,42,001,2023_Apr_17_1321,ExactRep-v3-final,2021.2.3,59.9306243949019,
,,,,,,,,,,,,65,0,65,0,,,,,,,,,,,,,,,,,,,,,,,,,,,,,,,,,,,,,,,,,,,,,,,,,1610.4959605997428,None,,,,,,,,,,,,,,,,,,,,,,,,,,,,,,,,,,,,,,,,,,,,,,,,,,,,,,,,,shock,105,66,aloud,old,white,1608.1696154000238,None,n,1608.1696154000238,None,"['n', 'return']","[1.7249137004837394, 2.2931848000735044]",1608.1696154000238,None,,,42,001,2023_Apr_17_1321,ExactRep-v3-final,2021.2.3,59.9306243949019,
,,,,,,,,,,,,66,0,66,0,,,,,,,,,,,,,,,,,,,,,,,,,,,,,,,,,,,,,,,,,,,,,,,,,1614.3662574999034,None,,,,,,,,,,,,,,,,,,,,,,,,,,,,,,,,,,,,,,,,,,,,,,,,,,,,,,,,,poet,50,67,silent,old,blue,1611.0072815995663,None,n,1611.0072815995663,None,"['n', 'return']","[3.143358500674367, 3.3273403998464346]",1611.0072815995663,None,,,42,001,2023_Apr_17_1321,ExactRep-v3-final,2021.2.3,59.9306243949019,
,,,,,,,,,,,,67,0,67,0,,,,,,,,,,,,,,,,,,,,,,,,,,,,,,,,,,,,,,,,,,,,,,,,,1615.834377899766,None,,,,,,,,,,,,,,,,,,,,,,,,,,,,,,,,,,,,,,,,,,,,,,,,,,,,,,,,,iron,95,68,aloud,old,white,1614.8761844998226,None,y,1614.8761844998226,None,"['y', 'return']","[0.72235899977386, 0.9223790001124144]",1614.8761844998226,None,,,42,001,2023_Apr_17_1321,ExactRep-v3-final,2021.2.3,59.9306243949019,
,,,,,,,,,,,,68,0,68,0,,,,,,,,,,,,,,,,,,,,,,,,,,,,,,,,,,,,,,,,,,,,,,,,,1617.302756499499,None,,,,,,,,,,,,,,,,,,,,,,,,,,,,,,,,,,,,,,,,,,,,,,,,,,,,,,,,,deed,138,69,silent,new,blue,1616.3433064995334,None,n,1616.3433064995334,None,"['n', 'return']","[0.7596054999157786, 0.9192915996536613]",1616.3433064995334,None,,,42,001,2023_Apr_17_1321,ExactRep-v3-final,2021.2.3,59.9306243949019,
,,,,,,,,,,,,69,0,69,0,,,,,,,,,,,,,,,,,,,,,,,,,,,,,,,,,,,,,,,,,,,,,,,,,1619.104338400066,None,,,,,,,,,,,,,,,,,,,,,,,,,,,,,,,,,,,,,,,,,,,,,,,,,,,,,,,,,storm,204,70,aloud,new,white,1617.8140950994566,None,n,1617.8140950994566,None,"['n', 'return']","[1.0646732999011874, 1.2487460998818278]",1617.8140950994566,None,,,42,001,2023_Apr_17_1321,ExactRep-v3-final,2021.2.3,59.9306243949019,
,,,,,,,,,,,,70,0,70,0,,,,,,,,,,,,,,,,,,,,,,,,,,,,,,,,,,,,,,,,,,,,,,,,,1621.9071416994557,None,,,,,,,,,,,,,,,,,,,,,,,,,,,,,,,,,,,,,,,,,,,,,,,,,,,,,,,,,season,154,71,silent,new,blue,1619.6198215996847,None,y,1619.6198215996847,None,"['y', 'n', 'return']","[0.8829519003629684, 1.8668270008638501, 2.242729900404811]",1619.6198215996847,None,,,42,001,2023_Apr_17_1321,ExactRep-v3-final,2021.2.3,59.9306243949019,
,,,,,,,,,,,,71,0,71,0,,,,,,,,,,,,,,,,,,,,,,,,,,,,,,,,,,,,,,,,,,,,,,,,,1623.8426275001839,None,,,,,,,,,,,,,,,,,,,,,,,,,,,,,,,,,,,,,,,,,,,,,,,,,,,,,,,,,student,230,72,aloud,new,white,1622.4193172995,None,y,1622.4193172995,None,"['y', 'return']","[1.1952757006511092, 1.3792111007496715]",1622.4193172995,None,,,42,001,2023_Apr_17_1321,ExactRep-v3-final,2021.2.3,59.9306243949019,
,,,,,,,,,,,,72,0,72,0,,,,,,,,,,,,,,,,,,,,,,,,,,,,,,,,,,,,,,,,,,,,,,,,,1625.6696194000542,None,,,,,,,,,,,,,,,,,,,,,,,,,,,,,,,,,,,,,,,,,,,,,,,,,,,,,,,,,lord,226,73,aloud,new,white,1624.3512661000714,None,n,1624.3512661000714,None,"['n', 'return']","[1.0474805999547243, 1.2553091999143362]",1624.3512661000714,None,,,42,001,2023_Apr_17_1321,ExactRep-v3-final,2021.2.3,59.9306243949019,
,,,,,,,,,,,,73,0,73,0,,,,,,,,,,,,,,,,,,,,,,,,,,,,,,,,,,,,,,,,,,,,,,,,,1627.2625444000587,None,,,,,,,,,,,,,,,,,,,,,,,,,,,,,,,,,,,,,,,,,,,,,,,,,,,,,,,,,doctor,115,74,aloud,old,white,1626.205213399604,None,n,1626.205213399604,None,"['n', 'return']","[0.8576095998287201, 1.0175013998523355]",1626.205213399604,None,,,42,001,2023_Apr_17_1321,ExactRep-v3-final,2021.2.3,59.9306243949019,
,,,,,,,,,,,,74,0,74,0,,,,,,,,,,,,,,,,,,,,,,,,,,,,,,,,,,,,,,,,,,,,,,,,,1628.880689099431,None,,,,,,,,,,,,,,,,,,,,,,,,,,,,,,,,,,,,,,,,,,,,,,,,,,,,,,,,,colony,61,75,silent,old,blue,1627.767994299531,None,n,1627.767994299531,None,"['n', 'return']","[0.9986021993681788, 1.0706219002604485]",1627.767994299531,None,,,42,001,2023_Apr_17_1321,ExactRep-v3-final,2021.2.3,59.9306243949019,
,,,,,,,,,,,,75,0,75,0,,,,,,,,,,,,,,,,,,,,,,,,,,,,,,,,,,,,,,,,,,,,,,,,,1631.0997345000505,None,,,,,,,,,,,,,,,,,,,,,,,,,,,,,,,,,,,,,,,,,,,,,,,,,,,,,,,,,ability,39,76,silent,old,blue,1629.390461199917,None,y,1629.390461199917,None,"['y', 'return']","[1.4961334001272917, 1.6721491003409028]",1629.390461199917,None,,,42,001,2023_Apr_17_1321,ExactRep-v3-final,2021.2.3,59.9306243949019,
,,,,,,,,,,,,76,0,76,0,,,,,,,,,,,,,,,,,,,,,,,,,,,,,,,,,,,,,,,,,,,,,,,,,1632.4846091996878,None,,,,,,,,,,,,,,,,,,,,,,,,,,,,,,,,,,,,,,,,,,,,,,,,,,,,,,,,,pipe,128,77,silent,new,blue,1631.6082892995328,None,n,1631.6082892995328,None,"['n', 'return']","[0.6544233001768589, 0.8304194007068872]",1631.6082892995328,None,,,42,001,2023_Apr_17_1321,ExactRep-v3-final,2021.2.3,59.9306243949019,
,,,,,,,,,,,,77,0,77,0,,,,,,,,,,,,,,,,,,,,,,,,,,,,,,,,,,,,,,,,,,,,,,,,,1634.7032981999218,None,,,,,,,,,,,,,,,,,,,,,,,,,,,,,,,,,,,,,,,,,,,,,,,,,,,,,,,,,shadow,142,78,silent,new,blue,1632.9966160003096,None,n,1632.9966160003096,None,"['n', 'return']","[1.5780071998015046, 1.6739272000268102]",1632.9966160003096,None,,,42,001,2023_Apr_17_1321,ExactRep-v3-final,2021.2.3,59.9306243949019,
,,,,,,,,,,,,78,0,78,0,,,,,,,,,,,,,,,,,,,,,,,,,,,,,,,,,,,,,,,,,,,,,,,,,1637.2893784996122,None,,,,,,,,,,,,,,,,,,,,,,,,,,,,,,,,,,,,,,,,,,,,,,,,,,,,,,,,,water,102,79,aloud,old,white,1635.2190258996561,None,y,1635.2190258996561,None,"['y', 'return']","[1.9316499000415206, 2.035552299581468]",1635.2190258996561,None,,,42,001,2023_Apr_17_1321,ExactRep-v3-final,2021.2.3,59.9306243949019,
,,,,,,,,,,,,79,0,79,0,,,,,,,,,,,,,,,,,,,,,,,,,,,,,,,,,,,,,,,,,,,,,,,,,1638.6071784999222,None,,,,,,,,,,,,,,,,,,,,,,,,,,,,,,,,,,,,,,,,,,,,,,,,,,,,,,,,,green,231,80,sing,new,red,1637.8030840000138,None,n,1637.8030840000138,None,"['n', 'return']","[0.6114817997440696, 0.771636700257659]",1637.8030840000138,None,,,42,001,2023_Apr_17_1321,ExactRep-v3-final,2021.2.3,59.9306243949019,
,,,,,,,,,,,,80,0,80,0,,,,,,,,,,,,,,,,,,,,,,,,,,,,,,,,,,,,,,,,,,,,,,,,,1641.393341800198,None,,,,,,,,,,,,,,,,,,,,,,,,,,,,,,,,,,,,,,,,,,,,,,,,,,,,,,,,,style,70,81,silent,old,blue,1639.1158515000716,None,n,1639.1158515000716,None,"['n', 'return']","[2.1707563996315002, 2.242783699184656]",1639.1158515000716,None,,,42,001,2023_Apr_17_1321,ExactRep-v3-final,2021.2.3,59.9306243949019,
,,,,,,,,,,,,81,0,81,0,,,,,,,,,,,,,,,,,,,,,,,,,,,,,,,,,,,,,,,,,,,,,,,,,1643.2453745994717,None,,,,,,,,,,,,,,,,,,,,,,,,,,,,,,,,,,,,,,,,,,,,,,,,,,,,,,,,,form,101,82,aloud,old,white,1641.902312000282,None,y,1641.902312000282,None,"['y', 'return']","[1.1203401992097497, 1.3042810000479221]",1641.902312000282,None,,,42,001,2023_Apr_17_1321,ExactRep-v3-final,2021.2.3,59.9306243949019,
,,,,,,,,,,,,82,0,82,0,,,,,,,,,,,,,,,,,,,,,,,,,,,,,,,,,,,,,,,,,,,,,,,,,1646.6651913002133,None,,,,,,,,,,,,,,,,,,,,,,,,,,,,,,,,,,,,,,,,,,,,,,,,,,,,,,,,,fault,49,83,silent,old,blue,1643.7529715998098,None,n,1643.7529715998098,None,"['n', 'return']","[2.685769099742174, 2.869841099716723]",1643.7529715998098,None,,,42,001,2023_Apr_17_1321,ExactRep-v3-final,2021.2.3,59.9306243949019,
,,,,,,,,,,,,83,0,83,0,,,,,,,,,,,,,,,,,,,,,,,,,,,,,,,,,,,,,,,,,,,,,,,,,1648.2502141995355,None,,,,,,,,,,,,,,,,,,,,,,,,,,,,,,,,,,,,,,,,,,,,,,,,,,,,,,,,,temple,141,84,silent,new,blue,1647.1776498993859,None,n,1647.1776498993859,None,"['n', 'return']","[0.900976499542594, 1.0288870995864272]",1647.1776498993859,None,,,42,001,2023_Apr_17_1321,ExactRep-v3-final,2021.2.3,59.9306243949019,
,,,,,,,,,,,,84,0,84,0,,,,,,,,,,,,,,,,,,,,,,,,,,,,,,,,,,,,,,,,,,,,,,,,,1649.7349435994402,None,,,,,,,,,,,,,,,,,,,,,,,,,,,,,,,,,,,,,,,,,,,,,,,,,,,,,,,,,amount,89,85,aloud,old,white,1648.7784639997408,None,y,1648.7784639997408,None,"['y', 'return']","[0.7560892999172211, 0.9241623003035784]",1648.7784639997408,None,,,42,001,2023_Apr_17_1321,ExactRep-v3-final,2021.2.3,59.9306243949019,
,,,,,,,,,,,,85,0,85,0,,,,,,,,,,,,,,,,,,,,,,,,,,,,,,,,,,,,,,,,,,,,,,,,,1652.6212090998888,None,,,,,,,,,,,,,,,,,,,,,,,,,,,,,,,,,,,,,,,,,,,,,,,,,,,,,,,,,safety,235,86,sing,new,red,1650.2356484001502,None,n,1650.2356484001502,None,"['n', 'return']","[1.7949272003024817, 2.3389527006074786]",1650.2356484001502,None,,,42,001,2023_Apr_17_1321,ExactRep-v3-final,2021.2.3,59.9306243949019,
,,,,,,,,,,,,86,0,86,0,,,,,,,,,,,,,,,,,,,,,,,,,,,,,,,,,,,,,,,,,,,,,,,,,1654.0894895996898,None,,,,,,,,,,,,,,,,,,,,,,,,,,,,,,,,,,,,,,,,,,,,,,,,,,,,,,,,,volume,201,87,sing,new,red,1653.132088799961,None,n,1653.132088799961,None,"['n', 'return']","[0.7704796995967627, 0.9144926993176341]",1653.132088799961,None,,,42,001,2023_Apr_17_1321,ExactRep-v3-final,2021.2.3,59.9306243949019,
,,,,,,,,,,,,87,0,87,0,,,,,,,,,,,,,,,,,,,,,,,,,,,,,,,,,,,,,,,,,,,,,,,,,1656.0581189002842,None,,,,,,,,,,,,,,,,,,,,,,,,,,,,,,,,,,,,,,,,,,,,,,,,,,,,,,,,,flesh,47,88,silent,old,blue,1654.59316950012,None,n,1654.59316950012,None,"['n', 'return']","[1.3173449002206326, 1.4213468004018068]",1654.59316950012,None,,,42,001,2023_Apr_17_1321,ExactRep-v3-final,2021.2.3,59.9306243949019,
,,,,,,,,,,,,88,0,88,0,,,,,,,,,,,,,,,,,,,,,,,,,,,,,,,,,,,,,,,,,,,,,,,,,1658.5771976998076,None,,,,,,,,,,,,,,,,,,,,,,,,,,,,,,,,,,,,,,,,,,,,,,,,,,,,,,,,,moment,117,89,aloud,old,white,1656.5703461002558,None,y,1656.5703461002558,None,"['y', 'return']","[1.8443620996549726, 1.9643420996144414]",1656.5703461002558,None,,,42,001,2023_Apr_17_1321,ExactRep-v3-final,2021.2.3,59.9306243949019,
,,,,,,,,,,,,89,0,89,0,,,,,,,,,,,,,,,,,,,,,,,,,,,,,,,,,,,,,,,,,,,,,,,,,1659.9618587000296,None,,,,,,,,,,,,,,,,,,,,,,,,,,,,,,,,,,,,,,,,,,,,,,,,,,,,,,,,,gold,64,90,silent,old,blue,1659.0895162997767,None,n,1659.0895162997767,None,"['n', 'return']","[0.7331213997676969, 0.837236300110817]",1659.0895162997767,None,,,42,001,2023_Apr_17_1321,ExactRep-v3-final,2021.2.3,59.9306243949019,
,,,,,,,,,,,,90,0,90,0,,,,,,,,,,,,,,,,,,,,,,,,,,,,,,,,,,,,,,,,,,,,,,,,,1662.4309817003086,None,,,,,,,,,,,,,,,,,,,,,,,,,,,,,,,,,,,,,,,,,,,,,,,,,,,,,,,,,grass,121,91,silent,new,blue,1660.4671741994098,None,n,1660.4671741994098,None,"['n', 'return']","[0.867433700710535, 1.931304800324142]",1660.4671741994098,None,,,42,001,2023_Apr_17_1321,ExactRep-v3-final,2021.2.3,59.9306243949019,
,,,,,,,,,,,,91,0,91,0,,,,,,,,,,,,,,,,,,,,,,,,,,,,,,,,,,,,,,,,,,,,,,,,,1668.8540920000523,None,,,,,,,,,,,,,,,,,,,,,,,,,,,,,,,,,,,,,,,,,,,,,,,,,,,,,,,,,death,43,92,silent,old,blue,1662.9410320995376,None,y,1662.9410320995376,None,"['n', 'y', 'backspace', 'y', 'return']","[0.7777313999831676, 1.433627100661397, 4.1536471005529165, 4.881564500741661, 5.873589800670743]",1662.9410320995376,None,,,42,001,2023_Apr_17_1321,ExactRep-v3-final,2021.2.3,59.9306243949019,
,,,,,,,,,,,,92,0,92,0,,,,,,,,,,,,,,,,,,,,,,,,,,,,,,,,,,,,,,,,,,,,,,,,,1671.9072183994576,None,,,,,,,,,,,,,,,,,,,,,,,,,,,,,,,,,,,,,,,,,,,,,,,,,,,,,,,,,blossom,82,93,aloud,old,white,1669.3654782995582,None,n,1669.3654782995582,None,"['n', 'return']","[2.3691779002547264, 2.5051209004595876]",1669.3654782995582,None,,,42,001,2023_Apr_17_1321,ExactRep-v3-final,2021.2.3,59.9306243949019,
,,,,,,,,,,,,93,0,93,0,,,,,,,,,,,,,,,,,,,,,,,,,,,,,,,,,,,,,,,,,,,,,,,,,1676.729732800275,None,,,,,,,,,,,,,,,,,,,,,,,,,,,,,,,,,,,,,,,,,,,,,,,,,,,,,,,,,fact,120,94,silent,new,blue,1672.4187981998548,None,n,1672.4187981998548,None,"['n', 'return']","[4.155798500403762, 4.275896499864757]",1672.4187981998548,None,,,42,001,2023_Apr_17_1321,ExactRep-v3-final,2021.2.3,59.9306243949019,
,,,,,,,,,,,,94,0,94,0,,,,,,,,,,,,,,,,,,,,,,,,,,,,,,,,,,,,,,,,,,,,,,,,,1678.4637345001101,None,,,,,,,,,,,,,,,,,,,,,,,,,,,,,,,,,,,,,,,,,,,,,,,,,,,,,,,,,anger,209,95,sing,new,red,1677.2372150002047,None,n,1677.2372150002047,None,"['n', 'return']","[1.0895361993461847, 1.1933844992890954]",1677.2372150002047,None,,,42,001,2023_Apr_17_1321,ExactRep-v3-final,2021.2.3,59.9306243949019,
,,,,,,,,,,,,95,0,95,0,,,,,,,,,,,,,,,,,,,,,,,,,,,,,,,,,,,,,,,,,,,,,,,,,1679.9653532998636,None,,,,,,,,,,,,,,,,,,,,,,,,,,,,,,,,,,,,,,,,,,,,,,,,,,,,,,,,,cost,103,96,aloud,old,white,1678.9846642995253,None,y,1678.9846642995253,None,"['y', 'return']","[0.8538580005988479, 0.9420405002310872]",1678.9846642995253,None,,,42,001,2023_Apr_17_1321,ExactRep-v3-final,2021.2.3,59.9306243949019,
,,,,,,,,,,,,96,0,96,0,,,,,,,,,,,,,,,,,,,,,,,,,,,,,,,,,,,,,,,,,,,,,,,,,1681.9671610994264,None,,,,,,,,,,,,,,,,,,,,,,,,,,,,,,,,,,,,,,,,,,,,,,,,,,,,,,,,,board,63,97,silent,old,blue,1680.4775954000652,None,y,1680.4775954000652,None,"['y', 'return']","[1.3049878999590874, 1.4490576004609466]",1680.4775954000652,None,,,42,001,2023_Apr_17_1321,ExactRep-v3-final,2021.2.3,59.9306243949019,
,,,,,,,,,,,,97,0,97,0,,,,,,,,,,,,,,,,,,,,,,,,,,,,,,,,,,,,,,,,,,,,,,,,,1683.9691824000329,None,,,,,,,,,,,,,,,,,,,,,,,,,,,,,,,,,,,,,,,,,,,,,,,,,,,,,,,,,bird,175,98,sing,new,red,1682.475816800259,None,n,1682.475816800259,None,"['n', 'return']","[1.202878000214696, 1.4511553002521396]",1682.475816800259,None,,,42,001,2023_Apr_17_1321,ExactRep-v3-final,2021.2.3,59.9306243949019,
,,,,,,,,,,,,98,0,98,0,,,,,,,,,,,,,,,,,,,,,,,,,,,,,,,,,,,,,,,,,,,,,,,,,1686.104857799597,None,,,,,,,,,,,,,,,,,,,,,,,,,,,,,,,,,,,,,,,,,,,,,,,,,,,,,,,,,clock,119,99,aloud,old,white,1684.4833891000599,None,y,1684.4833891000599,None,"['y', 'return']","[1.4514926997944713, 1.57924610003829]",1684.4833891000599,None,,,42,001,2023_Apr_17_1321,ExactRep-v3-final,2021.2.3,59.9306243949019,
,,,,,,,,,,,,99,0,99,0,,,,,,,,,,,,,,,,,,,,,,,,,,,,,,,,,,,,,,,,,,,,,,,,,1687.589544199407,None,,,,,,,,,,,,,,,,,,,,,,,,,,,,,,,,,,,,,,,,,,,,,,,,,,,,,,,,,wine,65,100,silent,old,blue,1686.618381999433,None,n,1686.618381999433,None,"['n', 'return']","[0.748322899453342, 0.9323116997256875]",1686.618381999433,None,,,42,001,2023_Apr_17_1321,ExactRep-v3-final,2021.2.3,59.9306243949019,
,,,,,,,,,,,,100,0,100,0,,,,,,,,,,,,,,,,,,,,,,,,,,,,,,,,,,,,,,,,,,,,,,,,,1689.3913140995428,None,,,,,,,,,,,,,,,,,,,,,,,,,,,,,,,,,,,,,,,,,,,,,,,,,,,,,,,,,mind,224,101,aloud,new,white,1688.1038461998105,None,n,1688.1038461998105,None,"['n', 'return']","[1.0950083006173372, 1.2467761002480984]",1688.1038461998105,None,,,42,001,2023_Apr_17_1321,ExactRep-v3-final,2021.2.3,59.9306243949019,
,,,,,,,,,,,,101,0,101,0,,,,,,,,,,,,,,,,,,,,,,,,,,,,,,,,,,,,,,,,,,,,,,,,,1691.6268998002633,None,,,,,,,,,,,,,,,,,,,,,,,,,,,,,,,,,,,,,,,,,,,,,,,,,,,,,,,,,hope,130,102,silent,new,blue,1689.8935064999387,None,n,1689.8935064999387,None,"['n', 'return']","[1.5131540996953845, 1.689082500524819]",1689.8935064999387,None,,,42,001,2023_Apr_17_1321,ExactRep-v3-final,2021.2.3,59.9306243949019,
,,,,,,,,,,,,102,0,102,0,,,,,,,,,,,,,,,,,,,,,,,,,,,,,,,,,,,,,,,,,,,,,,,,,1693.0288800001144,None,,,,,,,,,,,,,,,,,,,,,,,,,,,,,,,,,,,,,,,,,,,,,,,,,,,,,,,,,window,137,103,silent,new,blue,1692.142098000273,None,n,1692.142098000273,None,"['n', 'return']","[0.7767353001981974, 0.8405801998451352]",1692.142098000273,None,,,42,001,2023_Apr_17_1321,ExactRep-v3-final,2021.2.3,59.9306243949019,
,,,,,,,,,,,,103,0,103,0,,,,,,,,,,,,,,,,,,,,,,,,,,,,,,,,,,,,,,,,,,,,,,,,,1694.4140734001994,None,,,,,,,,,,,,,,,,,,,,,,,,,,,,,,,,,,,,,,,,,,,,,,,,,,,,,,,,,advice,191,104,sing,new,red,1693.543877299875,None,n,1693.543877299875,None,"['n', 'return']","[0.47878000047057867, 0.8228379003703594]",1693.543877299875,None,,,42,001,2023_Apr_17_1321,ExactRep-v3-final,2021.2.3,59.9306243949019,
,,,,,,,,,,,,104,0,104,0,,,,,,,,,,,,,,,,,,,,,,,,,,,,,,,,,,,,,,,,,,,,,,,,,1696.1980951000005,None,,,,,,,,,,,,,,,,,,,,,,,,,,,,,,,,,,,,,,,,,,,,,,,,,,,,,,,,,wife,83,105,aloud,old,white,1694.923256999813,None,n,1694.923256999813,None,"['n', 'return']","[0.771488799713552, 1.243358500301838]",1694.923256999813,None,,,42,001,2023_Apr_17_1321,ExactRep-v3-final,2021.2.3,59.9306243949019,
,,,,,,,,,,,,105,0,105,0,,,,,,,,,,,,,,,,,,,,,,,,,,,,,,,,,,,,,,,,,,,,,,,,,1697.7997433999553,None,,,,,,,,,,,,,,,,,,,,,,,,,,,,,,,,,,,,,,,,,,,,,,,,,,,,,,,,,plant,127,106,silent,new,blue,1696.7080210996792,None,n,1696.7080210996792,None,"['n', 'return']","[0.5547511000186205, 1.0586387999355793]",1696.7080210996792,None,,,42,001,2023_Apr_17_1321,ExactRep-v3-final,2021.2.3,59.9306243949019,
,,,,,,,,,,,,106,0,106,0,,,,,,,,,,,,,,,,,,,,,,,,,,,,,,,,,,,,,,,,,,,,,,,,,1699.4513564994559,None,,,,,,,,,,,,,,,,,,,,,,,,,,,,,,,,,,,,,,,,,,,,,,,,,,,,,,,,,forest,163,107,sing,new,red,1698.3134516999125,None,n,1698.3134516999125,None,"['n', 'return']","[0.82151859998703, 1.1012313002720475]",1698.3134516999125,None,,,42,001,2023_Apr_17_1321,ExactRep-v3-final,2021.2.3,59.9306243949019,
,,,,,,,,,,,,107,0,107,0,,,,,,,,,,,,,,,,,,,,,,,,,,,,,,,,,,,,,,,,,,,,,,,,,1701.9705253997818,None,,,,,,,,,,,,,,,,,,,,,,,,,,,,,,,,,,,,,,,,,,,,,,,,,,,,,,,,,earth,108,108,aloud,old,white,1699.9613071996719,None,y,1699.9613071996719,None,"['y', 'return']","[1.6774766994640231, 1.965305999852717]",1699.9613071996719,None,,,42,001,2023_Apr_17_1321,ExactRep-v3-final,2021.2.3,59.9306243949019,
,,,,,,,,,,,,108,0,108,0,,,,,,,,,,,,,,,,,,,,,,,,,,,,,,,,,,,,,,,,,,,,,,,,,1703.6222601002082,None,,,,,,,,,,,,,,,,,,,,,,,,,,,,,,,,,,,,,,,,,,,,,,,,,,,,,,,,,devil,181,109,sing,new,red,1702.4813479995355,None,n,1702.4813479995355,None,"['n', 'return']","[0.7974345991387963, 1.1093097999691963]",1702.4813479995355,None,,,42,001,2023_Apr_17_1321,ExactRep-v3-final,2021.2.3,59.9306243949019,
,,,,,,,,,,,,109,0,109,0,,,,,,,,,,,,,,,,,,,,,,,,,,,,,,,,,,,,,,,,,,,,,,,,,1705.340766100213,None,,,,,,,,,,,,,,,,,,,,,,,,,,,,,,,,,,,,,,,,,,,,,,,,,,,,,,,,,slave,179,110,sing,new,red,1704.1369719002396,None,n,1704.1369719002396,None,"['n', 'return']","[0.8457069005817175, 1.1577645000070333]",1704.1369719002396,None,,,42,001,2023_Apr_17_1321,ExactRep-v3-final,2021.2.3,59.9306243949019,
,,,,,,,,,,,,110,0,110,0,,,,,,,,,,,,,,,,,,,,,,,,,,,,,,,,,,,,,,,,,,,,,,,,,1708.8440626999363,None,,,,,,,,,,,,,,,,,,,,,,,,,,,,,,,,,,,,,,,,,,,,,,,,,,,,,,,,,soul,196,111,aloud,new,white,1705.8411019993946,None,n,1705.8411019993946,None,"['n', 'return']","[2.2374404994770885, 2.9656932996585965]",1705.8411019993946,None,,,42,001,2023_Apr_17_1321,ExactRep-v3-final,2021.2.3,59.9306243949019,
,,,,,,,,,,,,111,0,111,0,,,,,,,,,,,,,,,,,,,,,,,,,,,,,,,,,,,,,,,,,,,,,,,,,1714.2162760002539,None,,,,,,,,,,,,,,,,,,,,,,,,,,,,,,,,,,,,,,,,,,,,,,,,,,,,,,,,,metal,155,112,silent,new,blue,1709.3482871996239,None,n,1709.3482871996239,None,"['n', 'return']","[4.618383899331093, 4.826409999281168]",1709.3482871996239,None,,,42,001,2023_Apr_17_1321,ExactRep-v3-final,2021.2.3,59.9306243949019,
,,,,,,,,,,,,112,0,112,0,,,,,,,,,,,,,,,,,,,,,,,,,,,,,,,,,,,,,,,,,,,,,,,,,1717.2359517998993,None,,,,,,,,,,,,,,,,,,,,,,,,,,,,,,,,,,,,,,,,,,,,,,,,,,,,,,,,,woman,147,113,silent,new,blue,1714.7174653997645,None,n,1714.7174653997645,None,"['n', 'return']","[1.5692149000242352, 2.481195899657905]",1714.7174653997645,None,,,42,001,2023_Apr_17_1321,ExactRep-v3-final,2021.2.3,59.9306243949019,
,,,,,,,,,,,,113,0,113,0,,,,,,,,,,,,,,,,,,,,,,,,,,,,,,,,,,,,,,,,,,,,,,,,,1719.2546961996704,None,,,,,,,,,,,,,,,,,,,,,,,,,,,,,,,,,,,,,,,,,,,,,,,,,,,,,,,,,crime,199,114,sing,new,red,1717.7457817001268,None,n,1717.7457817001268,None,"['n', 'return']","[1.3170076003298163, 1.476914600469172]",1717.7457817001268,None,,,42,001,2023_Apr_17_1321,ExactRep-v3-final,2021.2.3,59.9306243949019,
,,,,,,,,,,,,114,0,114,0,,,,,,,,,,,,,,,,,,,,,,,,,,,,,,,,,,,,,,,,,,,,,,,,,1720.8231939002872,None,,,,,,,,,,,,,,,,,,,,,,,,,,,,,,,,,,,,,,,,,,,,,,,,,,,,,,,,,maiden,122,115,silent,new,blue,1719.7638887995854,None,n,1719.7638887995854,None,"['n', 'return']","[0.7229586001485586, 1.0106460005044937]",1719.7638887995854,None,,,42,001,2023_Apr_17_1321,ExactRep-v3-final,2021.2.3,59.9306243949019,
,,,,,,,,,,,,115,0,115,0,,,,,,,,,,,,,,,,,,,,,,,,,,,,,,,,,,,,,,,,,,,,,,,,,1724.2096176994964,None,,,,,,,,,,,,,,,,,,,,,,,,,,,,,,,,,,,,,,,,,,,,,,,,,,,,,,,,,lake,190,116,aloud,new,white,1721.3248093994334,None,n,1721.3248093994334,None,"['n', 'return']","[2.289784099906683, 2.8418703991919756]",1721.3248093994334,None,,,42,001,2023_Apr_17_1321,ExactRep-v3-final,2021.2.3,59.9306243949019,
,,,,,,,,,,,,116,0,116,0,,,,,,,,,,,,,,,,,,,,,,,,,,,,,,,,,,,,,,,,,,,,,,,,,1727.2458971999586,None,,,,,,,,,,,,,,,,,,,,,,,,,,,,,,,,,,,,,,,,,,,,,,,,,,,,,,,,,spirit,72,117,silent,old,blue,1724.710085899569,None,y,1724.710085899569,None,"['y', 'return']","[1.6726127993315458, 2.49680329952389]",1724.710085899569,None,,,42,001,2023_Apr_17_1321,ExactRep-v3-final,2021.2.3,59.9306243949019,
,,,,,,,,,,,,117,0,117,0,,,,,,,,,,,,,,,,,,,,,,,,,,,,,,,,,,,,,,,,,,,,,,,,,1729.264534600079,None,,,,,,,,,,,,,,,,,,,,,,,,,,,,,,,,,,,,,,,,,,,,,,,,,,,,,,,,,coin,84,118,aloud,old,white,1727.755730399862,None,n,1727.755730399862,None,"['n', 'return']","[1.171094300225377, 1.466958500444889]",1727.755730399862,None,,,42,001,2023_Apr_17_1321,ExactRep-v3-final,2021.2.3,59.9306243949019,
,,,,,,,,,,,,118,0,118,0,,,,,,,,,,,,,,,,,,,,,,,,,,,,,,,,,,,,,,,,,,,,,,,,,1732.6845688000321,None,,,,,,,,,,,,,,,,,,,,,,,,,,,,,,,,,,,,,,,,,,,,,,,,,,,,,,,,,woods,24,119,sing,old,red,1729.774828599766,None,n,1729.774828599766,None,"['n', 'return']","[2.599746000021696, 2.8639089995995164]",1729.774828599766,None,,,42,001,2023_Apr_17_1321,ExactRep-v3-final,2021.2.3,59.9306243949019,
,,,,,,,,,,,,119,0,119,0,,,,,,,,,,,,,,,,,,,,,,,,,,,,,,,,,,,,,,,,,,,,,,,,,1734.6365443998948,None,,,,,,,,,,,,,,,,,,,,,,,,,,,,,,,,,,,,,,,,,,,,,,,,,,,,,,,,,market,33,120,sing,old,red,1733.201569300145,None,n,1733.201569300145,None,"['n', 'return']","[1.125135499984026, 1.3971132999286056]",1733.201569300145,None,,,42,001,2023_Apr_17_1321,ExactRep-v3-final,2021.2.3,59.9306243949019,
,,,,,,,,,,,,120,0,120,0,,,,,,,,,,,,,,,,,,,,,,,,,,,,,,,,,,,,,,,,,,,,,,,,,1736.655222799629,None,,,,,,,,,,,,,,,,,,,,,,,,,,,,,,,,,,,,,,,,,,,,,,,,,,,,,,,,,party,156,121,silent,new,blue,1735.1478322995827,None,n,1735.1478322995827,None,"['n', 'return']","[1.2427361002191901, 1.4668501000851393]",1735.1478322995827,None,,,42,001,2023_Apr_17_1321,ExactRep-v3-final,2021.2.3,59.9306243949019,
,,,,,,,,,,,,121,0,121,0,,,,,,,,,,,,,,,,,,,,,,,,,,,,,,,,,,,,,,,,,,,,,,,,,1738.1066662995145,None,,,,,,,,,,,,,,,,,,,,,,,,,,,,,,,,,,,,,,,,,,,,,,,,,,,,,,,,,judge,136,122,silent,new,blue,1737.165122400038,None,n,1737.165122400038,None,"['n', 'return']","[0.6015385994687676, 0.8975275997072458]",1737.165122400038,None,,,42,001,2023_Apr_17_1321,ExactRep-v3-final,2021.2.3,59.9306243949019,
,,,,,,,,,,,,122,0,122,0,,,,,,,,,,,,,,,,,,,,,,,,,,,,,,,,,,,,,,,,,,,,,,,,,1740.158710599877,None,,,,,,,,,,,,,,,,,,,,,,,,,,,,,,,,,,,,,,,,,,,,,,,,,,,,,,,,,rock,80,123,aloud,old,white,1738.6246146997437,None,n,1738.6246146997437,None,"['n', 'return']","[1.3180182995274663, 1.4862893000245094]",1738.6246146997437,None,,,42,001,2023_Apr_17_1321,ExactRep-v3-final,2021.2.3,59.9306243949019,
,,,,,,,,,,,,123,0,123,0,,,,,,,,,,,,,,,,,,,,,,,,,,,,,,,,,,,,,,,,,,,,,,,,,1741.6101676002145,None,,,,,,,,,,,,,,,,,,,,,,,,,,,,,,,,,,,,,,,,,,,,,,,,,,,,,,,,,series,207,124,sing,new,red,1740.6713795000687,None,n,1740.6713795000687,None,"['n', 'return']","[0.6633202005177736, 0.9034022996202111]",1740.6713795000687,None,,,42,001,2023_Apr_17_1321,ExactRep-v3-final,2021.2.3,59.9306243949019,
,,,,,,,,,,,,124,0,124,0,,,,,,,,,,,,,,,,,,,,,,,,,,,,,,,,,,,,,,,,,,,,,,,,,1743.028255299665,None,,,,,,,,,,,,,,,,,,,,,,,,,,,,,,,,,,,,,,,,,,,,,,,,,,,,,,,,,fur,228,125,aloud,new,white,1742.119086000137,None,n,1742.119086000137,None,"['n', 'return']","[0.6556714996695518, 0.8636502996087074]",1742.119086000137,None,,,42,001,2023_Apr_17_1321,ExactRep-v3-final,2021.2.3,59.9306243949019,
,,,,,,,,,,,,125,0,125,0,,,,,,,,,,,,,,,,,,,,,,,,,,,,,,,,,,,,,,,,,,,,,,,,,1745.4307508002967,None,,,,,,,,,,,,,,,,,,,,,,,,,,,,,,,,,,,,,,,,,,,,,,,,,,,,,,,,,blood,173,126,sing,new,red,1743.5380653999746,None,n,1743.5380653999746,None,"['n', 'return']","[1.668741200119257, 1.8530040998011827]",1743.5380653999746,None,,,42,001,2023_Apr_17_1321,ExactRep-v3-final,2021.2.3,59.9306243949019,
,,,,,,,,,,,,126,0,126,0,,,,,,,,,,,,,,,,,,,,,,,,,,,,,,,,,,,,,,,,,,,,,,,,,1747.8998640002683,None,,,,,,,,,,,,,,,,,,,,,,,,,,,,,,,,,,,,,,,,,,,,,,,,,,,,,,,,,quality,26,127,sing,old,red,1745.9420298999175,None,y,1745.9420298999175,None,"['return', 'y', 'return']","[1.0006695007905364, 1.7046837005764246, 1.920707800425589]",1745.9420298999175,None,,,42,001,2023_Apr_17_1321,ExactRep-v3-final,2021.2.3,59.9306243949019,
,,,,,,,,,,,,127,0,127,0,,,,,,,,,,,,,,,,,,,,,,,,,,,,,,,,,,,,,,,,,,,,,,,,,1749.5349878994748,None,,,,,,,,,,,,,,,,,,,,,,,,,,,,,,,,,,,,,,,,,,,,,,,,,,,,,,,,,sea,202,128,aloud,new,white,1748.4089890997857,None,n,1748.4089890997857,None,"['n', 'return']","[0.7577866008505225, 1.08577090036124]",1748.4089890997857,None,,,42,001,2023_Apr_17_1321,ExactRep-v3-final,2021.2.3,59.9306243949019,
,,,,,,,,,,,,128,0,128,0,,,,,,,,,,,,,,,,,,,,,,,,,,,,,,,,,,,,,,,,,,,,,,,,,1752.7213837997988,None,,,,,,,,,,,,,,,,,,,,,,,,,,,,,,,,,,,,,,,,,,,,,,,,,,,,,,,,,cotton,124,129,silent,new,blue,1750.0633236002177,None,n,1750.0633236002177,None,"['n', 'return']","[2.4073061998933554, 2.615446999669075]",1750.0633236002177,None,,,42,001,2023_Apr_17_1321,ExactRep-v3-final,2021.2.3,59.9306243949019,
,,,,,,,,,,,,129,0,129,0,,,,,,,,,,,,,,,,,,,,,,,,,,,,,,,,,,,,,,,,,,,,,,,,,1754.8735056994483,None,,,,,,,,,,,,,,,,,,,,,,,,,,,,,,,,,,,,,,,,,,,,,,,,,,,,,,,,,gift,151,130,silent,new,blue,1753.2224442996085,None,n,1753.2224442996085,None,"['n', 'return']","[0.8483178000897169, 1.6161684999242425]",1753.2224442996085,None,,,42,001,2023_Apr_17_1321,ExactRep-v3-final,2021.2.3,59.9306243949019,
,,,,,,,,,,,,130,0,130,0,,,,,,,,,,,,,,,,,,,,,,,,,,,,,,,,,,,,,,,,,,,,,,,,,1756.375167099759,None,,,,,,,,,,,,,,,,,,,,,,,,,,,,,,,,,,,,,,,,,,,,,,,,,,,,,,,,,ship,237,131,sing,new,red,1755.3807903993875,None,n,1755.3807903993875,None,"['n', 'return']","[0.7379491003230214, 0.9619412999600172]",1755.3807903993875,None,,,42,001,2023_Apr_17_1321,ExactRep-v3-final,2021.2.3,59.9306243949019,
,,,,,,,,,,,,131,0,131,0,,,,,,,,,,,,,,,,,,,,,,,,,,,,,,,,,,,,,,,,,,,,,,,,,1757.893214199692,None,,,,,,,,,,,,,,,,,,,,,,,,,,,,,,,,,,,,,,,,,,,,,,,,,,,,,,,,,valley,77,132,silent,old,blue,1756.8832756001502,None,n,1756.8832756001502,None,"['n', 'return']","[0.7155517004430294, 0.9635249003767967]",1756.8832756001502,None,,,42,001,2023_Apr_17_1321,ExactRep-v3-final,2021.2.3,59.9306243949019,
