trials_fam.thisRepN,trials_fam.thisTrialN,trials_fam.thisN,trials_fam.thisIndex,trials_prc.thisRepN,trials_prc.thisTrialN,trials_prc.thisN,trials_prc.thisIndex,StudyLoop.thisRepN,StudyLoop.thisTrialN,StudyLoop.thisN,StudyLoop.thisIndex,TestLoop.thisRepN,TestLoop.thisTrialN,TestLoop.thisN,TestLoop.thisIndex,text_colortest.started,text_colortest.stopped,key_colortest.keys,key_colortest.rt,key_colortest.started,key_colortest.stopped,textCondition.started,textCondition.stopped,keyCondition.keys,keyCondition.rt,keyCondition.started,keyCondition.stopped,Condition_between,Condition_counterbal,keyWelcome.keys,keyWelcome.rt,keyWelcome.started,keyWelcome.stopped,welcome_a.started,welcome_a.stopped,welcome_b.started,welcome_b.stopped,welcome_c.started,welcome_c.stopped,welcome_d.started,welcome_d.stopped,welcome_e.started,welcome_e.stopped,welcome_f.started,welcome_f.stopped,key_resp_fam_inst.keys,key_resp_fam_inst.rt,key_resp_fam_inst.started,key_resp_fam_inst.stopped,fam_a.started,fam_a.stopped,fam_b.started,fam_b.stopped,fam_c.started,fam_c.stopped,fam_d.started,fam_d.stopped,fam_e.started,fam_e.stopped,fam_f.started,fam_f.stopped,text_famil.started,text_famil.stopped,textBlank500.started,textBlank500.stopped,key_resp_prc_inst.keys,key_resp_prc_inst.rt,key_resp_prc_inst.started,key_resp_prc_inst.stopped,prac_a.started,prac_a.stopped,prac_b.started,prac_b.stopped,prac_c.started,prac_c.stopped,prac_d.started,prac_d.stopped,prac_e.started,prac_e.stopped,prac_f.started,prac_f.stopped,text_prc_trial.started,text_prc_trial.stopped,key_resp_study_inst.keys,key_resp_study_inst.rt,key_resp_study_inst.started,key_resp_study_inst.stopped,crit_a.started,crit_a.stopped,crit_b.started,crit_b.stopped,crit_c.started,crit_c.stopped,crit_d.started,crit_d.stopped,crit_e.started,crit_e.stopped,crit_f.started,crit_f.stopped,study_word,study_num,study_order,study_type,word_color,textStudy.started,textStudy.stopped,keyStudy.keys,keyStudy.started,keyStudy.stopped,post_study.started,post_study.stopped,key_resp_post_study.keys,key_resp_post_study.rt,key_resp_post_study.started,key_resp_post_study.stopped,test_inst.started,test_inst.stopped,key_resp_test_inst.keys,key_resp_test_inst.rt,key_resp_test_inst.started,key_resp_test_inst.stopped,test_word,test_num,test_order,test_condition,old_new_test,word_color_test,textConf.started,textConf.stopped,Participant Response,textInput.started,textInput.stopped,keyResp.keys,keyResp.rt,keyResp.started,keyResp.stopped,textEnd.started,textEnd.stopped,participant,session,date,expName,psychopyVersion,frameRate,
,,,,,,,,,,,,,,,,16.663416099734604,None,n,0.6354299001395702,16.663416099734604,None,,,,,,,,,,,,,,,,,,,,,,,,,,,,,,,,,,,,,,,,,,,,,,,,,,,,,,,,,,,,,,,,,,,,,,,,,,,,,,,,,,,,,,,,,,,,,,,,,,,,,,,,,,,,,,,,,,,,,,43,001,2023_Apr_19_0952,ExactRep-v3-final,2021.2.3,59.93971249909412,
,,,,,,,,,,,,,,,,,,,,,,17.32723050005734,None,a,1.0517982002347708,17.32723050005734,None,,,,,,,,,,,,,,,,,,,,,,,,,,,,,,,,,,,,,,,,,,,,,,,,,,,,,,,,,,,,,,,,,,,,,,,,,,,,,,,,,,,,,,,,,,,,,,,,,,,,,,,,,,,,,,,,43,001,2023_Apr_19_0952,ExactRep-v3-final,2021.2.3,59.93971249909412,
,,,,,,,,,,,,,,,,,,,,,,,,,,,,whitefoils,a,space,1189.9772573001683,28.49073849990964,None,,,,,,,,,,,,,,,,,,,,,,,,,,,,,,,,,,,,,,,,,,,,,,,,,,,,,,,,,,,,,,,,,,,,,,,,,,,,,,,,,,,,,,,,,,,,,,,,,,,,,,,,,,43,001,2023_Apr_19_0952,ExactRep-v3-final,2021.2.3,59.93971249909412,
,,,,,,,,,,,,,,,,,,,,,,,,,,,,,,,,,,18.554370999336243,None,18.554370999336243,None,18.554370999336243,None,18.554370999336243,None,18.554370999336243,None,18.554370999336243,None,space,19.472351499833167,1228.6756720999256,None,,,,,,,,,,,,,,,,,,,,,,,,,,,,,,,,,,,,,,,,,,,,,,,,,,,,,,,,,,,,,,,,,,,,,,,,,,,,,,,,,,,,,,,,,,43,001,2023_Apr_19_0952,ExactRep-v3-final,2021.2.3,59.93971249909412,
0,0,0,0,,,,,,,,,,,,,,,,,,,,,,,,,,,,,,,,,,,,,,,,,,,,,,,1218.6573936995119,None,1218.6573936995119,None,1218.6573936995119,None,1218.6573936995119,None,1218.6573936995119,None,1218.6573936995119,None,1248.2633021995425,None,1250.260064699687,None,,,,,,,,,,,,,,,,,,,,,,,,,,,,,,,,,,,,,,,,,,,,,,,,,,,,,,,,,,,,,,,,,,,,,,,,,,43,001,2023_Apr_19_0952,ExactRep-v3-final,2021.2.3,59.93971249909412,
1,0,1,0,,,,,,,,,,,,,,,,,,,,,,,,,,,,,,,,,,,,,,,,,,,,,,,,,,,,,,,,,,,1250.7803262993693,None,1252.779335799627,None,,,,,,,,,,,,,,,,,,,,,,,,,,,,,,,,,,,,,,,,,,,,,,,,,,,,,,,,,,,,,,,,,,,,,,,,,,43,001,2023_Apr_19_0952,ExactRep-v3-final,2021.2.3,59.93971249909412,
2,0,2,0,,,,,,,,,,,,,,,,,,,,,,,,,,,,,,,,,,,,,,,,,,,,,,,,,,,,,,,,,,,1253.2799606993794,None,1255.2820218997076,None,,,,,,,,,,,,,,,,,,,,,,,,,,,,,,,,,,,,,,,,,,,,,,,,,,,,,,,,,,,,,,,,,,,,,,,,,,43,001,2023_Apr_19_0952,ExactRep-v3-final,2021.2.3,59.93971249909412,
3,0,3,0,,,,,,,,,,,,,,,,,,,,,,,,,,,,,,,,,,,,,,,,,,,,,,,,,,,,,,,,,,,1255.7822752995417,None,1257.784440599382,None,,,,,,,,,,,,,,,,,,,,,,,,,,,,,,,,,,,,,,,,,,,,,,,,,,,,,,,,,,,,,,,,,,,,,,,,,,43,001,2023_Apr_19_0952,ExactRep-v3-final,2021.2.3,59.93971249909412,
4,0,4,0,,,,,,,,,,,,,,,,,,,,,,,,,,,,,,,,,,,,,,,,,,,,,,,,,,,,,,,,,,,1258.2915791999549,None,1260.3036669995636,None,,,,,,,,,,,,,,,,,,,,,,,,,,,,,,,,,,,,,,,,,,,,,,,,,,,,,,,,,,,,,,,,,,,,,,,,,,43,001,2023_Apr_19_0952,ExactRep-v3-final,2021.2.3,59.93971249909412,
5,0,5,0,,,,,,,,,,,,,,,,,,,,,,,,,,,,,,,,,,,,,,,,,,,,,,,,,,,,,,,,,,,1260.806724499911,None,1262.8060732996091,None,,,,,,,,,,,,,,,,,,,,,,,,,,,,,,,,,,,,,,,,,,,,,,,,,,,,,,,,,,,,,,,,,,,,,,,,,,43,001,2023_Apr_19_0952,ExactRep-v3-final,2021.2.3,59.93971249909412,
6,0,6,0,,,,,,,,,,,,,,,,,,,,,,,,,,,,,,,,,,,,,,,,,,,,,,,,,,,,,,,,,,,1263.3075263993815,None,1265.30854849983,None,,,,,,,,,,,,,,,,,,,,,,,,,,,,,,,,,,,,,,,,,,,,,,,,,,,,,,,,,,,,,,,,,,,,,,,,,,43,001,2023_Apr_19_0952,ExactRep-v3-final,2021.2.3,59.93971249909412,
7,0,7,0,,,,,,,,,,,,,,,,,,,,,,,,,,,,,,,,,,,,,,,,,,,,,,,,,,,,,,,,,,,1265.8091139998287,None,1267.8111028000712,None,,,,,,,,,,,,,,,,,,,,,,,,,,,,,,,,,,,,,,,,,,,,,,,,,,,,,,,,,,,,,,,,,,,,,,,,,,43,001,2023_Apr_19_0952,ExactRep-v3-final,2021.2.3,59.93971249909412,
8,0,8,0,,,,,,,,,,,,,,,,,,,,,,,,,,,,,,,,,,,,,,,,,,,,,,,,,,,,,,,,,,,1268.314871000126,None,1270.3300577998161,None,,,,,,,,,,,,,,,,,,,,,,,,,,,,,,,,,,,,,,,,,,,,,,,,,,,,,,,,,,,,,,,,,,,,,,,,,,43,001,2023_Apr_19_0952,ExactRep-v3-final,2021.2.3,59.93971249909412,
9,0,9,0,,,,,,,,,,,,,,,,,,,,,,,,,,,,,,,,,,,,,,,,,,,,,,,,,,,,,,,,,,,1270.8307753996924,None,1272.8325833994895,None,,,,,,,,,,,,,,,,,,,,,,,,,,,,,,,,,,,,,,,,,,,,,,,,,,,,,,,,,,,,,,,,,,,,,,,,,,43,001,2023_Apr_19_0952,ExactRep-v3-final,2021.2.3,59.93971249909412,
10,0,10,0,,,,,,,,,,,,,,,,,,,,,,,,,,,,,,,,,,,,,,,,,,,,,,,,,,,,,,,,,,,1273.342820899561,None,1275.3517832998186,None,,,,,,,,,,,,,,,,,,,,,,,,,,,,,,,,,,,,,,,,,,,,,,,,,,,,,,,,,,,,,,,,,,,,,,,,,,43,001,2023_Apr_19_0952,ExactRep-v3-final,2021.2.3,59.93971249909412,
11,0,11,0,,,,,,,,,,,,,,,,,,,,,,,,,,,,,,,,,,,,,,,,,,,,,,,,,,,,,,,,,,,1275.8522560996935,None,1277.8543238993734,None,,,,,,,,,,,,,,,,,,,,,,,,,,,,,,,,,,,,,,,,,,,,,,,,,,,,,,,,,,,,,,,,,,,,,,,,,,43,001,2023_Apr_19_0952,ExactRep-v3-final,2021.2.3,59.93971249909412,
12,0,12,0,,,,,,,,,,,,,,,,,,,,,,,,,,,,,,,,,,,,,,,,,,,,,,,,,,,,,,,,,,,1278.357241800055,None,1280.3570433994755,None,,,,,,,,,,,,,,,,,,,,,,,,,,,,,,,,,,,,,,,,,,,,,,,,,,,,,,,,,,,,,,,,,,,,,,,,,,43,001,2023_Apr_19_0952,ExactRep-v3-final,2021.2.3,59.93971249909412,
13,0,13,0,,,,,,,,,,,,,,,,,,,,,,,,,,,,,,,,,,,,,,,,,,,,,,,,,,,,,,,,,,,1280.8648090995848,None,1282.8761840993538,None,,,,,,,,,,,,,,,,,,,,,,,,,,,,,,,,,,,,,,,,,,,,,,,,,,,,,,,,,,,,,,,,,,,,,,,,,,43,001,2023_Apr_19_0952,ExactRep-v3-final,2021.2.3,59.93971249909412,
14,0,14,0,,,,,,,,,,,,,,,,,,,,,,,,,,,,,,,,,,,,,,,,,,,,,,,,,,,,,,,,,,,1283.381749600172,None,1285.3951322995126,None,,,,,,,,,,,,,,,,,,,,,,,,,,,,,,,,,,,,,,,,,,,,,,,,,,,,,,,,,,,,,,,,,,,,,,,,,,43,001,2023_Apr_19_0952,ExactRep-v3-final,2021.2.3,59.93971249909412,
,,,,,,,,,,,,,,,,,,,,,,,,,,,,,,,,,,,,,,,,,,,,,,,,,,,,,,,,,,,,,,,,,,space,25.919918100349605,1296.0120885996148,None,,,,,,,,,,,,,,,,,,,,,,,,,,,,,,,,,,,,,,,,,,,,,,,,,,,,,,,,,,,,,,,,,,,,,,43,001,2023_Apr_19_0952,ExactRep-v3-final,2021.2.3,59.93971249909412,
,,,,0,0,0,0,,,,,,,,,,,,,,,,,,,,,,,,,,,,,,,,,,,,,,,,,,,,,,,,,,,,,,,,,1324.01728190016,None,,,,,1286.041407899931,None,1286.041407899931,None,1286.041407899931,None,1286.041407899931,None,1286.041407899931,None,1286.041407899931,None,1322.00931520015,None,,,,,,,,,,,,,,,,,,,,,,,,,,,,,,,,,,,,,,,,,,,,,,,,,,,,,,,,43,001,2023_Apr_19_0952,ExactRep-v3-final,2021.2.3,59.93971249909412,
,,,,1,0,1,0,,,,,,,,,,,,,,,,,,,,,,,,,,,,,,,,,,,,,,,,,,,,,,,,,,,,,,,,,1326.519900799729,None,,,,,,,,,,,,,,,,,1324.5178055996075,None,,,,,,,,,,,,,,,,,,,,,,,,,,,,,,,,,,,,,,,,,,,,,,,,,,,,,,,,43,001,2023_Apr_19_0952,ExactRep-v3-final,2021.2.3,59.93971249909412,
,,,,2,0,2,0,,,,,,,,,,,,,,,,,,,,,,,,,,,,,,,,,,,,,,,,,,,,,,,,,,,,,,,,,1329.0220560999587,None,,,,,,,,,,,,,,,,,1327.0202681999654,None,,,,,,,,,,,,,,,,,,,,,,,,,,,,,,,,,,,,,,,,,,,,,,,,,,,,,,,,43,001,2023_Apr_19_0952,ExactRep-v3-final,2021.2.3,59.93971249909412,
,,,,3,0,3,0,,,,,,,,,,,,,,,,,,,,,,,,,,,,,,,,,,,,,,,,,,,,,,,,,,,,,,,,,1331.5247695995495,None,,,,,,,,,,,,,,,,,1329.5226210998371,None,,,,,,,,,,,,,,,,,,,,,,,,,,,,,,,,,,,,,,,,,,,,,,,,,,,,,,,,43,001,2023_Apr_19_0952,ExactRep-v3-final,2021.2.3,59.93971249909412,
,,,,4,0,4,0,,,,,,,,,,,,,,,,,,,,,,,,,,,,,,,,,,,,,,,,,,,,,,,,,,,,,,,,,1334.0271290997043,None,,,,,,,,,,,,,,,,,1332.025150699541,None,,,,,,,,,,,,,,,,,,,,,,,,,,,,,,,,,,,,,,,,,,,,,,,,,,,,,,,,43,001,2023_Apr_19_0952,ExactRep-v3-final,2021.2.3,59.93971249909412,
,,,,5,0,5,0,,,,,,,,,,,,,,,,,,,,,,,,,,,,,,,,,,,,,,,,,,,,,,,,,,,,,,,,,1336.5294383000582,None,,,,,,,,,,,,,,,,,1334.5276504000649,None,,,,,,,,,,,,,,,,,,,,,,,,,,,,,,,,,,,,,,,,,,,,,,,,,,,,,,,,43,001,2023_Apr_19_0952,ExactRep-v3-final,2021.2.3,59.93971249909412,
,,,,6,0,6,0,,,,,,,,,,,,,,,,,,,,,,,,,,,,,,,,,,,,,,,,,,,,,,,,,,,,,,,,,1339.032433600165,None,,,,,,,,,,,,,,,,,1337.0301358001307,None,,,,,,,,,,,,,,,,,,,,,,,,,,,,,,,,,,,,,,,,,,,,,,,,,,,,,,,,43,001,2023_Apr_19_0952,ExactRep-v3-final,2021.2.3,59.93971249909412,
,,,,7,0,7,0,,,,,,,,,,,,,,,,,,,,,,,,,,,,,,,,,,,,,,,,,,,,,,,,,,,,,,,,,1341.5347910001874,None,,,,,,,,,,,,,,,,,1339.5328241996467,None,,,,,,,,,,,,,,,,,,,,,,,,,,,,,,,,,,,,,,,,,,,,,,,,,,,,,,,,43,001,2023_Apr_19_0952,ExactRep-v3-final,2021.2.3,59.93971249909412,
,,,,8,0,8,0,,,,,,,,,,,,,,,,,,,,,,,,,,,,,,,,,,,,,,,,,,,,,,,,,,,,,,,,,1344.0371567001566,None,,,,,,,,,,,,,,,,,1342.0351275997236,None,,,,,,,,,,,,,,,,,,,,,,,,,,,,,,,,,,,,,,,,,,,,,,,,,,,,,,,,43,001,2023_Apr_19_0952,ExactRep-v3-final,2021.2.3,59.93971249909412,
,,,,9,0,9,0,,,,,,,,,,,,,,,,,,,,,,,,,,,,,,,,,,,,,,,,,,,,,,,,,,,,,,,,,1346.5399358998984,None,,,,,,,,,,,,,,,,,1344.5376634001732,None,,,,,,,,,,,,,,,,,,,,,,,,,,,,,,,,,,,,,,,,,,,,,,,,,,,,,,,,43,001,2023_Apr_19_0952,ExactRep-v3-final,2021.2.3,59.93971249909412,
,,,,10,0,10,0,,,,,,,,,,,,,,,,,,,,,,,,,,,,,,,,,,,,,,,,,,,,,,,,,,,,,,,,,1349.0420955000445,None,,,,,,,,,,,,,,,,,1347.04027470015,None,,,,,,,,,,,,,,,,,,,,,,,,,,,,,,,,,,,,,,,,,,,,,,,,,,,,,,,,43,001,2023_Apr_19_0952,ExactRep-v3-final,2021.2.3,59.93971249909412,
,,,,11,0,11,0,,,,,,,,,,,,,,,,,,,,,,,,,,,,,,,,,,,,,,,,,,,,,,,,,,,,,,,,,1351.544979499653,None,,,,,,,,,,,,,,,,,1349.5428919997066,None,,,,,,,,,,,,,,,,,,,,,,,,,,,,,,,,,,,,,,,,,,,,,,,,,,,,,,,,43,001,2023_Apr_19_0952,ExactRep-v3-final,2021.2.3,59.93971249909412,
,,,,12,0,12,0,,,,,,,,,,,,,,,,,,,,,,,,,,,,,,,,,,,,,,,,,,,,,,,,,,,,,,,,,1354.0472772000358,None,,,,,,,,,,,,,,,,,1352.0453169997782,None,,,,,,,,,,,,,,,,,,,,,,,,,,,,,,,,,,,,,,,,,,,,,,,,,,,,,,,,43,001,2023_Apr_19_0952,ExactRep-v3-final,2021.2.3,59.93971249909412,
,,,,13,0,13,0,,,,,,,,,,,,,,,,,,,,,,,,,,,,,,,,,,,,,,,,,,,,,,,,,,,,,,,,,1356.5498585999012,None,,,,,,,,,,,,,,,,,1354.5478018000722,None,,,,,,,,,,,,,,,,,,,,,,,,,,,,,,,,,,,,,,,,,,,,,,,,,,,,,,,,43,001,2023_Apr_19_0952,ExactRep-v3-final,2021.2.3,59.93971249909412,
,,,,14,0,14,0,,,,,,,,,,,,,,,,,,,,,,,,,,,,,,,,,,,,,,,,,,,,,,,,,,,,,,,,,1359.0521419001743,None,,,,,,,,,,,,,,,,,1357.0503279995173,None,,,,,,,,,,,,,,,,,,,,,,,,,,,,,,,,,,,,,,,,,,,,,,,,,,,,,,,,43,001,2023_Apr_19_0952,ExactRep-v3-final,2021.2.3,59.93971249909412,
,,,,,,,,,,,,,,,,,,,,,,,,,,,,,,,,,,,,,,,,,,,,,,,,,,,,,,,,,,,,,,,,,,,,,,,,,,,,,,,,,,,,space,27.110941699706018,1369.677133699879,None,,,,,,,,,,,,,,,,,,,,,,,,,,,,,,,,,,,,,,,,,,,,,,,,,,,,43,001,2023_Apr_19_0952,ExactRep-v3-final,2021.2.3,59.93971249909412,
,,,,,,,,0,0,0,0,,,,,,,,,,,,,,,,,,,,,,,,,,,,,,,,,,,,,,,,,,,,,,,,,,,,,1398.8919714996591,None,,,,,,,,,,,,,,,,,,,,,,,1359.7003643000498,None,1359.7003643000498,None,1359.7003643000498,None,1359.7003643000498,None,1359.7003643000498,None,1359.7003643000498,None,deed,94,1,aloud,red,1396.8881681999192,None,None,1396.8881681999192,None,,,,,,,,,,,,,,,,,,,,,,,,,,,,,,43,001,2023_Apr_19_0952,ExactRep-v3-final,2021.2.3,59.93971249909412,
,,,,,,,,1,0,1,0,,,,,,,,,,,,,,,,,,,,,,,,,,,,,,,,,,,,,,,,,,,,,,,,,,,,,1401.4111500997096,None,,,,,,,,,,,,,,,,,,,,,,,,,,,,,,,,,,,stone,31,2,sing,white,1399.4058289993554,None,None,1399.4058289993554,None,,,,,,,,,,,,,,,,,,,,,,,,,,,,,,43,001,2023_Apr_19_0952,ExactRep-v3-final,2021.2.3,59.93971249909412,
,,,,,,,,2,0,2,0,,,,,,,,,,,,,,,,,,,,,,,,,,,,,,,,,,,,,,,,,,,,,,,,,,,,,1403.9305206993595,None,,,,,,,,,,,,,,,,,,,,,,,,,,,,,,,,,,,wine,103,3,aloud,red,1401.9223608998582,None,None,1401.9223608998582,None,,,,,,,,,,,,,,,,,,,,,,,,,,,,,,43,001,2023_Apr_19_0952,ExactRep-v3-final,2021.2.3,59.93971249909412,
,,,,,,,,3,0,3,0,,,,,,,,,,,,,,,,,,,,,,,,,,,,,,,,,,,,,,,,,,,,,,,,,,,,,1406.4328346000984,None,,,,,,,,,,,,,,,,,,,,,,,,,,,,,,,,,,,door,21,4,sing,white,1404.4307798994705,None,None,1404.4307798994705,None,,,,,,,,,,,,,,,,,,,,,,,,,,,,,,43,001,2023_Apr_19_0952,ExactRep-v3-final,2021.2.3,59.93971249909412,
,,,,,,,,4,0,4,0,,,,,,,,,,,,,,,,,,,,,,,,,,,,,,,,,,,,,,,,,,,,,,,,,,,,,1408.9521765997633,None,,,,,,,,,,,,,,,,,,,,,,,,,,,,,,,,,,,rod,82,5,aloud,red,1406.9393242998049,None,None,1406.9393242998049,None,,,,,,,,,,,,,,,,,,,,,,,,,,,,,,43,001,2023_Apr_19_0952,ExactRep-v3-final,2021.2.3,59.93971249909412,
,,,,,,,,5,0,5,0,,,,,,,,,,,,,,,,,,,,,,,,,,,,,,,,,,,,,,,,,,,,,,,,,,,,,1411.4712621001527,None,,,,,,,,,,,,,,,,,,,,,,,,,,,,,,,,,,,gift,55,6,silent,blue,1409.4561139997095,None,None,1409.4561139997095,None,,,,,,,,,,,,,,,,,,,,,,,,,,,,,,43,001,2023_Apr_19_0952,ExactRep-v3-final,2021.2.3,59.93971249909412,
,,,,,,,,6,0,6,0,,,,,,,,,,,,,,,,,,,,,,,,,,,,,,,,,,,,,,,,,,,,,,,,,,,,,1413.9735840000212,None,,,,,,,,,,,,,,,,,,,,,,,,,,,,,,,,,,,wife,10,7,sing,white,1411.9724936997518,None,None,1411.9724936997518,None,,,,,,,,,,,,,,,,,,,,,,,,,,,,,,43,001,2023_Apr_19_0952,ExactRep-v3-final,2021.2.3,59.93971249909412,
,,,,,,,,7,0,7,0,,,,,,,,,,,,,,,,,,,,,,,,,,,,,,,,,,,,,,,,,,,,,,,,,,,,,1416.493087399751,None,,,,,,,,,,,,,,,,,,,,,,,,,,,,,,,,,,,body,25,8,sing,white,1414.4818997001275,None,None,1414.4818997001275,None,,,,,,,,,,,,,,,,,,,,,,,,,,,,,,43,001,2023_Apr_19_0952,ExactRep-v3-final,2021.2.3,59.93971249909412,
,,,,,,,,8,0,8,0,,,,,,,,,,,,,,,,,,,,,,,,,,,,,,,,,,,,,,,,,,,,,,,,,,,,,1418.9952507996932,None,,,,,,,,,,,,,,,,,,,,,,,,,,,,,,,,,,,trouble,22,9,sing,white,1416.9956216998398,None,None,1416.9956216998398,None,,,,,,,,,,,,,,,,,,,,,,,,,,,,,,43,001,2023_Apr_19_0952,ExactRep-v3-final,2021.2.3,59.93971249909412,
,,,,,,,,9,0,9,0,,,,,,,,,,,,,,,,,,,,,,,,,,,,,,,,,,,,,,,,,,,,,,,,,,,,,1421.51455159951,None,,,,,,,,,,,,,,,,,,,,,,,,,,,,,,,,,,,colony,2,10,sing,white,1419.5050531001762,None,None,1419.5050531001762,None,,,,,,,,,,,,,,,,,,,,,,,,,,,,,,43,001,2023_Apr_19_0952,ExactRep-v3-final,2021.2.3,59.93971249909412,
,,,,,,,,10,0,10,0,,,,,,,,,,,,,,,,,,,,,,,,,,,,,,,,,,,,,,,,,,,,,,,,,,,,,1424.0174309993163,None,,,,,,,,,,,,,,,,,,,,,,,,,,,,,,,,,,,duty,88,11,aloud,red,1422.0164906997234,None,None,1422.0164906997234,None,,,,,,,,,,,,,,,,,,,,,,,,,,,,,,43,001,2023_Apr_19_0952,ExactRep-v3-final,2021.2.3,59.93971249909412,
,,,,,,,,11,0,11,0,,,,,,,,,,,,,,,,,,,,,,,,,,,,,,,,,,,,,,,,,,,,,,,,,,,,,1426.519608600065,None,,,,,,,,,,,,,,,,,,,,,,,,,,,,,,,,,,,insect,93,12,aloud,red,1424.5172838997096,None,None,1424.5172838997096,None,,,,,,,,,,,,,,,,,,,,,,,,,,,,,,43,001,2023_Apr_19_0952,ExactRep-v3-final,2021.2.3,59.93971249909412,
,,,,,,,,12,0,12,0,,,,,,,,,,,,,,,,,,,,,,,,,,,,,,,,,,,,,,,,,,,,,,,,,,,,,1429.0389291998,None,,,,,,,,,,,,,,,,,,,,,,,,,,,,,,,,,,,memory,56,13,silent,blue,1427.0334903001785,None,None,1427.0334903001785,None,,,,,,,,,,,,,,,,,,,,,,,,,,,,,,43,001,2023_Apr_19_0952,ExactRep-v3-final,2021.2.3,59.93971249909412,
,,,,,,,,13,0,13,0,,,,,,,,,,,,,,,,,,,,,,,,,,,,,,,,,,,,,,,,,,,,,,,,,,,,,1431.5414066994563,None,,,,,,,,,,,,,,,,,,,,,,,,,,,,,,,,,,,corner,13,14,sing,white,1429.5398083999753,None,None,1429.5398083999753,None,,,,,,,,,,,,,,,,,,,,,,,,,,,,,,43,001,2023_Apr_19_0952,ExactRep-v3-final,2021.2.3,59.93971249909412,
,,,,,,,,14,0,14,0,,,,,,,,,,,,,,,,,,,,,,,,,,,,,,,,,,,,,,,,,,,,,,,,,,,,,1434.0439447993413,None,,,,,,,,,,,,,,,,,,,,,,,,,,,,,,,,,,,mind,68,15,silent,blue,1432.041784499772,None,None,1432.041784499772,None,,,,,,,,,,,,,,,,,,,,,,,,,,,,,,43,001,2023_Apr_19_0952,ExactRep-v3-final,2021.2.3,59.93971249909412,
,,,,,,,,15,0,15,0,,,,,,,,,,,,,,,,,,,,,,,,,,,,,,,,,,,,,,,,,,,,,,,,,,,,,1436.5629914999008,None,,,,,,,,,,,,,,,,,,,,,,,,,,,,,,,,,,,fact,51,16,silent,blue,1434.5501880999655,None,None,1434.5501880999655,None,,,,,,,,,,,,,,,,,,,,,,,,,,,,,,43,001,2023_Apr_19_0952,ExactRep-v3-final,2021.2.3,59.93971249909412,
,,,,,,,,16,0,16,0,,,,,,,,,,,,,,,,,,,,,,,,,,,,,,,,,,,,,,,,,,,,,,,,,,,,,1439.065692199394,None,,,,,,,,,,,,,,,,,,,,,,,,,,,,,,,,,,,freedom,14,17,sing,white,1437.0635337997228,None,None,1437.0635337997228,None,,,,,,,,,,,,,,,,,,,,,,,,,,,,,,43,001,2023_Apr_19_0952,ExactRep-v3-final,2021.2.3,59.93971249909412,
,,,,,,,,17,0,17,0,,,,,,,,,,,,,,,,,,,,,,,,,,,,,,,,,,,,,,,,,,,,,,,,,,,,,1441.5681825000793,None,,,,,,,,,,,,,,,,,,,,,,,,,,,,,,,,,,,custom,52,18,silent,blue,1439.569162500091,None,None,1439.569162500091,None,,,,,,,,,,,,,,,,,,,,,,,,,,,,,,43,001,2023_Apr_19_0952,ExactRep-v3-final,2021.2.3,59.93971249909412,
,,,,,,,,18,0,18,0,,,,,,,,,,,,,,,,,,,,,,,,,,,,,,,,,,,,,,,,,,,,,,,,,,,,,1444.0873651998118,None,,,,,,,,,,,,,,,,,,,,,,,,,,,,,,,,,,,party,27,19,sing,white,1442.0748912999406,None,None,1442.0748912999406,None,,,,,,,,,,,,,,,,,,,,,,,,,,,,,,43,001,2023_Apr_19_0952,ExactRep-v3-final,2021.2.3,59.93971249909412,
,,,,,,,,19,0,19,0,,,,,,,,,,,,,,,,,,,,,,,,,,,,,,,,,,,,,,,,,,,,,,,,,,,,,1446.6063516000286,None,,,,,,,,,,,,,,,,,,,,,,,,,,,,,,,,,,,rock,11,20,sing,white,1444.5915756998584,None,None,1444.5915756998584,None,,,,,,,,,,,,,,,,,,,,,,,,,,,,,,43,001,2023_Apr_19_0952,ExactRep-v3-final,2021.2.3,59.93971249909412,
,,,,,,,,20,0,20,0,,,,,,,,,,,,,,,,,,,,,,,,,,,,,,,,,,,,,,,,,,,,,,,,,,,,,1449.125805599615,None,,,,,,,,,,,,,,,,,,,,,,,,,,,,,,,,,,,form,33,21,sing,white,1447.1111234994605,None,None,1447.1111234994605,None,,,,,,,,,,,,,,,,,,,,,,,,,,,,,,43,001,2023_Apr_19_0952,ExactRep-v3-final,2021.2.3,59.93971249909412,
,,,,,,,,21,0,21,0,,,,,,,,,,,,,,,,,,,,,,,,,,,,,,,,,,,,,,,,,,,,,,,,,,,,,1451.628022099845,None,,,,,,,,,,,,,,,,,,,,,,,,,,,,,,,,,,,present,64,22,silent,blue,1449.6283585997298,None,None,1449.6283585997298,None,,,,,,,,,,,,,,,,,,,,,,,,,,,,,,43,001,2023_Apr_19_0952,ExactRep-v3-final,2021.2.3,59.93971249909412,
,,,,,,,,22,0,22,0,,,,,,,,,,,,,,,,,,,,,,,,,,,,,,,,,,,,,,,,,,,,,,,,,,,,,1454.1307047000155,None,,,,,,,,,,,,,,,,,,,,,,,,,,,,,,,,,,,sugar,0,23,sing,white,1452.128450899385,None,None,1452.128450899385,None,,,,,,,,,,,,,,,,,,,,,,,,,,,,,,43,001,2023_Apr_19_0952,ExactRep-v3-final,2021.2.3,59.93971249909412,
,,,,,,,,23,0,23,0,,,,,,,,,,,,,,,,,,,,,,,,,,,,,,,,,,,,,,,,,,,,,,,,,,,,,1456.649949000217,None,,,,,,,,,,,,,,,,,,,,,,,,,,,,,,,,,,,house,35,24,sing,white,1454.6364685995504,None,None,1454.6364685995504,None,,,,,,,,,,,,,,,,,,,,,,,,,,,,,,43,001,2023_Apr_19_0952,ExactRep-v3-final,2021.2.3,59.93971249909412,
,,,,,,,,24,0,24,0,,,,,,,,,,,,,,,,,,,,,,,,,,,,,,,,,,,,,,,,,,,,,,,,,,,,,1459.16912079975,None,,,,,,,,,,,,,,,,,,,,,,,,,,,,,,,,,,,spirit,15,25,sing,white,1457.1571765998378,None,None,1457.1571765998378,None,,,,,,,,,,,,,,,,,,,,,,,,,,,,,,43,001,2023_Apr_19_0952,ExactRep-v3-final,2021.2.3,59.93971249909412,
,,,,,,,,25,0,25,0,,,,,,,,,,,,,,,,,,,,,,,,,,,,,,,,,,,,,,,,,,,,,,,,,,,,,1461.6713237995282,None,,,,,,,,,,,,,,,,,,,,,,,,,,,,,,,,,,,king,39,26,silent,blue,1459.669472699985,None,None,1459.669472699985,None,,,,,,,,,,,,,,,,,,,,,,,,,,,,,,43,001,2023_Apr_19_0952,ExactRep-v3-final,2021.2.3,59.93971249909412,
,,,,,,,,26,0,26,0,,,,,,,,,,,,,,,,,,,,,,,,,,,,,,,,,,,,,,,,,,,,,,,,,,,,,1464.1740697994828,None,,,,,,,,,,,,,,,,,,,,,,,,,,,,,,,,,,,brain,8,27,sing,white,1462.1727321995422,None,None,1462.1727321995422,None,,,,,,,,,,,,,,,,,,,,,,,,,,,,,,43,001,2023_Apr_19_0952,ExactRep-v3-final,2021.2.3,59.93971249909412,
,,,,,,,,27,0,27,0,,,,,,,,,,,,,,,,,,,,,,,,,,,,,,,,,,,,,,,,,,,,,,,,,,,,,1466.6766139995307,None,,,,,,,,,,,,,,,,,,,,,,,,,,,,,,,,,,,officer,105,28,aloud,red,1464.6762905996293,None,None,1464.6762905996293,None,,,,,,,,,,,,,,,,,,,,,,,,,,,,,,43,001,2023_Apr_19_0952,ExactRep-v3-final,2021.2.3,59.93971249909412,
,,,,,,,,28,0,28,0,,,,,,,,,,,,,,,,,,,,,,,,,,,,,,,,,,,,,,,,,,,,,,,,,,,,,1469.179237799719,None,,,,,,,,,,,,,,,,,,,,,,,,,,,,,,,,,,,humour,98,29,aloud,red,1467.1787452995777,None,None,1467.1787452995777,None,,,,,,,,,,,,,,,,,,,,,,,,,,,,,,43,001,2023_Apr_19_0952,ExactRep-v3-final,2021.2.3,59.93971249909412,
,,,,,,,,29,0,29,0,,,,,,,,,,,,,,,,,,,,,,,,,,,,,,,,,,,,,,,,,,,,,,,,,,,,,1471.6983421994373,None,,,,,,,,,,,,,,,,,,,,,,,,,,,,,,,,,,,priest,61,30,silent,blue,1469.689063699916,None,None,1469.689063699916,None,,,,,,,,,,,,,,,,,,,,,,,,,,,,,,43,001,2023_Apr_19_0952,ExactRep-v3-final,2021.2.3,59.93971249909412,
,,,,,,,,30,0,30,0,,,,,,,,,,,,,,,,,,,,,,,,,,,,,,,,,,,,,,,,,,,,,,,,,,,,,1474.2007933994755,None,,,,,,,,,,,,,,,,,,,,,,,,,,,,,,,,,,,arm,99,31,aloud,red,1472.2003342993557,None,None,1472.2003342993557,None,,,,,,,,,,,,,,,,,,,,,,,,,,,,,,43,001,2023_Apr_19_0952,ExactRep-v3-final,2021.2.3,59.93971249909412,
,,,,,,,,31,0,31,0,,,,,,,,,,,,,,,,,,,,,,,,,,,,,,,,,,,,,,,,,,,,,,,,,,,,,1476.7199037000537,None,,,,,,,,,,,,,,,,,,,,,,,,,,,,,,,,,,,silence,67,32,silent,blue,1474.7054765997455,None,None,1474.7054765997455,None,,,,,,,,,,,,,,,,,,,,,,,,,,,,,,43,001,2023_Apr_19_0952,ExactRep-v3-final,2021.2.3,59.93971249909412,
,,,,,,,,32,0,32,0,,,,,,,,,,,,,,,,,,,,,,,,,,,,,,,,,,,,,,,,,,,,,,,,,,,,,1479.2390604997054,None,,,,,,,,,,,,,,,,,,,,,,,,,,,,,,,,,,,death,16,33,sing,white,1477.2269113995135,None,None,1477.2269113995135,None,,,,,,,,,,,,,,,,,,,,,,,,,,,,,,43,001,2023_Apr_19_0952,ExactRep-v3-final,2021.2.3,59.93971249909412,
,,,,,,,,33,0,33,0,,,,,,,,,,,,,,,,,,,,,,,,,,,,,,,,,,,,,,,,,,,,,,,,,,,,,1481.7417270001024,None,,,,,,,,,,,,,,,,,,,,,,,,,,,,,,,,,,,dust,60,34,silent,blue,1479.7397122001275,None,None,1479.7397122001275,None,,,,,,,,,,,,,,,,,,,,,,,,,,,,,,43,001,2023_Apr_19_0952,ExactRep-v3-final,2021.2.3,59.93971249909412,
,,,,,,,,34,0,34,0,,,,,,,,,,,,,,,,,,,,,,,,,,,,,,,,,,,,,,,,,,,,,,,,,,,,,1484.2441759994254,None,,,,,,,,,,,,,,,,,,,,,,,,,,,,,,,,,,,doll,65,35,silent,blue,1482.243933700025,None,None,1482.243933700025,None,,,,,,,,,,,,,,,,,,,,,,,,,,,,,,43,001,2023_Apr_19_0952,ExactRep-v3-final,2021.2.3,59.93971249909412,
,,,,,,,,35,0,35,0,,,,,,,,,,,,,,,,,,,,,,,,,,,,,,,,,,,,,,,,,,,,,,,,,,,,,1486.746660599485,None,,,,,,,,,,,,,,,,,,,,,,,,,,,,,,,,,,,theory,102,36,aloud,red,1484.7452603997663,None,None,1484.7452603997663,None,,,,,,,,,,,,,,,,,,,,,,,,,,,,,,43,001,2023_Apr_19_0952,ExactRep-v3-final,2021.2.3,59.93971249909412,
,,,,,,,,36,0,36,0,,,,,,,,,,,,,,,,,,,,,,,,,,,,,,,,,,,,,,,,,,,,,,,,,,,,,1489.2491741999984,None,,,,,,,,,,,,,,,,,,,,,,,,,,,,,,,,,,,mother,40,37,silent,blue,1487.2498212000355,None,None,1487.2498212000355,None,,,,,,,,,,,,,,,,,,,,,,,,,,,,,,43,001,2023_Apr_19_0952,ExactRep-v3-final,2021.2.3,59.93971249909412,
,,,,,,,,37,0,37,0,,,,,,,,,,,,,,,,,,,,,,,,,,,,,,,,,,,,,,,,,,,,,,,,,,,,,1491.7516235001385,None,,,,,,,,,,,,,,,,,,,,,,,,,,,,,,,,,,,style,63,38,silent,blue,1489.7514142999426,None,None,1489.7514142999426,None,,,,,,,,,,,,,,,,,,,,,,,,,,,,,,43,001,2023_Apr_19_0952,ExactRep-v3-final,2021.2.3,59.93971249909412,
,,,,,,,,38,0,38,0,,,,,,,,,,,,,,,,,,,,,,,,,,,,,,,,,,,,,,,,,,,,,,,,,,,,,1494.2541613001376,None,,,,,,,,,,,,,,,,,,,,,,,,,,,,,,,,,,,green,90,39,aloud,red,1492.2549621993676,None,None,1492.2549621993676,None,,,,,,,,,,,,,,,,,,,,,,,,,,,,,,43,001,2023_Apr_19_0952,ExactRep-v3-final,2021.2.3,59.93971249909412,
,,,,,,,,39,0,39,0,,,,,,,,,,,,,,,,,,,,,,,,,,,,,,,,,,,,,,,,,,,,,,,,,,,,,1496.7733546998352,None,,,,,,,,,,,,,,,,,,,,,,,,,,,,,,,,,,,bowl,3,40,sing,white,1494.759459800087,None,None,1494.759459800087,None,,,,,,,,,,,,,,,,,,,,,,,,,,,,,,43,001,2023_Apr_19_0952,ExactRep-v3-final,2021.2.3,59.93971249909412,
,,,,,,,,40,0,40,0,,,,,,,,,,,,,,,,,,,,,,,,,,,,,,,,,,,,,,,,,,,,,,,,,,,,,1499.2758440999314,None,,,,,,,,,,,,,,,,,,,,,,,,,,,,,,,,,,,chair,109,41,aloud,red,1497.2746994998306,None,None,1497.2746994998306,None,,,,,,,,,,,,,,,,,,,,,,,,,,,,,,43,001,2023_Apr_19_0952,ExactRep-v3-final,2021.2.3,59.93971249909412,
,,,,,,,,41,0,41,0,,,,,,,,,,,,,,,,,,,,,,,,,,,,,,,,,,,,,,,,,,,,,,,,,,,,,1501.7785248002037,None,,,,,,,,,,,,,,,,,,,,,,,,,,,,,,,,,,,child,72,42,silent,blue,1499.7777602002025,None,None,1499.7777602002025,None,,,,,,,,,,,,,,,,,,,,,,,,,,,,,,43,001,2023_Apr_19_0952,ExactRep-v3-final,2021.2.3,59.93971249909412,
,,,,,,,,42,0,42,0,,,,,,,,,,,,,,,,,,,,,,,,,,,,,,,,,,,,,,,,,,,,,,,,,,,,,1504.2976425001398,None,,,,,,,,,,,,,,,,,,,,,,,,,,,,,,,,,,,camp,50,43,silent,blue,1502.2834887998179,None,None,1502.2834887998179,None,,,,,,,,,,,,,,,,,,,,,,,,,,,,,,43,001,2023_Apr_19_0952,ExactRep-v3-final,2021.2.3,59.93971249909412,
,,,,,,,,43,0,43,0,,,,,,,,,,,,,,,,,,,,,,,,,,,,,,,,,,,,,,,,,,,,,,,,,,,,,1506.8165986994281,None,,,,,,,,,,,,,,,,,,,,,,,,,,,,,,,,,,,plant,97,44,aloud,red,1504.8009689999744,None,None,1504.8009689999744,None,,,,,,,,,,,,,,,,,,,,,,,,,,,,,,43,001,2023_Apr_19_0952,ExactRep-v3-final,2021.2.3,59.93971249909412,
,,,,,,,,44,0,44,0,,,,,,,,,,,,,,,,,,,,,,,,,,,,,,,,,,,,,,,,,,,,,,,,,,,,,1509.3193170996383,None,,,,,,,,,,,,,,,,,,,,,,,,,,,,,,,,,,,bottle,36,45,sing,white,1507.3171453997493,None,None,1507.3171453997493,None,,,,,,,,,,,,,,,,,,,,,,,,,,,,,,43,001,2023_Apr_19_0952,ExactRep-v3-final,2021.2.3,59.93971249909412,
,,,,,,,,45,0,45,0,,,,,,,,,,,,,,,,,,,,,,,,,,,,,,,,,,,,,,,,,,,,,,,,,,,,,1511.8384476993233,None,,,,,,,,,,,,,,,,,,,,,,,,,,,,,,,,,,,ticket,115,46,aloud,red,1509.8252640999854,None,None,1509.8252640999854,None,,,,,,,,,,,,,,,,,,,,,,,,,,,,,,43,001,2023_Apr_19_0952,ExactRep-v3-final,2021.2.3,59.93971249909412,
,,,,,,,,46,0,46,0,,,,,,,,,,,,,,,,,,,,,,,,,,,,,,,,,,,,,,,,,,,,,,,,,,,,,1514.3409476000816,None,,,,,,,,,,,,,,,,,,,,,,,,,,,,,,,,,,,meeting,32,47,sing,white,1512.3399534001946,None,None,1512.3399534001946,None,,,,,,,,,,,,,,,,,,,,,,,,,,,,,,43,001,2023_Apr_19_0952,ExactRep-v3-final,2021.2.3,59.93971249909412,
,,,,,,,,47,0,47,0,,,,,,,,,,,,,,,,,,,,,,,,,,,,,,,,,,,,,,,,,,,,,,,,,,,,,1516.8598961997777,None,,,,,,,,,,,,,,,,,,,,,,,,,,,,,,,,,,,event,41,48,silent,blue,1514.8485813997686,None,None,1514.8485813997686,None,,,,,,,,,,,,,,,,,,,,,,,,,,,,,,43,001,2023_Apr_19_0952,ExactRep-v3-final,2021.2.3,59.93971249909412,
,,,,,,,,48,0,48,0,,,,,,,,,,,,,,,,,,,,,,,,,,,,,,,,,,,,,,,,,,,,,,,,,,,,,1519.379175200127,None,,,,,,,,,,,,,,,,,,,,,,,,,,,,,,,,,,,fault,95,49,aloud,red,1517.363946000114,None,None,1517.363946000114,None,,,,,,,,,,,,,,,,,,,,,,,,,,,,,,43,001,2023_Apr_19_0952,ExactRep-v3-final,2021.2.3,59.93971249909412,
,,,,,,,,49,0,49,0,,,,,,,,,,,,,,,,,,,,,,,,,,,,,,,,,,,,,,,,,,,,,,,,,,,,,1521.8985358001664,None,,,,,,,,,,,,,,,,,,,,,,,,,,,,,,,,,,,college,117,50,aloud,red,1519.8865911997855,None,None,1519.8865911997855,None,,,,,,,,,,,,,,,,,,,,,,,,,,,,,,43,001,2023_Apr_19_0952,ExactRep-v3-final,2021.2.3,59.93971249909412,
,,,,,,,,50,0,50,0,,,,,,,,,,,,,,,,,,,,,,,,,,,,,,,,,,,,,,,,,,,,,,,,,,,,,1524.4010210996494,None,,,,,,,,,,,,,,,,,,,,,,,,,,,,,,,,,,,doctor,49,51,silent,blue,1522.4010498998687,None,None,1522.4010498998687,None,,,,,,,,,,,,,,,,,,,,,,,,,,,,,,43,001,2023_Apr_19_0952,ExactRep-v3-final,2021.2.3,59.93971249909412,
,,,,,,,,51,0,51,0,,,,,,,,,,,,,,,,,,,,,,,,,,,,,,,,,,,,,,,,,,,,,,,,,,,,,1526.903488099575,None,,,,,,,,,,,,,,,,,,,,,,,,,,,,,,,,,,,market,91,52,aloud,red,1524.901514799334,None,None,1524.901514799334,None,,,,,,,,,,,,,,,,,,,,,,,,,,,,,,43,001,2023_Apr_19_0952,ExactRep-v3-final,2021.2.3,59.93971249909412,
,,,,,,,,52,0,52,0,,,,,,,,,,,,,,,,,,,,,,,,,,,,,,,,,,,,,,,,,,,,,,,,,,,,,1529.4059660993516,None,,,,,,,,,,,,,,,,,,,,,,,,,,,,,,,,,,,window,24,53,sing,white,1527.4052403001115,None,None,1527.4052403001115,None,,,,,,,,,,,,,,,,,,,,,,,,,,,,,,43,001,2023_Apr_19_0952,ExactRep-v3-final,2021.2.3,59.93971249909412,
,,,,,,,,53,0,53,0,,,,,,,,,,,,,,,,,,,,,,,,,,,,,,,,,,,,,,,,,,,,,,,,,,,,,1531.9252229994163,None,,,,,,,,,,,,,,,,,,,,,,,,,,,,,,,,,,,queen,112,54,aloud,red,1529.9182922998443,None,None,1529.9182922998443,None,,,,,,,,,,,,,,,,,,,,,,,,,,,,,,43,001,2023_Apr_19_0952,ExactRep-v3-final,2021.2.3,59.93971249909412,
,,,,,,,,54,0,54,0,,,,,,,,,,,,,,,,,,,,,,,,,,,,,,,,,,,,,,,,,,,,,,,,,,,,,1534.4275779994205,None,,,,,,,,,,,,,,,,,,,,,,,,,,,,,,,,,,,board,74,55,silent,blue,1532.4273760998622,None,None,1532.4273760998622,None,,,,,,,,,,,,,,,,,,,,,,,,,,,,,,43,001,2023_Apr_19_0952,ExactRep-v3-final,2021.2.3,59.93971249909412,
,,,,,,,,55,0,55,0,,,,,,,,,,,,,,,,,,,,,,,,,,,,,,,,,,,,,,,,,,,,,,,,,,,,,1536.9300371995196,None,,,,,,,,,,,,,,,,,,,,,,,,,,,,,,,,,,,health,4,56,sing,white,1534.9286292996258,None,None,1534.9286292996258,None,,,,,,,,,,,,,,,,,,,,,,,,,,,,,,43,001,2023_Apr_19_0952,ExactRep-v3-final,2021.2.3,59.93971249909412,
,,,,,,,,56,0,56,0,,,,,,,,,,,,,,,,,,,,,,,,,,,,,,,,,,,,,,,,,,,,,,,,,,,,,1539.449359299615,None,,,,,,,,,,,,,,,,,,,,,,,,,,,,,,,,,,,quality,9,57,sing,white,1537.4393454995006,None,None,1537.4393454995006,None,,,,,,,,,,,,,,,,,,,,,,,,,,,,,,43,001,2023_Apr_19_0952,ExactRep-v3-final,2021.2.3,59.93971249909412,
,,,,,,,,57,0,57,0,,,,,,,,,,,,,,,,,,,,,,,,,,,,,,,,,,,,,,,,,,,,,,,,,,,,,1541.9518920993432,None,,,,,,,,,,,,,,,,,,,,,,,,,,,,,,,,,,,fur,45,58,silent,blue,1539.9505243999884,None,None,1539.9505243999884,None,,,,,,,,,,,,,,,,,,,,,,,,,,,,,,43,001,2023_Apr_19_0952,ExactRep-v3-final,2021.2.3,59.93971249909412,
,,,,,,,,58,0,58,0,,,,,,,,,,,,,,,,,,,,,,,,,,,,,,,,,,,,,,,,,,,,,,,,,,,,,1544.4710576999933,None,,,,,,,,,,,,,,,,,,,,,,,,,,,,,,,,,,,city,92,59,aloud,red,1542.4586279997602,None,None,1542.4586279997602,None,,,,,,,,,,,,,,,,,,,,,,,,,,,,,,43,001,2023_Apr_19_0952,ExactRep-v3-final,2021.2.3,59.93971249909412,
,,,,,,,,59,0,59,0,,,,,,,,,,,,,,,,,,,,,,,,,,,,,,,,,,,,,,,,,,,,,,,,,,,,,1546.9734001997858,None,,,,,,,,,,,,,,,,,,,,,,,,,,,,,,,,,,,science,58,60,silent,blue,1544.9713702993467,None,None,1544.9713702993467,None,,,,,,,,,,,,,,,,,,,,,,,,,,,,,,43,001,2023_Apr_19_0952,ExactRep-v3-final,2021.2.3,59.93971249909412,
,,,,,,,,60,0,60,0,,,,,,,,,,,,,,,,,,,,,,,,,,,,,,,,,,,,,,,,,,,,,,,,,,,,,1549.4933644998819,None,,,,,,,,,,,,,,,,,,,,,,,,,,,,,,,,,,,person,83,61,aloud,red,1547.4836940001696,None,None,1547.4836940001696,None,,,,,,,,,,,,,,,,,,,,,,,,,,,,,,43,001,2023_Apr_19_0952,ExactRep-v3-final,2021.2.3,59.93971249909412,
,,,,,,,,61,0,61,0,,,,,,,,,,,,,,,,,,,,,,,,,,,,,,,,,,,,,,,,,,,,,,,,,,,,,1551.9951152997091,None,,,,,,,,,,,,,,,,,,,,,,,,,,,,,,,,,,,idea,46,62,silent,blue,1549.9930867999792,None,None,1549.9930867999792,None,,,,,,,,,,,,,,,,,,,,,,,,,,,,,,43,001,2023_Apr_19_0952,ExactRep-v3-final,2021.2.3,59.93971249909412,
,,,,,,,,62,0,62,0,,,,,,,,,,,,,,,,,,,,,,,,,,,,,,,,,,,,,,,,,,,,,,,,,,,,,1554.5144341001287,None,,,,,,,,,,,,,,,,,,,,,,,,,,,,,,,,,,,coast,81,63,aloud,red,1552.5025167996064,None,None,1552.5025167996064,None,,,,,,,,,,,,,,,,,,,,,,,,,,,,,,43,001,2023_Apr_19_0952,ExactRep-v3-final,2021.2.3,59.93971249909412,
,,,,,,,,63,0,63,0,,,,,,,,,,,,,,,,,,,,,,,,,,,,,,,,,,,,,,,,,,,,,,,,,,,,,1557.0336450999603,None,,,,,,,,,,,,,,,,,,,,,,,,,,,,,,,,,,,journal,69,64,silent,blue,1555.0325232995674,None,None,1555.0325232995674,None,,,,,,,,,,,,,,,,,,,,,,,,,,,,,,43,001,2023_Apr_19_0952,ExactRep-v3-final,2021.2.3,59.93971249909412,
,,,,,,,,64,0,64,0,,,,,,,,,,,,,,,,,,,,,,,,,,,,,,,,,,,,,,,,,,,,,,,,,,,,,1559.5528796995059,None,,,,,,,,,,,,,,,,,,,,,,,,,,,,,,,,,,,potato,59,65,silent,blue,1557.5412847995758,None,None,1557.5412847995758,None,,,,,,,,,,,,,,,,,,,,,,,,,,,,,,43,001,2023_Apr_19_0952,ExactRep-v3-final,2021.2.3,59.93971249909412,
,,,,,,,,65,0,65,0,,,,,,,,,,,,,,,,,,,,,,,,,,,,,,,,,,,,,,,,,,,,,,,,,,,,,1562.055371299386,None,,,,,,,,,,,,,,,,,,,,,,,,,,,,,,,,,,,coin,86,66,aloud,red,1560.0547938998789,None,None,1560.0547938998789,None,,,,,,,,,,,,,,,,,,,,,,,,,,,,,,43,001,2023_Apr_19_0952,ExactRep-v3-final,2021.2.3,59.93971249909412,
,,,,,,,,66,0,66,0,,,,,,,,,,,,,,,,,,,,,,,,,,,,,,,,,,,,,,,,,,,,,,,,,,,,,1564.5745228994638,None,,,,,,,,,,,,,,,,,,,,,,,,,,,,,,,,,,,chief,54,67,silent,blue,1562.5614329995587,None,None,1562.5614329995587,None,,,,,,,,,,,,,,,,,,,,,,,,,,,,,,43,001,2023_Apr_19_0952,ExactRep-v3-final,2021.2.3,59.93971249909412,
,,,,,,,,67,0,67,0,,,,,,,,,,,,,,,,,,,,,,,,,,,,,,,,,,,,,,,,,,,,,,,,,,,,,1567.0770405000076,None,,,,,,,,,,,,,,,,,,,,,,,,,,,,,,,,,,,pupil,1,68,sing,white,1565.0758906994015,None,None,1565.0758906994015,None,,,,,,,,,,,,,,,,,,,,,,,,,,,,,,43,001,2023_Apr_19_0952,ExactRep-v3-final,2021.2.3,59.93971249909412,
,,,,,,,,68,0,68,0,,,,,,,,,,,,,,,,,,,,,,,,,,,,,,,,,,,,,,,,,,,,,,,,,,,,,1569.5966574000195,None,,,,,,,,,,,,,,,,,,,,,,,,,,,,,,,,,,,opinion,84,69,aloud,red,1567.5837910994887,None,None,1567.5837910994887,None,,,,,,,,,,,,,,,,,,,,,,,,,,,,,,43,001,2023_Apr_19_0952,ExactRep-v3-final,2021.2.3,59.93971249909412,
,,,,,,,,69,0,69,0,,,,,,,,,,,,,,,,,,,,,,,,,,,,,,,,,,,,,,,,,,,,,,,,,,,,,1572.0987590998411,None,,,,,,,,,,,,,,,,,,,,,,,,,,,,,,,,,,,judge,75,70,silent,blue,1570.0966306999326,None,None,1570.0966306999326,None,,,,,,,,,,,,,,,,,,,,,,,,,,,,,,43,001,2023_Apr_19_0952,ExactRep-v3-final,2021.2.3,59.93971249909412,
,,,,,,,,70,0,70,0,,,,,,,,,,,,,,,,,,,,,,,,,,,,,,,,,,,,,,,,,,,,,,,,,,,,,1574.6179014993832,None,,,,,,,,,,,,,,,,,,,,,,,,,,,,,,,,,,,hope,78,71,silent,blue,1572.6036075996235,None,None,1572.6036075996235,None,,,,,,,,,,,,,,,,,,,,,,,,,,,,,,43,001,2023_Apr_19_0952,ExactRep-v3-final,2021.2.3,59.93971249909412,
,,,,,,,,71,0,71,0,,,,,,,,,,,,,,,,,,,,,,,,,,,,,,,,,,,,,,,,,,,,,,,,,,,,,1577.1369019001722,None,,,,,,,,,,,,,,,,,,,,,,,,,,,,,,,,,,,month,110,72,aloud,red,1575.121331599541,None,None,1575.121331599541,None,,,,,,,,,,,,,,,,,,,,,,,,,,,,,,43,001,2023_Apr_19_0952,ExactRep-v3-final,2021.2.3,59.93971249909412,
,,,,,,,,72,0,72,0,,,,,,,,,,,,,,,,,,,,,,,,,,,,,,,,,,,,,,,,,,,,,,,,,,,,,1579.6561546996236,None,,,,,,,,,,,,,,,,,,,,,,,,,,,,,,,,,,,seat,87,73,aloud,red,1577.6411109995097,None,None,1577.6411109995097,None,,,,,,,,,,,,,,,,,,,,,,,,,,,,,,43,001,2023_Apr_19_0952,ExactRep-v3-final,2021.2.3,59.93971249909412,
,,,,,,,,73,0,73,0,,,,,,,,,,,,,,,,,,,,,,,,,,,,,,,,,,,,,,,,,,,,,,,,,,,,,1582.1587597001344,None,,,,,,,,,,,,,,,,,,,,,,,,,,,,,,,,,,,girl,85,74,aloud,red,1580.1593761993572,None,None,1580.1593761993572,None,,,,,,,,,,,,,,,,,,,,,,,,,,,,,,43,001,2023_Apr_19_0952,ExactRep-v3-final,2021.2.3,59.93971249909412,
,,,,,,,,74,0,74,0,,,,,,,,,,,,,,,,,,,,,,,,,,,,,,,,,,,,,,,,,,,,,,,,,,,,,1584.6611075000837,None,,,,,,,,,,,,,,,,,,,,,,,,,,,,,,,,,,,book,17,75,sing,white,1582.6616041995585,None,None,1582.6616041995585,None,,,,,,,,,,,,,,,,,,,,,,,,,,,,,,43,001,2023_Apr_19_0952,ExactRep-v3-final,2021.2.3,59.93971249909412,
,,,,,,,,75,0,75,0,,,,,,,,,,,,,,,,,,,,,,,,,,,,,,,,,,,,,,,,,,,,,,,,,,,,,1587.1804523002356,None,,,,,,,,,,,,,,,,,,,,,,,,,,,,,,,,,,,slave,48,76,silent,blue,1585.1653239000589,None,None,1585.1653239000589,None,,,,,,,,,,,,,,,,,,,,,,,,,,,,,,43,001,2023_Apr_19_0952,ExactRep-v3-final,2021.2.3,59.93971249909412,
,,,,,,,,76,0,76,0,,,,,,,,,,,,,,,,,,,,,,,,,,,,,,,,,,,,,,,,,,,,,,,,,,,,,1589.6829035999253,None,,,,,,,,,,,,,,,,,,,,,,,,,,,,,,,,,,,moral,116,77,aloud,red,1587.682097999379,None,None,1587.682097999379,None,,,,,,,,,,,,,,,,,,,,,,,,,,,,,,43,001,2023_Apr_19_0952,ExactRep-v3-final,2021.2.3,59.93971249909412,
,,,,,,,,77,0,77,0,,,,,,,,,,,,,,,,,,,,,,,,,,,,,,,,,,,,,,,,,,,,,,,,,,,,,1592.2019718000665,None,,,,,,,,,,,,,,,,,,,,,,,,,,,,,,,,,,,pipe,89,78,aloud,red,1590.1913263993338,None,None,1590.1913263993338,None,,,,,,,,,,,,,,,,,,,,,,,,,,,,,,43,001,2023_Apr_19_0952,ExactRep-v3-final,2021.2.3,59.93971249909412,
,,,,,,,,78,0,78,0,,,,,,,,,,,,,,,,,,,,,,,,,,,,,,,,,,,,,,,,,,,,,,,,,,,,,1594.7047184994444,None,,,,,,,,,,,,,,,,,,,,,,,,,,,,,,,,,,,fortune,104,79,aloud,red,1592.7025811001658,None,None,1592.7025811001658,None,,,,,,,,,,,,,,,,,,,,,,,,,,,,,,43,001,2023_Apr_19_0952,ExactRep-v3-final,2021.2.3,59.93971249909412,
,,,,,,,,79,0,79,0,,,,,,,,,,,,,,,,,,,,,,,,,,,,,,,,,,,,,,,,,,,,,,,,,,,,,1597.2236215993762,None,,,,,,,,,,,,,,,,,,,,,,,,,,,,,,,,,,,butter,111,80,aloud,red,1595.209657699801,None,None,1595.209657699801,None,,,,,,,,,,,,,,,,,,,,,,,,,,,,,,43,001,2023_Apr_19_0952,ExactRep-v3-final,2021.2.3,59.93971249909412,
,,,,,,,,80,0,80,0,,,,,,,,,,,,,,,,,,,,,,,,,,,,,,,,,,,,,,,,,,,,,,,,,,,,,1599.7261982001364,None,,,,,,,,,,,,,,,,,,,,,,,,,,,,,,,,,,,nail,80,81,aloud,red,1597.724123599939,None,None,1597.724123599939,None,,,,,,,,,,,,,,,,,,,,,,,,,,,,,,43,001,2023_Apr_19_0952,ExactRep-v3-final,2021.2.3,59.93971249909412,
,,,,,,,,81,0,81,0,,,,,,,,,,,,,,,,,,,,,,,,,,,,,,,,,,,,,,,,,,,,,,,,,,,,,1602.2286422997713,None,,,,,,,,,,,,,,,,,,,,,,,,,,,,,,,,,,,lad,100,82,aloud,red,1600.2276226999238,None,None,1600.2276226999238,None,,,,,,,,,,,,,,,,,,,,,,,,,,,,,,43,001,2023_Apr_19_0952,ExactRep-v3-final,2021.2.3,59.93971249909412,
,,,,,,,,82,0,82,0,,,,,,,,,,,,,,,,,,,,,,,,,,,,,,,,,,,,,,,,,,,,,,,,,,,,,1604.7314700996503,None,,,,,,,,,,,,,,,,,,,,,,,,,,,,,,,,,,,hotel,12,83,sing,white,1602.7308058999479,None,None,1602.7308058999479,None,,,,,,,,,,,,,,,,,,,,,,,,,,,,,,43,001,2023_Apr_19_0952,ExactRep-v3-final,2021.2.3,59.93971249909412,
,,,,,,,,83,0,83,0,,,,,,,,,,,,,,,,,,,,,,,,,,,,,,,,,,,,,,,,,,,,,,,,,,,,,1607.2338752001524,None,,,,,,,,,,,,,,,,,,,,,,,,,,,,,,,,,,,law,34,84,sing,white,1605.231845099479,None,None,1605.231845099479,None,,,,,,,,,,,,,,,,,,,,,,,,,,,,,,43,001,2023_Apr_19_0952,ExactRep-v3-final,2021.2.3,59.93971249909412,
,,,,,,,,84,0,84,0,,,,,,,,,,,,,,,,,,,,,,,,,,,,,,,,,,,,,,,,,,,,,,,,,,,,,1609.7530061993748,None,,,,,,,,,,,,,,,,,,,,,,,,,,,,,,,,,,,flag,106,85,aloud,red,1607.737960100174,None,None,1607.737960100174,None,,,,,,,,,,,,,,,,,,,,,,,,,,,,,,43,001,2023_Apr_19_0952,ExactRep-v3-final,2021.2.3,59.93971249909412,
,,,,,,,,85,0,85,0,,,,,,,,,,,,,,,,,,,,,,,,,,,,,,,,,,,,,,,,,,,,,,,,,,,,,1612.2718677995726,None,,,,,,,,,,,,,,,,,,,,,,,,,,,,,,,,,,,grief,38,86,sing,white,1610.260088100098,None,None,1610.260088100098,None,,,,,,,,,,,,,,,,,,,,,,,,,,,,,,43,001,2023_Apr_19_0952,ExactRep-v3-final,2021.2.3,59.93971249909412,
,,,,,,,,86,0,86,0,,,,,,,,,,,,,,,,,,,,,,,,,,,,,,,,,,,,,,,,,,,,,,,,,,,,,1614.7747607994825,None,,,,,,,,,,,,,,,,,,,,,,,,,,,,,,,,,,,anger,43,87,silent,blue,1612.772577200085,None,None,1612.772577200085,None,,,,,,,,,,,,,,,,,,,,,,,,,,,,,,43,001,2023_Apr_19_0952,ExactRep-v3-final,2021.2.3,59.93971249909412,
,,,,,,,,87,0,87,0,,,,,,,,,,,,,,,,,,,,,,,,,,,,,,,,,,,,,,,,,,,,,,,,,,,,,1617.2770481994376,None,,,,,,,,,,,,,,,,,,,,,,,,,,,,,,,,,,,church,108,88,aloud,red,1615.2777899997309,None,None,1615.2777899997309,None,,,,,,,,,,,,,,,,,,,,,,,,,,,,,,43,001,2023_Apr_19_0952,ExactRep-v3-final,2021.2.3,59.93971249909412,
,,,,,,,,88,0,88,0,,,,,,,,,,,,,,,,,,,,,,,,,,,,,,,,,,,,,,,,,,,,,,,,,,,,,1619.7795319994912,None,,,,,,,,,,,,,,,,,,,,,,,,,,,,,,,,,,,wheat,37,89,sing,white,1617.7804391002283,None,None,1617.7804391002283,None,,,,,,,,,,,,,,,,,,,,,,,,,,,,,,43,001,2023_Apr_19_0952,ExactRep-v3-final,2021.2.3,59.93971249909412,
,,,,,,,,89,0,89,0,,,,,,,,,,,,,,,,,,,,,,,,,,,,,,,,,,,,,,,,,,,,,,,,,,,,,1622.2822100995108,None,,,,,,,,,,,,,,,,,,,,,,,,,,,,,,,,,,,blossom,66,90,silent,blue,1620.2830641996115,None,None,1620.2830641996115,None,,,,,,,,,,,,,,,,,,,,,,,,,,,,,,43,001,2023_Apr_19_0952,ExactRep-v3-final,2021.2.3,59.93971249909412,
,,,,,,,,90,0,90,0,,,,,,,,,,,,,,,,,,,,,,,,,,,,,,,,,,,,,,,,,,,,,,,,,,,,,1624.784856500104,None,,,,,,,,,,,,,,,,,,,,,,,,,,,,,,,,,,,cattle,96,91,aloud,red,1622.7838465999812,None,None,1622.7838465999812,None,,,,,,,,,,,,,,,,,,,,,,,,,,,,,,43,001,2023_Apr_19_0952,ExactRep-v3-final,2021.2.3,59.93971249909412,
,,,,,,,,91,0,91,0,,,,,,,,,,,,,,,,,,,,,,,,,,,,,,,,,,,,,,,,,,,,,,,,,,,,,1627.3037623995915,None,,,,,,,,,,,,,,,,,,,,,,,,,,,,,,,,,,,season,57,92,silent,blue,1625.289773600176,None,None,1625.289773600176,None,,,,,,,,,,,,,,,,,,,,,,,,,,,,,,43,001,2023_Apr_19_0952,ExactRep-v3-final,2021.2.3,59.93971249909412,
,,,,,,,,92,0,92,0,,,,,,,,,,,,,,,,,,,,,,,,,,,,,,,,,,,,,,,,,,,,,,,,,,,,,1629.8229061001912,None,,,,,,,,,,,,,,,,,,,,,,,,,,,,,,,,,,,author,47,93,silent,blue,1627.809220599942,None,None,1627.809220599942,None,,,,,,,,,,,,,,,,,,,,,,,,,,,,,,43,001,2023_Apr_19_0952,ExactRep-v3-final,2021.2.3,59.93971249909412,
,,,,,,,,93,0,93,0,,,,,,,,,,,,,,,,,,,,,,,,,,,,,,,,,,,,,,,,,,,,,,,,,,,,,1632.325626200065,None,,,,,,,,,,,,,,,,,,,,,,,,,,,,,,,,,,,army,30,94,sing,white,1630.32348409947,None,None,1630.32348409947,None,,,,,,,,,,,,,,,,,,,,,,,,,,,,,,43,001,2023_Apr_19_0952,ExactRep-v3-final,2021.2.3,59.93971249909412,
,,,,,,,,94,0,94,0,,,,,,,,,,,,,,,,,,,,,,,,,,,,,,,,,,,,,,,,,,,,,,,,,,,,,1634.8278858000413,None,,,,,,,,,,,,,,,,,,,,,,,,,,,,,,,,,,,home,7,95,sing,white,1632.8278048997745,None,None,1632.8278048997745,None,,,,,,,,,,,,,,,,,,,,,,,,,,,,,,43,001,2023_Apr_19_0952,ExactRep-v3-final,2021.2.3,59.93971249909412,
,,,,,,,,95,0,95,0,,,,,,,,,,,,,,,,,,,,,,,,,,,,,,,,,,,,,,,,,,,,,,,,,,,,,1637.3304832000285,None,,,,,,,,,,,,,,,,,,,,,,,,,,,,,,,,,,,troops,76,96,silent,blue,1635.3289537997916,None,None,1635.3289537997916,None,,,,,,,,,,,,,,,,,,,,,,,,,,,,,,43,001,2023_Apr_19_0952,ExactRep-v3-final,2021.2.3,59.93971249909412,
,,,,,,,,96,0,96,0,,,,,,,,,,,,,,,,,,,,,,,,,,,,,,,,,,,,,,,,,,,,,,,,,,,,,1639.8496492998675,None,,,,,,,,,,,,,,,,,,,,,,,,,,,,,,,,,,,river,62,97,silent,blue,1637.8363539995626,None,None,1637.8363539995626,None,,,,,,,,,,,,,,,,,,,,,,,,,,,,,,43,001,2023_Apr_19_0952,ExactRep-v3-final,2021.2.3,59.93971249909412,
,,,,,,,,97,0,97,0,,,,,,,,,,,,,,,,,,,,,,,,,,,,,,,,,,,,,,,,,,,,,,,,,,,,,1642.3520872993395,None,,,,,,,,,,,,,,,,,,,,,,,,,,,,,,,,,,,blood,44,98,silent,blue,1640.3502783998847,None,None,1640.3502783998847,None,,,,,,,,,,,,,,,,,,,,,,,,,,,,,,43,001,2023_Apr_19_0952,ExactRep-v3-final,2021.2.3,59.93971249909412,
,,,,,,,,98,0,98,0,,,,,,,,,,,,,,,,,,,,,,,,,,,,,,,,,,,,,,,,,,,,,,,,,,,,,1644.8548640999943,None,,,,,,,,,,,,,,,,,,,,,,,,,,,,,,,,,,,diamond,19,99,sing,white,1642.8525118995458,None,None,1642.8525118995458,None,,,,,,,,,,,,,,,,,,,,,,,,,,,,,,43,001,2023_Apr_19_0952,ExactRep-v3-final,2021.2.3,59.93971249909412,
,,,,,,,,99,0,99,0,,,,,,,,,,,,,,,,,,,,,,,,,,,,,,,,,,,,,,,,,,,,,,,,,,,,,1647.3573140995577,None,,,,,,,,,,,,,,,,,,,,,,,,,,,,,,,,,,,village,18,100,sing,white,1645.3582116998732,None,None,1645.3582116998732,None,,,,,,,,,,,,,,,,,,,,,,,,,,,,,,43,001,2023_Apr_19_0952,ExactRep-v3-final,2021.2.3,59.93971249909412,
,,,,,,,,100,0,100,0,,,,,,,,,,,,,,,,,,,,,,,,,,,,,,,,,,,,,,,,,,,,,,,,,,,,,1649.859776799567,None,,,,,,,,,,,,,,,,,,,,,,,,,,,,,,,,,,,sea,79,101,sing,white,1647.860523299314,None,None,1647.860523299314,None,,,,,,,,,,,,,,,,,,,,,,,,,,,,,,43,001,2023_Apr_19_0952,ExactRep-v3-final,2021.2.3,59.93971249909412,
,,,,,,,,101,0,101,0,,,,,,,,,,,,,,,,,,,,,,,,,,,,,,,,,,,,,,,,,,,,,,,,,,,,,1652.3790031000972,None,,,,,,,,,,,,,,,,,,,,,,,,,,,,,,,,,,,picture,6,102,sing,white,1650.3656291998923,None,None,1650.3656291998923,None,,,,,,,,,,,,,,,,,,,,,,,,,,,,,,43,001,2023_Apr_19_0952,ExactRep-v3-final,2021.2.3,59.93971249909412,
,,,,,,,,102,0,102,0,,,,,,,,,,,,,,,,,,,,,,,,,,,,,,,,,,,,,,,,,,,,,,,,,,,,,1654.8813389996067,None,,,,,,,,,,,,,,,,,,,,,,,,,,,,,,,,,,,lake,73,103,silent,blue,1652.8817729996517,None,None,1652.8817729996517,None,,,,,,,,,,,,,,,,,,,,,,,,,,,,,,43,001,2023_Apr_19_0952,ExactRep-v3-final,2021.2.3,59.93971249909412,
,,,,,,,,103,0,103,0,,,,,,,,,,,,,,,,,,,,,,,,,,,,,,,,,,,,,,,,,,,,,,,,,,,,,1657.4007406998426,None,,,,,,,,,,,,,,,,,,,,,,,,,,,,,,,,,,,charm,71,104,silent,blue,1655.385003999807,None,None,1655.385003999807,None,,,,,,,,,,,,,,,,,,,,,,,,,,,,,,43,001,2023_Apr_19_0952,ExactRep-v3-final,2021.2.3,59.93971249909412,
,,,,,,,,104,0,104,0,,,,,,,,,,,,,,,,,,,,,,,,,,,,,,,,,,,,,,,,,,,,,,,,,,,,,1659.9030037000775,None,,,,,,,,,,,,,,,,,,,,,,,,,,,,,,,,,,,apple,118,105,aloud,red,1657.9010974997655,None,None,1657.9010974997655,None,,,,,,,,,,,,,,,,,,,,,,,,,,,,,,43,001,2023_Apr_19_0952,ExactRep-v3-final,2021.2.3,59.93971249909412,
,,,,,,,,105,0,105,0,,,,,,,,,,,,,,,,,,,,,,,,,,,,,,,,,,,,,,,,,,,,,,,,,,,,,1662.4223871994764,None,,,,,,,,,,,,,,,,,,,,,,,,,,,,,,,,,,,street,113,106,aloud,red,1660.4113047998399,None,None,1660.4113047998399,None,,,,,,,,,,,,,,,,,,,,,,,,,,,,,,43,001,2023_Apr_19_0952,ExactRep-v3-final,2021.2.3,59.93971249909412,
,,,,,,,,106,0,106,0,,,,,,,,,,,,,,,,,,,,,,,,,,,,,,,,,,,,,,,,,,,,,,,,,,,,,1664.9248802997172,None,,,,,,,,,,,,,,,,,,,,,,,,,,,,,,,,,,,square,42,107,silent,blue,1662.9251787997782,None,None,1662.9251787997782,None,,,,,,,,,,,,,,,,,,,,,,,,,,,,,,43,001,2023_Apr_19_0952,ExactRep-v3-final,2021.2.3,59.93971249909412,
,,,,,,,,107,0,107,0,,,,,,,,,,,,,,,,,,,,,,,,,,,,,,,,,,,,,,,,,,,,,,,,,,,,,1667.4440476996824,None,,,,,,,,,,,,,,,,,,,,,,,,,,,,,,,,,,,victory,119,108,aloud,red,1665.4347041994333,None,None,1665.4347041994333,None,,,,,,,,,,,,,,,,,,,,,,,,,,,,,,43,001,2023_Apr_19_0952,ExactRep-v3-final,2021.2.3,59.93971249909412,
,,,,,,,,108,0,108,0,,,,,,,,,,,,,,,,,,,,,,,,,,,,,,,,,,,,,,,,,,,,,,,,,,,,,1669.9465204002336,None,,,,,,,,,,,,,,,,,,,,,,,,,,,,,,,,,,,lord,20,109,sing,white,1667.9464018996805,None,None,1667.9464018996805,None,,,,,,,,,,,,,,,,,,,,,,,,,,,,,,43,001,2023_Apr_19_0952,ExactRep-v3-final,2021.2.3,59.93971249909412,
,,,,,,,,109,0,109,0,,,,,,,,,,,,,,,,,,,,,,,,,,,,,,,,,,,,,,,,,,,,,,,,,,,,,1672.4490658994764,None,,,,,,,,,,,,,,,,,,,,,,,,,,,,,,,,,,,string,29,110,sing,white,1670.4497515996918,None,None,1670.4497515996918,None,,,,,,,,,,,,,,,,,,,,,,,,,,,,,,43,001,2023_Apr_19_0952,ExactRep-v3-final,2021.2.3,59.93971249909412,
,,,,,,,,110,0,110,0,,,,,,,,,,,,,,,,,,,,,,,,,,,,,,,,,,,,,,,,,,,,,,,,,,,,,1674.9691153997555,None,,,,,,,,,,,,,,,,,,,,,,,,,,,,,,,,,,,vessel,101,111,aloud,red,1672.9540826994926,None,None,1672.9540826994926,None,,,,,,,,,,,,,,,,,,,,,,,,,,,,,,43,001,2023_Apr_19_0952,ExactRep-v3-final,2021.2.3,59.93971249909412,
,,,,,,,,111,0,111,0,,,,,,,,,,,,,,,,,,,,,,,,,,,,,,,,,,,,,,,,,,,,,,,,,,,,,1677.4706298997626,None,,,,,,,,,,,,,,,,,,,,,,,,,,,,,,,,,,,skin,5,112,sing,white,1675.468699099496,None,None,1675.468699099496,None,,,,,,,,,,,,,,,,,,,,,,,,,,,,,,43,001,2023_Apr_19_0952,ExactRep-v3-final,2021.2.3,59.93971249909412,
,,,,,,,,112,0,112,0,,,,,,,,,,,,,,,,,,,,,,,,,,,,,,,,,,,,,,,,,,,,,,,,,,,,,1679.9732371997088,None,,,,,,,,,,,,,,,,,,,,,,,,,,,,,,,,,,,boy,53,113,silent,blue,1677.9711742000654,None,None,1677.9711742000654,None,,,,,,,,,,,,,,,,,,,,,,,,,,,,,,43,001,2023_Apr_19_0952,ExactRep-v3-final,2021.2.3,59.93971249909412,
,,,,,,,,113,0,113,0,,,,,,,,,,,,,,,,,,,,,,,,,,,,,,,,,,,,,,,,,,,,,,,,,,,,,1682.4757391996682,None,,,,,,,,,,,,,,,,,,,,,,,,,,,,,,,,,,,library,107,114,aloud,red,1680.476412399672,None,None,1680.476412399672,None,,,,,,,,,,,,,,,,,,,,,,,,,,,,,,43,001,2023_Apr_19_0952,ExactRep-v3-final,2021.2.3,59.93971249909412,
,,,,,,,,114,0,114,0,,,,,,,,,,,,,,,,,,,,,,,,,,,,,,,,,,,,,,,,,,,,,,,,,,,,,1684.9778776001185,None,,,,,,,,,,,,,,,,,,,,,,,,,,,,,,,,,,,product,28,115,sing,white,1682.9761897996068,None,None,1682.9761897996068,None,,,,,,,,,,,,,,,,,,,,,,,,,,,,,,43,001,2023_Apr_19_0952,ExactRep-v3-final,2021.2.3,59.93971249909412,
,,,,,,,,115,0,115,0,,,,,,,,,,,,,,,,,,,,,,,,,,,,,,,,,,,,,,,,,,,,,,,,,,,,,1687.4805902000517,None,,,,,,,,,,,,,,,,,,,,,,,,,,,,,,,,,,,fun,23,116,sing,white,1685.4785617999732,None,None,1685.4785617999732,None,,,,,,,,,,,,,,,,,,,,,,,,,,,,,,43,001,2023_Apr_19_0952,ExactRep-v3-final,2021.2.3,59.93971249909412,
,,,,,,,,116,0,116,0,,,,,,,,,,,,,,,,,,,,,,,,,,,,,,,,,,,,,,,,,,,,,,,,,,,,,1689.983263200149,None,,,,,,,,,,,,,,,,,,,,,,,,,,,,,,,,,,,clock,26,117,sing,white,1687.9832717999816,None,None,1687.9832717999816,None,,,,,,,,,,,,,,,,,,,,,,,,,,,,,,43,001,2023_Apr_19_0952,ExactRep-v3-final,2021.2.3,59.93971249909412,
,,,,,,,,117,0,117,0,,,,,,,,,,,,,,,,,,,,,,,,,,,,,,,,,,,,,,,,,,,,,,,,,,,,,1692.485819700174,None,,,,,,,,,,,,,,,,,,,,,,,,,,,,,,,,,,,pole,114,118,aloud,red,1690.4854872999713,None,None,1690.4854872999713,None,,,,,,,,,,,,,,,,,,,,,,,,,,,,,,43,001,2023_Apr_19_0952,ExactRep-v3-final,2021.2.3,59.93971249909412,
,,,,,,,,118,0,118,0,,,,,,,,,,,,,,,,,,,,,,,,,,,,,,,,,,,,,,,,,,,,,,,,,,,,,1695.00474689994,None,,,,,,,,,,,,,,,,,,,,,,,,,,,,,,,,,,,water,70,119,silent,blue,1692.9929789993912,None,None,1692.9929789993912,None,,,,,,,,,,,,,,,,,,,,,,,,,,,,,,43,001,2023_Apr_19_0952,ExactRep-v3-final,2021.2.3,59.93971249909412,
,,,,,,,,119,0,119,0,,,,,,,,,,,,,,,,,,,,,,,,,,,,,,,,,,,,,,,,,,,,,,,,,,,,,1697.5072422996163,None,,,,,,,,,,,,,,,,,,,,,,,,,,,,,,,,,,,shadow,77,120,silent,blue,1695.5060652997345,None,None,1695.5060652997345,None,,,,,,,,,,,,,,,,,,,,,,,,,,,,,,43,001,2023_Apr_19_0952,ExactRep-v3-final,2021.2.3,59.93971249909412,
,,,,,,,,,,,,,,,,,,,,,,,,,,,,,,,,,,,,,,,,,,,,,,,,,,,,,,,,,,,,,,,,,,,,,,,,,,,,,,,,,,,,,,,,,,,,,,,,,,,,,,,,,,,,,,1698.0093131996691,None,space,13.203019700013101,1707.9858647994697,None,,,,,,,,,,,,,,,,,,,,,,,,43,001,2023_Apr_19_0952,ExactRep-v3-final,2021.2.3,59.93971249909412,
,,,,,,,,,,,,,,,,,,,,,,,,,,,,,,,,,,,,,,,,,,,,,,,,,,,,,,,,,,,,,,,,,,,,,,,,,,,,,,,,,,,,,,,,,,,,,,,,,,,,,,,,,,,,,,,,,,,,1721.216077500023,None,space,30.476722499355674,1731.1922549996525,None,,,,,,,,,,,,,,,,,,43,001,2023_Apr_19_0952,ExactRep-v3-final,2021.2.3,59.93971249909412,
,,,,,,,,,,,,0,0,0,0,,,,,,,,,,,,,,,,,,,,,,,,,,,,,,,,,,,,,,,,,,,,,,,,,1772.632608199492,None,,,,,,,,,,,,,,,,,,,,,,,,,,,,,,,,,,,,,,,,,,,,,,,,,,,,,,,,,flag,106,1,aloud,old,yellow,1762.1969758002087,None,n,1762.1969758002087,None,"['n', 'return']","[3.1357251992449164, 10.391618499532342]",1762.1969758002087,None,,,43,001,2023_Apr_19_0952,ExactRep-v3-final,2021.2.3,59.93971249909412,
,,,,,,,,,,,,1,0,1,0,,,,,,,,,,,,,,,,,,,,,,,,,,,,,,,,,,,,,,,,,,,,,,,,,1775.2014130000025,None,,,,,,,,,,,,,,,,,,,,,,,,,,,,,,,,,,,,,,,,,,,,,,,,,,,,,,,,,body,25,2,sing,old,yellow,1773.13284880016,None,y,1773.13284880016,None,"['y', 'return']","[1.359892500564456, 2.023736100643873]",1773.13284880016,None,,,43,001,2023_Apr_19_0952,ExactRep-v3-final,2021.2.3,59.93971249909412,
,,,,,,,,,,,,2,0,2,0,,,,,,,,,,,,,,,,,,,,,,,,,,,,,,,,,,,,,,,,,,,,,,,,,1777.854309500195,None,,,,,,,,,,,,,,,,,,,,,,,,,,,,,,,,,,,,,,,,,,,,,,,,,,,,,,,,,ticket,115,3,aloud,old,yellow,1775.7112403996289,None,y,1775.7112403996289,None,"['y', 'return']","[1.5892986003309488, 2.1012901002541184]",1775.7112403996289,None,,,43,001,2023_Apr_19_0952,ExactRep-v3-final,2021.2.3,59.93971249909412,
,,,,,,,,,,,,3,0,3,0,,,,,,,,,,,,,,,,,,,,,,,,,,,,,,,,,,,,,,,,,,,,,,,,,1782.3755164993927,None,,,,,,,,,,,,,,,,,,,,,,,,,,,,,,,,,,,,,,,,,,,,,,,,,,,,,,,,,shadow,77,4,silent,old,yellow,1778.3642298001796,None,n,1778.3642298001796,None,"['n', 'return']","[2.856601200066507, 3.968370300717652]",1778.3642298001796,None,,,43,001,2023_Apr_19_0952,ExactRep-v3-final,2021.2.3,59.93971249909412,
,,,,,,,,,,,,4,0,4,0,,,,,,,,,,,,,,,,,,,,,,,,,,,,,,,,,,,,,,,,,,,,,,,,,1787.2470648996532,None,,,,,,,,,,,,,,,,,,,,,,,,,,,,,,,,,,,,,,,,,,,,,,,,,,,,,,,,,flood,229,5,sing,new,yellow,1782.885475100018,None,n,1782.885475100018,None,"['n', 'return']","[4.015059399418533, 4.319091099314392]",1782.885475100018,None,,,43,001,2023_Apr_19_0952,ExactRep-v3-final,2021.2.3,59.93971249909412,
,,,,,,,,,,,,5,0,5,0,,,,,,,,,,,,,,,,,,,,,,,,,,,,,,,,,,,,,,,,,,,,,,,,,1789.8996225995943,None,,,,,,,,,,,,,,,,,,,,,,,,,,,,,,,,,,,,,,,,,,,,,,,,,,,,,,,,,kiss,165,6,sing,new,yellow,1787.756780100055,None,n,1787.756780100055,None,"['n', 'return']","[1.2401050003245473, 2.1040574004873633]",1787.756780100055,None,,,43,001,2023_Apr_19_0952,ExactRep-v3-final,2021.2.3,59.93971249909412,
,,,,,,,,,,,,6,0,6,0,,,,,,,,,,,,,,,,,,,,,,,,,,,,,,,,,,,,,,,,,,,,,,,,,1794.070361400023,None,,,,,,,,,,,,,,,,,,,,,,,,,,,,,,,,,,,,,,,,,,,,,,,,,,,,,,,,,cotton,216,7,aloud,new,yellow,1790.4103659996763,None,n,1790.4103659996763,None,"['n', 'return']","[1.2263706997036934, 3.626230999827385]",1790.4103659996763,None,,,43,001,2023_Apr_19_0952,ExactRep-v3-final,2021.2.3,59.93971249909412,
,,,,,,,,,,,,7,0,7,0,,,,,,,,,,,,,,,,,,,,,,,,,,,,,,,,,,,,,,,,,,,,,,,,,1796.1725463001058,None,,,,,,,,,,,,,,,,,,,,,,,,,,,,,,,,,,,,,,,,,,,,,,,,,,,,,,,,,book,17,8,sing,old,yellow,1794.5860027000308,None,n,1794.5860027000308,None,"['n', 'return']","[1.1787056997418404, 1.546513400040567]",1794.5860027000308,None,,,43,001,2023_Apr_19_0952,ExactRep-v3-final,2021.2.3,59.93971249909412,
,,,,,,,,,,,,8,0,8,0,,,,,,,,,,,,,,,,,,,,,,,,,,,,,,,,,,,,,,,,,,,,,,,,,1798.1578918993473,None,,,,,,,,,,,,,,,,,,,,,,,,,,,,,,,,,,,,,,,,,,,,,,,,,,,,,,,,,trouble,22,9,sing,old,yellow,1796.6828586999327,None,y,1796.6828586999327,None,"['y', 'return']","[1.089635900221765, 1.4417403005063534]",1796.6828586999327,None,,,43,001,2023_Apr_19_0952,ExactRep-v3-final,2021.2.3,59.93971249909412,
,,,,,,,,,,,,9,0,9,0,,,,,,,,,,,,,,,,,,,,,,,,,,,,,,,,,,,,,,,,,,,,,,,,,1800.7771752998233,None,,,,,,,,,,,,,,,,,,,,,,,,,,,,,,,,,,,,,,,,,,,,,,,,,,,,,,,,,ship,123,10,silent,new,yellow,1798.666965099983,None,y,1798.666965099983,None,"['y', 'return']","[1.657733199186623, 2.065594899468124]",1798.666965099983,None,,,43,001,2023_Apr_19_0952,ExactRep-v3-final,2021.2.3,59.93971249909412,
,,,,,,,,,,,,10,0,10,0,,,,,,,,,,,,,,,,,,,,,,,,,,,,,,,,,,,,,,,,,,,,,,,,,1802.912560899742,None,,,,,,,,,,,,,,,,,,,,,,,,,,,,,,,,,,,,,,,,,,,,,,,,,,,,,,,,,honour,206,11,aloud,new,yellow,1801.2840595999733,None,n,1801.2840595999733,None,"['n', 'return']","[1.120576400309801, 1.592502599582076]",1801.2840595999733,None,,,43,001,2023_Apr_19_0952,ExactRep-v3-final,2021.2.3,59.93971249909412,
,,,,,,,,,,,,11,0,11,0,,,,,,,,,,,,,,,,,,,,,,,,,,,,,,,,,,,,,,,,,,,,,,,,,1804.948163099587,None,,,,,,,,,,,,,,,,,,,,,,,,,,,,,,,,,,,,,,,,,,,,,,,,,,,,,,,,,charm,71,12,silent,old,yellow,1803.4164712997153,None,n,1803.4164712997153,None,"['n', 'return']","[1.012095999903977, 1.4923604996874928]",1803.4164712997153,None,,,43,001,2023_Apr_19_0952,ExactRep-v3-final,2021.2.3,59.93971249909412,
,,,,,,,,,,,,12,0,12,0,,,,,,,,,,,,,,,,,,,,,,,,,,,,,,,,,,,,,,,,,,,,,,,,,1807.0835215002298,None,,,,,,,,,,,,,,,,,,,,,,,,,,,,,,,,,,,,,,,,,,,,,,,,,,,,,,,,,city,92,13,aloud,old,yellow,1805.453687899746,None,y,1805.453687899746,None,"['y', 'return']","[1.1671056998893619, 1.5910524995997548]",1805.453687899746,None,,,43,001,2023_Apr_19_0952,ExactRep-v3-final,2021.2.3,59.93971249909412,
,,,,,,,,,,,,13,0,13,0,,,,,,,,,,,,,,,,,,,,,,,,,,,,,,,,,,,,,,,,,,,,,,,,,1809.2190996995196,None,,,,,,,,,,,,,,,,,,,,,,,,,,,,,,,,,,,,,,,,,,,,,,,,,,,,,,,,,river,62,14,silent,old,yellow,1807.5926998993382,None,n,1807.5926998993382,None,"['n', 'return']","[1.0599148999899626, 1.5799468997865915]",1807.5926998993382,None,,,43,001,2023_Apr_19_0952,ExactRep-v3-final,2021.2.3,59.93971249909412,
,,,,,,,,,,,,14,0,14,0,,,,,,,,,,,,,,,,,,,,,,,,,,,,,,,,,,,,,,,,,,,,,,,,,1811.204263499938,None,,,,,,,,,,,,,,,,,,,,,,,,,,,,,,,,,,,,,,,,,,,,,,,,,,,,,,,,,cash,194,15,aloud,new,yellow,1809.7321592001244,None,n,1809.7321592001244,None,"['n', 'return']","[0.9284542007371783, 1.440523600205779]",1809.7321592001244,None,,,43,001,2023_Apr_19_0952,ExactRep-v3-final,2021.2.3,59.93971249909412,
,,,,,,,,,,,,15,0,15,0,,,,,,,,,,,,,,,,,,,,,,,,,,,,,,,,,,,,,,,,,,,,,,,,,1813.1896377997473,None,,,,,,,,,,,,,,,,,,,,,,,,,,,,,,,,,,,,,,,,,,,,,,,,,,,,,,,,,village,18,16,sing,old,yellow,1811.7128435000777,None,y,1811.7128435000777,None,"['y', 'return']","[0.9237481001764536, 1.44376640021801]",1811.7128435000777,None,,,43,001,2023_Apr_19_0952,ExactRep-v3-final,2021.2.3,59.93971249909412,
,,,,,,,,,,,,16,0,16,0,,,,,,,,,,,,,,,,,,,,,,,,,,,,,,,,,,,,,,,,,,,,,,,,,1815.3084665993229,None,,,,,,,,,,,,,,,,,,,,,,,,,,,,,,,,,,,,,,,,,,,,,,,,,,,,,,,,,mind,68,17,silent,old,yellow,1813.6965555995703,None,y,1813.6965555995703,None,"['y', 'return']","[1.0920101003721356, 1.5640527000650764]",1813.6965555995703,None,,,43,001,2023_Apr_19_0952,ExactRep-v3-final,2021.2.3,59.93971249909412,
,,,,,,,,,,,,17,0,17,0,,,,,,,,,,,,,,,,,,,,,,,,,,,,,,,,,,,,,,,,,,,,,,,,,1817.2270130999386,None,,,,,,,,,,,,,,,,,,,,,,,,,,,,,,,,,,,,,,,,,,,,,,,,,,,,,,,,,grass,200,18,aloud,new,yellow,1815.82637459971,None,n,1815.82637459971,None,"['n', 'return']","[0.87429070007056, 1.3543203007429838]",1815.82637459971,None,,,43,001,2023_Apr_19_0952,ExactRep-v3-final,2021.2.3,59.93971249909412,
,,,,,,,,,,,,18,0,18,0,,,,,,,,,,,,,,,,,,,,,,,,,,,,,,,,,,,,,,,,,,,,,,,,,1819.1956182001159,None,,,,,,,,,,,,,,,,,,,,,,,,,,,,,,,,,,,,,,,,,,,,,,,,,,,,,,,,,picture,6,19,sing,old,yellow,1817.7364972997457,None,y,1817.7364972997457,None,"['y', 'return']","[0.9001181991770864, 1.4121845997869968]",1817.7364972997457,None,,,43,001,2023_Apr_19_0952,ExactRep-v3-final,2021.2.3,59.93971249909412,
,,,,,,,,,,,,19,0,19,0,,,,,,,,,,,,,,,,,,,,,,,,,,,,,,,,,,,,,,,,,,,,,,,,,1821.2311493000016,None,,,,,,,,,,,,,,,,,,,,,,,,,,,,,,,,,,,,,,,,,,,,,,,,,,,,,,,,,moment,239,20,sing,new,yellow,1819.7053010994568,None,n,1819.7053010994568,None,"['n', 'return']","[1.0116756996139884, 1.4912690995261073]",1819.7053010994568,None,,,43,001,2023_Apr_19_0952,ExactRep-v3-final,2021.2.3,59.93971249909412,
,,,,,,,,,,,,20,0,20,0,,,,,,,,,,,,,,,,,,,,,,,,,,,,,,,,,,,,,,,,,,,,,,,,,1823.233169999905,None,,,,,,,,,,,,,,,,,,,,,,,,,,,,,,,,,,,,,,,,,,,,,,,,,,,,,,,,,cost,135,21,silent,new,yellow,1821.7413208996877,None,y,1821.7413208996877,None,"['y', 'return']","[0.9915196001529694, 1.455409400165081]",1821.7413208996877,None,,,43,001,2023_Apr_19_0952,ExactRep-v3-final,2021.2.3,59.93971249909412,
,,,,,,,,,,,,21,0,21,0,,,,,,,,,,,,,,,,,,,,,,,,,,,,,,,,,,,,,,,,,,,,,,,,,1827.0200693998486,None,,,,,,,,,,,,,,,,,,,,,,,,,,,,,,,,,,,,,,,,,,,,,,,,,,,,,,,,,prison,202,22,aloud,new,yellow,1823.7470779996365,None,y,1823.7470779996365,None,"['y', 'return']","[2.817655200138688, 3.2255319003015757]",1823.7470779996365,None,,,43,001,2023_Apr_19_0952,ExactRep-v3-final,2021.2.3,59.93971249909412,
,,,,,,,,,,,,22,0,22,0,,,,,,,,,,,,,,,,,,,,,,,,,,,,,,,,,,,,,,,,,,,,,,,,,1828.8888620994985,None,,,,,,,,,,,,,,,,,,,,,,,,,,,,,,,,,,,,,,,,,,,,,,,,,,,,,,,,,bottle,36,23,sing,old,yellow,1827.5256075998768,None,y,1827.5256075998768,None,"['y', 'return']","[0.8391113998368382, 1.318979499861598]",1827.5256075998768,None,,,43,001,2023_Apr_19_0952,ExactRep-v3-final,2021.2.3,59.93971249909412,
,,,,,,,,,,,,23,0,23,0,,,,,,,,,,,,,,,,,,,,,,,,,,,,,,,,,,,,,,,,,,,,,,,,,1830.7071512993425,None,,,,,,,,,,,,,,,,,,,,,,,,,,,,,,,,,,,,,,,,,,,,,,,,,,,,,,,,,chair,109,24,aloud,old,yellow,1829.3979961993173,None,n,1829.3979961993173,None,"['n', 'return']","[0.846632500179112, 1.2625874998047948]",1829.3979961993173,None,,,43,001,2023_Apr_19_0952,ExactRep-v3-final,2021.2.3,59.93971249909412,
,,,,,,,,,,,,24,0,24,0,,,,,,,,,,,,,,,,,,,,,,,,,,,,,,,,,,,,,,,,,,,,,,,,,1832.55878129974,None,,,,,,,,,,,,,,,,,,,,,,,,,,,,,,,,,,,,,,,,,,,,,,,,,,,,,,,,,vessel,101,25,aloud,old,yellow,1831.2166836997494,None,y,1831.2166836997494,None,"['y', 'return']","[0.8199006002396345, 1.29996080044657]",1831.2166836997494,None,,,43,001,2023_Apr_19_0952,ExactRep-v3-final,2021.2.3,59.93971249909412,
,,,,,,,,,,,,25,0,25,0,,,,,,,,,,,,,,,,,,,,,,,,,,,,,,,,,,,,,,,,,,,,,,,,,1834.6276744995266,None,,,,,,,,,,,,,,,,,,,,,,,,,,,,,,,,,,,,,,,,,,,,,,,,,,,,,,,,,brain,8,26,sing,old,yellow,1833.0664841998369,None,y,1833.0664841998369,None,"['y', 'return']","[1.1060536000877619, 1.5141282007098198]",1833.0664841998369,None,,,43,001,2023_Apr_19_0952,ExactRep-v3-final,2021.2.3,59.93971249909412,
,,,,,,,,,,,,26,0,26,0,,,,,,,,,,,,,,,,,,,,,,,,,,,,,,,,,,,,,,,,,,,,,,,,,1836.6465019993484,None,,,,,,,,,,,,,,,,,,,,,,,,,,,,,,,,,,,,,,,,,,,,,,,,,,,,,,,,,car,213,27,sing,new,yellow,1835.1375679997727,None,n,1835.1375679997727,None,"['n', 'return']","[1.0190342999994755, 1.4670122005045414]",1835.1375679997727,None,,,43,001,2023_Apr_19_0952,ExactRep-v3-final,2021.2.3,59.93971249909412,
,,,,,,,,,,,,27,0,27,0,,,,,,,,,,,,,,,,,,,,,,,,,,,,,,,,,,,,,,,,,,,,,,,,,1838.5982708996162,None,,,,,,,,,,,,,,,,,,,,,,,,,,,,,,,,,,,,,,,,,,,,,,,,,,,,,,,,,breast,124,28,silent,new,yellow,1837.1559266000986,None,n,1837.1559266000986,None,"['n', 'return']","[0.9606395997107029, 1.4007664993405342]",1837.1559266000986,None,,,43,001,2023_Apr_19_0952,ExactRep-v3-final,2021.2.3,59.93971249909412,
,,,,,,,,,,,,28,0,28,0,,,,,,,,,,,,,,,,,,,,,,,,,,,,,,,,,,,,,,,,,,,,,,,,,1840.9339616000652,None,,,,,,,,,,,,,,,,,,,,,,,,,,,,,,,,,,,,,,,,,,,,,,,,,,,,,,,,,boulder,153,29,silent,new,yellow,1839.1065796995535,None,n,1839.1065796995535,None,"['n', 'return']","[1.3540097000077367, 1.794077000580728]",1839.1065796995535,None,,,43,001,2023_Apr_19_0952,ExactRep-v3-final,2021.2.3,59.93971249909412,
,,,,,,,,,,,,29,0,29,0,,,,,,,,,,,,,,,,,,,,,,,,,,,,,,,,,,,,,,,,,,,,,,,,,1844.3708205996081,None,,,,,,,,,,,,,,,,,,,,,,,,,,,,,,,,,,,,,,,,,,,,,,,,,,,,,,,,,bird,186,30,aloud,new,yellow,1841.44394609984,None,y,1841.44394609984,None,"['y', 'return']","[2.4886411000043154, 2.888746300712228]",1841.44394609984,None,,,43,001,2023_Apr_19_0952,ExactRep-v3-final,2021.2.3,59.93971249909412,
,,,,,,,,,,,,30,0,30,0,,,,,,,,,,,,,,,,,,,,,,,,,,,,,,,,,,,,,,,,,,,,,,,,,1846.23007879965,None,,,,,,,,,,,,,,,,,,,,,,,,,,,,,,,,,,,,,,,,,,,,,,,,,,,,,,,,,method,156,31,silent,new,yellow,1844.8791375998408,None,n,1844.8791375998408,None,"['n', 'return']","[0.8695766003802419, 1.3015042999759316]",1844.8791375998408,None,,,43,001,2023_Apr_19_0952,ExactRep-v3-final,2021.2.3,59.93971249909412,
,,,,,,,,,,,,31,0,31,0,,,,,,,,,,,,,,,,,,,,,,,,,,,,,,,,,,,,,,,,,,,,,,,,,1848.3914572000504,None,,,,,,,,,,,,,,,,,,,,,,,,,,,,,,,,,,,,,,,,,,,,,,,,,,,,,,,,,quality,9,32,sing,old,yellow,1846.7597717000172,None,y,1846.7597717000172,None,"['y', 'return']","[1.1088890992105007, 1.5888470998033881]",1846.7597717000172,None,,,43,001,2023_Apr_19_0952,ExactRep-v3-final,2021.2.3,59.93971249909412,
,,,,,,,,,,,,32,0,32,0,,,,,,,,,,,,,,,,,,,,,,,,,,,,,,,,,,,,,,,,,,,,,,,,,1850.261064699851,None,,,,,,,,,,,,,,,,,,,,,,,,,,,,,,,,,,,,,,,,,,,,,,,,,,,,,,,,,shock,217,33,sing,new,yellow,1848.8943483997136,None,n,1848.8943483997136,None,"['n', 'return']","[0.8863698998466134, 1.3263186998665333]",1848.8943483997136,None,,,43,001,2023_Apr_19_0952,ExactRep-v3-final,2021.2.3,59.93971249909412,
,,,,,,,,,,,,33,0,33,0,,,,,,,,,,,,,,,,,,,,,,,,,,,,,,,,,,,,,,,,,,,,,,,,,1852.1785800997168,None,,,,,,,,,,,,,,,,,,,,,,,,,,,,,,,,,,,,,,,,,,,,,,,,,,,,,,,,,avenue,235,34,sing,new,yellow,1850.7713489998132,None,n,1850.7713489998132,None,"['n', 'return']","[0.8732792995870113, 1.3613615995272994]",1850.7713489998132,None,,,43,001,2023_Apr_19_0952,ExactRep-v3-final,2021.2.3,59.93971249909412,
,,,,,,,,,,,,34,0,34,0,,,,,,,,,,,,,,,,,,,,,,,,,,,,,,,,,,,,,,,,,,,,,,,,,1853.9970720000565,None,,,,,,,,,,,,,,,,,,,,,,,,,,,,,,,,,,,,,,,,,,,,,,,,,,,,,,,,,troops,76,35,silent,old,yellow,1852.6885607996956,None,y,1852.6885607996956,None,"['y', 'return']","[0.8360913004726171, 1.2680887002497911]",1852.6885607996956,None,,,43,001,2023_Apr_19_0952,ExactRep-v3-final,2021.2.3,59.93971249909412,
,,,,,,,,,,,,35,0,35,0,,,,,,,,,,,,,,,,,,,,,,,,,,,,,,,,,,,,,,,,,,,,,,,,,1856.0157236997038,None,,,,,,,,,,,,,,,,,,,,,,,,,,,,,,,,,,,,,,,,,,,,,,,,,,,,,,,,,party,27,36,sing,old,yellow,1854.5077146999538,None,y,1854.5077146999538,None,"['y', 'return']","[0.9770606001839042, 1.472957099787891]",1854.5077146999538,None,,,43,001,2023_Apr_19_0952,ExactRep-v3-final,2021.2.3,59.93971249909412,
,,,,,,,,,,,,36,0,36,0,,,,,,,,,,,,,,,,,,,,,,,,,,,,,,,,,,,,,,,,,,,,,,,,,1857.9844447001815,None,,,,,,,,,,,,,,,,,,,,,,,,,,,,,,,,,,,,,,,,,,,,,,,,,,,,,,,,,spirit,15,37,sing,old,yellow,1856.5259398994967,None,y,1856.5259398994967,None,"['y', 'return']","[0.9667360000312328, 1.4146376997232437]",1856.5259398994967,None,,,43,001,2023_Apr_19_0952,ExactRep-v3-final,2021.2.3,59.93971249909412,
,,,,,,,,,,,,37,0,37,0,,,,,,,,,,,,,,,,,,,,,,,,,,,,,,,,,,,,,,,,,,,,,,,,,1859.903989999555,None,,,,,,,,,,,,,,,,,,,,,,,,,,,,,,,,,,,,,,,,,,,,,,,,,,,,,,,,,heaven,127,38,silent,new,yellow,1858.4960129000247,None,n,1858.4960129000247,None,"['n', 'return']","[0.9166088998317719, 1.3647182993590832]",1858.4960129000247,None,,,43,001,2023_Apr_19_0952,ExactRep-v3-final,2021.2.3,59.93971249909412,
,,,,,,,,,,,,38,0,38,0,,,,,,,,,,,,,,,,,,,,,,,,,,,,,,,,,,,,,,,,,,,,,,,,,1862.1719864998013,None,,,,,,,,,,,,,,,,,,,,,,,,,,,,,,,,,,,,,,,,,,,,,,,,,,,,,,,,,horse,147,39,silent,new,yellow,1860.4179115993902,None,n,1860.4179115993902,None,"['n', 'return']","[1.39468780066818, 1.7146343002095819]",1860.4179115993902,None,,,43,001,2023_Apr_19_0952,ExactRep-v3-final,2021.2.3,59.93971249909412,
,,,,,,,,,,,,39,0,39,0,,,,,,,,,,,,,,,,,,,,,,,,,,,,,,,,,,,,,,,,,,,,,,,,,1863.8902797000483,None,,,,,,,,,,,,,,,,,,,,,,,,,,,,,,,,,,,,,,,,,,,,,,,,,,,,,,,,,theory,102,40,aloud,old,yellow,1862.6844007000327,None,y,1862.6844007000327,None,"['y', 'return']","[0.7122063999995589, 1.1602990999817848]",1862.6844007000327,None,,,43,001,2023_Apr_19_0952,ExactRep-v3-final,2021.2.3,59.93971249909412,
,,,,,,,,,,,,40,0,40,0,,,,,,,,,,,,,,,,,,,,,,,,,,,,,,,,,,,,,,,,,,,,,,,,,1865.742150399834,None,,,,,,,,,,,,,,,,,,,,,,,,,,,,,,,,,,,,,,,,,,,,,,,,,,,,,,,,,king,39,41,silent,old,yellow,1864.3909892998636,None,y,1864.3909892998636,None,"['y', 'return']","[0.965833299793303, 1.3096530996263027]",1864.3909892998636,None,,,43,001,2023_Apr_19_0952,ExactRep-v3-final,2021.2.3,59.93971249909412,
,,,,,,,,,,,,41,0,41,0,,,,,,,,,,,,,,,,,,,,,,,,,,,,,,,,,,,,,,,,,,,,,,,,,1867.6774202995002,None,,,,,,,,,,,,,,,,,,,,,,,,,,,,,,,,,,,,,,,,,,,,,,,,,,,,,,,,,fortune,104,42,aloud,old,yellow,1866.25276619941,None,y,1866.25276619941,None,"['y', 'return']","[0.9999325005337596, 1.3918746002018452]",1866.25276619941,None,,,43,001,2023_Apr_19_0952,ExactRep-v3-final,2021.2.3,59.93971249909412,
,,,,,,,,,,,,42,0,42,0,,,,,,,,,,,,,,,,,,,,,,,,,,,,,,,,,,,,,,,,,,,,,,,,,1871.94841740001,None,,,,,,,,,,,,,,,,,,,,,,,,,,,,,,,,,,,,,,,,,,,,,,,,,,,,,,,,,queen,112,43,aloud,old,yellow,1868.1884580999613,None,n,1868.1884580999613,None,"['y', 'backspace', 'n', 'return']","[1.088328200392425, 2.624166000634432, 3.3922137999907136, 3.712220700457692]",1868.1884580999613,None,,,43,001,2023_Apr_19_0952,ExactRep-v3-final,2021.2.3,59.93971249909412,
,,,,,,,,,,,,43,0,43,0,,,,,,,,,,,,,,,,,,,,,,,,,,,,,,,,,,,,,,,,,,,,,,,,,1873.8503160998225,None,,,,,,,,,,,,,,,,,,,,,,,,,,,,,,,,,,,,,,,,,,,,,,,,,,,,,,,,,grief,38,44,sing,old,yellow,1872.465266900137,None,y,1872.465266900137,None,"['y', 'return']","[1.0114159993827343, 1.3473649993538857]",1872.465266900137,None,,,43,001,2023_Apr_19_0952,ExactRep-v3-final,2021.2.3,59.93971249909412,
,,,,,,,,,,,,44,0,44,0,,,,,,,,,,,,,,,,,,,,,,,,,,,,,,,,,,,,,,,,,,,,,,,,,1875.6687610996887,None,,,,,,,,,,,,,,,,,,,,,,,,,,,,,,,,,,,,,,,,,,,,,,,,,,,,,,,,,virtue,162,45,aloud,new,yellow,1874.3544667996466,None,n,1874.3544667996466,None,"['n', 'return']","[0.9621129995211959, 1.2742753997445107]",1874.3544667996466,None,,,43,001,2023_Apr_19_0952,ExactRep-v3-final,2021.2.3,59.93971249909412,
,,,,,,,,,,,,45,0,45,0,,,,,,,,,,,,,,,,,,,,,,,,,,,,,,,,,,,,,,,,,,,,,,,,,1877.6386452997103,None,,,,,,,,,,,,,,,,,,,,,,,,,,,,,,,,,,,,,,,,,,,,,,,,,,,,,,,,,seat,87,46,aloud,old,yellow,1876.1778179993853,None,n,1876.1778179993853,None,"['n', 'return']","[1.1228454997763038, 1.418927799910307]",1876.1778179993853,None,,,43,001,2023_Apr_19_0952,ExactRep-v3-final,2021.2.3,59.93971249909412,
,,,,,,,,,,,,46,0,46,0,,,,,,,,,,,,,,,,,,,,,,,,,,,,,,,,,,,,,,,,,,,,,,,,,1879.572630699724,None,,,,,,,,,,,,,,,,,,,,,,,,,,,,,,,,,,,,,,,,,,,,,,,,,,,,,,,,,blossom,66,47,silent,old,yellow,1878.147047999315,None,y,1878.147047999315,None,"['y', 'return']","[1.0496094999834895, 1.3857069006189704]",1878.147047999315,None,,,43,001,2023_Apr_19_0952,ExactRep-v3-final,2021.2.3,59.93971249909412,
,,,,,,,,,,,,47,0,47,0,,,,,,,,,,,,,,,,,,,,,,,,,,,,,,,,,,,,,,,,,,,,,,,,,1882.1252052001655,None,,,,,,,,,,,,,,,,,,,,,,,,,,,,,,,,,,,,,,,,,,,,,,,,,,,,,,,,,officer,105,48,aloud,old,yellow,1880.0825837999582,None,y,1880.0825837999582,None,"['y', 'return']","[1.6501772999763489, 2.0020869001746178]",1880.0825837999582,None,,,43,001,2023_Apr_19_0952,ExactRep-v3-final,2021.2.3,59.93971249909412,
,,,,,,,,,,,,48,0,48,0,,,,,,,,,,,,,,,,,,,,,,,,,,,,,,,,,,,,,,,,,,,,,,,,,1883.860414199531,None,,,,,,,,,,,,,,,,,,,,,,,,,,,,,,,,,,,,,,,,,,,,,,,,,,,,,,,,,woods,166,49,aloud,new,yellow,1882.633988299407,None,n,1882.633988299407,None,"['n', 'return']","[0.8586646998301148, 1.1867105001583695]",1882.633988299407,None,,,43,001,2023_Apr_19_0952,ExactRep-v3-final,2021.2.3,59.93971249909412,
,,,,,,,,,,,,49,0,49,0,,,,,,,,,,,,,,,,,,,,,,,,,,,,,,,,,,,,,,,,,,,,,,,,,1885.6454467996955,None,,,,,,,,,,,,,,,,,,,,,,,,,,,,,,,,,,,,,,,,,,,,,,,,,,,,,,,,,volume,225,50,sing,new,yellow,1884.3767858995125,None,n,1884.3767858995125,None,"['n', 'return']","[0.8758458998054266, 1.2279492998495698]",1884.3767858995125,None,,,43,001,2023_Apr_19_0952,ExactRep-v3-final,2021.2.3,59.93971249909412,
,,,,,,,,,,,,50,0,50,0,,,,,,,,,,,,,,,,,,,,,,,,,,,,,,,,,,,,,,,,,,,,,,,,,1887.3305762000382,None,,,,,,,,,,,,,,,,,,,,,,,,,,,,,,,,,,,,,,,,,,,,,,,,,,,,,,,,,safety,188,51,aloud,new,yellow,1886.1568793999031,None,n,1886.1568793999031,None,"['n', 'return']","[0.8479380998760462, 1.1278989994898438]",1886.1568793999031,None,,,43,001,2023_Apr_19_0952,ExactRep-v3-final,2021.2.3,59.93971249909412,
,,,,,,,,,,,,51,0,51,0,,,,,,,,,,,,,,,,,,,,,,,,,,,,,,,,,,,,,,,,,,,,,,,,,1889.1490195998922,None,,,,,,,,,,,,,,,,,,,,,,,,,,,,,,,,,,,,,,,,,,,,,,,,,,,,,,,,,butter,111,52,aloud,old,yellow,1887.8343127993867,None,y,1887.8343127993867,None,"['y', 'return']","[0.9303745999932289, 1.2824092004448175]",1887.8343127993867,None,,,43,001,2023_Apr_19_0952,ExactRep-v3-final,2021.2.3,59.93971249909412,
,,,,,,,,,,,,52,0,52,0,,,,,,,,,,,,,,,,,,,,,,,,,,,,,,,,,,,,,,,,,,,,,,,,,1890.9172978000715,None,,,,,,,,,,,,,,,,,,,,,,,,,,,,,,,,,,,,,,,,,,,,,,,,,,,,,,,,,bar,155,53,silent,new,yellow,1889.65899229981,None,n,1889.65899229981,None,"['n', 'return']","[0.8576284004375339, 1.2177761001512408]",1889.65899229981,None,,,43,001,2023_Apr_19_0952,ExactRep-v3-final,2021.2.3,59.93971249909412,
,,,,,,,,,,,,53,0,53,0,,,,,,,,,,,,,,,,,,,,,,,,,,,,,,,,,,,,,,,,,,,,,,,,,1892.85258120019,None,,,,,,,,,,,,,,,,,,,,,,,,,,,,,,,,,,,,,,,,,,,,,,,,,,,,,,,,,hotel,12,54,sing,old,yellow,1891.4272469999269,None,y,1891.4272469999269,None,"['y', 'return']","[1.033550700172782, 1.385525300167501]",1891.4272469999269,None,,,43,001,2023_Apr_19_0952,ExactRep-v3-final,2021.2.3,59.93971249909412,
,,,,,,,,,,,,54,0,54,0,,,,,,,,,,,,,,,,,,,,,,,,,,,,,,,,,,,,,,,,,,,,,,,,,1895.2550579002127,None,,,,,,,,,,,,,,,,,,,,,,,,,,,,,,,,,,,,,,,,,,,,,,,,,,,,,,,,,advice,149,55,silent,new,yellow,1893.365259599872,None,n,1893.365259599872,None,"['n', 'return']","[1.463515399955213, 1.8475607996806502]",1893.365259599872,None,,,43,001,2023_Apr_19_0952,ExactRep-v3-final,2021.2.3,59.93971249909412,
,,,,,,,,,,,,55,0,55,0,,,,,,,,,,,,,,,,,,,,,,,,,,,,,,,,,,,,,,,,,,,,,,,,,1897.090317199938,None,,,,,,,,,,,,,,,,,,,,,,,,,,,,,,,,,,,,,,,,,,,,,,,,,,,,,,,,,temple,134,56,silent,new,yellow,1895.7642292995006,None,n,1895.7642292995006,None,"['n', 'return']","[0.8643202995881438, 1.2884530993178487]",1895.7642292995006,None,,,43,001,2023_Apr_19_0952,ExactRep-v3-final,2021.2.3,59.93971249909412,
,,,,,,,,,,,,56,0,56,0,,,,,,,,,,,,,,,,,,,,,,,,,,,,,,,,,,,,,,,,,,,,,,,,,1899.1923343995586,None,,,,,,,,,,,,,,,,,,,,,,,,,,,,,,,,,,,,,,,,,,,,,,,,,,,,,,,,,church,108,57,aloud,old,yellow,1897.600346699357,None,y,1897.600346699357,None,"['y', 'return']","[1.188332200050354, 1.5565514992922544]",1897.600346699357,None,,,43,001,2023_Apr_19_0952,ExactRep-v3-final,2021.2.3,59.93971249909412,
,,,,,,,,,,,,57,0,57,0,,,,,,,,,,,,,,,,,,,,,,,,,,,,,,,,,,,,,,,,,,,,,,,,,1901.4612515997142,None,,,,,,,,,,,,,,,,,,,,,,,,,,,,,,,,,,,,,,,,,,,,,,,,,,,,,,,,,world,140,58,silent,new,yellow,1899.6929896995425,None,n,1899.6929896995425,None,"['n', 'return']","[0.7037997003644705, 1.7278454005718231]",1899.6929896995425,None,,,43,001,2023_Apr_19_0952,ExactRep-v3-final,2021.2.3,59.93971249909412,
,,,,,,,,,,,,58,0,58,0,,,,,,,,,,,,,,,,,,,,,,,,,,,,,,,,,,,,,,,,,,,,,,,,,1904.1806180998683,None,,,,,,,,,,,,,,,,,,,,,,,,,,,,,,,,,,,,,,,,,,,,,,,,,,,,,,,,,letter,236,59,aloud,new,yellow,1901.9617868997157,None,n,1901.9617868997157,None,"['return', 'return', 'n', 'return']","[0.5389097994193435, 0.578927899710834, 0.9308739993721247, 2.186823799274862]",1901.9617868997157,None,,,43,001,2023_Apr_19_0952,ExactRep-v3-final,2021.2.3,59.93971249909412,
,,,,,,,,,,,,59,0,59,0,,,,,,,,,,,,,,,,,,,,,,,,,,,,,,,,,,,,,,,,,,,,,,,,,1907.0501164002344,None,,,,,,,,,,,,,,,,,,,,,,,,,,,,,,,,,,,,,,,,,,,,,,,,,,,,,,,,,woman,211,60,sing,new,yellow,1904.6899432996288,None,n,1904.6899432996288,None,"['n', 'return']","[1.8028981005772948, 2.3227681005373597]",1904.6899432996288,None,,,43,001,2023_Apr_19_0952,ExactRep-v3-final,2021.2.3,59.93971249909412,
,,,,,,,,,,,,60,0,60,0,,,,,,,,,,,,,,,,,,,,,,,,,,,,,,,,,,,,,,,,,,,,,,,,,1908.7685807999223,None,,,,,,,,,,,,,,,,,,,,,,,,,,,,,,,,,,,,,,,,,,,,,,,,,,,,,,,,,lord,20,61,sing,old,yellow,1907.5614513000473,None,y,1907.5614513000473,None,"['y', 'return']","[0.8352632997557521, 1.1713383002206683]",1907.5614513000473,None,,,43,001,2023_Apr_19_0952,ExactRep-v3-final,2021.2.3,59.93971249909412,
,,,,,,,,,,,,61,0,61,0,,,,,,,,,,,,,,,,,,,,,,,,,,,,,,,,,,,,,,,,,,,,,,,,,1912.1218360001221,None,,,,,,,,,,,,,,,,,,,,,,,,,,,,,,,,,,,,,,,,,,,,,,,,,,,,,,,,,series,128,62,silent,new,yellow,1909.26917460002,None,n,1909.26917460002,None,"['n', 'return']","[0.6875042002648115, 2.8155518006533384]",1909.26917460002,None,,,43,001,2023_Apr_19_0952,ExactRep-v3-final,2021.2.3,59.93971249909412,
,,,,,,,,,,,,62,0,62,0,,,,,,,,,,,,,,,,,,,,,,,,,,,,,,,,,,,,,,,,,,,,,,,,,1914.557810199447,None,,,,,,,,,,,,,,,,,,,,,,,,,,,,,,,,,,,,,,,,,,,,,,,,,,,,,,,,,hall,150,63,silent,new,yellow,1912.6225175997242,None,n,1912.6225175997242,None,"['n', 'return']","[0.8144813003018498, 1.9022826002910733]",1912.6225175997242,None,,,43,001,2023_Apr_19_0952,ExactRep-v3-final,2021.2.3,59.93971249909412,
,,,,,,,,,,,,63,0,63,0,,,,,,,,,,,,,,,,,,,,,,,,,,,,,,,,,,,,,,,,,,,,,,,,,1916.959862999618,None,,,,,,,,,,,,,,,,,,,,,,,,,,,,,,,,,,,,,,,,,,,,,,,,,,,,,,,,,prayer,203,64,sing,new,yellow,1915.065666699782,None,n,1915.065666699782,None,"['n', 'return']","[1.0989523995667696, 1.8511373000219464]",1915.065666699782,None,,,43,001,2023_Apr_19_0952,ExactRep-v3-final,2021.2.3,59.93971249909412,
,,,,,,,,,,,,64,0,64,0,,,,,,,,,,,,,,,,,,,,,,,,,,,,,,,,,,,,,,,,,,,,,,,,,1919.0121905999258,None,,,,,,,,,,,,,,,,,,,,,,,,,,,,,,,,,,,,,,,,,,,,,,,,,,,,,,,,,square,42,65,silent,old,yellow,1917.4703674996272,None,y,1917.4703674996272,None,"['y', 'return']","[0.7902894001454115, 1.4944064998999238]",1917.4703674996272,None,,,43,001,2023_Apr_19_0952,ExactRep-v3-final,2021.2.3,59.93971249909412,
,,,,,,,,,,,,65,0,65,0,,,,,,,,,,,,,,,,,,,,,,,,,,,,,,,,,,,,,,,,,,,,,,,,,1921.2142691994086,None,,,,,,,,,,,,,,,,,,,,,,,,,,,,,,,,,,,,,,,,,,,,,,,,,,,,,,,,,gift,55,66,silent,old,yellow,1919.5225761998445,None,y,1919.5225761998445,None,"['y', 'return']","[1.0581008000299335, 1.6581044001504779]",1919.5225761998445,None,,,43,001,2023_Apr_19_0952,ExactRep-v3-final,2021.2.3,59.93971249909412,
,,,,,,,,,,,,66,0,66,0,,,,,,,,,,,,,,,,,,,,,,,,,,,,,,,,,,,,,,,,,,,,,,,,,1923.9180824998766,None,,,,,,,,,,,,,,,,,,,,,,,,,,,,,,,,,,,,,,,,,,,,,,,,,,,,,,,,,anger,43,67,silent,old,yellow,1921.7277330998331,None,y,1921.7277330998331,None,"['y', 'return']","[1.3729485999792814, 2.1570218997076154]",1921.7277330998331,None,,,43,001,2023_Apr_19_0952,ExactRep-v3-final,2021.2.3,59.93971249909412,
,,,,,,,,,,,,67,0,67,0,,,,,,,,,,,,,,,,,,,,,,,,,,,,,,,,,,,,,,,,,,,,,,,,,1925.9190027993172,None,,,,,,,,,,,,,,,,,,,,,,,,,,,,,,,,,,,,,,,,,,,,,,,,,,,,,,,,,fire,160,68,aloud,new,yellow,1924.4316374994814,None,n,1924.4316374994814,None,"['n', 'return']","[0.8612758005037904, 1.4451320003718138]",1924.4316374994814,None,,,43,001,2023_Apr_19_0952,ExactRep-v3-final,2021.2.3,59.93971249909412,
,,,,,,,,,,,,68,0,68,0,,,,,,,,,,,,,,,,,,,,,,,,,,,,,,,,,,,,,,,,,,,,,,,,,1928.2212579995394,None,,,,,,,,,,,,,,,,,,,,,,,,,,,,,,,,,,,,,,,,,,,,,,,,,,,,,,,,,girl,85,69,aloud,old,yellow,1926.4209768995643,None,y,1926.4209768995643,None,"['y', 'return']","[1.1437588995322585, 1.7597848996520042]",1926.4209768995643,None,,,43,001,2023_Apr_19_0952,ExactRep-v3-final,2021.2.3,59.93971249909412,
,,,,,,,,,,,,69,0,69,0,,,,,,,,,,,,,,,,,,,,,,,,,,,,,,,,,,,,,,,,,,,,,,,,,1931.2408497994766,None,,,,,,,,,,,,,,,,,,,,,,,,,,,,,,,,,,,,,,,,,,,,,,,,,,,,,,,,,coin,86,70,aloud,old,yellow,1928.7216910999268,None,y,1928.7216910999268,None,"['y', 'return']","[0.8190106004476547, 2.483198500238359]",1928.7216910999268,None,,,43,001,2023_Apr_19_0952,ExactRep-v3-final,2021.2.3,59.93971249909412,
,,,,,,,,,,,,70,0,70,0,,,,,,,,,,,,,,,,,,,,,,,,,,,,,,,,,,,,,,,,,,,,,,,,,1933.476528099738,None,,,,,,,,,,,,,,,,,,,,,,,,,,,,,,,,,,,,,,,,,,,,,,,,,,,,,,,,,plant,97,71,aloud,old,yellow,1931.7496568998322,None,y,1931.7496568998322,None,"['return', 'y', 'return']","[0.8311506006866693, 1.2790398001670837, 1.6790268002077937]",1931.7496568998322,None,,,43,001,2023_Apr_19_0952,ExactRep-v3-final,2021.2.3,59.93971249909412,
,,,,,,,,,,,,71,0,71,0,,,,,,,,,,,,,,,,,,,,,,,,,,,,,,,,,,,,,,,,,,,,,,,,,1935.3448948999867,None,,,,,,,,,,,,,,,,,,,,,,,,,,,,,,,,,,,,,,,,,,,,,,,,,,,,,,,,,death,16,72,sing,old,yellow,1934.00461059995,None,y,1934.00461059995,None,"['y', 'return']","[0.8322843005880713, 1.304049700498581]",1934.00461059995,None,,,43,001,2023_Apr_19_0952,ExactRep-v3-final,2021.2.3,59.93971249909412,
,,,,,,,,,,,,72,0,72,0,,,,,,,,,,,,,,,,,,,,,,,,,,,,,,,,,,,,,,,,,,,,,,,,,1937.7808232996613,None,,,,,,,,,,,,,,,,,,,,,,,,,,,,,,,,,,,,,,,,,,,,,,,,,,,,,,,,,wife,10,73,sing,old,yellow,1935.8538796994835,None,y,1935.8538796994835,None,"['y', 'return']","[1.3508260995149612, 1.8789643002673984]",1935.8538796994835,None,,,43,001,2023_Apr_19_0952,ExactRep-v3-final,2021.2.3,59.93971249909412,
,,,,,,,,,,,,73,0,73,0,,,,,,,,,,,,,,,,,,,,,,,,,,,,,,,,,,,,,,,,,,,,,,,,,1939.9163049999624,None,,,,,,,,,,,,,,,,,,,,,,,,,,,,,,,,,,,,,,,,,,,,,,,,,,,,,,,,,judge,75,74,silent,old,yellow,1938.2963578999043,None,n,1938.2963578999043,None,"['n', 'return']","[1.004386099986732, 1.5724576003849506]",1938.2963578999043,None,,,43,001,2023_Apr_19_0952,ExactRep-v3-final,2021.2.3,59.93971249909412,
,,,,,,,,,,,,74,0,74,0,,,,,,,,,,,,,,,,,,,,,,,,,,,,,,,,,,,,,,,,,,,,,,,,,1941.8847765997052,None,,,,,,,,,,,,,,,,,,,,,,,,,,,,,,,,,,,,,,,,,,,,,,,,,,,,,,,,,animal,121,75,silent,new,yellow,1940.425933899358,None,n,1940.425933899358,None,"['n', 'return']","[0.9309745002537966, 1.4268942000344396]",1940.425933899358,None,,,43,001,2023_Apr_19_0952,ExactRep-v3-final,2021.2.3,59.93971249909412,
,,,,,,,,,,,,75,0,75,0,,,,,,,,,,,,,,,,,,,,,,,,,,,,,,,,,,,,,,,,,,,,,,,,,1943.8536287993193,None,,,,,,,,,,,,,,,,,,,,,,,,,,,,,,,,,,,,,,,,,,,,,,,,,,,,,,,,,thought,179,76,sing,new,yellow,1942.3930367995054,None,n,1942.3930367995054,None,"['n', 'return']","[0.8995684999972582, 1.4197070999071002]",1942.3930367995054,None,,,43,001,2023_Apr_19_0952,ExactRep-v3-final,2021.2.3,59.93971249909412,
,,,,,,,,,,,,76,0,76,0,,,,,,,,,,,,,,,,,,,,,,,,,,,,,,,,,,,,,,,,,,,,,,,,,1946.105750899762,None,,,,,,,,,,,,,,,,,,,,,,,,,,,,,,,,,,,,,,,,,,,,,,,,,,,,,,,,,salary,142,77,silent,new,yellow,1944.3636069996282,None,y,1944.3636069996282,None,"['y', 'return']","[1.2251580003648996, 1.70509560033679]",1944.3636069996282,None,,,43,001,2023_Apr_19_0952,ExactRep-v3-final,2021.2.3,59.93971249909412,
,,,,,,,,,,,,77,0,77,0,,,,,,,,,,,,,,,,,,,,,,,,,,,,,,,,,,,,,,,,,,,,,,,,,1948.6081654001027,None,,,,,,,,,,,,,,,,,,,,,,,,,,,,,,,,,,,,,,,,,,,,,,,,,,,,,,,,,palace,184,78,aloud,new,yellow,1946.6152678998187,None,n,1946.6152678998187,None,"['n', 'return']","[1.3576191002503037, 1.9494596002623439]",1946.6152678998187,None,,,43,001,2023_Apr_19_0952,ExactRep-v3-final,2021.2.3,59.93971249909412,
,,,,,,,,,,,,78,0,78,0,,,,,,,,,,,,,,,,,,,,,,,,,,,,,,,,,,,,,,,,,,,,,,,,,1952.061782299541,None,,,,,,,,,,,,,,,,,,,,,,,,,,,,,,,,,,,,,,,,,,,,,,,,,,,,,,,,,glory,227,79,sing,new,yellow,1949.1122260997072,None,n,1949.1122260997072,None,"['n', 'return']","[2.3245222996920347, 2.916562399826944]",1949.1122260997072,None,,,43,001,2023_Apr_19_0952,ExactRep-v3-final,2021.2.3,59.93971249909412,
,,,,,,,,,,,,79,0,79,0,,,,,,,,,,,,,,,,,,,,,,,,,,,,,,,,,,,,,,,,,,,,,,,,,1953.730148899369,None,,,,,,,,,,,,,,,,,,,,,,,,,,,,,,,,,,,,,,,,,,,,,,,,,,,,,,,,,lad,100,80,aloud,old,yellow,1952.5737723996863,None,y,1952.5737723996863,None,"['y', 'return']","[0.6790070999413729, 1.1109869005158544]",1952.5737723996863,None,,,43,001,2023_Apr_19_0952,ExactRep-v3-final,2021.2.3,59.93971249909412,
,,,,,,,,,,,,80,0,80,0,,,,,,,,,,,,,,,,,,,,,,,,,,,,,,,,,,,,,,,,,,,,,,,,,1955.6987028000876,None,,,,,,,,,,,,,,,,,,,,,,,,,,,,,,,,,,,,,,,,,,,,,,,,,,,,,,,,,power,143,81,silent,new,yellow,1954.236437799409,None,n,1954.236437799409,None,"['n', 'return']","[0.8881593998521566, 1.41633060015738]",1954.236437799409,None,,,43,001,2023_Apr_19_0952,ExactRep-v3-final,2021.2.3,59.93971249909412,
,,,,,,,,,,,,81,0,81,0,,,,,,,,,,,,,,,,,,,,,,,,,,,,,,,,,,,,,,,,,,,,,,,,,1957.750873199664,None,,,,,,,,,,,,,,,,,,,,,,,,,,,,,,,,,,,,,,,,,,,,,,,,,,,,,,,,,origin,199,82,sing,new,yellow,1956.2074785996228,None,y,1956.2074785996228,None,"['y', 'return']","[1.0452329004183412, 1.5012629004195333]",1956.2074785996228,None,,,43,001,2023_Apr_19_0952,ExactRep-v3-final,2021.2.3,59.93971249909412,
,,,,,,,,,,,,82,0,82,0,,,,,,,,,,,,,,,,,,,,,,,,,,,,,,,,,,,,,,,,,,,,,,,,,1959.4859205000103,None,,,,,,,,,,,,,,,,,,,,,,,,,,,,,,,,,,,,,,,,,,,,,,,,,,,,,,,,,plain,181,83,sing,new,yellow,1958.2617202000692,None,n,1958.2617202000692,None,"['n', 'return']","[0.6710045002400875, 1.1829971997067332]",1958.2617202000692,None,,,43,001,2023_Apr_19_0952,ExactRep-v3-final,2021.2.3,59.93971249909412,
,,,,,,,,,,,,83,0,83,0,,,,,,,,,,,,,,,,,,,,,,,,,,,,,,,,,,,,,,,,,,,,,,,,,1961.1708875000477,None,,,,,,,,,,,,,,,,,,,,,,,,,,,,,,,,,,,,,,,,,,,,,,,,,,,,,,,,,teacher,131,84,silent,new,yellow,1959.996114199981,None,y,1959.996114199981,None,"['y', 'return']","[0.6646549003198743, 1.1367313005030155]",1959.996114199981,None,,,43,001,2023_Apr_19_0952,ExactRep-v3-final,2021.2.3,59.93971249909412,
,,,,,,,,,,,,84,0,84,0,,,,,,,,,,,,,,,,,,,,,,,,,,,,,,,,,,,,,,,,,,,,,,,,,1964.1906246999279,None,,,,,,,,,,,,,,,,,,,,,,,,,,,,,,,,,,,,,,,,,,,,,,,,,,,,,,,,,crime,130,85,silent,new,yellow,1961.6809117998928,None,y,1961.6809117998928,None,"['n', 'backspace', 'y', 'return']","[0.6359866997227073, 1.7158084996044636, 2.164211600087583, 2.467821200378239]",1961.6809117998928,None,,,43,001,2023_Apr_19_0952,ExactRep-v3-final,2021.2.3,59.93971249909412,
,,,,,,,,,,,,85,0,85,0,,,,,,,,,,,,,,,,,,,,,,,,,,,,,,,,,,,,,,,,,,,,,,,,,1966.7098615998402,None,,,,,,,,,,,,,,,,,,,,,,,,,,,,,,,,,,,,,,,,,,,,,,,,,,,,,,,,,clock,26,86,sing,old,yellow,1964.6990240998566,None,y,1964.6990240998566,None,"['n', 'backspace', 'y', 'return']","[0.6818695003166795, 1.3378862999379635, 1.5778052005916834, 1.969828000292182]",1964.6990240998566,None,,,43,001,2023_Apr_19_0952,ExactRep-v3-final,2021.2.3,59.93971249909412,
,,,,,,,,,,,,86,0,86,0,,,,,,,,,,,,,,,,,,,,,,,,,,,,,,,,,,,,,,,,,,,,,,,,,1968.4779668999836,None,,,,,,,,,,,,,,,,,,,,,,,,,,,,,,,,,,,,,,,,,,,,,,,,,,,,,,,,,machine,196,87,aloud,new,yellow,1967.2215505000204,None,n,1967.2215505000204,None,"['n', 'return']","[0.6711957007646561, 1.2232046006247401]",1967.2215505000204,None,,,43,001,2023_Apr_19_0952,ExactRep-v3-final,2021.2.3,59.93971249909412,
,,,,,,,,,,,,87,0,87,0,,,,,,,,,,,,,,,,,,,,,,,,,,,,,,,,,,,,,,,,,,,,,,,,,1970.3634340995923,None,,,,,,,,,,,,,,,,,,,,,,,,,,,,,,,,,,,,,,,,,,,,,,,,,,,,,,,,,dream,172,88,aloud,new,yellow,1968.987120400183,None,n,1968.987120400183,None,"['n', 'return']","[0.8415735000744462, 1.3296003006398678]",1968.987120400183,None,,,43,001,2023_Apr_19_0952,ExactRep-v3-final,2021.2.3,59.93971249909412,
,,,,,,,,,,,,88,0,88,0,,,,,,,,,,,,,,,,,,,,,,,,,,,,,,,,,,,,,,,,,,,,,,,,,1972.5496907001361,None,,,,,,,,,,,,,,,,,,,,,,,,,,,,,,,,,,,,,,,,,,,,,,,,,,,,,,,,,boy,53,89,silent,old,yellow,1970.8724999995902,None,n,1970.8724999995902,None,"['n', 'return']","[1.2602920001372695, 1.6283641001209617]",1970.8724999995902,None,,,43,001,2023_Apr_19_0952,ExactRep-v3-final,2021.2.3,59.93971249909412,
,,,,,,,,,,,,89,0,89,0,,,,,,,,,,,,,,,,,,,,,,,,,,,,,,,,,,,,,,,,,,,,,,,,,1974.2172937998548,None,,,,,,,,,,,,,,,,,,,,,,,,,,,,,,,,,,,,,,,,,,,,,,,,,,,,,,,,,lip,210,90,aloud,new,yellow,1973.0561745995656,None,n,1973.0561745995656,None,"['n', 'return']","[0.6366750001907349, 1.116596500389278]",1973.0561745995656,None,,,43,001,2023_Apr_19_0952,ExactRep-v3-final,2021.2.3,59.93971249909412,
,,,,,,,,,,,,90,0,90,0,,,,,,,,,,,,,,,,,,,,,,,,,,,,,,,,,,,,,,,,,,,,,,,,,1976.8866726001725,None,,,,,,,,,,,,,,,,,,,,,,,,,,,,,,,,,,,,,,,,,,,,,,,,,,,,,,,,,style,63,91,silent,old,yellow,1974.7268519997597,None,y,1974.7268519997597,None,"['y', 'return']","[1.6459232000634074, 2.1258806008845568]",1974.7268519997597,None,,,43,001,2023_Apr_19_0952,ExactRep-v3-final,2021.2.3,59.93971249909412,
,,,,,,,,,,,,91,0,91,0,,,,,,,,,,,,,,,,,,,,,,,,,,,,,,,,,,,,,,,,,,,,,,,,,1978.7218778999522,None,,,,,,,,,,,,,,,,,,,,,,,,,,,,,,,,,,,,,,,,,,,,,,,,,,,,,,,,,library,107,92,aloud,old,yellow,1977.3920649001375,None,y,1977.3920649001375,None,"['y', 'return']","[0.8366292994469404, 1.2847078992053866]",1977.3920649001375,None,,,43,001,2023_Apr_19_0952,ExactRep-v3-final,2021.2.3,59.93971249909412,
,,,,,,,,,,,,92,0,92,0,,,,,,,,,,,,,,,,,,,,,,,,,,,,,,,,,,,,,,,,,,,,,,,,,1980.8906867001206,None,,,,,,,,,,,,,,,,,,,,,,,,,,,,,,,,,,,,,,,,,,,,,,,,,,,,,,,,,blood,44,93,silent,old,yellow,1979.2347288997844,None,y,1979.2347288997844,None,"['y', 'return']","[1.1620303997769952, 1.618129899725318]",1979.2347288997844,None,,,43,001,2023_Apr_19_0952,ExactRep-v3-final,2021.2.3,59.93971249909412,
,,,,,,,,,,,,93,0,93,0,,,,,,,,,,,,,,,,,,,,,,,,,,,,,,,,,,,,,,,,,,,,,,,,,1983.7935970993713,None,,,,,,,,,,,,,,,,,,,,,,,,,,,,,,,,,,,,,,,,,,,,,,,,,,,,,,,,,life,126,94,silent,new,yellow,1981.4019908001646,None,n,1981.4019908001646,None,"['n', 'return']","[1.5627355994656682, 2.3467434998601675]",1981.4019908001646,None,,,43,001,2023_Apr_19_0952,ExactRep-v3-final,2021.2.3,59.93971249909412,
,,,,,,,,,,,,94,0,94,0,,,,,,,,,,,,,,,,,,,,,,,,,,,,,,,,,,,,,,,,,,,,,,,,,1985.6453837994486,None,,,,,,,,,,,,,,,,,,,,,,,,,,,,,,,,,,,,,,,,,,,,,,,,,,,,,,,,,doll,65,95,silent,old,yellow,1984.3083239998668,None,y,1984.3083239998668,None,"['y', 'return']","[0.7526174997910857, 1.2963771997019649]",1984.3083239998668,None,,,43,001,2023_Apr_19_0952,ExactRep-v3-final,2021.2.3,59.93971249909412,
,,,,,,,,,,,,95,0,95,0,,,,,,,,,,,,,,,,,,,,,,,,,,,,,,,,,,,,,,,,,,,,,,,,,1987.8809274993837,None,,,,,,,,,,,,,,,,,,,,,,,,,,,,,,,,,,,,,,,,,,,,,,,,,,,,,,,,,insect,93,96,aloud,old,yellow,1986.1533436998725,None,n,1986.1533436998725,None,"['n', 'return']","[1.3396351002156734, 1.691482400521636]",1986.1533436998725,None,,,43,001,2023_Apr_19_0952,ExactRep-v3-final,2021.2.3,59.93971249909412,
,,,,,,,,,,,,96,0,96,0,,,,,,,,,,,,,,,,,,,,,,,,,,,,,,,,,,,,,,,,,,,,,,,,,1989.6828207997605,None,,,,,,,,,,,,,,,,,,,,,,,,,,,,,,,,,,,,,,,,,,,,,,,,,,,,,,,,,string,29,97,sing,old,yellow,1988.3940937994048,None,n,1988.3940937994048,None,"['n', 'return']","[0.8347223997116089, 1.2427380001172423]",1988.3940937994048,None,,,43,001,2023_Apr_19_0952,ExactRep-v3-final,2021.2.3,59.93971249909412,
,,,,,,,,,,,,97,0,97,0,,,,,,,,,,,,,,,,,,,,,,,,,,,,,,,,,,,,,,,,,,,,,,,,,1991.567860099487,None,,,,,,,,,,,,,,,,,,,,,,,,,,,,,,,,,,,,,,,,,,,,,,,,,,,,,,,,,opinion,84,98,aloud,old,yellow,1990.192462399602,None,y,1990.192462399602,None,"['y', 'return']","[0.8843392999842763, 1.3323483997955918]",1990.192462399602,None,,,43,001,2023_Apr_19_0952,ExactRep-v3-final,2021.2.3,59.93971249909412,
,,,,,,,,,,,,98,0,98,0,,,,,,,,,,,,,,,,,,,,,,,,,,,,,,,,,,,,,,,,,,,,,,,,,1993.3530753999949,None,,,,,,,,,,,,,,,,,,,,,,,,,,,,,,,,,,,,,,,,,,,,,,,,,,,,,,,,,metal,232,99,aloud,new,yellow,1992.0778695000336,None,n,1992.0778695000336,None,"['n', 'return']","[0.7509267004206777, 1.239006300456822]",1992.0778695000336,None,,,43,001,2023_Apr_19_0952,ExactRep-v3-final,2021.2.3,59.93971249909412,
,,,,,,,,,,,,99,0,99,0,,,,,,,,,,,,,,,,,,,,,,,,,,,,,,,,,,,,,,,,,,,,,,,,,1995.0879843002185,None,,,,,,,,,,,,,,,,,,,,,,,,,,,,,,,,,,,,,,,,,,,,,,,,,,,,,,,,,toy,231,100,sing,new,yellow,1993.8619433995336,None,n,1993.8619433995336,None,"['n', 'return']","[0.7909752996638417, 1.1909831995144486]",1993.8619433995336,None,,,43,001,2023_Apr_19_0952,ExactRep-v3-final,2021.2.3,59.93971249909412,
,,,,,,,,,,,,100,0,100,0,,,,,,,,,,,,,,,,,,,,,,,,,,,,,,,,,,,,,,,,,,,,,,,,,1996.9068241994828,None,,,,,,,,,,,,,,,,,,,,,,,,,,,,,,,,,,,,,,,,,,,,,,,,,,,,,,,,,weapon,238,101,aloud,new,yellow,1995.597164299339,None,n,1995.597164299339,None,"['n', 'return']","[0.8475292008370161, 1.271703900769353]",1995.597164299339,None,,,43,001,2023_Apr_19_0952,ExactRep-v3-final,2021.2.3,59.93971249909412,
,,,,,,,,,,,,101,0,101,0,,,,,,,,,,,,,,,,,,,,,,,,,,,,,,,,,,,,,,,,,,,,,,,,,1998.7752591995522,None,,,,,,,,,,,,,,,,,,,,,,,,,,,,,,,,,,,,,,,,,,,,,,,,,,,,,,,,,hide,152,102,silent,new,yellow,1997.4155613994226,None,n,1997.4155613994226,None,"['n', 'return']","[0.9331497000530362, 1.3251443998888135]",1997.4155613994226,None,,,43,001,2023_Apr_19_0952,ExactRep-v3-final,2021.2.3,59.93971249909412,
,,,,,,,,,,,,102,0,102,0,,,,,,,,,,,,,,,,,,,,,,,,,,,,,,,,,,,,,,,,,,,,,,,,,2000.610382099636,None,,,,,,,,,,,,,,,,,,,,,,,,,,,,,,,,,,,,,,,,,,,,,,,,,,,,,,,,,coast,81,103,aloud,old,yellow,1999.287249399349,None,y,1999.287249399349,None,"['y', 'return']","[0.8455269001424313, 1.2855841992422938]",1999.287249399349,None,,,43,001,2023_Apr_19_0952,ExactRep-v3-final,2021.2.3,59.93971249909412,
,,,,,,,,,,,,103,0,103,0,,,,,,,,,,,,,,,,,,,,,,,,,,,,,,,,,,,,,,,,,,,,,,,,,2002.412688699551,None,,,,,,,,,,,,,,,,,,,,,,,,,,,,,,,,,,,,,,,,,,,,,,,,,,,,,,,,,engine,125,104,silent,new,yellow,2001.1223518000916,None,n,2001.1223518000916,None,"['n', 'return']","[0.8906468003988266, 1.2504977006465197]",2001.1223518000916,None,,,43,001,2023_Apr_19_0952,ExactRep-v3-final,2021.2.3,59.93971249909412,
,,,,,,,,,,,,104,0,104,0,,,,,,,,,,,,,,,,,,,,,,,,,,,,,,,,,,,,,,,,,,,,,,,,,2004.3808495001867,None,,,,,,,,,,,,,,,,,,,,,,,,,,,,,,,,,,,,,,,,,,,,,,,,,,,,,,,,,meat,151,105,silent,new,yellow,2002.9135138997808,None,n,2002.9135138997808,None,"['n', 'return']","[0.963327799923718, 1.4272835003212094]",2002.9135138997808,None,,,43,001,2023_Apr_19_0952,ExactRep-v3-final,2021.2.3,59.93971249909412,
,,,,,,,,,,,,105,0,105,0,,,,,,,,,,,,,,,,,,,,,,,,,,,,,,,,,,,,,,,,,,,,,,,,,2006.1993934996426,None,,,,,,,,,,,,,,,,,,,,,,,,,,,,,,,,,,,,,,,,,,,,,,,,,,,,,,,,,amount,170,106,aloud,new,yellow,2004.8845664002001,None,n,2004.8845664002001,None,"['n', 'return']","[0.8481869995594025, 1.2723829997703433]",2004.8845664002001,None,,,43,001,2023_Apr_19_0952,ExactRep-v3-final,2021.2.3,59.93971249909412,
,,,,,,,,,,,,106,0,106,0,,,,,,,,,,,,,,,,,,,,,,,,,,,,,,,,,,,,,,,,,,,,,,,,,2007.968951699324,None,,,,,,,,,,,,,,,,,,,,,,,,,,,,,,,,,,,,,,,,,,,,,,,,,,,,,,,,,mercy,122,107,silent,new,yellow,2006.7091367999092,None,n,2006.7091367999092,None,"['n', 'return']","[0.9357797000557184, 1.2155761001631618]",2006.7091367999092,None,,,43,001,2023_Apr_19_0952,ExactRep-v3-final,2021.2.3,59.93971249909412,
,,,,,,,,,,,,107,0,107,0,,,,,,,,,,,,,,,,,,,,,,,,,,,,,,,,,,,,,,,,,,,,,,,,,2009.9530911995098,None,,,,,,,,,,,,,,,,,,,,,,,,,,,,,,,,,,,,,,,,,,,,,,,,,,,,,,,,,shame,234,108,aloud,new,yellow,2008.4813110996038,None,y,2008.4813110996038,None,"['y', 'return']","[1.0114706996828318, 1.4274181993678212]",2008.4813110996038,None,,,43,001,2023_Apr_19_0952,ExactRep-v3-final,2021.2.3,59.93971249909412,
,,,,,,,,,,,,108,0,108,0,,,,,,,,,,,,,,,,,,,,,,,,,,,,,,,,,,,,,,,,,,,,,,,,,2012.0215766001493,None,,,,,,,,,,,,,,,,,,,,,,,,,,,,,,,,,,,,,,,,,,,,,,,,,,,,,,,,,valley,198,109,aloud,new,yellow,2010.4644670998678,None,y,2010.4644670998678,None,"['y', 'return']","[1.1086023999378085, 1.5242876000702381]",2010.4644670998678,None,,,43,001,2023_Apr_19_0952,ExactRep-v3-final,2021.2.3,59.93971249909412,
,,,,,,,,,,,,109,0,109,0,,,,,,,,,,,,,,,,,,,,,,,,,,,,,,,,,,,,,,,,,,,,,,,,,2017.076780299656,None,,,,,,,,,,,,,,,,,,,,,,,,,,,,,,,,,,,,,,,,,,,,,,,,,,,,,,,,,skin,5,110,sing,old,yellow,2012.5310031995177,None,y,2012.5310031995177,None,"['n', 'backspace', 'y', 'return']","[1.009753099642694, 1.6179349003359675, 1.9379214001819491, 4.505864400416613]",2012.5310031995177,None,,,43,001,2023_Apr_19_0952,ExactRep-v3-final,2021.2.3,59.93971249909412,
,,,,,,,,,,,,110,0,110,0,,,,,,,,,,,,,,,,,,,,,,,,,,,,,,,,,,,,,,,,,,,,,,,,,2019.4124499997124,None,,,,,,,,,,,,,,,,,,,,,,,,,,,,,,,,,,,,,,,,,,,,,,,,,,,,,,,,,beast,175,111,sing,new,yellow,2017.5863520996645,None,n,2017.5863520996645,None,"['return', 'n', 'return']","[0.3705490995198488, 1.0185987995937467, 1.7865439001470804]",2017.5863520996645,None,,,43,001,2023_Apr_19_0952,ExactRep-v3-final,2021.2.3,59.93971249909412,
,,,,,,,,,,,,111,0,111,0,,,,,,,,,,,,,,,,,,,,,,,,,,,,,,,,,,,,,,,,,,,,,,,,,2021.1809935998172,None,,,,,,,,,,,,,,,,,,,,,,,,,,,,,,,,,,,,,,,,,,,,,,,,,,,,,,,,,circle,159,112,silent,new,yellow,2019.9272652994841,None,n,2019.9272652994841,None,"['n', 'return']","[0.8295654002577066, 1.2136280005797744]",2019.9272652994841,None,,,43,001,2023_Apr_19_0952,ExactRep-v3-final,2021.2.3,59.93971249909412,
,,,,,,,,,,,,112,0,112,0,,,,,,,,,,,,,,,,,,,,,,,,,,,,,,,,,,,,,,,,,,,,,,,,,2022.9994692998007,None,,,,,,,,,,,,,,,,,,,,,,,,,,,,,,,,,,,,,,,,,,,,,,,,,,,,,,,,,slave,48,113,silent,old,yellow,2021.69226479996,None,n,2021.69226479996,None,"['n', 'return']","[0.7766268001869321, 1.2644501999020576]",2021.69226479996,None,,,43,001,2023_Apr_19_0952,ExactRep-v3-final,2021.2.3,59.93971249909412,
,,,,,,,,,,,,113,0,113,0,,,,,,,,,,,,,,,,,,,,,,,,,,,,,,,,,,,,,,,,,,,,,,,,,2024.5508349994197,None,,,,,,,,,,,,,,,,,,,,,,,,,,,,,,,,,,,,,,,,,,,,,,,,,,,,,,,,,event,41,114,silent,old,yellow,2023.5108743999153,None,n,2023.5108743999153,None,"['n', 'return']","[0.6139205005019903, 1.0058920001611114]",2023.5108743999153,None,,,43,001,2023_Apr_19_0952,ExactRep-v3-final,2021.2.3,59.93971249909412,
,,,,,,,,,,,,114,0,114,0,,,,,,,,,,,,,,,,,,,,,,,,,,,,,,,,,,,,,,,,,,,,,,,,,2026.3360578995198,None,,,,,,,,,,,,,,,,,,,,,,,,,,,,,,,,,,,,,,,,,,,,,,,,,,,,,,,,,flesh,228,115,aloud,new,yellow,2025.0577728999779,None,n,2025.0577728999779,None,"['n', 'return']","[0.7391236005350947, 1.2431148001924157]",2025.0577728999779,None,,,43,001,2023_Apr_19_0952,ExactRep-v3-final,2021.2.3,59.93971249909412,
,,,,,,,,,,,,115,0,115,0,,,,,,,,,,,,,,,,,,,,,,,,,,,,,,,,,,,,,,,,,,,,,,,,,2028.6383598996326,None,,,,,,,,,,,,,,,,,,,,,,,,,,,,,,,,,,,,,,,,,,,,,,,,,,,,,,,,,form,33,116,sing,old,yellow,2026.8450680999085,None,y,2026.8450680999085,None,"['y', 'return']","[1.407977300696075, 1.7517475001513958]",2026.8450680999085,None,,,43,001,2023_Apr_19_0952,ExactRep-v3-final,2021.2.3,59.93971249909412,
,,,,,,,,,,,,116,0,116,0,,,,,,,,,,,,,,,,,,,,,,,,,,,,,,,,,,,,,,,,,,,,,,,,,2032.475539200008,None,,,,,,,,,,,,,,,,,,,,,,,,,,,,,,,,,,,,,,,,,,,,,,,,,,,,,,,,,author,47,117,silent,old,yellow,2029.1487077996135,None,y,2029.1487077996135,None,"['return', 'y', 'return']","[1.4000776996836066, 2.3363383999094367, 3.288091999478638]",2029.1487077996135,None,,,43,001,2023_Apr_19_0952,ExactRep-v3-final,2021.2.3,59.93971249909412,
,,,,,,,,,,,,117,0,117,0,,,,,,,,,,,,,,,,,,,,,,,,,,,,,,,,,,,,,,,,,,,,,,,,,2034.0771837998182,None,,,,,,,,,,,,,,,,,,,,,,,,,,,,,,,,,,,,,,,,,,,,,,,,,,,,,,,,,lake,73,118,silent,old,yellow,2032.9856898002326,None,n,2032.9856898002326,None,"['n', 'return']","[0.6831587003543973, 1.0592304999008775]",2032.9856898002326,None,,,43,001,2023_Apr_19_0952,ExactRep-v3-final,2021.2.3,59.93971249909412,
,,,,,,,,,,,,118,0,118,0,,,,,,,,,,,,,,,,,,,,,,,,,,,,,,,,,,,,,,,,,,,,,,,,,2035.7452181000262,None,,,,,,,,,,,,,,,,,,,,,,,,,,,,,,,,,,,,,,,,,,,,,,,,,,,,,,,,,air,129,119,silent,new,yellow,2034.5904025994241,None,n,2034.5904025994241,None,"['n', 'return']","[0.742421300150454, 1.118427600711584]",2034.5904025994241,None,,,43,001,2023_Apr_19_0952,ExactRep-v3-final,2021.2.3,59.93971249909412,
,,,,,,,,,,,,119,0,119,0,,,,,,,,,,,,,,,,,,,,,,,,,,,,,,,,,,,,,,,,,,,,,,,,,2038.1644962998107,None,,,,,,,,,,,,,,,,,,,,,,,,,,,,,,,,,,,,,,,,,,,,,,,,,,,,,,,,,answer,173,120,sing,new,yellow,2036.2535739997402,None,n,2036.2535739997402,None,"['n', 'return']","[1.1591785000637174, 1.879237299785018]",2036.2535739997402,None,,,43,001,2023_Apr_19_0952,ExactRep-v3-final,2021.2.3,59.93971249909412,
,,,,,,,,,,,,120,0,120,0,,,,,,,,,,,,,,,,,,,,,,,,,,,,,,,,,,,,,,,,,,,,,,,,,2043.0527871996164,None,,,,,,,,,,,,,,,,,,,,,,,,,,,,,,,,,,,,,,,,,,,,,,,,,,,,,,,,,leader,157,121,silent,new,yellow,2038.6651435997337,None,n,2038.6651435997337,None,"['n', 'return']","[1.7956476006656885, 4.355690900236368]",2038.6651435997337,None,,,43,001,2023_Apr_19_0952,ExactRep-v3-final,2021.2.3,59.93971249909412,
,,,,,,,,,,,,121,0,121,0,,,,,,,,,,,,,,,,,,,,,,,,,,,,,,,,,,,,,,,,,,,,,,,,,2044.8880369998515,None,,,,,,,,,,,,,,,,,,,,,,,,,,,,,,,,,,,,,,,,,,,,,,,,,,,,,,,,,meadow,237,122,sing,new,yellow,2043.562827299349,None,n,2043.562827299349,None,"['n', 'return']","[0.8259517997503281, 1.2819122998043895]",2043.562827299349,None,,,43,001,2023_Apr_19_0952,ExactRep-v3-final,2021.2.3,59.93971249909412,
,,,,,,,,,,,,122,0,122,0,,,,,,,,,,,,,,,,,,,,,,,,,,,,,,,,,,,,,,,,,,,,,,,,,2046.62300139945,None,,,,,,,,,,,,,,,,,,,,,,,,,,,,,,,,,,,,,,,,,,,,,,,,,,,,,,,,,priest,61,123,silent,old,yellow,2045.397842399776,None,y,2045.397842399776,None,"['y', 'return']","[0.7508956994861364, 1.1909659998491406]",2045.397842399776,None,,,43,001,2023_Apr_19_0952,ExactRep-v3-final,2021.2.3,59.93971249909412,
,,,,,,,,,,,,123,0,123,0,,,,,,,,,,,,,,,,,,,,,,,,,,,,,,,,,,,,,,,,,,,,,,,,,2048.324802399613,None,,,,,,,,,,,,,,,,,,,,,,,,,,,,,,,,,,,,,,,,,,,,,,,,,,,,,,,,,master,197,124,sing,new,yellow,2047.1375620001927,None,n,2047.1375620001927,None,"['n', 'return']","[0.7553192991763353, 1.1472852993756533]",2047.1375620001927,None,,,43,001,2023_Apr_19_0952,ExactRep-v3-final,2021.2.3,59.93971249909412,
,,,,,,,,,,,,124,0,124,0,,,,,,,,,,,,,,,,,,,,,,,,,,,,,,,,,,,,,,,,,,,,,,,,,2051.294215899892,None,,,,,,,,,,,,,,,,,,,,,,,,,,,,,,,,,,,,,,,,,,,,,,,,,,,,,,,,,paper,215,125,sing,new,yellow,2048.8349385000765,None,y,2048.8349385000765,None,"['y', 'return']","[2.018037799745798, 2.4179112995043397]",2048.8349385000765,None,,,43,001,2023_Apr_19_0952,ExactRep-v3-final,2021.2.3,59.93971249909412,
,,,,,,,,,,,,125,0,125,0,,,,,,,,,,,,,,,,,,,,,,,,,,,,,,,,,,,,,,,,,,,,,,,,,2052.9962288998067,None,,,,,,,,,,,,,,,,,,,,,,,,,,,,,,,,,,,,,,,,,,,,,,,,,,,,,,,,,fact,51,126,silent,old,yellow,2051.799942499958,None,n,2051.799942499958,None,"['n', 'return']","[0.8211195003241301, 1.148997399955988]",2051.799942499958,None,,,43,001,2023_Apr_19_0952,ExactRep-v3-final,2021.2.3,59.93971249909412,
,,,,,,,,,,,,126,0,126,0,,,,,,,,,,,,,,,,,,,,,,,,,,,,,,,,,,,,,,,,,,,,,,,,,2055.8154462995008,None,,,,,,,,,,,,,,,,,,,,,,,,,,,,,,,,,,,,,,,,,,,,,,,,,,,,,,,,,nail,80,127,aloud,old,yellow,2053.4978553000838,None,n,2053.4978553000838,None,"['n', 'return']","[1.7631195997819304, 2.274984600022435]",2053.4978553000838,None,,,43,001,2023_Apr_19_0952,ExactRep-v3-final,2021.2.3,59.93971249909412,
,,,,,,,,,,,,127,0,127,0,,,,,,,,,,,,,,,,,,,,,,,,,,,,,,,,,,,,,,,,,,,,,,,,,2058.3180309999734,None,,,,,,,,,,,,,,,,,,,,,,,,,,,,,,,,,,,,,,,,,,,,,,,,,,,,,,,,,sea,79,128,sing,old,yellow,2056.3225734001026,None,y,2056.3225734001026,None,"['n', 'backspace', 'y', 'return']","[0.6583052994683385, 1.282414199784398, 1.6024503000080585, 1.954298099502921]",2056.3225734001026,None,,,43,001,2023_Apr_19_0952,ExactRep-v3-final,2021.2.3,59.93971249909412,
,,,,,,,,,,,,128,0,128,0,,,,,,,,,,,,,,,,,,,,,,,,,,,,,,,,,,,,,,,,,,,,,,,,,2060.119823199697,None,,,,,,,,,,,,,,,,,,,,,,,,,,,,,,,,,,,,,,,,,,,,,,,,,,,,,,,,,wheat,37,129,sing,old,yellow,2058.8294134000316,None,y,2058.8294134000316,None,"['y', 'return']","[0.9194096997380257, 1.2553869998082519]",2058.8294134000316,None,,,43,001,2023_Apr_19_0952,ExactRep-v3-final,2021.2.3,59.93971249909412,
,,,,,,,,,,,,129,0,129,0,,,,,,,,,,,,,,,,,,,,,,,,,,,,,,,,,,,,,,,,,,,,,,,,,2061.9884540997446,None,,,,,,,,,,,,,,,,,,,,,,,,,,,,,,,,,,,,,,,,,,,,,,,,,,,,,,,,,winter,190,130,aloud,new,yellow,2060.6336003998294,None,y,2060.6336003998294,None,"['y', 'return']","[0.9072548998519778, 1.3072404991835356]",2060.6336003998294,None,,,43,001,2023_Apr_19_0952,ExactRep-v3-final,2021.2.3,59.93971249909412,
