trials_fam.thisRepN,trials_fam.thisTrialN,trials_fam.thisN,trials_fam.thisIndex,trials_prc.thisRepN,trials_prc.thisTrialN,trials_prc.thisN,trials_prc.thisIndex,StudyLoop.thisRepN,StudyLoop.thisTrialN,StudyLoop.thisN,StudyLoop.thisIndex,TestLoop.thisRepN,TestLoop.thisTrialN,TestLoop.thisN,TestLoop.thisIndex,text_colortest.started,text_colortest.stopped,key_colortest.keys,key_colortest.rt,key_colortest.started,key_colortest.stopped,textCondition.started,textCondition.stopped,keyCondition.keys,keyCondition.rt,keyCondition.started,keyCondition.stopped,Condition_between,Condition_counterbal,keyWelcome.keys,keyWelcome.rt,keyWelcome.started,keyWelcome.stopped,welcome_a.started,welcome_a.stopped,welcome_b.started,welcome_b.stopped,welcome_c.started,welcome_c.stopped,welcome_d.started,welcome_d.stopped,welcome_e.started,welcome_e.stopped,welcome_f.started,welcome_f.stopped,key_resp_fam_inst.keys,key_resp_fam_inst.rt,key_resp_fam_inst.started,key_resp_fam_inst.stopped,fam_a.started,fam_a.stopped,fam_b.started,fam_b.stopped,fam_c.started,fam_c.stopped,fam_d.started,fam_d.stopped,fam_e.started,fam_e.stopped,fam_f.started,fam_f.stopped,text_famil.started,text_famil.stopped,textBlank500.started,textBlank500.stopped,key_resp_prc_inst.keys,key_resp_prc_inst.rt,key_resp_prc_inst.started,key_resp_prc_inst.stopped,prac_a.started,prac_a.stopped,prac_b.started,prac_b.stopped,prac_c.started,prac_c.stopped,prac_d.started,prac_d.stopped,prac_e.started,prac_e.stopped,prac_f.started,prac_f.stopped,text_prc_trial.started,text_prc_trial.stopped,key_resp_study_inst.keys,key_resp_study_inst.rt,key_resp_study_inst.started,key_resp_study_inst.stopped,crit_a.started,crit_a.stopped,crit_b.started,crit_b.stopped,crit_c.started,crit_c.stopped,crit_d.started,crit_d.stopped,crit_e.started,crit_e.stopped,crit_f.started,crit_f.stopped,study_word,study_num,study_order,study_type,word_color,textStudy.started,textStudy.stopped,keyStudy.keys,keyStudy.started,keyStudy.stopped,post_study.started,post_study.stopped,key_resp_post_study.keys,key_resp_post_study.rt,key_resp_post_study.started,key_resp_post_study.stopped,test_inst.started,test_inst.stopped,key_resp_test_inst.keys,key_resp_test_inst.rt,key_resp_test_inst.started,key_resp_test_inst.stopped,test_word,test_num,test_order,test_condition,old_new_test,word_color_test,textConf.started,textConf.stopped,Participant Response,textInput.started,textInput.stopped,keyResp.keys,keyResp.rt,keyResp.started,keyResp.stopped,textEnd.started,textEnd.stopped,participant,session,date,expName,psychopyVersion,frameRate,
,,,,,,,,,,,,,,,,14.572317900136113,None,n,0.8381767999380827,14.572317900136113,None,,,,,,,,,,,,,,,,,,,,,,,,,,,,,,,,,,,,,,,,,,,,,,,,,,,,,,,,,,,,,,,,,,,,,,,,,,,,,,,,,,,,,,,,,,,,,,,,,,,,,,,,,,,,,,,,,,,,,,44,001,2023_Apr_19_1031,ExactRep-v3-final,2021.2.3,59.88181729356552,
,,,,,,,,,,,,,,,,,,,,,,15.433490600436926,None,b,0.47282509971410036,15.433490600436926,None,,,,,,,,,,,,,,,,,,,,,,,,,,,,,,,,,,,,,,,,,,,,,,,,,,,,,,,,,,,,,,,,,,,,,,,,,,,,,,,,,,,,,,,,,,,,,,,,,,,,,,,,,,,,,,,,44,001,2023_Apr_19_1031,ExactRep-v3-final,2021.2.3,59.88181729356552,
,,,,,,,,,,,,,,,,,,,,,,,,,,,,whitefoils,b,space,731.8521710997447,26.023334099911153,None,,,,,,,,,,,,,,,,,,,,,,,,,,,,,,,,,,,,,,,,,,,,,,,,,,,,,,,,,,,,,,,,,,,,,,,,,,,,,,,,,,,,,,,,,,,,,,,,,,,,,,,,,,44,001,2023_Apr_19_1031,ExactRep-v3-final,2021.2.3,59.88181729356552,
,,,,,,,,,,,,,,,,,,,,,,,,,,,,,,,,,,16.08051939960569,None,16.08051939960569,None,16.08051939960569,None,16.08051939960569,None,16.08051939960569,None,16.08051939960569,None,space,17.099255099892616,768.0078675998375,None,,,,,,,,,,,,,,,,,,,,,,,,,,,,,,,,,,,,,,,,,,,,,,,,,,,,,,,,,,,,,,,,,,,,,,,,,,,,,,,,,,,,,,,,,,44,001,2023_Apr_19_1031,ExactRep-v3-final,2021.2.3,59.88181729356552,
0,0,0,0,,,,,,,,,,,,,,,,,,,,,,,,,,,,,,,,,,,,,,,,,,,,,,,758.0327847003937,None,758.0327847003937,None,758.0327847003937,None,758.0327847003937,None,758.0327847003937,None,758.0327847003937,None,785.2046114001423,None,787.205370400101,None,,,,,,,,,,,,,,,,,,,,,,,,,,,,,,,,,,,,,,,,,,,,,,,,,,,,,,,,,,,,,,,,,,,,,,,,,,44,001,2023_Apr_19_1031,ExactRep-v3-final,2021.2.3,59.88181729356552,
1,0,1,0,,,,,,,,,,,,,,,,,,,,,,,,,,,,,,,,,,,,,,,,,,,,,,,,,,,,,,,,,,,787.7059247000143,None,789.7078910004348,None,,,,,,,,,,,,,,,,,,,,,,,,,,,,,,,,,,,,,,,,,,,,,,,,,,,,,,,,,,,,,,,,,,,,,,,,,,44,001,2023_Apr_19_1031,ExactRep-v3-final,2021.2.3,59.88181729356552,
2,0,2,0,,,,,,,,,,,,,,,,,,,,,,,,,,,,,,,,,,,,,,,,,,,,,,,,,,,,,,,,,,,790.218360199593,None,792.2268447000533,None,,,,,,,,,,,,,,,,,,,,,,,,,,,,,,,,,,,,,,,,,,,,,,,,,,,,,,,,,,,,,,,,,,,,,,,,,,44,001,2023_Apr_19_1031,ExactRep-v3-final,2021.2.3,59.88181729356552,
3,0,3,0,,,,,,,,,,,,,,,,,,,,,,,,,,,,,,,,,,,,,,,,,,,,,,,,,,,,,,,,,,,792.7408352997154,None,794.7460885997862,None,,,,,,,,,,,,,,,,,,,,,,,,,,,,,,,,,,,,,,,,,,,,,,,,,,,,,,,,,,,,,,,,,,,,,,,,,,44,001,2023_Apr_19_1031,ExactRep-v3-final,2021.2.3,59.88181729356552,
4,0,4,0,,,,,,,,,,,,,,,,,,,,,,,,,,,,,,,,,,,,,,,,,,,,,,,,,,,,,,,,,,,795.2467468995601,None,797.2486151000485,None,,,,,,,,,,,,,,,,,,,,,,,,,,,,,,,,,,,,,,,,,,,,,,,,,,,,,,,,,,,,,,,,,,,,,,,,,,44,001,2023_Apr_19_1031,ExactRep-v3-final,2021.2.3,59.88181729356552,
5,0,5,0,,,,,,,,,,,,,,,,,,,,,,,,,,,,,,,,,,,,,,,,,,,,,,,,,,,,,,,,,,,797.7550950003788,None,799.7679310003296,None,,,,,,,,,,,,,,,,,,,,,,,,,,,,,,,,,,,,,,,,,,,,,,,,,,,,,,,,,,,,,,,,,,,,,,,,,,44,001,2023_Apr_19_1031,ExactRep-v3-final,2021.2.3,59.88181729356552,
6,0,6,0,,,,,,,,,,,,,,,,,,,,,,,,,,,,,,,,,,,,,,,,,,,,,,,,,,,,,,,,,,,800.2682753996924,None,802.2704589003697,None,,,,,,,,,,,,,,,,,,,,,,,,,,,,,,,,,,,,,,,,,,,,,,,,,,,,,,,,,,,,,,,,,,,,,,,,,,44,001,2023_Apr_19_1031,ExactRep-v3-final,2021.2.3,59.88181729356552,
7,0,7,0,,,,,,,,,,,,,,,,,,,,,,,,,,,,,,,,,,,,,,,,,,,,,,,,,,,,,,,,,,,802.7707925997674,None,804.7728979997337,None,,,,,,,,,,,,,,,,,,,,,,,,,,,,,,,,,,,,,,,,,,,,,,,,,,,,,,,,,,,,,,,,,,,,,,,,,,44,001,2023_Apr_19_1031,ExactRep-v3-final,2021.2.3,59.88181729356552,
8,0,8,0,,,,,,,,,,,,,,,,,,,,,,,,,,,,,,,,,,,,,,,,,,,,,,,,,,,,,,,,,,,805.2734567997977,None,807.2756016999483,None,,,,,,,,,,,,,,,,,,,,,,,,,,,,,,,,,,,,,,,,,,,,,,,,,,,,,,,,,,,,,,,,,,,,,,,,,,44,001,2023_Apr_19_1031,ExactRep-v3-final,2021.2.3,59.88181729356552,
9,0,9,0,,,,,,,,,,,,,,,,,,,,,,,,,,,,,,,,,,,,,,,,,,,,,,,,,,,,,,,,,,,807.7855866998434,None,809.7945982003585,None,,,,,,,,,,,,,,,,,,,,,,,,,,,,,,,,,,,,,,,,,,,,,,,,,,,,,,,,,,,,,,,,,,,,,,,,,,44,001,2023_Apr_19_1031,ExactRep-v3-final,2021.2.3,59.88181729356552,
10,0,10,0,,,,,,,,,,,,,,,,,,,,,,,,,,,,,,,,,,,,,,,,,,,,,,,,,,,,,,,,,,,810.2952052997425,None,812.2970928996801,None,,,,,,,,,,,,,,,,,,,,,,,,,,,,,,,,,,,,,,,,,,,,,,,,,,,,,,,,,,,,,,,,,,,,,,,,,,44,001,2023_Apr_19_1031,ExactRep-v3-final,2021.2.3,59.88181729356552,
11,0,11,0,,,,,,,,,,,,,,,,,,,,,,,,,,,,,,,,,,,,,,,,,,,,,,,,,,,,,,,,,,,812.8062987001613,None,814.8163625001907,None,,,,,,,,,,,,,,,,,,,,,,,,,,,,,,,,,,,,,,,,,,,,,,,,,,,,,,,,,,,,,,,,,,,,,,,,,,44,001,2023_Apr_19_1031,ExactRep-v3-final,2021.2.3,59.88181729356552,
12,0,12,0,,,,,,,,,,,,,,,,,,,,,,,,,,,,,,,,,,,,,,,,,,,,,,,,,,,,,,,,,,,815.3169954000041,None,817.318639899604,None,,,,,,,,,,,,,,,,,,,,,,,,,,,,,,,,,,,,,,,,,,,,,,,,,,,,,,,,,,,,,,,,,,,,,,,,,,44,001,2023_Apr_19_1031,ExactRep-v3-final,2021.2.3,59.88181729356552,
13,0,13,0,,,,,,,,,,,,,,,,,,,,,,,,,,,,,,,,,,,,,,,,,,,,,,,,,,,,,,,,,,,817.8191809998825,None,819.8213122999296,None,,,,,,,,,,,,,,,,,,,,,,,,,,,,,,,,,,,,,,,,,,,,,,,,,,,,,,,,,,,,,,,,,,,,,,,,,,44,001,2023_Apr_19_1031,ExactRep-v3-final,2021.2.3,59.88181729356552,
14,0,14,0,,,,,,,,,,,,,,,,,,,,,,,,,,,,,,,,,,,,,,,,,,,,,,,,,,,,,,,,,,,820.3220006003976,None,822.3237965004519,None,,,,,,,,,,,,,,,,,,,,,,,,,,,,,,,,,,,,,,,,,,,,,,,,,,,,,,,,,,,,,,,,,,,,,,,,,,44,001,2023_Apr_19_1031,ExactRep-v3-final,2021.2.3,59.88181729356552,
,,,,,,,,,,,,,,,,,,,,,,,,,,,,,,,,,,,,,,,,,,,,,,,,,,,,,,,,,,,,,,,,,,space,28.1834851000458,832.9236415000632,None,,,,,,,,,,,,,,,,,,,,,,,,,,,,,,,,,,,,,,,,,,,,,,,,,,,,,,,,,,,,,,,,,,,,,,44,001,2023_Apr_19_1031,ExactRep-v3-final,2021.2.3,59.88181729356552,
,,,,0,0,0,0,,,,,,,,,,,,,,,,,,,,,,,,,,,,,,,,,,,,,,,,,,,,,,,,,,,,,,,,,863.2145280996338,None,,,,,822.9791818996891,None,822.9791818996891,None,822.9791818996891,None,822.9791818996891,None,822.9791818996891,None,822.9791818996891,None,861.1993370996788,None,,,,,,,,,,,,,,,,,,,,,,,,,,,,,,,,,,,,,,,,,,,,,,,,,,,,,,,,44,001,2023_Apr_19_1031,ExactRep-v3-final,2021.2.3,59.88181729356552,
,,,,1,0,1,0,,,,,,,,,,,,,,,,,,,,,,,,,,,,,,,,,,,,,,,,,,,,,,,,,,,,,,,,,865.7173498002812,None,,,,,,,,,,,,,,,,,863.7152434000745,None,,,,,,,,,,,,,,,,,,,,,,,,,,,,,,,,,,,,,,,,,,,,,,,,,,,,,,,,44,001,2023_Apr_19_1031,ExactRep-v3-final,2021.2.3,59.88181729356552,
,,,,2,0,2,0,,,,,,,,,,,,,,,,,,,,,,,,,,,,,,,,,,,,,,,,,,,,,,,,,,,,,,,,,868.2198532996699,None,,,,,,,,,,,,,,,,,866.2178926002234,None,,,,,,,,,,,,,,,,,,,,,,,,,,,,,,,,,,,,,,,,,,,,,,,,,,,,,,,,44,001,2023_Apr_19_1031,ExactRep-v3-final,2021.2.3,59.88181729356552,
,,,,3,0,3,0,,,,,,,,,,,,,,,,,,,,,,,,,,,,,,,,,,,,,,,,,,,,,,,,,,,,,,,,,870.7222140999511,None,,,,,,,,,,,,,,,,,868.720388200134,None,,,,,,,,,,,,,,,,,,,,,,,,,,,,,,,,,,,,,,,,,,,,,,,,,,,,,,,,44,001,2023_Apr_19_1031,ExactRep-v3-final,2021.2.3,59.88181729356552,
,,,,4,0,4,0,,,,,,,,,,,,,,,,,,,,,,,,,,,,,,,,,,,,,,,,,,,,,,,,,,,,,,,,,873.2246872996911,None,,,,,,,,,,,,,,,,,871.2225545998663,None,,,,,,,,,,,,,,,,,,,,,,,,,,,,,,,,,,,,,,,,,,,,,,,,,,,,,,,,44,001,2023_Apr_19_1031,ExactRep-v3-final,2021.2.3,59.88181729356552,
,,,,5,0,5,0,,,,,,,,,,,,,,,,,,,,,,,,,,,,,,,,,,,,,,,,,,,,,,,,,,,,,,,,,875.7270211996511,None,,,,,,,,,,,,,,,,,873.7253459002823,None,,,,,,,,,,,,,,,,,,,,,,,,,,,,,,,,,,,,,,,,,,,,,,,,,,,,,,,,44,001,2023_Apr_19_1031,ExactRep-v3-final,2021.2.3,59.88181729356552,
,,,,6,0,6,0,,,,,,,,,,,,,,,,,,,,,,,,,,,,,,,,,,,,,,,,,,,,,,,,,,,,,,,,,878.229357900098,None,,,,,,,,,,,,,,,,,876.227703999728,None,,,,,,,,,,,,,,,,,,,,,,,,,,,,,,,,,,,,,,,,,,,,,,,,,,,,,,,,44,001,2023_Apr_19_1031,ExactRep-v3-final,2021.2.3,59.88181729356552,
,,,,7,0,7,0,,,,,,,,,,,,,,,,,,,,,,,,,,,,,,,,,,,,,,,,,,,,,,,,,,,,,,,,,880.7322303000838,None,,,,,,,,,,,,,,,,,878.7300135996193,None,,,,,,,,,,,,,,,,,,,,,,,,,,,,,,,,,,,,,,,,,,,,,,,,,,,,,,,,44,001,2023_Apr_19_1031,ExactRep-v3-final,2021.2.3,59.88181729356552,
,,,,8,0,8,0,,,,,,,,,,,,,,,,,,,,,,,,,,,,,,,,,,,,,,,,,,,,,,,,,,,,,,,,,883.2345166001469,None,,,,,,,,,,,,,,,,,881.2328129997477,None,,,,,,,,,,,,,,,,,,,,,,,,,,,,,,,,,,,,,,,,,,,,,,,,,,,,,,,,44,001,2023_Apr_19_1031,ExactRep-v3-final,2021.2.3,59.88181729356552,
,,,,9,0,9,0,,,,,,,,,,,,,,,,,,,,,,,,,,,,,,,,,,,,,,,,,,,,,,,,,,,,,,,,,885.737163499929,None,,,,,,,,,,,,,,,,,883.7353480001912,None,,,,,,,,,,,,,,,,,,,,,,,,,,,,,,,,,,,,,,,,,,,,,,,,,,,,,,,,44,001,2023_Apr_19_1031,ExactRep-v3-final,2021.2.3,59.88181729356552,
,,,,10,0,10,0,,,,,,,,,,,,,,,,,,,,,,,,,,,,,,,,,,,,,,,,,,,,,,,,,,,,,,,,,888.2396764000878,None,,,,,,,,,,,,,,,,,886.2376197995618,None,,,,,,,,,,,,,,,,,,,,,,,,,,,,,,,,,,,,,,,,,,,,,,,,,,,,,,,,44,001,2023_Apr_19_1031,ExactRep-v3-final,2021.2.3,59.88181729356552,
,,,,11,0,11,0,,,,,,,,,,,,,,,,,,,,,,,,,,,,,,,,,,,,,,,,,,,,,,,,,,,,,,,,,890.7422615000978,None,,,,,,,,,,,,,,,,,888.7399904998019,None,,,,,,,,,,,,,,,,,,,,,,,,,,,,,,,,,,,,,,,,,,,,,,,,,,,,,,,,44,001,2023_Apr_19_1031,ExactRep-v3-final,2021.2.3,59.88181729356552,
,,,,12,0,12,0,,,,,,,,,,,,,,,,,,,,,,,,,,,,,,,,,,,,,,,,,,,,,,,,,,,,,,,,,893.2446250002831,None,,,,,,,,,,,,,,,,,891.2425330001861,None,,,,,,,,,,,,,,,,,,,,,,,,,,,,,,,,,,,,,,,,,,,,,,,,,,,,,,,,44,001,2023_Apr_19_1031,ExactRep-v3-final,2021.2.3,59.88181729356552,
,,,,13,0,13,0,,,,,,,,,,,,,,,,,,,,,,,,,,,,,,,,,,,,,,,,,,,,,,,,,,,,,,,,,895.747029799968,None,,,,,,,,,,,,,,,,,893.7451467001811,None,,,,,,,,,,,,,,,,,,,,,,,,,,,,,,,,,,,,,,,,,,,,,,,,,,,,,,,,44,001,2023_Apr_19_1031,ExactRep-v3-final,2021.2.3,59.88181729356552,
,,,,14,0,14,0,,,,,,,,,,,,,,,,,,,,,,,,,,,,,,,,,,,,,,,,,,,,,,,,,,,,,,,,,898.2495015999302,None,,,,,,,,,,,,,,,,,896.2477268995717,None,,,,,,,,,,,,,,,,,,,,,,,,,,,,,,,,,,,,,,,,,,,,,,,,,,,,,,,,44,001,2023_Apr_19_1031,ExactRep-v3-final,2021.2.3,59.88181729356552,
,,,,,,,,,,,,,,,,,,,,,,,,,,,,,,,,,,,,,,,,,,,,,,,,,,,,,,,,,,,,,,,,,,,,,,,,,,,,,,,,,,,,space,25.45223919954151,908.8549370002002,None,,,,,,,,,,,,,,,,,,,,,,,,,,,,,,,,,,,,,,,,,,,,,,,,,,,,44,001,2023_Apr_19_1031,ExactRep-v3-final,2021.2.3,59.88181729356552,
,,,,,,,,0,0,0,0,,,,,,,,,,,,,,,,,,,,,,,,,,,,,,,,,,,,,,,,,,,,,,,,,,,,,936.4377864999697,None,,,,,,,,,,,,,,,,,,,,,,,898.9054629998282,None,898.9054629998282,None,898.9054629998282,None,898.9054629998282,None,898.9054629998282,None,898.9054629998282,None,picture,43,1,silent,white,934.4285369003192,None,None,934.4285369003192,None,,,,,,,,,,,,,,,,,,,,,,,,,,,,,,44,001,2023_Apr_19_1031,ExactRep-v3-final,2021.2.3,59.88181729356552,
,,,,,,,,1,0,1,0,,,,,,,,,,,,,,,,,,,,,,,,,,,,,,,,,,,,,,,,,,,,,,,,,,,,,938.9570653997362,None,,,,,,,,,,,,,,,,,,,,,,,,,,,,,,,,,,,woman,88,2,aloud,red,936.945790999569,None,None,936.945790999569,None,,,,,,,,,,,,,,,,,,,,,,,,,,,,,,44,001,2023_Apr_19_1031,ExactRep-v3-final,2021.2.3,59.88181729356552,
,,,,,,,,2,0,2,0,,,,,,,,,,,,,,,,,,,,,,,,,,,,,,,,,,,,,,,,,,,,,,,,,,,,,941.4761052001268,None,,,,,,,,,,,,,,,,,,,,,,,,,,,,,,,,,,,air,110,3,aloud,red,939.4624563995749,None,None,939.4624563995749,None,,,,,,,,,,,,,,,,,,,,,,,,,,,,,,44,001,2023_Apr_19_1031,ExactRep-v3-final,2021.2.3,59.88181729356552,
,,,,,,,,3,0,3,0,,,,,,,,,,,,,,,,,,,,,,,,,,,,,,,,,,,,,,,,,,,,,,,,,,,,,943.9786371998489,None,,,,,,,,,,,,,,,,,,,,,,,,,,,,,,,,,,,idea,59,4,silent,white,941.9770446000621,None,None,941.9770446000621,None,,,,,,,,,,,,,,,,,,,,,,,,,,,,,,44,001,2023_Apr_19_1031,ExactRep-v3-final,2021.2.3,59.88181729356552,
,,,,,,,,4,0,4,0,,,,,,,,,,,,,,,,,,,,,,,,,,,,,,,,,,,,,,,,,,,,,,,,,,,,,946.4979776004329,None,,,,,,,,,,,,,,,,,,,,,,,,,,,,,,,,,,,life,13,5,sing,blue,944.4923882000148,None,None,944.4923882000148,None,,,,,,,,,,,,,,,,,,,,,,,,,,,,,,44,001,2023_Apr_19_1031,ExactRep-v3-final,2021.2.3,59.88181729356552,
,,,,,,,,5,0,5,0,,,,,,,,,,,,,,,,,,,,,,,,,,,,,,,,,,,,,,,,,,,,,,,,,,,,,949.0172253996134,None,,,,,,,,,,,,,,,,,,,,,,,,,,,,,,,,,,,journal,95,6,aloud,red,947.0016515003517,None,None,947.0016515003517,None,,,,,,,,,,,,,,,,,,,,,,,,,,,,,,44,001,2023_Apr_19_1031,ExactRep-v3-final,2021.2.3,59.88181729356552,
,,,,,,,,6,0,6,0,,,,,,,,,,,,,,,,,,,,,,,,,,,,,,,,,,,,,,,,,,,,,,,,,,,,,951.5362267997116,None,,,,,,,,,,,,,,,,,,,,,,,,,,,,,,,,,,,rock,113,7,aloud,red,949.5223904000595,None,None,949.5223904000595,None,,,,,,,,,,,,,,,,,,,,,,,,,,,,,,44,001,2023_Apr_19_1031,ExactRep-v3-final,2021.2.3,59.88181729356552,
,,,,,,,,7,0,7,0,,,,,,,,,,,,,,,,,,,,,,,,,,,,,,,,,,,,,,,,,,,,,,,,,,,,,954.0555985998362,None,,,,,,,,,,,,,,,,,,,,,,,,,,,,,,,,,,,street,56,8,silent,white,952.0428948998451,None,None,952.0428948998451,None,,,,,,,,,,,,,,,,,,,,,,,,,,,,,,44,001,2023_Apr_19_1031,ExactRep-v3-final,2021.2.3,59.88181729356552,
,,,,,,,,8,0,8,0,,,,,,,,,,,,,,,,,,,,,,,,,,,,,,,,,,,,,,,,,,,,,,,,,,,,,956.5580578995869,None,,,,,,,,,,,,,,,,,,,,,,,,,,,,,,,,,,,product,53,9,silent,white,954.5583627000451,None,None,954.5583627000451,None,,,,,,,,,,,,,,,,,,,,,,,,,,,,,,44,001,2023_Apr_19_1031,ExactRep-v3-final,2021.2.3,59.88181729356552,
,,,,,,,,9,0,9,0,,,,,,,,,,,,,,,,,,,,,,,,,,,,,,,,,,,,,,,,,,,,,,,,,,,,,959.0772104002535,None,,,,,,,,,,,,,,,,,,,,,,,,,,,,,,,,,,,shadow,2,10,sing,blue,957.0644965004176,None,None,957.0644965004176,None,,,,,,,,,,,,,,,,,,,,,,,,,,,,,,44,001,2023_Apr_19_1031,ExactRep-v3-final,2021.2.3,59.88181729356552,
,,,,,,,,10,0,10,0,,,,,,,,,,,,,,,,,,,,,,,,,,,,,,,,,,,,,,,,,,,,,,,,,,,,,961.5962688997388,None,,,,,,,,,,,,,,,,,,,,,,,,,,,,,,,,,,,style,24,11,sing,blue,959.5813661003485,None,None,959.5813661003485,None,,,,,,,,,,,,,,,,,,,,,,,,,,,,,,44,001,2023_Apr_19_1031,ExactRep-v3-final,2021.2.3,59.88181729356552,
,,,,,,,,11,0,11,0,,,,,,,,,,,,,,,,,,,,,,,,,,,,,,,,,,,,,,,,,,,,,,,,,,,,,964.099318199791,None,,,,,,,,,,,,,,,,,,,,,,,,,,,,,,,,,,,fortune,76,12,silent,white,962.0983961001039,None,None,962.0983961001039,None,,,,,,,,,,,,,,,,,,,,,,,,,,,,,,44,001,2023_Apr_19_1031,ExactRep-v3-final,2021.2.3,59.88181729356552,
,,,,,,,,12,0,12,0,,,,,,,,,,,,,,,,,,,,,,,,,,,,,,,,,,,,,,,,,,,,,,,,,,,,,966.6014029998332,None,,,,,,,,,,,,,,,,,,,,,,,,,,,,,,,,,,,ability,92,13,aloud,red,964.6008257996291,None,None,964.6008257996291,None,,,,,,,,,,,,,,,,,,,,,,,,,,,,,,44,001,2023_Apr_19_1031,ExactRep-v3-final,2021.2.3,59.88181729356552,
,,,,,,,,13,0,13,0,,,,,,,,,,,,,,,,,,,,,,,,,,,,,,,,,,,,,,,,,,,,,,,,,,,,,969.1039303001016,None,,,,,,,,,,,,,,,,,,,,,,,,,,,,,,,,,,,paper,112,14,aloud,red,967.1033222004771,None,None,967.1033222004771,None,,,,,,,,,,,,,,,,,,,,,,,,,,,,,,44,001,2023_Apr_19_1031,ExactRep-v3-final,2021.2.3,59.88181729356552,
,,,,,,,,14,0,14,0,,,,,,,,,,,,,,,,,,,,,,,,,,,,,,,,,,,,,,,,,,,,,,,,,,,,,971.6065809996799,None,,,,,,,,,,,,,,,,,,,,,,,,,,,,,,,,,,,dust,85,15,aloud,red,969.60653620027,None,None,969.60653620027,None,,,,,,,,,,,,,,,,,,,,,,,,,,,,,,44,001,2023_Apr_19_1031,ExactRep-v3-final,2021.2.3,59.88181729356552,
,,,,,,,,15,0,15,0,,,,,,,,,,,,,,,,,,,,,,,,,,,,,,,,,,,,,,,,,,,,,,,,,,,,,974.1087338002399,None,,,,,,,,,,,,,,,,,,,,,,,,,,,,,,,,,,,wife,46,16,silent,white,972.1083469996229,None,None,972.1083469996229,None,,,,,,,,,,,,,,,,,,,,,,,,,,,,,,44,001,2023_Apr_19_1031,ExactRep-v3-final,2021.2.3,59.88181729356552,
,,,,,,,,16,0,16,0,,,,,,,,,,,,,,,,,,,,,,,,,,,,,,,,,,,,,,,,,,,,,,,,,,,,,976.628010599874,None,,,,,,,,,,,,,,,,,,,,,,,,,,,,,,,,,,,board,94,17,aloud,red,974.6187319997698,None,None,974.6187319997698,None,,,,,,,,,,,,,,,,,,,,,,,,,,,,,,44,001,2023_Apr_19_1031,ExactRep-v3-final,2021.2.3,59.88181729356552,
,,,,,,,,17,0,17,0,,,,,,,,,,,,,,,,,,,,,,,,,,,,,,,,,,,,,,,,,,,,,,,,,,,,,979.130607499741,None,,,,,,,,,,,,,,,,,,,,,,,,,,,,,,,,,,,dawn,65,18,silent,white,977.1284878998995,None,None,977.1284878998995,None,,,,,,,,,,,,,,,,,,,,,,,,,,,,,,44,001,2023_Apr_19_1031,ExactRep-v3-final,2021.2.3,59.88181729356552,
,,,,,,,,18,0,18,0,,,,,,,,,,,,,,,,,,,,,,,,,,,,,,,,,,,,,,,,,,,,,,,,,,,,,981.633158300072,None,,,,,,,,,,,,,,,,,,,,,,,,,,,,,,,,,,,money,52,19,silent,white,979.6325995996594,None,None,979.6325995996594,None,,,,,,,,,,,,,,,,,,,,,,,,,,,,,,44,001,2023_Apr_19_1031,ExactRep-v3-final,2021.2.3,59.88181729356552,
,,,,,,,,19,0,19,0,,,,,,,,,,,,,,,,,,,,,,,,,,,,,,,,,,,,,,,,,,,,,,,,,,,,,984.1523412000388,None,,,,,,,,,,,,,,,,,,,,,,,,,,,,,,,,,,,season,55,20,silent,white,982.1378646995872,None,None,982.1378646995872,None,,,,,,,,,,,,,,,,,,,,,,,,,,,,,,44,001,2023_Apr_19_1031,ExactRep-v3-final,2021.2.3,59.88181729356552,
,,,,,,,,20,0,20,0,,,,,,,,,,,,,,,,,,,,,,,,,,,,,,,,,,,,,,,,,,,,,,,,,,,,,986.6714730998501,None,,,,,,,,,,,,,,,,,,,,,,,,,,,,,,,,,,,judge,51,21,silent,white,984.6587754003704,None,None,984.6587754003704,None,,,,,,,,,,,,,,,,,,,,,,,,,,,,,,44,001,2023_Apr_19_1031,ExactRep-v3-final,2021.2.3,59.88181729356552,
,,,,,,,,21,0,21,0,,,,,,,,,,,,,,,,,,,,,,,,,,,,,,,,,,,,,,,,,,,,,,,,,,,,,989.1904646996409,None,,,,,,,,,,,,,,,,,,,,,,,,,,,,,,,,,,,gold,31,22,sing,blue,987.1748475003988,None,None,987.1748475003988,None,,,,,,,,,,,,,,,,,,,,,,,,,,,,,,44,001,2023_Apr_19_1031,ExactRep-v3-final,2021.2.3,59.88181729356552,
,,,,,,,,22,0,22,0,,,,,,,,,,,,,,,,,,,,,,,,,,,,,,,,,,,,,,,,,,,,,,,,,,,,,991.692997300066,None,,,,,,,,,,,,,,,,,,,,,,,,,,,,,,,,,,,nail,40,23,silent,white,989.6910247998312,None,None,989.6910247998312,None,,,,,,,,,,,,,,,,,,,,,,,,,,,,,,44,001,2023_Apr_19_1031,ExactRep-v3-final,2021.2.3,59.88181729356552,
,,,,,,,,23,0,23,0,,,,,,,,,,,,,,,,,,,,,,,,,,,,,,,,,,,,,,,,,,,,,,,,,,,,,994.2123689996079,None,,,,,,,,,,,,,,,,,,,,,,,,,,,,,,,,,,,method,8,24,sing,blue,992.2020723996684,None,None,992.2020723996684,None,,,,,,,,,,,,,,,,,,,,,,,,,,,,,,44,001,2023_Apr_19_1031,ExactRep-v3-final,2021.2.3,59.88181729356552,
,,,,,,,,24,0,24,0,,,,,,,,,,,,,,,,,,,,,,,,,,,,,,,,,,,,,,,,,,,,,,,,,,,,,996.7148975003511,None,,,,,,,,,,,,,,,,,,,,,,,,,,,,,,,,,,,length,73,25,silent,white,994.7139427997172,None,None,994.7139427997172,None,,,,,,,,,,,,,,,,,,,,,,,,,,,,,,44,001,2023_Apr_19_1031,ExactRep-v3-final,2021.2.3,59.88181729356552,
,,,,,,,,25,0,25,0,,,,,,,,,,,,,,,,,,,,,,,,,,,,,,,,,,,,,,,,,,,,,,,,,,,,,999.2174071995541,None,,,,,,,,,,,,,,,,,,,,,,,,,,,,,,,,,,,leader,109,26,aloud,red,997.2168343998492,None,None,997.2168343998492,None,,,,,,,,,,,,,,,,,,,,,,,,,,,,,,44,001,2023_Apr_19_1031,ExactRep-v3-final,2021.2.3,59.88181729356552,
,,,,,,,,26,0,26,0,,,,,,,,,,,,,,,,,,,,,,,,,,,,,,,,,,,,,,,,,,,,,,,,,,,,,1001.7367025995627,None,,,,,,,,,,,,,,,,,,,,,,,,,,,,,,,,,,,circle,82,27,aloud,red,999.7250733999535,None,None,999.7250733999535,None,,,,,,,,,,,,,,,,,,,,,,,,,,,,,,44,001,2023_Apr_19_1031,ExactRep-v3-final,2021.2.3,59.88181729356552,
,,,,,,,,27,0,27,0,,,,,,,,,,,,,,,,,,,,,,,,,,,,,,,,,,,,,,,,,,,,,,,,,,,,,1004.2391117000952,None,,,,,,,,,,,,,,,,,,,,,,,,,,,,,,,,,,,colony,79,28,sing,blue,1002.2368876002729,None,None,1002.2368876002729,None,,,,,,,,,,,,,,,,,,,,,,,,,,,,,,44,001,2023_Apr_19_1031,ExactRep-v3-final,2021.2.3,59.88181729356552,
,,,,,,,,28,0,28,0,,,,,,,,,,,,,,,,,,,,,,,,,,,,,,,,,,,,,,,,,,,,,,,,,,,,,1006.7415465004742,None,,,,,,,,,,,,,,,,,,,,,,,,,,,,,,,,,,,disease,72,29,silent,white,1004.7410987997428,None,None,1004.7410987997428,None,,,,,,,,,,,,,,,,,,,,,,,,,,,,,,44,001,2023_Apr_19_1031,ExactRep-v3-final,2021.2.3,59.88181729356552,
,,,,,,,,29,0,29,0,,,,,,,,,,,,,,,,,,,,,,,,,,,,,,,,,,,,,,,,,,,,,,,,,,,,,1009.2440683003515,None,,,,,,,,,,,,,,,,,,,,,,,,,,,,,,,,,,,green,78,30,silent,white,1007.2432823004201,None,None,1007.2432823004201,None,,,,,,,,,,,,,,,,,,,,,,,,,,,,,,44,001,2023_Apr_19_1031,ExactRep-v3-final,2021.2.3,59.88181729356552,
,,,,,,,,30,0,30,0,,,,,,,,,,,,,,,,,,,,,,,,,,,,,,,,,,,,,,,,,,,,,,,,,,,,,1011.7632173998281,None,,,,,,,,,,,,,,,,,,,,,,,,,,,,,,,,,,,temple,81,31,aloud,red,1009.7640685001388,None,None,1009.7640685001388,None,,,,,,,,,,,,,,,,,,,,,,,,,,,,,,44,001,2023_Apr_19_1031,ExactRep-v3-final,2021.2.3,59.88181729356552,
,,,,,,,,31,0,31,0,,,,,,,,,,,,,,,,,,,,,,,,,,,,,,,,,,,,,,,,,,,,,,,,,,,,,1014.265701700002,None,,,,,,,,,,,,,,,,,,,,,,,,,,,,,,,,,,,insect,6,32,sing,blue,1012.2637147996575,None,None,1012.2637147996575,None,,,,,,,,,,,,,,,,,,,,,,,,,,,,,,44,001,2023_Apr_19_1031,ExactRep-v3-final,2021.2.3,59.88181729356552,
,,,,,,,,32,0,32,0,,,,,,,,,,,,,,,,,,,,,,,,,,,,,,,,,,,,,,,,,,,,,,,,,,,,,1016.7682036999613,None,,,,,,,,,,,,,,,,,,,,,,,,,,,,,,,,,,,soul,27,33,sing,blue,1014.7661471003667,None,None,1014.7661471003667,None,,,,,,,,,,,,,,,,,,,,,,,,,,,,,,44,001,2023_Apr_19_1031,ExactRep-v3-final,2021.2.3,59.88181729356552,
,,,,,,,,33,0,33,0,,,,,,,,,,,,,,,,,,,,,,,,,,,,,,,,,,,,,,,,,,,,,,,,,,,,,1019.2707545002922,None,,,,,,,,,,,,,,,,,,,,,,,,,,,,,,,,,,,meeting,28,34,sing,blue,1017.2716156002134,None,None,1017.2716156002134,None,,,,,,,,,,,,,,,,,,,,,,,,,,,,,,44,001,2023_Apr_19_1031,ExactRep-v3-final,2021.2.3,59.88181729356552,
,,,,,,,,34,0,34,0,,,,,,,,,,,,,,,,,,,,,,,,,,,,,,,,,,,,,,,,,,,,,,,,,,,,,1021.77324699983,None,,,,,,,,,,,,,,,,,,,,,,,,,,,,,,,,,,,chief,64,35,silent,white,1019.7740805996582,None,None,1019.7740805996582,None,,,,,,,,,,,,,,,,,,,,,,,,,,,,,,44,001,2023_Apr_19_1031,ExactRep-v3-final,2021.2.3,59.88181729356552,
,,,,,,,,35,0,35,0,,,,,,,,,,,,,,,,,,,,,,,,,,,,,,,,,,,,,,,,,,,,,,,,,,,,,1024.2924394002184,None,,,,,,,,,,,,,,,,,,,,,,,,,,,,,,,,,,,history,10,36,sing,blue,1022.2800534004346,None,None,1022.2800534004346,None,,,,,,,,,,,,,,,,,,,,,,,,,,,,,,44,001,2023_Apr_19_1031,ExactRep-v3-final,2021.2.3,59.88181729356552,
,,,,,,,,36,0,36,0,,,,,,,,,,,,,,,,,,,,,,,,,,,,,,,,,,,,,,,,,,,,,,,,,,,,,1026.8114772997797,None,,,,,,,,,,,,,,,,,,,,,,,,,,,,,,,,,,,vessel,32,37,sing,blue,1024.7997113000602,None,None,1024.7997113000602,None,,,,,,,,,,,,,,,,,,,,,,,,,,,,,,44,001,2023_Apr_19_1031,ExactRep-v3-final,2021.2.3,59.88181729356552,
,,,,,,,,37,0,37,0,,,,,,,,,,,,,,,,,,,,,,,,,,,,,,,,,,,,,,,,,,,,,,,,,,,,,1029.314152000472,None,,,,,,,,,,,,,,,,,,,,,,,,,,,,,,,,,,,safety,61,38,silent,white,1027.3119871998206,None,None,1027.3119871998206,None,,,,,,,,,,,,,,,,,,,,,,,,,,,,,,44,001,2023_Apr_19_1031,ExactRep-v3-final,2021.2.3,59.88181729356552,
,,,,,,,,38,0,38,0,,,,,,,,,,,,,,,,,,,,,,,,,,,,,,,,,,,,,,,,,,,,,,,,,,,,,1031.8166162995622,None,,,,,,,,,,,,,,,,,,,,,,,,,,,,,,,,,,,bar,62,39,silent,white,1029.8146772999316,None,None,1029.8146772999316,None,,,,,,,,,,,,,,,,,,,,,,,,,,,,,,44,001,2023_Apr_19_1031,ExactRep-v3-final,2021.2.3,59.88181729356552,
,,,,,,,,39,0,39,0,,,,,,,,,,,,,,,,,,,,,,,,,,,,,,,,,,,,,,,,,,,,,,,,,,,,,1034.319189099595,None,,,,,,,,,,,,,,,,,,,,,,,,,,,,,,,,,,,breast,63,40,silent,white,1032.318411800079,None,None,1032.318411800079,None,,,,,,,,,,,,,,,,,,,,,,,,,,,,,,44,001,2023_Apr_19_1031,ExactRep-v3-final,2021.2.3,59.88181729356552,
,,,,,,,,40,0,40,0,,,,,,,,,,,,,,,,,,,,,,,,,,,,,,,,,,,,,,,,,,,,,,,,,,,,,1036.838325300254,None,,,,,,,,,,,,,,,,,,,,,,,,,,,,,,,,,,,virtue,75,41,silent,white,1034.8267029002309,None,None,1034.8267029002309,None,,,,,,,,,,,,,,,,,,,,,,,,,,,,,,44,001,2023_Apr_19_1031,ExactRep-v3-final,2021.2.3,59.88181729356552,
,,,,,,,,41,0,41,0,,,,,,,,,,,,,,,,,,,,,,,,,,,,,,,,,,,,,,,,,,,,,,,,,,,,,1039.3575400998816,None,,,,,,,,,,,,,,,,,,,,,,,,,,,,,,,,,,,dream,91,42,aloud,red,1037.3453610995784,None,None,1037.3453610995784,None,,,,,,,,,,,,,,,,,,,,,,,,,,,,,,44,001,2023_Apr_19_1031,ExactRep-v3-final,2021.2.3,59.88181729356552,
,,,,,,,,42,0,42,0,,,,,,,,,,,,,,,,,,,,,,,,,,,,,,,,,,,,,,,,,,,,,,,,,,,,,1041.8767892997712,None,,,,,,,,,,,,,,,,,,,,,,,,,,,,,,,,,,,diamond,114,43,aloud,red,1039.8684906000271,None,None,1039.8684906000271,None,,,,,,,,,,,,,,,,,,,,,,,,,,,,,,44,001,2023_Apr_19_1031,ExactRep-v3-final,2021.2.3,59.88181729356552,
,,,,,,,,43,0,43,0,,,,,,,,,,,,,,,,,,,,,,,,,,,,,,,,,,,,,,,,,,,,,,,,,,,,,1044.3793171998113,None,,,,,,,,,,,,,,,,,,,,,,,,,,,,,,,,,,,world,4,44,sing,blue,1042.3770583001897,None,None,1042.3770583001897,None,,,,,,,,,,,,,,,,,,,,,,,,,,,,,,44,001,2023_Apr_19_1031,ExactRep-v3-final,2021.2.3,59.88181729356552,
,,,,,,,,44,0,44,0,,,,,,,,,,,,,,,,,,,,,,,,,,,,,,,,,,,,,,,,,,,,,,,,,,,,,1046.8984193997458,None,,,,,,,,,,,,,,,,,,,,,,,,,,,,,,,,,,,shame,42,45,silent,white,1044.8864179998636,None,None,1044.8864179998636,None,,,,,,,,,,,,,,,,,,,,,,,,,,,,,,44,001,2023_Apr_19_1031,ExactRep-v3-final,2021.2.3,59.88181729356552,
,,,,,,,,45,0,45,0,,,,,,,,,,,,,,,,,,,,,,,,,,,,,,,,,,,,,,,,,,,,,,,,,,,,,1049.4008609997109,None,,,,,,,,,,,,,,,,,,,,,,,,,,,,,,,,,,,prison,12,46,sing,blue,1047.3987464997917,None,None,1047.3987464997917,None,,,,,,,,,,,,,,,,,,,,,,,,,,,,,,44,001,2023_Apr_19_1031,ExactRep-v3-final,2021.2.3,59.88181729356552,
,,,,,,,,46,0,46,0,,,,,,,,,,,,,,,,,,,,,,,,,,,,,,,,,,,,,,,,,,,,,,,,,,,,,1051.9033618001267,None,,,,,,,,,,,,,,,,,,,,,,,,,,,,,,,,,,,storm,25,47,sing,blue,1049.9027570998296,None,None,1049.9027570998296,None,,,,,,,,,,,,,,,,,,,,,,,,,,,,,,44,001,2023_Apr_19_1031,ExactRep-v3-final,2021.2.3,59.88181729356552,
,,,,,,,,47,0,47,0,,,,,,,,,,,,,,,,,,,,,,,,,,,,,,,,,,,,,,,,,,,,,,,,,,,,,1054.405927799642,None,,,,,,,,,,,,,,,,,,,,,,,,,,,,,,,,,,,advice,29,48,sing,blue,1052.406701900065,None,None,1052.406701900065,None,,,,,,,,,,,,,,,,,,,,,,,,,,,,,,44,001,2023_Apr_19_1031,ExactRep-v3-final,2021.2.3,59.88181729356552,
,,,,,,,,48,0,48,0,,,,,,,,,,,,,,,,,,,,,,,,,,,,,,,,,,,,,,,,,,,,,,,,,,,,,1056.9084157999605,None,,,,,,,,,,,,,,,,,,,,,,,,,,,,,,,,,,,army,69,49,silent,white,1054.9087078003213,None,None,1054.9087078003213,None,,,,,,,,,,,,,,,,,,,,,,,,,,,,,,44,001,2023_Apr_19_1031,ExactRep-v3-final,2021.2.3,59.88181729356552,
,,,,,,,,49,0,49,0,,,,,,,,,,,,,,,,,,,,,,,,,,,,,,,,,,,,,,,,,,,,,,,,,,,,,1059.4110348997638,None,,,,,,,,,,,,,,,,,,,,,,,,,,,,,,,,,,,child,18,50,sing,blue,1057.411655800417,None,None,1057.411655800417,None,,,,,,,,,,,,,,,,,,,,,,,,,,,,,,44,001,2023_Apr_19_1031,ExactRep-v3-final,2021.2.3,59.88181729356552,
,,,,,,,,50,0,50,0,,,,,,,,,,,,,,,,,,,,,,,,,,,,,,,,,,,,,,,,,,,,,,,,,,,,,1061.9299606001005,None,,,,,,,,,,,,,,,,,,,,,,,,,,,,,,,,,,,hide,104,51,aloud,red,1059.9146328000352,None,None,1059.9146328000352,None,,,,,,,,,,,,,,,,,,,,,,,,,,,,,,44,001,2023_Apr_19_1031,ExactRep-v3-final,2021.2.3,59.88181729356552,
,,,,,,,,51,0,51,0,,,,,,,,,,,,,,,,,,,,,,,,,,,,,,,,,,,,,,,,,,,,,,,,,,,,,1064.432493600063,None,,,,,,,,,,,,,,,,,,,,,,,,,,,,,,,,,,,skin,57,52,silent,white,1062.4315638998523,None,None,1062.4315638998523,None,,,,,,,,,,,,,,,,,,,,,,,,,,,,,,44,001,2023_Apr_19_1031,ExactRep-v3-final,2021.2.3,59.88181729356552,
,,,,,,,,52,0,52,0,,,,,,,,,,,,,,,,,,,,,,,,,,,,,,,,,,,,,,,,,,,,,,,,,,,,,1066.9516797000542,None,,,,,,,,,,,,,,,,,,,,,,,,,,,,,,,,,,,flood,100,53,aloud,red,1064.9436526997015,None,None,1064.9436526997015,None,,,,,,,,,,,,,,,,,,,,,,,,,,,,,,44,001,2023_Apr_19_1031,ExactRep-v3-final,2021.2.3,59.88181729356552,
,,,,,,,,53,0,53,0,,,,,,,,,,,,,,,,,,,,,,,,,,,,,,,,,,,,,,,,,,,,,,,,,,,,,1069.4542706003413,None,,,,,,,,,,,,,,,,,,,,,,,,,,,,,,,,,,,party,60,54,silent,white,1067.4534828998148,None,None,1067.4534828998148,None,,,,,,,,,,,,,,,,,,,,,,,,,,,,,,44,001,2023_Apr_19_1031,ExactRep-v3-final,2021.2.3,59.88181729356552,
,,,,,,,,54,0,54,0,,,,,,,,,,,,,,,,,,,,,,,,,,,,,,,,,,,,,,,,,,,,,,,,,,,,,1071.9568109000102,None,,,,,,,,,,,,,,,,,,,,,,,,,,,,,,,,,,,dress,48,55,silent,white,1069.9562537996098,None,None,1069.9562537996098,None,,,,,,,,,,,,,,,,,,,,,,,,,,,,,,44,001,2023_Apr_19_1031,ExactRep-v3-final,2021.2.3,59.88181729356552,
,,,,,,,,55,0,55,0,,,,,,,,,,,,,,,,,,,,,,,,,,,,,,,,,,,,,,,,,,,,,,,,,,,,,1074.4760395996273,None,,,,,,,,,,,,,,,,,,,,,,,,,,,,,,,,,,,coin,22,56,sing,blue,1072.463003899902,None,None,1072.463003899902,None,,,,,,,,,,,,,,,,,,,,,,,,,,,,,,44,001,2023_Apr_19_1031,ExactRep-v3-final,2021.2.3,59.88181729356552,
,,,,,,,,56,0,56,0,,,,,,,,,,,,,,,,,,,,,,,,,,,,,,,,,,,,,,,,,,,,,,,,,,,,,1076.978308999911,None,,,,,,,,,,,,,,,,,,,,,,,,,,,,,,,,,,,body,70,57,silent,white,1074.979058000259,None,None,1074.979058000259,None,,,,,,,,,,,,,,,,,,,,,,,,,,,,,,44,001,2023_Apr_19_1031,ExactRep-v3-final,2021.2.3,59.88181729356552,
,,,,,,,,57,0,57,0,,,,,,,,,,,,,,,,,,,,,,,,,,,,,,,,,,,,,,,,,,,,,,,,,,,,,1079.4974849000573,None,,,,,,,,,,,,,,,,,,,,,,,,,,,,,,,,,,,shoes,50,58,silent,white,1077.488467199728,None,None,1077.488467199728,None,,,,,,,,,,,,,,,,,,,,,,,,,,,,,,44,001,2023_Apr_19_1031,ExactRep-v3-final,2021.2.3,59.88181729356552,
,,,,,,,,58,0,58,0,,,,,,,,,,,,,,,,,,,,,,,,,,,,,,,,,,,,,,,,,,,,,,,,,,,,,1082.0001467000693,None,,,,,,,,,,,,,,,,,,,,,,,,,,,,,,,,,,,person,68,59,silent,white,1079.998011900112,None,None,1079.998011900112,None,,,,,,,,,,,,,,,,,,,,,,,,,,,,,,44,001,2023_Apr_19_1031,ExactRep-v3-final,2021.2.3,59.88181729356552,
,,,,,,,,59,0,59,0,,,,,,,,,,,,,,,,,,,,,,,,,,,,,,,,,,,,,,,,,,,,,,,,,,,,,1084.519178999588,None,,,,,,,,,,,,,,,,,,,,,,,,,,,,,,,,,,,ship,23,60,sing,blue,1082.506873499602,None,None,1082.506873499602,None,,,,,,,,,,,,,,,,,,,,,,,,,,,,,,44,001,2023_Apr_19_1031,ExactRep-v3-final,2021.2.3,59.88181729356552,
,,,,,,,,60,0,60,0,,,,,,,,,,,,,,,,,,,,,,,,,,,,,,,,,,,,,,,,,,,,,,,,,,,,,1087.0385108999908,None,,,,,,,,,,,,,,,,,,,,,,,,,,,,,,,,,,,murder,66,61,silent,white,1085.0237881001085,None,None,1085.0237881001085,None,,,,,,,,,,,,,,,,,,,,,,,,,,,,,,44,001,2023_Apr_19_1031,ExactRep-v3-final,2021.2.3,59.88181729356552,
,,,,,,,,61,0,61,0,,,,,,,,,,,,,,,,,,,,,,,,,,,,,,,,,,,,,,,,,,,,,,,,,,,,,1089.541102499701,None,,,,,,,,,,,,,,,,,,,,,,,,,,,,,,,,,,,fate,115,62,aloud,red,1087.5388446003199,None,None,1087.5388446003199,None,,,,,,,,,,,,,,,,,,,,,,,,,,,,,,44,001,2023_Apr_19_1031,ExactRep-v3-final,2021.2.3,59.88181729356552,
,,,,,,,,62,0,62,0,,,,,,,,,,,,,,,,,,,,,,,,,,,,,,,,,,,,,,,,,,,,,,,,,,,,,1092.0602708002552,None,,,,,,,,,,,,,,,,,,,,,,,,,,,,,,,,,,,love,103,63,aloud,red,1090.0448297001421,None,None,1090.0448297001421,None,,,,,,,,,,,,,,,,,,,,,,,,,,,,,,44,001,2023_Apr_19_1031,ExactRep-v3-final,2021.2.3,59.88181729356552,
,,,,,,,,63,0,63,0,,,,,,,,,,,,,,,,,,,,,,,,,,,,,,,,,,,,,,,,,,,,,,,,,,,,,1094.5792218996212,None,,,,,,,,,,,,,,,,,,,,,,,,,,,,,,,,,,,thought,33,64,sing,blue,1092.5692087002099,None,None,1092.5692087002099,None,,,,,,,,,,,,,,,,,,,,,,,,,,,,,,44,001,2023_Apr_19_1031,ExactRep-v3-final,2021.2.3,59.88181729356552,
,,,,,,,,64,0,64,0,,,,,,,,,,,,,,,,,,,,,,,,,,,,,,,,,,,,,,,,,,,,,,,,,,,,,1097.0818499000743,None,,,,,,,,,,,,,,,,,,,,,,,,,,,,,,,,,,,poet,77,65,silent,white,1095.0798666002229,None,None,1095.0798666002229,None,,,,,,,,,,,,,,,,,,,,,,,,,,,,,,44,001,2023_Apr_19_1031,ExactRep-v3-final,2021.2.3,59.88181729356552,
,,,,,,,,65,0,65,0,,,,,,,,,,,,,,,,,,,,,,,,,,,,,,,,,,,,,,,,,,,,,,,,,,,,,1099.5844774004072,None,,,,,,,,,,,,,,,,,,,,,,,,,,,,,,,,,,,freedom,39,66,silent,white,1097.5828288998455,None,None,1097.5828288998455,None,,,,,,,,,,,,,,,,,,,,,,,,,,,,,,44,001,2023_Apr_19_1031,ExactRep-v3-final,2021.2.3,59.88181729356552,
,,,,,,,,66,0,66,0,,,,,,,,,,,,,,,,,,,,,,,,,,,,,,,,,,,,,,,,,,,,,,,,,,,,,1102.1036425996572,None,,,,,,,,,,,,,,,,,,,,,,,,,,,,,,,,,,,crime,83,67,aloud,red,1100.090518699959,None,None,1100.090518699959,None,,,,,,,,,,,,,,,,,,,,,,,,,,,,,,44,001,2023_Apr_19_1031,ExactRep-v3-final,2021.2.3,59.88181729356552,
,,,,,,,,67,0,67,0,,,,,,,,,,,,,,,,,,,,,,,,,,,,,,,,,,,,,,,,,,,,,,,,,,,,,1104.622748600319,None,,,,,,,,,,,,,,,,,,,,,,,,,,,,,,,,,,,mind,36,68,sing,blue,1102.6090561002493,None,None,1102.6090561002493,None,,,,,,,,,,,,,,,,,,,,,,,,,,,,,,44,001,2023_Apr_19_1031,ExactRep-v3-final,2021.2.3,59.88181729356552,
,,,,,,,,68,0,68,0,,,,,,,,,,,,,,,,,,,,,,,,,,,,,,,,,,,,,,,,,,,,,,,,,,,,,1107.1252779997885,None,,,,,,,,,,,,,,,,,,,,,,,,,,,,,,,,,,,metal,49,69,silent,white,1105.123117200099,None,None,1105.123117200099,None,,,,,,,,,,,,,,,,,,,,,,,,,,,,,,44,001,2023_Apr_19_1031,ExactRep-v3-final,2021.2.3,59.88181729356552,
,,,,,,,,69,0,69,0,,,,,,,,,,,,,,,,,,,,,,,,,,,,,,,,,,,,,,,,,,,,,,,,,,,,,1109.627750299871,None,,,,,,,,,,,,,,,,,,,,,,,,,,,,,,,,,,,woods,58,70,silent,white,1107.628605700098,None,None,1107.628605700098,None,,,,,,,,,,,,,,,,,,,,,,,,,,,,,,44,001,2023_Apr_19_1031,ExactRep-v3-final,2021.2.3,59.88181729356552,
,,,,,,,,70,0,70,0,,,,,,,,,,,,,,,,,,,,,,,,,,,,,,,,,,,,,,,,,,,,,,,,,,,,,1112.1302404999733,None,,,,,,,,,,,,,,,,,,,,,,,,,,,,,,,,,,,health,1,71,sing,blue,1110.1284908996895,None,None,1110.1284908996895,None,,,,,,,,,,,,,,,,,,,,,,,,,,,,,,44,001,2023_Apr_19_1031,ExactRep-v3-final,2021.2.3,59.88181729356552,
,,,,,,,,71,0,71,0,,,,,,,,,,,,,,,,,,,,,,,,,,,,,,,,,,,,,,,,,,,,,,,,,,,,,1114.6327858995646,None,,,,,,,,,,,,,,,,,,,,,,,,,,,,,,,,,,,pipe,45,72,silent,white,1112.6315967002884,None,None,1112.6315967002884,None,,,,,,,,,,,,,,,,,,,,,,,,,,,,,,44,001,2023_Apr_19_1031,ExactRep-v3-final,2021.2.3,59.88181729356552,
,,,,,,,,72,0,72,0,,,,,,,,,,,,,,,,,,,,,,,,,,,,,,,,,,,,,,,,,,,,,,,,,,,,,1117.1519964002073,None,,,,,,,,,,,,,,,,,,,,,,,,,,,,,,,,,,,shock,5,73,sing,blue,1115.1379482001066,None,None,1115.1379482001066,None,,,,,,,,,,,,,,,,,,,,,,,,,,,,,,44,001,2023_Apr_19_1031,ExactRep-v3-final,2021.2.3,59.88181729356552,
,,,,,,,,73,0,73,0,,,,,,,,,,,,,,,,,,,,,,,,,,,,,,,,,,,,,,,,,,,,,,,,,,,,,1119.6544559998438,None,,,,,,,,,,,,,,,,,,,,,,,,,,,,,,,,,,,devil,111,74,aloud,red,1117.6540697999299,None,None,1117.6540697999299,None,,,,,,,,,,,,,,,,,,,,,,,,,,,,,,44,001,2023_Apr_19_1031,ExactRep-v3-final,2021.2.3,59.88181729356552,
,,,,,,,,74,0,74,0,,,,,,,,,,,,,,,,,,,,,,,,,,,,,,,,,,,,,,,,,,,,,,,,,,,,,1122.157037500292,None,,,,,,,,,,,,,,,,,,,,,,,,,,,,,,,,,,,factory,3,75,sing,blue,1120.1548282997683,None,None,1120.1548282997683,None,,,,,,,,,,,,,,,,,,,,,,,,,,,,,,44,001,2023_Apr_19_1031,ExactRep-v3-final,2021.2.3,59.88181729356552,
,,,,,,,,75,0,75,0,,,,,,,,,,,,,,,,,,,,,,,,,,,,,,,,,,,,,,,,,,,,,,,,,,,,,1124.6763669997454,None,,,,,,,,,,,,,,,,,,,,,,,,,,,,,,,,,,,answer,30,76,sing,blue,1122.660721000284,None,None,1122.660721000284,None,,,,,,,,,,,,,,,,,,,,,,,,,,,,,,44,001,2023_Apr_19_1031,ExactRep-v3-final,2021.2.3,59.88181729356552,
,,,,,,,,76,0,76,0,,,,,,,,,,,,,,,,,,,,,,,,,,,,,,,,,,,,,,,,,,,,,,,,,,,,,1127.1954861003906,None,,,,,,,,,,,,,,,,,,,,,,,,,,,,,,,,,,,coffee,20,77,sing,blue,1125.1840430004522,None,None,1125.1840430004522,None,,,,,,,,,,,,,,,,,,,,,,,,,,,,,,44,001,2023_Apr_19_1031,ExactRep-v3-final,2021.2.3,59.88181729356552,
,,,,,,,,77,0,77,0,,,,,,,,,,,,,,,,,,,,,,,,,,,,,,,,,,,,,,,,,,,,,,,,,,,,,1129.6978954002261,None,,,,,,,,,,,,,,,,,,,,,,,,,,,,,,,,,,,bird,0,78,sing,blue,1127.6959119001403,None,None,1127.6959119001403,None,,,,,,,,,,,,,,,,,,,,,,,,,,,,,,44,001,2023_Apr_19_1031,ExactRep-v3-final,2021.2.3,59.88181729356552,
,,,,,,,,78,0,78,0,,,,,,,,,,,,,,,,,,,,,,,,,,,,,,,,,,,,,,,,,,,,,,,,,,,,,1132.2171924998984,None,,,,,,,,,,,,,,,,,,,,,,,,,,,,,,,,,,,fault,93,79,aloud,red,1130.204263200052,None,None,1130.204263200052,None,,,,,,,,,,,,,,,,,,,,,,,,,,,,,,44,001,2023_Apr_19_1031,ExactRep-v3-final,2021.2.3,59.88181729356552,
,,,,,,,,79,0,79,0,,,,,,,,,,,,,,,,,,,,,,,,,,,,,,,,,,,,,,,,,,,,,,,,,,,,,1134.7196840997785,None,,,,,,,,,,,,,,,,,,,,,,,,,,,,,,,,,,,king,116,80,aloud,red,1132.7173274001107,None,None,1132.7173274001107,None,,,,,,,,,,,,,,,,,,,,,,,,,,,,,,44,001,2023_Apr_19_1031,ExactRep-v3-final,2021.2.3,59.88181729356552,
,,,,,,,,80,0,80,0,,,,,,,,,,,,,,,,,,,,,,,,,,,,,,,,,,,,,,,,,,,,,,,,,,,,,1137.222029699944,None,,,,,,,,,,,,,,,,,,,,,,,,,,,,,,,,,,,origin,117,81,aloud,red,1135.2217118004337,None,None,1135.2217118004337,None,,,,,,,,,,,,,,,,,,,,,,,,,,,,,,44,001,2023_Apr_19_1031,ExactRep-v3-final,2021.2.3,59.88181729356552,
,,,,,,,,81,0,81,0,,,,,,,,,,,,,,,,,,,,,,,,,,,,,,,,,,,,,,,,,,,,,,,,,,,,,1139.7245661001652,None,,,,,,,,,,,,,,,,,,,,,,,,,,,,,,,,,,,winter,74,82,silent,white,1137.724286899902,None,None,1137.724286899902,None,,,,,,,,,,,,,,,,,,,,,,,,,,,,,,44,001,2023_Apr_19_1031,ExactRep-v3-final,2021.2.3,59.88181729356552,
,,,,,,,,82,0,82,0,,,,,,,,,,,,,,,,,,,,,,,,,,,,,,,,,,,,,,,,,,,,,,,,,,,,,1142.2271392997354,None,,,,,,,,,,,,,,,,,,,,,,,,,,,,,,,,,,,memory,35,83,sing,blue,1140.2268850002438,None,None,1140.2268850002438,None,,,,,,,,,,,,,,,,,,,,,,,,,,,,,,44,001,2023_Apr_19_1031,ExactRep-v3-final,2021.2.3,59.88181729356552,
,,,,,,,,83,0,83,0,,,,,,,,,,,,,,,,,,,,,,,,,,,,,,,,,,,,,,,,,,,,,,,,,,,,,1144.7462649997324,None,,,,,,,,,,,,,,,,,,,,,,,,,,,,,,,,,,,theory,17,84,sing,blue,1142.7322255000472,None,None,1142.7322255000472,None,,,,,,,,,,,,,,,,,,,,,,,,,,,,,,44,001,2023_Apr_19_1031,ExactRep-v3-final,2021.2.3,59.88181729356552,
,,,,,,,,84,0,84,0,,,,,,,,,,,,,,,,,,,,,,,,,,,,,,,,,,,,,,,,,,,,,,,,,,,,,1147.2486479002982,None,,,,,,,,,,,,,,,,,,,,,,,,,,,,,,,,,,,pupil,7,85,sing,blue,1145.2478296998888,None,None,1145.2478296998888,None,,,,,,,,,,,,,,,,,,,,,,,,,,,,,,44,001,2023_Apr_19_1031,ExactRep-v3-final,2021.2.3,59.88181729356552,
,,,,,,,,85,0,85,0,,,,,,,,,,,,,,,,,,,,,,,,,,,,,,,,,,,,,,,,,,,,,,,,,,,,,1149.7678963998333,None,,,,,,,,,,,,,,,,,,,,,,,,,,,,,,,,,,,amount,84,86,aloud,red,1147.7634968999773,None,None,1147.7634968999773,None,,,,,,,,,,,,,,,,,,,,,,,,,,,,,,44,001,2023_Apr_19_1031,ExactRep-v3-final,2021.2.3,59.88181729356552,
,,,,,,,,86,0,86,0,,,,,,,,,,,,,,,,,,,,,,,,,,,,,,,,,,,,,,,,,,,,,,,,,,,,,1152.2704493999481,None,,,,,,,,,,,,,,,,,,,,,,,,,,,,,,,,,,,passion,98,87,aloud,red,1150.2682902002707,None,None,1150.2682902002707,None,,,,,,,,,,,,,,,,,,,,,,,,,,,,,,44,001,2023_Apr_19_1031,ExactRep-v3-final,2021.2.3,59.88181729356552,
,,,,,,,,87,0,87,0,,,,,,,,,,,,,,,,,,,,,,,,,,,,,,,,,,,,,,,,,,,,,,,,,,,,,1154.7730355998501,None,,,,,,,,,,,,,,,,,,,,,,,,,,,,,,,,,,,corn,102,88,aloud,red,1152.7732368996367,None,None,1152.7732368996367,None,,,,,,,,,,,,,,,,,,,,,,,,,,,,,,44,001,2023_Apr_19_1031,ExactRep-v3-final,2021.2.3,59.88181729356552,
,,,,,,,,88,0,88,0,,,,,,,,,,,,,,,,,,,,,,,,,,,,,,,,,,,,,,,,,,,,,,,,,,,,,1157.291936200112,None,,,,,,,,,,,,,,,,,,,,,,,,,,,,,,,,,,,prayer,41,89,silent,white,1155.2830117996782,None,None,1155.2830117996782,None,,,,,,,,,,,,,,,,,,,,,,,,,,,,,,44,001,2023_Apr_19_1031,ExactRep-v3-final,2021.2.3,59.88181729356552,
,,,,,,,,89,0,89,0,,,,,,,,,,,,,,,,,,,,,,,,,,,,,,,,,,,,,,,,,,,,,,,,,,,,,1159.811343099922,None,,,,,,,,,,,,,,,,,,,,,,,,,,,,,,,,,,,cabin,38,90,sing,blue,1157.800198700279,None,None,1157.800198700279,None,,,,,,,,,,,,,,,,,,,,,,,,,,,,,,44,001,2023_Apr_19_1031,ExactRep-v3-final,2021.2.3,59.88181729356552,
,,,,,,,,90,0,90,0,,,,,,,,,,,,,,,,,,,,,,,,,,,,,,,,,,,,,,,,,,,,,,,,,,,,,1162.3144343998283,None,,,,,,,,,,,,,,,,,,,,,,,,,,,,,,,,,,,custom,86,91,aloud,red,1160.3142277002335,None,None,1160.3142277002335,None,,,,,,,,,,,,,,,,,,,,,,,,,,,,,,44,001,2023_Apr_19_1031,ExactRep-v3-final,2021.2.3,59.88181729356552,
,,,,,,,,91,0,91,0,,,,,,,,,,,,,,,,,,,,,,,,,,,,,,,,,,,,,,,,,,,,,,,,,,,,,1164.816439400427,None,,,,,,,,,,,,,,,,,,,,,,,,,,,,,,,,,,,tool,87,92,aloud,red,1162.8156503001228,None,None,1162.8156503001228,None,,,,,,,,,,,,,,,,,,,,,,,,,,,,,,44,001,2023_Apr_19_1031,ExactRep-v3-final,2021.2.3,59.88181729356552,
,,,,,,,,92,0,92,0,,,,,,,,,,,,,,,,,,,,,,,,,,,,,,,,,,,,,,,,,,,,,,,,,,,,,1167.3186774998903,None,,,,,,,,,,,,,,,,,,,,,,,,,,,,,,,,,,,troops,47,93,silent,white,1165.3183816997334,None,None,1165.3183816997334,None,,,,,,,,,,,,,,,,,,,,,,,,,,,,,,44,001,2023_Apr_19_1031,ExactRep-v3-final,2021.2.3,59.88181729356552,
,,,,,,,,93,0,93,0,,,,,,,,,,,,,,,,,,,,,,,,,,,,,,,,,,,,,,,,,,,,,,,,,,,,,1169.838005900383,None,,,,,,,,,,,,,,,,,,,,,,,,,,,,,,,,,,,form,21,94,sing,blue,1167.82523149997,None,None,1167.82523149997,None,,,,,,,,,,,,,,,,,,,,,,,,,,,,,,44,001,2023_Apr_19_1031,ExactRep-v3-final,2021.2.3,59.88181729356552,
,,,,,,,,94,0,94,0,,,,,,,,,,,,,,,,,,,,,,,,,,,,,,,,,,,,,,,,,,,,,,,,,,,,,1172.3405229002237,None,,,,,,,,,,,,,,,,,,,,,,,,,,,,,,,,,,,duty,99,95,aloud,red,1170.3412330001593,None,None,1170.3412330001593,None,,,,,,,,,,,,,,,,,,,,,,,,,,,,,,44,001,2023_Apr_19_1031,ExactRep-v3-final,2021.2.3,59.88181729356552,
,,,,,,,,95,0,95,0,,,,,,,,,,,,,,,,,,,,,,,,,,,,,,,,,,,,,,,,,,,,,,,,,,,,,1174.8596807997674,None,,,,,,,,,,,,,,,,,,,,,,,,,,,,,,,,,,,time,11,96,sing,blue,1172.8443849999458,None,None,1172.8443849999458,None,,,,,,,,,,,,,,,,,,,,,,,,,,,,,,44,001,2023_Apr_19_1031,ExactRep-v3-final,2021.2.3,59.88181729356552,
,,,,,,,,96,0,96,0,,,,,,,,,,,,,,,,,,,,,,,,,,,,,,,,,,,,,,,,,,,,,,,,,,,,,1177.3619601996616,None,,,,,,,,,,,,,,,,,,,,,,,,,,,,,,,,,,,beast,97,97,aloud,red,1175.3611899996176,None,None,1175.3611899996176,None,,,,,,,,,,,,,,,,,,,,,,,,,,,,,,44,001,2023_Apr_19_1031,ExactRep-v3-final,2021.2.3,59.88181729356552,
,,,,,,,,97,0,97,0,,,,,,,,,,,,,,,,,,,,,,,,,,,,,,,,,,,,,,,,,,,,,,,,,,,,,1179.8814132995903,None,,,,,,,,,,,,,,,,,,,,,,,,,,,,,,,,,,,valley,37,98,sing,blue,1177.867557999678,None,None,1177.867557999678,None,,,,,,,,,,,,,,,,,,,,,,,,,,,,,,44,001,2023_Apr_19_1031,ExactRep-v3-final,2021.2.3,59.88181729356552,
,,,,,,,,98,0,98,0,,,,,,,,,,,,,,,,,,,,,,,,,,,,,,,,,,,,,,,,,,,,,,,,,,,,,1182.4005993995816,None,,,,,,,,,,,,,,,,,,,,,,,,,,,,,,,,,,,earth,54,99,silent,white,1180.3868233002722,None,None,1180.3868233002722,None,,,,,,,,,,,,,,,,,,,,,,,,,,,,,,44,001,2023_Apr_19_1031,ExactRep-v3-final,2021.2.3,59.88181729356552,
,,,,,,,,99,0,99,0,,,,,,,,,,,,,,,,,,,,,,,,,,,,,,,,,,,,,,,,,,,,,,,,,,,,,1184.9198206001893,None,,,,,,,,,,,,,,,,,,,,,,,,,,,,,,,,,,,village,96,100,aloud,red,1182.9089059000835,None,None,1182.9089059000835,None,,,,,,,,,,,,,,,,,,,,,,,,,,,,,,44,001,2023_Apr_19_1031,ExactRep-v3-final,2021.2.3,59.88181729356552,
,,,,,,,,100,0,100,0,,,,,,,,,,,,,,,,,,,,,,,,,,,,,,,,,,,,,,,,,,,,,,,,,,,,,1187.4222777998075,None,,,,,,,,,,,,,,,,,,,,,,,,,,,,,,,,,,,quality,90,101,aloud,red,1185.422743299976,None,None,1185.422743299976,None,,,,,,,,,,,,,,,,,,,,,,,,,,,,,,44,001,2023_Apr_19_1031,ExactRep-v3-final,2021.2.3,59.88181729356552,
,,,,,,,,101,0,101,0,,,,,,,,,,,,,,,,,,,,,,,,,,,,,,,,,,,,,,,,,,,,,,,,,,,,,1189.9412216003984,None,,,,,,,,,,,,,,,,,,,,,,,,,,,,,,,,,,,blossom,101,102,aloud,red,1187.9297535996884,None,None,1187.9297535996884,None,,,,,,,,,,,,,,,,,,,,,,,,,,,,,,44,001,2023_Apr_19_1031,ExactRep-v3-final,2021.2.3,59.88181729356552,
,,,,,,,,102,0,102,0,,,,,,,,,,,,,,,,,,,,,,,,,,,,,,,,,,,,,,,,,,,,,,,,,,,,,1192.444006100297,None,,,,,,,,,,,,,,,,,,,,,,,,,,,,,,,,,,,water,14,103,sing,blue,1190.4429722996429,None,None,1190.4429722996429,None,,,,,,,,,,,,,,,,,,,,,,,,,,,,,,44,001,2023_Apr_19_1031,ExactRep-v3-final,2021.2.3,59.88181729356552,
,,,,,,,,103,0,103,0,,,,,,,,,,,,,,,,,,,,,,,,,,,,,,,,,,,,,,,,,,,,,,,,,,,,,1194.9462331002578,None,,,,,,,,,,,,,,,,,,,,,,,,,,,,,,,,,,,lad,118,104,aloud,red,1192.9451219001785,None,None,1192.9451219001785,None,,,,,,,,,,,,,,,,,,,,,,,,,,,,,,44,001,2023_Apr_19_1031,ExactRep-v3-final,2021.2.3,59.88181729356552,
,,,,,,,,104,0,104,0,,,,,,,,,,,,,,,,,,,,,,,,,,,,,,,,,,,,,,,,,,,,,,,,,,,,,1197.4655846003443,None,,,,,,,,,,,,,,,,,,,,,,,,,,,,,,,,,,,spirit,108,105,aloud,red,1195.4548463998362,None,None,1195.4548463998362,None,,,,,,,,,,,,,,,,,,,,,,,,,,,,,,44,001,2023_Apr_19_1031,ExactRep-v3-final,2021.2.3,59.88181729356552,
,,,,,,,,105,0,105,0,,,,,,,,,,,,,,,,,,,,,,,,,,,,,,,,,,,,,,,,,,,,,,,,,,,,,1199.9682219000533,None,,,,,,,,,,,,,,,,,,,,,,,,,,,,,,,,,,,hotel,71,106,silent,white,1197.966066500172,None,None,1197.966066500172,None,,,,,,,,,,,,,,,,,,,,,,,,,,,,,,44,001,2023_Apr_19_1031,ExactRep-v3-final,2021.2.3,59.88181729356552,
,,,,,,,,106,0,106,0,,,,,,,,,,,,,,,,,,,,,,,,,,,,,,,,,,,,,,,,,,,,,,,,,,,,,1202.470626000315,None,,,,,,,,,,,,,,,,,,,,,,,,,,,,,,,,,,,cotton,44,107,silent,white,1200.4713506000116,None,None,1200.4713506000116,None,,,,,,,,,,,,,,,,,,,,,,,,,,,,,,44,001,2023_Apr_19_1031,ExactRep-v3-final,2021.2.3,59.88181729356552,
,,,,,,,,107,0,107,0,,,,,,,,,,,,,,,,,,,,,,,,,,,,,,,,,,,,,,,,,,,,,,,,,,,,,1204.9730056999251,None,,,,,,,,,,,,,,,,,,,,,,,,,,,,,,,,,,,truth,34,108,sing,blue,1202.9725799998268,None,None,1202.9725799998268,None,,,,,,,,,,,,,,,,,,,,,,,,,,,,,,44,001,2023_Apr_19_1031,ExactRep-v3-final,2021.2.3,59.88181729356552,
,,,,,,,,108,0,108,0,,,,,,,,,,,,,,,,,,,,,,,,,,,,,,,,,,,,,,,,,,,,,,,,,,,,,1207.4922604998574,None,,,,,,,,,,,,,,,,,,,,,,,,,,,,,,,,,,,house,16,109,sing,blue,1205.4820689996704,None,None,1205.4820689996704,None,,,,,,,,,,,,,,,,,,,,,,,,,,,,,,44,001,2023_Apr_19_1031,ExactRep-v3-final,2021.2.3,59.88181729356552,
,,,,,,,,109,0,109,0,,,,,,,,,,,,,,,,,,,,,,,,,,,,,,,,,,,,,,,,,,,,,,,,,,,,,1210.0113254999742,None,,,,,,,,,,,,,,,,,,,,,,,,,,,,,,,,,,,fact,89,110,aloud,red,1207.996535600163,None,None,1207.996535600163,None,,,,,,,,,,,,,,,,,,,,,,,,,,,,,,44,001,2023_Apr_19_1031,ExactRep-v3-final,2021.2.3,59.88181729356552,
,,,,,,,,110,0,110,0,,,,,,,,,,,,,,,,,,,,,,,,,,,,,,,,,,,,,,,,,,,,,,,,,,,,,1212.5306404996663,None,,,,,,,,,,,,,,,,,,,,,,,,,,,,,,,,,,,justice,106,111,aloud,red,1210.5175257995725,None,None,1210.5175257995725,None,,,,,,,,,,,,,,,,,,,,,,,,,,,,,,44,001,2023_Apr_19_1031,ExactRep-v3-final,2021.2.3,59.88181729356552,
,,,,,,,,111,0,111,0,,,,,,,,,,,,,,,,,,,,,,,,,,,,,,,,,,,,,,,,,,,,,,,,,,,,,1215.0332319000736,None,,,,,,,,,,,,,,,,,,,,,,,,,,,,,,,,,,,ticket,105,112,aloud,red,1213.0322315003723,None,None,1213.0322315003723,None,,,,,,,,,,,,,,,,,,,,,,,,,,,,,,44,001,2023_Apr_19_1031,ExactRep-v3-final,2021.2.3,59.88181729356552,
,,,,,,,,112,0,112,0,,,,,,,,,,,,,,,,,,,,,,,,,,,,,,,,,,,,,,,,,,,,,,,,,,,,,1217.5355305997655,None,,,,,,,,,,,,,,,,,,,,,,,,,,,,,,,,,,,stone,119,113,aloud,red,1215.5335132004693,None,None,1215.5335132004693,None,,,,,,,,,,,,,,,,,,,,,,,,,,,,,,44,001,2023_Apr_19_1031,ExactRep-v3-final,2021.2.3,59.88181729356552,
,,,,,,,,113,0,113,0,,,,,,,,,,,,,,,,,,,,,,,,,,,,,,,,,,,,,,,,,,,,,,,,,,,,,1220.038240100257,None,,,,,,,,,,,,,,,,,,,,,,,,,,,,,,,,,,,car,26,114,sing,blue,1218.0360567001626,None,None,1218.0360567001626,None,,,,,,,,,,,,,,,,,,,,,,,,,,,,,,44,001,2023_Apr_19_1031,ExactRep-v3-final,2021.2.3,59.88181729356552,
,,,,,,,,114,0,114,0,,,,,,,,,,,,,,,,,,,,,,,,,,,,,,,,,,,,,,,,,,,,,,,,,,,,,1222.5407247003168,None,,,,,,,,,,,,,,,,,,,,,,,,,,,,,,,,,,,clock,107,115,aloud,red,1220.541679199785,None,None,1220.541679199785,None,,,,,,,,,,,,,,,,,,,,,,,,,,,,,,44,001,2023_Apr_19_1031,ExactRep-v3-final,2021.2.3,59.88181729356552,
,,,,,,,,115,0,115,0,,,,,,,,,,,,,,,,,,,,,,,,,,,,,,,,,,,,,,,,,,,,,,,,,,,,,1225.0432606004179,None,,,,,,,,,,,,,,,,,,,,,,,,,,,,,,,,,,,series,80,116,aloud,red,1223.0442596003413,None,None,1223.0442596003413,None,,,,,,,,,,,,,,,,,,,,,,,,,,,,,,44,001,2023_Apr_19_1031,ExactRep-v3-final,2021.2.3,59.88181729356552,
,,,,,,,,116,0,116,0,,,,,,,,,,,,,,,,,,,,,,,,,,,,,,,,,,,,,,,,,,,,,,,,,,,,,1227.5621256995946,None,,,,,,,,,,,,,,,,,,,,,,,,,,,,,,,,,,,victory,15,117,sing,blue,1225.547846100293,None,None,1225.547846100293,None,,,,,,,,,,,,,,,,,,,,,,,,,,,,,,44,001,2023_Apr_19_1031,ExactRep-v3-final,2021.2.3,59.88181729356552,
,,,,,,,,117,0,117,0,,,,,,,,,,,,,,,,,,,,,,,,,,,,,,,,,,,,,,,,,,,,,,,,,,,,,1230.0815604999661,None,,,,,,,,,,,,,,,,,,,,,,,,,,,,,,,,,,,chance,19,118,sing,blue,1228.0670579997823,None,None,1228.0670579997823,None,,,,,,,,,,,,,,,,,,,,,,,,,,,,,,44,001,2023_Apr_19_1031,ExactRep-v3-final,2021.2.3,59.88181729356552,
,,,,,,,,118,0,118,0,,,,,,,,,,,,,,,,,,,,,,,,,,,,,,,,,,,,,,,,,,,,,,,,,,,,,1232.6007303996012,None,,,,,,,,,,,,,,,,,,,,,,,,,,,,,,,,,,,ocean,9,119,sing,blue,1230.5854714000598,None,None,1230.5854714000598,None,,,,,,,,,,,,,,,,,,,,,,,,,,,,,,44,001,2023_Apr_19_1031,ExactRep-v3-final,2021.2.3,59.88181729356552,
,,,,,,,,119,0,119,0,,,,,,,,,,,,,,,,,,,,,,,,,,,,,,,,,,,,,,,,,,,,,,,,,,,,,1235.1051048999652,None,,,,,,,,,,,,,,,,,,,,,,,,,,,,,,,,,,,death,67,120,silent,white,1233.1040219003335,None,None,1233.1040219003335,None,,,,,,,,,,,,,,,,,,,,,,,,,,,,,,44,001,2023_Apr_19_1031,ExactRep-v3-final,2021.2.3,59.88181729356552,
,,,,,,,,,,,,,,,,,,,,,,,,,,,,,,,,,,,,,,,,,,,,,,,,,,,,,,,,,,,,,,,,,,,,,,,,,,,,,,,,,,,,,,,,,,,,,,,,,,,,,,,,,,,,,,1235.622107599862,None,space,1.4216742003336549,1245.5982798999175,None,,,,,,,,,,,,,,,,,,,,,,,,44,001,2023_Apr_19_1031,ExactRep-v3-final,2021.2.3,59.88181729356552,
,,,,,,,,,,,,,,,,,,,,,,,,,,,,,,,,,,,,,,,,,,,,,,,,,,,,,,,,,,,,,,,,,,,,,,,,,,,,,,,,,,,,,,,,,,,,,,,,,,,,,,,,,,,,,,,,,,,,1247.0502904001623,None,space,31.657201199792325,1257.0266861002892,None,,,,,,,,,,,,,,,,,,44,001,2023_Apr_19_1031,ExactRep-v3-final,2021.2.3,59.88181729356552,
,,,,,,,,,,,,0,0,0,0,,,,,,,,,,,,,,,,,,,,,,,,,,,,,,,,,,,,,,,,,,,,,,,,,1292.1600882997736,None,,,,,,,,,,,,,,,,,,,,,,,,,,,,,,,,,,,,,,,,,,,,,,,,,,,,,,,,,priest,177,1,sing,new,yellow,1289.2319544004276,None,n,1289.2319544004276,None,"['n', 'return']","[1.6596305007115006, 2.88369860034436]",1289.2319544004276,None,,,44,001,2023_Apr_19_1031,ExactRep-v3-final,2021.2.3,59.88181729356552,
,,,,,,,,,,,,1,0,1,0,,,,,,,,,,,,,,,,,,,,,,,,,,,,,,,,,,,,,,,,,,,,,,,,,1294.8963764999062,None,,,,,,,,,,,,,,,,,,,,,,,,,,,,,,,,,,,,,,,,,,,,,,,,,,,,,,,,,doctor,163,2,sing,new,yellow,1292.6697993995622,None,n,1292.6697993995622,None,"['n', 'return']","[1.6538271000608802, 2.1898686001077294]",1292.6697993995622,None,,,44,001,2023_Apr_19_1031,ExactRep-v3-final,2021.2.3,59.88181729356552,
,,,,,,,,,,,,2,0,2,0,,,,,,,,,,,,,,,,,,,,,,,,,,,,,,,,,,,,,,,,,,,,,,,,,1297.3486214000732,None,,,,,,,,,,,,,,,,,,,,,,,,,,,,,,,,,,,,,,,,,,,,,,,,,,,,,,,,,string,153,3,silent,new,yellow,1295.4060808001086,None,y,1295.4060808001086,None,"['y', 'return']","[1.4218934997916222, 1.9015162996947765]",1295.4060808001086,None,,,44,001,2023_Apr_19_1031,ExactRep-v3-final,2021.2.3,59.88181729356552,
,,,,,,,,,,,,3,0,3,0,,,,,,,,,,,,,,,,,,,,,,,,,,,,,,,,,,,,,,,,,,,,,,,,,1303.7552578002214,None,,,,,,,,,,,,,,,,,,,,,,,,,,,,,,,,,,,,,,,,,,,,,,,,,,,,,,,,,bar,62,4,silent,old,yellow,1297.8579730996862,None,n,1297.8579730996862,None,"['n', 'return']","[5.417897500097752, 5.857741800136864]",1297.8579730996862,None,,,44,001,2023_Apr_19_1031,ExactRep-v3-final,2021.2.3,59.88181729356552,
,,,,,,,,,,,,4,0,4,0,,,,,,,,,,,,,,,,,,,,,,,,,,,,,,,,,,,,,,,,,,,,,,,,,1306.1593356998637,None,,,,,,,,,,,,,,,,,,,,,,,,,,,,,,,,,,,,,,,,,,,,,,,,,,,,,,,,,cotton,44,5,silent,old,yellow,1304.2636617003009,None,y,1304.2636617003009,None,"['y', 'return']","[1.2360735004767776, 1.8599312007427216]",1304.2636617003009,None,,,44,001,2023_Apr_19_1031,ExactRep-v3-final,2021.2.3,59.88181729356552,
,,,,,,,,,,,,5,0,5,0,,,,,,,,,,,,,,,,,,,,,,,,,,,,,,,,,,,,,,,,,,,,,,,,,1308.9102202998474,None,,,,,,,,,,,,,,,,,,,,,,,,,,,,,,,,,,,,,,,,,,,,,,,,,,,,,,,,,coast,146,6,silent,new,yellow,1306.6845108000562,None,y,1306.6845108000562,None,"['y', 'return']","[1.8551153000444174, 2.1910473005846143]",1306.6845108000562,None,,,44,001,2023_Apr_19_1031,ExactRep-v3-final,2021.2.3,59.88181729356552,
,,,,,,,,,,,,6,0,6,0,,,,,,,,,,,,,,,,,,,,,,,,,,,,,,,,,,,,,,,,,,,,,,,,,1310.9122566999868,None,,,,,,,,,,,,,,,,,,,,,,,,,,,,,,,,,,,,,,,,,,,,,,,,,,,,,,,,,animal,215,7,sing,new,yellow,1309.4252620004117,None,n,1309.4252620004117,None,"['n', 'return']","[1.0503946002572775, 1.442352999933064]",1309.4252620004117,None,,,44,001,2023_Apr_19_1031,ExactRep-v3-final,2021.2.3,59.88181729356552,
,,,,,,,,,,,,7,0,7,0,,,,,,,,,,,,,,,,,,,,,,,,,,,,,,,,,,,,,,,,,,,,,,,,,1313.3813554998487,None,,,,,,,,,,,,,,,,,,,,,,,,,,,,,,,,,,,,,,,,,,,,,,,,,,,,,,,,,teacher,224,8,aloud,new,yellow,1311.4245627997443,None,n,1311.4245627997443,None,"['n', 'return']","[1.4592629000544548, 1.9230834003537893]",1311.4245627997443,None,,,44,001,2023_Apr_19_1031,ExactRep-v3-final,2021.2.3,59.88181729356552,
,,,,,,,,,,,,8,0,8,0,,,,,,,,,,,,,,,,,,,,,,,,,,,,,,,,,,,,,,,,,,,,,,,,,1316.8182950997725,None,,,,,,,,,,,,,,,,,,,,,,,,,,,,,,,,,,,,,,,,,,,,,,,,,,,,,,,,,king,116,9,aloud,old,yellow,1313.894623699598,None,y,1313.894623699598,None,"['y', 'return']","[2.34109210036695, 2.8770127007737756]",1313.894623699598,None,,,44,001,2023_Apr_19_1031,ExactRep-v3-final,2021.2.3,59.88181729356552,
,,,,,,,,,,,,9,0,9,0,,,,,,,,,,,,,,,,,,,,,,,,,,,,,,,,,,,,,,,,,,,,,,,,,1322.0400286000222,None,,,,,,,,,,,,,,,,,,,,,,,,,,,,,,,,,,,,,,,,,,,,,,,,,,,,,,,,,seat,183,10,sing,new,yellow,1317.3198619000614,None,n,1317.3198619000614,None,"['n', 'return']","[4.051760300062597, 4.683809599839151]",1317.3198619000614,None,,,44,001,2023_Apr_19_1031,ExactRep-v3-final,2021.2.3,59.88181729356552,
,,,,,,,,,,,,10,0,10,0,,,,,,,,,,,,,,,,,,,,,,,,,,,,,,,,,,,,,,,,,,,,,,,,,1325.7938147997484,None,,,,,,,,,,,,,,,,,,,,,,,,,,,,,,,,,,,,,,,,,,,,,,,,,,,,,,,,,flesh,140,11,silent,new,yellow,1322.5499421004206,None,n,1322.5499421004206,None,"['n', 'return']","[2.6217096000909805, 3.2057651998475194]",1322.5499421004206,None,,,44,001,2023_Apr_19_1031,ExactRep-v3-final,2021.2.3,59.88181729356552,
,,,,,,,,,,,,11,0,11,0,,,,,,,,,,,,,,,,,,,,,,,,,,,,,,,,,,,,,,,,,,,,,,,,,1329.4976422004402,None,,,,,,,,,,,,,,,,,,,,,,,,,,,,,,,,,,,,,,,,,,,,,,,,,,,,,,,,,metal,49,12,silent,old,yellow,1326.3053521001711,None,y,1326.3053521001711,None,"['y', 'return']","[2.5386017002165318, 3.1543084997683764]",1326.3053521001711,None,,,44,001,2023_Apr_19_1031,ExactRep-v3-final,2021.2.3,59.88181729356552,
,,,,,,,,,,,,12,0,12,0,,,,,,,,,,,,,,,,,,,,,,,,,,,,,,,,,,,,,,,,,,,,,,,,,1333.2845681998879,None,,,,,,,,,,,,,,,,,,,,,,,,,,,,,,,,,,,,,,,,,,,,,,,,,,,,,,,,,science,198,13,aloud,new,yellow,1330.0110400998965,None,n,1330.0110400998965,None,"['n', 'return']","[2.296626999974251, 3.2406838992610574]",1330.0110400998965,None,,,44,001,2023_Apr_19_1031,ExactRep-v3-final,2021.2.3,59.88181729356552,
,,,,,,,,,,,,13,0,13,0,,,,,,,,,,,,,,,,,,,,,,,,,,,,,,,,,,,,,,,,,,,,,,,,,1335.9539791001007,None,,,,,,,,,,,,,,,,,,,,,,,,,,,,,,,,,,,,,,,,,,,,,,,,,,,,,,,,,bowl,181,14,sing,new,yellow,1333.7994090998545,None,y,1333.7994090998545,None,"['y', 'return']","[1.3002693997696042, 2.1082289991900325]",1333.7994090998545,None,,,44,001,2023_Apr_19_1031,ExactRep-v3-final,2021.2.3,59.88181729356552,
,,,,,,,,,,,,14,0,14,0,,,,,,,,,,,,,,,,,,,,,,,,,,,,,,,,,,,,,,,,,,,,,,,,,1340.8087438000366,None,,,,,,,,,,,,,,,,,,,,,,,,,,,,,,,,,,,,,,,,,,,,,,,,,,,,,,,,,deed,157,15,silent,new,yellow,1336.4584306003526,None,n,1336.4584306003526,None,"['n', 'return']","[2.9212205996736884, 4.3132851999253035]",1336.4584306003526,None,,,44,001,2023_Apr_19_1031,ExactRep-v3-final,2021.2.3,59.88181729356552,
,,,,,,,,,,,,15,0,15,0,,,,,,,,,,,,,,,,,,,,,,,,,,,,,,,,,,,,,,,,,,,,,,,,,1344.0288615003228,None,,,,,,,,,,,,,,,,,,,,,,,,,,,,,,,,,,,,,,,,,,,,,,,,,,,,,,,,,tool,87,16,aloud,old,yellow,1341.3254920002073,None,y,1341.3254920002073,None,"['y', 'return']","[1.8224110007286072, 2.662124300375581]",1341.3254920002073,None,,,44,001,2023_Apr_19_1031,ExactRep-v3-final,2021.2.3,59.88181729356552,
,,,,,,,,,,,,16,0,16,0,,,,,,,,,,,,,,,,,,,,,,,,,,,,,,,,,,,,,,,,,,,,,,,,,1346.3812060002238,None,,,,,,,,,,,,,,,,,,,,,,,,,,,,,,,,,,,,,,,,,,,,,,,,,,,,,,,,,quality,90,17,aloud,old,yellow,1344.540329899639,None,y,1344.540329899639,None,"['y', 'return']","[1.255323899909854, 1.8073861002922058]",1344.540329899639,None,,,44,001,2023_Apr_19_1031,ExactRep-v3-final,2021.2.3,59.88181729356552,
,,,,,,,,,,,,17,0,17,0,,,,,,,,,,,,,,,,,,,,,,,,,,,,,,,,,,,,,,,,,,,,,,,,,1348.816853299737,None,,,,,,,,,,,,,,,,,,,,,,,,,,,,,,,,,,,,,,,,,,,,,,,,,,,,,,,,,leader,109,18,aloud,old,yellow,1346.8917562998831,None,y,1346.8917562998831,None,"['y', 'return']","[1.1201470997184515, 1.8879808997735381]",1346.8917562998831,None,,,44,001,2023_Apr_19_1031,ExactRep-v3-final,2021.2.3,59.88181729356552,
,,,,,,,,,,,,18,0,18,0,,,,,,,,,,,,,,,,,,,,,,,,,,,,,,,,,,,,,,,,,,,,,,,,,1352.4537800997496,None,,,,,,,,,,,,,,,,,,,,,,,,,,,,,,,,,,,,,,,,,,,,,,,,,,,,,,,,,square,193,19,sing,new,yellow,1349.3296026997268,None,n,1349.3296026997268,None,"['n', 'return']","[2.2982040997594595, 3.090247499756515]",1349.3296026997268,None,,,44,001,2023_Apr_19_1031,ExactRep-v3-final,2021.2.3,59.88181729356552,
,,,,,,,,,,,,19,0,19,0,,,,,,,,,,,,,,,,,,,,,,,,,,,,,,,,,,,,,,,,,,,,,,,,,1355.2566028004512,None,,,,,,,,,,,,,,,,,,,,,,,,,,,,,,,,,,,,,,,,,,,,,,,,,,,,,,,,,poet,77,20,silent,old,yellow,1352.9625471998006,None,y,1352.9625471998006,None,"['y', 'return']","[1.3131478000432253, 2.257123799994588]",1352.9625471998006,None,,,44,001,2023_Apr_19_1031,ExactRep-v3-final,2021.2.3,59.88181729356552,
,,,,,,,,,,,,20,0,20,0,,,,,,,,,,,,,,,,,,,,,,,,,,,,,,,,,,,,,,,,,,,,,,,,,1357.8925625998527,None,,,,,,,,,,,,,,,,,,,,,,,,,,,,,,,,,,,,,,,,,,,,,,,,,,,,,,,,,table,151,21,silent,new,yellow,1355.773313799873,None,y,1355.773313799873,None,"['y', 'return']","[1.2383555006235838, 2.0783943999558687]",1355.773313799873,None,,,44,001,2023_Apr_19_1031,ExactRep-v3-final,2021.2.3,59.88181729356552,
,,,,,,,,,,,,21,0,21,0,,,,,,,,,,,,,,,,,,,,,,,,,,,,,,,,,,,,,,,,,,,,,,,,,1360.9622940998524,None,,,,,,,,,,,,,,,,,,,,,,,,,,,,,,,,,,,,,,,,,,,,,,,,,,,,,,,,,origin,117,22,aloud,old,yellow,1358.408381599933,None,y,1358.408381599933,None,"['y', 'return']","[1.4513077000156045, 2.5072502996772528]",1358.408381599933,None,,,44,001,2023_Apr_19_1031,ExactRep-v3-final,2021.2.3,59.88181729356552,
,,,,,,,,,,,,22,0,22,0,,,,,,,,,,,,,,,,,,,,,,,,,,,,,,,,,,,,,,,,,,,,,,,,,1363.948780800216,None,,,,,,,,,,,,,,,,,,,,,,,,,,,,,,,,,,,,,,,,,,,,,,,,,,,,,,,,,house,16,23,sing,old,yellow,1361.4738244004548,None,y,1361.4738244004548,None,"['y', 'return']","[1.770117899402976, 2.4418946001678705]",1361.4738244004548,None,,,44,001,2023_Apr_19_1031,ExactRep-v3-final,2021.2.3,59.88181729356552,
,,,,,,,,,,,,23,0,23,0,,,,,,,,,,,,,,,,,,,,,,,,,,,,,,,,,,,,,,,,,,,,,,,,,1366.6348238000646,None,,,,,,,,,,,,,,,,,,,,,,,,,,,,,,,,,,,,,,,,,,,,,,,,,,,,,,,,,answer,30,24,sing,old,yellow,1364.4593805000186,None,y,1364.4593805000186,None,"['y', 'return']","[1.27260070014745, 2.1363035002723336]",1364.4593805000186,None,,,44,001,2023_Apr_19_1031,ExactRep-v3-final,2021.2.3,59.88181729356552,
,,,,,,,,,,,,24,0,24,0,,,,,,,,,,,,,,,,,,,,,,,,,,,,,,,,,,,,,,,,,,,,,,,,,1372.7074340004474,None,,,,,,,,,,,,,,,,,,,,,,,,,,,,,,,,,,,,,,,,,,,,,,,,,,,,,,,,,clock,107,25,aloud,old,yellow,1367.1352460999042,None,n,1367.1352460999042,None,"['n', 'return']","[5.172547399997711, 5.54059589933604]",1367.1352460999042,None,,,44,001,2023_Apr_19_1031,ExactRep-v3-final,2021.2.3,59.88181729356552,
,,,,,,,,,,,,25,0,25,0,,,,,,,,,,,,,,,,,,,,,,,,,,,,,,,,,,,,,,,,,,,,,,,,,1376.2275075996295,None,,,,,,,,,,,,,,,,,,,,,,,,,,,,,,,,,,,,,,,,,,,,,,,,,,,,,,,,,stone,119,26,aloud,old,yellow,1373.2181414002553,None,y,1373.2181414002553,None,"['y', 'return']","[2.569774799980223, 2.969631500542164]",1373.2181414002553,None,,,44,001,2023_Apr_19_1031,ExactRep-v3-final,2021.2.3,59.88181729356552,
,,,,,,,,,,,,26,0,26,0,,,,,,,,,,,,,,,,,,,,,,,,,,,,,,,,,,,,,,,,,,,,,,,,,1379.0471660997719,None,,,,,,,,,,,,,,,,,,,,,,,,,,,,,,,,,,,,,,,,,,,,,,,,,,,,,,,,,sugar,207,27,sing,new,yellow,1376.743921100162,None,n,1376.743921100162,None,"['n', 'return']","[1.7959916004911065, 2.2679349007084966]",1376.743921100162,None,,,44,001,2023_Apr_19_1031,ExactRep-v3-final,2021.2.3,59.88181729356552,
,,,,,,,,,,,,27,0,27,0,,,,,,,,,,,,,,,,,,,,,,,,,,,,,,,,,,,,,,,,,,,,,,,,,1381.3492775000632,None,,,,,,,,,,,,,,,,,,,,,,,,,,,,,,,,,,,,,,,,,,,,,,,,,,,,,,,,,street,56,28,silent,old,yellow,1379.5635182000697,None,y,1379.5635182000697,None,"['y', 'return']","[1.0241368999704719, 1.7442510994151235]",1379.5635182000697,None,,,44,001,2023_Apr_19_1031,ExactRep-v3-final,2021.2.3,59.88181729356552,
,,,,,,,,,,,,28,0,28,0,,,,,,,,,,,,,,,,,,,,,,,,,,,,,,,,,,,,,,,,,,,,,,,,,1383.5182693004608,None,,,,,,,,,,,,,,,,,,,,,,,,,,,,,,,,,,,,,,,,,,,,,,,,,,,,,,,,,method,8,29,sing,old,yellow,1381.8591790003702,None,y,1381.8591790003702,None,"['y', 'return']","[1.168503200635314, 1.6245090002194047]",1381.8591790003702,None,,,44,001,2023_Apr_19_1031,ExactRep-v3-final,2021.2.3,59.88181729356552,
,,,,,,,,,,,,29,0,29,0,,,,,,,,,,,,,,,,,,,,,,,,,,,,,,,,,,,,,,,,,,,,,,,,,1388.339848799631,None,,,,,,,,,,,,,,,,,,,,,,,,,,,,,,,,,,,,,,,,,,,,,,,,,,,,,,,,,prayer,41,30,silent,old,yellow,1384.0305340997875,None,y,1384.0305340997875,None,"['y', 'return']","[3.2934467997401953, 4.269232800230384]",1384.0305340997875,None,,,44,001,2023_Apr_19_1031,ExactRep-v3-final,2021.2.3,59.88181729356552,
,,,,,,,,,,,,30,0,30,0,,,,,,,,,,,,,,,,,,,,,,,,,,,,,,,,,,,,,,,,,,,,,,,,,1392.243612700142,None,,,,,,,,,,,,,,,,,,,,,,,,,,,,,,,,,,,,,,,,,,,,,,,,,,,,,,,,,temple,81,31,aloud,old,yellow,1388.8506433004513,None,y,1388.8506433004513,None,"['y', 'return']","[2.521148799918592, 3.3451948994770646]",1388.8506433004513,None,,,44,001,2023_Apr_19_1031,ExactRep-v3-final,2021.2.3,59.88181729356552,
,,,,,,,,,,,,31,0,31,0,,,,,,,,,,,,,,,,,,,,,,,,,,,,,,,,,,,,,,,,,,,,,,,,,1395.6137076001614,None,,,,,,,,,,,,,,,,,,,,,,,,,,,,,,,,,,,,,,,,,,,,,,,,,,,,,,,,,life,13,32,sing,old,yellow,1392.7547148996964,None,y,1392.7547148996964,None,"['y', 'return']","[1.9610596997663379, 2.817147900350392]",1392.7547148996964,None,,,44,001,2023_Apr_19_1031,ExactRep-v3-final,2021.2.3,59.88181729356552,
,,,,,,,,,,,,32,0,32,0,,,,,,,,,,,,,,,,,,,,,,,,,,,,,,,,,,,,,,,,,,,,,,,,,1400.9022736996412,None,,,,,,,,,,,,,,,,,,,,,,,,,,,,,,,,,,,,,,,,,,,,,,,,,,,,,,,,,hide,104,33,aloud,old,yellow,1396.1256286995485,None,y,1396.1256286995485,None,"['y', 'return']","[3.6782371001318097, 4.7420854000374675]",1396.1256286995485,None,,,44,001,2023_Apr_19_1031,ExactRep-v3-final,2021.2.3,59.88181729356552,
,,,,,,,,,,,,33,0,33,0,,,,,,,,,,,,,,,,,,,,,,,,,,,,,,,,,,,,,,,,,,,,,,,,,1405.8404337000102,None,,,,,,,,,,,,,,,,,,,,,,,,,,,,,,,,,,,,,,,,,,,,,,,,,,,,,,,,,excuse,128,34,silent,new,yellow,1401.4214922003448,None,n,1401.4214922003448,None,"['n', 'return']","[2.422184799797833, 4.382293700240552]",1401.4214922003448,None,,,44,001,2023_Apr_19_1031,ExactRep-v3-final,2021.2.3,59.88181729356552,
,,,,,,,,,,,,34,0,34,0,,,,,,,,,,,,,,,,,,,,,,,,,,,,,,,,,,,,,,,,,,,,,,,,,1409.6275648996234,None,,,,,,,,,,,,,,,,,,,,,,,,,,,,,,,,,,,,,,,,,,,,,,,,,,,,,,,,,market,150,35,silent,new,yellow,1406.3547008000314,None,n,1406.3547008000314,None,"['n', 'return']","[2.0970112001523376, 3.241067400202155]",1406.3547008000314,None,,,44,001,2023_Apr_19_1031,ExactRep-v3-final,2021.2.3,59.88181729356552,
,,,,,,,,,,,,35,0,35,0,,,,,,,,,,,,,,,,,,,,,,,,,,,,,,,,,,,,,,,,,,,,,,,,,1412.4969800002873,None,,,,,,,,,,,,,,,,,,,,,,,,,,,,,,,,,,,,,,,,,,,,,,,,,,,,,,,,,prison,12,36,sing,old,yellow,1410.1368295000866,None,y,1410.1368295000866,None,"['y', 'return']","[1.499094600789249, 2.3147587003186345]",1410.1368295000866,None,,,44,001,2023_Apr_19_1031,ExactRep-v3-final,2021.2.3,59.88181729356552,
,,,,,,,,,,,,36,0,36,0,,,,,,,,,,,,,,,,,,,,,,,,,,,,,,,,,,,,,,,,,,,,,,,,,1414.9829356996343,None,,,,,,,,,,,,,,,,,,,,,,,,,,,,,,,,,,,,,,,,,,,,,,,,,,,,,,,,,crime,83,37,aloud,old,yellow,1412.9974878998473,None,y,1412.9974878998473,None,"['y', 'return']","[1.4386410992592573, 1.9422148996964097]",1412.9974878998473,None,,,44,001,2023_Apr_19_1031,ExactRep-v3-final,2021.2.3,59.88181729356552,
,,,,,,,,,,,,37,0,37,0,,,,,,,,,,,,,,,,,,,,,,,,,,,,,,,,,,,,,,,,,,,,,,,,,1418.7199684996158,None,,,,,,,,,,,,,,,,,,,,,,,,,,,,,,,,,,,,,,,,,,,,,,,,,,,,,,,,,thought,33,38,sing,old,yellow,1415.4952528998256,None,y,1415.4952528998256,None,"['y', 'return']","[2.0364790000021458, 3.1884840996935964]",1415.4952528998256,None,,,44,001,2023_Apr_19_1031,ExactRep-v3-final,2021.2.3,59.88181729356552,
,,,,,,,,,,,,38,0,38,0,,,,,,,,,,,,,,,,,,,,,,,,,,,,,,,,,,,,,,,,,,,,,,,,,1421.7231387002394,None,,,,,,,,,,,,,,,,,,,,,,,,,,,,,,,,,,,,,,,,,,,,,,,,,,,,,,,,,village,96,39,aloud,old,yellow,1419.2306350003928,None,y,1419.2306350003928,None,"['y', 'return']","[1.7571275001391768, 2.453161700628698]",1419.2306350003928,None,,,44,001,2023_Apr_19_1031,ExactRep-v3-final,2021.2.3,59.88181729356552,
,,,,,,,,,,,,39,0,39,0,,,,,,,,,,,,,,,,,,,,,,,,,,,,,,,,,,,,,,,,,,,,,,,,,1424.926243999973,None,,,,,,,,,,,,,,,,,,,,,,,,,,,,,,,,,,,,,,,,,,,,,,,,,,,,,,,,,theory,17,40,sing,old,yellow,1422.2326456001028,None,y,1422.2326456001028,None,"['y', 'return']","[1.7630676003172994, 2.6511055007576942]",1422.2326456001028,None,,,44,001,2023_Apr_19_1031,ExactRep-v3-final,2021.2.3,59.88181729356552,
,,,,,,,,,,,,40,0,40,0,,,,,,,,,,,,,,,,,,,,,,,,,,,,,,,,,,,,,,,,,,,,,,,,,1428.0126708000898,None,,,,,,,,,,,,,,,,,,,,,,,,,,,,,,,,,,,,,,,,,,,,,,,,,,,,,,,,,nail,40,41,silent,old,yellow,1425.4374914001673,None,n,1425.4374914001673,None,"['n', 'return']","[1.5822296999394894, 2.5343178994953632]",1425.4374914001673,None,,,44,001,2023_Apr_19_1031,ExactRep-v3-final,2021.2.3,59.88181729356552,
,,,,,,,,,,,,41,0,41,0,,,,,,,,,,,,,,,,,,,,,,,,,,,,,,,,,,,,,,,,,,,,,,,,,1431.749396099709,None,,,,,,,,,,,,,,,,,,,,,,,,,,,,,,,,,,,,,,,,,,,,,,,,,,,,,,,,,money,52,42,silent,old,yellow,1428.5221792999655,None,n,1428.5221792999655,None,"['n', 'return']","[2.129763400182128, 3.193526499904692]",1428.5221792999655,None,,,44,001,2023_Apr_19_1031,ExactRep-v3-final,2021.2.3,59.88181729356552,
,,,,,,,,,,,,42,0,42,0,,,,,,,,,,,,,,,,,,,,,,,,,,,,,,,,,,,,,,,,,,,,,,,,,1438.4897570004687,None,,,,,,,,,,,,,,,,,,,,,,,,,,,,,,,,,,,,,,,,,,,,,,,,,,,,,,,,,shock,5,43,sing,old,yellow,1432.2624471001327,None,y,1432.2624471001327,None,"['y', 'return']","[3.869325799867511, 6.181401999667287]",1432.2624471001327,None,,,44,001,2023_Apr_19_1031,ExactRep-v3-final,2021.2.3,59.88181729356552,
,,,,,,,,,,,,43,0,43,0,,,,,,,,,,,,,,,,,,,,,,,,,,,,,,,,,,,,,,,,,,,,,,,,,1441.2092231996357,None,,,,,,,,,,,,,,,,,,,,,,,,,,,,,,,,,,,,,,,,,,,,,,,,,,,,,,,,,machine,144,44,silent,new,yellow,1438.9967160997912,None,n,1438.9967160997912,None,"['n', 'return']","[1.4551828000694513, 2.175091600045562]",1438.9967160997912,None,,,44,001,2023_Apr_19_1031,ExactRep-v3-final,2021.2.3,59.88181729356552,
,,,,,,,,,,,,44,0,44,0,,,,,,,,,,,,,,,,,,,,,,,,,,,,,,,,,,,,,,,,,,,,,,,,,1444.6460758997127,None,,,,,,,,,,,,,,,,,,,,,,,,,,,,,,,,,,,,,,,,,,,,,,,,,,,,,,,,,star,133,45,silent,new,yellow,1441.7227224996313,None,n,1441.7227224996313,None,"['n', 'return']","[2.065060899592936, 2.8809847999364138]",1441.7227224996313,None,,,44,001,2023_Apr_19_1031,ExactRep-v3-final,2021.2.3,59.88181729356552,
,,,,,,,,,,,,45,0,45,0,,,,,,,,,,,,,,,,,,,,,,,,,,,,,,,,,,,,,,,,,,,,,,,,,1449.1503573004156,None,,,,,,,,,,,,,,,,,,,,,,,,,,,,,,,,,,,,,,,,,,,,,,,,,,,,,,,,,kiss,236,46,aloud,new,yellow,1445.15872319974,None,y,1445.15872319974,None,"['y', 'return']","[3.3250256003811955, 3.949180900119245]",1445.15872319974,None,,,44,001,2023_Apr_19_1031,ExactRep-v3-final,2021.2.3,59.88181729356552,
,,,,,,,,,,,,46,0,46,0,,,,,,,,,,,,,,,,,,,,,,,,,,,,,,,,,,,,,,,,,,,,,,,,,1451.8196126995608,None,,,,,,,,,,,,,,,,,,,,,,,,,,,,,,,,,,,,,,,,,,,,,,,,,,,,,,,,,rock,113,47,aloud,old,yellow,1449.6618277002126,None,y,1449.6618277002126,None,"['y', 'return']","[1.3742415998131037, 2.1179867004975677]",1449.6618277002126,None,,,44,001,2023_Apr_19_1031,ExactRep-v3-final,2021.2.3,59.88181729356552,
,,,,,,,,,,,,47,0,47,0,,,,,,,,,,,,,,,,,,,,,,,,,,,,,,,,,,,,,,,,,,,,,,,,,1455.7737916000187,None,,,,,,,,,,,,,,,,,,,,,,,,,,,,,,,,,,,,,,,,,,,,,,,,,,,,,,,,,master,230,48,aloud,new,yellow,1452.3326709000394,None,y,1452.3326709000394,None,"['y', 'return']","[2.575067300349474, 3.407115699723363]",1452.3326709000394,None,,,44,001,2023_Apr_19_1031,ExactRep-v3-final,2021.2.3,59.88181729356552,
,,,,,,,,,,,,48,0,48,0,,,,,,,,,,,,,,,,,,,,,,,,,,,,,,,,,,,,,,,,,,,,,,,,,1458.5432105995715,None,,,,,,,,,,,,,,,,,,,,,,,,,,,,,,,,,,,,,,,,,,,,,,,,,,,,,,,,,girl,176,49,aloud,new,yellow,1456.2808146998286,None,n,1456.2808146998286,None,"['n', 'return']","[1.466957200318575, 2.218925300054252]",1456.2808146998286,None,,,44,001,2023_Apr_19_1031,ExactRep-v3-final,2021.2.3,59.88181729356552,
,,,,,,,,,,,,49,0,49,0,,,,,,,,,,,,,,,,,,,,,,,,,,,,,,,,,,,,,,,,,,,,,,,,,1462.1685942998156,None,,,,,,,,,,,,,,,,,,,,,,,,,,,,,,,,,,,,,,,,,,,,,,,,,,,,,,,,,journal,95,50,aloud,old,yellow,1459.0550987999886,None,y,1459.0550987999886,None,"['y', 'return']","[2.1247169002890587, 3.060718100517988]",1459.0550987999886,None,,,44,001,2023_Apr_19_1031,ExactRep-v3-final,2021.2.3,59.88181729356552,
,,,,,,,,,,,,50,0,50,0,,,,,,,,,,,,,,,,,,,,,,,,,,,,,,,,,,,,,,,,,,,,,,,,,1464.6828391999006,None,,,,,,,,,,,,,,,,,,,,,,,,,,,,,,,,,,,,,,,,,,,,,,,,,,,,,,,,,dress,48,51,silent,old,yellow,1462.6886000996456,None,n,1462.6886000996456,None,"['n', 'return']","[1.291431199759245, 1.9473499990999699]",1462.6886000996456,None,,,44,001,2023_Apr_19_1031,ExactRep-v3-final,2021.2.3,59.88181729356552,
,,,,,,,,,,,,51,0,51,0,,,,,,,,,,,,,,,,,,,,,,,,,,,,,,,,,,,,,,,,,,,,,,,,,1469.003373700194,None,,,,,,,,,,,,,,,,,,,,,,,,,,,,,,,,,,,,,,,,,,,,,,,,,,,,,,,,,silence,123,52,silent,new,yellow,1465.1946980003268,None,n,1465.1946980003268,None,"['n', 'return']","[3.26524250023067, 3.7772670006379485]",1465.1946980003268,None,,,44,001,2023_Apr_19_1031,ExactRep-v3-final,2021.2.3,59.88181729356552,
,,,,,,,,,,,,52,0,52,0,,,,,,,,,,,,,,,,,,,,,,,,,,,,,,,,,,,,,,,,,,,,,,,,,1474.4757637996227,None,,,,,,,,,,,,,,,,,,,,,,,,,,,,,,,,,,,,,,,,,,,,,,,,,,,,,,,,,pipe,45,53,silent,old,yellow,1469.5108754998073,None,n,1469.5108754998073,None,"['n', 'return']","[3.516984799876809, 4.91703539993614]",1469.5108754998073,None,,,44,001,2023_Apr_19_1031,ExactRep-v3-final,2021.2.3,59.88181729356552,
,,,,,,,,,,,,53,0,53,0,,,,,,,,,,,,,,,,,,,,,,,,,,,,,,,,,,,,,,,,,,,,,,,,,1478.9468707004562,None,,,,,,,,,,,,,,,,,,,,,,,,,,,,,,,,,,,,,,,,,,,,,,,,,,,,,,,,,chair,223,54,sing,new,yellow,1474.9860212998465,None,y,1474.9860212998465,None,"['y', 'return']","[3.249792699702084, 3.913838899694383]",1474.9860212998465,None,,,44,001,2023_Apr_19_1031,ExactRep-v3-final,2021.2.3,59.88181729356552,
,,,,,,,,,,,,54,0,54,0,,,,,,,,,,,,,,,,,,,,,,,,,,,,,,,,,,,,,,,,,,,,,,,,,1481.9499244997278,None,,,,,,,,,,,,,,,,,,,,,,,,,,,,,,,,,,,,,,,,,,,,,,,,,,,,,,,,,grass,121,55,silent,new,yellow,1479.457776799798,None,n,1479.457776799798,None,"['n', 'return']","[1.666041199117899, 2.4580357000231743]",1479.457776799798,None,,,44,001,2023_Apr_19_1031,ExactRep-v3-final,2021.2.3,59.88181729356552,
,,,,,,,,,,,,55,0,55,0,,,,,,,,,,,,,,,,,,,,,,,,,,,,,,,,,,,,,,,,,,,,,,,,,1484.9694026997313,None,,,,,,,,,,,,,,,,,,,,,,,,,,,,,,,,,,,,,,,,,,,,,,,,,,,,,,,,,letter,218,56,aloud,new,yellow,1482.462765599601,None,n,1482.462765599601,None,"['n', 'return']","[1.844963200390339, 2.461098900064826]",1482.462765599601,None,,,44,001,2023_Apr_19_1031,ExactRep-v3-final,2021.2.3,59.88181729356552,
,,,,,,,,,,,,56,0,56,0,,,,,,,,,,,,,,,,,,,,,,,,,,,,,,,,,,,,,,,,,,,,,,,,,1488.539673499763,None,,,,,,,,,,,,,,,,,,,,,,,,,,,,,,,,,,,,,,,,,,,,,,,,,,,,,,,,,soil,130,57,silent,new,yellow,1485.478362600319,None,n,1485.478362600319,None,"['n', 'return']","[2.3494210997596383, 3.0136126996949315]",1485.478362600319,None,,,44,001,2023_Apr_19_1031,ExactRep-v3-final,2021.2.3,59.88181729356552,
,,,,,,,,,,,,57,0,57,0,,,,,,,,,,,,,,,,,,,,,,,,,,,,,,,,,,,,,,,,,,,,,,,,,1491.1922837998718,None,,,,,,,,,,,,,,,,,,,,,,,,,,,,,,,,,,,,,,,,,,,,,,,,,,,,,,,,,car,26,58,sing,old,yellow,1489.0538654997945,None,y,1489.0538654997945,None,"['y', 'return']","[1.517980900593102, 2.1020133001729846]",1489.0538654997945,None,,,44,001,2023_Apr_19_1031,ExactRep-v3-final,2021.2.3,59.88181729356552,
,,,,,,,,,,,,58,0,58,0,,,,,,,,,,,,,,,,,,,,,,,,,,,,,,,,,,,,,,,,,,,,,,,,,1493.5614946996793,None,,,,,,,,,,,,,,,,,,,,,,,,,,,,,,,,,,,,,,,,,,,,,,,,,,,,,,,,,child,18,59,sing,old,yellow,1491.7039472004399,None,y,1491.7039472004399,None,"['y', 'return']","[1.3639665003865957, 1.8118227999657393]",1491.7039472004399,None,,,44,001,2023_Apr_19_1031,ExactRep-v3-final,2021.2.3,59.88181729356552,
,,,,,,,,,,,,59,0,59,0,,,,,,,,,,,,,,,,,,,,,,,,,,,,,,,,,,,,,,,,,,,,,,,,,1498.2163672996685,None,,,,,,,,,,,,,,,,,,,,,,,,,,,,,,,,,,,,,,,,,,,,,,,,,,,,,,,,,murder,66,60,silent,old,yellow,1494.0679574999958,None,n,1494.0679574999958,None,"['n', 'return']","[3.11983900051564, 4.1118675004690886]",1494.0679574999958,None,,,44,001,2023_Apr_19_1031,ExactRep-v3-final,2021.2.3,59.88181729356552,
,,,,,,,,,,,,60,0,60,0,,,,,,,,,,,,,,,,,,,,,,,,,,,,,,,,,,,,,,,,,,,,,,,,,1501.5862659998238,None,,,,,,,,,,,,,,,,,,,,,,,,,,,,,,,,,,,,,,,,,,,,,,,,,,,,,,,,,person,68,61,silent,old,yellow,1498.7237830003724,None,n,1498.7237830003724,None,"['n', 'return']","[2.159986799582839, 2.8160659996792674]",1498.7237830003724,None,,,44,001,2023_Apr_19_1031,ExactRep-v3-final,2021.2.3,59.88181729356552,
,,,,,,,,,,,,61,0,61,0,,,,,,,,,,,,,,,,,,,,,,,,,,,,,,,,,,,,,,,,,,,,,,,,,1507.40869580023,None,,,,,,,,,,,,,,,,,,,,,,,,,,,,,,,,,,,,,,,,,,,,,,,,,,,,,,,,,length,73,62,silent,old,yellow,1502.097342199646,None,n,1502.097342199646,None,"['n', 'return']","[4.242449900135398, 5.266522699967027]",1502.097342199646,None,,,44,001,2023_Apr_19_1031,ExactRep-v3-final,2021.2.3,59.88181729356552,
,,,,,,,,,,,,62,0,62,0,,,,,,,,,,,,,,,,,,,,,,,,,,,,,,,,,,,,,,,,,,,,,,,,,1512.4805754004046,None,,,,,,,,,,,,,,,,,,,,,,,,,,,,,,,,,,,,,,,,,,,,,,,,,,,,,,,,,wine,143,63,silent,new,yellow,1507.9179338002577,None,n,1507.9179338002577,None,"['n', 'return']","[4.030121199786663, 4.517901100218296]",1507.9179338002577,None,,,44,001,2023_Apr_19_1031,ExactRep-v3-final,2021.2.3,59.88181729356552,
,,,,,,,,,,,,63,0,63,0,,,,,,,,,,,,,,,,,,,,,,,,,,,,,,,,,,,,,,,,,,,,,,,,,1515.4167553000152,None,,,,,,,,,,,,,,,,,,,,,,,,,,,,,,,,,,,,,,,,,,,,,,,,,,,,,,,,,water,14,64,sing,old,yellow,1512.9894032999873,None,y,1512.9894032999873,None,"['y', 'return']","[1.8304091999307275, 2.3905025999993086]",1512.9894032999873,None,,,44,001,2023_Apr_19_1031,ExactRep-v3-final,2021.2.3,59.88181729356552,
,,,,,,,,,,,,64,0,64,0,,,,,,,,,,,,,,,,,,,,,,,,,,,,,,,,,,,,,,,,,,,,,,,,,1517.8189957002178,None,,,,,,,,,,,,,,,,,,,,,,,,,,,,,,,,,,,,,,,,,,,,,,,,,,,,,,,,,fate,115,65,aloud,old,yellow,1515.9264850001782,None,y,1515.9264850001782,None,"['y', 'return']","[1.349256300367415, 1.8453706000000238]",1515.9264850001782,None,,,44,001,2023_Apr_19_1031,ExactRep-v3-final,2021.2.3,59.88181729356552,
,,,,,,,,,,,,65,0,65,0,,,,,,,,,,,,,,,,,,,,,,,,,,,,,,,,,,,,,,,,,,,,,,,,,1520.721999200061,None,,,,,,,,,,,,,,,,,,,,,,,,,,,,,,,,,,,,,,,,,,,,,,,,,,,,,,,,,soul,27,66,sing,old,yellow,1518.3276196997613,None,y,1518.3276196997613,None,"['y', 'return']","[1.796207600273192, 2.348266299813986]",1518.3276196997613,None,,,44,001,2023_Apr_19_1031,ExactRep-v3-final,2021.2.3,59.88181729356552,
,,,,,,,,,,,,66,0,66,0,,,,,,,,,,,,,,,,,,,,,,,,,,,,,,,,,,,,,,,,,,,,,,,,,1523.2247005002573,None,,,,,,,,,,,,,,,,,,,,,,,,,,,,,,,,,,,,,,,,,,,,,,,,,,,,,,,,,lip,139,67,silent,new,yellow,1521.2317596003413,None,n,1521.2317596003413,None,"['n', 'return']","[1.4761926997452974, 1.9481295002624393]",1521.2317596003413,None,,,44,001,2023_Apr_19_1031,ExactRep-v3-final,2021.2.3,59.88181729356552,
,,,,,,,,,,,,67,0,67,0,,,,,,,,,,,,,,,,,,,,,,,,,,,,,,,,,,,,,,,,,,,,,,,,,1525.5101752001792,None,,,,,,,,,,,,,,,,,,,,,,,,,,,,,,,,,,,,,,,,,,,,,,,,,,,,,,,,,shame,42,68,silent,old,yellow,1523.7427045004442,None,y,1523.7427045004442,None,"['y', 'return']","[1.341126000508666, 1.7331314999610186]",1523.7427045004442,None,,,44,001,2023_Apr_19_1031,ExactRep-v3-final,2021.2.3,59.88181729356552,
,,,,,,,,,,,,68,0,68,0,,,,,,,,,,,,,,,,,,,,,,,,,,,,,,,,,,,,,,,,,,,,,,,,,1528.4297831002623,None,,,,,,,,,,,,,,,,,,,,,,,,,,,,,,,,,,,,,,,,,,,,,,,,,,,,,,,,,river,222,69,aloud,new,yellow,1526.019899699837,None,y,1526.019899699837,None,"['y', 'return']","[1.9681260995566845, 2.3679497996345162]",1526.019899699837,None,,,44,001,2023_Apr_19_1031,ExactRep-v3-final,2021.2.3,59.88181729356552,
,,,,,,,,,,,,69,0,69,0,,,,,,,,,,,,,,,,,,,,,,,,,,,,,,,,,,,,,,,,,,,,,,,,,1532.8342834999785,None,,,,,,,,,,,,,,,,,,,,,,,,,,,,,,,,,,,,,,,,,,,,,,,,,,,,,,,,,student,199,70,sing,new,yellow,1528.940648900345,None,n,1528.940648900345,None,"['n', 'return']","[2.0471927002072334, 3.847214000299573]",1528.940648900345,None,,,44,001,2023_Apr_19_1031,ExactRep-v3-final,2021.2.3,59.88181729356552,
,,,,,,,,,,,,70,0,70,0,,,,,,,,,,,,,,,,,,,,,,,,,,,,,,,,,,,,,,,,,,,,,,,,,1537.5891193002462,None,,,,,,,,,,,,,,,,,,,,,,,,,,,,,,,,,,,,,,,,,,,,,,,,,,,,,,,,,home,164,71,aloud,new,yellow,1533.3421579003334,None,n,1533.3421579003334,None,"['n', 'return']","[3.101709700189531, 4.206055300310254]",1533.3421579003334,None,,,44,001,2023_Apr_19_1031,ExactRep-v3-final,2021.2.3,59.88181729356552,
,,,,,,,,,,,,71,0,71,0,,,,,,,,,,,,,,,,,,,,,,,,,,,,,,,,,,,,,,,,,,,,,,,,,1540.458464499563,None,,,,,,,,,,,,,,,,,,,,,,,,,,,,,,,,,,,,,,,,,,,,,,,,,,,,,,,,,door,148,72,silent,new,yellow,1538.0976200001314,None,y,1538.0976200001314,None,"['y', 'return']","[1.7062262995168567, 2.322268499992788]",1538.0976200001314,None,,,44,001,2023_Apr_19_1031,ExactRep-v3-final,2021.2.3,59.88181729356552,
,,,,,,,,,,,,72,0,72,0,,,,,,,,,,,,,,,,,,,,,,,,,,,,,,,,,,,,,,,,,,,,,,,,,1543.5282073998824,None,,,,,,,,,,,,,,,,,,,,,,,,,,,,,,,,,,,,,,,,,,,,,,,,,,,,,,,,,weapon,187,73,sing,new,yellow,1540.9684503003955,None,n,1540.9684503003955,None,"['n', 'return']","[1.563624699600041, 2.515411600470543]",1540.9684503003955,None,,,44,001,2023_Apr_19_1031,ExactRep-v3-final,2021.2.3,59.88181729356552,
,,,,,,,,,,,,73,0,73,0,,,,,,,,,,,,,,,,,,,,,,,,,,,,,,,,,,,,,,,,,,,,,,,,,1545.9806019002572,None,,,,,,,,,,,,,,,,,,,,,,,,,,,,,,,,,,,,,,,,,,,,,,,,,,,,,,,,,palace,184,74,aloud,new,yellow,1544.0453845998272,None,n,1544.0453845998272,None,"['n', 'return']","[1.2385508008301258, 1.8944616001099348]",1544.0453845998272,None,,,44,001,2023_Apr_19_1031,ExactRep-v3-final,2021.2.3,59.88181729356552,
,,,,,,,,,,,,74,0,74,0,,,,,,,,,,,,,,,,,,,,,,,,,,,,,,,,,,,,,,,,,,,,,,,,,1550.3350098002702,None,,,,,,,,,,,,,,,,,,,,,,,,,,,,,,,,,,,,,,,,,,,,,,,,,,,,,,,,,sea,120,75,silent,new,yellow,1546.4886271003634,None,y,1546.4886271003634,None,"['y', 'return']","[2.491265299730003, 3.8112666001543403]",1546.4886271003634,None,,,44,001,2023_Apr_19_1031,ExactRep-v3-final,2021.2.3,59.88181729356552,
,,,,,,,,,,,,75,0,75,0,,,,,,,,,,,,,,,,,,,,,,,,,,,,,,,,,,,,,,,,,,,,,,,,,1553.387947799638,None,,,,,,,,,,,,,,,,,,,,,,,,,,,,,,,,,,,,,,,,,,,,,,,,,,,,,,,,,city,188,76,aloud,new,yellow,1550.8355489997193,None,y,1550.8355489997193,None,"['y', 'return']","[1.808208200149238, 2.512363899499178]",1550.8355489997193,None,,,44,001,2023_Apr_19_1031,ExactRep-v3-final,2021.2.3,59.88181729356552,
,,,,,,,,,,,,76,0,76,0,,,,,,,,,,,,,,,,,,,,,,,,,,,,,,,,,,,,,,,,,,,,,,,,,1556.3410122999921,None,,,,,,,,,,,,,,,,,,,,,,,,,,,,,,,,,,,,,,,,,,,,,,,,,,,,,,,,,church,159,77,silent,new,yellow,1553.8962262999266,None,y,1553.8962262999266,None,"['y', 'return']","[1.8916409006342292, 2.4115979000926018]",1553.8962262999266,None,,,44,001,2023_Apr_19_1031,ExactRep-v3-final,2021.2.3,59.88181729356552,
,,,,,,,,,,,,77,0,77,0,,,,,,,,,,,,,,,,,,,,,,,,,,,,,,,,,,,,,,,,,,,,,,,,,1561.3293319996446,None,,,,,,,,,,,,,,,,,,,,,,,,,,,,,,,,,,,,,,,,,,,,,,,,,,,,,,,,,sky,175,78,sing,new,yellow,1556.8500878997147,None,y,1556.8500878997147,None,"['y', 'return']","[3.865791100077331, 4.441828100010753]",1556.8500878997147,None,,,44,001,2023_Apr_19_1031,ExactRep-v3-final,2021.2.3,59.88181729356552,
,,,,,,,,,,,,78,0,78,0,,,,,,,,,,,,,,,,,,,,,,,,,,,,,,,,,,,,,,,,,,,,,,,,,1564.5158372996375,None,,,,,,,,,,,,,,,,,,,,,,,,,,,,,,,,,,,,,,,,,,,,,,,,,,,,,,,,,death,67,79,silent,old,yellow,1561.8322197999805,None,y,1561.8322197999805,None,"['y', 'return']","[1.9396738996729255, 2.643721899949014]",1561.8322197999805,None,,,44,001,2023_Apr_19_1031,ExactRep-v3-final,2021.2.3,59.88181729356552,
,,,,,,,,,,,,79,0,79,0,,,,,,,,,,,,,,,,,,,,,,,,,,,,,,,,,,,,,,,,,,,,,,,,,1567.251922399737,None,,,,,,,,,,,,,,,,,,,,,,,,,,,,,,,,,,,,,,,,,,,,,,,,,,,,,,,,,camp,167,80,sing,new,yellow,1565.0243407003582,None,n,1565.0243407003582,None,"['n', 'return']","[1.235592800192535, 2.1955656995996833]",1565.0243407003582,None,,,44,001,2023_Apr_19_1031,ExactRep-v3-final,2021.2.3,59.88181729356552,
,,,,,,,,,,,,80,0,80,0,,,,,,,,,,,,,,,,,,,,,,,,,,,,,,,,,,,,,,,,,,,,,,,,,1569.9045014996082,None,,,,,,,,,,,,,,,,,,,,,,,,,,,,,,,,,,,,,,,,,,,,,,,,,,,,,,,,,moral,194,81,aloud,new,yellow,1567.7628156999126,None,n,1567.7628156999126,None,"['n', 'return']","[1.5291374996304512, 2.1052107997238636]",1567.7628156999126,None,,,44,001,2023_Apr_19_1031,ExactRep-v3-final,2021.2.3,59.88181729356552,
,,,,,,,,,,,,81,0,81,0,,,,,,,,,,,,,,,,,,,,,,,,,,,,,,,,,,,,,,,,,,,,,,,,,1577.462214499712,None,,,,,,,,,,,,,,,,,,,,,,,,,,,,,,,,,,,,,,,,,,,,,,,,,,,,,,,,,effort,166,82,aloud,new,yellow,1570.4212437998503,None,y,1570.4212437998503,None,"['y', 'return']","[6.190783900208771, 6.998647999949753]",1570.4212437998503,None,,,44,001,2023_Apr_19_1031,ExactRep-v3-final,2021.2.3,59.88181729356552,
,,,,,,,,,,,,82,0,82,0,,,,,,,,,,,,,,,,,,,,,,,,,,,,,,,,,,,,,,,,,,,,,,,,,1582.5671640997753,None,,,,,,,,,,,,,,,,,,,,,,,,,,,,,,,,,,,,,,,,,,,,,,,,,,,,,,,,,lord,206,83,aloud,new,yellow,1577.9701004996896,None,y,1577.9701004996896,None,"['y', 'return']","[3.9460354996845126, 4.5619475999847054]",1577.9701004996896,None,,,44,001,2023_Apr_19_1031,ExactRep-v3-final,2021.2.3,59.88181729356552,
,,,,,,,,,,,,83,0,83,0,,,,,,,,,,,,,,,,,,,,,,,,,,,,,,,,,,,,,,,,,,,,,,,,,1585.7704678997397,None,,,,,,,,,,,,,,,,,,,,,,,,,,,,,,,,,,,,,,,,,,,,,,,,,,,,,,,,,truth,34,84,sing,old,yellow,1583.0812058001757,None,y,1583.0812058001757,None,"['y', 'return']","[2.0987185994163156, 2.650705199688673]",1583.0812058001757,None,,,44,001,2023_Apr_19_1031,ExactRep-v3-final,2021.2.3,59.88181729356552,
,,,,,,,,,,,,84,0,84,0,,,,,,,,,,,,,,,,,,,,,,,,,,,,,,,,,,,,,,,,,,,,,,,,,1588.8234983002767,None,,,,,,,,,,,,,,,,,,,,,,,,,,,,,,,,,,,,,,,,,,,,,,,,,,,,,,,,,spirit,108,85,aloud,old,yellow,1586.2832722999156,None,y,1586.2832722999156,None,"['y', 'return']","[1.9125475995242596, 2.496667499653995]",1586.2832722999156,None,,,44,001,2023_Apr_19_1031,ExactRep-v3-final,2021.2.3,59.88181729356552,
,,,,,,,,,,,,85,0,85,0,,,,,,,,,,,,,,,,,,,,,,,,,,,,,,,,,,,,,,,,,,,,,,,,,1593.4113717004657,None,,,,,,,,,,,,,,,,,,,,,,,,,,,,,,,,,,,,,,,,,,,,,,,,,,,,,,,,,blood,142,86,silent,new,yellow,1589.335236299783,None,y,1589.335236299783,None,"['y', 'return']","[3.588958900421858, 4.044727699831128]",1589.335236299783,None,,,44,001,2023_Apr_19_1031,ExactRep-v3-final,2021.2.3,59.88181729356552,
,,,,,,,,,,,,86,0,86,0,,,,,,,,,,,,,,,,,,,,,,,,,,,,,,,,,,,,,,,,,,,,,,,,,1596.298564299941,None,,,,,,,,,,,,,,,,,,,,,,,,,,,,,,,,,,,,,,,,,,,,,,,,,,,,,,,,,mind,36,87,sing,old,yellow,1593.92038470041,None,n,1593.92038470041,None,"['n', 'return']","[1.3555523995310068, 2.3316144002601504]",1593.92038470041,None,,,44,001,2023_Apr_19_1031,ExactRep-v3-final,2021.2.3,59.88181729356552,
,,,,,,,,,,,,87,0,87,0,,,,,,,,,,,,,,,,,,,,,,,,,,,,,,,,,,,,,,,,,,,,,,,,,1599.6676620999351,None,,,,,,,,,,,,,,,,,,,,,,,,,,,,,,,,,,,,,,,,,,,,,,,,,,,,,,,,,college,234,88,aloud,new,yellow,1596.8096377002075,None,n,1596.8096377002075,None,"['n', 'return']","[2.178631200455129, 2.818303800188005]",1596.8096377002075,None,,,44,001,2023_Apr_19_1031,ExactRep-v3-final,2021.2.3,59.88181729356552,
,,,,,,,,,,,,88,0,88,0,,,,,,,,,,,,,,,,,,,,,,,,,,,,,,,,,,,,,,,,,,,,,,,,,1601.9867497002706,None,,,,,,,,,,,,,,,,,,,,,,,,,,,,,,,,,,,,,,,,,,,,,,,,,,,,,,,,,flood,100,89,aloud,old,yellow,1600.1763508003205,None,y,1600.1763508003205,None,"['y', 'return']","[1.1558614000678062, 1.763651699759066]",1600.1763508003205,None,,,44,001,2023_Apr_19_1031,ExactRep-v3-final,2021.2.3,59.88181729356552,
,,,,,,,,,,,,89,0,89,0,,,,,,,,,,,,,,,,,,,,,,,,,,,,,,,,,,,,,,,,,,,,,,,,,1604.5060055004433,None,,,,,,,,,,,,,,,,,,,,,,,,,,,,,,,,,,,,,,,,,,,,,,,,,,,,,,,,,meeting,28,90,sing,old,yellow,1602.4948161998764,None,y,1602.4948161998764,None,"['y', 'return']","[1.525191199965775, 1.973068400286138]",1602.4948161998764,None,,,44,001,2023_Apr_19_1031,ExactRep-v3-final,2021.2.3,59.88181729356552,
,,,,,,,,,,,,90,0,90,0,,,,,,,,,,,,,,,,,,,,,,,,,,,,,,,,,,,,,,,,,,,,,,,,,1607.2585965003818,None,,,,,,,,,,,,,,,,,,,,,,,,,,,,,,,,,,,,,,,,,,,,,,,,,,,,,,,,,anger,126,91,silent,new,yellow,1605.018865399994,None,n,1605.018865399994,None,"['n', 'return']","[1.4971101004630327, 2.19309030007571]",1605.018865399994,None,,,44,001,2023_Apr_19_1031,ExactRep-v3-final,2021.2.3,59.88181729356552,
,,,,,,,,,,,,91,0,91,0,,,,,,,,,,,,,,,,,,,,,,,,,,,,,,,,,,,,,,,,,,,,,,,,,1609.777799599804,None,,,,,,,,,,,,,,,,,,,,,,,,,,,,,,,,,,,,,,,,,,,,,,,,,,,,,,,,,friend,203,92,sing,new,yellow,1607.7695214003325,None,n,1607.7695214003325,None,"['n', 'return']","[1.3465930996462703, 1.96260130032897]",1607.7695214003325,None,,,44,001,2023_Apr_19_1031,ExactRep-v3-final,2021.2.3,59.88181729356552,
,,,,,,,,,,,,92,0,92,0,,,,,,,,,,,,,,,,,,,,,,,,,,,,,,,,,,,,,,,,,,,,,,,,,1611.9466124996543,None,,,,,,,,,,,,,,,,,,,,,,,,,,,,,,,,,,,,,,,,,,,,,,,,,,,,,,,,,ocean,9,93,sing,old,yellow,1610.287858599797,None,y,1610.287858599797,None,"['y', 'return']","[1.1243033008649945, 1.6200716001912951]",1610.287858599797,None,,,44,001,2023_Apr_19_1031,ExactRep-v3-final,2021.2.3,59.88181729356552,
,,,,,,,,,,,,93,0,93,0,,,,,,,,,,,,,,,,,,,,,,,,,,,,,,,,,,,,,,,,,,,,,,,,,1614.3156466996297,None,,,,,,,,,,,,,,,,,,,,,,,,,,,,,,,,,,,,,,,,,,,,,,,,,,,,,,,,,glory,226,94,aloud,new,yellow,1612.4478773996234,None,n,1612.4478773996234,None,"['n', 'return']","[1.38836620002985, 1.8280964000150561]",1612.4478773996234,None,,,44,001,2023_Apr_19_1031,ExactRep-v3-final,2021.2.3,59.88181729356552,
,,,,,,,,,,,,94,0,94,0,,,,,,,,,,,,,,,,,,,,,,,,,,,,,,,,,,,,,,,,,,,,,,,,,1616.9349664999172,None,,,,,,,,,,,,,,,,,,,,,,,,,,,,,,,,,,,,,,,,,,,,,,,,,,,,,,,,,paper,112,95,aloud,old,yellow,1614.8240179000422,None,y,1614.8240179000422,None,"['y', 'return']","[1.6042382000014186, 2.067934500053525]",1614.8240179000422,None,,,44,001,2023_Apr_19_1031,ExactRep-v3-final,2021.2.3,59.88181729356552,
,,,,,,,,,,,,95,0,95,0,,,,,,,,,,,,,,,,,,,,,,,,,,,,,,,,,,,,,,,,,,,,,,,,,1619.3206369001418,None,,,,,,,,,,,,,,,,,,,,,,,,,,,,,,,,,,,,,,,,,,,,,,,,,,,,,,,,,advice,29,96,sing,old,yellow,1617.454691500403,None,y,1617.454691500403,None,"['y', 'return']","[1.2852304000407457, 1.8292448995634913]",1617.454691500403,None,,,44,001,2023_Apr_19_1031,ExactRep-v3-final,2021.2.3,59.88181729356552,
,,,,,,,,,,,,96,0,96,0,,,,,,,,,,,,,,,,,,,,,,,,,,,,,,,,,,,,,,,,,,,,,,,,,1622.0064027002081,None,,,,,,,,,,,,,,,,,,,,,,,,,,,,,,,,,,,,,,,,,,,,,,,,,,,,,,,,,coffee,20,97,sing,old,yellow,1619.8305663997307,None,y,1619.8305663997307,None,"['y', 'return']","[1.6293210005387664, 2.133371500298381]",1619.8305663997307,None,,,44,001,2023_Apr_19_1031,ExactRep-v3-final,2021.2.3,59.88181729356552,
,,,,,,,,,,,,97,0,97,0,,,,,,,,,,,,,,,,,,,,,,,,,,,,,,,,,,,,,,,,,,,,,,,,,1624.7258609998971,None,,,,,,,,,,,,,,,,,,,,,,,,,,,,,,,,,,,,,,,,,,,,,,,,,,,,,,,,,diamond,114,98,aloud,old,yellow,1622.5172945000231,None,n,1622.5172945000231,None,"['n', 'return']","[1.5666604992002249, 2.166676899418235]",1622.5172945000231,None,,,44,001,2023_Apr_19_1031,ExactRep-v3-final,2021.2.3,59.88181729356552,
,,,,,,,,,,,,98,0,98,0,,,,,,,,,,,,,,,,,,,,,,,,,,,,,,,,,,,,,,,,,,,,,,,,,1627.245073299855,None,,,,,,,,,,,,,,,,,,,,,,,,,,,,,,,,,,,,,,,,,,,,,,,,,,,,,,,,,trouble,149,99,silent,new,yellow,1625.2317802002653,None,n,1625.2317802002653,None,"['n', 'return']","[1.228311199694872, 1.9723372999578714]",1625.2317802002653,None,,,44,001,2023_Apr_19_1031,ExactRep-v3-final,2021.2.3,59.88181729356552,
,,,,,,,,,,,,99,0,99,0,,,,,,,,,,,,,,,,,,,,,,,,,,,,,,,,,,,,,,,,,,,,,,,,,1629.8653162997216,None,,,,,,,,,,,,,,,,,,,,,,,,,,,,,,,,,,,,,,,,,,,,,,,,,,,,,,,,,meadow,137,100,silent,new,yellow,1627.7564789000899,None,n,1627.7564789000899,None,"['n', 'return']","[1.4394867001101375, 2.0716107999905944]",1627.7564789000899,None,,,44,001,2023_Apr_19_1031,ExactRep-v3-final,2021.2.3,59.88181729356552,
,,,,,,,,,,,,100,0,100,0,,,,,,,,,,,,,,,,,,,,,,,,,,,,,,,,,,,,,,,,,,,,,,,,,1636.0540388002992,None,,,,,,,,,,,,,,,,,,,,,,,,,,,,,,,,,,,,,,,,,,,,,,,,,,,,,,,,,window,141,101,silent,new,yellow,1630.3755636001006,None,y,1630.3755636001006,None,"['y', 'return']","[5.1804010001942515, 5.63641219958663]",1630.3755636001006,None,,,44,001,2023_Apr_19_1031,ExactRep-v3-final,2021.2.3,59.88181729356552,
,,,,,,,,,,,,101,0,101,0,,,,,,,,,,,,,,,,,,,,,,,,,,,,,,,,,,,,,,,,,,,,,,,,,1639.0737610999495,None,,,,,,,,,,,,,,,,,,,,,,,,,,,,,,,,,,,,,,,,,,,,,,,,,,,,,,,,,freedom,39,102,silent,old,yellow,1636.5639532003552,None,y,1636.5639532003552,None,"['y', 'return']","[1.8879846995696425, 2.4720502998679876]",1636.5639532003552,None,,,44,001,2023_Apr_19_1031,ExactRep-v3-final,2021.2.3,59.88181729356552,
,,,,,,,,,,,,102,0,102,0,,,,,,,,,,,,,,,,,,,,,,,,,,,,,,,,,,,,,,,,,,,,,,,,,1642.2769742999226,None,,,,,,,,,,,,,,,,,,,,,,,,,,,,,,,,,,,,,,,,,,,,,,,,,,,,,,,,,army,69,103,silent,old,yellow,1639.58253019955,None,y,1639.58253019955,None,"['y', 'return']","[2.117547399364412, 2.65335079934448]",1639.58253019955,None,,,44,001,2023_Apr_19_1031,ExactRep-v3-final,2021.2.3,59.88181729356552,
,,,,,,,,,,,,103,0,103,0,,,,,,,,,,,,,,,,,,,,,,,,,,,,,,,,,,,,,,,,,,,,,,,,,1644.9296036995947,None,,,,,,,,,,,,,,,,,,,,,,,,,,,,,,,,,,,,,,,,,,,,,,,,,,,,,,,,,humour,138,104,silent,new,yellow,1642.7883067997172,None,n,1642.7883067997172,None,"['n', 'return']","[1.1757038999348879, 2.095831699669361]",1642.7883067997172,None,,,44,001,2023_Apr_19_1031,ExactRep-v3-final,2021.2.3,59.88181729356552,
,,,,,,,,,,,,104,0,104,0,,,,,,,,,,,,,,,,,,,,,,,,,,,,,,,,,,,,,,,,,,,,,,,,,1647.0817660000175,None,,,,,,,,,,,,,,,,,,,,,,,,,,,,,,,,,,,,,,,,,,,,,,,,,,,,,,,,,flower,229,105,sing,new,yellow,1645.4471859000623,None,y,1645.4471859000623,None,"['y', 'return']","[1.0449542002752423, 1.588879100047052]",1645.4471859000623,None,,,44,001,2023_Apr_19_1031,ExactRep-v3-final,2021.2.3,59.88181729356552,
,,,,,,,,,,,,105,0,105,0,,,,,,,,,,,,,,,,,,,,,,,,,,,,,,,,,,,,,,,,,,,,,,,,,1651.33605539985,None,,,,,,,,,,,,,,,,,,,,,,,,,,,,,,,,,,,,,,,,,,,,,,,,,,,,,,,,,gift,131,106,silent,new,yellow,1647.5906499996781,None,n,1647.5906499996781,None,"['n', 'return']","[2.8213346004486084, 3.709335899911821]",1647.5906499996781,None,,,44,001,2023_Apr_19_1031,ExactRep-v3-final,2021.2.3,59.88181729356552,
,,,,,,,,,,,,106,0,106,0,,,,,,,,,,,,,,,,,,,,,,,,,,,,,,,,,,,,,,,,,,,,,,,,,1654.7394409999251,None,,,,,,,,,,,,,,,,,,,,,,,,,,,,,,,,,,,,,,,,,,,,,,,,,,,,,,,,,garden,217,107,sing,new,yellow,1651.8463091999292,None,n,1651.8463091999292,None,"['n', 'return']","[2.0936709996312857, 2.8616995997726917]",1651.8463091999292,None,,,44,001,2023_Apr_19_1031,ExactRep-v3-final,2021.2.3,59.88181729356552,
,,,,,,,,,,,,107,0,107,0,,,,,,,,,,,,,,,,,,,,,,,,,,,,,,,,,,,,,,,,,,,,,,,,,1657.925930599682,None,,,,,,,,,,,,,,,,,,,,,,,,,,,,,,,,,,,,,,,,,,,,,,,,,,,,,,,,,forest,154,108,silent,new,yellow,1655.251779500395,None,n,1655.251779500395,None,"['n', 'return']","[2.0564296999946237, 2.6321922997012734]",1655.251779500395,None,,,44,001,2023_Apr_19_1031,ExactRep-v3-final,2021.2.3,59.88181729356552,
,,,,,,,,,,,,108,0,108,0,,,,,,,,,,,,,,,,,,,,,,,,,,,,,,,,,,,,,,,,,,,,,,,,,1660.9956237003207,None,,,,,,,,,,,,,,,,,,,,,,,,,,,,,,,,,,,,,,,,,,,,,,,,,,,,,,,,,dream,91,109,aloud,old,yellow,1658.4420649996027,None,y,1658.4420649996027,None,"['y', 'return']","[1.7539663994684815, 2.5219534998759627]",1658.4420649996027,None,,,44,001,2023_Apr_19_1031,ExactRep-v3-final,2021.2.3,59.88181729356552,
,,,,,,,,,,,,109,0,109,0,,,,,,,,,,,,,,,,,,,,,,,,,,,,,,,,,,,,,,,,,,,,,,,,,1663.598274299875,None,,,,,,,,,,,,,,,,,,,,,,,,,,,,,,,,,,,,,,,,,,,,,,,,,,,,,,,,,queen,214,110,aloud,new,yellow,1661.5100512001663,None,n,1661.5100512001663,None,"['n', 'return']","[1.397953299805522, 2.053998799994588]",1661.5100512001663,None,,,44,001,2023_Apr_19_1031,ExactRep-v3-final,2021.2.3,59.88181729356552,
,,,,,,,,,,,,110,0,110,0,,,,,,,,,,,,,,,,,,,,,,,,,,,,,,,,,,,,,,,,,,,,,,,,,1666.7512328997254,None,,,,,,,,,,,,,,,,,,,,,,,,,,,,,,,,,,,,,,,,,,,,,,,,,,,,,,,,,salary,211,111,sing,new,yellow,1664.1077578999102,None,n,1664.1077578999102,None,"['n', 'return']","[1.8081577997654676, 2.6001861998811364]",1664.1077578999102,None,,,44,001,2023_Apr_19_1031,ExactRep-v3-final,2021.2.3,59.88181729356552,
,,,,,,,,,,,,111,0,111,0,,,,,,,,,,,,,,,,,,,,,,,,,,,,,,,,,,,,,,,,,,,,,,,,,1669.9212287003174,None,,,,,,,,,,,,,,,,,,,,,,,,,,,,,,,,,,,,,,,,,,,,,,,,,,,,,,,,,potato,160,112,aloud,new,yellow,1667.260971300304,None,n,1667.260971300304,None,"['n', 'return']","[1.534948999993503, 2.6150352004915476]",1667.260971300304,None,,,44,001,2023_Apr_19_1031,ExactRep-v3-final,2021.2.3,59.88181729356552,
,,,,,,,,,,,,112,0,112,0,,,,,,,,,,,,,,,,,,,,,,,,,,,,,,,,,,,,,,,,,,,,,,,,,1673.674781200476,None,,,,,,,,,,,,,,,,,,,,,,,,,,,,,,,,,,,,,,,,,,,,,,,,,,,,,,,,,engine,179,113,sing,new,yellow,1670.4306925004348,None,n,1670.4306925004348,None,"['n', 'return']","[2.4216234004125, 3.1973655000329018]",1670.4306925004348,None,,,44,001,2023_Apr_19_1031,ExactRep-v3-final,2021.2.3,59.88181729356552,
,,,,,,,,,,,,113,0,113,0,,,,,,,,,,,,,,,,,,,,,,,,,,,,,,,,,,,,,,,,,,,,,,,,,1677.2786419996992,None,,,,,,,,,,,,,,,,,,,,,,,,,,,,,,,,,,,,,,,,,,,,,,,,,,,,,,,,,grief,156,114,silent,new,yellow,1674.1855212002993,None,y,1674.1855212002993,None,"['y', 'return']","[2.0423905001953244, 3.0504796002060175]",1674.1855212002993,None,,,44,001,2023_Apr_19_1031,ExactRep-v3-final,2021.2.3,59.88181729356552,
,,,,,,,,,,,,114,0,114,0,,,,,,,,,,,,,,,,,,,,,,,,,,,,,,,,,,,,,,,,,,,,,,,,,1682.6173344003037,None,,,,,,,,,,,,,,,,,,,,,,,,,,,,,,,,,,,,,,,,,,,,,,,,,,,,,,,,,product,53,115,silent,old,yellow,1677.7917034998536,None,n,1677.7917034998536,None,"['n', 'return']","[3.7082841005176306, 4.788528200238943]",1677.7917034998536,None,,,44,001,2023_Apr_19_1031,ExactRep-v3-final,2021.2.3,59.88181729356552,
,,,,,,,,,,,,115,0,115,0,,,,,,,,,,,,,,,,,,,,,,,,,,,,,,,,,,,,,,,,,,,,,,,,,1686.0872769001871,None,,,,,,,,,,,,,,,,,,,,,,,,,,,,,,,,,,,,,,,,,,,,,,,,,,,,,,,,,form,21,116,sing,old,yellow,1683.133929300122,None,y,1683.133929300122,None,"['y', 'return']","[1.9663907997310162, 2.9101214995607734]",1683.133929300122,None,,,44,001,2023_Apr_19_1031,ExactRep-v3-final,2021.2.3,59.88181729356552,
,,,,,,,,,,,,116,0,116,0,,,,,,,,,,,,,,,,,,,,,,,,,,,,,,,,,,,,,,,,,,,,,,,,,1689.1916706999764,None,,,,,,,,,,,,,,,,,,,,,,,,,,,,,,,,,,,,,,,,,,,,,,,,,,,,,,,,,valley,37,117,sing,old,yellow,1686.5989079996943,None,y,1686.5989079996943,None,"['y', 'return']","[1.7731718001887202, 2.557100400328636]",1686.5989079996943,None,,,44,001,2023_Apr_19_1031,ExactRep-v3-final,2021.2.3,59.88181729356552,
,,,,,,,,,,,,117,0,117,0,,,,,,,,,,,,,,,,,,,,,,,,,,,,,,,,,,,,,,,,,,,,,,,,,1691.6596015002578,None,,,,,,,,,,,,,,,,,,,,,,,,,,,,,,,,,,,,,,,,,,,,,,,,,,,,,,,,,horse,145,118,silent,new,yellow,1689.6972358999774,None,y,1689.6972358999774,None,"['y', 'return']","[1.3789789993315935, 1.93080519977957]",1689.6972358999774,None,,,44,001,2023_Apr_19_1031,ExactRep-v3-final,2021.2.3,59.88181729356552,
,,,,,,,,,,,,118,0,118,0,,,,,,,,,,,,,,,,,,,,,,,,,,,,,,,,,,,,,,,,,,,,,,,,,1694.2119949003682,None,,,,,,,,,,,,,,,,,,,,,,,,,,,,,,,,,,,,,,,,,,,,,,,,,,,,,,,,,charm,171,119,sing,new,yellow,1692.1730006998405,None,y,1692.1730006998405,None,"['y', 'return']","[1.4550075996667147, 1.9989668000489473]",1692.1730006998405,None,,,44,001,2023_Apr_19_1031,ExactRep-v3-final,2021.2.3,59.88181729356552,
,,,,,,,,,,,,119,0,119,0,,,,,,,,,,,,,,,,,,,,,,,,,,,,,,,,,,,,,,,,,,,,,,,,,1696.4311172999442,None,,,,,,,,,,,,,,,,,,,,,,,,,,,,,,,,,,,,,,,,,,,,,,,,,,,,,,,,,vessel,32,120,sing,old,yellow,1694.7231203000993,None,y,1694.7231203000993,None,"['y', 'return']","[1.104933399707079, 1.6728416997939348]",1694.7231203000993,None,,,44,001,2023_Apr_19_1031,ExactRep-v3-final,2021.2.3,59.88181729356552,
,,,,,,,,,,,,120,0,120,0,,,,,,,,,,,,,,,,,,,,,,,,,,,,,,,,,,,,,,,,,,,,,,,,,1700.3850640002638,None,,,,,,,,,,,,,,,,,,,,,,,,,,,,,,,,,,,,,,,,,,,,,,,,,,,,,,,,,season,55,121,silent,old,yellow,1696.9411110002548,None,y,1696.9411110002548,None,"['y', 'return']","[2.254960199818015, 3.3989499993622303]",1696.9411110002548,None,,,44,001,2023_Apr_19_1031,ExactRep-v3-final,2021.2.3,59.88181729356552,
,,,,,,,,,,,,121,0,121,0,,,,,,,,,,,,,,,,,,,,,,,,,,,,,,,,,,,,,,,,,,,,,,,,,1705.8405424999073,None,,,,,,,,,,,,,,,,,,,,,,,,,,,,,,,,,,,,,,,,,,,,,,,,,,,,,,,,,doll,197,122,sing,new,yellow,1700.892286900431,None,y,1700.892286900431,None,"['y', 'return']","[4.319941399618983, 4.9117908999323845]",1700.892286900431,None,,,44,001,2023_Apr_19_1031,ExactRep-v3-final,2021.2.3,59.88181729356552,
,,,,,,,,,,,,122,0,122,0,,,,,,,,,,,,,,,,,,,,,,,,,,,,,,,,,,,,,,,,,,,,,,,,,1708.609890899621,None,,,,,,,,,,,,,,,,,,,,,,,,,,,,,,,,,,,,,,,,,,,,,,,,,,,,,,,,,officer,161,123,sing,new,yellow,1706.3490046998486,None,n,1706.3490046998486,None,"['n', 'return']","[1.671343700028956, 2.223298099823296]",1706.3490046998486,None,,,44,001,2023_Apr_19_1031,ExactRep-v3-final,2021.2.3,59.88181729356552,
,,,,,,,,,,,,123,0,123,0,,,,,,,,,,,,,,,,,,,,,,,,,,,,,,,,,,,,,,,,,,,,,,,,,1711.0123413000256,None,,,,,,,,,,,,,,,,,,,,,,,,,,,,,,,,,,,,,,,,,,,,,,,,,,,,,,,,,health,1,124,sing,old,yellow,1709.1185291996226,None,y,1709.1185291996226,None,"['y', 'return']","[1.341516699641943, 1.853554000146687]",1709.1185291996226,None,,,44,001,2023_Apr_19_1031,ExactRep-v3-final,2021.2.3,59.88181729356552,
,,,,,,,,,,,,124,0,124,0,,,,,,,,,,,,,,,,,,,,,,,,,,,,,,,,,,,,,,,,,,,,,,,,,1713.2646147003397,None,,,,,,,,,,,,,,,,,,,,,,,,,,,,,,,,,,,,,,,,,,,,,,,,,,,,,,,,,woman,88,125,aloud,old,yellow,1711.521833400242,None,y,1711.521833400242,None,"['y', 'return']","[1.2981457002460957, 1.706220899708569]",1711.521833400242,None,,,44,001,2023_Apr_19_1031,ExactRep-v3-final,2021.2.3,59.88181729356552,
,,,,,,,,,,,,125,0,125,0,,,,,,,,,,,,,,,,,,,,,,,,,,,,,,,,,,,,,,,,,,,,,,,,,1715.8506575003266,None,,,,,,,,,,,,,,,,,,,,,,,,,,,,,,,,,,,,,,,,,,,,,,,,,,,,,,,,,brain,192,126,aloud,new,yellow,1713.7755712000653,None,n,1713.7755712000653,None,"['n', 'return']","[1.388493299484253, 2.0364977000281215]",1713.7755712000653,None,,,44,001,2023_Apr_19_1031,ExactRep-v3-final,2021.2.3,59.88181729356552,
,,,,,,,,,,,,126,0,126,0,,,,,,,,,,,,,,,,,,,,,,,,,,,,,,,,,,,,,,,,,,,,,,,,,1718.2360746003687,None,,,,,,,,,,,,,,,,,,,,,,,,,,,,,,,,,,,,,,,,,,,,,,,,,,,,,,,,,winter,74,127,silent,old,yellow,1716.3597272001207,None,y,1716.3597272001207,None,"['y', 'return']","[1.1403973000124097, 1.8443730995059013]",1716.3597272001207,None,,,44,001,2023_Apr_19_1031,ExactRep-v3-final,2021.2.3,59.88181729356552,
,,,,,,,,,,,,127,0,127,0,,,,,,,,,,,,,,,,,,,,,,,,,,,,,,,,,,,,,,,,,,,,,,,,,1722.7075711004436,None,,,,,,,,,,,,,,,,,,,,,,,,,,,,,,,,,,,,,,,,,,,,,,,,,,,,,,,,,judge,51,128,silent,old,yellow,1718.7436276003718,None,y,1718.7436276003718,None,"['y', 'return']","[1.252581499516964, 3.9164378996938467]",1718.7436276003718,None,,,44,001,2023_Apr_19_1031,ExactRep-v3-final,2021.2.3,59.88181729356552,
,,,,,,,,,,,,128,0,128,0,,,,,,,,,,,,,,,,,,,,,,,,,,,,,,,,,,,,,,,,,,,,,,,,,1726.0772141003981,None,,,,,,,,,,,,,,,,,,,,,,,,,,,,,,,,,,,,,,,,,,,,,,,,,,,,,,,,,wife,46,129,silent,old,yellow,1723.2080237995833,None,n,1723.2080237995833,None,"['n', 'return']","[2.068148599937558, 2.8362480998039246]",1723.2080237995833,None,,,44,001,2023_Apr_19_1031,ExactRep-v3-final,2021.2.3,59.88181729356552,
,,,,,,,,,,,,129,0,129,0,,,,,,,,,,,,,,,,,,,,,,,,,,,,,,,,,,,,,,,,,,,,,,,,,1729.7144187996164,None,,,,,,,,,,,,,,,,,,,,,,,,,,,,,,,,,,,,,,,,,,,,,,,,,,,,,,,,,rod,221,130,sing,new,yellow,1726.5798562997952,None,n,1726.5798562997952,None,"['n', 'return']","[1.2641959004104137, 3.0882190000265837]",1726.5798562997952,None,,,44,001,2023_Apr_19_1031,ExactRep-v3-final,2021.2.3,59.88181729356552,
,,,,,,,,,,,,130,0,130,0,,,,,,,,,,,,,,,,,,,,,,,,,,,,,,,,,,,,,,,,,,,,,,,,,1732.821581300348,None,,,,,,,,,,,,,,,,,,,,,,,,,,,,,,,,,,,,,,,,,,,,,,,,,,,,,,,,,boy,162,131,aloud,new,yellow,1730.2239220999181,None,n,1730.2239220999181,None,"['n', 'return']","[1.6362724993377924, 2.5480174999684095]",1730.2239220999181,None,,,44,001,2023_Apr_19_1031,ExactRep-v3-final,2021.2.3,59.88181729356552,
