trials_fam.thisRepN,trials_fam.thisTrialN,trials_fam.thisN,trials_fam.thisIndex,trials_prc.thisRepN,trials_prc.thisTrialN,trials_prc.thisN,trials_prc.thisIndex,StudyLoop.thisRepN,StudyLoop.thisTrialN,StudyLoop.thisN,StudyLoop.thisIndex,TestLoop.thisRepN,TestLoop.thisTrialN,TestLoop.thisN,TestLoop.thisIndex,text_colortest.started,text_colortest.stopped,key_colortest.keys,key_colortest.rt,key_colortest.started,key_colortest.stopped,textCondition.started,textCondition.stopped,keyCondition.keys,keyCondition.rt,keyCondition.started,keyCondition.stopped,Condition_between,Condition_counterbal,keyWelcome.keys,keyWelcome.rt,keyWelcome.started,keyWelcome.stopped,welcome_a.started,welcome_a.stopped,welcome_b.started,welcome_b.stopped,welcome_c.started,welcome_c.stopped,welcome_d.started,welcome_d.stopped,welcome_e.started,welcome_e.stopped,welcome_f.started,welcome_f.stopped,key_resp_fam_inst.keys,key_resp_fam_inst.rt,key_resp_fam_inst.started,key_resp_fam_inst.stopped,fam_a.started,fam_a.stopped,fam_b.started,fam_b.stopped,fam_c.started,fam_c.stopped,fam_d.started,fam_d.stopped,fam_e.started,fam_e.stopped,fam_f.started,fam_f.stopped,text_famil.started,text_famil.stopped,textBlank500.started,textBlank500.stopped,key_resp_prc_inst.keys,key_resp_prc_inst.rt,key_resp_prc_inst.started,key_resp_prc_inst.stopped,prac_a.started,prac_a.stopped,prac_b.started,prac_b.stopped,prac_c.started,prac_c.stopped,prac_d.started,prac_d.stopped,prac_e.started,prac_e.stopped,prac_f.started,prac_f.stopped,text_prc_trial.started,text_prc_trial.stopped,key_resp_study_inst.keys,key_resp_study_inst.rt,key_resp_study_inst.started,key_resp_study_inst.stopped,crit_a.started,crit_a.stopped,crit_b.started,crit_b.stopped,crit_c.started,crit_c.stopped,crit_d.started,crit_d.stopped,crit_e.started,crit_e.stopped,crit_f.started,crit_f.stopped,study_word,study_num,study_order,study_type,word_color,textStudy.started,textStudy.stopped,keyStudy.keys,keyStudy.started,keyStudy.stopped,post_study.started,post_study.stopped,key_resp_post_study.keys,key_resp_post_study.rt,key_resp_post_study.started,key_resp_post_study.stopped,test_inst.started,test_inst.stopped,key_resp_test_inst.keys,key_resp_test_inst.rt,key_resp_test_inst.started,key_resp_test_inst.stopped,test_word,test_num,test_order,test_condition,old_new_test,word_color_test,textConf.started,textConf.stopped,Participant Response,textInput.started,textInput.stopped,keyResp.keys,keyResp.rt,keyResp.started,keyResp.stopped,textEnd.started,textEnd.stopped,participant,session,date,expName,psychopyVersion,frameRate,
,,,,,,,,,,,,,,,,14.436905800364912,None,n,1.0331253996118903,14.436905800364912,None,,,,,,,,,,,,,,,,,,,,,,,,,,,,,,,,,,,,,,,,,,,,,,,,,,,,,,,,,,,,,,,,,,,,,,,,,,,,,,,,,,,,,,,,,,,,,,,,,,,,,,,,,,,,,,,,,,,,,,45,001,2023_Apr_19_1106,ExactRep-v3-final,2021.2.3,60.00798085676345,
,,,,,,,,,,,,,,,,,,,,,,15.485534899868071,None,c,0.48834090027958155,15.485534899868071,None,,,,,,,,,,,,,,,,,,,,,,,,,,,,,,,,,,,,,,,,,,,,,,,,,,,,,,,,,,,,,,,,,,,,,,,,,,,,,,,,,,,,,,,,,,,,,,,,,,,,,,,,,,,,,,,,45,001,2023_Apr_19_1106,ExactRep-v3-final,2021.2.3,60.00798085676345,
,,,,,,,,,,,,,,,,,,,,,,,,,,,,whitefoils,c,space,504.6921993996948,26.122108499519527,None,,,,,,,,,,,,,,,,,,,,,,,,,,,,,,,,,,,,,,,,,,,,,,,,,,,,,,,,,,,,,,,,,,,,,,,,,,,,,,,,,,,,,,,,,,,,,,,,,,,,,,,,,,45,001,2023_Apr_19_1106,ExactRep-v3-final,2021.2.3,60.00798085676345,
,,,,,,,,,,,,,,,,,,,,,,,,,,,,,,,,,,16.142027200199664,None,16.142027200199664,None,16.142027200199664,None,16.142027200199664,None,16.142027200199664,None,16.142027200199664,None,space,16.977452100254595,540.9968368997797,None,,,,,,,,,,,,,,,,,,,,,,,,,,,,,,,,,,,,,,,,,,,,,,,,,,,,,,,,,,,,,,,,,,,,,,,,,,,,,,,,,,,,,,,,,,45,001,2023_Apr_19_1106,ExactRep-v3-final,2021.2.3,60.00798085676345,
0,0,0,0,,,,,,,,,,,,,,,,,,,,,,,,,,,,,,,,,,,,,,,,,,,,,,,531.0273128002882,None,531.0273128002882,None,531.0273128002882,None,531.0273128002882,None,531.0273128002882,None,531.0273128002882,None,558.0638816002756,None,560.0633394997567,None,,,,,,,,,,,,,,,,,,,,,,,,,,,,,,,,,,,,,,,,,,,,,,,,,,,,,,,,,,,,,,,,,,,,,,,,,,45,001,2023_Apr_19_1106,ExactRep-v3-final,2021.2.3,60.00798085676345,
1,0,1,0,,,,,,,,,,,,,,,,,,,,,,,,,,,,,,,,,,,,,,,,,,,,,,,,,,,,,,,,,,,560.5637504998595,None,562.5660287002102,None,,,,,,,,,,,,,,,,,,,,,,,,,,,,,,,,,,,,,,,,,,,,,,,,,,,,,,,,,,,,,,,,,,,,,,,,,,45,001,2023_Apr_19_1106,ExactRep-v3-final,2021.2.3,60.00798085676345,
2,0,2,0,,,,,,,,,,,,,,,,,,,,,,,,,,,,,,,,,,,,,,,,,,,,,,,,,,,,,,,,,,,563.0973964994773,None,565.0851109996438,None,,,,,,,,,,,,,,,,,,,,,,,,,,,,,,,,,,,,,,,,,,,,,,,,,,,,,,,,,,,,,,,,,,,,,,,,,,45,001,2023_Apr_19_1106,ExactRep-v3-final,2021.2.3,60.00798085676345,
3,0,3,0,,,,,,,,,,,,,,,,,,,,,,,,,,,,,,,,,,,,,,,,,,,,,,,,,,,,,,,,,,,565.5857204999775,None,567.5876914998516,None,,,,,,,,,,,,,,,,,,,,,,,,,,,,,,,,,,,,,,,,,,,,,,,,,,,,,,,,,,,,,,,,,,,,,,,,,,45,001,2023_Apr_19_1106,ExactRep-v3-final,2021.2.3,60.00798085676345,
4,0,4,0,,,,,,,,,,,,,,,,,,,,,,,,,,,,,,,,,,,,,,,,,,,,,,,,,,,,,,,,,,,568.0971361994743,None,570.1064384002239,None,,,,,,,,,,,,,,,,,,,,,,,,,,,,,,,,,,,,,,,,,,,,,,,,,,,,,,,,,,,,,,,,,,,,,,,,,,45,001,2023_Apr_19_1106,ExactRep-v3-final,2021.2.3,60.00798085676345,
5,0,5,0,,,,,,,,,,,,,,,,,,,,,,,,,,,,,,,,,,,,,,,,,,,,,,,,,,,,,,,,,,,570.6069261003286,None,572.6090446002781,None,,,,,,,,,,,,,,,,,,,,,,,,,,,,,,,,,,,,,,,,,,,,,,,,,,,,,,,,,,,,,,,,,,,,,,,,,,45,001,2023_Apr_19_1106,ExactRep-v3-final,2021.2.3,60.00798085676345,
6,0,6,0,,,,,,,,,,,,,,,,,,,,,,,,,,,,,,,,,,,,,,,,,,,,,,,,,,,,,,,,,,,573.1097925994545,None,575.1119063002989,None,,,,,,,,,,,,,,,,,,,,,,,,,,,,,,,,,,,,,,,,,,,,,,,,,,,,,,,,,,,,,,,,,,,,,,,,,,45,001,2023_Apr_19_1106,ExactRep-v3-final,2021.2.3,60.00798085676345,
7,0,7,0,,,,,,,,,,,,,,,,,,,,,,,,,,,,,,,,,,,,,,,,,,,,,,,,,,,,,,,,,,,575.6119210002944,None,577.6140302997082,None,,,,,,,,,,,,,,,,,,,,,,,,,,,,,,,,,,,,,,,,,,,,,,,,,,,,,,,,,,,,,,,,,,,,,,,,,,45,001,2023_Apr_19_1106,ExactRep-v3-final,2021.2.3,60.00798085676345,
8,0,8,0,,,,,,,,,,,,,,,,,,,,,,,,,,,,,,,,,,,,,,,,,,,,,,,,,,,,,,,,,,,578.1149410000071,None,580.1165581000969,None,,,,,,,,,,,,,,,,,,,,,,,,,,,,,,,,,,,,,,,,,,,,,,,,,,,,,,,,,,,,,,,,,,,,,,,,,,45,001,2023_Apr_19_1106,ExactRep-v3-final,2021.2.3,60.00798085676345,
9,0,9,0,,,,,,,,,,,,,,,,,,,,,,,,,,,,,,,,,,,,,,,,,,,,,,,,,,,,,,,,,,,580.6193960998207,None,582.6192140998319,None,,,,,,,,,,,,,,,,,,,,,,,,,,,,,,,,,,,,,,,,,,,,,,,,,,,,,,,,,,,,,,,,,,,,,,,,,,45,001,2023_Apr_19_1106,ExactRep-v3-final,2021.2.3,60.00798085676345,
10,0,10,0,,,,,,,,,,,,,,,,,,,,,,,,,,,,,,,,,,,,,,,,,,,,,,,,,,,,,,,,,,,583.1268803998828,None,585.1382735995576,None,,,,,,,,,,,,,,,,,,,,,,,,,,,,,,,,,,,,,,,,,,,,,,,,,,,,,,,,,,,,,,,,,,,,,,,,,,45,001,2023_Apr_19_1106,ExactRep-v3-final,2021.2.3,60.00798085676345,
11,0,11,0,,,,,,,,,,,,,,,,,,,,,,,,,,,,,,,,,,,,,,,,,,,,,,,,,,,,,,,,,,,585.6388481995091,None,587.6410683002323,None,,,,,,,,,,,,,,,,,,,,,,,,,,,,,,,,,,,,,,,,,,,,,,,,,,,,,,,,,,,,,,,,,,,,,,,,,,45,001,2023_Apr_19_1106,ExactRep-v3-final,2021.2.3,60.00798085676345,
12,0,12,0,,,,,,,,,,,,,,,,,,,,,,,,,,,,,,,,,,,,,,,,,,,,,,,,,,,,,,,,,,,588.1416485002264,None,590.1434311997145,None,,,,,,,,,,,,,,,,,,,,,,,,,,,,,,,,,,,,,,,,,,,,,,,,,,,,,,,,,,,,,,,,,,,,,,,,,,45,001,2023_Apr_19_1106,ExactRep-v3-final,2021.2.3,60.00798085676345,
13,0,13,0,,,,,,,,,,,,,,,,,,,,,,,,,,,,,,,,,,,,,,,,,,,,,,,,,,,,,,,,,,,590.6455932995304,None,592.6458563003689,None,,,,,,,,,,,,,,,,,,,,,,,,,,,,,,,,,,,,,,,,,,,,,,,,,,,,,,,,,,,,,,,,,,,,,,,,,,45,001,2023_Apr_19_1106,ExactRep-v3-final,2021.2.3,60.00798085676345,
14,0,14,0,,,,,,,,,,,,,,,,,,,,,,,,,,,,,,,,,,,,,,,,,,,,,,,,,,,,,,,,,,,593.1532014003024,None,595.1651320997626,None,,,,,,,,,,,,,,,,,,,,,,,,,,,,,,,,,,,,,,,,,,,,,,,,,,,,,,,,,,,,,,,,,,,,,,,,,,45,001,2023_Apr_19_1106,ExactRep-v3-final,2021.2.3,60.00798085676345,
,,,,,,,,,,,,,,,,,,,,,,,,,,,,,,,,,,,,,,,,,,,,,,,,,,,,,,,,,,,,,,,,,,space,19.671849000267684,605.7986097000539,None,,,,,,,,,,,,,,,,,,,,,,,,,,,,,,,,,,,,,,,,,,,,,,,,,,,,,,,,,,,,,,,,,,,,,,45,001,2023_Apr_19_1106,ExactRep-v3-final,2021.2.3,60.00798085676345,
,,,,0,0,0,0,,,,,,,,,,,,,,,,,,,,,,,,,,,,,,,,,,,,,,,,,,,,,,,,,,,,,,,,,627.5473843002692,None,,,,,595.8257186999545,None,595.8257186999545,None,595.8257186999545,None,595.8257186999545,None,595.8257186999545,None,595.8257186999545,None,625.5437890999019,None,,,,,,,,,,,,,,,,,,,,,,,,,,,,,,,,,,,,,,,,,,,,,,,,,,,,,,,,45,001,2023_Apr_19_1106,ExactRep-v3-final,2021.2.3,60.00798085676345,
,,,,1,0,1,0,,,,,,,,,,,,,,,,,,,,,,,,,,,,,,,,,,,,,,,,,,,,,,,,,,,,,,,,,630.0497036995366,None,,,,,,,,,,,,,,,,,628.0478036999702,None,,,,,,,,,,,,,,,,,,,,,,,,,,,,,,,,,,,,,,,,,,,,,,,,,,,,,,,,45,001,2023_Apr_19_1106,ExactRep-v3-final,2021.2.3,60.00798085676345,
,,,,2,0,2,0,,,,,,,,,,,,,,,,,,,,,,,,,,,,,,,,,,,,,,,,,,,,,,,,,,,,,,,,,632.5523971002549,None,,,,,,,,,,,,,,,,,630.5504793999717,None,,,,,,,,,,,,,,,,,,,,,,,,,,,,,,,,,,,,,,,,,,,,,,,,,,,,,,,,45,001,2023_Apr_19_1106,ExactRep-v3-final,2021.2.3,60.00798085676345,
,,,,3,0,3,0,,,,,,,,,,,,,,,,,,,,,,,,,,,,,,,,,,,,,,,,,,,,,,,,,,,,,,,,,635.0550418002531,None,,,,,,,,,,,,,,,,,633.0531936995685,None,,,,,,,,,,,,,,,,,,,,,,,,,,,,,,,,,,,,,,,,,,,,,,,,,,,,,,,,45,001,2023_Apr_19_1106,ExactRep-v3-final,2021.2.3,60.00798085676345,
,,,,4,0,4,0,,,,,,,,,,,,,,,,,,,,,,,,,,,,,,,,,,,,,,,,,,,,,,,,,,,,,,,,,637.5575451999903,None,,,,,,,,,,,,,,,,,635.5555758001283,None,,,,,,,,,,,,,,,,,,,,,,,,,,,,,,,,,,,,,,,,,,,,,,,,,,,,,,,,45,001,2023_Apr_19_1106,ExactRep-v3-final,2021.2.3,60.00798085676345,
,,,,5,0,5,0,,,,,,,,,,,,,,,,,,,,,,,,,,,,,,,,,,,,,,,,,,,,,,,,,,,,,,,,,640.060159499757,None,,,,,,,,,,,,,,,,,638.0580430002883,None,,,,,,,,,,,,,,,,,,,,,,,,,,,,,,,,,,,,,,,,,,,,,,,,,,,,,,,,45,001,2023_Apr_19_1106,ExactRep-v3-final,2021.2.3,60.00798085676345,
,,,,6,0,6,0,,,,,,,,,,,,,,,,,,,,,,,,,,,,,,,,,,,,,,,,,,,,,,,,,,,,,,,,,642.5623477995396,None,,,,,,,,,,,,,,,,,640.5606961995363,None,,,,,,,,,,,,,,,,,,,,,,,,,,,,,,,,,,,,,,,,,,,,,,,,,,,,,,,,45,001,2023_Apr_19_1106,ExactRep-v3-final,2021.2.3,60.00798085676345,
,,,,7,0,7,0,,,,,,,,,,,,,,,,,,,,,,,,,,,,,,,,,,,,,,,,,,,,,,,,,,,,,,,,,645.0648774001747,None,,,,,,,,,,,,,,,,,643.0632063997909,None,,,,,,,,,,,,,,,,,,,,,,,,,,,,,,,,,,,,,,,,,,,,,,,,,,,,,,,,45,001,2023_Apr_19_1106,ExactRep-v3-final,2021.2.3,60.00798085676345,
,,,,8,0,8,0,,,,,,,,,,,,,,,,,,,,,,,,,,,,,,,,,,,,,,,,,,,,,,,,,,,,,,,,,647.5675825998187,None,,,,,,,,,,,,,,,,,645.5656241001561,None,,,,,,,,,,,,,,,,,,,,,,,,,,,,,,,,,,,,,,,,,,,,,,,,,,,,,,,,45,001,2023_Apr_19_1106,ExactRep-v3-final,2021.2.3,60.00798085676345,
,,,,9,0,9,0,,,,,,,,,,,,,,,,,,,,,,,,,,,,,,,,,,,,,,,,,,,,,,,,,,,,,,,,,650.0701978998259,None,,,,,,,,,,,,,,,,,648.0681058000773,None,,,,,,,,,,,,,,,,,,,,,,,,,,,,,,,,,,,,,,,,,,,,,,,,,,,,,,,,45,001,2023_Apr_19_1106,ExactRep-v3-final,2021.2.3,60.00798085676345,
,,,,10,0,10,0,,,,,,,,,,,,,,,,,,,,,,,,,,,,,,,,,,,,,,,,,,,,,,,,,,,,,,,,,652.5725371995941,None,,,,,,,,,,,,,,,,,650.5707380995154,None,,,,,,,,,,,,,,,,,,,,,,,,,,,,,,,,,,,,,,,,,,,,,,,,,,,,,,,,45,001,2023_Apr_19_1106,ExactRep-v3-final,2021.2.3,60.00798085676345,
,,,,11,0,11,0,,,,,,,,,,,,,,,,,,,,,,,,,,,,,,,,,,,,,,,,,,,,,,,,,,,,,,,,,655.0748659996316,None,,,,,,,,,,,,,,,,,653.0730480998755,None,,,,,,,,,,,,,,,,,,,,,,,,,,,,,,,,,,,,,,,,,,,,,,,,,,,,,,,,45,001,2023_Apr_19_1106,ExactRep-v3-final,2021.2.3,60.00798085676345,
,,,,12,0,12,0,,,,,,,,,,,,,,,,,,,,,,,,,,,,,,,,,,,,,,,,,,,,,,,,,,,,,,,,,657.5775407999754,None,,,,,,,,,,,,,,,,,655.5753800002858,None,,,,,,,,,,,,,,,,,,,,,,,,,,,,,,,,,,,,,,,,,,,,,,,,,,,,,,,,45,001,2023_Apr_19_1106,ExactRep-v3-final,2021.2.3,60.00798085676345,
,,,,13,0,13,0,,,,,,,,,,,,,,,,,,,,,,,,,,,,,,,,,,,,,,,,,,,,,,,,,,,,,,,,,660.0801692996174,None,,,,,,,,,,,,,,,,,658.0778564000502,None,,,,,,,,,,,,,,,,,,,,,,,,,,,,,,,,,,,,,,,,,,,,,,,,,,,,,,,,45,001,2023_Apr_19_1106,ExactRep-v3-final,2021.2.3,60.00798085676345,
,,,,14,0,14,0,,,,,,,,,,,,,,,,,,,,,,,,,,,,,,,,,,,,,,,,,,,,,,,,,,,,,,,,,662.5826495001093,None,,,,,,,,,,,,,,,,,660.5805238001049,None,,,,,,,,,,,,,,,,,,,,,,,,,,,,,,,,,,,,,,,,,,,,,,,,,,,,,,,,45,001,2023_Apr_19_1106,ExactRep-v3-final,2021.2.3,60.00798085676345,
,,,,,,,,,,,,,,,,,,,,,,,,,,,,,,,,,,,,,,,,,,,,,,,,,,,,,,,,,,,,,,,,,,,,,,,,,,,,,,,,,,,,space,23.923292100429535,673.2910768995062,None,,,,,,,,,,,,,,,,,,,,,,,,,,,,,,,,,,,,,,,,,,,,,,,,,,,,45,001,2023_Apr_19_1106,ExactRep-v3-final,2021.2.3,60.00798085676345,
,,,,,,,,0,0,0,0,,,,,,,,,,,,,,,,,,,,,,,,,,,,,,,,,,,,,,,,,,,,,,,,,,,,,699.3212010003626,None,,,,,,,,,,,,,,,,,,,,,,,663.3439560998231,None,663.3439560998231,None,663.3439560998231,None,663.3439560998231,None,663.3439560998231,None,663.3439560998231,None,cotton,83,1,aloud,blue,697.3131723999977,None,None,697.3131723999977,None,,,,,,,,,,,,,,,,,,,,,,,,,,,,,,45,001,2023_Apr_19_1106,ExactRep-v3-final,2021.2.3,60.00798085676345,
,,,,,,,,1,0,1,0,,,,,,,,,,,,,,,,,,,,,,,,,,,,,,,,,,,,,,,,,,,,,,,,,,,,,701.838424500078,None,,,,,,,,,,,,,,,,,,,,,,,,,,,,,,,,,,,toy,32,2,sing,white,699.8255067002028,None,None,699.8255067002028,None,,,,,,,,,,,,,,,,,,,,,,,,,,,,,,45,001,2023_Apr_19_1106,ExactRep-v3-final,2021.2.3,60.00798085676345,
,,,,,,,,2,0,2,0,,,,,,,,,,,,,,,,,,,,,,,,,,,,,,,,,,,,,,,,,,,,,,,,,,,,,704.340779799968,None,,,,,,,,,,,,,,,,,,,,,,,,,,,,,,,,,,,plain,37,3,sing,white,702.3396969996393,None,None,702.3396969996393,None,,,,,,,,,,,,,,,,,,,,,,,,,,,,,,45,001,2023_Apr_19_1106,ExactRep-v3-final,2021.2.3,60.00798085676345,
,,,,,,,,3,0,3,0,,,,,,,,,,,,,,,,,,,,,,,,,,,,,,,,,,,,,,,,,,,,,,,,,,,,,706.8600059002638,None,,,,,,,,,,,,,,,,,,,,,,,,,,,,,,,,,,,door,89,4,aloud,blue,704.8446150003001,None,None,704.8446150003001,None,,,,,,,,,,,,,,,,,,,,,,,,,,,,,,45,001,2023_Apr_19_1106,ExactRep-v3-final,2021.2.3,60.00798085676345,
,,,,,,,,4,0,4,0,,,,,,,,,,,,,,,,,,,,,,,,,,,,,,,,,,,,,,,,,,,,,,,,,,,,,709.3625029996037,None,,,,,,,,,,,,,,,,,,,,,,,,,,,,,,,,,,,ticket,115,5,aloud,blue,707.3625756995752,None,None,707.3625756995752,None,,,,,,,,,,,,,,,,,,,,,,,,,,,,,,45,001,2023_Apr_19_1106,ExactRep-v3-final,2021.2.3,60.00798085676345,
,,,,,,,,5,0,5,0,,,,,,,,,,,,,,,,,,,,,,,,,,,,,,,,,,,,,,,,,,,,,,,,,,,,,711.8819054001942,None,,,,,,,,,,,,,,,,,,,,,,,,,,,,,,,,,,,humour,45,6,silent,red,709.8692413996905,None,None,709.8692413996905,None,,,,,,,,,,,,,,,,,,,,,,,,,,,,,,45,001,2023_Apr_19_1106,ExactRep-v3-final,2021.2.3,60.00798085676345,
,,,,,,,,6,0,6,0,,,,,,,,,,,,,,,,,,,,,,,,,,,,,,,,,,,,,,,,,,,,,,,,,,,,,714.3844018001109,None,,,,,,,,,,,,,,,,,,,,,,,,,,,,,,,,,,,mind,108,7,aloud,blue,712.3835945995525,None,None,712.3835945995525,None,,,,,,,,,,,,,,,,,,,,,,,,,,,,,,45,001,2023_Apr_19_1106,ExactRep-v3-final,2021.2.3,60.00798085676345,
,,,,,,,,7,0,7,0,,,,,,,,,,,,,,,,,,,,,,,,,,,,,,,,,,,,,,,,,,,,,,,,,,,,,716.8867258001119,None,,,,,,,,,,,,,,,,,,,,,,,,,,,,,,,,,,,heaven,98,8,aloud,blue,714.8857648996636,None,None,714.8857648996636,None,,,,,,,,,,,,,,,,,,,,,,,,,,,,,,45,001,2023_Apr_19_1106,ExactRep-v3-final,2021.2.3,60.00798085676345,
,,,,,,,,8,0,8,0,,,,,,,,,,,,,,,,,,,,,,,,,,,,,,,,,,,,,,,,,,,,,,,,,,,,,719.4059506002814,None,,,,,,,,,,,,,,,,,,,,,,,,,,,,,,,,,,,skin,112,9,aloud,blue,717.3997272001579,None,None,717.3997272001579,None,,,,,,,,,,,,,,,,,,,,,,,,,,,,,,45,001,2023_Apr_19_1106,ExactRep-v3-final,2021.2.3,60.00798085676345,
,,,,,,,,9,0,9,0,,,,,,,,,,,,,,,,,,,,,,,,,,,,,,,,,,,,,,,,,,,,,,,,,,,,,721.9250878002495,None,,,,,,,,,,,,,,,,,,,,,,,,,,,,,,,,,,,temple,35,10,sing,white,719.9130448997021,None,None,719.9130448997021,None,,,,,,,,,,,,,,,,,,,,,,,,,,,,,,45,001,2023_Apr_19_1106,ExactRep-v3-final,2021.2.3,60.00798085676345,
,,,,,,,,10,0,10,0,,,,,,,,,,,,,,,,,,,,,,,,,,,,,,,,,,,,,,,,,,,,,,,,,,,,,724.4277294995263,None,,,,,,,,,,,,,,,,,,,,,,,,,,,,,,,,,,,honour,12,11,sing,white,722.4280292997137,None,None,722.4280292997137,None,,,,,,,,,,,,,,,,,,,,,,,,,,,,,,45,001,2023_Apr_19_1106,ExactRep-v3-final,2021.2.3,60.00798085676345,
,,,,,,,,11,0,11,0,,,,,,,,,,,,,,,,,,,,,,,,,,,,,,,,,,,,,,,,,,,,,,,,,,,,,726.9466861002147,None,,,,,,,,,,,,,,,,,,,,,,,,,,,,,,,,,,,love,24,12,sing,white,724.9316283995286,None,None,724.9316283995286,None,,,,,,,,,,,,,,,,,,,,,,,,,,,,,,45,001,2023_Apr_19_1106,ExactRep-v3-final,2021.2.3,60.00798085676345,
,,,,,,,,12,0,12,0,,,,,,,,,,,,,,,,,,,,,,,,,,,,,,,,,,,,,,,,,,,,,,,,,,,,,729.4493909003213,None,,,,,,,,,,,,,,,,,,,,,,,,,,,,,,,,,,,rock,67,13,silent,red,727.4472503997386,None,None,727.4472503997386,None,,,,,,,,,,,,,,,,,,,,,,,,,,,,,,45,001,2023_Apr_19_1106,ExactRep-v3-final,2021.2.3,60.00798085676345,
,,,,,,,,13,0,13,0,,,,,,,,,,,,,,,,,,,,,,,,,,,,,,,,,,,,,,,,,,,,,,,,,,,,,731.9517497997731,None,,,,,,,,,,,,,,,,,,,,,,,,,,,,,,,,,,,king,56,14,silent,red,729.9496903996915,None,None,729.9496903996915,None,,,,,,,,,,,,,,,,,,,,,,,,,,,,,,45,001,2023_Apr_19_1106,ExactRep-v3-final,2021.2.3,60.00798085676345,
,,,,,,,,14,0,14,0,,,,,,,,,,,,,,,,,,,,,,,,,,,,,,,,,,,,,,,,,,,,,,,,,,,,,734.4709371998906,None,,,,,,,,,,,,,,,,,,,,,,,,,,,,,,,,,,,fur,20,15,sing,white,732.467493600212,None,None,732.467493600212,None,,,,,,,,,,,,,,,,,,,,,,,,,,,,,,45,001,2023_Apr_19_1106,ExactRep-v3-final,2021.2.3,60.00798085676345,
,,,,,,,,15,0,15,0,,,,,,,,,,,,,,,,,,,,,,,,,,,,,,,,,,,,,,,,,,,,,,,,,,,,,736.9903207002208,None,,,,,,,,,,,,,,,,,,,,,,,,,,,,,,,,,,,fact,38,16,sing,white,734.979023899883,None,None,734.979023899883,None,,,,,,,,,,,,,,,,,,,,,,,,,,,,,,45,001,2023_Apr_19_1106,ExactRep-v3-final,2021.2.3,60.00798085676345,
,,,,,,,,16,0,16,0,,,,,,,,,,,,,,,,,,,,,,,,,,,,,,,,,,,,,,,,,,,,,,,,,,,,,739.4927383996546,None,,,,,,,,,,,,,,,,,,,,,,,,,,,,,,,,,,,ship,33,17,sing,white,737.4919889001176,None,None,737.4919889001176,None,,,,,,,,,,,,,,,,,,,,,,,,,,,,,,45,001,2023_Apr_19_1106,ExactRep-v3-final,2021.2.3,60.00798085676345,
,,,,,,,,17,0,17,0,,,,,,,,,,,,,,,,,,,,,,,,,,,,,,,,,,,,,,,,,,,,,,,,,,,,,741.9949653996155,None,,,,,,,,,,,,,,,,,,,,,,,,,,,,,,,,,,,speech,27,18,sing,white,739.9958581998944,None,None,739.9958581998944,None,,,,,,,,,,,,,,,,,,,,,,,,,,,,,,45,001,2023_Apr_19_1106,ExactRep-v3-final,2021.2.3,60.00798085676345,
,,,,,,,,18,0,18,0,,,,,,,,,,,,,,,,,,,,,,,,,,,,,,,,,,,,,,,,,,,,,,,,,,,,,744.4975528996438,None,,,,,,,,,,,,,,,,,,,,,,,,,,,,,,,,,,,disease,22,19,sing,white,742.4953771997243,None,None,742.4953771997243,None,,,,,,,,,,,,,,,,,,,,,,,,,,,,,,45,001,2023_Apr_19_1106,ExactRep-v3-final,2021.2.3,60.00798085676345,
,,,,,,,,19,0,19,0,,,,,,,,,,,,,,,,,,,,,,,,,,,,,,,,,,,,,,,,,,,,,,,,,,,,,747.016990499571,None,,,,,,,,,,,,,,,,,,,,,,,,,,,,,,,,,,,bowl,47,20,silent,red,745.0042187003419,None,None,745.0042187003419,None,,,,,,,,,,,,,,,,,,,,,,,,,,,,,,45,001,2023_Apr_19_1106,ExactRep-v3-final,2021.2.3,60.00798085676345,
,,,,,,,,20,0,20,0,,,,,,,,,,,,,,,,,,,,,,,,,,,,,,,,,,,,,,,,,,,,,,,,,,,,,749.5192614998668,None,,,,,,,,,,,,,,,,,,,,,,,,,,,,,,,,,,,machine,71,21,silent,red,747.5171628994867,None,None,747.5171628994867,None,,,,,,,,,,,,,,,,,,,,,,,,,,,,,,45,001,2023_Apr_19_1106,ExactRep-v3-final,2021.2.3,60.00798085676345,
,,,,,,,,21,0,21,0,,,,,,,,,,,,,,,,,,,,,,,,,,,,,,,,,,,,,,,,,,,,,,,,,,,,,752.0220334995538,None,,,,,,,,,,,,,,,,,,,,,,,,,,,,,,,,,,,arm,26,22,sing,white,750.0213959999382,None,None,750.0213959999382,None,,,,,,,,,,,,,,,,,,,,,,,,,,,,,,45,001,2023_Apr_19_1106,ExactRep-v3-final,2021.2.3,60.00798085676345,
,,,,,,,,22,0,22,0,,,,,,,,,,,,,,,,,,,,,,,,,,,,,,,,,,,,,,,,,,,,,,,,,,,,,754.5244720997289,None,,,,,,,,,,,,,,,,,,,,,,,,,,,,,,,,,,,product,97,23,aloud,blue,752.5255172001198,None,None,752.5255172001198,None,,,,,,,,,,,,,,,,,,,,,,,,,,,,,,45,001,2023_Apr_19_1106,ExactRep-v3-final,2021.2.3,60.00798085676345,
,,,,,,,,23,0,23,0,,,,,,,,,,,,,,,,,,,,,,,,,,,,,,,,,,,,,,,,,,,,,,,,,,,,,757.0434290003031,None,,,,,,,,,,,,,,,,,,,,,,,,,,,,,,,,,,,table,54,24,silent,red,755.031501499936,None,None,755.031501499936,None,,,,,,,,,,,,,,,,,,,,,,,,,,,,,,45,001,2023_Apr_19_1106,ExactRep-v3-final,2021.2.3,60.00798085676345,
,,,,,,,,24,0,24,0,,,,,,,,,,,,,,,,,,,,,,,,,,,,,,,,,,,,,,,,,,,,,,,,,,,,,759.5626497995108,None,,,,,,,,,,,,,,,,,,,,,,,,,,,,,,,,,,,dress,51,25,silent,red,757.5476481001824,None,None,757.5476481001824,None,,,,,,,,,,,,,,,,,,,,,,,,,,,,,,45,001,2023_Apr_19_1106,ExactRep-v3-final,2021.2.3,60.00798085676345,
,,,,,,,,25,0,25,0,,,,,,,,,,,,,,,,,,,,,,,,,,,,,,,,,,,,,,,,,,,,,,,,,,,,,762.0651851994917,None,,,,,,,,,,,,,,,,,,,,,,,,,,,,,,,,,,,history,104,26,aloud,blue,760.0654090996832,None,None,760.0654090996832,None,,,,,,,,,,,,,,,,,,,,,,,,,,,,,,45,001,2023_Apr_19_1106,ExactRep-v3-final,2021.2.3,60.00798085676345,
,,,,,,,,26,0,26,0,,,,,,,,,,,,,,,,,,,,,,,,,,,,,,,,,,,,,,,,,,,,,,,,,,,,,764.5678692003712,None,,,,,,,,,,,,,,,,,,,,,,,,,,,,,,,,,,,custom,76,27,silent,red,762.5672388002276,None,None,762.5672388002276,None,,,,,,,,,,,,,,,,,,,,,,,,,,,,,,45,001,2023_Apr_19_1106,ExactRep-v3-final,2021.2.3,60.00798085676345,
,,,,,,,,27,0,27,0,,,,,,,,,,,,,,,,,,,,,,,,,,,,,,,,,,,,,,,,,,,,,,,,,,,,,767.070468599908,None,,,,,,,,,,,,,,,,,,,,,,,,,,,,,,,,,,,coast,114,28,aloud,blue,765.0701048998162,None,None,765.0701048998162,None,,,,,,,,,,,,,,,,,,,,,,,,,,,,,,45,001,2023_Apr_19_1106,ExactRep-v3-final,2021.2.3,60.00798085676345,
,,,,,,,,28,0,28,0,,,,,,,,,,,,,,,,,,,,,,,,,,,,,,,,,,,,,,,,,,,,,,,,,,,,,769.5894967000932,None,,,,,,,,,,,,,,,,,,,,,,,,,,,,,,,,,,,blossom,92,29,aloud,blue,767.5764021994546,None,None,767.5764021994546,None,,,,,,,,,,,,,,,,,,,,,,,,,,,,,,45,001,2023_Apr_19_1106,ExactRep-v3-final,2021.2.3,60.00798085676345,
,,,,,,,,29,0,29,0,,,,,,,,,,,,,,,,,,,,,,,,,,,,,,,,,,,,,,,,,,,,,,,,,,,,,772.1086921999231,None,,,,,,,,,,,,,,,,,,,,,,,,,,,,,,,,,,,boulder,19,30,sing,white,770.0964898001403,None,None,770.0964898001403,None,,,,,,,,,,,,,,,,,,,,,,,,,,,,,,45,001,2023_Apr_19_1106,ExactRep-v3-final,2021.2.3,60.00798085676345,
,,,,,,,,30,0,30,0,,,,,,,,,,,,,,,,,,,,,,,,,,,,,,,,,,,,,,,,,,,,,,,,,,,,,774.6279376996681,None,,,,,,,,,,,,,,,,,,,,,,,,,,,,,,,,,,,dream,116,31,aloud,blue,772.615617999807,None,None,772.615617999807,None,,,,,,,,,,,,,,,,,,,,,,,,,,,,,,45,001,2023_Apr_19_1106,ExactRep-v3-final,2021.2.3,60.00798085676345,
,,,,,,,,31,0,31,0,,,,,,,,,,,,,,,,,,,,,,,,,,,,,,,,,,,,,,,,,,,,,,,,,,,,,777.1303353002295,None,,,,,,,,,,,,,,,,,,,,,,,,,,,,,,,,,,,animal,7,32,sing,white,775.1293460000306,None,None,775.1293460000306,None,,,,,,,,,,,,,,,,,,,,,,,,,,,,,,45,001,2023_Apr_19_1106,ExactRep-v3-final,2021.2.3,60.00798085676345,
,,,,,,,,32,0,32,0,,,,,,,,,,,,,,,,,,,,,,,,,,,,,,,,,,,,,,,,,,,,,,,,,,,,,779.6494416994974,None,,,,,,,,,,,,,,,,,,,,,,,,,,,,,,,,,,,master,48,33,silent,red,777.6390369003639,None,None,777.6390369003639,None,,,,,,,,,,,,,,,,,,,,,,,,,,,,,,45,001,2023_Apr_19_1106,ExactRep-v3-final,2021.2.3,60.00798085676345,
,,,,,,,,33,0,33,0,,,,,,,,,,,,,,,,,,,,,,,,,,,,,,,,,,,,,,,,,,,,,,,,,,,,,782.15194780007,None,,,,,,,,,,,,,,,,,,,,,,,,,,,,,,,,,,,shadow,16,34,sing,white,780.1499447999522,None,None,780.1499447999522,None,,,,,,,,,,,,,,,,,,,,,,,,,,,,,,45,001,2023_Apr_19_1106,ExactRep-v3-final,2021.2.3,60.00798085676345,
,,,,,,,,34,0,34,0,,,,,,,,,,,,,,,,,,,,,,,,,,,,,,,,,,,,,,,,,,,,,,,,,,,,,784.6712659997866,None,,,,,,,,,,,,,,,,,,,,,,,,,,,,,,,,,,,clock,18,35,sing,white,782.6566079994664,None,None,782.6566079994664,None,,,,,,,,,,,,,,,,,,,,,,,,,,,,,,45,001,2023_Apr_19_1106,ExactRep-v3-final,2021.2.3,60.00798085676345,
,,,,,,,,35,0,35,0,,,,,,,,,,,,,,,,,,,,,,,,,,,,,,,,,,,,,,,,,,,,,,,,,,,,,787.1906469995156,None,,,,,,,,,,,,,,,,,,,,,,,,,,,,,,,,,,,memory,43,36,silent,red,785.1767152994871,None,None,785.1767152994871,None,,,,,,,,,,,,,,,,,,,,,,,,,,,,,,45,001,2023_Apr_19_1106,ExactRep-v3-final,2021.2.3,60.00798085676345,
,,,,,,,,36,0,36,0,,,,,,,,,,,,,,,,,,,,,,,,,,,,,,,,,,,,,,,,,,,,,,,,,,,,,789.709467000328,None,,,,,,,,,,,,,,,,,,,,,,,,,,,,,,,,,,,queen,102,37,aloud,blue,787.6985208000988,None,None,787.6985208000988,None,,,,,,,,,,,,,,,,,,,,,,,,,,,,,,45,001,2023_Apr_19_1106,ExactRep-v3-final,2021.2.3,60.00798085676345,
,,,,,,,,37,0,37,0,,,,,,,,,,,,,,,,,,,,,,,,,,,,,,,,,,,,,,,,,,,,,,,,,,,,,792.2121005998924,None,,,,,,,,,,,,,,,,,,,,,,,,,,,,,,,,,,,friend,69,38,silent,red,790.2100312998518,None,None,790.2100312998518,None,,,,,,,,,,,,,,,,,,,,,,,,,,,,,,45,001,2023_Apr_19_1106,ExactRep-v3-final,2021.2.3,60.00798085676345,
,,,,,,,,38,0,38,0,,,,,,,,,,,,,,,,,,,,,,,,,,,,,,,,,,,,,,,,,,,,,,,,,,,,,794.7146790996194,None,,,,,,,,,,,,,,,,,,,,,,,,,,,,,,,,,,,picture,28,39,sing,white,792.714130599983,None,None,792.714130599983,None,,,,,,,,,,,,,,,,,,,,,,,,,,,,,,45,001,2023_Apr_19_1106,ExactRep-v3-final,2021.2.3,60.00798085676345,
,,,,,,,,39,0,39,0,,,,,,,,,,,,,,,,,,,,,,,,,,,,,,,,,,,,,,,,,,,,,,,,,,,,,797.2338589997962,None,,,,,,,,,,,,,,,,,,,,,,,,,,,,,,,,,,,wheat,50,40,silent,red,795.2183742001653,None,None,795.2183742001653,None,,,,,,,,,,,,,,,,,,,,,,,,,,,,,,45,001,2023_Apr_19_1106,ExactRep-v3-final,2021.2.3,60.00798085676345,
,,,,,,,,40,0,40,0,,,,,,,,,,,,,,,,,,,,,,,,,,,,,,,,,,,,,,,,,,,,,,,,,,,,,799.7363289995119,None,,,,,,,,,,,,,,,,,,,,,,,,,,,,,,,,,,,party,88,41,aloud,blue,797.7362513998523,None,None,797.7362513998523,None,,,,,,,,,,,,,,,,,,,,,,,,,,,,,,45,001,2023_Apr_19_1106,ExactRep-v3-final,2021.2.3,60.00798085676345,
,,,,,,,,41,0,41,0,,,,,,,,,,,,,,,,,,,,,,,,,,,,,,,,,,,,,,,,,,,,,,,,,,,,,802.2556127998978,None,,,,,,,,,,,,,,,,,,,,,,,,,,,,,,,,,,,power,95,42,aloud,blue,800.2415763996542,None,None,800.2415763996542,None,,,,,,,,,,,,,,,,,,,,,,,,,,,,,,45,001,2023_Apr_19_1106,ExactRep-v3-final,2021.2.3,60.00798085676345,
,,,,,,,,42,0,42,0,,,,,,,,,,,,,,,,,,,,,,,,,,,,,,,,,,,,,,,,,,,,,,,,,,,,,804.7580281998962,None,,,,,,,,,,,,,,,,,,,,,,,,,,,,,,,,,,,string,66,43,silent,red,802.7560347998515,None,None,802.7560347998515,None,,,,,,,,,,,,,,,,,,,,,,,,,,,,,,45,001,2023_Apr_19_1106,ExactRep-v3-final,2021.2.3,60.00798085676345,
,,,,,,,,43,0,43,0,,,,,,,,,,,,,,,,,,,,,,,,,,,,,,,,,,,,,,,,,,,,,,,,,,,,,807.2602741997689,None,,,,,,,,,,,,,,,,,,,,,,,,,,,,,,,,,,,idea,75,44,silent,red,805.259185699746,None,None,805.259185699746,None,,,,,,,,,,,,,,,,,,,,,,,,,,,,,,45,001,2023_Apr_19_1106,ExactRep-v3-final,2021.2.3,60.00798085676345,
,,,,,,,,44,0,44,0,,,,,,,,,,,,,,,,,,,,,,,,,,,,,,,,,,,,,,,,,,,,,,,,,,,,,809.7799095995724,None,,,,,,,,,,,,,,,,,,,,,,,,,,,,,,,,,,,virtue,73,45,silent,red,807.7695773998275,None,None,807.7695773998275,None,,,,,,,,,,,,,,,,,,,,,,,,,,,,,,45,001,2023_Apr_19_1106,ExactRep-v3-final,2021.2.3,60.00798085676345,
,,,,,,,,45,0,45,0,,,,,,,,,,,,,,,,,,,,,,,,,,,,,,,,,,,,,,,,,,,,,,,,,,,,,812.2989544002339,None,,,,,,,,,,,,,,,,,,,,,,,,,,,,,,,,,,,devil,0,46,sing,white,810.2877243999392,None,None,810.2877243999392,None,,,,,,,,,,,,,,,,,,,,,,,,,,,,,,45,001,2023_Apr_19_1106,ExactRep-v3-final,2021.2.3,60.00798085676345,
,,,,,,,,46,0,46,0,,,,,,,,,,,,,,,,,,,,,,,,,,,,,,,,,,,,,,,,,,,,,,,,,,,,,814.8181028999388,None,,,,,,,,,,,,,,,,,,,,,,,,,,,,,,,,,,,thought,6,47,sing,white,812.805368299596,None,None,812.805368299596,None,,,,,,,,,,,,,,,,,,,,,,,,,,,,,,45,001,2023_Apr_19_1106,ExactRep-v3-final,2021.2.3,60.00798085676345,
,,,,,,,,47,0,47,0,,,,,,,,,,,,,,,,,,,,,,,,,,,,,,,,,,,,,,,,,,,,,,,,,,,,,817.320700599812,None,,,,,,,,,,,,,,,,,,,,,,,,,,,,,,,,,,,truth,62,48,silent,red,815.31845910009,None,None,815.31845910009,None,,,,,,,,,,,,,,,,,,,,,,,,,,,,,,45,001,2023_Apr_19_1106,ExactRep-v3-final,2021.2.3,60.00798085676345,
,,,,,,,,48,0,48,0,,,,,,,,,,,,,,,,,,,,,,,,,,,,,,,,,,,,,,,,,,,,,,,,,,,,,819.8230974003673,None,,,,,,,,,,,,,,,,,,,,,,,,,,,,,,,,,,,air,72,49,silent,red,817.8231911994517,None,None,817.8231911994517,None,,,,,,,,,,,,,,,,,,,,,,,,,,,,,,45,001,2023_Apr_19_1106,ExactRep-v3-final,2021.2.3,60.00798085676345,
,,,,,,,,49,0,49,0,,,,,,,,,,,,,,,,,,,,,,,,,,,,,,,,,,,,,,,,,,,,,,,,,,,,,822.3254046998918,None,,,,,,,,,,,,,,,,,,,,,,,,,,,,,,,,,,,coin,5,50,sing,white,820.3255348997191,None,None,820.3255348997191,None,,,,,,,,,,,,,,,,,,,,,,,,,,,,,,45,001,2023_Apr_19_1106,ExactRep-v3-final,2021.2.3,60.00798085676345,
,,,,,,,,50,0,50,0,,,,,,,,,,,,,,,,,,,,,,,,,,,,,,,,,,,,,,,,,,,,,,,,,,,,,824.8281653001904,None,,,,,,,,,,,,,,,,,,,,,,,,,,,,,,,,,,,month,58,51,silent,red,822.8259458001703,None,None,822.8259458001703,None,,,,,,,,,,,,,,,,,,,,,,,,,,,,,,45,001,2023_Apr_19_1106,ExactRep-v3-final,2021.2.3,60.00798085676345,
,,,,,,,,51,0,51,0,,,,,,,,,,,,,,,,,,,,,,,,,,,,,,,,,,,,,,,,,,,,,,,,,,,,,827.3306021997705,None,,,,,,,,,,,,,,,,,,,,,,,,,,,,,,,,,,,slave,29,52,sing,white,825.330841800198,None,None,825.330841800198,None,,,,,,,,,,,,,,,,,,,,,,,,,,,,,,45,001,2023_Apr_19_1106,ExactRep-v3-final,2021.2.3,60.00798085676345,
,,,,,,,,52,0,52,0,,,,,,,,,,,,,,,,,,,,,,,,,,,,,,,,,,,,,,,,,,,,,,,,,,,,,829.849658000283,None,,,,,,,,,,,,,,,,,,,,,,,,,,,,,,,,,,,window,99,53,aloud,blue,827.8411183003336,None,None,827.8411183003336,None,,,,,,,,,,,,,,,,,,,,,,,,,,,,,,45,001,2023_Apr_19_1106,ExactRep-v3-final,2021.2.3,60.00798085676345,
,,,,,,,,53,0,53,0,,,,,,,,,,,,,,,,,,,,,,,,,,,,,,,,,,,,,,,,,,,,,,,,,,,,,832.3523108996451,None,,,,,,,,,,,,,,,,,,,,,,,,,,,,,,,,,,,quality,111,54,aloud,blue,830.3512639002874,None,None,830.3512639002874,None,,,,,,,,,,,,,,,,,,,,,,,,,,,,,,45,001,2023_Apr_19_1106,ExactRep-v3-final,2021.2.3,60.00798085676345,
,,,,,,,,54,0,54,0,,,,,,,,,,,,,,,,,,,,,,,,,,,,,,,,,,,,,,,,,,,,,,,,,,,,,834.8548021996394,None,,,,,,,,,,,,,,,,,,,,,,,,,,,,,,,,,,,hide,34,55,sing,white,832.8543483000249,None,None,832.8543483000249,None,,,,,,,,,,,,,,,,,,,,,,,,,,,,,,45,001,2023_Apr_19_1106,ExactRep-v3-final,2021.2.3,60.00798085676345,
,,,,,,,,55,0,55,0,,,,,,,,,,,,,,,,,,,,,,,,,,,,,,,,,,,,,,,,,,,,,,,,,,,,,837.3572375001386,None,,,,,,,,,,,,,,,,,,,,,,,,,,,,,,,,,,,dollar,107,56,aloud,blue,835.3552382001653,None,None,835.3552382001653,None,,,,,,,,,,,,,,,,,,,,,,,,,,,,,,45,001,2023_Apr_19_1106,ExactRep-v3-final,2021.2.3,60.00798085676345,
,,,,,,,,56,0,56,0,,,,,,,,,,,,,,,,,,,,,,,,,,,,,,,,,,,,,,,,,,,,,,,,,,,,,839.8596363002434,None,,,,,,,,,,,,,,,,,,,,,,,,,,,,,,,,,,,paper,68,57,silent,red,837.8590834001079,None,None,837.8590834001079,None,,,,,,,,,,,,,,,,,,,,,,,,,,,,,,45,001,2023_Apr_19_1106,ExactRep-v3-final,2021.2.3,60.00798085676345,
,,,,,,,,57,0,57,0,,,,,,,,,,,,,,,,,,,,,,,,,,,,,,,,,,,,,,,,,,,,,,,,,,,,,842.3623419003561,None,,,,,,,,,,,,,,,,,,,,,,,,,,,,,,,,,,,event,63,58,silent,red,840.3620905000716,None,None,840.3620905000716,None,,,,,,,,,,,,,,,,,,,,,,,,,,,,,,45,001,2023_Apr_19_1106,ExactRep-v3-final,2021.2.3,60.00798085676345,
,,,,,,,,58,0,58,0,,,,,,,,,,,,,,,,,,,,,,,,,,,,,,,,,,,,,,,,,,,,,,,,,,,,,844.8647095002234,None,,,,,,,,,,,,,,,,,,,,,,,,,,,,,,,,,,,moment,82,59,aloud,blue,842.8627335997298,None,None,842.8627335997298,None,,,,,,,,,,,,,,,,,,,,,,,,,,,,,,45,001,2023_Apr_19_1106,ExactRep-v3-final,2021.2.3,60.00798085676345,
,,,,,,,,59,0,59,0,,,,,,,,,,,,,,,,,,,,,,,,,,,,,,,,,,,,,,,,,,,,,,,,,,,,,847.3673727000132,None,,,,,,,,,,,,,,,,,,,,,,,,,,,,,,,,,,,gold,10,60,sing,white,845.36734170001,None,None,845.36734170001,None,,,,,,,,,,,,,,,,,,,,,,,,,,,,,,45,001,2023_Apr_19_1106,ExactRep-v3-final,2021.2.3,60.00798085676345,
,,,,,,,,60,0,60,0,,,,,,,,,,,,,,,,,,,,,,,,,,,,,,,,,,,,,,,,,,,,,,,,,,,,,849.8863685000688,None,,,,,,,,,,,,,,,,,,,,,,,,,,,,,,,,,,,fortune,117,61,aloud,blue,847.8719899998978,None,None,847.8719899998978,None,,,,,,,,,,,,,,,,,,,,,,,,,,,,,,45,001,2023_Apr_19_1106,ExactRep-v3-final,2021.2.3,60.00798085676345,
,,,,,,,,61,0,61,0,,,,,,,,,,,,,,,,,,,,,,,,,,,,,,,,,,,,,,,,,,,,,,,,,,,,,852.3888146001846,None,,,,,,,,,,,,,,,,,,,,,,,,,,,,,,,,,,,hall,118,62,aloud,blue,850.3873162996024,None,None,850.3873162996024,None,,,,,,,,,,,,,,,,,,,,,,,,,,,,,,45,001,2023_Apr_19_1106,ExactRep-v3-final,2021.2.3,60.00798085676345,
,,,,,,,,62,0,62,0,,,,,,,,,,,,,,,,,,,,,,,,,,,,,,,,,,,,,,,,,,,,,,,,,,,,,854.9082083003595,None,,,,,,,,,,,,,,,,,,,,,,,,,,,,,,,,,,,book,65,63,silent,red,852.8978161001578,None,None,852.8978161001578,None,,,,,,,,,,,,,,,,,,,,,,,,,,,,,,45,001,2023_Apr_19_1106,ExactRep-v3-final,2021.2.3,60.00798085676345,
,,,,,,,,63,0,63,0,,,,,,,,,,,,,,,,,,,,,,,,,,,,,,,,,,,,,,,,,,,,,,,,,,,,,857.4105321997777,None,,,,,,,,,,,,,,,,,,,,,,,,,,,,,,,,,,,maiden,77,64,silent,red,855.4095887998119,None,None,855.4095887998119,None,,,,,,,,,,,,,,,,,,,,,,,,,,,,,,45,001,2023_Apr_19_1106,ExactRep-v3-final,2021.2.3,60.00798085676345,
,,,,,,,,64,0,64,0,,,,,,,,,,,,,,,,,,,,,,,,,,,,,,,,,,,,,,,,,,,,,,,,,,,,,859.9298841003329,None,,,,,,,,,,,,,,,,,,,,,,,,,,,,,,,,,,,brain,100,65,aloud,blue,857.9202060000971,None,None,857.9202060000971,None,,,,,,,,,,,,,,,,,,,,,,,,,,,,,,45,001,2023_Apr_19_1106,ExactRep-v3-final,2021.2.3,60.00798085676345,
,,,,,,,,65,0,65,0,,,,,,,,,,,,,,,,,,,,,,,,,,,,,,,,,,,,,,,,,,,,,,,,,,,,,862.4491044003516,None,,,,,,,,,,,,,,,,,,,,,,,,,,,,,,,,,,,justice,70,66,silent,red,860.4357001995668,None,None,860.4357001995668,None,,,,,,,,,,,,,,,,,,,,,,,,,,,,,,45,001,2023_Apr_19_1106,ExactRep-v3-final,2021.2.3,60.00798085676345,
,,,,,,,,66,0,66,0,,,,,,,,,,,,,,,,,,,,,,,,,,,,,,,,,,,,,,,,,,,,,,,,,,,,,864.9516235003248,None,,,,,,,,,,,,,,,,,,,,,,,,,,,,,,,,,,,pipe,40,67,silent,red,862.9495906000957,None,None,862.9495906000957,None,,,,,,,,,,,,,,,,,,,,,,,,,,,,,,45,001,2023_Apr_19_1106,ExactRep-v3-final,2021.2.3,60.00798085676345,
,,,,,,,,67,0,67,0,,,,,,,,,,,,,,,,,,,,,,,,,,,,,,,,,,,,,,,,,,,,,,,,,,,,,867.4539225995541,None,,,,,,,,,,,,,,,,,,,,,,,,,,,,,,,,,,,dust,105,68,aloud,blue,865.4537258995697,None,None,865.4537258995697,None,,,,,,,,,,,,,,,,,,,,,,,,,,,,,,45,001,2023_Apr_19_1106,ExactRep-v3-final,2021.2.3,60.00798085676345,
,,,,,,,,68,0,68,0,,,,,,,,,,,,,,,,,,,,,,,,,,,,,,,,,,,,,,,,,,,,,,,,,,,,,869.9564367001876,None,,,,,,,,,,,,,,,,,,,,,,,,,,,,,,,,,,,river,119,69,aloud,blue,867.9543378995731,None,None,867.9543378995731,None,,,,,,,,,,,,,,,,,,,,,,,,,,,,,,45,001,2023_Apr_19_1106,ExactRep-v3-final,2021.2.3,60.00798085676345,
,,,,,,,,69,0,69,0,,,,,,,,,,,,,,,,,,,,,,,,,,,,,,,,,,,,,,,,,,,,,,,,,,,,,872.4758200999349,None,,,,,,,,,,,,,,,,,,,,,,,,,,,,,,,,,,,nail,49,70,silent,red,870.4632810996845,None,None,870.4632810996845,None,,,,,,,,,,,,,,,,,,,,,,,,,,,,,,45,001,2023_Apr_19_1106,ExactRep-v3-final,2021.2.3,60.00798085676345,
,,,,,,,,70,0,70,0,,,,,,,,,,,,,,,,,,,,,,,,,,,,,,,,,,,,,,,,,,,,,,,,,,,,,874.9783650003374,None,,,,,,,,,,,,,,,,,,,,,,,,,,,,,,,,,,,earth,81,71,aloud,blue,872.9769375994802,None,None,872.9769375994802,None,,,,,,,,,,,,,,,,,,,,,,,,,,,,,,45,001,2023_Apr_19_1106,ExactRep-v3-final,2021.2.3,60.00798085676345,
,,,,,,,,71,0,71,0,,,,,,,,,,,,,,,,,,,,,,,,,,,,,,,,,,,,,,,,,,,,,,,,,,,,,877.4807297000661,None,,,,,,,,,,,,,,,,,,,,,,,,,,,,,,,,,,,opinion,8,72,sing,white,875.4815779002383,None,None,875.4815779002383,None,,,,,,,,,,,,,,,,,,,,,,,,,,,,,,45,001,2023_Apr_19_1106,ExactRep-v3-final,2021.2.3,60.00798085676345,
,,,,,,,,72,0,72,0,,,,,,,,,,,,,,,,,,,,,,,,,,,,,,,,,,,,,,,,,,,,,,,,,,,,,879.9833214003593,None,,,,,,,,,,,,,,,,,,,,,,,,,,,,,,,,,,,prison,57,73,silent,red,877.9815568998456,None,None,877.9815568998456,None,,,,,,,,,,,,,,,,,,,,,,,,,,,,,,45,001,2023_Apr_19_1106,ExactRep-v3-final,2021.2.3,60.00798085676345,
,,,,,,,,73,0,73,0,,,,,,,,,,,,,,,,,,,,,,,,,,,,,,,,,,,,,,,,,,,,,,,,,,,,,882.5024894997478,None,,,,,,,,,,,,,,,,,,,,,,,,,,,,,,,,,,,duty,21,74,sing,white,880.4883570997044,None,None,880.4883570997044,None,,,,,,,,,,,,,,,,,,,,,,,,,,,,,,45,001,2023_Apr_19_1106,ExactRep-v3-final,2021.2.3,60.00798085676345,
,,,,,,,,74,0,74,0,,,,,,,,,,,,,,,,,,,,,,,,,,,,,,,,,,,,,,,,,,,,,,,,,,,,,885.0216089999303,None,,,,,,,,,,,,,,,,,,,,,,,,,,,,,,,,,,,season,25,75,sing,white,883.0089013995603,None,None,883.0089013995603,None,,,,,,,,,,,,,,,,,,,,,,,,,,,,,,45,001,2023_Apr_19_1106,ExactRep-v3-final,2021.2.3,60.00798085676345,
,,,,,,,,75,0,75,0,,,,,,,,,,,,,,,,,,,,,,,,,,,,,,,,,,,,,,,,,,,,,,,,,,,,,887.5240433001891,None,,,,,,,,,,,,,,,,,,,,,,,,,,,,,,,,,,,shock,90,76,aloud,blue,885.5235013999045,None,None,885.5235013999045,None,,,,,,,,,,,,,,,,,,,,,,,,,,,,,,45,001,2023_Apr_19_1106,ExactRep-v3-final,2021.2.3,60.00798085676345,
,,,,,,,,76,0,76,0,,,,,,,,,,,,,,,,,,,,,,,,,,,,,,,,,,,,,,,,,,,,,,,,,,,,,890.0434970995411,None,,,,,,,,,,,,,,,,,,,,,,,,,,,,,,,,,,,time,87,77,aloud,blue,888.0295107001439,None,None,888.0295107001439,None,,,,,,,,,,,,,,,,,,,,,,,,,,,,,,45,001,2023_Apr_19_1106,ExactRep-v3-final,2021.2.3,60.00798085676345,
,,,,,,,,77,0,77,0,,,,,,,,,,,,,,,,,,,,,,,,,,,,,,,,,,,,,,,,,,,,,,,,,,,,,892.5458936998621,None,,,,,,,,,,,,,,,,,,,,,,,,,,,,,,,,,,,owner,60,78,silent,red,890.5450748000294,None,None,890.5450748000294,None,,,,,,,,,,,,,,,,,,,,,,,,,,,,,,45,001,2023_Apr_19_1106,ExactRep-v3-final,2021.2.3,60.00798085676345,
,,,,,,,,78,0,78,0,,,,,,,,,,,,,,,,,,,,,,,,,,,,,,,,,,,,,,,,,,,,,,,,,,,,,895.0483282003552,None,,,,,,,,,,,,,,,,,,,,,,,,,,,,,,,,,,,author,14,79,sing,white,893.0480656996369,None,None,893.0480656996369,None,,,,,,,,,,,,,,,,,,,,,,,,,,,,,,45,001,2023_Apr_19_1106,ExactRep-v3-final,2021.2.3,60.00798085676345,
,,,,,,,,79,0,79,0,,,,,,,,,,,,,,,,,,,,,,,,,,,,,,,,,,,,,,,,,,,,,,,,,,,,,897.5509419003502,None,,,,,,,,,,,,,,,,,,,,,,,,,,,,,,,,,,,horse,106,80,aloud,blue,895.5504299001768,None,None,895.5504299001768,None,,,,,,,,,,,,,,,,,,,,,,,,,,,,,,45,001,2023_Apr_19_1106,ExactRep-v3-final,2021.2.3,60.00798085676345,
,,,,,,,,80,0,80,0,,,,,,,,,,,,,,,,,,,,,,,,,,,,,,,,,,,,,,,,,,,,,,,,,,,,,900.0533344000578,None,,,,,,,,,,,,,,,,,,,,,,,,,,,,,,,,,,,engine,2,81,sing,white,898.0530554000288,None,None,898.0530554000288,None,,,,,,,,,,,,,,,,,,,,,,,,,,,,,,45,001,2023_Apr_19_1106,ExactRep-v3-final,2021.2.3,60.00798085676345,
,,,,,,,,81,0,81,0,,,,,,,,,,,,,,,,,,,,,,,,,,,,,,,,,,,,,,,,,,,,,,,,,,,,,902.5556415002793,None,,,,,,,,,,,,,,,,,,,,,,,,,,,,,,,,,,,length,11,82,sing,white,900.5553716998547,None,None,900.5553716998547,None,,,,,,,,,,,,,,,,,,,,,,,,,,,,,,45,001,2023_Apr_19_1106,ExactRep-v3-final,2021.2.3,60.00798085676345,
,,,,,,,,82,0,82,0,,,,,,,,,,,,,,,,,,,,,,,,,,,,,,,,,,,,,,,,,,,,,,,,,,,,,905.0750177996233,None,,,,,,,,,,,,,,,,,,,,,,,,,,,,,,,,,,,grief,31,83,sing,white,903.0658302996308,None,None,903.0658302996308,None,,,,,,,,,,,,,,,,,,,,,,,,,,,,,,45,001,2023_Apr_19_1106,ExactRep-v3-final,2021.2.3,60.00798085676345,
,,,,,,,,83,0,83,0,,,,,,,,,,,,,,,,,,,,,,,,,,,,,,,,,,,,,,,,,,,,,,,,,,,,,907.5775995999575,None,,,,,,,,,,,,,,,,,,,,,,,,,,,,,,,,,,,bird,109,84,aloud,blue,905.5755223995075,None,None,905.5755223995075,None,,,,,,,,,,,,,,,,,,,,,,,,,,,,,,45,001,2023_Apr_19_1106,ExactRep-v3-final,2021.2.3,60.00798085676345,
,,,,,,,,84,0,84,0,,,,,,,,,,,,,,,,,,,,,,,,,,,,,,,,,,,,,,,,,,,,,,,,,,,,,910.09674299974,None,,,,,,,,,,,,,,,,,,,,,,,,,,,,,,,,,,,leader,59,85,silent,red,908.083665699698,None,None,908.083665699698,None,,,,,,,,,,,,,,,,,,,,,,,,,,,,,,45,001,2023_Apr_19_1106,ExactRep-v3-final,2021.2.3,60.00798085676345,
,,,,,,,,85,0,85,0,,,,,,,,,,,,,,,,,,,,,,,,,,,,,,,,,,,,,,,,,,,,,,,,,,,,,912.5990238003433,None,,,,,,,,,,,,,,,,,,,,,,,,,,,,,,,,,,,street,9,86,sing,white,910.5974874999374,None,None,910.5974874999374,None,,,,,,,,,,,,,,,,,,,,,,,,,,,,,,45,001,2023_Apr_19_1106,ExactRep-v3-final,2021.2.3,60.00798085676345,
,,,,,,,,86,0,86,0,,,,,,,,,,,,,,,,,,,,,,,,,,,,,,,,,,,,,,,,,,,,,,,,,,,,,915.1182543998584,None,,,,,,,,,,,,,,,,,,,,,,,,,,,,,,,,,,,method,80,87,aloud,blue,913.1066872999072,None,None,913.1066872999072,None,,,,,,,,,,,,,,,,,,,,,,,,,,,,,,45,001,2023_Apr_19_1106,ExactRep-v3-final,2021.2.3,60.00798085676345,
,,,,,,,,87,0,87,0,,,,,,,,,,,,,,,,,,,,,,,,,,,,,,,,,,,,,,,,,,,,,,,,,,,,,917.6208167001605,None,,,,,,,,,,,,,,,,,,,,,,,,,,,,,,,,,,,tree,36,88,sing,white,915.6213378999382,None,None,915.6213378999382,None,,,,,,,,,,,,,,,,,,,,,,,,,,,,,,45,001,2023_Apr_19_1106,ExactRep-v3-final,2021.2.3,60.00798085676345,
,,,,,,,,88,0,88,0,,,,,,,,,,,,,,,,,,,,,,,,,,,,,,,,,,,,,,,,,,,,,,,,,,,,,920.1401289999485,None,,,,,,,,,,,,,,,,,,,,,,,,,,,,,,,,,,,seat,42,89,silent,red,918.13165749982,None,None,918.13165749982,None,,,,,,,,,,,,,,,,,,,,,,,,,,,,,,45,001,2023_Apr_19_1106,ExactRep-v3-final,2021.2.3,60.00798085676345,
,,,,,,,,89,0,89,0,,,,,,,,,,,,,,,,,,,,,,,,,,,,,,,,,,,,,,,,,,,,,,,,,,,,,922.6593615999445,None,,,,,,,,,,,,,,,,,,,,,,,,,,,,,,,,,,,fault,64,90,silent,red,920.6489054998383,None,None,920.6489054998383,None,,,,,,,,,,,,,,,,,,,,,,,,,,,,,,45,001,2023_Apr_19_1106,ExactRep-v3-final,2021.2.3,60.00798085676345,
,,,,,,,,90,0,90,0,,,,,,,,,,,,,,,,,,,,,,,,,,,,,,,,,,,,,,,,,,,,,,,,,,,,,925.161831700243,None,,,,,,,,,,,,,,,,,,,,,,,,,,,,,,,,,,,star,93,91,aloud,blue,923.1598578998819,None,None,923.1598578998819,None,,,,,,,,,,,,,,,,,,,,,,,,,,,,,,45,001,2023_Apr_19_1106,ExactRep-v3-final,2021.2.3,60.00798085676345,
,,,,,,,,91,0,91,0,,,,,,,,,,,,,,,,,,,,,,,,,,,,,,,,,,,,,,,,,,,,,,,,,,,,,927.6808612998575,None,,,,,,,,,,,,,,,,,,,,,,,,,,,,,,,,,,,garden,4,92,sing,white,925.6653182003647,None,None,925.6653182003647,None,,,,,,,,,,,,,,,,,,,,,,,,,,,,,,45,001,2023_Apr_19_1106,ExactRep-v3-final,2021.2.3,60.00798085676345,
,,,,,,,,92,0,92,0,,,,,,,,,,,,,,,,,,,,,,,,,,,,,,,,,,,,,,,,,,,,,,,,,,,,,930.2001614999026,None,,,,,,,,,,,,,,,,,,,,,,,,,,,,,,,,,,,cattle,15,93,sing,white,928.1874502003193,None,None,928.1874502003193,None,,,,,,,,,,,,,,,,,,,,,,,,,,,,,,45,001,2023_Apr_19_1106,ExactRep-v3-final,2021.2.3,60.00798085676345,
,,,,,,,,93,0,93,0,,,,,,,,,,,,,,,,,,,,,,,,,,,,,,,,,,,,,,,,,,,,,,,,,,,,,932.7193860001862,None,,,,,,,,,,,,,,,,,,,,,,,,,,,,,,,,,,,storm,23,94,sing,white,930.7067622002214,None,None,930.7067622002214,None,,,,,,,,,,,,,,,,,,,,,,,,,,,,,,45,001,2023_Apr_19_1106,ExactRep-v3-final,2021.2.3,60.00798085676345,
,,,,,,,,94,0,94,0,,,,,,,,,,,,,,,,,,,,,,,,,,,,,,,,,,,,,,,,,,,,,,,,,,,,,935.221917600371,None,,,,,,,,,,,,,,,,,,,,,,,,,,,,,,,,,,,cost,113,95,aloud,blue,933.2199138998985,None,None,933.2199138998985,None,,,,,,,,,,,,,,,,,,,,,,,,,,,,,,45,001,2023_Apr_19_1106,ExactRep-v3-final,2021.2.3,60.00798085676345,
,,,,,,,,95,0,95,0,,,,,,,,,,,,,,,,,,,,,,,,,,,,,,,,,,,,,,,,,,,,,,,,,,,,,937.7410695003346,None,,,,,,,,,,,,,,,,,,,,,,,,,,,,,,,,,,,mother,39,96,silent,red,935.7278146995232,None,None,935.7278146995232,None,,,,,,,,,,,,,,,,,,,,,,,,,,,,,,45,001,2023_Apr_19_1106,ExactRep-v3-final,2021.2.3,60.00798085676345,
,,,,,,,,96,0,96,0,,,,,,,,,,,,,,,,,,,,,,,,,,,,,,,,,,,,,,,,,,,,,,,,,,,,,940.2435397999361,None,,,,,,,,,,,,,,,,,,,,,,,,,,,,,,,,,,,rod,1,97,sing,white,938.2415640000254,None,None,938.2415640000254,None,,,,,,,,,,,,,,,,,,,,,,,,,,,,,,45,001,2023_Apr_19_1106,ExactRep-v3-final,2021.2.3,60.00798085676345,
,,,,,,,,97,0,97,0,,,,,,,,,,,,,,,,,,,,,,,,,,,,,,,,,,,,,,,,,,,,,,,,,,,,,942.7625553002581,None,,,,,,,,,,,,,,,,,,,,,,,,,,,,,,,,,,,wife,53,98,silent,red,940.7478831000626,None,None,940.7478831000626,None,,,,,,,,,,,,,,,,,,,,,,,,,,,,,,45,001,2023_Apr_19_1106,ExactRep-v3-final,2021.2.3,60.00798085676345,
,,,,,,,,98,0,98,0,,,,,,,,,,,,,,,,,,,,,,,,,,,,,,,,,,,,,,,,,,,,,,,,,,,,,945.2650570999831,None,,,,,,,,,,,,,,,,,,,,,,,,,,,,,,,,,,,meadow,94,99,aloud,blue,943.2637778995559,None,None,943.2637778995559,None,,,,,,,,,,,,,,,,,,,,,,,,,,,,,,45,001,2023_Apr_19_1106,ExactRep-v3-final,2021.2.3,60.00798085676345,
,,,,,,,,99,0,99,0,,,,,,,,,,,,,,,,,,,,,,,,,,,,,,,,,,,,,,,,,,,,,,,,,,,,,947.7842681994662,None,,,,,,,,,,,,,,,,,,,,,,,,,,,,,,,,,,,blood,79,100,sing,white,945.7727266997099,None,None,945.7727266997099,None,,,,,,,,,,,,,,,,,,,,,,,,,,,,,,45,001,2023_Apr_19_1106,ExactRep-v3-final,2021.2.3,60.00798085676345,
,,,,,,,,100,0,100,0,,,,,,,,,,,,,,,,,,,,,,,,,,,,,,,,,,,,,,,,,,,,,,,,,,,,,950.2869031000882,None,,,,,,,,,,,,,,,,,,,,,,,,,,,,,,,,,,,priest,61,101,silent,red,948.2848795000464,None,None,948.2848795000464,None,,,,,,,,,,,,,,,,,,,,,,,,,,,,,,45,001,2023_Apr_19_1106,ExactRep-v3-final,2021.2.3,60.00798085676345,
,,,,,,,,101,0,101,0,,,,,,,,,,,,,,,,,,,,,,,,,,,,,,,,,,,,,,,,,,,,,,,,,,,,,952.7893624994904,None,,,,,,,,,,,,,,,,,,,,,,,,,,,,,,,,,,,passion,101,102,aloud,blue,950.7871767999604,None,None,950.7871767999604,None,,,,,,,,,,,,,,,,,,,,,,,,,,,,,,45,001,2023_Apr_19_1106,ExactRep-v3-final,2021.2.3,60.00798085676345,
,,,,,,,,102,0,102,0,,,,,,,,,,,,,,,,,,,,,,,,,,,,,,,,,,,,,,,,,,,,,,,,,,,,,955.3085970003158,None,,,,,,,,,,,,,,,,,,,,,,,,,,,,,,,,,,,apple,13,103,sing,white,953.2942482000217,None,None,953.2942482000217,None,,,,,,,,,,,,,,,,,,,,,,,,,,,,,,45,001,2023_Apr_19_1106,ExactRep-v3-final,2021.2.3,60.00798085676345,
,,,,,,,,103,0,103,0,,,,,,,,,,,,,,,,,,,,,,,,,,,,,,,,,,,,,,,,,,,,,,,,,,,,,957.8112415997311,None,,,,,,,,,,,,,,,,,,,,,,,,,,,,,,,,,,,colony,103,104,aloud,blue,955.8120484994724,None,None,955.8120484994724,None,,,,,,,,,,,,,,,,,,,,,,,,,,,,,,45,001,2023_Apr_19_1106,ExactRep-v3-final,2021.2.3,60.00798085676345,
,,,,,,,,104,0,104,0,,,,,,,,,,,,,,,,,,,,,,,,,,,,,,,,,,,,,,,,,,,,,,,,,,,,,960.3302050996572,None,,,,,,,,,,,,,,,,,,,,,,,,,,,,,,,,,,,valley,30,105,sing,white,958.3146869996563,None,None,958.3146869996563,None,,,,,,,,,,,,,,,,,,,,,,,,,,,,,,45,001,2023_Apr_19_1106,ExactRep-v3-final,2021.2.3,60.00798085676345,
,,,,,,,,105,0,105,0,,,,,,,,,,,,,,,,,,,,,,,,,,,,,,,,,,,,,,,,,,,,,,,,,,,,,962.8495554998517,None,,,,,,,,,,,,,,,,,,,,,,,,,,,,,,,,,,,series,52,106,silent,red,960.8376703998074,None,None,960.8376703998074,None,,,,,,,,,,,,,,,,,,,,,,,,,,,,,,45,001,2023_Apr_19_1106,ExactRep-v3-final,2021.2.3,60.00798085676345,
,,,,,,,,106,0,106,0,,,,,,,,,,,,,,,,,,,,,,,,,,,,,,,,,,,,,,,,,,,,,,,,,,,,,965.3519713003188,None,,,,,,,,,,,,,,,,,,,,,,,,,,,,,,,,,,,vision,85,107,aloud,blue,963.3498841002584,None,None,963.3498841002584,None,,,,,,,,,,,,,,,,,,,,,,,,,,,,,,45,001,2023_Apr_19_1106,ExactRep-v3-final,2021.2.3,60.00798085676345,
,,,,,,,,107,0,107,0,,,,,,,,,,,,,,,,,,,,,,,,,,,,,,,,,,,,,,,,,,,,,,,,,,,,,967.854605499655,None,,,,,,,,,,,,,,,,,,,,,,,,,,,,,,,,,,,vessel,44,108,silent,red,965.8553512003273,None,None,965.8553512003273,None,,,,,,,,,,,,,,,,,,,,,,,,,,,,,,45,001,2023_Apr_19_1106,ExactRep-v3-final,2021.2.3,60.00798085676345,
,,,,,,,,108,0,108,0,,,,,,,,,,,,,,,,,,,,,,,,,,,,,,,,,,,,,,,,,,,,,,,,,,,,,970.3736418001354,None,,,,,,,,,,,,,,,,,,,,,,,,,,,,,,,,,,,letter,110,109,aloud,blue,968.361318600364,None,None,968.361318600364,None,,,,,,,,,,,,,,,,,,,,,,,,,,,,,,45,001,2023_Apr_19_1106,ExactRep-v3-final,2021.2.3,60.00798085676345,
,,,,,,,,109,0,109,0,,,,,,,,,,,,,,,,,,,,,,,,,,,,,,,,,,,,,,,,,,,,,,,,,,,,,972.8768849000335,None,,,,,,,,,,,,,,,,,,,,,,,,,,,,,,,,,,,chair,78,110,silent,red,970.8740128995851,None,None,970.8740128995851,None,,,,,,,,,,,,,,,,,,,,,,,,,,,,,,45,001,2023_Apr_19_1106,ExactRep-v3-final,2021.2.3,60.00798085676345,
,,,,,,,,110,0,110,0,,,,,,,,,,,,,,,,,,,,,,,,,,,,,,,,,,,,,,,,,,,,,,,,,,,,,975.37864909973,None,,,,,,,,,,,,,,,,,,,,,,,,,,,,,,,,,,,crime,96,111,aloud,blue,973.3780150003731,None,None,973.3780150003731,None,,,,,,,,,,,,,,,,,,,,,,,,,,,,,,45,001,2023_Apr_19_1106,ExactRep-v3-final,2021.2.3,60.00798085676345,
,,,,,,,,111,0,111,0,,,,,,,,,,,,,,,,,,,,,,,,,,,,,,,,,,,,,,,,,,,,,,,,,,,,,977.8812108999118,None,,,,,,,,,,,,,,,,,,,,,,,,,,,,,,,,,,,woman,3,112,sing,white,975.8810606002808,None,None,975.8810606002808,None,,,,,,,,,,,,,,,,,,,,,,,,,,,,,,45,001,2023_Apr_19_1106,ExactRep-v3-final,2021.2.3,60.00798085676345,
,,,,,,,,112,0,112,0,,,,,,,,,,,,,,,,,,,,,,,,,,,,,,,,,,,,,,,,,,,,,,,,,,,,,980.4004180002958,None,,,,,,,,,,,,,,,,,,,,,,,,,,,,,,,,,,,flood,17,113,sing,white,978.3851129002869,None,None,978.3851129002869,None,,,,,,,,,,,,,,,,,,,,,,,,,,,,,,45,001,2023_Apr_19_1106,ExactRep-v3-final,2021.2.3,60.00798085676345,
,,,,,,,,113,0,113,0,,,,,,,,,,,,,,,,,,,,,,,,,,,,,,,,,,,,,,,,,,,,,,,,,,,,,982.9029208002612,None,,,,,,,,,,,,,,,,,,,,,,,,,,,,,,,,,,,palace,46,114,silent,red,980.9035625997931,None,None,980.9035625997931,None,,,,,,,,,,,,,,,,,,,,,,,,,,,,,,45,001,2023_Apr_19_1106,ExactRep-v3-final,2021.2.3,60.00798085676345,
,,,,,,,,114,0,114,0,,,,,,,,,,,,,,,,,,,,,,,,,,,,,,,,,,,,,,,,,,,,,,,,,,,,,985.4052240997553,None,,,,,,,,,,,,,,,,,,,,,,,,,,,,,,,,,,,car,55,115,silent,red,983.4062275001779,None,None,983.4062275001779,None,,,,,,,,,,,,,,,,,,,,,,,,,,,,,,45,001,2023_Apr_19_1106,ExactRep-v3-final,2021.2.3,60.00798085676345,
,,,,,,,,115,0,115,0,,,,,,,,,,,,,,,,,,,,,,,,,,,,,,,,,,,,,,,,,,,,,,,,,,,,,987.9079064000398,None,,,,,,,,,,,,,,,,,,,,,,,,,,,,,,,,,,,house,91,116,aloud,blue,985.9058341998607,None,None,985.9058341998607,None,,,,,,,,,,,,,,,,,,,,,,,,,,,,,,45,001,2023_Apr_19_1106,ExactRep-v3-final,2021.2.3,60.00798085676345,
,,,,,,,,116,0,116,0,,,,,,,,,,,,,,,,,,,,,,,,,,,,,,,,,,,,,,,,,,,,,,,,,,,,,990.42687559966,None,,,,,,,,,,,,,,,,,,,,,,,,,,,,,,,,,,,lip,86,117,aloud,blue,988.4115265002474,None,None,988.4115265002474,None,,,,,,,,,,,,,,,,,,,,,,,,,,,,,,45,001,2023_Apr_19_1106,ExactRep-v3-final,2021.2.3,60.00798085676345,
,,,,,,,,117,0,117,0,,,,,,,,,,,,,,,,,,,,,,,,,,,,,,,,,,,,,,,,,,,,,,,,,,,,,992.9295923002064,None,,,,,,,,,,,,,,,,,,,,,,,,,,,,,,,,,,,butter,84,118,aloud,blue,990.9273907998577,None,None,990.9273907998577,None,,,,,,,,,,,,,,,,,,,,,,,,,,,,,,45,001,2023_Apr_19_1106,ExactRep-v3-final,2021.2.3,60.00798085676345,
,,,,,,,,118,0,118,0,,,,,,,,,,,,,,,,,,,,,,,,,,,,,,,,,,,,,,,,,,,,,,,,,,,,,995.4320606999099,None,,,,,,,,,,,,,,,,,,,,,,,,,,,,,,,,,,,soul,41,119,silent,red,993.4324946003035,None,None,993.4324946003035,None,,,,,,,,,,,,,,,,,,,,,,,,,,,,,,45,001,2023_Apr_19_1106,ExactRep-v3-final,2021.2.3,60.00798085676345,
,,,,,,,,119,0,119,0,,,,,,,,,,,,,,,,,,,,,,,,,,,,,,,,,,,,,,,,,,,,,,,,,,,,,997.9512968994677,None,,,,,,,,,,,,,,,,,,,,,,,,,,,,,,,,,,,anger,74,120,silent,red,995.9381870999932,None,None,995.9381870999932,None,,,,,,,,,,,,,,,,,,,,,,,,,,,,,,45,001,2023_Apr_19_1106,ExactRep-v3-final,2021.2.3,60.00798085676345,
,,,,,,,,,,,,,,,,,,,,,,,,,,,,,,,,,,,,,,,,,,,,,,,,,,,,,,,,,,,,,,,,,,,,,,,,,,,,,,,,,,,,,,,,,,,,,,,,,,,,,,,,,,,,,,998.4532474000007,None,space,7.8658591993153095,1008.429366200231,None,,,,,,,,,,,,,,,,,,,,,,,,45,001,2023_Apr_19_1106,ExactRep-v3-final,2021.2.3,60.00798085676345,
,,,,,,,,,,,,,,,,,,,,,,,,,,,,,,,,,,,,,,,,,,,,,,,,,,,,,,,,,,,,,,,,,,,,,,,,,,,,,,,,,,,,,,,,,,,,,,,,,,,,,,,,,,,,,,,,,,,,1016.3214736999944,None,space,30.557763000018895,1026.29761569947,None,,,,,,,,,,,,,,,,,,45,001,2023_Apr_19_1106,ExactRep-v3-final,2021.2.3,60.00798085676345,
,,,,,,,,,,,,0,0,0,0,,,,,,,,,,,,,,,,,,,,,,,,,,,,,,,,,,,,,,,,,,,,,,,,,1060.697244799696,None,,,,,,,,,,,,,,,,,,,,,,,,,,,,,,,,,,,,,,,,,,,,,,,,,,,,,,,,,valley,30,1,sing,old,yellow,1057.3855766002089,None,y,1057.3855766002089,None,"['y', 'return']","[1.6373279001563787, 3.269261199980974]",1057.3855766002089,None,,,45,001,2023_Apr_19_1106,ExactRep-v3-final,2021.2.3,60.00798085676345,
,,,,,,,,,,,,1,0,1,0,,,,,,,,,,,,,,,,,,,,,,,,,,,,,,,,,,,,,,,,,,,,,,,,,1062.8994333995506,None,,,,,,,,,,,,,,,,,,,,,,,,,,,,,,,,,,,,,,,,,,,,,,,,,,,,,,,,,blossom,92,2,aloud,old,yellow,1061.2063390994444,None,y,1061.2063390994444,None,"['y', 'return']","[1.0725347995758057, 1.6566976998001337]",1061.2063390994444,None,,,45,001,2023_Apr_19_1106,ExactRep-v3-final,2021.2.3,60.00798085676345,
,,,,,,,,,,,,2,0,2,0,,,,,,,,,,,,,,,,,,,,,,,,,,,,,,,,,,,,,,,,,,,,,,,,,1065.8023039000109,None,,,,,,,,,,,,,,,,,,,,,,,,,,,,,,,,,,,,,,,,,,,,,,,,,,,,,,,,,world,170,3,aloud,new,yellow,1063.4098632996902,None,n,1063.4098632996902,None,"['n', 'return']","[1.5489782998338342, 2.357142699882388]",1063.4098632996902,None,,,45,001,2023_Apr_19_1106,ExactRep-v3-final,2021.2.3,60.00798085676345,
,,,,,,,,,,,,3,0,3,0,,,,,,,,,,,,,,,,,,,,,,,,,,,,,,,,,,,,,,,,,,,,,,,,,1069.589347999543,None,,,,,,,,,,,,,,,,,,,,,,,,,,,,,,,,,,,,,,,,,,,,,,,,,,,,,,,,,history,104,4,aloud,old,yellow,1066.3037697998807,None,y,1066.3037697998807,None,"['y', 'return']","[2.455102000385523, 3.247098100371659]",1066.3037697998807,None,,,45,001,2023_Apr_19_1106,ExactRep-v3-final,2021.2.3,60.00798085676345,
,,,,,,,,,,,,4,0,4,0,,,,,,,,,,,,,,,,,,,,,,,,,,,,,,,,,,,,,,,,,,,,,,,,,1071.6247539995238,None,,,,,,,,,,,,,,,,,,,,,,,,,,,,,,,,,,,,,,,,,,,,,,,,,,,,,,,,,poet,174,5,aloud,new,yellow,1070.0982176996768,None,n,1070.0982176996768,None,"['n', 'return']","[1.028643399477005, 1.492625399492681]",1070.0982176996768,None,,,45,001,2023_Apr_19_1106,ExactRep-v3-final,2021.2.3,60.00798085676345,
,,,,,,,,,,,,5,0,5,0,,,,,,,,,,,,,,,,,,,,,,,,,,,,,,,,,,,,,,,,,,,,,,,,,1074.161685699597,None,,,,,,,,,,,,,,,,,,,,,,,,,,,,,,,,,,,,,,,,,,,,,,,,,,,,,,,,,king,56,6,silent,old,yellow,1072.1453740000725,None,y,1072.1453740000725,None,"['y', 'return']","[1.645490000024438, 1.9734701002016664]",1072.1453740000725,None,,,45,001,2023_Apr_19_1106,ExactRep-v3-final,2021.2.3,60.00798085676345,
,,,,,,,,,,,,6,0,6,0,,,,,,,,,,,,,,,,,,,,,,,,,,,,,,,,,,,,,,,,,,,,,,,,,1076.0792141994461,None,,,,,,,,,,,,,,,,,,,,,,,,,,,,,,,,,,,,,,,,,,,,,,,,,,,,,,,,,breast,163,7,sing,new,yellow,1074.6703204000369,None,n,1074.6703204000369,None,"['n', 'return']","[1.016525899991393, 1.3765555005520582]",1074.6703204000369,None,,,45,001,2023_Apr_19_1106,ExactRep-v3-final,2021.2.3,60.00798085676345,
,,,,,,,,,,,,7,0,7,0,,,,,,,,,,,,,,,,,,,,,,,,,,,,,,,,,,,,,,,,,,,,,,,,,1078.4481723001227,None,,,,,,,,,,,,,,,,,,,,,,,,,,,,,,,,,,,,,,,,,,,,,,,,,,,,,,,,,moral,143,8,silent,new,yellow,1076.58738549985,None,n,1076.58738549985,None,"['n', 'return']","[1.4435700997710228, 1.8273768993094563]",1076.58738549985,None,,,45,001,2023_Apr_19_1106,ExactRep-v3-final,2021.2.3,60.00798085676345,
,,,,,,,,,,,,8,0,8,0,,,,,,,,,,,,,,,,,,,,,,,,,,,,,,,,,,,,,,,,,,,,,,,,,1080.2333942996338,None,,,,,,,,,,,,,,,,,,,,,,,,,,,,,,,,,,,,,,,,,,,,,,,,,,,,,,,,,flower,186,9,aloud,new,yellow,1078.9566815998405,None,y,1078.9566815998405,None,"['y', 'return']","[0.890145999379456, 1.2420970993116498]",1078.9566815998405,None,,,45,001,2023_Apr_19_1106,ExactRep-v3-final,2021.2.3,60.00798085676345,
,,,,,,,,,,,,9,0,9,0,,,,,,,,,,,,,,,,,,,,,,,,,,,,,,,,,,,,,,,,,,,,,,,,,1082.1018043998629,None,,,,,,,,,,,,,,,,,,,,,,,,,,,,,,,,,,,,,,,,,,,,,,,,,,,,,,,,,doll,234,10,aloud,new,yellow,1080.7423272002488,None,n,1080.7423272002488,None,"['n', 'return']","[1.0005446001887321, 1.320558600127697]",1080.7423272002488,None,,,45,001,2023_Apr_19_1106,ExactRep-v3-final,2021.2.3,60.00798085676345,
,,,,,,,,,,,,10,0,10,0,,,,,,,,,,,,,,,,,,,,,,,,,,,,,,,,,,,,,,,,,,,,,,,,,1084.7714026998729,None,,,,,,,,,,,,,,,,,,,,,,,,,,,,,,,,,,,,,,,,,,,,,,,,,,,,,,,,,machine,71,11,silent,old,yellow,1082.6117315003648,None,n,1082.6117315003648,None,"['n', 'return']","[1.435241799801588, 2.1231431998312473]",1082.6117315003648,None,,,45,001,2023_Apr_19_1106,ExactRep-v3-final,2021.2.3,60.00798085676345,
,,,,,,,,,,,,11,0,11,0,,,,,,,,,,,,,,,,,,,,,,,,,,,,,,,,,,,,,,,,,,,,,,,,,1086.8733858000487,None,,,,,,,,,,,,,,,,,,,,,,,,,,,,,,,,,,,,,,,,,,,,,,,,,,,,,,,,,letter,110,12,aloud,old,yellow,1085.283117200248,None,y,1085.283117200248,None,"['y', 'return']","[1.203710800036788, 1.5556910000741482]",1085.283117200248,None,,,45,001,2023_Apr_19_1106,ExactRep-v3-final,2021.2.3,60.00798085676345,
,,,,,,,,,,,,12,0,12,0,,,,,,,,,,,,,,,,,,,,,,,,,,,,,,,,,,,,,,,,,,,,,,,,,1088.6918490994722,None,,,,,,,,,,,,,,,,,,,,,,,,,,,,,,,,,,,,,,,,,,,,,,,,,,,,,,,,,market,178,13,aloud,new,yellow,1087.3989442000166,None,n,1087.3989442000166,None,"['n', 'return']","[0.9359579998999834, 1.2479596994817257]",1087.3989442000166,None,,,45,001,2023_Apr_19_1106,ExactRep-v3-final,2021.2.3,60.00798085676345,
,,,,,,,,,,,,13,0,13,0,,,,,,,,,,,,,,,,,,,,,,,,,,,,,,,,,,,,,,,,,,,,,,,,,1090.5603296998888,None,,,,,,,,,,,,,,,,,,,,,,,,,,,,,,,,,,,,,,,,,,,,,,,,,,,,,,,,,soul,41,14,silent,old,yellow,1089.203670299612,None,y,1089.203670299612,None,"['y', 'return']","[1.035354900173843, 1.3231245996430516]",1089.203670299612,None,,,45,001,2023_Apr_19_1106,ExactRep-v3-final,2021.2.3,60.00798085676345,
,,,,,,,,,,,,14,0,14,0,,,,,,,,,,,,,,,,,,,,,,,,,,,,,,,,,,,,,,,,,,,,,,,,,1092.2955944994465,None,,,,,,,,,,,,,,,,,,,,,,,,,,,,,,,,,,,,,,,,,,,,,,,,,,,,,,,,,rod,1,15,sing,old,yellow,1091.0694399997592,None,y,1091.0694399997592,None,"['y', 'return']","[0.8173968996852636, 1.18549960013479]",1091.0694399997592,None,,,45,001,2023_Apr_19_1106,ExactRep-v3-final,2021.2.3,60.00798085676345,
,,,,,,,,,,,,15,0,15,0,,,,,,,,,,,,,,,,,,,,,,,,,,,,,,,,,,,,,,,,,,,,,,,,,1095.298378800042,None,,,,,,,,,,,,,,,,,,,,,,,,,,,,,,,,,,,,,,,,,,,,,,,,,,,,,,,,,love,24,16,sing,old,yellow,1092.8016791995615,None,y,1092.8016791995615,None,"['y', 'return']","[2.1732024997472763, 2.4613044997677207]",1092.8016791995615,None,,,45,001,2023_Apr_19_1106,ExactRep-v3-final,2021.2.3,60.00798085676345,
,,,,,,,,,,,,16,0,16,0,,,,,,,,,,,,,,,,,,,,,,,,,,,,,,,,,,,,,,,,,,,,,,,,,1097.2670408003032,None,,,,,,,,,,,,,,,,,,,,,,,,,,,,,,,,,,,,,,,,,,,,,,,,,,,,,,,,,shore,159,17,silent,new,yellow,1095.8083849996328,None,n,1095.8083849996328,None,"['n', 'return']","[1.0944931004196405, 1.4225150998681784]",1095.8083849996328,None,,,45,001,2023_Apr_19_1106,ExactRep-v3-final,2021.2.3,60.00798085676345,
,,,,,,,,,,,,17,0,17,0,,,,,,,,,,,,,,,,,,,,,,,,,,,,,,,,,,,,,,,,,,,,,,,,,1099.1021809000522,None,,,,,,,,,,,,,,,,,,,,,,,,,,,,,,,,,,,,,,,,,,,,,,,,,,,,,,,,,origin,214,18,aloud,new,yellow,1097.7767599998042,None,n,1097.7767599998042,None,"['n', 'return']","[0.9581132000312209, 1.2781100999563932]",1097.7767599998042,None,,,45,001,2023_Apr_19_1106,ExactRep-v3-final,2021.2.3,60.00798085676345,
,,,,,,,,,,,,18,0,18,0,,,,,,,,,,,,,,,,,,,,,,,,,,,,,,,,,,,,,,,,,,,,,,,,,1100.8205615002662,None,,,,,,,,,,,,,,,,,,,,,,,,,,,,,,,,,,,,,,,,,,,,,,,,,,,,,,,,,home,232,19,aloud,new,yellow,1099.6127867000178,None,y,1099.6127867000178,None,"['y', 'return']","[0.8821614002808928, 1.170232499949634]",1099.6127867000178,None,,,45,001,2023_Apr_19_1106,ExactRep-v3-final,2021.2.3,60.00798085676345,
,,,,,,,,,,,,19,0,19,0,,,,,,,,,,,,,,,,,,,,,,,,,,,,,,,,,,,,,,,,,,,,,,,,,1102.5223870994523,None,,,,,,,,,,,,,,,,,,,,,,,,,,,,,,,,,,,,,,,,,,,,,,,,,,,,,,,,,shock,90,20,aloud,old,yellow,1101.3309790994972,None,y,1101.3309790994972,None,"['y', 'return']","[0.8201396996155381, 1.1478129997849464]",1101.3309790994972,None,,,45,001,2023_Apr_19_1106,ExactRep-v3-final,2021.2.3,60.00798085676345,
,,,,,,,,,,,,20,0,20,0,,,,,,,,,,,,,,,,,,,,,,,,,,,,,,,,,,,,,,,,,,,,,,,,,1104.1905934000388,None,,,,,,,,,,,,,,,,,,,,,,,,,,,,,,,,,,,,,,,,,,,,,,,,,,,,,,,,,skin,112,21,aloud,old,yellow,1103.0276220003143,None,y,1103.0276220003143,None,"['y', 'return']","[0.7713583996519446, 1.1313201002776623]",1103.0276220003143,None,,,45,001,2023_Apr_19_1106,ExactRep-v3-final,2021.2.3,60.00798085676345,
,,,,,,,,,,,,21,0,21,0,,,,,,,,,,,,,,,,,,,,,,,,,,,,,,,,,,,,,,,,,,,,,,,,,1106.442851900123,None,,,,,,,,,,,,,,,,,,,,,,,,,,,,,,,,,,,,,,,,,,,,,,,,,,,,,,,,,storm,23,22,sing,old,yellow,1104.6946599995717,None,y,1104.6946599995717,None,"['y', 'return']","[1.3842184003442526, 1.704132099635899]",1104.6946599995717,None,,,45,001,2023_Apr_19_1106,ExactRep-v3-final,2021.2.3,60.00798085676345,
,,,,,,,,,,,,22,0,22,0,,,,,,,,,,,,,,,,,,,,,,,,,,,,,,,,,,,,,,,,,,,,,,,,,1108.3113895002753,None,,,,,,,,,,,,,,,,,,,,,,,,,,,,,,,,,,,,,,,,,,,,,,,,,,,,,,,,,woods,148,23,silent,new,yellow,1106.9582016998902,None,n,1106.9582016998902,None,"['n', 'return']","[1.0167022002860904, 1.320702699944377]",1106.9582016998902,None,,,45,001,2023_Apr_19_1106,ExactRep-v3-final,2021.2.3,60.00798085676345,
,,,,,,,,,,,,23,0,23,0,,,,,,,,,,,,,,,,,,,,,,,,,,,,,,,,,,,,,,,,,,,,,,,,,1110.2467328002676,None,,,,,,,,,,,,,,,,,,,,,,,,,,,,,,,,,,,,,,,,,,,,,,,,,,,,,,,,,student,161,24,sing,new,yellow,1108.8169064996764,None,n,1108.8169064996764,None,"['n', 'return']","[1.061919099651277, 1.3980160998180509]",1108.8169064996764,None,,,45,001,2023_Apr_19_1106,ExactRep-v3-final,2021.2.3,60.00798085676345,
,,,,,,,,,,,,24,0,24,0,,,,,,,,,,,,,,,,,,,,,,,,,,,,,,,,,,,,,,,,,,,,,,,,,1111.9317226996645,None,,,,,,,,,,,,,,,,,,,,,,,,,,,,,,,,,,,,,,,,,,,,,,,,,,,,,,,,,blood,79,25,sing,old,yellow,1110.754928600043,None,y,1110.754928600043,None,"['y', 'return']","[0.8438657997176051, 1.132005799561739]",1110.754928600043,None,,,45,001,2023_Apr_19_1106,ExactRep-v3-final,2021.2.3,60.00798085676345,
,,,,,,,,,,,,25,0,25,0,,,,,,,,,,,,,,,,,,,,,,,,,,,,,,,,,,,,,,,,,,,,,,,,,1113.7669860003516,None,,,,,,,,,,,,,,,,,,,,,,,,,,,,,,,,,,,,,,,,,,,,,,,,,,,,,,,,,brain,100,26,aloud,old,yellow,1112.4389789998531,None,y,1112.4389789998531,None,"['y', 'return']","[0.9598422003909945, 1.2799319000914693]",1112.4389789998531,None,,,45,001,2023_Apr_19_1106,ExactRep-v3-final,2021.2.3,60.00798085676345,
,,,,,,,,,,,,26,0,26,0,,,,,,,,,,,,,,,,,,,,,,,,,,,,,,,,,,,,,,,,,,,,,,,,,1116.5529522998258,None,,,,,,,,,,,,,,,,,,,,,,,,,,,,,,,,,,,,,,,,,,,,,,,,,,,,,,,,,dress,51,27,silent,old,yellow,1114.2796646999195,None,n,1114.2796646999195,None,"['n', 'return']","[1.8311960995197296, 2.23130189999938]",1114.2796646999195,None,,,45,001,2023_Apr_19_1106,ExactRep-v3-final,2021.2.3,60.00798085676345,
,,,,,,,,,,,,27,0,27,0,,,,,,,,,,,,,,,,,,,,,,,,,,,,,,,,,,,,,,,,,,,,,,,,,1118.271405399777,None,,,,,,,,,,,,,,,,,,,,,,,,,,,,,,,,,,,,,,,,,,,,,,,,,,,,,,,,,kiss,172,28,aloud,new,yellow,1117.0619901996106,None,y,1117.0619901996106,None,"['y', 'return']","[0.9052107995375991, 1.1689175991341472]",1117.0619901996106,None,,,45,001,2023_Apr_19_1106,ExactRep-v3-final,2021.2.3,60.00798085676345,
,,,,,,,,,,,,28,0,28,0,,,,,,,,,,,,,,,,,,,,,,,,,,,,,,,,,,,,,,,,,,,,,,,,,1119.9063448002562,None,,,,,,,,,,,,,,,,,,,,,,,,,,,,,,,,,,,,,,,,,,,,,,,,,,,,,,,,,tree,36,29,sing,old,yellow,1118.7793626999483,None,y,1118.7793626999483,None,"['y', 'return']","[0.7635396998375654, 1.091635499149561]",1118.7793626999483,None,,,45,001,2023_Apr_19_1106,ExactRep-v3-final,2021.2.3,60.00798085676345,
,,,,,,,,,,,,29,0,29,0,,,,,,,,,,,,,,,,,,,,,,,,,,,,,,,,,,,,,,,,,,,,,,,,,1121.6583209000528,None,,,,,,,,,,,,,,,,,,,,,,,,,,,,,,,,,,,,,,,,,,,,,,,,,,,,,,,,,book,65,30,silent,old,yellow,1120.414997300133,None,y,1120.414997300133,None,"['y', 'return']","[0.8881049007177353, 1.2080071000382304]",1120.414997300133,None,,,45,001,2023_Apr_19_1106,ExactRep-v3-final,2021.2.3,60.00798085676345,
,,,,,,,,,,,,30,0,30,0,,,,,,,,,,,,,,,,,,,,,,,,,,,,,,,,,,,,,,,,,,,,,,,,,1123.3766761003062,None,,,,,,,,,,,,,,,,,,,,,,,,,,,,,,,,,,,,,,,,,,,,,,,,,,,,,,,,,season,25,31,sing,old,yellow,1122.168955099769,None,y,1122.168955099769,None,"['y', 'return']","[0.8699668999761343, 1.1739308992400765]",1122.168955099769,None,,,45,001,2023_Apr_19_1106,ExactRep-v3-final,2021.2.3,60.00798085676345,
,,,,,,,,,,,,31,0,31,0,,,,,,,,,,,,,,,,,,,,,,,,,,,,,,,,,,,,,,,,,,,,,,,,,1125.094995699823,None,,,,,,,,,,,,,,,,,,,,,,,,,,,,,,,,,,,,,,,,,,,,,,,,,,,,,,,,,style,202,32,aloud,new,yellow,1123.8868442997336,None,n,1123.8868442997336,None,"['n', 'return']","[0.8482117000967264, 1.1601603999733925]",1123.8868442997336,None,,,45,001,2023_Apr_19_1106,ExactRep-v3-final,2021.2.3,60.00798085676345,
,,,,,,,,,,,,32,0,32,0,,,,,,,,,,,,,,,,,,,,,,,,,,,,,,,,,,,,,,,,,,,,,,,,,1128.882034899667,None,,,,,,,,,,,,,,,,,,,,,,,,,,,,,,,,,,,,,,,,,,,,,,,,,,,,,,,,,hour,137,33,silent,new,yellow,1125.6022006999701,None,n,1125.6022006999701,None,"['n', 'return']","[2.8688436998054385, 3.23664109967649]",1125.6022006999701,None,,,45,001,2023_Apr_19_1106,ExactRep-v3-final,2021.2.3,60.00798085676345,
,,,,,,,,,,,,33,0,33,0,,,,,,,,,,,,,,,,,,,,,,,,,,,,,,,,,,,,,,,,,,,,,,,,,1130.8172338996083,None,,,,,,,,,,,,,,,,,,,,,,,,,,,,,,,,,,,,,,,,,,,,,,,,,,,,,,,,,air,72,34,silent,old,yellow,1129.3909042999148,None,n,1129.3909042999148,None,"['n', 'return']","[1.0719739003106952, 1.391944500617683]",1129.3909042999148,None,,,45,001,2023_Apr_19_1106,ExactRep-v3-final,2021.2.3,60.00798085676345,
,,,,,,,,,,,,34,0,34,0,,,,,,,,,,,,,,,,,,,,,,,,,,,,,,,,,,,,,,,,,,,,,,,,,1133.4866303997114,None,,,,,,,,,,,,,,,,,,,,,,,,,,,,,,,,,,,,,,,,,,,,,,,,,,,,,,,,,flesh,203,35,sing,new,yellow,1131.3330226000398,None,n,1131.3330226000398,None,"['n', 'return']","[1.7778262998908758, 2.121834099292755]",1131.3330226000398,None,,,45,001,2023_Apr_19_1106,ExactRep-v3-final,2021.2.3,60.00798085676345,
,,,,,,,,,,,,35,0,35,0,,,,,,,,,,,,,,,,,,,,,,,,,,,,,,,,,,,,,,,,,,,,,,,,,1137.624024500139,None,,,,,,,,,,,,,,,,,,,,,,,,,,,,,,,,,,,,,,,,,,,,,,,,,,,,,,,,,earth,81,36,aloud,old,yellow,1133.994780300185,None,n,1133.994780300185,None,"['n', 'return']","[3.2041159998625517, 3.588290300220251]",1133.994780300185,None,,,45,001,2023_Apr_19_1106,ExactRep-v3-final,2021.2.3,60.00798085676345,
,,,,,,,,,,,,36,0,36,0,,,,,,,,,,,,,,,,,,,,,,,,,,,,,,,,,,,,,,,,,,,,,,,,,1141.0774593995884,None,,,,,,,,,,,,,,,,,,,,,,,,,,,,,,,,,,,,,,,,,,,,,,,,,,,,,,,,,meeting,188,37,aloud,new,yellow,1138.1323504997417,None,n,1138.1323504997417,None,"['n', 'return']","[2.418720000423491, 2.9067465998232365]",1138.1323504997417,None,,,45,001,2023_Apr_19_1106,ExactRep-v3-final,2021.2.3,60.00798085676345,
,,,,,,,,,,,,37,0,37,0,,,,,,,,,,,,,,,,,,,,,,,,,,,,,,,,,,,,,,,,,,,,,,,,,1142.8960461998358,None,,,,,,,,,,,,,,,,,,,,,,,,,,,,,,,,,,,,,,,,,,,,,,,,,,,,,,,,,officer,212,38,aloud,new,yellow,1141.5899799000472,None,n,1141.5899799000472,None,"['n', 'return']","[0.9529224000871181, 1.2649477003142238]",1141.5899799000472,None,,,45,001,2023_Apr_19_1106,ExactRep-v3-final,2021.2.3,60.00798085676345,
,,,,,,,,,,,,38,0,38,0,,,,,,,,,,,,,,,,,,,,,,,,,,,,,,,,,,,,,,,,,,,,,,,,,1144.6311074001715,None,,,,,,,,,,,,,,,,,,,,,,,,,,,,,,,,,,,,,,,,,,,,,,,,,,,,,,,,,pupil,191,39,sing,new,yellow,1143.4076597997919,None,n,1143.4076597997919,None,"['n', 'return']","[0.8234467003494501, 1.1833071000874043]",1143.4076597997919,None,,,45,001,2023_Apr_19_1106,ExactRep-v3-final,2021.2.3,60.00798085676345,
,,,,,,,,,,,,39,0,39,0,,,,,,,,,,,,,,,,,,,,,,,,,,,,,,,,,,,,,,,,,,,,,,,,,1154.7078023003414,None,,,,,,,,,,,,,,,,,,,,,,,,,,,,,,,,,,,,,,,,,,,,,,,,,,,,,,,,,coast,114,40,aloud,old,yellow,1145.1418551001698,None,n,1145.1418551001698,None,"['n', 'return']","[9.113515400327742, 9.529141799546778]",1145.1418551001698,None,,,45,001,2023_Apr_19_1106,ExactRep-v3-final,2021.2.3,60.00798085676345,
,,,,,,,,,,,,40,0,40,0,,,,,,,,,,,,,,,,,,,,,,,,,,,,,,,,,,,,,,,,,,,,,,,,,1156.459547500126,None,,,,,,,,,,,,,,,,,,,,,,,,,,,,,,,,,,,,,,,,,,,,,,,,,,,,,,,,,meadow,94,41,aloud,old,yellow,1155.2193050999194,None,y,1155.2193050999194,None,"['y', 'return']","[0.8996389005333185, 1.195601100102067]",1155.2193050999194,None,,,45,001,2023_Apr_19_1106,ExactRep-v3-final,2021.2.3,60.00798085676345,
,,,,,,,,,,,,41,0,41,0,,,,,,,,,,,,,,,,,,,,,,,,,,,,,,,,,,,,,,,,,,,,,,,,,1158.2946977997199,None,,,,,,,,,,,,,,,,,,,,,,,,,,,,,,,,,,,,,,,,,,,,,,,,,,,,,,,,,clock,18,42,sing,old,yellow,1156.964319200255,None,y,1156.964319200255,None,"['y', 'return']","[0.9627577001228929, 1.2906440002843738]",1156.964319200255,None,,,45,001,2023_Apr_19_1106,ExactRep-v3-final,2021.2.3,60.00798085676345,
,,,,,,,,,,,,42,0,42,0,,,,,,,,,,,,,,,,,,,,,,,,,,,,,,,,,,,,,,,,,,,,,,,,,1160.3802017001435,None,,,,,,,,,,,,,,,,,,,,,,,,,,,,,,,,,,,,,,,,,,,,,,,,,,,,,,,,,army,176,43,aloud,new,yellow,1158.8156931996346,None,n,1158.8156931996346,None,"['n', 'return']","[1.2072697998955846, 1.5272985994815826]",1158.8156931996346,None,,,45,001,2023_Apr_19_1106,ExactRep-v3-final,2021.2.3,60.00798085676345,
,,,,,,,,,,,,43,0,43,0,,,,,,,,,,,,,,,,,,,,,,,,,,,,,,,,,,,,,,,,,,,,,,,,,1162.1486227000132,None,,,,,,,,,,,,,,,,,,,,,,,,,,,,,,,,,,,,,,,,,,,,,,,,,,,,,,,,,charm,226,44,aloud,new,yellow,1160.8916902001947,None,n,1160.8916902001947,None,"['n', 'return']","[0.8912765001878142, 1.2193390997126698]",1160.8916902001947,None,,,45,001,2023_Apr_19_1106,ExactRep-v3-final,2021.2.3,60.00798085676345,
,,,,,,,,,,,,44,0,44,0,,,,,,,,,,,,,,,,,,,,,,,,,,,,,,,,,,,,,,,,,,,,,,,,,1163.9171473998576,None,,,,,,,,,,,,,,,,,,,,,,,,,,,,,,,,,,,,,,,,,,,,,,,,,,,,,,,,,lad,157,45,silent,new,yellow,1162.6574745001271,None,n,1162.6574745001271,None,"['n', 'return']","[0.9014282003045082, 1.2136011002585292]",1162.6574745001271,None,,,45,001,2023_Apr_19_1106,ExactRep-v3-final,2021.2.3,60.00798085676345,
,,,,,,,,,,,,45,0,45,0,,,,,,,,,,,,,,,,,,,,,,,,,,,,,,,,,,,,,,,,,,,,,,,,,1165.5853405995294,None,,,,,,,,,,,,,,,,,,,,,,,,,,,,,,,,,,,,,,,,,,,,,,,,,,,,,,,,,door,89,46,aloud,old,yellow,1164.4286067998037,None,y,1164.4286067998037,None,"['y', 'return']","[0.8263821993023157, 1.1142561994493008]",1164.4286067998037,None,,,45,001,2023_Apr_19_1106,ExactRep-v3-final,2021.2.3,60.00798085676345,
,,,,,,,,,,,,46,0,46,0,,,,,,,,,,,,,,,,,,,,,,,,,,,,,,,,,,,,,,,,,,,,,,,,,1167.3872328996658,None,,,,,,,,,,,,,,,,,,,,,,,,,,,,,,,,,,,,,,,,,,,,,,,,,,,,,,,,,prayer,124,47,silent,new,yellow,1166.0958904,None,n,1166.0958904,None,"['n', 'return']","[0.9591044997796416, 1.247015899978578]",1166.0958904,None,,,45,001,2023_Apr_19_1106,ExactRep-v3-final,2021.2.3,60.00798085676345,
,,,,,,,,,,,,47,0,47,0,,,,,,,,,,,,,,,,,,,,,,,,,,,,,,,,,,,,,,,,,,,,,,,,,1169.0888940999284,None,,,,,,,,,,,,,,,,,,,,,,,,,,,,,,,,,,,,,,,,,,,,,,,,,,,,,,,,,bottle,133,48,silent,new,yellow,1167.9004819002002,None,n,1167.9004819002002,None,"['n', 'return']","[0.8424903992563486, 1.154623699374497]",1167.9004819002002,None,,,45,001,2023_Apr_19_1106,ExactRep-v3-final,2021.2.3,60.00798085676345,
,,,,,,,,,,,,48,0,48,0,,,,,,,,,,,,,,,,,,,,,,,,,,,,,,,,,,,,,,,,,,,,,,,,,1170.9906986998394,None,,,,,,,,,,,,,,,,,,,,,,,,,,,,,,,,,,,,,,,,,,,,,,,,,,,,,,,,,opinion,8,49,sing,old,yellow,1169.600624400191,None,y,1169.600624400191,None,"['y', 'return']","[1.0944651002064347, 1.3503909995779395]",1169.600624400191,None,,,45,001,2023_Apr_19_1106,ExactRep-v3-final,2021.2.3,60.00798085676345,
,,,,,,,,,,,,49,0,49,0,,,,,,,,,,,,,,,,,,,,,,,,,,,,,,,,,,,,,,,,,,,,,,,,,1172.72598499991,None,,,,,,,,,,,,,,,,,,,,,,,,,,,,,,,,,,,,,,,,,,,,,,,,,,,,,,,,,insect,236,50,aloud,new,yellow,1171.5056189997122,None,n,1171.5056189997122,None,"['n', 'return']","[0.885317899286747, 1.1734221000224352]",1171.5056189997122,None,,,45,001,2023_Apr_19_1106,ExactRep-v3-final,2021.2.3,60.00798085676345,
,,,,,,,,,,,,50,0,50,0,,,,,,,,,,,,,,,,,,,,,,,,,,,,,,,,,,,,,,,,,,,,,,,,,1174.4945069001988,None,,,,,,,,,,,,,,,,,,,,,,,,,,,,,,,,,,,,,,,,,,,,,,,,,,,,,,,,,horse,106,51,aloud,old,yellow,1173.2285786997527,None,y,1173.2285786997527,None,"['y', 'return']","[0.9625319996848702, 1.2265333998948336]",1173.2285786997527,None,,,45,001,2023_Apr_19_1106,ExactRep-v3-final,2021.2.3,60.00798085676345,
,,,,,,,,,,,,51,0,51,0,,,,,,,,,,,,,,,,,,,,,,,,,,,,,,,,,,,,,,,,,,,,,,,,,1176.3129094000906,None,,,,,,,,,,,,,,,,,,,,,,,,,,,,,,,,,,,,,,,,,,,,,,,,,,,,,,,,,string,66,52,silent,old,yellow,1175.0021134996787,None,n,1175.0021134996787,None,"['n', 'return']","[0.9967414001002908, 1.2688553994521499]",1175.0021134996787,None,,,45,001,2023_Apr_19_1106,ExactRep-v3-final,2021.2.3,60.00798085676345,
,,,,,,,,,,,,52,0,52,0,,,,,,,,,,,,,,,,,,,,,,,,,,,,,,,,,,,,,,,,,,,,,,,,,1178.198164800182,None,,,,,,,,,,,,,,,,,,,,,,,,,,,,,,,,,,,,,,,,,,,,,,,,,,,,,,,,,grass,190,53,aloud,new,yellow,1176.8252199003473,None,n,1176.8252199003473,None,"['n', 'return']","[1.0540367001667619, 1.3257325999438763]",1176.8252199003473,None,,,45,001,2023_Apr_19_1106,ExactRep-v3-final,2021.2.3,60.00798085676345,
,,,,,,,,,,,,53,0,53,0,,,,,,,,,,,,,,,,,,,,,,,,,,,,,,,,,,,,,,,,,,,,,,,,,1179.8496364001185,None,,,,,,,,,,,,,,,,,,,,,,,,,,,,,,,,,,,,,,,,,,,,,,,,,,,,,,,,,circle,121,54,silent,new,yellow,1178.7092409003526,None,n,1178.7092409003526,None,"['n', 'return']","[0.8097200002521276, 1.105626500211656]",1178.7092409003526,None,,,45,001,2023_Apr_19_1106,ExactRep-v3-final,2021.2.3,60.00798085676345,
,,,,,,,,,,,,54,0,54,0,,,,,,,,,,,,,,,,,,,,,,,,,,,,,,,,,,,,,,,,,,,,,,,,,1183.2873967001215,None,,,,,,,,,,,,,,,,,,,,,,,,,,,,,,,,,,,,,,,,,,,,,,,,,,,,,,,,,body,175,55,sing,new,yellow,1180.3591694999486,None,n,1180.3591694999486,None,"['n', 'return']","[2.511816100217402, 2.8878848999738693]",1180.3591694999486,None,,,45,001,2023_Apr_19_1106,ExactRep-v3-final,2021.2.3,60.00798085676345,
,,,,,,,,,,,,55,0,55,0,,,,,,,,,,,,,,,,,,,,,,,,,,,,,,,,,,,,,,,,,,,,,,,,,1184.9713517995551,None,,,,,,,,,,,,,,,,,,,,,,,,,,,,,,,,,,,,,,,,,,,,,,,,,,,,,,,,,artist,219,56,sing,new,yellow,1183.7943548997864,None,n,1183.7943548997864,None,"['n', 'return']","[0.8046165993437171, 1.1325808996334672]",1183.7943548997864,None,,,45,001,2023_Apr_19_1106,ExactRep-v3-final,2021.2.3,60.00798085676345,
,,,,,,,,,,,,56,0,56,0,,,,,,,,,,,,,,,,,,,,,,,,,,,,,,,,,,,,,,,,,,,,,,,,,1186.8065120000392,None,,,,,,,,,,,,,,,,,,,,,,,,,,,,,,,,,,,,,,,,,,,,,,,,,,,,,,,,,shoes,145,57,silent,new,yellow,1185.4813749995083,None,n,1185.4813749995083,None,"['n', 'return']","[0.9575733002275229, 1.2775277998298407]",1185.4813749995083,None,,,45,001,2023_Apr_19_1106,ExactRep-v3-final,2021.2.3,60.00798085676345,
,,,,,,,,,,,,57,0,57,0,,,,,,,,,,,,,,,,,,,,,,,,,,,,,,,,,,,,,,,,,,,,,,,,,1188.8253410002217,None,,,,,,,,,,,,,,,,,,,,,,,,,,,,,,,,,,,,,,,,,,,,,,,,,,,,,,,,,humour,45,58,silent,old,yellow,1187.310010000132,None,y,1187.310010000132,None,"['y', 'return']","[1.096955900080502, 1.4729725997895002]",1187.310010000132,None,,,45,001,2023_Apr_19_1106,ExactRep-v3-final,2021.2.3,60.00798085676345,
,,,,,,,,,,,,58,0,58,0,,,,,,,,,,,,,,,,,,,,,,,,,,,,,,,,,,,,,,,,,,,,,,,,,1190.493628599681,None,,,,,,,,,,,,,,,,,,,,,,,,,,,,,,,,,,,,,,,,,,,,,,,,,,,,,,,,,devil,0,59,sing,old,yellow,1189.3351582000032,None,y,1189.3351582000032,None,"['y', 'return']","[0.8078941004350781, 1.1198428999632597]",1189.3351582000032,None,,,45,001,2023_Apr_19_1106,ExactRep-v3-final,2021.2.3,60.00798085676345,
,,,,,,,,,,,,59,0,59,0,,,,,,,,,,,,,,,,,,,,,,,,,,,,,,,,,,,,,,,,,,,,,,,,,1193.0461095003411,None,,,,,,,,,,,,,,,,,,,,,,,,,,,,,,,,,,,,,,,,,,,,,,,,,,,,,,,,,bowl,47,60,silent,old,yellow,1191.0036834003404,None,y,1191.0036834003404,None,"['y', 'return']","[1.7233667997643352, 1.9953600000590086]",1191.0036834003404,None,,,45,001,2023_Apr_19_1106,ExactRep-v3-final,2021.2.3,60.00798085676345,
,,,,,,,,,,,,60,0,60,0,,,,,,,,,,,,,,,,,,,,,,,,,,,,,,,,,,,,,,,,,,,,,,,,,1194.8479313999414,None,,,,,,,,,,,,,,,,,,,,,,,,,,,,,,,,,,,,,,,,,,,,,,,,,,,,,,,,,doctor,162,61,aloud,new,yellow,1193.5512844994664,None,y,1193.5512844994664,None,"['y', 'return']","[0.9436750998720527, 1.2556493999436498]",1193.5512844994664,None,,,45,001,2023_Apr_19_1106,ExactRep-v3-final,2021.2.3,60.00798085676345,
,,,,,,,,,,,,61,0,61,0,,,,,,,,,,,,,,,,,,,,,,,,,,,,,,,,,,,,,,,,,,,,,,,,,1196.4996421998367,None,,,,,,,,,,,,,,,,,,,,,,,,,,,,,,,,,,,,,,,,,,,,,,,,,,,,,,,,,diamond,238,62,aloud,new,yellow,1195.3595971995965,None,n,1195.3595971995965,None,"['n', 'return']","[0.8234728006646037, 1.1034993007779121]",1195.3595971995965,None,,,45,001,2023_Apr_19_1106,ExactRep-v3-final,2021.2.3,60.00798085676345,
,,,,,,,,,,,,62,0,62,0,,,,,,,,,,,,,,,,,,,,,,,,,,,,,,,,,,,,,,,,,,,,,,,,,1198.1012656996027,None,,,,,,,,,,,,,,,,,,,,,,,,,,,,,,,,,,,,,,,,,,,,,,,,,,,,,,,,,law,128,63,silent,new,yellow,1197.0096177002415,None,n,1197.0096177002415,None,"['n', 'return']","[0.7573172003030777, 1.0533624002709985]",1197.0096177002415,None,,,45,001,2023_Apr_19_1106,ExactRep-v3-final,2021.2.3,60.00798085676345,
,,,,,,,,,,,,63,0,63,0,,,,,,,,,,,,,,,,,,,,,,,,,,,,,,,,,,,,,,,,,,,,,,,,,1199.7361591001973,None,,,,,,,,,,,,,,,,,,,,,,,,,,,,,,,,,,,,,,,,,,,,,,,,,,,,,,,,,mother,39,64,silent,old,yellow,1198.6093439999968,None,y,1198.6093439999968,None,"['y', 'return']","[0.8296720003709197, 1.085750499740243]",1198.6093439999968,None,,,45,001,2023_Apr_19_1106,ExactRep-v3-final,2021.2.3,60.00798085676345,
,,,,,,,,,,,,64,0,64,0,,,,,,,,,,,,,,,,,,,,,,,,,,,,,,,,,,,,,,,,,,,,,,,,,1202.9894970003515,None,,,,,,,,,,,,,,,,,,,,,,,,,,,,,,,,,,,,,,,,,,,,,,,,,,,,,,,,,disease,22,65,sing,old,yellow,1200.2484486997128,None,y,1200.2484486997128,None,"['y', 'return']","[2.030489300377667, 2.702629500068724]",1200.2484486997128,None,,,45,001,2023_Apr_19_1106,ExactRep-v3-final,2021.2.3,60.00798085676345,
,,,,,,,,,,,,65,0,65,0,,,,,,,,,,,,,,,,,,,,,,,,,,,,,,,,,,,,,,,,,,,,,,,,,1204.857940199785,None,,,,,,,,,,,,,,,,,,,,,,,,,,,,,,,,,,,,,,,,,,,,,,,,,,,,,,,,,fun,206,66,aloud,new,yellow,1203.505743900314,None,n,1203.505743900314,None,"['n', 'return']","[0.8293205006048083, 1.3092208001762629]",1203.505743900314,None,,,45,001,2023_Apr_19_1106,ExactRep-v3-final,2021.2.3,60.00798085676345,
,,,,,,,,,,,,66,0,66,0,,,,,,,,,,,,,,,,,,,,,,,,,,,,,,,,,,,,,,,,,,,,,,,,,1206.543014199473,None,,,,,,,,,,,,,,,,,,,,,,,,,,,,,,,,,,,,,,,,,,,,,,,,,,,,,,,,,cotton,83,67,aloud,old,yellow,1205.3681044001132,None,y,1205.3681044001132,None,"['y', 'return']","[0.8147534001618624, 1.1429847003892064]",1205.3681044001132,None,,,45,001,2023_Apr_19_1106,ExactRep-v3-final,2021.2.3,60.00798085676345,
,,,,,,,,,,,,67,0,67,0,,,,,,,,,,,,,,,,,,,,,,,,,,,,,,,,,,,,,,,,,,,,,,,,,1209.6963718002662,None,,,,,,,,,,,,,,,,,,,,,,,,,,,,,,,,,,,,,,,,,,,,,,,,,,,,,,,,,leader,59,68,silent,old,yellow,1207.0498227998614,None,y,1207.0498227998614,None,"['y', 'return']","[2.2211811002343893, 2.605173699557781]",1207.0498227998614,None,,,45,001,2023_Apr_19_1106,ExactRep-v3-final,2021.2.3,60.00798085676345,
,,,,,,,,,,,,68,0,68,0,,,,,,,,,,,,,,,,,,,,,,,,,,,,,,,,,,,,,,,,,,,,,,,,,1215.1349398000166,None,,,,,,,,,,,,,,,,,,,,,,,,,,,,,,,,,,,,,,,,,,,,,,,,,,,,,,,,,silence,151,69,silent,new,yellow,1210.213152599521,None,n,1210.213152599521,None,"['n', 'return']","[4.066144499927759, 4.889833200722933]",1210.213152599521,None,,,45,001,2023_Apr_19_1106,ExactRep-v3-final,2021.2.3,60.00798085676345,
,,,,,,,,,,,,69,0,69,0,,,,,,,,,,,,,,,,,,,,,,,,,,,,,,,,,,,,,,,,,,,,,,,,,1217.437410599552,None,,,,,,,,,,,,,,,,,,,,,,,,,,,,,,,,,,,,,,,,,,,,,,,,,,,,,,,,,coffee,180,70,aloud,new,yellow,1215.6479607997462,None,n,1215.6479607997462,None,"['n', 'return']","[1.3432301003485918, 1.7430579997599125]",1215.6479607997462,None,,,45,001,2023_Apr_19_1106,ExactRep-v3-final,2021.2.3,60.00798085676345,
,,,,,,,,,,,,70,0,70,0,,,,,,,,,,,,,,,,,,,,,,,,,,,,,,,,,,,,,,,,,,,,,,,,,1219.3557658996433,None,,,,,,,,,,,,,,,,,,,,,,,,,,,,,,,,,,,,,,,,,,,,,,,,,,,,,,,,,thought,6,71,sing,old,yellow,1217.9439273001626,None,n,1217.9439273001626,None,"['n', 'return']","[0.9271182995289564, 1.375128099694848]",1217.9439273001626,None,,,45,001,2023_Apr_19_1106,ExactRep-v3-final,2021.2.3,60.00798085676345,
,,,,,,,,,,,,71,0,71,0,,,,,,,,,,,,,,,,,,,,,,,,,,,,,,,,,,,,,,,,,,,,,,,,,1221.407893399708,None,,,,,,,,,,,,,,,,,,,,,,,,,,,,,,,,,,,,,,,,,,,,,,,,,,,,,,,,,gold,10,72,sing,old,yellow,1219.8647590996698,None,y,1219.8647590996698,None,"['y', 'return']","[1.094513200223446, 1.5022791000083089]",1219.8647590996698,None,,,45,001,2023_Apr_19_1106,ExactRep-v3-final,2021.2.3,60.00798085676345,
,,,,,,,,,,,,72,0,72,0,,,,,,,,,,,,,,,,,,,,,,,,,,,,,,,,,,,,,,,,,,,,,,,,,1224.3943660994992,None,,,,,,,,,,,,,,,,,,,,,,,,,,,,,,,,,,,,,,,,,,,,,,,,,,,,,,,,,hope,155,73,silent,new,yellow,1221.924390300177,None,n,1221.924390300177,None,"['n', 'return']","[1.1545739006251097, 2.434772100299597]",1221.924390300177,None,,,45,001,2023_Apr_19_1106,ExactRep-v3-final,2021.2.3,60.00798085676345,
,,,,,,,,,,,,73,0,73,0,,,,,,,,,,,,,,,,,,,,,,,,,,,,,,,,,,,,,,,,,,,,,,,,,1226.1126100001857,None,,,,,,,,,,,,,,,,,,,,,,,,,,,,,,,,,,,,,,,,,,,,,,,,,,,,,,,,,truth,62,74,silent,old,yellow,1224.9106916999444,None,n,1224.9106916999444,None,"['n', 'return']","[0.8243322996422648, 1.1603741999715567]",1224.9106916999444,None,,,45,001,2023_Apr_19_1106,ExactRep-v3-final,2021.2.3,60.00798085676345,
,,,,,,,,,,,,74,0,74,0,,,,,,,,,,,,,,,,,,,,,,,,,,,,,,,,,,,,,,,,,,,,,,,,,1228.3481155000627,None,,,,,,,,,,,,,,,,,,,,,,,,,,,,,,,,,,,,,,,,,,,,,,,,,,,,,,,,,soil,210,75,aloud,new,yellow,1226.621560299769,None,y,1226.621560299769,None,"['y', 'return']","[1.3134105997160077, 1.6895263995975256]",1226.621560299769,None,,,45,001,2023_Apr_19_1106,ExactRep-v3-final,2021.2.3,60.00798085676345,
,,,,,,,,,,,,75,0,75,0,,,,,,,,,,,,,,,,,,,,,,,,,,,,,,,,,,,,,,,,,,,,,,,,,1232.6690993001685,None,,,,,,,,,,,,,,,,,,,,,,,,,,,,,,,,,,,,,,,,,,,,,,,,,,,,,,,,,life,127,76,silent,new,yellow,1228.8570801001042,None,y,1228.8570801001042,None,"['y', 'return']","[3.42994590010494, 3.765999900177121]",1228.8570801001042,None,,,45,001,2023_Apr_19_1106,ExactRep-v3-final,2021.2.3,60.00798085676345,
,,,,,,,,,,,,76,0,76,0,,,,,,,,,,,,,,,,,,,,,,,,,,,,,,,,,,,,,,,,,,,,,,,,,1235.9390257997438,None,,,,,,,,,,,,,,,,,,,,,,,,,,,,,,,,,,,,,,,,,,,,,,,,,,,,,,,,,engine,2,77,sing,old,yellow,1233.1787711996585,None,y,1233.1787711996585,None,"['y', 'return']","[2.372202600352466, 2.72426120005548]",1233.1787711996585,None,,,45,001,2023_Apr_19_1106,ExactRep-v3-final,2021.2.3,60.00798085676345,
,,,,,,,,,,,,77,0,77,0,,,,,,,,,,,,,,,,,,,,,,,,,,,,,,,,,,,,,,,,,,,,,,,,,1238.0245249997824,None,,,,,,,,,,,,,,,,,,,,,,,,,,,,,,,,,,,,,,,,,,,,,,,,,,,,,,,,,house,91,78,aloud,old,yellow,1236.4486010996625,None,y,1236.4486010996625,None,"['y', 'return']","[1.1903801001608372, 1.542442100122571]",1236.4486010996625,None,,,45,001,2023_Apr_19_1106,ExactRep-v3-final,2021.2.3,60.00798085676345,
,,,,,,,,,,,,78,0,78,0,,,,,,,,,,,,,,,,,,,,,,,,,,,,,,,,,,,,,,,,,,,,,,,,,1240.093188200146,None,,,,,,,,,,,,,,,,,,,,,,,,,,,,,,,,,,,,,,,,,,,,,,,,,,,,,,,,,cabin,239,79,sing,new,yellow,1238.5353122996166,None,n,1238.5353122996166,None,"['n', 'return']","[1.159849500283599, 1.5117407003417611]",1238.5353122996166,None,,,45,001,2023_Apr_19_1106,ExactRep-v3-final,2021.2.3,60.00798085676345,
,,,,,,,,,,,,79,0,79,0,,,,,,,,,,,,,,,,,,,,,,,,,,,,,,,,,,,,,,,,,,,,,,,,,1242.3791181994602,None,,,,,,,,,,,,,,,,,,,,,,,,,,,,,,,,,,,,,,,,,,,,,,,,,,,,,,,,,city,153,80,silent,new,yellow,1240.602057799697,None,n,1240.602057799697,None,"['n', 'return']","[1.3889923002570868, 1.7409466002136469]",1240.602057799697,None,,,45,001,2023_Apr_19_1106,ExactRep-v3-final,2021.2.3,60.00798085676345,
,,,,,,,,,,,,80,0,80,0,,,,,,,,,,,,,,,,,,,,,,,,,,,,,,,,,,,,,,,,,,,,,,,,,1244.2474050996825,None,,,,,,,,,,,,,,,,,,,,,,,,,,,,,,,,,,,,,,,,,,,,,,,,,,,,,,,,,shame,154,81,silent,new,yellow,1242.888340599835,None,n,1242.888340599835,None,"['n', 'return']","[0.974821500480175, 1.3266874998807907]",1242.888340599835,None,,,45,001,2023_Apr_19_1106,ExactRep-v3-final,2021.2.3,60.00798085676345,
,,,,,,,,,,,,81,0,81,0,,,,,,,,,,,,,,,,,,,,,,,,,,,,,,,,,,,,,,,,,,,,,,,,,1246.3160820994526,None,,,,,,,,,,,,,,,,,,,,,,,,,,,,,,,,,,,,,,,,,,,,,,,,,,,,,,,,,cottage,221,82,sing,new,yellow,1244.7572592999786,None,n,1244.7572592999786,None,"['n', 'return']","[1.1857751999050379, 1.5137991001829505]",1244.7572592999786,None,,,45,001,2023_Apr_19_1106,ExactRep-v3-final,2021.2.3,60.00798085676345,
,,,,,,,,,,,,82,0,82,0,,,,,,,,,,,,,,,,,,,,,,,,,,,,,,,,,,,,,,,,,,,,,,,,,1248.3181491997093,None,,,,,,,,,,,,,,,,,,,,,,,,,,,,,,,,,,,,,,,,,,,,,,,,,,,,,,,,,fortune,117,83,aloud,old,yellow,1246.825962900184,None,y,1246.825962900184,None,"['y', 'return']","[1.0290756998583674, 1.453099399805069]",1246.825962900184,None,,,45,001,2023_Apr_19_1106,ExactRep-v3-final,2021.2.3,60.00798085676345,
,,,,,,,,,,,,83,0,83,0,,,,,,,,,,,,,,,,,,,,,,,,,,,,,,,,,,,,,,,,,,,,,,,,,1250.1365492995828,None,,,,,,,,,,,,,,,,,,,,,,,,,,,,,,,,,,,,,,,,,,,,,,,,,,,,,,,,,journal,136,84,silent,new,yellow,1248.8213120996952,None,n,1248.8213120996952,None,"['n', 'return']","[0.9376401994377375, 1.2816850999370217]",1248.8213120996952,None,,,45,001,2023_Apr_19_1106,ExactRep-v3-final,2021.2.3,60.00798085676345,
,,,,,,,,,,,,84,0,84,0,,,,,,,,,,,,,,,,,,,,,,,,,,,,,,,,,,,,,,,,,,,,,,,,,1252.0552217001095,None,,,,,,,,,,,,,,,,,,,,,,,,,,,,,,,,,,,,,,,,,,,,,,,,,,,,,,,,,street,9,85,sing,old,yellow,1250.6394921001047,None,y,1250.6394921001047,None,"['y', 'return']","[1.0075684003531933, 1.3837149003520608]",1250.6394921001047,None,,,45,001,2023_Apr_19_1106,ExactRep-v3-final,2021.2.3,60.00798085676345,
,,,,,,,,,,,,85,0,85,0,,,,,,,,,,,,,,,,,,,,,,,,,,,,,,,,,,,,,,,,,,,,,,,,,1254.3908767998219,None,,,,,,,,,,,,,,,,,,,,,,,,,,,,,,,,,,,,,,,,,,,,,,,,,,,,,,,,,memory,43,86,silent,old,yellow,1252.5684358999133,None,n,1252.5684358999133,None,"['n', 'return']","[1.3667091997340322, 1.77464019972831]",1252.5684358999133,None,,,45,001,2023_Apr_19_1106,ExactRep-v3-final,2021.2.3,60.00798085676345,
,,,,,,,,,,,,86,0,86,0,,,,,,,,,,,,,,,,,,,,,,,,,,,,,,,,,,,,,,,,,,,,,,,,,1256.2260576998815,None,,,,,,,,,,,,,,,,,,,,,,,,,,,,,,,,,,,,,,,,,,,,,,,,,,,,,,,,,science,171,87,sing,new,yellow,1254.9018580997363,None,n,1254.9018580997363,None,"['n', 'return']","[0.9771755002439022, 1.289151300676167]",1254.9018580997363,None,,,45,001,2023_Apr_19_1106,ExactRep-v3-final,2021.2.3,60.00798085676345,
,,,,,,,,,,,,87,0,87,0,,,,,,,,,,,,,,,,,,,,,,,,,,,,,,,,,,,,,,,,,,,,,,,,,1258.177986299619,None,,,,,,,,,,,,,,,,,,,,,,,,,,,,,,,,,,,,,,,,,,,,,,,,,,,,,,,,,cost,113,88,aloud,old,yellow,1256.7264671996236,None,y,1256.7264671996236,None,"['y', 'return']","[1.0244988994672894, 1.4085916001349688]",1256.7264671996236,None,,,45,001,2023_Apr_19_1106,ExactRep-v3-final,2021.2.3,60.00798085676345,
,,,,,,,,,,,,88,0,88,0,,,,,,,,,,,,,,,,,,,,,,,,,,,,,,,,,,,,,,,,,,,,,,,,,1261.5647834995762,None,,,,,,,,,,,,,,,,,,,,,,,,,,,,,,,,,,,,,,,,,,,,,,,,,,,,,,,,,quality,111,89,aloud,old,yellow,1258.6951372995973,None,n,1258.6951372995973,None,"['n', 'return']","[2.464052800089121, 2.8239643005654216]",1258.6951372995973,None,,,45,001,2023_Apr_19_1106,ExactRep-v3-final,2021.2.3,60.00798085676345,
,,,,,,,,,,,,89,0,89,0,,,,,,,,,,,,,,,,,,,,,,,,,,,,,,,,,,,,,,,,,,,,,,,,,1263.3832110995427,None,,,,,,,,,,,,,,,,,,,,,,,,,,,,,,,,,,,,,,,,,,,,,,,,,,,,,,,,,winter,144,90,silent,new,yellow,1262.0699811996892,None,n,1262.0699811996892,None,"['n', 'return']","[0.9130282998085022, 1.281156100332737]",1262.0699811996892,None,,,45,001,2023_Apr_19_1106,ExactRep-v3-final,2021.2.3,60.00798085676345,
,,,,,,,,,,,,90,0,90,0,,,,,,,,,,,,,,,,,,,,,,,,,,,,,,,,,,,,,,,,,,,,,,,,,1265.301875400357,None,,,,,,,,,,,,,,,,,,,,,,,,,,,,,,,,,,,,,,,,,,,,,,,,,,,,,,,,,colony,103,91,aloud,old,yellow,1263.8866154002026,None,y,1263.8866154002026,None,"['y', 'return']","[1.000395099632442, 1.3764533000066876]",1263.8866154002026,None,,,45,001,2023_Apr_19_1106,ExactRep-v3-final,2021.2.3,60.00798085676345,
,,,,,,,,,,,,91,0,91,0,,,,,,,,,,,,,,,,,,,,,,,,,,,,,,,,,,,,,,,,,,,,,,,,,1267.1367512000725,None,,,,,,,,,,,,,,,,,,,,,,,,,,,,,,,,,,,,,,,,,,,,,,,,,,,,,,,,,plant,139,92,silent,new,yellow,1265.815746099688,None,n,1265.815746099688,None,"['n', 'return']","[0.9593526003882289, 1.2872119005769491]",1265.815746099688,None,,,45,001,2023_Apr_19_1106,ExactRep-v3-final,2021.2.3,60.00798085676345,
,,,,,,,,,,,,92,0,92,0,,,,,,,,,,,,,,,,,,,,,,,,,,,,,,,,,,,,,,,,,,,,,,,,,1269.355816599913,None,,,,,,,,,,,,,,,,,,,,,,,,,,,,,,,,,,,,,,,,,,,,,,,,,,,,,,,,,dust,105,93,aloud,old,yellow,1267.648163500242,None,y,1267.648163500242,None,"['y', 'return']","[1.3349114004522562, 1.67098299972713]",1267.648163500242,None,,,45,001,2023_Apr_19_1106,ExactRep-v3-final,2021.2.3,60.00798085676345,
,,,,,,,,,,,,93,0,93,0,,,,,,,,,,,,,,,,,,,,,,,,,,,,,,,,,,,,,,,,,,,,,,,,,1271.1576432995498,None,,,,,,,,,,,,,,,,,,,,,,,,,,,,,,,,,,,,,,,,,,,,,,,,,,,,,,,,,fault,64,94,silent,old,yellow,1269.8657122002915,None,n,1269.8657122002915,None,"['n', 'return']","[0.9175540003925562, 1.2454340998083353]",1269.8657122002915,None,,,45,001,2023_Apr_19_1106,ExactRep-v3-final,2021.2.3,60.00798085676345,
,,,,,,,,,,,,94,0,94,0,,,,,,,,,,,,,,,,,,,,,,,,,,,,,,,,,,,,,,,,,,,,,,,,,1273.6935179997236,None,,,,,,,,,,,,,,,,,,,,,,,,,,,,,,,,,,,,,,,,,,,,,,,,,,,,,,,,,nail,49,95,silent,old,yellow,1271.6644096998498,None,n,1271.6644096998498,None,"['n', 'return']","[1.6066207997500896, 1.9826245000585914]",1271.6644096998498,None,,,45,001,2023_Apr_19_1106,ExactRep-v3-final,2021.2.3,60.00798085676345,
,,,,,,,,,,,,95,0,95,0,,,,,,,,,,,,,,,,,,,,,,,,,,,,,,,,,,,,,,,,,,,,,,,,,1275.678845600225,None,,,,,,,,,,,,,,,,,,,,,,,,,,,,,,,,,,,,,,,,,,,,,,,,,,,,,,,,,forest,156,96,silent,new,yellow,1274.204476799816,None,y,1274.204476799816,None,"['y', 'return']","[1.0347043005749583, 1.4344824999570847]",1274.204476799816,None,,,45,001,2023_Apr_19_1106,ExactRep-v3-final,2021.2.3,60.00798085676345,
,,,,,,,,,,,,96,0,96,0,,,,,,,,,,,,,,,,,,,,,,,,,,,,,,,,,,,,,,,,,,,,,,,,,1279.1156096998602,None,,,,,,,,,,,,,,,,,,,,,,,,,,,,,,,,,,,,,,,,,,,,,,,,,,,,,,,,,moment,82,97,aloud,old,yellow,1276.18713140022,None,y,1276.18713140022,None,"['y', 'return']","[2.5560672003775835, 2.891984600573778]",1276.18713140022,None,,,45,001,2023_Apr_19_1106,ExactRep-v3-final,2021.2.3,60.00798085676345,
,,,,,,,,,,,,97,0,97,0,,,,,,,,,,,,,,,,,,,,,,,,,,,,,,,,,,,,,,,,,,,,,,,,,1280.833939500153,None,,,,,,,,,,,,,,,,,,,,,,,,,,,,,,,,,,,,,,,,,,,,,,,,,,,,,,,,,owner,60,98,silent,old,yellow,1279.6320041995496,None,n,1279.6320041995496,None,"['n', 'return']","[0.8231908995658159, 1.1671511000022292]",1279.6320041995496,None,,,45,001,2023_Apr_19_1106,ExactRep-v3-final,2021.2.3,60.00798085676345,
,,,,,,,,,,,,98,0,98,0,,,,,,,,,,,,,,,,,,,,,,,,,,,,,,,,,,,,,,,,,,,,,,,,,1282.6524876002222,None,,,,,,,,,,,,,,,,,,,,,,,,,,,,,,,,,,,,,,,,,,,,,,,,,,,,,,,,,trouble,152,99,silent,new,yellow,1281.3436688994989,None,n,1281.3436688994989,None,"['n', 'return']","[0.9194753998890519, 1.263447199948132]",1281.3436688994989,None,,,45,001,2023_Apr_19_1106,ExactRep-v3-final,2021.2.3,60.00798085676345,
,,,,,,,,,,,,99,0,99,0,,,,,,,,,,,,,,,,,,,,,,,,,,,,,,,,,,,,,,,,,,,,,,,,,1285.8093184996396,None,,,,,,,,,,,,,,,,,,,,,,,,,,,,,,,,,,,,,,,,,,,,,,,,,,,,,,,,,iron,132,100,silent,new,yellow,1283.158416800201,None,y,1283.158416800201,None,"['y', 'return']","[2.168648699298501, 2.6086693992838264]",1283.158416800201,None,,,45,001,2023_Apr_19_1106,ExactRep-v3-final,2021.2.3,60.00798085676345,
,,,,,,,,,,,,100,0,100,0,,,,,,,,,,,,,,,,,,,,,,,,,,,,,,,,,,,,,,,,,,,,,,,,,1287.7410602997988,None,,,,,,,,,,,,,,,,,,,,,,,,,,,,,,,,,,,,,,,,,,,,,,,,,,,,,,,,,custom,76,101,silent,old,yellow,1286.3312285998836,None,n,1286.3312285998836,None,"['n', 'return']","[1.0519149005413055, 1.3719065999612212]",1286.3312285998836,None,,,45,001,2023_Apr_19_1106,ExactRep-v3-final,2021.2.3,60.00798085676345,
,,,,,,,,,,,,101,0,101,0,,,,,,,,,,,,,,,,,,,,,,,,,,,,,,,,,,,,,,,,,,,,,,,,,1289.7929279999807,None,,,,,,,,,,,,,,,,,,,,,,,,,,,,,,,,,,,,,,,,,,,,,,,,,,,,,,,,,virtue,73,102,silent,old,yellow,1288.247674100101,None,n,1288.247674100101,None,"['n', 'return']","[0.9275230998173356, 1.5113963996991515]",1288.247674100101,None,,,45,001,2023_Apr_19_1106,ExactRep-v3-final,2021.2.3,60.00798085676345,
,,,,,,,,,,,,102,0,102,0,,,,,,,,,,,,,,,,,,,,,,,,,,,,,,,,,,,,,,,,,,,,,,,,,1291.7283528996632,None,,,,,,,,,,,,,,,,,,,,,,,,,,,,,,,,,,,,,,,,,,,,,,,,,,,,,,,,,church,122,103,silent,new,yellow,1290.3067052001134,None,n,1290.3067052001134,None,"['n', 'return']","[1.0363672003149986, 1.3804163001477718]",1290.3067052001134,None,,,45,001,2023_Apr_19_1106,ExactRep-v3-final,2021.2.3,60.00798085676345,
,,,,,,,,,,,,103,0,103,0,,,,,,,,,,,,,,,,,,,,,,,,,,,,,,,,,,,,,,,,,,,,,,,,,1298.1346557000652,None,,,,,,,,,,,,,,,,,,,,,,,,,,,,,,,,,,,,,,,,,,,,,,,,,,,,,,,,,present,201,104,sing,new,yellow,1292.2364392001182,None,y,1292.2364392001182,None,"['y', 'return']","[5.3790294993668795, 5.85074479971081]",1292.2364392001182,None,,,45,001,2023_Apr_19_1106,ExactRep-v3-final,2021.2.3,60.00798085676345,
,,,,,,,,,,,,104,0,104,0,,,,,,,,,,,,,,,,,,,,,,,,,,,,,,,,,,,,,,,,,,,,,,,,,1299.7862753001973,None,,,,,,,,,,,,,,,,,,,,,,,,,,,,,,,,,,,,,,,,,,,,,,,,,,,,,,,,,girl,166,105,aloud,new,yellow,1298.6367033999413,None,n,1298.6367033999413,None,"['n', 'return']","[0.7863581003621221, 1.11443189997226]",1298.6367033999413,None,,,45,001,2023_Apr_19_1106,ExactRep-v3-final,2021.2.3,60.00798085676345,
,,,,,,,,,,,,105,0,105,0,,,,,,,,,,,,,,,,,,,,,,,,,,,,,,,,,,,,,,,,,,,,,,,,,1301.5713149998337,None,,,,,,,,,,,,,,,,,,,,,,,,,,,,,,,,,,,,,,,,,,,,,,,,,,,,,,,,,cat,217,106,sing,new,yellow,1300.2970484001562,None,n,1300.2970484001562,None,"['n', 'return']","[0.8380678994581103, 1.2299693999812007]",1300.2970484001562,None,,,45,001,2023_Apr_19_1106,ExactRep-v3-final,2021.2.3,60.00798085676345,
,,,,,,,,,,,,106,0,106,0,,,,,,,,,,,,,,,,,,,,,,,,,,,,,,,,,,,,,,,,,,,,,,,,,1303.4567831996828,None,,,,,,,,,,,,,,,,,,,,,,,,,,,,,,,,,,,,,,,,,,,,,,,,,,,,,,,,,fur,20,107,sing,old,yellow,1302.081442099996,None,y,1302.081442099996,None,"['y', 'return']","[0.9897721000015736, 1.3335993997752666]",1302.081442099996,None,,,45,001,2023_Apr_19_1106,ExactRep-v3-final,2021.2.3,60.00798085676345,
,,,,,,,,,,,,107,0,107,0,,,,,,,,,,,,,,,,,,,,,,,,,,,,,,,,,,,,,,,,,,,,,,,,,1305.575379599817,None,,,,,,,,,,,,,,,,,,,,,,,,,,,,,,,,,,,,,,,,,,,,,,,,,,,,,,,,,sky,182,108,aloud,new,yellow,1303.9665927998722,None,n,1303.9665927998722,None,"['n', 'return']","[1.2247673999518156, 1.5764568001031876]",1303.9665927998722,None,,,45,001,2023_Apr_19_1106,ExactRep-v3-final,2021.2.3,60.00798085676345,
,,,,,,,,,,,,108,0,108,0,,,,,,,,,,,,,,,,,,,,,,,,,,,,,,,,,,,,,,,,,,,,,,,,,1307.7443166002631,None,,,,,,,,,,,,,,,,,,,,,,,,,,,,,,,,,,,,,,,,,,,,,,,,,,,,,,,,,honour,12,109,sing,old,yellow,1306.0852838000283,None,y,1306.0852838000283,None,"['y', 'return']","[1.1618274999782443, 1.6260387999936938]",1306.0852838000283,None,,,45,001,2023_Apr_19_1106,ExactRep-v3-final,2021.2.3,60.00798085676345,
,,,,,,,,,,,,109,0,109,0,,,,,,,,,,,,,,,,,,,,,,,,,,,,,,,,,,,,,,,,,,,,,,,,,1309.6795001998544,None,,,,,,,,,,,,,,,,,,,,,,,,,,,,,,,,,,,,,,,,,,,,,,,,,,,,,,,,,cattle,15,110,sing,old,yellow,1308.2542824996635,None,y,1308.2542824996635,None,"['y', 'return']","[0.9610331002622843, 1.3927879007533193]",1308.2542824996635,None,,,45,001,2023_Apr_19_1106,ExactRep-v3-final,2021.2.3,60.00798085676345,
,,,,,,,,,,,,110,0,110,0,,,,,,,,,,,,,,,,,,,,,,,,,,,,,,,,,,,,,,,,,,,,,,,,,1311.7147963000461,None,,,,,,,,,,,,,,,,,,,,,,,,,,,,,,,,,,,,,,,,,,,,,,,,,,,,,,,,,wife,53,111,silent,old,yellow,1310.191398399882,None,n,1310.191398399882,None,"['n', 'return']","[1.1197385005652905, 1.4875477999448776]",1310.191398399882,None,,,45,001,2023_Apr_19_1106,ExactRep-v3-final,2021.2.3,60.00798085676345,
,,,,,,,,,,,,111,0,111,0,,,,,,,,,,,,,,,,,,,,,,,,,,,,,,,,,,,,,,,,,,,,,,,,,1313.600267900154,None,,,,,,,,,,,,,,,,,,,,,,,,,,,,,,,,,,,,,,,,,,,,,,,,,,,,,,,,,friend,69,112,silent,old,yellow,1312.2312017995864,None,n,1312.2312017995864,None,"['n', 'return']","[1.0000681998208165, 1.3278411999344826]",1312.2312017995864,None,,,45,001,2023_Apr_19_1106,ExactRep-v3-final,2021.2.3,60.00798085676345,
,,,,,,,,,,,,112,0,112,0,,,,,,,,,,,,,,,,,,,,,,,,,,,,,,,,,,,,,,,,,,,,,,,,,1315.5185949997976,None,,,,,,,,,,,,,,,,,,,,,,,,,,,,,,,,,,,,,,,,,,,,,,,,,,,,,,,,,bar,208,113,aloud,new,yellow,1314.1086365003139,None,n,1314.1086365003139,None,"['n', 'return']","[1.0666464995592833, 1.3705169996246696]",1314.1086365003139,None,,,45,001,2023_Apr_19_1106,ExactRep-v3-final,2021.2.3,60.00798085676345,
,,,,,,,,,,,,113,0,113,0,,,,,,,,,,,,,,,,,,,,,,,,,,,,,,,,,,,,,,,,,,,,,,,,,1317.4040208999068,None,,,,,,,,,,,,,,,,,,,,,,,,,,,,,,,,,,,,,,,,,,,,,,,,,,,,,,,,,lip,86,114,aloud,old,yellow,1316.026240600273,None,y,1316.026240600273,None,"['y', 'return']","[0.9571519996970892, 1.3328566998243332]",1316.026240600273,None,,,45,001,2023_Apr_19_1106,ExactRep-v3-final,2021.2.3,60.00798085676345,
,,,,,,,,,,,,114,0,114,0,,,,,,,,,,,,,,,,,,,,,,,,,,,,,,,,,,,,,,,,,,,,,,,,,1319.4226955994964,None,,,,,,,,,,,,,,,,,,,,,,,,,,,,,,,,,,,,,,,,,,,,,,,,,,,,,,,,,crime,96,115,aloud,old,yellow,1317.9136699000373,None,n,1317.9136699000373,None,"['n', 'return']","[1.1414596997201443, 1.4695429001003504]",1317.9136699000373,None,,,45,001,2023_Apr_19_1106,ExactRep-v3-final,2021.2.3,60.00798085676345,
,,,,,,,,,,,,115,0,115,0,,,,,,,,,,,,,,,,,,,,,,,,,,,,,,,,,,,,,,,,,,,,,,,,,1321.391114199534,None,,,,,,,,,,,,,,,,,,,,,,,,,,,,,,,,,,,,,,,,,,,,,,,,,,,,,,,,,ticket,115,116,aloud,old,yellow,1319.93262629956,None,n,1319.93262629956,None,"['n', 'return']","[1.0105657000094652, 1.4105513002723455]",1319.93262629956,None,,,45,001,2023_Apr_19_1106,ExactRep-v3-final,2021.2.3,60.00798085676345,
,,,,,,,,,,,,116,0,116,0,,,,,,,,,,,,,,,,,,,,,,,,,,,,,,,,,,,,,,,,,,,,,,,,,1323.343164499849,None,,,,,,,,,,,,,,,,,,,,,,,,,,,,,,,,,,,,,,,,,,,,,,,,,,,,,,,,,length,11,117,sing,old,yellow,1321.9034815002233,None,y,1321.9034815002233,None,"['y', 'return']","[1.0316218007355928, 1.399740100838244]",1321.9034815002233,None,,,45,001,2023_Apr_19_1106,ExactRep-v3-final,2021.2.3,60.00798085676345,
,,,,,,,,,,,,117,0,117,0,,,,,,,,,,,,,,,,,,,,,,,,,,,,,,,,,,,,,,,,,,,,,,,,,1325.228410700336,None,,,,,,,,,,,,,,,,,,,,,,,,,,,,,,,,,,,,,,,,,,,,,,,,,,,,,,,,,vision,85,118,aloud,old,yellow,1323.8503895998,None,y,1323.8503895998,None,"['y', 'return']","[0.9326716996729374, 1.3407052997499704]",1323.8503895998,None,,,45,001,2023_Apr_19_1106,ExactRep-v3-final,2021.2.3,60.00798085676345,
,,,,,,,,,,,,118,0,118,0,,,,,,,,,,,,,,,,,,,,,,,,,,,,,,,,,,,,,,,,,,,,,,,,,1327.1470232000574,None,,,,,,,,,,,,,,,,,,,,,,,,,,,,,,,,,,,,,,,,,,,,,,,,,,,,,,,,,flag,224,119,aloud,new,yellow,1325.7373730996624,None,n,1325.7373730996624,None,"['n', 'return']","[0.9496247004717588, 1.3738077003508806]",1325.7373730996624,None,,,45,001,2023_Apr_19_1106,ExactRep-v3-final,2021.2.3,60.00798085676345,
,,,,,,,,,,,,119,0,119,0,,,,,,,,,,,,,,,,,,,,,,,,,,,,,,,,,,,,,,,,,,,,,,,,,1329.0321800000966,None,,,,,,,,,,,,,,,,,,,,,,,,,,,,,,,,,,,,,,,,,,,,,,,,,,,,,,,,,power,95,120,aloud,old,yellow,1327.6618964998052,None,y,1327.6618964998052,None,"['y', 'return']","[0.9931362997740507, 1.3292750995606184]",1327.6618964998052,None,,,45,001,2023_Apr_19_1106,ExactRep-v3-final,2021.2.3,60.00798085676345,
,,,,,,,,,,,,120,0,120,0,,,,,,,,,,,,,,,,,,,,,,,,,,,,,,,,,,,,,,,,,,,,,,,,,1332.2520898999646,None,,,,,,,,,,,,,,,,,,,,,,,,,,,,,,,,,,,,,,,,,,,,,,,,,,,,,,,,,time,87,121,aloud,old,yellow,1329.5451676994562,None,n,1329.5451676994562,None,"['n', 'return']","[2.301992700435221, 2.670045600272715]",1329.5451676994562,None,,,45,001,2023_Apr_19_1106,ExactRep-v3-final,2021.2.3,60.00798085676345,
,,,,,,,,,,,,121,0,121,0,,,,,,,,,,,,,,,,,,,,,,,,,,,,,,,,,,,,,,,,,,,,,,,,,1334.3041418995708,None,,,,,,,,,,,,,,,,,,,,,,,,,,,,,,,,,,,,,,,,,,,,,,,,,,,,,,,,,event,63,122,silent,old,yellow,1332.755436799489,None,n,1332.755436799489,None,"['n', 'return']","[1.1556935999542475, 1.5078448997810483]",1332.755436799489,None,,,45,001,2023_Apr_19_1106,ExactRep-v3-final,2021.2.3,60.00798085676345,
,,,,,,,,,,,,122,0,122,0,,,,,,,,,,,,,,,,,,,,,,,,,,,,,,,,,,,,,,,,,,,,,,,,,1336.189262200147,None,,,,,,,,,,,,,,,,,,,,,,,,,,,,,,,,,,,,,,,,,,,,,,,,,,,,,,,,,woman,3,123,sing,old,yellow,1334.813494999893,None,n,1334.813494999893,None,"['n', 'return']","[1.0016616005450487, 1.3377526998519897]",1334.813494999893,None,,,45,001,2023_Apr_19_1106,ExactRep-v3-final,2021.2.3,60.00798085676345,
,,,,,,,,,,,,123,0,123,0,,,,,,,,,,,,,,,,,,,,,,,,,,,,,,,,,,,,,,,,,,,,,,,,,1338.32495940011,None,,,,,,,,,,,,,,,,,,,,,,,,,,,,,,,,,,,,,,,,,,,,,,,,,,,,,,,,,rock,67,124,silent,old,yellow,1336.6989318002015,None,n,1336.6989318002015,None,"['n', 'return']","[1.244280300103128, 1.5802549002692103]",1336.6989318002015,None,,,45,001,2023_Apr_19_1106,ExactRep-v3-final,2021.2.3,60.00798085676345,
,,,,,,,,,,,,124,0,124,0,,,,,,,,,,,,,,,,,,,,,,,,,,,,,,,,,,,,,,,,,,,,,,,,,1340.3767794994637,None,,,,,,,,,,,,,,,,,,,,,,,,,,,,,,,,,,,,,,,,,,,,,,,,,,,,,,,,,boy,218,125,aloud,new,yellow,1338.8326672995463,None,n,1338.8326672995463,None,"['n', 'return']","[1.190492999739945, 1.51046990044415]",1338.8326672995463,None,,,45,001,2023_Apr_19_1106,ExactRep-v3-final,2021.2.3,60.00798085676345,
,,,,,,,,,,,,125,0,125,0,,,,,,,,,,,,,,,,,,,,,,,,,,,,,,,,,,,,,,,,,,,,,,,,,1342.3788267998025,None,,,,,,,,,,,,,,,,,,,,,,,,,,,,,,,,,,,,,,,,,,,,,,,,,,,,,,,,,health,141,126,silent,new,yellow,1340.8867675997317,None,n,1340.8867675997317,None,"['n', 'return']","[1.0084715001285076, 1.456406899727881]",1340.8867675997317,None,,,45,001,2023_Apr_19_1106,ExactRep-v3-final,2021.2.3,60.00798085676345,
,,,,,,,,,,,,126,0,126,0,,,,,,,,,,,,,,,,,,,,,,,,,,,,,,,,,,,,,,,,,,,,,,,,,1344.297435999848,None,,,,,,,,,,,,,,,,,,,,,,,,,,,,,,,,,,,,,,,,,,,,,,,,,,,,,,,,,month,58,127,silent,old,yellow,1342.890774199739,None,n,1342.890774199739,None,"['n', 'return']","[0.9323207000270486, 1.3644380001351237]",1342.890774199739,None,,,45,001,2023_Apr_19_1106,ExactRep-v3-final,2021.2.3,60.00798085676345,
,,,,,,,,,,,,127,0,127,0,,,,,,,,,,,,,,,,,,,,,,,,,,,,,,,,,,,,,,,,,,,,,,,,,1346.282882399857,None,,,,,,,,,,,,,,,,,,,,,,,,,,,,,,,,,,,,,,,,,,,,,,,,,,,,,,,,,garden,4,128,sing,old,yellow,1344.8150455998257,None,n,1344.8150455998257,None,"['n', 'return']","[1.0881479000672698, 1.432267900556326]",1344.8150455998257,None,,,45,001,2023_Apr_19_1106,ExactRep-v3-final,2021.2.3,60.00798085676345,
,,,,,,,,,,,,128,0,128,0,,,,,,,,,,,,,,,,,,,,,,,,,,,,,,,,,,,,,,,,,,,,,,,,,1349.4025213001296,None,,,,,,,,,,,,,,,,,,,,,,,,,,,,,,,,,,,,,,,,,,,,,,,,,,,,,,,,,table,54,129,silent,old,yellow,1346.7943172995,None,y,1346.7943172995,None,"['y', 'return']","[1.180918600410223, 2.5647870004177094]",1346.7943172995,None,,,45,001,2023_Apr_19_1106,ExactRep-v3-final,2021.2.3,60.00798085676345,
,,,,,,,,,,,,129,0,129,0,,,,,,,,,,,,,,,,,,,,,,,,,,,,,,,,,,,,,,,,,,,,,,,,,1351.2045007003471,None,,,,,,,,,,,,,,,,,,,,,,,,,,,,,,,,,,,,,,,,,,,,,,,,,,,,,,,,,deed,205,130,sing,new,yellow,1349.9099620999768,None,n,1349.9099620999768,None,"['n', 'return']","[0.9053211994469166, 1.2491405997425318]",1349.9099620999768,None,,,45,001,2023_Apr_19_1106,ExactRep-v3-final,2021.2.3,60.00798085676345,
,,,,,,,,,,,,130,0,130,0,,,,,,,,,,,,,,,,,,,,,,,,,,,,,,,,,,,,,,,,,,,,,,,,,1353.1564271999523,None,,,,,,,,,,,,,,,,,,,,,,,,,,,,,,,,,,,,,,,,,,,,,,,,,,,,,,,,,speech,27,131,sing,old,yellow,1351.7143850000575,None,n,1351.7143850000575,None,"['n', 'return']","[0.9407163998112082, 1.396765399724245]",1351.7143850000575,None,,,45,001,2023_Apr_19_1106,ExactRep-v3-final,2021.2.3,60.00798085676345,
,,,,,,,,,,,,131,0,131,0,,,,,,,,,,,,,,,,,,,,,,,,,,,,,,,,,,,,,,,,,,,,,,,,,1358.5283714998513,None,,,,,,,,,,,,,,,,,,,,,,,,,,,,,,,,,,,,,,,,,,,,,,,,,,,,,,,,,wine,199,132,sing,new,yellow,1353.6679117996246,None,n,1353.6679117996246,None,"['backspace', 'n', 'return']","[2.6032708007842302, 4.419282800517976, 4.819213700480759]",1353.6679117996246,None,,,45,001,2023_Apr_19_1106,ExactRep-v3-final,2021.2.3,60.00798085676345,
