trials_fam.thisRepN,trials_fam.thisTrialN,trials_fam.thisN,trials_fam.thisIndex,trials_prc.thisRepN,trials_prc.thisTrialN,trials_prc.thisN,trials_prc.thisIndex,StudyLoop.thisRepN,StudyLoop.thisTrialN,StudyLoop.thisN,StudyLoop.thisIndex,TestLoop.thisRepN,TestLoop.thisTrialN,TestLoop.thisN,TestLoop.thisIndex,text_colortest.started,text_colortest.stopped,key_colortest.keys,key_colortest.rt,key_colortest.started,key_colortest.stopped,textCondition.started,textCondition.stopped,keyCondition.keys,keyCondition.rt,keyCondition.started,keyCondition.stopped,Condition_between,Condition_counterbal,keyWelcome.keys,keyWelcome.rt,keyWelcome.started,keyWelcome.stopped,welcome_a.started,welcome_a.stopped,welcome_b.started,welcome_b.stopped,welcome_c.started,welcome_c.stopped,welcome_d.started,welcome_d.stopped,welcome_e.started,welcome_e.stopped,welcome_f.started,welcome_f.stopped,key_resp_fam_inst.keys,key_resp_fam_inst.rt,key_resp_fam_inst.started,key_resp_fam_inst.stopped,fam_a.started,fam_a.stopped,fam_b.started,fam_b.stopped,fam_c.started,fam_c.stopped,fam_d.started,fam_d.stopped,fam_e.started,fam_e.stopped,fam_f.started,fam_f.stopped,text_famil.started,text_famil.stopped,textBlank500.started,textBlank500.stopped,key_resp_prc_inst.keys,key_resp_prc_inst.rt,key_resp_prc_inst.started,key_resp_prc_inst.stopped,prac_a.started,prac_a.stopped,prac_b.started,prac_b.stopped,prac_c.started,prac_c.stopped,prac_d.started,prac_d.stopped,prac_e.started,prac_e.stopped,prac_f.started,prac_f.stopped,text_prc_trial.started,text_prc_trial.stopped,key_resp_study_inst.keys,key_resp_study_inst.rt,key_resp_study_inst.started,key_resp_study_inst.stopped,crit_a.started,crit_a.stopped,crit_b.started,crit_b.stopped,crit_c.started,crit_c.stopped,crit_d.started,crit_d.stopped,crit_e.started,crit_e.stopped,crit_f.started,crit_f.stopped,study_word,study_num,study_order,study_type,word_color,textStudy.started,textStudy.stopped,keyStudy.keys,keyStudy.started,keyStudy.stopped,post_study.started,post_study.stopped,key_resp_post_study.keys,key_resp_post_study.rt,key_resp_post_study.started,key_resp_post_study.stopped,test_inst.started,test_inst.stopped,key_resp_test_inst.keys,key_resp_test_inst.rt,key_resp_test_inst.started,key_resp_test_inst.stopped,test_word,test_num,test_order,test_condition,old_new_test,word_color_test,textConf.started,textConf.stopped,Participant Response,textInput.started,textInput.stopped,keyResp.keys,keyResp.rt,keyResp.started,keyResp.stopped,textEnd.started,textEnd.stopped,participant,session,date,expName,psychopyVersion,frameRate,
,,,,,,,,,,,,,,,,36.76432710047811,None,n,3.0580700002610683,36.76432710047811,None,,,,,,,,,,,,,,,,,,,,,,,,,,,,,,,,,,,,,,,,,,,,,,,,,,,,,,,,,,,,,,,,,,,,,,,,,,,,,,,,,,,,,,,,,,,,,,,,,,,,,,,,,,,,,,,,,,,,,,46,001,2023_Apr_19_1135,ExactRep-v3-final,2021.2.3,59.91270717658033,
,,,,,,,,,,,,,,,,,,,,,,39.85340560041368,None,d,0.10478300042450428,39.85340560041368,None,,,,,,,,,,,,,,,,,,,,,,,,,,,,,,,,,,,,,,,,,,,,,,,,,,,,,,,,,,,,,,,,,,,,,,,,,,,,,,,,,,,,,,,,,,,,,,,,,,,,,,,,,,,,,,,,46,001,2023_Apr_19_1135,ExactRep-v3-final,2021.2.3,59.91270717658033,
,,,,,,,,,,,,,,,,,,,,,,,,,,,,whitefoils,d,space,186.42960289958864,50.088885799981654,None,,,,,,,,,,,,,,,,,,,,,,,,,,,,,,,,,,,,,,,,,,,,,,,,,,,,,,,,,,,,,,,,,,,,,,,,,,,,,,,,,,,,,,,,,,,,,,,,,,,,,,,,,,46,001,2023_Apr_19_1135,ExactRep-v3-final,2021.2.3,59.91270717658033,
,,,,,,,,,,,,,,,,,,,,,,,,,,,,,,,,,,40.157210000790656,None,40.157210000790656,None,40.157210000790656,None,40.157210000790656,None,40.157210000790656,None,40.157210000790656,None,space,28.446567700244486,246.67180190049112,None,,,,,,,,,,,,,,,,,,,,,,,,,,,,,,,,,,,,,,,,,,,,,,,,,,,,,,,,,,,,,,,,,,,,,,,,,,,,,,,,,,,,,,,,,,46,001,2023_Apr_19_1135,ExactRep-v3-final,2021.2.3,59.91270717658033,
0,0,0,0,,,,,,,,,,,,,,,,,,,,,,,,,,,,,,,,,,,,,,,,,,,,,,,236.67086810059845,None,236.67086810059845,None,236.67086810059845,None,236.67086810059845,None,236.67086810059845,None,236.67086810059845,None,275.256929400377,None,277.25688729994,None,,,,,,,,,,,,,,,,,,,,,,,,,,,,,,,,,,,,,,,,,,,,,,,,,,,,,,,,,,,,,,,,,,,,,,,,,,46,001,2023_Apr_19_1135,ExactRep-v3-final,2021.2.3,59.91270717658033,
1,0,1,0,,,,,,,,,,,,,,,,,,,,,,,,,,,,,,,,,,,,,,,,,,,,,,,,,,,,,,,,,,,277.7498361002654,None,279.7596332002431,None,,,,,,,,,,,,,,,,,,,,,,,,,,,,,,,,,,,,,,,,,,,,,,,,,,,,,,,,,,,,,,,,,,,,,,,,,,46,001,2023_Apr_19_1135,ExactRep-v3-final,2021.2.3,59.91270717658033,
2,0,2,0,,,,,,,,,,,,,,,,,,,,,,,,,,,,,,,,,,,,,,,,,,,,,,,,,,,,,,,,,,,280.2863827999681,None,282.2789817005396,None,,,,,,,,,,,,,,,,,,,,,,,,,,,,,,,,,,,,,,,,,,,,,,,,,,,,,,,,,,,,,,,,,,,,,,,,,,46,001,2023_Apr_19_1135,ExactRep-v3-final,2021.2.3,59.91270717658033,
3,0,3,0,,,,,,,,,,,,,,,,,,,,,,,,,,,,,,,,,,,,,,,,,,,,,,,,,,,,,,,,,,,282.78406370058656,None,284.79799100011587,None,,,,,,,,,,,,,,,,,,,,,,,,,,,,,,,,,,,,,,,,,,,,,,,,,,,,,,,,,,,,,,,,,,,,,,,,,,46,001,2023_Apr_19_1135,ExactRep-v3-final,2021.2.3,59.91270717658033,
4,0,4,0,,,,,,,,,,,,,,,,,,,,,,,,,,,,,,,,,,,,,,,,,,,,,,,,,,,,,,,,,,,285.29848480038345,None,287.30082200001925,None,,,,,,,,,,,,,,,,,,,,,,,,,,,,,,,,,,,,,,,,,,,,,,,,,,,,,,,,,,,,,,,,,,,,,,,,,,46,001,2023_Apr_19_1135,ExactRep-v3-final,2021.2.3,59.91270717658033,
5,0,5,0,,,,,,,,,,,,,,,,,,,,,,,,,,,,,,,,,,,,,,,,,,,,,,,,,,,,,,,,,,,287.81379760056734,None,289.8198549002409,None,,,,,,,,,,,,,,,,,,,,,,,,,,,,,,,,,,,,,,,,,,,,,,,,,,,,,,,,,,,,,,,,,,,,,,,,,,46,001,2023_Apr_19_1135,ExactRep-v3-final,2021.2.3,59.91270717658033,
6,0,6,0,,,,,,,,,,,,,,,,,,,,,,,,,,,,,,,,,,,,,,,,,,,,,,,,,,,,,,,,,,,290.3202276006341,None,292.32236770074815,None,,,,,,,,,,,,,,,,,,,,,,,,,,,,,,,,,,,,,,,,,,,,,,,,,,,,,,,,,,,,,,,,,,,,,,,,,,46,001,2023_Apr_19_1135,ExactRep-v3-final,2021.2.3,59.91270717658033,
7,0,7,0,,,,,,,,,,,,,,,,,,,,,,,,,,,,,,,,,,,,,,,,,,,,,,,,,,,,,,,,,,,292.82463010028005,None,294.82481100037694,None,,,,,,,,,,,,,,,,,,,,,,,,,,,,,,,,,,,,,,,,,,,,,,,,,,,,,,,,,,,,,,,,,,,,,,,,,,46,001,2023_Apr_19_1135,ExactRep-v3-final,2021.2.3,59.91270717658033,
8,0,8,0,,,,,,,,,,,,,,,,,,,,,,,,,,,,,,,,,,,,,,,,,,,,,,,,,,,,,,,,,,,295.3270139005035,None,297.32710560038686,None,,,,,,,,,,,,,,,,,,,,,,,,,,,,,,,,,,,,,,,,,,,,,,,,,,,,,,,,,,,,,,,,,,,,,,,,,,46,001,2023_Apr_19_1135,ExactRep-v3-final,2021.2.3,59.91270717658033,
9,0,9,0,,,,,,,,,,,,,,,,,,,,,,,,,,,,,,,,,,,,,,,,,,,,,,,,,,,,,,,,,,,297.8372422000393,None,299.8464100006968,None,,,,,,,,,,,,,,,,,,,,,,,,,,,,,,,,,,,,,,,,,,,,,,,,,,,,,,,,,,,,,,,,,,,,,,,,,,46,001,2023_Apr_19_1135,ExactRep-v3-final,2021.2.3,59.91270717658033,
10,0,10,0,,,,,,,,,,,,,,,,,,,,,,,,,,,,,,,,,,,,,,,,,,,,,,,,,,,,,,,,,,,300.3479659007862,None,302.34907000046223,None,,,,,,,,,,,,,,,,,,,,,,,,,,,,,,,,,,,,,,,,,,,,,,,,,,,,,,,,,,,,,,,,,,,,,,,,,,46,001,2023_Apr_19_1135,ExactRep-v3-final,2021.2.3,59.91270717658033,
11,0,11,0,,,,,,,,,,,,,,,,,,,,,,,,,,,,,,,,,,,,,,,,,,,,,,,,,,,,,,,,,,,302.85251870006323,None,304.8681779000908,None,,,,,,,,,,,,,,,,,,,,,,,,,,,,,,,,,,,,,,,,,,,,,,,,,,,,,,,,,,,,,,,,,,,,,,,,,,46,001,2023_Apr_19_1135,ExactRep-v3-final,2021.2.3,59.91270717658033,
12,0,12,0,,,,,,,,,,,,,,,,,,,,,,,,,,,,,,,,,,,,,,,,,,,,,,,,,,,,,,,,,,,305.3685515001416,None,307.37071530055255,None,,,,,,,,,,,,,,,,,,,,,,,,,,,,,,,,,,,,,,,,,,,,,,,,,,,,,,,,,,,,,,,,,,,,,,,,,,46,001,2023_Apr_19_1135,ExactRep-v3-final,2021.2.3,59.91270717658033,
13,0,13,0,,,,,,,,,,,,,,,,,,,,,,,,,,,,,,,,,,,,,,,,,,,,,,,,,,,,,,,,,,,307.8758294004947,None,309.88989140000194,None,,,,,,,,,,,,,,,,,,,,,,,,,,,,,,,,,,,,,,,,,,,,,,,,,,,,,,,,,,,,,,,,,,,,,,,,,,46,001,2023_Apr_19_1135,ExactRep-v3-final,2021.2.3,59.91270717658033,
14,0,14,0,,,,,,,,,,,,,,,,,,,,,,,,,,,,,,,,,,,,,,,,,,,,,,,,,,,,,,,,,,,310.39039370045066,None,312.39247760083526,None,,,,,,,,,,,,,,,,,,,,,,,,,,,,,,,,,,,,,,,,,,,,,,,,,,,,,,,,,,,,,,,,,,,,,,,,,,46,001,2023_Apr_19_1135,ExactRep-v3-final,2021.2.3,59.91270717658033,
,,,,,,,,,,,,,,,,,,,,,,,,,,,,,,,,,,,,,,,,,,,,,,,,,,,,,,,,,,,,,,,,,,space,19.10851509962231,323.0337338000536,None,,,,,,,,,,,,,,,,,,,,,,,,,,,,,,,,,,,,,,,,,,,,,,,,,,,,,,,,,,,,,,,,,,,,,,46,001,2023_Apr_19_1135,ExactRep-v3-final,2021.2.3,59.91270717658033,
,,,,0,0,0,0,,,,,,,,,,,,,,,,,,,,,,,,,,,,,,,,,,,,,,,,,,,,,,,,,,,,,,,,,344.24055290035903,None,,,,,313.05431740079075,None,313.05431740079075,None,313.05431740079075,None,313.05431740079075,None,313.05431740079075,None,313.05431740079075,None,342.2391182007268,None,,,,,,,,,,,,,,,,,,,,,,,,,,,,,,,,,,,,,,,,,,,,,,,,,,,,,,,,46,001,2023_Apr_19_1135,ExactRep-v3-final,2021.2.3,59.91270717658033,
,,,,1,0,1,0,,,,,,,,,,,,,,,,,,,,,,,,,,,,,,,,,,,,,,,,,,,,,,,,,,,,,,,,,346.74354290030897,None,,,,,,,,,,,,,,,,,344.74126740079373,None,,,,,,,,,,,,,,,,,,,,,,,,,,,,,,,,,,,,,,,,,,,,,,,,,,,,,,,,46,001,2023_Apr_19_1135,ExactRep-v3-final,2021.2.3,59.91270717658033,
,,,,2,0,2,0,,,,,,,,,,,,,,,,,,,,,,,,,,,,,,,,,,,,,,,,,,,,,,,,,,,,,,,,,349.24586080014706,None,,,,,,,,,,,,,,,,,347.2440474005416,None,,,,,,,,,,,,,,,,,,,,,,,,,,,,,,,,,,,,,,,,,,,,,,,,,,,,,,,,46,001,2023_Apr_19_1135,ExactRep-v3-final,2021.2.3,59.91270717658033,
,,,,3,0,3,0,,,,,,,,,,,,,,,,,,,,,,,,,,,,,,,,,,,,,,,,,,,,,,,,,,,,,,,,,351.7482465002686,None,,,,,,,,,,,,,,,,,349.7465759003535,None,,,,,,,,,,,,,,,,,,,,,,,,,,,,,,,,,,,,,,,,,,,,,,,,,,,,,,,,46,001,2023_Apr_19_1135,ExactRep-v3-final,2021.2.3,59.91270717658033,
,,,,4,0,4,0,,,,,,,,,,,,,,,,,,,,,,,,,,,,,,,,,,,,,,,,,,,,,,,,,,,,,,,,,354.2509297002107,None,,,,,,,,,,,,,,,,,352.249016600661,None,,,,,,,,,,,,,,,,,,,,,,,,,,,,,,,,,,,,,,,,,,,,,,,,,,,,,,,,46,001,2023_Apr_19_1135,ExactRep-v3-final,2021.2.3,59.91270717658033,
,,,,5,0,5,0,,,,,,,,,,,,,,,,,,,,,,,,,,,,,,,,,,,,,,,,,,,,,,,,,,,,,,,,,356.7532230000943,None,,,,,,,,,,,,,,,,,354.7513133008033,None,,,,,,,,,,,,,,,,,,,,,,,,,,,,,,,,,,,,,,,,,,,,,,,,,,,,,,,,46,001,2023_Apr_19_1135,ExactRep-v3-final,2021.2.3,59.91270717658033,
,,,,6,0,6,0,,,,,,,,,,,,,,,,,,,,,,,,,,,,,,,,,,,,,,,,,,,,,,,,,,,,,,,,,359.25597820058465,None,,,,,,,,,,,,,,,,,357.2536847004667,None,,,,,,,,,,,,,,,,,,,,,,,,,,,,,,,,,,,,,,,,,,,,,,,,,,,,,,,,46,001,2023_Apr_19_1135,ExactRep-v3-final,2021.2.3,59.91270717658033,
,,,,7,0,7,0,,,,,,,,,,,,,,,,,,,,,,,,,,,,,,,,,,,,,,,,,,,,,,,,,,,,,,,,,361.75834790058434,None,,,,,,,,,,,,,,,,,359.7563826004043,None,,,,,,,,,,,,,,,,,,,,,,,,,,,,,,,,,,,,,,,,,,,,,,,,,,,,,,,,46,001,2023_Apr_19_1135,ExactRep-v3-final,2021.2.3,59.91270717658033,
,,,,8,0,8,0,,,,,,,,,,,,,,,,,,,,,,,,,,,,,,,,,,,,,,,,,,,,,,,,,,,,,,,,,364.2609753999859,None,,,,,,,,,,,,,,,,,362.25882090069354,None,,,,,,,,,,,,,,,,,,,,,,,,,,,,,,,,,,,,,,,,,,,,,,,,,,,,,,,,46,001,2023_Apr_19_1135,ExactRep-v3-final,2021.2.3,59.91270717658033,
,,,,9,0,9,0,,,,,,,,,,,,,,,,,,,,,,,,,,,,,,,,,,,,,,,,,,,,,,,,,,,,,,,,,366.7635046001524,None,,,,,,,,,,,,,,,,,364.76154060009867,None,,,,,,,,,,,,,,,,,,,,,,,,,,,,,,,,,,,,,,,,,,,,,,,,,,,,,,,,46,001,2023_Apr_19_1135,ExactRep-v3-final,2021.2.3,59.91270717658033,
,,,,10,0,10,0,,,,,,,,,,,,,,,,,,,,,,,,,,,,,,,,,,,,,,,,,,,,,,,,,,,,,,,,,369.265990100801,None,,,,,,,,,,,,,,,,,367.263958000578,None,,,,,,,,,,,,,,,,,,,,,,,,,,,,,,,,,,,,,,,,,,,,,,,,,,,,,,,,46,001,2023_Apr_19_1135,ExactRep-v3-final,2021.2.3,59.91270717658033,
,,,,11,0,11,0,,,,,,,,,,,,,,,,,,,,,,,,,,,,,,,,,,,,,,,,,,,,,,,,,,,,,,,,,371.7685054000467,None,,,,,,,,,,,,,,,,,369.76647800020874,None,,,,,,,,,,,,,,,,,,,,,,,,,,,,,,,,,,,,,,,,,,,,,,,,,,,,,,,,46,001,2023_Apr_19_1135,ExactRep-v3-final,2021.2.3,59.91270717658033,
,,,,12,0,12,0,,,,,,,,,,,,,,,,,,,,,,,,,,,,,,,,,,,,,,,,,,,,,,,,,,,,,,,,,374.2711141007021,None,,,,,,,,,,,,,,,,,372.2690012007952,None,,,,,,,,,,,,,,,,,,,,,,,,,,,,,,,,,,,,,,,,,,,,,,,,,,,,,,,,46,001,2023_Apr_19_1135,ExactRep-v3-final,2021.2.3,59.91270717658033,
,,,,13,0,13,0,,,,,,,,,,,,,,,,,,,,,,,,,,,,,,,,,,,,,,,,,,,,,,,,,,,,,,,,,376.7735139001161,None,,,,,,,,,,,,,,,,,374.7712633004412,None,,,,,,,,,,,,,,,,,,,,,,,,,,,,,,,,,,,,,,,,,,,,,,,,,,,,,,,,46,001,2023_Apr_19_1135,ExactRep-v3-final,2021.2.3,59.91270717658033,
,,,,14,0,14,0,,,,,,,,,,,,,,,,,,,,,,,,,,,,,,,,,,,,,,,,,,,,,,,,,,,,,,,,,379.27596030011773,None,,,,,,,,,,,,,,,,,377.27398130018264,None,,,,,,,,,,,,,,,,,,,,,,,,,,,,,,,,,,,,,,,,,,,,,,,,,,,,,,,,46,001,2023_Apr_19_1135,ExactRep-v3-final,2021.2.3,59.91270717658033,
,,,,,,,,,,,,,,,,,,,,,,,,,,,,,,,,,,,,,,,,,,,,,,,,,,,,,,,,,,,,,,,,,,,,,,,,,,,,,,,,,,,,space,45.006994400173426,389.9120257003233,None,,,,,,,,,,,,,,,,,,,,,,,,,,,,,,,,,,,,,,,,,,,,,,,,,,,,46,001,2023_Apr_19_1135,ExactRep-v3-final,2021.2.3,59.91270717658033,
,,,,,,,,0,0,0,0,,,,,,,,,,,,,,,,,,,,,,,,,,,,,,,,,,,,,,,,,,,,,,,,,,,,,436.98355240002275,None,,,,,,,,,,,,,,,,,,,,,,,379.95440880022943,None,379.95440880022943,None,379.95440880022943,None,379.95440880022943,None,379.95440880022943,None,379.95440880022943,None,truth,61,1,silent,white,434.98095240071416,None,None,434.98095240071416,None,,,,,,,,,,,,,,,,,,,,,,,,,,,,,,46,001,2023_Apr_19_1135,ExactRep-v3-final,2021.2.3,59.91270717658033,
,,,,,,,,1,0,1,0,,,,,,,,,,,,,,,,,,,,,,,,,,,,,,,,,,,,,,,,,,,,,,,,,,,,,439.5027424003929,None,,,,,,,,,,,,,,,,,,,,,,,,,,,,,,,,,,,ocean,46,2,silent,white,437.49574160017073,None,None,437.49574160017073,None,,,,,,,,,,,,,,,,,,,,,,,,,,,,,,46,001,2023_Apr_19_1135,ExactRep-v3-final,2021.2.3,59.91270717658033,
,,,,,,,,2,0,2,0,,,,,,,,,,,,,,,,,,,,,,,,,,,,,,,,,,,,,,,,,,,,,,,,,,,,,442.02196549996734,None,,,,,,,,,,,,,,,,,,,,,,,,,,,,,,,,,,,lake,62,3,silent,white,440.007418400608,None,None,440.007418400608,None,,,,,,,,,,,,,,,,,,,,,,,,,,,,,,46,001,2023_Apr_19_1135,ExactRep-v3-final,2021.2.3,59.91270717658033,
,,,,,,,,3,0,3,0,,,,,,,,,,,,,,,,,,,,,,,,,,,,,,,,,,,,,,,,,,,,,,,,,,,,,444.54091510083526,None,,,,,,,,,,,,,,,,,,,,,,,,,,,,,,,,,,,length,101,4,aloud,blue,442.5295241000131,None,None,442.5295241000131,None,,,,,,,,,,,,,,,,,,,,,,,,,,,,,,46,001,2023_Apr_19_1135,ExactRep-v3-final,2021.2.3,59.91270717658033,
,,,,,,,,4,0,4,0,,,,,,,,,,,,,,,,,,,,,,,,,,,,,,,,,,,,,,,,,,,,,,,,,,,,,447.0604734001681,None,,,,,,,,,,,,,,,,,,,,,,,,,,,,,,,,,,,answer,76,5,silent,white,445.05035030003637,None,None,445.05035030003637,None,,,,,,,,,,,,,,,,,,,,,,,,,,,,,,46,001,2023_Apr_19_1135,ExactRep-v3-final,2021.2.3,59.91270717658033,
,,,,,,,,5,0,5,0,,,,,,,,,,,,,,,,,,,,,,,,,,,,,,,,,,,,,,,,,,,,,,,,,,,,,449.56323690060526,None,,,,,,,,,,,,,,,,,,,,,,,,,,,,,,,,,,,person,0,6,sing,red,447.56334959995,None,None,447.56334959995,None,,,,,,,,,,,,,,,,,,,,,,,,,,,,,,46,001,2023_Apr_19_1135,ExactRep-v3-final,2021.2.3,59.91270717658033,
,,,,,,,,6,0,6,0,,,,,,,,,,,,,,,,,,,,,,,,,,,,,,,,,,,,,,,,,,,,,,,,,,,,,452.0820032004267,None,,,,,,,,,,,,,,,,,,,,,,,,,,,,,,,,,,,tree,55,7,silent,white,450.0718219000846,None,None,450.0718219000846,None,,,,,,,,,,,,,,,,,,,,,,,,,,,,,,46,001,2023_Apr_19_1135,ExactRep-v3-final,2021.2.3,59.91270717658033,
,,,,,,,,7,0,7,0,,,,,,,,,,,,,,,,,,,,,,,,,,,,,,,,,,,,,,,,,,,,,,,,,,,,,454.5844407007098,None,,,,,,,,,,,,,,,,,,,,,,,,,,,,,,,,,,,meat,4,8,sing,red,452.5823015002534,None,None,452.5823015002534,None,,,,,,,,,,,,,,,,,,,,,,,,,,,,,,46,001,2023_Apr_19_1135,ExactRep-v3-final,2021.2.3,59.91270717658033,
,,,,,,,,8,0,8,0,,,,,,,,,,,,,,,,,,,,,,,,,,,,,,,,,,,,,,,,,,,,,,,,,,,,,457.1037917006761,None,,,,,,,,,,,,,,,,,,,,,,,,,,,,,,,,,,,freedom,12,9,sing,red,455.0922378003597,None,None,455.0922378003597,None,,,,,,,,,,,,,,,,,,,,,,,,,,,,,,46,001,2023_Apr_19_1135,ExactRep-v3-final,2021.2.3,59.91270717658033,
,,,,,,,,9,0,9,0,,,,,,,,,,,,,,,,,,,,,,,,,,,,,,,,,,,,,,,,,,,,,,,,,,,,,459.62300940044224,None,,,,,,,,,,,,,,,,,,,,,,,,,,,,,,,,,,,dress,103,10,aloud,blue,457.61200490035117,None,None,457.61200490035117,None,,,,,,,,,,,,,,,,,,,,,,,,,,,,,,46,001,2023_Apr_19_1135,ExactRep-v3-final,2021.2.3,59.91270717658033,
,,,,,,,,10,0,10,0,,,,,,,,,,,,,,,,,,,,,,,,,,,,,,,,,,,,,,,,,,,,,,,,,,,,,462.1253761006519,None,,,,,,,,,,,,,,,,,,,,,,,,,,,,,,,,,,,silence,90,11,aloud,blue,460.1243246002123,None,None,460.1243246002123,None,,,,,,,,,,,,,,,,,,,,,,,,,,,,,,46,001,2023_Apr_19_1135,ExactRep-v3-final,2021.2.3,59.91270717658033,
,,,,,,,,11,0,11,0,,,,,,,,,,,,,,,,,,,,,,,,,,,,,,,,,,,,,,,,,,,,,,,,,,,,,464.6447998005897,None,,,,,,,,,,,,,,,,,,,,,,,,,,,,,,,,,,,cottage,118,12,aloud,blue,462.6301369005814,None,None,462.6301369005814,None,,,,,,,,,,,,,,,,,,,,,,,,,,,,,,46,001,2023_Apr_19_1135,ExactRep-v3-final,2021.2.3,59.91270717658033,
,,,,,,,,12,0,12,0,,,,,,,,,,,,,,,,,,,,,,,,,,,,,,,,,,,,,,,,,,,,,,,,,,,,,467.14702140074223,None,,,,,,,,,,,,,,,,,,,,,,,,,,,,,,,,,,,bird,7,13,sing,red,465.1450952999294,None,None,465.1450952999294,None,,,,,,,,,,,,,,,,,,,,,,,,,,,,,,46,001,2023_Apr_19_1135,ExactRep-v3-final,2021.2.3,59.91270717658033,
,,,,,,,,13,0,13,0,,,,,,,,,,,,,,,,,,,,,,,,,,,,,,,,,,,,,,,,,,,,,,,,,,,,,469.6495393002406,None,,,,,,,,,,,,,,,,,,,,,,,,,,,,,,,,,,,brain,73,14,silent,white,467.6489243004471,None,None,467.6489243004471,None,,,,,,,,,,,,,,,,,,,,,,,,,,,,,,46,001,2023_Apr_19_1135,ExactRep-v3-final,2021.2.3,59.91270717658033,
,,,,,,,,14,0,14,0,,,,,,,,,,,,,,,,,,,,,,,,,,,,,,,,,,,,,,,,,,,,,,,,,,,,,472.15206390060484,None,,,,,,,,,,,,,,,,,,,,,,,,,,,,,,,,,,,law,33,15,sing,red,470.150033400394,None,None,470.150033400394,None,,,,,,,,,,,,,,,,,,,,,,,,,,,,,,46,001,2023_Apr_19_1135,ExactRep-v3-final,2021.2.3,59.91270717658033,
,,,,,,,,15,0,15,0,,,,,,,,,,,,,,,,,,,,,,,,,,,,,,,,,,,,,,,,,,,,,,,,,,,,,474.65453450009227,None,,,,,,,,,,,,,,,,,,,,,,,,,,,,,,,,,,,hall,49,16,silent,white,472.65260960068554,None,None,472.65260960068554,None,,,,,,,,,,,,,,,,,,,,,,,,,,,,,,46,001,2023_Apr_19_1135,ExactRep-v3-final,2021.2.3,59.91270717658033,
,,,,,,,,16,0,16,0,,,,,,,,,,,,,,,,,,,,,,,,,,,,,,,,,,,,,,,,,,,,,,,,,,,,,477.1572533007711,None,,,,,,,,,,,,,,,,,,,,,,,,,,,,,,,,,,,rock,54,17,silent,white,475.1571964006871,None,None,475.1571964006871,None,,,,,,,,,,,,,,,,,,,,,,,,,,,,,,46,001,2023_Apr_19_1135,ExactRep-v3-final,2021.2.3,59.91270717658033,
,,,,,,,,17,0,17,0,,,,,,,,,,,,,,,,,,,,,,,,,,,,,,,,,,,,,,,,,,,,,,,,,,,,,479.67650680057704,None,,,,,,,,,,,,,,,,,,,,,,,,,,,,,,,,,,,door,84,18,aloud,blue,477.6638438999653,None,None,477.6638438999653,None,,,,,,,,,,,,,,,,,,,,,,,,,,,,,,46,001,2023_Apr_19_1135,ExactRep-v3-final,2021.2.3,59.91270717658033,
,,,,,,,,18,0,18,0,,,,,,,,,,,,,,,,,,,,,,,,,,,,,,,,,,,,,,,,,,,,,,,,,,,,,482.1955773001537,None,,,,,,,,,,,,,,,,,,,,,,,,,,,,,,,,,,,amount,81,19,aloud,blue,480.18353130016476,None,None,480.18353130016476,None,,,,,,,,,,,,,,,,,,,,,,,,,,,,,,46,001,2023_Apr_19_1135,ExactRep-v3-final,2021.2.3,59.91270717658033,
,,,,,,,,19,0,19,0,,,,,,,,,,,,,,,,,,,,,,,,,,,,,,,,,,,,,,,,,,,,,,,,,,,,,484.714872200042,None,,,,,,,,,,,,,,,,,,,,,,,,,,,,,,,,,,,village,8,20,sing,red,482.7033198000863,None,None,482.7033198000863,None,,,,,,,,,,,,,,,,,,,,,,,,,,,,,,46,001,2023_Apr_19_1135,ExactRep-v3-final,2021.2.3,59.91270717658033,
,,,,,,,,20,0,20,0,,,,,,,,,,,,,,,,,,,,,,,,,,,,,,,,,,,,,,,,,,,,,,,,,,,,,487.2171224001795,None,,,,,,,,,,,,,,,,,,,,,,,,,,,,,,,,,,,officer,82,21,aloud,blue,485.2150778006762,None,None,485.2150778006762,None,,,,,,,,,,,,,,,,,,,,,,,,,,,,,,46,001,2023_Apr_19_1135,ExactRep-v3-final,2021.2.3,59.91270717658033,
,,,,,,,,21,0,21,0,,,,,,,,,,,,,,,,,,,,,,,,,,,,,,,,,,,,,,,,,,,,,,,,,,,,,489.7363490005955,None,,,,,,,,,,,,,,,,,,,,,,,,,,,,,,,,,,,speech,109,22,aloud,blue,487.7214331002906,None,None,487.7214331002906,None,,,,,,,,,,,,,,,,,,,,,,,,,,,,,,46,001,2023_Apr_19_1135,ExactRep-v3-final,2021.2.3,59.91270717658033,
,,,,,,,,22,0,22,0,,,,,,,,,,,,,,,,,,,,,,,,,,,,,,,,,,,,,,,,,,,,,,,,,,,,,492.238663200289,None,,,,,,,,,,,,,,,,,,,,,,,,,,,,,,,,,,,woods,48,23,silent,white,490.23782890010625,None,None,490.23782890010625,None,,,,,,,,,,,,,,,,,,,,,,,,,,,,,,46,001,2023_Apr_19_1135,ExactRep-v3-final,2021.2.3,59.91270717658033,
,,,,,,,,23,0,23,0,,,,,,,,,,,,,,,,,,,,,,,,,,,,,,,,,,,,,,,,,,,,,,,,,,,,,494.7414951007813,None,,,,,,,,,,,,,,,,,,,,,,,,,,,,,,,,,,,lip,43,24,silent,white,492.7392585007474,None,None,492.7392585007474,None,,,,,,,,,,,,,,,,,,,,,,,,,,,,,,46,001,2023_Apr_19_1135,ExactRep-v3-final,2021.2.3,59.91270717658033,
,,,,,,,,24,0,24,0,,,,,,,,,,,,,,,,,,,,,,,,,,,,,,,,,,,,,,,,,,,,,,,,,,,,,497.2606468005106,None,,,,,,,,,,,,,,,,,,,,,,,,,,,,,,,,,,,flood,75,25,silent,white,495.2464576000348,None,None,495.2464576000348,None,,,,,,,,,,,,,,,,,,,,,,,,,,,,,,46,001,2023_Apr_19_1135,ExactRep-v3-final,2021.2.3,59.91270717658033,
,,,,,,,,25,0,25,0,,,,,,,,,,,,,,,,,,,,,,,,,,,,,,,,,,,,,,,,,,,,,,,,,,,,,499.76292950008065,None,,,,,,,,,,,,,,,,,,,,,,,,,,,,,,,,,,,cattle,117,26,aloud,blue,497.7624532999471,None,None,497.7624532999471,None,,,,,,,,,,,,,,,,,,,,,,,,,,,,,,46,001,2023_Apr_19_1135,ExactRep-v3-final,2021.2.3,59.91270717658033,
,,,,,,,,26,0,26,0,,,,,,,,,,,,,,,,,,,,,,,,,,,,,,,,,,,,,,,,,,,,,,,,,,,,,502.26560140028596,None,,,,,,,,,,,,,,,,,,,,,,,,,,,,,,,,,,,string,27,27,sing,red,500.2647876003757,None,None,500.2647876003757,None,,,,,,,,,,,,,,,,,,,,,,,,,,,,,,46,001,2023_Apr_19_1135,ExactRep-v3-final,2021.2.3,59.91270717658033,
,,,,,,,,27,0,27,0,,,,,,,,,,,,,,,,,,,,,,,,,,,,,,,,,,,,,,,,,,,,,,,,,,,,,504.7848064005375,None,,,,,,,,,,,,,,,,,,,,,,,,,,,,,,,,,,,flag,32,28,sing,red,502.77396750077605,None,None,502.77396750077605,None,,,,,,,,,,,,,,,,,,,,,,,,,,,,,,46,001,2023_Apr_19_1135,ExactRep-v3-final,2021.2.3,59.91270717658033,
,,,,,,,,28,0,28,0,,,,,,,,,,,,,,,,,,,,,,,,,,,,,,,,,,,,,,,,,,,,,,,,,,,,,507.287138200365,None,,,,,,,,,,,,,,,,,,,,,,,,,,,,,,,,,,,charm,36,29,sing,red,505.28514350019395,None,None,505.28514350019395,None,,,,,,,,,,,,,,,,,,,,,,,,,,,,,,46,001,2023_Apr_19_1135,ExactRep-v3-final,2021.2.3,59.91270717658033,
,,,,,,,,29,0,29,0,,,,,,,,,,,,,,,,,,,,,,,,,,,,,,,,,,,,,,,,,,,,,,,,,,,,,509.8063561003655,None,,,,,,,,,,,,,,,,,,,,,,,,,,,,,,,,,,,spirit,63,30,silent,white,507.7973576001823,None,None,507.7973576001823,None,,,,,,,,,,,,,,,,,,,,,,,,,,,,,,46,001,2023_Apr_19_1135,ExactRep-v3-final,2021.2.3,59.91270717658033,
,,,,,,,,30,0,30,0,,,,,,,,,,,,,,,,,,,,,,,,,,,,,,,,,,,,,,,,,,,,,,,,,,,,,512.3256910005584,None,,,,,,,,,,,,,,,,,,,,,,,,,,,,,,,,,,,steam,31,31,sing,red,510.31033140048385,None,None,510.31033140048385,None,,,,,,,,,,,,,,,,,,,,,,,,,,,,,,46,001,2023_Apr_19_1135,ExactRep-v3-final,2021.2.3,59.91270717658033,
,,,,,,,,31,0,31,0,,,,,,,,,,,,,,,,,,,,,,,,,,,,,,,,,,,,,,,,,,,,,,,,,,,,,514.8447088003159,None,,,,,,,,,,,,,,,,,,,,,,,,,,,,,,,,,,,pipe,67,32,silent,white,512.8291225004941,None,None,512.8291225004941,None,,,,,,,,,,,,,,,,,,,,,,,,,,,,,,46,001,2023_Apr_19_1135,ExactRep-v3-final,2021.2.3,59.91270717658033,
,,,,,,,,32,0,32,0,,,,,,,,,,,,,,,,,,,,,,,,,,,,,,,,,,,,,,,,,,,,,,,,,,,,,517.3471714006737,None,,,,,,,,,,,,,,,,,,,,,,,,,,,,,,,,,,,weapon,87,33,aloud,blue,515.3450534008443,None,None,515.3450534008443,None,,,,,,,,,,,,,,,,,,,,,,,,,,,,,,46,001,2023_Apr_19_1135,ExactRep-v3-final,2021.2.3,59.91270717658033,
,,,,,,,,33,0,33,0,,,,,,,,,,,,,,,,,,,,,,,,,,,,,,,,,,,,,,,,,,,,,,,,,,,,,519.8665714003146,None,,,,,,,,,,,,,,,,,,,,,,,,,,,,,,,,,,,dollar,23,34,sing,red,517.8510132003576,None,None,517.8510132003576,None,,,,,,,,,,,,,,,,,,,,,,,,,,,,,,46,001,2023_Apr_19_1135,ExactRep-v3-final,2021.2.3,59.91270717658033,
,,,,,,,,34,0,34,0,,,,,,,,,,,,,,,,,,,,,,,,,,,,,,,,,,,,,,,,,,,,,,,,,,,,,522.3688093004748,None,,,,,,,,,,,,,,,,,,,,,,,,,,,,,,,,,,,life,20,35,sing,red,520.3670776002109,None,None,520.3670776002109,None,,,,,,,,,,,,,,,,,,,,,,,,,,,,,,46,001,2023_Apr_19_1135,ExactRep-v3-final,2021.2.3,59.91270717658033,
,,,,,,,,35,0,35,0,,,,,,,,,,,,,,,,,,,,,,,,,,,,,,,,,,,,,,,,,,,,,,,,,,,,,524.8715853001922,None,,,,,,,,,,,,,,,,,,,,,,,,,,,,,,,,,,,market,14,36,sing,red,522.8724772008136,None,None,522.8724772008136,None,,,,,,,,,,,,,,,,,,,,,,,,,,,,,,46,001,2023_Apr_19_1135,ExactRep-v3-final,2021.2.3,59.91270717658033,
,,,,,,,,36,0,36,0,,,,,,,,,,,,,,,,,,,,,,,,,,,,,,,,,,,,,,,,,,,,,,,,,,,,,527.3739561000839,None,,,,,,,,,,,,,,,,,,,,,,,,,,,,,,,,,,,hour,97,37,aloud,blue,525.3740921001881,None,None,525.3740921001881,None,,,,,,,,,,,,,,,,,,,,,,,,,,,,,,46,001,2023_Apr_19_1135,ExactRep-v3-final,2021.2.3,59.91270717658033,
,,,,,,,,37,0,37,0,,,,,,,,,,,,,,,,,,,,,,,,,,,,,,,,,,,,,,,,,,,,,,,,,,,,,529.8932432001457,None,,,,,,,,,,,,,,,,,,,,,,,,,,,,,,,,,,,temple,18,38,sing,red,527.8775571007282,None,None,527.8775571007282,None,,,,,,,,,,,,,,,,,,,,,,,,,,,,,,46,001,2023_Apr_19_1135,ExactRep-v3-final,2021.2.3,59.91270717658033,
,,,,,,,,38,0,38,0,,,,,,,,,,,,,,,,,,,,,,,,,,,,,,,,,,,,,,,,,,,,,,,,,,,,,532.3957696007565,None,,,,,,,,,,,,,,,,,,,,,,,,,,,,,,,,,,,bar,110,39,aloud,blue,530.3937611002475,None,None,530.3937611002475,None,,,,,,,,,,,,,,,,,,,,,,,,,,,,,,46,001,2023_Apr_19_1135,ExactRep-v3-final,2021.2.3,59.91270717658033,
,,,,,,,,39,0,39,0,,,,,,,,,,,,,,,,,,,,,,,,,,,,,,,,,,,,,,,,,,,,,,,,,,,,,534.9150073006749,None,,,,,,,,,,,,,,,,,,,,,,,,,,,,,,,,,,,soul,99,40,aloud,blue,532.9004356004298,None,None,532.9004356004298,None,,,,,,,,,,,,,,,,,,,,,,,,,,,,,,46,001,2023_Apr_19_1135,ExactRep-v3-final,2021.2.3,59.91270717658033,
,,,,,,,,40,0,40,0,,,,,,,,,,,,,,,,,,,,,,,,,,,,,,,,,,,,,,,,,,,,,,,,,,,,,537.417611900717,None,,,,,,,,,,,,,,,,,,,,,,,,,,,,,,,,,,,money,98,41,aloud,blue,535.4153472008184,None,None,535.4153472008184,None,,,,,,,,,,,,,,,,,,,,,,,,,,,,,,46,001,2023_Apr_19_1135,ExactRep-v3-final,2021.2.3,59.91270717658033,
,,,,,,,,41,0,41,0,,,,,,,,,,,,,,,,,,,,,,,,,,,,,,,,,,,,,,,,,,,,,,,,,,,,,539.9200461003929,None,,,,,,,,,,,,,,,,,,,,,,,,,,,,,,,,,,,coin,114,42,aloud,blue,537.9201430007815,None,None,537.9201430007815,None,,,,,,,,,,,,,,,,,,,,,,,,,,,,,,46,001,2023_Apr_19_1135,ExactRep-v3-final,2021.2.3,59.91270717658033,
,,,,,,,,42,0,42,0,,,,,,,,,,,,,,,,,,,,,,,,,,,,,,,,,,,,,,,,,,,,,,,,,,,,,542.4391474006698,None,,,,,,,,,,,,,,,,,,,,,,,,,,,,,,,,,,,product,16,43,sing,red,540.4257346000522,None,None,540.4257346000522,None,,,,,,,,,,,,,,,,,,,,,,,,,,,,,,46,001,2023_Apr_19_1135,ExactRep-v3-final,2021.2.3,59.91270717658033,
,,,,,,,,43,0,43,0,,,,,,,,,,,,,,,,,,,,,,,,,,,,,,,,,,,,,,,,,,,,,,,,,,,,,544.9503615004942,None,,,,,,,,,,,,,,,,,,,,,,,,,,,,,,,,,,,murder,95,44,aloud,blue,542.9408468008041,None,None,542.9408468008041,None,,,,,,,,,,,,,,,,,,,,,,,,,,,,,,46,001,2023_Apr_19_1135,ExactRep-v3-final,2021.2.3,59.91270717658033,
,,,,,,,,44,0,44,0,,,,,,,,,,,,,,,,,,,,,,,,,,,,,,,,,,,,,,,,,,,,,,,,,,,,,547.4608558006585,None,,,,,,,,,,,,,,,,,,,,,,,,,,,,,,,,,,,fault,72,45,silent,white,545.4585329005495,None,None,545.4585329005495,None,,,,,,,,,,,,,,,,,,,,,,,,,,,,,,46,001,2023_Apr_19_1135,ExactRep-v3-final,2021.2.3,59.91270717658033,
,,,,,,,,45,0,45,0,,,,,,,,,,,,,,,,,,,,,,,,,,,,,,,,,,,,,,,,,,,,,,,,,,,,,549.980005800724,None,,,,,,,,,,,,,,,,,,,,,,,,,,,,,,,,,,,advice,21,46,sing,red,547.9666612008587,None,None,547.9666612008587,None,,,,,,,,,,,,,,,,,,,,,,,,,,,,,,46,001,2023_Apr_19_1135,ExactRep-v3-final,2021.2.3,59.91270717658033,
,,,,,,,,46,0,46,0,,,,,,,,,,,,,,,,,,,,,,,,,,,,,,,,,,,,,,,,,,,,,,,,,,,,,552.4923964003101,None,,,,,,,,,,,,,,,,,,,,,,,,,,,,,,,,,,,green,86,47,aloud,blue,550.4817310003564,None,None,550.4817310003564,None,,,,,,,,,,,,,,,,,,,,,,,,,,,,,,46,001,2023_Apr_19_1135,ExactRep-v3-final,2021.2.3,59.91270717658033,
,,,,,,,,47,0,47,0,,,,,,,,,,,,,,,,,,,,,,,,,,,,,,,,,,,,,,,,,,,,,,,,,,,,,555.0017233006656,None,,,,,,,,,,,,,,,,,,,,,,,,,,,,,,,,,,,soil,59,48,silent,white,552.9996564006433,None,None,552.9996564006433,None,,,,,,,,,,,,,,,,,,,,,,,,,,,,,,46,001,2023_Apr_19_1135,ExactRep-v3-final,2021.2.3,59.91270717658033,
,,,,,,,,48,0,48,0,,,,,,,,,,,,,,,,,,,,,,,,,,,,,,,,,,,,,,,,,,,,,,,,,,,,,557.5040518008173,None,,,,,,,,,,,,,,,,,,,,,,,,,,,,,,,,,,,sea,9,49,sing,red,555.5048168003559,None,None,555.5048168003559,None,,,,,,,,,,,,,,,,,,,,,,,,,,,,,,46,001,2023_Apr_19_1135,ExactRep-v3-final,2021.2.3,59.91270717658033,
,,,,,,,,49,0,49,0,,,,,,,,,,,,,,,,,,,,,,,,,,,,,,,,,,,,,,,,,,,,,,,,,,,,,560.0068032005802,None,,,,,,,,,,,,,,,,,,,,,,,,,,,,,,,,,,,journal,60,50,silent,white,558.0072802007198,None,None,558.0072802007198,None,,,,,,,,,,,,,,,,,,,,,,,,,,,,,,46,001,2023_Apr_19_1135,ExactRep-v3-final,2021.2.3,59.91270717658033,
,,,,,,,,50,0,50,0,,,,,,,,,,,,,,,,,,,,,,,,,,,,,,,,,,,,,,,,,,,,,,,,,,,,,562.5098969005048,None,,,,,,,,,,,,,,,,,,,,,,,,,,,,,,,,,,,machine,30,51,sing,red,560.5072440002114,None,None,560.5072440002114,None,,,,,,,,,,,,,,,,,,,,,,,,,,,,,,46,001,2023_Apr_19_1135,ExactRep-v3-final,2021.2.3,59.91270717658033,
,,,,,,,,51,0,51,0,,,,,,,,,,,,,,,,,,,,,,,,,,,,,,,,,,,,,,,,,,,,,,,,,,,,,565.0118457004428,None,,,,,,,,,,,,,,,,,,,,,,,,,,,,,,,,,,,cabin,80,52,aloud,blue,563.0115740001202,None,None,563.0115740001202,None,,,,,,,,,,,,,,,,,,,,,,,,,,,,,,46,001,2023_Apr_19_1135,ExactRep-v3-final,2021.2.3,59.91270717658033,
,,,,,,,,52,0,52,0,,,,,,,,,,,,,,,,,,,,,,,,,,,,,,,,,,,,,,,,,,,,,,,,,,,,,567.5140433004126,None,,,,,,,,,,,,,,,,,,,,,,,,,,,,,,,,,,,coffee,116,53,aloud,blue,565.5122659001499,None,None,565.5122659001499,None,,,,,,,,,,,,,,,,,,,,,,,,,,,,,,46,001,2023_Apr_19_1135,ExactRep-v3-final,2021.2.3,59.91270717658033,
,,,,,,,,53,0,53,0,,,,,,,,,,,,,,,,,,,,,,,,,,,,,,,,,,,,,,,,,,,,,,,,,,,,,570.0332804005593,None,,,,,,,,,,,,,,,,,,,,,,,,,,,,,,,,,,,nail,42,54,silent,white,568.0234365006909,None,None,568.0234365006909,None,,,,,,,,,,,,,,,,,,,,,,,,,,,,,,46,001,2023_Apr_19_1135,ExactRep-v3-final,2021.2.3,59.91270717658033,
,,,,,,,,54,0,54,0,,,,,,,,,,,,,,,,,,,,,,,,,,,,,,,,,,,,,,,,,,,,,,,,,,,,,572.5525807002559,None,,,,,,,,,,,,,,,,,,,,,,,,,,,,,,,,,,,dream,35,55,sing,red,570.5402246005833,None,None,570.5402246005833,None,,,,,,,,,,,,,,,,,,,,,,,,,,,,,,46,001,2023_Apr_19_1135,ExactRep-v3-final,2021.2.3,59.91270717658033,
,,,,,,,,55,0,55,0,,,,,,,,,,,,,,,,,,,,,,,,,,,,,,,,,,,,,,,,,,,,,,,,,,,,,575.0550673007965,None,,,,,,,,,,,,,,,,,,,,,,,,,,,,,,,,,,,animal,58,56,silent,white,573.0531232003123,None,None,573.0531232003123,None,,,,,,,,,,,,,,,,,,,,,,,,,,,,,,46,001,2023_Apr_19_1135,ExactRep-v3-final,2021.2.3,59.91270717658033,
,,,,,,,,56,0,56,0,,,,,,,,,,,,,,,,,,,,,,,,,,,,,,,,,,,,,,,,,,,,,,,,,,,,,577.557696999982,None,,,,,,,,,,,,,,,,,,,,,,,,,,,,,,,,,,,air,41,57,silent,white,575.5554038006812,None,None,575.5554038006812,None,,,,,,,,,,,,,,,,,,,,,,,,,,,,,,46,001,2023_Apr_19_1135,ExactRep-v3-final,2021.2.3,59.91270717658033,
,,,,,,,,57,0,57,0,,,,,,,,,,,,,,,,,,,,,,,,,,,,,,,,,,,,,,,,,,,,,,,,,,,,,580.060097200796,None,,,,,,,,,,,,,,,,,,,,,,,,,,,,,,,,,,,sky,45,58,silent,white,578.0602319007739,None,None,578.0602319007739,None,,,,,,,,,,,,,,,,,,,,,,,,,,,,,,46,001,2023_Apr_19_1135,ExactRep-v3-final,2021.2.3,59.91270717658033,
,,,,,,,,58,0,58,0,,,,,,,,,,,,,,,,,,,,,,,,,,,,,,,,,,,,,,,,,,,,,,,,,,,,,582.5626614000648,None,,,,,,,,,,,,,,,,,,,,,,,,,,,,,,,,,,,effort,108,59,aloud,blue,580.5604837005958,None,None,580.5604837005958,None,,,,,,,,,,,,,,,,,,,,,,,,,,,,,,46,001,2023_Apr_19_1135,ExactRep-v3-final,2021.2.3,59.91270717658033,
,,,,,,,,59,0,59,0,,,,,,,,,,,,,,,,,,,,,,,,,,,,,,,,,,,,,,,,,,,,,,,,,,,,,585.0817550001666,None,,,,,,,,,,,,,,,,,,,,,,,,,,,,,,,,,,,master,93,60,aloud,blue,583.0674771005288,None,None,583.0674771005288,None,,,,,,,,,,,,,,,,,,,,,,,,,,,,,,46,001,2023_Apr_19_1135,ExactRep-v3-final,2021.2.3,59.91270717658033,
,,,,,,,,60,0,60,0,,,,,,,,,,,,,,,,,,,,,,,,,,,,,,,,,,,,,,,,,,,,,,,,,,,,,587.5842896001413,None,,,,,,,,,,,,,,,,,,,,,,,,,,,,,,,,,,,health,47,61,silent,white,585.5826993007213,None,None,585.5826993007213,None,,,,,,,,,,,,,,,,,,,,,,,,,,,,,,46,001,2023_Apr_19_1135,ExactRep-v3-final,2021.2.3,59.91270717658033,
,,,,,,,,61,0,61,0,,,,,,,,,,,,,,,,,,,,,,,,,,,,,,,,,,,,,,,,,,,,,,,,,,,,,590.0866119004786,None,,,,,,,,,,,,,,,,,,,,,,,,,,,,,,,,,,,arm,92,62,aloud,blue,588.0858165007085,None,None,588.0858165007085,None,,,,,,,,,,,,,,,,,,,,,,,,,,,,,,46,001,2023_Apr_19_1135,ExactRep-v3-final,2021.2.3,59.91270717658033,
,,,,,,,,62,0,62,0,,,,,,,,,,,,,,,,,,,,,,,,,,,,,,,,,,,,,,,,,,,,,,,,,,,,,592.5892607001588,None,,,,,,,,,,,,,,,,,,,,,,,,,,,,,,,,,,,victory,94,63,aloud,blue,590.5888768006116,None,None,590.5888768006116,None,,,,,,,,,,,,,,,,,,,,,,,,,,,,,,46,001,2023_Apr_19_1135,ExactRep-v3-final,2021.2.3,59.91270717658033,
,,,,,,,,63,0,63,0,,,,,,,,,,,,,,,,,,,,,,,,,,,,,,,,,,,,,,,,,,,,,,,,,,,,,595.0918781999499,None,,,,,,,,,,,,,,,,,,,,,,,,,,,,,,,,,,,shadow,15,64,sing,red,593.0922668008134,None,None,593.0922668008134,None,,,,,,,,,,,,,,,,,,,,,,,,,,,,,,46,001,2023_Apr_19_1135,ExactRep-v3-final,2021.2.3,59.91270717658033,
,,,,,,,,64,0,64,0,,,,,,,,,,,,,,,,,,,,,,,,,,,,,,,,,,,,,,,,,,,,,,,,,,,,,597.6110415002331,None,,,,,,,,,,,,,,,,,,,,,,,,,,,,,,,,,,,safety,2,65,sing,red,595.5989885004237,None,None,595.5989885004237,None,,,,,,,,,,,,,,,,,,,,,,,,,,,,,,46,001,2023_Apr_19_1135,ExactRep-v3-final,2021.2.3,59.91270717658033,
,,,,,,,,65,0,65,0,,,,,,,,,,,,,,,,,,,,,,,,,,,,,,,,,,,,,,,,,,,,,,,,,,,,,600.1134531004354,None,,,,,,,,,,,,,,,,,,,,,,,,,,,,,,,,,,,bottle,71,66,silent,white,598.1143093006685,None,None,598.1143093006685,None,,,,,,,,,,,,,,,,,,,,,,,,,,,,,,46,001,2023_Apr_19_1135,ExactRep-v3-final,2021.2.3,59.91270717658033,
,,,,,,,,66,0,66,0,,,,,,,,,,,,,,,,,,,,,,,,,,,,,,,,,,,,,,,,,,,,,,,,,,,,,602.6157582001761,None,,,,,,,,,,,,,,,,,,,,,,,,,,,,,,,,,,,house,37,67,sing,red,600.6153057999909,None,None,600.6153057999909,None,,,,,,,,,,,,,,,,,,,,,,,,,,,,,,46,001,2023_Apr_19_1135,ExactRep-v3-final,2021.2.3,59.91270717658033,
,,,,,,,,67,0,67,0,,,,,,,,,,,,,,,,,,,,,,,,,,,,,,,,,,,,,,,,,,,,,,,,,,,,,605.1185381002724,None,,,,,,,,,,,,,,,,,,,,,,,,,,,,,,,,,,,fire,40,68,silent,white,603.1183462003246,None,None,603.1183462003246,None,,,,,,,,,,,,,,,,,,,,,,,,,,,,,,46,001,2023_Apr_19_1135,ExactRep-v3-final,2021.2.3,59.91270717658033,
,,,,,,,,68,0,68,0,,,,,,,,,,,,,,,,,,,,,,,,,,,,,,,,,,,,,,,,,,,,,,,,,,,,,607.6376654999331,None,,,,,,,,,,,,,,,,,,,,,,,,,,,,,,,,,,,valley,53,69,silent,white,605.6222435999662,None,None,605.6222435999662,None,,,,,,,,,,,,,,,,,,,,,,,,,,,,,,46,001,2023_Apr_19_1135,ExactRep-v3-final,2021.2.3,59.91270717658033,
,,,,,,,,69,0,69,0,,,,,,,,,,,,,,,,,,,,,,,,,,,,,,,,,,,,,,,,,,,,,,,,,,,,,610.1401830008253,None,,,,,,,,,,,,,,,,,,,,,,,,,,,,,,,,,,,party,96,70,aloud,blue,608.138252099976,None,None,608.138252099976,None,,,,,,,,,,,,,,,,,,,,,,,,,,,,,,46,001,2023_Apr_19_1135,ExactRep-v3-final,2021.2.3,59.91270717658033,
,,,,,,,,70,0,70,0,,,,,,,,,,,,,,,,,,,,,,,,,,,,,,,,,,,,,,,,,,,,,,,,,,,,,612.6591282002628,None,,,,,,,,,,,,,,,,,,,,,,,,,,,,,,,,,,,table,5,71,sing,red,610.6436458006501,None,None,610.6436458006501,None,,,,,,,,,,,,,,,,,,,,,,,,,,,,,,46,001,2023_Apr_19_1135,ExactRep-v3-final,2021.2.3,59.91270717658033,
,,,,,,,,71,0,71,0,,,,,,,,,,,,,,,,,,,,,,,,,,,,,,,,,,,,,,,,,,,,,,,,,,,,,615.1785985007882,None,,,,,,,,,,,,,,,,,,,,,,,,,,,,,,,,,,,teacher,113,72,aloud,blue,613.1671821000054,None,None,613.1671821000054,None,,,,,,,,,,,,,,,,,,,,,,,,,,,,,,46,001,2023_Apr_19_1135,ExactRep-v3-final,2021.2.3,59.91270717658033,
,,,,,,,,72,0,72,0,,,,,,,,,,,,,,,,,,,,,,,,,,,,,,,,,,,,,,,,,,,,,,,,,,,,,617.6810917006806,None,,,,,,,,,,,,,,,,,,,,,,,,,,,,,,,,,,,prison,34,73,sing,red,615.6787411002442,None,None,615.6787411002442,None,,,,,,,,,,,,,,,,,,,,,,,,,,,,,,46,001,2023_Apr_19_1135,ExactRep-v3-final,2021.2.3,59.91270717658033,
,,,,,,,,73,0,73,0,,,,,,,,,,,,,,,,,,,,,,,,,,,,,,,,,,,,,,,,,,,,,,,,,,,,,620.2002195008099,None,,,,,,,,,,,,,,,,,,,,,,,,,,,,,,,,,,,doll,106,74,aloud,blue,618.1859113005921,None,None,618.1859113005921,None,,,,,,,,,,,,,,,,,,,,,,,,,,,,,,46,001,2023_Apr_19_1135,ExactRep-v3-final,2021.2.3,59.91270717658033,
,,,,,,,,74,0,74,0,,,,,,,,,,,,,,,,,,,,,,,,,,,,,,,,,,,,,,,,,,,,,,,,,,,,,622.7027440005913,None,,,,,,,,,,,,,,,,,,,,,,,,,,,,,,,,,,,glory,22,75,sing,red,620.7015373008326,None,None,620.7015373008326,None,,,,,,,,,,,,,,,,,,,,,,,,,,,,,,46,001,2023_Apr_19_1135,ExactRep-v3-final,2021.2.3,59.91270717658033,
,,,,,,,,75,0,75,0,,,,,,,,,,,,,,,,,,,,,,,,,,,,,,,,,,,,,,,,,,,,,,,,,,,,,625.2219275999814,None,,,,,,,,,,,,,,,,,,,,,,,,,,,,,,,,,,,queen,89,76,aloud,blue,623.2096147006378,None,None,623.2096147006378,None,,,,,,,,,,,,,,,,,,,,,,,,,,,,,,46,001,2023_Apr_19_1135,ExactRep-v3-final,2021.2.3,59.91270717658033,
,,,,,,,,76,0,76,0,,,,,,,,,,,,,,,,,,,,,,,,,,,,,,,,,,,,,,,,,,,,,,,,,,,,,627.7243552003056,None,,,,,,,,,,,,,,,,,,,,,,,,,,,,,,,,,,,crime,19,77,sing,red,625.7225027000532,None,None,625.7225027000532,None,,,,,,,,,,,,,,,,,,,,,,,,,,,,,,46,001,2023_Apr_19_1135,ExactRep-v3-final,2021.2.3,59.91270717658033,
,,,,,,,,77,0,77,0,,,,,,,,,,,,,,,,,,,,,,,,,,,,,,,,,,,,,,,,,,,,,,,,,,,,,630.2483831001446,None,,,,,,,,,,,,,,,,,,,,,,,,,,,,,,,,,,,colony,115,78,aloud,blue,628.2293266002089,None,None,628.2293266002089,None,,,,,,,,,,,,,,,,,,,,,,,,,,,,,,46,001,2023_Apr_19_1135,ExactRep-v3-final,2021.2.3,59.91270717658033,
,,,,,,,,78,0,78,0,,,,,,,,,,,,,,,,,,,,,,,,,,,,,,,,,,,,,,,,,,,,,,,,,,,,,632.7655596006662,None,,,,,,,,,,,,,,,,,,,,,,,,,,,,,,,,,,,seat,104,79,aloud,blue,630.7518228003755,None,None,630.7518228003755,None,,,,,,,,,,,,,,,,,,,,,,,,,,,,,,46,001,2023_Apr_19_1135,ExactRep-v3-final,2021.2.3,59.91270717658033,
,,,,,,,,79,0,79,0,,,,,,,,,,,,,,,,,,,,,,,,,,,,,,,,,,,,,,,,,,,,,,,,,,,,,635.2818476008251,None,,,,,,,,,,,,,,,,,,,,,,,,,,,,,,,,,,,origin,10,80,sing,red,633.2697544004768,None,None,633.2697544004768,None,,,,,,,,,,,,,,,,,,,,,,,,,,,,,,46,001,2023_Apr_19_1135,ExactRep-v3-final,2021.2.3,59.91270717658033,
,,,,,,,,80,0,80,0,,,,,,,,,,,,,,,,,,,,,,,,,,,,,,,,,,,,,,,,,,,,,,,,,,,,,637.7846185006201,None,,,,,,,,,,,,,,,,,,,,,,,,,,,,,,,,,,,stone,69,81,silent,white,635.782487500459,None,None,635.782487500459,None,,,,,,,,,,,,,,,,,,,,,,,,,,,,,,46,001,2023_Apr_19_1135,ExactRep-v3-final,2021.2.3,59.91270717658033,
,,,,,,,,81,0,81,0,,,,,,,,,,,,,,,,,,,,,,,,,,,,,,,,,,,,,,,,,,,,,,,,,,,,,640.2869841000065,None,,,,,,,,,,,,,,,,,,,,,,,,,,,,,,,,,,,judge,1,82,sing,red,638.2856397004798,None,None,638.2856397004798,None,,,,,,,,,,,,,,,,,,,,,,,,,,,,,,46,001,2023_Apr_19_1135,ExactRep-v3-final,2021.2.3,59.91270717658033,
,,,,,,,,82,0,82,0,,,,,,,,,,,,,,,,,,,,,,,,,,,,,,,,,,,,,,,,,,,,,,,,,,,,,642.7895246008411,None,,,,,,,,,,,,,,,,,,,,,,,,,,,,,,,,,,,event,119,83,aloud,blue,640.7899115001783,None,None,640.7899115001783,None,,,,,,,,,,,,,,,,,,,,,,,,,,,,,,46,001,2023_Apr_19_1135,ExactRep-v3-final,2021.2.3,59.91270717658033,
,,,,,,,,83,0,83,0,,,,,,,,,,,,,,,,,,,,,,,,,,,,,,,,,,,,,,,,,,,,,,,,,,,,,645.3089263001457,None,,,,,,,,,,,,,,,,,,,,,,,,,,,,,,,,,,,plant,85,84,aloud,blue,643.2973803002387,None,None,643.2973803002387,None,,,,,,,,,,,,,,,,,,,,,,,,,,,,,,46,001,2023_Apr_19_1135,ExactRep-v3-final,2021.2.3,59.91270717658033,
,,,,,,,,84,0,84,0,,,,,,,,,,,,,,,,,,,,,,,,,,,,,,,,,,,,,,,,,,,,,,,,,,,,,647.8111933004111,None,,,,,,,,,,,,,,,,,,,,,,,,,,,,,,,,,,,horse,65,85,silent,white,645.81079780031,None,None,645.81079780031,None,,,,,,,,,,,,,,,,,,,,,,,,,,,,,,46,001,2023_Apr_19_1135,ExactRep-v3-final,2021.2.3,59.91270717658033,
,,,,,,,,85,0,85,0,,,,,,,,,,,,,,,,,,,,,,,,,,,,,,,,,,,,,,,,,,,,,,,,,,,,,650.3302219007164,None,,,,,,,,,,,,,,,,,,,,,,,,,,,,,,,,,,,plain,50,86,silent,white,648.3157592006028,None,None,648.3157592006028,None,,,,,,,,,,,,,,,,,,,,,,,,,,,,,,46,001,2023_Apr_19_1135,ExactRep-v3-final,2021.2.3,59.91270717658033,
,,,,,,,,86,0,86,0,,,,,,,,,,,,,,,,,,,,,,,,,,,,,,,,,,,,,,,,,,,,,,,,,,,,,652.849563700147,None,,,,,,,,,,,,,,,,,,,,,,,,,,,,,,,,,,,skin,91,87,aloud,blue,650.8366840006784,None,None,650.8366840006784,None,,,,,,,,,,,,,,,,,,,,,,,,,,,,,,46,001,2023_Apr_19_1135,ExactRep-v3-final,2021.2.3,59.91270717658033,
,,,,,,,,87,0,87,0,,,,,,,,,,,,,,,,,,,,,,,,,,,,,,,,,,,,,,,,,,,,,,,,,,,,,655.3520822999999,None,,,,,,,,,,,,,,,,,,,,,,,,,,,,,,,,,,,death,83,88,aloud,blue,653.3523222999647,None,None,653.3523222999647,None,,,,,,,,,,,,,,,,,,,,,,,,,,,,,,46,001,2023_Apr_19_1135,ExactRep-v3-final,2021.2.3,59.91270717658033,
,,,,,,,,88,0,88,0,,,,,,,,,,,,,,,,,,,,,,,,,,,,,,,,,,,,,,,,,,,,,,,,,,,,,657.8712913002819,None,,,,,,,,,,,,,,,,,,,,,,,,,,,,,,,,,,,slave,56,89,silent,white,655.86033050064,None,None,655.86033050064,None,,,,,,,,,,,,,,,,,,,,,,,,,,,,,,46,001,2023_Apr_19_1135,ExactRep-v3-final,2021.2.3,59.91270717658033,
,,,,,,,,89,0,89,0,,,,,,,,,,,,,,,,,,,,,,,,,,,,,,,,,,,,,,,,,,,,,,,,,,,,,660.3734822999686,None,,,,,,,,,,,,,,,,,,,,,,,,,,,,,,,,,,,quality,112,90,aloud,blue,658.3735047001392,None,None,658.3735047001392,None,,,,,,,,,,,,,,,,,,,,,,,,,,,,,,46,001,2023_Apr_19_1135,ExactRep-v3-final,2021.2.3,59.91270717658033,
,,,,,,,,90,0,90,0,,,,,,,,,,,,,,,,,,,,,,,,,,,,,,,,,,,,,,,,,,,,,,,,,,,,,662.8762223999947,None,,,,,,,,,,,,,,,,,,,,,,,,,,,,,,,,,,,factory,29,91,sing,red,660.8755416003987,None,None,660.8755416003987,None,,,,,,,,,,,,,,,,,,,,,,,,,,,,,,46,001,2023_Apr_19_1135,ExactRep-v3-final,2021.2.3,59.91270717658033,
,,,,,,,,91,0,91,0,,,,,,,,,,,,,,,,,,,,,,,,,,,,,,,,,,,,,,,,,,,,,,,,,,,,,665.3954481007531,None,,,,,,,,,,,,,,,,,,,,,,,,,,,,,,,,,,,garden,77,92,silent,white,663.3838170999661,None,None,663.3838170999661,None,,,,,,,,,,,,,,,,,,,,,,,,,,,,,,46,001,2023_Apr_19_1135,ExactRep-v3-final,2021.2.3,59.91270717658033,
,,,,,,,,92,0,92,0,,,,,,,,,,,,,,,,,,,,,,,,,,,,,,,,,,,,,,,,,,,,,,,,,,,,,667.9146541003138,None,,,,,,,,,,,,,,,,,,,,,,,,,,,,,,,,,,,deed,74,93,silent,white,665.9005664000288,None,None,665.9005664000288,None,,,,,,,,,,,,,,,,,,,,,,,,,,,,,,46,001,2023_Apr_19_1135,ExactRep-v3-final,2021.2.3,59.91270717658033,
,,,,,,,,93,0,93,0,,,,,,,,,,,,,,,,,,,,,,,,,,,,,,,,,,,,,,,,,,,,,,,,,,,,,670.433613200672,None,,,,,,,,,,,,,,,,,,,,,,,,,,,,,,,,,,,dawn,28,94,sing,red,668.4217427000403,None,None,668.4217427000403,None,,,,,,,,,,,,,,,,,,,,,,,,,,,,,,46,001,2023_Apr_19_1135,ExactRep-v3-final,2021.2.3,59.91270717658033,
,,,,,,,,94,0,94,0,,,,,,,,,,,,,,,,,,,,,,,,,,,,,,,,,,,,,,,,,,,,,,,,,,,,,672.9530166005716,None,,,,,,,,,,,,,,,,,,,,,,,,,,,,,,,,,,,form,6,95,sing,red,670.9396972004324,None,None,670.9396972004324,None,,,,,,,,,,,,,,,,,,,,,,,,,,,,,,46,001,2023_Apr_19_1135,ExactRep-v3-final,2021.2.3,59.91270717658033,
,,,,,,,,95,0,95,0,,,,,,,,,,,,,,,,,,,,,,,,,,,,,,,,,,,,,,,,,,,,,,,,,,,,,675.4562547001988,None,,,,,,,,,,,,,,,,,,,,,,,,,,,,,,,,,,,science,70,96,silent,white,673.4533008001745,None,None,673.4533008001745,None,,,,,,,,,,,,,,,,,,,,,,,,,,,,,,46,001,2023_Apr_19_1135,ExactRep-v3-final,2021.2.3,59.91270717658033,
,,,,,,,,96,0,96,0,,,,,,,,,,,,,,,,,,,,,,,,,,,,,,,,,,,,,,,,,,,,,,,,,,,,,677.975295400247,None,,,,,,,,,,,,,,,,,,,,,,,,,,,,,,,,,,,chief,44,97,silent,white,675.9653015006334,None,None,675.9653015006334,None,,,,,,,,,,,,,,,,,,,,,,,,,,,,,,46,001,2023_Apr_19_1135,ExactRep-v3-final,2021.2.3,59.91270717658033,
,,,,,,,,97,0,97,0,,,,,,,,,,,,,,,,,,,,,,,,,,,,,,,,,,,,,,,,,,,,,,,,,,,,,680.4772246005014,None,,,,,,,,,,,,,,,,,,,,,,,,,,,,,,,,,,,power,26,98,sing,red,678.47621180024,None,None,678.47621180024,None,,,,,,,,,,,,,,,,,,,,,,,,,,,,,,46,001,2023_Apr_19_1135,ExactRep-v3-final,2021.2.3,59.91270717658033,
,,,,,,,,98,0,98,0,,,,,,,,,,,,,,,,,,,,,,,,,,,,,,,,,,,,,,,,,,,,,,,,,,,,,682.996186000295,None,,,,,,,,,,,,,,,,,,,,,,,,,,,,,,,,,,,car,13,99,sing,red,680.9810404004529,None,None,680.9810404004529,None,,,,,,,,,,,,,,,,,,,,,,,,,,,,,,46,001,2023_Apr_19_1135,ExactRep-v3-final,2021.2.3,59.91270717658033,
,,,,,,,,99,0,99,0,,,,,,,,,,,,,,,,,,,,,,,,,,,,,,,,,,,,,,,,,,,,,,,,,,,,,685.4988515004516,None,,,,,,,,,,,,,,,,,,,,,,,,,,,,,,,,,,,month,78,100,silent,white,683.4967729002237,None,None,683.4967729002237,None,,,,,,,,,,,,,,,,,,,,,,,,,,,,,,46,001,2023_Apr_19_1135,ExactRep-v3-final,2021.2.3,59.91270717658033,
,,,,,,,,100,0,100,0,,,,,,,,,,,,,,,,,,,,,,,,,,,,,,,,,,,,,,,,,,,,,,,,,,,,,688.0180850001052,None,,,,,,,,,,,,,,,,,,,,,,,,,,,,,,,,,,,girl,66,101,silent,white,686.0024855006486,None,None,686.0024855006486,None,,,,,,,,,,,,,,,,,,,,,,,,,,,,,,46,001,2023_Apr_19_1135,ExactRep-v3-final,2021.2.3,59.91270717658033,
,,,,,,,,101,0,101,0,,,,,,,,,,,,,,,,,,,,,,,,,,,,,,,,,,,,,,,,,,,,,,,,,,,,,690.5204141000286,None,,,,,,,,,,,,,,,,,,,,,,,,,,,,,,,,,,,disease,105,102,aloud,blue,688.5193897001445,None,None,688.5193897001445,None,,,,,,,,,,,,,,,,,,,,,,,,,,,,,,46,001,2023_Apr_19_1135,ExactRep-v3-final,2021.2.3,59.91270717658033,
,,,,,,,,102,0,102,0,,,,,,,,,,,,,,,,,,,,,,,,,,,,,,,,,,,,,,,,,,,,,,,,,,,,,693.039814800024,None,,,,,,,,,,,,,,,,,,,,,,,,,,,,,,,,,,,woman,39,103,silent,white,691.0286963004619,None,None,691.0286963004619,None,,,,,,,,,,,,,,,,,,,,,,,,,,,,,,46,001,2023_Apr_19_1135,ExactRep-v3-final,2021.2.3,59.91270717658033,
,,,,,,,,103,0,103,0,,,,,,,,,,,,,,,,,,,,,,,,,,,,,,,,,,,,,,,,,,,,,,,,,,,,,695.5423373002559,None,,,,,,,,,,,,,,,,,,,,,,,,,,,,,,,,,,,student,17,104,sing,red,693.5419701002538,None,None,693.5419701002538,None,,,,,,,,,,,,,,,,,,,,,,,,,,,,,,46,001,2023_Apr_19_1135,ExactRep-v3-final,2021.2.3,59.91270717658033,
,,,,,,,,104,0,104,0,,,,,,,,,,,,,,,,,,,,,,,,,,,,,,,,,,,,,,,,,,,,,,,,,,,,,698.0447959005833,None,,,,,,,,,,,,,,,,,,,,,,,,,,,,,,,,,,,present,102,105,aloud,blue,696.0425301007926,None,None,696.0425301007926,None,,,,,,,,,,,,,,,,,,,,,,,,,,,,,,46,001,2023_Apr_19_1135,ExactRep-v3-final,2021.2.3,59.91270717658033,
,,,,,,,,105,0,105,0,,,,,,,,,,,,,,,,,,,,,,,,,,,,,,,,,,,,,,,,,,,,,,,,,,,,,700.5473757004365,None,,,,,,,,,,,,,,,,,,,,,,,,,,,,,,,,,,,star,38,106,sing,red,698.5451179007068,None,None,698.5451179007068,None,,,,,,,,,,,,,,,,,,,,,,,,,,,,,,46,001,2023_Apr_19_1135,ExactRep-v3-final,2021.2.3,59.91270717658033,
,,,,,,,,106,0,106,0,,,,,,,,,,,,,,,,,,,,,,,,,,,,,,,,,,,,,,,,,,,,,,,,,,,,,703.0497486004606,None,,,,,,,,,,,,,,,,,,,,,,,,,,,,,,,,,,,theory,111,107,aloud,blue,701.0491599999368,None,None,701.0491599999368,None,,,,,,,,,,,,,,,,,,,,,,,,,,,,,,46,001,2023_Apr_19_1135,ExactRep-v3-final,2021.2.3,59.91270717658033,
,,,,,,,,107,0,107,0,,,,,,,,,,,,,,,,,,,,,,,,,,,,,,,,,,,,,,,,,,,,,,,,,,,,,705.552301700227,None,,,,,,,,,,,,,,,,,,,,,,,,,,,,,,,,,,,memory,25,108,sing,red,703.5504832006991,None,None,703.5504832006991,None,,,,,,,,,,,,,,,,,,,,,,,,,,,,,,46,001,2023_Apr_19_1135,ExactRep-v3-final,2021.2.3,59.91270717658033,
,,,,,,,,108,0,108,0,,,,,,,,,,,,,,,,,,,,,,,,,,,,,,,,,,,,,,,,,,,,,,,,,,,,,708.0715063000098,None,,,,,,,,,,,,,,,,,,,,,,,,,,,,,,,,,,,anger,79,109,sing,red,706.0561550008133,None,None,706.0561550008133,None,,,,,,,,,,,,,,,,,,,,,,,,,,,,,,46,001,2023_Apr_19_1135,ExactRep-v3-final,2021.2.3,59.91270717658033,
,,,,,,,,109,0,109,0,,,,,,,,,,,,,,,,,,,,,,,,,,,,,,,,,,,,,,,,,,,,,,,,,,,,,710.5905035007745,None,,,,,,,,,,,,,,,,,,,,,,,,,,,,,,,,,,,meeting,24,110,sing,red,708.5753015000373,None,None,708.5753015000373,None,,,,,,,,,,,,,,,,,,,,,,,,,,,,,,46,001,2023_Apr_19_1135,ExactRep-v3-final,2021.2.3,59.91270717658033,
,,,,,,,,110,0,110,0,,,,,,,,,,,,,,,,,,,,,,,,,,,,,,,,,,,,,,,,,,,,,,,,,,,,,713.0931304004043,None,,,,,,,,,,,,,,,,,,,,,,,,,,,,,,,,,,,moral,107,111,aloud,blue,711.0911205001175,None,None,711.0911205001175,None,,,,,,,,,,,,,,,,,,,,,,,,,,,,,,46,001,2023_Apr_19_1135,ExactRep-v3-final,2021.2.3,59.91270717658033,
,,,,,,,,111,0,111,0,,,,,,,,,,,,,,,,,,,,,,,,,,,,,,,,,,,,,,,,,,,,,,,,,,,,,715.595667200163,None,,,,,,,,,,,,,,,,,,,,,,,,,,,,,,,,,,,square,51,112,silent,white,713.5945636006072,None,None,713.5945636006072,None,,,,,,,,,,,,,,,,,,,,,,,,,,,,,,46,001,2023_Apr_19_1135,ExactRep-v3-final,2021.2.3,59.91270717658033,
,,,,,,,,112,0,112,0,,,,,,,,,,,,,,,,,,,,,,,,,,,,,,,,,,,,,,,,,,,,,,,,,,,,,718.1148573001847,None,,,,,,,,,,,,,,,,,,,,,,,,,,,,,,,,,,,avenue,88,113,aloud,blue,716.099601900205,None,None,716.099601900205,None,,,,,,,,,,,,,,,,,,,,,,,,,,,,,,46,001,2023_Apr_19_1135,ExactRep-v3-final,2021.2.3,59.91270717658033,
,,,,,,,,113,0,113,0,,,,,,,,,,,,,,,,,,,,,,,,,,,,,,,,,,,,,,,,,,,,,,,,,,,,,720.6173371002078,None,,,,,,,,,,,,,,,,,,,,,,,,,,,,,,,,,,,grief,100,114,aloud,blue,718.6163638001308,None,None,718.6163638001308,None,,,,,,,,,,,,,,,,,,,,,,,,,,,,,,46,001,2023_Apr_19_1135,ExactRep-v3-final,2021.2.3,59.91270717658033,
,,,,,,,,114,0,114,0,,,,,,,,,,,,,,,,,,,,,,,,,,,,,,,,,,,,,,,,,,,,,,,,,,,,,723.1366356005892,None,,,,,,,,,,,,,,,,,,,,,,,,,,,,,,,,,,,season,57,115,silent,white,721.1210427004844,None,None,721.1210427004844,None,,,,,,,,,,,,,,,,,,,,,,,,,,,,,,46,001,2023_Apr_19_1135,ExactRep-v3-final,2021.2.3,59.91270717658033,
,,,,,,,,115,0,115,0,,,,,,,,,,,,,,,,,,,,,,,,,,,,,,,,,,,,,,,,,,,,,,,,,,,,,725.6390035999939,None,,,,,,,,,,,,,,,,,,,,,,,,,,,,,,,,,,,priest,64,116,silent,white,723.6391889005899,None,None,723.6391889005899,None,,,,,,,,,,,,,,,,,,,,,,,,,,,,,,46,001,2023_Apr_19_1135,ExactRep-v3-final,2021.2.3,59.91270717658033,
,,,,,,,,116,0,116,0,,,,,,,,,,,,,,,,,,,,,,,,,,,,,,,,,,,,,,,,,,,,,,,,,,,,,728.1416482003406,None,,,,,,,,,,,,,,,,,,,,,,,,,,,,,,,,,,,forest,11,117,sing,red,726.1410304000601,None,None,726.1410304000601,None,,,,,,,,,,,,,,,,,,,,,,,,,,,,,,46,001,2023_Apr_19_1135,ExactRep-v3-final,2021.2.3,59.91270717658033,
,,,,,,,,117,0,117,0,,,,,,,,,,,,,,,,,,,,,,,,,,,,,,,,,,,,,,,,,,,,,,,,,,,,,730.6440088003874,None,,,,,,,,,,,,,,,,,,,,,,,,,,,,,,,,,,,pole,3,118,sing,red,728.644235400483,None,None,728.644235400483,None,,,,,,,,,,,,,,,,,,,,,,,,,,,,,,46,001,2023_Apr_19_1135,ExactRep-v3-final,2021.2.3,59.91270717658033,
,,,,,,,,118,0,118,0,,,,,,,,,,,,,,,,,,,,,,,,,,,,,,,,,,,,,,,,,,,,,,,,,,,,,733.1472257003188,None,,,,,,,,,,,,,,,,,,,,,,,,,,,,,,,,,,,shame,68,119,silent,white,731.145022100769,None,None,731.145022100769,None,,,,,,,,,,,,,,,,,,,,,,,,,,,,,,46,001,2023_Apr_19_1135,ExactRep-v3-final,2021.2.3,59.91270717658033,
,,,,,,,,119,0,119,0,,,,,,,,,,,,,,,,,,,,,,,,,,,,,,,,,,,,,,,,,,,,,,,,,,,,,735.6657757004723,None,,,,,,,,,,,,,,,,,,,,,,,,,,,,,,,,,,,shoes,52,120,silent,white,733.6545764002949,None,None,733.6545764002949,None,,,,,,,,,,,,,,,,,,,,,,,,,,,,,,46,001,2023_Apr_19_1135,ExactRep-v3-final,2021.2.3,59.91270717658033,
,,,,,,,,,,,,,,,,,,,,,,,,,,,,,,,,,,,,,,,,,,,,,,,,,,,,,,,,,,,,,,,,,,,,,,,,,,,,,,,,,,,,,,,,,,,,,,,,,,,,,,,,,,,,,,736.1678210003302,None,space,6.614933599717915,746.1441689999774,None,,,,,,,,,,,,,,,,,,,,,,,,46,001,2023_Apr_19_1135,ExactRep-v3-final,2021.2.3,59.91270717658033,
,,,,,,,,,,,,,,,,,,,,,,,,,,,,,,,,,,,,,,,,,,,,,,,,,,,,,,,,,,,,,,,,,,,,,,,,,,,,,,,,,,,,,,,,,,,,,,,,,,,,,,,,,,,,,,,,,,,,752.7847019005567,None,space,42.598167199641466,762.7608846006915,None,,,,,,,,,,,,,,,,,,46,001,2023_Apr_19_1135,ExactRep-v3-final,2021.2.3,59.91270717658033,
,,,,,,,,,,,,0,0,0,0,,,,,,,,,,,,,,,,,,,,,,,,,,,,,,,,,,,,,,,,,,,,,,,,,809.8063339004293,None,,,,,,,,,,,,,,,,,,,,,,,,,,,,,,,,,,,,,,,,,,,,,,,,,,,,,,,,,square,51,1,silent,old,yellow,805.8926498005167,None,n,805.8926498005167,None,"['n', 'return']","[2.6904378002509475, 3.8661337001249194]",805.8926498005167,None,,,46,001,2023_Apr_19_1135,ExactRep-v3-final,2021.2.3,59.91270717658033,
,,,,,,,,,,,,1,0,1,0,,,,,,,,,,,,,,,,,,,,,,,,,,,,,,,,,,,,,,,,,,,,,,,,,812.3422261001542,None,,,,,,,,,,,,,,,,,,,,,,,,,,,,,,,,,,,,,,,,,,,,,,,,,,,,,,,,,boy,178,2,aloud,new,yellow,810.3231297004968,None,y,810.3231297004968,None,"['y', 'return']","[1.491695599630475, 1.9796778000891209]",810.3231297004968,None,,,46,001,2023_Apr_19_1135,ExactRep-v3-final,2021.2.3,59.91270717658033,
,,,,,,,,,,,,2,0,2,0,,,,,,,,,,,,,,,,,,,,,,,,,,,,,,,,,,,,,,,,,,,,,,,,,814.294170900248,None,,,,,,,,,,,,,,,,,,,,,,,,,,,,,,,,,,,,,,,,,,,,,,,,,,,,,,,,,priest,64,3,silent,old,yellow,812.8489570003003,None,y,812.8489570003003,None,"['y', 'return']","[0.9820769000798464, 1.4139067996293306]",812.8489570003003,None,,,46,001,2023_Apr_19_1135,ExactRep-v3-final,2021.2.3,59.91270717658033,
,,,,,,,,,,,,3,0,3,0,,,,,,,,,,,,,,,,,,,,,,,,,,,,,,,,,,,,,,,,,,,,,,,,,818.6651736004278,None,,,,,,,,,,,,,,,,,,,,,,,,,,,,,,,,,,,,,,,,,,,,,,,,,,,,,,,,,toy,234,4,aloud,new,yellow,814.8012856999412,None,n,814.8012856999412,None,"['n', 'return']","[3.3895560996606946, 3.8295221999287605]",814.8012856999412,None,,,46,001,2023_Apr_19_1135,ExactRep-v3-final,2021.2.3,59.91270717658033,
,,,,,,,,,,,,4,0,4,0,,,,,,,,,,,,,,,,,,,,,,,,,,,,,,,,,,,,,,,,,,,,,,,,,820.7004869002849,None,,,,,,,,,,,,,,,,,,,,,,,,,,,,,,,,,,,,,,,,,,,,,,,,,,,,,,,,,bottle,71,5,silent,old,yellow,819.1780467005447,None,n,819.1780467005447,None,"['n', 'return']","[1.1008769003674388, 1.4847947005182505]",819.1780467005447,None,,,46,001,2023_Apr_19_1135,ExactRep-v3-final,2021.2.3,59.91270717658033,
,,,,,,,,,,,,5,0,5,0,,,,,,,,,,,,,,,,,,,,,,,,,,,,,,,,,,,,,,,,,,,,,,,,,823.0362243000418,None,,,,,,,,,,,,,,,,,,,,,,,,,,,,,,,,,,,,,,,,,,,,,,,,,,,,,,,,,library,154,6,silent,new,yellow,821.2185149006546,None,n,821.2185149006546,None,"['n', 'return']","[1.4282975001260638, 1.780336500145495]",821.2185149006546,None,,,46,001,2023_Apr_19_1135,ExactRep-v3-final,2021.2.3,59.91270717658033,
,,,,,,,,,,,,6,0,6,0,,,,,,,,,,,,,,,,,,,,,,,,,,,,,,,,,,,,,,,,,,,,,,,,,825.6723237000406,None,,,,,,,,,,,,,,,,,,,,,,,,,,,,,,,,,,,,,,,,,,,,,,,,,,,,,,,,,student,17,7,sing,old,yellow,823.5577459000051,None,y,823.5577459000051,None,"['y', 'return']","[1.7609080001711845, 2.0730613004416227]",823.5577459000051,None,,,46,001,2023_Apr_19_1135,ExactRep-v3-final,2021.2.3,59.91270717658033,
,,,,,,,,,,,,7,0,7,0,,,,,,,,,,,,,,,,,,,,,,,,,,,,,,,,,,,,,,,,,,,,,,,,,827.7909632008523,None,,,,,,,,,,,,,,,,,,,,,,,,,,,,,,,,,,,,,,,,,,,,,,,,,,,,,,,,,breast,126,8,silent,new,yellow,826.1761030005291,None,n,826.1761030005291,None,"['n', 'return']","[1.3188596004620194, 1.5667484998703003]",826.1761030005291,None,,,46,001,2023_Apr_19_1135,ExactRep-v3-final,2021.2.3,59.91270717658033,
,,,,,,,,,,,,8,0,8,0,,,,,,,,,,,,,,,,,,,,,,,,,,,,,,,,,,,,,,,,,,,,,,,,,830.5938441008329,None,,,,,,,,,,,,,,,,,,,,,,,,,,,,,,,,,,,,,,,,,,,,,,,,,,,,,,,,,owner,194,9,aloud,new,yellow,828.3022947004065,None,n,828.3022947004065,None,"['n', 'return']","[1.8564602993428707, 2.2564868992194533]",828.3022947004065,None,,,46,001,2023_Apr_19_1135,ExactRep-v3-final,2021.2.3,59.91270717658033,
,,,,,,,,,,,,9,0,9,0,,,,,,,,,,,,,,,,,,,,,,,,,,,,,,,,,,,,,,,,,,,,,,,,,832.9795479001477,None,,,,,,,,,,,,,,,,,,,,,,,,,,,,,,,,,,,,,,,,,,,,,,,,,,,,,,,,,shadow,15,10,sing,old,yellow,831.1037443000823,None,y,831.1037443000823,None,"['y', 'return']","[1.4710408002138138, 1.8391517996788025]",831.1037443000823,None,,,46,001,2023_Apr_19_1135,ExactRep-v3-final,2021.2.3,59.91270717658033,
,,,,,,,,,,,,10,0,10,0,,,,,,,,,,,,,,,,,,,,,,,,,,,,,,,,,,,,,,,,,,,,,,,,,834.8814526004717,None,,,,,,,,,,,,,,,,,,,,,,,,,,,,,,,,,,,,,,,,,,,,,,,,,,,,,,,,,flower,180,11,aloud,new,yellow,833.4892917005345,None,n,833.4892917005345,None,"['n', 'return']","[0.9816589998081326, 1.3574612997472286]",833.4892917005345,None,,,46,001,2023_Apr_19_1135,ExactRep-v3-final,2021.2.3,59.91270717658033,
,,,,,,,,,,,,11,0,11,0,,,,,,,,,,,,,,,,,,,,,,,,,,,,,,,,,,,,,,,,,,,,,,,,,837.7678065001965,None,,,,,,,,,,,,,,,,,,,,,,,,,,,,,,,,,,,,,,,,,,,,,,,,,,,,,,,,,chair,237,12,sing,new,yellow,835.3902286002412,None,n,835.3902286002412,None,"['n', 'return']","[2.0647090999409556, 2.3445715000852942]",835.3902286002412,None,,,46,001,2023_Apr_19_1135,ExactRep-v3-final,2021.2.3,59.91270717658033,
,,,,,,,,,,,,12,0,12,0,,,,,,,,,,,,,,,,,,,,,,,,,,,,,,,,,,,,,,,,,,,,,,,,,839.6863266006112,None,,,,,,,,,,,,,,,,,,,,,,,,,,,,,,,,,,,,,,,,,,,,,,,,,,,,,,,,,party,96,13,aloud,old,yellow,838.2774604000151,None,y,838.2774604000151,None,"['y', 'return']","[1.033360599540174, 1.3614282999187708]",838.2774604000151,None,,,46,001,2023_Apr_19_1135,ExactRep-v3-final,2021.2.3,59.91270717658033,
,,,,,,,,,,,,13,0,13,0,,,,,,,,,,,,,,,,,,,,,,,,,,,,,,,,,,,,,,,,,,,,,,,,,845.0916639007628,None,,,,,,,,,,,,,,,,,,,,,,,,,,,,,,,,,,,,,,,,,,,,,,,,,,,,,,,,,silence,90,14,aloud,old,yellow,840.1989157004282,None,y,840.1989157004282,None,"['y', 'return']","[4.543890600092709, 4.8559868996962905]",840.1989157004282,None,,,46,001,2023_Apr_19_1135,ExactRep-v3-final,2021.2.3,59.91270717658033,
,,,,,,,,,,,,14,0,14,0,,,,,,,,,,,,,,,,,,,,,,,,,,,,,,,,,,,,,,,,,,,,,,,,,846.8600827008486,None,,,,,,,,,,,,,,,,,,,,,,,,,,,,,,,,,,,,,,,,,,,,,,,,,,,,,,,,,tool,153,15,silent,new,yellow,845.6006746003404,None,n,845.6006746003404,None,"['n', 'return']","[0.8941997000947595, 1.2222086004912853]",845.6006746003404,None,,,46,001,2023_Apr_19_1135,ExactRep-v3-final,2021.2.3,59.91270717658033,
,,,,,,,,,,,,15,0,15,0,,,,,,,,,,,,,,,,,,,,,,,,,,,,,,,,,,,,,,,,,,,,,,,,,848.7619906002656,None,,,,,,,,,,,,,,,,,,,,,,,,,,,,,,,,,,,,,,,,,,,,,,,,,,,,,,,,,maiden,238,16,aloud,new,yellow,847.3767058001831,None,n,847.3767058001831,None,"['n', 'return']","[1.0465969992801547, 1.3501309994608164]",847.3767058001831,None,,,46,001,2023_Apr_19_1135,ExactRep-v3-final,2021.2.3,59.91270717658033,
,,,,,,,,,,,,16,0,16,0,,,,,,,,,,,,,,,,,,,,,,,,,,,,,,,,,,,,,,,,,,,,,,,,,850.4135404005647,None,,,,,,,,,,,,,,,,,,,,,,,,,,,,,,,,,,,,,,,,,,,,,,,,,,,,,,,,,amount,81,17,aloud,old,yellow,849.2726297006011,None,n,849.2726297006011,None,"['n', 'return']","[0.8622013991698623, 1.0942110996693373]",849.2726297006011,None,,,46,001,2023_Apr_19_1135,ExactRep-v3-final,2021.2.3,59.91270717658033,
,,,,,,,,,,,,17,0,17,0,,,,,,,,,,,,,,,,,,,,,,,,,,,,,,,,,,,,,,,,,,,,,,,,,852.0818969001994,None,,,,,,,,,,,,,,,,,,,,,,,,,,,,,,,,,,,,,,,,,,,,,,,,,,,,,,,,,sugar,138,18,silent,new,yellow,850.9231189005077,None,n,850.9231189005077,None,"['n', 'return']","[0.8438169993460178, 1.1237714998424053]",850.9231189005077,None,,,46,001,2023_Apr_19_1135,ExactRep-v3-final,2021.2.3,59.91270717658033,
,,,,,,,,,,,,18,0,18,0,,,,,,,,,,,,,,,,,,,,,,,,,,,,,,,,,,,,,,,,,,,,,,,,,853.817157600075,None,,,,,,,,,,,,,,,,,,,,,,,,,,,,,,,,,,,,,,,,,,,,,,,,,,,,,,,,,moral,107,19,aloud,old,yellow,852.5959240002558,None,y,852.5959240002558,None,"['y', 'return']","[0.8909046994522214, 1.1789994994178414]",852.5959240002558,None,,,46,001,2023_Apr_19_1135,ExactRep-v3-final,2021.2.3,59.91270717658033,
,,,,,,,,,,,,19,0,19,0,,,,,,,,,,,,,,,,,,,,,,,,,,,,,,,,,,,,,,,,,,,,,,,,,855.4892901005223,None,,,,,,,,,,,,,,,,,,,,,,,,,,,,,,,,,,,,,,,,,,,,,,,,,,,,,,,,,bowl,123,20,silent,new,yellow,854.3363486006856,None,n,854.3363486006856,None,"['n', 'return']","[0.8306284006685019, 1.1023782007396221]",854.3363486006856,None,,,46,001,2023_Apr_19_1135,ExactRep-v3-final,2021.2.3,59.91270717658033,
,,,,,,,,,,,,20,0,20,0,,,,,,,,,,,,,,,,,,,,,,,,,,,,,,,,,,,,,,,,,,,,,,,,,857.0368946008384,None,,,,,,,,,,,,,,,,,,,,,,,,,,,,,,,,,,,,,,,,,,,,,,,,,,,,,,,,,corn,130,21,silent,new,yellow,856.0099440002814,None,n,856.0099440002814,None,"['n', 'return']","[0.6928556002676487, 0.9809019006788731]",856.0099440002814,None,,,46,001,2023_Apr_19_1135,ExactRep-v3-final,2021.2.3,59.91270717658033,
,,,,,,,,,,,,21,0,21,0,,,,,,,,,,,,,,,,,,,,,,,,,,,,,,,,,,,,,,,,,,,,,,,,,858.5551263000816,None,,,,,,,,,,,,,,,,,,,,,,,,,,,,,,,,,,,,,,,,,,,,,,,,,,,,,,,,,animal,58,22,silent,old,yellow,857.5462809000164,None,n,857.5462809000164,None,"['n', 'return']","[0.7086807005107403, 0.9645060002803802]",857.5462809000164,None,,,46,001,2023_Apr_19_1135,ExactRep-v3-final,2021.2.3,59.91270717658033,
,,,,,,,,,,,,22,0,22,0,,,,,,,,,,,,,,,,,,,,,,,,,,,,,,,,,,,,,,,,,,,,,,,,,862.142012600787,None,,,,,,,,,,,,,,,,,,,,,,,,,,,,,,,,,,,,,,,,,,,,,,,,,,,,,,,,,door,84,23,aloud,old,yellow,859.0642215004191,None,n,859.0642215004191,None,"['n', 'return']","[2.790606399998069, 3.0306754000484943]",859.0642215004191,None,,,46,001,2023_Apr_19_1135,ExactRep-v3-final,2021.2.3,59.91270717658033,
,,,,,,,,,,,,23,0,23,0,,,,,,,,,,,,,,,,,,,,,,,,,,,,,,,,,,,,,,,,,,,,,,,,,863.9104033000767,None,,,,,,,,,,,,,,,,,,,,,,,,,,,,,,,,,,,,,,,,,,,,,,,,,,,,,,,,,fun,203,24,sing,new,yellow,862.6561352005228,None,n,862.6561352005228,None,"['n', 'return']","[0.9026987999677658, 1.2147983005270362]",862.6561352005228,None,,,46,001,2023_Apr_19_1135,ExactRep-v3-final,2021.2.3,59.91270717658033,
,,,,,,,,,,,,24,0,24,0,,,,,,,,,,,,,,,,,,,,,,,,,,,,,,,,,,,,,,,,,,,,,,,,,867.030351000838,None,,,,,,,,,,,,,,,,,,,,,,,,,,,,,,,,,,,,,,,,,,,,,,,,,,,,,,,,,dollar,23,25,sing,old,yellow,864.4114479003474,None,y,864.4114479003474,None,"['y', 'return']","[2.22754929959774, 2.5874936999753118]",864.4114479003474,None,,,46,001,2023_Apr_19_1135,ExactRep-v3-final,2021.2.3,59.91270717658033,
,,,,,,,,,,,,25,0,25,0,,,,,,,,,,,,,,,,,,,,,,,,,,,,,,,,,,,,,,,,,,,,,,,,,869.2324761999771,None,,,,,,,,,,,,,,,,,,,,,,,,,,,,,,,,,,,,,,,,,,,,,,,,,,,,,,,,,gift,204,26,aloud,new,yellow,867.539251900278,None,n,867.539251900278,None,"['n', 'return']","[1.331742299720645, 1.6596005000174046]",867.539251900278,None,,,46,001,2023_Apr_19_1135,ExactRep-v3-final,2021.2.3,59.91270717658033,
,,,,,,,,,,,,26,0,26,0,,,,,,,,,,,,,,,,,,,,,,,,,,,,,,,,,,,,,,,,,,,,,,,,,871.0175940999761,None,,,,,,,,,,,,,,,,,,,,,,,,,,,,,,,,,,,,,,,,,,,,,,,,,,,,,,,,,charm,36,27,sing,old,yellow,869.7422886006534,None,y,869.7422886006534,None,"['y', 'return']","[0.9205934004858136, 1.2405383000150323]",869.7422886006534,None,,,46,001,2023_Apr_19_1135,ExactRep-v3-final,2021.2.3,59.91270717658033,
,,,,,,,,,,,,27,0,27,0,,,,,,,,,,,,,,,,,,,,,,,,,,,,,,,,,,,,,,,,,,,,,,,,,875.6890022000298,None,,,,,,,,,,,,,,,,,,,,,,,,,,,,,,,,,,,,,,,,,,,,,,,,,,,,,,,,,nail,42,28,silent,old,yellow,871.5221513006836,None,n,871.5221513006836,None,"['n', 'return']","[3.9327174006029963, 4.1247239001095295]",871.5221513006836,None,,,46,001,2023_Apr_19_1135,ExactRep-v3-final,2021.2.3,59.91270717658033,
,,,,,,,,,,,,28,0,28,0,,,,,,,,,,,,,,,,,,,,,,,,,,,,,,,,,,,,,,,,,,,,,,,,,878.0580967999995,None,,,,,,,,,,,,,,,,,,,,,,,,,,,,,,,,,,,,,,,,,,,,,,,,,,,,,,,,,woods,48,29,silent,old,yellow,876.1961043002084,None,n,876.1961043002084,None,"['n', 'return']","[1.5230797994881868, 1.8187907999381423]",876.1961043002084,None,,,46,001,2023_Apr_19_1135,ExactRep-v3-final,2021.2.3,59.91270717658033,
,,,,,,,,,,,,29,0,29,0,,,,,,,,,,,,,,,,,,,,,,,,,,,,,,,,,,,,,,,,,,,,,,,,,879.7762834001333,None,,,,,,,,,,,,,,,,,,,,,,,,,,,,,,,,,,,,,,,,,,,,,,,,,,,,,,,,,leader,224,30,aloud,new,yellow,878.5593118006364,None,n,878.5593118006364,None,"['n', 'return']","[0.9275919999927282, 1.1836125003173947]",878.5593118006364,None,,,46,001,2023_Apr_19_1135,ExactRep-v3-final,2021.2.3,59.91270717658033,
,,,,,,,,,,,,30,0,30,0,,,,,,,,,,,,,,,,,,,,,,,,,,,,,,,,,,,,,,,,,,,,,,,,,881.544716800563,None,,,,,,,,,,,,,,,,,,,,,,,,,,,,,,,,,,,,,,,,,,,,,,,,,,,,,,,,,glory,22,31,sing,old,yellow,880.2893738001585,None,y,880.2893738001585,None,"['y', 'return']","[0.9016359001398087, 1.2214812999591231]",880.2893738001585,None,,,46,001,2023_Apr_19_1135,ExactRep-v3-final,2021.2.3,59.91270717658033,
,,,,,,,,,,,,31,0,31,0,,,,,,,,,,,,,,,,,,,,,,,,,,,,,,,,,,,,,,,,,,,,,,,,,884.6478641005233,None,,,,,,,,,,,,,,,,,,,,,,,,,,,,,,,,,,,,,,,,,,,,,,,,,,,,,,,,,fate,225,32,sing,new,yellow,882.0560385007411,None,n,882.0560385007411,None,"['n', 'return']","[2.2470468003302813, 2.550894300453365]",882.0560385007411,None,,,46,001,2023_Apr_19_1135,ExactRep-v3-final,2021.2.3,59.91270717658033,
,,,,,,,,,,,,32,0,32,0,,,,,,,,,,,,,,,,,,,,,,,,,,,,,,,,,,,,,,,,,,,,,,,,,887.6843518000096,None,,,,,,,,,,,,,,,,,,,,,,,,,,,,,,,,,,,,,,,,,,,,,,,,,,,,,,,,,flood,75,33,silent,old,yellow,885.1586886001751,None,n,885.1586886001751,None,"['n', 'return']","[2.1761870002374053, 2.48827559966594]",885.1586886001751,None,,,46,001,2023_Apr_19_1135,ExactRep-v3-final,2021.2.3,59.91270717658033,
,,,,,,,,,,,,33,0,33,0,,,,,,,,,,,,,,,,,,,,,,,,,,,,,,,,,,,,,,,,,,,,,,,,,895.4421723000705,None,,,,,,,,,,,,,,,,,,,,,,,,,,,,,,,,,,,,,,,,,,,,,,,,,,,,,,,,,soul,99,34,aloud,old,yellow,888.1933121001348,None,n,888.1933121001348,None,"['n', 'return']","[6.965861500240862, 7.21354310028255]",888.1933121001348,None,,,46,001,2023_Apr_19_1135,ExactRep-v3-final,2021.2.3,59.91270717658033,
,,,,,,,,,,,,34,0,34,0,,,,,,,,,,,,,,,,,,,,,,,,,,,,,,,,,,,,,,,,,,,,,,,,,897.7277188003063,None,,,,,,,,,,,,,,,,,,,,,,,,,,,,,,,,,,,,,,,,,,,,,,,,,,,,,,,,,money,98,35,aloud,old,yellow,895.9521576007828,None,y,895.9521576007828,None,"['y', 'return']","[1.398853300139308, 1.7346838004887104]",895.9521576007828,None,,,46,001,2023_Apr_19_1135,ExactRep-v3-final,2021.2.3,59.91270717658033,
,,,,,,,,,,,,35,0,35,0,,,,,,,,,,,,,,,,,,,,,,,,,,,,,,,,,,,,,,,,,,,,,,,,,899.2624821001664,None,,,,,,,,,,,,,,,,,,,,,,,,,,,,,,,,,,,,,,,,,,,,,,,,,,,,,,,,,coffee,116,36,aloud,old,yellow,898.2376282000914,None,n,898.2376282000914,None,"['n', 'return']","[0.7772663002833724, 0.9932428998872638]",898.2376282000914,None,,,46,001,2023_Apr_19_1135,ExactRep-v3-final,2021.2.3,59.91270717658033,
,,,,,,,,,,,,36,0,36,0,,,,,,,,,,,,,,,,,,,,,,,,,,,,,,,,,,,,,,,,,,,,,,,,,902.3490273002535,None,,,,,,,,,,,,,,,,,,,,,,,,,,,,,,,,,,,,,,,,,,,,,,,,,,,,,,,,,justice,173,37,sing,new,yellow,899.774105200544,None,y,899.774105200544,None,"['y', 'return']","[2.0167661998420954, 2.5288522001355886]",899.774105200544,None,,,46,001,2023_Apr_19_1135,ExactRep-v3-final,2021.2.3,59.91270717658033,
,,,,,,,,,,,,37,0,37,0,,,,,,,,,,,,,,,,,,,,,,,,,,,,,,,,,,,,,,,,,,,,,,,,,906.7532331002876,None,,,,,,,,,,,,,,,,,,,,,,,,,,,,,,,,,,,,,,,,,,,,,,,,,,,,,,,,,moment,121,38,silent,new,yellow,902.8493218002841,None,n,902.8493218002841,None,"['n', 'return']","[3.5095409005880356, 3.869562800042331]",902.8493218002841,None,,,46,001,2023_Apr_19_1135,ExactRep-v3-final,2021.2.3,59.91270717658033,
,,,,,,,,,,,,38,0,38,0,,,,,,,,,,,,,,,,,,,,,,,,,,,,,,,,,,,,,,,,,,,,,,,,,909.7896143002436,None,,,,,,,,,,,,,,,,,,,,,,,,,,,,,,,,,,,,,,,,,,,,,,,,,,,,,,,,,hide,226,39,aloud,new,yellow,907.2630178006366,None,n,907.2630178006366,None,"['n', 'return']","[2.2318762000650167, 2.4879279993474483]",907.2630178006366,None,,,46,001,2023_Apr_19_1135,ExactRep-v3-final,2021.2.3,59.91270717658033,
,,,,,,,,,,,,39,0,39,0,,,,,,,,,,,,,,,,,,,,,,,,,,,,,,,,,,,,,,,,,,,,,,,,,911.5414401004091,None,,,,,,,,,,,,,,,,,,,,,,,,,,,,,,,,,,,,,,,,,,,,,,,,,,,,,,,,,table,5,40,sing,old,yellow,910.2988263005391,None,y,910.2988263005391,None,"['y', 'return']","[0.9320286000147462, 1.204084699973464]",910.2988263005391,None,,,46,001,2023_Apr_19_1135,ExactRep-v3-final,2021.2.3,59.91270717658033,
,,,,,,,,,,,,40,0,40,0,,,,,,,,,,,,,,,,,,,,,,,,,,,,,,,,,,,,,,,,,,,,,,,,,913.0931601999328,None,,,,,,,,,,,,,,,,,,,,,,,,,,,,,,,,,,,,,,,,,,,,,,,,,,,,,,,,,apple,220,41,aloud,new,yellow,912.0511609008536,None,n,912.0511609008536,None,"['n', 'return']","[0.7796547999605536, 1.003748499788344]",912.0511609008536,None,,,46,001,2023_Apr_19_1135,ExactRep-v3-final,2021.2.3,59.91270717658033,
,,,,,,,,,,,,41,0,41,0,,,,,,,,,,,,,,,,,,,,,,,,,,,,,,,,,,,,,,,,,,,,,,,,,914.7279830006883,None,,,,,,,,,,,,,,,,,,,,,,,,,,,,,,,,,,,,,,,,,,,,,,,,,,,,,,,,,dawn,28,42,sing,old,yellow,913.6019492000341,None,y,913.6019492000341,None,"['y', 'return']","[0.8048946000635624, 1.084968799725175]",913.6019492000341,None,,,46,001,2023_Apr_19_1135,ExactRep-v3-final,2021.2.3,59.91270717658033,
,,,,,,,,,,,,42,0,42,0,,,,,,,,,,,,,,,,,,,,,,,,,,,,,,,,,,,,,,,,,,,,,,,,,916.6297747008502,None,,,,,,,,,,,,,,,,,,,,,,,,,,,,,,,,,,,,,,,,,,,,,,,,,,,,,,,,,plain,50,43,silent,old,yellow,915.2372024999931,None,n,915.2372024999931,None,"['n', 'return']","[0.809549099765718, 1.3537774002179503]",915.2372024999931,None,,,46,001,2023_Apr_19_1135,ExactRep-v3-final,2021.2.3,59.91270717658033,
,,,,,,,,,,,,43,0,43,0,,,,,,,,,,,,,,,,,,,,,,,,,,,,,,,,,,,,,,,,,,,,,,,,,918.41506030038,None,,,,,,,,,,,,,,,,,,,,,,,,,,,,,,,,,,,,,,,,,,,,,,,,,,,,,,,,,home,236,44,aloud,new,yellow,917.1378520000726,None,y,917.1378520000726,None,"['y', 'return']","[0.9329753993079066, 1.2290559001266956]",917.1378520000726,None,,,46,001,2023_Apr_19_1135,ExactRep-v3-final,2021.2.3,59.91270717658033,
,,,,,,,,,,,,44,0,44,0,,,,,,,,,,,,,,,,,,,,,,,,,,,,,,,,,,,,,,,,,,,,,,,,,920.2167000006884,None,,,,,,,,,,,,,,,,,,,,,,,,,,,,,,,,,,,,,,,,,,,,,,,,,,,,,,,,,camp,229,45,sing,new,yellow,918.9266282003373,None,n,918.9266282003373,None,"['n', 'return']","[0.9282622998580337, 1.248381500132382]",918.9266282003373,None,,,46,001,2023_Apr_19_1135,ExactRep-v3-final,2021.2.3,59.91270717658033,
,,,,,,,,,,,,45,0,45,0,,,,,,,,,,,,,,,,,,,,,,,,,,,,,,,,,,,,,,,,,,,,,,,,,927.6575333001092,None,,,,,,,,,,,,,,,,,,,,,,,,,,,,,,,,,,,,,,,,,,,,,,,,,,,,,,,,,ocean,46,46,silent,old,yellow,920.7326458999887,None,n,920.7326458999887,None,"['n', 'return']","[6.5704268999397755, 6.890200300142169]",920.7326458999887,None,,,46,001,2023_Apr_19_1135,ExactRep-v3-final,2021.2.3,59.91270717658033,
,,,,,,,,,,,,46,0,46,0,,,,,,,,,,,,,,,,,,,,,,,,,,,,,,,,,,,,,,,,,,,,,,,,,934.4309289008379,None,,,,,,,,,,,,,,,,,,,,,,,,,,,,,,,,,,,,,,,,,,,,,,,,,,,,,,,,,prayer,132,47,silent,new,yellow,928.171388800256,None,n,928.171388800256,None,"['n', 'return']","[5.979571199975908, 6.227666100487113]",928.171388800256,None,,,46,001,2023_Apr_19_1135,ExactRep-v3-final,2021.2.3,59.91270717658033,
,,,,,,,,,,,,47,0,47,0,,,,,,,,,,,,,,,,,,,,,,,,,,,,,,,,,,,,,,,,,,,,,,,,,936.2161423005164,None,,,,,,,,,,,,,,,,,,,,,,,,,,,,,,,,,,,,,,,,,,,,,,,,,,,,,,,,,church,143,48,silent,new,yellow,934.9424087004736,None,n,934.9424087004736,None,"['n', 'return']","[1.0165233006700873, 1.2406815998256207]",934.9424087004736,None,,,46,001,2023_Apr_19_1135,ExactRep-v3-final,2021.2.3,59.91270717658033,
,,,,,,,,,,,,48,0,48,0,,,,,,,,,,,,,,,,,,,,,,,,,,,,,,,,,,,,,,,,,,,,,,,,,940.4369975002483,None,,,,,,,,,,,,,,,,,,,,,,,,,,,,,,,,,,,,,,,,,,,,,,,,,,,,,,,,,mother,120,49,silent,new,yellow,936.7290644999593,None,n,936.7290644999593,None,"['n', 'return']","[3.4382497994229198, 3.669905299320817]",936.7290644999593,None,,,46,001,2023_Apr_19_1135,ExactRep-v3-final,2021.2.3,59.91270717658033,
,,,,,,,,,,,,49,0,49,0,,,,,,,,,,,,,,,,,,,,,,,,,,,,,,,,,,,,,,,,,,,,,,,,,942.705941000022,None,,,,,,,,,,,,,,,,,,,,,,,,,,,,,,,,,,,,,,,,,,,,,,,,,,,,,,,,,shore,147,50,silent,new,yellow,940.9444217002019,None,n,940.9444217002019,None,"['n', 'return']","[1.478512399829924, 1.7185313999652863]",940.9444217002019,None,,,46,001,2023_Apr_19_1135,ExactRep-v3-final,2021.2.3,59.91270717658033,
,,,,,,,,,,,,50,0,50,0,,,,,,,,,,,,,,,,,,,,,,,,,,,,,,,,,,,,,,,,,,,,,,,,,946.9103227006271,None,,,,,,,,,,,,,,,,,,,,,,,,,,,,,,,,,,,,,,,,,,,,,,,,,,,,,,,,,duty,192,51,aloud,new,yellow,943.2079707002267,None,n,943.2079707002267,None,"['n', 'return']","[3.438944200053811, 3.6550532002002]",943.2079707002267,None,,,46,001,2023_Apr_19_1135,ExactRep-v3-final,2021.2.3,59.91270717658033,
,,,,,,,,,,,,51,0,51,0,,,,,,,,,,,,,,,,,,,,,,,,,,,,,,,,,,,,,,,,,,,,,,,,,948.8622407000512,None,,,,,,,,,,,,,,,,,,,,,,,,,,,,,,,,,,,,,,,,,,,,,,,,,,,,,,,,,cotton,181,52,sing,new,yellow,947.4225013004616,None,n,947.4225013004616,None,"['n', 'return']","[1.160648999735713, 1.3924608994275331]",947.4225013004616,None,,,46,001,2023_Apr_19_1135,ExactRep-v3-final,2021.2.3,59.91270717658033,
,,,,,,,,,,,,52,0,52,0,,,,,,,,,,,,,,,,,,,,,,,,,,,,,,,,,,,,,,,,,,,,,,,,,957.9377685002983,None,,,,,,,,,,,,,,,,,,,,,,,,,,,,,,,,,,,,,,,,,,,,,,,,,,,,,,,,,shame,68,53,silent,old,yellow,949.371532600373,None,n,949.371532600373,None,"['y', 'n', 'n', 'backspace', 'n', 'return']","[1.107299500145018, 6.307395500130951, 6.779329700395465, 7.603589000180364, 8.13953660055995, 8.523452300578356]",949.371532600373,None,,,46,001,2023_Apr_19_1135,ExactRep-v3-final,2021.2.3,59.91270717658033,
,,,,,,,,,,,,53,0,53,0,,,,,,,,,,,,,,,,,,,,,,,,,,,,,,,,,,,,,,,,,,,,,,,,,963.8437601001933,None,,,,,,,,,,,,,,,,,,,,,,,,,,,,,,,,,,,,,,,,,,,,,,,,,,,,,,,,,plant,85,54,aloud,old,yellow,958.4440142000094,None,n,958.4440142000094,None,"['n', 'return']","[4.922906099818647, 5.354922799393535]",958.4440142000094,None,,,46,001,2023_Apr_19_1135,ExactRep-v3-final,2021.2.3,59.91270717658033,
,,,,,,,,,,,,54,0,54,0,,,,,,,,,,,,,,,,,,,,,,,,,,,,,,,,,,,,,,,,,,,,,,,,,965.5121091008186,None,,,,,,,,,,,,,,,,,,,,,,,,,,,,,,,,,,,,,,,,,,,,,,,,,,,,,,,,,journal,60,55,silent,old,yellow,964.3573147002608,None,n,964.3573147002608,None,"['n', 'return']","[0.8898883005604148, 1.1216724002733827]",964.3573147002608,None,,,46,001,2023_Apr_19_1135,ExactRep-v3-final,2021.2.3,59.91270717658033,
,,,,,,,,,,,,55,0,55,0,,,,,,,,,,,,,,,,,,,,,,,,,,,,,,,,,,,,,,,,,,,,,,,,,967.6141119999811,None,,,,,,,,,,,,,,,,,,,,,,,,,,,,,,,,,,,,,,,,,,,,,,,,,,,,,,,,,steam,31,56,sing,old,yellow,966.0149845005944,None,y,966.0149845005944,None,"['y', 'return']","[1.2960285004228354, 1.560070600360632]",966.0149845005944,None,,,46,001,2023_Apr_19_1135,ExactRep-v3-final,2021.2.3,59.91270717658033,
,,,,,,,,,,,,56,0,56,0,,,,,,,,,,,,,,,,,,,,,,,,,,,,,,,,,,,,,,,,,,,,,,,,,969.8496729005128,None,,,,,,,,,,,,,,,,,,,,,,,,,,,,,,,,,,,,,,,,,,,,,,,,,,,,,,,,,string,27,57,sing,old,yellow,968.1264660004526,None,y,968.1264660004526,None,"['y', 'return']","[1.3685039998963475, 1.6884301993995905]",968.1264660004526,None,,,46,001,2023_Apr_19_1135,ExactRep-v3-final,2021.2.3,59.91270717658033,
,,,,,,,,,,,,57,0,57,0,,,,,,,,,,,,,,,,,,,,,,,,,,,,,,,,,,,,,,,,,,,,,,,,,971.4348082002252,None,,,,,,,,,,,,,,,,,,,,,,,,,,,,,,,,,,,,,,,,,,,,,,,,,,,,,,,,,meat,4,58,sing,old,yellow,970.3603961002082,None,y,970.3603961002082,None,"['y', 'return']","[0.7506897998973727, 1.0305695999413729]",970.3603961002082,None,,,46,001,2023_Apr_19_1135,ExactRep-v3-final,2021.2.3,59.91270717658033,
,,,,,,,,,,,,58,0,58,0,,,,,,,,,,,,,,,,,,,,,,,,,,,,,,,,,,,,,,,,,,,,,,,,,973.7202073000371,None,,,,,,,,,,,,,,,,,,,,,,,,,,,,,,,,,,,,,,,,,,,,,,,,,,,,,,,,,city,152,59,silent,new,yellow,971.9432367002591,None,n,971.9432367002591,None,"['n', 'return']","[0.735809899866581, 1.7437706999480724]",971.9432367002591,None,,,46,001,2023_Apr_19_1135,ExactRep-v3-final,2021.2.3,59.91270717658033,
,,,,,,,,,,,,59,0,59,0,,,,,,,,,,,,,,,,,,,,,,,,,,,,,,,,,,,,,,,,,,,,,,,,,977.7408995004371,None,,,,,,,,,,,,,,,,,,,,,,,,,,,,,,,,,,,,,,,,,,,,,,,,,,,,,,,,,queen,89,60,aloud,old,yellow,974.2306898999959,None,y,974.2306898999959,None,"['y', 'return']","[3.048235099762678, 3.4643435003235936]",974.2306898999959,None,,,46,001,2023_Apr_19_1135,ExactRep-v3-final,2021.2.3,59.91270717658033,
,,,,,,,,,,,,60,0,60,0,,,,,,,,,,,,,,,,,,,,,,,,,,,,,,,,,,,,,,,,,,,,,,,,,979.5595273999497,None,,,,,,,,,,,,,,,,,,,,,,,,,,,,,,,,,,,,,,,,,,,,,,,,,,,,,,,,,seat,104,61,aloud,old,yellow,978.250265000388,None,n,978.250265000388,None,"['n', 'return']","[1.0048813996836543, 1.2767450995743275]",978.250265000388,None,,,46,001,2023_Apr_19_1135,ExactRep-v3-final,2021.2.3,59.91270717658033,
,,,,,,,,,,,,61,0,61,0,,,,,,,,,,,,,,,,,,,,,,,,,,,,,,,,,,,,,,,,,,,,,,,,,981.1109058000147,None,,,,,,,,,,,,,,,,,,,,,,,,,,,,,,,,,,,,,,,,,,,,,,,,,,,,,,,,,river,160,62,aloud,new,yellow,980.0711751002818,None,n,980.0711751002818,None,"['n', 'return']","[0.7600352000445127, 1.007798899896443]",980.0711751002818,None,,,46,001,2023_Apr_19_1135,ExactRep-v3-final,2021.2.3,59.91270717658033,
,,,,,,,,,,,,62,0,62,0,,,,,,,,,,,,,,,,,,,,,,,,,,,,,,,,,,,,,,,,,,,,,,,,,982.6958669004962,None,,,,,,,,,,,,,,,,,,,,,,,,,,,,,,,,,,,,,,,,,,,,,,,,,,,,,,,,,pipe,67,63,silent,old,yellow,981.6199672007933,None,n,981.6199672007933,None,"['n', 'return']","[0.7470761993899941, 1.035122599452734]",981.6199672007933,None,,,46,001,2023_Apr_19_1135,ExactRep-v3-final,2021.2.3,59.91270717658033,
,,,,,,,,,,,,63,0,63,0,,,,,,,,,,,,,,,,,,,,,,,,,,,,,,,,,,,,,,,,,,,,,,,,,986.0326077006757,None,,,,,,,,,,,,,,,,,,,,,,,,,,,,,,,,,,,,,,,,,,,,,,,,,,,,,,,,,artist,157,64,silent,new,yellow,983.2057139007375,None,n,983.2057139007375,None,"['n', 'return']","[2.5692703993991017, 2.7854146994650364]",983.2057139007375,None,,,46,001,2023_Apr_19_1135,ExactRep-v3-final,2021.2.3,59.91270717658033,
,,,,,,,,,,,,64,0,64,0,,,,,,,,,,,,,,,,,,,,,,,,,,,,,,,,,,,,,,,,,,,,,,,,,991.0876556001604,None,,,,,,,,,,,,,,,,,,,,,,,,,,,,,,,,,,,,,,,,,,,,,,,,,,,,,,,,,wine,221,65,sing,new,yellow,986.5349515005946,None,n,986.5349515005946,None,"['n', 'return']","[4.248560500331223, 4.520009600557387]",986.5349515005946,None,,,46,001,2023_Apr_19_1135,ExactRep-v3-final,2021.2.3,59.91270717658033,
,,,,,,,,,,,,65,0,65,0,,,,,,,,,,,,,,,,,,,,,,,,,,,,,,,,,,,,,,,,,,,,,,,,,992.9728818004951,None,,,,,,,,,,,,,,,,,,,,,,,,,,,,,,,,,,,,,,,,,,,,,,,,,,,,,,,,,death,83,66,aloud,old,yellow,991.5988057004288,None,y,991.5988057004288,None,"['y', 'return']","[1.0561529006808996, 1.3282738998532295]",991.5988057004288,None,,,46,001,2023_Apr_19_1135,ExactRep-v3-final,2021.2.3,59.91270717658033,
,,,,,,,,,,,,66,0,66,0,,,,,,,,,,,,,,,,,,,,,,,,,,,,,,,,,,,,,,,,,,,,,,,,,995.2585245007649,None,,,,,,,,,,,,,,,,,,,,,,,,,,,,,,,,,,,,,,,,,,,,,,,,,,,,,,,,,doll,106,67,aloud,old,yellow,993.4859479004517,None,n,993.4859479004517,None,"['n', 'return']","[1.5130794998258352, 1.7290378995239735]",993.4859479004517,None,,,46,001,2023_Apr_19_1135,ExactRep-v3-final,2021.2.3,59.91270717658033,
,,,,,,,,,,,,67,0,67,0,,,,,,,,,,,,,,,,,,,,,,,,,,,,,,,,,,,,,,,,,,,,,,,,,998.3782418007031,None,,,,,,,,,,,,,,,,,,,,,,,,,,,,,,,,,,,,,,,,,,,,,,,,,,,,,,,,,engine,216,68,aloud,new,yellow,995.7684333007783,None,n,995.7684333007783,None,"['n', 'return']","[2.2306377002969384, 2.5665623005479574]",995.7684333007783,None,,,46,001,2023_Apr_19_1135,ExactRep-v3-final,2021.2.3,59.91270717658033,
,,,,,,,,,,,,68,0,68,0,,,,,,,,,,,,,,,,,,,,,,,,,,,,,,,,,,,,,,,,,,,,,,,,,1001.6649126000702,None,,,,,,,,,,,,,,,,,,,,,,,,,,,,,,,,,,,,,,,,,,,,,,,,,,,,,,,,,ship,188,69,aloud,new,yellow,998.8819500999525,None,n,998.8819500999525,None,"['n', 'return']","[2.5170841002836823, 2.7410300001502037]",998.8819500999525,None,,,46,001,2023_Apr_19_1135,ExactRep-v3-final,2021.2.3,59.91270717658033,
,,,,,,,,,,,,69,0,69,0,,,,,,,,,,,,,,,,,,,,,,,,,,,,,,,,,,,,,,,,,,,,,,,,,1003.6669095000252,None,,,,,,,,,,,,,,,,,,,,,,,,,,,,,,,,,,,,,,,,,,,,,,,,,,,,,,,,,lake,62,70,silent,old,yellow,1002.1676487000659,None,n,1002.1676487000659,None,"['n', 'return']","[1.1514323996379972, 1.4633419997990131]",1002.1676487000659,None,,,46,001,2023_Apr_19_1135,ExactRep-v3-final,2021.2.3,59.91270717658033,
,,,,,,,,,,,,70,0,70,0,,,,,,,,,,,,,,,,,,,,,,,,,,,,,,,,,,,,,,,,,,,,,,,,,1007.8710687002167,None,,,,,,,,,,,,,,,,,,,,,,,,,,,,,,,,,,,,,,,,,,,,,,,,,,,,,,,,,answer,76,71,silent,old,yellow,1004.1767944004387,None,n,1004.1767944004387,None,"['n', 'return']","[3.3501474000513554, 3.662273599766195]",1004.1767944004387,None,,,46,001,2023_Apr_19_1135,ExactRep-v3-final,2021.2.3,59.91270717658033,
,,,,,,,,,,,,71,0,71,0,,,,,,,,,,,,,,,,,,,,,,,,,,,,,,,,,,,,,,,,,,,,,,,,,1010.5906497007236,None,,,,,,,,,,,,,,,,,,,,,,,,,,,,,,,,,,,,,,,,,,,,,,,,,,,,,,,,,heaven,210,72,aloud,new,yellow,1008.383976300247,None,n,1008.383976300247,None,"['n', 'return']","[1.919022200629115, 2.1590397004038095]",1008.383976300247,None,,,46,001,2023_Apr_19_1135,ExactRep-v3-final,2021.2.3,59.91270717658033,
,,,,,,,,,,,,72,0,72,0,,,,,,,,,,,,,,,,,,,,,,,,,,,,,,,,,,,,,,,,,,,,,,,,,1012.2755169002339,None,,,,,,,,,,,,,,,,,,,,,,,,,,,,,,,,,,,,,,,,,,,,,,,,,,,,,,,,,valley,53,73,silent,old,yellow,1011.0985240004957,None,n,1011.0985240004957,None,"['n', 'return']","[0.948530999943614, 1.1405271999537945]",1011.0985240004957,None,,,46,001,2023_Apr_19_1135,ExactRep-v3-final,2021.2.3,59.91270717658033,
,,,,,,,,,,,,73,0,73,0,,,,,,,,,,,,,,,,,,,,,,,,,,,,,,,,,,,,,,,,,,,,,,,,,1016.045900400728,None,,,,,,,,,,,,,,,,,,,,,,,,,,,,,,,,,,,,,,,,,,,,,,,,,,,,,,,,,metal,151,74,silent,new,yellow,1012.7879498004913,None,n,1012.7879498004913,None,"['n', 'return']","[2.947094900533557, 3.219079900532961]",1012.7879498004913,None,,,46,001,2023_Apr_19_1135,ExactRep-v3-final,2021.2.3,59.91270717658033,
,,,,,,,,,,,,74,0,74,0,,,,,,,,,,,,,,,,,,,,,,,,,,,,,,,,,,,,,,,,,,,,,,,,,1017.5807356005535,None,,,,,,,,,,,,,,,,,,,,,,,,,,,,,,,,,,,,,,,,,,,,,,,,,,,,,,,,,series,122,75,silent,new,yellow,1016.553220900707,None,n,1016.553220900707,None,"['n', 'return']","[0.7738378997892141, 0.9898579996079206]",1016.553220900707,None,,,46,001,2023_Apr_19_1135,ExactRep-v3-final,2021.2.3,59.91270717658033,
,,,,,,,,,,,,75,0,75,0,,,,,,,,,,,,,,,,,,,,,,,,,,,,,,,,,,,,,,,,,,,,,,,,,1019.2157016005367,None,,,,,,,,,,,,,,,,,,,,,,,,,,,,,,,,,,,,,,,,,,,,,,,,,,,,,,,,,event,119,76,aloud,old,yellow,1018.0899646999314,None,n,1018.0899646999314,None,"['n', 'return']","[0.7569823004305363, 1.0850458005443215]",1018.0899646999314,None,,,46,001,2023_Apr_19_1135,ExactRep-v3-final,2021.2.3,59.91270717658033,
,,,,,,,,,,,,76,0,76,0,,,,,,,,,,,,,,,,,,,,,,,,,,,,,,,,,,,,,,,,,,,,,,,,,1022.152053100057,None,,,,,,,,,,,,,,,,,,,,,,,,,,,,,,,,,,,,,,,,,,,,,,,,,,,,,,,,,circle,211,77,sing,new,yellow,1019.7257177000865,None,n,1019.7257177000865,None,"['n', 'return']","[2.025519799441099, 2.3934486992657185]",1019.7257177000865,None,,,46,001,2023_Apr_19_1135,ExactRep-v3-final,2021.2.3,59.91270717658033,
,,,,,,,,,,,,77,0,77,0,,,,,,,,,,,,,,,,,,,,,,,,,,,,,,,,,,,,,,,,,,,,,,,,,1026.456504800357,None,,,,,,,,,,,,,,,,,,,,,,,,,,,,,,,,,,,,,,,,,,,,,,,,,,,,,,,,,brain,73,78,silent,old,yellow,1022.6621487000957,None,n,1022.6621487000957,None,"['n', 'return']","[2.3450564993545413, 3.7607716992497444]",1022.6621487000957,None,,,46,001,2023_Apr_19_1135,ExactRep-v3-final,2021.2.3,59.91270717658033,
,,,,,,,,,,,,78,0,78,0,,,,,,,,,,,,,,,,,,,,,,,,,,,,,,,,,,,,,,,,,,,,,,,,,1028.525018600747,None,,,,,,,,,,,,,,,,,,,,,,,,,,,,,,,,,,,,,,,,,,,,,,,,,,,,,,,,,pole,3,79,sing,old,yellow,1026.9656927008182,None,y,1026.9656927008182,None,"['y', 'return']","[1.2973619000986218, 1.5213681999593973]",1026.9656927008182,None,,,46,001,2023_Apr_19_1135,ExactRep-v3-final,2021.2.3,59.91270717658033,
,,,,,,,,,,,,79,0,79,0,,,,,,,,,,,,,,,,,,,,,,,,,,,,,,,,,,,,,,,,,,,,,,,,,1033.8972547007725,None,,,,,,,,,,,,,,,,,,,,,,,,,,,,,,,,,,,,,,,,,,,,,,,,,,,,,,,,,mercy,134,80,silent,new,yellow,1029.0340900002047,None,n,1029.0340900002047,None,"['n', 'return']","[4.581195699982345, 4.829016400501132]",1029.0340900002047,None,,,46,001,2023_Apr_19_1135,ExactRep-v3-final,2021.2.3,59.91270717658033,
,,,,,,,,,,,,80,0,80,0,,,,,,,,,,,,,,,,,,,,,,,,,,,,,,,,,,,,,,,,,,,,,,,,,1035.515596500598,None,,,,,,,,,,,,,,,,,,,,,,,,,,,,,,,,,,,,,,,,,,,,,,,,,,,,,,,,,grass,127,81,silent,new,yellow,1034.4019297007471,None,n,1034.4019297007471,None,"['n', 'return']","[0.765315099619329, 1.0771019998937845]",1034.4019297007471,None,,,46,001,2023_Apr_19_1135,ExactRep-v3-final,2021.2.3,59.91270717658033,
,,,,,,,,,,,,81,0,81,0,,,,,,,,,,,,,,,,,,,,,,,,,,,,,,,,,,,,,,,,,,,,,,,,,1037.3005180004984,None,,,,,,,,,,,,,,,,,,,,,,,,,,,,,,,,,,,,,,,,,,,,,,,,,,,,,,,,,fortune,156,82,silent,new,yellow,1036.024892100133,None,n,1036.024892100133,None,"['n', 'return']","[0.7580625005066395, 1.2381760003045201]",1036.024892100133,None,,,46,001,2023_Apr_19_1135,ExactRep-v3-final,2021.2.3,59.91270717658033,
,,,,,,,,,,,,82,0,82,0,,,,,,,,,,,,,,,,,,,,,,,,,,,,,,,,,,,,,,,,,,,,,,,,,1039.0856941007078,None,,,,,,,,,,,,,,,,,,,,,,,,,,,,,,,,,,,,,,,,,,,,,,,,,,,,,,,,,insect,198,83,aloud,new,yellow,1037.8105196999386,None,n,1037.8105196999386,None,"['n', 'return']","[0.9006369998678565, 1.2285992996767163]",1037.8105196999386,None,,,46,001,2023_Apr_19_1135,ExactRep-v3-final,2021.2.3,59.91270717658033,
,,,,,,,,,,,,83,0,83,0,,,,,,,,,,,,,,,,,,,,,,,,,,,,,,,,,,,,,,,,,,,,,,,,,1045.1917925002053,None,,,,,,,,,,,,,,,,,,,,,,,,,,,,,,,,,,,,,,,,,,,,,,,,,,,,,,,,,memory,25,84,sing,old,yellow,1039.5884381001815,None,y,1039.5884381001815,None,"['y', 'return']","[5.234536099247634, 5.570543799549341]",1039.5884381001815,None,,,46,001,2023_Apr_19_1135,ExactRep-v3-final,2021.2.3,59.91270717658033,
,,,,,,,,,,,,84,0,84,0,,,,,,,,,,,,,,,,,,,,,,,,,,,,,,,,,,,,,,,,,,,,,,,,,1046.7100970000029,None,,,,,,,,,,,,,,,,,,,,,,,,,,,,,,,,,,,,,,,,,,,,,,,,,,,,,,,,,lip,43,85,silent,old,yellow,1045.6946626007557,None,n,1045.6946626007557,None,"['n', 'return']","[0.7364509999752045, 0.968525200150907]",1045.6946626007557,None,,,46,001,2023_Apr_19_1135,ExactRep-v3-final,2021.2.3,59.91270717658033,
,,,,,,,,,,,,85,0,85,0,,,,,,,,,,,,,,,,,,,,,,,,,,,,,,,,,,,,,,,,,,,,,,,,,1048.9829514008015,None,,,,,,,,,,,,,,,,,,,,,,,,,,,,,,,,,,,,,,,,,,,,,,,,,,,,,,,,,flesh,207,86,sing,new,yellow,1047.225935800001,None,n,1047.225935800001,None,"['n', 'return']","[1.389186100102961, 1.7089739004150033]",1047.225935800001,None,,,46,001,2023_Apr_19_1135,ExactRep-v3-final,2021.2.3,59.91270717658033,
,,,,,,,,,,,,86,0,86,0,,,,,,,,,,,,,,,,,,,,,,,,,,,,,,,,,,,,,,,,,,,,,,,,,1052.4322566008195,None,,,,,,,,,,,,,,,,,,,,,,,,,,,,,,,,,,,,,,,,,,,,,,,,,,,,,,,,,volume,158,87,silent,new,yellow,1049.4960666000843,None,n,1049.4960666000843,None,"['n', 'return']","[2.6953264996409416, 2.90316759981215]",1049.4960666000843,None,,,46,001,2023_Apr_19_1135,ExactRep-v3-final,2021.2.3,59.91270717658033,
,,,,,,,,,,,,87,0,87,0,,,,,,,,,,,,,,,,,,,,,,,,,,,,,,,,,,,,,,,,,,,,,,,,,1054.0004636002705,None,,,,,,,,,,,,,,,,,,,,,,,,,,,,,,,,,,,,,,,,,,,,,,,,,,,,,,,,,wife,222,88,aloud,new,yellow,1052.9395182002336,None,n,1052.9395182002336,None,"['n', 'return']","[0.6915535004809499, 1.0195425003767014]",1052.9395182002336,None,,,46,001,2023_Apr_19_1135,ExactRep-v3-final,2021.2.3,59.91270717658033,
,,,,,,,,,,,,88,0,88,0,,,,,,,,,,,,,,,,,,,,,,,,,,,,,,,,,,,,,,,,,,,,,,,,,1055.8857162008062,None,,,,,,,,,,,,,,,,,,,,,,,,,,,,,,,,,,,,,,,,,,,,,,,,,,,,,,,,,temple,18,89,sing,old,yellow,1054.5083953002468,None,y,1054.5083953002468,None,"['y', 'return']","[1.0187077997252345, 1.3308514999225736]",1054.5083953002468,None,,,46,001,2023_Apr_19_1135,ExactRep-v3-final,2021.2.3,59.91270717658033,
,,,,,,,,,,,,89,0,89,0,,,,,,,,,,,,,,,,,,,,,,,,,,,,,,,,,,,,,,,,,,,,,,,,,1059.9899035999551,None,,,,,,,,,,,,,,,,,,,,,,,,,,,,,,,,,,,,,,,,,,,,,,,,,,,,,,,,,time,169,90,sing,new,yellow,1056.394264800474,None,n,1056.394264800474,None,"['n', 'return']","[3.2927628001198173, 3.548816000111401]",1056.394264800474,None,,,46,001,2023_Apr_19_1135,ExactRep-v3-final,2021.2.3,59.91270717658033,
,,,,,,,,,,,,90,0,90,0,,,,,,,,,,,,,,,,,,,,,,,,,,,,,,,,,,,,,,,,,,,,,,,,,1062.742570700124,None,,,,,,,,,,,,,,,,,,,,,,,,,,,,,,,,,,,,,,,,,,,,,,,,,,,,,,,,,vision,168,91,aloud,new,yellow,1060.5009770002216,None,n,1060.5009770002216,None,"['n', 'return']","[1.1381321996450424, 2.194084799848497]",1060.5009770002216,None,,,46,001,2023_Apr_19_1135,ExactRep-v3-final,2021.2.3,59.91270717658033,
,,,,,,,,,,,,91,0,91,0,,,,,,,,,,,,,,,,,,,,,,,,,,,,,,,,,,,,,,,,,,,,,,,,,1068.7652355004102,None,,,,,,,,,,,,,,,,,,,,,,,,,,,,,,,,,,,,,,,,,,,,,,,,,,,,,,,,,gold,232,92,aloud,new,yellow,1063.251655800268,None,n,1063.251655800268,None,"['n', 'return']","[5.259684199467301, 5.475601499900222]",1063.251655800268,None,,,46,001,2023_Apr_19_1135,ExactRep-v3-final,2021.2.3,59.91270717658033,
,,,,,,,,,,,,92,0,92,0,,,,,,,,,,,,,,,,,,,,,,,,,,,,,,,,,,,,,,,,,,,,,,,,,1070.5504002999514,None,,,,,,,,,,,,,,,,,,,,,,,,,,,,,,,,,,,,,,,,,,,,,,,,,,,,,,,,,tree,55,93,silent,old,yellow,1069.274402800016,None,n,1069.274402800016,None,"['n', 'return']","[0.9729048004373908, 1.2367460997775197]",1069.274402800016,None,,,46,001,2023_Apr_19_1135,ExactRep-v3-final,2021.2.3,59.91270717658033,
,,,,,,,,,,,,93,0,93,0,,,,,,,,,,,,,,,,,,,,,,,,,,,,,,,,,,,,,,,,,,,,,,,,,1072.4522863002494,None,,,,,,,,,,,,,,,,,,,,,,,,,,,,,,,,,,,,,,,,,,,,,,,,,,,,,,,,,skin,91,94,aloud,old,yellow,1071.0603817002848,None,y,1071.0603817002848,None,"['y', 'return']","[1.1306274002417922, 1.3466865997761488]",1071.0603817002848,None,,,46,001,2023_Apr_19_1135,ExactRep-v3-final,2021.2.3,59.91270717658033,
,,,,,,,,,,,,94,0,94,0,,,,,,,,,,,,,,,,,,,,,,,,,,,,,,,,,,,,,,,,,,,,,,,,,1073.9537683008239,None,,,,,,,,,,,,,,,,,,,,,,,,,,,,,,,,,,,,,,,,,,,,,,,,,,,,,,,,,product,16,95,sing,old,yellow,1072.960325700231,None,n,1072.960325700231,None,"['n', 'return']","[0.7348523000255227, 0.9586681993678212]",1072.960325700231,None,,,46,001,2023_Apr_19_1135,ExactRep-v3-final,2021.2.3,59.91270717658033,
,,,,,,,,,,,,95,0,95,0,,,,,,,,,,,,,,,,,,,,,,,,,,,,,,,,,,,,,,,,,,,,,,,,,1075.6220909999683,None,,,,,,,,,,,,,,,,,,,,,,,,,,,,,,,,,,,,,,,,,,,,,,,,,,,,,,,,,devil,166,96,aloud,new,yellow,1074.4653584007174,None,n,1074.4653584007174,None,"['n', 'return']","[0.8378345994278789, 1.11772339977324]",1074.4653584007174,None,,,46,001,2023_Apr_19_1135,ExactRep-v3-final,2021.2.3,59.91270717658033,
,,,,,,,,,,,,96,0,96,0,,,,,,,,,,,,,,,,,,,,,,,,,,,,,,,,,,,,,,,,,,,,,,,,,1077.8744621006772,None,,,,,,,,,,,,,,,,,,,,,,,,,,,,,,,,,,,,,,,,,,,,,,,,,,,,,,,,,avenue,88,97,aloud,old,yellow,1076.1336111007258,None,n,1076.1336111007258,None,"['n', 'return']","[1.3696568999439478, 1.7055700002238154]",1076.1336111007258,None,,,46,001,2023_Apr_19_1135,ExactRep-v3-final,2021.2.3,59.91270717658033,
,,,,,,,,,,,,97,0,97,0,,,,,,,,,,,,,,,,,,,,,,,,,,,,,,,,,,,,,,,,,,,,,,,,,1079.2758798003197,None,,,,,,,,,,,,,,,,,,,,,,,,,,,,,,,,,,,,,,,,,,,,,,,,,,,,,,,,,army,215,98,sing,new,yellow,1078.3834543004632,None,n,1078.3834543004632,None,"['n', 'return']","[0.5677107004448771, 0.8475657003000379]",1078.3834543004632,None,,,46,001,2023_Apr_19_1135,ExactRep-v3-final,2021.2.3,59.91270717658033,
,,,,,,,,,,,,98,0,98,0,,,,,,,,,,,,,,,,,,,,,,,,,,,,,,,,,,,,,,,,,,,,,,,,,1080.710629700683,None,,,,,,,,,,,,,,,,,,,,,,,,,,,,,,,,,,,,,,,,,,,,,,,,,,,,,,,,,effort,108,99,aloud,old,yellow,1079.79162620008,None,n,1079.79162620008,None,"['n', 'return']","[0.6635720999911427, 0.887491500005126]",1079.79162620008,None,,,46,001,2023_Apr_19_1135,ExactRep-v3-final,2021.2.3,59.91270717658033,
,,,,,,,,,,,,99,0,99,0,,,,,,,,,,,,,,,,,,,,,,,,,,,,,,,,,,,,,,,,,,,,,,,,,1082.9630006002262,None,,,,,,,,,,,,,,,,,,,,,,,,,,,,,,,,,,,,,,,,,,,,,,,,,,,,,,,,,anger,79,100,sing,old,yellow,1081.2186776008457,None,y,1081.2186776008457,None,"['y', 'return']","[1.4525343999266624, 1.7084806999191642]",1081.2186776008457,None,,,46,001,2023_Apr_19_1135,ExactRep-v3-final,2021.2.3,59.91270717658033,
,,,,,,,,,,,,100,0,100,0,,,,,,,,,,,,,,,,,,,,,,,,,,,,,,,,,,,,,,,,,,,,,,,,,1084.3308949004859,None,,,,,,,,,,,,,,,,,,,,,,,,,,,,,,,,,,,,,,,,,,,,,,,,,,,,,,,,,mind,161,101,sing,new,yellow,1083.470202700235,None,n,1083.470202700235,None,"['n', 'return']","[0.6011576000601053, 0.8168508000671864]",1083.470202700235,None,,,46,001,2023_Apr_19_1135,ExactRep-v3-final,2021.2.3,59.91270717658033,
,,,,,,,,,,,,101,0,101,0,,,,,,,,,,,,,,,,,,,,,,,,,,,,,,,,,,,,,,,,,,,,,,,,,1086.66658690013,None,,,,,,,,,,,,,,,,,,,,,,,,,,,,,,,,,,,,,,,,,,,,,,,,,,,,,,,,,arm,92,102,aloud,old,yellow,1084.8379836007953,None,n,1084.8379836007953,None,"['n', 'return']","[1.409140999428928, 1.7931910995393991]",1084.8379836007953,None,,,46,001,2023_Apr_19_1135,ExactRep-v3-final,2021.2.3,59.91270717658033,
,,,,,,,,,,,,102,0,102,0,,,,,,,,,,,,,,,,,,,,,,,,,,,,,,,,,,,,,,,,,,,,,,,,,1090.8708294006065,None,,,,,,,,,,,,,,,,,,,,,,,,,,,,,,,,,,,,,,,,,,,,,,,,,,,,,,,,,picture,141,103,silent,new,yellow,1087.1786692002788,None,n,1087.1786692002788,None,"['n', 'return']","[1.3484645001590252, 3.6604709001258016]",1087.1786692002788,None,,,46,001,2023_Apr_19_1135,ExactRep-v3-final,2021.2.3,59.91270717658033,
,,,,,,,,,,,,103,0,103,0,,,,,,,,,,,,,,,,,,,,,,,,,,,,,,,,,,,,,,,,,,,,,,,,,1093.4900535000488,None,,,,,,,,,,,,,,,,,,,,,,,,,,,,,,,,,,,,,,,,,,,,,,,,,,,,,,,,,cash,212,104,aloud,new,yellow,1091.3788144001737,None,n,1091.3788144001737,None,"['n', 'return']","[1.748376900330186, 2.0762462001293898]",1091.3788144001737,None,,,46,001,2023_Apr_19_1135,ExactRep-v3-final,2021.2.3,59.91270717658033,
,,,,,,,,,,,,104,0,104,0,,,,,,,,,,,,,,,,,,,,,,,,,,,,,,,,,,,,,,,,,,,,,,,,,1095.1918463008478,None,,,,,,,,,,,,,,,,,,,,,,,,,,,,,,,,,,,,,,,,,,,,,,,,,,,,,,,,,stone,69,105,silent,old,yellow,1094.001021200791,None,n,1094.001021200791,None,"['n', 'return']","[0.9501791996881366, 1.1579709993675351]",1094.001021200791,None,,,46,001,2023_Apr_19_1135,ExactRep-v3-final,2021.2.3,59.91270717658033,
,,,,,,,,,,,,105,0,105,0,,,,,,,,,,,,,,,,,,,,,,,,,,,,,,,,,,,,,,,,,,,,,,,,,1108.2549632005394,None,,,,,,,,,,,,,,,,,,,,,,,,,,,,,,,,,,,,,,,,,,,,,,,,,,,,,,,,,murder,95,106,aloud,old,yellow,1095.70209130086,None,n,1095.70209130086,None,"['y', 'backspace', 'n', 'return']","[1.929326699115336, 11.745050999335945, 12.14505189936608, 12.521024500019848]",1095.70209130086,None,,,46,001,2023_Apr_19_1135,ExactRep-v3-final,2021.2.3,59.91270717658033,
,,,,,,,,,,,,106,0,106,0,,,,,,,,,,,,,,,,,,,,,,,,,,,,,,,,,,,,,,,,,,,,,,,,,1110.1400330001488,None,,,,,,,,,,,,,,,,,,,,,,,,,,,,,,,,,,,,,,,,,,,,,,,,,,,,,,,,,hope,233,107,sing,new,yellow,1108.7693303003907,None,n,1108.7693303003907,None,"['n', 'return']","[0.8217740999534726, 1.3337826998904347]",1108.7693303003907,None,,,46,001,2023_Apr_19_1135,ExactRep-v3-final,2021.2.3,59.91270717658033,
,,,,,,,,,,,,107,0,107,0,,,,,,,,,,,,,,,,,,,,,,,,,,,,,,,,,,,,,,,,,,,,,,,,,1113.0596508001909,None,,,,,,,,,,,,,,,,,,,,,,,,,,,,,,,,,,,,,,,,,,,,,,,,,,,,,,,,,car,13,108,sing,old,yellow,1110.6459450004622,None,y,1110.6459450004622,None,"['y', 'return']","[2.1291373996064067, 2.3691197000443935]",1110.6459450004622,None,,,46,001,2023_Apr_19_1135,ExactRep-v3-final,2021.2.3,59.91270717658033,
,,,,,,,,,,,,108,0,108,0,,,,,,,,,,,,,,,,,,,,,,,,,,,,,,,,,,,,,,,,,,,,,,,,,1115.0949073005468,None,,,,,,,,,,,,,,,,,,,,,,,,,,,,,,,,,,,,,,,,,,,,,,,,,,,,,,,,,diamond,146,109,silent,new,yellow,1113.5678935004398,None,n,1113.5678935004398,None,"['n', 'return']","[1.175238000229001, 1.479380700737238]",1113.5678935004398,None,,,46,001,2023_Apr_19_1135,ExactRep-v3-final,2021.2.3,59.91270717658033,
,,,,,,,,,,,,109,0,109,0,,,,,,,,,,,,,,,,,,,,,,,,,,,,,,,,,,,,,,,,,,,,,,,,,1120.3504008008167,None,,,,,,,,,,,,,,,,,,,,,,,,,,,,,,,,,,,,,,,,,,,,,,,,,,,,,,,,,woman,39,110,silent,old,yellow,1115.609999800101,None,n,1115.609999800101,None,"['n', 'return']","[4.365112599916756, 4.693193799816072]",1115.609999800101,None,,,46,001,2023_Apr_19_1135,ExactRep-v3-final,2021.2.3,59.91270717658033,
,,,,,,,,,,,,110,0,110,0,,,,,,,,,,,,,,,,,,,,,,,,,,,,,,,,,,,,,,,,,,,,,,,,,1123.5700684003532,None,,,,,,,,,,,,,,,,,,,,,,,,,,,,,,,,,,,,,,,,,,,,,,,,,,,,,,,,,letter,197,111,sing,new,yellow,1120.8614201005548,None,n,1120.8614201005548,None,"['n', 'return']","[0.9296455001458526, 2.6737408004701138]",1120.8614201005548,None,,,46,001,2023_Apr_19_1135,ExactRep-v3-final,2021.2.3,59.91270717658033,
,,,,,,,,,,,,111,0,111,0,,,,,,,,,,,,,,,,,,,,,,,,,,,,,,,,,,,,,,,,,,,,,,,,,1124.9714975999668,None,,,,,,,,,,,,,,,,,,,,,,,,,,,,,,,,,,,,,,,,,,,,,,,,,,,,,,,,,length,101,112,aloud,old,yellow,1124.0796138001606,None,n,1124.0796138001606,None,"['n', 'return']","[0.6315168002620339, 0.8474808996543288]",1124.0796138001606,None,,,46,001,2023_Apr_19_1135,ExactRep-v3-final,2021.2.3,59.91270717658033,
,,,,,,,,,,,,112,0,112,0,,,,,,,,,,,,,,,,,,,,,,,,,,,,,,,,,,,,,,,,,,,,,,,,,1126.8400036999956,None,,,,,,,,,,,,,,,,,,,,,,,,,,,,,,,,,,,,,,,,,,,,,,,,,,,,,,,,,cattle,117,113,aloud,old,yellow,1125.4838968003169,None,y,1125.4838968003169,None,"['y', 'return']","[0.9872943004593253, 1.3152187997475266]",1125.4838968003169,None,,,46,001,2023_Apr_19_1135,ExactRep-v3-final,2021.2.3,59.91270717658033,
,,,,,,,,,,,,113,0,113,0,,,,,,,,,,,,,,,,,,,,,,,,,,,,,,,,,,,,,,,,,,,,,,,,,1128.3415834000334,None,,,,,,,,,,,,,,,,,,,,,,,,,,,,,,,,,,,,,,,,,,,,,,,,,,,,,,,,,storm,182,114,aloud,new,yellow,1127.361530000344,None,n,1127.361530000344,None,"['n', 'return']","[0.7258737999945879, 0.93364969920367]",1127.361530000344,None,,,46,001,2023_Apr_19_1135,ExactRep-v3-final,2021.2.3,59.91270717658033,
,,,,,,,,,,,,114,0,114,0,,,,,,,,,,,,,,,,,,,,,,,,,,,,,,,,,,,,,,,,,,,,,,,,,1130.0265794005245,None,,,,,,,,,,,,,,,,,,,,,,,,,,,,,,,,,,,,,,,,,,,,,,,,,,,,,,,,,fur,125,115,silent,new,yellow,1128.8496585004032,None,n,1128.8496585004032,None,"['n', 'return']","[0.8854494001716375, 1.1415584003552794]",1128.8496585004032,None,,,46,001,2023_Apr_19_1135,ExactRep-v3-final,2021.2.3,59.91270717658033,
,,,,,,,,,,,,115,0,115,0,,,,,,,,,,,,,,,,,,,,,,,,,,,,,,,,,,,,,,,,,,,,,,,,,1133.4133131001145,None,,,,,,,,,,,,,,,,,,,,,,,,,,,,,,,,,,,,,,,,,,,,,,,,,,,,,,,,,teacher,113,116,aloud,old,yellow,1130.5365516999736,None,n,1130.5365516999736,None,"['n', 'return']","[2.5906779998913407, 2.830603299662471]",1130.5365516999736,None,,,46,001,2023_Apr_19_1135,ExactRep-v3-final,2021.2.3,59.91270717658033,
,,,,,,,,,,,,116,0,116,0,,,,,,,,,,,,,,,,,,,,,,,,,,,,,,,,,,,,,,,,,,,,,,,,,1134.8646814003587,None,,,,,,,,,,,,,,,,,,,,,,,,,,,,,,,,,,,,,,,,,,,,,,,,,,,,,,,,,fact,195,117,sing,new,yellow,1133.9220132008195,None,n,1133.9220132008195,None,"['n', 'return']","[0.6771526001393795, 0.901197699829936]",1133.9220132008195,None,,,46,001,2023_Apr_19_1135,ExactRep-v3-final,2021.2.3,59.91270717658033,
,,,,,,,,,,,,117,0,117,0,,,,,,,,,,,,,,,,,,,,,,,,,,,,,,,,,,,,,,,,,,,,,,,,,1136.8334126006812,None,,,,,,,,,,,,,,,,,,,,,,,,,,,,,,,,,,,,,,,,,,,,,,,,,,,,,,,,,blood,199,118,sing,new,yellow,1135.3789373002946,None,n,1135.3789373002946,None,"['n', 'return']","[1.0361021999269724, 1.4201242001727223]",1135.3789373002946,None,,,46,001,2023_Apr_19_1135,ExactRep-v3-final,2021.2.3,59.91270717658033,
,,,,,,,,,,,,118,0,118,0,,,,,,,,,,,,,,,,,,,,,,,,,,,,,,,,,,,,,,,,,,,,,,,,,1138.8353481004015,None,,,,,,,,,,,,,,,,,,,,,,,,,,,,,,,,,,,,,,,,,,,,,,,,,,,,,,,,,troops,129,119,silent,new,yellow,1137.3432713001966,None,n,1137.3432713001966,None,"['n', 'return']","[1.2238006005063653, 1.4478064998984337]",1137.3432713001966,None,,,46,001,2023_Apr_19_1135,ExactRep-v3-final,2021.2.3,59.91270717658033,
,,,,,,,,,,,,119,0,119,0,,,,,,,,,,,,,,,,,,,,,,,,,,,,,,,,,,,,,,,,,,,,,,,,,1140.2534314002842,None,,,,,,,,,,,,,,,,,,,,,,,,,,,,,,,,,,,,,,,,,,,,,,,,,,,,,,,,,horse,65,120,silent,old,yellow,1139.3452707007527,None,n,1139.3452707007527,None,"['n', 'return']","[0.6138665992766619, 0.8699626997113228]",1139.3452707007527,None,,,46,001,2023_Apr_19_1135,ExactRep-v3-final,2021.2.3,59.91270717658033,
,,,,,,,,,,,,120,0,120,0,,,,,,,,,,,,,,,,,,,,,,,,,,,,,,,,,,,,,,,,,,,,,,,,,1141.6214642003179,None,,,,,,,,,,,,,,,,,,,,,,,,,,,,,,,,,,,,,,,,,,,,,,,,,,,,,,,,,speech,109,121,aloud,old,yellow,1140.7644108003005,None,n,1140.7644108003005,None,"['n', 'return']","[0.5707392999902368, 0.8107543000951409]",1140.7644108003005,None,,,46,001,2023_Apr_19_1135,ExactRep-v3-final,2021.2.3,59.91270717658033,
,,,,,,,,,,,,121,0,121,0,,,,,,,,,,,,,,,,,,,,,,,,,,,,,,,,,,,,,,,,,,,,,,,,,1143.0728995008394,None,,,,,,,,,,,,,,,,,,,,,,,,,,,,,,,,,,,,,,,,,,,,,,,,,,,,,,,,,chief,44,122,silent,old,yellow,1142.131601500325,None,n,1142.131601500325,None,"['n', 'return']","[0.6515984004363418, 0.9074804000556469]",1142.131601500325,None,,,46,001,2023_Apr_19_1135,ExactRep-v3-final,2021.2.3,59.91270717658033,
,,,,,,,,,,,,122,0,122,0,,,,,,,,,,,,,,,,,,,,,,,,,,,,,,,,,,,,,,,,,,,,,,,,,1147.6107756001875,None,,,,,,,,,,,,,,,,,,,,,,,,,,,,,,,,,,,,,,,,,,,,,,,,,,,,,,,,,bird,7,123,sing,old,yellow,1143.5841673007235,None,n,1143.5841673007235,None,"['n', 'return']","[3.6549800001084805, 3.982912899926305]",1143.5841673007235,None,,,46,001,2023_Apr_19_1135,ExactRep-v3-final,2021.2.3,59.91270717658033,
,,,,,,,,,,,,123,0,123,0,,,,,,,,,,,,,,,,,,,,,,,,,,,,,,,,,,,,,,,,,,,,,,,,,1149.4793932000175,None,,,,,,,,,,,,,,,,,,,,,,,,,,,,,,,,,,,,,,,,,,,,,,,,,,,,,,,,,coast,187,124,sing,new,yellow,1148.1207469003275,None,n,1148.1207469003275,None,"['n', 'return']","[1.1746328007429838, 1.3266020007431507]",1148.1207469003275,None,,,46,001,2023_Apr_19_1135,ExactRep-v3-final,2021.2.3,59.91270717658033,
,,,,,,,,,,,,124,0,124,0,,,,,,,,,,,,,,,,,,,,,,,,,,,,,,,,,,,,,,,,,,,,,,,,,1150.9474567007273,None,,,,,,,,,,,,,,,,,,,,,,,,,,,,,,,,,,,,,,,,,,,,,,,,,,,,,,,,,science,70,125,silent,old,yellow,1149.9903220999986,None,n,1149.9903220999986,None,"['n', 'return']","[0.6887405002489686, 0.9208158003166318]",1149.9903220999986,None,,,46,001,2023_Apr_19_1135,ExactRep-v3-final,2021.2.3,59.91270717658033,
,,,,,,,,,,,,125,0,125,0,,,,,,,,,,,,,,,,,,,,,,,,,,,,,,,,,,,,,,,,,,,,,,,,,1152.448932500556,None,,,,,,,,,,,,,,,,,,,,,,,,,,,,,,,,,,,,,,,,,,,,,,,,,,,,,,,,,ticket,200,126,aloud,new,yellow,1151.456875800155,None,n,1151.456875800155,None,"['n', 'return']","[0.6783825000748038, 0.9583306005224586]",1151.456875800155,None,,,46,001,2023_Apr_19_1135,ExactRep-v3-final,2021.2.3,59.91270717658033,
,,,,,,,,,,,,126,0,126,0,,,,,,,,,,,,,,,,,,,,,,,,,,,,,,,,,,,,,,,,,,,,,,,,,1153.900385800749,None,,,,,,,,,,,,,,,,,,,,,,,,,,,,,,,,,,,,,,,,,,,,,,,,,,,,,,,,,lord,148,127,silent,new,yellow,1152.9579000007361,None,n,1152.9579000007361,None,"['n', 'return']","[0.6092934999614954, 0.8973273001611233]",1152.9579000007361,None,,,46,001,2023_Apr_19_1135,ExactRep-v3-final,2021.2.3,59.91270717658033,
,,,,,,,,,,,,127,0,127,0,,,,,,,,,,,,,,,,,,,,,,,,,,,,,,,,,,,,,,,,,,,,,,,,,1157.5539367003366,None,,,,,,,,,,,,,,,,,,,,,,,,,,,,,,,,,,,,,,,,,,,,,,,,,,,,,,,,,love,205,128,sing,new,yellow,1154.4097644006833,None,n,1154.4097644006833,None,"['n', 'return']","[0.5894243000075221, 3.085388000123203]",1154.4097644006833,None,,,46,001,2023_Apr_19_1135,ExactRep-v3-final,2021.2.3,59.91270717658033,
,,,,,,,,,,,,128,0,128,0,,,,,,,,,,,,,,,,,,,,,,,,,,,,,,,,,,,,,,,,,,,,,,,,,1161.7918121004477,None,,,,,,,,,,,,,,,,,,,,,,,,,,,,,,,,,,,,,,,,,,,,,,,,,,,,,,,,,style,163,129,sing,new,yellow,1158.066687900573,None,n,1158.066687900573,None,"['n', 'return']","[3.4528184002265334, 3.6924957996234298]",1158.066687900573,None,,,46,001,2023_Apr_19_1135,ExactRep-v3-final,2021.2.3,59.91270717658033,
,,,,,,,,,,,,129,0,129,0,,,,,,,,,,,,,,,,,,,,,,,,,,,,,,,,,,,,,,,,,,,,,,,,,1163.2431822000071,None,,,,,,,,,,,,,,,,,,,,,,,,,,,,,,,,,,,,,,,,,,,,,,,,,,,,,,,,,coin,114,130,aloud,old,yellow,1162.2981607001275,None,n,1162.2981607001275,None,"['n', 'return']","[0.644976600073278, 0.9009200995787978]",1162.2981607001275,None,,,46,001,2023_Apr_19_1135,ExactRep-v3-final,2021.2.3,59.91270717658033,
,,,,,,,,,,,,130,0,130,0,,,,,,,,,,,,,,,,,,,,,,,,,,,,,,,,,,,,,,,,,,,,,,,,,1164.7779130004346,None,,,,,,,,,,,,,,,,,,,,,,,,,,,,,,,,,,,,,,,,,,,,,,,,,,,,,,,,,law,33,131,sing,old,yellow,1163.7549998005852,None,n,1163.7549998005852,None,"['n', 'return']","[0.7641871999949217, 0.9881603000685573]",1163.7549998005852,None,,,46,001,2023_Apr_19_1135,ExactRep-v3-final,2021.2.3,59.91270717658033,
,,,,,,,,,,,,131,0,131,0,,,,,,,,,,,,,,,,,,,,,,,,,,,,,,,,,,,,,,,,,,,,,,,,,1166.1627254001796,None,,,,,,,,,,,,,,,,,,,,,,,,,,,,,,,,,,,,,,,,,,,,,,,,,,,,,,,,,cat,136,132,silent,new,yellow,1165.2867157999426,None,n,1165.2867157999426,None,"['n', 'return']","[0.6565316999331117, 0.8405392998829484]",1165.2867157999426,None,,,46,001,2023_Apr_19_1135,ExactRep-v3-final,2021.2.3,59.91270717658033,
