trials_fam.thisRepN,trials_fam.thisTrialN,trials_fam.thisN,trials_fam.thisIndex,trials_prc.thisRepN,trials_prc.thisTrialN,trials_prc.thisN,trials_prc.thisIndex,StudyLoop.thisRepN,StudyLoop.thisTrialN,StudyLoop.thisN,StudyLoop.thisIndex,TestLoop.thisRepN,TestLoop.thisTrialN,TestLoop.thisN,TestLoop.thisIndex,text_colortest.started,text_colortest.stopped,key_colortest.keys,key_colortest.rt,key_colortest.started,key_colortest.stopped,textCondition.started,textCondition.stopped,keyCondition.keys,keyCondition.rt,keyCondition.started,keyCondition.stopped,Condition_between,Condition_counterbal,keyWelcome.keys,keyWelcome.rt,keyWelcome.started,keyWelcome.stopped,welcome_a.started,welcome_a.stopped,welcome_b.started,welcome_b.stopped,welcome_c.started,welcome_c.stopped,welcome_d.started,welcome_d.stopped,welcome_e.started,welcome_e.stopped,welcome_f.started,welcome_f.stopped,key_resp_fam_inst.keys,key_resp_fam_inst.rt,key_resp_fam_inst.started,key_resp_fam_inst.stopped,fam_a.started,fam_a.stopped,fam_b.started,fam_b.stopped,fam_c.started,fam_c.stopped,fam_d.started,fam_d.stopped,fam_e.started,fam_e.stopped,fam_f.started,fam_f.stopped,text_famil.started,text_famil.stopped,textBlank500.started,textBlank500.stopped,key_resp_prc_inst.keys,key_resp_prc_inst.rt,key_resp_prc_inst.started,key_resp_prc_inst.stopped,prac_a.started,prac_a.stopped,prac_b.started,prac_b.stopped,prac_c.started,prac_c.stopped,prac_d.started,prac_d.stopped,prac_e.started,prac_e.stopped,prac_f.started,prac_f.stopped,text_prc_trial.started,text_prc_trial.stopped,key_resp_study_inst.keys,key_resp_study_inst.rt,key_resp_study_inst.started,key_resp_study_inst.stopped,crit_a.started,crit_a.stopped,crit_b.started,crit_b.stopped,crit_c.started,crit_c.stopped,crit_d.started,crit_d.stopped,crit_e.started,crit_e.stopped,crit_f.started,crit_f.stopped,study_word,study_num,study_order,study_type,word_color,textStudy.started,textStudy.stopped,keyStudy.keys,keyStudy.started,keyStudy.stopped,post_study.started,post_study.stopped,key_resp_post_study.keys,key_resp_post_study.rt,key_resp_post_study.started,key_resp_post_study.stopped,test_inst.started,test_inst.stopped,key_resp_test_inst.keys,key_resp_test_inst.rt,key_resp_test_inst.started,key_resp_test_inst.stopped,test_word,test_num,test_order,test_condition,old_new_test,word_color_test,textConf.started,textConf.stopped,Participant Response,textInput.started,textInput.stopped,keyResp.keys,keyResp.rt,keyResp.started,keyResp.stopped,textEnd.started,textEnd.stopped,participant,session,date,expName,psychopyVersion,frameRate,
,,,,,,,,,,,,,,,,39.30480869952589,None,n,0.44455190002918243,39.30480869952589,None,,,,,,,,,,,,,,,,,,,,,,,,,,,,,,,,,,,,,,,,,,,,,,,,,,,,,,,,,,,,,,,,,,,,,,,,,,,,,,,,,,,,,,,,,,,,,,,,,,,,,,,,,,,,,,,,,,,,,,47,001,2023_Apr_19_1200,ExactRep-v3-final,2021.2.3,59.976956831332714,
,,,,,,,,,,,,,,,,,,,,,,39.77181879989803,None,e,0.961480500176549,39.77181879989803,None,,,,,,,,,,,,,,,,,,,,,,,,,,,,,,,,,,,,,,,,,,,,,,,,,,,,,,,,,,,,,,,,,,,,,,,,,,,,,,,,,,,,,,,,,,,,,,,,,,,,,,,,,,,,,,,,47,001,2023_Apr_19_1200,ExactRep-v3-final,2021.2.3,59.976956831332714,
,,,,,,,,,,,,,,,,,,,,,,,,,,,,whitefoils,e,space,149.40041160024703,50.884932099841535,None,,,,,,,,,,,,,,,,,,,,,,,,,,,,,,,,,,,,,,,,,,,,,,,,,,,,,,,,,,,,,,,,,,,,,,,,,,,,,,,,,,,,,,,,,,,,,,,,,,,,,,,,,,47,001,2023_Apr_19_1200,ExactRep-v3-final,2021.2.3,59.976956831332714,
,,,,,,,,,,,,,,,,,,,,,,,,,,,,,,,,,,40.913604700006545,None,40.913604700006545,None,40.913604700006545,None,40.913604700006545,None,40.913604700006545,None,40.913604700006545,None,space,15.312715400010347,210.50063619948924,None,,,,,,,,,,,,,,,,,,,,,,,,,,,,,,,,,,,,,,,,,,,,,,,,,,,,,,,,,,,,,,,,,,,,,,,,,,,,,,,,,,,,,,,,,,47,001,2023_Apr_19_1200,ExactRep-v3-final,2021.2.3,59.976956831332714,
0,0,0,0,,,,,,,,,,,,,,,,,,,,,,,,,,,,,,,,,,,,,,,,,,,,,,,200.48170079942793,None,200.48170079942793,None,200.48170079942793,None,200.48170079942793,None,200.48170079942793,None,200.48170079942793,None,225.90989379957318,None,227.90986439958215,None,,,,,,,,,,,,,,,,,,,,,,,,,,,,,,,,,,,,,,,,,,,,,,,,,,,,,,,,,,,,,,,,,,,,,,,,,,47,001,2023_Apr_19_1200,ExactRep-v3-final,2021.2.3,59.976956831332714,
1,0,1,0,,,,,,,,,,,,,,,,,,,,,,,,,,,,,,,,,,,,,,,,,,,,,,,,,,,,,,,,,,,228.4230843996629,None,230.42904159985483,None,,,,,,,,,,,,,,,,,,,,,,,,,,,,,,,,,,,,,,,,,,,,,,,,,,,,,,,,,,,,,,,,,,,,,,,,,,47,001,2023_Apr_19_1200,ExactRep-v3-final,2021.2.3,59.976956831332714,
2,0,2,0,,,,,,,,,,,,,,,,,,,,,,,,,,,,,,,,,,,,,,,,,,,,,,,,,,,,,,,,,,,230.94784639962018,None,232.94807859975845,None,,,,,,,,,,,,,,,,,,,,,,,,,,,,,,,,,,,,,,,,,,,,,,,,,,,,,,,,,,,,,,,,,,,,,,,,,,47,001,2023_Apr_19_1200,ExactRep-v3-final,2021.2.3,59.976956831332714,
3,0,3,0,,,,,,,,,,,,,,,,,,,,,,,,,,,,,,,,,,,,,,,,,,,,,,,,,,,,,,,,,,,233.44873220007867,None,235.4505700999871,None,,,,,,,,,,,,,,,,,,,,,,,,,,,,,,,,,,,,,,,,,,,,,,,,,,,,,,,,,,,,,,,,,,,,,,,,,,47,001,2023_Apr_19_1200,ExactRep-v3-final,2021.2.3,59.976956831332714,
4,0,4,0,,,,,,,,,,,,,,,,,,,,,,,,,,,,,,,,,,,,,,,,,,,,,,,,,,,,,,,,,,,235.95154609996825,None,237.95298090018332,None,,,,,,,,,,,,,,,,,,,,,,,,,,,,,,,,,,,,,,,,,,,,,,,,,,,,,,,,,,,,,,,,,,,,,,,,,,47,001,2023_Apr_19_1200,ExactRep-v3-final,2021.2.3,59.976956831332714,
5,0,5,0,,,,,,,,,,,,,,,,,,,,,,,,,,,,,,,,,,,,,,,,,,,,,,,,,,,,,,,,,,,238.4592025000602,None,240.472249600105,None,,,,,,,,,,,,,,,,,,,,,,,,,,,,,,,,,,,,,,,,,,,,,,,,,,,,,,,,,,,,,,,,,,,,,,,,,,47,001,2023_Apr_19_1200,ExactRep-v3-final,2021.2.3,59.976956831332714,
6,0,6,0,,,,,,,,,,,,,,,,,,,,,,,,,,,,,,,,,,,,,,,,,,,,,,,,,,,,,,,,,,,240.97281999979168,None,242.97478189971298,None,,,,,,,,,,,,,,,,,,,,,,,,,,,,,,,,,,,,,,,,,,,,,,,,,,,,,,,,,,,,,,,,,,,,,,,,,,47,001,2023_Apr_19_1200,ExactRep-v3-final,2021.2.3,59.976956831332714,
7,0,7,0,,,,,,,,,,,,,,,,,,,,,,,,,,,,,,,,,,,,,,,,,,,,,,,,,,,,,,,,,,,243.47543609980494,None,245.4774346994236,None,,,,,,,,,,,,,,,,,,,,,,,,,,,,,,,,,,,,,,,,,,,,,,,,,,,,,,,,,,,,,,,,,,,,,,,,,,47,001,2023_Apr_19_1200,ExactRep-v3-final,2021.2.3,59.976956831332714,
8,0,8,0,,,,,,,,,,,,,,,,,,,,,,,,,,,,,,,,,,,,,,,,,,,,,,,,,,,,,,,,,,,245.9852646999061,None,247.99661719985306,None,,,,,,,,,,,,,,,,,,,,,,,,,,,,,,,,,,,,,,,,,,,,,,,,,,,,,,,,,,,,,,,,,,,,,,,,,,47,001,2023_Apr_19_1200,ExactRep-v3-final,2021.2.3,59.976956831332714,
9,0,9,0,,,,,,,,,,,,,,,,,,,,,,,,,,,,,,,,,,,,,,,,,,,,,,,,,,,,,,,,,,,248.49707109946758,None,250.49911480024457,None,,,,,,,,,,,,,,,,,,,,,,,,,,,,,,,,,,,,,,,,,,,,,,,,,,,,,,,,,,,,,,,,,,,,,,,,,,47,001,2023_Apr_19_1200,ExactRep-v3-final,2021.2.3,59.976956831332714,
10,0,10,0,,,,,,,,,,,,,,,,,,,,,,,,,,,,,,,,,,,,,,,,,,,,,,,,,,,,,,,,,,,250.99940259940922,None,253.00166280008852,None,,,,,,,,,,,,,,,,,,,,,,,,,,,,,,,,,,,,,,,,,,,,,,,,,,,,,,,,,,,,,,,,,,,,,,,,,,47,001,2023_Apr_19_1200,ExactRep-v3-final,2021.2.3,59.976956831332714,
11,0,11,0,,,,,,,,,,,,,,,,,,,,,,,,,,,,,,,,,,,,,,,,,,,,,,,,,,,,,,,,,,,253.50552949961275,None,255.52073989994824,None,,,,,,,,,,,,,,,,,,,,,,,,,,,,,,,,,,,,,,,,,,,,,,,,,,,,,,,,,,,,,,,,,,,,,,,,,,47,001,2023_Apr_19_1200,ExactRep-v3-final,2021.2.3,59.976956831332714,
12,0,12,0,,,,,,,,,,,,,,,,,,,,,,,,,,,,,,,,,,,,,,,,,,,,,,,,,,,,,,,,,,,256.0287774000317,None,258.0400799997151,None,,,,,,,,,,,,,,,,,,,,,,,,,,,,,,,,,,,,,,,,,,,,,,,,,,,,,,,,,,,,,,,,,,,,,,,,,,47,001,2023_Apr_19_1200,ExactRep-v3-final,2021.2.3,59.976956831332714,
13,0,13,0,,,,,,,,,,,,,,,,,,,,,,,,,,,,,,,,,,,,,,,,,,,,,,,,,,,,,,,,,,,258.5458875996992,None,260.55916769988835,None,,,,,,,,,,,,,,,,,,,,,,,,,,,,,,,,,,,,,,,,,,,,,,,,,,,,,,,,,,,,,,,,,,,,,,,,,,47,001,2023_Apr_19_1200,ExactRep-v3-final,2021.2.3,59.976956831332714,
14,0,14,0,,,,,,,,,,,,,,,,,,,,,,,,,,,,,,,,,,,,,,,,,,,,,,,,,,,,,,,,,,,261.05962369963527,None,263.0617159996182,None,,,,,,,,,,,,,,,,,,,,,,,,,,,,,,,,,,,,,,,,,,,,,,,,,,,,,,,,,,,,,,,,,,,,,,,,,,47,001,2023_Apr_19_1200,ExactRep-v3-final,2021.2.3,59.976956831332714,
,,,,,,,,,,,,,,,,,,,,,,,,,,,,,,,,,,,,,,,,,,,,,,,,,,,,,,,,,,,,,,,,,,space,18.499454000033438,273.6897927997634,None,,,,,,,,,,,,,,,,,,,,,,,,,,,,,,,,,,,,,,,,,,,,,,,,,,,,,,,,,,,,,,,,,,,,,,47,001,2023_Apr_19_1200,ExactRep-v3-final,2021.2.3,59.976956831332714,
,,,,0,0,0,0,,,,,,,,,,,,,,,,,,,,,,,,,,,,,,,,,,,,,,,,,,,,,,,,,,,,,,,,,294.3094306997955,None,,,,,263.692029800266,None,263.692029800266,None,263.692029800266,None,263.692029800266,None,263.692029800266,None,263.692029800266,None,292.3071579998359,None,,,,,,,,,,,,,,,,,,,,,,,,,,,,,,,,,,,,,,,,,,,,,,,,,,,,,,,,47,001,2023_Apr_19_1200,ExactRep-v3-final,2021.2.3,59.976956831332714,
,,,,1,0,1,0,,,,,,,,,,,,,,,,,,,,,,,,,,,,,,,,,,,,,,,,,,,,,,,,,,,,,,,,,296.81206270027906,None,,,,,,,,,,,,,,,,,294.80992329958826,None,,,,,,,,,,,,,,,,,,,,,,,,,,,,,,,,,,,,,,,,,,,,,,,,,,,,,,,,47,001,2023_Apr_19_1200,ExactRep-v3-final,2021.2.3,59.976956831332714,
,,,,2,0,2,0,,,,,,,,,,,,,,,,,,,,,,,,,,,,,,,,,,,,,,,,,,,,,,,,,,,,,,,,,299.3144648000598,None,,,,,,,,,,,,,,,,,297.3126246994361,None,,,,,,,,,,,,,,,,,,,,,,,,,,,,,,,,,,,,,,,,,,,,,,,,,,,,,,,,47,001,2023_Apr_19_1200,ExactRep-v3-final,2021.2.3,59.976956831332714,
,,,,3,0,3,0,,,,,,,,,,,,,,,,,,,,,,,,,,,,,,,,,,,,,,,,,,,,,,,,,,,,,,,,,301.81713159941137,None,,,,,,,,,,,,,,,,,299.8150247000158,None,,,,,,,,,,,,,,,,,,,,,,,,,,,,,,,,,,,,,,,,,,,,,,,,,,,,,,,,47,001,2023_Apr_19_1200,ExactRep-v3-final,2021.2.3,59.976956831332714,
,,,,4,0,4,0,,,,,,,,,,,,,,,,,,,,,,,,,,,,,,,,,,,,,,,,,,,,,,,,,,,,,,,,,304.31944559980184,None,,,,,,,,,,,,,,,,,302.31746040005237,None,,,,,,,,,,,,,,,,,,,,,,,,,,,,,,,,,,,,,,,,,,,,,,,,,,,,,,,,47,001,2023_Apr_19_1200,ExactRep-v3-final,2021.2.3,59.976956831332714,
,,,,5,0,5,0,,,,,,,,,,,,,,,,,,,,,,,,,,,,,,,,,,,,,,,,,,,,,,,,,,,,,,,,,306.82208620011806,None,,,,,,,,,,,,,,,,,304.82013519946486,None,,,,,,,,,,,,,,,,,,,,,,,,,,,,,,,,,,,,,,,,,,,,,,,,,,,,,,,,47,001,2023_Apr_19_1200,ExactRep-v3-final,2021.2.3,59.976956831332714,
,,,,6,0,6,0,,,,,,,,,,,,,,,,,,,,,,,,,,,,,,,,,,,,,,,,,,,,,,,,,,,,,,,,,309.32465470023453,None,,,,,,,,,,,,,,,,,307.32260520011187,None,,,,,,,,,,,,,,,,,,,,,,,,,,,,,,,,,,,,,,,,,,,,,,,,,,,,,,,,47,001,2023_Apr_19_1200,ExactRep-v3-final,2021.2.3,59.976956831332714,
,,,,7,0,7,0,,,,,,,,,,,,,,,,,,,,,,,,,,,,,,,,,,,,,,,,,,,,,,,,,,,,,,,,,311.8271559998393,None,,,,,,,,,,,,,,,,,309.82512259949,None,,,,,,,,,,,,,,,,,,,,,,,,,,,,,,,,,,,,,,,,,,,,,,,,,,,,,,,,47,001,2023_Apr_19_1200,ExactRep-v3-final,2021.2.3,59.976956831332714,
,,,,8,0,8,0,,,,,,,,,,,,,,,,,,,,,,,,,,,,,,,,,,,,,,,,,,,,,,,,,,,,,,,,,314.3294367995113,None,,,,,,,,,,,,,,,,,312.3274036999792,None,,,,,,,,,,,,,,,,,,,,,,,,,,,,,,,,,,,,,,,,,,,,,,,,,,,,,,,,47,001,2023_Apr_19_1200,ExactRep-v3-final,2021.2.3,59.976956831332714,
,,,,9,0,9,0,,,,,,,,,,,,,,,,,,,,,,,,,,,,,,,,,,,,,,,,,,,,,,,,,,,,,,,,,316.832047900185,None,,,,,,,,,,,,,,,,,314.82994799967855,None,,,,,,,,,,,,,,,,,,,,,,,,,,,,,,,,,,,,,,,,,,,,,,,,,,,,,,,,47,001,2023_Apr_19_1200,ExactRep-v3-final,2021.2.3,59.976956831332714,
,,,,10,0,10,0,,,,,,,,,,,,,,,,,,,,,,,,,,,,,,,,,,,,,,,,,,,,,,,,,,,,,,,,,319.3344794996083,None,,,,,,,,,,,,,,,,,317.3327834997326,None,,,,,,,,,,,,,,,,,,,,,,,,,,,,,,,,,,,,,,,,,,,,,,,,,,,,,,,,47,001,2023_Apr_19_1200,ExactRep-v3-final,2021.2.3,59.976956831332714,
,,,,11,0,11,0,,,,,,,,,,,,,,,,,,,,,,,,,,,,,,,,,,,,,,,,,,,,,,,,,,,,,,,,,321.8371425997466,None,,,,,,,,,,,,,,,,,319.83512549940497,None,,,,,,,,,,,,,,,,,,,,,,,,,,,,,,,,,,,,,,,,,,,,,,,,,,,,,,,,47,001,2023_Apr_19_1200,ExactRep-v3-final,2021.2.3,59.976956831332714,
,,,,12,0,12,0,,,,,,,,,,,,,,,,,,,,,,,,,,,,,,,,,,,,,,,,,,,,,,,,,,,,,,,,,324.3392920996994,None,,,,,,,,,,,,,,,,,322.3376732002944,None,,,,,,,,,,,,,,,,,,,,,,,,,,,,,,,,,,,,,,,,,,,,,,,,,,,,,,,,47,001,2023_Apr_19_1200,ExactRep-v3-final,2021.2.3,59.976956831332714,
,,,,13,0,13,0,,,,,,,,,,,,,,,,,,,,,,,,,,,,,,,,,,,,,,,,,,,,,,,,,,,,,,,,,326.84194870013744,None,,,,,,,,,,,,,,,,,324.8401822997257,None,,,,,,,,,,,,,,,,,,,,,,,,,,,,,,,,,,,,,,,,,,,,,,,,,,,,,,,,47,001,2023_Apr_19_1200,ExactRep-v3-final,2021.2.3,59.976956831332714,
,,,,14,0,14,0,,,,,,,,,,,,,,,,,,,,,,,,,,,,,,,,,,,,,,,,,,,,,,,,,,,,,,,,,329.34447900019586,None,,,,,,,,,,,,,,,,,327.342539999634,None,,,,,,,,,,,,,,,,,,,,,,,,,,,,,,,,,,,,,,,,,,,,,,,,,,,,,,,,47,001,2023_Apr_19_1200,ExactRep-v3-final,2021.2.3,59.976956831332714,
,,,,,,,,,,,,,,,,,,,,,,,,,,,,,,,,,,,,,,,,,,,,,,,,,,,,,,,,,,,,,,,,,,,,,,,,,,,,,,,,,,,,space,22.711714999750257,339.96564509999007,None,,,,,,,,,,,,,,,,,,,,,,,,,,,,,,,,,,,,,,,,,,,,,,,,,,,,47,001,2023_Apr_19_1200,ExactRep-v3-final,2021.2.3,59.976956831332714,
,,,,,,,,0,0,0,0,,,,,,,,,,,,,,,,,,,,,,,,,,,,,,,,,,,,,,,,,,,,,,,,,,,,,364.796821099706,None,,,,,,,,,,,,,,,,,,,,,,,330.0074418000877,None,330.0074418000877,None,330.0074418000877,None,330.0074418000877,None,330.0074418000877,None,330.0074418000877,None,origin,72,1,silent,red,362.789863999933,None,None,362.789863999933,None,,,,,,,,,,,,,,,,,,,,,,,,,,,,,,47,001,2023_Apr_19_1200,ExactRep-v3-final,2021.2.3,59.976956831332714,
,,,,,,,,1,0,1,0,,,,,,,,,,,,,,,,,,,,,,,,,,,,,,,,,,,,,,,,,,,,,,,,,,,,,367.31608510017395,None,,,,,,,,,,,,,,,,,,,,,,,,,,,,,,,,,,,author,42,2,silent,red,365.306390600279,None,None,365.306390600279,None,,,,,,,,,,,,,,,,,,,,,,,,,,,,,,47,001,2023_Apr_19_1200,ExactRep-v3-final,2021.2.3,59.976956831332714,
,,,,,,,,2,0,2,0,,,,,,,,,,,,,,,,,,,,,,,,,,,,,,,,,,,,,,,,,,,,,,,,,,,,,369.8349232003093,None,,,,,,,,,,,,,,,,,,,,,,,,,,,,,,,,,,,flood,21,3,sing,blue,367.8242384996265,None,None,367.8242384996265,None,,,,,,,,,,,,,,,,,,,,,,,,,,,,,,47,001,2023_Apr_19_1200,ExactRep-v3-final,2021.2.3,59.976956831332714,
,,,,,,,,3,0,3,0,,,,,,,,,,,,,,,,,,,,,,,,,,,,,,,,,,,,,,,,,,,,,,,,,,,,,372.35425500012934,None,,,,,,,,,,,,,,,,,,,,,,,,,,,,,,,,,,,volume,39,4,silent,red,370.3393013998866,None,None,370.3393013998866,None,,,,,,,,,,,,,,,,,,,,,,,,,,,,,,47,001,2023_Apr_19_1200,ExactRep-v3-final,2021.2.3,59.976956831332714,
,,,,,,,,4,0,4,0,,,,,,,,,,,,,,,,,,,,,,,,,,,,,,,,,,,,,,,,,,,,,,,,,,,,,374.85657959990203,None,,,,,,,,,,,,,,,,,,,,,,,,,,,,,,,,,,,toy,108,5,aloud,white,372.8547876998782,None,None,372.8547876998782,None,,,,,,,,,,,,,,,,,,,,,,,,,,,,,,47,001,2023_Apr_19_1200,ExactRep-v3-final,2021.2.3,59.976956831332714,
,,,,,,,,5,0,5,0,,,,,,,,,,,,,,,,,,,,,,,,,,,,,,,,,,,,,,,,,,,,,,,,,,,,,377.3758533000946,None,,,,,,,,,,,,,,,,,,,,,,,,,,,,,,,,,,,bowl,82,6,aloud,white,375.3616067999974,None,None,375.3616067999974,None,,,,,,,,,,,,,,,,,,,,,,,,,,,,,,47,001,2023_Apr_19_1200,ExactRep-v3-final,2021.2.3,59.976956831332714,
,,,,,,,,6,0,6,0,,,,,,,,,,,,,,,,,,,,,,,,,,,,,,,,,,,,,,,,,,,,,,,,,,,,,379.8951792996377,None,,,,,,,,,,,,,,,,,,,,,,,,,,,,,,,,,,,silence,70,7,silent,red,377.8858755994588,None,None,377.8858755994588,None,,,,,,,,,,,,,,,,,,,,,,,,,,,,,,47,001,2023_Apr_19_1200,ExactRep-v3-final,2021.2.3,59.976956831332714,
,,,,,,,,7,0,7,0,,,,,,,,,,,,,,,,,,,,,,,,,,,,,,,,,,,,,,,,,,,,,,,,,,,,,382.3977554999292,None,,,,,,,,,,,,,,,,,,,,,,,,,,,,,,,,,,,pride,28,8,sing,blue,380.39848900027573,None,None,380.39848900027573,None,,,,,,,,,,,,,,,,,,,,,,,,,,,,,,47,001,2023_Apr_19_1200,ExactRep-v3-final,2021.2.3,59.976956831332714,
,,,,,,,,8,0,8,0,,,,,,,,,,,,,,,,,,,,,,,,,,,,,,,,,,,,,,,,,,,,,,,,,,,,,384.91680230014026,None,,,,,,,,,,,,,,,,,,,,,,,,,,,,,,,,,,,lad,109,9,aloud,white,382.9027758995071,None,None,382.9027758995071,None,,,,,,,,,,,,,,,,,,,,,,,,,,,,,,47,001,2023_Apr_19_1200,ExactRep-v3-final,2021.2.3,59.976956831332714,
,,,,,,,,9,0,9,0,,,,,,,,,,,,,,,,,,,,,,,,,,,,,,,,,,,,,,,,,,,,,,,,,,,,,387.43603970017284,None,,,,,,,,,,,,,,,,,,,,,,,,,,,,,,,,,,,charm,75,10,silent,red,385.4247131003067,None,None,385.4247131003067,None,,,,,,,,,,,,,,,,,,,,,,,,,,,,,,47,001,2023_Apr_19_1200,ExactRep-v3-final,2021.2.3,59.976956831332714,
,,,,,,,,10,0,10,0,,,,,,,,,,,,,,,,,,,,,,,,,,,,,,,,,,,,,,,,,,,,,,,,,,,,,389.955282099545,None,,,,,,,,,,,,,,,,,,,,,,,,,,,,,,,,,,,trouble,57,11,silent,red,387.9398354999721,None,None,387.9398354999721,None,,,,,,,,,,,,,,,,,,,,,,,,,,,,,,47,001,2023_Apr_19_1200,ExactRep-v3-final,2021.2.3,59.976956831332714,
,,,,,,,,11,0,11,0,,,,,,,,,,,,,,,,,,,,,,,,,,,,,,,,,,,,,,,,,,,,,,,,,,,,,392.47437859978527,None,,,,,,,,,,,,,,,,,,,,,,,,,,,,,,,,,,,king,18,12,sing,blue,390.46183110028505,None,None,390.46183110028505,None,,,,,,,,,,,,,,,,,,,,,,,,,,,,,,47,001,2023_Apr_19_1200,ExactRep-v3-final,2021.2.3,59.976956831332714,
,,,,,,,,12,0,12,0,,,,,,,,,,,,,,,,,,,,,,,,,,,,,,,,,,,,,,,,,,,,,,,,,,,,,394.97685480024666,None,,,,,,,,,,,,,,,,,,,,,,,,,,,,,,,,,,,car,97,13,aloud,white,392.9746934995055,None,None,392.9746934995055,None,,,,,,,,,,,,,,,,,,,,,,,,,,,,,,47,001,2023_Apr_19_1200,ExactRep-v3-final,2021.2.3,59.976956831332714,
,,,,,,,,13,0,13,0,,,,,,,,,,,,,,,,,,,,,,,,,,,,,,,,,,,,,,,,,,,,,,,,,,,,,397.4961109003052,None,,,,,,,,,,,,,,,,,,,,,,,,,,,,,,,,,,,flesh,103,14,aloud,white,395.48748299945146,None,None,395.48748299945146,None,,,,,,,,,,,,,,,,,,,,,,,,,,,,,,47,001,2023_Apr_19_1200,ExactRep-v3-final,2021.2.3,59.976956831332714,
,,,,,,,,14,0,14,0,,,,,,,,,,,,,,,,,,,,,,,,,,,,,,,,,,,,,,,,,,,,,,,,,,,,,399.9987099999562,None,,,,,,,,,,,,,,,,,,,,,,,,,,,,,,,,,,,officer,76,15,silent,red,397.9981817994267,None,None,397.9981817994267,None,,,,,,,,,,,,,,,,,,,,,,,,,,,,,,47,001,2023_Apr_19_1200,ExactRep-v3-final,2021.2.3,59.976956831332714,
,,,,,,,,15,0,15,0,,,,,,,,,,,,,,,,,,,,,,,,,,,,,,,,,,,,,,,,,,,,,,,,,,,,,402.51780029945076,None,,,,,,,,,,,,,,,,,,,,,,,,,,,,,,,,,,,memory,117,16,aloud,white,400.5092776995152,None,None,400.5092776995152,None,,,,,,,,,,,,,,,,,,,,,,,,,,,,,,47,001,2023_Apr_19_1200,ExactRep-v3-final,2021.2.3,59.976956831332714,
,,,,,,,,16,0,16,0,,,,,,,,,,,,,,,,,,,,,,,,,,,,,,,,,,,,,,,,,,,,,,,,,,,,,405.02029910031706,None,,,,,,,,,,,,,,,,,,,,,,,,,,,,,,,,,,,fire,43,17,silent,red,403.020812000148,None,None,403.020812000148,None,,,,,,,,,,,,,,,,,,,,,,,,,,,,,,47,001,2023_Apr_19_1200,ExactRep-v3-final,2021.2.3,59.976956831332714,
,,,,,,,,17,0,17,0,,,,,,,,,,,,,,,,,,,,,,,,,,,,,,,,,,,,,,,,,,,,,,,,,,,,,407.52284139953554,None,,,,,,,,,,,,,,,,,,,,,,,,,,,,,,,,,,,house,60,18,silent,red,405.5231170002371,None,None,405.5231170002371,None,,,,,,,,,,,,,,,,,,,,,,,,,,,,,,47,001,2023_Apr_19_1200,ExactRep-v3-final,2021.2.3,59.976956831332714,
,,,,,,,,18,0,18,0,,,,,,,,,,,,,,,,,,,,,,,,,,,,,,,,,,,,,,,,,,,,,,,,,,,,,410.0418024994433,None,,,,,,,,,,,,,,,,,,,,,,,,,,,,,,,,,,,meeting,47,19,silent,red,408.02886459976435,None,None,408.02886459976435,None,,,,,,,,,,,,,,,,,,,,,,,,,,,,,,47,001,2023_Apr_19_1200,ExactRep-v3-final,2021.2.3,59.976956831332714,
,,,,,,,,19,0,19,0,,,,,,,,,,,,,,,,,,,,,,,,,,,,,,,,,,,,,,,,,,,,,,,,,,,,,412.54450219962746,None,,,,,,,,,,,,,,,,,,,,,,,,,,,,,,,,,,,colony,79,20,sing,blue,410.54246290028095,None,None,410.54246290028095,None,,,,,,,,,,,,,,,,,,,,,,,,,,,,,,47,001,2023_Apr_19_1200,ExactRep-v3-final,2021.2.3,59.976956831332714,
,,,,,,,,20,0,20,0,,,,,,,,,,,,,,,,,,,,,,,,,,,,,,,,,,,,,,,,,,,,,,,,,,,,,415.0469806995243,None,,,,,,,,,,,,,,,,,,,,,,,,,,,,,,,,,,,hall,99,21,aloud,white,413.0470375996083,None,None,413.0470375996083,None,,,,,,,,,,,,,,,,,,,,,,,,,,,,,,47,001,2023_Apr_19_1200,ExactRep-v3-final,2021.2.3,59.976956831332714,
,,,,,,,,21,0,21,0,,,,,,,,,,,,,,,,,,,,,,,,,,,,,,,,,,,,,,,,,,,,,,,,,,,,,417.5659085996449,None,,,,,,,,,,,,,,,,,,,,,,,,,,,,,,,,,,,iron,66,22,silent,red,415.553443999961,None,None,415.553443999961,None,,,,,,,,,,,,,,,,,,,,,,,,,,,,,,47,001,2023_Apr_19_1200,ExactRep-v3-final,2021.2.3,59.976956831332714,
,,,,,,,,22,0,22,0,,,,,,,,,,,,,,,,,,,,,,,,,,,,,,,,,,,,,,,,,,,,,,,,,,,,,420.08537319954485,None,,,,,,,,,,,,,,,,,,,,,,,,,,,,,,,,,,,storm,55,23,silent,red,418.0727811995894,None,None,418.0727811995894,None,,,,,,,,,,,,,,,,,,,,,,,,,,,,,,47,001,2023_Apr_19_1200,ExactRep-v3-final,2021.2.3,59.976956831332714,
,,,,,,,,23,0,23,0,,,,,,,,,,,,,,,,,,,,,,,,,,,,,,,,,,,,,,,,,,,,,,,,,,,,,422.6043735994026,None,,,,,,,,,,,,,,,,,,,,,,,,,,,,,,,,,,,tree,46,24,silent,red,420.58879179973155,None,None,420.58879179973155,None,,,,,,,,,,,,,,,,,,,,,,,,,,,,,,47,001,2023_Apr_19_1200,ExactRep-v3-final,2021.2.3,59.976956831332714,
,,,,,,,,24,0,24,0,,,,,,,,,,,,,,,,,,,,,,,,,,,,,,,,,,,,,,,,,,,,,,,,,,,,,425.1237396998331,None,,,,,,,,,,,,,,,,,,,,,,,,,,,,,,,,,,,soil,118,25,aloud,white,423.1087972000241,None,None,423.1087972000241,None,,,,,,,,,,,,,,,,,,,,,,,,,,,,,,47,001,2023_Apr_19_1200,ExactRep-v3-final,2021.2.3,59.976956831332714,
,,,,,,,,25,0,25,0,,,,,,,,,,,,,,,,,,,,,,,,,,,,,,,,,,,,,,,,,,,,,,,,,,,,,427.6261094994843,None,,,,,,,,,,,,,,,,,,,,,,,,,,,,,,,,,,,rock,6,26,sing,blue,425.6271871002391,None,None,425.6271871002391,None,,,,,,,,,,,,,,,,,,,,,,,,,,,,,,47,001,2023_Apr_19_1200,ExactRep-v3-final,2021.2.3,59.976956831332714,
,,,,,,,,26,0,26,0,,,,,,,,,,,,,,,,,,,,,,,,,,,,,,,,,,,,,,,,,,,,,,,,,,,,,430.1454918999225,None,,,,,,,,,,,,,,,,,,,,,,,,,,,,,,,,,,,table,80,27,aloud,white,428.13205059990287,None,None,428.13205059990287,None,,,,,,,,,,,,,,,,,,,,,,,,,,,,,,47,001,2023_Apr_19_1200,ExactRep-v3-final,2021.2.3,59.976956831332714,
,,,,,,,,27,0,27,0,,,,,,,,,,,,,,,,,,,,,,,,,,,,,,,,,,,,,,,,,,,,,,,,,,,,,432.64774399995804,None,,,,,,,,,,,,,,,,,,,,,,,,,,,,,,,,,,,gold,102,28,aloud,white,430.64571820013225,None,None,430.64571820013225,None,,,,,,,,,,,,,,,,,,,,,,,,,,,,,,47,001,2023_Apr_19_1200,ExactRep-v3-final,2021.2.3,59.976956831332714,
,,,,,,,,28,0,28,0,,,,,,,,,,,,,,,,,,,,,,,,,,,,,,,,,,,,,,,,,,,,,,,,,,,,,435.16695769969374,None,,,,,,,,,,,,,,,,,,,,,,,,,,,,,,,,,,,nail,19,29,sing,blue,433.1555078001693,None,None,433.1555078001693,None,,,,,,,,,,,,,,,,,,,,,,,,,,,,,,47,001,2023_Apr_19_1200,ExactRep-v3-final,2021.2.3,59.976956831332714,
,,,,,,,,29,0,29,0,,,,,,,,,,,,,,,,,,,,,,,,,,,,,,,,,,,,,,,,,,,,,,,,,,,,,437.66950120031834,None,,,,,,,,,,,,,,,,,,,,,,,,,,,,,,,,,,,virtue,29,30,sing,blue,435.66746800020337,None,None,435.66746800020337,None,,,,,,,,,,,,,,,,,,,,,,,,,,,,,,47,001,2023_Apr_19_1200,ExactRep-v3-final,2021.2.3,59.976956831332714,
,,,,,,,,30,0,30,0,,,,,,,,,,,,,,,,,,,,,,,,,,,,,,,,,,,,,,,,,,,,,,,,,,,,,440.18873250018805,None,,,,,,,,,,,,,,,,,,,,,,,,,,,,,,,,,,,star,92,31,aloud,white,438.1742230001837,None,None,438.1742230001837,None,,,,,,,,,,,,,,,,,,,,,,,,,,,,,,47,001,2023_Apr_19_1200,ExactRep-v3-final,2021.2.3,59.976956831332714,
,,,,,,,,31,0,31,0,,,,,,,,,,,,,,,,,,,,,,,,,,,,,,,,,,,,,,,,,,,,,,,,,,,,,442.69114369992167,None,,,,,,,,,,,,,,,,,,,,,,,,,,,,,,,,,,,potato,74,32,silent,red,440.689115899615,None,None,440.689115899615,None,,,,,,,,,,,,,,,,,,,,,,,,,,,,,,47,001,2023_Apr_19_1200,ExactRep-v3-final,2021.2.3,59.976956831332714,
,,,,,,,,32,0,32,0,,,,,,,,,,,,,,,,,,,,,,,,,,,,,,,,,,,,,,,,,,,,,,,,,,,,,445.1936568999663,None,,,,,,,,,,,,,,,,,,,,,,,,,,,,,,,,,,,idea,111,33,aloud,white,443.1946117002517,None,None,443.1946117002517,None,,,,,,,,,,,,,,,,,,,,,,,,,,,,,,47,001,2023_Apr_19_1200,ExactRep-v3-final,2021.2.3,59.976956831332714,
,,,,,,,,33,0,33,0,,,,,,,,,,,,,,,,,,,,,,,,,,,,,,,,,,,,,,,,,,,,,,,,,,,,,447.71288589946926,None,,,,,,,,,,,,,,,,,,,,,,,,,,,,,,,,,,,circle,83,34,aloud,white,445.70123390015215,None,None,445.70123390015215,None,,,,,,,,,,,,,,,,,,,,,,,,,,,,,,47,001,2023_Apr_19_1200,ExactRep-v3-final,2021.2.3,59.976956831332714,
,,,,,,,,34,0,34,0,,,,,,,,,,,,,,,,,,,,,,,,,,,,,,,,,,,,,,,,,,,,,,,,,,,,,450.21535119973123,None,,,,,,,,,,,,,,,,,,,,,,,,,,,,,,,,,,,fortune,17,35,sing,blue,448.21339809987694,None,None,448.21339809987694,None,,,,,,,,,,,,,,,,,,,,,,,,,,,,,,47,001,2023_Apr_19_1200,ExactRep-v3-final,2021.2.3,59.976956831332714,
,,,,,,,,35,0,35,0,,,,,,,,,,,,,,,,,,,,,,,,,,,,,,,,,,,,,,,,,,,,,,,,,,,,,452.71797090023756,None,,,,,,,,,,,,,,,,,,,,,,,,,,,,,,,,,,,ability,63,36,silent,red,450.715525300242,None,None,450.715525300242,None,,,,,,,,,,,,,,,,,,,,,,,,,,,,,,47,001,2023_Apr_19_1200,ExactRep-v3-final,2021.2.3,59.976956831332714,
,,,,,,,,36,0,36,0,,,,,,,,,,,,,,,,,,,,,,,,,,,,,,,,,,,,,,,,,,,,,,,,,,,,,455.220316699706,None,,,,,,,,,,,,,,,,,,,,,,,,,,,,,,,,,,,prison,61,37,silent,red,453.21847699955106,None,None,453.21847699955106,None,,,,,,,,,,,,,,,,,,,,,,,,,,,,,,47,001,2023_Apr_19_1200,ExactRep-v3-final,2021.2.3,59.976956831332714,
,,,,,,,,37,0,37,0,,,,,,,,,,,,,,,,,,,,,,,,,,,,,,,,,,,,,,,,,,,,,,,,,,,,,457.7231029001996,None,,,,,,,,,,,,,,,,,,,,,,,,,,,,,,,,,,,leader,100,38,aloud,white,455.72120360005647,None,None,455.72120360005647,None,,,,,,,,,,,,,,,,,,,,,,,,,,,,,,47,001,2023_Apr_19_1200,ExactRep-v3-final,2021.2.3,59.976956831332714,
,,,,,,,,38,0,38,0,,,,,,,,,,,,,,,,,,,,,,,,,,,,,,,,,,,,,,,,,,,,,,,,,,,,,460.2254894999787,None,,,,,,,,,,,,,,,,,,,,,,,,,,,,,,,,,,,hour,91,39,aloud,white,458.2253673998639,None,None,458.2253673998639,None,,,,,,,,,,,,,,,,,,,,,,,,,,,,,,47,001,2023_Apr_19_1200,ExactRep-v3-final,2021.2.3,59.976956831332714,
,,,,,,,,39,0,39,0,,,,,,,,,,,,,,,,,,,,,,,,,,,,,,,,,,,,,,,,,,,,,,,,,,,,,462.72799939941615,None,,,,,,,,,,,,,,,,,,,,,,,,,,,,,,,,,,,coffee,53,40,silent,red,460.7286924002692,None,None,460.7286924002692,None,,,,,,,,,,,,,,,,,,,,,,,,,,,,,,47,001,2023_Apr_19_1200,ExactRep-v3-final,2021.2.3,59.976956831332714,
,,,,,,,,40,0,40,0,,,,,,,,,,,,,,,,,,,,,,,,,,,,,,,,,,,,,,,,,,,,,,,,,,,,,465.24701539985836,None,,,,,,,,,,,,,,,,,,,,,,,,,,,,,,,,,,,grass,8,41,sing,blue,463.23440110031515,None,None,463.23440110031515,None,,,,,,,,,,,,,,,,,,,,,,,,,,,,,,47,001,2023_Apr_19_1200,ExactRep-v3-final,2021.2.3,59.976956831332714,
,,,,,,,,41,0,41,0,,,,,,,,,,,,,,,,,,,,,,,,,,,,,,,,,,,,,,,,,,,,,,,,,,,,,467.74950959999114,None,,,,,,,,,,,,,,,,,,,,,,,,,,,,,,,,,,,cost,114,42,aloud,white,465.74814820010215,None,None,465.74814820010215,None,,,,,,,,,,,,,,,,,,,,,,,,,,,,,,47,001,2023_Apr_19_1200,ExactRep-v3-final,2021.2.3,59.976956831332714,
,,,,,,,,42,0,42,0,,,,,,,,,,,,,,,,,,,,,,,,,,,,,,,,,,,,,,,,,,,,,,,,,,,,,470.2522761998698,None,,,,,,,,,,,,,,,,,,,,,,,,,,,,,,,,,,,opinion,14,43,sing,blue,468.25152119994164,None,None,468.25152119994164,None,,,,,,,,,,,,,,,,,,,,,,,,,,,,,,47,001,2023_Apr_19_1200,ExactRep-v3-final,2021.2.3,59.976956831332714,
,,,,,,,,43,0,43,0,,,,,,,,,,,,,,,,,,,,,,,,,,,,,,,,,,,,,,,,,,,,,,,,,,,,,472.7546819001436,None,,,,,,,,,,,,,,,,,,,,,,,,,,,,,,,,,,,theory,94,44,aloud,white,470.75538159999996,None,None,470.75538159999996,None,,,,,,,,,,,,,,,,,,,,,,,,,,,,,,47,001,2023_Apr_19_1200,ExactRep-v3-final,2021.2.3,59.976956831332714,
,,,,,,,,44,0,44,0,,,,,,,,,,,,,,,,,,,,,,,,,,,,,,,,,,,,,,,,,,,,,,,,,,,,,475.257229199633,None,,,,,,,,,,,,,,,,,,,,,,,,,,,,,,,,,,,artist,71,45,silent,red,473.258088699542,None,None,473.258088699542,None,,,,,,,,,,,,,,,,,,,,,,,,,,,,,,47,001,2023_Apr_19_1200,ExactRep-v3-final,2021.2.3,59.976956831332714,
,,,,,,,,45,0,45,0,,,,,,,,,,,,,,,,,,,,,,,,,,,,,,,,,,,,,,,,,,,,,,,,,,,,,477.77626589965075,None,,,,,,,,,,,,,,,,,,,,,,,,,,,,,,,,,,,door,90,46,aloud,white,475.76075959950686,None,None,475.76075959950686,None,,,,,,,,,,,,,,,,,,,,,,,,,,,,,,47,001,2023_Apr_19_1200,ExactRep-v3-final,2021.2.3,59.976956831332714,
,,,,,,,,46,0,46,0,,,,,,,,,,,,,,,,,,,,,,,,,,,,,,,,,,,,,,,,,,,,,,,,,,,,,480.27901079971343,None,,,,,,,,,,,,,,,,,,,,,,,,,,,,,,,,,,,bar,96,47,aloud,white,478.2767658000812,None,None,478.2767658000812,None,,,,,,,,,,,,,,,,,,,,,,,,,,,,,,47,001,2023_Apr_19_1200,ExactRep-v3-final,2021.2.3,59.976956831332714,
,,,,,,,,47,0,47,0,,,,,,,,,,,,,,,,,,,,,,,,,,,,,,,,,,,,,,,,,,,,,,,,,,,,,482.7812350001186,None,,,,,,,,,,,,,,,,,,,,,,,,,,,,,,,,,,,girl,59,48,silent,red,480.77901559975,None,None,480.77901559975,None,,,,,,,,,,,,,,,,,,,,,,,,,,,,,,47,001,2023_Apr_19_1200,ExactRep-v3-final,2021.2.3,59.976956831332714,
,,,,,,,,48,0,48,0,,,,,,,,,,,,,,,,,,,,,,,,,,,,,,,,,,,,,,,,,,,,,,,,,,,,,485.2838822994381,None,,,,,,,,,,,,,,,,,,,,,,,,,,,,,,,,,,,friend,38,49,sing,blue,483.28436660021544,None,None,483.28436660021544,None,,,,,,,,,,,,,,,,,,,,,,,,,,,,,,47,001,2023_Apr_19_1200,ExactRep-v3-final,2021.2.3,59.976956831332714,
,,,,,,,,49,0,49,0,,,,,,,,,,,,,,,,,,,,,,,,,,,,,,,,,,,,,,,,,,,,,,,,,,,,,487.7864002995193,None,,,,,,,,,,,,,,,,,,,,,,,,,,,,,,,,,,,fault,95,50,aloud,white,485.7861379003152,None,None,485.7861379003152,None,,,,,,,,,,,,,,,,,,,,,,,,,,,,,,47,001,2023_Apr_19_1200,ExactRep-v3-final,2021.2.3,59.976956831332714,
,,,,,,,,50,0,50,0,,,,,,,,,,,,,,,,,,,,,,,,,,,,,,,,,,,,,,,,,,,,,,,,,,,,,490.2890197997913,None,,,,,,,,,,,,,,,,,,,,,,,,,,,,,,,,,,,woods,77,51,silent,red,488.2890469999984,None,None,488.2890469999984,None,,,,,,,,,,,,,,,,,,,,,,,,,,,,,,47,001,2023_Apr_19_1200,ExactRep-v3-final,2021.2.3,59.976956831332714,
,,,,,,,,51,0,51,0,,,,,,,,,,,,,,,,,,,,,,,,,,,,,,,,,,,,,,,,,,,,,,,,,,,,,492.8082043994218,None,,,,,,,,,,,,,,,,,,,,,,,,,,,,,,,,,,,avenue,0,52,sing,blue,490.7961651002988,None,None,490.7961651002988,None,,,,,,,,,,,,,,,,,,,,,,,,,,,,,,47,001,2023_Apr_19_1200,ExactRep-v3-final,2021.2.3,59.976956831332714,
,,,,,,,,52,0,52,0,,,,,,,,,,,,,,,,,,,,,,,,,,,,,,,,,,,,,,,,,,,,,,,,,,,,,495.310630899854,None,,,,,,,,,,,,,,,,,,,,,,,,,,,,,,,,,,,engine,12,53,sing,blue,493.3084023995325,None,None,493.3084023995325,None,,,,,,,,,,,,,,,,,,,,,,,,,,,,,,47,001,2023_Apr_19_1200,ExactRep-v3-final,2021.2.3,59.976956831332714,
,,,,,,,,53,0,53,0,,,,,,,,,,,,,,,,,,,,,,,,,,,,,,,,,,,,,,,,,,,,,,,,,,,,,497.8136921999976,None,,,,,,,,,,,,,,,,,,,,,,,,,,,,,,,,,,,body,1,54,sing,blue,495.8126948000863,None,None,495.8126948000863,None,,,,,,,,,,,,,,,,,,,,,,,,,,,,,,47,001,2023_Apr_19_1200,ExactRep-v3-final,2021.2.3,59.976956831332714,
,,,,,,,,54,0,54,0,,,,,,,,,,,,,,,,,,,,,,,,,,,,,,,,,,,,,,,,,,,,,,,,,,,,,500.31555079948157,None,,,,,,,,,,,,,,,,,,,,,,,,,,,,,,,,,,,gift,115,55,aloud,white,498.3156078001484,None,None,498.3156078001484,None,,,,,,,,,,,,,,,,,,,,,,,,,,,,,,47,001,2023_Apr_19_1200,ExactRep-v3-final,2021.2.3,59.976956831332714,
,,,,,,,,55,0,55,0,,,,,,,,,,,,,,,,,,,,,,,,,,,,,,,,,,,,,,,,,,,,,,,,,,,,,502.8181277997792,None,,,,,,,,,,,,,,,,,,,,,,,,,,,,,,,,,,,moral,33,56,sing,blue,500.8187668994069,None,None,500.8187668994069,None,,,,,,,,,,,,,,,,,,,,,,,,,,,,,,47,001,2023_Apr_19_1200,ExactRep-v3-final,2021.2.3,59.976956831332714,
,,,,,,,,56,0,56,0,,,,,,,,,,,,,,,,,,,,,,,,,,,,,,,,,,,,,,,,,,,,,,,,,,,,,505.3206040998921,None,,,,,,,,,,,,,,,,,,,,,,,,,,,,,,,,,,,cattle,93,57,aloud,white,503.3199598994106,None,None,503.3199598994106,None,,,,,,,,,,,,,,,,,,,,,,,,,,,,,,47,001,2023_Apr_19_1200,ExactRep-v3-final,2021.2.3,59.976956831332714,
,,,,,,,,57,0,57,0,,,,,,,,,,,,,,,,,,,,,,,,,,,,,,,,,,,,,,,,,,,,,,,,,,,,,507.8397650998086,None,,,,,,,,,,,,,,,,,,,,,,,,,,,,,,,,,,,book,3,58,sing,blue,505.82473429944366,None,None,505.82473429944366,None,,,,,,,,,,,,,,,,,,,,,,,,,,,,,,47,001,2023_Apr_19_1200,ExactRep-v3-final,2021.2.3,59.976956831332714,
,,,,,,,,58,0,58,0,,,,,,,,,,,,,,,,,,,,,,,,,,,,,,,,,,,,,,,,,,,,,,,,,,,,,510.3422735994682,None,,,,,,,,,,,,,,,,,,,,,,,,,,,,,,,,,,,college,54,59,silent,red,508.34155979938805,None,None,508.34155979938805,None,,,,,,,,,,,,,,,,,,,,,,,,,,,,,,47,001,2023_Apr_19_1200,ExactRep-v3-final,2021.2.3,59.976956831332714,
,,,,,,,,59,0,59,0,,,,,,,,,,,,,,,,,,,,,,,,,,,,,,,,,,,,,,,,,,,,,,,,,,,,,512.8614782001823,None,,,,,,,,,,,,,,,,,,,,,,,,,,,,,,,,,,,justice,69,60,silent,red,510.86045620031655,None,None,510.86045620031655,None,,,,,,,,,,,,,,,,,,,,,,,,,,,,,,47,001,2023_Apr_19_1200,ExactRep-v3-final,2021.2.3,59.976956831332714,
,,,,,,,,60,0,60,0,,,,,,,,,,,,,,,,,,,,,,,,,,,,,,,,,,,,,,,,,,,,,,,,,,,,,515.3640946000814,None,,,,,,,,,,,,,,,,,,,,,,,,,,,,,,,,,,,wheat,44,61,silent,red,513.3642226997763,None,None,513.3642226997763,None,,,,,,,,,,,,,,,,,,,,,,,,,,,,,,47,001,2023_Apr_19_1200,ExactRep-v3-final,2021.2.3,59.976956831332714,
,,,,,,,,61,0,61,0,,,,,,,,,,,,,,,,,,,,,,,,,,,,,,,,,,,,,,,,,,,,,,,,,,,,,517.8831022996455,None,,,,,,,,,,,,,,,,,,,,,,,,,,,,,,,,,,,devil,65,62,silent,red,515.870307199657,None,None,515.870307199657,None,,,,,,,,,,,,,,,,,,,,,,,,,,,,,,47,001,2023_Apr_19_1200,ExactRep-v3-final,2021.2.3,59.976956831332714,
,,,,,,,,62,0,62,0,,,,,,,,,,,,,,,,,,,,,,,,,,,,,,,,,,,,,,,,,,,,,,,,,,,,,520.3927900996059,None,,,,,,,,,,,,,,,,,,,,,,,,,,,,,,,,,,,science,25,63,sing,blue,518.3835140997544,None,None,518.3835140997544,None,,,,,,,,,,,,,,,,,,,,,,,,,,,,,,47,001,2023_Apr_19_1200,ExactRep-v3-final,2021.2.3,59.976956831332714,
,,,,,,,,63,0,63,0,,,,,,,,,,,,,,,,,,,,,,,,,,,,,,,,,,,,,,,,,,,,,,,,,,,,,522.9048913000152,None,,,,,,,,,,,,,,,,,,,,,,,,,,,,,,,,,,,meadow,81,64,aloud,white,520.9026700994,None,None,520.9026700994,None,,,,,,,,,,,,,,,,,,,,,,,,,,,,,,47,001,2023_Apr_19_1200,ExactRep-v3-final,2021.2.3,59.976956831332714,
,,,,,,,,64,0,64,0,,,,,,,,,,,,,,,,,,,,,,,,,,,,,,,,,,,,,,,,,,,,,,,,,,,,,525.4071455001831,None,,,,,,,,,,,,,,,,,,,,,,,,,,,,,,,,,,,letter,110,65,aloud,white,523.4070026995614,None,None,523.4070026995614,None,,,,,,,,,,,,,,,,,,,,,,,,,,,,,,47,001,2023_Apr_19_1200,ExactRep-v3-final,2021.2.3,59.976956831332714,
,,,,,,,,65,0,65,0,,,,,,,,,,,,,,,,,,,,,,,,,,,,,,,,,,,,,,,,,,,,,,,,,,,,,527.9099803995341,None,,,,,,,,,,,,,,,,,,,,,,,,,,,,,,,,,,,sea,104,66,aloud,white,525.9097333000973,None,None,525.9097333000973,None,,,,,,,,,,,,,,,,,,,,,,,,,,,,,,47,001,2023_Apr_19_1200,ExactRep-v3-final,2021.2.3,59.976956831332714,
,,,,,,,,66,0,66,0,,,,,,,,,,,,,,,,,,,,,,,,,,,,,,,,,,,,,,,,,,,,,,,,,,,,,530.428941199556,None,,,,,,,,,,,,,,,,,,,,,,,,,,,,,,,,,,,cabin,67,67,silent,red,528.4158042995259,None,None,528.4158042995259,None,,,,,,,,,,,,,,,,,,,,,,,,,,,,,,47,001,2023_Apr_19_1200,ExactRep-v3-final,2021.2.3,59.976956831332714,
,,,,,,,,67,0,67,0,,,,,,,,,,,,,,,,,,,,,,,,,,,,,,,,,,,,,,,,,,,,,,,,,,,,,532.9314008001238,None,,,,,,,,,,,,,,,,,,,,,,,,,,,,,,,,,,,temple,52,68,silent,red,530.9308385001495,None,None,530.9308385001495,None,,,,,,,,,,,,,,,,,,,,,,,,,,,,,,47,001,2023_Apr_19_1200,ExactRep-v3-final,2021.2.3,59.976956831332714,
,,,,,,,,68,0,68,0,,,,,,,,,,,,,,,,,,,,,,,,,,,,,,,,,,,,,,,,,,,,,,,,,,,,,535.4505399996415,None,,,,,,,,,,,,,,,,,,,,,,,,,,,,,,,,,,,lake,85,69,aloud,white,533.4419940998778,None,None,533.4419940998778,None,,,,,,,,,,,,,,,,,,,,,,,,,,,,,,47,001,2023_Apr_19_1200,ExactRep-v3-final,2021.2.3,59.976956831332714,
,,,,,,,,69,0,69,0,,,,,,,,,,,,,,,,,,,,,,,,,,,,,,,,,,,,,,,,,,,,,,,,,,,,,537.9531555995345,None,,,,,,,,,,,,,,,,,,,,,,,,,,,,,,,,,,,diamond,40,70,silent,red,535.9511709995568,None,None,535.9511709995568,None,,,,,,,,,,,,,,,,,,,,,,,,,,,,,,47,001,2023_Apr_19_1200,ExactRep-v3-final,2021.2.3,59.976956831332714,
,,,,,,,,70,0,70,0,,,,,,,,,,,,,,,,,,,,,,,,,,,,,,,,,,,,,,,,,,,,,,,,,,,,,540.4555963994935,None,,,,,,,,,,,,,,,,,,,,,,,,,,,,,,,,,,,event,88,71,aloud,white,538.4535354999825,None,None,538.4535354999825,None,,,,,,,,,,,,,,,,,,,,,,,,,,,,,,47,001,2023_Apr_19_1200,ExactRep-v3-final,2021.2.3,59.976956831332714,
,,,,,,,,71,0,71,0,,,,,,,,,,,,,,,,,,,,,,,,,,,,,,,,,,,,,,,,,,,,,,,,,,,,,542.9580777995288,None,,,,,,,,,,,,,,,,,,,,,,,,,,,,,,,,,,,machine,62,72,silent,red,540.9573959996924,None,None,540.9573959996924,None,,,,,,,,,,,,,,,,,,,,,,,,,,,,,,47,001,2023_Apr_19_1200,ExactRep-v3-final,2021.2.3,59.976956831332714,
,,,,,,,,72,0,72,0,,,,,,,,,,,,,,,,,,,,,,,,,,,,,,,,,,,,,,,,,,,,,,,,,,,,,545.4772624997422,None,,,,,,,,,,,,,,,,,,,,,,,,,,,,,,,,,,,child,20,73,sing,blue,543.4670396996662,None,None,543.4670396996662,None,,,,,,,,,,,,,,,,,,,,,,,,,,,,,,47,001,2023_Apr_19_1200,ExactRep-v3-final,2021.2.3,59.976956831332714,
,,,,,,,,73,0,73,0,,,,,,,,,,,,,,,,,,,,,,,,,,,,,,,,,,,,,,,,,,,,,,,,,,,,,547.9799522999674,None,,,,,,,,,,,,,,,,,,,,,,,,,,,,,,,,,,,life,51,74,silent,red,545.9778402000666,None,None,545.9778402000666,None,,,,,,,,,,,,,,,,,,,,,,,,,,,,,,47,001,2023_Apr_19_1200,ExactRep-v3-final,2021.2.3,59.976956831332714,
,,,,,,,,74,0,74,0,,,,,,,,,,,,,,,,,,,,,,,,,,,,,,,,,,,,,,,,,,,,,,,,,,,,,550.4991600001231,None,,,,,,,,,,,,,,,,,,,,,,,,,,,,,,,,,,,chair,37,75,sing,blue,548.4845519000664,None,None,548.4845519000664,None,,,,,,,,,,,,,,,,,,,,,,,,,,,,,,47,001,2023_Apr_19_1200,ExactRep-v3-final,2021.2.3,59.976956831332714,
,,,,,,,,75,0,75,0,,,,,,,,,,,,,,,,,,,,,,,,,,,,,,,,,,,,,,,,,,,,,,,,,,,,,553.0183442998677,None,,,,,,,,,,,,,,,,,,,,,,,,,,,,,,,,,,,pupil,86,76,aloud,white,551.0029018996283,None,None,551.0029018996283,None,,,,,,,,,,,,,,,,,,,,,,,,,,,,,,47,001,2023_Apr_19_1200,ExactRep-v3-final,2021.2.3,59.976956831332714,
,,,,,,,,76,0,76,0,,,,,,,,,,,,,,,,,,,,,,,,,,,,,,,,,,,,,,,,,,,,,,,,,,,,,555.5208104001358,None,,,,,,,,,,,,,,,,,,,,,,,,,,,,,,,,,,,hope,119,77,aloud,white,553.5212282994762,None,None,553.5212282994762,None,,,,,,,,,,,,,,,,,,,,,,,,,,,,,,47,001,2023_Apr_19_1200,ExactRep-v3-final,2021.2.3,59.976956831332714,
,,,,,,,,77,0,77,0,,,,,,,,,,,,,,,,,,,,,,,,,,,,,,,,,,,,,,,,,,,,,,,,,,,,,558.0398543998599,None,,,,,,,,,,,,,,,,,,,,,,,,,,,,,,,,,,,corn,50,78,silent,red,556.0256564002484,None,None,556.0256564002484,None,,,,,,,,,,,,,,,,,,,,,,,,,,,,,,47,001,2023_Apr_19_1200,ExactRep-v3-final,2021.2.3,59.976956831332714,
,,,,,,,,78,0,78,0,,,,,,,,,,,,,,,,,,,,,,,,,,,,,,,,,,,,,,,,,,,,,,,,,,,,,560.5589774996042,None,,,,,,,,,,,,,,,,,,,,,,,,,,,,,,,,,,,judge,73,79,silent,red,558.5459113996476,None,None,558.5459113996476,None,,,,,,,,,,,,,,,,,,,,,,,,,,,,,,47,001,2023_Apr_19_1200,ExactRep-v3-final,2021.2.3,59.976956831332714,
,,,,,,,,79,0,79,0,,,,,,,,,,,,,,,,,,,,,,,,,,,,,,,,,,,,,,,,,,,,,,,,,,,,,563.0616728002205,None,,,,,,,,,,,,,,,,,,,,,,,,,,,,,,,,,,,disease,9,80,sing,blue,561.0595349995419,None,None,561.0595349995419,None,,,,,,,,,,,,,,,,,,,,,,,,,,,,,,47,001,2023_Apr_19_1200,ExactRep-v3-final,2021.2.3,59.976956831332714,
,,,,,,,,80,0,80,0,,,,,,,,,,,,,,,,,,,,,,,,,,,,,,,,,,,,,,,,,,,,,,,,,,,,,565.5641802996397,None,,,,,,,,,,,,,,,,,,,,,,,,,,,,,,,,,,,boy,15,81,sing,blue,563.5640810998157,None,None,563.5640810998157,None,,,,,,,,,,,,,,,,,,,,,,,,,,,,,,47,001,2023_Apr_19_1200,ExactRep-v3-final,2021.2.3,59.976956831332714,
,,,,,,,,81,0,81,0,,,,,,,,,,,,,,,,,,,,,,,,,,,,,,,,,,,,,,,,,,,,,,,,,,,,,568.0831124996766,None,,,,,,,,,,,,,,,,,,,,,,,,,,,,,,,,,,,sky,105,82,aloud,white,566.0688102003187,None,None,566.0688102003187,None,,,,,,,,,,,,,,,,,,,,,,,,,,,,,,47,001,2023_Apr_19_1200,ExactRep-v3-final,2021.2.3,59.976956831332714,
,,,,,,,,82,0,82,0,,,,,,,,,,,,,,,,,,,,,,,,,,,,,,,,,,,,,,,,,,,,,,,,,,,,,570.5858012000099,None,,,,,,,,,,,,,,,,,,,,,,,,,,,,,,,,,,,hide,64,83,silent,red,568.5838983999565,None,None,568.5838983999565,None,,,,,,,,,,,,,,,,,,,,,,,,,,,,,,47,001,2023_Apr_19_1200,ExactRep-v3-final,2021.2.3,59.976956831332714,
,,,,,,,,83,0,83,0,,,,,,,,,,,,,,,,,,,,,,,,,,,,,,,,,,,,,,,,,,,,,,,,,,,,,573.1049739997834,None,,,,,,,,,,,,,,,,,,,,,,,,,,,,,,,,,,,skin,41,84,silent,red,571.0892300000414,None,None,571.0892300000414,None,,,,,,,,,,,,,,,,,,,,,,,,,,,,,,47,001,2023_Apr_19_1200,ExactRep-v3-final,2021.2.3,59.976956831332714,
,,,,,,,,84,0,84,0,,,,,,,,,,,,,,,,,,,,,,,,,,,,,,,,,,,,,,,,,,,,,,,,,,,,,575.624384299852,None,,,,,,,,,,,,,,,,,,,,,,,,,,,,,,,,,,,murder,24,85,sing,blue,573.6137100998312,None,None,573.6137100998312,None,,,,,,,,,,,,,,,,,,,,,,,,,,,,,,47,001,2023_Apr_19_1200,ExactRep-v3-final,2021.2.3,59.976956831332714,
,,,,,,,,85,0,85,0,,,,,,,,,,,,,,,,,,,,,,,,,,,,,,,,,,,,,,,,,,,,,,,,,,,,,578.1267050998285,None,,,,,,,,,,,,,,,,,,,,,,,,,,,,,,,,,,,cottage,35,86,sing,blue,576.1257897997275,None,None,576.1257897997275,None,,,,,,,,,,,,,,,,,,,,,,,,,,,,,,47,001,2023_Apr_19_1200,ExactRep-v3-final,2021.2.3,59.976956831332714,
,,,,,,,,86,0,86,0,,,,,,,,,,,,,,,,,,,,,,,,,,,,,,,,,,,,,,,,,,,,,,,,,,,,,580.629333499819,None,,,,,,,,,,,,,,,,,,,,,,,,,,,,,,,,,,,beast,56,87,silent,red,578.6275958996266,None,None,578.6275958996266,None,,,,,,,,,,,,,,,,,,,,,,,,,,,,,,47,001,2023_Apr_19_1200,ExactRep-v3-final,2021.2.3,59.976956831332714,
,,,,,,,,87,0,87,0,,,,,,,,,,,,,,,,,,,,,,,,,,,,,,,,,,,,,,,,,,,,,,,,,,,,,583.1316865999252,None,,,,,,,,,,,,,,,,,,,,,,,,,,,,,,,,,,,blossom,84,88,aloud,white,581.131305099465,None,None,581.131305099465,None,,,,,,,,,,,,,,,,,,,,,,,,,,,,,,47,001,2023_Apr_19_1200,ExactRep-v3-final,2021.2.3,59.976956831332714,
,,,,,,,,88,0,88,0,,,,,,,,,,,,,,,,,,,,,,,,,,,,,,,,,,,,,,,,,,,,,,,,,,,,,585.6510204998776,None,,,,,,,,,,,,,,,,,,,,,,,,,,,,,,,,,,,army,45,89,silent,red,583.6357199000195,None,None,583.6357199000195,None,,,,,,,,,,,,,,,,,,,,,,,,,,,,,,47,001,2023_Apr_19_1200,ExactRep-v3-final,2021.2.3,59.976956831332714,
,,,,,,,,89,0,89,0,,,,,,,,,,,,,,,,,,,,,,,,,,,,,,,,,,,,,,,,,,,,,,,,,,,,,588.1534030996263,None,,,,,,,,,,,,,,,,,,,,,,,,,,,,,,,,,,,dress,31,90,sing,blue,586.1513053001836,None,None,586.1513053001836,None,,,,,,,,,,,,,,,,,,,,,,,,,,,,,,47,001,2023_Apr_19_1200,ExactRep-v3-final,2021.2.3,59.976956831332714,
,,,,,,,,90,0,90,0,,,,,,,,,,,,,,,,,,,,,,,,,,,,,,,,,,,,,,,,,,,,,,,,,,,,,590.6725158002228,None,,,,,,,,,,,,,,,,,,,,,,,,,,,,,,,,,,,square,23,91,sing,blue,588.670870299451,None,None,588.670870299451,None,,,,,,,,,,,,,,,,,,,,,,,,,,,,,,47,001,2023_Apr_19_1200,ExactRep-v3-final,2021.2.3,59.976956831332714,
,,,,,,,,91,0,91,0,,,,,,,,,,,,,,,,,,,,,,,,,,,,,,,,,,,,,,,,,,,,,,,,,,,,,593.1749794995412,None,,,,,,,,,,,,,,,,,,,,,,,,,,,,,,,,,,,animal,58,92,silent,red,591.1729520997033,None,None,591.1729520997033,None,,,,,,,,,,,,,,,,,,,,,,,,,,,,,,47,001,2023_Apr_19_1200,ExactRep-v3-final,2021.2.3,59.976956831332714,
,,,,,,,,92,0,92,0,,,,,,,,,,,,,,,,,,,,,,,,,,,,,,,,,,,,,,,,,,,,,,,,,,,,,595.6942667998374,None,,,,,,,,,,,,,,,,,,,,,,,,,,,,,,,,,,,shoes,112,93,aloud,white,593.67879560031,None,None,593.67879560031,None,,,,,,,,,,,,,,,,,,,,,,,,,,,,,,47,001,2023_Apr_19_1200,ExactRep-v3-final,2021.2.3,59.976956831332714,
,,,,,,,,93,0,93,0,,,,,,,,,,,,,,,,,,,,,,,,,,,,,,,,,,,,,,,,,,,,,,,,,,,,,598.1967901997268,None,,,,,,,,,,,,,,,,,,,,,,,,,,,,,,,,,,,garden,2,94,sing,blue,596.1947595998645,None,None,596.1947595998645,None,,,,,,,,,,,,,,,,,,,,,,,,,,,,,,47,001,2023_Apr_19_1200,ExactRep-v3-final,2021.2.3,59.976956831332714,
,,,,,,,,94,0,94,0,,,,,,,,,,,,,,,,,,,,,,,,,,,,,,,,,,,,,,,,,,,,,,,,,,,,,600.7165102995932,None,,,,,,,,,,,,,,,,,,,,,,,,,,,,,,,,,,,cotton,32,95,sing,blue,598.702509299852,None,None,598.702509299852,None,,,,,,,,,,,,,,,,,,,,,,,,,,,,,,47,001,2023_Apr_19_1200,ExactRep-v3-final,2021.2.3,59.976956831332714,
,,,,,,,,95,0,95,0,,,,,,,,,,,,,,,,,,,,,,,,,,,,,,,,,,,,,,,,,,,,,,,,,,,,,603.2185362996534,None,,,,,,,,,,,,,,,,,,,,,,,,,,,,,,,,,,,ship,36,96,sing,blue,601.21647330001,None,None,601.21647330001,None,,,,,,,,,,,,,,,,,,,,,,,,,,,,,,47,001,2023_Apr_19_1200,ExactRep-v3-final,2021.2.3,59.976956831332714,
,,,,,,,,96,0,96,0,,,,,,,,,,,,,,,,,,,,,,,,,,,,,,,,,,,,,,,,,,,,,,,,,,,,,605.7210301999003,None,,,,,,,,,,,,,,,,,,,,,,,,,,,,,,,,,,,river,27,97,sing,blue,603.7204845994711,None,None,603.7204845994711,None,,,,,,,,,,,,,,,,,,,,,,,,,,,,,,47,001,2023_Apr_19_1200,ExactRep-v3-final,2021.2.3,59.976956831332714,
,,,,,,,,97,0,97,0,,,,,,,,,,,,,,,,,,,,,,,,,,,,,,,,,,,,,,,,,,,,,,,,,,,,,608.2234848998487,None,,,,,,,,,,,,,,,,,,,,,,,,,,,,,,,,,,,winter,107,98,aloud,white,606.222918599844,None,None,606.222918599844,None,,,,,,,,,,,,,,,,,,,,,,,,,,,,,,47,001,2023_Apr_19_1200,ExactRep-v3-final,2021.2.3,59.976956831332714,
,,,,,,,,98,0,98,0,,,,,,,,,,,,,,,,,,,,,,,,,,,,,,,,,,,,,,,,,,,,,,,,,,,,,610.7424649996683,None,,,,,,,,,,,,,,,,,,,,,,,,,,,,,,,,,,,steam,113,99,aloud,white,608.7271854002029,None,None,608.7271854002029,None,,,,,,,,,,,,,,,,,,,,,,,,,,,,,,47,001,2023_Apr_19_1200,ExactRep-v3-final,2021.2.3,59.976956831332714,
,,,,,,,,99,0,99,0,,,,,,,,,,,,,,,,,,,,,,,,,,,,,,,,,,,,,,,,,,,,,,,,,,,,,613.2451660996303,None,,,,,,,,,,,,,,,,,,,,,,,,,,,,,,,,,,,shame,87,100,aloud,white,611.243157800287,None,None,611.243157800287,None,,,,,,,,,,,,,,,,,,,,,,,,,,,,,,47,001,2023_Apr_19_1200,ExactRep-v3-final,2021.2.3,59.976956831332714,
,,,,,,,,100,0,100,0,,,,,,,,,,,,,,,,,,,,,,,,,,,,,,,,,,,,,,,,,,,,,,,,,,,,,615.7476995000616,None,,,,,,,,,,,,,,,,,,,,,,,,,,,,,,,,,,,slave,34,101,sing,blue,613.7483225995675,None,None,613.7483225995675,None,,,,,,,,,,,,,,,,,,,,,,,,,,,,,,47,001,2023_Apr_19_1200,ExactRep-v3-final,2021.2.3,59.976956831332714,
,,,,,,,,101,0,101,0,,,,,,,,,,,,,,,,,,,,,,,,,,,,,,,,,,,,,,,,,,,,,,,,,,,,,618.2528609000146,None,,,,,,,,,,,,,,,,,,,,,,,,,,,,,,,,,,,teacher,22,102,sing,blue,616.2483741994947,None,None,616.2483741994947,None,,,,,,,,,,,,,,,,,,,,,,,,,,,,,,47,001,2023_Apr_19_1200,ExactRep-v3-final,2021.2.3,59.976956831332714,
,,,,,,,,102,0,102,0,,,,,,,,,,,,,,,,,,,,,,,,,,,,,,,,,,,,,,,,,,,,,,,,,,,,,620.7692125998437,None,,,,,,,,,,,,,,,,,,,,,,,,,,,,,,,,,,,mother,106,103,aloud,white,618.7672942001373,None,None,618.7672942001373,None,,,,,,,,,,,,,,,,,,,,,,,,,,,,,,47,001,2023_Apr_19_1200,ExactRep-v3-final,2021.2.3,59.976956831332714,
,,,,,,,,103,0,103,0,,,,,,,,,,,,,,,,,,,,,,,,,,,,,,,,,,,,,,,,,,,,,,,,,,,,,623.2885595997795,None,,,,,,,,,,,,,,,,,,,,,,,,,,,,,,,,,,,insect,116,104,aloud,white,621.2793613001704,None,None,621.2793613001704,None,,,,,,,,,,,,,,,,,,,,,,,,,,,,,,47,001,2023_Apr_19_1200,ExactRep-v3-final,2021.2.3,59.976956831332714,
,,,,,,,,104,0,104,0,,,,,,,,,,,,,,,,,,,,,,,,,,,,,,,,,,,,,,,,,,,,,,,,,,,,,625.7911013998091,None,,,,,,,,,,,,,,,,,,,,,,,,,,,,,,,,,,,rod,5,105,sing,blue,623.7889331998304,None,None,623.7889331998304,None,,,,,,,,,,,,,,,,,,,,,,,,,,,,,,47,001,2023_Apr_19_1200,ExactRep-v3-final,2021.2.3,59.976956831332714,
,,,,,,,,105,0,105,0,,,,,,,,,,,,,,,,,,,,,,,,,,,,,,,,,,,,,,,,,,,,,,,,,,,,,628.2936046998948,None,,,,,,,,,,,,,,,,,,,,,,,,,,,,,,,,,,,dream,10,106,sing,blue,626.2913851002231,None,None,626.2913851002231,None,,,,,,,,,,,,,,,,,,,,,,,,,,,,,,47,001,2023_Apr_19_1200,ExactRep-v3-final,2021.2.3,59.976956831332714,
,,,,,,,,106,0,106,0,,,,,,,,,,,,,,,,,,,,,,,,,,,,,,,,,,,,,,,,,,,,,,,,,,,,,630.7961109997705,None,,,,,,,,,,,,,,,,,,,,,,,,,,,,,,,,,,,anger,78,107,silent,red,628.796795300208,None,None,628.796795300208,None,,,,,,,,,,,,,,,,,,,,,,,,,,,,,,47,001,2023_Apr_19_1200,ExactRep-v3-final,2021.2.3,59.976956831332714,
,,,,,,,,107,0,107,0,,,,,,,,,,,,,,,,,,,,,,,,,,,,,,,,,,,,,,,,,,,,,,,,,,,,,633.2986161001027,None,,,,,,,,,,,,,,,,,,,,,,,,,,,,,,,,,,,arm,49,108,silent,red,631.2986131003127,None,None,631.2986131003127,None,,,,,,,,,,,,,,,,,,,,,,,,,,,,,,47,001,2023_Apr_19_1200,ExactRep-v3-final,2021.2.3,59.976956831332714,
,,,,,,,,108,0,108,0,,,,,,,,,,,,,,,,,,,,,,,,,,,,,,,,,,,,,,,,,,,,,,,,,,,,,635.8008225001395,None,,,,,,,,,,,,,,,,,,,,,,,,,,,,,,,,,,,honour,11,109,sing,blue,633.8004622003064,None,None,633.8004622003064,None,,,,,,,,,,,,,,,,,,,,,,,,,,,,,,47,001,2023_Apr_19_1200,ExactRep-v3-final,2021.2.3,59.976956831332714,
,,,,,,,,109,0,109,0,,,,,,,,,,,,,,,,,,,,,,,,,,,,,,,,,,,,,,,,,,,,,,,,,,,,,638.3035380002111,None,,,,,,,,,,,,,,,,,,,,,,,,,,,,,,,,,,,deed,26,110,sing,blue,636.3032448999584,None,None,636.3032448999584,None,,,,,,,,,,,,,,,,,,,,,,,,,,,,,,47,001,2023_Apr_19_1200,ExactRep-v3-final,2021.2.3,59.976956831332714,
,,,,,,,,110,0,110,0,,,,,,,,,,,,,,,,,,,,,,,,,,,,,,,,,,,,,,,,,,,,,,,,,,,,,640.8227514997125,None,,,,,,,,,,,,,,,,,,,,,,,,,,,,,,,,,,,sugar,4,111,sing,blue,638.8079370995983,None,None,638.8079370995983,None,,,,,,,,,,,,,,,,,,,,,,,,,,,,,,47,001,2023_Apr_19_1200,ExactRep-v3-final,2021.2.3,59.976956831332714,
,,,,,,,,111,0,111,0,,,,,,,,,,,,,,,,,,,,,,,,,,,,,,,,,,,,,,,,,,,,,,,,,,,,,643.325256199576,None,,,,,,,,,,,,,,,,,,,,,,,,,,,,,,,,,,,pipe,89,112,aloud,white,641.3241882994771,None,None,641.3241882994771,None,,,,,,,,,,,,,,,,,,,,,,,,,,,,,,47,001,2023_Apr_19_1200,ExactRep-v3-final,2021.2.3,59.976956831332714,
,,,,,,,,112,0,112,0,,,,,,,,,,,,,,,,,,,,,,,,,,,,,,,,,,,,,,,,,,,,,,,,,,,,,645.8276097001508,None,,,,,,,,,,,,,,,,,,,,,,,,,,,,,,,,,,,thought,7,113,sing,blue,643.8280905000865,None,None,643.8280905000865,None,,,,,,,,,,,,,,,,,,,,,,,,,,,,,,47,001,2023_Apr_19_1200,ExactRep-v3-final,2021.2.3,59.976956831332714,
,,,,,,,,113,0,113,0,,,,,,,,,,,,,,,,,,,,,,,,,,,,,,,,,,,,,,,,,,,,,,,,,,,,,648.3469866998494,None,,,,,,,,,,,,,,,,,,,,,,,,,,,,,,,,,,,party,16,114,sing,blue,646.3336712997407,None,None,646.3336712997407,None,,,,,,,,,,,,,,,,,,,,,,,,,,,,,,47,001,2023_Apr_19_1200,ExactRep-v3-final,2021.2.3,59.976956831332714,
,,,,,,,,114,0,114,0,,,,,,,,,,,,,,,,,,,,,,,,,,,,,,,,,,,,,,,,,,,,,,,,,,,,,650.8661276996136,None,,,,,,,,,,,,,,,,,,,,,,,,,,,,,,,,,,,priest,98,115,aloud,white,648.8510937998071,None,None,648.8510937998071,None,,,,,,,,,,,,,,,,,,,,,,,,,,,,,,47,001,2023_Apr_19_1200,ExactRep-v3-final,2021.2.3,59.976956831332714,
,,,,,,,,115,0,115,0,,,,,,,,,,,,,,,,,,,,,,,,,,,,,,,,,,,,,,,,,,,,,,,,,,,,,653.3852174002677,None,,,,,,,,,,,,,,,,,,,,,,,,,,,,,,,,,,,style,101,116,aloud,white,651.3699191994965,None,None,651.3699191994965,None,,,,,,,,,,,,,,,,,,,,,,,,,,,,,,47,001,2023_Apr_19_1200,ExactRep-v3-final,2021.2.3,59.976956831332714,
,,,,,,,,116,0,116,0,,,,,,,,,,,,,,,,,,,,,,,,,,,,,,,,,,,,,,,,,,,,,,,,,,,,,655.887853000313,None,,,,,,,,,,,,,,,,,,,,,,,,,,,,,,,,,,,forest,68,117,silent,red,653.8856683000922,None,None,653.8856683000922,None,,,,,,,,,,,,,,,,,,,,,,,,,,,,,,47,001,2023_Apr_19_1200,ExactRep-v3-final,2021.2.3,59.976956831332714,
,,,,,,,,117,0,117,0,,,,,,,,,,,,,,,,,,,,,,,,,,,,,,,,,,,,,,,,,,,,,,,,,,,,,658.3904275000095,None,,,,,,,,,,,,,,,,,,,,,,,,,,,,,,,,,,,chief,30,118,sing,blue,656.3884411994368,None,None,656.3884411994368,None,,,,,,,,,,,,,,,,,,,,,,,,,,,,,,47,001,2023_Apr_19_1200,ExactRep-v3-final,2021.2.3,59.976956831332714,
,,,,,,,,118,0,118,0,,,,,,,,,,,,,,,,,,,,,,,,,,,,,,,,,,,,,,,,,,,,,,,,,,,,,660.8929397994652,None,,,,,,,,,,,,,,,,,,,,,,,,,,,,,,,,,,,chance,13,119,sing,blue,658.8921127002686,None,None,658.8921127002686,None,,,,,,,,,,,,,,,,,,,,,,,,,,,,,,47,001,2023_Apr_19_1200,ExactRep-v3-final,2021.2.3,59.976956831332714,
,,,,,,,,119,0,119,0,,,,,,,,,,,,,,,,,,,,,,,,,,,,,,,,,,,,,,,,,,,,,,,,,,,,,663.4120565000921,None,,,,,,,,,,,,,,,,,,,,,,,,,,,,,,,,,,,horse,48,120,silent,red,661.3998560998589,None,None,661.3998560998589,None,,,,,,,,,,,,,,,,,,,,,,,,,,,,,,47,001,2023_Apr_19_1200,ExactRep-v3-final,2021.2.3,59.976956831332714,
,,,,,,,,,,,,,,,,,,,,,,,,,,,,,,,,,,,,,,,,,,,,,,,,,,,,,,,,,,,,,,,,,,,,,,,,,,,,,,,,,,,,,,,,,,,,,,,,,,,,,,,,,,,,,,663.9140119999647,None,space,6.587650099769235,673.8904946995899,None,,,,,,,,,,,,,,,,,,,,,,,,47,001,2023_Apr_19_1200,ExactRep-v3-final,2021.2.3,59.976956831332714,
,,,,,,,,,,,,,,,,,,,,,,,,,,,,,,,,,,,,,,,,,,,,,,,,,,,,,,,,,,,,,,,,,,,,,,,,,,,,,,,,,,,,,,,,,,,,,,,,,,,,,,,,,,,,,,,,,,,,680.4976263996214,None,space,29.284737300127745,690.4734760001302,None,,,,,,,,,,,,,,,,,,47,001,2023_Apr_19_1200,ExactRep-v3-final,2021.2.3,59.976956831332714,
,,,,,,,,,,,,0,0,0,0,,,,,,,,,,,,,,,,,,,,,,,,,,,,,,,,,,,,,,,,,,,,,,,,,724.1558761997148,None,,,,,,,,,,,,,,,,,,,,,,,,,,,,,,,,,,,,,,,,,,,,,,,,,,,,,,,,,avenue,0,1,sing,old,yellow,720.2935074996203,None,y,720.2935074996203,None,"['y', 'return']","[1.65629249997437, 3.816340900026262]",720.2935074996203,None,,,47,001,2023_Apr_19_1200,ExactRep-v3-final,2021.2.3,59.976956831332714,
,,,,,,,,,,,,1,0,1,0,,,,,,,,,,,,,,,,,,,,,,,,,,,,,,,,,,,,,,,,,,,,,,,,,727.0088198995218,None,,,,,,,,,,,,,,,,,,,,,,,,,,,,,,,,,,,,,,,,,,,,,,,,,,,,,,,,,crime,137,2,silent,new,yellow,724.6641239998862,None,n,724.6641239998862,None,"['n', 'return']","[1.837674199603498, 2.3016325002536178]",724.6641239998862,None,,,47,001,2023_Apr_19_1200,ExactRep-v3-final,2021.2.3,59.976956831332714,
,,,,,,,,,,,,2,0,2,0,,,,,,,,,,,,,,,,,,,,,,,,,,,,,,,,,,,,,,,,,,,,,,,,,729.2941413000226,None,,,,,,,,,,,,,,,,,,,,,,,,,,,,,,,,,,,,,,,,,,,,,,,,,,,,,,,,,spirit,192,3,aloud,new,yellow,727.5125474995002,None,n,727.5125474995002,None,"['n', 'return']","[1.3493037996813655, 1.7413010001182556]",727.5125474995002,None,,,47,001,2023_Apr_19_1200,ExactRep-v3-final,2021.2.3,59.976956831332714,
,,,,,,,,,,,,3,0,3,0,,,,,,,,,,,,,,,,,,,,,,,,,,,,,,,,,,,,,,,,,,,,,,,,,732.4807684002444,None,,,,,,,,,,,,,,,,,,,,,,,,,,,,,,,,,,,,,,,,,,,,,,,,,,,,,,,,,board,190,4,aloud,new,yellow,729.802419600077,None,n,729.802419600077,None,"['n', 'return']","[2.3234099997207522, 2.643322699703276]",729.802419600077,None,,,47,001,2023_Apr_19_1200,ExactRep-v3-final,2021.2.3,59.976956831332714,
,,,,,,,,,,,,4,0,4,0,,,,,,,,,,,,,,,,,,,,,,,,,,,,,,,,,,,,,,,,,,,,,,,,,734.4994689999148,None,,,,,,,,,,,,,,,,,,,,,,,,,,,,,,,,,,,,,,,,,,,,,,,,,,,,,,,,,murder,24,5,sing,old,yellow,732.9904624996707,None,y,732.9904624996707,None,"['y', 'return']","[1.1113972999155521, 1.4713223995640874]",732.9904624996707,None,,,47,001,2023_Apr_19_1200,ExactRep-v3-final,2021.2.3,59.976956831332714,
,,,,,,,,,,,,5,0,5,0,,,,,,,,,,,,,,,,,,,,,,,,,,,,,,,,,,,,,,,,,,,,,,,,,736.3849874995649,None,,,,,,,,,,,,,,,,,,,,,,,,,,,,,,,,,,,,,,,,,,,,,,,,,,,,,,,,,woods,77,6,silent,old,yellow,735.0147323999554,None,y,735.0147323999554,None,"['y', 'return']","[0.9750263001769781, 1.3350437004119158]",735.0147323999554,None,,,47,001,2023_Apr_19_1200,ExactRep-v3-final,2021.2.3,59.976956831332714,
,,,,,,,,,,,,6,0,6,0,,,,,,,,,,,,,,,,,,,,,,,,,,,,,,,,,,,,,,,,,,,,,,,,,738.6556887999177,None,,,,,,,,,,,,,,,,,,,,,,,,,,,,,,,,,,,,,,,,,,,,,,,,,,,,,,,,,dust,122,7,silent,new,yellow,736.8999183997512,None,n,736.8999183997512,None,"['n', 'return']","[1.4258773997426033, 1.721994599327445]",736.8999183997512,None,,,47,001,2023_Apr_19_1200,ExactRep-v3-final,2021.2.3,59.976956831332714,
,,,,,,,,,,,,7,0,7,0,,,,,,,,,,,,,,,,,,,,,,,,,,,,,,,,,,,,,,,,,,,,,,,,,741.2894954001531,None,,,,,,,,,,,,,,,,,,,,,,,,,,,,,,,,,,,,,,,,,,,,,,,,,,,,,,,,,person,194,8,aloud,new,yellow,739.1808203998953,None,y,739.1808203998953,None,"['y', 'return']","[1.8010150995105505, 2.0650034993886948]",739.1808203998953,None,,,47,001,2023_Apr_19_1200,ExactRep-v3-final,2021.2.3,59.976956831332714,
,,,,,,,,,,,,8,0,8,0,,,,,,,,,,,,,,,,,,,,,,,,,,,,,,,,,,,,,,,,,,,,,,,,,743.0581972999498,None,,,,,,,,,,,,,,,,,,,,,,,,,,,,,,,,,,,,,,,,,,,,,,,,,,,,,,,,,market,187,9,sing,new,yellow,741.7989467997104,None,n,741.7989467997104,None,"['n', 'return']","[0.9508050000295043, 1.222970400005579]",741.7989467997104,None,,,47,001,2023_Apr_19_1200,ExactRep-v3-final,2021.2.3,59.976956831332714,
,,,,,,,,,,,,9,0,9,0,,,,,,,,,,,,,,,,,,,,,,,,,,,,,,,,,,,,,,,,,,,,,,,,,745.0434082001448,None,,,,,,,,,,,,,,,,,,,,,,,,,,,,,,,,,,,,,,,,,,,,,,,,,,,,,,,,,flesh,103,10,aloud,old,yellow,743.5730347996578,None,y,743.5730347996578,None,"['y', 'return']","[1.1608848003670573, 1.4247677000239491]",743.5730347996578,None,,,47,001,2023_Apr_19_1200,ExactRep-v3-final,2021.2.3,59.976956831332714,
,,,,,,,,,,,,10,0,10,0,,,,,,,,,,,,,,,,,,,,,,,,,,,,,,,,,,,,,,,,,,,,,,,,,746.8953275000677,None,,,,,,,,,,,,,,,,,,,,,,,,,,,,,,,,,,,,,,,,,,,,,,,,,,,,,,,,,journal,225,11,sing,new,yellow,745.552914599888,None,n,745.552914599888,None,"['n', 'return']","[1.0689323004335165, 1.3089521005749702]",745.552914599888,None,,,47,001,2023_Apr_19_1200,ExactRep-v3-final,2021.2.3,59.976956831332714,
,,,,,,,,,,,,11,0,11,0,,,,,,,,,,,,,,,,,,,,,,,,,,,,,,,,,,,,,,,,,,,,,,,,,748.7806075997651,None,,,,,,,,,,,,,,,,,,,,,,,,,,,,,,,,,,,,,,,,,,,,,,,,,,,,,,,,,humour,162,12,aloud,new,yellow,747.4037935994565,None,y,747.4037935994565,None,"['y', 'return']","[1.0821483992040157, 1.3300998993217945]",747.4037935994565,None,,,47,001,2023_Apr_19_1200,ExactRep-v3-final,2021.2.3,59.976956831332714,
,,,,,,,,,,,,12,0,12,0,,,,,,,,,,,,,,,,,,,,,,,,,,,,,,,,,,,,,,,,,,,,,,,,,750.5488857999444,None,,,,,,,,,,,,,,,,,,,,,,,,,,,,,,,,,,,,,,,,,,,,,,,,,,,,,,,,,home,155,13,silent,new,yellow,749.2835051994771,None,n,749.2835051994771,None,"['n', 'return']","[0.978588099591434, 1.2183275995776057]",749.2835051994771,None,,,47,001,2023_Apr_19_1200,ExactRep-v3-final,2021.2.3,59.976956831332714,
,,,,,,,,,,,,13,0,13,0,,,,,,,,,,,,,,,,,,,,,,,,,,,,,,,,,,,,,,,,,,,,,,,,,752.2340022996068,None,,,,,,,,,,,,,,,,,,,,,,,,,,,,,,,,,,,,,,,,,,,,,,,,,,,,,,,,,boy,15,14,sing,old,yellow,751.0618425002322,None,y,751.0618425002322,None,"['y', 'return']","[0.8639492001384497, 1.1278758002445102]",751.0618425002322,None,,,47,001,2023_Apr_19_1200,ExactRep-v3-final,2021.2.3,59.976956831332714,
,,,,,,,,,,,,14,0,14,0,,,,,,,,,,,,,,,,,,,,,,,,,,,,,,,,,,,,,,,,,,,,,,,,,753.9857669994235,None,,,,,,,,,,,,,,,,,,,,,,,,,,,,,,,,,,,,,,,,,,,,,,,,,,,,,,,,,army,45,15,silent,old,yellow,752.7433461993933,None,n,752.7433461993933,None,"['n', 'return']","[0.9904433004558086, 1.2064809007570148]",752.7433461993933,None,,,47,001,2023_Apr_19_1200,ExactRep-v3-final,2021.2.3,59.976956831332714,
,,,,,,,,,,,,15,0,15,0,,,,,,,,,,,,,,,,,,,,,,,,,,,,,,,,,,,,,,,,,,,,,,,,,755.7374612996355,None,,,,,,,,,,,,,,,,,,,,,,,,,,,,,,,,,,,,,,,,,,,,,,,,,,,,,,,,,steam,113,16,aloud,old,yellow,754.486638000235,None,n,754.486638000235,None,"['n', 'return']","[0.9992976998910308, 1.2153944997116923]",754.486638000235,None,,,47,001,2023_Apr_19_1200,ExactRep-v3-final,2021.2.3,59.976956831332714,
,,,,,,,,,,,,16,0,16,0,,,,,,,,,,,,,,,,,,,,,,,,,,,,,,,,,,,,,,,,,,,,,,,,,757.6228713998571,None,,,,,,,,,,,,,,,,,,,,,,,,,,,,,,,,,,,,,,,,,,,,,,,,,,,,,,,,,air,127,17,silent,new,yellow,756.2464355994016,None,n,756.2464355994016,None,"['n', 'return']","[1.095350599847734, 1.3353842999786139]",756.2464355994016,None,,,47,001,2023_Apr_19_1200,ExactRep-v3-final,2021.2.3,59.976956831332714,
,,,,,,,,,,,,17,0,17,0,,,,,,,,,,,,,,,,,,,,,,,,,,,,,,,,,,,,,,,,,,,,,,,,,759.9752556998283,None,,,,,,,,,,,,,,,,,,,,,,,,,,,,,,,,,,,,,,,,,,,,,,,,,,,,,,,,,student,124,18,silent,new,yellow,758.1386669995263,None,n,758.1386669995263,None,"['n', 'return']","[1.5872678998857737, 1.803379399701953]",758.1386669995263,None,,,47,001,2023_Apr_19_1200,ExactRep-v3-final,2021.2.3,59.976956831332714,
,,,,,,,,,,,,18,0,18,0,,,,,,,,,,,,,,,,,,,,,,,,,,,,,,,,,,,,,,,,,,,,,,,,,761.7936567002907,None,,,,,,,,,,,,,,,,,,,,,,,,,,,,,,,,,,,,,,,,,,,,,,,,,,,,,,,,,tool,151,19,silent,new,yellow,760.4839941998944,None,y,760.4839941998944,None,"['y', 'return']","[1.0099557004868984, 1.2658387999981642]",760.4839941998944,None,,,47,001,2023_Apr_19_1200,ExactRep-v3-final,2021.2.3,59.976956831332714,
,,,,,,,,,,,,19,0,19,0,,,,,,,,,,,,,,,,,,,,,,,,,,,,,,,,,,,,,,,,,,,,,,,,,763.5786223001778,None,,,,,,,,,,,,,,,,,,,,,,,,,,,,,,,,,,,,,,,,,,,,,,,,,,,,,,,,,disease,9,20,sing,old,yellow,762.3018153002486,None,y,762.3018153002486,None,"['y', 'return']","[1.0241668000817299, 1.2401110995560884]",762.3018153002486,None,,,47,001,2023_Apr_19_1200,ExactRep-v3-final,2021.2.3,59.976956831332714,
,,,,,,,,,,,,20,0,20,0,,,,,,,,,,,,,,,,,,,,,,,,,,,,,,,,,,,,,,,,,,,,,,,,,765.2804240994155,None,,,,,,,,,,,,,,,,,,,,,,,,,,,,,,,,,,,,,,,,,,,,,,,,,,,,,,,,,poet,216,21,aloud,new,yellow,764.081778999418,None,n,764.081778999418,None,"['n', 'return']","[0.98001420032233, 1.1560110999271274]",764.081778999418,None,,,47,001,2023_Apr_19_1200,ExactRep-v3-final,2021.2.3,59.976956831332714,
,,,,,,,,,,,,21,0,21,0,,,,,,,,,,,,,,,,,,,,,,,,,,,,,,,,,,,,,,,,,,,,,,,,,767.1488670995459,None,,,,,,,,,,,,,,,,,,,,,,,,,,,,,,,,,,,,,,,,,,,,,,,,,,,,,,,,,love,218,22,aloud,new,yellow,765.7809514002874,None,n,765.7809514002874,None,"['n', 'return']","[1.0808624001219869, 1.3208758002147079]",765.7809514002874,None,,,47,001,2023_Apr_19_1200,ExactRep-v3-final,2021.2.3,59.976956831332714,
,,,,,,,,,,,,22,0,22,0,,,,,,,,,,,,,,,,,,,,,,,,,,,,,,,,,,,,,,,,,,,,,,,,,769.1341616995633,None,,,,,,,,,,,,,,,,,,,,,,,,,,,,,,,,,,,,,,,,,,,,,,,,,,,,,,,,,money,123,23,silent,new,yellow,767.6587041998282,None,n,767.6587041998282,None,"['n', 'return']","[1.2111309003084898, 1.4352439995855093]",767.6587041998282,None,,,47,001,2023_Apr_19_1200,ExactRep-v3-final,2021.2.3,59.976956831332714,
,,,,,,,,,,,,23,0,23,0,,,,,,,,,,,,,,,,,,,,,,,,,,,,,,,,,,,,,,,,,,,,,,,,,771.4364801002666,None,,,,,,,,,,,,,,,,,,,,,,,,,,,,,,,,,,,,,,,,,,,,,,,,,,,,,,,,,circle,83,24,aloud,old,yellow,769.6451357994229,None,n,769.6451357994229,None,"['n', 'return']","[1.5207090005278587, 1.7527059996500611]",769.6451357994229,None,,,47,001,2023_Apr_19_1200,ExactRep-v3-final,2021.2.3,59.976956831332714,
,,,,,,,,,,,,24,0,24,0,,,,,,,,,,,,,,,,,,,,,,,,,,,,,,,,,,,,,,,,,,,,,,,,,773.1548739001155,None,,,,,,,,,,,,,,,,,,,,,,,,,,,,,,,,,,,,,,,,,,,,,,,,,,,,,,,,,opinion,14,25,sing,old,yellow,771.9403949994594,None,y,771.9403949994594,None,"['y', 'return']","[0.9456054996699095, 1.1694975001737475]",771.9403949994594,None,,,47,001,2023_Apr_19_1200,ExactRep-v3-final,2021.2.3,59.976956831332714,
,,,,,,,,,,,,25,0,25,0,,,,,,,,,,,,,,,,,,,,,,,,,,,,,,,,,,,,,,,,,,,,,,,,,774.890063399449,None,,,,,,,,,,,,,,,,,,,,,,,,,,,,,,,,,,,,,,,,,,,,,,,,,,,,,,,,,corner,180,26,aloud,new,yellow,773.6643348000944,None,n,773.6643348000944,None,"['n', 'return']","[0.9814280001446605, 1.1898376001045108]",773.6643348000944,None,,,47,001,2023_Apr_19_1200,ExactRep-v3-final,2021.2.3,59.976956831332714,
,,,,,,,,,,,,26,0,26,0,,,,,,,,,,,,,,,,,,,,,,,,,,,,,,,,,,,,,,,,,,,,,,,,,776.6418471001089,None,,,,,,,,,,,,,,,,,,,,,,,,,,,,,,,,,,,,,,,,,,,,,,,,,,,,,,,,,lake,85,27,aloud,old,yellow,775.3980112997815,None,y,775.3980112997815,None,"['y', 'return']","[0.975806899368763, 1.2079411000013351]",775.3980112997815,None,,,47,001,2023_Apr_19_1200,ExactRep-v3-final,2021.2.3,59.976956831332714,
,,,,,,,,,,,,27,0,27,0,,,,,,,,,,,,,,,,,,,,,,,,,,,,,,,,,,,,,,,,,,,,,,,,,778.810755699873,None,,,,,,,,,,,,,,,,,,,,,,,,,,,,,,,,,,,,,,,,,,,,,,,,,,,,,,,,,water,132,28,silent,new,yellow,777.151387100108,None,y,777.151387100108,None,"['y', 'return']","[1.4306775005534291, 1.6225179005414248]",777.151387100108,None,,,47,001,2023_Apr_19_1200,ExactRep-v3-final,2021.2.3,59.976956831332714,
,,,,,,,,,,,,28,0,28,0,,,,,,,,,,,,,,,,,,,,,,,,,,,,,,,,,,,,,,,,,,,,,,,,,780.7459528995678,None,,,,,,,,,,,,,,,,,,,,,,,,,,,,,,,,,,,,,,,,,,,,,,,,,,,,,,,,,blossom,84,29,aloud,old,yellow,779.3202726002783,None,y,779.3202726002783,None,"['y', 'return']","[1.1497058998793364, 1.389550599269569]",779.3202726002783,None,,,47,001,2023_Apr_19_1200,ExactRep-v3-final,2021.2.3,59.976956831332714,
,,,,,,,,,,,,29,0,29,0,,,,,,,,,,,,,,,,,,,,,,,,,,,,,,,,,,,,,,,,,,,,,,,,,782.5996690001339,None,,,,,,,,,,,,,,,,,,,,,,,,,,,,,,,,,,,,,,,,,,,,,,,,,,,,,,,,,truth,135,30,silent,new,yellow,781.2537906002253,None,n,781.2537906002253,None,"['n', 'return']","[1.1200546994805336, 1.3040763000026345]",781.2537906002253,None,,,47,001,2023_Apr_19_1200,ExactRep-v3-final,2021.2.3,59.976956831332714,
,,,,,,,,,,,,30,0,30,0,,,,,,,,,,,,,,,,,,,,,,,,,,,,,,,,,,,,,,,,,,,,,,,,,784.4664161000401,None,,,,,,,,,,,,,,,,,,,,,,,,,,,,,,,,,,,,,,,,,,,,,,,,,,,,,,,,,camp,183,31,sing,new,yellow,783.1290557002649,None,n,783.1290557002649,None,"['n', 'return']","[1.1008488005027175, 1.2927363002672791]",783.1290557002649,None,,,47,001,2023_Apr_19_1200,ExactRep-v3-final,2021.2.3,59.976956831332714,
,,,,,,,,,,,,31,0,31,0,,,,,,,,,,,,,,,,,,,,,,,,,,,,,,,,,,,,,,,,,,,,,,,,,786.3013720996678,None,,,,,,,,,,,,,,,,,,,,,,,,,,,,,,,,,,,,,,,,,,,,,,,,,,,,,,,,,fault,95,32,aloud,old,yellow,784.977636099793,None,y,784.977636099793,None,"['y', 'return']","[1.0602148994803429, 1.2761151995509863]",784.977636099793,None,,,47,001,2023_Apr_19_1200,ExactRep-v3-final,2021.2.3,59.976956831332714,
,,,,,,,,,,,,32,0,32,0,,,,,,,,,,,,,,,,,,,,,,,,,,,,,,,,,,,,,,,,,,,,,,,,,788.1533632995561,None,,,,,,,,,,,,,,,,,,,,,,,,,,,,,,,,,,,,,,,,,,,,,,,,,,,,,,,,,pupil,86,33,aloud,old,yellow,786.8111892994493,None,y,786.8111892994493,None,"['y', 'return']","[1.090543800033629, 1.3068079994991422]",786.8111892994493,None,,,47,001,2023_Apr_19_1200,ExactRep-v3-final,2021.2.3,59.976956831332714,
,,,,,,,,,,,,33,0,33,0,,,,,,,,,,,,,,,,,,,,,,,,,,,,,,,,,,,,,,,,,,,,,,,,,789.8080648994073,None,,,,,,,,,,,,,,,,,,,,,,,,,,,,,,,,,,,,,,,,,,,,,,,,,,,,,,,,,green,179,34,sing,new,yellow,788.659458999522,None,n,788.659458999522,None,"['n', 'return']","[0.9064589999616146, 1.1064467998221517]",788.659458999522,None,,,47,001,2023_Apr_19_1200,ExactRep-v3-final,2021.2.3,59.976956831332714,
,,,,,,,,,,,,34,0,34,0,,,,,,,,,,,,,,,,,,,,,,,,,,,,,,,,,,,,,,,,,,,,,,,,,792.0070984996855,None,,,,,,,,,,,,,,,,,,,,,,,,,,,,,,,,,,,,,,,,,,,,,,,,,,,,,,,,,bar,96,35,aloud,old,yellow,790.3288067001849,None,y,790.3288067001849,None,"['y', 'return']","[1.437181600369513, 1.6370729003101587]",790.3288067001849,None,,,47,001,2023_Apr_19_1200,ExactRep-v3-final,2021.2.3,59.976956831332714,
,,,,,,,,,,,,35,0,35,0,,,,,,,,,,,,,,,,,,,,,,,,,,,,,,,,,,,,,,,,,,,,,,,,,793.9923684000969,None,,,,,,,,,,,,,,,,,,,,,,,,,,,,,,,,,,,,,,,,,,,,,,,,,,,,,,,,,flag,221,36,sing,new,yellow,792.5185505999252,None,y,792.5185505999252,None,"['y', 'return']","[1.2392495991662145, 1.4392951996996999]",792.5185505999252,None,,,47,001,2023_Apr_19_1200,ExactRep-v3-final,2021.2.3,59.976956831332714,
,,,,,,,,,,,,36,0,36,0,,,,,,,,,,,,,,,,,,,,,,,,,,,,,,,,,,,,,,,,,,,,,,,,,799.0140658998862,None,,,,,,,,,,,,,,,,,,,,,,,,,,,,,,,,,,,,,,,,,,,,,,,,,,,,,,,,,leader,100,37,aloud,old,yellow,794.5022251997143,None,y,794.5022251997143,None,"['n', 'y', 'y', 'backspace', 'y', 'return']","[1.503852299414575, 2.071769599802792, 2.5597675992175937, 3.535707199946046, 3.7916234992444515, 4.47966289985925]",794.5022251997143,None,,,47,001,2023_Apr_19_1200,ExactRep-v3-final,2021.2.3,59.976956831332714,
,,,,,,,,,,,,37,0,37,0,,,,,,,,,,,,,,,,,,,,,,,,,,,,,,,,,,,,,,,,,,,,,,,,,800.8159453999251,None,,,,,,,,,,,,,,,,,,,,,,,,,,,,,,,,,,,,,,,,,,,,,,,,,,,,,,,,,storm,55,38,silent,old,yellow,799.5238963998854,None,n,799.5238963998854,None,"['n', 'return']","[1.073950500227511, 1.2579605001956224]",799.5238963998854,None,,,47,001,2023_Apr_19_1200,ExactRep-v3-final,2021.2.3,59.976956831332714,
,,,,,,,,,,,,38,0,38,0,,,,,,,,,,,,,,,,,,,,,,,,,,,,,,,,,,,,,,,,,,,,,,,,,803.0514521999285,None,,,,,,,,,,,,,,,,,,,,,,,,,,,,,,,,,,,,,,,,,,,,,,,,,,,,,,,,,series,195,39,sing,new,yellow,801.3258069995791,None,n,801.3258069995791,None,"['n', 'return']","[1.5044858995825052, 1.6881197998300195]",801.3258069995791,None,,,47,001,2023_Apr_19_1200,ExactRep-v3-final,2021.2.3,59.976956831332714,
,,,,,,,,,,,,39,0,39,0,,,,,,,,,,,,,,,,,,,,,,,,,,,,,,,,,,,,,,,,,,,,,,,,,804.8533312994987,None,,,,,,,,,,,,,,,,,,,,,,,,,,,,,,,,,,,,,,,,,,,,,,,,,,,,,,,,,pole,201,40,sing,new,yellow,803.5601864997298,None,n,803.5601864997298,None,"['n', 'return']","[1.0298204002901912, 1.2537714000791311]",803.5601864997298,None,,,47,001,2023_Apr_19_1200,ExactRep-v3-final,2021.2.3,59.976956831332714,
,,,,,,,,,,,,40,0,40,0,,,,,,,,,,,,,,,,,,,,,,,,,,,,,,,,,,,,,,,,,,,,,,,,,806.6551053002477,None,,,,,,,,,,,,,,,,,,,,,,,,,,,,,,,,,,,,,,,,,,,,,,,,,,,,,,,,,shock,178,41,aloud,new,yellow,805.3634171001613,None,n,805.3634171001613,None,"['n', 'return']","[1.0103631997480989, 1.2585726995021105]",805.3634171001613,None,,,47,001,2023_Apr_19_1200,ExactRep-v3-final,2021.2.3,59.976956831332714,
,,,,,,,,,,,,41,0,41,0,,,,,,,,,,,,,,,,,,,,,,,,,,,,,,,,,,,,,,,,,,,,,,,,,808.3067613001913,None,,,,,,,,,,,,,,,,,,,,,,,,,,,,,,,,,,,,,,,,,,,,,,,,,,,,,,,,,book,3,42,sing,old,yellow,807.164761999622,None,y,807.164761999622,None,"['y', 'return']","[0.8570464998483658, 1.1051059002056718]",807.164761999622,None,,,47,001,2023_Apr_19_1200,ExactRep-v3-final,2021.2.3,59.976956831332714,
,,,,,,,,,,,,42,0,42,0,,,,,,,,,,,,,,,,,,,,,,,,,,,,,,,,,,,,,,,,,,,,,,,,,810.0584504995495,None,,,,,,,,,,,,,,,,,,,,,,,,,,,,,,,,,,,,,,,,,,,,,,,,,,,,,,,,,girl,59,43,silent,old,yellow,808.8142016995698,None,n,808.8142016995698,None,"['n', 'return']","[0.927653499878943, 1.2077898001298308]",808.8142016995698,None,,,47,001,2023_Apr_19_1200,ExactRep-v3-final,2021.2.3,59.976956831332714,
,,,,,,,,,,,,43,0,43,0,,,,,,,,,,,,,,,,,,,,,,,,,,,,,,,,,,,,,,,,,,,,,,,,,812.0604969998822,None,,,,,,,,,,,,,,,,,,,,,,,,,,,,,,,,,,,,,,,,,,,,,,,,,,,,,,,,,method,186,44,aloud,new,yellow,810.5684863999486,None,y,810.5684863999486,None,"['y', 'return']","[1.261656199581921, 1.4534369995817542]",810.5684863999486,None,,,47,001,2023_Apr_19_1200,ExactRep-v3-final,2021.2.3,59.976956831332714,
,,,,,,,,,,,,44,0,44,0,,,,,,,,,,,,,,,,,,,,,,,,,,,,,,,,,,,,,,,,,,,,,,,,,813.6788317002356,None,,,,,,,,,,,,,,,,,,,,,,,,,,,,,,,,,,,,,,,,,,,,,,,,,,,,,,,,,party,16,45,sing,old,yellow,812.5700484002009,None,n,812.5700484002009,None,"['n', 'return']","[0.811773800291121, 1.0679176999256015]",812.5700484002009,None,,,47,001,2023_Apr_19_1200,ExactRep-v3-final,2021.2.3,59.976956831332714,
,,,,,,,,,,,,45,0,45,0,,,,,,,,,,,,,,,,,,,,,,,,,,,,,,,,,,,,,,,,,,,,,,,,,815.7808358995244,None,,,,,,,,,,,,,,,,,,,,,,,,,,,,,,,,,,,,,,,,,,,,,,,,,,,,,,,,,earth,228,46,aloud,new,yellow,814.1841936996207,None,n,814.1841936996207,None,"['n', 'return']","[1.3097892003133893, 1.5578231001272798]",814.1841936996207,None,,,47,001,2023_Apr_19_1200,ExactRep-v3-final,2021.2.3,59.976956831332714,
,,,,,,,,,,,,46,0,46,0,,,,,,,,,,,,,,,,,,,,,,,,,,,,,,,,,,,,,,,,,,,,,,,,,817.4155925000086,None,,,,,,,,,,,,,,,,,,,,,,,,,,,,,,,,,,,,,,,,,,,,,,,,,,,,,,,,,troops,161,47,sing,new,yellow,816.2898873994127,None,n,816.2898873994127,None,"['n', 'return']","[0.8360409000888467, 1.0920331999659538]",816.2898873994127,None,,,47,001,2023_Apr_19_1200,ExactRep-v3-final,2021.2.3,59.976956831332714,
,,,,,,,,,,,,47,0,47,0,,,,,,,,,,,,,,,,,,,,,,,,,,,,,,,,,,,,,,,,,,,,,,,,,819.3343890001997,None,,,,,,,,,,,,,,,,,,,,,,,,,,,,,,,,,,,,,,,,,,,,,,,,,,,,,,,,,dollar,171,48,sing,new,yellow,817.9302420997992,None,n,817.9302420997992,None,"['n', 'return']","[1.1636407002806664, 1.3716147001832724]",817.9302420997992,None,,,47,001,2023_Apr_19_1200,ExactRep-v3-final,2021.2.3,59.976956831332714,
,,,,,,,,,,,,48,0,48,0,,,,,,,,,,,,,,,,,,,,,,,,,,,,,,,,,,,,,,,,,,,,,,,,,821.2363833002746,None,,,,,,,,,,,,,,,,,,,,,,,,,,,,,,,,,,,,,,,,,,,,,,,,,,,,,,,,,rod,5,49,sing,old,yellow,819.8495653001592,None,y,819.8495653001592,None,"['y', 'return']","[1.14033729955554, 1.3484161999076605]",819.8495653001592,None,,,47,001,2023_Apr_19_1200,ExactRep-v3-final,2021.2.3,59.976956831332714,
,,,,,,,,,,,,49,0,49,0,,,,,,,,,,,,,,,,,,,,,,,,,,,,,,,,,,,,,,,,,,,,,,,,,822.8547427998856,None,,,,,,,,,,,,,,,,,,,,,,,,,,,,,,,,,,,,,,,,,,,,,,,,,,,,,,,,,owner,177,50,sing,new,yellow,821.7488836999983,None,n,821.7488836999983,None,"['n', 'return']","[0.8650345001369715, 1.07292740046978]",821.7488836999983,None,,,47,001,2023_Apr_19_1200,ExactRep-v3-final,2021.2.3,59.976956831332714,
,,,,,,,,,,,,50,0,50,0,,,,,,,,,,,,,,,,,,,,,,,,,,,,,,,,,,,,,,,,,,,,,,,,,824.3561244001612,None,,,,,,,,,,,,,,,,,,,,,,,,,,,,,,,,,,,,,,,,,,,,,,,,,,,,,,,,,horse,48,51,silent,old,yellow,823.3683580998331,None,y,823.3683580998331,None,"['y', 'return']","[0.7095160000026226, 0.941584300249815]",823.3683580998331,None,,,47,001,2023_Apr_19_1200,ExactRep-v3-final,2021.2.3,59.976956831332714,
,,,,,,,,,,,,51,0,51,0,,,,,,,,,,,,,,,,,,,,,,,,,,,,,,,,,,,,,,,,,,,,,,,,,827.025460800156,None,,,,,,,,,,,,,,,,,,,,,,,,,,,,,,,,,,,,,,,,,,,,,,,,,,,,,,,,,freedom,210,52,aloud,new,yellow,824.8672628002241,None,n,824.8672628002241,None,"['n', 'return']","[1.8826301004737616, 2.1227446999400854]",824.8672628002241,None,,,47,001,2023_Apr_19_1200,ExactRep-v3-final,2021.2.3,59.976956831332714,
,,,,,,,,,,,,52,0,52,0,,,,,,,,,,,,,,,,,,,,,,,,,,,,,,,,,,,,,,,,,,,,,,,,,828.5603251997381,None,,,,,,,,,,,,,,,,,,,,,,,,,,,,,,,,,,,,,,,,,,,,,,,,,,,,,,,,,meadow,81,53,aloud,old,yellow,827.5366337997839,None,y,827.5366337997839,None,"['y', 'return']","[0.7331062005832791, 0.9891964001581073]",827.5366337997839,None,,,47,001,2023_Apr_19_1200,ExactRep-v3-final,2021.2.3,59.976956831332714,
,,,,,,,,,,,,53,0,53,0,,,,,,,,,,,,,,,,,,,,,,,,,,,,,,,,,,,,,,,,,,,,,,,,,832.0971665000543,None,,,,,,,,,,,,,,,,,,,,,,,,,,,,,,,,,,,,,,,,,,,,,,,,,,,,,,,,,animal,58,54,silent,old,yellow,829.0705539993942,None,y,829.0705539993942,None,"['y', 'return']","[2.8234141003340483, 2.9833518005907536]",829.0705539993942,None,,,47,001,2023_Apr_19_1200,ExactRep-v3-final,2021.2.3,59.976956831332714,
,,,,,,,,,,,,54,0,54,0,,,,,,,,,,,,,,,,,,,,,,,,,,,,,,,,,,,,,,,,,,,,,,,,,834.0331824002787,None,,,,,,,,,,,,,,,,,,,,,,,,,,,,,,,,,,,,,,,,,,,,,,,,,,,,,,,,,pride,28,55,sing,old,yellow,832.602135299705,None,y,832.602135299705,None,"['y', 'return']","[1.2284816997125745, 1.3877531997859478]",832.602135299705,None,,,47,001,2023_Apr_19_1200,ExactRep-v3-final,2021.2.3,59.976956831332714,
,,,,,,,,,,,,55,0,55,0,,,,,,,,,,,,,,,,,,,,,,,,,,,,,,,,,,,,,,,,,,,,,,,,,835.5840620994568,None,,,,,,,,,,,,,,,,,,,,,,,,,,,,,,,,,,,,,,,,,,,,,,,,,,,,,,,,,church,203,56,sing,new,yellow,834.5453327996656,None,n,834.5453327996656,None,"['n', 'return']","[0.7805749997496605, 1.0045635998249054]",834.5453327996656,None,,,47,001,2023_Apr_19_1200,ExactRep-v3-final,2021.2.3,59.976956831332714,
,,,,,,,,,,,,56,0,56,0,,,,,,,,,,,,,,,,,,,,,,,,,,,,,,,,,,,,,,,,,,,,,,,,,837.3024261994287,None,,,,,,,,,,,,,,,,,,,,,,,,,,,,,,,,,,,,,,,,,,,,,,,,,,,,,,,,,sugar,4,57,sing,old,yellow,836.0936423996463,None,y,836.0936423996463,None,"['y', 'return']","[0.9124676007777452, 1.1761779002845287]",836.0936423996463,None,,,47,001,2023_Apr_19_1200,ExactRep-v3-final,2021.2.3,59.976956831332714,
,,,,,,,,,,,,57,0,57,0,,,,,,,,,,,,,,,,,,,,,,,,,,,,,,,,,,,,,,,,,,,,,,,,,839.6101303994656,None,,,,,,,,,,,,,,,,,,,,,,,,,,,,,,,,,,,,,,,,,,,,,,,,,,,,,,,,,thought,7,58,sing,old,yellow,837.807113500312,None,n,837.807113500312,None,"['n', 'return']","[1.5267731007188559, 1.7508348003029823]",837.807113500312,None,,,47,001,2023_Apr_19_1200,ExactRep-v3-final,2021.2.3,59.976956831332714,
,,,,,,,,,,,,58,0,58,0,,,,,,,,,,,,,,,,,,,,,,,,,,,,,,,,,,,,,,,,,,,,,,,,,841.506643500179,None,,,,,,,,,,,,,,,,,,,,,,,,,,,,,,,,,,,,,,,,,,,,,,,,,,,,,,,,,sea,104,59,aloud,old,yellow,840.1283414000645,None,y,840.1283414000645,None,"['y', 'return']","[1.0695888996124268, 1.3335926998406649]",840.1283414000645,None,,,47,001,2023_Apr_19_1200,ExactRep-v3-final,2021.2.3,59.976956831332714,
,,,,,,,,,,,,59,0,59,0,,,,,,,,,,,,,,,,,,,,,,,,,,,,,,,,,,,,,,,,,,,,,,,,,843.4419275000691,None,,,,,,,,,,,,,,,,,,,,,,,,,,,,,,,,,,,,,,,,,,,,,,,,,,,,,,,,,fire,43,60,silent,old,yellow,842.016843999736,None,y,842.016843999736,None,"['y', 'y', 'return']","[0.8132560001686215, 0.9651449006050825, 1.380969800055027]",842.016843999736,None,,,47,001,2023_Apr_19_1200,ExactRep-v3-final,2021.2.3,59.976956831332714,
,,,,,,,,,,,,60,0,60,0,,,,,,,,,,,,,,,,,,,,,,,,,,,,,,,,,,,,,,,,,,,,,,,,,844.9267058996484,None,,,,,,,,,,,,,,,,,,,,,,,,,,,,,,,,,,,,,,,,,,,,,,,,,,,,,,,,,moral,33,61,sing,old,yellow,843.9504134003073,None,y,843.9504134003073,None,"['y', 'return']","[0.6394955003634095, 0.9355880003422499]",843.9504134003073,None,,,47,001,2023_Apr_19_1200,ExactRep-v3-final,2021.2.3,59.976956831332714,
,,,,,,,,,,,,61,0,61,0,,,,,,,,,,,,,,,,,,,,,,,,,,,,,,,,,,,,,,,,,,,,,,,,,847.8963572001085,None,,,,,,,,,,,,,,,,,,,,,,,,,,,,,,,,,,,,,,,,,,,,,,,,,,,,,,,,,style,101,62,aloud,old,yellow,845.4406648995355,None,y,845.4406648995355,None,"['y', 'return']","[2.197279999963939, 2.413243600167334]",845.4406648995355,None,,,47,001,2023_Apr_19_1200,ExactRep-v3-final,2021.2.3,59.976956831332714,
,,,,,,,,,,,,62,0,62,0,,,,,,,,,,,,,,,,,,,,,,,,,,,,,,,,,,,,,,,,,,,,,,,,,849.4478848995641,None,,,,,,,,,,,,,,,,,,,,,,,,,,,,,,,,,,,,,,,,,,,,,,,,,,,,,,,,,winter,107,63,aloud,old,yellow,848.4095676001161,None,n,848.4095676001161,None,"['n', 'return']","[0.7962290998548269, 1.0042784996330738]",848.4095676001161,None,,,47,001,2023_Apr_19_1200,ExactRep-v3-final,2021.2.3,59.976956831332714,
,,,,,,,,,,,,63,0,63,0,,,,,,,,,,,,,,,,,,,,,,,,,,,,,,,,,,,,,,,,,,,,,,,,,850.8490404002368,None,,,,,,,,,,,,,,,,,,,,,,,,,,,,,,,,,,,,,,,,,,,,,,,,,,,,,,,,,idea,111,64,aloud,old,yellow,849.9574820995331,None,y,849.9574820995331,None,"['y', 'return']","[0.632395800203085, 0.8566172001883388]",849.9574820995331,None,,,47,001,2023_Apr_19_1200,ExactRep-v3-final,2021.2.3,59.976956831332714,
,,,,,,,,,,,,64,0,64,0,,,,,,,,,,,,,,,,,,,,,,,,,,,,,,,,,,,,,,,,,,,,,,,,,852.400887100026,None,,,,,,,,,,,,,,,,,,,,,,,,,,,,,,,,,,,,,,,,,,,,,,,,,,,,,,,,,toy,108,65,aloud,old,yellow,851.3563252994791,None,y,851.3563252994791,None,"['y', 'return']","[0.7616352997720242, 1.009659099392593]",851.3563252994791,None,,,47,001,2023_Apr_19_1200,ExactRep-v3-final,2021.2.3,59.976956831332714,
,,,,,,,,,,,,65,0,65,0,,,,,,,,,,,,,,,,,,,,,,,,,,,,,,,,,,,,,,,,,,,,,,,,,854.13578459993,None,,,,,,,,,,,,,,,,,,,,,,,,,,,,,,,,,,,,,,,,,,,,,,,,,,,,,,,,,child,20,66,sing,old,yellow,852.9153525000438,None,n,852.9153525000438,None,"['n', 'return']","[0.9307248005643487, 1.178592899814248]",852.9153525000438,None,,,47,001,2023_Apr_19_1200,ExactRep-v3-final,2021.2.3,59.976956831332714,
,,,,,,,,,,,,66,0,66,0,,,,,,,,,,,,,,,,,,,,,,,,,,,,,,,,,,,,,,,,,,,,,,,,,856.2381820995361,None,,,,,,,,,,,,,,,,,,,,,,,,,,,,,,,,,,,,,,,,,,,,,,,,,,,,,,,,,clock,133,67,silent,new,yellow,854.6483423998579,None,n,854.6483423998579,None,"['n', 'return']","[1.3098494000732899, 1.5495865996927023]",854.6483423998579,None,,,47,001,2023_Apr_19_1200,ExactRep-v3-final,2021.2.3,59.976956831332714,
,,,,,,,,,,,,67,0,67,0,,,,,,,,,,,,,,,,,,,,,,,,,,,,,,,,,,,,,,,,,,,,,,,,,858.3567963996902,None,,,,,,,,,,,,,,,,,,,,,,,,,,,,,,,,,,,,,,,,,,,,,,,,,,,,,,,,,bird,136,68,silent,new,yellow,856.7465311996639,None,n,856.7465311996639,None,"['n', 'return']","[1.3394774999469519, 1.5633658999577165]",856.7465311996639,None,,,47,001,2023_Apr_19_1200,ExactRep-v3-final,2021.2.3,59.976956831332714,
,,,,,,,,,,,,68,0,68,0,,,,,,,,,,,,,,,,,,,,,,,,,,,,,,,,,,,,,,,,,,,,,,,,,859.8082870002836,None,,,,,,,,,,,,,,,,,,,,,,,,,,,,,,,,,,,,,,,,,,,,,,,,,,,,,,,,,effort,165,69,sing,new,yellow,858.8652857001871,None,n,858.8652857001871,None,"['n', 'return']","[0.6848388994112611, 0.9086356991901994]",858.8652857001871,None,,,47,001,2023_Apr_19_1200,ExactRep-v3-final,2021.2.3,59.976956831332714,
,,,,,,,,,,,,69,0,69,0,,,,,,,,,,,,,,,,,,,,,,,,,,,,,,,,,,,,,,,,,,,,,,,,,862.010490800254,None,,,,,,,,,,,,,,,,,,,,,,,,,,,,,,,,,,,,,,,,,,,,,,,,,,,,,,,,,author,42,70,silent,old,yellow,860.3189947996289,None,n,860.3189947996289,None,"['n', 'return']","[1.4629648001864552, 1.6468679998070002]",860.3189947996289,None,,,47,001,2023_Apr_19_1200,ExactRep-v3-final,2021.2.3,59.976956831332714,
,,,,,,,,,,,,70,0,70,0,,,,,,,,,,,,,,,,,,,,,,,,,,,,,,,,,,,,,,,,,,,,,,,,,863.7622031997889,None,,,,,,,,,,,,,,,,,,,,,,,,,,,,,,,,,,,,,,,,,,,,,,,,,,,,,,,,,ticket,129,71,silent,new,yellow,862.5204809000716,None,n,862.5204809000716,None,"['n', 'return']","[1.0054671997204423, 1.1973901996389031]",862.5204809000716,None,,,47,001,2023_Apr_19_1200,ExactRep-v3-final,2021.2.3,59.976956831332714,
,,,,,,,,,,,,71,0,71,0,,,,,,,,,,,,,,,,,,,,,,,,,,,,,,,,,,,,,,,,,,,,,,,,,865.2970997998491,None,,,,,,,,,,,,,,,,,,,,,,,,,,,,,,,,,,,,,,,,,,,,,,,,,,,,,,,,,coin,130,72,silent,new,yellow,864.2781841000542,None,n,864.2781841000542,None,"['n', 'return']","[0.71177429985255, 0.9756941003724933]",864.2781841000542,None,,,47,001,2023_Apr_19_1200,ExactRep-v3-final,2021.2.3,59.976956831332714,
,,,,,,,,,,,,72,0,72,0,,,,,,,,,,,,,,,,,,,,,,,,,,,,,,,,,,,,,,,,,,,,,,,,,866.8321794001386,None,,,,,,,,,,,,,,,,,,,,,,,,,,,,,,,,,,,,,,,,,,,,,,,,,,,,,,,,,coast,199,73,sing,new,yellow,865.8097428996116,None,n,865.8097428996116,None,"['n', 'return']","[0.7162089003250003, 0.9882140001282096]",865.8097428996116,None,,,47,001,2023_Apr_19_1200,ExactRep-v3-final,2021.2.3,59.976956831332714,
,,,,,,,,,,,,73,0,73,0,,,,,,,,,,,,,,,,,,,,,,,,,,,,,,,,,,,,,,,,,,,,,,,,,870.0184923000634,None,,,,,,,,,,,,,,,,,,,,,,,,,,,,,,,,,,,,,,,,,,,,,,,,,,,,,,,,,star,92,74,aloud,old,yellow,867.3386359997094,None,y,867.3386359997094,None,"['n', 'y', 'backspace', 'y', 'return']","[0.6993188001215458, 1.291559100151062, 2.0194105999544263, 2.1873832996934652, 2.6434473004192114]",867.3386359997094,None,,,47,001,2023_Apr_19_1200,ExactRep-v3-final,2021.2.3,59.976956831332714,
,,,,,,,,,,,,74,0,74,0,,,,,,,,,,,,,,,,,,,,,,,,,,,,,,,,,,,,,,,,,,,,,,,,,871.6701250998303,None,,,,,,,,,,,,,,,,,,,,,,,,,,,,,,,,,,,,,,,,,,,,,,,,,,,,,,,,,vision,149,75,silent,new,yellow,870.5269606001675,None,n,870.5269606001675,None,"['n', 'return']","[0.8870069002732635, 1.103089600801468]",870.5269606001675,None,,,47,001,2023_Apr_19_1200,ExactRep-v3-final,2021.2.3,59.976956831332714,
,,,,,,,,,,,,75,0,75,0,,,,,,,,,,,,,,,,,,,,,,,,,,,,,,,,,,,,,,,,,,,,,,,,,873.2112596994266,None,,,,,,,,,,,,,,,,,,,,,,,,,,,,,,,,,,,,,,,,,,,,,,,,,,,,,,,,,city,202,76,aloud,new,yellow,872.1755627002567,None,n,872.1755627002567,None,"['n', 'return']","[0.774478399194777, 0.9824383994564414]",872.1755627002567,None,,,47,001,2023_Apr_19_1200,ExactRep-v3-final,2021.2.3,59.976956831332714,
,,,,,,,,,,,,76,0,76,0,,,,,,,,,,,,,,,,,,,,,,,,,,,,,,,,,,,,,,,,,,,,,,,,,874.9400841994211,None,,,,,,,,,,,,,,,,,,,,,,,,,,,,,,,,,,,,,,,,,,,,,,,,,,,,,,,,,meeting,47,77,silent,old,yellow,873.73144519981,None,y,873.73144519981,None,"['y', 'return']","[0.9784412002190948, 1.170575900003314]",873.73144519981,None,,,47,001,2023_Apr_19_1200,ExactRep-v3-final,2021.2.3,59.976956831332714,
,,,,,,,,,,,,77,0,77,0,,,,,,,,,,,,,,,,,,,,,,,,,,,,,,,,,,,,,,,,,,,,,,,,,876.608232899569,None,,,,,,,,,,,,,,,,,,,,,,,,,,,,,,,,,,,,,,,,,,,,,,,,,,,,,,,,,answer,198,78,aloud,new,yellow,875.4510651994497,None,n,875.4510651994497,None,"['n', 'return']","[0.8829555995762348, 1.1229010997340083]",875.4510651994497,None,,,47,001,2023_Apr_19_1200,ExactRep-v3-final,2021.2.3,59.976956831332714,
,,,,,,,,,,,,78,0,78,0,,,,,,,,,,,,,,,,,,,,,,,,,,,,,,,,,,,,,,,,,,,,,,,,,878.1932595996186,None,,,,,,,,,,,,,,,,,,,,,,,,,,,,,,,,,,,,,,,,,,,,,,,,,,,,,,,,,chief,30,79,sing,old,yellow,877.1252129999921,None,y,877.1252129999921,None,"['y', 'return']","[0.8329111998900771, 1.0328791998326778]",877.1252129999921,None,,,47,001,2023_Apr_19_1200,ExactRep-v3-final,2021.2.3,59.976956831332714,
,,,,,,,,,,,,79,0,79,0,,,,,,,,,,,,,,,,,,,,,,,,,,,,,,,,,,,,,,,,,,,,,,,,,879.6778585994616,None,,,,,,,,,,,,,,,,,,,,,,,,,,,,,,,,,,,,,,,,,,,,,,,,,,,,,,,,,product,184,80,aloud,new,yellow,878.7106651002541,None,n,878.7106651002541,None,"['n', 'return']","[0.7033579992130399, 0.9194100992754102]",878.7106651002541,None,,,47,001,2023_Apr_19_1200,ExactRep-v3-final,2021.2.3,59.976956831332714,
,,,,,,,,,,,,80,0,80,0,,,,,,,,,,,,,,,,,,,,,,,,,,,,,,,,,,,,,,,,,,,,,,,,,881.2295685997233,None,,,,,,,,,,,,,,,,,,,,,,,,,,,,,,,,,,,,,,,,,,,,,,,,,,,,,,,,,deed,26,81,sing,old,yellow,880.1871760999784,None,y,880.1871760999784,None,"['y', 'return']","[0.7547842003405094, 1.0109014995396137]",880.1871760999784,None,,,47,001,2023_Apr_19_1200,ExactRep-v3-final,2021.2.3,59.976956831332714,
,,,,,,,,,,,,81,0,81,0,,,,,,,,,,,,,,,,,,,,,,,,,,,,,,,,,,,,,,,,,,,,,,,,,882.8978655999526,None,,,,,,,,,,,,,,,,,,,,,,,,,,,,,,,,,,,,,,,,,,,,,,,,,,,,,,,,,flood,21,82,sing,old,yellow,881.7417508000508,None,y,881.7417508000508,None,"['y', 'return']","[0.9361755000427365, 1.1201865999028087]",881.7417508000508,None,,,47,001,2023_Apr_19_1200,ExactRep-v3-final,2021.2.3,59.976956831332714,
,,,,,,,,,,,,82,0,82,0,,,,,,,,,,,,,,,,,,,,,,,,,,,,,,,,,,,,,,,,,,,,,,,,,884.4830516995862,None,,,,,,,,,,,,,,,,,,,,,,,,,,,,,,,,,,,,,,,,,,,,,,,,,,,,,,,,,world,211,83,sing,new,yellow,883.3985649999231,None,n,883.3985649999231,None,"['n', 'return']","[0.7994969999417663, 1.0474576000124216]",883.3985649999231,None,,,47,001,2023_Apr_19_1200,ExactRep-v3-final,2021.2.3,59.976956831332714,
,,,,,,,,,,,,83,0,83,0,,,,,,,,,,,,,,,,,,,,,,,,,,,,,,,,,,,,,,,,,,,,,,,,,888.0196851994842,None,,,,,,,,,,,,,,,,,,,,,,,,,,,,,,,,,,,,,,,,,,,,,,,,,,,,,,,,,officer,76,84,silent,old,yellow,884.9892804995179,None,n,884.9892804995179,None,"['n', 'return']","[1.3845843998715281, 2.9925636993721128]",884.9892804995179,None,,,47,001,2023_Apr_19_1200,ExactRep-v3-final,2021.2.3,59.976956831332714,
,,,,,,,,,,,,84,0,84,0,,,,,,,,,,,,,,,,,,,,,,,,,,,,,,,,,,,,,,,,,,,,,,,,,889.7382004000247,None,,,,,,,,,,,,,,,,,,,,,,,,,,,,,,,,,,,,,,,,,,,,,,,,,,,,,,,,,mother,106,85,aloud,old,yellow,888.5290486002341,None,y,888.5290486002341,None,"['y', 'return']","[0.8689554994925857, 1.1648658998310566]",888.5290486002341,None,,,47,001,2023_Apr_19_1200,ExactRep-v3-final,2021.2.3,59.976956831332714,
,,,,,,,,,,,,85,0,85,0,,,,,,,,,,,,,,,,,,,,,,,,,,,,,,,,,,,,,,,,,,,,,,,,,891.4732710998505,None,,,,,,,,,,,,,,,,,,,,,,,,,,,,,,,,,,,,,,,,,,,,,,,,,,,,,,,,,letter,110,86,aloud,old,yellow,890.2415664996952,None,y,890.2415664996952,None,"['y', 'return']","[0.884392200037837, 1.1883006002753973]",890.2415664996952,None,,,47,001,2023_Apr_19_1200,ExactRep-v3-final,2021.2.3,59.976956831332714,
,,,,,,,,,,,,86,0,86,0,,,,,,,,,,,,,,,,,,,,,,,,,,,,,,,,,,,,,,,,,,,,,,,,,892.9747255994007,None,,,,,,,,,,,,,,,,,,,,,,,,,,,,,,,,,,,,,,,,,,,,,,,,,,,,,,,,,honour,11,87,sing,old,yellow,891.9810204003006,None,y,891.9810204003006,None,"['y', 'return']","[0.7211649995297194, 0.9610067000612617]",891.9810204003006,None,,,47,001,2023_Apr_19_1200,ExactRep-v3-final,2021.2.3,59.976956831332714,
,,,,,,,,,,,,87,0,87,0,,,,,,,,,,,,,,,,,,,,,,,,,,,,,,,,,,,,,,,,,,,,,,,,,894.3926935000345,None,,,,,,,,,,,,,,,,,,,,,,,,,,,,,,,,,,,,,,,,,,,,,,,,,,,,,,,,,hide,64,88,silent,old,yellow,893.4839124996215,None,y,893.4839124996215,None,"['y', 'return']","[0.738086299970746, 0.8660912001505494]",893.4839124996215,None,,,47,001,2023_Apr_19_1200,ExactRep-v3-final,2021.2.3,59.976956831332714,
,,,,,,,,,,,,88,0,88,0,,,,,,,,,,,,,,,,,,,,,,,,,,,,,,,,,,,,,,,,,,,,,,,,,895.9111633002758,None,,,,,,,,,,,,,,,,,,,,,,,,,,,,,,,,,,,,,,,,,,,,,,,,,,,,,,,,,justice,69,89,silent,old,yellow,894.9046030994505,None,n,894.9046030994505,None,"['n', 'return']","[0.7573559004813433, 0.9733670996502042]",894.9046030994505,None,,,47,001,2023_Apr_19_1200,ExactRep-v3-final,2021.2.3,59.976956831332714,
,,,,,,,,,,,,89,0,89,0,,,,,,,,,,,,,,,,,,,,,,,,,,,,,,,,,,,,,,,,,,,,,,,,,897.3123765997589,None,,,,,,,,,,,,,,,,,,,,,,,,,,,,,,,,,,,,,,,,,,,,,,,,,,,,,,,,,ship,36,90,sing,old,yellow,896.4206900000572,None,n,896.4206900000572,None,"['n', 'return']","[0.6974416999146342, 0.8572457004338503]",896.4206900000572,None,,,47,001,2023_Apr_19_1200,ExactRep-v3-final,2021.2.3,59.976956831332714,
,,,,,,,,,,,,90,0,90,0,,,,,,,,,,,,,,,,,,,,,,,,,,,,,,,,,,,,,,,,,,,,,,,,,898.9141418999061,None,,,,,,,,,,,,,,,,,,,,,,,,,,,,,,,,,,,,,,,,,,,,,,,,,,,,,,,,,lad,109,91,aloud,old,yellow,897.8210785994306,None,y,897.8210785994306,None,"['y', 'return']","[0.7531756991520524, 1.0568496994674206]",897.8210785994306,None,,,47,001,2023_Apr_19_1200,ExactRep-v3-final,2021.2.3,59.976956831332714,
,,,,,,,,,,,,91,0,91,0,,,,,,,,,,,,,,,,,,,,,,,,,,,,,,,,,,,,,,,,,,,,,,,,,900.3655107002705,None,,,,,,,,,,,,,,,,,,,,,,,,,,,,,,,,,,,,,,,,,,,,,,,,,,,,,,,,,vessel,182,92,aloud,new,yellow,899.4247604003176,None,n,899.4247604003176,None,"['n', 'return']","[0.6374562000855803, 0.8931852001696825]",899.4247604003176,None,,,47,001,2023_Apr_19_1200,ExactRep-v3-final,2021.2.3,59.976956831332714,
,,,,,,,,,,,,92,0,92,0,,,,,,,,,,,,,,,,,,,,,,,,,,,,,,,,,,,,,,,,,,,,,,,,,902.0337853999808,None,,,,,,,,,,,,,,,,,,,,,,,,,,,,,,,,,,,,,,,,,,,,,,,,,,,,,,,,,advice,217,93,sing,new,yellow,900.8762133996934,None,n,900.8762133996934,None,"['n', 'return']","[0.8737100996077061, 1.113694000057876]",900.8762133996934,None,,,47,001,2023_Apr_19_1200,ExactRep-v3-final,2021.2.3,59.976956831332714,
,,,,,,,,,,,,93,0,93,0,,,,,,,,,,,,,,,,,,,,,,,,,,,,,,,,,,,,,,,,,,,,,,,,,903.4567539999261,None,,,,,,,,,,,,,,,,,,,,,,,,,,,,,,,,,,,,,,,,,,,,,,,,,,,,,,,,,boulder,204,94,aloud,new,yellow,902.5435232995078,None,n,902.5435232995078,None,"['n', 'return']","[0.5824553007259965, 0.8704711999744177]",902.5435232995078,None,,,47,001,2023_Apr_19_1200,ExactRep-v3-final,2021.2.3,59.976956831332714,
,,,,,,,,,,,,94,0,94,0,,,,,,,,,,,,,,,,,,,,,,,,,,,,,,,,,,,,,,,,,,,,,,,,,904.9035310996696,None,,,,,,,,,,,,,,,,,,,,,,,,,,,,,,,,,,,,,,,,,,,,,,,,,,,,,,,,,square,23,95,sing,old,yellow,903.9766913000494,None,n,903.9766913000494,None,"['n', 'return']","[0.6373100997880101, 0.8933264994993806]",903.9766913000494,None,,,47,001,2023_Apr_19_1200,ExactRep-v3-final,2021.2.3,59.976956831332714,
,,,,,,,,,,,,95,0,95,0,,,,,,,,,,,,,,,,,,,,,,,,,,,,,,,,,,,,,,,,,,,,,,,,,906.7385082002729,None,,,,,,,,,,,,,,,,,,,,,,,,,,,,,,,,,,,,,,,,,,,,,,,,,,,,,,,,,iron,66,96,silent,old,yellow,905.4121234994382,None,n,905.4121234994382,None,"['n', 'return']","[1.0657722000032663, 1.2899254001677036]",905.4121234994382,None,,,47,001,2023_Apr_19_1200,ExactRep-v3-final,2021.2.3,59.976956831332714,
,,,,,,,,,,,,96,0,96,0,,,,,,,,,,,,,,,,,,,,,,,,,,,,,,,,,,,,,,,,,,,,,,,,,908.2400430003181,None,,,,,,,,,,,,,,,,,,,,,,,,,,,,,,,,,,,,,,,,,,,,,,,,,,,,,,,,,passion,128,97,silent,new,yellow,907.2411866001785,None,n,907.2411866001785,None,"['n', 'return']","[0.7006906997412443, 0.9568261001259089]",907.2411866001785,None,,,47,001,2023_Apr_19_1200,ExactRep-v3-final,2021.2.3,59.976956831332714,
,,,,,,,,,,,,97,0,97,0,,,,,,,,,,,,,,,,,,,,,,,,,,,,,,,,,,,,,,,,,,,,,,,,,909.7749093994498,None,,,,,,,,,,,,,,,,,,,,,,,,,,,,,,,,,,,,,,,,,,,,,,,,,,,,,,,,,soil,118,98,aloud,old,yellow,908.7471936000511,None,n,908.7471936000511,None,"['n', 'return']","[0.7388570001348853, 0.9867813996970654]",908.7471936000511,None,,,47,001,2023_Apr_19_1200,ExactRep-v3-final,2021.2.3,59.976956831332714,
,,,,,,,,,,,,98,0,98,0,,,,,,,,,,,,,,,,,,,,,,,,,,,,,,,,,,,,,,,,,,,,,,,,,912.9947929000482,None,,,,,,,,,,,,,,,,,,,,,,,,,,,,,,,,,,,,,,,,,,,,,,,,,,,,,,,,,mercy,206,99,aloud,new,yellow,910.2848185002804,None,y,910.2848185002804,None,"['y', 'return']","[2.313210899941623, 2.6732402993366122]",910.2848185002804,None,,,47,001,2023_Apr_19_1200,ExactRep-v3-final,2021.2.3,59.976956831332714,
,,,,,,,,,,,,99,0,99,0,,,,,,,,,,,,,,,,,,,,,,,,,,,,,,,,,,,,,,,,,,,,,,,,,914.8634184999391,None,,,,,,,,,,,,,,,,,,,,,,,,,,,,,,,,,,,,,,,,,,,,,,,,,,,,,,,,,grief,230,100,aloud,new,yellow,913.5049144998193,None,n,913.5049144998193,None,"['n', 'return']","[1.085092700086534, 1.3172016004100442]",913.5049144998193,None,,,47,001,2023_Apr_19_1200,ExactRep-v3-final,2021.2.3,59.976956831332714,
,,,,,,,,,,,,100,0,100,0,,,,,,,,,,,,,,,,,,,,,,,,,,,,,,,,,,,,,,,,,,,,,,,,,916.631871599704,None,,,,,,,,,,,,,,,,,,,,,,,,,,,,,,,,,,,,,,,,,,,,,,,,,,,,,,,,,meat,163,101,sing,new,yellow,915.3719250997528,None,n,915.3719250997528,None,"['n', 'return']","[1.0581339001655579, 1.2180941002443433]",915.3719250997528,None,,,47,001,2023_Apr_19_1200,ExactRep-v3-final,2021.2.3,59.976956831332714,
,,,,,,,,,,,,101,0,101,0,,,,,,,,,,,,,,,,,,,,,,,,,,,,,,,,,,,,,,,,,,,,,,,,,919.4009934002534,None,,,,,,,,,,,,,,,,,,,,,,,,,,,,,,,,,,,,,,,,,,,,,,,,,,,,,,,,,gold,102,102,aloud,old,yellow,917.1390984999016,None,n,917.1390984999016,None,"['n', 'return']","[2.083049299195409, 2.2269919998943806]",917.1390984999016,None,,,47,001,2023_Apr_19_1200,ExactRep-v3-final,2021.2.3,59.976956831332714,
,,,,,,,,,,,,102,0,102,0,,,,,,,,,,,,,,,,,,,,,,,,,,,,,,,,,,,,,,,,,,,,,,,,,922.3872392997146,None,,,,,,,,,,,,,,,,,,,,,,,,,,,,,,,,,,,,,,,,,,,,,,,,,,,,,,,,,cotton,32,103,sing,old,yellow,919.9068473996595,None,n,919.9068473996595,None,"['n', 'return']","[2.219184899702668, 2.443199399858713]",919.9068473996595,None,,,47,001,2023_Apr_19_1200,ExactRep-v3-final,2021.2.3,59.976956831332714,
,,,,,,,,,,,,103,0,103,0,,,,,,,,,,,,,,,,,,,,,,,,,,,,,,,,,,,,,,,,,,,,,,,,,924.8398874998093,None,,,,,,,,,,,,,,,,,,,,,,,,,,,,,,,,,,,,,,,,,,,,,,,,,,,,,,,,,prison,61,104,silent,old,yellow,922.891569099389,None,y,922.891569099389,None,"['n', 'backspace', 'y', 'return']","[0.6427531996741891, 1.5625654999166727, 1.7304365001618862, 1.914466499350965]",922.891569099389,None,,,47,001,2023_Apr_19_1200,ExactRep-v3-final,2021.2.3,59.976956831332714,
,,,,,,,,,,,,104,0,104,0,,,,,,,,,,,,,,,,,,,,,,,,,,,,,,,,,,,,,,,,,,,,,,,,,926.4082913994789,None,,,,,,,,,,,,,,,,,,,,,,,,,,,,,,,,,,,,,,,,,,,,,,,,,,,,,,,,,season,144,105,silent,new,yellow,925.3531043995172,None,n,925.3531043995172,None,"['n', 'return']","[0.7809172999113798, 1.0209793001413345]",925.3531043995172,None,,,47,001,2023_Apr_19_1200,ExactRep-v3-final,2021.2.3,59.976956831332714,
,,,,,,,,,,,,105,0,105,0,,,,,,,,,,,,,,,,,,,,,,,,,,,,,,,,,,,,,,,,,,,,,,,,,927.9932797001675,None,,,,,,,,,,,,,,,,,,,,,,,,,,,,,,,,,,,,,,,,,,,,,,,,,,,,,,,,,hope,119,106,aloud,old,yellow,926.9201007997617,None,n,926.9201007997617,None,"['n', 'return']","[0.7820036998018622, 1.0299311997368932]",926.9201007997617,None,,,47,001,2023_Apr_19_1200,ExactRep-v3-final,2021.2.3,59.976956831332714,
,,,,,,,,,,,,106,0,106,0,,,,,,,,,,,,,,,,,,,,,,,,,,,,,,,,,,,,,,,,,,,,,,,,,930.5621144995093,None,,,,,,,,,,,,,,,,,,,,,,,,,,,,,,,,,,,,,,,,,,,,,,,,,,,,,,,,,salary,140,107,silent,new,yellow,928.500250400044,None,n,928.500250400044,None,"['n', 'return']","[1.7139419000595808, 2.01770449988544]",928.500250400044,None,,,47,001,2023_Apr_19_1200,ExactRep-v3-final,2021.2.3,59.976956831332714,
,,,,,,,,,,,,107,0,107,0,,,,,,,,,,,,,,,,,,,,,,,,,,,,,,,,,,,,,,,,,,,,,,,,,932.2314550997689,None,,,,,,,,,,,,,,,,,,,,,,,,,,,,,,,,,,,,,,,,,,,,,,,,,,,,,,,,,butter,196,108,aloud,new,yellow,931.0707898000255,None,n,931.0707898000255,None,"['n', 'return']","[0.8712777001783252, 1.1192521005868912]",931.0707898000255,None,,,47,001,2023_Apr_19_1200,ExactRep-v3-final,2021.2.3,59.976956831332714,
,,,,,,,,,,,,108,0,108,0,,,,,,,,,,,,,,,,,,,,,,,,,,,,,,,,,,,,,,,,,,,,,,,,,934.5164093002677,None,,,,,,,,,,,,,,,,,,,,,,,,,,,,,,,,,,,,,,,,,,,,,,,,,,,,,,,,,coffee,53,109,silent,old,yellow,932.7406751001254,None,n,932.7406751001254,None,"['n', 'return']","[1.545283100567758, 1.7373398002237082]",932.7406751001254,None,,,47,001,2023_Apr_19_1200,ExactRep-v3-final,2021.2.3,59.976956831332714,
,,,,,,,,,,,,109,0,109,0,,,,,,,,,,,,,,,,,,,,,,,,,,,,,,,,,,,,,,,,,,,,,,,,,936.0845668995753,None,,,,,,,,,,,,,,,,,,,,,,,,,,,,,,,,,,,,,,,,,,,,,,,,,,,,,,,,,picture,125,110,silent,new,yellow,935.0290430001915,None,n,935.0290430001915,None,"['n', 'return']","[0.7929764995351434, 1.0171574000269175]",935.0290430001915,None,,,47,001,2023_Apr_19_1200,ExactRep-v3-final,2021.2.3,59.976956831332714,
,,,,,,,,,,,,110,0,110,0,,,,,,,,,,,,,,,,,,,,,,,,,,,,,,,,,,,,,,,,,,,,,,,,,937.702759699896,None,,,,,,,,,,,,,,,,,,,,,,,,,,,,,,,,,,,,,,,,,,,,,,,,,,,,,,,,,chair,37,111,sing,old,yellow,936.5849703000858,None,n,936.5849703000858,None,"['n', 'return']","[0.940965099260211, 1.077021999284625]",936.5849703000858,None,,,47,001,2023_Apr_19_1200,ExactRep-v3-final,2021.2.3,59.976956831332714,
,,,,,,,,,,,,111,0,111,0,,,,,,,,,,,,,,,,,,,,,,,,,,,,,,,,,,,,,,,,,,,,,,,,,939.2876298995689,None,,,,,,,,,,,,,,,,,,,,,,,,,,,,,,,,,,,,,,,,,,,,,,,,,,,,,,,,,death,152,112,silent,new,yellow,938.2131281001493,None,n,938.2131281001493,None,"['n', 'return']","[0.8410537000745535, 1.040841699577868]",938.2131281001493,None,,,47,001,2023_Apr_19_1200,ExactRep-v3-final,2021.2.3,59.976956831332714,
,,,,,,,,,,,,112,0,112,0,,,,,,,,,,,,,,,,,,,,,,,,,,,,,,,,,,,,,,,,,,,,,,,,,941.2396847000346,None,,,,,,,,,,,,,,,,,,,,,,,,,,,,,,,,,,,,,,,,,,,,,,,,,,,,,,,,,priest,98,113,aloud,old,yellow,939.796828799881,None,y,939.796828799881,None,"['y', 'return']","[0.9851853000000119, 1.4012939995154738]",939.796828799881,None,,,47,001,2023_Apr_19_1200,ExactRep-v3-final,2021.2.3,59.976956831332714,
,,,,,,,,,,,,113,0,113,0,,,,,,,,,,,,,,,,,,,,,,,,,,,,,,,,,,,,,,,,,,,,,,,,,943.6753080002964,None,,,,,,,,,,,,,,,,,,,,,,,,,,,,,,,,,,,,,,,,,,,,,,,,,,,,,,,,,cattle,93,114,aloud,old,yellow,941.7468179995194,None,n,941.7468179995194,None,"['n', 'return']","[1.723238400183618, 1.8912563994526863]",941.7468179995194,None,,,47,001,2023_Apr_19_1200,ExactRep-v3-final,2021.2.3,59.976956831332714,
,,,,,,,,,,,,114,0,114,0,,,,,,,,,,,,,,,,,,,,,,,,,,,,,,,,,,,,,,,,,,,,,,,,,946.0110422000289,None,,,,,,,,,,,,,,,,,,,,,,,,,,,,,,,,,,,,,,,,,,,,,,,,,,,,,,,,,silence,70,115,silent,old,yellow,944.1804625000805,None,n,944.1804625000805,None,"['n', 'return']","[1.3776260996237397, 1.7936765998601913]",944.1804625000805,None,,,47,001,2023_Apr_19_1200,ExactRep-v3-final,2021.2.3,59.976956831332714,
,,,,,,,,,,,,115,0,115,0,,,,,,,,,,,,,,,,,,,,,,,,,,,,,,,,,,,,,,,,,,,,,,,,,950.231797600165,None,,,,,,,,,,,,,,,,,,,,,,,,,,,,,,,,,,,,,,,,,,,,,,,,,,,,,,,,,slave,34,116,sing,old,yellow,946.5148337995633,None,y,946.5148337995633,None,"['backspace', 'y', 'return']","[2.227250000461936, 3.283246099948883, 3.6832370003685355]",946.5148337995633,None,,,47,001,2023_Apr_19_1200,ExactRep-v3-final,2021.2.3,59.976956831332714,
,,,,,,,,,,,,116,0,116,0,,,,,,,,,,,,,,,,,,,,,,,,,,,,,,,,,,,,,,,,,,,,,,,,,952.9346466995776,None,,,,,,,,,,,,,,,,,,,,,,,,,,,,,,,,,,,,,,,,,,,,,,,,,,,,,,,,,library,222,117,aloud,new,yellow,950.741982200183,None,n,950.741982200183,None,"['n', 'return']","[1.8960619000717998, 2.152038900181651]",950.741982200183,None,,,47,001,2023_Apr_19_1200,ExactRep-v3-final,2021.2.3,59.976956831332714,
,,,,,,,,,,,,117,0,117,0,,,,,,,,,,,,,,,,,,,,,,,,,,,,,,,,,,,,,,,,,,,,,,,,,954.6864230995998,None,,,,,,,,,,,,,,,,,,,,,,,,,,,,,,,,,,,,,,,,,,,,,,,,,,,,,,,,,factory,227,118,sing,new,yellow,953.4449084997177,None,n,953.4449084997177,None,"['n', 'return']","[0.9611173002049327, 1.2011118000373244]",953.4449084997177,None,,,47,001,2023_Apr_19_1200,ExactRep-v3-final,2021.2.3,59.976956831332714,
,,,,,,,,,,,,118,0,118,0,,,,,,,,,,,,,,,,,,,,,,,,,,,,,,,,,,,,,,,,,,,,,,,,,957.9063761997968,None,,,,,,,,,,,,,,,,,,,,,,,,,,,,,,,,,,,,,,,,,,,,,,,,,,,,,,,,,cost,114,119,aloud,old,yellow,955.1956521999091,None,n,955.1956521999091,None,"['n', 'return']","[2.2743824999779463, 2.6663517002016306]",955.1956521999091,None,,,47,001,2023_Apr_19_1200,ExactRep-v3-final,2021.2.3,59.976956831332714,
,,,,,,,,,,,,119,0,119,0,,,,,,,,,,,,,,,,,,,,,,,,,,,,,,,,,,,,,,,,,,,,,,,,,959.4076177999377,None,,,,,,,,,,,,,,,,,,,,,,,,,,,,,,,,,,,,,,,,,,,,,,,,,,,,,,,,,lip,200,120,aloud,new,yellow,958.4165698001161,None,n,958.4165698001161,None,"['n', 'return']","[0.7094463994726539, 0.9574387995526195]",958.4165698001161,None,,,47,001,2023_Apr_19_1200,ExactRep-v3-final,2021.2.3,59.976956831332714,
,,,,,,,,,,,,120,0,120,0,,,,,,,,,,,,,,,,,,,,,,,,,,,,,,,,,,,,,,,,,,,,,,,,,961.5766476998106,None,,,,,,,,,,,,,,,,,,,,,,,,,,,,,,,,,,,,,,,,,,,,,,,,,,,,,,,,,insect,116,121,aloud,old,yellow,959.9175763996318,None,y,959.9175763996318,None,"['y', 'y', 'return']","[1.0803869003430009, 1.2725168000906706, 1.616580099798739]",959.9175763996318,None,,,47,001,2023_Apr_19_1200,ExactRep-v3-final,2021.2.3,59.976956831332714,
,,,,,,,,,,,,121,0,121,0,,,,,,,,,,,,,,,,,,,,,,,,,,,,,,,,,,,,,,,,,,,,,,,,,963.2616416998208,None,,,,,,,,,,,,,,,,,,,,,,,,,,,,,,,,,,,,,,,,,,,,,,,,,,,,,,,,,trouble,57,122,silent,old,yellow,962.0837311996147,None,n,962.0837311996147,None,"['n', 'return']","[0.8744337996467948, 1.1383720003068447]",962.0837311996147,None,,,47,001,2023_Apr_19_1200,ExactRep-v3-final,2021.2.3,59.976956831332714,
,,,,,,,,,,,,122,0,122,0,,,,,,,,,,,,,,,,,,,,,,,,,,,,,,,,,,,,,,,,,,,,,,,,,964.8798960000277,None,,,,,,,,,,,,,,,,,,,,,,,,,,,,,,,,,,,,,,,,,,,,,,,,,,,,,,,,,wine,142,123,silent,new,yellow,963.7705846996978,None,n,963.7705846996978,None,"['n', 'return']","[0.8194266995415092, 1.067527299746871]",963.7705846996978,None,,,47,001,2023_Apr_19_1200,ExactRep-v3-final,2021.2.3,59.976956831332714,
,,,,,,,,,,,,123,0,123,0,,,,,,,,,,,,,,,,,,,,,,,,,,,,,,,,,,,,,,,,,,,,,,,,,966.7483730996028,None,,,,,,,,,,,,,,,,,,,,,,,,,,,,,,,,,,,,,,,,,,,,,,,,,,,,,,,,,metal,233,124,sing,new,yellow,965.387493699789,None,n,965.387493699789,None,"['n', 'return']","[1.058823600411415, 1.3146531004458666]",965.387493699789,None,,,47,001,2023_Apr_19_1200,ExactRep-v3-final,2021.2.3,59.976956831332714,
,,,,,,,,,,,,124,0,124,0,,,,,,,,,,,,,,,,,,,,,,,,,,,,,,,,,,,,,,,,,,,,,,,,,970.5857490003109,None,,,,,,,,,,,,,,,,,,,,,,,,,,,,,,,,,,,,,,,,,,,,,,,,,,,,,,,,,dawn,120,125,silent,new,yellow,967.2600887995213,None,n,967.2600887995213,None,"['n', 'return']","[3.042048600502312, 3.281940800137818]",967.2600887995213,None,,,47,001,2023_Apr_19_1200,ExactRep-v3-final,2021.2.3,59.976956831332714,
,,,,,,,,,,,,125,0,125,0,,,,,,,,,,,,,,,,,,,,,,,,,,,,,,,,,,,,,,,,,,,,,,,,,974.1392829995602,None,,,,,,,,,,,,,,,,,,,,,,,,,,,,,,,,,,,,,,,,,,,,,,,,,,,,,,,,,history,237,126,sing,new,yellow,971.0938722994179,None,n,971.0938722994179,None,"['n', 'return']","[0.6243043001741171, 3.0001760004088283]",971.0938722994179,None,,,47,001,2023_Apr_19_1200,ExactRep-v3-final,2021.2.3,59.976956831332714,
,,,,,,,,,,,,126,0,126,0,,,,,,,,,,,,,,,,,,,,,,,,,,,,,,,,,,,,,,,,,,,,,,,,,975.7739044995978,None,,,,,,,,,,,,,,,,,,,,,,,,,,,,,,,,,,,,,,,,,,,,,,,,,,,,,,,,,heaven,181,127,sing,new,yellow,974.6484787994996,None,n,974.6484787994996,None,"['n', 'return']","[0.8055886002257466, 1.0935454005375504]",974.6484787994996,None,,,47,001,2023_Apr_19_1200,ExactRep-v3-final,2021.2.3,59.976956831332714,
,,,,,,,,,,,,127,0,127,0,,,,,,,,,,,,,,,,,,,,,,,,,,,,,,,,,,,,,,,,,,,,,,,,,977.7259245999157,None,,,,,,,,,,,,,,,,,,,,,,,,,,,,,,,,,,,,,,,,,,,,,,,,,,,,,,,,,excuse,236,128,aloud,new,yellow,976.2907175999135,None,n,976.2907175999135,None,"['n', 'return']","[1.1393119003623724, 1.395346499979496]",976.2907175999135,None,,,47,001,2023_Apr_19_1200,ExactRep-v3-final,2021.2.3,59.976956831332714,
,,,,,,,,,,,,128,0,128,0,,,,,,,,,,,,,,,,,,,,,,,,,,,,,,,,,,,,,,,,,,,,,,,,,979.728201800026,None,,,,,,,,,,,,,,,,,,,,,,,,,,,,,,,,,,,,,,,,,,,,,,,,,,,,,,,,,temple,52,129,silent,old,yellow,978.2359362002462,None,n,978.2359362002462,None,"['n', 'return']","[0.602140299975872, 1.4581674002110958]",978.2359362002462,None,,,47,001,2023_Apr_19_1200,ExactRep-v3-final,2021.2.3,59.976956831332714,
,,,,,,,,,,,,129,0,129,0,,,,,,,,,,,,,,,,,,,,,,,,,,,,,,,,,,,,,,,,,,,,,,,,,981.5132432999089,None,,,,,,,,,,,,,,,,,,,,,,,,,,,,,,,,,,,,,,,,,,,,,,,,,,,,,,,,,palace,220,130,aloud,new,yellow,980.2355638993904,None,n,980.2355638993904,None,"['n', 'return']","[0.9468753999099135, 1.2344840997830033]",980.2355638993904,None,,,47,001,2023_Apr_19_1200,ExactRep-v3-final,2021.2.3,59.976956831332714,
,,,,,,,,,,,,130,0,130,0,,,,,,,,,,,,,,,,,,,,,,,,,,,,,,,,,,,,,,,,,,,,,,,,,984.0658545000479,None,,,,,,,,,,,,,,,,,,,,,,,,,,,,,,,,,,,,,,,,,,,,,,,,,,,,,,,,,paper,172,131,aloud,new,yellow,982.0186515999958,None,n,982.0186515999958,None,"['n', 'return']","[1.0514203999191523, 2.011490799486637]",982.0186515999958,None,,,47,001,2023_Apr_19_1200,ExactRep-v3-final,2021.2.3,59.976956831332714,
