trials_fam.thisRepN,trials_fam.thisTrialN,trials_fam.thisN,trials_fam.thisIndex,trials_prc.thisRepN,trials_prc.thisTrialN,trials_prc.thisN,trials_prc.thisIndex,StudyLoop.thisRepN,StudyLoop.thisTrialN,StudyLoop.thisN,StudyLoop.thisIndex,TestLoop.thisRepN,TestLoop.thisTrialN,TestLoop.thisN,TestLoop.thisIndex,text_colortest.started,text_colortest.stopped,key_colortest.keys,key_colortest.rt,key_colortest.started,key_colortest.stopped,textCondition.started,textCondition.stopped,keyCondition.keys,keyCondition.rt,keyCondition.started,keyCondition.stopped,Condition_between,Condition_counterbal,keyWelcome.keys,keyWelcome.rt,keyWelcome.started,keyWelcome.stopped,welcome_a.started,welcome_a.stopped,welcome_b.started,welcome_b.stopped,welcome_c.started,welcome_c.stopped,welcome_d.started,welcome_d.stopped,welcome_e.started,welcome_e.stopped,welcome_f.started,welcome_f.stopped,key_resp_fam_inst.keys,key_resp_fam_inst.rt,key_resp_fam_inst.started,key_resp_fam_inst.stopped,fam_a.started,fam_a.stopped,fam_b.started,fam_b.stopped,fam_c.started,fam_c.stopped,fam_d.started,fam_d.stopped,fam_e.started,fam_e.stopped,fam_f.started,fam_f.stopped,text_famil.started,text_famil.stopped,textBlank500.started,textBlank500.stopped,key_resp_prc_inst.keys,key_resp_prc_inst.rt,key_resp_prc_inst.started,key_resp_prc_inst.stopped,prac_a.started,prac_a.stopped,prac_b.started,prac_b.stopped,prac_c.started,prac_c.stopped,prac_d.started,prac_d.stopped,prac_e.started,prac_e.stopped,prac_f.started,prac_f.stopped,text_prc_trial.started,text_prc_trial.stopped,key_resp_study_inst.keys,key_resp_study_inst.rt,key_resp_study_inst.started,key_resp_study_inst.stopped,crit_a.started,crit_a.stopped,crit_b.started,crit_b.stopped,crit_c.started,crit_c.stopped,crit_d.started,crit_d.stopped,crit_e.started,crit_e.stopped,crit_f.started,crit_f.stopped,study_word,study_num,study_order,study_type,word_color,textStudy.started,textStudy.stopped,keyStudy.keys,keyStudy.started,keyStudy.stopped,post_study.started,post_study.stopped,key_resp_post_study.keys,key_resp_post_study.rt,key_resp_post_study.started,key_resp_post_study.stopped,test_inst.started,test_inst.stopped,key_resp_test_inst.keys,key_resp_test_inst.rt,key_resp_test_inst.started,key_resp_test_inst.stopped,test_word,test_num,test_order,test_condition,old_new_test,word_color_test,textConf.started,textConf.stopped,Participant Response,textInput.started,textInput.stopped,keyResp.keys,keyResp.rt,keyResp.started,keyResp.stopped,textEnd.started,textEnd.stopped,participant,session,date,expName,psychopyVersion,frameRate,
,,,,,,,,,,,,,,,,12.945651000365615,None,n,1.3963462002575397,12.945651000365615,None,,,,,,,,,,,,,,,,,,,,,,,,,,,,,,,,,,,,,,,,,,,,,,,,,,,,,,,,,,,,,,,,,,,,,,,,,,,,,,,,,,,,,,,,,,,,,,,,,,,,,,,,,,,,,,,,,,,,,,48,001,2023_Apr_19_1221,ExactRep-v3-final,2021.2.3,59.987498705614954,
,,,,,,,,,,,,,,,,,,,,,,14.367710599675775,None,f,0.3340418003499508,14.367710599675775,None,,,,,,,,,,,,,,,,,,,,,,,,,,,,,,,,,,,,,,,,,,,,,,,,,,,,,,,,,,,,,,,,,,,,,,,,,,,,,,,,,,,,,,,,,,,,,,,,,,,,,,,,,,,,,,,,48,001,2023_Apr_19_1221,ExactRep-v3-final,2021.2.3,59.987498705614954,
,,,,,,,,,,,,,,,,,,,,,,,,,,,,whitefoils,f,space,143.366563600488,24.815417700447142,None,,,,,,,,,,,,,,,,,,,,,,,,,,,,,,,,,,,,,,,,,,,,,,,,,,,,,,,,,,,,,,,,,,,,,,,,,,,,,,,,,,,,,,,,,,,,,,,,,,,,,,,,,,48,001,2023_Apr_19_1221,ExactRep-v3-final,2021.2.3,59.987498705614954,
,,,,,,,,,,,,,,,,,,,,,,,,,,,,,,,,,,14.871789200231433,None,14.871789200231433,None,14.871789200231433,None,14.871789200231433,None,14.871789200231433,None,14.871789200231433,None,space,16.930700399912894,178.39507840014994,None,,,,,,,,,,,,,,,,,,,,,,,,,,,,,,,,,,,,,,,,,,,,,,,,,,,,,,,,,,,,,,,,,,,,,,,,,,,,,,,,,,,,,,,,,,48,001,2023_Apr_19_1221,ExactRep-v3-final,2021.2.3,59.987498705614954,
0,0,0,0,,,,,,,,,,,,,,,,,,,,,,,,,,,,,,,,,,,,,,,,,,,,,,,168.3912426996976,None,168.3912426996976,None,168.3912426996976,None,168.3912426996976,None,168.3912426996976,None,168.3912426996976,None,195.41575010027736,None,197.4171209000051,None,,,,,,,,,,,,,,,,,,,,,,,,,,,,,,,,,,,,,,,,,,,,,,,,,,,,,,,,,,,,,,,,,,,,,,,,,,48,001,2023_Apr_19_1221,ExactRep-v3-final,2021.2.3,59.987498705614954,
1,0,1,0,,,,,,,,,,,,,,,,,,,,,,,,,,,,,,,,,,,,,,,,,,,,,,,,,,,,,,,,,,,197.92384220007807,None,199.93626779969782,None,,,,,,,,,,,,,,,,,,,,,,,,,,,,,,,,,,,,,,,,,,,,,,,,,,,,,,,,,,,,,,,,,,,,,,,,,,48,001,2023_Apr_19_1221,ExactRep-v3-final,2021.2.3,59.987498705614954,
2,0,2,0,,,,,,,,,,,,,,,,,,,,,,,,,,,,,,,,,,,,,,,,,,,,,,,,,,,,,,,,,,,200.44444170035422,None,202.45529690012336,None,,,,,,,,,,,,,,,,,,,,,,,,,,,,,,,,,,,,,,,,,,,,,,,,,,,,,,,,,,,,,,,,,,,,,,,,,,48,001,2023_Apr_19_1221,ExactRep-v3-final,2021.2.3,59.987498705614954,
3,0,3,0,,,,,,,,,,,,,,,,,,,,,,,,,,,,,,,,,,,,,,,,,,,,,,,,,,,,,,,,,,,202.95599399972707,None,204.95776600018144,None,,,,,,,,,,,,,,,,,,,,,,,,,,,,,,,,,,,,,,,,,,,,,,,,,,,,,,,,,,,,,,,,,,,,,,,,,,48,001,2023_Apr_19_1221,ExactRep-v3-final,2021.2.3,59.987498705614954,
4,0,4,0,,,,,,,,,,,,,,,,,,,,,,,,,,,,,,,,,,,,,,,,,,,,,,,,,,,,,,,,,,,205.46227859985083,None,207.4770488999784,None,,,,,,,,,,,,,,,,,,,,,,,,,,,,,,,,,,,,,,,,,,,,,,,,,,,,,,,,,,,,,,,,,,,,,,,,,,48,001,2023_Apr_19_1221,ExactRep-v3-final,2021.2.3,59.987498705614954,
5,0,5,0,,,,,,,,,,,,,,,,,,,,,,,,,,,,,,,,,,,,,,,,,,,,,,,,,,,,,,,,,,,207.97750290017575,None,209.9798248000443,None,,,,,,,,,,,,,,,,,,,,,,,,,,,,,,,,,,,,,,,,,,,,,,,,,,,,,,,,,,,,,,,,,,,,,,,,,,48,001,2023_Apr_19_1221,ExactRep-v3-final,2021.2.3,59.987498705614954,
6,0,6,0,,,,,,,,,,,,,,,,,,,,,,,,,,,,,,,,,,,,,,,,,,,,,,,,,,,,,,,,,,,210.47986149974167,None,212.48225579969585,None,,,,,,,,,,,,,,,,,,,,,,,,,,,,,,,,,,,,,,,,,,,,,,,,,,,,,,,,,,,,,,,,,,,,,,,,,,48,001,2023_Apr_19_1221,ExactRep-v3-final,2021.2.3,59.987498705614954,
7,0,7,0,,,,,,,,,,,,,,,,,,,,,,,,,,,,,,,,,,,,,,,,,,,,,,,,,,,,,,,,,,,212.98284920025617,None,214.98452199995518,None,,,,,,,,,,,,,,,,,,,,,,,,,,,,,,,,,,,,,,,,,,,,,,,,,,,,,,,,,,,,,,,,,,,,,,,,,,48,001,2023_Apr_19_1221,ExactRep-v3-final,2021.2.3,59.987498705614954,
8,0,8,0,,,,,,,,,,,,,,,,,,,,,,,,,,,,,,,,,,,,,,,,,,,,,,,,,,,,,,,,,,,215.4896823996678,None,217.50397070031613,None,,,,,,,,,,,,,,,,,,,,,,,,,,,,,,,,,,,,,,,,,,,,,,,,,,,,,,,,,,,,,,,,,,,,,,,,,,48,001,2023_Apr_19_1221,ExactRep-v3-final,2021.2.3,59.987498705614954,
9,0,9,0,,,,,,,,,,,,,,,,,,,,,,,,,,,,,,,,,,,,,,,,,,,,,,,,,,,,,,,,,,,218.0043818000704,None,220.0065596997738,None,,,,,,,,,,,,,,,,,,,,,,,,,,,,,,,,,,,,,,,,,,,,,,,,,,,,,,,,,,,,,,,,,,,,,,,,,,48,001,2023_Apr_19_1221,ExactRep-v3-final,2021.2.3,59.987498705614954,
10,0,10,0,,,,,,,,,,,,,,,,,,,,,,,,,,,,,,,,,,,,,,,,,,,,,,,,,,,,,,,,,,,220.50809600017965,None,222.50871529988945,None,,,,,,,,,,,,,,,,,,,,,,,,,,,,,,,,,,,,,,,,,,,,,,,,,,,,,,,,,,,,,,,,,,,,,,,,,,48,001,2023_Apr_19_1221,ExactRep-v3-final,2021.2.3,59.987498705614954,
11,0,11,0,,,,,,,,,,,,,,,,,,,,,,,,,,,,,,,,,,,,,,,,,,,,,,,,,,,,,,,,,,,223.00968569982797,None,225.0112674003467,None,,,,,,,,,,,,,,,,,,,,,,,,,,,,,,,,,,,,,,,,,,,,,,,,,,,,,,,,,,,,,,,,,,,,,,,,,,48,001,2023_Apr_19_1221,ExactRep-v3-final,2021.2.3,59.987498705614954,
12,0,12,0,,,,,,,,,,,,,,,,,,,,,,,,,,,,,,,,,,,,,,,,,,,,,,,,,,,,,,,,,,,225.51488019991666,None,227.51390159968287,None,,,,,,,,,,,,,,,,,,,,,,,,,,,,,,,,,,,,,,,,,,,,,,,,,,,,,,,,,,,,,,,,,,,,,,,,,,48,001,2023_Apr_19_1221,ExactRep-v3-final,2021.2.3,59.987498705614954,
13,0,13,0,,,,,,,,,,,,,,,,,,,,,,,,,,,,,,,,,,,,,,,,,,,,,,,,,,,,,,,,,,,228.0213406998664,None,230.03281920030713,None,,,,,,,,,,,,,,,,,,,,,,,,,,,,,,,,,,,,,,,,,,,,,,,,,,,,,,,,,,,,,,,,,,,,,,,,,,48,001,2023_Apr_19_1221,ExactRep-v3-final,2021.2.3,59.987498705614954,
14,0,14,0,,,,,,,,,,,,,,,,,,,,,,,,,,,,,,,,,,,,,,,,,,,,,,,,,,,,,,,,,,,230.5333781996742,None,232.53568799979985,None,,,,,,,,,,,,,,,,,,,,,,,,,,,,,,,,,,,,,,,,,,,,,,,,,,,,,,,,,,,,,,,,,,,,,,,,,,48,001,2023_Apr_19_1221,ExactRep-v3-final,2021.2.3,59.987498705614954,
,,,,,,,,,,,,,,,,,,,,,,,,,,,,,,,,,,,,,,,,,,,,,,,,,,,,,,,,,,,,,,,,,,space,20.663145300000906,243.1507495995611,None,,,,,,,,,,,,,,,,,,,,,,,,,,,,,,,,,,,,,,,,,,,,,,,,,,,,,,,,,,,,,,,,,,,,,,48,001,2023_Apr_19_1221,ExactRep-v3-final,2021.2.3,59.987498705614954,
,,,,0,0,0,0,,,,,,,,,,,,,,,,,,,,,,,,,,,,,,,,,,,,,,,,,,,,,,,,,,,,,,,,,265.9189737997949,None,,,,,233.1544962003827,None,233.1544962003827,None,233.1544962003827,None,233.1544962003827,None,233.1544962003827,None,233.1544962003827,None,263.9120659995824,None,,,,,,,,,,,,,,,,,,,,,,,,,,,,,,,,,,,,,,,,,,,,,,,,,,,,,,,,48,001,2023_Apr_19_1221,ExactRep-v3-final,2021.2.3,59.987498705614954,
,,,,1,0,1,0,,,,,,,,,,,,,,,,,,,,,,,,,,,,,,,,,,,,,,,,,,,,,,,,,,,,,,,,,268.42143510002643,None,,,,,,,,,,,,,,,,,266.41948950011283,None,,,,,,,,,,,,,,,,,,,,,,,,,,,,,,,,,,,,,,,,,,,,,,,,,,,,,,,,48,001,2023_Apr_19_1221,ExactRep-v3-final,2021.2.3,59.987498705614954,
,,,,2,0,2,0,,,,,,,,,,,,,,,,,,,,,,,,,,,,,,,,,,,,,,,,,,,,,,,,,,,,,,,,,270.92390189971775,None,,,,,,,,,,,,,,,,,268.92179759964347,None,,,,,,,,,,,,,,,,,,,,,,,,,,,,,,,,,,,,,,,,,,,,,,,,,,,,,,,,48,001,2023_Apr_19_1221,ExactRep-v3-final,2021.2.3,59.987498705614954,
,,,,3,0,3,0,,,,,,,,,,,,,,,,,,,,,,,,,,,,,,,,,,,,,,,,,,,,,,,,,,,,,,,,,273.42660630028695,None,,,,,,,,,,,,,,,,,271.424578900449,None,,,,,,,,,,,,,,,,,,,,,,,,,,,,,,,,,,,,,,,,,,,,,,,,,,,,,,,,48,001,2023_Apr_19_1221,ExactRep-v3-final,2021.2.3,59.987498705614954,
,,,,4,0,4,0,,,,,,,,,,,,,,,,,,,,,,,,,,,,,,,,,,,,,,,,,,,,,,,,,,,,,,,,,275.94550030026585,None,,,,,,,,,,,,,,,,,273.9381873002276,None,,,,,,,,,,,,,,,,,,,,,,,,,,,,,,,,,,,,,,,,,,,,,,,,,,,,,,,,48,001,2023_Apr_19_1221,ExactRep-v3-final,2021.2.3,59.987498705614954,
,,,,5,0,5,0,,,,,,,,,,,,,,,,,,,,,,,,,,,,,,,,,,,,,,,,,,,,,,,,,,,,,,,,,278.4481472996995,None,,,,,,,,,,,,,,,,,276.4461895003915,None,,,,,,,,,,,,,,,,,,,,,,,,,,,,,,,,,,,,,,,,,,,,,,,,,,,,,,,,48,001,2023_Apr_19_1221,ExactRep-v3-final,2021.2.3,59.987498705614954,
,,,,6,0,6,0,,,,,,,,,,,,,,,,,,,,,,,,,,,,,,,,,,,,,,,,,,,,,,,,,,,,,,,,,280.95065930020064,None,,,,,,,,,,,,,,,,,278.9486680999398,None,,,,,,,,,,,,,,,,,,,,,,,,,,,,,,,,,,,,,,,,,,,,,,,,,,,,,,,,48,001,2023_Apr_19_1221,ExactRep-v3-final,2021.2.3,59.987498705614954,
,,,,7,0,7,0,,,,,,,,,,,,,,,,,,,,,,,,,,,,,,,,,,,,,,,,,,,,,,,,,,,,,,,,,283.45324289985,None,,,,,,,,,,,,,,,,,281.45116950012743,None,,,,,,,,,,,,,,,,,,,,,,,,,,,,,,,,,,,,,,,,,,,,,,,,,,,,,,,,48,001,2023_Apr_19_1221,ExactRep-v3-final,2021.2.3,59.987498705614954,
,,,,8,0,8,0,,,,,,,,,,,,,,,,,,,,,,,,,,,,,,,,,,,,,,,,,,,,,,,,,,,,,,,,,285.9556184997782,None,,,,,,,,,,,,,,,,,283.9533836003393,None,,,,,,,,,,,,,,,,,,,,,,,,,,,,,,,,,,,,,,,,,,,,,,,,,,,,,,,,48,001,2023_Apr_19_1221,ExactRep-v3-final,2021.2.3,59.987498705614954,
,,,,9,0,9,0,,,,,,,,,,,,,,,,,,,,,,,,,,,,,,,,,,,,,,,,,,,,,,,,,,,,,,,,,288.4582460001111,None,,,,,,,,,,,,,,,,,286.4562761001289,None,,,,,,,,,,,,,,,,,,,,,,,,,,,,,,,,,,,,,,,,,,,,,,,,,,,,,,,,48,001,2023_Apr_19_1221,ExactRep-v3-final,2021.2.3,59.987498705614954,
,,,,10,0,10,0,,,,,,,,,,,,,,,,,,,,,,,,,,,,,,,,,,,,,,,,,,,,,,,,,,,,,,,,,290.9607255998999,None,,,,,,,,,,,,,,,,,288.95880619995296,None,,,,,,,,,,,,,,,,,,,,,,,,,,,,,,,,,,,,,,,,,,,,,,,,,,,,,,,,48,001,2023_Apr_19_1221,ExactRep-v3-final,2021.2.3,59.987498705614954,
,,,,11,0,11,0,,,,,,,,,,,,,,,,,,,,,,,,,,,,,,,,,,,,,,,,,,,,,,,,,,,,,,,,,293.46322599984705,None,,,,,,,,,,,,,,,,,291.4612355995923,None,,,,,,,,,,,,,,,,,,,,,,,,,,,,,,,,,,,,,,,,,,,,,,,,,,,,,,,,48,001,2023_Apr_19_1221,ExactRep-v3-final,2021.2.3,59.987498705614954,
,,,,12,0,12,0,,,,,,,,,,,,,,,,,,,,,,,,,,,,,,,,,,,,,,,,,,,,,,,,,,,,,,,,,295.96561910025775,None,,,,,,,,,,,,,,,,,293.9637038996443,None,,,,,,,,,,,,,,,,,,,,,,,,,,,,,,,,,,,,,,,,,,,,,,,,,,,,,,,,48,001,2023_Apr_19_1221,ExactRep-v3-final,2021.2.3,59.987498705614954,
,,,,13,0,13,0,,,,,,,,,,,,,,,,,,,,,,,,,,,,,,,,,,,,,,,,,,,,,,,,,,,,,,,,,298.4679594999179,None,,,,,,,,,,,,,,,,,296.46598719991744,None,,,,,,,,,,,,,,,,,,,,,,,,,,,,,,,,,,,,,,,,,,,,,,,,,,,,,,,,48,001,2023_Apr_19_1221,ExactRep-v3-final,2021.2.3,59.987498705614954,
,,,,14,0,14,0,,,,,,,,,,,,,,,,,,,,,,,,,,,,,,,,,,,,,,,,,,,,,,,,,,,,,,,,,300.97049110010266,None,,,,,,,,,,,,,,,,,298.9686711002141,None,,,,,,,,,,,,,,,,,,,,,,,,,,,,,,,,,,,,,,,,,,,,,,,,,,,,,,,,48,001,2023_Apr_19_1221,ExactRep-v3-final,2021.2.3,59.987498705614954,
,,,,,,,,,,,,,,,,,,,,,,,,,,,,,,,,,,,,,,,,,,,,,,,,,,,,,,,,,,,,,,,,,,,,,,,,,,,,,,,,,,,,space,25.833876400254667,311.58839649986476,None,,,,,,,,,,,,,,,,,,,,,,,,,,,,,,,,,,,,,,,,,,,,,,,,,,,,48,001,2023_Apr_19_1221,ExactRep-v3-final,2021.2.3,59.987498705614954,
,,,,,,,,0,0,0,0,,,,,,,,,,,,,,,,,,,,,,,,,,,,,,,,,,,,,,,,,,,,,,,,,,,,,339.49252150021493,None,,,,,,,,,,,,,,,,,,,,,,,301.6156479995698,None,301.6156479995698,None,301.6156479995698,None,301.6156479995698,None,301.6156479995698,None,301.6156479995698,None,hope,102,1,aloud,white,337.48803909961134,None,None,337.48803909961134,None,,,,,,,,,,,,,,,,,,,,,,,,,,,,,,48,001,2023_Apr_19_1221,ExactRep-v3-final,2021.2.3,59.987498705614954,
,,,,,,,,1,0,1,0,,,,,,,,,,,,,,,,,,,,,,,,,,,,,,,,,,,,,,,,,,,,,,,,,,,,,342.01174020022154,None,,,,,,,,,,,,,,,,,,,,,,,,,,,,,,,,,,,amount,58,2,silent,blue,339.99800029955804,None,None,339.99800029955804,None,,,,,,,,,,,,,,,,,,,,,,,,,,,,,,48,001,2023_Apr_19_1221,ExactRep-v3-final,2021.2.3,59.987498705614954,
,,,,,,,,2,0,2,0,,,,,,,,,,,,,,,,,,,,,,,,,,,,,,,,,,,,,,,,,,,,,,,,,,,,,344.5306051997468,None,,,,,,,,,,,,,,,,,,,,,,,,,,,,,,,,,,,soul,7,3,sing,red,342.51777100004256,None,None,342.51777100004256,None,,,,,,,,,,,,,,,,,,,,,,,,,,,,,,48,001,2023_Apr_19_1221,ExactRep-v3-final,2021.2.3,59.987498705614954,
,,,,,,,,3,0,3,0,,,,,,,,,,,,,,,,,,,,,,,,,,,,,,,,,,,,,,,,,,,,,,,,,,,,,347.04979030042887,None,,,,,,,,,,,,,,,,,,,,,,,,,,,,,,,,,,,mind,55,4,silent,blue,345.034193799831,None,None,345.034193799831,None,,,,,,,,,,,,,,,,,,,,,,,,,,,,,,48,001,2023_Apr_19_1221,ExactRep-v3-final,2021.2.3,59.987498705614954,
,,,,,,,,4,0,4,0,,,,,,,,,,,,,,,,,,,,,,,,,,,,,,,,,,,,,,,,,,,,,,,,,,,,,349.5525693995878,None,,,,,,,,,,,,,,,,,,,,,,,,,,,,,,,,,,,speech,33,5,sing,red,347.5515317004174,None,None,347.5515317004174,None,,,,,,,,,,,,,,,,,,,,,,,,,,,,,,48,001,2023_Apr_19_1221,ExactRep-v3-final,2021.2.3,59.987498705614954,
,,,,,,,,5,0,5,0,,,,,,,,,,,,,,,,,,,,,,,,,,,,,,,,,,,,,,,,,,,,,,,,,,,,,352.07172350026667,None,,,,,,,,,,,,,,,,,,,,,,,,,,,,,,,,,,,heaven,115,6,aloud,white,350.057673599571,None,None,350.057673599571,None,,,,,,,,,,,,,,,,,,,,,,,,,,,,,,48,001,2023_Apr_19_1221,ExactRep-v3-final,2021.2.3,59.987498705614954,
,,,,,,,,6,0,6,0,,,,,,,,,,,,,,,,,,,,,,,,,,,,,,,,,,,,,,,,,,,,,,,,,,,,,354.57428999990225,None,,,,,,,,,,,,,,,,,,,,,,,,,,,,,,,,,,,kiss,25,7,sing,red,352.57363060023636,None,None,352.57363060023636,None,,,,,,,,,,,,,,,,,,,,,,,,,,,,,,48,001,2023_Apr_19_1221,ExactRep-v3-final,2021.2.3,59.987498705614954,
,,,,,,,,7,0,7,0,,,,,,,,,,,,,,,,,,,,,,,,,,,,,,,,,,,,,,,,,,,,,,,,,,,,,357.07673580013216,None,,,,,,,,,,,,,,,,,,,,,,,,,,,,,,,,,,,fact,1,8,sing,red,355.0764501998201,None,None,355.0764501998201,None,,,,,,,,,,,,,,,,,,,,,,,,,,,,,,48,001,2023_Apr_19_1221,ExactRep-v3-final,2021.2.3,59.987498705614954,
,,,,,,,,8,0,8,0,,,,,,,,,,,,,,,,,,,,,,,,,,,,,,,,,,,,,,,,,,,,,,,,,,,,,359.58111010026187,None,,,,,,,,,,,,,,,,,,,,,,,,,,,,,,,,,,,body,104,9,aloud,white,357.57707540038973,None,None,357.57707540038973,None,,,,,,,,,,,,,,,,,,,,,,,,,,,,,,48,001,2023_Apr_19_1221,ExactRep-v3-final,2021.2.3,59.987498705614954,
,,,,,,,,9,0,9,0,,,,,,,,,,,,,,,,,,,,,,,,,,,,,,,,,,,,,,,,,,,,,,,,,,,,,362.0984255997464,None,,,,,,,,,,,,,,,,,,,,,,,,,,,,,,,,,,,storm,97,10,aloud,white,360.0985286999494,None,None,360.0985286999494,None,,,,,,,,,,,,,,,,,,,,,,,,,,,,,,48,001,2023_Apr_19_1221,ExactRep-v3-final,2021.2.3,59.987498705614954,
,,,,,,,,10,0,10,0,,,,,,,,,,,,,,,,,,,,,,,,,,,,,,,,,,,,,,,,,,,,,,,,,,,,,364.6007559997961,None,,,,,,,,,,,,,,,,,,,,,,,,,,,,,,,,,,,iron,114,11,aloud,white,362.59966170042753,None,None,362.59966170042753,None,,,,,,,,,,,,,,,,,,,,,,,,,,,,,,48,001,2023_Apr_19_1221,ExactRep-v3-final,2021.2.3,59.987498705614954,
,,,,,,,,11,0,11,0,,,,,,,,,,,,,,,,,,,,,,,,,,,,,,,,,,,,,,,,,,,,,,,,,,,,,367.12002249993384,None,,,,,,,,,,,,,,,,,,,,,,,,,,,,,,,,,,,air,50,12,silent,blue,365.10606610029936,None,None,365.10606610029936,None,,,,,,,,,,,,,,,,,,,,,,,,,,,,,,48,001,2023_Apr_19_1221,ExactRep-v3-final,2021.2.3,59.987498705614954,
,,,,,,,,12,0,12,0,,,,,,,,,,,,,,,,,,,,,,,,,,,,,,,,,,,,,,,,,,,,,,,,,,,,,369.6224539000541,None,,,,,,,,,,,,,,,,,,,,,,,,,,,,,,,,,,,hide,56,13,silent,blue,367.62041120044887,None,None,367.62041120044887,None,,,,,,,,,,,,,,,,,,,,,,,,,,,,,,48,001,2023_Apr_19_1221,ExactRep-v3-final,2021.2.3,59.987498705614954,
,,,,,,,,13,0,13,0,,,,,,,,,,,,,,,,,,,,,,,,,,,,,,,,,,,,,,,,,,,,,,,,,,,,,372.1416830997914,None,,,,,,,,,,,,,,,,,,,,,,,,,,,,,,,,,,,boy,88,14,aloud,white,370.13096699956805,None,None,370.13096699956805,None,,,,,,,,,,,,,,,,,,,,,,,,,,,,,,48,001,2023_Apr_19_1221,ExactRep-v3-final,2021.2.3,59.987498705614954,
,,,,,,,,14,0,14,0,,,,,,,,,,,,,,,,,,,,,,,,,,,,,,,,,,,,,,,,,,,,,,,,,,,,,374.6444452004507,None,,,,,,,,,,,,,,,,,,,,,,,,,,,,,,,,,,,volume,61,15,silent,blue,372.6435040002689,None,None,372.6435040002689,None,,,,,,,,,,,,,,,,,,,,,,,,,,,,,,48,001,2023_Apr_19_1221,ExactRep-v3-final,2021.2.3,59.987498705614954,
,,,,,,,,15,0,15,0,,,,,,,,,,,,,,,,,,,,,,,,,,,,,,,,,,,,,,,,,,,,,,,,,,,,,377.16335059981793,None,,,,,,,,,,,,,,,,,,,,,,,,,,,,,,,,,,,sugar,99,16,aloud,white,375.1483624000102,None,None,375.1483624000102,None,,,,,,,,,,,,,,,,,,,,,,,,,,,,,,48,001,2023_Apr_19_1221,ExactRep-v3-final,2021.2.3,59.987498705614954,
,,,,,,,,16,0,16,0,,,,,,,,,,,,,,,,,,,,,,,,,,,,,,,,,,,,,,,,,,,,,,,,,,,,,379.68243269994855,None,,,,,,,,,,,,,,,,,,,,,,,,,,,,,,,,,,,safety,86,17,aloud,white,377.6684974003583,None,None,377.6684974003583,None,,,,,,,,,,,,,,,,,,,,,,,,,,,,,,48,001,2023_Apr_19_1221,ExactRep-v3-final,2021.2.3,59.987498705614954,
,,,,,,,,17,0,17,0,,,,,,,,,,,,,,,,,,,,,,,,,,,,,,,,,,,,,,,,,,,,,,,,,,,,,382.20170690026134,None,,,,,,,,,,,,,,,,,,,,,,,,,,,,,,,,,,,maiden,42,18,silent,blue,380.19215990044177,None,None,380.19215990044177,None,,,,,,,,,,,,,,,,,,,,,,,,,,,,,,48,001,2023_Apr_19_1221,ExactRep-v3-final,2021.2.3,59.987498705614954,
,,,,,,,,18,0,18,0,,,,,,,,,,,,,,,,,,,,,,,,,,,,,,,,,,,,,,,,,,,,,,,,,,,,,384.7043890003115,None,,,,,,,,,,,,,,,,,,,,,,,,,,,,,,,,,,,duty,0,19,sing,red,382.7023695996031,None,None,382.7023695996031,None,,,,,,,,,,,,,,,,,,,,,,,,,,,,,,48,001,2023_Apr_19_1221,ExactRep-v3-final,2021.2.3,59.987498705614954,
,,,,,,,,19,0,19,0,,,,,,,,,,,,,,,,,,,,,,,,,,,,,,,,,,,,,,,,,,,,,,,,,,,,,387.20652040001005,None,,,,,,,,,,,,,,,,,,,,,,,,,,,,,,,,,,,month,19,20,sing,red,385.2063512997702,None,None,385.2063512997702,None,,,,,,,,,,,,,,,,,,,,,,,,,,,,,,48,001,2023_Apr_19_1221,ExactRep-v3-final,2021.2.3,59.987498705614954,
,,,,,,,,20,0,20,0,,,,,,,,,,,,,,,,,,,,,,,,,,,,,,,,,,,,,,,,,,,,,,,,,,,,,389.7093954999,None,,,,,,,,,,,,,,,,,,,,,,,,,,,,,,,,,,,street,27,21,sing,red,387.7092505004257,None,None,387.7092505004257,None,,,,,,,,,,,,,,,,,,,,,,,,,,,,,,48,001,2023_Apr_19_1221,ExactRep-v3-final,2021.2.3,59.987498705614954,
,,,,,,,,21,0,21,0,,,,,,,,,,,,,,,,,,,,,,,,,,,,,,,,,,,,,,,,,,,,,,,,,,,,,392.2118944004178,None,,,,,,,,,,,,,,,,,,,,,,,,,,,,,,,,,,,skin,31,22,sing,red,390.21125779952854,None,None,390.21125779952854,None,,,,,,,,,,,,,,,,,,,,,,,,,,,,,,48,001,2023_Apr_19_1221,ExactRep-v3-final,2021.2.3,59.987498705614954,
,,,,,,,,22,0,22,0,,,,,,,,,,,,,,,,,,,,,,,,,,,,,,,,,,,,,,,,,,,,,,,,,,,,,394.7245188001543,None,,,,,,,,,,,,,,,,,,,,,,,,,,,,,,,,,,,ocean,46,23,silent,blue,392.713387100026,None,None,392.713387100026,None,,,,,,,,,,,,,,,,,,,,,,,,,,,,,,48,001,2023_Apr_19_1221,ExactRep-v3-final,2021.2.3,59.987498705614954,
,,,,,,,,23,0,23,0,,,,,,,,,,,,,,,,,,,,,,,,,,,,,,,,,,,,,,,,,,,,,,,,,,,,,397.25035579968244,None,,,,,,,,,,,,,,,,,,,,,,,,,,,,,,,,,,,tree,80,24,aloud,white,395.2358069997281,None,None,395.2358069997281,None,,,,,,,,,,,,,,,,,,,,,,,,,,,,,,48,001,2023_Apr_19_1221,ExactRep-v3-final,2021.2.3,59.987498705614954,
,,,,,,,,24,0,24,0,,,,,,,,,,,,,,,,,,,,,,,,,,,,,,,,,,,,,,,,,,,,,,,,,,,,,399.7693231999874,None,,,,,,,,,,,,,,,,,,,,,,,,,,,,,,,,,,,troops,10,25,sing,red,397.7540913000703,None,None,397.7540913000703,None,,,,,,,,,,,,,,,,,,,,,,,,,,,,,,48,001,2023_Apr_19_1221,ExactRep-v3-final,2021.2.3,59.987498705614954,
,,,,,,,,25,0,25,0,,,,,,,,,,,,,,,,,,,,,,,,,,,,,,,,,,,,,,,,,,,,,,,,,,,,,402.2892041001469,None,,,,,,,,,,,,,,,,,,,,,,,,,,,,,,,,,,,clock,5,26,sing,red,400.27337929978967,None,None,400.27337929978967,None,,,,,,,,,,,,,,,,,,,,,,,,,,,,,,48,001,2023_Apr_19_1221,ExactRep-v3-final,2021.2.3,59.987498705614954,
,,,,,,,,26,0,26,0,,,,,,,,,,,,,,,,,,,,,,,,,,,,,,,,,,,,,,,,,,,,,,,,,,,,,404.79102289956063,None,,,,,,,,,,,,,,,,,,,,,,,,,,,,,,,,,,,anger,22,27,sing,red,402.7902041999623,None,None,402.7902041999623,None,,,,,,,,,,,,,,,,,,,,,,,,,,,,,,48,001,2023_Apr_19_1221,ExactRep-v3-final,2021.2.3,59.987498705614954,
,,,,,,,,27,0,27,0,,,,,,,,,,,,,,,,,,,,,,,,,,,,,,,,,,,,,,,,,,,,,,,,,,,,,407.29369779955596,None,,,,,,,,,,,,,,,,,,,,,,,,,,,,,,,,,,,potato,43,28,silent,blue,405.2928207004443,None,None,405.2928207004443,None,,,,,,,,,,,,,,,,,,,,,,,,,,,,,,48,001,2023_Apr_19_1221,ExactRep-v3-final,2021.2.3,59.987498705614954,
,,,,,,,,28,0,28,0,,,,,,,,,,,,,,,,,,,,,,,,,,,,,,,,,,,,,,,,,,,,,,,,,,,,,409.8145516999066,None,,,,,,,,,,,,,,,,,,,,,,,,,,,,,,,,,,,victory,41,29,silent,blue,407.79938070010394,None,None,407.79938070010394,None,,,,,,,,,,,,,,,,,,,,,,,,,,,,,,48,001,2023_Apr_19_1221,ExactRep-v3-final,2021.2.3,59.987498705614954,
,,,,,,,,29,0,29,0,,,,,,,,,,,,,,,,,,,,,,,,,,,,,,,,,,,,,,,,,,,,,,,,,,,,,412.33186300005764,None,,,,,,,,,,,,,,,,,,,,,,,,,,,,,,,,,,,ticket,14,30,sing,red,410.3176443995908,None,None,410.3176443995908,None,,,,,,,,,,,,,,,,,,,,,,,,,,,,,,48,001,2023_Apr_19_1221,ExactRep-v3-final,2021.2.3,59.987498705614954,
,,,,,,,,30,0,30,0,,,,,,,,,,,,,,,,,,,,,,,,,,,,,,,,,,,,,,,,,,,,,,,,,,,,,414.85121130011976,None,,,,,,,,,,,,,,,,,,,,,,,,,,,,,,,,,,,owner,60,31,silent,blue,412.8425677996129,None,None,412.8425677996129,None,,,,,,,,,,,,,,,,,,,,,,,,,,,,,,48,001,2023_Apr_19_1221,ExactRep-v3-final,2021.2.3,59.987498705614954,
,,,,,,,,31,0,31,0,,,,,,,,,,,,,,,,,,,,,,,,,,,,,,,,,,,,,,,,,,,,,,,,,,,,,417.3538188999519,None,,,,,,,,,,,,,,,,,,,,,,,,,,,,,,,,,,,devil,29,32,sing,red,415.35188480000943,None,None,415.35188480000943,None,,,,,,,,,,,,,,,,,,,,,,,,,,,,,,48,001,2023_Apr_19_1221,ExactRep-v3-final,2021.2.3,59.987498705614954,
,,,,,,,,32,0,32,0,,,,,,,,,,,,,,,,,,,,,,,,,,,,,,,,,,,,,,,,,,,,,,,,,,,,,419.8572902996093,None,,,,,,,,,,,,,,,,,,,,,,,,,,,,,,,,,,,diamond,3,33,sing,red,417.85578029975295,None,None,417.85578029975295,None,,,,,,,,,,,,,,,,,,,,,,,,,,,,,,48,001,2023_Apr_19_1221,ExactRep-v3-final,2021.2.3,59.987498705614954,
,,,,,,,,33,0,33,0,,,,,,,,,,,,,,,,,,,,,,,,,,,,,,,,,,,,,,,,,,,,,,,,,,,,,422.37517610006034,None,,,,,,,,,,,,,,,,,,,,,,,,,,,,,,,,,,,weapon,48,34,silent,blue,420.3662543995306,None,None,420.3662543995306,None,,,,,,,,,,,,,,,,,,,,,,,,,,,,,,48,001,2023_Apr_19_1221,ExactRep-v3-final,2021.2.3,59.987498705614954,
,,,,,,,,34,0,34,0,,,,,,,,,,,,,,,,,,,,,,,,,,,,,,,,,,,,,,,,,,,,,,,,,,,,,424.89445540029556,None,,,,,,,,,,,,,,,,,,,,,,,,,,,,,,,,,,,prison,13,35,sing,red,422.8818809995428,None,None,422.8818809995428,None,,,,,,,,,,,,,,,,,,,,,,,,,,,,,,48,001,2023_Apr_19_1221,ExactRep-v3-final,2021.2.3,59.987498705614954,
,,,,,,,,35,0,35,0,,,,,,,,,,,,,,,,,,,,,,,,,,,,,,,,,,,,,,,,,,,,,,,,,,,,,427.39716119971126,None,,,,,,,,,,,,,,,,,,,,,,,,,,,,,,,,,,,love,66,36,silent,blue,425.3950372003019,None,None,425.3950372003019,None,,,,,,,,,,,,,,,,,,,,,,,,,,,,,,48,001,2023_Apr_19_1221,ExactRep-v3-final,2021.2.3,59.987498705614954,
,,,,,,,,36,0,36,0,,,,,,,,,,,,,,,,,,,,,,,,,,,,,,,,,,,,,,,,,,,,,,,,,,,,,429.89957350026816,None,,,,,,,,,,,,,,,,,,,,,,,,,,,,,,,,,,,beast,103,37,aloud,white,427.89905110001564,None,None,427.89905110001564,None,,,,,,,,,,,,,,,,,,,,,,,,,,,,,,48,001,2023_Apr_19_1221,ExactRep-v3-final,2021.2.3,59.987498705614954,
,,,,,,,,37,0,37,0,,,,,,,,,,,,,,,,,,,,,,,,,,,,,,,,,,,,,,,,,,,,,,,,,,,,,432.40207820013165,None,,,,,,,,,,,,,,,,,,,,,,,,,,,,,,,,,,,form,67,38,silent,blue,430.40045730024576,None,None,430.40045730024576,None,,,,,,,,,,,,,,,,,,,,,,,,,,,,,,48,001,2023_Apr_19_1221,ExactRep-v3-final,2021.2.3,59.987498705614954,
,,,,,,,,38,0,38,0,,,,,,,,,,,,,,,,,,,,,,,,,,,,,,,,,,,,,,,,,,,,,,,,,,,,,434.9045756999403,None,,,,,,,,,,,,,,,,,,,,,,,,,,,,,,,,,,,table,96,39,aloud,white,432.90405340027064,None,None,432.90405340027064,None,,,,,,,,,,,,,,,,,,,,,,,,,,,,,,48,001,2023_Apr_19_1221,ExactRep-v3-final,2021.2.3,59.987498705614954,
,,,,,,,,39,0,39,0,,,,,,,,,,,,,,,,,,,,,,,,,,,,,,,,,,,,,,,,,,,,,,,,,,,,,437.4071367001161,None,,,,,,,,,,,,,,,,,,,,,,,,,,,,,,,,,,,lord,6,40,sing,red,435.4067075997591,None,None,435.4067075997591,None,,,,,,,,,,,,,,,,,,,,,,,,,,,,,,48,001,2023_Apr_19_1221,ExactRep-v3-final,2021.2.3,59.987498705614954,
,,,,,,,,40,0,40,0,,,,,,,,,,,,,,,,,,,,,,,,,,,,,,,,,,,,,,,,,,,,,,,,,,,,,439.9262909004465,None,,,,,,,,,,,,,,,,,,,,,,,,,,,,,,,,,,,stone,23,41,sing,red,437.9136785995215,None,None,437.9136785995215,None,,,,,,,,,,,,,,,,,,,,,,,,,,,,,,48,001,2023_Apr_19_1221,ExactRep-v3-final,2021.2.3,59.987498705614954,
,,,,,,,,41,0,41,0,,,,,,,,,,,,,,,,,,,,,,,,,,,,,,,,,,,,,,,,,,,,,,,,,,,,,442.4453496998176,None,,,,,,,,,,,,,,,,,,,,,,,,,,,,,,,,,,,silence,111,42,aloud,white,440.42970560025424,None,None,440.42970560025424,None,,,,,,,,,,,,,,,,,,,,,,,,,,,,,,48,001,2023_Apr_19_1221,ExactRep-v3-final,2021.2.3,59.987498705614954,
,,,,,,,,42,0,42,0,,,,,,,,,,,,,,,,,,,,,,,,,,,,,,,,,,,,,,,,,,,,,,,,,,,,,444.9646591003984,None,,,,,,,,,,,,,,,,,,,,,,,,,,,,,,,,,,,fortune,91,43,aloud,white,442.9528855998069,None,None,442.9528855998069,None,,,,,,,,,,,,,,,,,,,,,,,,,,,,,,48,001,2023_Apr_19_1221,ExactRep-v3-final,2021.2.3,59.987498705614954,
,,,,,,,,43,0,43,0,,,,,,,,,,,,,,,,,,,,,,,,,,,,,,,,,,,,,,,,,,,,,,,,,,,,,447.46719320025295,None,,,,,,,,,,,,,,,,,,,,,,,,,,,,,,,,,,,flesh,93,44,aloud,white,445.4673309996724,None,None,445.4673309996724,None,,,,,,,,,,,,,,,,,,,,,,,,,,,,,,48,001,2023_Apr_19_1221,ExactRep-v3-final,2021.2.3,59.987498705614954,
,,,,,,,,44,0,44,0,,,,,,,,,,,,,,,,,,,,,,,,,,,,,,,,,,,,,,,,,,,,,,,,,,,,,449.9868943002075,None,,,,,,,,,,,,,,,,,,,,,,,,,,,,,,,,,,,truth,52,45,silent,blue,447.9719751002267,None,None,447.9719751002267,None,,,,,,,,,,,,,,,,,,,,,,,,,,,,,,48,001,2023_Apr_19_1221,ExactRep-v3-final,2021.2.3,59.987498705614954,
,,,,,,,,45,0,45,0,,,,,,,,,,,,,,,,,,,,,,,,,,,,,,,,,,,,,,,,,,,,,,,,,,,,,452.4895006995648,None,,,,,,,,,,,,,,,,,,,,,,,,,,,,,,,,,,,sea,106,46,aloud,white,450.48684659972787,None,None,450.48684659972787,None,,,,,,,,,,,,,,,,,,,,,,,,,,,,,,48,001,2023_Apr_19_1221,ExactRep-v3-final,2021.2.3,59.987498705614954,
,,,,,,,,46,0,46,0,,,,,,,,,,,,,,,,,,,,,,,,,,,,,,,,,,,,,,,,,,,,,,,,,,,,,455.0080113001168,None,,,,,,,,,,,,,,,,,,,,,,,,,,,,,,,,,,,humour,112,47,aloud,white,452.9989131996408,None,None,452.9989131996408,None,,,,,,,,,,,,,,,,,,,,,,,,,,,,,,48,001,2023_Apr_19_1221,ExactRep-v3-final,2021.2.3,59.987498705614954,
,,,,,,,,47,0,47,0,,,,,,,,,,,,,,,,,,,,,,,,,,,,,,,,,,,,,,,,,,,,,,,,,,,,,457.51060650032014,None,,,,,,,,,,,,,,,,,,,,,,,,,,,,,,,,,,,idea,69,48,silent,blue,455.5114320004359,None,None,455.5114320004359,None,,,,,,,,,,,,,,,,,,,,,,,,,,,,,,48,001,2023_Apr_19_1221,ExactRep-v3-final,2021.2.3,59.987498705614954,
,,,,,,,,48,0,48,0,,,,,,,,,,,,,,,,,,,,,,,,,,,,,,,,,,,,,,,,,,,,,,,,,,,,,460.0298642003909,None,,,,,,,,,,,,,,,,,,,,,,,,,,,,,,,,,,,nail,105,49,aloud,white,458.01557170040905,None,None,458.01557170040905,None,,,,,,,,,,,,,,,,,,,,,,,,,,,,,,48,001,2023_Apr_19_1221,ExactRep-v3-final,2021.2.3,59.987498705614954,
,,,,,,,,49,0,49,0,,,,,,,,,,,,,,,,,,,,,,,,,,,,,,,,,,,,,,,,,,,,,,,,,,,,,462.548895300366,None,,,,,,,,,,,,,,,,,,,,,,,,,,,,,,,,,,,virtue,79,50,sing,red,460.53457980044186,None,None,460.53457980044186,None,,,,,,,,,,,,,,,,,,,,,,,,,,,,,,48,001,2023_Apr_19_1221,ExactRep-v3-final,2021.2.3,59.987498705614954,
,,,,,,,,50,0,50,0,,,,,,,,,,,,,,,,,,,,,,,,,,,,,,,,,,,,,,,,,,,,,,,,,,,,,465.0512509001419,None,,,,,,,,,,,,,,,,,,,,,,,,,,,,,,,,,,,shame,26,51,sing,red,463.0502781998366,None,None,463.0502781998366,None,,,,,,,,,,,,,,,,,,,,,,,,,,,,,,48,001,2023_Apr_19_1221,ExactRep-v3-final,2021.2.3,59.987498705614954,
,,,,,,,,51,0,51,0,,,,,,,,,,,,,,,,,,,,,,,,,,,,,,,,,,,,,,,,,,,,,,,,,,,,,467.57066280022264,None,,,,,,,,,,,,,,,,,,,,,,,,,,,,,,,,,,,woods,4,52,sing,red,465.5619090003893,None,None,465.5619090003893,None,,,,,,,,,,,,,,,,,,,,,,,,,,,,,,48,001,2023_Apr_19_1221,ExactRep-v3-final,2021.2.3,59.987498705614954,
,,,,,,,,52,0,52,0,,,,,,,,,,,,,,,,,,,,,,,,,,,,,,,,,,,,,,,,,,,,,,,,,,,,,470.0895905997604,None,,,,,,,,,,,,,,,,,,,,,,,,,,,,,,,,,,,flower,30,53,sing,red,468.08233520016074,None,None,468.08233520016074,None,,,,,,,,,,,,,,,,,,,,,,,,,,,,,,48,001,2023_Apr_19_1221,ExactRep-v3-final,2021.2.3,59.987498705614954,
,,,,,,,,53,0,53,0,,,,,,,,,,,,,,,,,,,,,,,,,,,,,,,,,,,,,,,,,,,,,,,,,,,,,472.6089859995991,None,,,,,,,,,,,,,,,,,,,,,,,,,,,,,,,,,,,bird,90,54,aloud,white,470.5955918999389,None,None,470.5955918999389,None,,,,,,,,,,,,,,,,,,,,,,,,,,,,,,48,001,2023_Apr_19_1221,ExactRep-v3-final,2021.2.3,59.987498705614954,
,,,,,,,,54,0,54,0,,,,,,,,,,,,,,,,,,,,,,,,,,,,,,,,,,,,,,,,,,,,,,,,,,,,,475.1281842002645,None,,,,,,,,,,,,,,,,,,,,,,,,,,,,,,,,,,,moment,11,55,sing,red,473.1173671996221,None,None,473.1173671996221,None,,,,,,,,,,,,,,,,,,,,,,,,,,,,,,48,001,2023_Apr_19_1221,ExactRep-v3-final,2021.2.3,59.987498705614954,
,,,,,,,,55,0,55,0,,,,,,,,,,,,,,,,,,,,,,,,,,,,,,,,,,,,,,,,,,,,,,,,,,,,,477.63065019994974,None,,,,,,,,,,,,,,,,,,,,,,,,,,,,,,,,,,,cattle,57,56,silent,blue,475.62863359972835,None,None,475.62863359972835,None,,,,,,,,,,,,,,,,,,,,,,,,,,,,,,48,001,2023_Apr_19_1221,ExactRep-v3-final,2021.2.3,59.987498705614954,
,,,,,,,,56,0,56,0,,,,,,,,,,,,,,,,,,,,,,,,,,,,,,,,,,,,,,,,,,,,,,,,,,,,,480.14981590025127,None,,,,,,,,,,,,,,,,,,,,,,,,,,,,,,,,,,,hotel,92,57,aloud,white,478.13407920021564,None,None,478.13407920021564,None,,,,,,,,,,,,,,,,,,,,,,,,,,,,,,48,001,2023_Apr_19_1221,ExactRep-v3-final,2021.2.3,59.987498705614954,
,,,,,,,,57,0,57,0,,,,,,,,,,,,,,,,,,,,,,,,,,,,,,,,,,,,,,,,,,,,,,,,,,,,,482.65233859978616,None,,,,,,,,,,,,,,,,,,,,,,,,,,,,,,,,,,,priest,107,58,aloud,white,480.6503090998158,None,None,480.6503090998158,None,,,,,,,,,,,,,,,,,,,,,,,,,,,,,,48,001,2023_Apr_19_1221,ExactRep-v3-final,2021.2.3,59.987498705614954,
,,,,,,,,58,0,58,0,,,,,,,,,,,,,,,,,,,,,,,,,,,,,,,,,,,,,,,,,,,,,,,,,,,,,485.15475139953196,None,,,,,,,,,,,,,,,,,,,,,,,,,,,,,,,,,,,mercy,110,59,aloud,white,483.1528054997325,None,None,483.1528054997325,None,,,,,,,,,,,,,,,,,,,,,,,,,,,,,,48,001,2023_Apr_19_1221,ExactRep-v3-final,2021.2.3,59.987498705614954,
,,,,,,,,59,0,59,0,,,,,,,,,,,,,,,,,,,,,,,,,,,,,,,,,,,,,,,,,,,,,,,,,,,,,487.657347000204,None,,,,,,,,,,,,,,,,,,,,,,,,,,,,,,,,,,,chief,116,60,aloud,white,485.65856279991567,None,None,485.65856279991567,None,,,,,,,,,,,,,,,,,,,,,,,,,,,,,,48,001,2023_Apr_19_1221,ExactRep-v3-final,2021.2.3,59.987498705614954,
,,,,,,,,60,0,60,0,,,,,,,,,,,,,,,,,,,,,,,,,,,,,,,,,,,,,,,,,,,,,,,,,,,,,490.1599051998928,None,,,,,,,,,,,,,,,,,,,,,,,,,,,,,,,,,,,army,47,61,silent,blue,488.15971060004085,None,None,488.15971060004085,None,,,,,,,,,,,,,,,,,,,,,,,,,,,,,,48,001,2023_Apr_19_1221,ExactRep-v3-final,2021.2.3,59.987498705614954,
,,,,,,,,61,0,61,0,,,,,,,,,,,,,,,,,,,,,,,,,,,,,,,,,,,,,,,,,,,,,,,,,,,,,492.6792270001024,None,,,,,,,,,,,,,,,,,,,,,,,,,,,,,,,,,,,origin,2,62,sing,red,490.6663076998666,None,None,490.6663076998666,None,,,,,,,,,,,,,,,,,,,,,,,,,,,,,,48,001,2023_Apr_19_1221,ExactRep-v3-final,2021.2.3,59.987498705614954,
,,,,,,,,62,0,62,0,,,,,,,,,,,,,,,,,,,,,,,,,,,,,,,,,,,,,,,,,,,,,,,,,,,,,495.1816133996472,None,,,,,,,,,,,,,,,,,,,,,,,,,,,,,,,,,,,gold,73,63,silent,blue,493.17937219981104,None,None,493.17937219981104,None,,,,,,,,,,,,,,,,,,,,,,,,,,,,,,48,001,2023_Apr_19_1221,ExactRep-v3-final,2021.2.3,59.987498705614954,
,,,,,,,,63,0,63,0,,,,,,,,,,,,,,,,,,,,,,,,,,,,,,,,,,,,,,,,,,,,,,,,,,,,,497.70089249964803,None,,,,,,,,,,,,,,,,,,,,,,,,,,,,,,,,,,,fur,32,64,sing,red,495.68672179989517,None,None,495.68672179989517,None,,,,,,,,,,,,,,,,,,,,,,,,,,,,,,48,001,2023_Apr_19_1221,ExactRep-v3-final,2021.2.3,59.987498705614954,
,,,,,,,,64,0,64,0,,,,,,,,,,,,,,,,,,,,,,,,,,,,,,,,,,,,,,,,,,,,,,,,,,,,,500.2032332997769,None,,,,,,,,,,,,,,,,,,,,,,,,,,,,,,,,,,,lake,36,65,sing,red,498.20110949967057,None,None,498.20110949967057,None,,,,,,,,,,,,,,,,,,,,,,,,,,,,,,48,001,2023_Apr_19_1221,ExactRep-v3-final,2021.2.3,59.987498705614954,
,,,,,,,,65,0,65,0,,,,,,,,,,,,,,,,,,,,,,,,,,,,,,,,,,,,,,,,,,,,,,,,,,,,,502.72245830018073,None,,,,,,,,,,,,,,,,,,,,,,,,,,,,,,,,,,,bowl,98,66,aloud,white,500.70753450039774,None,None,500.70753450039774,None,,,,,,,,,,,,,,,,,,,,,,,,,,,,,,48,001,2023_Apr_19_1221,ExactRep-v3-final,2021.2.3,59.987498705614954,
,,,,,,,,66,0,66,0,,,,,,,,,,,,,,,,,,,,,,,,,,,,,,,,,,,,,,,,,,,,,,,,,,,,,505.22497360035777,None,,,,,,,,,,,,,,,,,,,,,,,,,,,,,,,,,,,hall,28,67,sing,red,503.22536709997803,None,None,503.22536709997803,None,,,,,,,,,,,,,,,,,,,,,,,,,,,,,,48,001,2023_Apr_19_1221,ExactRep-v3-final,2021.2.3,59.987498705614954,
,,,,,,,,67,0,67,0,,,,,,,,,,,,,,,,,,,,,,,,,,,,,,,,,,,,,,,,,,,,,,,,,,,,,507.74416510015726,None,,,,,,,,,,,,,,,,,,,,,,,,,,,,,,,,,,,friend,76,68,silent,blue,505.7319972999394,None,None,505.7319972999394,None,,,,,,,,,,,,,,,,,,,,,,,,,,,,,,48,001,2023_Apr_19_1221,ExactRep-v3-final,2021.2.3,59.987498705614954,
,,,,,,,,68,0,68,0,,,,,,,,,,,,,,,,,,,,,,,,,,,,,,,,,,,,,,,,,,,,,,,,,,,,,510.2464338000864,None,,,,,,,,,,,,,,,,,,,,,,,,,,,,,,,,,,,pride,75,69,silent,blue,508.2446178998798,None,None,508.2446178998798,None,,,,,,,,,,,,,,,,,,,,,,,,,,,,,,48,001,2023_Apr_19_1221,ExactRep-v3-final,2021.2.3,59.987498705614954,
,,,,,,,,69,0,69,0,,,,,,,,,,,,,,,,,,,,,,,,,,,,,,,,,,,,,,,,,,,,,,,,,,,,,512.7489123996347,None,,,,,,,,,,,,,,,,,,,,,,,,,,,,,,,,,,,string,87,70,aloud,white,510.7485617995262,None,None,510.7485617995262,None,,,,,,,,,,,,,,,,,,,,,,,,,,,,,,48,001,2023_Apr_19_1221,ExactRep-v3-final,2021.2.3,59.987498705614954,
,,,,,,,,70,0,70,0,,,,,,,,,,,,,,,,,,,,,,,,,,,,,,,,,,,,,,,,,,,,,,,,,,,,,515.2682745000347,None,,,,,,,,,,,,,,,,,,,,,,,,,,,,,,,,,,,grass,118,71,aloud,white,513.2582318000495,None,None,513.2582318000495,None,,,,,,,,,,,,,,,,,,,,,,,,,,,,,,48,001,2023_Apr_19_1221,ExactRep-v3-final,2021.2.3,59.987498705614954,
,,,,,,,,71,0,71,0,,,,,,,,,,,,,,,,,,,,,,,,,,,,,,,,,,,,,,,,,,,,,,,,,,,,,517.7706773998216,None,,,,,,,,,,,,,,,,,,,,,,,,,,,,,,,,,,,method,8,72,sing,red,515.7686179000884,None,None,515.7686179000884,None,,,,,,,,,,,,,,,,,,,,,,,,,,,,,,48,001,2023_Apr_19_1221,ExactRep-v3-final,2021.2.3,59.987498705614954,
,,,,,,,,72,0,72,0,,,,,,,,,,,,,,,,,,,,,,,,,,,,,,,,,,,,,,,,,,,,,,,,,,,,,520.2900695996359,None,,,,,,,,,,,,,,,,,,,,,,,,,,,,,,,,,,,present,85,73,aloud,white,518.2819298999384,None,None,518.2819298999384,None,,,,,,,,,,,,,,,,,,,,,,,,,,,,,,48,001,2023_Apr_19_1221,ExactRep-v3-final,2021.2.3,59.987498705614954,
,,,,,,,,73,0,73,0,,,,,,,,,,,,,,,,,,,,,,,,,,,,,,,,,,,,,,,,,,,,,,,,,,,,,522.8092657998204,None,,,,,,,,,,,,,,,,,,,,,,,,,,,,,,,,,,,author,34,74,sing,red,520.7963917003945,None,None,520.7963917003945,None,,,,,,,,,,,,,,,,,,,,,,,,,,,,,,48,001,2023_Apr_19_1221,ExactRep-v3-final,2021.2.3,59.987498705614954,
,,,,,,,,74,0,74,0,,,,,,,,,,,,,,,,,,,,,,,,,,,,,,,,,,,,,,,,,,,,,,,,,,,,,525.3283954001963,None,,,,,,,,,,,,,,,,,,,,,,,,,,,,,,,,,,,door,21,75,sing,red,523.3153192000464,None,None,523.3153192000464,None,,,,,,,,,,,,,,,,,,,,,,,,,,,,,,48,001,2023_Apr_19_1221,ExactRep-v3-final,2021.2.3,59.987498705614954,
,,,,,,,,75,0,75,0,,,,,,,,,,,,,,,,,,,,,,,,,,,,,,,,,,,,,,,,,,,,,,,,,,,,,527.8309027003124,None,,,,,,,,,,,,,,,,,,,,,,,,,,,,,,,,,,,board,38,76,sing,red,525.8310572998598,None,None,525.8310572998598,None,,,,,,,,,,,,,,,,,,,,,,,,,,,,,,48,001,2023_Apr_19_1221,ExactRep-v3-final,2021.2.3,59.987498705614954,
,,,,,,,,76,0,76,0,,,,,,,,,,,,,,,,,,,,,,,,,,,,,,,,,,,,,,,,,,,,,,,,,,,,,530.3500506998971,None,,,,,,,,,,,,,,,,,,,,,,,,,,,,,,,,,,,hour,84,77,aloud,white,528.3370919004083,None,None,528.3370919004083,None,,,,,,,,,,,,,,,,,,,,,,,,,,,,,,48,001,2023_Apr_19_1221,ExactRep-v3-final,2021.2.3,59.987498705614954,
,,,,,,,,77,0,77,0,,,,,,,,,,,,,,,,,,,,,,,,,,,,,,,,,,,,,,,,,,,,,,,,,,,,,532.8523968001828,None,,,,,,,,,,,,,,,,,,,,,,,,,,,,,,,,,,,meeting,37,78,sing,red,530.8512080004439,None,None,530.8512080004439,None,,,,,,,,,,,,,,,,,,,,,,,,,,,,,,48,001,2023_Apr_19_1221,ExactRep-v3-final,2021.2.3,59.987498705614954,
,,,,,,,,78,0,78,0,,,,,,,,,,,,,,,,,,,,,,,,,,,,,,,,,,,,,,,,,,,,,,,,,,,,,535.3717192001641,None,,,,,,,,,,,,,,,,,,,,,,,,,,,,,,,,,,,square,65,79,silent,blue,533.3596353996545,None,None,533.3596353996545,None,,,,,,,,,,,,,,,,,,,,,,,,,,,,,,48,001,2023_Apr_19_1221,ExactRep-v3-final,2021.2.3,59.987498705614954,
,,,,,,,,79,0,79,0,,,,,,,,,,,,,,,,,,,,,,,,,,,,,,,,,,,,,,,,,,,,,,,,,,,,,537.8742036996409,None,,,,,,,,,,,,,,,,,,,,,,,,,,,,,,,,,,,opinion,89,80,aloud,white,535.8722903002053,None,None,535.8722903002053,None,,,,,,,,,,,,,,,,,,,,,,,,,,,,,,48,001,2023_Apr_19_1221,ExactRep-v3-final,2021.2.3,59.987498705614954,
,,,,,,,,80,0,80,0,,,,,,,,,,,,,,,,,,,,,,,,,,,,,,,,,,,,,,,,,,,,,,,,,,,,,540.393412400037,None,,,,,,,,,,,,,,,,,,,,,,,,,,,,,,,,,,,chair,68,81,silent,blue,538.3826497998089,None,None,538.3826497998089,None,,,,,,,,,,,,,,,,,,,,,,,,,,,,,,48,001,2023_Apr_19_1221,ExactRep-v3-final,2021.2.3,59.987498705614954,
,,,,,,,,81,0,81,0,,,,,,,,,,,,,,,,,,,,,,,,,,,,,,,,,,,,,,,,,,,,,,,,,,,,,542.8958705998957,None,,,,,,,,,,,,,,,,,,,,,,,,,,,,,,,,,,,doctor,35,82,sing,red,540.8937467997894,None,None,540.8937467997894,None,,,,,,,,,,,,,,,,,,,,,,,,,,,,,,48,001,2023_Apr_19_1221,ExactRep-v3-final,2021.2.3,59.987498705614954,
,,,,,,,,82,0,82,0,,,,,,,,,,,,,,,,,,,,,,,,,,,,,,,,,,,,,,,,,,,,,,,,,,,,,545.4151699002832,None,,,,,,,,,,,,,,,,,,,,,,,,,,,,,,,,,,,insect,94,83,aloud,white,543.4070413000882,None,None,543.4070413000882,None,,,,,,,,,,,,,,,,,,,,,,,,,,,,,,48,001,2023_Apr_19_1221,ExactRep-v3-final,2021.2.3,59.987498705614954,
,,,,,,,,83,0,83,0,,,,,,,,,,,,,,,,,,,,,,,,,,,,,,,,,,,,,,,,,,,,,,,,,,,,,547.917621999979,None,,,,,,,,,,,,,,,,,,,,,,,,,,,,,,,,,,,factory,74,84,silent,blue,545.9152939002961,None,None,545.9152939002961,None,,,,,,,,,,,,,,,,,,,,,,,,,,,,,,48,001,2023_Apr_19_1221,ExactRep-v3-final,2021.2.3,59.987498705614954,
,,,,,,,,84,0,84,0,,,,,,,,,,,,,,,,,,,,,,,,,,,,,,,,,,,,,,,,,,,,,,,,,,,,,550.4200812000781,None,,,,,,,,,,,,,,,,,,,,,,,,,,,,,,,,,,,meadow,12,85,sing,red,548.4195994995534,None,None,548.4195994995534,None,,,,,,,,,,,,,,,,,,,,,,,,,,,,,,48,001,2023_Apr_19_1221,ExactRep-v3-final,2021.2.3,59.987498705614954,
,,,,,,,,85,0,85,0,,,,,,,,,,,,,,,,,,,,,,,,,,,,,,,,,,,,,,,,,,,,,,,,,,,,,552.9226729003713,None,,,,,,,,,,,,,,,,,,,,,,,,,,,,,,,,,,,pipe,95,86,aloud,white,550.9206886999309,None,None,550.9206886999309,None,,,,,,,,,,,,,,,,,,,,,,,,,,,,,,48,001,2023_Apr_19_1221,ExactRep-v3-final,2021.2.3,59.987498705614954,
,,,,,,,,86,0,86,0,,,,,,,,,,,,,,,,,,,,,,,,,,,,,,,,,,,,,,,,,,,,,,,,,,,,,555.4418038995937,None,,,,,,,,,,,,,,,,,,,,,,,,,,,,,,,,,,,person,16,87,sing,red,553.428746400401,None,None,553.428746400401,None,,,,,,,,,,,,,,,,,,,,,,,,,,,,,,48,001,2023_Apr_19_1221,ExactRep-v3-final,2021.2.3,59.987498705614954,
,,,,,,,,87,0,87,0,,,,,,,,,,,,,,,,,,,,,,,,,,,,,,,,,,,,,,,,,,,,,,,,,,,,,557.9442790998146,None,,,,,,,,,,,,,,,,,,,,,,,,,,,,,,,,,,,seat,119,88,aloud,white,555.9422754002735,None,None,555.9422754002735,None,,,,,,,,,,,,,,,,,,,,,,,,,,,,,,48,001,2023_Apr_19_1221,ExactRep-v3-final,2021.2.3,59.987498705614954,
,,,,,,,,88,0,88,0,,,,,,,,,,,,,,,,,,,,,,,,,,,,,,,,,,,,,,,,,,,,,,,,,,,,,560.4468136997893,None,,,,,,,,,,,,,,,,,,,,,,,,,,,,,,,,,,,memory,113,89,aloud,white,558.4474002998322,None,None,558.4474002998322,None,,,,,,,,,,,,,,,,,,,,,,,,,,,,,,48,001,2023_Apr_19_1221,ExactRep-v3-final,2021.2.3,59.987498705614954,
,,,,,,,,89,0,89,0,,,,,,,,,,,,,,,,,,,,,,,,,,,,,,,,,,,,,,,,,,,,,,,,,,,,,562.9493635995314,None,,,,,,,,,,,,,,,,,,,,,,,,,,,,,,,,,,,gift,72,90,silent,blue,560.949097099714,None,None,560.949097099714,None,,,,,,,,,,,,,,,,,,,,,,,,,,,,,,48,001,2023_Apr_19_1221,ExactRep-v3-final,2021.2.3,59.987498705614954,
,,,,,,,,90,0,90,0,,,,,,,,,,,,,,,,,,,,,,,,,,,,,,,,,,,,,,,,,,,,,,,,,,,,,565.4686968000606,None,,,,,,,,,,,,,,,,,,,,,,,,,,,,,,,,,,,artist,62,91,silent,blue,563.4554783003405,None,None,563.4554783003405,None,,,,,,,,,,,,,,,,,,,,,,,,,,,,,,48,001,2023_Apr_19_1221,ExactRep-v3-final,2021.2.3,59.987498705614954,
,,,,,,,,91,0,91,0,,,,,,,,,,,,,,,,,,,,,,,,,,,,,,,,,,,,,,,,,,,,,,,,,,,,,567.971007199958,None,,,,,,,,,,,,,,,,,,,,,,,,,,,,,,,,,,,colony,45,92,silent,blue,565.9688469003886,None,None,565.9688469003886,None,,,,,,,,,,,,,,,,,,,,,,,,,,,,,,48,001,2023_Apr_19_1221,ExactRep-v3-final,2021.2.3,59.987498705614954,
,,,,,,,,92,0,92,0,,,,,,,,,,,,,,,,,,,,,,,,,,,,,,,,,,,,,,,,,,,,,,,,,,,,,570.4902125000954,None,,,,,,,,,,,,,,,,,,,,,,,,,,,,,,,,,,,justice,100,93,aloud,white,568.4776652995497,None,None,568.4776652995497,None,,,,,,,,,,,,,,,,,,,,,,,,,,,,,,48,001,2023_Apr_19_1221,ExactRep-v3-final,2021.2.3,59.987498705614954,
,,,,,,,,93,0,93,0,,,,,,,,,,,,,,,,,,,,,,,,,,,,,,,,,,,,,,,,,,,,,,,,,,,,,572.9927230002359,None,,,,,,,,,,,,,,,,,,,,,,,,,,,,,,,,,,,coast,71,94,silent,blue,570.993375999853,None,None,570.993375999853,None,,,,,,,,,,,,,,,,,,,,,,,,,,,,,,48,001,2023_Apr_19_1221,ExactRep-v3-final,2021.2.3,59.987498705614954,
,,,,,,,,94,0,94,0,,,,,,,,,,,,,,,,,,,,,,,,,,,,,,,,,,,,,,,,,,,,,,,,,,,,,575.5117156999186,None,,,,,,,,,,,,,,,,,,,,,,,,,,,,,,,,,,,market,9,95,sing,red,573.4971118001267,None,None,573.4971118001267,None,,,,,,,,,,,,,,,,,,,,,,,,,,,,,,48,001,2023_Apr_19_1221,ExactRep-v3-final,2021.2.3,59.987498705614954,
,,,,,,,,95,0,95,0,,,,,,,,,,,,,,,,,,,,,,,,,,,,,,,,,,,,,,,,,,,,,,,,,,,,,578.0309068001807,None,,,,,,,,,,,,,,,,,,,,,,,,,,,,,,,,,,,chance,81,96,aloud,white,576.0182400997728,None,None,576.0182400997728,None,,,,,,,,,,,,,,,,,,,,,,,,,,,,,,48,001,2023_Apr_19_1221,ExactRep-v3-final,2021.2.3,59.987498705614954,
,,,,,,,,96,0,96,0,,,,,,,,,,,,,,,,,,,,,,,,,,,,,,,,,,,,,,,,,,,,,,,,,,,,,580.5503637995571,None,,,,,,,,,,,,,,,,,,,,,,,,,,,,,,,,,,,window,77,97,silent,blue,578.5410296004266,None,None,578.5410296004266,None,,,,,,,,,,,,,,,,,,,,,,,,,,,,,,48,001,2023_Apr_19_1221,ExactRep-v3-final,2021.2.3,59.987498705614954,
,,,,,,,,97,0,97,0,,,,,,,,,,,,,,,,,,,,,,,,,,,,,,,,,,,,,,,,,,,,,,,,,,,,,583.069440100342,None,,,,,,,,,,,,,,,,,,,,,,,,,,,,,,,,,,,dust,15,98,sing,red,581.0560908997431,None,None,581.0560908997431,None,,,,,,,,,,,,,,,,,,,,,,,,,,,,,,48,001,2023_Apr_19_1221,ExactRep-v3-final,2021.2.3,59.987498705614954,
,,,,,,,,98,0,98,0,,,,,,,,,,,,,,,,,,,,,,,,,,,,,,,,,,,,,,,,,,,,,,,,,,,,,585.5719560002908,None,,,,,,,,,,,,,,,,,,,,,,,,,,,,,,,,,,,dream,20,99,sing,red,583.569759500213,None,None,583.569759500213,None,,,,,,,,,,,,,,,,,,,,,,,,,,,,,,48,001,2023_Apr_19_1221,ExactRep-v3-final,2021.2.3,59.987498705614954,
,,,,,,,,99,0,99,0,,,,,,,,,,,,,,,,,,,,,,,,,,,,,,,,,,,,,,,,,,,,,,,,,,,,,588.0910045001656,None,,,,,,,,,,,,,,,,,,,,,,,,,,,,,,,,,,,trouble,78,100,silent,blue,586.0761518999934,None,None,586.0761518999934,None,,,,,,,,,,,,,,,,,,,,,,,,,,,,,,48,001,2023_Apr_19_1221,ExactRep-v3-final,2021.2.3,59.987498705614954,
,,,,,,,,100,0,100,0,,,,,,,,,,,,,,,,,,,,,,,,,,,,,,,,,,,,,,,,,,,,,,,,,,,,,590.5936768995598,None,,,,,,,,,,,,,,,,,,,,,,,,,,,,,,,,,,,season,54,101,silent,blue,588.5916199004278,None,None,588.5916199004278,None,,,,,,,,,,,,,,,,,,,,,,,,,,,,,,48,001,2023_Apr_19_1221,ExactRep-v3-final,2021.2.3,59.987498705614954,
,,,,,,,,101,0,101,0,,,,,,,,,,,,,,,,,,,,,,,,,,,,,,,,,,,,,,,,,,,,,,,,,,,,,593.1128906998783,None,,,,,,,,,,,,,,,,,,,,,,,,,,,,,,,,,,,disease,24,102,sing,red,591.1041804999113,None,None,591.1041804999113,None,,,,,,,,,,,,,,,,,,,,,,,,,,,,,,48,001,2023_Apr_19_1221,ExactRep-v3-final,2021.2.3,59.987498705614954,
,,,,,,,,102,0,102,0,,,,,,,,,,,,,,,,,,,,,,,,,,,,,,,,,,,,,,,,,,,,,,,,,,,,,595.6153178997338,None,,,,,,,,,,,,,,,,,,,,,,,,,,,,,,,,,,,death,39,103,silent,blue,593.6132699996233,None,None,593.6132699996233,None,,,,,,,,,,,,,,,,,,,,,,,,,,,,,,48,001,2023_Apr_19_1221,ExactRep-v3-final,2021.2.3,59.987498705614954,
,,,,,,,,103,0,103,0,,,,,,,,,,,,,,,,,,,,,,,,,,,,,,,,,,,,,,,,,,,,,,,,,,,,,598.117817199789,None,,,,,,,,,,,,,,,,,,,,,,,,,,,,,,,,,,,soil,53,104,silent,blue,596.1178313996643,None,None,596.1178313996643,None,,,,,,,,,,,,,,,,,,,,,,,,,,,,,,48,001,2023_Apr_19_1221,ExactRep-v3-final,2021.2.3,59.987498705614954,
,,,,,,,,104,0,104,0,,,,,,,,,,,,,,,,,,,,,,,,,,,,,,,,,,,,,,,,,,,,,,,,,,,,,600.6204164996743,None,,,,,,,,,,,,,,,,,,,,,,,,,,,,,,,,,,,prayer,108,105,aloud,white,598.6200101999566,None,None,598.6200101999566,None,,,,,,,,,,,,,,,,,,,,,,,,,,,,,,48,001,2023_Apr_19_1221,ExactRep-v3-final,2021.2.3,59.987498705614954,
,,,,,,,,105,0,105,0,,,,,,,,,,,,,,,,,,,,,,,,,,,,,,,,,,,,,,,,,,,,,,,,,,,,,603.122843099758,None,,,,,,,,,,,,,,,,,,,,,,,,,,,,,,,,,,,rock,82,106,aloud,white,601.1238639000803,None,None,601.1238639000803,None,,,,,,,,,,,,,,,,,,,,,,,,,,,,,,48,001,2023_Apr_19_1221,ExactRep-v3-final,2021.2.3,59.987498705614954,
,,,,,,,,106,0,106,0,,,,,,,,,,,,,,,,,,,,,,,,,,,,,,,,,,,,,,,,,,,,,,,,,,,,,605.6253271996975,None,,,,,,,,,,,,,,,,,,,,,,,,,,,,,,,,,,,fire,40,107,silent,blue,603.6255045002326,None,None,603.6255045002326,None,,,,,,,,,,,,,,,,,,,,,,,,,,,,,,48,001,2023_Apr_19_1221,ExactRep-v3-final,2021.2.3,59.987498705614954,
,,,,,,,,107,0,107,0,,,,,,,,,,,,,,,,,,,,,,,,,,,,,,,,,,,,,,,,,,,,,,,,,,,,,608.1277189999819,None,,,,,,,,,,,,,,,,,,,,,,,,,,,,,,,,,,,machine,63,108,silent,blue,606.1274675000459,None,None,606.1274675000459,None,,,,,,,,,,,,,,,,,,,,,,,,,,,,,,48,001,2023_Apr_19_1221,ExactRep-v3-final,2021.2.3,59.987498705614954,
,,,,,,,,108,0,108,0,,,,,,,,,,,,,,,,,,,,,,,,,,,,,,,,,,,,,,,,,,,,,,,,,,,,,610.6303859995678,None,,,,,,,,,,,,,,,,,,,,,,,,,,,,,,,,,,,wine,17,109,sing,red,608.6305764997378,None,None,608.6305764997378,None,,,,,,,,,,,,,,,,,,,,,,,,,,,,,,48,001,2023_Apr_19_1221,ExactRep-v3-final,2021.2.3,59.987498705614954,
,,,,,,,,109,0,109,0,,,,,,,,,,,,,,,,,,,,,,,,,,,,,,,,,,,,,,,,,,,,,,,,,,,,,613.1495746001601,None,,,,,,,,,,,,,,,,,,,,,,,,,,,,,,,,,,,journal,51,110,silent,blue,611.1354066999629,None,None,611.1354066999629,None,,,,,,,,,,,,,,,,,,,,,,,,,,,,,,48,001,2023_Apr_19_1221,ExactRep-v3-final,2021.2.3,59.987498705614954,
,,,,,,,,110,0,110,0,,,,,,,,,,,,,,,,,,,,,,,,,,,,,,,,,,,,,,,,,,,,,,,,,,,,,615.6521384995431,None,,,,,,,,,,,,,,,,,,,,,,,,,,,,,,,,,,,health,64,111,silent,blue,613.65285459999,None,None,613.65285459999,None,,,,,,,,,,,,,,,,,,,,,,,,,,,,,,48,001,2023_Apr_19_1221,ExactRep-v3-final,2021.2.3,59.987498705614954,
,,,,,,,,111,0,111,0,,,,,,,,,,,,,,,,,,,,,,,,,,,,,,,,,,,,,,,,,,,,,,,,,,,,,618.1545257996768,None,,,,,,,,,,,,,,,,,,,,,,,,,,,,,,,,,,,student,49,112,silent,blue,616.155276699923,None,None,616.155276699923,None,,,,,,,,,,,,,,,,,,,,,,,,,,,,,,48,001,2023_Apr_19_1221,ExactRep-v3-final,2021.2.3,59.987498705614954,
,,,,,,,,112,0,112,0,,,,,,,,,,,,,,,,,,,,,,,,,,,,,,,,,,,,,,,,,,,,,,,,,,,,,620.6571009000763,None,,,,,,,,,,,,,,,,,,,,,,,,,,,,,,,,,,,circle,109,113,aloud,white,618.657966800034,None,None,618.657966800034,None,,,,,,,,,,,,,,,,,,,,,,,,,,,,,,48,001,2023_Apr_19_1221,ExactRep-v3-final,2021.2.3,59.987498705614954,
,,,,,,,,113,0,113,0,,,,,,,,,,,,,,,,,,,,,,,,,,,,,,,,,,,,,,,,,,,,,,,,,,,,,623.1760894004256,None,,,,,,,,,,,,,,,,,,,,,,,,,,,,,,,,,,,cotton,117,114,aloud,white,621.1631763000041,None,None,621.1631763000041,None,,,,,,,,,,,,,,,,,,,,,,,,,,,,,,48,001,2023_Apr_19_1221,ExactRep-v3-final,2021.2.3,59.987498705614954,
,,,,,,,,114,0,114,0,,,,,,,,,,,,,,,,,,,,,,,,,,,,,,,,,,,,,,,,,,,,,,,,,,,,,625.6953686997294,None,,,,,,,,,,,,,,,,,,,,,,,,,,,,,,,,,,,event,59,115,silent,blue,623.6830491004512,None,None,623.6830491004512,None,,,,,,,,,,,,,,,,,,,,,,,,,,,,,,48,001,2023_Apr_19_1221,ExactRep-v3-final,2021.2.3,59.987498705614954,
,,,,,,,,115,0,115,0,,,,,,,,,,,,,,,,,,,,,,,,,,,,,,,,,,,,,,,,,,,,,,,,,,,,,628.1979216998443,None,,,,,,,,,,,,,,,,,,,,,,,,,,,,,,,,,,,judge,83,116,aloud,white,626.197714000009,None,None,626.197714000009,None,,,,,,,,,,,,,,,,,,,,,,,,,,,,,,48,001,2023_Apr_19_1221,ExactRep-v3-final,2021.2.3,59.987498705614954,
,,,,,,,,116,0,116,0,,,,,,,,,,,,,,,,,,,,,,,,,,,,,,,,,,,,,,,,,,,,,,,,,,,,,630.7004372999072,None,,,,,,,,,,,,,,,,,,,,,,,,,,,,,,,,,,,honour,70,117,silent,blue,628.7014004001394,None,None,628.7014004001394,None,,,,,,,,,,,,,,,,,,,,,,,,,,,,,,48,001,2023_Apr_19_1221,ExactRep-v3-final,2021.2.3,59.987498705614954,
,,,,,,,,117,0,117,0,,,,,,,,,,,,,,,,,,,,,,,,,,,,,,,,,,,,,,,,,,,,,,,,,,,,,633.20292850025,None,,,,,,,,,,,,,,,,,,,,,,,,,,,,,,,,,,,passion,101,118,aloud,white,631.2034168001264,None,None,631.2034168001264,None,,,,,,,,,,,,,,,,,,,,,,,,,,,,,,48,001,2023_Apr_19_1221,ExactRep-v3-final,2021.2.3,59.987498705614954,
,,,,,,,,118,0,118,0,,,,,,,,,,,,,,,,,,,,,,,,,,,,,,,,,,,,,,,,,,,,,,,,,,,,,635.7054203003645,None,,,,,,,,,,,,,,,,,,,,,,,,,,,,,,,,,,,earth,44,119,silent,blue,633.7049550004303,None,None,633.7049550004303,None,,,,,,,,,,,,,,,,,,,,,,,,,,,,,,48,001,2023_Apr_19_1221,ExactRep-v3-final,2021.2.3,59.987498705614954,
,,,,,,,,119,0,119,0,,,,,,,,,,,,,,,,,,,,,,,,,,,,,,,,,,,,,,,,,,,,,,,,,,,,,638.2080100001767,None,,,,,,,,,,,,,,,,,,,,,,,,,,,,,,,,,,,blood,18,120,sing,red,636.2073162999004,None,None,636.2073162999004,None,,,,,,,,,,,,,,,,,,,,,,,,,,,,,,48,001,2023_Apr_19_1221,ExactRep-v3-final,2021.2.3,59.987498705614954,
,,,,,,,,,,,,,,,,,,,,,,,,,,,,,,,,,,,,,,,,,,,,,,,,,,,,,,,,,,,,,,,,,,,,,,,,,,,,,,,,,,,,,,,,,,,,,,,,,,,,,,,,,,,,,,638.710036800243,None,space,7.08056449983269,648.6862286003307,None,,,,,,,,,,,,,,,,,,,,,,,,48,001,2023_Apr_19_1221,ExactRep-v3-final,2021.2.3,59.987498705614954,
,,,,,,,,,,,,,,,,,,,,,,,,,,,,,,,,,,,,,,,,,,,,,,,,,,,,,,,,,,,,,,,,,,,,,,,,,,,,,,,,,,,,,,,,,,,,,,,,,,,,,,,,,,,,,,,,,,,,655.7939552003518,None,space,29.72432059980929,665.7702825004235,None,,,,,,,,,,,,,,,,,,48,001,2023_Apr_19_1221,ExactRep-v3-final,2021.2.3,59.987498705614954,
,,,,,,,,,,,,0,0,0,0,,,,,,,,,,,,,,,,,,,,,,,,,,,,,,,,,,,,,,,,,,,,,,,,,701.804856300354,None,,,,,,,,,,,,,,,,,,,,,,,,,,,,,,,,,,,,,,,,,,,,,,,,,,,,,,,,,hotel,92,1,aloud,old,yellow,696.0198483997956,None,y,696.0198483997956,None,"['y', 'return']","[3.826536700129509, 5.746534000150859]",696.0198483997956,None,,,48,001,2023_Apr_19_1221,ExactRep-v3-final,2021.2.3,59.987498705614954,
,,,,,,,,,,,,1,0,1,0,,,,,,,,,,,,,,,,,,,,,,,,,,,,,,,,,,,,,,,,,,,,,,,,,705.8755259001628,None,,,,,,,,,,,,,,,,,,,,,,,,,,,,,,,,,,,,,,,,,,,,,,,,,,,,,,,,,season,54,2,silent,old,yellow,702.3074452001601,None,y,702.3074452001601,None,"['y', 'return']","[2.434898500330746, 3.5309603000059724]",702.3074452001601,None,,,48,001,2023_Apr_19_1221,ExactRep-v3-final,2021.2.3,59.987498705614954,
,,,,,,,,,,,,2,0,2,0,,,,,,,,,,,,,,,,,,,,,,,,,,,,,,,,,,,,,,,,,,,,,,,,,708.7449449999258,None,,,,,,,,,,,,,,,,,,,,,,,,,,,,,,,,,,,,,,,,,,,,,,,,,,,,,,,,,nail,105,3,aloud,old,yellow,706.3823141995817,None,y,706.3823141995817,None,"['y', 'return']","[1.4640425005927682, 2.328027400188148]",706.3823141995817,None,,,48,001,2023_Apr_19_1221,ExactRep-v3-final,2021.2.3,59.987498705614954,
,,,,,,,,,,,,3,0,3,0,,,,,,,,,,,,,,,,,,,,,,,,,,,,,,,,,,,,,,,,,,,,,,,,,713.6884243004024,None,,,,,,,,,,,,,,,,,,,,,,,,,,,,,,,,,,,,,,,,,,,,,,,,,,,,,,,,,insect,94,4,aloud,old,yellow,709.2583649000153,None,y,709.2583649000153,None,"['y', 'return']","[3.324192199856043, 4.380020700395107]",709.2583649000153,None,,,48,001,2023_Apr_19_1221,ExactRep-v3-final,2021.2.3,59.987498705614954,
,,,,,,,,,,,,4,0,4,0,,,,,,,,,,,,,,,,,,,,,,,,,,,,,,,,,,,,,,,,,,,,,,,,,717.0367721002549,None,,,,,,,,,,,,,,,,,,,,,,,,,,,,,,,,,,,,,,,,,,,,,,,,,,,,,,,,,rod,179,5,sing,new,yellow,714.2119891000912,None,n,714.2119891000912,None,"['n', 'return']","[1.6104269996285439, 2.7864141995087266]",714.2119891000912,None,,,48,001,2023_Apr_19_1221,ExactRep-v3-final,2021.2.3,59.987498705614954,
,,,,,,,,,,,,5,0,5,0,,,,,,,,,,,,,,,,,,,,,,,,,,,,,,,,,,,,,,,,,,,,,,,,,720.2565205004066,None,,,,,,,,,,,,,,,,,,,,,,,,,,,,,,,,,,,,,,,,,,,,,,,,,,,,,,,,,artist,62,6,silent,old,yellow,717.5465278001502,None,y,717.5465278001502,None,"['y', 'return']","[1.5478744003921747, 2.6758230002596974]",717.5465278001502,None,,,48,001,2023_Apr_19_1221,ExactRep-v3-final,2021.2.3,59.987498705614954,
,,,,,,,,,,,,6,0,6,0,,,,,,,,,,,,,,,,,,,,,,,,,,,,,,,,,,,,,,,,,,,,,,,,,725.2614871999249,None,,,,,,,,,,,,,,,,,,,,,,,,,,,,,,,,,,,,,,,,,,,,,,,,,,,,,,,,,time,130,7,silent,new,yellow,720.7653873004019,None,n,720.7653873004019,None,"['n', 'return']","[1.3931878004223108, 4.449144800193608]",720.7653873004019,None,,,48,001,2023_Apr_19_1221,ExactRep-v3-final,2021.2.3,59.987498705614954,
,,,,,,,,,,,,7,0,7,0,,,,,,,,,,,,,,,,,,,,,,,,,,,,,,,,,,,,,,,,,,,,,,,,,728.2979557001963,None,,,,,,,,,,,,,,,,,,,,,,,,,,,,,,,,,,,,,,,,,,,,,,,,,,,,,,,,,event,59,8,silent,old,yellow,725.7712995996699,None,y,725.7712995996699,None,"['y', 'return']","[1.4750421000644565, 2.4830256002023816]",725.7712995996699,None,,,48,001,2023_Apr_19_1221,ExactRep-v3-final,2021.2.3,59.987498705614954,
,,,,,,,,,,,,8,0,8,0,,,,,,,,,,,,,,,,,,,,,,,,,,,,,,,,,,,,,,,,,,,,,,,,,733.9532276000828,None,,,,,,,,,,,,,,,,,,,,,,,,,,,,,,,,,,,,,,,,,,,,,,,,,,,,,,,,,book,203,9,sing,new,yellow,728.8138843998313,None,n,728.8138843998313,None,"['n', 'return']","[4.016748400405049, 5.096561100333929]",728.8138843998313,None,,,48,001,2023_Apr_19_1221,ExactRep-v3-final,2021.2.3,59.987498705614954,
,,,,,,,,,,,,9,0,9,0,,,,,,,,,,,,,,,,,,,,,,,,,,,,,,,,,,,,,,,,,,,,,,,,,736.989899800159,None,,,,,,,,,,,,,,,,,,,,,,,,,,,,,,,,,,,,,,,,,,,,,,,,,,,,,,,,,chair,68,10,silent,old,yellow,734.4616467999294,None,y,734.4616467999294,None,"['y', 'return']","[1.5767066003754735, 2.488795300014317]",734.4616467999294,None,,,48,001,2023_Apr_19_1221,ExactRep-v3-final,2021.2.3,59.987498705614954,
,,,,,,,,,,,,10,0,10,0,,,,,,,,,,,,,,,,,,,,,,,,,,,,,,,,,,,,,,,,,,,,,,,,,739.8259655004367,None,,,,,,,,,,,,,,,,,,,,,,,,,,,,,,,,,,,,,,,,,,,,,,,,,,,,,,,,,vessel,153,11,silent,new,yellow,737.5046389997005,None,n,737.5046389997005,None,"['n', 'return']","[1.4776801001280546, 2.2857412006706]",737.5046389997005,None,,,48,001,2023_Apr_19_1221,ExactRep-v3-final,2021.2.3,59.987498705614954,
,,,,,,,,,,,,11,0,11,0,,,,,,,,,,,,,,,,,,,,,,,,,,,,,,,,,,,,,,,,,,,,,,,,,743.9968226002529,None,,,,,,,,,,,,,,,,,,,,,,,,,,,,,,,,,,,,,,,,,,,,,,,,,,,,,,,,,animal,136,12,silent,new,yellow,740.3299527997151,None,n,740.3299527997151,None,"['n', 'return']","[2.764432500116527, 3.6284520998597145]",740.3299527997151,None,,,48,001,2023_Apr_19_1221,ExactRep-v3-final,2021.2.3,59.987498705614954,
,,,,,,,,,,,,12,0,12,0,,,,,,,,,,,,,,,,,,,,,,,,,,,,,,,,,,,,,,,,,,,,,,,,,749.1687174998224,None,,,,,,,,,,,,,,,,,,,,,,,,,,,,,,,,,,,,,,,,,,,,,,,,,,,,,,,,,justice,100,13,aloud,old,yellow,744.5211060997099,None,n,744.5211060997099,None,"['n', 'return']","[3.7253665002062917, 4.6055026007816195]",744.5211060997099,None,,,48,001,2023_Apr_19_1221,ExactRep-v3-final,2021.2.3,59.987498705614954,
,,,,,,,,,,,,13,0,13,0,,,,,,,,,,,,,,,,,,,,,,,,,,,,,,,,,,,,,,,,,,,,,,,,,751.8547548996285,None,,,,,,,,,,,,,,,,,,,,,,,,,,,,,,,,,,,,,,,,,,,,,,,,,,,,,,,,,crime,160,14,aloud,new,yellow,749.681401300244,None,y,749.681401300244,None,"['y', 'return']","[1.2130629997700453, 2.1410136995837092]",749.681401300244,None,,,48,001,2023_Apr_19_1221,ExactRep-v3-final,2021.2.3,59.987498705614954,
,,,,,,,,,,,,14,0,14,0,,,,,,,,,,,,,,,,,,,,,,,,,,,,,,,,,,,,,,,,,,,,,,,,,754.807851199992,None,,,,,,,,,,,,,,,,,,,,,,,,,,,,,,,,,,,,,,,,,,,,,,,,,,,,,,,,,ability,132,15,silent,new,yellow,752.372307700105,None,n,752.372307700105,None,"['n', 'return']","[1.3221385003998876, 2.394060299731791]",752.372307700105,None,,,48,001,2023_Apr_19_1221,ExactRep-v3-final,2021.2.3,59.987498705614954,
,,,,,,,,,,,,15,0,15,0,,,,,,,,,,,,,,,,,,,,,,,,,,,,,,,,,,,,,,,,,,,,,,,,,757.5103748999536,None,,,,,,,,,,,,,,,,,,,,,,,,,,,,,,,,,,,,,,,,,,,,,,,,,,,,,,,,,fact,1,16,sing,old,yellow,755.316120300442,None,y,755.316120300442,None,"['y', 'return']","[1.1702733999118209, 2.154388999566436]",755.316120300442,None,,,48,001,2023_Apr_19_1221,ExactRep-v3-final,2021.2.3,59.987498705614954,
,,,,,,,,,,,,16,0,16,0,,,,,,,,,,,,,,,,,,,,,,,,,,,,,,,,,,,,,,,,,,,,,,,,,761.2140512000769,None,,,,,,,,,,,,,,,,,,,,,,,,,,,,,,,,,,,,,,,,,,,,,,,,,,,,,,,,,cat,129,17,silent,new,yellow,758.0195094002411,None,y,758.0195094002411,None,"['y', 'return']","[2.323154599405825, 3.1468941997736692]",758.0195094002411,None,,,48,001,2023_Apr_19_1221,ExactRep-v3-final,2021.2.3,59.987498705614954,
,,,,,,,,,,,,17,0,17,0,,,,,,,,,,,,,,,,,,,,,,,,,,,,,,,,,,,,,,,,,,,,,,,,,763.9666876001284,None,,,,,,,,,,,,,,,,,,,,,,,,,,,,,,,,,,,,,,,,,,,,,,,,,,,,,,,,,chief,116,18,aloud,old,yellow,761.726487999782,None,y,761.726487999782,None,"['y', 'return']","[1.359965099953115, 2.199980699457228]",761.726487999782,None,,,48,001,2023_Apr_19_1221,ExactRep-v3-final,2021.2.3,59.987498705614954,
,,,,,,,,,,,,18,0,18,0,,,,,,,,,,,,,,,,,,,,,,,,,,,,,,,,,,,,,,,,,,,,,,,,,766.5028817998245,None,,,,,,,,,,,,,,,,,,,,,,,,,,,,,,,,,,,,,,,,,,,,,,,,,,,,,,,,,custom,152,19,silent,new,yellow,764.4773741001263,None,n,764.4773741001263,None,"['n', 'return']","[1.0970149002969265, 1.9931739000603557]",764.4773741001263,None,,,48,001,2023_Apr_19_1221,ExactRep-v3-final,2021.2.3,59.987498705614954,
,,,,,,,,,,,,19,0,19,0,,,,,,,,,,,,,,,,,,,,,,,,,,,,,,,,,,,,,,,,,,,,,,,,,770.206601199694,None,,,,,,,,,,,,,,,,,,,,,,,,,,,,,,,,,,,,,,,,,,,,,,,,,,,,,,,,,plant,183,20,sing,new,yellow,767.0155889997259,None,y,767.0155889997259,None,"['y', 'return']","[2.175109200179577, 3.158825500868261]",767.0155889997259,None,,,48,001,2023_Apr_19_1221,ExactRep-v3-final,2021.2.3,59.987498705614954,
,,,,,,,,,,,,20,0,20,0,,,,,,,,,,,,,,,,,,,,,,,,,,,,,,,,,,,,,,,,,,,,,,,,,773.7767008999363,None,,,,,,,,,,,,,,,,,,,,,,,,,,,,,,,,,,,,,,,,,,,,,,,,,,,,,,,,,woman,135,21,silent,new,yellow,770.7204307001084,None,n,770.7204307001084,None,"['n', 'return']","[2.0620395997539163, 3.0219617001712322]",770.7204307001084,None,,,48,001,2023_Apr_19_1221,ExactRep-v3-final,2021.2.3,59.987498705614954,
,,,,,,,,,,,,21,0,21,0,,,,,,,,,,,,,,,,,,,,,,,,,,,,,,,,,,,,,,,,,,,,,,,,,777.6472015995532,None,,,,,,,,,,,,,,,,,,,,,,,,,,,,,,,,,,,,,,,,,,,,,,,,,,,,,,,,,water,154,22,silent,new,yellow,774.2853854997084,None,n,774.2853854997084,None,"['n', 'return']","[2.233021299354732, 3.3210487999022007]",774.2853854997084,None,,,48,001,2023_Apr_19_1221,ExactRep-v3-final,2021.2.3,59.987498705614954,
,,,,,,,,,,,,22,0,22,0,,,,,,,,,,,,,,,,,,,,,,,,,,,,,,,,,,,,,,,,,,,,,,,,,785.4716606996953,None,,,,,,,,,,,,,,,,,,,,,,,,,,,,,,,,,,,,,,,,,,,,,,,,,,,,,,,,,child,163,23,sing,new,yellow,778.1581472000107,None,y,778.1581472000107,None,"['y', 'return']","[6.400322800502181, 7.272296500392258]",778.1581472000107,None,,,48,001,2023_Apr_19_1221,ExactRep-v3-final,2021.2.3,59.987498705614954,
,,,,,,,,,,,,23,0,23,0,,,,,,,,,,,,,,,,,,,,,,,,,,,,,,,,,,,,,,,,,,,,,,,,,791.1774388998747,None,,,,,,,,,,,,,,,,,,,,,,,,,,,,,,,,,,,,,,,,,,,,,,,,,,,,,,,,,soil,53,24,silent,old,yellow,785.9818220995367,None,n,785.9818220995367,None,"['n', 'return']","[4.08886650018394, 5.160674300044775]",785.9818220995367,None,,,48,001,2023_Apr_19_1221,ExactRep-v3-final,2021.2.3,59.987498705614954,
,,,,,,,,,,,,24,0,24,0,,,,,,,,,,,,,,,,,,,,,,,,,,,,,,,,,,,,,,,,,,,,,,,,,795.1648733997717,None,,,,,,,,,,,,,,,,,,,,,,,,,,,,,,,,,,,,,,,,,,,,,,,,,,,,,,,,,freedom,215,25,sing,new,yellow,791.6896495996043,None,n,791.6896495996043,None,"['n', 'return']","[2.492846199311316, 3.4287875993177295]",791.6896495996043,None,,,48,001,2023_Apr_19_1221,ExactRep-v3-final,2021.2.3,59.987498705614954,
,,,,,,,,,,,,25,0,25,0,,,,,,,,,,,,,,,,,,,,,,,,,,,,,,,,,,,,,,,,,,,,,,,,,798.1009718999267,None,,,,,,,,,,,,,,,,,,,,,,,,,,,,,,,,,,,,,,,,,,,,,,,,,,,,,,,,,village,195,26,sing,new,yellow,795.6790017997846,None,y,795.6790017997846,None,"['y', 'return']","[1.4716445999220014, 2.3833872005343437]",795.6790017997846,None,,,48,001,2023_Apr_19_1221,ExactRep-v3-final,2021.2.3,59.987498705614954,
,,,,,,,,,,,,26,0,26,0,,,,,,,,,,,,,,,,,,,,,,,,,,,,,,,,,,,,,,,,,,,,,,,,,800.8370986999944,None,,,,,,,,,,,,,,,,,,,,,,,,,,,,,,,,,,,,,,,,,,,,,,,,,,,,,,,,,passion,101,27,aloud,old,yellow,798.6125817000866,None,y,798.6125817000866,None,"['y', 'return']","[1.3538666004315019, 2.185908100567758]",798.6125817000866,None,,,48,001,2023_Apr_19_1221,ExactRep-v3-final,2021.2.3,59.987498705614954,
,,,,,,,,,,,,27,0,27,0,,,,,,,,,,,,,,,,,,,,,,,,,,,,,,,,,,,,,,,,,,,,,,,,,806.7262762002647,None,,,,,,,,,,,,,,,,,,,,,,,,,,,,,,,,,,,,,,,,,,,,,,,,,,,,,,,,,teacher,235,28,sing,new,yellow,801.3494458999485,None,n,801.3494458999485,None,"['n', 'return']","[2.993063999339938, 5.345067599788308]",801.3494458999485,None,,,48,001,2023_Apr_19_1221,ExactRep-v3-final,2021.2.3,59.987498705614954,
,,,,,,,,,,,,28,0,28,0,,,,,,,,,,,,,,,,,,,,,,,,,,,,,,,,,,,,,,,,,,,,,,,,,809.9961973996833,None,,,,,,,,,,,,,,,,,,,,,,,,,,,,,,,,,,,,,,,,,,,,,,,,,,,,,,,,,duty,0,29,sing,old,yellow,807.2334099998698,None,y,807.2334099998698,None,"['y', 'return']","[1.7332520000636578, 2.7251078002154827]",807.2334099998698,None,,,48,001,2023_Apr_19_1221,ExactRep-v3-final,2021.2.3,59.987498705614954,
,,,,,,,,,,,,29,0,29,0,,,,,,,,,,,,,,,,,,,,,,,,,,,,,,,,,,,,,,,,,,,,,,,,,813.6666932003573,None,,,,,,,,,,,,,,,,,,,,,,,,,,,,,,,,,,,,,,,,,,,,,,,,,,,,,,,,,series,133,30,silent,new,yellow,810.5068752001971,None,y,810.5068752001971,None,"['y', 'return']","[1.9316774997860193, 3.115511999465525]",810.5068752001971,None,,,48,001,2023_Apr_19_1221,ExactRep-v3-final,2021.2.3,59.987498705614954,
,,,,,,,,,,,,30,0,30,0,,,,,,,,,,,,,,,,,,,,,,,,,,,,,,,,,,,,,,,,,,,,,,,,,817.5037393998355,None,,,,,,,,,,,,,,,,,,,,,,,,,,,,,,,,,,,,,,,,,,,,,,,,,,,,,,,,,temple,151,31,silent,new,yellow,814.171937099658,None,y,814.171937099658,None,"['y', 'return']","[1.5225342996418476, 3.290515899658203]",814.171937099658,None,,,48,001,2023_Apr_19_1221,ExactRep-v3-final,2021.2.3,59.987498705614954,
,,,,,,,,,,,,31,0,31,0,,,,,,,,,,,,,,,,,,,,,,,,,,,,,,,,,,,,,,,,,,,,,,,,,821.3575601000339,None,,,,,,,,,,,,,,,,,,,,,,,,,,,,,,,,,,,,,,,,,,,,,,,,,,,,,,,,,breast,137,32,silent,new,yellow,818.012718799524,None,n,818.012718799524,None,"['n', 'return']","[2.0018144007772207, 3.305790400132537]",818.012718799524,None,,,48,001,2023_Apr_19_1221,ExactRep-v3-final,2021.2.3,59.987498705614954,
,,,,,,,,,,,,32,0,32,0,,,,,,,,,,,,,,,,,,,,,,,,,,,,,,,,,,,,,,,,,,,,,,,,,824.6942111998796,None,,,,,,,,,,,,,,,,,,,,,,,,,,,,,,,,,,,,,,,,,,,,,,,,,,,,,,,,,vision,184,33,aloud,new,yellow,821.8699655998498,None,y,821.8699655998498,None,"['y', 'return']","[1.8966576997190714, 2.7765195993706584]",821.8699655998498,None,,,48,001,2023_Apr_19_1221,ExactRep-v3-final,2021.2.3,59.987498705614954,
,,,,,,,,,,,,33,0,33,0,,,,,,,,,,,,,,,,,,,,,,,,,,,,,,,,,,,,,,,,,,,,,,,,,827.7975417999551,None,,,,,,,,,,,,,,,,,,,,,,,,,,,,,,,,,,,,,,,,,,,,,,,,,,,,,,,,,green,196,34,aloud,new,yellow,825.205071600154,None,n,825.205071600154,None,"['n', 'return']","[1.4416687991470098, 2.5455401996150613]",825.205071600154,None,,,48,001,2023_Apr_19_1221,ExactRep-v3-final,2021.2.3,59.987498705614954,
,,,,,,,,,,,,34,0,34,0,,,,,,,,,,,,,,,,,,,,,,,,,,,,,,,,,,,,,,,,,,,,,,,,,830.5168367000297,None,,,,,,,,,,,,,,,,,,,,,,,,,,,,,,,,,,,,,,,,,,,,,,,,,,,,,,,,,soul,7,35,sing,old,yellow,828.3040386000648,None,y,828.3040386000648,None,"['y', 'return']","[1.2144566997885704, 2.166434899903834]",828.3040386000648,None,,,48,001,2023_Apr_19_1221,ExactRep-v3-final,2021.2.3,59.987498705614954,
,,,,,,,,,,,,35,0,35,0,,,,,,,,,,,,,,,,,,,,,,,,,,,,,,,,,,,,,,,,,,,,,,,,,833.219451200217,None,,,,,,,,,,,,,,,,,,,,,,,,,,,,,,,,,,,,,,,,,,,,,,,,,,,,,,,,,sky,206,36,aloud,new,yellow,831.0285962000489,None,n,831.0285962000489,None,"['n', 'return']","[1.2419459000229836, 2.1458888994529843]",831.0285962000489,None,,,48,001,2023_Apr_19_1221,ExactRep-v3-final,2021.2.3,59.987498705614954,
,,,,,,,,,,,,36,0,36,0,,,,,,,,,,,,,,,,,,,,,,,,,,,,,,,,,,,,,,,,,,,,,,,,,838.7249790998176,None,,,,,,,,,,,,,,,,,,,,,,,,,,,,,,,,,,,,,,,,,,,,,,,,,,,,,,,,,iron,114,37,aloud,old,yellow,833.7334214001894,None,y,833.7334214001894,None,"['y', 'return']","[1.273047899827361, 4.953042699955404]",833.7334214001894,None,,,48,001,2023_Apr_19_1221,ExactRep-v3-final,2021.2.3,59.987498705614954,
,,,,,,,,,,,,37,0,37,0,,,,,,,,,,,,,,,,,,,,,,,,,,,,,,,,,,,,,,,,,,,,,,,,,841.5611290000379,None,,,,,,,,,,,,,,,,,,,,,,,,,,,,,,,,,,,,,,,,,,,,,,,,,,,,,,,,,judge,83,38,aloud,old,yellow,839.2375948997214,None,y,839.2375948997214,None,"['y', 'return']","[1.5048217000439763, 2.28092270065099]",839.2375948997214,None,,,48,001,2023_Apr_19_1221,ExactRep-v3-final,2021.2.3,59.987498705614954,
,,,,,,,,,,,,38,0,38,0,,,,,,,,,,,,,,,,,,,,,,,,,,,,,,,,,,,,,,,,,,,,,,,,,844.6139526003972,None,,,,,,,,,,,,,,,,,,,,,,,,,,,,,,,,,,,,,,,,,,,,,,,,,,,,,,,,,wife,146,39,silent,new,yellow,842.0717251002789,None,n,842.0717251002789,None,"['n', 'return']","[1.5990436999127269, 2.5028176000341773]",842.0717251002789,None,,,48,001,2023_Apr_19_1221,ExactRep-v3-final,2021.2.3,59.987498705614954,
,,,,,,,,,,,,39,0,39,0,,,,,,,,,,,,,,,,,,,,,,,,,,,,,,,,,,,,,,,,,,,,,,,,,847.200089099817,None,,,,,,,,,,,,,,,,,,,,,,,,,,,,,,,,,,,,,,,,,,,,,,,,,,,,,,,,,horse,127,40,silent,new,yellow,845.1240504998714,None,n,845.1240504998714,None,"['n', 'return']","[1.1704080002382398, 2.042416900396347]",845.1240504998714,None,,,48,001,2023_Apr_19_1221,ExactRep-v3-final,2021.2.3,59.987498705614954,
,,,,,,,,,,,,40,0,40,0,,,,,,,,,,,,,,,,,,,,,,,,,,,,,,,,,,,,,,,,,,,,,,,,,851.0039103003219,None,,,,,,,,,,,,,,,,,,,,,,,,,,,,,,,,,,,,,,,,,,,,,,,,,,,,,,,,,cottage,140,41,silent,new,yellow,847.71001229994,None,n,847.71001229994,None,"['n', 'return']","[1.7764315996319056, 3.248504299670458]",847.71001229994,None,,,48,001,2023_Apr_19_1221,ExactRep-v3-final,2021.2.3,59.987498705614954,
,,,,,,,,,,,,41,0,41,0,,,,,,,,,,,,,,,,,,,,,,,,,,,,,,,,,,,,,,,,,,,,,,,,,855.9086552001536,None,,,,,,,,,,,,,,,,,,,,,,,,,,,,,,,,,,,,,,,,,,,,,,,,,,,,,,,,,steam,125,42,silent,new,yellow,851.5162316998467,None,n,851.5162316998467,None,"['n', 'return']","[3.5464496007189155, 4.3542881002649665]",851.5162316998467,None,,,48,001,2023_Apr_19_1221,ExactRep-v3-final,2021.2.3,59.987498705614954,
,,,,,,,,,,,,42,0,42,0,,,,,,,,,,,,,,,,,,,,,,,,,,,,,,,,,,,,,,,,,,,,,,,,,858.3111824002117,None,,,,,,,,,,,,,,,,,,,,,,,,,,,,,,,,,,,,,,,,,,,,,,,,,,,,,,,,,excuse,208,43,aloud,new,yellow,856.4216042002663,None,n,856.4216042002663,None,"['n', 'return']","[1.144901399500668, 1.8568767998367548]",856.4216042002663,None,,,48,001,2023_Apr_19_1221,ExactRep-v3-final,2021.2.3,59.987498705614954,
,,,,,,,,,,,,43,0,43,0,,,,,,,,,,,,,,,,,,,,,,,,,,,,,,,,,,,,,,,,,,,,,,,,,860.7469453001395,None,,,,,,,,,,,,,,,,,,,,,,,,,,,,,,,,,,,,,,,,,,,,,,,,,,,,,,,,,money,211,44,sing,new,yellow,858.8117194995284,None,y,858.8117194995284,None,"['y', 'return']","[1.0429771998897195, 1.8988463003188372]",858.8117194995284,None,,,48,001,2023_Apr_19_1221,ExactRep-v3-final,2021.2.3,59.987498705614954,
,,,,,,,,,,,,44,0,44,0,,,,,,,,,,,,,,,,,,,,,,,,,,,,,,,,,,,,,,,,,,,,,,,,,866.4526993995532,None,,,,,,,,,,,,,,,,,,,,,,,,,,,,,,,,,,,,,,,,,,,,,,,,,,,,,,,,,queen,216,45,aloud,new,yellow,861.2595621002838,None,n,861.2595621002838,None,"['n', 'return']","[4.018920400179923, 5.1549340998753905]",861.2595621002838,None,,,48,001,2023_Apr_19_1221,ExactRep-v3-final,2021.2.3,59.987498705614954,
,,,,,,,,,,,,45,0,45,0,,,,,,,,,,,,,,,,,,,,,,,,,,,,,,,,,,,,,,,,,,,,,,,,,870.9403232997283,None,,,,,,,,,,,,,,,,,,,,,,,,,,,,,,,,,,,,,,,,,,,,,,,,,,,,,,,,,honour,70,46,silent,old,yellow,866.9624931002036,None,y,866.9624931002036,None,"['y', 'return']","[1.2278877003118396, 3.9399703005328774]",866.9624931002036,None,,,48,001,2023_Apr_19_1221,ExactRep-v3-final,2021.2.3,59.987498705614954,
,,,,,,,,,,,,46,0,46,0,,,,,,,,,,,,,,,,,,,,,,,,,,,,,,,,,,,,,,,,,,,,,,,,,873.4596014004201,None,,,,,,,,,,,,,,,,,,,,,,,,,,,,,,,,,,,,,,,,,,,,,,,,,,,,,,,,,volume,61,47,silent,old,yellow,871.4439882999286,None,y,871.4439882999286,None,"['y', 'return']","[1.2425836995244026, 1.970587999559939]",871.4439882999286,None,,,48,001,2023_Apr_19_1221,ExactRep-v3-final,2021.2.3,59.987498705614954,
,,,,,,,,,,,,47,0,47,0,,,,,,,,,,,,,,,,,,,,,,,,,,,,,,,,,,,,,,,,,,,,,,,,,876.1691765999421,None,,,,,,,,,,,,,,,,,,,,,,,,,,,,,,,,,,,,,,,,,,,,,,,,,,,,,,,,,garden,149,48,silent,new,yellow,873.9682149998844,None,y,873.9682149998844,None,"['y', 'return']","[1.4704537000507116, 2.15034609939903]",873.9682149998844,None,,,48,001,2023_Apr_19_1221,ExactRep-v3-final,2021.2.3,59.987498705614954,
,,,,,,,,,,,,48,0,48,0,,,,,,,,,,,,,,,,,,,,,,,,,,,,,,,,,,,,,,,,,,,,,,,,,878.7315796995535,None,,,,,,,,,,,,,,,,,,,,,,,,,,,,,,,,,,,,,,,,,,,,,,,,,,,,,,,,,picture,229,49,sing,new,yellow,876.6872563995421,None,n,876.6872563995421,None,"['n', 'return']","[1.2791915005072951, 2.00730590056628]",876.6872563995421,None,,,48,001,2023_Apr_19_1221,ExactRep-v3-final,2021.2.3,59.987498705614954,
,,,,,,,,,,,,49,0,49,0,,,,,,,,,,,,,,,,,,,,,,,,,,,,,,,,,,,,,,,,,,,,,,,,,882.2517940998077,None,,,,,,,,,,,,,,,,,,,,,,,,,,,,,,,,,,,,,,,,,,,,,,,,,,,,,,,,,salary,158,50,silent,new,yellow,879.2321079000831,None,n,879.2321079000831,None,"['n', 'return']","[2.2065153997391462, 2.9824377996847034]",879.2321079000831,None,,,48,001,2023_Apr_19_1221,ExactRep-v3-final,2021.2.3,59.987498705614954,
,,,,,,,,,,,,50,0,50,0,,,,,,,,,,,,,,,,,,,,,,,,,,,,,,,,,,,,,,,,,,,,,,,,,884.7042559003457,None,,,,,,,,,,,,,,,,,,,,,,,,,,,,,,,,,,,,,,,,,,,,,,,,,,,,,,,,,pride,75,51,silent,old,yellow,882.7642102995887,None,y,882.7642102995887,None,"['y', 'return']","[1.2983109997585416, 1.906288799829781]",882.7642102995887,None,,,48,001,2023_Apr_19_1221,ExactRep-v3-final,2021.2.3,59.987498705614954,
,,,,,,,,,,,,51,0,51,0,,,,,,,,,,,,,,,,,,,,,,,,,,,,,,,,,,,,,,,,,,,,,,,,,886.839752400294,None,,,,,,,,,,,,,,,,,,,,,,,,,,,,,,,,,,,,,,,,,,,,,,,,,,,,,,,,,fortune,91,52,aloud,old,yellow,885.2185295997187,None,y,885.2185295997187,None,"['y', 'return']","[1.0681384997442365, 1.5800742991268635]",885.2185295997187,None,,,48,001,2023_Apr_19_1221,ExactRep-v3-final,2021.2.3,59.987498705614954,
,,,,,,,,,,,,52,0,52,0,,,,,,,,,,,,,,,,,,,,,,,,,,,,,,,,,,,,,,,,,,,,,,,,,889.7927860002965,None,,,,,,,,,,,,,,,,,,,,,,,,,,,,,,,,,,,,,,,,,,,,,,,,,,,,,,,,,flower,30,53,sing,old,yellow,887.3519334997982,None,y,887.3519334997982,None,"['y', 'return']","[1.5986486999318004, 2.4066196996718645]",887.3519334997982,None,,,48,001,2023_Apr_19_1221,ExactRep-v3-final,2021.2.3,59.987498705614954,
,,,,,,,,,,,,53,0,53,0,,,,,,,,,,,,,,,,,,,,,,,,,,,,,,,,,,,,,,,,,,,,,,,,,894.280487800017,None,,,,,,,,,,,,,,,,,,,,,,,,,,,,,,,,,,,,,,,,,,,,,,,,,,,,,,,,,dollar,227,54,sing,new,yellow,890.3025264004245,None,n,890.3025264004245,None,"['n', 'return']","[3.5120379999279976, 3.93619570042938]",890.3025264004245,None,,,48,001,2023_Apr_19_1221,ExactRep-v3-final,2021.2.3,59.987498705614954,
,,,,,,,,,,,,54,0,54,0,,,,,,,,,,,,,,,,,,,,,,,,,,,,,,,,,,,,,,,,,,,,,,,,,897.6672230996192,None,,,,,,,,,,,,,,,,,,,,,,,,,,,,,,,,,,,,,,,,,,,,,,,,,,,,,,,,,earth,44,55,silent,old,yellow,894.7874189997092,None,y,894.7874189997092,None,"['y', 'return']","[2.179380800575018, 2.835167900659144]",894.7874189997092,None,,,48,001,2023_Apr_19_1221,ExactRep-v3-final,2021.2.3,59.987498705614954,
,,,,,,,,,,,,55,0,55,0,,,,,,,,,,,,,,,,,,,,,,,,,,,,,,,,,,,,,,,,,,,,,,,,,900.1529788998887,None,,,,,,,,,,,,,,,,,,,,,,,,,,,,,,,,,,,,,,,,,,,,,,,,,,,,,,,,,college,223,56,sing,new,yellow,898.1736938999966,None,n,898.1736938999966,None,"['n', 'return']","[1.2331734001636505, 1.9368415996432304]",898.1736938999966,None,,,48,001,2023_Apr_19_1221,ExactRep-v3-final,2021.2.3,59.987498705614954,
,,,,,,,,,,,,56,0,56,0,,,,,,,,,,,,,,,,,,,,,,,,,,,,,,,,,,,,,,,,,,,,,,,,,902.3218227997422,None,,,,,,,,,,,,,,,,,,,,,,,,,,,,,,,,,,,,,,,,,,,,,,,,,,,,,,,,,grass,118,57,aloud,old,yellow,900.6656994996592,None,y,900.6656994996592,None,"['y', 'return']","[1.1248741000890732, 1.6210144003853202]",900.6656994996592,None,,,48,001,2023_Apr_19_1221,ExactRep-v3-final,2021.2.3,59.987498705614954,
,,,,,,,,,,,,57,0,57,0,,,,,,,,,,,,,,,,,,,,,,,,,,,,,,,,,,,,,,,,,,,,,,,,,904.9911487000063,None,,,,,,,,,,,,,,,,,,,,,,,,,,,,,,,,,,,,,,,,,,,,,,,,,,,,,,,,,mercy,110,58,aloud,old,yellow,902.8318499000743,None,y,902.8318499000743,None,"['y', 'return']","[1.246756199747324, 2.1187234995886683]",902.8318499000743,None,,,48,001,2023_Apr_19_1221,ExactRep-v3-final,2021.2.3,59.987498705614954,
,,,,,,,,,,,,58,0,58,0,,,,,,,,,,,,,,,,,,,,,,,,,,,,,,,,,,,,,,,,,,,,,,,,,908.8450592998415,None,,,,,,,,,,,,,,,,,,,,,,,,,,,,,,,,,,,,,,,,,,,,,,,,,,,,,,,,,colony,45,59,silent,old,yellow,905.5037291003391,None,y,905.5037291003391,None,"['y', 'return']","[2.502793900668621, 3.3028428005054593]",905.5037291003391,None,,,48,001,2023_Apr_19_1221,ExactRep-v3-final,2021.2.3,59.987498705614954,
,,,,,,,,,,,,59,0,59,0,,,,,,,,,,,,,,,,,,,,,,,,,,,,,,,,,,,,,,,,,,,,,,,,,913.1828191997483,None,,,,,,,,,,,,,,,,,,,,,,,,,,,,,,,,,,,,,,,,,,,,,,,,,,,,,,,,,square,65,60,silent,old,yellow,909.3520545996726,None,n,909.3520545996726,None,"['n', 'return']","[2.998681800439954, 3.798599800094962]",909.3520545996726,None,,,48,001,2023_Apr_19_1221,ExactRep-v3-final,2021.2.3,59.987498705614954,
,,,,,,,,,,,,60,0,60,0,,,,,,,,,,,,,,,,,,,,,,,,,,,,,,,,,,,,,,,,,,,,,,,,,916.0186919001862,None,,,,,,,,,,,,,,,,,,,,,,,,,,,,,,,,,,,,,,,,,,,,,,,,,,,,,,,,,paper,193,61,sing,new,yellow,913.6893889000639,None,n,913.6893889000639,None,"['n', 'return']","[1.7012579999864101, 2.2851792005822062]",913.6893889000639,None,,,48,001,2023_Apr_19_1221,ExactRep-v3-final,2021.2.3,59.987498705614954,
,,,,,,,,,,,,61,0,61,0,,,,,,,,,,,,,,,,,,,,,,,,,,,,,,,,,,,,,,,,,,,,,,,,,918.8644594000652,None,,,,,,,,,,,,,,,,,,,,,,,,,,,,,,,,,,,,,,,,,,,,,,,,,,,,,,,,,house,226,62,aloud,new,yellow,916.5299511002377,None,n,916.5299511002377,None,"['n', 'return']","[1.8208574000746012, 2.284621600061655]",916.5299511002377,None,,,48,001,2023_Apr_19_1221,ExactRep-v3-final,2021.2.3,59.987498705614954,
,,,,,,,,,,,,62,0,62,0,,,,,,,,,,,,,,,,,,,,,,,,,,,,,,,,,,,,,,,,,,,,,,,,,922.9424964003265,None,,,,,,,,,,,,,,,,,,,,,,,,,,,,,,,,,,,,,,,,,,,,,,,,,,,,,,,,,air,50,63,silent,old,yellow,919.3826401000842,None,n,919.3826401000842,None,"['n', 'return']","[3.1279609007760882, 3.5120032001286745]",919.3826401000842,None,,,48,001,2023_Apr_19_1221,ExactRep-v3-final,2021.2.3,59.987498705614954,
,,,,,,,,,,,,63,0,63,0,,,,,,,,,,,,,,,,,,,,,,,,,,,,,,,,,,,,,,,,,,,,,,,,,925.2614272003993,None,,,,,,,,,,,,,,,,,,,,,,,,,,,,,,,,,,,,,,,,,,,,,,,,,,,,,,,,,corn,180,64,aloud,new,yellow,923.4513803003356,None,n,923.4513803003356,None,"['n', 'return']","[1.3954992005601525, 1.7712479000911117]",923.4513803003356,None,,,48,001,2023_Apr_19_1221,ExactRep-v3-final,2021.2.3,59.987498705614954,
,,,,,,,,,,,,64,0,64,0,,,,,,,,,,,,,,,,,,,,,,,,,,,,,,,,,,,,,,,,,,,,,,,,,929.1653661997989,None,,,,,,,,,,,,,,,,,,,,,,,,,,,,,,,,,,,,,,,,,,,,,,,,,,,,,,,,,person,16,65,sing,old,yellow,925.7774924999103,None,y,925.7774924999103,None,"['y', 'return']","[1.59738489985466, 3.3411163995042443]",925.7774924999103,None,,,48,001,2023_Apr_19_1221,ExactRep-v3-final,2021.2.3,59.987498705614954,
,,,,,,,,,,,,65,0,65,0,,,,,,,,,,,,,,,,,,,,,,,,,,,,,,,,,,,,,,,,,,,,,,,,,932.7355503002182,None,,,,,,,,,,,,,,,,,,,,,,,,,,,,,,,,,,,,,,,,,,,,,,,,,,,,,,,,,length,234,66,aloud,new,yellow,929.6745039001107,None,y,929.6745039001107,None,"['y', 'return']","[2.4283267995342612, 3.028218399733305]",929.6745039001107,None,,,48,001,2023_Apr_19_1221,ExactRep-v3-final,2021.2.3,59.987498705614954,
,,,,,,,,,,,,66,0,66,0,,,,,,,,,,,,,,,,,,,,,,,,,,,,,,,,,,,,,,,,,,,,,,,,,935.6384680001065,None,,,,,,,,,,,,,,,,,,,,,,,,,,,,,,,,,,,,,,,,,,,,,,,,,,,,,,,,,hall,28,67,sing,old,yellow,933.2450433000922,None,y,933.2450433000922,None,"['y', 'return']","[1.825513199903071, 2.3455656999722123]",933.2450433000922,None,,,48,001,2023_Apr_19_1221,ExactRep-v3-final,2021.2.3,59.987498705614954,
,,,,,,,,,,,,67,0,67,0,,,,,,,,,,,,,,,,,,,,,,,,,,,,,,,,,,,,,,,,,,,,,,,,,938.7582120997831,None,,,,,,,,,,,,,,,,,,,,,,,,,,,,,,,,,,,,,,,,,,,,,,,,,,,,,,,,,fur,32,68,sing,old,yellow,936.1413816995919,None,n,936.1413816995919,None,"['n', 'return']","[1.3614853993058205, 2.5852756993845105]",936.1413816995919,None,,,48,001,2023_Apr_19_1221,ExactRep-v3-final,2021.2.3,59.987498705614954,
,,,,,,,,,,,,68,0,68,0,,,,,,,,,,,,,,,,,,,,,,,,,,,,,,,,,,,,,,,,,,,,,,,,,942.2951579997316,None,,,,,,,,,,,,,,,,,,,,,,,,,,,,,,,,,,,,,,,,,,,,,,,,,,,,,,,,,avenue,238,69,aloud,new,yellow,939.2676237002015,None,n,939.2676237002015,None,"['n', 'return']","[1.7791809998452663, 2.994959299452603]",939.2676237002015,None,,,48,001,2023_Apr_19_1221,ExactRep-v3-final,2021.2.3,59.987498705614954,
,,,,,,,,,,,,69,0,69,0,,,,,,,,,,,,,,,,,,,,,,,,,,,,,,,,,,,,,,,,,,,,,,,,,945.1146705001593,None,,,,,,,,,,,,,,,,,,,,,,,,,,,,,,,,,,,,,,,,,,,,,,,,,,,,,,,,,skin,31,70,sing,old,yellow,942.8052899995819,None,y,942.8052899995819,None,"['y', 'return']","[1.7532802000641823, 2.265241200104356]",942.8052899995819,None,,,48,001,2023_Apr_19_1221,ExactRep-v3-final,2021.2.3,59.987498705614954,
,,,,,,,,,,,,70,0,70,0,,,,,,,,,,,,,,,,,,,,,,,,,,,,,,,,,,,,,,,,,,,,,,,,,947.5502695003524,None,,,,,,,,,,,,,,,,,,,,,,,,,,,,,,,,,,,,,,,,,,,,,,,,,,,,,,,,,silence,111,71,aloud,old,yellow,945.6323397001252,None,n,945.6323397001252,None,"['n', 'return']","[1.2542761992663145, 1.8782858001068234]",945.6323397001252,None,,,48,001,2023_Apr_19_1221,ExactRep-v3-final,2021.2.3,59.987498705614954,
,,,,,,,,,,,,71,0,71,0,,,,,,,,,,,,,,,,,,,,,,,,,,,,,,,,,,,,,,,,,,,,,,,,,951.7047707000747,None,,,,,,,,,,,,,,,,,,,,,,,,,,,,,,,,,,,,,,,,,,,,,,,,,,,,,,,,,arm,173,72,sing,new,yellow,948.0602021003142,None,n,948.0602021003142,None,"['n', 'return']","[2.746418099850416, 3.6023758994415402]",948.0602021003142,None,,,48,001,2023_Apr_19_1221,ExactRep-v3-final,2021.2.3,59.987498705614954,
,,,,,,,,,,,,72,0,72,0,,,,,,,,,,,,,,,,,,,,,,,,,,,,,,,,,,,,,,,,,,,,,,,,,963.966868000105,None,,,,,,,,,,,,,,,,,,,,,,,,,,,,,,,,,,,,,,,,,,,,,,,,,,,,,,,,,disease,24,73,sing,old,yellow,952.218428899534,None,y,952.218428899534,None,"['y', 'return']","[4.4442167999222875, 11.716311199590564]",952.218428899534,None,,,48,001,2023_Apr_19_1221,ExactRep-v3-final,2021.2.3,59.987498705614954,
,,,,,,,,,,,,73,0,73,0,,,,,,,,,,,,,,,,,,,,,,,,,,,,,,,,,,,,,,,,,,,,,,,,,966.8361980998889,None,,,,,,,,,,,,,,,,,,,,,,,,,,,,,,,,,,,,,,,,,,,,,,,,,,,,,,,,,factory,74,74,silent,old,yellow,964.4806674001738,None,y,964.4806674001738,None,"['y', 'return']","[1.3259605001658201, 2.3101150998845696]",964.4806674001738,None,,,48,001,2023_Apr_19_1221,ExactRep-v3-final,2021.2.3,59.987498705614954,
,,,,,,,,,,,,74,0,74,0,,,,,,,,,,,,,,,,,,,,,,,,,,,,,,,,,,,,,,,,,,,,,,,,,971.007262500003,None,,,,,,,,,,,,,,,,,,,,,,,,,,,,,,,,,,,,,,,,,,,,,,,,,,,,,,,,,chance,81,75,aloud,old,yellow,967.3500071996823,None,y,967.3500071996823,None,"['y', 'return']","[3.0245845997706056, 3.616583799943328]",967.3500071996823,None,,,48,001,2023_Apr_19_1221,ExactRep-v3-final,2021.2.3,59.987498705614954,
,,,,,,,,,,,,75,0,75,0,,,,,,,,,,,,,,,,,,,,,,,,,,,,,,,,,,,,,,,,,,,,,,,,,973.6098494995385,None,,,,,,,,,,,,,,,,,,,,,,,,,,,,,,,,,,,,,,,,,,,,,,,,,,,,,,,,,thought,228,76,aloud,new,yellow,971.520385899581,None,n,971.520385899581,None,"['n', 'return']","[1.1342024998739362, 2.05432160012424]",971.520385899581,None,,,48,001,2023_Apr_19_1221,ExactRep-v3-final,2021.2.3,59.987498705614954,
,,,,,,,,,,,,76,0,76,0,,,,,,,,,,,,,,,,,,,,,,,,,,,,,,,,,,,,,,,,,,,,,,,,,976.7630367996171,None,,,,,,,,,,,,,,,,,,,,,,,,,,,,,,,,,,,,,,,,,,,,,,,,,,,,,,,,,sea,106,77,aloud,old,yellow,974.1210992000997,None,y,974.1210992000997,None,"['y', 'return']","[1.3655721005052328, 2.6055153999477625]",974.1210992000997,None,,,48,001,2023_Apr_19_1221,ExactRep-v3-final,2021.2.3,59.987498705614954,
,,,,,,,,,,,,77,0,77,0,,,,,,,,,,,,,,,,,,,,,,,,,,,,,,,,,,,,,,,,,,,,,,,,,979.9662108998746,None,,,,,,,,,,,,,,,,,,,,,,,,,,,,,,,,,,,,,,,,,,,,,,,,,,,,,,,,,dream,20,78,sing,old,yellow,977.2709892997518,None,n,977.2709892997518,None,"['n', 'return']","[1.5196500001475215, 2.6637607999145985]",977.2709892997518,None,,,48,001,2023_Apr_19_1221,ExactRep-v3-final,2021.2.3,59.987498705614954,
,,,,,,,,,,,,78,0,78,0,,,,,,,,,,,,,,,,,,,,,,,,,,,,,,,,,,,,,,,,,,,,,,,,,982.218473199755,None,,,,,,,,,,,,,,,,,,,,,,,,,,,,,,,,,,,,,,,,,,,,,,,,,,,,,,,,,troops,10,79,sing,old,yellow,980.4758398002014,None,y,980.4758398002014,None,"['y', 'return']","[1.307086399756372, 1.6987368995323777]",980.4758398002014,None,,,48,001,2023_Apr_19_1221,ExactRep-v3-final,2021.2.3,59.987498705614954,
,,,,,,,,,,,,79,0,79,0,,,,,,,,,,,,,,,,,,,,,,,,,,,,,,,,,,,,,,,,,,,,,,,,,984.5040713995695,None,,,,,,,,,,,,,,,,,,,,,,,,,,,,,,,,,,,,,,,,,,,,,,,,,,,,,,,,,truth,52,80,silent,old,yellow,982.722926300019,None,n,982.722926300019,None,"['n', 'return']","[1.2117849001660943, 1.7398616997525096]",982.722926300019,None,,,48,001,2023_Apr_19_1221,ExactRep-v3-final,2021.2.3,59.987498705614954,
,,,,,,,,,,,,80,0,80,0,,,,,,,,,,,,,,,,,,,,,,,,,,,,,,,,,,,,,,,,,,,,,,,,,990.4266886999831,None,,,,,,,,,,,,,,,,,,,,,,,,,,,,,,,,,,,,,,,,,,,,,,,,,,,,,,,,,door,21,81,sing,old,yellow,985.0192545996979,None,n,985.0192545996979,None,"['y', 'backspace', 'n', 'return']","[2.9713167008012533, 4.283344900235534, 4.859330300241709, 5.363325200043619]",985.0192545996979,None,,,48,001,2023_Apr_19_1221,ExactRep-v3-final,2021.2.3,59.987498705614954,
,,,,,,,,,,,,81,0,81,0,,,,,,,,,,,,,,,,,,,,,,,,,,,,,,,,,,,,,,,,,,,,,,,,,994.714271299541,None,,,,,,,,,,,,,,,,,,,,,,,,,,,,,,,,,,,,,,,,,,,,,,,,,,,,,,,,,product,126,82,silent,new,yellow,990.9319668998942,None,n,990.9319668998942,None,"['n', 'return']","[3.290714300237596, 3.7468790002167225]",990.9319668998942,None,,,48,001,2023_Apr_19_1221,ExactRep-v3-final,2021.2.3,59.987498705614954,
,,,,,,,,,,,,82,0,82,0,,,,,,,,,,,,,,,,,,,,,,,,,,,,,,,,,,,,,,,,,,,,,,,,,997.467111799866,None,,,,,,,,,,,,,,,,,,,,,,,,,,,,,,,,,,,,,,,,,,,,,,,,,,,,,,,,,gold,73,83,silent,old,yellow,995.2227501003072,None,y,995.2227501003072,None,"['y', 'return']","[1.7360800001770258, 2.199946600012481]",995.2227501003072,None,,,48,001,2023_Apr_19_1221,ExactRep-v3-final,2021.2.3,59.987498705614954,
,,,,,,,,,,,,83,0,83,0,,,,,,,,,,,,,,,,,,,,,,,,,,,,,,,,,,,,,,,,,,,,,,,,,1000.2086121002212,None,,,,,,,,,,,,,,,,,,,,,,,,,,,,,,,,,,,,,,,,,,,,,,,,,,,,,,,,,dawn,139,84,silent,new,yellow,997.9806129997596,None,n,997.9806129997596,None,"['n', 'return']","[1.5141983004286885, 2.1859348006546497]",997.9806129997596,None,,,48,001,2023_Apr_19_1221,ExactRep-v3-final,2021.2.3,59.987498705614954,
,,,,,,,,,,,,84,0,84,0,,,,,,,,,,,,,,,,,,,,,,,,,,,,,,,,,,,,,,,,,,,,,,,,,1004.4908381002024,None,,,,,,,,,,,,,,,,,,,,,,,,,,,,,,,,,,,,,,,,,,,,,,,,,,,,,,,,,victory,41,85,silent,old,yellow,1000.7285320004448,None,n,1000.7285320004448,None,"['n', 'return']","[3.2464375998824835, 3.718129400163889]",1000.7285320004448,None,,,48,001,2023_Apr_19_1221,ExactRep-v3-final,2021.2.3,59.987498705614954,
,,,,,,,,,,,,85,0,85,0,,,,,,,,,,,,,,,,,,,,,,,,,,,,,,,,,,,,,,,,,,,,,,,,,1006.9099655998871,None,,,,,,,,,,,,,,,,,,,,,,,,,,,,,,,,,,,,,,,,,,,,,,,,,,,,,,,,,deed,189,86,sing,new,yellow,1004.9981870995834,None,n,1004.9981870995834,None,"['n', 'return']","[1.2964393002912402, 1.8725283006206155]",1004.9981870995834,None,,,48,001,2023_Apr_19_1221,ExactRep-v3-final,2021.2.3,59.987498705614954,
,,,,,,,,,,,,86,0,86,0,,,,,,,,,,,,,,,,,,,,,,,,,,,,,,,,,,,,,,,,,,,,,,,,,1009.2289383001626,None,,,,,,,,,,,,,,,,,,,,,,,,,,,,,,,,,,,,,,,,,,,,,,,,,,,,,,,,,lake,36,87,sing,old,yellow,1007.4102758001536,None,y,1007.4102758001536,None,"['y', 'return']","[1.340532099828124, 1.7806170992553234]",1007.4102758001536,None,,,48,001,2023_Apr_19_1221,ExactRep-v3-final,2021.2.3,59.987498705614954,
,,,,,,,,,,,,87,0,87,0,,,,,,,,,,,,,,,,,,,,,,,,,,,,,,,,,,,,,,,,,,,,,,,,,1013.0993168996647,None,,,,,,,,,,,,,,,,,,,,,,,,,,,,,,,,,,,,,,,,,,,,,,,,,,,,,,,,,speech,33,88,sing,old,yellow,1009.7358886003494,None,n,1009.7358886003494,None,"['n', 'return']","[2.8707756008952856, 3.318836400285363]",1009.7358886003494,None,,,48,001,2023_Apr_19_1221,ExactRep-v3-final,2021.2.3,59.987498705614954,
,,,,,,,,,,,,88,0,88,0,,,,,,,,,,,,,,,,,,,,,,,,,,,,,,,,,,,,,,,,,,,,,,,,,1015.7184942001477,None,,,,,,,,,,,,,,,,,,,,,,,,,,,,,,,,,,,,,,,,,,,,,,,,,,,,,,,,,army,47,89,silent,old,yellow,1013.5999050997198,None,y,1013.5999050997198,None,"['y', 'return']","[1.2869334006682038, 2.07078290078789]",1013.5999050997198,None,,,48,001,2023_Apr_19_1221,ExactRep-v3-final,2021.2.3,59.987498705614954,
,,,,,,,,,,,,89,0,89,0,,,,,,,,,,,,,,,,,,,,,,,,,,,,,,,,,,,,,,,,,,,,,,,,,1019.1385402996093,None,,,,,,,,,,,,,,,,,,,,,,,,,,,,,,,,,,,,,,,,,,,,,,,,,,,,,,,,,author,34,90,sing,old,yellow,1016.2278327001259,None,y,1016.2278327001259,None,"['y', 'return']","[2.4989417996257544, 2.8668349999934435]",1016.2278327001259,None,,,48,001,2023_Apr_19_1221,ExactRep-v3-final,2021.2.3,59.987498705614954,
,,,,,,,,,,,,90,0,90,0,,,,,,,,,,,,,,,,,,,,,,,,,,,,,,,,,,,,,,,,,,,,,,,,,1022.1583906002343,None,,,,,,,,,,,,,,,,,,,,,,,,,,,,,,,,,,,,,,,,,,,,,,,,,,,,,,,,,trouble,78,91,silent,old,yellow,1019.6421753000468,None,n,1019.6421753000468,None,"['n', 'return']","[1.6126622008159757, 2.4764882000163198]",1019.6421753000468,None,,,48,001,2023_Apr_19_1221,ExactRep-v3-final,2021.2.3,59.987498705614954,
,,,,,,,,,,,,91,0,91,0,,,,,,,,,,,,,,,,,,,,,,,,,,,,,,,,,,,,,,,,,,,,,,,,,1025.0779689997435,None,,,,,,,,,,,,,,,,,,,,,,,,,,,,,,,,,,,,,,,,,,,,,,,,,,,,,,,,,clock,5,92,sing,old,yellow,1022.6663873996586,None,y,1022.6663873996586,None,"['y', 'return']","[1.2283141007646918, 2.3723237002268434]",1022.6663873996586,None,,,48,001,2023_Apr_19_1221,ExactRep-v3-final,2021.2.3,59.987498705614954,
,,,,,,,,,,,,92,0,92,0,,,,,,,,,,,,,,,,,,,,,,,,,,,,,,,,,,,,,,,,,,,,,,,,,1028.831727899611,None,,,,,,,,,,,,,,,,,,,,,,,,,,,,,,,,,,,,,,,,,,,,,,,,,,,,,,,,,valley,156,93,silent,new,yellow,1025.5875557996333,None,n,1025.5875557996333,None,"['n', 'return']","[2.4672659002244473, 3.2111823996528983]",1025.5875557996333,None,,,48,001,2023_Apr_19_1221,ExactRep-v3-final,2021.2.3,59.987498705614954,
,,,,,,,,,,,,93,0,93,0,,,,,,,,,,,,,,,,,,,,,,,,,,,,,,,,,,,,,,,,,,,,,,,,,1031.3842764003202,None,,,,,,,,,,,,,,,,,,,,,,,,,,,,,,,,,,,,,,,,,,,,,,,,,,,,,,,,,world,181,94,sing,new,yellow,1029.3429821999744,None,y,1029.3429821999744,None,"['y', 'return']","[1.472087699919939, 2.007637300528586]",1029.3429821999744,None,,,48,001,2023_Apr_19_1221,ExactRep-v3-final,2021.2.3,59.987498705614954,
,,,,,,,,,,,,94,0,94,0,,,,,,,,,,,,,,,,,,,,,,,,,,,,,,,,,,,,,,,,,,,,,,,,,1036.9730406003073,None,,,,,,,,,,,,,,,,,,,,,,,,,,,,,,,,,,,,,,,,,,,,,,,,,,,,,,,,,method,8,95,sing,old,yellow,1031.8939129002392,None,n,1031.8939129002392,None,"['n', 'return']","[3.7929942002519965, 5.032817900180817]",1031.8939129002392,None,,,48,001,2023_Apr_19_1221,ExactRep-v3-final,2021.2.3,59.987498705614954,
,,,,,,,,,,,,95,0,95,0,,,,,,,,,,,,,,,,,,,,,,,,,,,,,,,,,,,,,,,,,,,,,,,,,1040.1763385999948,None,,,,,,,,,,,,,,,,,,,,,,,,,,,,,,,,,,,,,,,,,,,,,,,,,,,,,,,,,kiss,25,96,sing,old,yellow,1037.4816150004044,None,n,1037.4816150004044,None,"['n', 'return']","[2.2050483003258705, 2.661023600026965]",1037.4816150004044,None,,,48,001,2023_Apr_19_1221,ExactRep-v3-final,2021.2.3,59.987498705614954,
,,,,,,,,,,,,96,0,96,0,,,,,,,,,,,,,,,,,,,,,,,,,,,,,,,,,,,,,,,,,,,,,,,,,1042.9123157998547,None,,,,,,,,,,,,,,,,,,,,,,,,,,,,,,,,,,,,,,,,,,,,,,,,,,,,,,,,,origin,2,97,sing,old,yellow,1040.6804635999724,None,y,1040.6804635999724,None,"['y', 'return']","[1.6622720994055271, 2.198298799805343]",1040.6804635999724,None,,,48,001,2023_Apr_19_1221,ExactRep-v3-final,2021.2.3,59.987498705614954,
,,,,,,,,,,,,97,0,97,0,,,,,,,,,,,,,,,,,,,,,,,,,,,,,,,,,,,,,,,,,,,,,,,,,1045.2646436002105,None,,,,,,,,,,,,,,,,,,,,,,,,,,,,,,,,,,,,,,,,,,,,,,,,,,,,,,,,,fate,194,98,aloud,new,yellow,1043.4209650997072,None,n,1043.4209650997072,None,"['n', 'return']","[1.2418924998492002, 1.8018984999507666]",1043.4209650997072,None,,,48,001,2023_Apr_19_1221,ExactRep-v3-final,2021.2.3,59.987498705614954,
,,,,,,,,,,,,98,0,98,0,,,,,,,,,,,,,,,,,,,,,,,,,,,,,,,,,,,,,,,,,,,,,,,,,1048.1509798001498,None,,,,,,,,,,,,,,,,,,,,,,,,,,,,,,,,,,,,,,,,,,,,,,,,,,,,,,,,,advice,131,99,silent,new,yellow,1045.774313800037,None,n,1045.774313800037,None,"['n', 'return']","[1.3443941995501518, 2.336403999477625]",1045.774313800037,None,,,48,001,2023_Apr_19_1221,ExactRep-v3-final,2021.2.3,59.987498705614954,
,,,,,,,,,,,,99,0,99,0,,,,,,,,,,,,,,,,,,,,,,,,,,,,,,,,,,,,,,,,,,,,,,,,,1055.308205800131,None,,,,,,,,,,,,,,,,,,,,,,,,,,,,,,,,,,,,,,,,,,,,,,,,,,,,,,,,,maiden,42,100,silent,old,yellow,1048.6589703001082,None,y,1048.6589703001082,None,"['y', 'return']","[5.476018300279975, 6.6117696007713675]",1048.6589703001082,None,,,48,001,2023_Apr_19_1221,ExactRep-v3-final,2021.2.3,59.987498705614954,
,,,,,,,,,,,,100,0,100,0,,,,,,,,,,,,,,,,,,,,,,,,,,,,,,,,,,,,,,,,,,,,,,,,,1058.661462799646,None,,,,,,,,,,,,,,,,,,,,,,,,,,,,,,,,,,,,,,,,,,,,,,,,,,,,,,,,,history,191,101,sing,new,yellow,1055.8148010997102,None,n,1055.8148010997102,None,"['n', 'return']","[1.9200965007767081, 2.799949500709772]",1055.8148010997102,None,,,48,001,2023_Apr_19_1221,ExactRep-v3-final,2021.2.3,59.987498705614954,
,,,,,,,,,,,,101,0,101,0,,,,,,,,,,,,,,,,,,,,,,,,,,,,,,,,,,,,,,,,,,,,,,,,,1061.9313661996275,None,,,,,,,,,,,,,,,,,,,,,,,,,,,,,,,,,,,,,,,,,,,,,,,,,,,,,,,,,humour,112,102,aloud,old,yellow,1059.1723073003814,None,y,1059.1723073003814,None,"['y', 'return']","[1.898535999469459, 2.7143654003739357]",1059.1723073003814,None,,,48,001,2023_Apr_19_1221,ExactRep-v3-final,2021.2.3,59.987498705614954,
,,,,,,,,,,,,102,0,102,0,,,,,,,,,,,,,,,,,,,,,,,,,,,,,,,,,,,,,,,,,,,,,,,,,1064.9344616001472,None,,,,,,,,,,,,,,,,,,,,,,,,,,,,,,,,,,,,,,,,,,,,,,,,,,,,,,,,,style,157,103,silent,new,yellow,1062.444360599853,None,n,1062.444360599853,None,"['n', 'return']","[1.8343666000291705, 2.45837829913944]",1062.444360599853,None,,,48,001,2023_Apr_19_1221,ExactRep-v3-final,2021.2.3,59.987498705614954,
,,,,,,,,,,,,103,0,103,0,,,,,,,,,,,,,,,,,,,,,,,,,,,,,,,,,,,,,,,,,,,,,,,,,1069.0385440001264,None,,,,,,,,,,,,,,,,,,,,,,,,,,,,,,,,,,,,,,,,,,,,,,,,,,,,,,,,,priest,107,104,aloud,old,yellow,1065.4442598996684,None,n,1065.4442598996684,None,"['n', 'return']","[3.034453399479389, 3.5624482994899154]",1065.4442598996684,None,,,48,001,2023_Apr_19_1221,ExactRep-v3-final,2021.2.3,59.987498705614954,
,,,,,,,,,,,,104,0,104,0,,,,,,,,,,,,,,,,,,,,,,,,,,,,,,,,,,,,,,,,,,,,,,,,,1071.541198500432,None,,,,,,,,,,,,,,,,,,,,,,,,,,,,,,,,,,,,,,,,,,,,,,,,,,,,,,,,,wine,17,105,sing,old,yellow,1069.5488301003352,None,n,1069.5488301003352,None,"['n', 'return']","[1.4979126006364822, 1.9458930008113384]",1069.5488301003352,None,,,48,001,2023_Apr_19_1221,ExactRep-v3-final,2021.2.3,59.987498705614954,
,,,,,,,,,,,,105,0,105,0,,,,,,,,,,,,,,,,,,,,,,,,,,,,,,,,,,,,,,,,,,,,,,,,,1074.7609927998856,None,,,,,,,,,,,,,,,,,,,,,,,,,,,,,,,,,,,,,,,,,,,,,,,,,,,,,,,,,coast,71,106,silent,old,yellow,1072.0526548996568,None,y,1072.0526548996568,None,"['y', 'return']","[2.282212200574577, 2.6660612002015114]",1072.0526548996568,None,,,48,001,2023_Apr_19_1221,ExactRep-v3-final,2021.2.3,59.987498705614954,
,,,,,,,,,,,,106,0,106,0,,,,,,,,,,,,,,,,,,,,,,,,,,,,,,,,,,,,,,,,,,,,,,,,,1079.8659118004143,None,,,,,,,,,,,,,,,,,,,,,,,,,,,,,,,,,,,,,,,,,,,,,,,,,,,,,,,,,spirit,150,107,silent,new,yellow,1075.2727677999064,None,n,1075.2727677999064,None,"['n', 'return']","[4.142028099857271, 4.5580543000251055]",1075.2727677999064,None,,,48,001,2023_Apr_19_1221,ExactRep-v3-final,2021.2.3,59.987498705614954,
,,,,,,,,,,,,107,0,107,0,,,,,,,,,,,,,,,,,,,,,,,,,,,,,,,,,,,,,,,,,,,,,,,,,1082.7022623000666,None,,,,,,,,,,,,,,,,,,,,,,,,,,,,,,,,,,,,,,,,,,,,,,,,,,,,,,,,,leader,159,108,silent,new,yellow,1080.3753508003429,None,n,1080.3753508003429,None,"['n', 'return']","[1.5915476996451616, 2.2873941995203495]",1080.3753508003429,None,,,48,001,2023_Apr_19_1221,ExactRep-v3-final,2021.2.3,59.987498705614954,
,,,,,,,,,,,,108,0,108,0,,,,,,,,,,,,,,,,,,,,,,,,,,,,,,,,,,,,,,,,,,,,,,,,,1085.438509600237,None,,,,,,,,,,,,,,,,,,,,,,,,,,,,,,,,,,,,,,,,,,,,,,,,,,,,,,,,,bar,164,109,aloud,new,yellow,1083.2153331004083,None,y,1083.2153331004083,None,"['y', 'return']","[1.4314344003796577, 2.1833901004865766]",1083.2153331004083,None,,,48,001,2023_Apr_19_1221,ExactRep-v3-final,2021.2.3,59.987498705614954,
,,,,,,,,,,,,109,0,109,0,,,,,,,,,,,,,,,,,,,,,,,,,,,,,,,,,,,,,,,,,,,,,,,,,1094.7476420998573,None,,,,,,,,,,,,,,,,,,,,,,,,,,,,,,,,,,,,,,,,,,,,,,,,,,,,,,,,,power,231,110,sing,new,yellow,1085.9557565003633,None,n,1085.9557565003633,None,"['n', 'return']","[3.3710407000035048, 8.755058799870312]",1085.9557565003633,None,,,48,001,2023_Apr_19_1221,ExactRep-v3-final,2021.2.3,59.987498705614954,
,,,,,,,,,,,,110,0,110,0,,,,,,,,,,,,,,,,,,,,,,,,,,,,,,,,,,,,,,,,,,,,,,,,,1098.9351859996095,None,,,,,,,,,,,,,,,,,,,,,,,,,,,,,,,,,,,,,,,,,,,,,,,,,,,,,,,,,hour,84,111,aloud,old,yellow,1095.250602800399,None,y,1095.250602800399,None,"['y', 'return']","[2.5721682999283075, 3.6441383995115757]",1095.250602800399,None,,,48,001,2023_Apr_19_1221,ExactRep-v3-final,2021.2.3,59.987498705614954,
,,,,,,,,,,,,111,0,111,0,,,,,,,,,,,,,,,,,,,,,,,,,,,,,,,,,,,,,,,,,,,,,,,,,1101.687881800346,None,,,,,,,,,,,,,,,,,,,,,,,,,,,,,,,,,,,,,,,,,,,,,,,,,,,,,,,,,virtue,79,112,sing,old,yellow,1099.4437074000016,None,y,1099.4437074000016,None,"['y', 'return']","[1.6670687003061175, 2.2111868001520634]",1099.4437074000016,None,,,48,001,2023_Apr_19_1221,ExactRep-v3-final,2021.2.3,59.987498705614954,
,,,,,,,,,,,,112,0,112,0,,,,,,,,,,,,,,,,,,,,,,,,,,,,,,,,,,,,,,,,,,,,,,,,,1103.8734117001295,None,,,,,,,,,,,,,,,,,,,,,,,,,,,,,,,,,,,,,,,,,,,,,,,,,,,,,,,,,butter,147,113,silent,new,yellow,1102.1987220002338,None,n,1102.1987220002338,None,"['n', 'return']","[1.144322999753058, 1.6399635998532176]",1102.1987220002338,None,,,48,001,2023_Apr_19_1221,ExactRep-v3-final,2021.2.3,59.987498705614954,
,,,,,,,,,,,,113,0,113,0,,,,,,,,,,,,,,,,,,,,,,,,,,,,,,,,,,,,,,,,,,,,,,,,,1106.5428042002022,None,,,,,,,,,,,,,,,,,,,,,,,,,,,,,,,,,,,,,,,,,,,,,,,,,,,,,,,,,owner,60,114,silent,old,yellow,1104.3779678996652,None,n,1104.3779678996652,None,"['n', 'return']","[1.629101200029254, 2.124876500107348]",1104.3779678996652,None,,,48,001,2023_Apr_19_1221,ExactRep-v3-final,2021.2.3,59.987498705614954,
,,,,,,,,,,,,114,0,114,0,,,,,,,,,,,,,,,,,,,,,,,,,,,,,,,,,,,,,,,,,,,,,,,,,1109.7460960000753,None,,,,,,,,,,,,,,,,,,,,,,,,,,,,,,,,,,,,,,,,,,,,,,,,,,,,,,,,,string,87,115,aloud,old,yellow,1107.0554892001674,None,n,1107.0554892001674,None,"['n', 'return']","[1.9433629997074604, 2.647253499366343]",1107.0554892001674,None,,,48,001,2023_Apr_19_1221,ExactRep-v3-final,2021.2.3,59.987498705614954,
,,,,,,,,,,,,115,0,115,0,,,,,,,,,,,,,,,,,,,,,,,,,,,,,,,,,,,,,,,,,,,,,,,,,1112.0648832004517,None,,,,,,,,,,,,,,,,,,,,,,,,,,,,,,,,,,,,,,,,,,,,,,,,,,,,,,,,,anger,22,116,sing,old,yellow,1110.2558791004121,None,y,1110.2558791004121,None,"['y', 'return']","[1.3110290998592973, 1.7748699998483062]",1110.2558791004121,None,,,48,001,2023_Apr_19_1221,ExactRep-v3-final,2021.2.3,59.987498705614954,
,,,,,,,,,,,,116,0,116,0,,,,,,,,,,,,,,,,,,,,,,,,,,,,,,,,,,,,,,,,,,,,,,,,,1114.5840887995437,None,,,,,,,,,,,,,,,,,,,,,,,,,,,,,,,,,,,,,,,,,,,,,,,,,,,,,,,,,river,218,117,aloud,new,yellow,1112.58255750034,None,y,1112.58255750034,None,"['y', 'return']","[1.5202799001708627, 1.9681512992829084]",1112.58255750034,None,,,48,001,2023_Apr_19_1221,ExactRep-v3-final,2021.2.3,59.987498705614954,
,,,,,,,,,,,,117,0,117,0,,,,,,,,,,,,,,,,,,,,,,,,,,,,,,,,,,,,,,,,,,,,,,,,,1116.7863506004214,None,,,,,,,,,,,,,,,,,,,,,,,,,,,,,,,,,,,,,,,,,,,,,,,,,,,,,,,,,friend,76,118,silent,old,yellow,1115.0939213996753,None,n,1115.0939213996753,None,"['n', 'return']","[1.1129053002223372, 1.6488805999979377]",1115.0939213996753,None,,,48,001,2023_Apr_19_1221,ExactRep-v3-final,2021.2.3,59.987498705614954,
,,,,,,,,,,,,118,0,118,0,,,,,,,,,,,,,,,,,,,,,,,,,,,,,,,,,,,,,,,,,,,,,,,,,1121.7411198001355,None,,,,,,,,,,,,,,,,,,,,,,,,,,,,,,,,,,,,,,,,,,,,,,,,,,,,,,,,,palace,123,119,silent,new,yellow,1117.2963218996301,None,n,1117.2963218996301,None,"['n', 'return']","[3.982642600312829, 4.398413499817252]",1117.2963218996301,None,,,48,001,2023_Apr_19_1221,ExactRep-v3-final,2021.2.3,59.987498705614954,
,,,,,,,,,,,,119,0,119,0,,,,,,,,,,,,,,,,,,,,,,,,,,,,,,,,,,,,,,,,,,,,,,,,,1125.5786352995783,None,,,,,,,,,,,,,,,,,,,,,,,,,,,,,,,,,,,,,,,,,,,,,,,,,,,,,,,,,bird,90,120,aloud,old,yellow,1122.2492746002972,None,y,1122.2492746002972,None,"['y', 'return']","[2.1096486998721957, 3.2935381000861526]",1122.2492746002972,None,,,48,001,2023_Apr_19_1221,ExactRep-v3-final,2021.2.3,59.987498705614954,
,,,,,,,,,,,,120,0,120,0,,,,,,,,,,,,,,,,,,,,,,,,,,,,,,,,,,,,,,,,,,,,,,,,,1128.9317747000605,None,,,,,,,,,,,,,,,,,,,,,,,,,,,,,,,,,,,,,,,,,,,,,,,,,,,,,,,,,potato,43,121,silent,old,yellow,1126.0851782001555,None,y,1126.0851782001555,None,"['y', 'return']","[2.289685199968517, 2.801668000407517]",1126.0851782001555,None,,,48,001,2023_Apr_19_1221,ExactRep-v3-final,2021.2.3,59.987498705614954,
,,,,,,,,,,,,121,0,121,0,,,,,,,,,,,,,,,,,,,,,,,,,,,,,,,,,,,,,,,,,,,,,,,,,1131.7345543000847,None,,,,,,,,,,,,,,,,,,,,,,,,,,,,,,,,,,,,,,,,,,,,,,,,,,,,,,,,,plain,120,122,silent,new,yellow,1129.4410835998133,None,n,1129.4410835998133,None,"['n', 'return']","[1.8380614006891847, 2.2536973003298044]",1129.4410835998133,None,,,48,001,2023_Apr_19_1221,ExactRep-v3-final,2021.2.3,59.987498705614954,
,,,,,,,,,,,,122,0,122,0,,,,,,,,,,,,,,,,,,,,,,,,,,,,,,,,,,,,,,,,,,,,,,,,,1140.793614000082,None,,,,,,,,,,,,,,,,,,,,,,,,,,,,,,,,,,,,,,,,,,,,,,,,,,,,,,,,,engine,169,123,sing,new,yellow,1132.244447399862,None,y,1132.244447399862,None,"['y', 'return']","[7.842279099859297, 8.506281099282205]",1132.244447399862,None,,,48,001,2023_Apr_19_1221,ExactRep-v3-final,2021.2.3,59.987498705614954,
,,,,,,,,,,,,123,0,123,0,,,,,,,,,,,,,,,,,,,,,,,,,,,,,,,,,,,,,,,,,,,,,,,,,1143.4964605001733,None,,,,,,,,,,,,,,,,,,,,,,,,,,,,,,,,,,,,,,,,,,,,,,,,,,,,,,,,,meadow,12,124,sing,old,yellow,1141.3065515002236,None,y,1141.3065515002236,None,"['y', 'return']","[1.4283793000504375, 2.148253600113094]",1141.3065515002236,None,,,48,001,2023_Apr_19_1221,ExactRep-v3-final,2021.2.3,59.987498705614954,
,,,,,,,,,,,,124,0,124,0,,,,,,,,,,,,,,,,,,,,,,,,,,,,,,,,,,,,,,,,,,,,,,,,,1150.9704243000597,None,,,,,,,,,,,,,,,,,,,,,,,,,,,,,,,,,,,,,,,,,,,,,,,,,,,,,,,,,present,85,125,aloud,old,yellow,1144.0004123998806,None,y,1144.0004123998806,None,"['y', 'return']","[6.486518899910152, 6.934401500038803]",1144.0004123998806,None,,,48,001,2023_Apr_19_1221,ExactRep-v3-final,2021.2.3,59.987498705614954,
,,,,,,,,,,,,125,0,125,0,,,,,,,,,,,,,,,,,,,,,,,,,,,,,,,,,,,,,,,,,,,,,,,,,1153.4898081002757,None,,,,,,,,,,,,,,,,,,,,,,,,,,,,,,,,,,,,,,,,,,,,,,,,,,,,,,,,,dress,155,126,silent,new,yellow,1151.481869599782,None,y,1151.481869599782,None,"['y', 'return']","[1.3649225002154708, 1.9649786008521914]",1151.481869599782,None,,,48,001,2023_Apr_19_1221,ExactRep-v3-final,2021.2.3,59.987498705614954,
,,,,,,,,,,,,126,0,126,0,,,,,,,,,,,,,,,,,,,,,,,,,,,,,,,,,,,,,,,,,,,,,,,,,1155.6918628001586,None,,,,,,,,,,,,,,,,,,,,,,,,,,,,,,,,,,,,,,,,,,,,,,,,,,,,,,,,,ship,197,127,sing,new,yellow,1154.0039675999433,None,n,1154.0039675999433,None,"['n', 'return']","[1.0671026995405555, 1.6509111998602748]",1154.0039675999433,None,,,48,001,2023_Apr_19_1221,ExactRep-v3-final,2021.2.3,59.987498705614954,
,,,,,,,,,,,,127,0,127,0,,,,,,,,,,,,,,,,,,,,,,,,,,,,,,,,,,,,,,,,,,,,,,,,,1163.1827480001375,None,,,,,,,,,,,,,,,,,,,,,,,,,,,,,,,,,,,,,,,,,,,,,,,,,,,,,,,,,slave,168,128,aloud,new,yellow,1156.2018563998863,None,n,1156.2018563998863,None,"['n', 'return']","[6.2211794992908835, 6.933165700174868]",1156.2018563998863,None,,,48,001,2023_Apr_19_1221,ExactRep-v3-final,2021.2.3,59.987498705614954,
,,,,,,,,,,,,128,0,128,0,,,,,,,,,,,,,,,,,,,,,,,,,,,,,,,,,,,,,,,,,,,,,,,,,1172.3085394995287,None,,,,,,,,,,,,,,,,,,,,,,,,,,,,,,,,,,,,,,,,,,,,,,,,,,,,,,,,,shoes,204,129,aloud,new,yellow,1163.6965634999797,None,n,1163.6965634999797,None,"['n', 'return']","[8.014222900383174, 8.566254800185561]",1163.6965634999797,None,,,48,001,2023_Apr_19_1221,ExactRep-v3-final,2021.2.3,59.987498705614954,
,,,,,,,,,,,,129,0,129,0,,,,,,,,,,,,,,,,,,,,,,,,,,,,,,,,,,,,,,,,,,,,,,,,,1175.595102599822,None,,,,,,,,,,,,,,,,,,,,,,,,,,,,,,,,,,,,,,,,,,,,,,,,,,,,,,,,,hope,102,130,aloud,old,yellow,1172.82021600008,None,y,1172.82021600008,None,"['y', 'return']","[2.2266056006774306, 2.7305481005460024]",1172.82021600008,None,,,48,001,2023_Apr_19_1221,ExactRep-v3-final,2021.2.3,59.987498705614954,
,,,,,,,,,,,,130,0,130,0,,,,,,,,,,,,,,,,,,,,,,,,,,,,,,,,,,,,,,,,,,,,,,,,,1178.080902799964,None,,,,,,,,,,,,,,,,,,,,,,,,,,,,,,,,,,,,,,,,,,,,,,,,,,,,,,,,,woods,4,131,sing,old,yellow,1176.115116099827,None,n,1176.115116099827,None,"['n', 'return']","[1.4279447002336383, 1.9316515997052193]",1176.115116099827,None,,,48,001,2023_Apr_19_1221,ExactRep-v3-final,2021.2.3,59.987498705614954,
,,,,,,,,,,,,131,0,131,0,,,,,,,,,,,,,,,,,,,,,,,,,,,,,,,,,,,,,,,,,,,,,,,,,1184.8377371998504,None,,,,,,,,,,,,,,,,,,,,,,,,,,,,,,,,,,,,,,,,,,,,,,,,,,,,,,,,,charm,141,132,silent,new,yellow,1178.5985425999388,None,n,1178.5985425999388,None,"['n', 'return']","[5.736255499534309, 6.192309299483895]",1178.5985425999388,None,,,48,001,2023_Apr_19_1221,ExactRep-v3-final,2021.2.3,59.987498705614954,
