trials_fam.thisRepN,trials_fam.thisTrialN,trials_fam.thisN,trials_fam.thisIndex,trials_prc.thisRepN,trials_prc.thisTrialN,trials_prc.thisN,trials_prc.thisIndex,StudyLoop.thisRepN,StudyLoop.thisTrialN,StudyLoop.thisN,StudyLoop.thisIndex,TestLoop.thisRepN,TestLoop.thisTrialN,TestLoop.thisN,TestLoop.thisIndex,text_colortest.started,text_colortest.stopped,key_colortest.keys,key_colortest.rt,key_colortest.started,key_colortest.stopped,textCondition.started,textCondition.stopped,keyCondition.keys,keyCondition.rt,keyCondition.started,keyCondition.stopped,Condition_between,Condition_counterbal,keyWelcome.keys,keyWelcome.rt,keyWelcome.started,keyWelcome.stopped,welcome_a.started,welcome_a.stopped,welcome_b.started,welcome_b.stopped,welcome_c.started,welcome_c.stopped,welcome_d.started,welcome_d.stopped,welcome_e.started,welcome_e.stopped,welcome_f.started,welcome_f.stopped,key_resp_fam_inst.keys,key_resp_fam_inst.rt,key_resp_fam_inst.started,key_resp_fam_inst.stopped,fam_a.started,fam_a.stopped,fam_b.started,fam_b.stopped,fam_c.started,fam_c.stopped,fam_d.started,fam_d.stopped,fam_e.started,fam_e.stopped,fam_f.started,fam_f.stopped,text_famil.started,text_famil.stopped,textBlank500.started,textBlank500.stopped,key_resp_prc_inst.keys,key_resp_prc_inst.rt,key_resp_prc_inst.started,key_resp_prc_inst.stopped,prac_a.started,prac_a.stopped,prac_b.started,prac_b.stopped,prac_c.started,prac_c.stopped,prac_d.started,prac_d.stopped,prac_e.started,prac_e.stopped,prac_f.started,prac_f.stopped,text_prc_trial.started,text_prc_trial.stopped,key_resp_study_inst.keys,key_resp_study_inst.rt,key_resp_study_inst.started,key_resp_study_inst.stopped,crit_a.started,crit_a.stopped,crit_b.started,crit_b.stopped,crit_c.started,crit_c.stopped,crit_d.started,crit_d.stopped,crit_e.started,crit_e.stopped,crit_f.started,crit_f.stopped,study_word,study_num,study_order,study_type,word_color,textStudy.started,textStudy.stopped,keyStudy.keys,keyStudy.started,keyStudy.stopped,post_study.started,post_study.stopped,key_resp_post_study.keys,key_resp_post_study.rt,key_resp_post_study.started,key_resp_post_study.stopped,test_inst.started,test_inst.stopped,key_resp_test_inst.keys,key_resp_test_inst.rt,key_resp_test_inst.started,key_resp_test_inst.stopped,test_word,test_num,test_order,test_condition,old_new_test,word_color_test,textConf.started,textConf.stopped,Participant Response,textInput.started,textInput.stopped,keyResp.keys,keyResp.rt,keyResp.started,keyResp.stopped,textEnd.started,textEnd.stopped,participant,session,date,expName,psychopyVersion,frameRate,
,,,,,,,,,,,,,,,,29.78393610008061,None,y,1.528129500336945,29.78393610008061,None,,,,,,,,,,,,,,,,,,,,,,,,,,,,,,,,,,,,,,,,,,,,,,,,,,,,,,,,,,,,,,,,,,,,,,,,,,,,,,,,,,,,,,,,,,,,,,,,,,,,,,,,,,,,,,,,,,,,,,49YA,001,2023_Apr_21_0955,ExactRep-v3-final,2021.2.3,59.98087781089641,
,,,,,,,,,,,,,,,,,,,,,,31.331808799877763,None,a,0.7398689994588494,31.331808799877763,None,,,,,,,,,,,,,,,,,,,,,,,,,,,,,,,,,,,,,,,,,,,,,,,,,,,,,,,,,,,,,,,,,,,,,,,,,,,,,,,,,,,,,,,,,,,,,,,,,,,,,,,,,,,,,,,,49YA,001,2023_Apr_21_0955,ExactRep-v3-final,2021.2.3,59.98087781089641,
,,,,,,,,,,,,,,,,,,,,,,,,,,,,colorfoils,a,space,9021.921169499867,42.223788099363446,None,,,,,,,,,,,,,,,,,,,,,,,,,,,,,,,,,,,,,,,,,,,,,,,,,,,,,,,,,,,,,,,,,,,,,,,,,,,,,,,,,,,,,,,,,,,,,,,,,,,,,,,,,,49YA,001,2023_Apr_21_0955,ExactRep-v3-final,2021.2.3,59.98087781089641,
,,,,,,,,,,,,,,,,,,,,,,,,,,,,,,,,,,32.26061940006912,None,32.26061940006912,None,32.26061940006912,None,32.26061940006912,None,32.26061940006912,None,32.26061940006912,None,space,17.770325800403953,9074.366701799445,None,,,,,,,,,,,,,,,,,,,,,,,,,,,,,,,,,,,,,,,,,,,,,,,,,,,,,,,,,,,,,,,,,,,,,,,,,,,,,,,,,,,,,,,,,,49YA,001,2023_Apr_21_0955,ExactRep-v3-final,2021.2.3,59.98087781089641,
0,0,0,0,,,,,,,,,,,,,,,,,,,,,,,,,,,,,,,,,,,,,,,,,,,,,,,9064.3678097995,None,9064.3678097995,None,9064.3678097995,None,9064.3678097995,None,9064.3678097995,None,9064.3678097995,None,9092.219412699342,None,9094.211584299803,None,,,,,,,,,,,,,,,,,,,,,,,,,,,,,,,,,,,,,,,,,,,,,,,,,,,,,,,,,,,,,,,,,,,,,,,,,,49YA,001,2023_Apr_21_0955,ExactRep-v3-final,2021.2.3,59.98087781089641,
1,0,1,0,,,,,,,,,,,,,,,,,,,,,,,,,,,,,,,,,,,,,,,,,,,,,,,,,,,,,,,,,,,9094.741891799495,None,9096.73056379985,None,,,,,,,,,,,,,,,,,,,,,,,,,,,,,,,,,,,,,,,,,,,,,,,,,,,,,,,,,,,,,,,,,,,,,,,,,,49YA,001,2023_Apr_21_0955,ExactRep-v3-final,2021.2.3,59.98087781089641,
2,0,2,0,,,,,,,,,,,,,,,,,,,,,,,,,,,,,,,,,,,,,,,,,,,,,,,,,,,,,,,,,,,9097.231080499478,None,9099.233040600084,None,,,,,,,,,,,,,,,,,,,,,,,,,,,,,,,,,,,,,,,,,,,,,,,,,,,,,,,,,,,,,,,,,,,,,,,,,,49YA,001,2023_Apr_21_0955,ExactRep-v3-final,2021.2.3,59.98087781089641,
3,0,3,0,,,,,,,,,,,,,,,,,,,,,,,,,,,,,,,,,,,,,,,,,,,,,,,,,,,,,,,,,,,9099.74268399924,None,9101.752325099893,None,,,,,,,,,,,,,,,,,,,,,,,,,,,,,,,,,,,,,,,,,,,,,,,,,,,,,,,,,,,,,,,,,,,,,,,,,,49YA,001,2023_Apr_21_0955,ExactRep-v3-final,2021.2.3,59.98087781089641,
4,0,4,0,,,,,,,,,,,,,,,,,,,,,,,,,,,,,,,,,,,,,,,,,,,,,,,,,,,,,,,,,,,9102.25287759956,None,9104.25480860006,None,,,,,,,,,,,,,,,,,,,,,,,,,,,,,,,,,,,,,,,,,,,,,,,,,,,,,,,,,,,,,,,,,,,,,,,,,,49YA,001,2023_Apr_21_0955,ExactRep-v3-final,2021.2.3,59.98087781089641,
5,0,5,0,,,,,,,,,,,,,,,,,,,,,,,,,,,,,,,,,,,,,,,,,,,,,,,,,,,,,,,,,,,9104.755206999369,None,9106.757173999213,None,,,,,,,,,,,,,,,,,,,,,,,,,,,,,,,,,,,,,,,,,,,,,,,,,,,,,,,,,,,,,,,,,,,,,,,,,,49YA,001,2023_Apr_21_0955,ExactRep-v3-final,2021.2.3,59.98087781089641,
6,0,6,0,,,,,,,,,,,,,,,,,,,,,,,,,,,,,,,,,,,,,,,,,,,,,,,,,,,,,,,,,,,9107.257876799442,None,9109.25990960002,None,,,,,,,,,,,,,,,,,,,,,,,,,,,,,,,,,,,,,,,,,,,,,,,,,,,,,,,,,,,,,,,,,,,,,,,,,,49YA,001,2023_Apr_21_0955,ExactRep-v3-final,2021.2.3,59.98087781089641,
7,0,7,0,,,,,,,,,,,,,,,,,,,,,,,,,,,,,,,,,,,,,,,,,,,,,,,,,,,,,,,,,,,9109.76381989941,None,9111.779116199352,None,,,,,,,,,,,,,,,,,,,,,,,,,,,,,,,,,,,,,,,,,,,,,,,,,,,,,,,,,,,,,,,,,,,,,,,,,,49YA,001,2023_Apr_21_0955,ExactRep-v3-final,2021.2.3,59.98087781089641,
8,0,8,0,,,,,,,,,,,,,,,,,,,,,,,,,,,,,,,,,,,,,,,,,,,,,,,,,,,,,,,,,,,9112.28494630009,None,9114.298262000084,None,,,,,,,,,,,,,,,,,,,,,,,,,,,,,,,,,,,,,,,,,,,,,,,,,,,,,,,,,,,,,,,,,,,,,,,,,,49YA,001,2023_Apr_21_0955,ExactRep-v3-final,2021.2.3,59.98087781089641,
9,0,9,0,,,,,,,,,,,,,,,,,,,,,,,,,,,,,,,,,,,,,,,,,,,,,,,,,,,,,,,,,,,9114.799762999639,None,9116.800656999461,None,,,,,,,,,,,,,,,,,,,,,,,,,,,,,,,,,,,,,,,,,,,,,,,,,,,,,,,,,,,,,,,,,,,,,,,,,,49YA,001,2023_Apr_21_0955,ExactRep-v3-final,2021.2.3,59.98087781089641,
10,0,10,0,,,,,,,,,,,,,,,,,,,,,,,,,,,,,,,,,,,,,,,,,,,,,,,,,,,,,,,,,,,9117.301225099713,None,9119.30315899942,None,,,,,,,,,,,,,,,,,,,,,,,,,,,,,,,,,,,,,,,,,,,,,,,,,,,,,,,,,,,,,,,,,,,,,,,,,,49YA,001,2023_Apr_21_0955,ExactRep-v3-final,2021.2.3,59.98087781089641,
11,0,11,0,,,,,,,,,,,,,,,,,,,,,,,,,,,,,,,,,,,,,,,,,,,,,,,,,,,,,,,,,,,9119.803658499382,None,9121.805715299211,None,,,,,,,,,,,,,,,,,,,,,,,,,,,,,,,,,,,,,,,,,,,,,,,,,,,,,,,,,,,,,,,,,,,,,,,,,,49YA,001,2023_Apr_21_0955,ExactRep-v3-final,2021.2.3,59.98087781089641,
12,0,12,0,,,,,,,,,,,,,,,,,,,,,,,,,,,,,,,,,,,,,,,,,,,,,,,,,,,,,,,,,,,9122.310068499297,None,9124.325029899366,None,,,,,,,,,,,,,,,,,,,,,,,,,,,,,,,,,,,,,,,,,,,,,,,,,,,,,,,,,,,,,,,,,,,,,,,,,,49YA,001,2023_Apr_21_0955,ExactRep-v3-final,2021.2.3,59.98087781089641,
13,0,13,0,,,,,,,,,,,,,,,,,,,,,,,,,,,,,,,,,,,,,,,,,,,,,,,,,,,,,,,,,,,9124.831160099246,None,9126.843987999484,None,,,,,,,,,,,,,,,,,,,,,,,,,,,,,,,,,,,,,,,,,,,,,,,,,,,,,,,,,,,,,,,,,,,,,,,,,,49YA,001,2023_Apr_21_0955,ExactRep-v3-final,2021.2.3,59.98087781089641,
14,0,14,0,,,,,,,,,,,,,,,,,,,,,,,,,,,,,,,,,,,,,,,,,,,,,,,,,,,,,,,,,,,9127.344657399692,None,9129.346661799587,None,,,,,,,,,,,,,,,,,,,,,,,,,,,,,,,,,,,,,,,,,,,,,,,,,,,,,,,,,,,,,,,,,,,,,,,,,,49YA,001,2023_Apr_21_0955,ExactRep-v3-final,2021.2.3,59.98087781089641,
,,,,,,,,,,,,,,,,,,,,,,,,,,,,,,,,,,,,,,,,,,,,,,,,,,,,,,,,,,,,,,,,,,space,26.323653900064528,9140.013547499664,None,,,,,,,,,,,,,,,,,,,,,,,,,,,,,,,,,,,,,,,,,,,,,,,,,,,,,,,,,,,,,,,,,,,,,,49YA,001,2023_Apr_21_0955,ExactRep-v3-final,2021.2.3,59.98087781089641,
,,,,0,0,0,0,,,,,,,,,,,,,,,,,,,,,,,,,,,,,,,,,,,,,,,,,,,,,,,,,,,,,,,,,9168.41890639998,None,,,,,9130.051104699261,None,9130.051104699261,None,9130.051104699261,None,9130.051104699261,None,9130.051104699261,None,9130.051104699261,None,9166.407023899257,None,,,,,,,,,,,,,,,,,,,,,,,,,,,,,,,,,,,,,,,,,,,,,,,,,,,,,,,,49YA,001,2023_Apr_21_0955,ExactRep-v3-final,2021.2.3,59.98087781089641,
,,,,1,0,1,0,,,,,,,,,,,,,,,,,,,,,,,,,,,,,,,,,,,,,,,,,,,,,,,,,,,,,,,,,9170.921594299376,None,,,,,,,,,,,,,,,,,9168.919494799338,None,,,,,,,,,,,,,,,,,,,,,,,,,,,,,,,,,,,,,,,,,,,,,,,,,,,,,,,,49YA,001,2023_Apr_21_0955,ExactRep-v3-final,2021.2.3,59.98087781089641,
,,,,2,0,2,0,,,,,,,,,,,,,,,,,,,,,,,,,,,,,,,,,,,,,,,,,,,,,,,,,,,,,,,,,9173.423859899864,None,,,,,,,,,,,,,,,,,9171.422097699717,None,,,,,,,,,,,,,,,,,,,,,,,,,,,,,,,,,,,,,,,,,,,,,,,,,,,,,,,,49YA,001,2023_Apr_21_0955,ExactRep-v3-final,2021.2.3,59.98087781089641,
,,,,3,0,3,0,,,,,,,,,,,,,,,,,,,,,,,,,,,,,,,,,,,,,,,,,,,,,,,,,,,,,,,,,9175.926603199914,None,,,,,,,,,,,,,,,,,9173.924361399375,None,,,,,,,,,,,,,,,,,,,,,,,,,,,,,,,,,,,,,,,,,,,,,,,,,,,,,,,,49YA,001,2023_Apr_21_0955,ExactRep-v3-final,2021.2.3,59.98087781089641,
,,,,4,0,4,0,,,,,,,,,,,,,,,,,,,,,,,,,,,,,,,,,,,,,,,,,,,,,,,,,,,,,,,,,9178.428925399669,None,,,,,,,,,,,,,,,,,9176.427138399333,None,,,,,,,,,,,,,,,,,,,,,,,,,,,,,,,,,,,,,,,,,,,,,,,,,,,,,,,,49YA,001,2023_Apr_21_0955,ExactRep-v3-final,2021.2.3,59.98087781089641,
,,,,5,0,5,0,,,,,,,,,,,,,,,,,,,,,,,,,,,,,,,,,,,,,,,,,,,,,,,,,,,,,,,,,9180.931439699605,None,,,,,,,,,,,,,,,,,9178.929534999654,None,,,,,,,,,,,,,,,,,,,,,,,,,,,,,,,,,,,,,,,,,,,,,,,,,,,,,,,,49YA,001,2023_Apr_21_0955,ExactRep-v3-final,2021.2.3,59.98087781089641,
,,,,6,0,6,0,,,,,,,,,,,,,,,,,,,,,,,,,,,,,,,,,,,,,,,,,,,,,,,,,,,,,,,,,9183.434075399302,None,,,,,,,,,,,,,,,,,9181.431900199503,None,,,,,,,,,,,,,,,,,,,,,,,,,,,,,,,,,,,,,,,,,,,,,,,,,,,,,,,,49YA,001,2023_Apr_21_0955,ExactRep-v3-final,2021.2.3,59.98087781089641,
,,,,7,0,7,0,,,,,,,,,,,,,,,,,,,,,,,,,,,,,,,,,,,,,,,,,,,,,,,,,,,,,,,,,9185.936450599693,None,,,,,,,,,,,,,,,,,9183.934640999883,None,,,,,,,,,,,,,,,,,,,,,,,,,,,,,,,,,,,,,,,,,,,,,,,,,,,,,,,,49YA,001,2023_Apr_21_0955,ExactRep-v3-final,2021.2.3,59.98087781089641,
,,,,8,0,8,0,,,,,,,,,,,,,,,,,,,,,,,,,,,,,,,,,,,,,,,,,,,,,,,,,,,,,,,,,9188.438908400014,None,,,,,,,,,,,,,,,,,9186.436954899691,None,,,,,,,,,,,,,,,,,,,,,,,,,,,,,,,,,,,,,,,,,,,,,,,,,,,,,,,,49YA,001,2023_Apr_21_0955,ExactRep-v3-final,2021.2.3,59.98087781089641,
,,,,9,0,9,0,,,,,,,,,,,,,,,,,,,,,,,,,,,,,,,,,,,,,,,,,,,,,,,,,,,,,,,,,9190.941356699914,None,,,,,,,,,,,,,,,,,9188.939492999576,None,,,,,,,,,,,,,,,,,,,,,,,,,,,,,,,,,,,,,,,,,,,,,,,,,,,,,,,,49YA,001,2023_Apr_21_0955,ExactRep-v3-final,2021.2.3,59.98087781089641,
,,,,10,0,10,0,,,,,,,,,,,,,,,,,,,,,,,,,,,,,,,,,,,,,,,,,,,,,,,,,,,,,,,,,9193.443908599205,None,,,,,,,,,,,,,,,,,9191.442127699964,None,,,,,,,,,,,,,,,,,,,,,,,,,,,,,,,,,,,,,,,,,,,,,,,,,,,,,,,,49YA,001,2023_Apr_21_0955,ExactRep-v3-final,2021.2.3,59.98087781089641,
,,,,11,0,11,0,,,,,,,,,,,,,,,,,,,,,,,,,,,,,,,,,,,,,,,,,,,,,,,,,,,,,,,,,9195.946402099915,None,,,,,,,,,,,,,,,,,9193.944438499399,None,,,,,,,,,,,,,,,,,,,,,,,,,,,,,,,,,,,,,,,,,,,,,,,,,,,,,,,,49YA,001,2023_Apr_21_0955,ExactRep-v3-final,2021.2.3,59.98087781089641,
,,,,12,0,12,0,,,,,,,,,,,,,,,,,,,,,,,,,,,,,,,,,,,,,,,,,,,,,,,,,,,,,,,,,9198.448954300024,None,,,,,,,,,,,,,,,,,9196.446980499662,None,,,,,,,,,,,,,,,,,,,,,,,,,,,,,,,,,,,,,,,,,,,,,,,,,,,,,,,,49YA,001,2023_Apr_21_0955,ExactRep-v3-final,2021.2.3,59.98087781089641,
,,,,13,0,13,0,,,,,,,,,,,,,,,,,,,,,,,,,,,,,,,,,,,,,,,,,,,,,,,,,,,,,,,,,9200.951254500076,None,,,,,,,,,,,,,,,,,9198.94956699945,None,,,,,,,,,,,,,,,,,,,,,,,,,,,,,,,,,,,,,,,,,,,,,,,,,,,,,,,,49YA,001,2023_Apr_21_0955,ExactRep-v3-final,2021.2.3,59.98087781089641,
,,,,14,0,14,0,,,,,,,,,,,,,,,,,,,,,,,,,,,,,,,,,,,,,,,,,,,,,,,,,,,,,,,,,9203.454056299292,None,,,,,,,,,,,,,,,,,9201.452163700014,None,,,,,,,,,,,,,,,,,,,,,,,,,,,,,,,,,,,,,,,,,,,,,,,,,,,,,,,,49YA,001,2023_Apr_21_0955,ExactRep-v3-final,2021.2.3,59.98087781089641,
,,,,,,,,,,,,,,,,,,,,,,,,,,,,,,,,,,,,,,,,,,,,,,,,,,,,,,,,,,,,,,,,,,,,,,,,,,,,,,,,,,,,space,24.377053500153124,9214.11984079983,None,,,,,,,,,,,,,,,,,,,,,,,,,,,,,,,,,,,,,,,,,,,,,,,,,,,,49YA,001,2023_Apr_21_0955,ExactRep-v3-final,2021.2.3,59.98087781089641,
,,,,,,,,0,0,0,0,,,,,,,,,,,,,,,,,,,,,,,,,,,,,,,,,,,,,,,,,,,,,,,,,,,,,9240.591030799784,None,,,,,,,,,,,,,,,,,,,,,,,9204.158552199602,None,9204.158552199602,None,9204.158552199602,None,9204.158552199602,None,9204.158552199602,None,9204.158552199602,None,moment,10,1,sing,white,9238.588822499849,None,None,9238.588822499849,None,,,,,,,,,,,,,,,,,,,,,,,,,,,,,,49YA,001,2023_Apr_21_0955,ExactRep-v3-final,2021.2.3,59.98087781089641,
,,,,,,,,1,0,1,0,,,,,,,,,,,,,,,,,,,,,,,,,,,,,,,,,,,,,,,,,,,,,,,,,,,,,9243.110233199783,None,,,,,,,,,,,,,,,,,,,,,,,,,,,,,,,,,,,cottage,109,2,aloud,red,9241.105837199837,None,None,9241.105837199837,None,,,,,,,,,,,,,,,,,,,,,,,,,,,,,,49YA,001,2023_Apr_21_0955,ExactRep-v3-final,2021.2.3,59.98087781089641,
,,,,,,,,2,0,2,0,,,,,,,,,,,,,,,,,,,,,,,,,,,,,,,,,,,,,,,,,,,,,,,,,,,,,9245.612762599252,None,,,,,,,,,,,,,,,,,,,,,,,,,,,,,,,,,,,insect,78,3,silent,blue,9243.610819699243,None,None,9243.610819699243,None,,,,,,,,,,,,,,,,,,,,,,,,,,,,,,49YA,001,2023_Apr_21_0955,ExactRep-v3-final,2021.2.3,59.98087781089641,
,,,,,,,,3,0,3,0,,,,,,,,,,,,,,,,,,,,,,,,,,,,,,,,,,,,,,,,,,,,,,,,,,,,,9248.132088500075,None,,,,,,,,,,,,,,,,,,,,,,,,,,,,,,,,,,,door,95,4,aloud,red,9246.117790199816,None,None,9246.117790199816,None,,,,,,,,,,,,,,,,,,,,,,,,,,,,,,49YA,001,2023_Apr_21_0955,ExactRep-v3-final,2021.2.3,59.98087781089641,
,,,,,,,,4,0,4,0,,,,,,,,,,,,,,,,,,,,,,,,,,,,,,,,,,,,,,,,,,,,,,,,,,,,,9250.651332399808,None,,,,,,,,,,,,,,,,,,,,,,,,,,,,,,,,,,,truth,55,5,silent,blue,9248.635762499645,None,None,9248.635762499645,None,,,,,,,,,,,,,,,,,,,,,,,,,,,,,,49YA,001,2023_Apr_21_0955,ExactRep-v3-final,2021.2.3,59.98087781089641,
,,,,,,,,5,0,5,0,,,,,,,,,,,,,,,,,,,,,,,,,,,,,,,,,,,,,,,,,,,,,,,,,,,,,9253.15377839934,None,,,,,,,,,,,,,,,,,,,,,,,,,,,,,,,,,,,lord,31,6,sing,white,9251.151461699978,None,None,9251.151461699978,None,,,,,,,,,,,,,,,,,,,,,,,,,,,,,,49YA,001,2023_Apr_21_0955,ExactRep-v3-final,2021.2.3,59.98087781089641,
,,,,,,,,6,0,6,0,,,,,,,,,,,,,,,,,,,,,,,,,,,,,,,,,,,,,,,,,,,,,,,,,,,,,9255.67296739947,None,,,,,,,,,,,,,,,,,,,,,,,,,,,,,,,,,,,effort,73,7,silent,blue,9253.66301099956,None,None,9253.66301099956,None,,,,,,,,,,,,,,,,,,,,,,,,,,,,,,49YA,001,2023_Apr_21_0955,ExactRep-v3-final,2021.2.3,59.98087781089641,
,,,,,,,,7,0,7,0,,,,,,,,,,,,,,,,,,,,,,,,,,,,,,,,,,,,,,,,,,,,,,,,,,,,,9258.175293399952,None,,,,,,,,,,,,,,,,,,,,,,,,,,,,,,,,,,,cost,27,8,sing,white,9256.173389899544,None,None,9256.173389899544,None,,,,,,,,,,,,,,,,,,,,,,,,,,,,,,49YA,001,2023_Apr_21_0955,ExactRep-v3-final,2021.2.3,59.98087781089641,
,,,,,,,,8,0,8,0,,,,,,,,,,,,,,,,,,,,,,,,,,,,,,,,,,,,,,,,,,,,,,,,,,,,,9260.677788499743,None,,,,,,,,,,,,,,,,,,,,,,,,,,,,,,,,,,,time,42,9,silent,blue,9258.675810699351,None,None,9258.675810699351,None,,,,,,,,,,,,,,,,,,,,,,,,,,,,,,49YA,001,2023_Apr_21_0955,ExactRep-v3-final,2021.2.3,59.98087781089641,
,,,,,,,,9,0,9,0,,,,,,,,,,,,,,,,,,,,,,,,,,,,,,,,,,,,,,,,,,,,,,,,,,,,,9263.180453199893,None,,,,,,,,,,,,,,,,,,,,,,,,,,,,,,,,,,,charm,3,10,sing,white,9261.178331699222,None,None,9261.178331699222,None,,,,,,,,,,,,,,,,,,,,,,,,,,,,,,49YA,001,2023_Apr_21_0955,ExactRep-v3-final,2021.2.3,59.98087781089641,
,,,,,,,,10,0,10,0,,,,,,,,,,,,,,,,,,,,,,,,,,,,,,,,,,,,,,,,,,,,,,,,,,,,,9265.682968299836,None,,,,,,,,,,,,,,,,,,,,,,,,,,,,,,,,,,,green,49,11,silent,blue,9263.682904499583,None,None,9263.682904499583,None,,,,,,,,,,,,,,,,,,,,,,,,,,,,,,49YA,001,2023_Apr_21_0955,ExactRep-v3-final,2021.2.3,59.98087781089641,
,,,,,,,,11,0,11,0,,,,,,,,,,,,,,,,,,,,,,,,,,,,,,,,,,,,,,,,,,,,,,,,,,,,,9268.185521399602,None,,,,,,,,,,,,,,,,,,,,,,,,,,,,,,,,,,,fur,5,12,sing,white,9266.184789899737,None,None,9266.184789899737,None,,,,,,,,,,,,,,,,,,,,,,,,,,,,,,49YA,001,2023_Apr_21_0955,ExactRep-v3-final,2021.2.3,59.98087781089641,
,,,,,,,,12,0,12,0,,,,,,,,,,,,,,,,,,,,,,,,,,,,,,,,,,,,,,,,,,,,,,,,,,,,,9270.687951499596,None,,,,,,,,,,,,,,,,,,,,,,,,,,,,,,,,,,,anger,0,13,sing,white,9268.687943099998,None,None,9268.687943099998,None,,,,,,,,,,,,,,,,,,,,,,,,,,,,,,49YA,001,2023_Apr_21_0955,ExactRep-v3-final,2021.2.3,59.98087781089641,
,,,,,,,,13,0,13,0,,,,,,,,,,,,,,,,,,,,,,,,,,,,,,,,,,,,,,,,,,,,,,,,,,,,,9273.190414199606,None,,,,,,,,,,,,,,,,,,,,,,,,,,,,,,,,,,,health,15,14,sing,white,9271.18828890007,None,None,9271.18828890007,None,,,,,,,,,,,,,,,,,,,,,,,,,,,,,,49YA,001,2023_Apr_21_0955,ExactRep-v3-final,2021.2.3,59.98087781089641,
,,,,,,,,14,0,14,0,,,,,,,,,,,,,,,,,,,,,,,,,,,,,,,,,,,,,,,,,,,,,,,,,,,,,9275.692860599607,None,,,,,,,,,,,,,,,,,,,,,,,,,,,,,,,,,,,blood,91,15,aloud,red,9273.692622799426,None,None,9273.692622799426,None,,,,,,,,,,,,,,,,,,,,,,,,,,,,,,49YA,001,2023_Apr_21_0955,ExactRep-v3-final,2021.2.3,59.98087781089641,
,,,,,,,,15,0,15,0,,,,,,,,,,,,,,,,,,,,,,,,,,,,,,,,,,,,,,,,,,,,,,,,,,,,,9278.21208459977,None,,,,,,,,,,,,,,,,,,,,,,,,,,,,,,,,,,,woods,57,16,silent,blue,9276.199160499498,None,None,9276.199160499498,None,,,,,,,,,,,,,,,,,,,,,,,,,,,,,,49YA,001,2023_Apr_21_0955,ExactRep-v3-final,2021.2.3,59.98087781089641,
,,,,,,,,16,0,16,0,,,,,,,,,,,,,,,,,,,,,,,,,,,,,,,,,,,,,,,,,,,,,,,,,,,,,9280.714484499767,None,,,,,,,,,,,,,,,,,,,,,,,,,,,,,,,,,,,mercy,68,17,silent,blue,9278.714594699442,None,None,9278.714594699442,None,,,,,,,,,,,,,,,,,,,,,,,,,,,,,,49YA,001,2023_Apr_21_0955,ExactRep-v3-final,2021.2.3,59.98087781089641,
,,,,,,,,17,0,17,0,,,,,,,,,,,,,,,,,,,,,,,,,,,,,,,,,,,,,,,,,,,,,,,,,,,,,9283.233751899563,None,,,,,,,,,,,,,,,,,,,,,,,,,,,,,,,,,,,sky,104,18,aloud,red,9281.218160799704,None,None,9281.218160799704,None,,,,,,,,,,,,,,,,,,,,,,,,,,,,,,49YA,001,2023_Apr_21_0955,ExactRep-v3-final,2021.2.3,59.98087781089641,
,,,,,,,,18,0,18,0,,,,,,,,,,,,,,,,,,,,,,,,,,,,,,,,,,,,,,,,,,,,,,,,,,,,,9285.752929599956,None,,,,,,,,,,,,,,,,,,,,,,,,,,,,,,,,,,,cotton,106,19,aloud,red,9283.742701299489,None,None,9283.742701299489,None,,,,,,,,,,,,,,,,,,,,,,,,,,,,,,49YA,001,2023_Apr_21_0955,ExactRep-v3-final,2021.2.3,59.98087781089641,
,,,,,,,,19,0,19,0,,,,,,,,,,,,,,,,,,,,,,,,,,,,,,,,,,,,,,,,,,,,,,,,,,,,,9288.272128599696,None,,,,,,,,,,,,,,,,,,,,,,,,,,,,,,,,,,,girl,88,20,aloud,red,9286.264018499292,None,None,9286.264018499292,None,,,,,,,,,,,,,,,,,,,,,,,,,,,,,,49YA,001,2023_Apr_21_0955,ExactRep-v3-final,2021.2.3,59.98087781089641,
,,,,,,,,20,0,20,0,,,,,,,,,,,,,,,,,,,,,,,,,,,,,,,,,,,,,,,,,,,,,,,,,,,,,9290.791298699565,None,,,,,,,,,,,,,,,,,,,,,,,,,,,,,,,,,,,winter,45,21,silent,blue,9288.775735699572,None,None,9288.775735699572,None,,,,,,,,,,,,,,,,,,,,,,,,,,,,,,49YA,001,2023_Apr_21_0955,ExactRep-v3-final,2021.2.3,59.98087781089641,
,,,,,,,,21,0,21,0,,,,,,,,,,,,,,,,,,,,,,,,,,,,,,,,,,,,,,,,,,,,,,,,,,,,,9293.293759799562,None,,,,,,,,,,,,,,,,,,,,,,,,,,,,,,,,,,,flood,64,22,silent,blue,9291.291884199716,None,None,9291.291884199716,None,,,,,,,,,,,,,,,,,,,,,,,,,,,,,,49YA,001,2023_Apr_21_0955,ExactRep-v3-final,2021.2.3,59.98087781089641,
,,,,,,,,22,0,22,0,,,,,,,,,,,,,,,,,,,,,,,,,,,,,,,,,,,,,,,,,,,,,,,,,,,,,9295.796359099448,None,,,,,,,,,,,,,,,,,,,,,,,,,,,,,,,,,,,dawn,48,23,silent,blue,9293.796262999997,None,None,9293.796262999997,None,,,,,,,,,,,,,,,,,,,,,,,,,,,,,,49YA,001,2023_Apr_21_0955,ExactRep-v3-final,2021.2.3,59.98087781089641,
,,,,,,,,23,0,23,0,,,,,,,,,,,,,,,,,,,,,,,,,,,,,,,,,,,,,,,,,,,,,,,,,,,,,9298.299015999772,None,,,,,,,,,,,,,,,,,,,,,,,,,,,,,,,,,,,forest,34,24,sing,white,9296.298293299973,None,None,9296.298293299973,None,,,,,,,,,,,,,,,,,,,,,,,,,,,,,,49YA,001,2023_Apr_21_0955,ExactRep-v3-final,2021.2.3,59.98087781089641,
,,,,,,,,24,0,24,0,,,,,,,,,,,,,,,,,,,,,,,,,,,,,,,,,,,,,,,,,,,,,,,,,,,,,9300.818055999465,None,,,,,,,,,,,,,,,,,,,,,,,,,,,,,,,,,,,stone,71,25,silent,blue,9298.806751699187,None,None,9298.806751699187,None,,,,,,,,,,,,,,,,,,,,,,,,,,,,,,49YA,001,2023_Apr_21_0955,ExactRep-v3-final,2021.2.3,59.98087781089641,
,,,,,,,,25,0,25,0,,,,,,,,,,,,,,,,,,,,,,,,,,,,,,,,,,,,,,,,,,,,,,,,,,,,,9303.339744099416,None,,,,,,,,,,,,,,,,,,,,,,,,,,,,,,,,,,,ship,102,26,aloud,red,9301.32532699965,None,None,9301.32532699965,None,,,,,,,,,,,,,,,,,,,,,,,,,,,,,,49YA,001,2023_Apr_21_0955,ExactRep-v3-final,2021.2.3,59.98087781089641,
,,,,,,,,26,0,26,0,,,,,,,,,,,,,,,,,,,,,,,,,,,,,,,,,,,,,,,,,,,,,,,,,,,,,9305.856380299665,None,,,,,,,,,,,,,,,,,,,,,,,,,,,,,,,,,,,valley,13,27,sing,white,9303.856704900041,None,None,9303.856704900041,None,,,,,,,,,,,,,,,,,,,,,,,,,,,,,,49YA,001,2023_Apr_21_0955,ExactRep-v3-final,2021.2.3,59.98087781089641,
,,,,,,,,27,0,27,0,,,,,,,,,,,,,,,,,,,,,,,,,,,,,,,,,,,,,,,,,,,,,,,,,,,,,9308.358950499445,None,,,,,,,,,,,,,,,,,,,,,,,,,,,,,,,,,,,dust,99,28,aloud,red,9306.358391399495,None,None,9306.358391399495,None,,,,,,,,,,,,,,,,,,,,,,,,,,,,,,49YA,001,2023_Apr_21_0955,ExactRep-v3-final,2021.2.3,59.98087781089641,
,,,,,,,,28,0,28,0,,,,,,,,,,,,,,,,,,,,,,,,,,,,,,,,,,,,,,,,,,,,,,,,,,,,,9310.87800399959,None,,,,,,,,,,,,,,,,,,,,,,,,,,,,,,,,,,,vessel,75,29,silent,blue,9308.864985499531,None,None,9308.864985499531,None,,,,,,,,,,,,,,,,,,,,,,,,,,,,,,49YA,001,2023_Apr_21_0955,ExactRep-v3-final,2021.2.3,59.98087781089641,
,,,,,,,,29,0,29,0,,,,,,,,,,,,,,,,,,,,,,,,,,,,,,,,,,,,,,,,,,,,,,,,,,,,,9313.397425899282,None,,,,,,,,,,,,,,,,,,,,,,,,,,,,,,,,,,,sugar,79,30,sing,white,9311.381948599592,None,None,9311.381948599592,None,,,,,,,,,,,,,,,,,,,,,,,,,,,,,,49YA,001,2023_Apr_21_0955,ExactRep-v3-final,2021.2.3,59.98087781089641,
,,,,,,,,30,0,30,0,,,,,,,,,,,,,,,,,,,,,,,,,,,,,,,,,,,,,,,,,,,,,,,,,,,,,9315.899716199376,None,,,,,,,,,,,,,,,,,,,,,,,,,,,,,,,,,,,author,7,31,sing,white,9313.898178099655,None,None,9313.898178099655,None,,,,,,,,,,,,,,,,,,,,,,,,,,,,,,49YA,001,2023_Apr_21_0955,ExactRep-v3-final,2021.2.3,59.98087781089641,
,,,,,,,,31,0,31,0,,,,,,,,,,,,,,,,,,,,,,,,,,,,,,,,,,,,,,,,,,,,,,,,,,,,,9318.402227699757,None,,,,,,,,,,,,,,,,,,,,,,,,,,,,,,,,,,,chief,76,32,silent,blue,9316.401691899635,None,None,9316.401691899635,None,,,,,,,,,,,,,,,,,,,,,,,,,,,,,,49YA,001,2023_Apr_21_0955,ExactRep-v3-final,2021.2.3,59.98087781089641,
,,,,,,,,32,0,32,0,,,,,,,,,,,,,,,,,,,,,,,,,,,,,,,,,,,,,,,,,,,,,,,,,,,,,9320.921340500005,None,,,,,,,,,,,,,,,,,,,,,,,,,,,,,,,,,,,judge,37,33,sing,white,9318.907139099203,None,None,9318.907139099203,None,,,,,,,,,,,,,,,,,,,,,,,,,,,,,,49YA,001,2023_Apr_21_0955,ExactRep-v3-final,2021.2.3,59.98087781089641,
,,,,,,,,33,0,33,0,,,,,,,,,,,,,,,,,,,,,,,,,,,,,,,,,,,,,,,,,,,,,,,,,,,,,9323.424016699195,None,,,,,,,,,,,,,,,,,,,,,,,,,,,,,,,,,,,camp,69,34,silent,blue,9321.421940899454,None,None,9321.421940899454,None,,,,,,,,,,,,,,,,,,,,,,,,,,,,,,49YA,001,2023_Apr_21_0955,ExactRep-v3-final,2021.2.3,59.98087781089641,
,,,,,,,,34,0,34,0,,,,,,,,,,,,,,,,,,,,,,,,,,,,,,,,,,,,,,,,,,,,,,,,,,,,,9325.942905299366,None,,,,,,,,,,,,,,,,,,,,,,,,,,,,,,,,,,,safety,33,35,sing,white,9323.930011099204,None,None,9323.930011099204,None,,,,,,,,,,,,,,,,,,,,,,,,,,,,,,49YA,001,2023_Apr_21_0955,ExactRep-v3-final,2021.2.3,59.98087781089641,
,,,,,,,,35,0,35,0,,,,,,,,,,,,,,,,,,,,,,,,,,,,,,,,,,,,,,,,,,,,,,,,,,,,,9328.44559899997,None,,,,,,,,,,,,,,,,,,,,,,,,,,,,,,,,,,,bird,35,36,sing,white,9326.44360879995,None,None,9326.44360879995,None,,,,,,,,,,,,,,,,,,,,,,,,,,,,,,49YA,001,2023_Apr_21_0955,ExactRep-v3-final,2021.2.3,59.98087781089641,
,,,,,,,,36,0,36,0,,,,,,,,,,,,,,,,,,,,,,,,,,,,,,,,,,,,,,,,,,,,,,,,,,,,,9330.94819059968,None,,,,,,,,,,,,,,,,,,,,,,,,,,,,,,,,,,,blossom,24,37,sing,white,9328.948349399492,None,None,9328.948349399492,None,,,,,,,,,,,,,,,,,,,,,,,,,,,,,,49YA,001,2023_Apr_21_0955,ExactRep-v3-final,2021.2.3,59.98087781089641,
,,,,,,,,37,0,37,0,,,,,,,,,,,,,,,,,,,,,,,,,,,,,,,,,,,,,,,,,,,,,,,,,,,,,9333.46743679978,None,,,,,,,,,,,,,,,,,,,,,,,,,,,,,,,,,,,tree,44,38,silent,blue,9331.45821759943,None,None,9331.45821759943,None,,,,,,,,,,,,,,,,,,,,,,,,,,,,,,49YA,001,2023_Apr_21_0955,ExactRep-v3-final,2021.2.3,59.98087781089641,
,,,,,,,,38,0,38,0,,,,,,,,,,,,,,,,,,,,,,,,,,,,,,,,,,,,,,,,,,,,,,,,,,,,,9335.969836199656,None,,,,,,,,,,,,,,,,,,,,,,,,,,,,,,,,,,,mother,38,39,sing,white,9333.969585799612,None,None,9333.969585799612,None,,,,,,,,,,,,,,,,,,,,,,,,,,,,,,49YA,001,2023_Apr_21_0955,ExactRep-v3-final,2021.2.3,59.98087781089641,
,,,,,,,,39,0,39,0,,,,,,,,,,,,,,,,,,,,,,,,,,,,,,,,,,,,,,,,,,,,,,,,,,,,,9338.47227969952,None,,,,,,,,,,,,,,,,,,,,,,,,,,,,,,,,,,,woman,50,40,silent,blue,9336.470412000082,None,None,9336.470412000082,None,,,,,,,,,,,,,,,,,,,,,,,,,,,,,,49YA,001,2023_Apr_21_0955,ExactRep-v3-final,2021.2.3,59.98087781089641,
,,,,,,,,40,0,40,0,,,,,,,,,,,,,,,,,,,,,,,,,,,,,,,,,,,,,,,,,,,,,,,,,,,,,9340.991502000019,None,,,,,,,,,,,,,,,,,,,,,,,,,,,,,,,,,,,flag,12,41,sing,white,9338.979227999225,None,None,9338.979227999225,None,,,,,,,,,,,,,,,,,,,,,,,,,,,,,,49YA,001,2023_Apr_21_0955,ExactRep-v3-final,2021.2.3,59.98087781089641,
,,,,,,,,41,0,41,0,,,,,,,,,,,,,,,,,,,,,,,,,,,,,,,,,,,,,,,,,,,,,,,,,,,,,9343.494034099393,None,,,,,,,,,,,,,,,,,,,,,,,,,,,,,,,,,,,doll,118,42,aloud,red,9341.492065399885,None,None,9341.492065399885,None,,,,,,,,,,,,,,,,,,,,,,,,,,,,,,49YA,001,2023_Apr_21_0955,ExactRep-v3-final,2021.2.3,59.98087781089641,
,,,,,,,,42,0,42,0,,,,,,,,,,,,,,,,,,,,,,,,,,,,,,,,,,,,,,,,,,,,,,,,,,,,,9346.013222699985,None,,,,,,,,,,,,,,,,,,,,,,,,,,,,,,,,,,,thought,67,43,silent,blue,9343.998417999595,None,None,9343.998417999595,None,,,,,,,,,,,,,,,,,,,,,,,,,,,,,,49YA,001,2023_Apr_21_0955,ExactRep-v3-final,2021.2.3,59.98087781089641,
,,,,,,,,43,0,43,0,,,,,,,,,,,,,,,,,,,,,,,,,,,,,,,,,,,,,,,,,,,,,,,,,,,,,9348.5156423999,None,,,,,,,,,,,,,,,,,,,,,,,,,,,,,,,,,,,season,103,44,aloud,red,9346.516554899514,None,None,9346.516554899514,None,,,,,,,,,,,,,,,,,,,,,,,,,,,,,,49YA,001,2023_Apr_21_0955,ExactRep-v3-final,2021.2.3,59.98087781089641,
,,,,,,,,44,0,44,0,,,,,,,,,,,,,,,,,,,,,,,,,,,,,,,,,,,,,,,,,,,,,,,,,,,,,9351.018218100071,None,,,,,,,,,,,,,,,,,,,,,,,,,,,,,,,,,,,shame,70,45,silent,blue,9349.017637999728,None,None,9349.017637999728,None,,,,,,,,,,,,,,,,,,,,,,,,,,,,,,49YA,001,2023_Apr_21_0955,ExactRep-v3-final,2021.2.3,59.98087781089641,
,,,,,,,,45,0,45,0,,,,,,,,,,,,,,,,,,,,,,,,,,,,,,,,,,,,,,,,,,,,,,,,,,,,,9353.520723999478,None,,,,,,,,,,,,,,,,,,,,,,,,,,,,,,,,,,,clock,36,46,sing,white,9351.520180499181,None,None,9351.520180499181,None,,,,,,,,,,,,,,,,,,,,,,,,,,,,,,49YA,001,2023_Apr_21_0955,ExactRep-v3-final,2021.2.3,59.98087781089641,
,,,,,,,,46,0,46,0,,,,,,,,,,,,,,,,,,,,,,,,,,,,,,,,,,,,,,,,,,,,,,,,,,,,,9356.023198499344,None,,,,,,,,,,,,,,,,,,,,,,,,,,,,,,,,,,,troops,2,47,sing,white,9354.022950599901,None,None,9354.022950599901,None,,,,,,,,,,,,,,,,,,,,,,,,,,,,,,49YA,001,2023_Apr_21_0955,ExactRep-v3-final,2021.2.3,59.98087781089641,
,,,,,,,,47,0,47,0,,,,,,,,,,,,,,,,,,,,,,,,,,,,,,,,,,,,,,,,,,,,,,,,,,,,,9358.52565599978,None,,,,,,,,,,,,,,,,,,,,,,,,,,,,,,,,,,,air,58,48,silent,blue,9356.523868899792,None,None,9356.523868899792,None,,,,,,,,,,,,,,,,,,,,,,,,,,,,,,49YA,001,2023_Apr_21_0955,ExactRep-v3-final,2021.2.3,59.98087781089641,
,,,,,,,,48,0,48,0,,,,,,,,,,,,,,,,,,,,,,,,,,,,,,,,,,,,,,,,,,,,,,,,,,,,,9361.028334300034,None,,,,,,,,,,,,,,,,,,,,,,,,,,,,,,,,,,,money,47,49,silent,blue,9359.026221299544,None,None,9359.026221299544,None,,,,,,,,,,,,,,,,,,,,,,,,,,,,,,49YA,001,2023_Apr_21_0955,ExactRep-v3-final,2021.2.3,59.98087781089641,
,,,,,,,,49,0,49,0,,,,,,,,,,,,,,,,,,,,,,,,,,,,,,,,,,,,,,,,,,,,,,,,,,,,,9363.530662499368,None,,,,,,,,,,,,,,,,,,,,,,,,,,,,,,,,,,,moral,20,50,sing,white,9361.528747899458,None,None,9361.528747899458,None,,,,,,,,,,,,,,,,,,,,,,,,,,,,,,49YA,001,2023_Apr_21_0955,ExactRep-v3-final,2021.2.3,59.98087781089641,
,,,,,,,,50,0,50,0,,,,,,,,,,,,,,,,,,,,,,,,,,,,,,,,,,,,,,,,,,,,,,,,,,,,,9366.03316009976,None,,,,,,,,,,,,,,,,,,,,,,,,,,,,,,,,,,,cash,39,51,silent,blue,9364.031262000091,None,None,9364.031262000091,None,,,,,,,,,,,,,,,,,,,,,,,,,,,,,,49YA,001,2023_Apr_21_0955,ExactRep-v3-final,2021.2.3,59.98087781089641,
,,,,,,,,51,0,51,0,,,,,,,,,,,,,,,,,,,,,,,,,,,,,,,,,,,,,,,,,,,,,,,,,,,,,9368.535625799559,None,,,,,,,,,,,,,,,,,,,,,,,,,,,,,,,,,,,seat,90,52,aloud,red,9366.533669599332,None,None,9366.533669599332,None,,,,,,,,,,,,,,,,,,,,,,,,,,,,,,49YA,001,2023_Apr_21_0955,ExactRep-v3-final,2021.2.3,59.98087781089641,
,,,,,,,,52,0,52,0,,,,,,,,,,,,,,,,,,,,,,,,,,,,,,,,,,,,,,,,,,,,,,,,,,,,,9371.038101699203,None,,,,,,,,,,,,,,,,,,,,,,,,,,,,,,,,,,,humour,105,53,aloud,red,9369.03613169957,None,None,9369.03613169957,None,,,,,,,,,,,,,,,,,,,,,,,,,,,,,,49YA,001,2023_Apr_21_0955,ExactRep-v3-final,2021.2.3,59.98087781089641,
,,,,,,,,53,0,53,0,,,,,,,,,,,,,,,,,,,,,,,,,,,,,,,,,,,,,,,,,,,,,,,,,,,,,9373.557319299318,None,,,,,,,,,,,,,,,,,,,,,,,,,,,,,,,,,,,dream,63,54,silent,blue,9371.547025299631,None,None,9371.547025299631,None,,,,,,,,,,,,,,,,,,,,,,,,,,,,,,49YA,001,2023_Apr_21_0955,ExactRep-v3-final,2021.2.3,59.98087781089641,
,,,,,,,,54,0,54,0,,,,,,,,,,,,,,,,,,,,,,,,,,,,,,,,,,,,,,,,,,,,,,,,,,,,,9376.076662899926,None,,,,,,,,,,,,,,,,,,,,,,,,,,,,,,,,,,,journal,96,55,aloud,red,9374.069150799885,None,None,9374.069150799885,None,,,,,,,,,,,,,,,,,,,,,,,,,,,,,,49YA,001,2023_Apr_21_0955,ExactRep-v3-final,2021.2.3,59.98087781089641,
,,,,,,,,55,0,55,0,,,,,,,,,,,,,,,,,,,,,,,,,,,,,,,,,,,,,,,,,,,,,,,,,,,,,9378.579194199294,None,,,,,,,,,,,,,,,,,,,,,,,,,,,,,,,,,,,soul,119,56,aloud,red,9376.57848959975,None,None,9376.57848959975,None,,,,,,,,,,,,,,,,,,,,,,,,,,,,,,49YA,001,2023_Apr_21_0955,ExactRep-v3-final,2021.2.3,59.98087781089641,
,,,,,,,,56,0,56,0,,,,,,,,,,,,,,,,,,,,,,,,,,,,,,,,,,,,,,,,,,,,,,,,,,,,,9381.081672200002,None,,,,,,,,,,,,,,,,,,,,,,,,,,,,,,,,,,,power,101,57,aloud,red,9379.07955159992,None,None,9379.07955159992,None,,,,,,,,,,,,,,,,,,,,,,,,,,,,,,49YA,001,2023_Apr_21_0955,ExactRep-v3-final,2021.2.3,59.98087781089641,
,,,,,,,,57,0,57,0,,,,,,,,,,,,,,,,,,,,,,,,,,,,,,,,,,,,,,,,,,,,,,,,,,,,,9383.600792099722,None,,,,,,,,,,,,,,,,,,,,,,,,,,,,,,,,,,,weapon,62,58,silent,blue,9381.588229099289,None,None,9381.588229099289,None,,,,,,,,,,,,,,,,,,,,,,,,,,,,,,49YA,001,2023_Apr_21_0955,ExactRep-v3-final,2021.2.3,59.98087781089641,
,,,,,,,,58,0,58,0,,,,,,,,,,,,,,,,,,,,,,,,,,,,,,,,,,,,,,,,,,,,,,,,,,,,,9386.105003399774,None,,,,,,,,,,,,,,,,,,,,,,,,,,,,,,,,,,,home,28,59,sing,white,9384.101233299822,None,None,9384.101233299822,None,,,,,,,,,,,,,,,,,,,,,,,,,,,,,,49YA,001,2023_Apr_21_0955,ExactRep-v3-final,2021.2.3,59.98087781089641,
,,,,,,,,59,0,59,0,,,,,,,,,,,,,,,,,,,,,,,,,,,,,,,,,,,,,,,,,,,,,,,,,,,,,9388.622575199232,None,,,,,,,,,,,,,,,,,,,,,,,,,,,,,,,,,,,wife,114,60,aloud,red,9386.620525999926,None,None,9386.620525999926,None,,,,,,,,,,,,,,,,,,,,,,,,,,,,,,49YA,001,2023_Apr_21_0955,ExactRep-v3-final,2021.2.3,59.98087781089641,
,,,,,,,,60,0,60,0,,,,,,,,,,,,,,,,,,,,,,,,,,,,,,,,,,,,,,,,,,,,,,,,,,,,,9391.12508559972,None,,,,,,,,,,,,,,,,,,,,,,,,,,,,,,,,,,,crime,110,61,aloud,red,9389.126013199799,None,None,9389.126013199799,None,,,,,,,,,,,,,,,,,,,,,,,,,,,,,,49YA,001,2023_Apr_21_0955,ExactRep-v3-final,2021.2.3,59.98087781089641,
,,,,,,,,61,0,61,0,,,,,,,,,,,,,,,,,,,,,,,,,,,,,,,,,,,,,,,,,,,,,,,,,,,,,9393.644188699313,None,,,,,,,,,,,,,,,,,,,,,,,,,,,,,,,,,,,fun,52,62,silent,blue,9391.634139900096,None,None,9391.634139900096,None,,,,,,,,,,,,,,,,,,,,,,,,,,,,,,49YA,001,2023_Apr_21_0955,ExactRep-v3-final,2021.2.3,59.98087781089641,
,,,,,,,,62,0,62,0,,,,,,,,,,,,,,,,,,,,,,,,,,,,,,,,,,,,,,,,,,,,,,,,,,,,,9396.163361399435,None,,,,,,,,,,,,,,,,,,,,,,,,,,,,,,,,,,,meadow,116,63,aloud,red,9394.147873299196,None,None,9394.147873299196,None,,,,,,,,,,,,,,,,,,,,,,,,,,,,,,49YA,001,2023_Apr_21_0955,ExactRep-v3-final,2021.2.3,59.98087781089641,
,,,,,,,,63,0,63,0,,,,,,,,,,,,,,,,,,,,,,,,,,,,,,,,,,,,,,,,,,,,,,,,,,,,,9398.666051299311,None,,,,,,,,,,,,,,,,,,,,,,,,,,,,,,,,,,,advice,85,64,aloud,red,9396.666734899394,None,None,9396.666734899394,None,,,,,,,,,,,,,,,,,,,,,,,,,,,,,,49YA,001,2023_Apr_21_0955,ExactRep-v3-final,2021.2.3,59.98087781089641,
,,,,,,,,64,0,64,0,,,,,,,,,,,,,,,,,,,,,,,,,,,,,,,,,,,,,,,,,,,,,,,,,,,,,9401.185048099607,None,,,,,,,,,,,,,,,,,,,,,,,,,,,,,,,,,,,chance,29,65,sing,white,9399.169533999637,None,None,9399.169533999637,None,,,,,,,,,,,,,,,,,,,,,,,,,,,,,,49YA,001,2023_Apr_21_0955,ExactRep-v3-final,2021.2.3,59.98087781089641,
,,,,,,,,65,0,65,0,,,,,,,,,,,,,,,,,,,,,,,,,,,,,,,,,,,,,,,,,,,,,,,,,,,,,9403.704275799915,None,,,,,,,,,,,,,,,,,,,,,,,,,,,,,,,,,,,hide,6,66,sing,white,9401.694910899736,None,None,9401.694910899736,None,,,,,,,,,,,,,,,,,,,,,,,,,,,,,,49YA,001,2023_Apr_21_0955,ExactRep-v3-final,2021.2.3,59.98087781089641,
,,,,,,,,66,0,66,0,,,,,,,,,,,,,,,,,,,,,,,,,,,,,,,,,,,,,,,,,,,,,,,,,,,,,9406.206724199466,None,,,,,,,,,,,,,,,,,,,,,,,,,,,,,,,,,,,fire,21,67,sing,white,9404.204616599716,None,None,9404.204616599716,None,,,,,,,,,,,,,,,,,,,,,,,,,,,,,,49YA,001,2023_Apr_21_0955,ExactRep-v3-final,2021.2.3,59.98087781089641,
,,,,,,,,67,0,67,0,,,,,,,,,,,,,,,,,,,,,,,,,,,,,,,,,,,,,,,,,,,,,,,,,,,,,9408.709215699695,None,,,,,,,,,,,,,,,,,,,,,,,,,,,,,,,,,,,hope,54,68,silent,blue,9406.708959399723,None,None,9406.708959399723,None,,,,,,,,,,,,,,,,,,,,,,,,,,,,,,49YA,001,2023_Apr_21_0955,ExactRep-v3-final,2021.2.3,59.98087781089641,
,,,,,,,,68,0,68,0,,,,,,,,,,,,,,,,,,,,,,,,,,,,,,,,,,,,,,,,,,,,,,,,,,,,,9411.211749999784,None,,,,,,,,,,,,,,,,,,,,,,,,,,,,,,,,,,,trouble,53,69,silent,blue,9409.211244599894,None,None,9409.211244599894,None,,,,,,,,,,,,,,,,,,,,,,,,,,,,,,49YA,001,2023_Apr_21_0955,ExactRep-v3-final,2021.2.3,59.98087781089641,
,,,,,,,,69,0,69,0,,,,,,,,,,,,,,,,,,,,,,,,,,,,,,,,,,,,,,,,,,,,,,,,,,,,,9413.71488459967,None,,,,,,,,,,,,,,,,,,,,,,,,,,,,,,,,,,,fate,100,70,aloud,red,9411.71370809991,None,None,9411.71370809991,None,,,,,,,,,,,,,,,,,,,,,,,,,,,,,,49YA,001,2023_Apr_21_0955,ExactRep-v3-final,2021.2.3,59.98087781089641,
,,,,,,,,70,0,70,0,,,,,,,,,,,,,,,,,,,,,,,,,,,,,,,,,,,,,,,,,,,,,,,,,,,,,9416.216800999828,None,,,,,,,,,,,,,,,,,,,,,,,,,,,,,,,,,,,college,16,71,sing,white,9414.21692249924,None,None,9414.21692249924,None,,,,,,,,,,,,,,,,,,,,,,,,,,,,,,49YA,001,2023_Apr_21_0955,ExactRep-v3-final,2021.2.3,59.98087781089641,
,,,,,,,,71,0,71,0,,,,,,,,,,,,,,,,,,,,,,,,,,,,,,,,,,,,,,,,,,,,,,,,,,,,,9418.71925839968,None,,,,,,,,,,,,,,,,,,,,,,,,,,,,,,,,,,,amount,89,72,aloud,red,9416.719561499543,None,None,9416.719561499543,None,,,,,,,,,,,,,,,,,,,,,,,,,,,,,,49YA,001,2023_Apr_21_0955,ExactRep-v3-final,2021.2.3,59.98087781089641,
,,,,,,,,72,0,72,0,,,,,,,,,,,,,,,,,,,,,,,,,,,,,,,,,,,,,,,,,,,,,,,,,,,,,9421.238299000077,None,,,,,,,,,,,,,,,,,,,,,,,,,,,,,,,,,,,soil,72,73,silent,blue,9419.224171699956,None,None,9419.224171699956,None,,,,,,,,,,,,,,,,,,,,,,,,,,,,,,49YA,001,2023_Apr_21_0955,ExactRep-v3-final,2021.2.3,59.98087781089641,
,,,,,,,,73,0,73,0,,,,,,,,,,,,,,,,,,,,,,,,,,,,,,,,,,,,,,,,,,,,,,,,,,,,,9423.757555199787,None,,,,,,,,,,,,,,,,,,,,,,,,,,,,,,,,,,,temple,65,74,silent,blue,9421.750119199976,None,None,9421.750119199976,None,,,,,,,,,,,,,,,,,,,,,,,,,,,,,,49YA,001,2023_Apr_21_0955,ExactRep-v3-final,2021.2.3,59.98087781089641,
,,,,,,,,74,0,74,0,,,,,,,,,,,,,,,,,,,,,,,,,,,,,,,,,,,,,,,,,,,,,,,,,,,,,9426.260131899267,None,,,,,,,,,,,,,,,,,,,,,,,,,,,,,,,,,,,duty,115,75,aloud,red,9424.258861899376,None,None,9424.258861899376,None,,,,,,,,,,,,,,,,,,,,,,,,,,,,,,49YA,001,2023_Apr_21_0955,ExactRep-v3-final,2021.2.3,59.98087781089641,
,,,,,,,,75,0,75,0,,,,,,,,,,,,,,,,,,,,,,,,,,,,,,,,,,,,,,,,,,,,,,,,,,,,,9428.762634899467,None,,,,,,,,,,,,,,,,,,,,,,,,,,,,,,,,,,,lake,59,76,silent,blue,9426.762637299486,None,None,9426.762637299486,None,,,,,,,,,,,,,,,,,,,,,,,,,,,,,,49YA,001,2023_Apr_21_0955,ExactRep-v3-final,2021.2.3,59.98087781089641,
,,,,,,,,76,0,76,0,,,,,,,,,,,,,,,,,,,,,,,,,,,,,,,,,,,,,,,,,,,,,,,,,,,,,9431.28186280001,None,,,,,,,,,,,,,,,,,,,,,,,,,,,,,,,,,,,doctor,107,77,aloud,red,9429.267476599663,None,None,9429.267476599663,None,,,,,,,,,,,,,,,,,,,,,,,,,,,,,,49YA,001,2023_Apr_21_0955,ExactRep-v3-final,2021.2.3,59.98087781089641,
,,,,,,,,77,0,77,0,,,,,,,,,,,,,,,,,,,,,,,,,,,,,,,,,,,,,,,,,,,,,,,,,,,,,9433.80109809991,None,,,,,,,,,,,,,,,,,,,,,,,,,,,,,,,,,,,lad,94,78,aloud,red,9431.789916799404,None,None,9431.789916799404,None,,,,,,,,,,,,,,,,,,,,,,,,,,,,,,49YA,001,2023_Apr_21_0955,ExactRep-v3-final,2021.2.3,59.98087781089641,
,,,,,,,,78,0,78,0,,,,,,,,,,,,,,,,,,,,,,,,,,,,,,,,,,,,,,,,,,,,,,,,,,,,,9436.30342260003,None,,,,,,,,,,,,,,,,,,,,,,,,,,,,,,,,,,,shoes,98,79,aloud,red,9434.301496199332,None,None,9434.301496199332,None,,,,,,,,,,,,,,,,,,,,,,,,,,,,,,49YA,001,2023_Apr_21_0955,ExactRep-v3-final,2021.2.3,59.98087781089641,
,,,,,,,,79,0,79,0,,,,,,,,,,,,,,,,,,,,,,,,,,,,,,,,,,,,,,,,,,,,,,,,,,,,,9438.805936199613,None,,,,,,,,,,,,,,,,,,,,,,,,,,,,,,,,,,,sea,93,80,aloud,red,9436.804337400012,None,None,9436.804337400012,None,,,,,,,,,,,,,,,,,,,,,,,,,,,,,,49YA,001,2023_Apr_21_0955,ExactRep-v3-final,2021.2.3,59.98087781089641,
,,,,,,,,80,0,80,0,,,,,,,,,,,,,,,,,,,,,,,,,,,,,,,,,,,,,,,,,,,,,,,,,,,,,9441.325312499888,None,,,,,,,,,,,,,,,,,,,,,,,,,,,,,,,,,,,king,11,81,sing,white,9439.31255229935,None,None,9439.31255229935,None,,,,,,,,,,,,,,,,,,,,,,,,,,,,,,49YA,001,2023_Apr_21_0955,ExactRep-v3-final,2021.2.3,59.98087781089641,
,,,,,,,,81,0,81,0,,,,,,,,,,,,,,,,,,,,,,,,,,,,,,,,,,,,,,,,,,,,,,,,,,,,,9443.827800599858,None,,,,,,,,,,,,,,,,,,,,,,,,,,,,,,,,,,,steam,40,82,silent,blue,9441.825737799518,None,None,9441.825737799518,None,,,,,,,,,,,,,,,,,,,,,,,,,,,,,,49YA,001,2023_Apr_21_0955,ExactRep-v3-final,2021.2.3,59.98087781089641,
,,,,,,,,82,0,82,0,,,,,,,,,,,,,,,,,,,,,,,,,,,,,,,,,,,,,,,,,,,,,,,,,,,,,9446.34683999978,None,,,,,,,,,,,,,,,,,,,,,,,,,,,,,,,,,,,owner,51,83,silent,blue,9444.335425499827,None,None,9444.335425499827,None,,,,,,,,,,,,,,,,,,,,,,,,,,,,,,49YA,001,2023_Apr_21_0955,ExactRep-v3-final,2021.2.3,59.98087781089641,
,,,,,,,,83,0,83,0,,,,,,,,,,,,,,,,,,,,,,,,,,,,,,,,,,,,,,,,,,,,,,,,,,,,,9448.84949619975,None,,,,,,,,,,,,,,,,,,,,,,,,,,,,,,,,,,,answer,81,84,aloud,red,9446.847440499812,None,None,9446.847440499812,None,,,,,,,,,,,,,,,,,,,,,,,,,,,,,,49YA,001,2023_Apr_21_0955,ExactRep-v3-final,2021.2.3,59.98087781089641,
,,,,,,,,84,0,84,0,,,,,,,,,,,,,,,,,,,,,,,,,,,,,,,,,,,,,,,,,,,,,,,,,,,,,9451.351984200068,None,,,,,,,,,,,,,,,,,,,,,,,,,,,,,,,,,,,memory,92,85,aloud,red,9449.351660099812,None,None,9449.351660099812,None,,,,,,,,,,,,,,,,,,,,,,,,,,,,,,49YA,001,2023_Apr_21_0955,ExactRep-v3-final,2021.2.3,59.98087781089641,
,,,,,,,,85,0,85,0,,,,,,,,,,,,,,,,,,,,,,,,,,,,,,,,,,,,,,,,,,,,,,,,,,,,,9453.854263899848,None,,,,,,,,,,,,,,,,,,,,,,,,,,,,,,,,,,,garden,60,86,silent,blue,9451.85238969978,None,None,9451.85238969978,None,,,,,,,,,,,,,,,,,,,,,,,,,,,,,,49YA,001,2023_Apr_21_0955,ExactRep-v3-final,2021.2.3,59.98087781089641,
,,,,,,,,86,0,86,0,,,,,,,,,,,,,,,,,,,,,,,,,,,,,,,,,,,,,,,,,,,,,,,,,,,,,9456.373525999486,None,,,,,,,,,,,,,,,,,,,,,,,,,,,,,,,,,,,factory,66,87,silent,blue,9454.362371199764,None,None,9454.362371199764,None,,,,,,,,,,,,,,,,,,,,,,,,,,,,,,49YA,001,2023_Apr_21_0955,ExactRep-v3-final,2021.2.3,59.98087781089641,
,,,,,,,,87,0,87,0,,,,,,,,,,,,,,,,,,,,,,,,,,,,,,,,,,,,,,,,,,,,,,,,,,,,,9458.87604209967,None,,,,,,,,,,,,,,,,,,,,,,,,,,,,,,,,,,,maiden,80,88,aloud,red,9456.87406689953,None,None,9456.87406689953,None,,,,,,,,,,,,,,,,,,,,,,,,,,,,,,49YA,001,2023_Apr_21_0955,ExactRep-v3-final,2021.2.3,59.98087781089641,
,,,,,,,,88,0,88,0,,,,,,,,,,,,,,,,,,,,,,,,,,,,,,,,,,,,,,,,,,,,,,,,,,,,,9461.378610599786,None,,,,,,,,,,,,,,,,,,,,,,,,,,,,,,,,,,,grass,14,89,sing,white,9459.37816419918,None,None,9459.37816419918,None,,,,,,,,,,,,,,,,,,,,,,,,,,,,,,49YA,001,2023_Apr_21_0955,ExactRep-v3-final,2021.2.3,59.98087781089641,
,,,,,,,,89,0,89,0,,,,,,,,,,,,,,,,,,,,,,,,,,,,,,,,,,,,,,,,,,,,,,,,,,,,,9463.897765900008,None,,,,,,,,,,,,,,,,,,,,,,,,,,,,,,,,,,,style,17,90,sing,white,9461.883155999705,None,None,9461.883155999705,None,,,,,,,,,,,,,,,,,,,,,,,,,,,,,,49YA,001,2023_Apr_21_0955,ExactRep-v3-final,2021.2.3,59.98087781089641,
,,,,,,,,90,0,90,0,,,,,,,,,,,,,,,,,,,,,,,,,,,,,,,,,,,,,,,,,,,,,,,,,,,,,9466.40035909973,None,,,,,,,,,,,,,,,,,,,,,,,,,,,,,,,,,,,brain,19,91,sing,white,9464.399496399797,None,None,9464.399496399797,None,,,,,,,,,,,,,,,,,,,,,,,,,,,,,,49YA,001,2023_Apr_21_0955,ExactRep-v3-final,2021.2.3,59.98087781089641,
,,,,,,,,91,0,91,0,,,,,,,,,,,,,,,,,,,,,,,,,,,,,,,,,,,,,,,,,,,,,,,,,,,,,9468.919348299503,None,,,,,,,,,,,,,,,,,,,,,,,,,,,,,,,,,,,nail,113,92,aloud,red,9466.904353899881,None,None,9466.904353899881,None,,,,,,,,,,,,,,,,,,,,,,,,,,,,,,49YA,001,2023_Apr_21_0955,ExactRep-v3-final,2021.2.3,59.98087781089641,
,,,,,,,,92,0,92,0,,,,,,,,,,,,,,,,,,,,,,,,,,,,,,,,,,,,,,,,,,,,,,,,,,,,,9471.438530399464,None,,,,,,,,,,,,,,,,,,,,,,,,,,,,,,,,,,,volume,1,93,sing,white,9469.427335099317,None,None,9469.427335099317,None,,,,,,,,,,,,,,,,,,,,,,,,,,,,,,49YA,001,2023_Apr_21_0955,ExactRep-v3-final,2021.2.3,59.98087781089641,
,,,,,,,,93,0,93,0,,,,,,,,,,,,,,,,,,,,,,,,,,,,,,,,,,,,,,,,,,,,,,,,,,,,,9473.94109539967,None,,,,,,,,,,,,,,,,,,,,,,,,,,,,,,,,,,,freedom,117,94,aloud,red,9471.939149199985,None,None,9471.939149199985,None,,,,,,,,,,,,,,,,,,,,,,,,,,,,,,49YA,001,2023_Apr_21_0955,ExactRep-v3-final,2021.2.3,59.98087781089641,
,,,,,,,,94,0,94,0,,,,,,,,,,,,,,,,,,,,,,,,,,,,,,,,,,,,,,,,,,,,,,,,,,,,,9476.443612699397,None,,,,,,,,,,,,,,,,,,,,,,,,,,,,,,,,,,,flower,87,95,aloud,red,9474.441679299809,None,None,9474.441679299809,None,,,,,,,,,,,,,,,,,,,,,,,,,,,,,,49YA,001,2023_Apr_21_0955,ExactRep-v3-final,2021.2.3,59.98087781089641,
,,,,,,,,95,0,95,0,,,,,,,,,,,,,,,,,,,,,,,,,,,,,,,,,,,,,,,,,,,,,,,,,,,,,9478.946123999543,None,,,,,,,,,,,,,,,,,,,,,,,,,,,,,,,,,,,rod,8,96,sing,white,9476.94596719928,None,None,9476.94596719928,None,,,,,,,,,,,,,,,,,,,,,,,,,,,,,,49YA,001,2023_Apr_21_0955,ExactRep-v3-final,2021.2.3,59.98087781089641,
,,,,,,,,96,0,96,0,,,,,,,,,,,,,,,,,,,,,,,,,,,,,,,,,,,,,,,,,,,,,,,,,,,,,9481.448625499383,None,,,,,,,,,,,,,,,,,,,,,,,,,,,,,,,,,,,death,97,97,aloud,red,9479.44939039927,None,None,9479.44939039927,None,,,,,,,,,,,,,,,,,,,,,,,,,,,,,,49YA,001,2023_Apr_21_0955,ExactRep-v3-final,2021.2.3,59.98087781089641,
,,,,,,,,97,0,97,0,,,,,,,,,,,,,,,,,,,,,,,,,,,,,,,,,,,,,,,,,,,,,,,,,,,,,9483.951096199453,None,,,,,,,,,,,,,,,,,,,,,,,,,,,,,,,,,,,law,25,98,sing,white,9481.951131199487,None,None,9481.951131199487,None,,,,,,,,,,,,,,,,,,,,,,,,,,,,,,49YA,001,2023_Apr_21_0955,ExactRep-v3-final,2021.2.3,59.98087781089641,
,,,,,,,,98,0,98,0,,,,,,,,,,,,,,,,,,,,,,,,,,,,,,,,,,,,,,,,,,,,,,,,,,,,,9486.453639499843,None,,,,,,,,,,,,,,,,,,,,,,,,,,,,,,,,,,,event,77,99,silent,blue,9484.45235249959,None,None,9484.45235249959,None,,,,,,,,,,,,,,,,,,,,,,,,,,,,,,49YA,001,2023_Apr_21_0955,ExactRep-v3-final,2021.2.3,59.98087781089641,
,,,,,,,,99,0,99,0,,,,,,,,,,,,,,,,,,,,,,,,,,,,,,,,,,,,,,,,,,,,,,,,,,,,,9488.956100399606,None,,,,,,,,,,,,,,,,,,,,,,,,,,,,,,,,,,,opinion,111,100,aloud,red,9486.954049599357,None,None,9486.954049599357,None,,,,,,,,,,,,,,,,,,,,,,,,,,,,,,49YA,001,2023_Apr_21_0955,ExactRep-v3-final,2021.2.3,59.98087781089641,
,,,,,,,,100,0,100,0,,,,,,,,,,,,,,,,,,,,,,,,,,,,,,,,,,,,,,,,,,,,,,,,,,,,,9491.475245699286,None,,,,,,,,,,,,,,,,,,,,,,,,,,,,,,,,,,,history,32,101,sing,white,9489.465880999342,None,None,9489.465880999342,None,,,,,,,,,,,,,,,,,,,,,,,,,,,,,,49YA,001,2023_Apr_21_0955,ExactRep-v3-final,2021.2.3,59.98087781089641,
,,,,,,,,101,0,101,0,,,,,,,,,,,,,,,,,,,,,,,,,,,,,,,,,,,,,,,,,,,,,,,,,,,,,9493.994511199184,None,,,,,,,,,,,,,,,,,,,,,,,,,,,,,,,,,,,meeting,61,102,silent,blue,9491.981114699505,None,None,9491.981114699505,None,,,,,,,,,,,,,,,,,,,,,,,,,,,,,,49YA,001,2023_Apr_21_0955,ExactRep-v3-final,2021.2.3,59.98087781089641,
,,,,,,,,102,0,102,0,,,,,,,,,,,,,,,,,,,,,,,,,,,,,,,,,,,,,,,,,,,,,,,,,,,,,9496.51369749941,None,,,,,,,,,,,,,,,,,,,,,,,,,,,,,,,,,,,slave,26,103,sing,white,9494.500451499596,None,None,9494.500451499596,None,,,,,,,,,,,,,,,,,,,,,,,,,,,,,,49YA,001,2023_Apr_21_0955,ExactRep-v3-final,2021.2.3,59.98087781089641,
,,,,,,,,103,0,103,0,,,,,,,,,,,,,,,,,,,,,,,,,,,,,,,,,,,,,,,,,,,,,,,,,,,,,9499.032864999957,None,,,,,,,,,,,,,,,,,,,,,,,,,,,,,,,,,,,square,86,104,aloud,red,9497.021014799364,None,None,9497.021014799364,None,,,,,,,,,,,,,,,,,,,,,,,,,,,,,,49YA,001,2023_Apr_21_0955,ExactRep-v3-final,2021.2.3,59.98087781089641,
,,,,,,,,104,0,104,0,,,,,,,,,,,,,,,,,,,,,,,,,,,,,,,,,,,,,,,,,,,,,,,,,,,,,9501.535377199762,None,,,,,,,,,,,,,,,,,,,,,,,,,,,,,,,,,,,custom,18,105,sing,white,9499.533368799835,None,None,9499.533368799835,None,,,,,,,,,,,,,,,,,,,,,,,,,,,,,,49YA,001,2023_Apr_21_0955,ExactRep-v3-final,2021.2.3,59.98087781089641,
,,,,,,,,105,0,105,0,,,,,,,,,,,,,,,,,,,,,,,,,,,,,,,,,,,,,,,,,,,,,,,,,,,,,9504.037913099863,None,,,,,,,,,,,,,,,,,,,,,,,,,,,,,,,,,,,world,43,106,silent,blue,9502.038595600054,None,None,9502.038595600054,None,,,,,,,,,,,,,,,,,,,,,,,,,,,,,,49YA,001,2023_Apr_21_0955,ExactRep-v3-final,2021.2.3,59.98087781089641,
,,,,,,,,106,0,106,0,,,,,,,,,,,,,,,,,,,,,,,,,,,,,,,,,,,,,,,,,,,,,,,,,,,,,9506.55696820002,None,,,,,,,,,,,,,,,,,,,,,,,,,,,,,,,,,,,science,112,107,aloud,red,9504.541520900093,None,None,9504.541520900093,None,,,,,,,,,,,,,,,,,,,,,,,,,,,,,,49YA,001,2023_Apr_21_0955,ExactRep-v3-final,2021.2.3,59.98087781089641,
,,,,,,,,107,0,107,0,,,,,,,,,,,,,,,,,,,,,,,,,,,,,,,,,,,,,,,,,,,,,,,,,,,,,9509.076200899668,None,,,,,,,,,,,,,,,,,,,,,,,,,,,,,,,,,,,victory,56,108,silent,blue,9507.061360499822,None,None,9507.061360499822,None,,,,,,,,,,,,,,,,,,,,,,,,,,,,,,49YA,001,2023_Apr_21_0955,ExactRep-v3-final,2021.2.3,59.98087781089641,
,,,,,,,,108,0,108,0,,,,,,,,,,,,,,,,,,,,,,,,,,,,,,,,,,,,,,,,,,,,,,,,,,,,,9511.578812099993,None,,,,,,,,,,,,,,,,,,,,,,,,,,,,,,,,,,,cattle,23,109,sing,white,9509.5767292995,None,None,9509.5767292995,None,,,,,,,,,,,,,,,,,,,,,,,,,,,,,,49YA,001,2023_Apr_21_0955,ExactRep-v3-final,2021.2.3,59.98087781089641,
,,,,,,,,109,0,109,0,,,,,,,,,,,,,,,,,,,,,,,,,,,,,,,,,,,,,,,,,,,,,,,,,,,,,9514.098052399233,None,,,,,,,,,,,,,,,,,,,,,,,,,,,,,,,,,,,shore,4,110,sing,white,9512.085929499939,None,None,9512.085929499939,None,,,,,,,,,,,,,,,,,,,,,,,,,,,,,,49YA,001,2023_Apr_21_0955,ExactRep-v3-final,2021.2.3,59.98087781089641,
,,,,,,,,110,0,110,0,,,,,,,,,,,,,,,,,,,,,,,,,,,,,,,,,,,,,,,,,,,,,,,,,,,,,9516.617194799706,None,,,,,,,,,,,,,,,,,,,,,,,,,,,,,,,,,,,fortune,83,111,aloud,red,9514.603000399657,None,None,9514.603000399657,None,,,,,,,,,,,,,,,,,,,,,,,,,,,,,,49YA,001,2023_Apr_21_0955,ExactRep-v3-final,2021.2.3,59.98087781089641,
,,,,,,,,111,0,111,0,,,,,,,,,,,,,,,,,,,,,,,,,,,,,,,,,,,,,,,,,,,,,,,,,,,,,9519.119629099965,None,,,,,,,,,,,,,,,,,,,,,,,,,,,,,,,,,,,present,30,112,sing,white,9517.119428799488,None,None,9517.119428799488,None,,,,,,,,,,,,,,,,,,,,,,,,,,,,,,49YA,001,2023_Apr_21_0955,ExactRep-v3-final,2021.2.3,59.98087781089641,
,,,,,,,,112,0,112,0,,,,,,,,,,,,,,,,,,,,,,,,,,,,,,,,,,,,,,,,,,,,,,,,,,,,,9521.63890339993,None,,,,,,,,,,,,,,,,,,,,,,,,,,,,,,,,,,,skin,22,113,sing,white,9519.627661899664,None,None,9519.627661899664,None,,,,,,,,,,,,,,,,,,,,,,,,,,,,,,49YA,001,2023_Apr_21_0955,ExactRep-v3-final,2021.2.3,59.98087781089641,
,,,,,,,,113,0,113,0,,,,,,,,,,,,,,,,,,,,,,,,,,,,,,,,,,,,,,,,,,,,,,,,,,,,,9524.141210699454,None,,,,,,,,,,,,,,,,,,,,,,,,,,,,,,,,,,,person,9,114,sing,white,9522.139270999469,None,None,9522.139270999469,None,,,,,,,,,,,,,,,,,,,,,,,,,,,,,,49YA,001,2023_Apr_21_0955,ExactRep-v3-final,2021.2.3,59.98087781089641,
,,,,,,,,114,0,114,0,,,,,,,,,,,,,,,,,,,,,,,,,,,,,,,,,,,,,,,,,,,,,,,,,,,,,9526.66055719927,None,,,,,,,,,,,,,,,,,,,,,,,,,,,,,,,,,,,hotel,108,115,aloud,red,9524.648450099863,None,None,9524.648450099863,None,,,,,,,,,,,,,,,,,,,,,,,,,,,,,,49YA,001,2023_Apr_21_0955,ExactRep-v3-final,2021.2.3,59.98087781089641,
,,,,,,,,115,0,115,0,,,,,,,,,,,,,,,,,,,,,,,,,,,,,,,,,,,,,,,,,,,,,,,,,,,,,9529.179716699757,None,,,,,,,,,,,,,,,,,,,,,,,,,,,,,,,,,,,priest,41,116,silent,blue,9527.165157599375,None,None,9527.165157599375,None,,,,,,,,,,,,,,,,,,,,,,,,,,,,,,49YA,001,2023_Apr_21_0955,ExactRep-v3-final,2021.2.3,59.98087781089641,
,,,,,,,,116,0,116,0,,,,,,,,,,,,,,,,,,,,,,,,,,,,,,,,,,,,,,,,,,,,,,,,,,,,,9531.682221099734,None,,,,,,,,,,,,,,,,,,,,,,,,,,,,,,,,,,,mind,46,117,silent,blue,9529.68012819998,None,None,9529.68012819998,None,,,,,,,,,,,,,,,,,,,,,,,,,,,,,,49YA,001,2023_Apr_21_0955,ExactRep-v3-final,2021.2.3,59.98087781089641,
,,,,,,,,117,0,117,0,,,,,,,,,,,,,,,,,,,,,,,,,,,,,,,,,,,,,,,,,,,,,,,,,,,,,9534.184648199938,None,,,,,,,,,,,,,,,,,,,,,,,,,,,,,,,,,,,kiss,82,118,aloud,red,9532.185283899307,None,None,9532.185283899307,None,,,,,,,,,,,,,,,,,,,,,,,,,,,,,,49YA,001,2023_Apr_21_0955,ExactRep-v3-final,2021.2.3,59.98087781089641,
,,,,,,,,118,0,118,0,,,,,,,,,,,,,,,,,,,,,,,,,,,,,,,,,,,,,,,,,,,,,,,,,,,,,9536.687349000014,None,,,,,,,,,,,,,,,,,,,,,,,,,,,,,,,,,,,flesh,84,119,aloud,red,9534.686849299818,None,None,9534.686849299818,None,,,,,,,,,,,,,,,,,,,,,,,,,,,,,,49YA,001,2023_Apr_21_0955,ExactRep-v3-final,2021.2.3,59.98087781089641,
,,,,,,,,119,0,119,0,,,,,,,,,,,,,,,,,,,,,,,,,,,,,,,,,,,,,,,,,,,,,,,,,,,,,9539.189663900062,None,,,,,,,,,,,,,,,,,,,,,,,,,,,,,,,,,,,corn,74,120,silent,blue,9537.189437099732,None,None,9537.189437099732,None,,,,,,,,,,,,,,,,,,,,,,,,,,,,,,49YA,001,2023_Apr_21_0955,ExactRep-v3-final,2021.2.3,59.98087781089641,
,,,,,,,,,,,,,,,,,,,,,,,,,,,,,,,,,,,,,,,,,,,,,,,,,,,,,,,,,,,,,,,,,,,,,,,,,,,,,,,,,,,,,,,,,,,,,,,,,,,,,,,,,,,,,,9539.691763599403,None,space,2.573663399554789,9549.668109199964,None,,,,,,,,,,,,,,,,,,,,,,,,49YA,001,2023_Apr_21_0955,ExactRep-v3-final,2021.2.3,59.98087781089641,
,,,,,,,,,,,,,,,,,,,,,,,,,,,,,,,,,,,,,,,,,,,,,,,,,,,,,,,,,,,,,,,,,,,,,,,,,,,,,,,,,,,,,,,,,,,,,,,,,,,,,,,,,,,,,,,,,,,,9552.271280599758,None,space,29.91403569933027,9562.24760739971,None,,,,,,,,,,,,,,,,,,49YA,001,2023_Apr_21_0955,ExactRep-v3-final,2021.2.3,59.98087781089641,
,,,,,,,,,,,,0,0,0,0,,,,,,,,,,,,,,,,,,,,,,,,,,,,,,,,,,,,,,,,,,,,,,,,,9602.002441599965,None,,,,,,,,,,,,,,,,,,,,,,,,,,,,,,,,,,,,,,,,,,,,,,,,,,,,,,,,,animal,195,1,sing,new,white,9592.691647299565,None,n,9592.691647299565,None,"['n', 'return']","[6.2139178002253175, 9.277725799940526]",9592.691647299565,None,,,49YA,001,2023_Apr_21_0955,ExactRep-v3-final,2021.2.3,59.98087781089641,
,,,,,,,,,,,,1,0,1,0,,,,,,,,,,,,,,,,,,,,,,,,,,,,,,,,,,,,,,,,,,,,,,,,,9614.865172399208,None,,,,,,,,,,,,,,,,,,,,,,,,,,,,,,,,,,,,,,,,,,,,,,,,,,,,,,,,,vision,198,2,aloud,new,red,9602.503033599816,None,n,9602.503033599816,None,"['n', 'return']","[12.034373699687421, 12.330269599333405]",9602.503033599816,None,,,49YA,001,2023_Apr_21_0955,ExactRep-v3-final,2021.2.3,59.98087781089641,
,,,,,,,,,,,,2,0,2,0,,,,,,,,,,,,,,,,,,,,,,,,,,,,,,,,,,,,,,,,,,,,,,,,,9616.783882400021,None,,,,,,,,,,,,,,,,,,,,,,,,,,,,,,,,,,,,,,,,,,,,,,,,,,,,,,,,,river,203,3,sing,new,white,9615.373255899176,None,y,9615.373255899176,None,"['y', 'return']","[1.1881997995078564, 1.3642675997689366]",9615.373255899176,None,,,49YA,001,2023_Apr_21_0955,ExactRep-v3-final,2021.2.3,59.98087781089641,
,,,,,,,,,,,,3,0,3,0,,,,,,,,,,,,,,,,,,,,,,,,,,,,,,,,,,,,,,,,,,,,,,,,,9620.003880099393,None,,,,,,,,,,,,,,,,,,,,,,,,,,,,,,,,,,,,,,,,,,,,,,,,,,,,,,,,,bird,35,4,sing,old,white,9617.292304500006,None,n,9617.292304500006,None,"['n', 'return']","[2.373090799897909, 2.6770500000566244]",9617.292304500006,None,,,49YA,001,2023_Apr_21_0955,ExactRep-v3-final,2021.2.3,59.98087781089641,
,,,,,,,,,,,,4,0,4,0,,,,,,,,,,,,,,,,,,,,,,,,,,,,,,,,,,,,,,,,,,,,,,,,,9622.389523899183,None,,,,,,,,,,,,,,,,,,,,,,,,,,,,,,,,,,,,,,,,,,,,,,,,,,,,,,,,,flower,87,5,aloud,old,red,9620.506528900005,None,n,9620.506528900005,None,"['n', 'return']","[1.5908982995897532, 1.846900399774313]",9620.506528900005,None,,,49YA,001,2023_Apr_21_0955,ExactRep-v3-final,2021.2.3,59.98087781089641,
,,,,,,,,,,,,5,0,5,0,,,,,,,,,,,,,,,,,,,,,,,,,,,,,,,,,,,,,,,,,,,,,,,,,9625.192287399434,None,,,,,,,,,,,,,,,,,,,,,,,,,,,,,,,,,,,,,,,,,,,,,,,,,,,,,,,,,corner,160,6,aloud,new,red,9622.894643399864,None,n,9622.894643399864,None,"['n', 'return']","[1.9626388000324368, 2.258758299984038]",9622.894643399864,None,,,49YA,001,2023_Apr_21_0955,ExactRep-v3-final,2021.2.3,59.98087781089641,
,,,,,,,,,,,,6,0,6,0,,,,,,,,,,,,,,,,,,,,,,,,,,,,,,,,,,,,,,,,,,,,,,,,,9627.210960499942,None,,,,,,,,,,,,,,,,,,,,,,,,,,,,,,,,,,,,,,,,,,,,,,,,,,,,,,,,,circle,159,7,silent,new,blue,9625.702198099345,None,n,9625.702198099345,None,"['n', 'return']","[1.2113672001287341, 1.475194899365306]",9625.702198099345,None,,,49YA,001,2023_Apr_21_0955,ExactRep-v3-final,2021.2.3,59.98087781089641,
,,,,,,,,,,,,7,0,7,0,,,,,,,,,,,,,,,,,,,,,,,,,,,,,,,,,,,,,,,,,,,,,,,,,9628.729275199585,None,,,,,,,,,,,,,,,,,,,,,,,,,,,,,,,,,,,,,,,,,,,,,,,,,,,,,,,,,coffee,132,8,silent,new,blue,9627.716328999959,None,n,9627.716328999959,None,"['n', 'return']","[0.7252617999911308, 0.9731205003336072]",9627.716328999959,None,,,49YA,001,2023_Apr_21_0955,ExactRep-v3-final,2021.2.3,59.98087781089641,
,,,,,,,,,,,,8,0,8,0,,,,,,,,,,,,,,,,,,,,,,,,,,,,,,,,,,,,,,,,,,,,,,,,,9630.33080209978,None,,,,,,,,,,,,,,,,,,,,,,,,,,,,,,,,,,,,,,,,,,,,,,,,,,,,,,,,,origin,206,9,aloud,new,red,9629.235803700052,None,y,9629.235803700052,None,"['y', 'return']","[0.7897515995427966, 1.0535936998203397]",9629.235803700052,None,,,49YA,001,2023_Apr_21_0955,ExactRep-v3-final,2021.2.3,59.98087781089641,
,,,,,,,,,,,,9,0,9,0,,,,,,,,,,,,,,,,,,,,,,,,,,,,,,,,,,,,,,,,,,,,,,,,,9632.316065499559,None,,,,,,,,,,,,,,,,,,,,,,,,,,,,,,,,,,,,,,,,,,,,,,,,,,,,,,,,,idea,219,10,sing,new,white,9630.841140999459,None,n,9630.841140999459,None,"['n', 'return']","[1.2401694003492594, 1.44015740044415]",9630.841140999459,None,,,49YA,001,2023_Apr_21_0955,ExactRep-v3-final,2021.2.3,59.98087781089641,
,,,,,,,,,,,,10,0,10,0,,,,,,,,,,,,,,,,,,,,,,,,,,,,,,,,,,,,,,,,,,,,,,,,,9633.817599299364,None,,,,,,,,,,,,,,,,,,,,,,,,,,,,,,,,,,,,,,,,,,,,,,,,,,,,,,,,,owner,51,11,silent,old,blue,9632.825954999775,None,y,9632.825954999775,None,"['y', 'return']","[0.7435685992240906, 0.9594895998016]",9632.825954999775,None,,,49YA,001,2023_Apr_21_0955,ExactRep-v3-final,2021.2.3,59.98087781089641,
,,,,,,,,,,,,11,0,11,0,,,,,,,,,,,,,,,,,,,,,,,,,,,,,,,,,,,,,,,,,,,,,,,,,9636.386827599257,None,,,,,,,,,,,,,,,,,,,,,,,,,,,,,,,,,,,,,,,,,,,,,,,,,,,,,,,,,camp,69,12,silent,old,blue,9634.325824599713,None,n,9634.325824599713,None,"['n', 'return']","[1.8036147998645902, 2.0275582000613213]",9634.325824599713,None,,,49YA,001,2023_Apr_21_0955,ExactRep-v3-final,2021.2.3,59.98087781089641,
,,,,,,,,,,,,12,0,12,0,,,,,,,,,,,,,,,,,,,,,,,,,,,,,,,,,,,,,,,,,,,,,,,,,9637.904964099638,None,,,,,,,,,,,,,,,,,,,,,,,,,,,,,,,,,,,,,,,,,,,,,,,,,,,,,,,,,time,42,13,silent,old,blue,9636.902780899778,None,n,9636.902780899778,None,"['n', 'return']","[0.7307049995288253, 0.9546212991699576]",9636.902780899778,None,,,49YA,001,2023_Apr_21_0955,ExactRep-v3-final,2021.2.3,59.98087781089641,
,,,,,,,,,,,,13,0,13,0,,,,,,,,,,,,,,,,,,,,,,,,,,,,,,,,,,,,,,,,,,,,,,,,,9639.45656369999,None,,,,,,,,,,,,,,,,,,,,,,,,,,,,,,,,,,,,,,,,,,,,,,,,,,,,,,,,,beast,170,14,aloud,new,red,9638.415732099675,None,n,9638.415732099675,None,"['n', 'return']","[0.7537059001624584, 0.9937297999858856]",9638.415732099675,None,,,49YA,001,2023_Apr_21_0955,ExactRep-v3-final,2021.2.3,59.98087781089641,
,,,,,,,,,,,,14,0,14,0,,,,,,,,,,,,,,,,,,,,,,,,,,,,,,,,,,,,,,,,,,,,,,,,,9641.04148499947,None,,,,,,,,,,,,,,,,,,,,,,,,,,,,,,,,,,,,,,,,,,,,,,,,,,,,,,,,,mercy,68,15,silent,old,blue,9639.960424900055,None,n,9639.960424900055,None,"['n', 'return']","[0.8009815998375416, 1.0410879999399185]",9639.960424900055,None,,,49YA,001,2023_Apr_21_0955,ExactRep-v3-final,2021.2.3,59.98087781089641,
,,,,,,,,,,,,15,0,15,0,,,,,,,,,,,,,,,,,,,,,,,,,,,,,,,,,,,,,,,,,,,,,,,,,9642.593016400002,None,,,,,,,,,,,,,,,,,,,,,,,,,,,,,,,,,,,,,,,,,,,,,,,,,,,,,,,,,village,211,16,sing,new,white,9641.555268299766,None,y,9641.555268299766,None,"['y', 'return']","[0.7423927001655102, 0.9981840001419187]",9641.555268299766,None,,,49YA,001,2023_Apr_21_0955,ExactRep-v3-final,2021.2.3,59.98087781089641,
,,,,,,,,,,,,16,0,16,0,,,,,,,,,,,,,,,,,,,,,,,,,,,,,,,,,,,,,,,,,,,,,,,,,9644.278030299582,None,,,,,,,,,,,,,,,,,,,,,,,,,,,,,,,,,,,,,,,,,,,,,,,,,,,,,,,,,coast,237,17,sing,new,white,9643.095639099367,None,n,9643.095639099367,None,"['n', 'return']","[0.970045399852097, 1.1459506005048752]",9643.095639099367,None,,,49YA,001,2023_Apr_21_0955,ExactRep-v3-final,2021.2.3,59.98087781089641,
,,,,,,,,,,,,17,0,17,0,,,,,,,,,,,,,,,,,,,,,,,,,,,,,,,,,,,,,,,,,,,,,,,,,9645.729488399811,None,,,,,,,,,,,,,,,,,,,,,,,,,,,,,,,,,,,,,,,,,,,,,,,,,,,,,,,,,paper,141,18,silent,new,blue,9644.797935599461,None,n,9644.797935599461,None,"['n', 'return']","[0.723424999974668, 0.8998250002041459]",9644.797935599461,None,,,49YA,001,2023_Apr_21_0955,ExactRep-v3-final,2021.2.3,59.98087781089641,
,,,,,,,,,,,,18,0,18,0,,,,,,,,,,,,,,,,,,,,,,,,,,,,,,,,,,,,,,,,,,,,,,,,,9647.181090899743,None,,,,,,,,,,,,,,,,,,,,,,,,,,,,,,,,,,,,,,,,,,,,,,,,,,,,,,,,,disease,232,19,aloud,new,red,9646.239610499702,None,n,9646.239610499702,None,"['n', 'return']","[0.6898066001012921, 0.8977394001558423]",9646.239610499702,None,,,49YA,001,2023_Apr_21_0955,ExactRep-v3-final,2021.2.3,59.98087781089641,
,,,,,,,,,,,,19,0,19,0,,,,,,,,,,,,,,,,,,,,,,,,,,,,,,,,,,,,,,,,,,,,,,,,,9648.7158122994,None,,,,,,,,,,,,,,,,,,,,,,,,,,,,,,,,,,,,,,,,,,,,,,,,,,,,,,,,,shoes,98,20,aloud,old,red,9647.703824699856,None,n,9647.703824699856,None,"['n', 'return']","[0.6657418999820948, 0.9695168994367123]",9647.703824699856,None,,,49YA,001,2023_Apr_21_0955,ExactRep-v3-final,2021.2.3,59.98087781089641,
,,,,,,,,,,,,20,0,20,0,,,,,,,,,,,,,,,,,,,,,,,,,,,,,,,,,,,,,,,,,,,,,,,,,9651.16835130006,None,,,,,,,,,,,,,,,,,,,,,,,,,,,,,,,,,,,,,,,,,,,,,,,,,,,,,,,,,mind,46,21,silent,old,blue,9649.224148199894,None,y,9649.224148199894,None,"['y', 'return']","[1.6011872999370098, 1.9053640998899937]",9649.224148199894,None,,,49YA,001,2023_Apr_21_0955,ExactRep-v3-final,2021.2.3,59.98087781089641,
,,,,,,,,,,,,21,0,21,0,,,,,,,,,,,,,,,,,,,,,,,,,,,,,,,,,,,,,,,,,,,,,,,,,9653.804219800048,None,,,,,,,,,,,,,,,,,,,,,,,,,,,,,,,,,,,,,,,,,,,,,,,,,,,,,,,,,person,9,22,sing,old,white,9651.681857599877,None,y,9651.681857599877,None,"['y', 'return']","[1.7116348994895816, 2.0795393995940685]",9651.681857599877,None,,,49YA,001,2023_Apr_21_0955,ExactRep-v3-final,2021.2.3,59.98087781089641,
,,,,,,,,,,,,22,0,22,0,,,,,,,,,,,,,,,,,,,,,,,,,,,,,,,,,,,,,,,,,,,,,,,,,9655.489293899387,None,,,,,,,,,,,,,,,,,,,,,,,,,,,,,,,,,,,,,,,,,,,,,,,,,,,,,,,,,priest,41,23,silent,old,blue,9654.316317799501,None,y,9654.316317799501,None,"['y', 'return']","[0.8292883997783065, 1.1412394996732473]",9654.316317799501,None,,,49YA,001,2023_Apr_21_0955,ExactRep-v3-final,2021.2.3,59.98087781089641,
,,,,,,,,,,,,23,0,23,0,,,,,,,,,,,,,,,,,,,,,,,,,,,,,,,,,,,,,,,,,,,,,,,,,9657.407813799568,None,,,,,,,,,,,,,,,,,,,,,,,,,,,,,,,,,,,,,,,,,,,,,,,,,,,,,,,,,honour,128,24,silent,new,blue,9655.993025300093,None,y,9655.993025300093,None,"['y', 'return']","[1.0963371004909277, 1.3764311000704765]",9655.993025300093,None,,,49YA,001,2023_Apr_21_0955,ExactRep-v3-final,2021.2.3,59.98087781089641,
,,,,,,,,,,,,24,0,24,0,,,,,,,,,,,,,,,,,,,,,,,,,,,,,,,,,,,,,,,,,,,,,,,,,9659.226422399282,None,,,,,,,,,,,,,,,,,,,,,,,,,,,,,,,,,,,,,,,,,,,,,,,,,,,,,,,,,history,32,25,sing,old,white,9657.9161984995,None,y,9657.9161984995,None,"['y', 'return']","[0.9571969993412495, 1.2771278992295265]",9657.9161984995,None,,,49YA,001,2023_Apr_21_0955,ExactRep-v3-final,2021.2.3,59.98087781089641,
,,,,,,,,,,,,25,0,25,0,,,,,,,,,,,,,,,,,,,,,,,,,,,,,,,,,,,,,,,,,,,,,,,,,9660.777879700065,None,,,,,,,,,,,,,,,,,,,,,,,,,,,,,,,,,,,,,,,,,,,,,,,,,,,,,,,,,lad,94,26,aloud,old,red,9659.731930499896,None,y,9659.731930499896,None,"['y', 'return']","[0.733533900231123, 1.0134014002978802]",9659.731930499896,None,,,49YA,001,2023_Apr_21_0955,ExactRep-v3-final,2021.2.3,59.98087781089641,
,,,,,,,,,,,,26,0,26,0,,,,,,,,,,,,,,,,,,,,,,,,,,,,,,,,,,,,,,,,,,,,,,,,,9662.829997099936,None,,,,,,,,,,,,,,,,,,,,,,,,,,,,,,,,,,,,,,,,,,,,,,,,,,,,,,,,,leader,204,27,aloud,new,red,9661.283177199773,None,y,9661.283177199773,None,"['y', 'return']","[1.3103320002555847, 1.510402100160718]",9661.283177199773,None,,,49YA,001,2023_Apr_21_0955,ExactRep-v3-final,2021.2.3,59.98087781089641,
,,,,,,,,,,,,27,0,27,0,,,,,,,,,,,,,,,,,,,,,,,,,,,,,,,,,,,,,,,,,,,,,,,,,9664.231320499443,None,,,,,,,,,,,,,,,,,,,,,,,,,,,,,,,,,,,,,,,,,,,,,,,,,,,,,,,,,chief,76,28,silent,old,blue,9663.340415099636,None,n,9663.340415099636,None,"['n', 'return']","[0.6530353995040059, 0.8531612996011972]",9663.340415099636,None,,,49YA,001,2023_Apr_21_0955,ExactRep-v3-final,2021.2.3,59.98087781089641,
,,,,,,,,,,,,28,0,28,0,,,,,,,,,,,,,,,,,,,,,,,,,,,,,,,,,,,,,,,,,,,,,,,,,9665.866291799583,None,,,,,,,,,,,,,,,,,,,,,,,,,,,,,,,,,,,,,,,,,,,,,,,,,,,,,,,,,effort,73,29,silent,old,blue,9664.746670399792,None,y,9664.746670399792,None,"['y', 'return']","[0.9187911003828049, 1.0867112996056676]",9664.746670399792,None,,,49YA,001,2023_Apr_21_0955,ExactRep-v3-final,2021.2.3,59.98087781089641,
,,,,,,,,,,,,29,0,29,0,,,,,,,,,,,,,,,,,,,,,,,,,,,,,,,,,,,,,,,,,,,,,,,,,9667.901698299684,None,,,,,,,,,,,,,,,,,,,,,,,,,,,,,,,,,,,,,,,,,,,,,,,,,,,,,,,,,seat,90,30,aloud,old,red,9666.374958099797,None,y,9666.374958099797,None,"['y', 'return']","[1.3385270005092025, 1.4824357004836202]",9666.374958099797,None,,,49YA,001,2023_Apr_21_0955,ExactRep-v3-final,2021.2.3,59.98087781089641,
,,,,,,,,,,,,30,0,30,0,,,,,,,,,,,,,,,,,,,,,,,,,,,,,,,,,,,,,,,,,,,,,,,,,9670.220654400066,None,,,,,,,,,,,,,,,,,,,,,,,,,,,,,,,,,,,,,,,,,,,,,,,,,,,,,,,,,law,25,31,sing,old,white,9668.409154099412,None,y,9668.409154099412,None,"['y', 'return']","[1.6083399998024106, 1.7682558996602893]",9668.409154099412,None,,,49YA,001,2023_Apr_21_0955,ExactRep-v3-final,2021.2.3,59.98087781089641,
,,,,,,,,,,,,31,0,31,0,,,,,,,,,,,,,,,,,,,,,,,,,,,,,,,,,,,,,,,,,,,,,,,,,9671.638740600087,None,,,,,,,,,,,,,,,,,,,,,,,,,,,,,,,,,,,,,,,,,,,,,,,,,,,,,,,,,opinion,111,32,aloud,old,red,9670.736091399565,None,y,9670.736091399565,None,"['y', 'return']","[0.6814251998439431, 0.857387600466609]",9670.736091399565,None,,,49YA,001,2023_Apr_21_0955,ExactRep-v3-final,2021.2.3,59.98087781089641,
,,,,,,,,,,,,32,0,32,0,,,,,,,,,,,,,,,,,,,,,,,,,,,,,,,,,,,,,,,,,,,,,,,,,9673.090145999566,None,,,,,,,,,,,,,,,,,,,,,,,,,,,,,,,,,,,,,,,,,,,,,,,,,,,,,,,,,lip,176,33,aloud,new,red,9672.147121799178,None,n,9672.147121799178,None,"['n', 'return']","[0.7183169005438685, 0.9102884000167251]",9672.147121799178,None,,,49YA,001,2023_Apr_21_0955,ExactRep-v3-final,2021.2.3,59.98087781089641,
,,,,,,,,,,,,33,0,33,0,,,,,,,,,,,,,,,,,,,,,,,,,,,,,,,,,,,,,,,,,,,,,,,,,9674.758526999503,None,,,,,,,,,,,,,,,,,,,,,,,,,,,,,,,,,,,,,,,,,,,,,,,,,,,,,,,,,avenue,153,34,silent,new,blue,9673.595493399538,None,n,9673.595493399538,None,"['n', 'return']","[0.9339811997488141, 1.1179518001154065]",9673.595493399538,None,,,49YA,001,2023_Apr_21_0955,ExactRep-v3-final,2021.2.3,59.98087781089641,
,,,,,,,,,,,,34,0,34,0,,,,,,,,,,,,,,,,,,,,,,,,,,,,,,,,,,,,,,,,,,,,,,,,,9676.176588499919,None,,,,,,,,,,,,,,,,,,,,,,,,,,,,,,,,,,,,,,,,,,,,,,,,,,,,,,,,,quality,145,35,silent,new,blue,9675.270287699997,None,n,9675.270287699997,None,"['n', 'return']","[0.699282499961555, 0.8673581006005406]",9675.270287699997,None,,,49YA,001,2023_Apr_21_0955,ExactRep-v3-final,2021.2.3,59.98087781089641,
,,,,,,,,,,,,35,0,35,0,,,,,,,,,,,,,,,,,,,,,,,,,,,,,,,,,,,,,,,,,,,,,,,,,9677.661539699882,None,,,,,,,,,,,,,,,,,,,,,,,,,,,,,,,,,,,,,,,,,,,,,,,,,,,,,,,,,meadow,116,36,aloud,old,red,9676.690517099574,None,y,9676.690517099574,None,"['y', 'return']","[0.671224900521338, 0.9268916007131338]",9676.690517099574,None,,,49YA,001,2023_Apr_21_0955,ExactRep-v3-final,2021.2.3,59.98087781089641,
,,,,,,,,,,,,36,0,36,0,,,,,,,,,,,,,,,,,,,,,,,,,,,,,,,,,,,,,,,,,,,,,,,,,9679.146238699555,None,,,,,,,,,,,,,,,,,,,,,,,,,,,,,,,,,,,,,,,,,,,,,,,,,,,,,,,,,hide,6,37,sing,old,white,9678.176228299737,None,y,9678.176228299737,None,"['y', 'return']","[0.7133763004094362, 0.9293243996798992]",9678.176228299737,None,,,49YA,001,2023_Apr_21_0955,ExactRep-v3-final,2021.2.3,59.98087781089641,
,,,,,,,,,,,,37,0,37,0,,,,,,,,,,,,,,,,,,,,,,,,,,,,,,,,,,,,,,,,,,,,,,,,,9680.647749699652,None,,,,,,,,,,,,,,,,,,,,,,,,,,,,,,,,,,,,,,,,,,,,,,,,,,,,,,,,,party,122,38,silent,new,blue,9679.6557540996,None,n,9679.6557540996,None,"['n', 'return']","[0.7377134002745152, 0.9538076994940639]",9679.6557540996,None,,,49YA,001,2023_Apr_21_0955,ExactRep-v3-final,2021.2.3,59.98087781089641,
,,,,,,,,,,,,38,0,38,0,,,,,,,,,,,,,,,,,,,,,,,,,,,,,,,,,,,,,,,,,,,,,,,,,9682.035898299888,None,,,,,,,,,,,,,,,,,,,,,,,,,,,,,,,,,,,,,,,,,,,,,,,,,,,,,,,,,boy,125,39,silent,new,blue,9681.155538099818,None,n,9681.155538099818,None,"['n', 'return']","[0.5901130000129342, 0.8300331998616457]",9681.155538099818,None,,,49YA,001,2023_Apr_21_0955,ExactRep-v3-final,2021.2.3,59.98087781089641,
,,,,,,,,,,,,39,0,39,0,,,,,,,,,,,,,,,,,,,,,,,,,,,,,,,,,,,,,,,,,,,,,,,,,9685.752918299288,None,,,,,,,,,,,,,,,,,,,,,,,,,,,,,,,,,,,,,,,,,,,,,,,,,,,,,,,,,steam,40,40,silent,old,blue,9682.555728700012,None,y,9682.555728700012,None,"['n', 'y', 'backspace', 'y', 'return']","[0.485882599838078, 0.8938213000074029, 2.0217158999294043, 2.373744999989867, 3.157844099216163]",9682.555728700012,None,,,49YA,001,2023_Apr_21_0955,ExactRep-v3-final,2021.2.3,59.98087781089641,
,,,,,,,,,,,,40,0,40,0,,,,,,,,,,,,,,,,,,,,,,,,,,,,,,,,,,,,,,,,,,,,,,,,,9688.021746399812,None,,,,,,,,,,,,,,,,,,,,,,,,,,,,,,,,,,,,,,,,,,,,,,,,,,,,,,,,,table,229,41,sing,new,white,9686.256906599738,None,n,9686.256906599738,None,"['n', 'return']","[1.4166959002614021, 1.7286453004926443]",9686.256906599738,None,,,49YA,001,2023_Apr_21_0955,ExactRep-v3-final,2021.2.3,59.98087781089641,
,,,,,,,,,,,,41,0,41,0,,,,,,,,,,,,,,,,,,,,,,,,,,,,,,,,,,,,,,,,,,,,,,,,,9689.690097299404,None,,,,,,,,,,,,,,,,,,,,,,,,,,,,,,,,,,,,,,,,,,,,,,,,,,,,,,,,,world,43,42,silent,old,blue,9688.530999599956,None,y,9688.530999599956,None,"['y', 'return']","[0.7985589997842908, 1.1186103001236916]",9688.530999599956,None,,,49YA,001,2023_Apr_21_0955,ExactRep-v3-final,2021.2.3,59.98087781089641,
,,,,,,,,,,,,42,0,42,0,,,,,,,,,,,,,,,,,,,,,,,,,,,,,,,,,,,,,,,,,,,,,,,,,9691.191565199755,None,,,,,,,,,,,,,,,,,,,,,,,,,,,,,,,,,,,,,,,,,,,,,,,,,,,,,,,,,arm,230,43,aloud,new,red,9690.199962299317,None,n,9690.199962299317,None,"['n', 'return']","[0.7936235005035996, 0.9536204999312758]",9690.199962299317,None,,,49YA,001,2023_Apr_21_0955,ExactRep-v3-final,2021.2.3,59.98087781089641,
,,,,,,,,,,,,43,0,43,0,,,,,,,,,,,,,,,,,,,,,,,,,,,,,,,,,,,,,,,,,,,,,,,,,9692.693237499334,None,,,,,,,,,,,,,,,,,,,,,,,,,,,,,,,,,,,,,,,,,,,,,,,,,,,,,,,,,fun,52,44,silent,old,blue,9691.70042059943,None,n,9691.70042059943,None,"['n', 'return']","[0.7330521997064352, 0.9571265997365117]",9691.70042059943,None,,,49YA,001,2023_Apr_21_0955,ExactRep-v3-final,2021.2.3,59.98087781089641,
,,,,,,,,,,,,44,0,44,0,,,,,,,,,,,,,,,,,,,,,,,,,,,,,,,,,,,,,,,,,,,,,,,,,9694.41165149957,None,,,,,,,,,,,,,,,,,,,,,,,,,,,,,,,,,,,,,,,,,,,,,,,,,,,,,,,,,pride,190,45,aloud,new,red,9693.196825599298,None,n,9693.196825599298,None,"['n', 'return']","[0.964810200035572, 1.1726588997989893]",9693.196825599298,None,,,49YA,001,2023_Apr_21_0955,ExactRep-v3-final,2021.2.3,59.98087781089641,
,,,,,,,,,,,,45,0,45,0,,,,,,,,,,,,,,,,,,,,,,,,,,,,,,,,,,,,,,,,,,,,,,,,,9695.913089999929,None,,,,,,,,,,,,,,,,,,,,,,,,,,,,,,,,,,,,,,,,,,,,,,,,,,,,,,,,,storm,192,46,aloud,new,red,9694.921138099395,None,y,9694.921138099395,None,"['y', 'return']","[0.7044748002663255, 0.9524060999974608]",9694.921138099395,None,,,49YA,001,2023_Apr_21_0955,ExactRep-v3-final,2021.2.3,59.98087781089641,
,,,,,,,,,,,,46,0,46,0,,,,,,,,,,,,,,,,,,,,,,,,,,,,,,,,,,,,,,,,,,,,,,,,,9697.58139409963,None,,,,,,,,,,,,,,,,,,,,,,,,,,,,,,,,,,,,,,,,,,,,,,,,,,,,,,,,,hour,163,47,sing,new,white,9696.414886599407,None,n,9696.414886599407,None,"['n', 'return']","[0.8745825001969934, 1.122520999982953]",9696.414886599407,None,,,49YA,001,2023_Apr_21_0955,ExactRep-v3-final,2021.2.3,59.98087781089641,
,,,,,,,,,,,,47,0,47,0,,,,,,,,,,,,,,,,,,,,,,,,,,,,,,,,,,,,,,,,,,,,,,,,,9699.466554000042,None,,,,,,,,,,,,,,,,,,,,,,,,,,,,,,,,,,,,,,,,,,,,,,,,,,,,,,,,,stone,71,48,silent,old,blue,9698.083914799616,None,y,9698.083914799616,None,"['y', 'return']","[1.0216930992901325, 1.3495428999885917]",9698.083914799616,None,,,49YA,001,2023_Apr_21_0955,ExactRep-v3-final,2021.2.3,59.98087781089641,
,,,,,,,,,,,,48,0,48,0,,,,,,,,,,,,,,,,,,,,,,,,,,,,,,,,,,,,,,,,,,,,,,,,,9700.834592299536,None,,,,,,,,,,,,,,,,,,,,,,,,,,,,,,,,,,,,,,,,,,,,,,,,,,,,,,,,,coin,179,49,sing,new,white,9699.9755119998,None,n,9699.9755119998,None,"['n', 'return']","[0.6499541001394391, 0.8261011997237802]",9699.9755119998,None,,,49YA,001,2023_Apr_21_0955,ExactRep-v3-final,2021.2.3,59.98087781089641,
,,,,,,,,,,,,49,0,49,0,,,,,,,,,,,,,,,,,,,,,,,,,,,,,,,,,,,,,,,,,,,,,,,,,9702.603070300072,None,,,,,,,,,,,,,,,,,,,,,,,,,,,,,,,,,,,,,,,,,,,,,,,,,,,,,,,,,doll,118,50,aloud,old,red,9701.34339289926,None,y,9701.34339289926,None,"['y', 'return']","[0.9783539995551109, 1.2180674998089671]",9701.34339289926,None,,,49YA,001,2023_Apr_21_0955,ExactRep-v3-final,2021.2.3,59.98087781089641,
,,,,,,,,,,,,50,0,50,0,,,,,,,,,,,,,,,,,,,,,,,,,,,,,,,,,,,,,,,,,,,,,,,,,9703.971063799225,None,,,,,,,,,,,,,,,,,,,,,,,,,,,,,,,,,,,,,,,,,,,,,,,,,,,,,,,,,author,7,51,sing,old,white,9703.112947899848,None,y,9703.112947899848,None,"['y', 'return']","[0.600535599514842, 0.8244658000767231]",9703.112947899848,None,,,49YA,001,2023_Apr_21_0955,ExactRep-v3-final,2021.2.3,59.98087781089641,
,,,,,,,,,,,,51,0,51,0,,,,,,,,,,,,,,,,,,,,,,,,,,,,,,,,,,,,,,,,,,,,,,,,,9705.305713599548,None,,,,,,,,,,,,,,,,,,,,,,,,,,,,,,,,,,,,,,,,,,,,,,,,,,,,,,,,,judge,37,52,sing,old,white,9704.47162659932,None,y,9704.47162659932,None,"['y', 'return']","[0.578129299916327, 0.7939780000597239]",9704.47162659932,None,,,49YA,001,2023_Apr_21_0955,ExactRep-v3-final,2021.2.3,59.98087781089641,
,,,,,,,,,,,,52,0,52,0,,,,,,,,,,,,,,,,,,,,,,,,,,,,,,,,,,,,,,,,,,,,,,,,,9707.190950999968,None,,,,,,,,,,,,,,,,,,,,,,,,,,,,,,,,,,,,,,,,,,,,,,,,,,,,,,,,,tree,44,53,silent,old,blue,9705.806188999675,None,n,9705.806188999675,None,"['n', 'return']","[1.13950000051409, 1.3393991999328136]",9705.806188999675,None,,,49YA,001,2023_Apr_21_0955,ExactRep-v3-final,2021.2.3,59.98087781089641,
,,,,,,,,,,,,53,0,53,0,,,,,,,,,,,,,,,,,,,,,,,,,,,,,,,,,,,,,,,,,,,,,,,,,9708.592425099574,None,,,,,,,,,,,,,,,,,,,,,,,,,,,,,,,,,,,,,,,,,,,,,,,,,,,,,,,,,thought,67,54,silent,old,blue,9707.700677599758,None,y,9707.700677599758,None,"['y', 'return']","[0.6769920000806451, 0.8530906001105905]",9707.700677599758,None,,,49YA,001,2023_Apr_21_0955,ExactRep-v3-final,2021.2.3,59.98087781089641,
,,,,,,,,,,,,54,0,54,0,,,,,,,,,,,,,,,,,,,,,,,,,,,,,,,,,,,,,,,,,,,,,,,,,9710.310846500099,None,,,,,,,,,,,,,,,,,,,,,,,,,,,,,,,,,,,,,,,,,,,,,,,,,,,,,,,,,flag,12,55,sing,old,white,9709.104697399773,None,n,9709.104697399773,None,"['n', 'return']","[1.0249052997678518, 1.1688623996451497]",9709.104697399773,None,,,49YA,001,2023_Apr_21_0955,ExactRep-v3-final,2021.2.3,59.98087781089641,
,,,,,,,,,,,,55,0,55,0,,,,,,,,,,,,,,,,,,,,,,,,,,,,,,,,,,,,,,,,,,,,,,,,,9711.562051099725,None,,,,,,,,,,,,,,,,,,,,,,,,,,,,,,,,,,,,,,,,,,,,,,,,,,,,,,,,,meeting,61,56,silent,old,blue,9710.812013799325,None,n,9710.812013799325,None,"['n', 'return']","[0.5736715998500586, 0.7175072999671102]",9710.812013799325,None,,,49YA,001,2023_Apr_21_0955,ExactRep-v3-final,2021.2.3,59.98087781089641,
,,,,,,,,,,,,56,0,56,0,,,,,,,,,,,,,,,,,,,,,,,,,,,,,,,,,,,,,,,,,,,,,,,,,9713.230323199183,None,,,,,,,,,,,,,,,,,,,,,,,,,,,,,,,,,,,,,,,,,,,,,,,,,,,,,,,,,palace,196,57,aloud,new,red,9712.07191519998,None,n,9712.07191519998,None,"['n', 'return']","[0.9457085998728871, 1.1136290999129415]",9712.07191519998,None,,,49YA,001,2023_Apr_21_0955,ExactRep-v3-final,2021.2.3,59.98087781089641,
,,,,,,,,,,,,57,0,57,0,,,,,,,,,,,,,,,,,,,,,,,,,,,,,,,,,,,,,,,,,,,,,,,,,9714.581674699672,None,,,,,,,,,,,,,,,,,,,,,,,,,,,,,,,,,,,,,,,,,,,,,,,,,,,,,,,,,college,16,58,sing,old,white,9713.740097799338,None,y,9713.740097799338,None,"['y', 'return']","[0.5494665000587702, 0.805506500415504]",9713.740097799338,None,,,49YA,001,2023_Apr_21_0955,ExactRep-v3-final,2021.2.3,59.98087781089641,
,,,,,,,,,,,,58,0,58,0,,,,,,,,,,,,,,,,,,,,,,,,,,,,,,,,,,,,,,,,,,,,,,,,,9715.933021399193,None,,,,,,,,,,,,,,,,,,,,,,,,,,,,,,,,,,,,,,,,,,,,,,,,,,,,,,,,,board,197,59,sing,new,white,9715.090740999207,None,y,9715.090740999207,None,"['y', 'return']","[0.6069718999788165, 0.79876449983567]",9715.090740999207,None,,,49YA,001,2023_Apr_21_0955,ExactRep-v3-final,2021.2.3,59.98087781089641,
,,,,,,,,,,,,59,0,59,0,,,,,,,,,,,,,,,,,,,,,,,,,,,,,,,,,,,,,,,,,,,,,,,,,9717.58468799945,None,,,,,,,,,,,,,,,,,,,,,,,,,,,,,,,,,,,,,,,,,,,,,,,,,,,,,,,,,doctor,107,60,aloud,old,red,9716.442463899963,None,y,9716.442463899963,None,"['y', 'return']","[0.9031151998788118, 1.1031651999801397]",9716.442463899963,None,,,49YA,001,2023_Apr_21_0955,ExactRep-v3-final,2021.2.3,59.98087781089641,
,,,,,,,,,,,,60,0,60,0,,,,,,,,,,,,,,,,,,,,,,,,,,,,,,,,,,,,,,,,,,,,,,,,,9718.902665199712,None,,,,,,,,,,,,,,,,,,,,,,,,,,,,,,,,,,,,,,,,,,,,,,,,,,,,,,,,,style,17,61,sing,old,white,9718.093155900016,None,y,9718.093155900016,None,"['y', 'return']","[0.5563628999516368, 0.7643860001116991]",9718.093155900016,None,,,49YA,001,2023_Apr_21_0955,ExactRep-v3-final,2021.2.3,59.98087781089641,
,,,,,,,,,,,,61,0,61,0,,,,,,,,,,,,,,,,,,,,,,,,,,,,,,,,,,,,,,,,,,,,,,,,,9720.204008199275,None,,,,,,,,,,,,,,,,,,,,,,,,,,,,,,,,,,,,,,,,,,,,,,,,,,,,,,,,,custom,18,62,sing,old,white,9719.410025499761,None,y,9719.410025499761,None,"['y', 'return']","[0.5515955993905663, 0.7594195995479822]",9719.410025499761,None,,,49YA,001,2023_Apr_21_0955,ExactRep-v3-final,2021.2.3,59.98087781089641,
,,,,,,,,,,,,62,0,62,0,,,,,,,,,,,,,,,,,,,,,,,,,,,,,,,,,,,,,,,,,,,,,,,,,9723.173634999432,None,,,,,,,,,,,,,,,,,,,,,,,,,,,,,,,,,,,,,,,,,,,,,,,,,,,,,,,,,king,11,63,sing,old,white,9720.717791900039,None,y,9720.717791900039,None,"['n', 'backspace', 'y', 'return']","[0.6277418006211519, 2.0436962004750967, 2.1796805998310447, 2.4198222998529673]",9720.717791900039,None,,,49YA,001,2023_Apr_21_0955,ExactRep-v3-final,2021.2.3,59.98087781089641,
,,,,,,,,,,,,63,0,63,0,,,,,,,,,,,,,,,,,,,,,,,,,,,,,,,,,,,,,,,,,,,,,,,,,9724.70847179927,None,,,,,,,,,,,,,,,,,,,,,,,,,,,,,,,,,,,,,,,,,,,,,,,,,,,,,,,,,winter,45,64,silent,old,blue,9723.68482089974,None,y,9723.68482089974,None,"['y', 'return']","[0.7806156007573009, 0.9806322008371353]",9723.68482089974,None,,,49YA,001,2023_Apr_21_0955,ExactRep-v3-final,2021.2.3,59.98087781089641,
,,,,,,,,,,,,64,0,64,0,,,,,,,,,,,,,,,,,,,,,,,,,,,,,,,,,,,,,,,,,,,,,,,,,9726.22672369983,None,,,,,,,,,,,,,,,,,,,,,,,,,,,,,,,,,,,,,,,,,,,,,,,,,,,,,,,,,wine,172,65,aloud,new,red,9725.220875599422,None,n,9725.220875599422,None,"['n', 'return']","[0.7328083999454975, 0.9646311001852155]",9725.220875599422,None,,,49YA,001,2023_Apr_21_0955,ExactRep-v3-final,2021.2.3,59.98087781089641,
,,,,,,,,,,,,65,0,65,0,,,,,,,,,,,,,,,,,,,,,,,,,,,,,,,,,,,,,,,,,,,,,,,,,9727.678365199827,None,,,,,,,,,,,,,,,,,,,,,,,,,,,,,,,,,,,,,,,,,,,,,,,,,,,,,,,,,life,171,66,sing,new,white,9726.73530169949,None,n,9726.73530169949,None,"['n', 'return']","[0.6661291997879744, 0.9061059998348355]",9726.73530169949,None,,,49YA,001,2023_Apr_21_0955,ExactRep-v3-final,2021.2.3,59.98087781089641,
,,,,,,,,,,,,66,0,66,0,,,,,,,,,,,,,,,,,,,,,,,,,,,,,,,,,,,,,,,,,,,,,,,,,9728.929389699362,None,,,,,,,,,,,,,,,,,,,,,,,,,,,,,,,,,,,,,,,,,,,,,,,,,,,,,,,,,moral,20,67,sing,old,white,9728.178755899891,None,y,9728.178755899891,None,"['y', 'return']","[0.47874809987843037, 0.7028545998036861]",9728.178755899891,None,,,49YA,001,2023_Apr_21_0955,ExactRep-v3-final,2021.2.3,59.98087781089641,
,,,,,,,,,,,,67,0,67,0,,,,,,,,,,,,,,,,,,,,,,,,,,,,,,,,,,,,,,,,,,,,,,,,,9730.514339399524,None,,,,,,,,,,,,,,,,,,,,,,,,,,,,,,,,,,,,,,,,,,,,,,,,,,,,,,,,,dawn,48,68,silent,old,blue,9729.43882519938,None,y,9729.43882519938,None,"['y', 'return']","[0.8187405997887254, 1.042697099968791]",9729.43882519938,None,,,49YA,001,2023_Apr_21_0955,ExactRep-v3-final,2021.2.3,59.98087781089641,
,,,,,,,,,,,,68,0,68,0,,,,,,,,,,,,,,,,,,,,,,,,,,,,,,,,,,,,,,,,,,,,,,,,,9731.949070899747,None,,,,,,,,,,,,,,,,,,,,,,,,,,,,,,,,,,,,,,,,,,,,,,,,,,,,,,,,,advice,85,69,aloud,old,red,9731.02552519925,None,y,9731.02552519925,None,"['y', 'return']","[0.6638869000598788, 0.8799390997737646]",9731.02552519925,None,,,49YA,001,2023_Apr_21_0955,ExactRep-v3-final,2021.2.3,59.98087781089641,
,,,,,,,,,,,,69,0,69,0,,,,,,,,,,,,,,,,,,,,,,,,,,,,,,,,,,,,,,,,,,,,,,,,,9733.267005699687,None,,,,,,,,,,,,,,,,,,,,,,,,,,,,,,,,,,,,,,,,,,,,,,,,,,,,,,,,,cotton,106,70,aloud,old,red,9732.451880199835,None,y,9732.451880199835,None,"['y', 'return']","[0.5016136998310685, 0.7736644996330142]",9732.451880199835,None,,,49YA,001,2023_Apr_21_0955,ExactRep-v3-final,2021.2.3,59.98087781089641,
,,,,,,,,,,,,70,0,70,0,,,,,,,,,,,,,,,,,,,,,,,,,,,,,,,,,,,,,,,,,,,,,,,,,9734.801972899586,None,,,,,,,,,,,,,,,,,,,,,,,,,,,,,,,,,,,,,,,,,,,,,,,,,,,,,,,,,heaven,218,71,aloud,new,red,9733.77320470009,None,n,9733.77320470009,None,"['n', 'return']","[0.7962047001346946, 0.9963584002107382]",9733.77320470009,None,,,49YA,001,2023_Apr_21_0955,ExactRep-v3-final,2021.2.3,59.98087781089641,
,,,,,,,,,,,,71,0,71,0,,,,,,,,,,,,,,,,,,,,,,,,,,,,,,,,,,,,,,,,,,,,,,,,,9736.186668099836,None,,,,,,,,,,,,,,,,,,,,,,,,,,,,,,,,,,,,,,,,,,,,,,,,,,,,,,,,,engine,201,72,sing,new,white,9735.312658799812,None,n,9735.312658799812,None,"['n', 'return']","[0.6087337993085384, 0.840935199521482]",9735.312658799812,None,,,49YA,001,2023_Apr_21_0955,ExactRep-v3-final,2021.2.3,59.98087781089641,
,,,,,,,,,,,,72,0,72,0,,,,,,,,,,,,,,,,,,,,,,,,,,,,,,,,,,,,,,,,,,,,,,,,,9737.588168099523,None,,,,,,,,,,,,,,,,,,,,,,,,,,,,,,,,,,,,,,,,,,,,,,,,,,,,,,,,,pipe,184,73,aloud,new,red,9736.699101800099,None,n,9736.699101800099,None,"['n', 'return']","[0.6223577000200748, 0.8543754005804658]",9736.699101800099,None,,,49YA,001,2023_Apr_21_0955,ExactRep-v3-final,2021.2.3,59.98087781089641,
,,,,,,,,,,,,73,0,73,0,,,,,,,,,,,,,,,,,,,,,,,,,,,,,,,,,,,,,,,,,,,,,,,,,9740.824659300037,None,,,,,,,,,,,,,,,,,,,,,,,,,,,,,,,,,,,,,,,,,,,,,,,,,,,,,,,,,cottage,109,74,aloud,old,red,9738.096131999977,None,y,9738.096131999977,None,"['n', 'backspace', 'y', 'return']","[1.4734265003353357, 2.3695294996723533, 2.4895606003701687, 2.689426699653268]",9738.096131999977,None,,,49YA,001,2023_Apr_21_0955,ExactRep-v3-final,2021.2.3,59.98087781089641,
,,,,,,,,,,,,74,0,74,0,,,,,,,,,,,,,,,,,,,,,,,,,,,,,,,,,,,,,,,,,,,,,,,,,9743.610713999718,None,,,,,,,,,,,,,,,,,,,,,,,,,,,,,,,,,,,,,,,,,,,,,,,,,,,,,,,,,shock,137,75,silent,new,blue,9741.331224399619,None,y,9741.331224399619,None,"['y', 'return']","[2.054352200590074, 2.2383709996938705]",9741.331224399619,None,,,49YA,001,2023_Apr_21_0955,ExactRep-v3-final,2021.2.3,59.98087781089641,
,,,,,,,,,,,,75,0,75,0,,,,,,,,,,,,,,,,,,,,,,,,,,,,,,,,,,,,,,,,,,,,,,,,,9746.196636099368,None,,,,,,,,,,,,,,,,,,,,,,,,,,,,,,,,,,,,,,,,,,,,,,,,,,,,,,,,,lord,31,76,sing,old,white,9744.119520599954,None,n,9744.119520599954,None,"['n', 'return']","[1.890004999935627, 2.0420153997838497]",9744.119520599954,None,,,49YA,001,2023_Apr_21_0955,ExactRep-v3-final,2021.2.3,59.98087781089641,
,,,,,,,,,,,,76,0,76,0,,,,,,,,,,,,,,,,,,,,,,,,,,,,,,,,,,,,,,,,,,,,,,,,,9747.96503229998,None,,,,,,,,,,,,,,,,,,,,,,,,,,,,,,,,,,,,,,,,,,,,,,,,,,,,,,,,,iron,224,77,aloud,new,red,9746.705120000057,None,n,9746.705120000057,None,"['n', 'return']","[1.0723958006128669, 1.2245509000495076]",9746.705120000057,None,,,49YA,001,2023_Apr_21_0955,ExactRep-v3-final,2021.2.3,59.98087781089641,
,,,,,,,,,,,,77,0,77,0,,,,,,,,,,,,,,,,,,,,,,,,,,,,,,,,,,,,,,,,,,,,,,,,,9750.10056469962,None,,,,,,,,,,,,,,,,,,,,,,,,,,,,,,,,,,,,,,,,,,,,,,,,,,,,,,,,,shadow,135,78,silent,new,blue,9748.469930499792,None,y,9748.469930499792,None,"['y', 'return']","[1.2436151998117566, 1.5876585002988577]",9748.469930499792,None,,,49YA,001,2023_Apr_21_0955,ExactRep-v3-final,2021.2.3,59.98087781089641,
,,,,,,,,,,,,78,0,78,0,,,,,,,,,,,,,,,,,,,,,,,,,,,,,,,,,,,,,,,,,,,,,,,,,9751.535522199236,None,,,,,,,,,,,,,,,,,,,,,,,,,,,,,,,,,,,,,,,,,,,,,,,,,,,,,,,,,blood,91,79,aloud,old,red,9750.604908700101,None,y,9750.604908700101,None,"['y', 'return']","[0.6528223007917404, 0.8847561003640294]",9750.604908700101,None,,,49YA,001,2023_Apr_21_0955,ExactRep-v3-final,2021.2.3,59.98087781089641,
,,,,,,,,,,,,79,0,79,0,,,,,,,,,,,,,,,,,,,,,,,,,,,,,,,,,,,,,,,,,,,,,,,,,9752.936721899547,None,,,,,,,,,,,,,,,,,,,,,,,,,,,,,,,,,,,,,,,,,,,,,,,,,,,,,,,,,ship,102,80,aloud,old,red,9752.042184999213,None,y,9752.042184999213,None,"['y', 'return']","[0.6553250001743436, 0.8553774002939463]",9752.042184999213,None,,,49YA,001,2023_Apr_21_0955,ExactRep-v3-final,2021.2.3,59.98087781089641,
,,,,,,,,,,,,80,0,80,0,,,,,,,,,,,,,,,,,,,,,,,,,,,,,,,,,,,,,,,,,,,,,,,,,9754.488229299895,None,,,,,,,,,,,,,,,,,,,,,,,,,,,,,,,,,,,,,,,,,,,,,,,,,,,,,,,,,boulder,124,81,silent,new,blue,9753.440782600082,None,n,9753.440782600082,None,"['n', 'return']","[0.7528766002506018, 1.0008462006226182]",9753.440782600082,None,,,49YA,001,2023_Apr_21_0955,ExactRep-v3-final,2021.2.3,59.98087781089641,
,,,,,,,,,,,,81,0,81,0,,,,,,,,,,,,,,,,,,,,,,,,,,,,,,,,,,,,,,,,,,,,,,,,,9755.889615099877,None,,,,,,,,,,,,,,,,,,,,,,,,,,,,,,,,,,,,,,,,,,,,,,,,,,,,,,,,,student,178,82,aloud,new,red,9754.993564199656,None,n,9754.993564199656,None,"['n', 'return']","[0.6240614000707865, 0.8640230000019073]",9754.993564199656,None,,,49YA,001,2023_Apr_21_0955,ExactRep-v3-final,2021.2.3,59.98087781089641,
,,,,,,,,,,,,82,0,82,0,,,,,,,,,,,,,,,,,,,,,,,,,,,,,,,,,,,,,,,,,,,,,,,,,9757.475697400048,None,,,,,,,,,,,,,,,,,,,,,,,,,,,,,,,,,,,,,,,,,,,,,,,,,,,,,,,,,girl,88,83,aloud,old,red,9756.398707899265,None,n,9756.398707899265,None,"['n', 'return']","[0.7070075999945402, 1.0347678996622562]",9756.398707899265,None,,,49YA,001,2023_Apr_21_0955,ExactRep-v3-final,2021.2.3,59.98087781089641,
,,,,,,,,,,,,83,0,83,0,,,,,,,,,,,,,,,,,,,,,,,,,,,,,,,,,,,,,,,,,,,,,,,,,9758.909342699684,None,,,,,,,,,,,,,,,,,,,,,,,,,,,,,,,,,,,,,,,,,,,,,,,,,,,,,,,,,street,213,84,sing,new,white,9757.981744899414,None,n,9757.981744899414,None,"['n', 'return']","[0.707786999642849, 0.8837184999138117]",9757.981744899414,None,,,49YA,001,2023_Apr_21_0955,ExactRep-v3-final,2021.2.3,59.98087781089641,
,,,,,,,,,,,,84,0,84,0,,,,,,,,,,,,,,,,,,,,,,,,,,,,,,,,,,,,,,,,,,,,,,,,,9760.394153599627,None,,,,,,,,,,,,,,,,,,,,,,,,,,,,,,,,,,,,,,,,,,,,,,,,,,,,,,,,,letter,133,85,silent,new,blue,9759.418020199984,None,n,9759.418020199984,None,"['n', 'return']","[0.7676066998392344, 0.935644700191915]",9759.418020199984,None,,,49YA,001,2023_Apr_21_0955,ExactRep-v3-final,2021.2.3,59.98087781089641,
,,,,,,,,,,,,85,0,85,0,,,,,,,,,,,,,,,,,,,,,,,,,,,,,,,,,,,,,,,,,,,,,,,,,9762.796557599679,None,,,,,,,,,,,,,,,,,,,,,,,,,,,,,,,,,,,,,,,,,,,,,,,,,,,,,,,,,nail,113,86,aloud,old,red,9760.897314999253,None,y,9760.897314999253,None,"['n', 'backspace', 'y', 'return']","[0.6642665006220341, 1.4804170997813344, 1.5763212004676461, 1.8641952006146312]",9760.897314999253,None,,,49YA,001,2023_Apr_21_0955,ExactRep-v3-final,2021.2.3,59.98087781089641,
,,,,,,,,,,,,86,0,86,0,,,,,,,,,,,,,,,,,,,,,,,,,,,,,,,,,,,,,,,,,,,,,,,,,9764.565076800063,None,,,,,,,,,,,,,,,,,,,,,,,,,,,,,,,,,,,,,,,,,,,,,,,,,,,,,,,,,cat,130,87,silent,new,blue,9763.305470000021,None,n,9763.305470000021,None,"['n', 'return']","[0.9761862996965647, 1.2160333003848791]",9763.305470000021,None,,,49YA,001,2023_Apr_21_0955,ExactRep-v3-final,2021.2.3,59.98087781089641,
,,,,,,,,,,,,87,0,87,0,,,,,,,,,,,,,,,,,,,,,,,,,,,,,,,,,,,,,,,,,,,,,,,,,9766.900692499243,None,,,,,,,,,,,,,,,,,,,,,,,,,,,,,,,,,,,,,,,,,,,,,,,,,,,,,,,,,door,95,88,aloud,old,red,9765.07610299997,None,n,9765.07610299997,None,"['n', 'return']","[1.5734219998121262, 1.7815375998616219]",9765.07610299997,None,,,49YA,001,2023_Apr_21_0955,ExactRep-v3-final,2021.2.3,59.98087781089641,
,,,,,,,,,,,,88,0,88,0,,,,,,,,,,,,,,,,,,,,,,,,,,,,,,,,,,,,,,,,,,,,,,,,,9768.252017299645,None,,,,,,,,,,,,,,,,,,,,,,,,,,,,,,,,,,,,,,,,,,,,,,,,,,,,,,,,,body,157,89,silent,new,blue,9767.409540299326,None,n,9767.409540299326,None,"['n', 'return']","[0.6079791998490691, 0.8079538997262716]",9767.409540299326,None,,,49YA,001,2023_Apr_21_0955,ExactRep-v3-final,2021.2.3,59.98087781089641,
,,,,,,,,,,,,89,0,89,0,,,,,,,,,,,,,,,,,,,,,,,,,,,,,,,,,,,,,,,,,,,,,,,,,9769.7869504001,None,,,,,,,,,,,,,,,,,,,,,,,,,,,,,,,,,,,,,,,,,,,,,,,,,,,,,,,,,troops,2,90,sing,old,white,9768.753068499267,None,y,9768.753068499267,None,"['y', 'return']","[0.7608318999409676, 0.9926074994727969]",9768.753068499267,None,,,49YA,001,2023_Apr_21_0955,ExactRep-v3-final,2021.2.3,59.98087781089641,
,,,,,,,,,,,,90,0,90,0,,,,,,,,,,,,,,,,,,,,,,,,,,,,,,,,,,,,,,,,,,,,,,,,,9771.605391799472,None,,,,,,,,,,,,,,,,,,,,,,,,,,,,,,,,,,,,,,,,,,,,,,,,,,,,,,,,,chair,175,91,sing,new,white,9770.297567799687,None,n,9770.297567799687,None,"['n', 'return']","[1.0319948997348547, 1.2639151001349092]",9770.297567799687,None,,,49YA,001,2023_Apr_21_0955,ExactRep-v3-final,2021.2.3,59.98087781089641,
,,,,,,,,,,,,91,0,91,0,,,,,,,,,,,,,,,,,,,,,,,,,,,,,,,,,,,,,,,,,,,,,,,,,9773.023536799476,None,,,,,,,,,,,,,,,,,,,,,,,,,,,,,,,,,,,,,,,,,,,,,,,,,,,,,,,,,square,86,92,aloud,old,red,9772.116120900027,None,n,9772.116120900027,None,"['n', 'return']","[0.7175171002745628, 0.8615405997261405]",9772.116120900027,None,,,49YA,001,2023_Apr_21_0955,ExactRep-v3-final,2021.2.3,59.98087781089641,
,,,,,,,,,,,,92,0,92,0,,,,,,,,,,,,,,,,,,,,,,,,,,,,,,,,,,,,,,,,,,,,,,,,,9774.324777299538,None,,,,,,,,,,,,,,,,,,,,,,,,,,,,,,,,,,,,,,,,,,,,,,,,,,,,,,,,,memory,92,93,aloud,old,red,9773.531544899568,None,y,9773.531544899568,None,"['y', 'return']","[0.5819765999913216, 0.7581243999302387]",9773.531544899568,None,,,49YA,001,2023_Apr_21_0955,ExactRep-v3-final,2021.2.3,59.98087781089641,
,,,,,,,,,,,,93,0,93,0,,,,,,,,,,,,,,,,,,,,,,,,,,,,,,,,,,,,,,,,,,,,,,,,,9775.77628669981,None,,,,,,,,,,,,,,,,,,,,,,,,,,,,,,,,,,,,,,,,,,,,,,,,,,,,,,,,,flood,64,94,silent,old,blue,9774.8328096997,None,y,9774.8328096997,None,"['y', 'return']","[0.7528302995488048, 0.8967059003189206]",9774.8328096997,None,,,49YA,001,2023_Apr_21_0955,ExactRep-v3-final,2021.2.3,59.98087781089641,
,,,,,,,,,,,,94,0,94,0,,,,,,,,,,,,,,,,,,,,,,,,,,,,,,,,,,,,,,,,,,,,,,,,,9777.478041099384,None,,,,,,,,,,,,,,,,,,,,,,,,,,,,,,,,,,,,,,,,,,,,,,,,,,,,,,,,,truth,55,95,silent,old,blue,9776.286353100091,None,y,9776.286353100091,None,"['y', 'return']","[1.0031983004882932, 1.155312200076878]",9776.286353100091,None,,,49YA,001,2023_Apr_21_0955,ExactRep-v3-final,2021.2.3,59.98087781089641,
,,,,,,,,,,,,95,0,95,0,,,,,,,,,,,,,,,,,,,,,,,,,,,,,,,,,,,,,,,,,,,,,,,,,9778.762766699307,None,,,,,,,,,,,,,,,,,,,,,,,,,,,,,,,,,,,,,,,,,,,,,,,,,,,,,,,,,shore,4,96,sing,old,white,9777.983311899938,None,y,9777.983311899938,None,"['y', 'return']","[0.6105495002120733, 0.7463250998407602]",9777.983311899938,None,,,49YA,001,2023_Apr_21_0955,ExactRep-v3-final,2021.2.3,59.98087781089641,
,,,,,,,,,,,,96,0,96,0,,,,,,,,,,,,,,,,,,,,,,,,,,,,,,,,,,,,,,,,,,,,,,,,,9780.113952700049,None,,,,,,,,,,,,,,,,,,,,,,,,,,,,,,,,,,,,,,,,,,,,,,,,,,,,,,,,,month,207,97,sing,new,white,9779.269096099772,None,n,9779.269096099772,None,"['n', 'return']","[0.6526728998869658, 0.8126254007220268]",9779.269096099772,None,,,49YA,001,2023_Apr_21_0955,ExactRep-v3-final,2021.2.3,59.98087781089641,
,,,,,,,,,,,,97,0,97,0,,,,,,,,,,,,,,,,,,,,,,,,,,,,,,,,,,,,,,,,,,,,,,,,,9781.531943299808,None,,,,,,,,,,,,,,,,,,,,,,,,,,,,,,,,,,,,,,,,,,,,,,,,,,,,,,,,,bar,147,98,silent,new,blue,9780.626458199695,None,n,9780.626458199695,None,"['n', 'return']","[0.6311088996008039, 0.8631645999848843]",9780.626458199695,None,,,49YA,001,2023_Apr_21_0955,ExactRep-v3-final,2021.2.3,59.98087781089641,
,,,,,,,,,,,,98,0,98,0,,,,,,,,,,,,,,,,,,,,,,,,,,,,,,,,,,,,,,,,,,,,,,,,,9782.91673219949,None,,,,,,,,,,,,,,,,,,,,,,,,,,,,,,,,,,,,,,,,,,,,,,,,,,,,,,,,,passion,200,99,aloud,new,red,9782.046276299283,None,y,9782.046276299283,None,"['y', 'return']","[0.6433780994266272, 0.8353928998112679]",9782.046276299283,None,,,49YA,001,2023_Apr_21_0955,ExactRep-v3-final,2021.2.3,59.98087781089641,
,,,,,,,,,,,,99,0,99,0,,,,,,,,,,,,,,,,,,,,,,,,,,,,,,,,,,,,,,,,,,,,,,,,,9784.234740999527,None,,,,,,,,,,,,,,,,,,,,,,,,,,,,,,,,,,,,,,,,,,,,,,,,,,,,,,,,,salary,126,100,silent,new,blue,9783.425747099333,None,n,9783.425747099333,None,"['n', 'return']","[0.6079092994332314, 0.7758419997990131]",9783.425747099333,None,,,49YA,001,2023_Apr_21_0955,ExactRep-v3-final,2021.2.3,59.98087781089641,
,,,,,,,,,,,,100,0,100,0,,,,,,,,,,,,,,,,,,,,,,,,,,,,,,,,,,,,,,,,,,,,,,,,,9785.702810399234,None,,,,,,,,,,,,,,,,,,,,,,,,,,,,,,,,,,,,,,,,,,,,,,,,,,,,,,,,,crime,110,101,aloud,old,red,9784.74281429965,None,n,9784.74281429965,None,"['n', 'return']","[0.6828915998339653, 0.9151267996057868]",9784.74281429965,None,,,49YA,001,2023_Apr_21_0955,ExactRep-v3-final,2021.2.3,59.98087781089641,
,,,,,,,,,,,,101,0,101,0,,,,,,,,,,,,,,,,,,,,,,,,,,,,,,,,,,,,,,,,,,,,,,,,,9786.93742839992,None,,,,,,,,,,,,,,,,,,,,,,,,,,,,,,,,,,,,,,,,,,,,,,,,,,,,,,,,,star,166,102,aloud,new,red,9786.20462029986,None,n,9786.20462029986,None,"['n', 'return']","[0.5249389000236988, 0.701162800192833]",9786.20462029986,None,,,49YA,001,2023_Apr_21_0955,ExactRep-v3-final,2021.2.3,59.98087781089641,
,,,,,,,,,,,,102,0,102,0,,,,,,,,,,,,,,,,,,,,,,,,,,,,,,,,,,,,,,,,,,,,,,,,,9789.256351999938,None,,,,,,,,,,,,,,,,,,,,,,,,,,,,,,,,,,,,,,,,,,,,,,,,,,,,,,,,,butter,183,103,sing,new,white,9787.446191200055,None,n,9787.446191200055,None,"['y', 'backspace', 'n', 'return']","[0.5074222004041076, 1.251579999923706, 1.587563299573958, 1.7634974997490644]",9787.446191200055,None,,,49YA,001,2023_Apr_21_0955,ExactRep-v3-final,2021.2.3,59.98087781089641,
,,,,,,,,,,,,103,0,103,0,,,,,,,,,,,,,,,,,,,,,,,,,,,,,,,,,,,,,,,,,,,,,,,,,9791.041493199766,None,,,,,,,,,,,,,,,,,,,,,,,,,,,,,,,,,,,,,,,,,,,,,,,,,,,,,,,,,earth,209,104,sing,new,white,9789.762886099517,None,n,9789.762886099517,None,"['n', 'return']","[1.1027151998132467, 1.2466876991093159]",9789.762886099517,None,,,49YA,001,2023_Apr_21_0955,ExactRep-v3-final,2021.2.3,59.98087781089641,
,,,,,,,,,,,,104,0,104,0,,,,,,,,,,,,,,,,,,,,,,,,,,,,,,,,,,,,,,,,,,,,,,,,,9792.509605499916,None,,,,,,,,,,,,,,,,,,,,,,,,,,,,,,,,,,,,,,,,,,,,,,,,,,,,,,,,,rock,148,105,silent,new,blue,9791.555440999568,None,n,9791.555440999568,None,"['n', 'return']","[0.7423355001956224, 0.9185519004240632]",9791.555440999568,None,,,49YA,001,2023_Apr_21_0955,ExactRep-v3-final,2021.2.3,59.98087781089641,
,,,,,,,,,,,,105,0,105,0,,,,,,,,,,,,,,,,,,,,,,,,,,,,,,,,,,,,,,,,,,,,,,,,,9793.761906399392,None,,,,,,,,,,,,,,,,,,,,,,,,,,,,,,,,,,,,,,,,,,,,,,,,,,,,,,,,,prison,156,106,silent,new,blue,9793.013332999311,None,n,9793.013332999311,None,"['n', 'return']","[0.580278099514544, 0.70035669952631]",9793.013332999311,None,,,49YA,001,2023_Apr_21_0955,ExactRep-v3-final,2021.2.3,59.98087781089641,
,,,,,,,,,,,,106,0,106,0,,,,,,,,,,,,,,,,,,,,,,,,,,,,,,,,,,,,,,,,,,,,,,,,,9795.178969599307,None,,,,,,,,,,,,,,,,,,,,,,,,,,,,,,,,,,,,,,,,,,,,,,,,,,,,,,,,,wheat,225,107,sing,new,white,9794.270547699183,None,n,9794.270547699183,None,"['n', 'return']","[0.6991210002452135, 0.8753103008493781]",9794.270547699183,None,,,49YA,001,2023_Apr_21_0955,ExactRep-v3-final,2021.2.3,59.98087781089641,
,,,,,,,,,,,,107,0,107,0,,,,,,,,,,,,,,,,,,,,,,,,,,,,,,,,,,,,,,,,,,,,,,,,,9796.680406499654,None,,,,,,,,,,,,,,,,,,,,,,,,,,,,,,,,,,,,,,,,,,,,,,,,,,,,,,,,,form,228,108,aloud,new,red,9795.69146839995,None,n,9795.69146839995,None,"['n', 'return']","[0.7259769001975656, 0.9423174997791648]",9795.69146839995,None,,,49YA,001,2023_Apr_21_0955,ExactRep-v3-final,2021.2.3,59.98087781089641,
,,,,,,,,,,,,108,0,108,0,,,,,,,,,,,,,,,,,,,,,,,,,,,,,,,,,,,,,,,,,,,,,,,,,9798.081840899773,None,,,,,,,,,,,,,,,,,,,,,,,,,,,,,,,,,,,,,,,,,,,,,,,,,,,,,,,,,slave,26,109,sing,old,white,9797.1917196,None,n,9797.1917196,None,"['n', 'return']","[0.6258530002087355, 0.849894399754703]",9797.1917196,None,,,49YA,001,2023_Apr_21_0955,ExactRep-v3-final,2021.2.3,59.98087781089641,
,,,,,,,,,,,,109,0,109,0,,,,,,,,,,,,,,,,,,,,,,,,,,,,,,,,,,,,,,,,,,,,,,,,,9799.54999239929,None,,,,,,,,,,,,,,,,,,,,,,,,,,,,,,,,,,,,,,,,,,,,,,,,,,,,,,,,,freedom,117,110,aloud,old,red,9798.595737999305,None,n,9798.595737999305,None,"['n', 'return']","[0.66978570073843, 0.9097587000578642]",9798.595737999305,None,,,49YA,001,2023_Apr_21_0955,ExactRep-v3-final,2021.2.3,59.98087781089641,
,,,,,,,,,,,,110,0,110,0,,,,,,,,,,,,,,,,,,,,,,,,,,,,,,,,,,,,,,,,,,,,,,,,,9801.001590400003,None,,,,,,,,,,,,,,,,,,,,,,,,,,,,,,,,,,,,,,,,,,,,,,,,,,,,,,,,,duty,115,111,aloud,old,red,9800.051751699299,None,n,9800.051751699299,None,"['n', 'return']","[0.7338907001540065, 0.9098279997706413]",9800.051751699299,None,,,49YA,001,2023_Apr_21_0955,ExactRep-v3-final,2021.2.3,59.98087781089641,
,,,,,,,,,,,,111,0,111,0,,,,,,,,,,,,,,,,,,,,,,,,,,,,,,,,,,,,,,,,,,,,,,,,,9802.269349999726,None,,,,,,,,,,,,,,,,,,,,,,,,,,,,,,,,,,,,,,,,,,,,,,,,,,,,,,,,,glory,131,112,silent,new,blue,9801.508169099689,None,n,9801.508169099689,None,"['n', 'return']","[0.5333398999646306, 0.717467000707984]",9801.508169099689,None,,,49YA,001,2023_Apr_21_0955,ExactRep-v3-final,2021.2.3,59.98087781089641,
,,,,,,,,,,,,112,0,112,0,,,,,,,,,,,,,,,,,,,,,,,,,,,,,,,,,,,,,,,,,,,,,,,,,9803.804236499593,None,,,,,,,,,,,,,,,,,,,,,,,,,,,,,,,,,,,,,,,,,,,,,,,,,,,,,,,,,fur,5,113,sing,old,white,9802.778342499398,None,y,9802.778342499398,None,"['y', 'return']","[0.8073972994461656, 0.983428199775517]",9802.778342499398,None,,,49YA,001,2023_Apr_21_0955,ExactRep-v3-final,2021.2.3,59.98087781089641,
,,,,,,,,,,,,113,0,113,0,,,,,,,,,,,,,,,,,,,,,,,,,,,,,,,,,,,,,,,,,,,,,,,,,9805.355827599764,None,,,,,,,,,,,,,,,,,,,,,,,,,,,,,,,,,,,,,,,,,,,,,,,,,,,,,,,,,answer,81,114,aloud,old,red,9804.312087900005,None,y,9804.312087900005,None,"['y', 'return']","[0.8174446001648903, 1.009507100097835]",9804.312087900005,None,,,49YA,001,2023_Apr_21_0955,ExactRep-v3-final,2021.2.3,59.98087781089641,
,,,,,,,,,,,,114,0,114,0,,,,,,,,,,,,,,,,,,,,,,,,,,,,,,,,,,,,,,,,,,,,,,,,,9806.974079699256,None,,,,,,,,,,,,,,,,,,,,,,,,,,,,,,,,,,,,,,,,,,,,,,,,,,,,,,,,,book,167,115,sing,new,white,9805.867395299487,None,n,9805.867395299487,None,"['n', 'return']","[0.8701759995892644, 1.0704399002715945]",9805.867395299487,None,,,49YA,001,2023_Apr_21_0955,ExactRep-v3-final,2021.2.3,59.98087781089641,
,,,,,,,,,,,,115,0,115,0,,,,,,,,,,,,,,,,,,,,,,,,,,,,,,,,,,,,,,,,,,,,,,,,,9808.375510999933,None,,,,,,,,,,,,,,,,,,,,,,,,,,,,,,,,,,,,,,,,,,,,,,,,,,,,,,,,,sea,93,116,aloud,old,red,9807.482554699294,None,y,9807.482554699294,None,"['y', 'return']","[0.6470644008368254, 0.8551271008327603]",9807.482554699294,None,,,49YA,001,2023_Apr_21_0955,ExactRep-v3-final,2021.2.3,59.98087781089641,
,,,,,,,,,,,,116,0,116,0,,,,,,,,,,,,,,,,,,,,,,,,,,,,,,,,,,,,,,,,,,,,,,,,,9809.71020089928,None,,,,,,,,,,,,,,,,,,,,,,,,,,,,,,,,,,,,,,,,,,,,,,,,,,,,,,,,,dollar,194,117,aloud,new,red,9808.887794999406,None,n,9808.887794999406,None,"['n', 'return']","[0.5857893005013466, 0.7777212997898459]",9808.887794999406,None,,,49YA,001,2023_Apr_21_0955,ExactRep-v3-final,2021.2.3,59.98087781089641,
,,,,,,,,,,,,117,0,117,0,,,,,,,,,,,,,,,,,,,,,,,,,,,,,,,,,,,,,,,,,,,,,,,,,9811.245021599345,None,,,,,,,,,,,,,,,,,,,,,,,,,,,,,,,,,,,,,,,,,,,,,,,,,,,,,,,,,woman,50,118,silent,old,blue,9810.222743899561,None,n,9810.222743899561,None,"['n', 'return']","[0.8188407998532057, 0.98694740049541]",9810.222743899561,None,,,49YA,001,2023_Apr_21_0955,ExactRep-v3-final,2021.2.3,59.98087781089641,
,,,,,,,,,,,,118,0,118,0,,,,,,,,,,,,,,,,,,,,,,,,,,,,,,,,,,,,,,,,,,,,,,,,,9812.529512899928,None,,,,,,,,,,,,,,,,,,,,,,,,,,,,,,,,,,,,,,,,,,,,,,,,,,,,,,,,,friend,235,119,sing,new,white,9811.753172399476,None,n,9811.753172399476,None,"['n', 'return']","[0.5685556996613741, 0.7364713996648788]",9811.753172399476,None,,,49YA,001,2023_Apr_21_0955,ExactRep-v3-final,2021.2.3,59.98087781089641,
,,,,,,,,,,,,119,0,119,0,,,,,,,,,,,,,,,,,,,,,,,,,,,,,,,,,,,,,,,,,,,,,,,,,9813.814205999486,None,,,,,,,,,,,,,,,,,,,,,,,,,,,,,,,,,,,,,,,,,,,,,,,,,,,,,,,,,hall,202,120,aloud,new,red,9813.036511099897,None,n,9813.036511099897,None,"['n', 'return']","[0.48519959952682257, 0.7330387998372316]",9813.036511099897,None,,,49YA,001,2023_Apr_21_0955,ExactRep-v3-final,2021.2.3,59.98087781089641,
,,,,,,,,,,,,120,0,120,0,,,,,,,,,,,,,,,,,,,,,,,,,,,,,,,,,,,,,,,,,,,,,,,,,9815.16576119978,None,,,,,,,,,,,,,,,,,,,,,,,,,,,,,,,,,,,,,,,,,,,,,,,,,,,,,,,,,series,238,121,aloud,new,red,9814.32394619938,None,n,9814.32394619938,None,"['n', 'return']","[0.6459093000739813, 0.7975722001865506]",9814.32394619938,None,,,49YA,001,2023_Apr_21_0955,ExactRep-v3-final,2021.2.3,59.98087781089641,
,,,,,,,,,,,,121,0,121,0,,,,,,,,,,,,,,,,,,,,,,,,,,,,,,,,,,,,,,,,,,,,,,,,,9816.450220899656,None,,,,,,,,,,,,,,,,,,,,,,,,,,,,,,,,,,,,,,,,,,,,,,,,,,,,,,,,,cash,39,122,silent,old,blue,9815.67592249997,None,n,9815.67592249997,None,"['n', 'return']","[0.5657488005235791, 0.733916100114584]",9815.67592249997,None,,,49YA,001,2023_Apr_21_0955,ExactRep-v3-final,2021.2.3,59.98087781089641,
,,,,,,,,,,,,122,0,122,0,,,,,,,,,,,,,,,,,,,,,,,,,,,,,,,,,,,,,,,,,,,,,,,,,9817.768161599524,None,,,,,,,,,,,,,,,,,,,,,,,,,,,,,,,,,,,,,,,,,,,,,,,,,,,,,,,,,deed,188,123,aloud,new,red,9816.96346049942,None,n,9816.96346049942,None,"['n', 'return']","[0.5501899002119899, 0.7581510003656149]",9816.96346049942,None,,,49YA,001,2023_Apr_21_0955,ExactRep-v3-final,2021.2.3,59.98087781089641,
,,,,,,,,,,,,123,0,123,0,,,,,,,,,,,,,,,,,,,,,,,,,,,,,,,,,,,,,,,,,,,,,,,,,9819.136265699752,None,,,,,,,,,,,,,,,,,,,,,,,,,,,,,,,,,,,,,,,,,,,,,,,,,,,,,,,,,ability,158,124,silent,new,blue,9818.271936399862,None,n,9818.271936399862,None,"['n', 'return']","[0.6737583996728063, 0.8258403996005654]",9818.271936399862,None,,,49YA,001,2023_Apr_21_0955,ExactRep-v3-final,2021.2.3,59.98087781089641,
,,,,,,,,,,,,124,0,124,0,,,,,,,,,,,,,,,,,,,,,,,,,,,,,,,,,,,,,,,,,,,,,,,,,9820.638714899309,None,,,,,,,,,,,,,,,,,,,,,,,,,,,,,,,,,,,,,,,,,,,,,,,,,,,,,,,,,forest,34,125,sing,old,white,9819.644292899407,None,y,9819.644292899407,None,"['y', 'return']","[0.7733004996553063, 0.9493942996487021]",9819.644292899407,None,,,49YA,001,2023_Apr_21_0955,ExactRep-v3-final,2021.2.3,59.98087781089641,
,,,,,,,,,,,,125,0,125,0,,,,,,,,,,,,,,,,,,,,,,,,,,,,,,,,,,,,,,,,,,,,,,,,,9822.189244299196,None,,,,,,,,,,,,,,,,,,,,,,,,,,,,,,,,,,,,,,,,,,,,,,,,,,,,,,,,,method,162,126,aloud,new,red,9821.142651199363,None,y,9821.142651199363,None,"['y', 'return']","[0.8271188996732235, 1.003006499260664]",9821.142651199363,None,,,49YA,001,2023_Apr_21_0955,ExactRep-v3-final,2021.2.3,59.98087781089641,
,,,,,,,,,,,,126,0,126,0,,,,,,,,,,,,,,,,,,,,,,,,,,,,,,,,,,,,,,,,,,,,,,,,,9823.60738479998,None,,,,,,,,,,,,,,,,,,,,,,,,,,,,,,,,,,,,,,,,,,,,,,,,,,,,,,,,,valley,13,127,sing,old,white,9822.697852799669,None,y,9822.697852799669,None,"['y', 'return']","[0.70382110029459, 0.8720257002860308]",9822.697852799669,None,,,49YA,001,2023_Apr_21_0955,ExactRep-v3-final,2021.2.3,59.98087781089641,
,,,,,,,,,,,,127,0,127,0,,,,,,,,,,,,,,,,,,,,,,,,,,,,,,,,,,,,,,,,,,,,,,,,,9824.95871999953,None,,,,,,,,,,,,,,,,,,,,,,,,,,,,,,,,,,,,,,,,,,,,,,,,,,,,,,,,,bottle,149,128,silent,new,blue,9824.118567099795,None,n,9824.118567099795,None,"['n', 'return']","[0.5949973994866014, 0.7952455002814531]",9824.118567099795,None,,,49YA,001,2023_Apr_21_0955,ExactRep-v3-final,2021.2.3,59.98087781089641,
,,,,,,,,,,,,128,0,128,0,,,,,,,,,,,,,,,,,,,,,,,,,,,,,,,,,,,,,,,,,,,,,,,,,9826.209986600094,None,,,,,,,,,,,,,,,,,,,,,,,,,,,,,,,,,,,,,,,,,,,,,,,,,,,,,,,,,spirit,151,129,silent,new,blue,9825.47606409993,None,n,9825.47606409993,None,"['n', 'return']","[0.4455725997686386, 0.6936380993574858]",9825.47606409993,None,,,49YA,001,2023_Apr_21_0955,ExactRep-v3-final,2021.2.3,59.98087781089641,
,,,,,,,,,,,,129,0,129,0,,,,,,,,,,,,,,,,,,,,,,,,,,,,,,,,,,,,,,,,,,,,,,,,,9827.761544100009,None,,,,,,,,,,,,,,,,,,,,,,,,,,,,,,,,,,,,,,,,,,,,,,,,,,,,,,,,,season,103,130,aloud,old,red,9826.723050399683,None,n,9826.723050399683,None,"['n', 'return']","[0.7746293004602194, 0.9985923003405333]",9826.723050399683,None,,,49YA,001,2023_Apr_21_0955,ExactRep-v3-final,2021.2.3,59.98087781089641,
,,,,,,,,,,,,130,0,130,0,,,,,,,,,,,,,,,,,,,,,,,,,,,,,,,,,,,,,,,,,,,,,,,,,9829.313088299707,None,,,,,,,,,,,,,,,,,,,,,,,,,,,,,,,,,,,,,,,,,,,,,,,,,,,,,,,,,weapon,62,131,silent,old,blue,9828.272697799839,None,n,9828.272697799839,None,"['n', 'return']","[0.7849943991750479, 0.9929245999082923]",9828.272697799839,None,,,49YA,001,2023_Apr_21_0955,ExactRep-v3-final,2021.2.3,59.98087781089641,
,,,,,,,,,,,,131,0,131,0,,,,,,,,,,,,,,,,,,,,,,,,,,,,,,,,,,,,,,,,,,,,,,,,,9830.547656599432,None,,,,,,,,,,,,,,,,,,,,,,,,,,,,,,,,,,,,,,,,,,,,,,,,,,,,,,,,,home,28,132,sing,old,white,9829.82043140009,None,n,9829.82043140009,None,"['n', 'return']","[0.47722260002046824, 0.6853677993640304]",9829.82043140009,None,,,49YA,001,2023_Apr_21_0955,ExactRep-v3-final,2021.2.3,59.98087781089641,
