trials_fam.thisRepN,trials_fam.thisTrialN,trials_fam.thisN,trials_fam.thisIndex,trials_prc.thisRepN,trials_prc.thisTrialN,trials_prc.thisN,trials_prc.thisIndex,StudyLoop.thisRepN,StudyLoop.thisTrialN,StudyLoop.thisN,StudyLoop.thisIndex,TestLoop.thisRepN,TestLoop.thisTrialN,TestLoop.thisN,TestLoop.thisIndex,text_colortest.started,text_colortest.stopped,key_colortest.keys,key_colortest.rt,key_colortest.started,key_colortest.stopped,textCondition.started,textCondition.stopped,keyCondition.keys,keyCondition.rt,keyCondition.started,keyCondition.stopped,Condition_between,Condition_counterbal,keyWelcome.keys,keyWelcome.rt,keyWelcome.started,keyWelcome.stopped,welcome_a.started,welcome_a.stopped,welcome_b.started,welcome_b.stopped,welcome_c.started,welcome_c.stopped,welcome_d.started,welcome_d.stopped,welcome_e.started,welcome_e.stopped,welcome_f.started,welcome_f.stopped,key_resp_fam_inst.keys,key_resp_fam_inst.rt,key_resp_fam_inst.started,key_resp_fam_inst.stopped,fam_a.started,fam_a.stopped,fam_b.started,fam_b.stopped,fam_c.started,fam_c.stopped,fam_d.started,fam_d.stopped,fam_e.started,fam_e.stopped,fam_f.started,fam_f.stopped,text_famil.started,text_famil.stopped,textBlank500.started,textBlank500.stopped,key_resp_prc_inst.keys,key_resp_prc_inst.rt,key_resp_prc_inst.started,key_resp_prc_inst.stopped,prac_a.started,prac_a.stopped,prac_b.started,prac_b.stopped,prac_c.started,prac_c.stopped,prac_d.started,prac_d.stopped,prac_e.started,prac_e.stopped,prac_f.started,prac_f.stopped,text_prc_trial.started,text_prc_trial.stopped,key_resp_study_inst.keys,key_resp_study_inst.rt,key_resp_study_inst.started,key_resp_study_inst.stopped,crit_a.started,crit_a.stopped,crit_b.started,crit_b.stopped,crit_c.started,crit_c.stopped,crit_d.started,crit_d.stopped,crit_e.started,crit_e.stopped,crit_f.started,crit_f.stopped,study_word,study_num,study_order,study_type,word_color,textStudy.started,textStudy.stopped,keyStudy.keys,keyStudy.started,keyStudy.stopped,post_study.started,post_study.stopped,key_resp_post_study.keys,key_resp_post_study.rt,key_resp_post_study.started,key_resp_post_study.stopped,test_inst.started,test_inst.stopped,key_resp_test_inst.keys,key_resp_test_inst.rt,key_resp_test_inst.started,key_resp_test_inst.stopped,test_word,test_num,test_order,test_condition,old_new_test,word_color_test,textConf.started,textConf.stopped,Participant Response,textInput.started,textInput.stopped,keyResp.keys,keyResp.rt,keyResp.started,keyResp.stopped,textEnd.started,textEnd.stopped,participant,session,date,expName,psychopyVersion,frameRate,
,,,,,,,,,,,,,,,,14.379502700059675,None,y,0.9325585000915453,14.379502700059675,None,,,,,,,,,,,,,,,,,,,,,,,,,,,,,,,,,,,,,,,,,,,,,,,,,,,,,,,,,,,,,,,,,,,,,,,,,,,,,,,,,,,,,,,,,,,,,,,,,,,,,,,,,,,,,,,,,,,,,,4,001,2023_Jan_30_1151,ExactRep-v3-final,2021.2.3,59.89268429387375,
,,,,,,,,,,,,,,,,,,,,,,15.332838300033472,None,d,1.2351532999891788,15.332838300033472,None,,,,,,,,,,,,,,,,,,,,,,,,,,,,,,,,,,,,,,,,,,,,,,,,,,,,,,,,,,,,,,,,,,,,,,,,,,,,,,,,,,,,,,,,,,,,,,,,,,,,,,,,,,,,,,,,4,001,2023_Jan_30_1151,ExactRep-v3-final,2021.2.3,59.89268429387375,
,,,,,,,,,,,,,,,,,,,,,,,,,,,,colorfoils,d,space,167.3246515999781,26.731949700042605,None,,,,,,,,,,,,,,,,,,,,,,,,,,,,,,,,,,,,,,,,,,,,,,,,,,,,,,,,,,,,,,,,,,,,,,,,,,,,,,,,,,,,,,,,,,,,,,,,,,,,,,,,,,4,001,2023_Jan_30_1151,ExactRep-v3-final,2021.2.3,59.89268429387375,
,,,,,,,,,,,,,,,,,,,,,,,,,,,,,,,,,,16.75046640005894,None,16.75046640005894,None,16.75046640005894,None,16.75046640005894,None,16.75046640005894,None,16.75046640005894,None,space,18.90504240000155,204.22302739997394,None,,,,,,,,,,,,,,,,,,,,,,,,,,,,,,,,,,,,,,,,,,,,,,,,,,,,,,,,,,,,,,,,,,,,,,,,,,,,,,,,,,,,,,,,,,4,001,2023_Jan_30_1151,ExactRep-v3-final,2021.2.3,59.89268429387375,
0,0,0,0,,,,,,,,,,,,,,,,,,,,,,,,,,,,,,,,,,,,,,,,,,,,,,,194.20752369996626,None,194.20752369996626,None,194.20752369996626,None,194.20752369996626,None,194.20752369996626,None,194.20752369996626,None,223.25105399999302,None,225.24261820001993,None,,,,,,,,,,,,,,,,,,,,,,,,,,,,,,,,,,,,,,,,,,,,,,,,,,,,,,,,,,,,,,,,,,,,,,,,,,4,001,2023_Jan_30_1151,ExactRep-v3-final,2021.2.3,59.89268429387375,
1,0,1,0,,,,,,,,,,,,,,,,,,,,,,,,,,,,,,,,,,,,,,,,,,,,,,,,,,,,,,,,,,,225.7429293000605,None,227.74496969999745,None,,,,,,,,,,,,,,,,,,,,,,,,,,,,,,,,,,,,,,,,,,,,,,,,,,,,,,,,,,,,,,,,,,,,,,,,,,4,001,2023_Jan_30_1151,ExactRep-v3-final,2021.2.3,59.89268429387375,
2,0,2,0,,,,,,,,,,,,,,,,,,,,,,,,,,,,,,,,,,,,,,,,,,,,,,,,,,,,,,,,,,,228.26210439996794,None,230.2640664000064,None,,,,,,,,,,,,,,,,,,,,,,,,,,,,,,,,,,,,,,,,,,,,,,,,,,,,,,,,,,,,,,,,,,,,,,,,,,4,001,2023_Jan_30_1151,ExactRep-v3-final,2021.2.3,59.89268429387375,
3,0,3,0,,,,,,,,,,,,,,,,,,,,,,,,,,,,,,,,,,,,,,,,,,,,,,,,,,,,,,,,,,,230.7647486999631,None,232.76662380003836,None,,,,,,,,,,,,,,,,,,,,,,,,,,,,,,,,,,,,,,,,,,,,,,,,,,,,,,,,,,,,,,,,,,,,,,,,,,4,001,2023_Jan_30_1151,ExactRep-v3-final,2021.2.3,59.89268429387375,
4,0,4,0,,,,,,,,,,,,,,,,,,,,,,,,,,,,,,,,,,,,,,,,,,,,,,,,,,,,,,,,,,,233.28375689999666,None,235.28594420000445,None,,,,,,,,,,,,,,,,,,,,,,,,,,,,,,,,,,,,,,,,,,,,,,,,,,,,,,,,,,,,,,,,,,,,,,,,,,4,001,2023_Jan_30_1151,ExactRep-v3-final,2021.2.3,59.89268429387375,
5,0,5,0,,,,,,,,,,,,,,,,,,,,,,,,,,,,,,,,,,,,,,,,,,,,,,,,,,,,,,,,,,,235.7865337000694,None,237.7880376999965,None,,,,,,,,,,,,,,,,,,,,,,,,,,,,,,,,,,,,,,,,,,,,,,,,,,,,,,,,,,,,,,,,,,,,,,,,,,4,001,2023_Jan_30_1151,ExactRep-v3-final,2021.2.3,59.89268429387375,
6,0,6,0,,,,,,,,,,,,,,,,,,,,,,,,,,,,,,,,,,,,,,,,,,,,,,,,,,,,,,,,,,,238.29177889996208,None,240.29078010004014,None,,,,,,,,,,,,,,,,,,,,,,,,,,,,,,,,,,,,,,,,,,,,,,,,,,,,,,,,,,,,,,,,,,,,,,,,,,4,001,2023_Jan_30_1151,ExactRep-v3-final,2021.2.3,59.89268429387375,
7,0,7,0,,,,,,,,,,,,,,,,,,,,,,,,,,,,,,,,,,,,,,,,,,,,,,,,,,,,,,,,,,,240.79187029995956,None,242.7932618999621,None,,,,,,,,,,,,,,,,,,,,,,,,,,,,,,,,,,,,,,,,,,,,,,,,,,,,,,,,,,,,,,,,,,,,,,,,,,4,001,2023_Jan_30_1151,ExactRep-v3-final,2021.2.3,59.89268429387375,
8,0,8,0,,,,,,,,,,,,,,,,,,,,,,,,,,,,,,,,,,,,,,,,,,,,,,,,,,,,,,,,,,,243.29514760000166,None,245.29581489996053,None,,,,,,,,,,,,,,,,,,,,,,,,,,,,,,,,,,,,,,,,,,,,,,,,,,,,,,,,,,,,,,,,,,,,,,,,,,4,001,2023_Jan_30_1151,ExactRep-v3-final,2021.2.3,59.89268429387375,
9,0,9,0,,,,,,,,,,,,,,,,,,,,,,,,,,,,,,,,,,,,,,,,,,,,,,,,,,,,,,,,,,,245.79636549996212,None,247.79852169996593,None,,,,,,,,,,,,,,,,,,,,,,,,,,,,,,,,,,,,,,,,,,,,,,,,,,,,,,,,,,,,,,,,,,,,,,,,,,4,001,2023_Jan_30_1151,ExactRep-v3-final,2021.2.3,59.89268429387375,
10,0,10,0,,,,,,,,,,,,,,,,,,,,,,,,,,,,,,,,,,,,,,,,,,,,,,,,,,,,,,,,,,,248.29973199998494,None,250.300971699995,None,,,,,,,,,,,,,,,,,,,,,,,,,,,,,,,,,,,,,,,,,,,,,,,,,,,,,,,,,,,,,,,,,,,,,,,,,,4,001,2023_Jan_30_1151,ExactRep-v3-final,2021.2.3,59.89268429387375,
11,0,11,0,,,,,,,,,,,,,,,,,,,,,,,,,,,,,,,,,,,,,,,,,,,,,,,,,,,,,,,,,,,250.81282510003075,None,252.8199834000552,None,,,,,,,,,,,,,,,,,,,,,,,,,,,,,,,,,,,,,,,,,,,,,,,,,,,,,,,,,,,,,,,,,,,,,,,,,,4,001,2023_Jan_30_1151,ExactRep-v3-final,2021.2.3,59.89268429387375,
12,0,12,0,,,,,,,,,,,,,,,,,,,,,,,,,,,,,,,,,,,,,,,,,,,,,,,,,,,,,,,,,,,253.32198500004597,None,255.32247540005483,None,,,,,,,,,,,,,,,,,,,,,,,,,,,,,,,,,,,,,,,,,,,,,,,,,,,,,,,,,,,,,,,,,,,,,,,,,,4,001,2023_Jan_30_1151,ExactRep-v3-final,2021.2.3,59.89268429387375,
13,0,13,0,,,,,,,,,,,,,,,,,,,,,,,,,,,,,,,,,,,,,,,,,,,,,,,,,,,,,,,,,,,255.83096569997724,None,257.84168780001346,None,,,,,,,,,,,,,,,,,,,,,,,,,,,,,,,,,,,,,,,,,,,,,,,,,,,,,,,,,,,,,,,,,,,,,,,,,,4,001,2023_Jan_30_1151,ExactRep-v3-final,2021.2.3,59.89268429387375,
14,0,14,0,,,,,,,,,,,,,,,,,,,,,,,,,,,,,,,,,,,,,,,,,,,,,,,,,,,,,,,,,,,258.3421745999949,None,260.3440669999691,None,,,,,,,,,,,,,,,,,,,,,,,,,,,,,,,,,,,,,,,,,,,,,,,,,,,,,,,,,,,,,,,,,,,,,,,,,,4,001,2023_Jan_30_1151,ExactRep-v3-final,2021.2.3,59.89268429387375,
,,,,,,,,,,,,,,,,,,,,,,,,,,,,,,,,,,,,,,,,,,,,,,,,,,,,,,,,,,,,,,,,,,space,20.27262109995354,270.99934740003664,None,,,,,,,,,,,,,,,,,,,,,,,,,,,,,,,,,,,,,,,,,,,,,,,,,,,,,,,,,,,,,,,,,,,,,,4,001,2023_Jan_30_1151,ExactRep-v3-final,2021.2.3,59.89268429387375,
,,,,0,0,0,0,,,,,,,,,,,,,,,,,,,,,,,,,,,,,,,,,,,,,,,,,,,,,,,,,,,,,,,,,293.36043360002805,None,,,,,261.0410250000423,None,261.0410250000423,None,261.0410250000423,None,261.0410250000423,None,261.0410250000423,None,261.0410250000423,None,291.35396780003794,None,,,,,,,,,,,,,,,,,,,,,,,,,,,,,,,,,,,,,,,,,,,,,,,,,,,,,,,,4,001,2023_Jan_30_1151,ExactRep-v3-final,2021.2.3,59.89268429387375,
,,,,1,0,1,0,,,,,,,,,,,,,,,,,,,,,,,,,,,,,,,,,,,,,,,,,,,,,,,,,,,,,,,,,295.8630626000231,None,,,,,,,,,,,,,,,,,293.8610360000748,None,,,,,,,,,,,,,,,,,,,,,,,,,,,,,,,,,,,,,,,,,,,,,,,,,,,,,,,,4,001,2023_Jan_30_1151,ExactRep-v3-final,2021.2.3,59.89268429387375,
,,,,2,0,2,0,,,,,,,,,,,,,,,,,,,,,,,,,,,,,,,,,,,,,,,,,,,,,,,,,,,,,,,,,298.3651772000594,None,,,,,,,,,,,,,,,,,296.36357919999864,None,,,,,,,,,,,,,,,,,,,,,,,,,,,,,,,,,,,,,,,,,,,,,,,,,,,,,,,,4,001,2023_Jan_30_1151,ExactRep-v3-final,2021.2.3,59.89268429387375,
,,,,3,0,3,0,,,,,,,,,,,,,,,,,,,,,,,,,,,,,,,,,,,,,,,,,,,,,,,,,,,,,,,,,300.86801009997725,None,,,,,,,,,,,,,,,,,298.8660934000509,None,,,,,,,,,,,,,,,,,,,,,,,,,,,,,,,,,,,,,,,,,,,,,,,,,,,,,,,,4,001,2023_Jan_30_1151,ExactRep-v3-final,2021.2.3,59.89268429387375,
,,,,4,0,4,0,,,,,,,,,,,,,,,,,,,,,,,,,,,,,,,,,,,,,,,,,,,,,,,,,,,,,,,,,303.37051979999524,None,,,,,,,,,,,,,,,,,301.3686746000312,None,,,,,,,,,,,,,,,,,,,,,,,,,,,,,,,,,,,,,,,,,,,,,,,,,,,,,,,,4,001,2023_Jan_30_1151,ExactRep-v3-final,2021.2.3,59.89268429387375,
,,,,5,0,5,0,,,,,,,,,,,,,,,,,,,,,,,,,,,,,,,,,,,,,,,,,,,,,,,,,,,,,,,,,305.87292780005373,None,,,,,,,,,,,,,,,,,303.87079610000364,None,,,,,,,,,,,,,,,,,,,,,,,,,,,,,,,,,,,,,,,,,,,,,,,,,,,,,,,,4,001,2023_Jan_30_1151,ExactRep-v3-final,2021.2.3,59.89268429387375,
,,,,6,0,6,0,,,,,,,,,,,,,,,,,,,,,,,,,,,,,,,,,,,,,,,,,,,,,,,,,,,,,,,,,308.37553520000074,None,,,,,,,,,,,,,,,,,306.373531499994,None,,,,,,,,,,,,,,,,,,,,,,,,,,,,,,,,,,,,,,,,,,,,,,,,,,,,,,,,4,001,2023_Jan_30_1151,ExactRep-v3-final,2021.2.3,59.89268429387375,
,,,,7,0,7,0,,,,,,,,,,,,,,,,,,,,,,,,,,,,,,,,,,,,,,,,,,,,,,,,,,,,,,,,,310.8780400999822,None,,,,,,,,,,,,,,,,,308.87605209997855,None,,,,,,,,,,,,,,,,,,,,,,,,,,,,,,,,,,,,,,,,,,,,,,,,,,,,,,,,4,001,2023_Jan_30_1151,ExactRep-v3-final,2021.2.3,59.89268429387375,
,,,,8,0,8,0,,,,,,,,,,,,,,,,,,,,,,,,,,,,,,,,,,,,,,,,,,,,,,,,,,,,,,,,,313.3805406000465,None,,,,,,,,,,,,,,,,,311.37859830004163,None,,,,,,,,,,,,,,,,,,,,,,,,,,,,,,,,,,,,,,,,,,,,,,,,,,,,,,,,4,001,2023_Jan_30_1151,ExactRep-v3-final,2021.2.3,59.89268429387375,
,,,,9,0,9,0,,,,,,,,,,,,,,,,,,,,,,,,,,,,,,,,,,,,,,,,,,,,,,,,,,,,,,,,,315.8830151000293,None,,,,,,,,,,,,,,,,,313.8808141000336,None,,,,,,,,,,,,,,,,,,,,,,,,,,,,,,,,,,,,,,,,,,,,,,,,,,,,,,,,4,001,2023_Jan_30_1151,ExactRep-v3-final,2021.2.3,59.89268429387375,
,,,,10,0,10,0,,,,,,,,,,,,,,,,,,,,,,,,,,,,,,,,,,,,,,,,,,,,,,,,,,,,,,,,,318.38544830004685,None,,,,,,,,,,,,,,,,,316.3834673999809,None,,,,,,,,,,,,,,,,,,,,,,,,,,,,,,,,,,,,,,,,,,,,,,,,,,,,,,,,4,001,2023_Jan_30_1151,ExactRep-v3-final,2021.2.3,59.89268429387375,
,,,,11,0,11,0,,,,,,,,,,,,,,,,,,,,,,,,,,,,,,,,,,,,,,,,,,,,,,,,,,,,,,,,,320.8881673000287,None,,,,,,,,,,,,,,,,,318.8879700000398,None,,,,,,,,,,,,,,,,,,,,,,,,,,,,,,,,,,,,,,,,,,,,,,,,,,,,,,,,4,001,2023_Jan_30_1151,ExactRep-v3-final,2021.2.3,59.89268429387375,
,,,,12,0,12,0,,,,,,,,,,,,,,,,,,,,,,,,,,,,,,,,,,,,,,,,,,,,,,,,,,,,,,,,,323.3903239000356,None,,,,,,,,,,,,,,,,,321.39007269998547,None,,,,,,,,,,,,,,,,,,,,,,,,,,,,,,,,,,,,,,,,,,,,,,,,,,,,,,,,4,001,2023_Jan_30_1151,ExactRep-v3-final,2021.2.3,59.89268429387375,
,,,,13,0,13,0,,,,,,,,,,,,,,,,,,,,,,,,,,,,,,,,,,,,,,,,,,,,,,,,,,,,,,,,,325.89300569996703,None,,,,,,,,,,,,,,,,,323.89105570001993,None,,,,,,,,,,,,,,,,,,,,,,,,,,,,,,,,,,,,,,,,,,,,,,,,,,,,,,,,4,001,2023_Jan_30_1151,ExactRep-v3-final,2021.2.3,59.89268429387375,
,,,,14,0,14,0,,,,,,,,,,,,,,,,,,,,,,,,,,,,,,,,,,,,,,,,,,,,,,,,,,,,,,,,,328.395408899989,None,,,,,,,,,,,,,,,,,326.39351670001633,None,,,,,,,,,,,,,,,,,,,,,,,,,,,,,,,,,,,,,,,,,,,,,,,,,,,,,,,,4,001,2023_Jan_30_1151,ExactRep-v3-final,2021.2.3,59.89268429387375,
,,,,,,,,,,,,,,,,,,,,,,,,,,,,,,,,,,,,,,,,,,,,,,,,,,,,,,,,,,,,,,,,,,,,,,,,,,,,,,,,,,,,space,23.242029699962586,338.9979688000167,None,,,,,,,,,,,,,,,,,,,,,,,,,,,,,,,,,,,,,,,,,,,,,,,,,,,,4,001,2023_Jan_30_1151,ExactRep-v3-final,2021.2.3,59.89268429387375,
,,,,,,,,0,0,0,0,,,,,,,,,,,,,,,,,,,,,,,,,,,,,,,,,,,,,,,,,,,,,,,,,,,,,364.3312497000443,None,,,,,,,,,,,,,,,,,,,,,,,329.03701139998157,None,329.03701139998157,None,329.03701139998157,None,329.03701139998157,None,329.03701139998157,None,329.03701139998157,None,truth,32,1,sing,red,362.32398910005577,None,None,362.32398910005577,None,,,,,,,,,,,,,,,,,,,,,,,,,,,,,,4,001,2023_Jan_30_1151,ExactRep-v3-final,2021.2.3,59.89268429387375,
,,,,,,,,1,0,1,0,,,,,,,,,,,,,,,,,,,,,,,,,,,,,,,,,,,,,,,,,,,,,,,,,,,,,366.85064099996816,None,,,,,,,,,,,,,,,,,,,,,,,,,,,,,,,,,,,cat,104,2,aloud,blue,364.8467406000709,None,None,364.8467406000709,None,,,,,,,,,,,,,,,,,,,,,,,,,,,,,,4,001,2023_Jan_30_1151,ExactRep-v3-final,2021.2.3,59.89268429387375,
,,,,,,,,2,0,2,0,,,,,,,,,,,,,,,,,,,,,,,,,,,,,,,,,,,,,,,,,,,,,,,,,,,,,369.3698247000575,None,,,,,,,,,,,,,,,,,,,,,,,,,,,,,,,,,,,judge,56,3,silent,white,367.35985170002095,None,None,367.35985170002095,None,,,,,,,,,,,,,,,,,,,,,,,,,,,,,,4,001,2023_Jan_30_1151,ExactRep-v3-final,2021.2.3,59.89268429387375,
,,,,,,,,3,0,3,0,,,,,,,,,,,,,,,,,,,,,,,,,,,,,,,,,,,,,,,,,,,,,,,,,,,,,371.88869870000053,None,,,,,,,,,,,,,,,,,,,,,,,,,,,,,,,,,,,woman,29,4,sing,red,369.8737312000012,None,None,369.8737312000012,None,,,,,,,,,,,,,,,,,,,,,,,,,,,,,,4,001,2023_Jan_30_1151,ExactRep-v3-final,2021.2.3,59.89268429387375,
,,,,,,,,4,0,4,0,,,,,,,,,,,,,,,,,,,,,,,,,,,,,,,,,,,,,,,,,,,,,,,,,,,,,374.4081107999664,None,,,,,,,,,,,,,,,,,,,,,,,,,,,,,,,,,,,passion,48,5,silent,white,372.4008806999773,None,None,372.4008806999773,None,,,,,,,,,,,,,,,,,,,,,,,,,,,,,,4,001,2023_Jan_30_1151,ExactRep-v3-final,2021.2.3,59.89268429387375,
,,,,,,,,5,0,5,0,,,,,,,,,,,,,,,,,,,,,,,,,,,,,,,,,,,,,,,,,,,,,,,,,,,,,376.9106432000408,None,,,,,,,,,,,,,,,,,,,,,,,,,,,,,,,,,,,sky,61,6,silent,white,374.90932410000823,None,None,374.90932410000823,None,,,,,,,,,,,,,,,,,,,,,,,,,,,,,,4,001,2023_Jan_30_1151,ExactRep-v3-final,2021.2.3,59.89268429387375,
,,,,,,,,6,0,6,0,,,,,,,,,,,,,,,,,,,,,,,,,,,,,,,,,,,,,,,,,,,,,,,,,,,,,379.4129536000546,None,,,,,,,,,,,,,,,,,,,,,,,,,,,,,,,,,,,house,71,7,silent,white,377.41282590001356,None,None,377.41282590001356,None,,,,,,,,,,,,,,,,,,,,,,,,,,,,,,4,001,2023_Jan_30_1151,ExactRep-v3-final,2021.2.3,59.89268429387375,
,,,,,,,,7,0,7,0,,,,,,,,,,,,,,,,,,,,,,,,,,,,,,,,,,,,,,,,,,,,,,,,,,,,,381.92267620004714,None,,,,,,,,,,,,,,,,,,,,,,,,,,,,,,,,,,,diamond,58,8,silent,white,379.91613500006497,None,None,379.91613500006497,None,,,,,,,,,,,,,,,,,,,,,,,,,,,,,,4,001,2023_Jan_30_1151,ExactRep-v3-final,2021.2.3,59.89268429387375,
,,,,,,,,8,0,8,0,,,,,,,,,,,,,,,,,,,,,,,,,,,,,,,,,,,,,,,,,,,,,,,,,,,,,384.4515100000426,None,,,,,,,,,,,,,,,,,,,,,,,,,,,,,,,,,,,dream,12,9,sing,red,382.4399893999798,None,None,382.4399893999798,None,,,,,,,,,,,,,,,,,,,,,,,,,,,,,,4,001,2023_Jan_30_1151,ExactRep-v3-final,2021.2.3,59.89268429387375,
,,,,,,,,9,0,9,0,,,,,,,,,,,,,,,,,,,,,,,,,,,,,,,,,,,,,,,,,,,,,,,,,,,,,386.9706812000368,None,,,,,,,,,,,,,,,,,,,,,,,,,,,,,,,,,,,colony,9,10,sing,red,384.95623040001374,None,None,384.95623040001374,None,,,,,,,,,,,,,,,,,,,,,,,,,,,,,,4,001,2023_Jan_30_1151,ExactRep-v3-final,2021.2.3,59.89268429387375,
,,,,,,,,10,0,10,0,,,,,,,,,,,,,,,,,,,,,,,,,,,,,,,,,,,,,,,,,,,,,,,,,,,,,389.4899037000723,None,,,,,,,,,,,,,,,,,,,,,,,,,,,,,,,,,,,charm,23,11,sing,red,387.4795890999958,None,None,387.4795890999958,None,,,,,,,,,,,,,,,,,,,,,,,,,,,,,,4,001,2023_Jan_30_1151,ExactRep-v3-final,2021.2.3,59.89268429387375,
,,,,,,,,11,0,11,0,,,,,,,,,,,,,,,,,,,,,,,,,,,,,,,,,,,,,,,,,,,,,,,,,,,,,392.0088837000076,None,,,,,,,,,,,,,,,,,,,,,,,,,,,,,,,,,,,paper,66,12,silent,white,389.9938976999838,None,None,389.9938976999838,None,,,,,,,,,,,,,,,,,,,,,,,,,,,,,,4,001,2023_Jan_30_1151,ExactRep-v3-final,2021.2.3,59.89268429387375,
,,,,,,,,12,0,12,0,,,,,,,,,,,,,,,,,,,,,,,,,,,,,,,,,,,,,,,,,,,,,,,,,,,,,394.52833710005507,None,,,,,,,,,,,,,,,,,,,,,,,,,,,,,,,,,,,prayer,46,13,silent,white,392.5211382000707,None,None,392.5211382000707,None,,,,,,,,,,,,,,,,,,,,,,,,,,,,,,4,001,2023_Jan_30_1151,ExactRep-v3-final,2021.2.3,59.89268429387375,
,,,,,,,,13,0,13,0,,,,,,,,,,,,,,,,,,,,,,,,,,,,,,,,,,,,,,,,,,,,,,,,,,,,,397.0470199000556,None,,,,,,,,,,,,,,,,,,,,,,,,,,,,,,,,,,,table,108,14,aloud,blue,395.03938349999953,None,None,395.03938349999953,None,,,,,,,,,,,,,,,,,,,,,,,,,,,,,,4,001,2023_Jan_30_1151,ExactRep-v3-final,2021.2.3,59.89268429387375,
,,,,,,,,14,0,14,0,,,,,,,,,,,,,,,,,,,,,,,,,,,,,,,,,,,,,,,,,,,,,,,,,,,,,399.5498291000258,None,,,,,,,,,,,,,,,,,,,,,,,,,,,,,,,,,,,salary,87,15,aloud,blue,397.54795609996654,None,None,397.54795609996654,None,,,,,,,,,,,,,,,,,,,,,,,,,,,,,,4,001,2023_Jan_30_1151,ExactRep-v3-final,2021.2.3,59.89268429387375,
,,,,,,,,15,0,15,0,,,,,,,,,,,,,,,,,,,,,,,,,,,,,,,,,,,,,,,,,,,,,,,,,,,,,402.05248089996167,None,,,,,,,,,,,,,,,,,,,,,,,,,,,,,,,,,,,journal,94,16,aloud,blue,400.05127270007506,None,None,400.05127270007506,None,,,,,,,,,,,,,,,,,,,,,,,,,,,,,,4,001,2023_Jan_30_1151,ExactRep-v3-final,2021.2.3,59.89268429387375,
,,,,,,,,16,0,16,0,,,,,,,,,,,,,,,,,,,,,,,,,,,,,,,,,,,,,,,,,,,,,,,,,,,,,404.57162020006217,None,,,,,,,,,,,,,,,,,,,,,,,,,,,,,,,,,,,answer,3,17,sing,red,402.55688170006033,None,None,402.55688170006033,None,,,,,,,,,,,,,,,,,,,,,,,,,,,,,,4,001,2023_Jan_30_1151,ExactRep-v3-final,2021.2.3,59.89268429387375,
,,,,,,,,17,0,17,0,,,,,,,,,,,,,,,,,,,,,,,,,,,,,,,,,,,,,,,,,,,,,,,,,,,,,407.09079909999855,None,,,,,,,,,,,,,,,,,,,,,,,,,,,,,,,,,,,origin,24,18,sing,red,405.0847510000458,None,None,405.0847510000458,None,,,,,,,,,,,,,,,,,,,,,,,,,,,,,,4,001,2023_Jan_30_1151,ExactRep-v3-final,2021.2.3,59.89268429387375,
,,,,,,,,18,0,18,0,,,,,,,,,,,,,,,,,,,,,,,,,,,,,,,,,,,,,,,,,,,,,,,,,,,,,409.5929596000351,None,,,,,,,,,,,,,,,,,,,,,,,,,,,,,,,,,,,grass,14,19,sing,red,407.5913099000463,None,None,407.5913099000463,None,,,,,,,,,,,,,,,,,,,,,,,,,,,,,,4,001,2023_Jan_30_1151,ExactRep-v3-final,2021.2.3,59.89268429387375,
,,,,,,,,19,0,19,0,,,,,,,,,,,,,,,,,,,,,,,,,,,,,,,,,,,,,,,,,,,,,,,,,,,,,412.1122305999743,None,,,,,,,,,,,,,,,,,,,,,,,,,,,,,,,,,,,duty,80,20,aloud,blue,410.09920769999735,None,None,410.09920769999735,None,,,,,,,,,,,,,,,,,,,,,,,,,,,,,,4,001,2023_Jan_30_1151,ExactRep-v3-final,2021.2.3,59.89268429387375,
,,,,,,,,20,0,20,0,,,,,,,,,,,,,,,,,,,,,,,,,,,,,,,,,,,,,,,,,,,,,,,,,,,,,414.6150649000192,None,,,,,,,,,,,,,,,,,,,,,,,,,,,,,,,,,,,person,113,21,aloud,blue,412.6137275999645,None,None,412.6137275999645,None,,,,,,,,,,,,,,,,,,,,,,,,,,,,,,4,001,2023_Jan_30_1151,ExactRep-v3-final,2021.2.3,59.89268429387375,
,,,,,,,,21,0,21,0,,,,,,,,,,,,,,,,,,,,,,,,,,,,,,,,,,,,,,,,,,,,,,,,,,,,,417.11740760004614,None,,,,,,,,,,,,,,,,,,,,,,,,,,,,,,,,,,,cotton,98,22,aloud,blue,415.1168450000696,None,None,415.1168450000696,None,,,,,,,,,,,,,,,,,,,,,,,,,,,,,,4,001,2023_Jan_30_1151,ExactRep-v3-final,2021.2.3,59.89268429387375,
,,,,,,,,22,0,22,0,,,,,,,,,,,,,,,,,,,,,,,,,,,,,,,,,,,,,,,,,,,,,,,,,,,,,419.61996220005676,None,,,,,,,,,,,,,,,,,,,,,,,,,,,,,,,,,,,bar,69,23,silent,white,417.6199042999651,None,None,417.6199042999651,None,,,,,,,,,,,,,,,,,,,,,,,,,,,,,,4,001,2023_Jan_30_1151,ExactRep-v3-final,2021.2.3,59.89268429387375,
,,,,,,,,23,0,23,0,,,,,,,,,,,,,,,,,,,,,,,,,,,,,,,,,,,,,,,,,,,,,,,,,,,,,422.12226570001803,None,,,,,,,,,,,,,,,,,,,,,,,,,,,,,,,,,,,temple,82,24,aloud,blue,420.12028360005934,None,None,420.12028360005934,None,,,,,,,,,,,,,,,,,,,,,,,,,,,,,,4,001,2023_Jan_30_1151,ExactRep-v3-final,2021.2.3,59.89268429387375,
,,,,,,,,24,0,24,0,,,,,,,,,,,,,,,,,,,,,,,,,,,,,,,,,,,,,,,,,,,,,,,,,,,,,424.641672900063,None,,,,,,,,,,,,,,,,,,,,,,,,,,,,,,,,,,,effort,91,25,aloud,blue,422.6372936000116,None,None,422.6372936000116,None,,,,,,,,,,,,,,,,,,,,,,,,,,,,,,4,001,2023_Jan_30_1151,ExactRep-v3-final,2021.2.3,59.89268429387375,
,,,,,,,,25,0,25,0,,,,,,,,,,,,,,,,,,,,,,,,,,,,,,,,,,,,,,,,,,,,,,,,,,,,,427.14416809997056,None,,,,,,,,,,,,,,,,,,,,,,,,,,,,,,,,,,,market,88,26,aloud,blue,425.1418389000464,None,None,425.1418389000464,None,,,,,,,,,,,,,,,,,,,,,,,,,,,,,,4,001,2023_Jan_30_1151,ExactRep-v3-final,2021.2.3,59.89268429387375,
,,,,,,,,26,0,26,0,,,,,,,,,,,,,,,,,,,,,,,,,,,,,,,,,,,,,,,,,,,,,,,,,,,,,429.6466720000608,None,,,,,,,,,,,,,,,,,,,,,,,,,,,,,,,,,,,meeting,13,27,sing,red,427.6472623000154,None,None,427.6472623000154,None,,,,,,,,,,,,,,,,,,,,,,,,,,,,,,4,001,2023_Jan_30_1151,ExactRep-v3-final,2021.2.3,59.89268429387375,
,,,,,,,,27,0,27,0,,,,,,,,,,,,,,,,,,,,,,,,,,,,,,,,,,,,,,,,,,,,,,,,,,,,,432.1658210000023,None,,,,,,,,,,,,,,,,,,,,,,,,,,,,,,,,,,,bottle,74,28,silent,white,430.1503819000209,None,None,430.1503819000209,None,,,,,,,,,,,,,,,,,,,,,,,,,,,,,,4,001,2023_Jan_30_1151,ExactRep-v3-final,2021.2.3,59.89268429387375,
,,,,,,,,28,0,28,0,,,,,,,,,,,,,,,,,,,,,,,,,,,,,,,,,,,,,,,,,,,,,,,,,,,,,434.68501839996316,None,,,,,,,,,,,,,,,,,,,,,,,,,,,,,,,,,,,event,65,29,silent,white,432.68568210001104,None,None,432.68568210001104,None,,,,,,,,,,,,,,,,,,,,,,,,,,,,,,4,001,2023_Jan_30_1151,ExactRep-v3-final,2021.2.3,59.89268429387375,
,,,,,,,,29,0,29,0,,,,,,,,,,,,,,,,,,,,,,,,,,,,,,,,,,,,,,,,,,,,,,,,,,,,,437.18734960001893,None,,,,,,,,,,,,,,,,,,,,,,,,,,,,,,,,,,,series,25,30,sing,red,435.18551490001846,None,None,435.18551490001846,None,,,,,,,,,,,,,,,,,,,,,,,,,,,,,,4,001,2023_Jan_30_1151,ExactRep-v3-final,2021.2.3,59.89268429387375,
,,,,,,,,30,0,30,0,,,,,,,,,,,,,,,,,,,,,,,,,,,,,,,,,,,,,,,,,,,,,,,,,,,,,439.69001370004844,None,,,,,,,,,,,,,,,,,,,,,,,,,,,,,,,,,,,seat,30,31,sing,red,437.69057790003717,None,None,437.69057790003717,None,,,,,,,,,,,,,,,,,,,,,,,,,,,,,,4,001,2023_Jan_30_1151,ExactRep-v3-final,2021.2.3,59.89268429387375,
,,,,,,,,31,0,31,0,,,,,,,,,,,,,,,,,,,,,,,,,,,,,,,,,,,,,,,,,,,,,,,,,,,,,442.2091653000098,None,,,,,,,,,,,,,,,,,,,,,,,,,,,,,,,,,,,month,7,32,sing,red,440.19595530000515,None,None,440.19595530000515,None,,,,,,,,,,,,,,,,,,,,,,,,,,,,,,4,001,2023_Jan_30_1151,ExactRep-v3-final,2021.2.3,59.89268429387375,
,,,,,,,,32,0,32,0,,,,,,,,,,,,,,,,,,,,,,,,,,,,,,,,,,,,,,,,,,,,,,,,,,,,,444.72845030005556,None,,,,,,,,,,,,,,,,,,,,,,,,,,,,,,,,,,,green,5,33,sing,red,442.7150462999707,None,None,442.7150462999707,None,,,,,,,,,,,,,,,,,,,,,,,,,,,,,,4,001,2023_Jan_30_1151,ExactRep-v3-final,2021.2.3,59.89268429387375,
,,,,,,,,33,0,33,0,,,,,,,,,,,,,,,,,,,,,,,,,,,,,,,,,,,,,,,,,,,,,,,,,,,,,447.23235760000534,None,,,,,,,,,,,,,,,,,,,,,,,,,,,,,,,,,,,shoes,86,34,aloud,blue,445.23210040002596,None,None,445.23210040002596,None,,,,,,,,,,,,,,,,,,,,,,,,,,,,,,4,001,2023_Jan_30_1151,ExactRep-v3-final,2021.2.3,59.89268429387375,
,,,,,,,,34,0,34,0,,,,,,,,,,,,,,,,,,,,,,,,,,,,,,,,,,,,,,,,,,,,,,,,,,,,,449.7334747000132,None,,,,,,,,,,,,,,,,,,,,,,,,,,,,,,,,,,,time,96,35,aloud,blue,447.73119069996756,None,None,447.73119069996756,None,,,,,,,,,,,,,,,,,,,,,,,,,,,,,,4,001,2023_Jan_30_1151,ExactRep-v3-final,2021.2.3,59.89268429387375,
,,,,,,,,35,0,35,0,,,,,,,,,,,,,,,,,,,,,,,,,,,,,,,,,,,,,,,,,,,,,,,,,,,,,452.25259080005344,None,,,,,,,,,,,,,,,,,,,,,,,,,,,,,,,,,,,rock,18,36,sing,red,450.2385680000298,None,None,450.2385680000298,None,,,,,,,,,,,,,,,,,,,,,,,,,,,,,,4,001,2023_Jan_30_1151,ExactRep-v3-final,2021.2.3,59.89268429387375,
,,,,,,,,36,0,36,0,,,,,,,,,,,,,,,,,,,,,,,,,,,,,,,,,,,,,,,,,,,,,,,,,,,,,454.7549546000082,None,,,,,,,,,,,,,,,,,,,,,,,,,,,,,,,,,,,flood,118,37,aloud,blue,452.7531899000751,None,None,452.7531899000751,None,,,,,,,,,,,,,,,,,,,,,,,,,,,,,,4,001,2023_Jan_30_1151,ExactRep-v3-final,2021.2.3,59.89268429387375,
,,,,,,,,37,0,37,0,,,,,,,,,,,,,,,,,,,,,,,,,,,,,,,,,,,,,,,,,,,,,,,,,,,,,457.2576821000548,None,,,,,,,,,,,,,,,,,,,,,,,,,,,,,,,,,,,home,35,38,sing,red,455.2575554000214,None,None,455.2575554000214,None,,,,,,,,,,,,,,,,,,,,,,,,,,,,,,4,001,2023_Jan_30_1151,ExactRep-v3-final,2021.2.3,59.89268429387375,
,,,,,,,,38,0,38,0,,,,,,,,,,,,,,,,,,,,,,,,,,,,,,,,,,,,,,,,,,,,,,,,,,,,,459.7601810999913,None,,,,,,,,,,,,,,,,,,,,,,,,,,,,,,,,,,,justice,119,39,aloud,blue,457.7594470999902,None,None,457.7594470999902,None,,,,,,,,,,,,,,,,,,,,,,,,,,,,,,4,001,2023_Jan_30_1151,ExactRep-v3-final,2021.2.3,59.89268429387375,
,,,,,,,,39,0,39,0,,,,,,,,,,,,,,,,,,,,,,,,,,,,,,,,,,,,,,,,,,,,,,,,,,,,,462.2626420999877,None,,,,,,,,,,,,,,,,,,,,,,,,,,,,,,,,,,,weapon,72,40,silent,white,460.2606445000274,None,None,460.2606445000274,None,,,,,,,,,,,,,,,,,,,,,,,,,,,,,,4,001,2023_Jan_30_1151,ExactRep-v3-final,2021.2.3,59.89268429387375,
,,,,,,,,40,0,40,0,,,,,,,,,,,,,,,,,,,,,,,,,,,,,,,,,,,,,,,,,,,,,,,,,,,,,464.7650570999831,None,,,,,,,,,,,,,,,,,,,,,,,,,,,,,,,,,,,ship,0,41,sing,red,462.7653951999964,None,None,462.7653951999964,None,,,,,,,,,,,,,,,,,,,,,,,,,,,,,,4,001,2023_Jan_30_1151,ExactRep-v3-final,2021.2.3,59.89268429387375,
,,,,,,,,41,0,41,0,,,,,,,,,,,,,,,,,,,,,,,,,,,,,,,,,,,,,,,,,,,,,,,,,,,,,467.2675780999707,None,,,,,,,,,,,,,,,,,,,,,,,,,,,,,,,,,,,ticket,106,42,aloud,blue,465.26708390004933,None,None,465.26708390004933,None,,,,,,,,,,,,,,,,,,,,,,,,,,,,,,4,001,2023_Jan_30_1151,ExactRep-v3-final,2021.2.3,59.89268429387375,
,,,,,,,,42,0,42,0,,,,,,,,,,,,,,,,,,,,,,,,,,,,,,,,,,,,,,,,,,,,,,,,,,,,,469.7698942000279,None,,,,,,,,,,,,,,,,,,,,,,,,,,,,,,,,,,,soil,62,43,silent,white,467.769453200046,None,None,467.769453200046,None,,,,,,,,,,,,,,,,,,,,,,,,,,,,,,4,001,2023_Jan_30_1151,ExactRep-v3-final,2021.2.3,59.89268429387375,
,,,,,,,,43,0,43,0,,,,,,,,,,,,,,,,,,,,,,,,,,,,,,,,,,,,,,,,,,,,,,,,,,,,,472.27263869997114,None,,,,,,,,,,,,,,,,,,,,,,,,,,,,,,,,,,,hope,81,44,aloud,blue,470.2705722000683,None,None,470.2705722000683,None,,,,,,,,,,,,,,,,,,,,,,,,,,,,,,4,001,2023_Jan_30_1151,ExactRep-v3-final,2021.2.3,59.89268429387375,
,,,,,,,,44,0,44,0,,,,,,,,,,,,,,,,,,,,,,,,,,,,,,,,,,,,,,,,,,,,,,,,,,,,,474.79188789997716,None,,,,,,,,,,,,,,,,,,,,,,,,,,,,,,,,,,,boy,54,45,silent,white,472.77840359997936,None,None,472.77840359997936,None,,,,,,,,,,,,,,,,,,,,,,,,,,,,,,4,001,2023_Jan_30_1151,ExactRep-v3-final,2021.2.3,59.89268429387375,
,,,,,,,,45,0,45,0,,,,,,,,,,,,,,,,,,,,,,,,,,,,,,,,,,,,,,,,,,,,,,,,,,,,,477.29422549996525,None,,,,,,,,,,,,,,,,,,,,,,,,,,,,,,,,,,,fact,6,46,sing,red,475.2947561000474,None,None,475.2947561000474,None,,,,,,,,,,,,,,,,,,,,,,,,,,,,,,4,001,2023_Jan_30_1151,ExactRep-v3-final,2021.2.3,59.89268429387375,
,,,,,,,,46,0,46,0,,,,,,,,,,,,,,,,,,,,,,,,,,,,,,,,,,,,,,,,,,,,,,,,,,,,,479.8134700000519,None,,,,,,,,,,,,,,,,,,,,,,,,,,,,,,,,,,,letter,105,47,aloud,blue,477.80461910006125,None,None,477.80461910006125,None,,,,,,,,,,,,,,,,,,,,,,,,,,,,,,4,001,2023_Jan_30_1151,ExactRep-v3-final,2021.2.3,59.89268429387375,
,,,,,,,,47,0,47,0,,,,,,,,,,,,,,,,,,,,,,,,,,,,,,,,,,,,,,,,,,,,,,,,,,,,,482.31591300002765,None,,,,,,,,,,,,,,,,,,,,,,,,,,,,,,,,,,,street,109,48,aloud,blue,480.31394200003706,None,None,480.31394200003706,None,,,,,,,,,,,,,,,,,,,,,,,,,,,,,,4,001,2023_Jan_30_1151,ExactRep-v3-final,2021.2.3,59.89268429387375,
,,,,,,,,48,0,48,0,,,,,,,,,,,,,,,,,,,,,,,,,,,,,,,,,,,,,,,,,,,,,,,,,,,,,484.8351489000488,None,,,,,,,,,,,,,,,,,,,,,,,,,,,,,,,,,,,wine,8,49,sing,red,482.82461450004485,None,None,482.82461450004485,None,,,,,,,,,,,,,,,,,,,,,,,,,,,,,,4,001,2023_Jan_30_1151,ExactRep-v3-final,2021.2.3,59.89268429387375,
,,,,,,,,49,0,49,0,,,,,,,,,,,,,,,,,,,,,,,,,,,,,,,,,,,,,,,,,,,,,,,,,,,,,487.33761439996306,None,,,,,,,,,,,,,,,,,,,,,,,,,,,,,,,,,,,tree,101,50,aloud,blue,485.3366528999759,None,None,485.3366528999759,None,,,,,,,,,,,,,,,,,,,,,,,,,,,,,,4,001,2023_Jan_30_1151,ExactRep-v3-final,2021.2.3,59.89268429387375,
,,,,,,,,50,0,50,0,,,,,,,,,,,,,,,,,,,,,,,,,,,,,,,,,,,,,,,,,,,,,,,,,,,,,489.8401213999605,None,,,,,,,,,,,,,,,,,,,,,,,,,,,,,,,,,,,anger,19,51,sing,red,487.8407077000011,None,None,487.8407077000011,None,,,,,,,,,,,,,,,,,,,,,,,,,,,,,,4,001,2023_Jan_30_1151,ExactRep-v3-final,2021.2.3,59.89268429387375,
,,,,,,,,51,0,51,0,,,,,,,,,,,,,,,,,,,,,,,,,,,,,,,,,,,,,,,,,,,,,,,,,,,,,492.3426709000487,None,,,,,,,,,,,,,,,,,,,,,,,,,,,,,,,,,,,spirit,63,52,silent,white,490.3421096999664,None,None,490.3421096999664,None,,,,,,,,,,,,,,,,,,,,,,,,,,,,,,4,001,2023_Jan_30_1151,ExactRep-v3-final,2021.2.3,59.89268429387375,
,,,,,,,,52,0,52,0,,,,,,,,,,,,,,,,,,,,,,,,,,,,,,,,,,,,,,,,,,,,,,,,,,,,,494.8452118000714,None,,,,,,,,,,,,,,,,,,,,,,,,,,,,,,,,,,,ability,77,53,silent,white,492.84473110002,None,None,492.84473110002,None,,,,,,,,,,,,,,,,,,,,,,,,,,,,,,4,001,2023_Jan_30_1151,ExactRep-v3-final,2021.2.3,59.89268429387375,
,,,,,,,,53,0,53,0,,,,,,,,,,,,,,,,,,,,,,,,,,,,,,,,,,,,,,,,,,,,,,,,,,,,,497.3642903000582,None,,,,,,,,,,,,,,,,,,,,,,,,,,,,,,,,,,,earth,31,54,sing,red,495.3509182999842,None,None,495.3509182999842,None,,,,,,,,,,,,,,,,,,,,,,,,,,,,,,4,001,2023_Jan_30_1151,ExactRep-v3-final,2021.2.3,59.89268429387375,
,,,,,,,,54,0,54,0,,,,,,,,,,,,,,,,,,,,,,,,,,,,,,,,,,,,,,,,,,,,,,,,,,,,,499.88353500002995,None,,,,,,,,,,,,,,,,,,,,,,,,,,,,,,,,,,,queen,17,55,sing,red,497.88053329999093,None,None,497.88053329999093,None,,,,,,,,,,,,,,,,,,,,,,,,,,,,,,4,001,2023_Jan_30_1151,ExactRep-v3-final,2021.2.3,59.89268429387375,
,,,,,,,,55,0,55,0,,,,,,,,,,,,,,,,,,,,,,,,,,,,,,,,,,,,,,,,,,,,,,,,,,,,,502.38602650002576,None,,,,,,,,,,,,,,,,,,,,,,,,,,,,,,,,,,,pole,38,56,sing,red,500.38372719998006,None,None,500.38372719998006,None,,,,,,,,,,,,,,,,,,,,,,,,,,,,,,4,001,2023_Jan_30_1151,ExactRep-v3-final,2021.2.3,59.89268429387375,
,,,,,,,,56,0,56,0,,,,,,,,,,,,,,,,,,,,,,,,,,,,,,,,,,,,,,,,,,,,,,,,,,,,,504.888548500021,None,,,,,,,,,,,,,,,,,,,,,,,,,,,,,,,,,,,string,50,57,silent,white,502.88834419997875,None,None,502.88834419997875,None,,,,,,,,,,,,,,,,,,,,,,,,,,,,,,4,001,2023_Jan_30_1151,ExactRep-v3-final,2021.2.3,59.89268429387375,
,,,,,,,,57,0,57,0,,,,,,,,,,,,,,,,,,,,,,,,,,,,,,,,,,,,,,,,,,,,,,,,,,,,,507.4075172999874,None,,,,,,,,,,,,,,,,,,,,,,,,,,,,,,,,,,,doll,36,58,sing,red,505.39720450004097,None,None,505.39720450004097,None,,,,,,,,,,,,,,,,,,,,,,,,,,,,,,4,001,2023_Jan_30_1151,ExactRep-v3-final,2021.2.3,59.89268429387375,
,,,,,,,,58,0,58,0,,,,,,,,,,,,,,,,,,,,,,,,,,,,,,,,,,,,,,,,,,,,,,,,,,,,,509.92692760005593,None,,,,,,,,,,,,,,,,,,,,,,,,,,,,,,,,,,,student,100,59,aloud,blue,507.9123115000548,None,None,507.9123115000548,None,,,,,,,,,,,,,,,,,,,,,,,,,,,,,,4,001,2023_Jan_30_1151,ExactRep-v3-final,2021.2.3,59.89268429387375,
,,,,,,,,59,0,59,0,,,,,,,,,,,,,,,,,,,,,,,,,,,,,,,,,,,,,,,,,,,,,,,,,,,,,512.4294172000373,None,,,,,,,,,,,,,,,,,,,,,,,,,,,,,,,,,,,city,44,60,silent,white,510.42841160006355,None,None,510.42841160006355,None,,,,,,,,,,,,,,,,,,,,,,,,,,,,,,4,001,2023_Jan_30_1151,ExactRep-v3-final,2021.2.3,59.89268429387375,
,,,,,,,,60,0,60,0,,,,,,,,,,,,,,,,,,,,,,,,,,,,,,,,,,,,,,,,,,,,,,,,,,,,,514.950382500072,None,,,,,,,,,,,,,,,,,,,,,,,,,,,,,,,,,,,butter,45,61,silent,white,512.9388078000629,None,None,512.9388078000629,None,,,,,,,,,,,,,,,,,,,,,,,,,,,,,,4,001,2023_Jan_30_1151,ExactRep-v3-final,2021.2.3,59.89268429387375,
,,,,,,,,61,0,61,0,,,,,,,,,,,,,,,,,,,,,,,,,,,,,,,,,,,,,,,,,,,,,,,,,,,,,517.4677848999854,None,,,,,,,,,,,,,,,,,,,,,,,,,,,,,,,,,,,method,99,62,aloud,blue,515.452114899992,None,None,515.452114899992,None,,,,,,,,,,,,,,,,,,,,,,,,,,,,,,4,001,2023_Jan_30_1151,ExactRep-v3-final,2021.2.3,59.89268429387375,
,,,,,,,,62,0,62,0,,,,,,,,,,,,,,,,,,,,,,,,,,,,,,,,,,,,,,,,,,,,,,,,,,,,,519.9702670000261,None,,,,,,,,,,,,,,,,,,,,,,,,,,,,,,,,,,,shadow,43,63,silent,white,517.9711192999966,None,None,517.9711192999966,None,,,,,,,,,,,,,,,,,,,,,,,,,,,,,,4,001,2023_Jan_30_1151,ExactRep-v3-final,2021.2.3,59.89268429387375,
,,,,,,,,63,0,63,0,,,,,,,,,,,,,,,,,,,,,,,,,,,,,,,,,,,,,,,,,,,,,,,,,,,,,522.4893987000687,None,,,,,,,,,,,,,,,,,,,,,,,,,,,,,,,,,,,excuse,33,64,sing,red,520.4796857000329,None,None,520.4796857000329,None,,,,,,,,,,,,,,,,,,,,,,,,,,,,,,4,001,2023_Jan_30_1151,ExactRep-v3-final,2021.2.3,59.89268429387375,
,,,,,,,,64,0,64,0,,,,,,,,,,,,,,,,,,,,,,,,,,,,,,,,,,,,,,,,,,,,,,,,,,,,,525.0102721999865,None,,,,,,,,,,,,,,,,,,,,,,,,,,,,,,,,,,,author,78,65,silent,white,523.0010109000141,None,None,523.0010109000141,None,,,,,,,,,,,,,,,,,,,,,,,,,,,,,,4,001,2023_Jan_30_1151,ExactRep-v3-final,2021.2.3,59.89268429387375,
,,,,,,,,65,0,65,0,,,,,,,,,,,,,,,,,,,,,,,,,,,,,,,,,,,,,,,,,,,,,,,,,,,,,527.5111111999722,None,,,,,,,,,,,,,,,,,,,,,,,,,,,,,,,,,,,body,103,66,aloud,blue,525.5119847999886,None,None,525.5119847999886,None,,,,,,,,,,,,,,,,,,,,,,,,,,,,,,4,001,2023_Jan_30_1151,ExactRep-v3-final,2021.2.3,59.89268429387375,
,,,,,,,,66,0,66,0,,,,,,,,,,,,,,,,,,,,,,,,,,,,,,,,,,,,,,,,,,,,,,,,,,,,,530.0135999000631,None,,,,,,,,,,,,,,,,,,,,,,,,,,,,,,,,,,,stone,75,67,silent,white,528.0134535999969,None,None,528.0134535999969,None,,,,,,,,,,,,,,,,,,,,,,,,,,,,,,4,001,2023_Jan_30_1151,ExactRep-v3-final,2021.2.3,59.89268429387375,
,,,,,,,,67,0,67,0,,,,,,,,,,,,,,,,,,,,,,,,,,,,,,,,,,,,,,,,,,,,,,,,,,,,,532.5161164000165,None,,,,,,,,,,,,,,,,,,,,,,,,,,,,,,,,,,,advice,39,68,silent,white,530.5140100000426,None,None,530.5140100000426,None,,,,,,,,,,,,,,,,,,,,,,,,,,,,,,4,001,2023_Jan_30_1151,ExactRep-v3-final,2021.2.3,59.89268429387375,
,,,,,,,,68,0,68,0,,,,,,,,,,,,,,,,,,,,,,,,,,,,,,,,,,,,,,,,,,,,,,,,,,,,,535.0353088000556,None,,,,,,,,,,,,,,,,,,,,,,,,,,,,,,,,,,,avenue,93,69,aloud,blue,533.019734099973,None,None,533.019734099973,None,,,,,,,,,,,,,,,,,,,,,,,,,,,,,,4,001,2023_Jan_30_1151,ExactRep-v3-final,2021.2.3,59.89268429387375,
,,,,,,,,69,0,69,0,,,,,,,,,,,,,,,,,,,,,,,,,,,,,,,,,,,,,,,,,,,,,,,,,,,,,537.5377913999837,None,,,,,,,,,,,,,,,,,,,,,,,,,,,,,,,,,,,freedom,10,70,sing,red,535.535794800031,None,None,535.535794800031,None,,,,,,,,,,,,,,,,,,,,,,,,,,,,,,4,001,2023_Jan_30_1151,ExactRep-v3-final,2021.2.3,59.89268429387375,
,,,,,,,,70,0,70,0,,,,,,,,,,,,,,,,,,,,,,,,,,,,,,,,,,,,,,,,,,,,,,,,,,,,,540.0402923000511,None,,,,,,,,,,,,,,,,,,,,,,,,,,,,,,,,,,,chair,110,71,aloud,blue,538.0398462000303,None,None,538.0398462000303,None,,,,,,,,,,,,,,,,,,,,,,,,,,,,,,4,001,2023_Jan_30_1151,ExactRep-v3-final,2021.2.3,59.89268429387375,
,,,,,,,,71,0,71,0,,,,,,,,,,,,,,,,,,,,,,,,,,,,,,,,,,,,,,,,,,,,,,,,,,,,,542.542763800011,None,,,,,,,,,,,,,,,,,,,,,,,,,,,,,,,,,,,amount,70,72,silent,white,540.5421599000692,None,None,540.5421599000692,None,,,,,,,,,,,,,,,,,,,,,,,,,,,,,,4,001,2023_Jan_30_1151,ExactRep-v3-final,2021.2.3,59.89268429387375,
,,,,,,,,72,0,72,0,,,,,,,,,,,,,,,,,,,,,,,,,,,,,,,,,,,,,,,,,,,,,,,,,,,,,545.0619410000509,None,,,,,,,,,,,,,,,,,,,,,,,,,,,,,,,,,,,blood,73,73,silent,white,543.05296120001,None,None,543.05296120001,None,,,,,,,,,,,,,,,,,,,,,,,,,,,,,,4,001,2023_Jan_30_1151,ExactRep-v3-final,2021.2.3,59.89268429387375,
,,,,,,,,73,0,73,0,,,,,,,,,,,,,,,,,,,,,,,,,,,,,,,,,,,,,,,,,,,,,,,,,,,,,547.5811776999617,None,,,,,,,,,,,,,,,,,,,,,,,,,,,,,,,,,,,heaven,2,74,sing,red,545.573304999969,None,None,545.573304999969,None,,,,,,,,,,,,,,,,,,,,,,,,,,,,,,4,001,2023_Jan_30_1151,ExactRep-v3-final,2021.2.3,59.89268429387375,
,,,,,,,,74,0,74,0,,,,,,,,,,,,,,,,,,,,,,,,,,,,,,,,,,,,,,,,,,,,,,,,,,,,,550.1003037999617,None,,,,,,,,,,,,,,,,,,,,,,,,,,,,,,,,,,,custom,102,75,aloud,blue,548.0908828000538,None,None,548.0908828000538,None,,,,,,,,,,,,,,,,,,,,,,,,,,,,,,4,001,2023_Jan_30_1151,ExactRep-v3-final,2021.2.3,59.89268429387375,
,,,,,,,,75,0,75,0,,,,,,,,,,,,,,,,,,,,,,,,,,,,,,,,,,,,,,,,,,,,,,,,,,,,,552.6194971000077,None,,,,,,,,,,,,,,,,,,,,,,,,,,,,,,,,,,,moment,42,76,silent,white,550.60911640001,None,None,550.60911640001,None,,,,,,,,,,,,,,,,,,,,,,,,,,,,,,4,001,2023_Jan_30_1151,ExactRep-v3-final,2021.2.3,59.89268429387375,
,,,,,,,,76,0,76,0,,,,,,,,,,,,,,,,,,,,,,,,,,,,,,,,,,,,,,,,,,,,,,,,,,,,,555.1386775000719,None,,,,,,,,,,,,,,,,,,,,,,,,,,,,,,,,,,,honour,37,77,sing,red,553.1243736000033,None,None,553.1243736000033,None,,,,,,,,,,,,,,,,,,,,,,,,,,,,,,4,001,2023_Jan_30_1151,ExactRep-v3-final,2021.2.3,59.89268429387375,
,,,,,,,,77,0,77,0,,,,,,,,,,,,,,,,,,,,,,,,,,,,,,,,,,,,,,,,,,,,,,,,,,,,,557.6578930000542,None,,,,,,,,,,,,,,,,,,,,,,,,,,,,,,,,,,,theory,92,78,aloud,blue,555.6476242999779,None,None,555.6476242999779,None,,,,,,,,,,,,,,,,,,,,,,,,,,,,,,4,001,2023_Jan_30_1151,ExactRep-v3-final,2021.2.3,59.89268429387375,
,,,,,,,,78,0,78,0,,,,,,,,,,,,,,,,,,,,,,,,,,,,,,,,,,,,,,,,,,,,,,,,,,,,,560.1772613000358,None,,,,,,,,,,,,,,,,,,,,,,,,,,,,,,,,,,,cottage,84,79,aloud,blue,558.1656070000026,None,None,558.1656070000026,None,,,,,,,,,,,,,,,,,,,,,,,,,,,,,,4,001,2023_Jan_30_1151,ExactRep-v3-final,2021.2.3,59.89268429387375,
,,,,,,,,79,0,79,0,,,,,,,,,,,,,,,,,,,,,,,,,,,,,,,,,,,,,,,,,,,,,,,,,,,,,562.6795693000313,None,,,,,,,,,,,,,,,,,,,,,,,,,,,,,,,,,,,iron,116,80,aloud,blue,560.677478000056,None,None,560.677478000056,None,,,,,,,,,,,,,,,,,,,,,,,,,,,,,,4,001,2023_Jan_30_1151,ExactRep-v3-final,2021.2.3,59.89268429387375,
,,,,,,,,80,0,80,0,,,,,,,,,,,,,,,,,,,,,,,,,,,,,,,,,,,,,,,,,,,,,,,,,,,,,565.1988002000144,None,,,,,,,,,,,,,,,,,,,,,,,,,,,,,,,,,,,army,83,81,aloud,blue,563.1837570000207,None,None,563.1837570000207,None,,,,,,,,,,,,,,,,,,,,,,,,,,,,,,4,001,2023_Jan_30_1151,ExactRep-v3-final,2021.2.3,59.89268429387375,
,,,,,,,,81,0,81,0,,,,,,,,,,,,,,,,,,,,,,,,,,,,,,,,,,,,,,,,,,,,,,,,,,,,,567.7180728999665,None,,,,,,,,,,,,,,,,,,,,,,,,,,,,,,,,,,,shore,60,82,silent,white,565.7028371000197,None,None,565.7028371000197,None,,,,,,,,,,,,,,,,,,,,,,,,,,,,,,4,001,2023_Jan_30_1151,ExactRep-v3-final,2021.2.3,59.89268429387375,
,,,,,,,,82,0,82,0,,,,,,,,,,,,,,,,,,,,,,,,,,,,,,,,,,,,,,,,,,,,,,,,,,,,,570.2205757000484,None,,,,,,,,,,,,,,,,,,,,,,,,,,,,,,,,,,,dust,49,83,silent,white,568.2183341999771,None,None,568.2183341999771,None,,,,,,,,,,,,,,,,,,,,,,,,,,,,,,4,001,2023_Jan_30_1151,ExactRep-v3-final,2021.2.3,59.89268429387375,
,,,,,,,,83,0,83,0,,,,,,,,,,,,,,,,,,,,,,,,,,,,,,,,,,,,,,,,,,,,,,,,,,,,,572.7229363999795,None,,,,,,,,,,,,,,,,,,,,,,,,,,,,,,,,,,,death,27,84,sing,red,570.7223584000021,None,None,570.7223584000021,None,,,,,,,,,,,,,,,,,,,,,,,,,,,,,,4,001,2023_Jan_30_1151,ExactRep-v3-final,2021.2.3,59.89268429387375,
,,,,,,,,84,0,84,0,,,,,,,,,,,,,,,,,,,,,,,,,,,,,,,,,,,,,,,,,,,,,,,,,,,,,575.2255180999637,None,,,,,,,,,,,,,,,,,,,,,,,,,,,,,,,,,,,pipe,79,85,sing,red,573.2234628000297,None,None,573.2234628000297,None,,,,,,,,,,,,,,,,,,,,,,,,,,,,,,4,001,2023_Jan_30_1151,ExactRep-v3-final,2021.2.3,59.89268429387375,
,,,,,,,,85,0,85,0,,,,,,,,,,,,,,,,,,,,,,,,,,,,,,,,,,,,,,,,,,,,,,,,,,,,,577.7280488000251,None,,,,,,,,,,,,,,,,,,,,,,,,,,,,,,,,,,,skin,89,86,aloud,blue,575.7259182999842,None,None,575.7259182999842,None,,,,,,,,,,,,,,,,,,,,,,,,,,,,,,4,001,2023_Jan_30_1151,ExactRep-v3-final,2021.2.3,59.89268429387375,
,,,,,,,,86,0,86,0,,,,,,,,,,,,,,,,,,,,,,,,,,,,,,,,,,,,,,,,,,,,,,,,,,,,,580.2305233000079,None,,,,,,,,,,,,,,,,,,,,,,,,,,,,,,,,,,,grief,76,87,silent,white,578.2300945000025,None,None,578.2300945000025,None,,,,,,,,,,,,,,,,,,,,,,,,,,,,,,4,001,2023_Jan_30_1151,ExactRep-v3-final,2021.2.3,59.89268429387375,
,,,,,,,,87,0,87,0,,,,,,,,,,,,,,,,,,,,,,,,,,,,,,,,,,,,,,,,,,,,,,,,,,,,,582.7496607999783,None,,,,,,,,,,,,,,,,,,,,,,,,,,,,,,,,,,,quality,115,88,aloud,blue,580.7353790999623,None,None,580.7353790999623,None,,,,,,,,,,,,,,,,,,,,,,,,,,,,,,4,001,2023_Jan_30_1151,ExactRep-v3-final,2021.2.3,59.89268429387375,
,,,,,,,,88,0,88,0,,,,,,,,,,,,,,,,,,,,,,,,,,,,,,,,,,,,,,,,,,,,,,,,,,,,,585.2521327000577,None,,,,,,,,,,,,,,,,,,,,,,,,,,,,,,,,,,,flesh,57,89,silent,white,583.2521294000326,None,None,583.2521294000326,None,,,,,,,,,,,,,,,,,,,,,,,,,,,,,,4,001,2023_Jan_30_1151,ExactRep-v3-final,2021.2.3,59.89268429387375,
,,,,,,,,89,0,89,0,,,,,,,,,,,,,,,,,,,,,,,,,,,,,,,,,,,,,,,,,,,,,,,,,,,,,587.7713014000328,None,,,,,,,,,,,,,,,,,,,,,,,,,,,,,,,,,,,chief,41,90,silent,white,585.7632492000703,None,None,585.7632492000703,None,,,,,,,,,,,,,,,,,,,,,,,,,,,,,,4,001,2023_Jan_30_1151,ExactRep-v3-final,2021.2.3,59.89268429387375,
,,,,,,,,90,0,90,0,,,,,,,,,,,,,,,,,,,,,,,,,,,,,,,,,,,,,,,,,,,,,,,,,,,,,590.2738839000231,None,,,,,,,,,,,,,,,,,,,,,,,,,,,,,,,,,,,safety,22,91,sing,red,588.2717993999831,None,None,588.2717993999831,None,,,,,,,,,,,,,,,,,,,,,,,,,,,,,,4,001,2023_Jan_30_1151,ExactRep-v3-final,2021.2.3,59.89268429387375,
,,,,,,,,91,0,91,0,,,,,,,,,,,,,,,,,,,,,,,,,,,,,,,,,,,,,,,,,,,,,,,,,,,,,592.7935121000046,None,,,,,,,,,,,,,,,,,,,,,,,,,,,,,,,,,,,bird,95,92,aloud,blue,590.7790452999761,None,None,590.7790452999761,None,,,,,,,,,,,,,,,,,,,,,,,,,,,,,,4,001,2023_Jan_30_1151,ExactRep-v3-final,2021.2.3,59.89268429387375,
,,,,,,,,92,0,92,0,,,,,,,,,,,,,,,,,,,,,,,,,,,,,,,,,,,,,,,,,,,,,,,,,,,,,595.2955215000547,None,,,,,,,,,,,,,,,,,,,,,,,,,,,,,,,,,,,history,40,93,silent,white,593.2935121000046,None,None,593.2935121000046,None,,,,,,,,,,,,,,,,,,,,,,,,,,,,,,4,001,2023_Jan_30_1151,ExactRep-v3-final,2021.2.3,59.89268429387375,
,,,,,,,,93,0,93,0,,,,,,,,,,,,,,,,,,,,,,,,,,,,,,,,,,,,,,,,,,,,,,,,,,,,,597.7980059999973,None,,,,,,,,,,,,,,,,,,,,,,,,,,,,,,,,,,,science,1,94,sing,red,595.7991088000126,None,None,595.7991088000126,None,,,,,,,,,,,,,,,,,,,,,,,,,,,,,,4,001,2023_Jan_30_1151,ExactRep-v3-final,2021.2.3,59.89268429387375,
,,,,,,,,94,0,94,0,,,,,,,,,,,,,,,,,,,,,,,,,,,,,,,,,,,,,,,,,,,,,,,,,,,,,600.3005449000048,None,,,,,,,,,,,,,,,,,,,,,,,,,,,,,,,,,,,length,21,95,sing,red,598.3013171000639,None,None,598.3013171000639,None,,,,,,,,,,,,,,,,,,,,,,,,,,,,,,4,001,2023_Jan_30_1151,ExactRep-v3-final,2021.2.3,59.89268429387375,
,,,,,,,,95,0,95,0,,,,,,,,,,,,,,,,,,,,,,,,,,,,,,,,,,,,,,,,,,,,,,,,,,,,,602.8196609000443,None,,,,,,,,,,,,,,,,,,,,,,,,,,,,,,,,,,,glory,20,96,sing,red,600.8089910000563,None,None,600.8089910000563,None,,,,,,,,,,,,,,,,,,,,,,,,,,,,,,4,001,2023_Jan_30_1151,ExactRep-v3-final,2021.2.3,59.89268429387375,
,,,,,,,,96,0,96,0,,,,,,,,,,,,,,,,,,,,,,,,,,,,,,,,,,,,,,,,,,,,,,,,,,,,,605.3222735000309,None,,,,,,,,,,,,,,,,,,,,,,,,,,,,,,,,,,,corn,34,97,sing,red,603.320166700054,None,None,603.320166700054,None,,,,,,,,,,,,,,,,,,,,,,,,,,,,,,4,001,2023_Jan_30_1151,ExactRep-v3-final,2021.2.3,59.89268429387375,
,,,,,,,,97,0,97,0,,,,,,,,,,,,,,,,,,,,,,,,,,,,,,,,,,,,,,,,,,,,,,,,,,,,,607.8246722000185,None,,,,,,,,,,,,,,,,,,,,,,,,,,,,,,,,,,,opinion,55,98,silent,white,605.8255815000739,None,None,605.8255815000739,None,,,,,,,,,,,,,,,,,,,,,,,,,,,,,,4,001,2023_Jan_30_1151,ExactRep-v3-final,2021.2.3,59.89268429387375,
,,,,,,,,98,0,98,0,,,,,,,,,,,,,,,,,,,,,,,,,,,,,,,,,,,,,,,,,,,,,,,,,,,,,610.343870599987,None,,,,,,,,,,,,,,,,,,,,,,,,,,,,,,,,,,,law,4,99,sing,red,608.3337390000233,None,None,608.3337390000233,None,,,,,,,,,,,,,,,,,,,,,,,,,,,,,,4,001,2023_Jan_30_1151,ExactRep-v3-final,2021.2.3,59.89268429387375,
,,,,,,,,99,0,99,0,,,,,,,,,,,,,,,,,,,,,,,,,,,,,,,,,,,,,,,,,,,,,,,,,,,,,612.8463717000559,None,,,,,,,,,,,,,,,,,,,,,,,,,,,,,,,,,,,murder,28,100,sing,red,610.8452965000179,None,None,610.8452965000179,None,,,,,,,,,,,,,,,,,,,,,,,,,,,,,,4,001,2023_Jan_30_1151,ExactRep-v3-final,2021.2.3,59.89268429387375,
,,,,,,,,100,0,100,0,,,,,,,,,,,,,,,,,,,,,,,,,,,,,,,,,,,,,,,,,,,,,,,,,,,,,615.3488398999907,None,,,,,,,,,,,,,,,,,,,,,,,,,,,,,,,,,,,college,64,101,silent,white,613.3487382000312,None,None,613.3487382000312,None,,,,,,,,,,,,,,,,,,,,,,,,,,,,,,4,001,2023_Jan_30_1151,ExactRep-v3-final,2021.2.3,59.89268429387375,
,,,,,,,,101,0,101,0,,,,,,,,,,,,,,,,,,,,,,,,,,,,,,,,,,,,,,,,,,,,,,,,,,,,,617.8681606999598,None,,,,,,,,,,,,,,,,,,,,,,,,,,,,,,,,,,,shame,114,102,aloud,blue,615.8579146000557,None,None,615.8579146000557,None,,,,,,,,,,,,,,,,,,,,,,,,,,,,,,4,001,2023_Jan_30_1151,ExactRep-v3-final,2021.2.3,59.89268429387375,
,,,,,,,,102,0,102,0,,,,,,,,,,,,,,,,,,,,,,,,,,,,,,,,,,,,,,,,,,,,,,,,,,,,,620.3873114000307,None,,,,,,,,,,,,,,,,,,,,,,,,,,,,,,,,,,,arm,117,103,aloud,blue,618.3721951000625,None,None,618.3721951000625,None,,,,,,,,,,,,,,,,,,,,,,,,,,,,,,4,001,2023_Jan_30_1151,ExactRep-v3-final,2021.2.3,59.89268429387375,
,,,,,,,,103,0,103,0,,,,,,,,,,,,,,,,,,,,,,,,,,,,,,,,,,,,,,,,,,,,,,,,,,,,,622.9078244999982,None,,,,,,,,,,,,,,,,,,,,,,,,,,,,,,,,,,,steam,112,104,aloud,blue,620.8914612999652,None,None,620.8914612999652,None,,,,,,,,,,,,,,,,,,,,,,,,,,,,,,4,001,2023_Jan_30_1151,ExactRep-v3-final,2021.2.3,59.89268429387375,
,,,,,,,,104,0,104,0,,,,,,,,,,,,,,,,,,,,,,,,,,,,,,,,,,,,,,,,,,,,,,,,,,,,,625.4256076000165,None,,,,,,,,,,,,,,,,,,,,,,,,,,,,,,,,,,,mother,53,105,silent,white,623.4139519999735,None,None,623.4139519999735,None,,,,,,,,,,,,,,,,,,,,,,,,,,,,,,4,001,2023_Jan_30_1151,ExactRep-v3-final,2021.2.3,59.89268429387375,
,,,,,,,,105,0,105,0,,,,,,,,,,,,,,,,,,,,,,,,,,,,,,,,,,,,,,,,,,,,,,,,,,,,,627.9458948000101,None,,,,,,,,,,,,,,,,,,,,,,,,,,,,,,,,,,,teacher,67,106,silent,white,625.9353721999796,None,None,625.9353721999796,None,,,,,,,,,,,,,,,,,,,,,,,,,,,,,,4,001,2023_Jan_30_1151,ExactRep-v3-final,2021.2.3,59.89268429387375,
,,,,,,,,106,0,106,0,,,,,,,,,,,,,,,,,,,,,,,,,,,,,,,,,,,,,,,,,,,,,,,,,,,,,630.4639440999599,None,,,,,,,,,,,,,,,,,,,,,,,,,,,,,,,,,,,dress,97,107,aloud,blue,628.4551739000017,None,None,628.4551739000017,None,,,,,,,,,,,,,,,,,,,,,,,,,,,,,,4,001,2023_Jan_30_1151,ExactRep-v3-final,2021.2.3,59.89268429387375,
,,,,,,,,107,0,107,0,,,,,,,,,,,,,,,,,,,,,,,,,,,,,,,,,,,,,,,,,,,,,,,,,,,,,632.9831555000274,None,,,,,,,,,,,,,,,,,,,,,,,,,,,,,,,,,,,circle,85,108,aloud,blue,630.9704618999967,None,None,630.9704618999967,None,,,,,,,,,,,,,,,,,,,,,,,,,,,,,,4,001,2023_Jan_30_1151,ExactRep-v3-final,2021.2.3,59.89268429387375,
,,,,,,,,108,0,108,0,,,,,,,,,,,,,,,,,,,,,,,,,,,,,,,,,,,,,,,,,,,,,,,,,,,,,635.4856461000163,None,,,,,,,,,,,,,,,,,,,,,,,,,,,,,,,,,,,style,26,109,sing,red,633.4843833000632,None,None,633.4843833000632,None,,,,,,,,,,,,,,,,,,,,,,,,,,,,,,4,001,2023_Jan_30_1151,ExactRep-v3-final,2021.2.3,59.89268429387375,
,,,,,,,,109,0,109,0,,,,,,,,,,,,,,,,,,,,,,,,,,,,,,,,,,,,,,,,,,,,,,,,,,,,,637.988248800044,None,,,,,,,,,,,,,,,,,,,,,,,,,,,,,,,,,,,beast,90,110,aloud,blue,635.987693300005,None,None,635.987693300005,None,,,,,,,,,,,,,,,,,,,,,,,,,,,,,,4,001,2023_Jan_30_1151,ExactRep-v3-final,2021.2.3,59.89268429387375,
,,,,,,,,110,0,110,0,,,,,,,,,,,,,,,,,,,,,,,,,,,,,,,,,,,,,,,,,,,,,,,,,,,,,640.5073144000489,None,,,,,,,,,,,,,,,,,,,,,,,,,,,,,,,,,,,car,107,111,aloud,blue,638.4936937000602,None,None,638.4936937000602,None,,,,,,,,,,,,,,,,,,,,,,,,,,,,,,4,001,2023_Jan_30_1151,ExactRep-v3-final,2021.2.3,59.89268429387375,
,,,,,,,,111,0,111,0,,,,,,,,,,,,,,,,,,,,,,,,,,,,,,,,,,,,,,,,,,,,,,,,,,,,,643.0265544999857,None,,,,,,,,,,,,,,,,,,,,,,,,,,,,,,,,,,,hotel,111,112,aloud,blue,641.0137464000145,None,None,641.0137464000145,None,,,,,,,,,,,,,,,,,,,,,,,,,,,,,,4,001,2023_Jan_30_1151,ExactRep-v3-final,2021.2.3,59.89268429387375,
,,,,,,,,112,0,112,0,,,,,,,,,,,,,,,,,,,,,,,,,,,,,,,,,,,,,,,,,,,,,,,,,,,,,645.5457060000626,None,,,,,,,,,,,,,,,,,,,,,,,,,,,,,,,,,,,vision,52,113,silent,white,643.5351419000654,None,None,643.5351419000654,None,,,,,,,,,,,,,,,,,,,,,,,,,,,,,,4,001,2023_Jan_30_1151,ExactRep-v3-final,2021.2.3,59.89268429387375,
,,,,,,,,113,0,113,0,,,,,,,,,,,,,,,,,,,,,,,,,,,,,,,,,,,,,,,,,,,,,,,,,,,,,648.0649215000449,None,,,,,,,,,,,,,,,,,,,,,,,,,,,,,,,,,,,moral,15,114,sing,red,646.0526076999959,None,None,646.0526076999959,None,,,,,,,,,,,,,,,,,,,,,,,,,,,,,,4,001,2023_Jan_30_1151,ExactRep-v3-final,2021.2.3,59.89268429387375,
,,,,,,,,114,0,114,0,,,,,,,,,,,,,,,,,,,,,,,,,,,,,,,,,,,,,,,,,,,,,,,,,,,,,650.5675252999645,None,,,,,,,,,,,,,,,,,,,,,,,,,,,,,,,,,,,mind,47,115,silent,white,648.5675556999631,None,None,648.5675556999631,None,,,,,,,,,,,,,,,,,,,,,,,,,,,,,,4,001,2023_Jan_30_1151,ExactRep-v3-final,2021.2.3,59.89268429387375,
,,,,,,,,115,0,115,0,,,,,,,,,,,,,,,,,,,,,,,,,,,,,,,,,,,,,,,,,,,,,,,,,,,,,653.070003699977,None,,,,,,,,,,,,,,,,,,,,,,,,,,,,,,,,,,,dawn,16,116,sing,red,651.067892299965,None,None,651.067892299965,None,,,,,,,,,,,,,,,,,,,,,,,,,,,,,,4,001,2023_Jan_30_1151,ExactRep-v3-final,2021.2.3,59.89268429387375,
,,,,,,,,116,0,116,0,,,,,,,,,,,,,,,,,,,,,,,,,,,,,,,,,,,,,,,,,,,,,,,,,,,,,655.5890694999835,None,,,,,,,,,,,,,,,,,,,,,,,,,,,,,,,,,,,book,11,117,sing,red,653.5747890999774,None,None,653.5747890999774,None,,,,,,,,,,,,,,,,,,,,,,,,,,,,,,4,001,2023_Jan_30_1151,ExactRep-v3-final,2021.2.3,59.89268429387375,
,,,,,,,,117,0,117,0,,,,,,,,,,,,,,,,,,,,,,,,,,,,,,,,,,,,,,,,,,,,,,,,,,,,,658.1083038999932,None,,,,,,,,,,,,,,,,,,,,,,,,,,,,,,,,,,,flower,51,118,silent,white,656.096848999965,None,None,656.096848999965,None,,,,,,,,,,,,,,,,,,,,,,,,,,,,,,4,001,2023_Jan_30_1151,ExactRep-v3-final,2021.2.3,59.89268429387375,
,,,,,,,,118,0,118,0,,,,,,,,,,,,,,,,,,,,,,,,,,,,,,,,,,,,,,,,,,,,,,,,,,,,,660.6274584999774,None,,,,,,,,,,,,,,,,,,,,,,,,,,,,,,,,,,,river,59,119,silent,white,658.6130110999802,None,None,658.6130110999802,None,,,,,,,,,,,,,,,,,,,,,,,,,,,,,,4,001,2023_Jan_30_1151,ExactRep-v3-final,2021.2.3,59.89268429387375,
,,,,,,,,119,0,119,0,,,,,,,,,,,,,,,,,,,,,,,,,,,,,,,,,,,,,,,,,,,,,,,,,,,,,663.14662340004,None,,,,,,,,,,,,,,,,,,,,,,,,,,,,,,,,,,,thought,68,120,silent,white,661.1388825000031,None,None,661.1388825000031,None,,,,,,,,,,,,,,,,,,,,,,,,,,,,,,4,001,2023_Jan_30_1151,ExactRep-v3-final,2021.2.3,59.89268429387375,
,,,,,,,,,,,,,,,,,,,,,,,,,,,,,,,,,,,,,,,,,,,,,,,,,,,,,,,,,,,,,,,,,,,,,,,,,,,,,,,,,,,,,,,,,,,,,,,,,,,,,,,,,,,,,,663.6487709999783,None,space,11.470566999982111,673.6418034000089,None,,,,,,,,,,,,,,,,,,,,,,,,4,001,2023_Jan_30_1151,ExactRep-v3-final,2021.2.3,59.89268429387375,
,,,,,,,,,,,,,,,,,,,,,,,,,,,,,,,,,,,,,,,,,,,,,,,,,,,,,,,,,,,,,,,,,,,,,,,,,,,,,,,,,,,,,,,,,,,,,,,,,,,,,,,,,,,,,,,,,,,,685.1371918000514,None,space,31.863165399990976,695.1133605999639,None,,,,,,,,,,,,,,,,,,4,001,2023_Jan_30_1151,ExactRep-v3-final,2021.2.3,59.89268429387375,
,,,,,,,,,,,,0,0,0,0,,,,,,,,,,,,,,,,,,,,,,,,,,,,,,,,,,,,,,,,,,,,,,,,,732.5325581000652,None,,,,,,,,,,,,,,,,,,,,,,,,,,,,,,,,,,,,,,,,,,,,,,,,,,,,,,,,,custom,102,1,aloud,old,blue,727.5060181000736,None,y,727.5060181000736,None,"['y', 'return']","[3.4461021999595687, 4.990056999959052]",727.5060181000736,None,,,4,001,2023_Jan_30_1151,ExactRep-v3-final,2021.2.3,59.89268429387375,
,,,,,,,,,,,,1,0,1,0,,,,,,,,,,,,,,,,,,,,,,,,,,,,,,,,,,,,,,,,,,,,,,,,,735.1696444000117,None,,,,,,,,,,,,,,,,,,,,,,,,,,,,,,,,,,,,,,,,,,,,,,,,,,,,,,,,,law,4,2,sing,old,red,733.039604700054,None,y,733.039604700054,None,"['y', 'return']","[1.5604168999707326, 2.096487900009379]",733.039604700054,None,,,4,001,2023_Jan_30_1151,ExactRep-v3-final,2021.2.3,59.89268429387375,
,,,,,,,,,,,,2,0,2,0,,,,,,,,,,,,,,,,,,,,,,,,,,,,,,,,,,,,,,,,,,,,,,,,,738.4054935000604,None,,,,,,,,,,,,,,,,,,,,,,,,,,,,,,,,,,,,,,,,,,,,,,,,,,,,,,,,,opinion,55,3,silent,old,white,735.67035270005,None,n,735.67035270005,None,"['n', 'return']","[2.265829300042242, 2.6977795000420883]",735.67035270005,None,,,4,001,2023_Jan_30_1151,ExactRep-v3-final,2021.2.3,59.89268429387375,
,,,,,,,,,,,,3,0,3,0,,,,,,,,,,,,,,,,,,,,,,,,,,,,,,,,,,,,,,,,,,,,,,,,,740.5739050999982,None,,,,,,,,,,,,,,,,,,,,,,,,,,,,,,,,,,,,,,,,,,,,,,,,,,,,,,,,,freedom,10,4,sing,old,red,738.9178463000571,None,y,738.9178463000571,None,"['y', 'return']","[1.2902540999930352, 1.6102913999930024]",738.9178463000571,None,,,4,001,2023_Jan_30_1151,ExactRep-v3-final,2021.2.3,59.89268429387375,
,,,,,,,,,,,,4,0,4,0,,,,,,,,,,,,,,,,,,,,,,,,,,,,,,,,,,,,,,,,,,,,,,,,,742.8761566000758,None,,,,,,,,,,,,,,,,,,,,,,,,,,,,,,,,,,,,,,,,,,,,,,,,,,,,,,,,,salary,87,5,aloud,old,blue,741.0904928999953,None,y,741.0904928999953,None,"['y', 'return']","[1.4695529999444261, 1.7496814000187442]",741.0904928999953,None,,,4,001,2023_Jan_30_1151,ExactRep-v3-final,2021.2.3,59.89268429387375,
,,,,,,,,,,,,5,0,5,0,,,,,,,,,,,,,,,,,,,,,,,,,,,,,,,,,,,,,,,,,,,,,,,,,744.9450241000159,None,,,,,,,,,,,,,,,,,,,,,,,,,,,,,,,,,,,,,,,,,,,,,,,,,,,,,,,,,tool,129,6,silent,new,white,743.3881934999954,None,n,743.3881934999954,None,"['n', 'return']","[1.1718270001001656, 1.5159736000932753]",743.3881934999954,None,,,4,001,2023_Jan_30_1151,ExactRep-v3-final,2021.2.3,59.89268429387375,
,,,,,,,,,,,,6,0,6,0,,,,,,,,,,,,,,,,,,,,,,,,,,,,,,,,,,,,,,,,,,,,,,,,,746.8635893000755,None,,,,,,,,,,,,,,,,,,,,,,,,,,,,,,,,,,,,,,,,,,,,,,,,,,,,,,,,,house,71,7,silent,old,white,745.4522276000353,None,n,745.4522276000353,None,"['n', 'return']","[1.0281372999306768, 1.3638938999501988]",745.4522276000353,None,,,4,001,2023_Jan_30_1151,ExactRep-v3-final,2021.2.3,59.89268429387375,
,,,,,,,,,,,,7,0,7,0,,,,,,,,,,,,,,,,,,,,,,,,,,,,,,,,,,,,,,,,,,,,,,,,,748.8322165000718,None,,,,,,,,,,,,,,,,,,,,,,,,,,,,,,,,,,,,,,,,,,,,,,,,,,,,,,,,,queen,17,8,sing,old,red,747.3721325000515,None,y,747.3721325000515,None,"['y', 'return']","[1.147841600002721, 1.4200190999545157]",747.3721325000515,None,,,4,001,2023_Jan_30_1151,ExactRep-v3-final,2021.2.3,59.89268429387375,
,,,,,,,,,,,,8,0,8,0,,,,,,,,,,,,,,,,,,,,,,,,,,,,,,,,,,,,,,,,,,,,,,,,,750.6385799000273,None,,,,,,,,,,,,,,,,,,,,,,,,,,,,,,,,,,,,,,,,,,,,,,,,,,,,,,,,,hide,174,9,aloud,new,blue,749.3423990000738,None,n,749.3423990000738,None,"['n', 'return']","[0.9536961000412703, 1.257640700088814]",749.3423990000738,None,,,4,001,2023_Jan_30_1151,ExactRep-v3-final,2021.2.3,59.89268429387375,
,,,,,,,,,,,,9,0,9,0,,,,,,,,,,,,,,,,,,,,,,,,,,,,,,,,,,,,,,,,,,,,,,,,,752.4191447000485,None,,,,,,,,,,,,,,,,,,,,,,,,,,,,,,,,,,,,,,,,,,,,,,,,,,,,,,,,,meeting,13,10,sing,old,red,751.1679417999694,None,n,751.1679417999694,None,"['n', 'return']","[0.9521034000208601, 1.2161996000213549]",751.1679417999694,None,,,4,001,2023_Jan_30_1151,ExactRep-v3-final,2021.2.3,59.89268429387375,
,,,,,,,,,,,,10,0,10,0,,,,,,,,,,,,,,,,,,,,,,,,,,,,,,,,,,,,,,,,,,,,,,,,,754.337745900033,None,,,,,,,,,,,,,,,,,,,,,,,,,,,,,,,,,,,,,,,,,,,,,,,,,,,,,,,,,style,26,11,sing,old,red,752.928917100071,None,y,752.928917100071,None,"['y', 'return']","[1.0951811000704765, 1.3751461000647396]",752.928917100071,None,,,4,001,2023_Jan_30_1151,ExactRep-v3-final,2021.2.3,59.89268429387375,
,,,,,,,,,,,,11,0,11,0,,,,,,,,,,,,,,,,,,,,,,,,,,,,,,,,,,,,,,,,,,,,,,,,,756.2896766000194,None,,,,,,,,,,,,,,,,,,,,,,,,,,,,,,,,,,,,,,,,,,,,,,,,,,,,,,,,,amount,70,12,silent,old,white,754.8475975999609,None,n,754.8475975999609,None,"['n', 'return']","[1.0884915000060573, 1.4004945000633597]",754.8475975999609,None,,,4,001,2023_Jan_30_1151,ExactRep-v3-final,2021.2.3,59.89268429387375,
,,,,,,,,,,,,12,0,12,0,,,,,,,,,,,,,,,,,,,,,,,,,,,,,,,,,,,,,,,,,,,,,,,,,759.4425555999624,None,,,,,,,,,,,,,,,,,,,,,,,,,,,,,,,,,,,,,,,,,,,,,,,,,,,,,,,,,fur,209,13,sing,new,red,756.8013142000418,None,n,756.8013142000418,None,"['n', 'return']","[2.3029809000436217, 2.6066802000859752]",756.8013142000418,None,,,4,001,2023_Jan_30_1151,ExactRep-v3-final,2021.2.3,59.89268429387375,
,,,,,,,,,,,,13,0,13,0,,,,,,,,,,,,,,,,,,,,,,,,,,,,,,,,,,,,,,,,,,,,,,,,,761.7451164000668,None,,,,,,,,,,,,,,,,,,,,,,,,,,,,,,,,,,,,,,,,,,,,,,,,,,,,,,,,,book,11,14,sing,old,red,759.955663700006,None,y,759.955663700006,None,"['y', 'return']","[1.4684165999060497, 1.756421500002034]",759.955663700006,None,,,4,001,2023_Jan_30_1151,ExactRep-v3-final,2021.2.3,59.89268429387375,
,,,,,,,,,,,,14,0,14,0,,,,,,,,,,,,,,,,,,,,,,,,,,,,,,,,,,,,,,,,,,,,,,,,,764.2641900000162,None,,,,,,,,,,,,,,,,,,,,,,,,,,,,,,,,,,,,,,,,,,,,,,,,,,,,,,,,,charm,23,15,sing,old,red,762.2548908999888,None,y,762.2548908999888,None,"['y', 'return']","[1.6252115999814123, 1.9691990000428632]",762.2548908999888,None,,,4,001,2023_Jan_30_1151,ExactRep-v3-final,2021.2.3,59.89268429387375,
,,,,,,,,,,,,15,0,15,0,,,,,,,,,,,,,,,,,,,,,,,,,,,,,,,,,,,,,,,,,,,,,,,,,766.1328535999637,None,,,,,,,,,,,,,,,,,,,,,,,,,,,,,,,,,,,,,,,,,,,,,,,,,,,,,,,,,square,127,16,silent,new,white,764.7751912999665,None,n,764.7751912999665,None,"['n', 'return']","[0.9368708999827504, 1.3128995000151917]",764.7751912999665,None,,,4,001,2023_Jan_30_1151,ExactRep-v3-final,2021.2.3,59.89268429387375,
,,,,,,,,,,,,16,0,16,0,,,,,,,,,,,,,,,,,,,,,,,,,,,,,,,,,,,,,,,,,,,,,,,,,767.8846203000285,None,,,,,,,,,,,,,,,,,,,,,,,,,,,,,,,,,,,,,,,,,,,,,,,,,,,,,,,,,party,146,17,silent,new,white,766.6427661000052,None,n,766.6427661000052,None,"['n', 'return']","[0.821326500037685, 1.2053347999462858]",766.6427661000052,None,,,4,001,2023_Jan_30_1151,ExactRep-v3-final,2021.2.3,59.89268429387375,
,,,,,,,,,,,,17,0,17,0,,,,,,,,,,,,,,,,,,,,,,,,,,,,,,,,,,,,,,,,,,,,,,,,,769.7531245000428,None,,,,,,,,,,,,,,,,,,,,,,,,,,,,,,,,,,,,,,,,,,,,,,,,,,,,,,,,,child,183,18,sing,new,red,768.3911405999679,None,n,768.3911405999679,None,"['n', 'return']","[0.9769620000151917, 1.3289364000083879]",768.3911405999679,None,,,4,001,2023_Jan_30_1151,ExactRep-v3-final,2021.2.3,59.89268429387375,
,,,,,,,,,,,,18,0,18,0,,,,,,,,,,,,,,,,,,,,,,,,,,,,,,,,,,,,,,,,,,,,,,,,,771.6049667999614,None,,,,,,,,,,,,,,,,,,,,,,,,,,,,,,,,,,,,,,,,,,,,,,,,,,,,,,,,,plant,226,19,aloud,new,blue,770.2634484000737,None,n,770.2634484000737,None,"['n', 'return']","[0.9366733999922872, 1.2966118000913411]",770.2634484000737,None,,,4,001,2023_Jan_30_1151,ExactRep-v3-final,2021.2.3,59.89268429387375,
,,,,,,,,,,,,19,0,19,0,,,,,,,,,,,,,,,,,,,,,,,,,,,,,,,,,,,,,,,,,,,,,,,,,775.6756895000581,None,,,,,,,,,,,,,,,,,,,,,,,,,,,,,,,,,,,,,,,,,,,,,,,,,,,,,,,,,shame,114,20,aloud,old,blue,772.1131827000063,None,n,772.1131827000063,None,"['n', 'return']","[3.2069052000297233, 3.526960500050336]",772.1131827000063,None,,,4,001,2023_Jan_30_1151,ExactRep-v3-final,2021.2.3,59.89268429387375,
,,,,,,,,,,,,20,0,20,0,,,,,,,,,,,,,,,,,,,,,,,,,,,,,,,,,,,,,,,,,,,,,,,,,777.4119038999779,None,,,,,,,,,,,,,,,,,,,,,,,,,,,,,,,,,,,,,,,,,,,,,,,,,,,,,,,,,leader,195,21,sing,new,red,776.1933199999621,None,n,776.1933199999621,None,"['n', 'return']","[0.8548280000686646, 1.1827494000317529]",776.1933199999621,None,,,4,001,2023_Jan_30_1151,ExactRep-v3-final,2021.2.3,59.89268429387375,
,,,,,,,,,,,,21,0,21,0,,,,,,,,,,,,,,,,,,,,,,,,,,,,,,,,,,,,,,,,,,,,,,,,,779.1125625000568,None,,,,,,,,,,,,,,,,,,,,,,,,,,,,,,,,,,,,,,,,,,,,,,,,,,,,,,,,,chief,41,22,silent,old,white,777.9235730000073,None,n,777.9235730000073,None,"['n', 'return']","[0.8127016000216827, 1.1485410999739543]",777.9235730000073,None,,,4,001,2023_Jan_30_1151,ExactRep-v3-final,2021.2.3,59.89268429387375,
,,,,,,,,,,,,22,0,22,0,,,,,,,,,,,,,,,,,,,,,,,,,,,,,,,,,,,,,,,,,,,,,,,,,781.3814090000233,None,,,,,,,,,,,,,,,,,,,,,,,,,,,,,,,,,,,,,,,,,,,,,,,,,,,,,,,,,iron,116,23,aloud,old,blue,779.6257132999599,None,y,779.6257132999599,None,"['y', 'return']","[1.4226679999846965, 1.7184826999437064]",779.6257132999599,None,,,4,001,2023_Jan_30_1151,ExactRep-v3-final,2021.2.3,59.89268429387375,
,,,,,,,,,,,,23,0,23,0,,,,,,,,,,,,,,,,,,,,,,,,,,,,,,,,,,,,,,,,,,,,,,,,,783.2843168000691,None,,,,,,,,,,,,,,,,,,,,,,,,,,,,,,,,,,,,,,,,,,,,,,,,,,,,,,,,,breast,222,24,aloud,new,blue,781.8878036000533,None,n,781.8878036000533,None,"['n', 'return']","[1.0244452999904752, 1.3522864000406116]",781.8878036000533,None,,,4,001,2023_Jan_30_1151,ExactRep-v3-final,2021.2.3,59.89268429387375,
,,,,,,,,,,,,24,0,24,0,,,,,,,,,,,,,,,,,,,,,,,,,,,,,,,,,,,,,,,,,,,,,,,,,784.9683171999641,None,,,,,,,,,,,,,,,,,,,,,,,,,,,,,,,,,,,,,,,,,,,,,,,,,,,,,,,,,disease,212,25,aloud,new,blue,783.7940374000464,None,n,783.7940374000464,None,"['n', 'return']","[0.8459780999692157, 1.1420589999761432]",783.7940374000464,None,,,4,001,2023_Jan_30_1151,ExactRep-v3-final,2021.2.3,59.89268429387375,
,,,,,,,,,,,,25,0,25,0,,,,,,,,,,,,,,,,,,,,,,,,,,,,,,,,,,,,,,,,,,,,,,,,,786.770153200021,None,,,,,,,,,,,,,,,,,,,,,,,,,,,,,,,,,,,,,,,,,,,,,,,,,,,,,,,,,world,148,26,silent,new,white,785.4842380000046,None,n,785.4842380000046,None,"['n', 'return']","[0.963836400071159, 1.2518429000629112]",785.4842380000046,None,,,4,001,2023_Jan_30_1151,ExactRep-v3-final,2021.2.3,59.89268429387375,
,,,,,,,,,,,,26,0,26,0,,,,,,,,,,,,,,,,,,,,,,,,,,,,,,,,,,,,,,,,,,,,,,,,,788.6221867999993,None,,,,,,,,,,,,,,,,,,,,,,,,,,,,,,,,,,,,,,,,,,,,,,,,,,,,,,,,,author,78,27,silent,old,white,787.2841198999668,None,n,787.2841198999668,None,"['n', 'return']","[1.0039198000449687, 1.2999888999620453]",787.2841198999668,None,,,4,001,2023_Jan_30_1151,ExactRep-v3-final,2021.2.3,59.89268429387375,
,,,,,,,,,,,,27,0,27,0,,,,,,,,,,,,,,,,,,,,,,,,,,,,,,,,,,,,,,,,,,,,,,,,,790.2402619000059,None,,,,,,,,,,,,,,,,,,,,,,,,,,,,,,,,,,,,,,,,,,,,,,,,,,,,,,,,,mercy,143,28,silent,new,white,789.1359578999691,None,n,789.1359578999691,None,"['n', 'return']","[0.7921360000036657, 1.072122500045225]",789.1359578999691,None,,,4,001,2023_Jan_30_1151,ExactRep-v3-final,2021.2.3,59.89268429387375,
,,,,,,,,,,,,28,0,28,0,,,,,,,,,,,,,,,,,,,,,,,,,,,,,,,,,,,,,,,,,,,,,,,,,792.2601794999791,None,,,,,,,,,,,,,,,,,,,,,,,,,,,,,,,,,,,,,,,,,,,,,,,,,,,,,,,,,life,135,29,silent,new,white,790.751393100014,None,n,790.751393100014,None,"['n', 'return']","[1.200855299946852, 1.464826799929142]",790.751393100014,None,,,4,001,2023_Jan_30_1151,ExactRep-v3-final,2021.2.3,59.89268429387375,
,,,,,,,,,,,,29,0,29,0,,,,,,,,,,,,,,,,,,,,,,,,,,,,,,,,,,,,,,,,,,,,,,,,,794.594706700067,None,,,,,,,,,,,,,,,,,,,,,,,,,,,,,,,,,,,,,,,,,,,,,,,,,,,,,,,,,vision,52,30,silent,old,white,792.7700919000199,None,n,792.7700919000199,None,"['n', 'return']","[1.50992550002411, 1.781949199968949]",792.7700919000199,None,,,4,001,2023_Jan_30_1151,ExactRep-v3-final,2021.2.3,59.89268429387375,
,,,,,,,,,,,,30,0,30,0,,,,,,,,,,,,,,,,,,,,,,,,,,,,,,,,,,,,,,,,,,,,,,,,,796.4309061999666,None,,,,,,,,,,,,,,,,,,,,,,,,,,,,,,,,,,,,,,,,,,,,,,,,,,,,,,,,,cost,179,31,sing,new,red,795.1028212000383,None,n,795.1028212000383,None,"['n', 'return']","[0.9855632999679074, 1.2813456999137998]",795.1028212000383,None,,,4,001,2023_Jan_30_1151,ExactRep-v3-final,2021.2.3,59.89268429387375,
,,,,,,,,,,,,31,0,31,0,,,,,,,,,,,,,,,,,,,,,,,,,,,,,,,,,,,,,,,,,,,,,,,,,800.5338984000264,None,,,,,,,,,,,,,,,,,,,,,,,,,,,,,,,,,,,,,,,,,,,,,,,,,,,,,,,,,origin,24,32,sing,old,red,796.9321288999636,None,y,796.9321288999636,None,"['y', 'return']","[2.10026520001702, 3.5560484000016004]",796.9321288999636,None,,,4,001,2023_Jan_30_1151,ExactRep-v3-final,2021.2.3,59.89268429387375,
,,,,,,,,,,,,32,0,32,0,,,,,,,,,,,,,,,,,,,,,,,,,,,,,,,,,,,,,,,,,,,,,,,,,803.4368032000493,None,,,,,,,,,,,,,,,,,,,,,,,,,,,,,,,,,,,,,,,,,,,,,,,,,,,,,,,,,village,199,33,sing,new,red,801.0390077000484,None,n,801.0390077000484,None,"['n', 'return']","[2.096966900047846, 2.3610903000226244]",801.0390077000484,None,,,4,001,2023_Jan_30_1151,ExactRep-v3-final,2021.2.3,59.89268429387375,
,,,,,,,,,,,,33,0,33,0,,,,,,,,,,,,,,,,,,,,,,,,,,,,,,,,,,,,,,,,,,,,,,,,,805.8892259000568,None,,,,,,,,,,,,,,,,,,,,,,,,,,,,,,,,,,,,,,,,,,,,,,,,,,,,,,,,,sky,61,34,silent,old,white,803.9500638999743,None,y,803.9500638999743,None,"['y', 'return']","[1.62605339998845, 1.9060565000399947]",803.9500638999743,None,,,4,001,2023_Jan_30_1151,ExactRep-v3-final,2021.2.3,59.89268429387375,
,,,,,,,,,,,,34,0,34,0,,,,,,,,,,,,,,,,,,,,,,,,,,,,,,,,,,,,,,,,,,,,,,,,,808.7098241000203,None,,,,,,,,,,,,,,,,,,,,,,,,,,,,,,,,,,,,,,,,,,,,,,,,,,,,,,,,,doll,36,35,sing,old,red,806.3981731999665,None,n,806.3981731999665,None,"['n', 'return']","[2.0098999000620097, 2.2739458000287414]",806.3981731999665,None,,,4,001,2023_Jan_30_1151,ExactRep-v3-final,2021.2.3,59.89268429387375,
,,,,,,,,,,,,35,0,35,0,,,,,,,,,,,,,,,,,,,,,,,,,,,,,,,,,,,,,,,,,,,,,,,,,810.54394220002,None,,,,,,,,,,,,,,,,,,,,,,,,,,,,,,,,,,,,,,,,,,,,,,,,,,,,,,,,,pupil,120,36,silent,new,white,809.2210294000106,None,n,809.2210294000106,None,"['n', 'return']","[1.0111746001057327, 1.275270799989812]",809.2210294000106,None,,,4,001,2023_Jan_30_1151,ExactRep-v3-final,2021.2.3,59.89268429387375,
,,,,,,,,,,,,36,0,36,0,,,,,,,,,,,,,,,,,,,,,,,,,,,,,,,,,,,,,,,,,,,,,,,,,813.0797988000559,None,,,,,,,,,,,,,,,,,,,,,,,,,,,,,,,,,,,,,,,,,,,,,,,,,,,,,,,,,length,21,37,sing,old,red,811.0495900000678,None,y,811.0495900000678,None,"['y', 'return']","[1.750652699964121, 1.998583999928087]",811.0495900000678,None,,,4,001,2023_Jan_30_1151,ExactRep-v3-final,2021.2.3,59.89268429387375,
,,,,,,,,,,,,37,0,37,0,,,,,,,,,,,,,,,,,,,,,,,,,,,,,,,,,,,,,,,,,,,,,,,,,814.9664081999799,None,,,,,,,,,,,,,,,,,,,,,,,,,,,,,,,,,,,,,,,,,,,,,,,,,,,,,,,,,brain,139,38,silent,new,white,813.5894371999893,None,n,813.5894371999893,None,"['n', 'return']","[1.1066618000622839, 1.3386675999499857]",813.5894371999893,None,,,4,001,2023_Jan_30_1151,ExactRep-v3-final,2021.2.3,59.89268429387375,
,,,,,,,,,,,,38,0,38,0,,,,,,,,,,,,,,,,,,,,,,,,,,,,,,,,,,,,,,,,,,,,,,,,,816.8668571000453,None,,,,,,,,,,,,,,,,,,,,,,,,,,,,,,,,,,,,,,,,,,,,,,,,,,,,,,,,,diamond,58,39,silent,old,white,815.4780771000078,None,y,815.4780771000078,None,"['y', 'return']","[1.1299966999795288, 1.3461215000133961]",815.4780771000078,None,,,4,001,2023_Jan_30_1151,ExactRep-v3-final,2021.2.3,59.89268429387375,
,,,,,,,,,,,,39,0,39,0,,,,,,,,,,,,,,,,,,,,,,,,,,,,,,,,,,,,,,,,,,,,,,,,,818.5518992000725,None,,,,,,,,,,,,,,,,,,,,,,,,,,,,,,,,,,,,,,,,,,,,,,,,,,,,,,,,,water,151,40,silent,new,white,817.3762591000414,None,n,817.3762591000414,None,"['n', 'return']","[0.9198522999649867, 1.1438370000105351]",817.3762591000414,None,,,4,001,2023_Jan_30_1151,ExactRep-v3-final,2021.2.3,59.89268429387375,
,,,,,,,,,,,,40,0,40,0,,,,,,,,,,,,,,,,,,,,,,,,,,,,,,,,,,,,,,,,,,,,,,,,,820.637296800036,None,,,,,,,,,,,,,,,,,,,,,,,,,,,,,,,,,,,,,,,,,,,,,,,,,,,,,,,,,mind,47,41,silent,old,white,819.0595567000564,None,y,819.0595567000564,None,"['y', 'return']","[1.2685587999876589, 1.5326095999917015]",819.0595567000564,None,,,4,001,2023_Jan_30_1151,ExactRep-v3-final,2021.2.3,59.89268429387375,
,,,,,,,,,,,,41,0,41,0,,,,,,,,,,,,,,,,,,,,,,,,,,,,,,,,,,,,,,,,,,,,,,,,,822.4391301000724,None,,,,,,,,,,,,,,,,,,,,,,,,,,,,,,,,,,,,,,,,,,,,,,,,,,,,,,,,,gift,137,42,silent,new,white,821.1408659999724,None,n,821.1408659999724,None,"['n', 'return']","[0.9473496000282466, 1.259302500053309]",821.1408659999724,None,,,4,001,2023_Jan_30_1151,ExactRep-v3-final,2021.2.3,59.89268429387375,
,,,,,,,,,,,,42,0,42,0,,,,,,,,,,,,,,,,,,,,,,,,,,,,,,,,,,,,,,,,,,,,,,,,,824.1908458999824,None,,,,,,,,,,,,,,,,,,,,,,,,,,,,,,,,,,,,,,,,,,,,,,,,,,,,,,,,,lip,198,43,aloud,new,blue,822.9480102000525,None,n,822.9480102000525,None,"['n', 'return']","[0.9482249999418855, 1.2041114999447018]",822.9480102000525,None,,,4,001,2023_Jan_30_1151,ExactRep-v3-final,2021.2.3,59.89268429387375,
,,,,,,,,,,,,43,0,43,0,,,,,,,,,,,,,,,,,,,,,,,,,,,,,,,,,,,,,,,,,,,,,,,,,825.8936755000614,None,,,,,,,,,,,,,,,,,,,,,,,,,,,,,,,,,,,,,,,,,,,,,,,,,,,,,,,,,green,5,44,sing,old,red,824.7009531999938,None,y,824.7009531999938,None,"['y', 'return']","[0.9552096999250352, 1.1471163999522105]",824.7009531999938,None,,,4,001,2023_Jan_30_1151,ExactRep-v3-final,2021.2.3,59.89268429387375,
,,,,,,,,,,,,44,0,44,0,,,,,,,,,,,,,,,,,,,,,,,,,,,,,,,,,,,,,,,,,,,,,,,,,827.627617900027,None,,,,,,,,,,,,,,,,,,,,,,,,,,,,,,,,,,,,,,,,,,,,,,,,,,,,,,,,,coin,200,45,aloud,new,blue,826.4007600999903,None,n,826.4007600999903,None,"['n', 'return']","[0.9833592000650242, 1.1913274000398815]",826.4007600999903,None,,,4,001,2023_Jan_30_1151,ExactRep-v3-final,2021.2.3,59.89268429387375,
,,,,,,,,,,,,45,0,45,0,,,,,,,,,,,,,,,,,,,,,,,,,,,,,,,,,,,,,,,,,,,,,,,,,830.54721660004,None,,,,,,,,,,,,,,,,,,,,,,,,,,,,,,,,,,,,,,,,,,,,,,,,,,,,,,,,,plain,142,46,silent,new,white,828.1293317000382,None,n,828.1293317000382,None,"['n', 'n', 'return']","[1.7587606000015512, 1.9028935000533238, 2.382814700016752]",828.1293317000382,None,,,4,001,2023_Jan_30_1151,ExactRep-v3-final,2021.2.3,59.89268429387375,
,,,,,,,,,,,,46,0,46,0,,,,,,,,,,,,,,,,,,,,,,,,,,,,,,,,,,,,,,,,,,,,,,,,,832.4324717000127,None,,,,,,,,,,,,,,,,,,,,,,,,,,,,,,,,,,,,,,,,,,,,,,,,,,,,,,,,,colony,9,47,sing,old,red,831.0571166999871,None,y,831.0571166999871,None,"['y', 'return']","[1.111029400024563, 1.3430422999663278]",831.0571166999871,None,,,4,001,2023_Jan_30_1151,ExactRep-v3-final,2021.2.3,59.89268429387375,
,,,,,,,,,,,,47,0,47,0,,,,,,,,,,,,,,,,,,,,,,,,,,,,,,,,,,,,,,,,,,,,,,,,,834.1842395999702,None,,,,,,,,,,,,,,,,,,,,,,,,,,,,,,,,,,,,,,,,,,,,,,,,,,,,,,,,,owner,181,48,sing,new,red,832.9470316000516,None,n,832.9470316000516,None,"['n', 'return']","[0.9810649000573903, 1.2049823000561446]",832.9470316000516,None,,,4,001,2023_Jan_30_1151,ExactRep-v3-final,2021.2.3,59.89268429387375,
,,,,,,,,,,,,48,0,48,0,,,,,,,,,,,,,,,,,,,,,,,,,,,,,,,,,,,,,,,,,,,,,,,,,838.1881657000631,None,,,,,,,,,,,,,,,,,,,,,,,,,,,,,,,,,,,,,,,,,,,,,,,,,,,,,,,,,thought,68,49,silent,old,white,834.6906759999692,None,n,834.6906759999692,None,"['n', 'return']","[3.1974951999727637, 3.453352899989113]",834.6906759999692,None,,,4,001,2023_Jan_30_1151,ExactRep-v3-final,2021.2.3,59.89268429387375,
,,,,,,,,,,,,49,0,49,0,,,,,,,,,,,,,,,,,,,,,,,,,,,,,,,,,,,,,,,,,,,,,,,,,839.9076945000561,None,,,,,,,,,,,,,,,,,,,,,,,,,,,,,,,,,,,,,,,,,,,,,,,,,,,,,,,,,prayer,46,50,silent,old,white,838.7022598000476,None,n,838.7022598000476,None,"['n', 'return']","[0.881946999928914, 1.16993959993124]",838.7022598000476,None,,,4,001,2023_Jan_30_1151,ExactRep-v3-final,2021.2.3,59.89268429387375,
,,,,,,,,,,,,50,0,50,0,,,,,,,,,,,,,,,,,,,,,,,,,,,,,,,,,,,,,,,,,,,,,,,,,841.7416725000367,None,,,,,,,,,,,,,,,,,,,,,,,,,,,,,,,,,,,,,,,,,,,,,,,,,,,,,,,,,kiss,152,51,silent,new,white,840.4175850000465,None,n,840.4175850000465,None,"['n', 'return']","[0.9105251999571919, 1.2865202999673784]",840.4175850000465,None,,,4,001,2023_Jan_30_1151,ExactRep-v3-final,2021.2.3,59.89268429387375,
,,,,,,,,,,,,51,0,51,0,,,,,,,,,,,,,,,,,,,,,,,,,,,,,,,,,,,,,,,,,,,,,,,,,845.3452603999758,None,,,,,,,,,,,,,,,,,,,,,,,,,,,,,,,,,,,,,,,,,,,,,,,,,,,,,,,,,series,25,52,sing,old,red,842.2498515000334,None,n,842.2498515000334,None,"['n', 'return']","[2.8543464000103995, 3.0623637000098825]",842.2498515000334,None,,,4,001,2023_Jan_30_1151,ExactRep-v3-final,2021.2.3,59.89268429387375,
,,,,,,,,,,,,52,0,52,0,,,,,,,,,,,,,,,,,,,,,,,,,,,,,,,,,,,,,,,,,,,,,,,,,848.0979076999938,None,,,,,,,,,,,,,,,,,,,,,,,,,,,,,,,,,,,,,,,,,,,,,,,,,,,,,,,,,chair,110,53,aloud,old,blue,845.8540542999981,None,y,845.8540542999981,None,"['y', 'return']","[1.5064400000264868, 2.2100767000811175]",845.8540542999981,None,,,4,001,2023_Jan_30_1151,ExactRep-v3-final,2021.2.3,59.89268429387375,
,,,,,,,,,,,,53,0,53,0,,,,,,,,,,,,,,,,,,,,,,,,,,,,,,,,,,,,,,,,,,,,,,,,,850.3002833999926,None,,,,,,,,,,,,,,,,,,,,,,,,,,,,,,,,,,,,,,,,,,,,,,,,,,,,,,,,,artist,128,54,silent,new,white,848.6095673000673,None,y,848.6095673000673,None,"['y', 'return']","[1.3025222999276593, 1.654701399966143]",848.6095673000673,None,,,4,001,2023_Jan_30_1151,ExactRep-v3-final,2021.2.3,59.89268429387375,
,,,,,,,,,,,,54,0,54,0,,,,,,,,,,,,,,,,,,,,,,,,,,,,,,,,,,,,,,,,,,,,,,,,,852.6363763000118,None,,,,,,,,,,,,,,,,,,,,,,,,,,,,,,,,,,,,,,,,,,,,,,,,,,,,,,,,,memory,169,55,sing,new,red,850.8136460999958,None,y,850.8136460999958,None,"['y', 'return']","[1.498570999945514, 1.7864910999778658]",850.8136460999958,None,,,4,001,2023_Jan_30_1151,ExactRep-v3-final,2021.2.3,59.89268429387375,
,,,,,,,,,,,,55,0,55,0,,,,,,,,,,,,,,,,,,,,,,,,,,,,,,,,,,,,,,,,,,,,,,,,,854.8715032000327,None,,,,,,,,,,,,,,,,,,,,,,,,,,,,,,,,,,,,,,,,,,,,,,,,,,,,,,,,,master,125,56,silent,new,white,853.1457490000175,None,n,853.1457490000175,None,"['n', 'return']","[1.414305799989961, 1.6863580000353977]",853.1457490000175,None,,,4,001,2023_Jan_30_1151,ExactRep-v3-final,2021.2.3,59.89268429387375,
,,,,,,,,,,,,56,0,56,0,,,,,,,,,,,,,,,,,,,,,,,,,,,,,,,,,,,,,,,,,,,,,,,,,856.7066745000193,None,,,,,,,,,,,,,,,,,,,,,,,,,,,,,,,,,,,,,,,,,,,,,,,,,,,,,,,,,woman,29,57,sing,old,red,855.3809941000072,None,n,855.3809941000072,None,"['n', 'return']","[1.0192410999443382, 1.2831474000122398]",855.3809941000072,None,,,4,001,2023_Jan_30_1151,ExactRep-v3-final,2021.2.3,59.89268429387375,
,,,,,,,,,,,,57,0,57,0,,,,,,,,,,,,,,,,,,,,,,,,,,,,,,,,,,,,,,,,,,,,,,,,,858.2248198000016,None,,,,,,,,,,,,,,,,,,,,,,,,,,,,,,,,,,,,,,,,,,,,,,,,,,,,,,,,,gold,216,58,aloud,new,blue,857.2168317000614,None,n,857.2168317000614,None,"['n', 'return']","[0.7273009999189526, 0.9752459999872372]",857.2168317000614,None,,,4,001,2023_Jan_30_1151,ExactRep-v3-final,2021.2.3,59.89268429387375,
,,,,,,,,,,,,58,0,58,0,,,,,,,,,,,,,,,,,,,,,,,,,,,,,,,,,,,,,,,,,,,,,,,,,859.6596106999787,None,,,,,,,,,,,,,,,,,,,,,,,,,,,,,,,,,,,,,,,,,,,,,,,,,,,,,,,,,woods,237,59,sing,new,red,858.7396204000106,None,n,858.7396204000106,None,"['n', 'return']","[0.6445273000281304, 0.8846286999760196]",858.7396204000106,None,,,4,001,2023_Jan_30_1151,ExactRep-v3-final,2021.2.3,59.89268429387375,
,,,,,,,,,,,,59,0,59,0,,,,,,,,,,,,,,,,,,,,,,,,,,,,,,,,,,,,,,,,,,,,,,,,,861.0943783000112,None,,,,,,,,,,,,,,,,,,,,,,,,,,,,,,,,,,,,,,,,,,,,,,,,,,,,,,,,,mother,53,60,silent,old,white,860.1706321999663,None,n,860.1706321999663,None,"['n', 'return']","[0.6134218999650329, 0.8854558999883011]",860.1706321999663,None,,,4,001,2023_Jan_30_1151,ExactRep-v3-final,2021.2.3,59.89268429387375,
,,,,,,,,,,,,60,0,60,0,,,,,,,,,,,,,,,,,,,,,,,,,,,,,,,,,,,,,,,,,,,,,,,,,862.6125823999755,None,,,,,,,,,,,,,,,,,,,,,,,,,,,,,,,,,,,,,,,,,,,,,,,,,,,,,,,,,insect,192,61,aloud,new,blue,861.601350300014,None,n,861.601350300014,None,"['n', 'return']","[0.7267809000331908, 0.9667155999923125]",861.601350300014,None,,,4,001,2023_Jan_30_1151,ExactRep-v3-final,2021.2.3,59.89268429387375,
,,,,,,,,,,,,61,0,61,0,,,,,,,,,,,,,,,,,,,,,,,,,,,,,,,,,,,,,,,,,,,,,,,,,864.7158302000025,None,,,,,,,,,,,,,,,,,,,,,,,,,,,,,,,,,,,,,,,,,,,,,,,,,,,,,,,,,temple,82,62,aloud,old,blue,863.1269877000013,None,y,863.1269877000013,None,"['y', 'return']","[1.3530623000115156, 1.5451216999208555]",863.1269877000013,None,,,4,001,2023_Jan_30_1151,ExactRep-v3-final,2021.2.3,59.89268429387375,
,,,,,,,,,,,,62,0,62,0,,,,,,,,,,,,,,,,,,,,,,,,,,,,,,,,,,,,,,,,,,,,,,,,,866.6833358000731,None,,,,,,,,,,,,,,,,,,,,,,,,,,,,,,,,,,,,,,,,,,,,,,,,,,,,,,,,,trouble,207,63,sing,new,red,865.2259479999775,None,n,865.2259479999775,None,"['n', 'return']","[1.1742797000333667, 1.4221022999845445]",865.2259479999775,None,,,4,001,2023_Jan_30_1151,ExactRep-v3-final,2021.2.3,59.89268429387375,
,,,,,,,,,,,,63,0,63,0,,,,,,,,,,,,,,,,,,,,,,,,,,,,,,,,,,,,,,,,,,,,,,,,,868.7019605999812,None,,,,,,,,,,,,,,,,,,,,,,,,,,,,,,,,,,,,,,,,,,,,,,,,,,,,,,,,,grief,76,64,silent,old,white,867.1965857000323,None,y,867.1965857000323,None,"['y', 'return']","[1.2675438999431208, 1.459519499912858]",867.1965857000323,None,,,4,001,2023_Jan_30_1151,ExactRep-v3-final,2021.2.3,59.89268429387375,
,,,,,,,,,,,,64,0,64,0,,,,,,,,,,,,,,,,,,,,,,,,,,,,,,,,,,,,,,,,,,,,,,,,,870.4370741000166,None,,,,,,,,,,,,,,,,,,,,,,,,,,,,,,,,,,,,,,,,,,,,,,,,,,,,,,,,,toy,194,65,aloud,new,blue,869.213724100031,None,n,869.213724100031,None,"['n', 'return']","[0.9624706000322476, 1.1783809999469668]",869.213724100031,None,,,4,001,2023_Jan_30_1151,ExactRep-v3-final,2021.2.3,59.89268429387375,
,,,,,,,,,,,,65,0,65,0,,,,,,,,,,,,,,,,,,,,,,,,,,,,,,,,,,,,,,,,,,,,,,,,,872.0386710000457,None,,,,,,,,,,,,,,,,,,,,,,,,,,,,,,,,,,,,,,,,,,,,,,,,,,,,,,,,,garden,136,66,silent,new,white,870.9493541000411,None,n,870.9493541000411,None,"['n', 'return']","[0.8347183000296354, 1.0507120999973267]",870.9493541000411,None,,,4,001,2023_Jan_30_1151,ExactRep-v3-final,2021.2.3,59.89268429387375,
,,,,,,,,,,,,66,0,66,0,,,,,,,,,,,,,,,,,,,,,,,,,,,,,,,,,,,,,,,,,,,,,,,,,874.0573506000219,None,,,,,,,,,,,,,,,,,,,,,,,,,,,,,,,,,,,,,,,,,,,,,,,,,,,,,,,,,silence,176,67,aloud,new,blue,872.5462272000732,None,n,872.5462272000732,None,"['n', 'return']","[1.2378813999239355, 1.4698674000101164]",872.5462272000732,None,,,4,001,2023_Jan_30_1151,ExactRep-v3-final,2021.2.3,59.89268429387375,
,,,,,,,,,,,,67,0,67,0,,,,,,,,,,,,,,,,,,,,,,,,,,,,,,,,,,,,,,,,,,,,,,,,,875.4934392999858,None,,,,,,,,,,,,,,,,,,,,,,,,,,,,,,,,,,,,,,,,,,,,,,,,,,,,,,,,,lake,204,68,aloud,new,blue,874.566007400048,None,n,874.566007400048,None,"['n', 'return']","[0.6420634998939931, 0.890108999912627]",874.566007400048,None,,,4,001,2023_Jan_30_1151,ExactRep-v3-final,2021.2.3,59.89268429387375,
,,,,,,,,,,,,68,0,68,0,,,,,,,,,,,,,,,,,,,,,,,,,,,,,,,,,,,,,,,,,,,,,,,,,877.1615794000681,None,,,,,,,,,,,,,,,,,,,,,,,,,,,,,,,,,,,,,,,,,,,,,,,,,,,,,,,,,doctor,213,69,sing,new,red,875.9997359999688,None,n,875.9997359999688,None,"['n', 'return']","[0.9044401999562979, 1.1203883000416681]",875.9997359999688,None,,,4,001,2023_Jan_30_1151,ExactRep-v3-final,2021.2.3,59.89268429387375,
,,,,,,,,,,,,69,0,69,0,,,,,,,,,,,,,,,,,,,,,,,,,,,,,,,,,,,,,,,,,,,,,,,,,878.5453423999716,None,,,,,,,,,,,,,,,,,,,,,,,,,,,,,,,,,,,,,,,,,,,,,,,,,,,,,,,,,hall,157,70,silent,new,white,877.6692550000735,None,n,877.6692550000735,None,"['n', 'return']","[0.5868292000377551, 0.8348592000547796]",877.6692550000735,None,,,4,001,2023_Jan_30_1151,ExactRep-v3-final,2021.2.3,59.89268429387375,
,,,,,,,,,,,,70,0,70,0,,,,,,,,,,,,,,,,,,,,,,,,,,,,,,,,,,,,,,,,,,,,,,,,,880.1977138000075,None,,,,,,,,,,,,,,,,,,,,,,,,,,,,,,,,,,,,,,,,,,,,,,,,,,,,,,,,,winter,163,71,sing,new,red,879.052377999993,None,n,879.052377999993,None,"['n', 'return']","[0.8756241999799386, 1.0996509999968112]",879.052377999993,None,,,4,001,2023_Jan_30_1151,ExactRep-v3-final,2021.2.3,59.89268429387375,
,,,,,,,,,,,,71,0,71,0,,,,,,,,,,,,,,,,,,,,,,,,,,,,,,,,,,,,,,,,,,,,,,,,,881.7150004999712,None,,,,,,,,,,,,,,,,,,,,,,,,,,,,,,,,,,,,,,,,,,,,,,,,,,,,,,,,,speech,153,72,silent,new,white,880.7036318000173,None,n,880.7036318000173,None,"['n', 'return']","[0.7283950999844819, 0.9765924999956042]",880.7036318000173,None,,,4,001,2023_Jan_30_1151,ExactRep-v3-final,2021.2.3,59.89268429387375,
,,,,,,,,,,,,72,0,72,0,,,,,,,,,,,,,,,,,,,,,,,,,,,,,,,,,,,,,,,,,,,,,,,,,883.199976200005,None,,,,,,,,,,,,,,,,,,,,,,,,,,,,,,,,,,,,,,,,,,,,,,,,,,,,,,,,,palace,235,73,sing,new,red,882.2290123000275,None,n,882.2290123000275,None,"['n', 'return']","[0.6752170000690967, 0.923039700021036]",882.2290123000275,None,,,4,001,2023_Jan_30_1151,ExactRep-v3-final,2021.2.3,59.89268429387375,
,,,,,,,,,,,,73,0,73,0,,,,,,,,,,,,,,,,,,,,,,,,,,,,,,,,,,,,,,,,,,,,,,,,,884.5344732999802,None,,,,,,,,,,,,,,,,,,,,,,,,,,,,,,,,,,,,,,,,,,,,,,,,,,,,,,,,,prison,191,74,sing,new,red,883.7076571000507,None,n,883.7076571000507,None,"['n', 'return']","[0.5724753000540659, 0.7884752000682056]",883.7076571000507,None,,,4,001,2023_Jan_30_1151,ExactRep-v3-final,2021.2.3,59.89268429387375,
,,,,,,,,,,,,74,0,74,0,,,,,,,,,,,,,,,,,,,,,,,,,,,,,,,,,,,,,,,,,,,,,,,,,886.5876868000487,None,,,,,,,,,,,,,,,,,,,,,,,,,,,,,,,,,,,,,,,,,,,,,,,,,,,,,,,,,arm,117,75,aloud,old,blue,885.0441488999641,None,y,885.0441488999641,None,"['y', 'return']","[1.1719527000095695, 1.507944800076075]",885.0441488999641,None,,,4,001,2023_Jan_30_1151,ExactRep-v3-final,2021.2.3,59.89268429387375,
,,,,,,,,,,,,75,0,75,0,,,,,,,,,,,,,,,,,,,,,,,,,,,,,,,,,,,,,,,,,,,,,,,,,888.2548492000205,None,,,,,,,,,,,,,,,,,,,,,,,,,,,,,,,,,,,,,,,,,,,,,,,,,,,,,,,,,window,203,76,sing,new,red,887.0955890000332,None,n,887.0955890000332,None,"['n', 'return']","[0.8725129999220371, 1.1124299999792129]",887.0955890000332,None,,,4,001,2023_Jan_30_1151,ExactRep-v3-final,2021.2.3,59.89268429387375,
,,,,,,,,,,,,76,0,76,0,,,,,,,,,,,,,,,,,,,,,,,,,,,,,,,,,,,,,,,,,,,,,,,,,890.0233068000525,None,,,,,,,,,,,,,,,,,,,,,,,,,,,,,,,,,,,,,,,,,,,,,,,,,,,,,,,,,idea,236,77,aloud,new,blue,888.7705306999851,None,n,888.7705306999851,None,"['n', 'return']","[0.9015411000000313, 1.20555549999699]",888.7705306999851,None,,,4,001,2023_Jan_30_1151,ExactRep-v3-final,2021.2.3,59.89268429387375,
,,,,,,,,,,,,77,0,77,0,,,,,,,,,,,,,,,,,,,,,,,,,,,,,,,,,,,,,,,,,,,,,,,,,891.8585583000677,None,,,,,,,,,,,,,,,,,,,,,,,,,,,,,,,,,,,,,,,,,,,,,,,,,,,,,,,,,duty,80,78,aloud,old,blue,890.5320855999598,None,y,890.5320855999598,None,"['y', 'return']","[1.0439519999781623, 1.2919692000141367]",890.5320855999598,None,,,4,001,2023_Jan_30_1151,ExactRep-v3-final,2021.2.3,59.89268429387375,
,,,,,,,,,,,,78,0,78,0,,,,,,,,,,,,,,,,,,,,,,,,,,,,,,,,,,,,,,,,,,,,,,,,,893.4768069999991,None,,,,,,,,,,,,,,,,,,,,,,,,,,,,,,,,,,,,,,,,,,,,,,,,,,,,,,,,,bowl,155,79,silent,new,white,892.3720466999803,None,n,892.3720466999803,None,"['n', 'return']","[0.8122003000462428, 1.0680420999415219]",892.3720466999803,None,,,4,001,2023_Jan_30_1151,ExactRep-v3-final,2021.2.3,59.89268429387375,
,,,,,,,,,,,,79,0,79,0,,,,,,,,,,,,,,,,,,,,,,,,,,,,,,,,,,,,,,,,,,,,,,,,,895.6623205000069,None,,,,,,,,,,,,,,,,,,,,,,,,,,,,,,,,,,,,,,,,,,,,,,,,,,,,,,,,,month,7,80,sing,old,red,893.9816529999953,None,n,893.9816529999953,None,"['n', 'return']","[1.3544562000315636, 1.634483000030741]",893.9816529999953,None,,,4,001,2023_Jan_30_1151,ExactRep-v3-final,2021.2.3,59.89268429387375,
,,,,,,,,,,,,80,0,80,0,,,,,,,,,,,,,,,,,,,,,,,,,,,,,,,,,,,,,,,,,,,,,,,,,897.5641464999644,None,,,,,,,,,,,,,,,,,,,,,,,,,,,,,,,,,,,,,,,,,,,,,,,,,,,,,,,,,hotel,111,81,aloud,old,blue,896.1703055000398,None,y,896.1703055000398,None,"['y', 'return']","[1.0858814999228343, 1.3497845999663696]",896.1703055000398,None,,,4,001,2023_Jan_30_1151,ExactRep-v3-final,2021.2.3,59.89268429387375,
,,,,,,,,,,,,81,0,81,0,,,,,,,,,,,,,,,,,,,,,,,,,,,,,,,,,,,,,,,,,,,,,,,,,899.1834810000146,None,,,,,,,,,,,,,,,,,,,,,,,,,,,,,,,,,,,,,,,,,,,,,,,,,,,,,,,,,lad,165,82,sing,new,red,898.0808789000148,None,n,898.0808789000148,None,"['n', 'return']","[0.7832298999419436, 1.0632703999290243]",898.0808789000148,None,,,4,001,2023_Jan_30_1151,ExactRep-v3-final,2021.2.3,59.89268429387375,
,,,,,,,,,,,,82,0,82,0,,,,,,,,,,,,,,,,,,,,,,,,,,,,,,,,,,,,,,,,,,,,,,,,,900.8174067999935,None,,,,,,,,,,,,,,,,,,,,,,,,,,,,,,,,,,,,,,,,,,,,,,,,,,,,,,,,,vessel,184,83,aloud,new,blue,899.6921482000034,None,n,899.6921482000034,None,"['n', 'return']","[0.7959898000117391, 1.0839521000161767]",899.6921482000034,None,,,4,001,2023_Jan_30_1151,ExactRep-v3-final,2021.2.3,59.89268429387375,
,,,,,,,,,,,,83,0,83,0,,,,,,,,,,,,,,,,,,,,,,,,,,,,,,,,,,,,,,,,,,,,,,,,,902.803746300051,None,,,,,,,,,,,,,,,,,,,,,,,,,,,,,,,,,,,,,,,,,,,,,,,,,,,,,,,,,ship,0,84,sing,old,red,901.3264096999774,None,n,901.3264096999774,None,"['n', 'return']","[1.1937524999957532, 1.433647199999541]",901.3264096999774,None,,,4,001,2023_Jan_30_1151,ExactRep-v3-final,2021.2.3,59.89268429387375,
,,,,,,,,,,,,84,0,84,0,,,,,,,,,,,,,,,,,,,,,,,,,,,,,,,,,,,,,,,,,,,,,,,,,904.2541637000395,None,,,,,,,,,,,,,,,,,,,,,,,,,,,,,,,,,,,,,,,,,,,,,,,,,,,,,,,,,city,44,85,silent,old,white,903.3156152999727,None,n,903.3156152999727,None,"['n', 'return']","[0.6684966000029817, 0.9004968999652192]",903.3156152999727,None,,,4,001,2023_Jan_30_1151,ExactRep-v3-final,2021.2.3,59.89268429387375,
,,,,,,,,,,,,85,0,85,0,,,,,,,,,,,,,,,,,,,,,,,,,,,,,,,,,,,,,,,,,,,,,,,,,906.3729453000706,None,,,,,,,,,,,,,,,,,,,,,,,,,,,,,,,,,,,,,,,,,,,,,,,,,,,,,,,,,officer,225,86,sing,new,red,904.7568721000571,None,n,904.7568721000571,None,"['return', 'n', 'return']","[0.7632127000251785, 1.2592253000475466, 1.5712666000472382]",904.7568721000571,None,,,4,001,2023_Jan_30_1151,ExactRep-v3-final,2021.2.3,59.89268429387375,
,,,,,,,,,,,,86,0,86,0,,,,,,,,,,,,,,,,,,,,,,,,,,,,,,,,,,,,,,,,,,,,,,,,,908.6085038000019,None,,,,,,,,,,,,,,,,,,,,,,,,,,,,,,,,,,,,,,,,,,,,,,,,,,,,,,,,,pipe,79,87,sing,old,red,906.8826543999603,None,y,906.8826543999603,None,"['y', 'return']","[1.2855598999885842, 1.6935810000868514]",906.8826543999603,None,,,4,001,2023_Jan_30_1151,ExactRep-v3-final,2021.2.3,59.89268429387375,
,,,,,,,,,,,,87,0,87,0,,,,,,,,,,,,,,,,,,,,,,,,,,,,,,,,,,,,,,,,,,,,,,,,,910.8107509000693,None,,,,,,,,,,,,,,,,,,,,,,,,,,,,,,,,,,,,,,,,,,,,,,,,,,,,,,,,,tree,101,88,aloud,old,blue,909.113634300069,None,y,909.113634300069,None,"['y', 'return']","[1.350675699999556, 1.6544795000227168]",909.113634300069,None,,,4,001,2023_Jan_30_1151,ExactRep-v3-final,2021.2.3,59.89268429387375,
,,,,,,,,,,,,88,0,88,0,,,,,,,,,,,,,,,,,,,,,,,,,,,,,,,,,,,,,,,,,,,,,,,,,912.5791738000698,None,,,,,,,,,,,,,,,,,,,,,,,,,,,,,,,,,,,,,,,,,,,,,,,,,,,,,,,,,string,50,89,silent,old,white,911.321420500055,None,n,911.321420500055,None,"['n', 'return']","[0.9346871000016108, 1.2227428000187501]",911.321420500055,None,,,4,001,2023_Jan_30_1151,ExactRep-v3-final,2021.2.3,59.89268429387375,
,,,,,,,,,,,,89,0,89,0,,,,,,,,,,,,,,,,,,,,,,,,,,,,,,,,,,,,,,,,,,,,,,,,,914.8998250999721,None,,,,,,,,,,,,,,,,,,,,,,,,,,,,,,,,,,,,,,,,,,,,,,,,,,,,,,,,,crime,161,90,sing,new,red,913.0861748000607,None,n,913.0861748000607,None,"['n', 'return']","[1.3220065999776125, 1.7700369999511167]",913.0861748000607,None,,,4,001,2023_Jan_30_1151,ExactRep-v3-final,2021.2.3,59.89268429387375,
,,,,,,,,,,,,90,0,90,0,,,,,,,,,,,,,,,,,,,,,,,,,,,,,,,,,,,,,,,,,,,,,,,,,916.8668916000752,None,,,,,,,,,,,,,,,,,,,,,,,,,,,,,,,,,,,,,,,,,,,,,,,,,,,,,,,,,earth,31,91,sing,old,red,915.4194215000607,None,y,915.4194215000607,None,"['y', 'return']","[1.1246747000841424, 1.4047600000631064]",915.4194215000607,None,,,4,001,2023_Jan_30_1151,ExactRep-v3-final,2021.2.3,59.89268429387375,
,,,,,,,,,,,,91,0,91,0,,,,,,,,,,,,,,,,,,,,,,,,,,,,,,,,,,,,,,,,,,,,,,,,,918.7520091000479,None,,,,,,,,,,,,,,,,,,,,,,,,,,,,,,,,,,,,,,,,,,,,,,,,,,,,,,,,,devil,187,92,sing,new,red,917.3806396999862,None,n,917.3806396999862,None,"['n', 'return']","[1.0355138999875635, 1.3235775999492034]",917.3806396999862,None,,,4,001,2023_Jan_30_1151,ExactRep-v3-final,2021.2.3,59.89268429387375,
,,,,,,,,,,,,92,0,92,0,,,,,,,,,,,,,,,,,,,,,,,,,,,,,,,,,,,,,,,,,,,,,,,,,920.653894099989,None,,,,,,,,,,,,,,,,,,,,,,,,,,,,,,,,,,,,,,,,,,,,,,,,,,,,,,,,,heaven,2,93,sing,old,red,919.2551857000217,None,y,919.2551857000217,None,"['y', 'return']","[1.0170237999409437, 1.360946699976921]",919.2551857000217,None,,,4,001,2023_Jan_30_1151,ExactRep-v3-final,2021.2.3,59.89268429387375,
,,,,,,,,,,,,93,0,93,0,,,,,,,,,,,,,,,,,,,,,,,,,,,,,,,,,,,,,,,,,,,,,,,,,922.7060268999776,None,,,,,,,,,,,,,,,,,,,,,,,,,,,,,,,,,,,,,,,,,,,,,,,,,,,,,,,,,poet,149,94,silent,new,white,921.1629179000156,None,n,921.1629179000156,None,"['n', 'return']","[0.965119699947536, 1.5092063000192866]",921.1629179000156,None,,,4,001,2023_Jan_30_1151,ExactRep-v3-final,2021.2.3,59.89268429387375,
,,,,,,,,,,,,94,0,94,0,,,,,,,,,,,,,,,,,,,,,,,,,,,,,,,,,,,,,,,,,,,,,,,,,924.6089448999846,None,,,,,,,,,,,,,,,,,,,,,,,,,,,,,,,,,,,,,,,,,,,,,,,,,,,,,,,,,health,138,95,silent,new,white,923.2169665000401,None,n,923.2169665000401,None,"['n', 'return']","[0.9751615999266505, 1.3430948000168428]",923.2169665000401,None,,,4,001,2023_Jan_30_1151,ExactRep-v3-final,2021.2.3,59.89268429387375,
,,,,,,,,,,,,95,0,95,0,,,,,,,,,,,,,,,,,,,,,,,,,,,,,,,,,,,,,,,,,,,,,,,,,929.2291451999918,None,,,,,,,,,,,,,,,,,,,,,,,,,,,,,,,,,,,,,,,,,,,,,,,,,,,,,,,,,blood,73,96,silent,old,white,925.1217062000651,None,n,925.1217062000651,None,"['y', 'backspace', 'n', 'return']","[2.1503961000125855, 3.310531900031492, 3.6623709000414237, 4.062446000054479]",925.1217062000651,None,,,4,001,2023_Jan_30_1151,ExactRep-v3-final,2021.2.3,59.89268429387375,
,,,,,,,,,,,,96,0,96,0,,,,,,,,,,,,,,,,,,,,,,,,,,,,,,,,,,,,,,,,,,,,,,,,,930.9319336999906,None,,,,,,,,,,,,,,,,,,,,,,,,,,,,,,,,,,,,,,,,,,,,,,,,,,,,,,,,,sea,131,97,silent,new,white,929.741490400047,None,n,929.741490400047,None,"['n', 'return']","[0.7945771000813693, 1.1465297000249848]",929.741490400047,None,,,4,001,2023_Jan_30_1151,ExactRep-v3-final,2021.2.3,59.89268429387375,
,,,,,,,,,,,,97,0,97,0,,,,,,,,,,,,,,,,,,,,,,,,,,,,,,,,,,,,,,,,,,,,,,,,,933.1007514999947,None,,,,,,,,,,,,,,,,,,,,,,,,,,,,,,,,,,,,,,,,,,,,,,,,,,,,,,,,,forest,233,98,sing,new,red,931.4312710000668,None,n,931.4312710000668,None,"['n', 'return']","[1.3048794000642374, 1.6248365000355989]",931.4312710000668,None,,,4,001,2023_Jan_30_1151,ExactRep-v3-final,2021.2.3,59.89268429387375,
,,,,,,,,,,,,98,0,98,0,,,,,,,,,,,,,,,,,,,,,,,,,,,,,,,,,,,,,,,,,,,,,,,,,934.9359308000421,None,,,,,,,,,,,,,,,,,,,,,,,,,,,,,,,,,,,,,,,,,,,,,,,,,,,,,,,,,machine,170,99,aloud,new,blue,933.6122100000503,None,n,933.6122100000503,None,"['n', 'return']","[0.9318891000002623, 1.2759331999113783]",933.6122100000503,None,,,4,001,2023_Jan_30_1151,ExactRep-v3-final,2021.2.3,59.89268429387375,
,,,,,,,,,,,,99,0,99,0,,,,,,,,,,,,,,,,,,,,,,,,,,,,,,,,,,,,,,,,,,,,,,,,,936.8200393000152,None,,,,,,,,,,,,,,,,,,,,,,,,,,,,,,,,,,,,,,,,,,,,,,,,,,,,,,,,,chance,158,100,silent,new,white,935.4387500999728,None,n,935.4387500999728,None,"['n', 'return']","[0.9614320999244228, 1.3453983999788761]",935.4387500999728,None,,,4,001,2023_Jan_30_1151,ExactRep-v3-final,2021.2.3,59.89268429387375,
,,,,,,,,,,,,100,0,100,0,,,,,,,,,,,,,,,,,,,,,,,,,,,,,,,,,,,,,,,,,,,,,,,,,938.6063250000589,None,,,,,,,,,,,,,,,,,,,,,,,,,,,,,,,,,,,,,,,,,,,,,,,,,,,,,,,,,fire,132,101,silent,new,white,937.3287026999751,None,n,937.3287026999751,None,"['n', 'return']","[0.8636315000476316, 1.2394579000538215]",937.3287026999751,None,,,4,001,2023_Jan_30_1151,ExactRep-v3-final,2021.2.3,59.89268429387375,
,,,,,,,,,,,,101,0,101,0,,,,,,,,,,,,,,,,,,,,,,,,,,,,,,,,,,,,,,,,,,,,,,,,,942.4588271999964,None,,,,,,,,,,,,,,,,,,,,,,,,,,,,,,,,,,,,,,,,,,,,,,,,,,,,,,,,,person,113,102,aloud,old,blue,939.1159532000311,None,y,939.1159532000311,None,"['y', 'return']","[2.852201799978502, 3.3001957000233233]",939.1159532000311,None,,,4,001,2023_Jan_30_1151,ExactRep-v3-final,2021.2.3,59.89268429387375,
,,,,,,,,,,,,102,0,102,0,,,,,,,,,,,,,,,,,,,,,,,,,,,,,,,,,,,,,,,,,,,,,,,,,944.4946459999774,None,,,,,,,,,,,,,,,,,,,,,,,,,,,,,,,,,,,,,,,,,,,,,,,,,,,,,,,,,wine,8,103,sing,old,red,942.9662743000081,None,y,942.9662743000081,None,"['y', 'return']","[1.0017988999607041, 1.48987930000294]",942.9662743000081,None,,,4,001,2023_Jan_30_1151,ExactRep-v3-final,2021.2.3,59.89268429387375,
,,,,,,,,,,,,103,0,103,0,,,,,,,,,,,,,,,,,,,,,,,,,,,,,,,,,,,,,,,,,,,,,,,,,946.2628113999963,None,,,,,,,,,,,,,,,,,,,,,,,,,,,,,,,,,,,,,,,,,,,,,,,,,,,,,,,,,flag,172,104,aloud,new,blue,945.0031396000413,None,n,945.0031396000413,None,"['n', 'return']","[0.8689910999964923, 1.221146700088866]",945.0031396000413,None,,,4,001,2023_Jan_30_1151,ExactRep-v3-final,2021.2.3,59.89268429387375,
,,,,,,,,,,,,104,0,104,0,,,,,,,,,,,,,,,,,,,,,,,,,,,,,,,,,,,,,,,,,,,,,,,,,947.9655980999814,None,,,,,,,,,,,,,,,,,,,,,,,,,,,,,,,,,,,,,,,,,,,,,,,,,,,,,,,,,meat,227,105,sing,new,red,946.7761979000643,None,n,946.7761979000643,None,"['n', 'return']","[0.8479698000010103, 1.143934200052172]",946.7761979000643,None,,,4,001,2023_Jan_30_1151,ExactRep-v3-final,2021.2.3,59.89268429387375,
,,,,,,,,,,,,105,0,105,0,,,,,,,,,,,,,,,,,,,,,,,,,,,,,,,,,,,,,,,,,,,,,,,,,949.7507354000118,None,,,,,,,,,,,,,,,,,,,,,,,,,,,,,,,,,,,,,,,,,,,,,,,,,,,,,,,,,spirit,63,106,silent,old,white,948.4852862000698,None,n,948.4852862000698,None,"['n', 'return']","[0.8509285999462008, 1.2268658999819309]",948.4852862000698,None,,,4,001,2023_Jan_30_1151,ExactRep-v3-final,2021.2.3,59.89268429387375,
,,,,,,,,,,,,106,0,106,0,,,,,,,,,,,,,,,,,,,,,,,,,,,,,,,,,,,,,,,,,,,,,,,,,951.5859015000751,None,,,,,,,,,,,,,,,,,,,,,,,,,,,,,,,,,,,,,,,,,,,,,,,,,,,,,,,,,picture,166,107,aloud,new,blue,950.261511299992,None,n,950.261511299992,None,"['n', 'return']","[0.9146010000258684, 1.282611700007692]",950.261511299992,None,,,4,001,2023_Jan_30_1151,ExactRep-v3-final,2021.2.3,59.89268429387375,
,,,,,,,,,,,,107,0,107,0,,,,,,,,,,,,,,,,,,,,,,,,,,,,,,,,,,,,,,,,,,,,,,,,,953.7881377000595,None,,,,,,,,,,,,,,,,,,,,,,,,,,,,,,,,,,,,,,,,,,,,,,,,,,,,,,,,,answer,3,108,sing,old,red,952.1041430999758,None,n,952.1041430999758,None,"['n', 'return']","[1.255925599951297, 1.6399365999968722]",952.1041430999758,None,,,4,001,2023_Jan_30_1151,ExactRep-v3-final,2021.2.3,59.89268429387375,
,,,,,,,,,,,,108,0,108,0,,,,,,,,,,,,,,,,,,,,,,,,,,,,,,,,,,,,,,,,,,,,,,,,,955.6221502000699,None,,,,,,,,,,,,,,,,,,,,,,,,,,,,,,,,,,,,,,,,,,,,,,,,,,,,,,,,,animal,156,109,silent,new,white,954.2921522000106,None,n,954.2921522000106,None,"['n', 'return']","[0.9078658999642357, 1.283996899961494]",954.2921522000106,None,,,4,001,2023_Jan_30_1151,ExactRep-v3-final,2021.2.3,59.89268429387375,
,,,,,,,,,,,,109,0,109,0,,,,,,,,,,,,,,,,,,,,,,,,,,,,,,,,,,,,,,,,,,,,,,,,,957.3906435000245,None,,,,,,,,,,,,,,,,,,,,,,,,,,,,,,,,,,,,,,,,,,,,,,,,,,,,,,,,,friend,150,110,silent,new,white,956.1346089000581,None,n,956.1346089000581,None,"['n', 'return']","[0.8096203999593854, 1.2095166000071913]",956.1346089000581,None,,,4,001,2023_Jan_30_1151,ExactRep-v3-final,2021.2.3,59.89268429387375,
,,,,,,,,,,,,110,0,110,0,,,,,,,,,,,,,,,,,,,,,,,,,,,,,,,,,,,,,,,,,,,,,,,,,959.7095945000183,None,,,,,,,,,,,,,,,,,,,,,,,,,,,,,,,,,,,,,,,,,,,,,,,,,,,,,,,,,student,100,111,aloud,old,blue,957.9062959000003,None,y,957.9062959000003,None,"['y', 'return']","[1.3019222000148147, 1.7579078000271693]",957.9062959000003,None,,,4,001,2023_Jan_30_1151,ExactRep-v3-final,2021.2.3,59.89268429387375,
,,,,,,,,,,,,111,0,111,0,,,,,,,,,,,,,,,,,,,,,,,,,,,,,,,,,,,,,,,,,,,,,,,,,961.5112710000249,None,,,,,,,,,,,,,,,,,,,,,,,,,,,,,,,,,,,,,,,,,,,,,,,,,,,,,,,,,blossom,205,112,sing,new,red,960.2226966000162,None,n,960.2226966000162,None,"['n', 'return']","[0.8574523999122903, 1.249501199927181]",960.2226966000162,None,,,4,001,2023_Jan_30_1151,ExactRep-v3-final,2021.2.3,59.89268429387375,
,,,,,,,,,,,,112,0,112,0,,,,,,,,,,,,,,,,,,,,,,,,,,,,,,,,,,,,,,,,,,,,,,,,,963.4466579,None,,,,,,,,,,,,,,,,,,,,,,,,,,,,,,,,,,,,,,,,,,,,,,,,,,,,,,,,,table,108,113,aloud,old,blue,962.0186669999966,None,y,962.0186669999966,None,"['y', 'return']","[0.9257537999656051, 1.3894396000541747]",962.0186669999966,None,,,4,001,2023_Jan_30_1151,ExactRep-v3-final,2021.2.3,59.89268429387375,
,,,,,,,,,,,,113,0,113,0,,,,,,,,,,,,,,,,,,,,,,,,,,,,,,,,,,,,,,,,,,,,,,,,,965.3652411999647,None,,,,,,,,,,,,,,,,,,,,,,,,,,,,,,,,,,,,,,,,,,,,,,,,,,,,,,,,,deed,162,114,aloud,new,blue,963.9542174000526,None,n,963.9542174000526,None,"['n', 'return']","[1.0298636999214068, 1.3738886999199167]",963.9542174000526,None,,,4,001,2023_Jan_30_1151,ExactRep-v3-final,2021.2.3,59.89268429387375,
,,,,,,,,,,,,114,0,114,0,,,,,,,,,,,,,,,,,,,,,,,,,,,,,,,,,,,,,,,,,,,,,,,,,967.0002091999631,None,,,,,,,,,,,,,,,,,,,,,,,,,,,,,,,,,,,,,,,,,,,,,,,,,,,,,,,,,volume,121,115,silent,new,white,965.8786276000319,None,n,965.8786276000319,None,"['n', 'return']","[0.7295022000325844, 1.0815191000001505]",965.8786276000319,None,,,4,001,2023_Jan_30_1151,ExactRep-v3-final,2021.2.3,59.89268429387375,
,,,,,,,,,,,,115,0,115,0,,,,,,,,,,,,,,,,,,,,,,,,,,,,,,,,,,,,,,,,,,,,,,,,,968.9188080000458,None,,,,,,,,,,,,,,,,,,,,,,,,,,,,,,,,,,,,,,,,,,,,,,,,,,,,,,,,,valley,218,116,aloud,new,blue,967.5130423000082,None,n,967.5130423000082,None,"['n', 'return']","[0.9990741999354213, 1.359087000018917]",967.5130423000082,None,,,4,001,2023_Jan_30_1151,ExactRep-v3-final,2021.2.3,59.89268429387375,
,,,,,,,,,,,,116,0,116,0,,,,,,,,,,,,,,,,,,,,,,,,,,,,,,,,,,,,,,,,,,,,,,,,,970.6372351000318,None,,,,,,,,,,,,,,,,,,,,,,,,,,,,,,,,,,,,,,,,,,,,,,,,,,,,,,,,,bottle,74,117,silent,old,white,969.4353859999683,None,n,969.4353859999683,None,"['n', 'return']","[0.8048710000002757, 1.1567989999894053]",969.4353859999683,None,,,4,001,2023_Jan_30_1151,ExactRep-v3-final,2021.2.3,59.89268429387375,
,,,,,,,,,,,,117,0,117,0,,,,,,,,,,,,,,,,,,,,,,,,,,,,,,,,,,,,,,,,,,,,,,,,,972.5557693999726,None,,,,,,,,,,,,,,,,,,,,,,,,,,,,,,,,,,,,,,,,,,,,,,,,,,,,,,,,,history,40,118,silent,old,white,971.1440555000445,None,n,971.1440555000445,None,"['n', 'return']","[0.9600070999003947, 1.368024899973534]",971.1440555000445,None,,,4,001,2023_Jan_30_1151,ExactRep-v3-final,2021.2.3,59.89268429387375,
,,,,,,,,,,,,118,0,118,0,,,,,,,,,,,,,,,,,,,,,,,,,,,,,,,,,,,,,,,,,,,,,,,,,974.4754481000127,None,,,,,,,,,,,,,,,,,,,,,,,,,,,,,,,,,,,,,,,,,,,,,,,,,,,,,,,,,meadow,215,119,sing,new,red,973.0734754999867,None,n,973.0734754999867,None,"['n', 'return']","[1.0066492999903858, 1.358676900039427]",973.0734754999867,None,,,4,001,2023_Jan_30_1151,ExactRep-v3-final,2021.2.3,59.89268429387375,
,,,,,,,,,,,,119,0,119,0,,,,,,,,,,,,,,,,,,,,,,,,,,,,,,,,,,,,,,,,,,,,,,,,,976.2261432000669,None,,,,,,,,,,,,,,,,,,,,,,,,,,,,,,,,,,,,,,,,,,,,,,,,,,,,,,,,,storm,217,120,sing,new,red,974.9751457000384,None,n,974.9751457000384,None,"['n', 'return']","[0.8489182000048459, 1.2090088999830186]",974.9751457000384,None,,,4,001,2023_Jan_30_1151,ExactRep-v3-final,2021.2.3,59.89268429387375,
,,,,,,,,,,,,120,0,120,0,,,,,,,,,,,,,,,,,,,,,,,,,,,,,,,,,,,,,,,,,,,,,,,,,979.7974787000567,None,,,,,,,,,,,,,,,,,,,,,,,,,,,,,,,,,,,,,,,,,,,,,,,,,,,,,,,,,event,65,121,silent,old,white,976.7381587000564,None,y,976.7381587000564,None,"['n', 'backspace', 'y', 'return']","[0.7899306999752298, 1.789946399978362, 2.613889499916695, 3.0138826998881996]",976.7381587000564,None,,,4,001,2023_Jan_30_1151,ExactRep-v3-final,2021.2.3,59.89268429387375,
,,,,,,,,,,,,121,0,121,0,,,,,,,,,,,,,,,,,,,,,,,,,,,,,,,,,,,,,,,,,,,,,,,,,981.8817615000298,None,,,,,,,,,,,,,,,,,,,,,,,,,,,,,,,,,,,,,,,,,,,,,,,,,,,,,,,,,beast,90,122,aloud,old,blue,980.3061727000168,None,y,980.3061727000168,None,"['y', 'return']","[1.1579056000337005, 1.5339661999605596]",980.3061727000168,None,,,4,001,2023_Jan_30_1151,ExactRep-v3-final,2021.2.3,59.89268429387375,
,,,,,,,,,,,,122,0,122,0,,,,,,,,,,,,,,,,,,,,,,,,,,,,,,,,,,,,,,,,,,,,,,,,,983.7002189999912,None,,,,,,,,,,,,,,,,,,,,,,,,,,,,,,,,,,,,,,,,,,,,,,,,,,,,,,,,,ocean,232,123,aloud,new,blue,982.3889146000147,None,n,982.3889146000147,None,"['n', 'return']","[0.9393562000477687, 1.2672025000210851]",982.3889146000147,None,,,4,001,2023_Jan_30_1151,ExactRep-v3-final,2021.2.3,59.89268429387375,
,,,,,,,,,,,,123,0,123,0,,,,,,,,,,,,,,,,,,,,,,,,,,,,,,,,,,,,,,,,,,,,,,,,,985.5854384000413,None,,,,,,,,,,,,,,,,,,,,,,,,,,,,,,,,,,,,,,,,,,,,,,,,,,,,,,,,,anger,19,124,sing,old,red,984.2132965000346,None,y,984.2132965000346,None,"['y', 'return']","[0.9548660999862477, 1.3388381999684498]",984.2132965000346,None,,,4,001,2023_Jan_30_1151,ExactRep-v3-final,2021.2.3,59.89268429387375,
,,,,,,,,,,,,124,0,124,0,,,,,,,,,,,,,,,,,,,,,,,,,,,,,,,,,,,,,,,,,,,,,,,,,987.4539724000497,None,,,,,,,,,,,,,,,,,,,,,,,,,,,,,,,,,,,,,,,,,,,,,,,,,,,,,,,,,corn,34,125,sing,old,red,986.0984871999826,None,y,986.0984871999826,None,"['y', 'return']","[0.9658214999362826, 1.3176553999073803]",986.0984871999826,None,,,4,001,2023_Jan_30_1151,ExactRep-v3-final,2021.2.3,59.89268429387375,
,,,,,,,,,,,,125,0,125,0,,,,,,,,,,,,,,,,,,,,,,,,,,,,,,,,,,,,,,,,,,,,,,,,,989.3058238000376,None,,,,,,,,,,,,,,,,,,,,,,,,,,,,,,,,,,,,,,,,,,,,,,,,,,,,,,,,,soul,221,126,sing,new,red,987.9608996000607,None,n,987.9608996000607,None,"['n', 'return']","[0.9513283000560477, 1.303415899979882]",987.9608996000607,None,,,4,001,2023_Jan_30_1151,ExactRep-v3-final,2021.2.3,59.89268429387375,
,,,,,,,,,,,,126,0,126,0,,,,,,,,,,,,,,,,,,,,,,,,,,,,,,,,,,,,,,,,,,,,,,,,,991.2243889999809,None,,,,,,,,,,,,,,,,,,,,,,,,,,,,,,,,,,,,,,,,,,,,,,,,,,,,,,,,,journal,94,127,aloud,old,blue,989.8149465000024,None,y,989.8149465000024,None,"['y', 'return']","[0.96916700003203, 1.3691664000507444]",989.8149465000024,None,,,4,001,2023_Jan_30_1151,ExactRep-v3-final,2021.2.3,59.89268429387375,
,,,,,,,,,,,,127,0,127,0,,,,,,,,,,,,,,,,,,,,,,,,,,,,,,,,,,,,,,,,,,,,,,,,,992.9261109000072,None,,,,,,,,,,,,,,,,,,,,,,,,,,,,,,,,,,,,,,,,,,,,,,,,,,,,,,,,,car,107,128,aloud,old,blue,991.7247942000395,None,y,991.7247942000395,None,"['y', 'return']","[0.8195465999888256, 1.1633817999390885]",991.7247942000395,None,,,4,001,2023_Jan_30_1151,ExactRep-v3-final,2021.2.3,59.89268429387375,
,,,,,,,,,,,,128,0,128,0,,,,,,,,,,,,,,,,,,,,,,,,,,,,,,,,,,,,,,,,,,,,,,,,,995.7133694000077,None,,,,,,,,,,,,,,,,,,,,,,,,,,,,,,,,,,,,,,,,,,,,,,,,,,,,,,,,,steam,112,129,aloud,old,blue,993.4388094999595,None,n,993.4388094999595,None,"['n', 'return']","[1.9052857999922708, 2.2333268000511453]",993.4388094999595,None,,,4,001,2023_Jan_30_1151,ExactRep-v3-final,2021.2.3,59.89268429387375,
,,,,,,,,,,,,129,0,129,0,,,,,,,,,,,,,,,,,,,,,,,,,,,,,,,,,,,,,,,,,,,,,,,,,999.8329224999761,None,,,,,,,,,,,,,,,,,,,,,,,,,,,,,,,,,,,,,,,,,,,,,,,,,,,,,,,,,theory,92,130,aloud,old,blue,996.2215644000098,None,n,996.2215644000098,None,"['return', 'n', 'return']","[1.7625441000564024, 2.706542000058107, 3.5785090000135824]",996.2215644000098,None,,,4,001,2023_Jan_30_1151,ExactRep-v3-final,2021.2.3,59.89268429387375,
,,,,,,,,,,,,130,0,130,0,,,,,,,,,,,,,,,,,,,,,,,,,,,,,,,,,,,,,,,,,,,,,,,,,1001.9685070000123,None,,,,,,,,,,,,,,,,,,,,,,,,,,,,,,,,,,,,,,,,,,,,,,,,,,,,,,,,,pole,38,131,sing,old,red,1000.3417248000624,None,y,1000.3417248000624,None,"['y', 'return']","[1.2103310000384226, 1.5863899000687525]",1000.3417248000624,None,,,4,001,2023_Jan_30_1151,ExactRep-v3-final,2021.2.3,59.89268429387375,
,,,,,,,,,,,,131,0,131,0,,,,,,,,,,,,,,,,,,,,,,,,,,,,,,,,,,,,,,,,,,,,,,,,,1003.8203261999879,None,,,,,,,,,,,,,,,,,,,,,,,,,,,,,,,,,,,,,,,,,,,,,,,,,,,,,,,,,bird,95,132,aloud,old,blue,1002.488729899982,None,y,1002.488729899982,None,"['y', 'return']","[0.9514043999370188, 1.2873664000071585]",1002.488729899982,None,,,4,001,2023_Jan_30_1151,ExactRep-v3-final,2021.2.3,59.89268429387375,
,,,,,,,,,,,,132,0,132,0,,,,,,,,,,,,,,,,,,,,,,,,,,,,,,,,,,,,,,,,,,,,,,,,,1005.5554992000107,None,,,,,,,,,,,,,,,,,,,,,,,,,,,,,,,,,,,,,,,,,,,,,,,,,,,,,,,,,butter,45,133,silent,old,white,1004.3356740999734,None,n,1004.3356740999734,None,"['n', 'return']","[0.8404888999648392, 1.1844369999598712]",1004.3356740999734,None,,,4,001,2023_Jan_30_1151,ExactRep-v3-final,2021.2.3,59.89268429387375,
,,,,,,,,,,,,133,0,133,0,,,,,,,,,,,,,,,,,,,,,,,,,,,,,,,,,,,,,,,,,,,,,,,,,1007.8576781000011,None,,,,,,,,,,,,,,,,,,,,,,,,,,,,,,,,,,,,,,,,,,,,,,,,,,,,,,,,,money,185,134,sing,new,red,1006.0678897000616,None,n,1006.0678897000616,None,"['n', 'return']","[1.3325302000157535, 1.748247400042601]",1006.0678897000616,None,,,4,001,2023_Jan_30_1151,ExactRep-v3-final,2021.2.3,59.89268429387375,
