trials_fam.thisRepN,trials_fam.thisTrialN,trials_fam.thisN,trials_fam.thisIndex,trials_prc.thisRepN,trials_prc.thisTrialN,trials_prc.thisN,trials_prc.thisIndex,StudyLoop.thisRepN,StudyLoop.thisTrialN,StudyLoop.thisN,StudyLoop.thisIndex,TestLoop.thisRepN,TestLoop.thisTrialN,TestLoop.thisN,TestLoop.thisIndex,text_colortest.started,text_colortest.stopped,key_colortest.keys,key_colortest.rt,key_colortest.started,key_colortest.stopped,textCondition.started,textCondition.stopped,keyCondition.keys,keyCondition.rt,keyCondition.started,keyCondition.stopped,Condition_between,Condition_counterbal,keyWelcome.keys,keyWelcome.rt,keyWelcome.started,keyWelcome.stopped,welcome_a.started,welcome_a.stopped,welcome_b.started,welcome_b.stopped,welcome_c.started,welcome_c.stopped,welcome_d.started,welcome_d.stopped,welcome_e.started,welcome_e.stopped,welcome_f.started,welcome_f.stopped,key_resp_fam_inst.keys,key_resp_fam_inst.rt,key_resp_fam_inst.started,key_resp_fam_inst.stopped,fam_a.started,fam_a.stopped,fam_b.started,fam_b.stopped,fam_c.started,fam_c.stopped,fam_d.started,fam_d.stopped,fam_e.started,fam_e.stopped,fam_f.started,fam_f.stopped,text_famil.started,text_famil.stopped,textBlank500.started,textBlank500.stopped,key_resp_prc_inst.keys,key_resp_prc_inst.rt,key_resp_prc_inst.started,key_resp_prc_inst.stopped,prac_a.started,prac_a.stopped,prac_b.started,prac_b.stopped,prac_c.started,prac_c.stopped,prac_d.started,prac_d.stopped,prac_e.started,prac_e.stopped,prac_f.started,prac_f.stopped,text_prc_trial.started,text_prc_trial.stopped,key_resp_study_inst.keys,key_resp_study_inst.rt,key_resp_study_inst.started,key_resp_study_inst.stopped,crit_a.started,crit_a.stopped,crit_b.started,crit_b.stopped,crit_c.started,crit_c.stopped,crit_d.started,crit_d.stopped,crit_e.started,crit_e.stopped,crit_f.started,crit_f.stopped,study_word,study_num,study_order,study_type,word_color,textStudy.started,textStudy.stopped,keyStudy.keys,keyStudy.started,keyStudy.stopped,post_study.started,post_study.stopped,key_resp_post_study.keys,key_resp_post_study.rt,key_resp_post_study.started,key_resp_post_study.stopped,test_inst.started,test_inst.stopped,key_resp_test_inst.keys,key_resp_test_inst.rt,key_resp_test_inst.started,key_resp_test_inst.stopped,test_word,test_num,test_order,test_condition,old_new_test,word_color_test,textConf.started,textConf.stopped,Participant Response,textInput.started,textInput.stopped,keyResp.keys,keyResp.rt,keyResp.started,keyResp.stopped,textEnd.started,textEnd.stopped,participant,session,date,expName,psychopyVersion,frameRate,
,,,,,,,,,,,,,,,,19.43651289958507,None,y,1.4127227002754807,19.43651289958507,None,,,,,,,,,,,,,,,,,,,,,,,,,,,,,,,,,,,,,,,,,,,,,,,,,,,,,,,,,,,,,,,,,,,,,,,,,,,,,,,,,,,,,,,,,,,,,,,,,,,,,,,,,,,,,,,,,,,,,,50,001,2023_Apr_24_0953,ExactRep-v3-final,2021.2.3,59.93924573196245,
,,,,,,,,,,,,,,,,,,,,,,20.870558599941432,None,b,0.32244120072573423,20.870558599941432,None,,,,,,,,,,,,,,,,,,,,,,,,,,,,,,,,,,,,,,,,,,,,,,,,,,,,,,,,,,,,,,,,,,,,,,,,,,,,,,,,,,,,,,,,,,,,,,,,,,,,,,,,,,,,,,,,50,001,2023_Apr_24_0953,ExactRep-v3-final,2021.2.3,59.93924573196245,
,,,,,,,,,,,,,,,,,,,,,,,,,,,,colorfoils,b,space,2255.7000636998564,31.383286300115287,None,,,,,,,,,,,,,,,,,,,,,,,,,,,,,,,,,,,,,,,,,,,,,,,,,,,,,,,,,,,,,,,,,,,,,,,,,,,,,,,,,,,,,,,,,,,,,,,,,,,,,,,,,,50,001,2023_Apr_24_0953,ExactRep-v3-final,2021.2.3,59.93924573196245,
,,,,,,,,,,,,,,,,,,,,,,,,,,,,,,,,,,21.406836099922657,None,21.406836099922657,None,21.406836099922657,None,21.406836099922657,None,21.406836099922657,None,21.406836099922657,None,space,18.641360700130463,2297.338194099255,None,,,,,,,,,,,,,,,,,,,,,,,,,,,,,,,,,,,,,,,,,,,,,,,,,,,,,,,,,,,,,,,,,,,,,,,,,,,,,,,,,,,,,,,,,,50,001,2023_Apr_24_0953,ExactRep-v3-final,2021.2.3,59.93924573196245,
0,0,0,0,,,,,,,,,,,,,,,,,,,,,,,,,,,,,,,,,,,,,,,,,,,,,,,2287.312962799333,None,2287.312962799333,None,2287.312962799333,None,2287.312962799333,None,2287.312962799333,None,2287.312962799333,None,2316.0718709994107,None,2318.0677339993417,None,,,,,,,,,,,,,,,,,,,,,,,,,,,,,,,,,,,,,,,,,,,,,,,,,,,,,,,,,,,,,,,,,,,,,,,,,,50,001,2023_Apr_24_0953,ExactRep-v3-final,2021.2.3,59.93924573196245,
1,0,1,0,,,,,,,,,,,,,,,,,,,,,,,,,,,,,,,,,,,,,,,,,,,,,,,,,,,,,,,,,,,2318.5811460996047,None,2320.586946499534,None,,,,,,,,,,,,,,,,,,,,,,,,,,,,,,,,,,,,,,,,,,,,,,,,,,,,,,,,,,,,,,,,,,,,,,,,,,50,001,2023_Apr_24_0953,ExactRep-v3-final,2021.2.3,59.93924573196245,
2,0,2,0,,,,,,,,,,,,,,,,,,,,,,,,,,,,,,,,,,,,,,,,,,,,,,,,,,,,,,,,,,,2321.087444599718,None,2323.0893621994182,None,,,,,,,,,,,,,,,,,,,,,,,,,,,,,,,,,,,,,,,,,,,,,,,,,,,,,,,,,,,,,,,,,,,,,,,,,,50,001,2023_Apr_24_0953,ExactRep-v3-final,2021.2.3,59.93924573196245,
3,0,3,0,,,,,,,,,,,,,,,,,,,,,,,,,,,,,,,,,,,,,,,,,,,,,,,,,,,,,,,,,,,2323.59018849954,None,2325.5920519996434,None,,,,,,,,,,,,,,,,,,,,,,,,,,,,,,,,,,,,,,,,,,,,,,,,,,,,,,,,,,,,,,,,,,,,,,,,,,50,001,2023_Apr_24_0953,ExactRep-v3-final,2021.2.3,59.93924573196245,
4,0,4,0,,,,,,,,,,,,,,,,,,,,,,,,,,,,,,,,,,,,,,,,,,,,,,,,,,,,,,,,,,,2326.11578479968,None,2328.1110673993826,None,,,,,,,,,,,,,,,,,,,,,,,,,,,,,,,,,,,,,,,,,,,,,,,,,,,,,,,,,,,,,,,,,,,,,,,,,,50,001,2023_Apr_24_0953,ExactRep-v3-final,2021.2.3,59.93924573196245,
5,0,5,0,,,,,,,,,,,,,,,,,,,,,,,,,,,,,,,,,,,,,,,,,,,,,,,,,,,,,,,,,,,2328.6117506995797,None,2330.6135994996876,None,,,,,,,,,,,,,,,,,,,,,,,,,,,,,,,,,,,,,,,,,,,,,,,,,,,,,,,,,,,,,,,,,,,,,,,,,,50,001,2023_Apr_24_0953,ExactRep-v3-final,2021.2.3,59.93924573196245,
6,0,6,0,,,,,,,,,,,,,,,,,,,,,,,,,,,,,,,,,,,,,,,,,,,,,,,,,,,,,,,,,,,2331.1139201000333,None,2333.116136599332,None,,,,,,,,,,,,,,,,,,,,,,,,,,,,,,,,,,,,,,,,,,,,,,,,,,,,,,,,,,,,,,,,,,,,,,,,,,50,001,2023_Apr_24_0953,ExactRep-v3-final,2021.2.3,59.93924573196245,
7,0,7,0,,,,,,,,,,,,,,,,,,,,,,,,,,,,,,,,,,,,,,,,,,,,,,,,,,,,,,,,,,,2333.6166042992845,None,2335.6186330998316,None,,,,,,,,,,,,,,,,,,,,,,,,,,,,,,,,,,,,,,,,,,,,,,,,,,,,,,,,,,,,,,,,,,,,,,,,,,50,001,2023_Apr_24_0953,ExactRep-v3-final,2021.2.3,59.93924573196245,
8,0,8,0,,,,,,,,,,,,,,,,,,,,,,,,,,,,,,,,,,,,,,,,,,,,,,,,,,,,,,,,,,,2336.119224699214,None,2338.1212860997766,None,,,,,,,,,,,,,,,,,,,,,,,,,,,,,,,,,,,,,,,,,,,,,,,,,,,,,,,,,,,,,,,,,,,,,,,,,,50,001,2023_Apr_24_0953,ExactRep-v3-final,2021.2.3,59.93924573196245,
9,0,9,0,,,,,,,,,,,,,,,,,,,,,,,,,,,,,,,,,,,,,,,,,,,,,,,,,,,,,,,,,,,2338.6290359999985,None,2340.640386899933,None,,,,,,,,,,,,,,,,,,,,,,,,,,,,,,,,,,,,,,,,,,,,,,,,,,,,,,,,,,,,,,,,,,,,,,,,,,50,001,2023_Apr_24_0953,ExactRep-v3-final,2021.2.3,59.93924573196245,
10,0,10,0,,,,,,,,,,,,,,,,,,,,,,,,,,,,,,,,,,,,,,,,,,,,,,,,,,,,,,,,,,,2341.1485298993066,None,2343.159281499684,None,,,,,,,,,,,,,,,,,,,,,,,,,,,,,,,,,,,,,,,,,,,,,,,,,,,,,,,,,,,,,,,,,,,,,,,,,,50,001,2023_Apr_24_0953,ExactRep-v3-final,2021.2.3,59.93924573196245,
11,0,11,0,,,,,,,,,,,,,,,,,,,,,,,,,,,,,,,,,,,,,,,,,,,,,,,,,,,,,,,,,,,2343.659826199524,None,2345.6621866999194,None,,,,,,,,,,,,,,,,,,,,,,,,,,,,,,,,,,,,,,,,,,,,,,,,,,,,,,,,,,,,,,,,,,,,,,,,,,50,001,2023_Apr_24_0953,ExactRep-v3-final,2021.2.3,59.93924573196245,
12,0,12,0,,,,,,,,,,,,,,,,,,,,,,,,,,,,,,,,,,,,,,,,,,,,,,,,,,,,,,,,,,,2346.1622160999104,None,2348.1642744997516,None,,,,,,,,,,,,,,,,,,,,,,,,,,,,,,,,,,,,,,,,,,,,,,,,,,,,,,,,,,,,,,,,,,,,,,,,,,50,001,2023_Apr_24_0953,ExactRep-v3-final,2021.2.3,59.93924573196245,
13,0,13,0,,,,,,,,,,,,,,,,,,,,,,,,,,,,,,,,,,,,,,,,,,,,,,,,,,,,,,,,,,,2348.668248699978,None,2350.6837080996484,None,,,,,,,,,,,,,,,,,,,,,,,,,,,,,,,,,,,,,,,,,,,,,,,,,,,,,,,,,,,,,,,,,,,,,,,,,,50,001,2023_Apr_24_0953,ExactRep-v3-final,2021.2.3,59.93924573196245,
14,0,14,0,,,,,,,,,,,,,,,,,,,,,,,,,,,,,,,,,,,,,,,,,,,,,,,,,,,,,,,,,,,2351.184271099977,None,2353.1861422993243,None,,,,,,,,,,,,,,,,,,,,,,,,,,,,,,,,,,,,,,,,,,,,,,,,,,,,,,,,,,,,,,,,,,,,,,,,,,50,001,2023_Apr_24_0953,ExactRep-v3-final,2021.2.3,59.93924573196245,
,,,,,,,,,,,,,,,,,,,,,,,,,,,,,,,,,,,,,,,,,,,,,,,,,,,,,,,,,,,,,,,,,,space,19.349474700167775,2363.838387900032,None,,,,,,,,,,,,,,,,,,,,,,,,,,,,,,,,,,,,,,,,,,,,,,,,,,,,,,,,,,,,,,,,,,,,,,50,001,2023_Apr_24_0953,ExactRep-v3-final,2021.2.3,59.93924573196245,
,,,,0,0,0,0,,,,,,,,,,,,,,,,,,,,,,,,,,,,,,,,,,,,,,,,,,,,,,,,,,,,,,,,,2385.2682478995994,None,,,,,2353.880409399979,None,2353.880409399979,None,2353.880409399979,None,2353.880409399979,None,2353.880409399979,None,2353.880409399979,None,2383.258869599551,None,,,,,,,,,,,,,,,,,,,,,,,,,,,,,,,,,,,,,,,,,,,,,,,,,,,,,,,,50,001,2023_Apr_24_0953,ExactRep-v3-final,2021.2.3,59.93924573196245,
,,,,1,0,1,0,,,,,,,,,,,,,,,,,,,,,,,,,,,,,,,,,,,,,,,,,,,,,,,,,,,,,,,,,2387.770745699294,None,,,,,,,,,,,,,,,,,2385.7688189996406,None,,,,,,,,,,,,,,,,,,,,,,,,,,,,,,,,,,,,,,,,,,,,,,,,,,,,,,,,50,001,2023_Apr_24_0953,ExactRep-v3-final,2021.2.3,59.93924573196245,
,,,,2,0,2,0,,,,,,,,,,,,,,,,,,,,,,,,,,,,,,,,,,,,,,,,,,,,,,,,,,,,,,,,,2390.273417700082,None,,,,,,,,,,,,,,,,,2388.271498799324,None,,,,,,,,,,,,,,,,,,,,,,,,,,,,,,,,,,,,,,,,,,,,,,,,,,,,,,,,50,001,2023_Apr_24_0953,ExactRep-v3-final,2021.2.3,59.93924573196245,
,,,,3,0,3,0,,,,,,,,,,,,,,,,,,,,,,,,,,,,,,,,,,,,,,,,,,,,,,,,,,,,,,,,,2392.775661099702,None,,,,,,,,,,,,,,,,,2390.7739606993273,None,,,,,,,,,,,,,,,,,,,,,,,,,,,,,,,,,,,,,,,,,,,,,,,,,,,,,,,,50,001,2023_Apr_24_0953,ExactRep-v3-final,2021.2.3,59.93924573196245,
,,,,4,0,4,0,,,,,,,,,,,,,,,,,,,,,,,,,,,,,,,,,,,,,,,,,,,,,,,,,,,,,,,,,2395.2783416993916,None,,,,,,,,,,,,,,,,,2393.2760188998654,None,,,,,,,,,,,,,,,,,,,,,,,,,,,,,,,,,,,,,,,,,,,,,,,,,,,,,,,,50,001,2023_Apr_24_0953,ExactRep-v3-final,2021.2.3,59.93924573196245,
,,,,5,0,5,0,,,,,,,,,,,,,,,,,,,,,,,,,,,,,,,,,,,,,,,,,,,,,,,,,,,,,,,,,2397.7808114998043,None,,,,,,,,,,,,,,,,,2395.7789615998045,None,,,,,,,,,,,,,,,,,,,,,,,,,,,,,,,,,,,,,,,,,,,,,,,,,,,,,,,,50,001,2023_Apr_24_0953,ExactRep-v3-final,2021.2.3,59.93924573196245,
,,,,6,0,6,0,,,,,,,,,,,,,,,,,,,,,,,,,,,,,,,,,,,,,,,,,,,,,,,,,,,,,,,,,2400.2833063993603,None,,,,,,,,,,,,,,,,,2398.2812585998327,None,,,,,,,,,,,,,,,,,,,,,,,,,,,,,,,,,,,,,,,,,,,,,,,,,,,,,,,,50,001,2023_Apr_24_0953,ExactRep-v3-final,2021.2.3,59.93924573196245,
,,,,7,0,7,0,,,,,,,,,,,,,,,,,,,,,,,,,,,,,,,,,,,,,,,,,,,,,,,,,,,,,,,,,2402.7859758995473,None,,,,,,,,,,,,,,,,,2400.783942800015,None,,,,,,,,,,,,,,,,,,,,,,,,,,,,,,,,,,,,,,,,,,,,,,,,,,,,,,,,50,001,2023_Apr_24_0953,ExactRep-v3-final,2021.2.3,59.93924573196245,
,,,,8,0,8,0,,,,,,,,,,,,,,,,,,,,,,,,,,,,,,,,,,,,,,,,,,,,,,,,,,,,,,,,,2405.288263699971,None,,,,,,,,,,,,,,,,,2403.286349799484,None,,,,,,,,,,,,,,,,,,,,,,,,,,,,,,,,,,,,,,,,,,,,,,,,,,,,,,,,50,001,2023_Apr_24_0953,ExactRep-v3-final,2021.2.3,59.93924573196245,
,,,,9,0,9,0,,,,,,,,,,,,,,,,,,,,,,,,,,,,,,,,,,,,,,,,,,,,,,,,,,,,,,,,,2407.7909200992435,None,,,,,,,,,,,,,,,,,2405.788774899207,None,,,,,,,,,,,,,,,,,,,,,,,,,,,,,,,,,,,,,,,,,,,,,,,,,,,,,,,,50,001,2023_Apr_24_0953,ExactRep-v3-final,2021.2.3,59.93924573196245,
,,,,10,0,10,0,,,,,,,,,,,,,,,,,,,,,,,,,,,,,,,,,,,,,,,,,,,,,,,,,,,,,,,,,2410.2932649999857,None,,,,,,,,,,,,,,,,,2408.2913191998377,None,,,,,,,,,,,,,,,,,,,,,,,,,,,,,,,,,,,,,,,,,,,,,,,,,,,,,,,,50,001,2023_Apr_24_0953,ExactRep-v3-final,2021.2.3,59.93924573196245,
,,,,11,0,11,0,,,,,,,,,,,,,,,,,,,,,,,,,,,,,,,,,,,,,,,,,,,,,,,,,,,,,,,,,2412.795669899322,None,,,,,,,,,,,,,,,,,2410.7938341991976,None,,,,,,,,,,,,,,,,,,,,,,,,,,,,,,,,,,,,,,,,,,,,,,,,,,,,,,,,50,001,2023_Apr_24_0953,ExactRep-v3-final,2021.2.3,59.93924573196245,
,,,,12,0,12,0,,,,,,,,,,,,,,,,,,,,,,,,,,,,,,,,,,,,,,,,,,,,,,,,,,,,,,,,,2415.298292200081,None,,,,,,,,,,,,,,,,,2413.2962146000937,None,,,,,,,,,,,,,,,,,,,,,,,,,,,,,,,,,,,,,,,,,,,,,,,,,,,,,,,,50,001,2023_Apr_24_0953,ExactRep-v3-final,2021.2.3,59.93924573196245,
,,,,13,0,13,0,,,,,,,,,,,,,,,,,,,,,,,,,,,,,,,,,,,,,,,,,,,,,,,,,,,,,,,,,2417.80098369997,None,,,,,,,,,,,,,,,,,2415.7989964997396,None,,,,,,,,,,,,,,,,,,,,,,,,,,,,,,,,,,,,,,,,,,,,,,,,,,,,,,,,50,001,2023_Apr_24_0953,ExactRep-v3-final,2021.2.3,59.93924573196245,
,,,,14,0,14,0,,,,,,,,,,,,,,,,,,,,,,,,,,,,,,,,,,,,,,,,,,,,,,,,,,,,,,,,,2420.3033020999283,None,,,,,,,,,,,,,,,,,2418.301353899762,None,,,,,,,,,,,,,,,,,,,,,,,,,,,,,,,,,,,,,,,,,,,,,,,,,,,,,,,,50,001,2023_Apr_24_0953,ExactRep-v3-final,2021.2.3,59.93924573196245,
,,,,,,,,,,,,,,,,,,,,,,,,,,,,,,,,,,,,,,,,,,,,,,,,,,,,,,,,,,,,,,,,,,,,,,,,,,,,,,,,,,,,space,23.837789500132203,2431.005726499483,None,,,,,,,,,,,,,,,,,,,,,,,,,,,,,,,,,,,,,,,,,,,,,,,,,,,,50,001,2023_Apr_24_0953,ExactRep-v3-final,2021.2.3,59.93924573196245,
,,,,,,,,0,0,0,0,,,,,,,,,,,,,,,,,,,,,,,,,,,,,,,,,,,,,,,,,,,,,,,,,,,,,2456.973293699324,None,,,,,,,,,,,,,,,,,,,,,,,2421.0532195996493,None,2421.0532195996493,None,2421.0532195996493,None,2421.0532195996493,None,2421.0532195996493,None,2421.0532195996493,None,cottage,105,1,aloud,red,2454.96204679925,None,None,2454.96204679925,None,,,,,,,,,,,,,,,,,,,,,,,,,,,,,,50,001,2023_Apr_24_0953,ExactRep-v3-final,2021.2.3,59.93924573196245,
,,,,,,,,1,0,1,0,,,,,,,,,,,,,,,,,,,,,,,,,,,,,,,,,,,,,,,,,,,,,,,,,,,,,2459.492338099517,None,,,,,,,,,,,,,,,,,,,,,,,,,,,,,,,,,,,fire,0,2,sing,blue,2457.4871370000765,None,None,2457.4871370000765,None,,,,,,,,,,,,,,,,,,,,,,,,,,,,,,50,001,2023_Apr_24_0953,ExactRep-v3-final,2021.2.3,59.93924573196245,
,,,,,,,,2,0,2,0,,,,,,,,,,,,,,,,,,,,,,,,,,,,,,,,,,,,,,,,,,,,,,,,,,,,,2462.01164319925,None,,,,,,,,,,,,,,,,,,,,,,,,,,,,,,,,,,,law,54,3,silent,white,2460.0033655995503,None,None,2460.0033655995503,None,,,,,,,,,,,,,,,,,,,,,,,,,,,,,,50,001,2023_Apr_24_0953,ExactRep-v3-final,2021.2.3,59.93924573196245,
,,,,,,,,3,0,3,0,,,,,,,,,,,,,,,,,,,,,,,,,,,,,,,,,,,,,,,,,,,,,,,,,,,,,2464.5140102999285,None,,,,,,,,,,,,,,,,,,,,,,,,,,,,,,,,,,,troops,53,4,silent,white,2462.5141501994804,None,None,2462.5141501994804,None,,,,,,,,,,,,,,,,,,,,,,,,,,,,,,50,001,2023_Apr_24_0953,ExactRep-v3-final,2021.2.3,59.93924573196245,
,,,,,,,,4,0,4,0,,,,,,,,,,,,,,,,,,,,,,,,,,,,,,,,,,,,,,,,,,,,,,,,,,,,,2467.0166806001216,None,,,,,,,,,,,,,,,,,,,,,,,,,,,,,,,,,,,rock,111,5,aloud,red,2465.015665299259,None,None,2465.015665299259,None,,,,,,,,,,,,,,,,,,,,,,,,,,,,,,50,001,2023_Apr_24_0953,ExactRep-v3-final,2021.2.3,59.93924573196245,
,,,,,,,,5,0,5,0,,,,,,,,,,,,,,,,,,,,,,,,,,,,,,,,,,,,,,,,,,,,,,,,,,,,,2469.5191592993215,None,,,,,,,,,,,,,,,,,,,,,,,,,,,,,,,,,,,table,71,6,silent,white,2467.5185386994854,None,None,2467.5185386994854,None,,,,,,,,,,,,,,,,,,,,,,,,,,,,,,50,001,2023_Apr_24_0953,ExactRep-v3-final,2021.2.3,59.93924573196245,
,,,,,,,,6,0,6,0,,,,,,,,,,,,,,,,,,,,,,,,,,,,,,,,,,,,,,,,,,,,,,,,,,,,,2472.0383891994134,None,,,,,,,,,,,,,,,,,,,,,,,,,,,,,,,,,,,arm,1,7,sing,blue,2470.023907199502,None,None,2470.023907199502,None,,,,,,,,,,,,,,,,,,,,,,,,,,,,,,50,001,2023_Apr_24_0953,ExactRep-v3-final,2021.2.3,59.93924573196245,
,,,,,,,,7,0,7,0,,,,,,,,,,,,,,,,,,,,,,,,,,,,,,,,,,,,,,,,,,,,,,,,,,,,,2474.5408834991977,None,,,,,,,,,,,,,,,,,,,,,,,,,,,,,,,,,,,forest,119,8,aloud,red,2472.5417884998024,None,None,2472.5417884998024,None,,,,,,,,,,,,,,,,,,,,,,,,,,,,,,50,001,2023_Apr_24_0953,ExactRep-v3-final,2021.2.3,59.93924573196245,
,,,,,,,,8,0,8,0,,,,,,,,,,,,,,,,,,,,,,,,,,,,,,,,,,,,,,,,,,,,,,,,,,,,,2477.0433858996257,None,,,,,,,,,,,,,,,,,,,,,,,,,,,,,,,,,,,ocean,30,9,sing,blue,2475.043077399954,None,None,2475.043077399954,None,,,,,,,,,,,,,,,,,,,,,,,,,,,,,,50,001,2023_Apr_24_0953,ExactRep-v3-final,2021.2.3,59.93924573196245,
,,,,,,,,9,0,9,0,,,,,,,,,,,,,,,,,,,,,,,,,,,,,,,,,,,,,,,,,,,,,,,,,,,,,2479.5633068997413,None,,,,,,,,,,,,,,,,,,,,,,,,,,,,,,,,,,,sugar,75,10,silent,white,2477.552453399636,None,None,2477.552453399636,None,,,,,,,,,,,,,,,,,,,,,,,,,,,,,,50,001,2023_Apr_24_0953,ExactRep-v3-final,2021.2.3,59.93924573196245,
,,,,,,,,10,0,10,0,,,,,,,,,,,,,,,,,,,,,,,,,,,,,,,,,,,,,,,,,,,,,,,,,,,,,2482.065035299398,None,,,,,,,,,,,,,,,,,,,,,,,,,,,,,,,,,,,poet,36,11,sing,blue,2480.0630536992103,None,None,2480.0630536992103,None,,,,,,,,,,,,,,,,,,,,,,,,,,,,,,50,001,2023_Apr_24_0953,ExactRep-v3-final,2021.2.3,59.93924573196245,
,,,,,,,,11,0,11,0,,,,,,,,,,,,,,,,,,,,,,,,,,,,,,,,,,,,,,,,,,,,,,,,,,,,,2484.584096899256,None,,,,,,,,,,,,,,,,,,,,,,,,,,,,,,,,,,,advice,49,12,silent,white,2482.577341400087,None,None,2482.577341400087,None,,,,,,,,,,,,,,,,,,,,,,,,,,,,,,50,001,2023_Apr_24_0953,ExactRep-v3-final,2021.2.3,59.93924573196245,
,,,,,,,,12,0,12,0,,,,,,,,,,,,,,,,,,,,,,,,,,,,,,,,,,,,,,,,,,,,,,,,,,,,,2487.086739999242,None,,,,,,,,,,,,,,,,,,,,,,,,,,,,,,,,,,,month,11,13,sing,blue,2485.0847938992083,None,None,2485.0847938992083,None,,,,,,,,,,,,,,,,,,,,,,,,,,,,,,50,001,2023_Apr_24_0953,ExactRep-v3-final,2021.2.3,59.93924573196245,
,,,,,,,,13,0,13,0,,,,,,,,,,,,,,,,,,,,,,,,,,,,,,,,,,,,,,,,,,,,,,,,,,,,,2489.5892214998603,None,,,,,,,,,,,,,,,,,,,,,,,,,,,,,,,,,,,friend,65,14,silent,white,2487.5870773000643,None,None,2487.5870773000643,None,,,,,,,,,,,,,,,,,,,,,,,,,,,,,,50,001,2023_Apr_24_0953,ExactRep-v3-final,2021.2.3,59.93924573196245,
,,,,,,,,14,0,14,0,,,,,,,,,,,,,,,,,,,,,,,,,,,,,,,,,,,,,,,,,,,,,,,,,,,,,2492.091610199772,None,,,,,,,,,,,,,,,,,,,,,,,,,,,,,,,,,,,owner,81,15,aloud,red,2490.090095099993,None,None,2490.090095099993,None,,,,,,,,,,,,,,,,,,,,,,,,,,,,,,50,001,2023_Apr_24_0953,ExactRep-v3-final,2021.2.3,59.93924573196245,
,,,,,,,,15,0,15,0,,,,,,,,,,,,,,,,,,,,,,,,,,,,,,,,,,,,,,,,,,,,,,,,,,,,,2494.5941580999643,None,,,,,,,,,,,,,,,,,,,,,,,,,,,,,,,,,,,bird,73,16,silent,white,2492.593780499883,None,None,2492.593780499883,None,,,,,,,,,,,,,,,,,,,,,,,,,,,,,,50,001,2023_Apr_24_0953,ExactRep-v3-final,2021.2.3,59.93924573196245,
,,,,,,,,16,0,16,0,,,,,,,,,,,,,,,,,,,,,,,,,,,,,,,,,,,,,,,,,,,,,,,,,,,,,2497.0967630995438,None,,,,,,,,,,,,,,,,,,,,,,,,,,,,,,,,,,,world,25,17,sing,blue,2495.096481599845,None,None,2495.096481599845,None,,,,,,,,,,,,,,,,,,,,,,,,,,,,,,50,001,2023_Apr_24_0953,ExactRep-v3-final,2021.2.3,59.93924573196245,
,,,,,,,,17,0,17,0,,,,,,,,,,,,,,,,,,,,,,,,,,,,,,,,,,,,,,,,,,,,,,,,,,,,,2499.599303299561,None,,,,,,,,,,,,,,,,,,,,,,,,,,,,,,,,,,,palace,72,18,silent,white,2497.598673399538,None,None,2497.598673399538,None,,,,,,,,,,,,,,,,,,,,,,,,,,,,,,50,001,2023_Apr_24_0953,ExactRep-v3-final,2021.2.3,59.93924573196245,
,,,,,,,,18,0,18,0,,,,,,,,,,,,,,,,,,,,,,,,,,,,,,,,,,,,,,,,,,,,,,,,,,,,,2502.1184280999005,None,,,,,,,,,,,,,,,,,,,,,,,,,,,,,,,,,,,street,35,19,sing,blue,2500.1035345001146,None,None,2500.1035345001146,None,,,,,,,,,,,,,,,,,,,,,,,,,,,,,,50,001,2023_Apr_24_0953,ExactRep-v3-final,2021.2.3,59.93924573196245,
,,,,,,,,19,0,19,0,,,,,,,,,,,,,,,,,,,,,,,,,,,,,,,,,,,,,,,,,,,,,,,,,,,,,2504.6209820993245,None,,,,,,,,,,,,,,,,,,,,,,,,,,,,,,,,,,,gift,52,20,silent,white,2502.62153499946,None,None,2502.62153499946,None,,,,,,,,,,,,,,,,,,,,,,,,,,,,,,50,001,2023_Apr_24_0953,ExactRep-v3-final,2021.2.3,59.93924573196245,
,,,,,,,,20,0,20,0,,,,,,,,,,,,,,,,,,,,,,,,,,,,,,,,,,,,,,,,,,,,,,,,,,,,,2507.1401474000886,None,,,,,,,,,,,,,,,,,,,,,,,,,,,,,,,,,,,colony,62,21,silent,white,2505.1245307000354,None,None,2505.1245307000354,None,,,,,,,,,,,,,,,,,,,,,,,,,,,,,,50,001,2023_Apr_24_0953,ExactRep-v3-final,2021.2.3,59.93924573196245,
,,,,,,,,21,0,21,0,,,,,,,,,,,,,,,,,,,,,,,,,,,,,,,,,,,,,,,,,,,,,,,,,,,,,2509.642772499472,None,,,,,,,,,,,,,,,,,,,,,,,,,,,,,,,,,,,flower,67,22,silent,white,2507.64257539995,None,None,2507.64257539995,None,,,,,,,,,,,,,,,,,,,,,,,,,,,,,,50,001,2023_Apr_24_0953,ExactRep-v3-final,2021.2.3,59.93924573196245,
,,,,,,,,22,0,22,0,,,,,,,,,,,,,,,,,,,,,,,,,,,,,,,,,,,,,,,,,,,,,,,,,,,,,2512.161845199764,None,,,,,,,,,,,,,,,,,,,,,,,,,,,,,,,,,,,fact,13,23,sing,blue,2510.15161800012,None,None,2510.15161800012,None,,,,,,,,,,,,,,,,,,,,,,,,,,,,,,50,001,2023_Apr_24_0953,ExactRep-v3-final,2021.2.3,59.93924573196245,
,,,,,,,,23,0,23,0,,,,,,,,,,,,,,,,,,,,,,,,,,,,,,,,,,,,,,,,,,,,,,,,,,,,,2514.664383499883,None,,,,,,,,,,,,,,,,,,,,,,,,,,,,,,,,,,,city,24,24,sing,blue,2512.6632910994813,None,None,2512.6632910994813,None,,,,,,,,,,,,,,,,,,,,,,,,,,,,,,50,001,2023_Apr_24_0953,ExactRep-v3-final,2021.2.3,59.93924573196245,
,,,,,,,,24,0,24,0,,,,,,,,,,,,,,,,,,,,,,,,,,,,,,,,,,,,,,,,,,,,,,,,,,,,,2517.1841596998274,None,,,,,,,,,,,,,,,,,,,,,,,,,,,,,,,,,,,vision,4,25,sing,blue,2515.1726122992113,None,None,2515.1726122992113,None,,,,,,,,,,,,,,,,,,,,,,,,,,,,,,50,001,2023_Apr_24_0953,ExactRep-v3-final,2021.2.3,59.93924573196245,
,,,,,,,,25,0,25,0,,,,,,,,,,,,,,,,,,,,,,,,,,,,,,,,,,,,,,,,,,,,,,,,,,,,,2519.7025871993974,None,,,,,,,,,,,,,,,,,,,,,,,,,,,,,,,,,,,honour,80,26,aloud,red,2517.6935248998925,None,None,2517.6935248998925,None,,,,,,,,,,,,,,,,,,,,,,,,,,,,,,50,001,2023_Apr_24_0953,ExactRep-v3-final,2021.2.3,59.93924573196245,
,,,,,,,,26,0,26,0,,,,,,,,,,,,,,,,,,,,,,,,,,,,,,,,,,,,,,,,,,,,,,,,,,,,,2522.2217966997996,None,,,,,,,,,,,,,,,,,,,,,,,,,,,,,,,,,,,priest,42,27,silent,white,2520.207470299676,None,None,2520.207470299676,None,,,,,,,,,,,,,,,,,,,,,,,,,,,,,,50,001,2023_Apr_24_0953,ExactRep-v3-final,2021.2.3,59.93924573196245,
,,,,,,,,27,0,27,0,,,,,,,,,,,,,,,,,,,,,,,,,,,,,,,,,,,,,,,,,,,,,,,,,,,,,2524.7244350994006,None,,,,,,,,,,,,,,,,,,,,,,,,,,,,,,,,,,,glory,82,28,aloud,red,2522.7220715992153,None,None,2522.7220715992153,None,,,,,,,,,,,,,,,,,,,,,,,,,,,,,,50,001,2023_Apr_24_0953,ExactRep-v3-final,2021.2.3,59.93924573196245,
,,,,,,,,28,0,28,0,,,,,,,,,,,,,,,,,,,,,,,,,,,,,,,,,,,,,,,,,,,,,,,,,,,,,2527.2270259996876,None,,,,,,,,,,,,,,,,,,,,,,,,,,,,,,,,,,,kiss,91,29,aloud,red,2525.226978799328,None,None,2525.226978799328,None,,,,,,,,,,,,,,,,,,,,,,,,,,,,,,50,001,2023_Apr_24_0953,ExactRep-v3-final,2021.2.3,59.93924573196245,
,,,,,,,,29,0,29,0,,,,,,,,,,,,,,,,,,,,,,,,,,,,,,,,,,,,,,,,,,,,,,,,,,,,,2529.7459252998233,None,,,,,,,,,,,,,,,,,,,,,,,,,,,,,,,,,,,fun,18,30,sing,blue,2527.7335793999955,None,None,2527.7335793999955,None,,,,,,,,,,,,,,,,,,,,,,,,,,,,,,50,001,2023_Apr_24_0953,ExactRep-v3-final,2021.2.3,59.93924573196245,
,,,,,,,,30,0,30,0,,,,,,,,,,,,,,,,,,,,,,,,,,,,,,,,,,,,,,,,,,,,,,,,,,,,,2532.2654309999198,None,,,,,,,,,,,,,,,,,,,,,,,,,,,,,,,,,,,dollar,37,31,sing,blue,2530.2500198995695,None,None,2530.2500198995695,None,,,,,,,,,,,,,,,,,,,,,,,,,,,,,,50,001,2023_Apr_24_0953,ExactRep-v3-final,2021.2.3,59.93924573196245,
,,,,,,,,31,0,31,0,,,,,,,,,,,,,,,,,,,,,,,,,,,,,,,,,,,,,,,,,,,,,,,,,,,,,2534.7844758993015,None,,,,,,,,,,,,,,,,,,,,,,,,,,,,,,,,,,,meat,47,32,silent,white,2532.769970299676,None,None,2532.769970299676,None,,,,,,,,,,,,,,,,,,,,,,,,,,,,,,50,001,2023_Apr_24_0953,ExactRep-v3-final,2021.2.3,59.93924573196245,
,,,,,,,,32,0,32,0,,,,,,,,,,,,,,,,,,,,,,,,,,,,,,,,,,,,,,,,,,,,,,,,,,,,,2537.2868405999616,None,,,,,,,,,,,,,,,,,,,,,,,,,,,,,,,,,,,insect,6,33,sing,blue,2535.28615709953,None,None,2535.28615709953,None,,,,,,,,,,,,,,,,,,,,,,,,,,,,,,50,001,2023_Apr_24_0953,ExactRep-v3-final,2021.2.3,59.93924573196245,
,,,,,,,,33,0,33,0,,,,,,,,,,,,,,,,,,,,,,,,,,,,,,,,,,,,,,,,,,,,,,,,,,,,,2539.78942860011,None,,,,,,,,,,,,,,,,,,,,,,,,,,,,,,,,,,,time,34,34,sing,blue,2537.789082599804,None,None,2537.789082599804,None,,,,,,,,,,,,,,,,,,,,,,,,,,,,,,50,001,2023_Apr_24_0953,ExactRep-v3-final,2021.2.3,59.93924573196245,
,,,,,,,,34,0,34,0,,,,,,,,,,,,,,,,,,,,,,,,,,,,,,,,,,,,,,,,,,,,,,,,,,,,,2542.2919238992035,None,,,,,,,,,,,,,,,,,,,,,,,,,,,,,,,,,,,opinion,26,35,sing,blue,2540.291602499783,None,None,2540.291602499783,None,,,,,,,,,,,,,,,,,,,,,,,,,,,,,,50,001,2023_Apr_24_0953,ExactRep-v3-final,2021.2.3,59.93924573196245,
,,,,,,,,35,0,35,0,,,,,,,,,,,,,,,,,,,,,,,,,,,,,,,,,,,,,,,,,,,,,,,,,,,,,2544.794540300034,None,,,,,,,,,,,,,,,,,,,,,,,,,,,,,,,,,,,fate,48,36,silent,white,2542.794743899256,None,None,2542.794743899256,None,,,,,,,,,,,,,,,,,,,,,,,,,,,,,,50,001,2023_Apr_24_0953,ExactRep-v3-final,2021.2.3,59.93924573196245,
,,,,,,,,36,0,36,0,,,,,,,,,,,,,,,,,,,,,,,,,,,,,,,,,,,,,,,,,,,,,,,,,,,,,2547.2967609995976,None,,,,,,,,,,,,,,,,,,,,,,,,,,,,,,,,,,,moment,10,37,sing,blue,2545.296495899558,None,None,2545.296495899558,None,,,,,,,,,,,,,,,,,,,,,,,,,,,,,,50,001,2023_Apr_24_0953,ExactRep-v3-final,2021.2.3,59.93924573196245,
,,,,,,,,37,0,37,0,,,,,,,,,,,,,,,,,,,,,,,,,,,,,,,,,,,,,,,,,,,,,,,,,,,,,2549.8162324996665,None,,,,,,,,,,,,,,,,,,,,,,,,,,,,,,,,,,,corn,2,38,sing,blue,2547.8036062996835,None,None,2547.8036062996835,None,,,,,,,,,,,,,,,,,,,,,,,,,,,,,,50,001,2023_Apr_24_0953,ExactRep-v3-final,2021.2.3,59.93924573196245,
,,,,,,,,38,0,38,0,,,,,,,,,,,,,,,,,,,,,,,,,,,,,,,,,,,,,,,,,,,,,,,,,,,,,2552.318584899418,None,,,,,,,,,,,,,,,,,,,,,,,,,,,,,,,,,,,amount,68,39,silent,white,2550.316492099315,None,None,2550.316492099315,None,,,,,,,,,,,,,,,,,,,,,,,,,,,,,,50,001,2023_Apr_24_0953,ExactRep-v3-final,2021.2.3,59.93924573196245,
,,,,,,,,39,0,39,0,,,,,,,,,,,,,,,,,,,,,,,,,,,,,,,,,,,,,,,,,,,,,,,,,,,,,2554.821148599498,None,,,,,,,,,,,,,,,,,,,,,,,,,,,,,,,,,,,spirit,102,40,aloud,red,2552.820721999742,None,None,2552.820721999742,None,,,,,,,,,,,,,,,,,,,,,,,,,,,,,,50,001,2023_Apr_24_0953,ExactRep-v3-final,2021.2.3,59.93924573196245,
,,,,,,,,40,0,40,0,,,,,,,,,,,,,,,,,,,,,,,,,,,,,,,,,,,,,,,,,,,,,,,,,,,,,2557.3236438995227,None,,,,,,,,,,,,,,,,,,,,,,,,,,,,,,,,,,,meadow,14,41,sing,blue,2555.3242665994912,None,None,2555.3242665994912,None,,,,,,,,,,,,,,,,,,,,,,,,,,,,,,50,001,2023_Apr_24_0953,ExactRep-v3-final,2021.2.3,59.93924573196245,
,,,,,,,,41,0,41,0,,,,,,,,,,,,,,,,,,,,,,,,,,,,,,,,,,,,,,,,,,,,,,,,,,,,,2559.82614729926,None,,,,,,,,,,,,,,,,,,,,,,,,,,,,,,,,,,,machine,45,42,silent,white,2557.8260384993628,None,None,2557.8260384993628,None,,,,,,,,,,,,,,,,,,,,,,,,,,,,,,50,001,2023_Apr_24_0953,ExactRep-v3-final,2021.2.3,59.93924573196245,
,,,,,,,,42,0,42,0,,,,,,,,,,,,,,,,,,,,,,,,,,,,,,,,,,,,,,,,,,,,,,,,,,,,,2562.328603499569,None,,,,,,,,,,,,,,,,,,,,,,,,,,,,,,,,,,,army,61,43,silent,white,2560.328391299583,None,None,2560.328391299583,None,,,,,,,,,,,,,,,,,,,,,,,,,,,,,,50,001,2023_Apr_24_0953,ExactRep-v3-final,2021.2.3,59.93924573196245,
,,,,,,,,43,0,43,0,,,,,,,,,,,,,,,,,,,,,,,,,,,,,,,,,,,,,,,,,,,,,,,,,,,,,2564.831190199591,None,,,,,,,,,,,,,,,,,,,,,,,,,,,,,,,,,,,effort,86,44,aloud,red,2562.8309226995334,None,None,2562.8309226995334,None,,,,,,,,,,,,,,,,,,,,,,,,,,,,,,50,001,2023_Apr_24_0953,ExactRep-v3-final,2021.2.3,59.93924573196245,
,,,,,,,,44,0,44,0,,,,,,,,,,,,,,,,,,,,,,,,,,,,,,,,,,,,,,,,,,,,,,,,,,,,,2567.3501387992874,None,,,,,,,,,,,,,,,,,,,,,,,,,,,,,,,,,,,bowl,92,45,aloud,red,2565.3435782995075,None,None,2565.3435782995075,None,,,,,,,,,,,,,,,,,,,,,,,,,,,,,,50,001,2023_Apr_24_0953,ExactRep-v3-final,2021.2.3,59.93924573196245,
,,,,,,,,45,0,45,0,,,,,,,,,,,,,,,,,,,,,,,,,,,,,,,,,,,,,,,,,,,,,,,,,,,,,2569.8526697997004,None,,,,,,,,,,,,,,,,,,,,,,,,,,,,,,,,,,,meeting,17,46,sing,blue,2567.8507373994216,None,None,2567.8507373994216,None,,,,,,,,,,,,,,,,,,,,,,,,,,,,,,50,001,2023_Apr_24_0953,ExactRep-v3-final,2021.2.3,59.93924573196245,
,,,,,,,,46,0,46,0,,,,,,,,,,,,,,,,,,,,,,,,,,,,,,,,,,,,,,,,,,,,,,,,,,,,,2572.372107499279,None,,,,,,,,,,,,,,,,,,,,,,,,,,,,,,,,,,,prison,7,47,sing,blue,2570.3629475999624,None,None,2570.3629475999624,None,,,,,,,,,,,,,,,,,,,,,,,,,,,,,,50,001,2023_Apr_24_0953,ExactRep-v3-final,2021.2.3,59.93924573196245,
,,,,,,,,47,0,47,0,,,,,,,,,,,,,,,,,,,,,,,,,,,,,,,,,,,,,,,,,,,,,,,,,,,,,2574.874606399797,None,,,,,,,,,,,,,,,,,,,,,,,,,,,,,,,,,,,shoes,109,48,aloud,red,2572.8734164992347,None,None,2572.8734164992347,None,,,,,,,,,,,,,,,,,,,,,,,,,,,,,,50,001,2023_Apr_24_0953,ExactRep-v3-final,2021.2.3,59.93924573196245,
,,,,,,,,48,0,48,0,,,,,,,,,,,,,,,,,,,,,,,,,,,,,,,,,,,,,,,,,,,,,,,,,,,,,2577.3935210993513,None,,,,,,,,,,,,,,,,,,,,,,,,,,,,,,,,,,,nail,107,49,aloud,red,2575.379573399201,None,None,2575.379573399201,None,,,,,,,,,,,,,,,,,,,,,,,,,,,,,,50,001,2023_Apr_24_0953,ExactRep-v3-final,2021.2.3,59.93924573196245,
,,,,,,,,49,0,49,0,,,,,,,,,,,,,,,,,,,,,,,,,,,,,,,,,,,,,,,,,,,,,,,,,,,,,2579.8963012993336,None,,,,,,,,,,,,,,,,,,,,,,,,,,,,,,,,,,,plant,74,50,silent,white,2577.8940672995523,None,None,2577.8940672995523,None,,,,,,,,,,,,,,,,,,,,,,,,,,,,,,50,001,2023_Apr_24_0953,ExactRep-v3-final,2021.2.3,59.93924573196245,
,,,,,,,,50,0,50,0,,,,,,,,,,,,,,,,,,,,,,,,,,,,,,,,,,,,,,,,,,,,,,,,,,,,,2582.415423899889,None,,,,,,,,,,,,,,,,,,,,,,,,,,,,,,,,,,,season,114,51,aloud,red,2580.4009107993916,None,None,2580.4009107993916,None,,,,,,,,,,,,,,,,,,,,,,,,,,,,,,50,001,2023_Apr_24_0953,ExactRep-v3-final,2021.2.3,59.93924573196245,
,,,,,,,,51,0,51,0,,,,,,,,,,,,,,,,,,,,,,,,,,,,,,,,,,,,,,,,,,,,,,,,,,,,,2584.917900700122,None,,,,,,,,,,,,,,,,,,,,,,,,,,,,,,,,,,,stone,51,52,silent,white,2582.9155643992126,None,None,2582.9155643992126,None,,,,,,,,,,,,,,,,,,,,,,,,,,,,,,50,001,2023_Apr_24_0953,ExactRep-v3-final,2021.2.3,59.93924573196245,
,,,,,,,,52,0,52,0,,,,,,,,,,,,,,,,,,,,,,,,,,,,,,,,,,,,,,,,,,,,,,,,,,,,,2587.43710709922,None,,,,,,,,,,,,,,,,,,,,,,,,,,,,,,,,,,,winter,69,53,silent,white,2585.4225910995156,None,None,2585.4225910995156,None,,,,,,,,,,,,,,,,,,,,,,,,,,,,,,50,001,2023_Apr_24_0953,ExactRep-v3-final,2021.2.3,59.93924573196245,
,,,,,,,,53,0,53,0,,,,,,,,,,,,,,,,,,,,,,,,,,,,,,,,,,,,,,,,,,,,,,,,,,,,,2589.9393477998674,None,,,,,,,,,,,,,,,,,,,,,,,,,,,,,,,,,,,cat,15,54,sing,blue,2587.938762699254,None,None,2587.938762699254,None,,,,,,,,,,,,,,,,,,,,,,,,,,,,,,50,001,2023_Apr_24_0953,ExactRep-v3-final,2021.2.3,59.93924573196245,
,,,,,,,,54,0,54,0,,,,,,,,,,,,,,,,,,,,,,,,,,,,,,,,,,,,,,,,,,,,,,,,,,,,,2592.458845799789,None,,,,,,,,,,,,,,,,,,,,,,,,,,,,,,,,,,,church,31,55,sing,blue,2590.444298000075,None,None,2590.444298000075,None,,,,,,,,,,,,,,,,,,,,,,,,,,,,,,50,001,2023_Apr_24_0953,ExactRep-v3-final,2021.2.3,59.93924573196245,
,,,,,,,,55,0,55,0,,,,,,,,,,,,,,,,,,,,,,,,,,,,,,,,,,,,,,,,,,,,,,,,,,,,,2594.9780131001025,None,,,,,,,,,,,,,,,,,,,,,,,,,,,,,,,,,,,custom,22,56,sing,blue,2592.963436299935,None,None,2592.963436299935,None,,,,,,,,,,,,,,,,,,,,,,,,,,,,,,50,001,2023_Apr_24_0953,ExactRep-v3-final,2021.2.3,59.93924573196245,
,,,,,,,,56,0,56,0,,,,,,,,,,,,,,,,,,,,,,,,,,,,,,,,,,,,,,,,,,,,,,,,,,,,,2597.497190299444,None,,,,,,,,,,,,,,,,,,,,,,,,,,,,,,,,,,,event,28,57,sing,blue,2595.484001599252,None,None,2595.484001599252,None,,,,,,,,,,,,,,,,,,,,,,,,,,,,,,50,001,2023_Apr_24_0953,ExactRep-v3-final,2021.2.3,59.93924573196245,
,,,,,,,,57,0,57,0,,,,,,,,,,,,,,,,,,,,,,,,,,,,,,,,,,,,,,,,,,,,,,,,,,,,,2600.0161603000015,None,,,,,,,,,,,,,,,,,,,,,,,,,,,,,,,,,,,dust,104,58,aloud,red,2598.006392999552,None,None,2598.006392999552,None,,,,,,,,,,,,,,,,,,,,,,,,,,,,,,50,001,2023_Apr_24_0953,ExactRep-v3-final,2021.2.3,59.93924573196245,
,,,,,,,,58,0,58,0,,,,,,,,,,,,,,,,,,,,,,,,,,,,,,,,,,,,,,,,,,,,,,,,,,,,,2602.5355557994917,None,,,,,,,,,,,,,,,,,,,,,,,,,,,,,,,,,,,moral,70,59,silent,white,2600.525461100042,None,None,2600.525461100042,None,,,,,,,,,,,,,,,,,,,,,,,,,,,,,,50,001,2023_Apr_24_0953,ExactRep-v3-final,2021.2.3,59.93924573196245,
,,,,,,,,59,0,59,0,,,,,,,,,,,,,,,,,,,,,,,,,,,,,,,,,,,,,,,,,,,,,,,,,,,,,2605.0545649994165,None,,,,,,,,,,,,,,,,,,,,,,,,,,,,,,,,,,,grass,21,60,sing,blue,2603.039349399507,None,None,2603.039349399507,None,,,,,,,,,,,,,,,,,,,,,,,,,,,,,,50,001,2023_Apr_24_0953,ExactRep-v3-final,2021.2.3,59.93924573196245,
,,,,,,,,60,0,60,0,,,,,,,,,,,,,,,,,,,,,,,,,,,,,,,,,,,,,,,,,,,,,,,,,,,,,2607.5740036992356,None,,,,,,,,,,,,,,,,,,,,,,,,,,,,,,,,,,,avenue,55,61,silent,white,2605.5641442993656,None,None,2605.5641442993656,None,,,,,,,,,,,,,,,,,,,,,,,,,,,,,,50,001,2023_Apr_24_0953,ExactRep-v3-final,2021.2.3,59.93924573196245,
,,,,,,,,61,0,61,0,,,,,,,,,,,,,,,,,,,,,,,,,,,,,,,,,,,,,,,,,,,,,,,,,,,,,2610.076411499642,None,,,,,,,,,,,,,,,,,,,,,,,,,,,,,,,,,,,horse,3,62,sing,blue,2608.0744850998744,None,None,2608.0744850998744,None,,,,,,,,,,,,,,,,,,,,,,,,,,,,,,50,001,2023_Apr_24_0953,ExactRep-v3-final,2021.2.3,59.93924573196245,
,,,,,,,,62,0,62,0,,,,,,,,,,,,,,,,,,,,,,,,,,,,,,,,,,,,,,,,,,,,,,,,,,,,,2612.5956603996456,None,,,,,,,,,,,,,,,,,,,,,,,,,,,,,,,,,,,square,84,63,aloud,red,2610.5830586999655,None,None,2610.5830586999655,None,,,,,,,,,,,,,,,,,,,,,,,,,,,,,,50,001,2023_Apr_24_0953,ExactRep-v3-final,2021.2.3,59.93924573196245,
,,,,,,,,63,0,63,0,,,,,,,,,,,,,,,,,,,,,,,,,,,,,,,,,,,,,,,,,,,,,,,,,,,,,2615.0981116993353,None,,,,,,,,,,,,,,,,,,,,,,,,,,,,,,,,,,,flesh,89,64,aloud,red,2613.0959882996976,None,None,2613.0959882996976,None,,,,,,,,,,,,,,,,,,,,,,,,,,,,,,50,001,2023_Apr_24_0953,ExactRep-v3-final,2021.2.3,59.93924573196245,
,,,,,,,,64,0,64,0,,,,,,,,,,,,,,,,,,,,,,,,,,,,,,,,,,,,,,,,,,,,,,,,,,,,,2617.6005758997053,None,,,,,,,,,,,,,,,,,,,,,,,,,,,,,,,,,,,village,44,65,silent,white,2615.6002942994237,None,None,2615.6002942994237,None,,,,,,,,,,,,,,,,,,,,,,,,,,,,,,50,001,2023_Apr_24_0953,ExactRep-v3-final,2021.2.3,59.93924573196245,
,,,,,,,,65,0,65,0,,,,,,,,,,,,,,,,,,,,,,,,,,,,,,,,,,,,,,,,,,,,,,,,,,,,,2620.1198840998113,None,,,,,,,,,,,,,,,,,,,,,,,,,,,,,,,,,,,journal,63,66,silent,white,2618.1064444994554,None,None,2618.1064444994554,None,,,,,,,,,,,,,,,,,,,,,,,,,,,,,,50,001,2023_Apr_24_0953,ExactRep-v3-final,2021.2.3,59.93924573196245,
,,,,,,,,66,0,66,0,,,,,,,,,,,,,,,,,,,,,,,,,,,,,,,,,,,,,,,,,,,,,,,,,,,,,2622.6222851993516,None,,,,,,,,,,,,,,,,,,,,,,,,,,,,,,,,,,,lord,66,67,silent,white,2620.6204168992117,None,None,2620.6204168992117,None,,,,,,,,,,,,,,,,,,,,,,,,,,,,,,50,001,2023_Apr_24_0953,ExactRep-v3-final,2021.2.3,59.93924573196245,
,,,,,,,,67,0,67,0,,,,,,,,,,,,,,,,,,,,,,,,,,,,,,,,,,,,,,,,,,,,,,,,,,,,,2625.1414815997705,None,,,,,,,,,,,,,,,,,,,,,,,,,,,,,,,,,,,king,106,68,aloud,red,2623.1306264000013,None,None,2623.1306264000013,None,,,,,,,,,,,,,,,,,,,,,,,,,,,,,,50,001,2023_Apr_24_0953,ExactRep-v3-final,2021.2.3,59.93924573196245,
,,,,,,,,68,0,68,0,,,,,,,,,,,,,,,,,,,,,,,,,,,,,,,,,,,,,,,,,,,,,,,,,,,,,2627.643979099579,None,,,,,,,,,,,,,,,,,,,,,,,,,,,,,,,,,,,soul,110,69,aloud,red,2625.644336199388,None,None,2625.644336199388,None,,,,,,,,,,,,,,,,,,,,,,,,,,,,,,50,001,2023_Apr_24_0953,ExactRep-v3-final,2021.2.3,59.93924573196245,
,,,,,,,,69,0,69,0,,,,,,,,,,,,,,,,,,,,,,,,,,,,,,,,,,,,,,,,,,,,,,,,,,,,,2630.146588899195,None,,,,,,,,,,,,,,,,,,,,,,,,,,,,,,,,,,,window,32,70,sing,blue,2628.1470920993015,None,None,2628.1470920993015,None,,,,,,,,,,,,,,,,,,,,,,,,,,,,,,50,001,2023_Apr_24_0953,ExactRep-v3-final,2021.2.3,59.93924573196245,
,,,,,,,,70,0,70,0,,,,,,,,,,,,,,,,,,,,,,,,,,,,,,,,,,,,,,,,,,,,,,,,,,,,,2632.6489210994914,None,,,,,,,,,,,,,,,,,,,,,,,,,,,,,,,,,,,tool,99,71,aloud,red,2630.6485611991957,None,None,2630.6485611991957,None,,,,,,,,,,,,,,,,,,,,,,,,,,,,,,50,001,2023_Apr_24_0953,ExactRep-v3-final,2021.2.3,59.93924573196245,
,,,,,,,,71,0,71,0,,,,,,,,,,,,,,,,,,,,,,,,,,,,,,,,,,,,,,,,,,,,,,,,,,,,,2635.1679827999324,None,,,,,,,,,,,,,,,,,,,,,,,,,,,,,,,,,,,engine,46,72,silent,white,2633.1525770993903,None,None,2633.1525770993903,None,,,,,,,,,,,,,,,,,,,,,,,,,,,,,,50,001,2023_Apr_24_0953,ExactRep-v3-final,2021.2.3,59.93924573196245,
,,,,,,,,72,0,72,0,,,,,,,,,,,,,,,,,,,,,,,,,,,,,,,,,,,,,,,,,,,,,,,,,,,,,2637.6873958995566,None,,,,,,,,,,,,,,,,,,,,,,,,,,,,,,,,,,,diamond,20,73,sing,blue,2635.6746828993782,None,None,2635.6746828993782,None,,,,,,,,,,,,,,,,,,,,,,,,,,,,,,50,001,2023_Apr_24_0953,ExactRep-v3-final,2021.2.3,59.93924573196245,
,,,,,,,,73,0,73,0,,,,,,,,,,,,,,,,,,,,,,,,,,,,,,,,,,,,,,,,,,,,,,,,,,,,,2640.2064116997644,None,,,,,,,,,,,,,,,,,,,,,,,,,,,,,,,,,,,freedom,100,74,aloud,red,2638.19122819975,None,None,2638.19122819975,None,,,,,,,,,,,,,,,,,,,,,,,,,,,,,,50,001,2023_Apr_24_0953,ExactRep-v3-final,2021.2.3,59.93924573196245,
,,,,,,,,74,0,74,0,,,,,,,,,,,,,,,,,,,,,,,,,,,,,,,,,,,,,,,,,,,,,,,,,,,,,2642.725752399303,None,,,,,,,,,,,,,,,,,,,,,,,,,,,,,,,,,,,woman,116,75,aloud,red,2640.717256399803,None,None,2640.717256399803,None,,,,,,,,,,,,,,,,,,,,,,,,,,,,,,50,001,2023_Apr_24_0953,ExactRep-v3-final,2021.2.3,59.93924573196245,
,,,,,,,,75,0,75,0,,,,,,,,,,,,,,,,,,,,,,,,,,,,,,,,,,,,,,,,,,,,,,,,,,,,,2645.2282171994448,None,,,,,,,,,,,,,,,,,,,,,,,,,,,,,,,,,,,garden,94,76,aloud,red,2643.2259398000315,None,None,2643.2259398000315,None,,,,,,,,,,,,,,,,,,,,,,,,,,,,,,50,001,2023_Apr_24_0953,ExactRep-v3-final,2021.2.3,59.93924573196245,
,,,,,,,,76,0,76,0,,,,,,,,,,,,,,,,,,,,,,,,,,,,,,,,,,,,,,,,,,,,,,,,,,,,,2647.7474223999307,None,,,,,,,,,,,,,,,,,,,,,,,,,,,,,,,,,,,plain,90,77,aloud,red,2645.7320757992566,None,None,2645.7320757992566,None,,,,,,,,,,,,,,,,,,,,,,,,,,,,,,50,001,2023_Apr_24_0953,ExactRep-v3-final,2021.2.3,59.93924573196245,
,,,,,,,,77,0,77,0,,,,,,,,,,,,,,,,,,,,,,,,,,,,,,,,,,,,,,,,,,,,,,,,,,,,,2650.266730999574,None,,,,,,,,,,,,,,,,,,,,,,,,,,,,,,,,,,,chair,58,78,silent,white,2648.2539029000327,None,None,2648.2539029000327,None,,,,,,,,,,,,,,,,,,,,,,,,,,,,,,50,001,2023_Apr_24_0953,ExactRep-v3-final,2021.2.3,59.93924573196245,
,,,,,,,,78,0,78,0,,,,,,,,,,,,,,,,,,,,,,,,,,,,,,,,,,,,,,,,,,,,,,,,,,,,,2652.7858114996925,None,,,,,,,,,,,,,,,,,,,,,,,,,,,,,,,,,,,history,5,79,sing,blue,2650.7744567999616,None,None,2650.7744567999616,None,,,,,,,,,,,,,,,,,,,,,,,,,,,,,,50,001,2023_Apr_24_0953,ExactRep-v3-final,2021.2.3,59.93924573196245,
,,,,,,,,79,0,79,0,,,,,,,,,,,,,,,,,,,,,,,,,,,,,,,,,,,,,,,,,,,,,,,,,,,,,2655.305004199967,None,,,,,,,,,,,,,,,,,,,,,,,,,,,,,,,,,,,length,64,80,silent,white,2653.2986122993752,None,None,2653.2986122993752,None,,,,,,,,,,,,,,,,,,,,,,,,,,,,,,50,001,2023_Apr_24_0953,ExactRep-v3-final,2021.2.3,59.93924573196245,
,,,,,,,,80,0,80,0,,,,,,,,,,,,,,,,,,,,,,,,,,,,,,,,,,,,,,,,,,,,,,,,,,,,,2657.8074963996187,None,,,,,,,,,,,,,,,,,,,,,,,,,,,,,,,,,,,devil,88,81,aloud,red,2655.80756559968,None,None,2655.80756559968,None,,,,,,,,,,,,,,,,,,,,,,,,,,,,,,50,001,2023_Apr_24_0953,ExactRep-v3-final,2021.2.3,59.93924573196245,
,,,,,,,,81,0,81,0,,,,,,,,,,,,,,,,,,,,,,,,,,,,,,,,,,,,,,,,,,,,,,,,,,,,,2660.3264719992876,None,,,,,,,,,,,,,,,,,,,,,,,,,,,,,,,,,,,coin,101,82,aloud,red,2658.312356699258,None,None,2658.312356699258,None,,,,,,,,,,,,,,,,,,,,,,,,,,,,,,50,001,2023_Apr_24_0953,ExactRep-v3-final,2021.2.3,59.93924573196245,
,,,,,,,,82,0,82,0,,,,,,,,,,,,,,,,,,,,,,,,,,,,,,,,,,,,,,,,,,,,,,,,,,,,,2662.8456385992467,None,,,,,,,,,,,,,,,,,,,,,,,,,,,,,,,,,,,college,95,83,aloud,red,2660.830239699222,None,None,2660.830239699222,None,,,,,,,,,,,,,,,,,,,,,,,,,,,,,,50,001,2023_Apr_24_0953,ExactRep-v3-final,2021.2.3,59.93924573196245,
,,,,,,,,83,0,83,0,,,,,,,,,,,,,,,,,,,,,,,,,,,,,,,,,,,,,,,,,,,,,,,,,,,,,2665.364863399416,None,,,,,,,,,,,,,,,,,,,,,,,,,,,,,,,,,,,teacher,19,84,sing,blue,2663.356191999279,None,None,2663.356191999279,None,,,,,,,,,,,,,,,,,,,,,,,,,,,,,,50,001,2023_Apr_24_0953,ExactRep-v3-final,2021.2.3,59.93924573196245,
,,,,,,,,84,0,84,0,,,,,,,,,,,,,,,,,,,,,,,,,,,,,,,,,,,,,,,,,,,,,,,,,,,,,2667.867634399794,None,,,,,,,,,,,,,,,,,,,,,,,,,,,,,,,,,,,wine,33,85,sing,blue,2665.8664063997567,None,None,2665.8664063997567,None,,,,,,,,,,,,,,,,,,,,,,,,,,,,,,50,001,2023_Apr_24_0953,ExactRep-v3-final,2021.2.3,59.93924573196245,
,,,,,,,,85,0,85,0,,,,,,,,,,,,,,,,,,,,,,,,,,,,,,,,,,,,,,,,,,,,,,,,,,,,,2670.386729599908,None,,,,,,,,,,,,,,,,,,,,,,,,,,,,,,,,,,,boulder,40,86,silent,white,2668.377805799246,None,None,2668.377805799246,None,,,,,,,,,,,,,,,,,,,,,,,,,,,,,,50,001,2023_Apr_24_0953,ExactRep-v3-final,2021.2.3,59.93924573196245,
,,,,,,,,86,0,86,0,,,,,,,,,,,,,,,,,,,,,,,,,,,,,,,,,,,,,,,,,,,,,,,,,,,,,2672.889231899753,None,,,,,,,,,,,,,,,,,,,,,,,,,,,,,,,,,,,slave,78,87,silent,white,2670.8892609998584,None,None,2670.8892609998584,None,,,,,,,,,,,,,,,,,,,,,,,,,,,,,,50,001,2023_Apr_24_0953,ExactRep-v3-final,2021.2.3,59.93924573196245,
,,,,,,,,87,0,87,0,,,,,,,,,,,,,,,,,,,,,,,,,,,,,,,,,,,,,,,,,,,,,,,,,,,,,2675.3917354000732,None,,,,,,,,,,,,,,,,,,,,,,,,,,,,,,,,,,,ticket,108,88,aloud,red,2673.392664999701,None,None,2673.392664999701,None,,,,,,,,,,,,,,,,,,,,,,,,,,,,,,50,001,2023_Apr_24_0953,ExactRep-v3-final,2021.2.3,59.93924573196245,
,,,,,,,,88,0,88,0,,,,,,,,,,,,,,,,,,,,,,,,,,,,,,,,,,,,,,,,,,,,,,,,,,,,,2677.8942853994668,None,,,,,,,,,,,,,,,,,,,,,,,,,,,,,,,,,,,silence,96,89,aloud,red,2675.8952608993277,None,None,2675.8952608993277,None,,,,,,,,,,,,,,,,,,,,,,,,,,,,,,50,001,2023_Apr_24_0953,ExactRep-v3-final,2021.2.3,59.93924573196245,
,,,,,,,,89,0,89,0,,,,,,,,,,,,,,,,,,,,,,,,,,,,,,,,,,,,,,,,,,,,,,,,,,,,,2680.4133533993736,None,,,,,,,,,,,,,,,,,,,,,,,,,,,,,,,,,,,master,39,90,silent,white,2678.3989361999556,None,None,2678.3989361999556,None,,,,,,,,,,,,,,,,,,,,,,,,,,,,,,50,001,2023_Apr_24_0953,ExactRep-v3-final,2021.2.3,59.93924573196245,
,,,,,,,,90,0,90,0,,,,,,,,,,,,,,,,,,,,,,,,,,,,,,,,,,,,,,,,,,,,,,,,,,,,,2682.9158884994686,None,,,,,,,,,,,,,,,,,,,,,,,,,,,,,,,,,,,pupil,115,91,aloud,red,2680.91379289981,None,None,2680.91379289981,None,,,,,,,,,,,,,,,,,,,,,,,,,,,,,,50,001,2023_Apr_24_0953,ExactRep-v3-final,2021.2.3,59.93924573196245,
,,,,,,,,91,0,91,0,,,,,,,,,,,,,,,,,,,,,,,,,,,,,,,,,,,,,,,,,,,,,,,,,,,,,2685.435141599737,None,,,,,,,,,,,,,,,,,,,,,,,,,,,,,,,,,,,dream,93,92,aloud,red,2683.4228032995015,None,None,2683.4228032995015,None,,,,,,,,,,,,,,,,,,,,,,,,,,,,,,50,001,2023_Apr_24_0953,ExactRep-v3-final,2021.2.3,59.93924573196245,
,,,,,,,,92,0,92,0,,,,,,,,,,,,,,,,,,,,,,,,,,,,,,,,,,,,,,,,,,,,,,,,,,,,,2687.954293999821,None,,,,,,,,,,,,,,,,,,,,,,,,,,,,,,,,,,,cotton,41,93,silent,white,2685.938946899958,None,None,2685.938946899958,None,,,,,,,,,,,,,,,,,,,,,,,,,,,,,,50,001,2023_Apr_24_0953,ExactRep-v3-final,2021.2.3,59.93924573196245,
,,,,,,,,93,0,93,0,,,,,,,,,,,,,,,,,,,,,,,,,,,,,,,,,,,,,,,,,,,,,,,,,,,,,2690.456926299259,None,,,,,,,,,,,,,,,,,,,,,,,,,,,,,,,,,,,style,98,94,aloud,red,2688.457054699771,None,None,2688.457054699771,None,,,,,,,,,,,,,,,,,,,,,,,,,,,,,,50,001,2023_Apr_24_0953,ExactRep-v3-final,2021.2.3,59.93924573196245,
,,,,,,,,94,0,94,0,,,,,,,,,,,,,,,,,,,,,,,,,,,,,,,,,,,,,,,,,,,,,,,,,,,,,2692.9591648001224,None,,,,,,,,,,,,,,,,,,,,,,,,,,,,,,,,,,,memory,56,95,silent,white,2690.958986699581,None,None,2690.958986699581,None,,,,,,,,,,,,,,,,,,,,,,,,,,,,,,50,001,2023_Apr_24_0953,ExactRep-v3-final,2021.2.3,59.93924573196245,
,,,,,,,,95,0,95,0,,,,,,,,,,,,,,,,,,,,,,,,,,,,,,,,,,,,,,,,,,,,,,,,,,,,,2695.461791699752,None,,,,,,,,,,,,,,,,,,,,,,,,,,,,,,,,,,,corner,43,96,silent,white,2693.4623493999243,None,None,2693.4623493999243,None,,,,,,,,,,,,,,,,,,,,,,,,,,,,,,50,001,2023_Apr_24_0953,ExactRep-v3-final,2021.2.3,59.93924573196245,
,,,,,,,,96,0,96,0,,,,,,,,,,,,,,,,,,,,,,,,,,,,,,,,,,,,,,,,,,,,,,,,,,,,,2697.9643455995247,None,,,,,,,,,,,,,,,,,,,,,,,,,,,,,,,,,,,home,29,97,sing,blue,2695.96230740007,None,None,2695.96230740007,None,,,,,,,,,,,,,,,,,,,,,,,,,,,,,,50,001,2023_Apr_24_0953,ExactRep-v3-final,2021.2.3,59.93924573196245,
,,,,,,,,97,0,97,0,,,,,,,,,,,,,,,,,,,,,,,,,,,,,,,,,,,,,,,,,,,,,,,,,,,,,2700.483343999833,None,,,,,,,,,,,,,,,,,,,,,,,,,,,,,,,,,,,form,83,98,aloud,red,2698.4693128000945,None,None,2698.4693128000945,None,,,,,,,,,,,,,,,,,,,,,,,,,,,,,,50,001,2023_Apr_24_0953,ExactRep-v3-final,2021.2.3,59.93924573196245,
,,,,,,,,98,0,98,0,,,,,,,,,,,,,,,,,,,,,,,,,,,,,,,,,,,,,,,,,,,,,,,,,,,,,2702.985933999531,None,,,,,,,,,,,,,,,,,,,,,,,,,,,,,,,,,,,metal,27,99,sing,blue,2700.9846773995087,None,None,2700.9846773995087,None,,,,,,,,,,,,,,,,,,,,,,,,,,,,,,50,001,2023_Apr_24_0953,ExactRep-v3-final,2021.2.3,59.93924573196245,
,,,,,,,,99,0,99,0,,,,,,,,,,,,,,,,,,,,,,,,,,,,,,,,,,,,,,,,,,,,,,,,,,,,,2705.4885480999947,None,,,,,,,,,,,,,,,,,,,,,,,,,,,,,,,,,,,fault,97,100,aloud,red,2703.4861632995307,None,None,2703.4861632995307,None,,,,,,,,,,,,,,,,,,,,,,,,,,,,,,50,001,2023_Apr_24_0953,ExactRep-v3-final,2021.2.3,59.93924573196245,
,,,,,,,,100,0,100,0,,,,,,,,,,,,,,,,,,,,,,,,,,,,,,,,,,,,,,,,,,,,,,,,,,,,,2708.0076489998028,None,,,,,,,,,,,,,,,,,,,,,,,,,,,,,,,,,,,doll,38,101,sing,blue,2705.993142299354,None,None,2705.993142299354,None,,,,,,,,,,,,,,,,,,,,,,,,,,,,,,50,001,2023_Apr_24_0953,ExactRep-v3-final,2021.2.3,59.93924573196245,
,,,,,,,,101,0,101,0,,,,,,,,,,,,,,,,,,,,,,,,,,,,,,,,,,,,,,,,,,,,,,,,,,,,,2710.510170499794,None,,,,,,,,,,,,,,,,,,,,,,,,,,,,,,,,,,,disease,113,102,aloud,red,2708.5099392998964,None,None,2708.5099392998964,None,,,,,,,,,,,,,,,,,,,,,,,,,,,,,,50,001,2023_Apr_24_0953,ExactRep-v3-final,2021.2.3,59.93924573196245,
,,,,,,,,102,0,102,0,,,,,,,,,,,,,,,,,,,,,,,,,,,,,,,,,,,,,,,,,,,,,,,,,,,,,2713.012763599865,None,,,,,,,,,,,,,,,,,,,,,,,,,,,,,,,,,,,book,112,103,aloud,red,2711.01237189956,None,None,2711.01237189956,None,,,,,,,,,,,,,,,,,,,,,,,,,,,,,,50,001,2023_Apr_24_0953,ExactRep-v3-final,2021.2.3,59.93924573196245,
,,,,,,,,103,0,103,0,,,,,,,,,,,,,,,,,,,,,,,,,,,,,,,,,,,,,,,,,,,,,,,,,,,,,2715.5153663996607,None,,,,,,,,,,,,,,,,,,,,,,,,,,,,,,,,,,,science,9,104,sing,blue,2713.515912699513,None,None,2713.515912699513,None,,,,,,,,,,,,,,,,,,,,,,,,,,,,,,50,001,2023_Apr_24_0953,ExactRep-v3-final,2021.2.3,59.93924573196245,
,,,,,,,,104,0,104,0,,,,,,,,,,,,,,,,,,,,,,,,,,,,,,,,,,,,,,,,,,,,,,,,,,,,,2718.034162699245,None,,,,,,,,,,,,,,,,,,,,,,,,,,,,,,,,,,,lake,76,105,silent,white,2716.02149909921,None,None,2716.02149909921,None,,,,,,,,,,,,,,,,,,,,,,,,,,,,,,50,001,2023_Apr_24_0953,ExactRep-v3-final,2021.2.3,59.93924573196245,
,,,,,,,,105,0,105,0,,,,,,,,,,,,,,,,,,,,,,,,,,,,,,,,,,,,,,,,,,,,,,,,,,,,,2720.5535645000637,None,,,,,,,,,,,,,,,,,,,,,,,,,,,,,,,,,,,river,50,106,silent,white,2718.5408782996237,None,None,2718.5408782996237,None,,,,,,,,,,,,,,,,,,,,,,,,,,,,,,50,001,2023_Apr_24_0953,ExactRep-v3-final,2021.2.3,59.93924573196245,
,,,,,,,,106,0,106,0,,,,,,,,,,,,,,,,,,,,,,,,,,,,,,,,,,,,,,,,,,,,,,,,,,,,,2723.0560510000214,None,,,,,,,,,,,,,,,,,,,,,,,,,,,,,,,,,,,person,85,107,aloud,red,2721.05401349999,None,None,2721.05401349999,None,,,,,,,,,,,,,,,,,,,,,,,,,,,,,,50,001,2023_Apr_24_0953,ExactRep-v3-final,2021.2.3,59.93924573196245,
,,,,,,,,107,0,107,0,,,,,,,,,,,,,,,,,,,,,,,,,,,,,,,,,,,,,,,,,,,,,,,,,,,,,2725.5632050996646,None,,,,,,,,,,,,,,,,,,,,,,,,,,,,,,,,,,,flood,79,108,sing,blue,2723.558333499357,None,None,2723.558333499357,None,,,,,,,,,,,,,,,,,,,,,,,,,,,,,,50,001,2023_Apr_24_0953,ExactRep-v3-final,2021.2.3,59.93924573196245,
,,,,,,,,108,0,108,0,,,,,,,,,,,,,,,,,,,,,,,,,,,,,,,,,,,,,,,,,,,,,,,,,,,,,2728.077779999934,None,,,,,,,,,,,,,,,,,,,,,,,,,,,,,,,,,,,cabin,118,109,aloud,red,2726.0755228996277,None,None,2726.0755228996277,None,,,,,,,,,,,,,,,,,,,,,,,,,,,,,,50,001,2023_Apr_24_0953,ExactRep-v3-final,2021.2.3,59.93924573196245,
,,,,,,,,109,0,109,0,,,,,,,,,,,,,,,,,,,,,,,,,,,,,,,,,,,,,,,,,,,,,,,,,,,,,2730.596969999373,None,,,,,,,,,,,,,,,,,,,,,,,,,,,,,,,,,,,camp,103,110,aloud,red,2728.581496499479,None,None,2728.581496499479,None,,,,,,,,,,,,,,,,,,,,,,,,,,,,,,50,001,2023_Apr_24_0953,ExactRep-v3-final,2021.2.3,59.93924573196245,
,,,,,,,,110,0,110,0,,,,,,,,,,,,,,,,,,,,,,,,,,,,,,,,,,,,,,,,,,,,,,,,,,,,,2733.099485599436,None,,,,,,,,,,,,,,,,,,,,,,,,,,,,,,,,,,,mother,59,111,silent,white,2731.098632399924,None,None,2731.098632399924,None,,,,,,,,,,,,,,,,,,,,,,,,,,,,,,50,001,2023_Apr_24_0953,ExactRep-v3-final,2021.2.3,59.93924573196245,
,,,,,,,,111,0,111,0,,,,,,,,,,,,,,,,,,,,,,,,,,,,,,,,,,,,,,,,,,,,,,,,,,,,,2735.618662599474,None,,,,,,,,,,,,,,,,,,,,,,,,,,,,,,,,,,,grief,23,112,sing,blue,2733.6031080996618,None,None,2733.6031080996618,None,,,,,,,,,,,,,,,,,,,,,,,,,,,,,,50,001,2023_Apr_24_0953,ExactRep-v3-final,2021.2.3,59.93924573196245,
,,,,,,,,112,0,112,0,,,,,,,,,,,,,,,,,,,,,,,,,,,,,,,,,,,,,,,,,,,,,,,,,,,,,2738.1210890999064,None,,,,,,,,,,,,,,,,,,,,,,,,,,,,,,,,,,,quality,12,113,sing,blue,2736.120286299847,None,None,2736.120286299847,None,,,,,,,,,,,,,,,,,,,,,,,,,,,,,,50,001,2023_Apr_24_0953,ExactRep-v3-final,2021.2.3,59.93924573196245,
,,,,,,,,113,0,113,0,,,,,,,,,,,,,,,,,,,,,,,,,,,,,,,,,,,,,,,,,,,,,,,,,,,,,2740.624559399672,None,,,,,,,,,,,,,,,,,,,,,,,,,,,,,,,,,,,party,8,114,sing,blue,2738.621523499489,None,None,2738.621523499489,None,,,,,,,,,,,,,,,,,,,,,,,,,,,,,,50,001,2023_Apr_24_0953,ExactRep-v3-final,2021.2.3,59.93924573196245,
,,,,,,,,114,0,114,0,,,,,,,,,,,,,,,,,,,,,,,,,,,,,,,,,,,,,,,,,,,,,,,,,,,,,2743.126178300008,None,,,,,,,,,,,,,,,,,,,,,,,,,,,,,,,,,,,rod,117,115,aloud,red,2741.1257867999375,None,None,2741.1257867999375,None,,,,,,,,,,,,,,,,,,,,,,,,,,,,,,50,001,2023_Apr_24_0953,ExactRep-v3-final,2021.2.3,59.93924573196245,
,,,,,,,,115,0,115,0,,,,,,,,,,,,,,,,,,,,,,,,,,,,,,,,,,,,,,,,,,,,,,,,,,,,,2745.6455212999135,None,,,,,,,,,,,,,,,,,,,,,,,,,,,,,,,,,,,safety,57,116,silent,white,2743.6320260996,None,None,2743.6320260996,None,,,,,,,,,,,,,,,,,,,,,,,,,,,,,,50,001,2023_Apr_24_0953,ExactRep-v3-final,2021.2.3,59.93924573196245,
,,,,,,,,116,0,116,0,,,,,,,,,,,,,,,,,,,,,,,,,,,,,,,,,,,,,,,,,,,,,,,,,,,,,2748.1478919992223,None,,,,,,,,,,,,,,,,,,,,,,,,,,,,,,,,,,,car,60,117,silent,white,2746.145608499646,None,None,2746.145608499646,None,,,,,,,,,,,,,,,,,,,,,,,,,,,,,,50,001,2023_Apr_24_0953,ExactRep-v3-final,2021.2.3,59.93924573196245,
,,,,,,,,117,0,117,0,,,,,,,,,,,,,,,,,,,,,,,,,,,,,,,,,,,,,,,,,,,,,,,,,,,,,2750.6502874996513,None,,,,,,,,,,,,,,,,,,,,,,,,,,,,,,,,,,,house,77,118,silent,white,2748.649681299925,None,None,2748.649681299925,None,,,,,,,,,,,,,,,,,,,,,,,,,,,,,,50,001,2023_Apr_24_0953,ExactRep-v3-final,2021.2.3,59.93924573196245,
,,,,,,,,118,0,118,0,,,,,,,,,,,,,,,,,,,,,,,,,,,,,,,,,,,,,,,,,,,,,,,,,,,,,2753.1528378995135,None,,,,,,,,,,,,,,,,,,,,,,,,,,,,,,,,,,,cash,87,119,aloud,red,2751.1510846000165,None,None,2751.1510846000165,None,,,,,,,,,,,,,,,,,,,,,,,,,,,,,,50,001,2023_Apr_24_0953,ExactRep-v3-final,2021.2.3,59.93924573196245,
,,,,,,,,119,0,119,0,,,,,,,,,,,,,,,,,,,,,,,,,,,,,,,,,,,,,,,,,,,,,,,,,,,,,2755.6551340995356,None,,,,,,,,,,,,,,,,,,,,,,,,,,,,,,,,,,,life,16,120,sing,blue,2753.6553573999554,None,None,2753.6553573999554,None,,,,,,,,,,,,,,,,,,,,,,,,,,,,,,50,001,2023_Apr_24_0953,ExactRep-v3-final,2021.2.3,59.93924573196245,
,,,,,,,,,,,,,,,,,,,,,,,,,,,,,,,,,,,,,,,,,,,,,,,,,,,,,,,,,,,,,,,,,,,,,,,,,,,,,,,,,,,,,,,,,,,,,,,,,,,,,,,,,,,,,,2756.1571955997497,None,space,7.254868799820542,2766.133402099833,None,,,,,,,,,,,,,,,,,,,,,,,,50,001,2023_Apr_24_0953,ExactRep-v3-final,2021.2.3,59.93924573196245,
,,,,,,,,,,,,,,,,,,,,,,,,,,,,,,,,,,,,,,,,,,,,,,,,,,,,,,,,,,,,,,,,,,,,,,,,,,,,,,,,,,,,,,,,,,,,,,,,,,,,,,,,,,,,,,,,,,,,2773.408353699371,None,space,39.45172499958426,2783.3845587996766,None,,,,,,,,,,,,,,,,,,50,001,2023_Apr_24_0953,ExactRep-v3-final,2021.2.3,59.93924573196245,
,,,,,,,,,,,,0,0,0,0,,,,,,,,,,,,,,,,,,,,,,,,,,,,,,,,,,,,,,,,,,,,,,,,,2853.035877299495,None,,,,,,,,,,,,,,,,,,,,,,,,,,,,,,,,,,,,,,,,,,,,,,,,,,,,,,,,,passion,147,1,silent,new,white,2823.3696013996378,None,n,2823.3696013996378,None,"['n', 'return']","[4.762125100009143, 29.626230599358678]",2823.3696013996378,None,,,50,001,2023_Apr_24_0953,ExactRep-v3-final,2021.2.3,59.93924573196245,
,,,,,,,,,,,,1,0,1,0,,,,,,,,,,,,,,,,,,,,,,,,,,,,,,,,,,,,,,,,,,,,,,,,,2860.559952499345,None,,,,,,,,,,,,,,,,,,,,,,,,,,,,,,,,,,,,,,,,,,,,,,,,,,,,,,,,,camp,103,2,aloud,old,red,2853.5447825994343,None,y,2853.5447825994343,None,"['y', 'return']","[5.587064200080931, 6.979107199236751]",2853.5447825994343,None,,,50,001,2023_Apr_24_0953,ExactRep-v3-final,2021.2.3,59.93924573196245,
,,,,,,,,,,,,2,0,2,0,,,,,,,,,,,,,,,,,,,,,,,,,,,,,,,,,,,,,,,,,,,,,,,,,2864.0134020000696,None,,,,,,,,,,,,,,,,,,,,,,,,,,,,,,,,,,,,,,,,,,,,,,,,,,,,,,,,,cottage,105,3,aloud,old,red,2861.0759095000103,None,y,2861.0759095000103,None,"['y', 'return']","[1.8959130998700857, 2.90394870005548]",2861.0759095000103,None,,,50,001,2023_Apr_24_0953,ExactRep-v3-final,2021.2.3,59.93924573196245,
,,,,,,,,,,,,3,0,3,0,,,,,,,,,,,,,,,,,,,,,,,,,,,,,,,,,,,,,,,,,,,,,,,,,2869.068559299223,None,,,,,,,,,,,,,,,,,,,,,,,,,,,,,,,,,,,,,,,,,,,,,,,,,,,,,,,,,fortune,158,4,silent,new,white,2864.5299033001065,None,n,2864.5299033001065,None,"['n', 'return']","[3.2579974997788668, 4.505914299748838]",2864.5299033001065,None,,,50,001,2023_Apr_24_0953,ExactRep-v3-final,2021.2.3,59.93924573196245,
,,,,,,,,,,,,4,0,4,0,,,,,,,,,,,,,,,,,,,,,,,,,,,,,,,,,,,,,,,,,,,,,,,,,2876.943182999268,None,,,,,,,,,,,,,,,,,,,,,,,,,,,,,,,,,,,,,,,,,,,,,,,,,,,,,,,,,lip,225,5,sing,new,blue,2869.577615099959,None,n,2869.577615099959,None,"['n', 'return']","[5.746219899505377, 7.3222236996516585]",2869.577615099959,None,,,50,001,2023_Apr_24_0953,ExactRep-v3-final,2021.2.3,59.93924573196245,
,,,,,,,,,,,,5,0,5,0,,,,,,,,,,,,,,,,,,,,,,,,,,,,,,,,,,,,,,,,,,,,,,,,,2881.8479645997286,None,,,,,,,,,,,,,,,,,,,,,,,,,,,,,,,,,,,,,,,,,,,,,,,,,,,,,,,,,lake,76,6,silent,old,white,2877.4560829997063,None,y,2877.4560829997063,None,"['y', 'return']","[3.459986699745059, 4.3560043992474675]",2877.4560829997063,None,,,50,001,2023_Apr_24_0953,ExactRep-v3-final,2021.2.3,59.93924573196245,
,,,,,,,,,,,,6,0,6,0,,,,,,,,,,,,,,,,,,,,,,,,,,,,,,,,,,,,,,,,,,,,,,,,,2884.4840655997396,None,,,,,,,,,,,,,,,,,,,,,,,,,,,,,,,,,,,,,,,,,,,,,,,,,,,,,,,,,insect,6,7,sing,old,blue,2882.3574613993987,None,y,2882.3574613993987,None,"['y', 'return']","[1.3027122002094984, 2.0944034000858665]",2882.3574613993987,None,,,50,001,2023_Apr_24_0953,ExactRep-v3-final,2021.2.3,59.93924573196245,
,,,,,,,,,,,,7,0,7,0,,,,,,,,,,,,,,,,,,,,,,,,,,,,,,,,,,,,,,,,,,,,,,,,,2887.8707031998783,None,,,,,,,,,,,,,,,,,,,,,,,,,,,,,,,,,,,,,,,,,,,,,,,,,,,,,,,,,chief,143,8,silent,new,white,2884.9922682000324,None,n,2884.9922682000324,None,"['n', 'return']","[1.8517658999189734, 2.843645100481808]",2884.9922682000324,None,,,50,001,2023_Apr_24_0953,ExactRep-v3-final,2021.2.3,59.93924573196245,
,,,,,,,,,,,,8,0,8,0,,,,,,,,,,,,,,,,,,,,,,,,,,,,,,,,,,,,,,,,,,,,,,,,,2891.1241589998826,None,,,,,,,,,,,,,,,,,,,,,,,,,,,,,,,,,,,,,,,,,,,,,,,,,,,,,,,,,bird,73,9,silent,old,white,2888.3722967999056,None,y,2888.3722967999056,None,"['y', 'return']","[1.7600019006058574, 2.719624100252986]",2888.3722967999056,None,,,50,001,2023_Apr_24_0953,ExactRep-v3-final,2021.2.3,59.93924573196245,
,,,,,,,,,,,,9,0,9,0,,,,,,,,,,,,,,,,,,,,,,,,,,,,,,,,,,,,,,,,,,,,,,,,,2893.7766026994213,None,,,,,,,,,,,,,,,,,,,,,,,,,,,,,,,,,,,,,,,,,,,,,,,,,,,,,,,,,village,44,10,silent,old,white,2891.6339219994843,None,y,2891.6339219994843,None,"['y', 'return']","[1.3140004007145762, 2.1059150006622076]",2891.6339219994843,None,,,50,001,2023_Apr_24_0953,ExactRep-v3-final,2021.2.3,59.93924573196245,
,,,,,,,,,,,,10,0,10,0,,,,,,,,,,,,,,,,,,,,,,,,,,,,,,,,,,,,,,,,,,,,,,,,,2897.5137021997944,None,,,,,,,,,,,,,,,,,,,,,,,,,,,,,,,,,,,,,,,,,,,,,,,,,,,,,,,,,hope,232,11,aloud,new,red,2894.2856326000765,None,y,2894.2856326000765,None,"['y', 'return']","[2.4622475001960993, 3.1903359005227685]",2894.2856326000765,None,,,50,001,2023_Apr_24_0953,ExactRep-v3-final,2021.2.3,59.93924573196245,
,,,,,,,,,,,,11,0,11,0,,,,,,,,,,,,,,,,,,,,,,,,,,,,,,,,,,,,,,,,,,,,,,,,,2900.6015200000256,None,,,,,,,,,,,,,,,,,,,,,,,,,,,,,,,,,,,,,,,,,,,,,,,,,,,,,,,,,gold,150,12,silent,new,white,2898.0225676996633,None,n,2898.0225676996633,None,"['n', 'return']","[1.661618199199438, 2.5413617994636297]",2898.0225676996633,None,,,50,001,2023_Apr_24_0953,ExactRep-v3-final,2021.2.3,59.93924573196245,
,,,,,,,,,,,,12,0,12,0,,,,,,,,,,,,,,,,,,,,,,,,,,,,,,,,,,,,,,,,,,,,,,,,,2904.5875657992437,None,,,,,,,,,,,,,,,,,,,,,,,,,,,,,,,,,,,,,,,,,,,,,,,,,,,,,,,,,bar,238,13,aloud,new,red,2901.1090875994414,None,y,2901.1090875994414,None,"['y', 'return']","[2.4787979992106557, 3.438859399408102]",2901.1090875994414,None,,,50,001,2023_Apr_24_0953,ExactRep-v3-final,2021.2.3,59.93924573196245,
,,,,,,,,,,,,13,0,13,0,,,,,,,,,,,,,,,,,,,,,,,,,,,,,,,,,,,,,,,,,,,,,,,,,2908.5915759997442,None,,,,,,,,,,,,,,,,,,,,,,,,,,,,,,,,,,,,,,,,,,,,,,,,,,,,,,,,,health,189,14,sing,new,blue,2905.095716400072,None,n,2905.095716400072,None,"['n', 'return']","[2.508202800527215, 3.452160800807178]",2905.095716400072,None,,,50,001,2023_Apr_24_0953,ExactRep-v3-final,2021.2.3,59.93924573196245,
,,,,,,,,,,,,14,0,14,0,,,,,,,,,,,,,,,,,,,,,,,,,,,,,,,,,,,,,,,,,,,,,,,,,2911.5943811992183,None,,,,,,,,,,,,,,,,,,,,,,,,,,,,,,,,,,,,,,,,,,,,,,,,,,,,,,,,,pipe,128,15,silent,new,white,2909.103100599721,None,n,2909.103100599721,None,"['n', 'return']","[1.5008266000077128, 2.452824399806559]",2909.103100599721,None,,,50,001,2023_Apr_24_0953,ExactRep-v3-final,2021.2.3,59.93924573196245,
,,,,,,,,,,,,15,0,15,0,,,,,,,,,,,,,,,,,,,,,,,,,,,,,,,,,,,,,,,,,,,,,,,,,2914.5973640996963,None,,,,,,,,,,,,,,,,,,,,,,,,,,,,,,,,,,,,,,,,,,,,,,,,,,,,,,,,,cat,15,16,sing,old,blue,2912.106402100064,None,y,2912.106402100064,None,"['y', 'return']","[1.44958780054003, 2.457561600022018]",2912.106402100064,None,,,50,001,2023_Apr_24_0953,ExactRep-v3-final,2021.2.3,59.93924573196245,
,,,,,,,,,,,,16,0,16,0,,,,,,,,,,,,,,,,,,,,,,,,,,,,,,,,,,,,,,,,,,,,,,,,,2917.8172500999644,None,,,,,,,,,,,,,,,,,,,,,,,,,,,,,,,,,,,,,,,,,,,,,,,,,,,,,,,,,volume,210,17,aloud,new,red,2915.107343699783,None,n,2915.107343699783,None,"['n', 'return']","[1.6968569997698069, 2.6646157996729016]",2915.107343699783,None,,,50,001,2023_Apr_24_0953,ExactRep-v3-final,2021.2.3,59.93924573196245,
,,,,,,,,,,,,17,0,17,0,,,,,,,,,,,,,,,,,,,,,,,,,,,,,,,,,,,,,,,,,,,,,,,,,2920.78706689924,None,,,,,,,,,,,,,,,,,,,,,,,,,,,,,,,,,,,,,,,,,,,,,,,,,,,,,,,,,honour,80,18,aloud,old,red,2918.3255636999384,None,y,2918.3255636999384,None,"['y', 'return']","[1.5103247994557023, 2.4145035995170474]",2918.3255636999384,None,,,50,001,2023_Apr_24_0953,ExactRep-v3-final,2021.2.3,59.93924573196245,
,,,,,,,,,,,,18,0,18,0,,,,,,,,,,,,,,,,,,,,,,,,,,,,,,,,,,,,,,,,,,,,,,,,,2923.456410699524,None,,,,,,,,,,,,,,,,,,,,,,,,,,,,,,,,,,,,,,,,,,,,,,,,,,,,,,,,,freedom,100,19,aloud,old,red,2921.2940269997343,None,y,2921.2940269997343,None,"['y', 'return']","[1.3021046994253993, 2.125916199758649]",2921.2940269997343,None,,,50,001,2023_Apr_24_0953,ExactRep-v3-final,2021.2.3,59.93924573196245,
,,,,,,,,,,,,19,0,19,0,,,,,,,,,,,,,,,,,,,,,,,,,,,,,,,,,,,,,,,,,,,,,,,,,2927.4269086997956,None,,,,,,,,,,,,,,,,,,,,,,,,,,,,,,,,,,,,,,,,,,,,,,,,,,,,,,,,,money,215,20,sing,new,blue,2923.9632986998186,None,n,2923.9632986998186,None,"['n', 'return']","[1.8568840995430946, 3.416517399251461]",2923.9632986998186,None,,,50,001,2023_Apr_24_0953,ExactRep-v3-final,2021.2.3,59.93924573196245,
,,,,,,,,,,,,20,0,20,0,,,,,,,,,,,,,,,,,,,,,,,,,,,,,,,,,,,,,,,,,,,,,,,,,2932.248356799595,None,,,,,,,,,,,,,,,,,,,,,,,,,,,,,,,,,,,,,,,,,,,,,,,,,,,,,,,,,cost,163,21,sing,new,blue,2927.9374168999493,None,n,2927.9374168999493,None,"['n', 'return']","[3.1708052000030875, 4.27454790007323]",2927.9374168999493,None,,,50,001,2023_Apr_24_0953,ExactRep-v3-final,2021.2.3,59.93924573196245,
,,,,,,,,,,,,21,0,21,0,,,,,,,,,,,,,,,,,,,,,,,,,,,,,,,,,,,,,,,,,,,,,,,,,2935.2013299996033,None,,,,,,,,,,,,,,,,,,,,,,,,,,,,,,,,,,,,,,,,,,,,,,,,,,,,,,,,,sea,186,22,aloud,new,red,2932.755393399857,None,n,2932.755393399857,None,"['n', 'return']","[1.5286326995119452, 2.4005712997168303]",2932.755393399857,None,,,50,001,2023_Apr_24_0953,ExactRep-v3-final,2021.2.3,59.93924573196245,
,,,,,,,,,,,,22,0,22,0,,,,,,,,,,,,,,,,,,,,,,,,,,,,,,,,,,,,,,,,,,,,,,,,,2937.97560349945,None,,,,,,,,,,,,,,,,,,,,,,,,,,,,,,,,,,,,,,,,,,,,,,,,,,,,,,,,,journal,63,23,silent,old,white,2935.7155641997233,None,y,2935.7155641997233,None,"['y', 'return']","[1.4646397000178695, 2.2083740001544356]",2935.7155641997233,None,,,50,001,2023_Apr_24_0953,ExactRep-v3-final,2021.2.3,59.93924573196245,
,,,,,,,,,,,,23,0,23,0,,,,,,,,,,,,,,,,,,,,,,,,,,,,,,,,,,,,,,,,,,,,,,,,,2940.6067325994372,None,,,,,,,,,,,,,,,,,,,,,,,,,,,,,,,,,,,,,,,,,,,,,,,,,,,,,,,,,science,9,24,sing,old,blue,2938.4953916994855,None,y,2938.4953916994855,None,"['y', 'return']","[1.2525197006762028, 2.0685149002820253]",2938.4953916994855,None,,,50,001,2023_Apr_24_0953,ExactRep-v3-final,2021.2.3,59.93924573196245,
,,,,,,,,,,,,24,0,24,0,,,,,,,,,,,,,,,,,,,,,,,,,,,,,,,,,,,,,,,,,,,,,,,,,2943.2093691993505,None,,,,,,,,,,,,,,,,,,,,,,,,,,,,,,,,,,,,,,,,,,,,,,,,,,,,,,,,,quality,12,25,sing,old,blue,2941.119934000075,None,y,2941.119934000075,None,"['y', 'return']","[1.2120511000975966, 2.044066400267184]",2941.119934000075,None,,,50,001,2023_Apr_24_0953,ExactRep-v3-final,2021.2.3,59.93924573196245,
,,,,,,,,,,,,25,0,25,0,,,,,,,,,,,,,,,,,,,,,,,,,,,,,,,,,,,,,,,,,,,,,,,,,2947.1299235001206,None,,,,,,,,,,,,,,,,,,,,,,,,,,,,,,,,,,,,,,,,,,,,,,,,,,,,,,,,,friend,65,26,silent,old,white,2943.7199446996674,None,y,2943.7199446996674,None,"['y', 'return']","[2.7240768996998668, 3.372033500112593]",2943.7199446996674,None,,,50,001,2023_Apr_24_0953,ExactRep-v3-final,2021.2.3,59.93924573196245,
,,,,,,,,,,,,26,0,26,0,,,,,,,,,,,,,,,,,,,,,,,,,,,,,,,,,,,,,,,,,,,,,,,,,2953.3695885995403,None,,,,,,,,,,,,,,,,,,,,,,,,,,,,,,,,,,,,,,,,,,,,,,,,,,,,,,,,,student,190,27,aloud,new,red,2947.639972699806,None,n,2947.639972699806,None,"['n', 'return']","[5.043910200707614, 5.683996700681746]",2947.639972699806,None,,,50,001,2023_Apr_24_0953,ExactRep-v3-final,2021.2.3,59.93924573196245,
,,,,,,,,,,,,27,0,27,0,,,,,,,,,,,,,,,,,,,,,,,,,,,,,,,,,,,,,,,,,,,,,,,,,2956.205821699463,None,,,,,,,,,,,,,,,,,,,,,,,,,,,,,,,,,,,,,,,,,,,,,,,,,,,,,,,,,hide,164,28,aloud,new,red,2953.880198199302,None,n,2953.880198199302,None,"['n', 'return']","[1.4517363999038935, 2.2917411997914314]",2953.880198199302,None,,,50,001,2023_Apr_24_0953,ExactRep-v3-final,2021.2.3,59.93924573196245,
,,,,,,,,,,,,28,0,28,0,,,,,,,,,,,,,,,,,,,,,,,,,,,,,,,,,,,,,,,,,,,,,,,,,2958.92513410002,None,,,,,,,,,,,,,,,,,,,,,,,,,,,,,,,,,,,,,,,,,,,,,,,,,,,,,,,,,iron,122,29,silent,new,white,2956.7142683994025,None,n,2956.7142683994025,None,"['n', 'return']","[1.289729000069201, 2.177848800085485]",2956.7142683994025,None,,,50,001,2023_Apr_24_0953,ExactRep-v3-final,2021.2.3,59.93924573196245,
,,,,,,,,,,,,29,0,29,0,,,,,,,,,,,,,,,,,,,,,,,,,,,,,,,,,,,,,,,,,,,,,,,,,2961.561109099537,None,,,,,,,,,,,,,,,,,,,,,,,,,,,,,,,,,,,,,,,,,,,,,,,,,,,,,,,,,troops,53,30,silent,old,white,2959.441428899765,None,y,2959.441428899765,None,"['y', 'return']","[1.3945877999067307, 2.074601700529456]",2959.441428899765,None,,,50,001,2023_Apr_24_0953,ExactRep-v3-final,2021.2.3,59.93924573196245,
,,,,,,,,,,,,30,0,30,0,,,,,,,,,,,,,,,,,,,,,,,,,,,,,,,,,,,,,,,,,,,,,,,,,2965.248051699251,None,,,,,,,,,,,,,,,,,,,,,,,,,,,,,,,,,,,,,,,,,,,,,,,,,,,,,,,,,custom,22,31,sing,old,blue,2962.070939499885,None,y,2962.070939499885,None,"['y', 'return']","[2.3650380996987224, 3.141045299358666]",2962.070939499885,None,,,50,001,2023_Apr_24_0953,ExactRep-v3-final,2021.2.3,59.93924573196245,
,,,,,,,,,,,,31,0,31,0,,,,,,,,,,,,,,,,,,,,,,,,,,,,,,,,,,,,,,,,,,,,,,,,,2968.601359900087,None,,,,,,,,,,,,,,,,,,,,,,,,,,,,,,,,,,,,,,,,,,,,,,,,,,,,,,,,,dress,204,32,aloud,new,red,2965.7560990992934,None,n,2965.7560990992934,None,"['n', 'return']","[1.9438692005351186, 2.8078830000013113]",2965.7560990992934,None,,,50,001,2023_Apr_24_0953,ExactRep-v3-final,2021.2.3,59.93924573196245,
,,,,,,,,,,,,32,0,32,0,,,,,,,,,,,,,,,,,,,,,,,,,,,,,,,,,,,,,,,,,,,,,,,,,2974.9913420993835,None,,,,,,,,,,,,,,,,,,,,,,,,,,,,,,,,,,,,,,,,,,,,,,,,,,,,,,,,,master,39,33,silent,old,white,2969.1097548995167,None,n,2969.1097548995167,None,"['n', 'return']","[5.0542460000142455, 5.838180200196803]",2969.1097548995167,None,,,50,001,2023_Apr_24_0953,ExactRep-v3-final,2021.2.3,59.93924573196245,
,,,,,,,,,,,,33,0,33,0,,,,,,,,,,,,,,,,,,,,,,,,,,,,,,,,,,,,,,,,,,,,,,,,,2977.7773195998743,None,,,,,,,,,,,,,,,,,,,,,,,,,,,,,,,,,,,,,,,,,,,,,,,,,,,,,,,,,wine,33,34,sing,old,blue,2975.5014758994803,None,y,2975.5014758994803,None,"['y', 'return']","[1.310441599227488, 2.238573699258268]",2975.5014758994803,None,,,50,001,2023_Apr_24_0953,ExactRep-v3-final,2021.2.3,59.93924573196245,
,,,,,,,,,,,,34,0,34,0,,,,,,,,,,,,,,,,,,,,,,,,,,,,,,,,,,,,,,,,,,,,,,,,,2981.68114449922,None,,,,,,,,,,,,,,,,,,,,,,,,,,,,,,,,,,,,,,,,,,,,,,,,,,,,,,,,,leader,208,35,aloud,new,red,2978.2873001992702,None,n,2978.2873001992702,None,"['n', 'return']","[2.6929198997095227, 3.3487670002505183]",2978.2873001992702,None,,,50,001,2023_Apr_24_0953,ExactRep-v3-final,2021.2.3,59.93924573196245,
,,,,,,,,,,,,35,0,35,0,,,,,,,,,,,,,,,,,,,,,,,,,,,,,,,,,,,,,,,,,,,,,,,,,2984.9344704998657,None,,,,,,,,,,,,,,,,,,,,,,,,,,,,,,,,,,,,,,,,,,,,,,,,,,,,,,,,,shadow,151,36,silent,new,white,2982.190035599284,None,y,2982.190035599284,None,"['y', 'return']","[1.8622583001852036, 2.709916500374675]",2982.190035599284,None,,,50,001,2023_Apr_24_0953,ExactRep-v3-final,2021.2.3,59.93924573196245,
,,,,,,,,,,,,36,0,36,0,,,,,,,,,,,,,,,,,,,,,,,,,,,,,,,,,,,,,,,,,,,,,,,,,2987.587202999741,None,,,,,,,,,,,,,,,,,,,,,,,,,,,,,,,,,,,,,,,,,,,,,,,,,,,,,,,,,horse,3,37,sing,old,blue,2985.4460207000375,None,y,2985.4460207000375,None,"['y', 'return']","[1.165977499447763, 2.1019856994971633]",2985.4460207000375,None,,,50,001,2023_Apr_24_0953,ExactRep-v3-final,2021.2.3,59.93924573196245,
,,,,,,,,,,,,37,0,37,0,,,,,,,,,,,,,,,,,,,,,,,,,,,,,,,,,,,,,,,,,,,,,,,,,2990.9904497992247,None,,,,,,,,,,,,,,,,,,,,,,,,,,,,,,,,,,,,,,,,,,,,,,,,,,,,,,,,,library,234,38,aloud,new,red,2988.0980390999466,None,n,2988.0980390999466,None,"['n', 'return']","[1.874244399368763, 2.8580011995509267]",2988.0980390999466,None,,,50,001,2023_Apr_24_0953,ExactRep-v3-final,2021.2.3,59.93924573196245,
,,,,,,,,,,,,38,0,38,0,,,,,,,,,,,,,,,,,,,,,,,,,,,,,,,,,,,,,,,,,,,,,,,,,2994.9944647997618,None,,,,,,,,,,,,,,,,,,,,,,,,,,,,,,,,,,,,,,,,,,,,,,,,,,,,,,,,,product,130,39,silent,new,white,2991.5001972001046,None,n,2991.5001972001046,None,"['n', 'return']","[2.6240415005013347, 3.455883000046015]",2991.5001972001046,None,,,50,001,2023_Apr_24_0953,ExactRep-v3-final,2021.2.3,59.93924573196245,
,,,,,,,,,,,,39,0,39,0,,,,,,,,,,,,,,,,,,,,,,,,,,,,,,,,,,,,,,,,,,,,,,,,,2999.3322930000722,None,,,,,,,,,,,,,,,,,,,,,,,,,,,,,,,,,,,,,,,,,,,,,,,,,,,,,,,,,fault,97,40,aloud,old,red,2995.5011976994574,None,n,2995.5011976994574,None,"['n', 'return']","[2.734870499931276, 3.7988011995330453]",2995.5011976994574,None,,,50,001,2023_Apr_24_0953,ExactRep-v3-final,2021.2.3,59.93924573196245,
,,,,,,,,,,,,40,0,40,0,,,,,,,,,,,,,,,,,,,,,,,,,,,,,,,,,,,,,,,,,,,,,,,,,3002.3017747998238,None,,,,,,,,,,,,,,,,,,,,,,,,,,,,,,,,,,,,,,,,,,,,,,,,,,,,,,,,,mother,59,41,silent,old,white,2999.83709200006,None,y,2999.83709200006,None,"['y', 'return']","[1.5909960996359587, 2.430932999588549]",2999.83709200006,None,,,50,001,2023_Apr_24_0953,ExactRep-v3-final,2021.2.3,59.93924573196245,
,,,,,,,,,,,,41,0,41,0,,,,,,,,,,,,,,,,,,,,,,,,,,,,,,,,,,,,,,,,,,,,,,,,,3005.671876299195,None,,,,,,,,,,,,,,,,,,,,,,,,,,,,,,,,,,,,,,,,,,,,,,,,,,,,,,,,,power,127,42,silent,new,white,3002.8132023997605,None,n,3002.8132023997605,None,"['n', 'return']","[1.750755500048399, 2.81472219992429]",3002.8132023997605,None,,,50,001,2023_Apr_24_0953,ExactRep-v3-final,2021.2.3,59.93924573196245,
,,,,,,,,,,,,42,0,42,0,,,,,,,,,,,,,,,,,,,,,,,,,,,,,,,,,,,,,,,,,,,,,,,,,3009.4088269993663,None,,,,,,,,,,,,,,,,,,,,,,,,,,,,,,,,,,,,,,,,,,,,,,,,,,,,,,,,,corner,43,43,silent,old,white,3006.178448099643,None,n,3006.178448099643,None,"['n', 'return']","[2.217643200419843, 3.193602600134909]",3006.178448099643,None,,,50,001,2023_Apr_24_0953,ExactRep-v3-final,2021.2.3,59.93924573196245,
,,,,,,,,,,,,43,0,43,0,,,,,,,,,,,,,,,,,,,,,,,,,,,,,,,,,,,,,,,,,,,,,,,,,3012.495366299525,None,,,,,,,,,,,,,,,,,,,,,,,,,,,,,,,,,,,,,,,,,,,,,,,,,,,,,,,,,maiden,173,44,sing,new,blue,3009.9118141997606,None,n,3009.9118141997606,None,"['n', 'return']","[1.5162439001724124, 2.5483780996873975]",3009.9118141997606,None,,,50,001,2023_Apr_24_0953,ExactRep-v3-final,2021.2.3,59.93924573196245,
,,,,,,,,,,,,44,0,44,0,,,,,,,,,,,,,,,,,,,,,,,,,,,,,,,,,,,,,,,,,,,,,,,,,3015.398166500032,None,,,,,,,,,,,,,,,,,,,,,,,,,,,,,,,,,,,,,,,,,,,,,,,,,,,,,,,,,spirit,102,45,aloud,old,red,3013.0051768999547,None,y,3013.0051768999547,None,"['y', 'return']","[1.4548547007143497, 2.358803399838507]",3013.0051768999547,None,,,50,001,2023_Apr_24_0953,ExactRep-v3-final,2021.2.3,59.93924573196245,
,,,,,,,,,,,,45,0,45,0,,,,,,,,,,,,,,,,,,,,,,,,,,,,,,,,,,,,,,,,,,,,,,,,,3018.6848217993975,None,,,,,,,,,,,,,,,,,,,,,,,,,,,,,,,,,,,,,,,,,,,,,,,,,,,,,,,,,wheat,124,46,silent,new,white,3015.9101215992123,None,n,3015.9101215992123,None,"['n', 'return']","[1.6218825997784734, 2.7419432001188397]",3015.9101215992123,None,,,50,001,2023_Apr_24_0953,ExactRep-v3-final,2021.2.3,59.93924573196245,
,,,,,,,,,,,,46,0,46,0,,,,,,,,,,,,,,,,,,,,,,,,,,,,,,,,,,,,,,,,,,,,,,,,,3021.838161899708,None,,,,,,,,,,,,,,,,,,,,,,,,,,,,,,,,,,,,,,,,,,,,,,,,,,,,,,,,,series,153,47,silent,new,white,3019.192528399639,None,n,3019.192528399639,None,"['n', 'return']","[1.5316128004342318, 2.6114705000072718]",3019.192528399639,None,,,50,001,2023_Apr_24_0953,ExactRep-v3-final,2021.2.3,59.93924573196245,
,,,,,,,,,,,,47,0,47,0,,,,,,,,,,,,,,,,,,,,,,,,,,,,,,,,,,,,,,,,,,,,,,,,,3025.041171600111,None,,,,,,,,,,,,,,,,,,,,,,,,,,,,,,,,,,,,,,,,,,,,,,,,,,,,,,,,,flesh,89,48,aloud,old,red,3022.346391699277,None,y,3022.346391699277,None,"['y', 'return']","[1.6256424002349377, 2.6577918007969856]",3022.346391699277,None,,,50,001,2023_Apr_24_0953,ExactRep-v3-final,2021.2.3,59.93924573196245,
,,,,,,,,,,,,48,0,48,0,,,,,,,,,,,,,,,,,,,,,,,,,,,,,,,,,,,,,,,,,,,,,,,,,3032.6487668994814,None,,,,,,,,,,,,,,,,,,,,,,,,,,,,,,,,,,,,,,,,,,,,,,,,,,,,,,,,,nail,107,49,aloud,old,red,3025.55279830005,None,n,3025.55279830005,None,"['n', 'return']","[6.187388999387622, 7.059413000009954]",3025.55279830005,None,,,50,001,2023_Apr_24_0953,ExactRep-v3-final,2021.2.3,59.93924573196245,
,,,,,,,,,,,,49,0,49,0,,,,,,,,,,,,,,,,,,,,,,,,,,,,,,,,,,,,,,,,,,,,,,,,,3035.334764899686,None,,,,,,,,,,,,,,,,,,,,,,,,,,,,,,,,,,,,,,,,,,,,,,,,,,,,,,,,,lord,66,50,silent,old,white,3033.1576392995194,None,y,3033.1576392995194,None,"['y', 'return']","[1.3344517992809415, 2.142398899421096]",3033.1576392995194,None,,,50,001,2023_Apr_24_0953,ExactRep-v3-final,2021.2.3,59.93924573196245,
,,,,,,,,,,,,50,0,50,0,,,,,,,,,,,,,,,,,,,,,,,,,,,,,,,,,,,,,,,,,,,,,,,,,3039.705837799236,None,,,,,,,,,,,,,,,,,,,,,,,,,,,,,,,,,,,,,,,,,,,,,,,,,,,,,,,,,fact,13,51,sing,old,blue,3035.848035299219,None,y,3035.848035299219,None,"['y', 'return']","[2.988312599249184, 3.8121636994183064]",3035.848035299219,None,,,50,001,2023_Apr_24_0953,ExactRep-v3-final,2021.2.3,59.93924573196245,
,,,,,,,,,,,,51,0,51,0,,,,,,,,,,,,,,,,,,,,,,,,,,,,,,,,,,,,,,,,,,,,,,,,,3044.3939191000536,None,,,,,,,,,,,,,,,,,,,,,,,,,,,,,,,,,,,,,,,,,,,,,,,,,,,,,,,,,paper,148,52,silent,new,white,3040.2164579993114,None,n,3040.2164579993114,None,"['n', 'return']","[3.3559187995269895, 4.139647899195552]",3040.2164579993114,None,,,50,001,2023_Apr_24_0953,ExactRep-v3-final,2021.2.3,59.93924573196245,
,,,,,,,,,,,,52,0,52,0,,,,,,,,,,,,,,,,,,,,,,,,,,,,,,,,,,,,,,,,,,,,,,,,,3047.2301847999915,None,,,,,,,,,,,,,,,,,,,,,,,,,,,,,,,,,,,,,,,,,,,,,,,,,,,,,,,,,season,114,53,aloud,old,red,3044.9050596999004,None,y,3044.9050596999004,None,"['y', 'return']","[1.514976100064814, 2.2910152999684215]",3044.9050596999004,None,,,50,001,2023_Apr_24_0953,ExactRep-v3-final,2021.2.3,59.93924573196245,
,,,,,,,,,,,,53,0,53,0,,,,,,,,,,,,,,,,,,,,,,,,,,,,,,,,,,,,,,,,,,,,,,,,,3049.982930599712,None,,,,,,,,,,,,,,,,,,,,,,,,,,,,,,,,,,,,,,,,,,,,,,,,,,,,,,,,,vision,4,54,sing,old,blue,3047.7406619992107,None,y,3047.7406619992107,None,"['y', 'return']","[1.4154211999848485, 2.199478200636804]",3047.7406619992107,None,,,50,001,2023_Apr_24_0953,ExactRep-v3-final,2021.2.3,59.93924573196245,
,,,,,,,,,,,,54,0,54,0,,,,,,,,,,,,,,,,,,,,,,,,,,,,,,,,,,,,,,,,,,,,,,,,,3057.490486899391,None,,,,,,,,,,,,,,,,,,,,,,,,,,,,,,,,,,,,,,,,,,,,,,,,,,,,,,,,,butter,175,55,sing,new,blue,3050.489493600093,None,n,3050.489493600093,None,"['n', 'return']","[6.298594800755382, 6.95458810031414]",3050.489493600093,None,,,50,001,2023_Apr_24_0953,ExactRep-v3-final,2021.2.3,59.93924573196245,
,,,,,,,,,,,,55,0,55,0,,,,,,,,,,,,,,,,,,,,,,,,,,,,,,,,,,,,,,,,,,,,,,,,,3060.6601911997423,None,,,,,,,,,,,,,,,,,,,,,,,,,,,,,,,,,,,,,,,,,,,,,,,,,,,,,,,,,valley,157,56,silent,new,white,3058.001048400067,None,y,3058.001048400067,None,"['y', 'return']","[1.779229000210762, 2.6270260997116566]",3058.001048400067,None,,,50,001,2023_Apr_24_0953,ExactRep-v3-final,2021.2.3,59.93924573196245,
,,,,,,,,,,,,56,0,56,0,,,,,,,,,,,,,,,,,,,,,,,,,,,,,,,,,,,,,,,,,,,,,,,,,3063.9134358996525,None,,,,,,,,,,,,,,,,,,,,,,,,,,,,,,,,,,,,,,,,,,,,,,,,,,,,,,,,,doctor,140,57,silent,new,white,3061.1682047992945,None,n,3061.1682047992945,None,"['n', 'return']","[1.8997308993712068, 2.708034699782729]",3061.1682047992945,None,,,50,001,2023_Apr_24_0953,ExactRep-v3-final,2021.2.3,59.93924573196245,
,,,,,,,,,,,,57,0,57,0,,,,,,,,,,,,,,,,,,,,,,,,,,,,,,,,,,,,,,,,,,,,,,,,,3066.666329300031,None,,,,,,,,,,,,,,,,,,,,,,,,,,,,,,,,,,,,,,,,,,,,,,,,,,,,,,,,,brain,183,58,sing,new,blue,3064.414076999761,None,y,3064.414076999761,None,"['y', 'return']","[1.4142011003568769, 2.2061688005924225]",3064.414076999761,None,,,50,001,2023_Apr_24_0953,ExactRep-v3-final,2021.2.3,59.93924573196245,
,,,,,,,,,,,,58,0,58,0,,,,,,,,,,,,,,,,,,,,,,,,,,,,,,,,,,,,,,,,,,,,,,,,,3070.240894800052,None,,,,,,,,,,,,,,,,,,,,,,,,,,,,,,,,,,,,,,,,,,,,,,,,,,,,,,,,,book,112,59,aloud,old,red,3067.1668460993096,None,n,3067.1668460993096,None,"['n', 'return']","[2.141107000410557, 3.037128100171685]",3067.1668460993096,None,,,50,001,2023_Apr_24_0953,ExactRep-v3-final,2021.2.3,59.93924573196245,
,,,,,,,,,,,,59,0,59,0,,,,,,,,,,,,,,,,,,,,,,,,,,,,,,,,,,,,,,,,,,,,,,,,,3097.8835961995646,None,,,,,,,,,,,,,,,,,,,,,,,,,,,,,,,,,,,,,,,,,,,,,,,,,,,,,,,,,air,237,60,sing,new,blue,3070.8587689995766,None,y,3070.8587689995766,None,"['y', 'return']","[25.841389399953187, 26.97748550027609]",3070.8587689995766,None,,,50,001,2023_Apr_24_0953,ExactRep-v3-final,2021.2.3,59.93924573196245,
,,,,,,,,,,,,60,0,60,0,,,,,,,,,,,,,,,,,,,,,,,,,,,,,,,,,,,,,,,,,,,,,,,,,3101.002849799581,None,,,,,,,,,,,,,,,,,,,,,,,,,,,,,,,,,,,,,,,,,,,,,,,,,,,,,,,,,bowl,92,61,aloud,old,red,3098.3969056000933,None,y,3098.3969056000933,None,"['y', 'return']","[1.7832940993830562, 2.55944149941206]",3098.3969056000933,None,,,50,001,2023_Apr_24_0953,ExactRep-v3-final,2021.2.3,59.93924573196245,
,,,,,,,,,,,,61,0,61,0,,,,,,,,,,,,,,,,,,,,,,,,,,,,,,,,,,,,,,,,,,,,,,,,,3116.7516775997356,None,,,,,,,,,,,,,,,,,,,,,,,,,,,,,,,,,,,,,,,,,,,,,,,,,,,,,,,,,officer,120,62,silent,new,white,3101.5045237997547,None,y,3101.5045237997547,None,"['y', 'return']","[14.283458899706602, 15.203539500012994]",3101.5045237997547,None,,,50,001,2023_Apr_24_0953,ExactRep-v3-final,2021.2.3,59.93924573196245,
,,,,,,,,,,,,62,0,62,0,,,,,,,,,,,,,,,,,,,,,,,,,,,,,,,,,,,,,,,,,,,,,,,,,3119.5609393995255,None,,,,,,,,,,,,,,,,,,,,,,,,,,,,,,,,,,,,,,,,,,,,,,,,,,,,,,,,,college,95,63,aloud,old,red,3117.2521530995145,None,y,3117.2521530995145,None,"['y', 'return']","[1.4478891007602215, 2.2640008004382253]",3117.2521530995145,None,,,50,001,2023_Apr_24_0953,ExactRep-v3-final,2021.2.3,59.93924573196245,
,,,,,,,,,,,,63,0,63,0,,,,,,,,,,,,,,,,,,,,,,,,,,,,,,,,,,,,,,,,,,,,,,,,,3122.4743305994198,None,,,,,,,,,,,,,,,,,,,,,,,,,,,,,,,,,,,,,,,,,,,,,,,,,,,,,,,,,teacher,19,64,sing,old,blue,3120.0715528000146,None,y,3120.0715528000146,None,"['y', 'return']","[1.3725040992721915, 2.3564940998330712]",3120.0715528000146,None,,,50,001,2023_Apr_24_0953,ExactRep-v3-final,2021.2.3,59.93924573196245,
,,,,,,,,,,,,64,0,64,0,,,,,,,,,,,,,,,,,,,,,,,,,,,,,,,,,,,,,,,,,,,,,,,,,3126.2109556999058,None,,,,,,,,,,,,,,,,,,,,,,,,,,,,,,,,,,,,,,,,,,,,,,,,,,,,,,,,,rod,117,65,aloud,old,red,3122.97632970009,None,y,3122.97632970009,None,"['y', 'return']","[2.484001399949193, 3.1877015000209212]",3122.97632970009,None,,,50,001,2023_Apr_24_0953,ExactRep-v3-final,2021.2.3,59.93924573196245,
,,,,,,,,,,,,65,0,65,0,,,,,,,,,,,,,,,,,,,,,,,,,,,,,,,,,,,,,,,,,,,,,,,,,3128.8508519995958,None,,,,,,,,,,,,,,,,,,,,,,,,,,,,,,,,,,,,,,,,,,,,,,,,,,,,,,,,,cabin,118,66,aloud,old,red,3126.730572999455,None,y,3126.730572999455,None,"['y', 'return']","[1.2658144002780318, 2.0734801003709435]",3126.730572999455,None,,,50,001,2023_Apr_24_0953,ExactRep-v3-final,2021.2.3,59.93924573196245,
,,,,,,,,,,,,66,0,66,0,,,,,,,,,,,,,,,,,,,,,,,,,,,,,,,,,,,,,,,,,,,,,,,,,3133.1860849000514,None,,,,,,,,,,,,,,,,,,,,,,,,,,,,,,,,,,,,,,,,,,,,,,,,,,,,,,,,,factory,159,67,silent,new,white,3129.36586339958,None,n,3129.36586339958,None,"['n', 'return']","[3.070403299294412, 3.7742929998785257]",3129.36586339958,None,,,50,001,2023_Apr_24_0953,ExactRep-v3-final,2021.2.3,59.93924573196245,
,,,,,,,,,,,,67,0,67,0,,,,,,,,,,,,,,,,,,,,,,,,,,,,,,,,,,,,,,,,,,,,,,,,,3135.9894584994763,None,,,,,,,,,,,,,,,,,,,,,,,,,,,,,,,,,,,,,,,,,,,,,,,,,,,,,,,,,opinion,26,68,sing,old,blue,3133.6981807993725,None,y,3133.6981807993725,None,"['y', 'return']","[1.4979520002380013, 2.241976900026202]",3133.6981807993725,None,,,50,001,2023_Apr_24_0953,ExactRep-v3-final,2021.2.3,59.93924573196245,
,,,,,,,,,,,,68,0,68,0,,,,,,,,,,,,,,,,,,,,,,,,,,,,,,,,,,,,,,,,,,,,,,,,,3141.043315500021,None,,,,,,,,,,,,,,,,,,,,,,,,,,,,,,,,,,,,,,,,,,,,,,,,,,,,,,,,,judge,185,69,sing,new,blue,3136.5203547999263,None,n,3136.5203547999263,None,"['n', 'return']","[3.8437435999512672, 4.475973200052977]",3136.5203547999263,None,,,50,001,2023_Apr_24_0953,ExactRep-v3-final,2021.2.3,59.93924573196245,
,,,,,,,,,,,,69,0,69,0,,,,,,,,,,,,,,,,,,,,,,,,,,,,,,,,,,,,,,,,,,,,,,,,,3144.0312805995345,None,,,,,,,,,,,,,,,,,,,,,,,,,,,,,,,,,,,,,,,,,,,,,,,,,,,,,,,,,mercy,149,70,silent,new,white,3141.545031799935,None,n,3141.545031799935,None,"['n', 'return']","[1.635351499542594, 2.4510750994086266]",3141.545031799935,None,,,50,001,2023_Apr_24_0953,ExactRep-v3-final,2021.2.3,59.93924573196245,
,,,,,,,,,,,,70,0,70,0,,,,,,,,,,,,,,,,,,,,,,,,,,,,,,,,,,,,,,,,,,,,,,,,,3147.0993839995936,None,,,,,,,,,,,,,,,,,,,,,,,,,,,,,,,,,,,,,,,,,,,,,,,,,,,,,,,,,deed,216,71,aloud,new,red,3144.5471163997427,None,n,3144.5471163997427,None,"['n', 'return']","[1.617255199700594, 2.5050708996132016]",3144.5471163997427,None,,,50,001,2023_Apr_24_0953,ExactRep-v3-final,2021.2.3,59.93924573196245,
,,,,,,,,,,,,71,0,71,0,,,,,,,,,,,,,,,,,,,,,,,,,,,,,,,,,,,,,,,,,,,,,,,,,3150.002322599292,None,,,,,,,,,,,,,,,,,,,,,,,,,,,,,,,,,,,,,,,,,,,,,,,,,,,,,,,,,charm,206,72,aloud,new,red,3147.601071199402,None,n,3147.601071199402,None,"['n', 'return']","[1.4350434001535177, 2.3550274008885026]",3147.601071199402,None,,,50,001,2023_Apr_24_0953,ExactRep-v3-final,2021.2.3,59.93924573196245,
,,,,,,,,,,,,72,0,72,0,,,,,,,,,,,,,,,,,,,,,,,,,,,,,,,,,,,,,,,,,,,,,,,,,3152.8237453997135,None,,,,,,,,,,,,,,,,,,,,,,,,,,,,,,,,,,,,,,,,,,,,,,,,,,,,,,,,,coin,101,73,aloud,old,red,3150.5037717996165,None,y,3150.5037717996165,None,"['y', 'return']","[1.436350199393928, 2.284357899799943]",3150.5037717996165,None,,,50,001,2023_Apr_24_0953,ExactRep-v3-final,2021.2.3,59.93924573196245,
,,,,,,,,,,,,73,0,73,0,,,,,,,,,,,,,,,,,,,,,,,,,,,,,,,,,,,,,,,,,,,,,,,,,3156.4098751991987,None,,,,,,,,,,,,,,,,,,,,,,,,,,,,,,,,,,,,,,,,,,,,,,,,,,,,,,,,,amount,68,74,silent,old,white,3153.340237199329,None,n,3153.340237199329,None,"['n', 'return']","[1.9519550995901227, 3.023906599730253]",3153.340237199329,None,,,50,001,2023_Apr_24_0953,ExactRep-v3-final,2021.2.3,59.93924573196245,
,,,,,,,,,,,,74,0,74,0,,,,,,,,,,,,,,,,,,,,,,,,,,,,,,,,,,,,,,,,,,,,,,,,,3160.3956279000267,None,,,,,,,,,,,,,,,,,,,,,,,,,,,,,,,,,,,,,,,,,,,,,,,,,,,,,,,,,earth,195,75,sing,new,blue,3156.930411499925,None,n,3156.930411499925,None,"['n', 'return']","[2.545952499844134, 3.4258522000163794]",3156.930411499925,None,,,50,001,2023_Apr_24_0953,ExactRep-v3-final,2021.2.3,59.93924573196245,
,,,,,,,,,,,,75,0,75,0,,,,,,,,,,,,,,,,,,,,,,,,,,,,,,,,,,,,,,,,,,,,,,,,,3163.431853399612,None,,,,,,,,,,,,,,,,,,,,,,,,,,,,,,,,,,,,,,,,,,,,,,,,,,,,,,,,,party,8,76,sing,old,blue,3160.8988465992734,None,y,3160.8988465992734,None,"['y', 'return']","[1.5372764999046922, 2.497572800144553]",3160.8988465992734,None,,,50,001,2023_Apr_24_0953,ExactRep-v3-final,2021.2.3,59.93924573196245,
,,,,,,,,,,,,76,0,76,0,,,,,,,,,,,,,,,,,,,,,,,,,,,,,,,,,,,,,,,,,,,,,,,,,3167.153802899644,None,,,,,,,,,,,,,,,,,,,,,,,,,,,,,,,,,,,,,,,,,,,,,,,,,,,,,,,,,machine,45,77,silent,old,white,3163.947896199301,None,n,3163.947896199301,None,"['n', 'return']","[2.008167600259185, 3.1686830995604396]",3163.947896199301,None,,,50,001,2023_Apr_24_0953,ExactRep-v3-final,2021.2.3,59.93924573196245,
,,,,,,,,,,,,77,0,77,0,,,,,,,,,,,,,,,,,,,,,,,,,,,,,,,,,,,,,,,,,,,,,,,,,3172.6090826997533,None,,,,,,,,,,,,,,,,,,,,,,,,,,,,,,,,,,,,,,,,,,,,,,,,,,,,,,,,,storm,196,78,aloud,new,red,3167.67164769955,None,n,3167.67164769955,None,"['n', 'return']","[4.3325572004541755, 4.900828800164163]",3167.67164769955,None,,,50,001,2023_Apr_24_0953,ExactRep-v3-final,2021.2.3,59.93924573196245,
,,,,,,,,,,,,78,0,78,0,,,,,,,,,,,,,,,,,,,,,,,,,,,,,,,,,,,,,,,,,,,,,,,,,3175.29450129997,None,,,,,,,,,,,,,,,,,,,,,,,,,,,,,,,,,,,,,,,,,,,,,,,,,,,,,,,,,church,31,79,sing,old,blue,3173.1263604993,None,y,3173.1263604993,None,"['y', 'return']","[1.2938296999782324, 2.1258827997371554]",3173.1263604993,None,,,50,001,2023_Apr_24_0953,ExactRep-v3-final,2021.2.3,59.93924573196245,
,,,,,,,,,,,,79,0,79,0,,,,,,,,,,,,,,,,,,,,,,,,,,,,,,,,,,,,,,,,,,,,,,,,,3177.7311597000808,None,,,,,,,,,,,,,,,,,,,,,,,,,,,,,,,,,,,,,,,,,,,,,,,,,,,,,,,,,flood,79,80,sing,old,blue,3175.7960791001096,None,y,3175.7960791001096,None,"['y', 'return']","[0.9922233000397682, 1.8962560007348657]",3175.7960791001096,None,,,50,001,2023_Apr_24_0953,ExactRep-v3-final,2021.2.3,59.93924573196245,
,,,,,,,,,,,,80,0,80,0,,,,,,,,,,,,,,,,,,,,,,,,,,,,,,,,,,,,,,,,,,,,,,,,,3180.6173538994044,None,,,,,,,,,,,,,,,,,,,,,,,,,,,,,,,,,,,,,,,,,,,,,,,,,,,,,,,,,plain,90,81,aloud,old,red,3178.2486509000883,None,y,3178.2486509000883,None,"['y', 'return']","[1.4756963001564145, 2.3318159002810717]",3178.2486509000883,None,,,50,001,2023_Apr_24_0953,ExactRep-v3-final,2021.2.3,59.93924573196245,
,,,,,,,,,,,,81,0,81,0,,,,,,,,,,,,,,,,,,,,,,,,,,,,,,,,,,,,,,,,,,,,,,,,,3183.8533582994714,None,,,,,,,,,,,,,,,,,,,,,,,,,,,,,,,,,,,,,,,,,,,,,,,,,,,,,,,,,circle,188,82,aloud,new,red,3181.134495499544,None,n,3181.134495499544,None,"['n', 'return']","[1.8856726996600628, 2.6776474993675947]",3181.134495499544,None,,,50,001,2023_Apr_24_0953,ExactRep-v3-final,2021.2.3,59.93924573196245,
,,,,,,,,,,,,82,0,82,0,,,,,,,,,,,,,,,,,,,,,,,,,,,,,,,,,,,,,,,,,,,,,,,,,3186.7745310999453,None,,,,,,,,,,,,,,,,,,,,,,,,,,,,,,,,,,,,,,,,,,,,,,,,,,,,,,,,,green,131,83,silent,new,white,3184.354476300068,None,n,3184.354476300068,None,"['n', 'return']","[1.5460783001035452, 2.3697717003524303]",3184.354476300068,None,,,50,001,2023_Apr_24_0953,ExactRep-v3-final,2021.2.3,59.93924573196245,
,,,,,,,,,,,,83,0,83,0,,,,,,,,,,,,,,,,,,,,,,,,,,,,,,,,,,,,,,,,,,,,,,,,,3192.3287124997005,None,,,,,,,,,,,,,,,,,,,,,,,,,,,,,,,,,,,,,,,,,,,,,,,,,,,,,,,,,coast,171,84,sing,new,blue,3187.2902148999274,None,n,3187.2902148999274,None,"['n', 'return']","[4.514080599881709, 5.002483899705112]",3187.2902148999274,None,,,50,001,2023_Apr_24_0953,ExactRep-v3-final,2021.2.3,59.93924573196245,
,,,,,,,,,,,,84,0,84,0,,,,,,,,,,,,,,,,,,,,,,,,,,,,,,,,,,,,,,,,,,,,,,,,,3195.881507500075,None,,,,,,,,,,,,,,,,,,,,,,,,,,,,,,,,,,,,,,,,,,,,,,,,,,,,,,,,,plant,74,85,silent,old,white,3192.8445068998262,None,n,3192.8445068998262,None,"['n', 'return']","[2.3678450994193554, 2.9916717996820807]",3192.8445068998262,None,,,50,001,2023_Apr_24_0953,ExactRep-v3-final,2021.2.3,59.93924573196245,
,,,,,,,,,,,,85,0,85,0,,,,,,,,,,,,,,,,,,,,,,,,,,,,,,,,,,,,,,,,,,,,,,,,,3199.151975799352,None,,,,,,,,,,,,,,,,,,,,,,,,,,,,,,,,,,,,,,,,,,,,,,,,,,,,,,,,,tree,229,86,sing,new,blue,3196.3967349994928,None,n,3196.3967349994928,None,"['n', 'return']","[1.775433300063014, 2.719748199917376]",3196.3967349994928,None,,,50,001,2023_Apr_24_0953,ExactRep-v3-final,2021.2.3,59.93924573196245,
,,,,,,,,,,,,86,0,86,0,,,,,,,,,,,,,,,,,,,,,,,,,,,,,,,,,,,,,,,,,,,,,,,,,3202.005127599463,None,,,,,,,,,,,,,,,,,,,,,,,,,,,,,,,,,,,,,,,,,,,,,,,,,,,,,,,,,flower,67,87,silent,old,white,3199.6532378997654,None,n,3199.6532378997654,None,"['n', 'return']","[1.558951299637556, 2.3110288996249437]",3199.6532378997654,None,,,50,001,2023_Apr_24_0953,ExactRep-v3-final,2021.2.3,59.93924573196245,
,,,,,,,,,,,,87,0,87,0,,,,,,,,,,,,,,,,,,,,,,,,,,,,,,,,,,,,,,,,,,,,,,,,,3205.32567270007,None,,,,,,,,,,,,,,,,,,,,,,,,,,,,,,,,,,,,,,,,,,,,,,,,,,,,,,,,,garden,94,88,aloud,old,red,3202.5221178000793,None,y,3202.5221178000793,None,"['y', 'return']","[1.7301647998392582, 2.754235500469804]",3202.5221178000793,None,,,50,001,2023_Apr_24_0953,ExactRep-v3-final,2021.2.3,59.93924573196245,
,,,,,,,,,,,,88,0,88,0,,,,,,,,,,,,,,,,,,,,,,,,,,,,,,,,,,,,,,,,,,,,,,,,,3207.694273199886,None,,,,,,,,,,,,,,,,,,,,,,,,,,,,,,,,,,,,,,,,,,,,,,,,,,,,,,,,,window,32,89,sing,old,blue,3205.842179599218,None,y,3205.842179599218,None,"['y', 'return']","[1.07411739975214, 1.8180743996053934]",3205.842179599218,None,,,50,001,2023_Apr_24_0953,ExactRep-v3-final,2021.2.3,59.93924573196245,
,,,,,,,,,,,,89,0,89,0,,,,,,,,,,,,,,,,,,,,,,,,,,,,,,,,,,,,,,,,,,,,,,,,,3210.7302421992645,None,,,,,,,,,,,,,,,,,,,,,,,,,,,,,,,,,,,,,,,,,,,,,,,,,,,,,,,,,theory,134,90,silent,new,white,3208.2110001994297,None,n,3208.2110001994297,None,"['n', 'return']","[1.5452278004959226, 2.4812261005863547]",3208.2110001994297,None,,,50,001,2023_Apr_24_0953,ExactRep-v3-final,2021.2.3,59.93924573196245,
,,,,,,,,,,,,90,0,90,0,,,,,,,,,,,,,,,,,,,,,,,,,,,,,,,,,,,,,,,,,,,,,,,,,3213.3496125992388,None,,,,,,,,,,,,,,,,,,,,,,,,,,,,,,,,,,,,,,,,,,,,,,,,,,,,,,,,,car,60,91,silent,old,white,3211.230955899693,None,y,3211.230955899693,None,"['y', 'return']","[1.3412965992465615, 2.0852616000920534]",3211.230955899693,None,,,50,001,2023_Apr_24_0953,ExactRep-v3-final,2021.2.3,59.93924573196245,
,,,,,,,,,,,,91,0,91,0,,,,,,,,,,,,,,,,,,,,,,,,,,,,,,,,,,,,,,,,,,,,,,,,,3222.6247935993597,None,,,,,,,,,,,,,,,,,,,,,,,,,,,,,,,,,,,,,,,,,,,,,,,,,,,,,,,,,table,71,92,silent,old,white,3213.8660320993513,None,y,3213.8660320993513,None,"['n', 'backspace', 'y', 'return']","[2.1941686999052763, 5.762287399731576, 7.546241500414908, 8.714133700355887]",3213.8660320993513,None,,,50,001,2023_Apr_24_0953,ExactRep-v3-final,2021.2.3,59.93924573196245,
,,,,,,,,,,,,92,0,92,0,,,,,,,,,,,,,,,,,,,,,,,,,,,,,,,,,,,,,,,,,,,,,,,,,3227.295832399279,None,,,,,,,,,,,,,,,,,,,,,,,,,,,,,,,,,,,,,,,,,,,,,,,,,,,,,,,,,dawn,181,93,sing,new,blue,3223.1261245999485,None,n,3223.1261245999485,None,"['n', 'return']","[3.550338400527835, 4.126138000749052]",3223.1261245999485,None,,,50,001,2023_Apr_24_0953,ExactRep-v3-final,2021.2.3,59.93924573196245,
,,,,,,,,,,,,93,0,93,0,,,,,,,,,,,,,,,,,,,,,,,,,,,,,,,,,,,,,,,,,,,,,,,,,3230.0000011995435,None,,,,,,,,,,,,,,,,,,,,,,,,,,,,,,,,,,,,,,,,,,,,,,,,,,,,,,,,,blood,142,94,silent,new,white,3227.7974039996043,None,n,3227.7974039996043,None,"['n', 'return']","[1.3588748006150126, 2.1671462999656796]",3227.7974039996043,None,,,50,001,2023_Apr_24_0953,ExactRep-v3-final,2021.2.3,59.93924573196245,
,,,,,,,,,,,,94,0,94,0,,,,,,,,,,,,,,,,,,,,,,,,,,,,,,,,,,,,,,,,,,,,,,,,,3236.571910499595,None,,,,,,,,,,,,,,,,,,,,,,,,,,,,,,,,,,,,,,,,,,,,,,,,,,,,,,,,,king,106,95,aloud,old,red,3230.5162688000128,None,y,3230.5162688000128,None,"['return', 'return', 'y', 'return']","[2.2320334995165467, 2.9279893999919295, 5.071984599344432, 6.008005899377167]",3230.5162688000128,None,,,50,001,2023_Apr_24_0953,ExactRep-v3-final,2021.2.3,59.93924573196245,
,,,,,,,,,,,,95,0,95,0,,,,,,,,,,,,,,,,,,,,,,,,,,,,,,,,,,,,,,,,,,,,,,,,,3239.4245825000107,None,,,,,,,,,,,,,,,,,,,,,,,,,,,,,,,,,,,,,,,,,,,,,,,,,,,,,,,,,pupil,115,96,aloud,old,red,3237.073664699681,None,y,3237.073664699681,None,"['y', 'return']","[1.4345956994220614, 2.3065344998613]",3237.073664699681,None,,,50,001,2023_Apr_24_0953,ExactRep-v3-final,2021.2.3,59.93924573196245,
,,,,,,,,,,,,96,0,96,0,,,,,,,,,,,,,,,,,,,,,,,,,,,,,,,,,,,,,,,,,,,,,,,,,3243.2631730996072,None,,,,,,,,,,,,,,,,,,,,,,,,,,,,,,,,,,,,,,,,,,,,,,,,,,,,,,,,,palace,72,97,silent,old,white,3239.9270901000127,None,y,3239.9270901000127,None,"['y', 'return']","[2.4772844994440675, 3.2931816997006536]",3239.9270901000127,None,,,50,001,2023_Apr_24_0953,ExactRep-v3-final,2021.2.3,59.93924573196245,
,,,,,,,,,,,,97,0,97,0,,,,,,,,,,,,,,,,,,,,,,,,,,,,,,,,,,,,,,,,,,,,,,,,,3247.8525044992566,None,,,,,,,,,,,,,,,,,,,,,,,,,,,,,,,,,,,,,,,,,,,,,,,,,,,,,,,,,pole,200,98,aloud,new,red,3243.779521599412,None,n,3243.779521599412,None,"['n', 'return']","[3.232791100628674, 4.024784199893475]",3243.779521599412,None,,,50,001,2023_Apr_24_0953,ExactRep-v3-final,2021.2.3,59.93924573196245,
,,,,,,,,,,,,98,0,98,0,,,,,,,,,,,,,,,,,,,,,,,,,,,,,,,,,,,,,,,,,,,,,,,,,3250.4216553000733,None,,,,,,,,,,,,,,,,,,,,,,,,,,,,,,,,,,,,,,,,,,,,,,,,,,,,,,,,,truth,156,99,silent,new,white,3248.367818299681,None,n,3248.367818299681,None,"['n', 'return']","[1.2125019002705812, 2.004509000107646]",3248.367818299681,None,,,50,001,2023_Apr_24_0953,ExactRep-v3-final,2021.2.3,59.93924573196245,
,,,,,,,,,,,,99,0,99,0,,,,,,,,,,,,,,,,,,,,,,,,,,,,,,,,,,,,,,,,,,,,,,,,,3254.0904799997807,None,,,,,,,,,,,,,,,,,,,,,,,,,,,,,,,,,,,,,,,,,,,,,,,,,,,,,,,,,heaven,226,100,aloud,new,red,3250.9365793000907,None,y,3250.9365793000907,None,"['y', 'return']","[2.1716982992365956, 3.1157030994072556]",3250.9365793000907,None,,,50,001,2023_Apr_24_0953,ExactRep-v3-final,2021.2.3,59.93924573196245,
,,,,,,,,,,,,100,0,100,0,,,,,,,,,,,,,,,,,,,,,,,,,,,,,,,,,,,,,,,,,,,,,,,,,3257.9447749992833,None,,,,,,,,,,,,,,,,,,,,,,,,,,,,,,,,,,,,,,,,,,,,,,,,,,,,,,,,,memory,56,101,silent,old,white,3254.594434400089,None,y,3254.594434400089,None,"['y', 'return']","[2.649882400408387, 3.313935900107026]",3254.594434400089,None,,,50,001,2023_Apr_24_0953,ExactRep-v3-final,2021.2.3,59.93924573196245,
,,,,,,,,,,,,101,0,101,0,,,,,,,,,,,,,,,,,,,,,,,,,,,,,,,,,,,,,,,,,,,,,,,,,3260.6637953994796,None,,,,,,,,,,,,,,,,,,,,,,,,,,,,,,,,,,,,,,,,,,,,,,,,,,,,,,,,,owner,81,102,aloud,old,red,3258.461749899201,None,y,3258.461749899201,None,"['y', 'return']","[1.3827009005472064, 2.166755700483918]",3258.461749899201,None,,,50,001,2023_Apr_24_0953,ExactRep-v3-final,2021.2.3,59.93924573196245,
,,,,,,,,,,,,102,0,102,0,,,,,,,,,,,,,,,,,,,,,,,,,,,,,,,,,,,,,,,,,,,,,,,,,3263.332805699669,None,,,,,,,,,,,,,,,,,,,,,,,,,,,,,,,,,,,,,,,,,,,,,,,,,,,,,,,,,chance,203,103,sing,new,blue,3261.1811883999035,None,n,3261.1811883999035,None,"['n', 'return']","[1.383411600254476, 2.1111127007752657]",3261.1811883999035,None,,,50,001,2023_Apr_24_0953,ExactRep-v3-final,2021.2.3,59.93924573196245,
,,,,,,,,,,,,103,0,103,0,,,,,,,,,,,,,,,,,,,,,,,,,,,,,,,,,,,,,,,,,,,,,,,,,3266.035782699473,None,,,,,,,,,,,,,,,,,,,,,,,,,,,,,,,,,,,,,,,,,,,,,,,,,,,,,,,,,army,61,104,silent,old,white,3263.836804700084,None,y,3263.836804700084,None,"['y', 'return']","[1.4636286003515124, 2.151419300585985]",3263.836804700084,None,,,50,001,2023_Apr_24_0953,ExactRep-v3-final,2021.2.3,59.93924573196245,
,,,,,,,,,,,,104,0,104,0,,,,,,,,,,,,,,,,,,,,,,,,,,,,,,,,,,,,,,,,,,,,,,,,,3269.6216856995597,None,,,,,,,,,,,,,,,,,,,,,,,,,,,,,,,,,,,,,,,,,,,,,,,,,,,,,,,,,water,121,105,silent,new,white,3266.548648700118,None,n,3266.548648700118,None,"['n', 'return']","[2.2795766005292535, 3.0316208004951477]",3266.548648700118,None,,,50,001,2023_Apr_24_0953,ExactRep-v3-final,2021.2.3,59.93924573196245,
,,,,,,,,,,,,105,0,105,0,,,,,,,,,,,,,,,,,,,,,,,,,,,,,,,,,,,,,,,,,,,,,,,,,3272.657835099846,None,,,,,,,,,,,,,,,,,,,,,,,,,,,,,,,,,,,,,,,,,,,,,,,,,,,,,,,,,hour,211,106,sing,new,blue,3270.1237802999094,None,n,3270.1237802999094,None,"['n', 'return']","[1.752483700402081, 2.496566300280392]",3270.1237802999094,None,,,50,001,2023_Apr_24_0953,ExactRep-v3-final,2021.2.3,59.93924573196245,
,,,,,,,,,,,,106,0,106,0,,,,,,,,,,,,,,,,,,,,,,,,,,,,,,,,,,,,,,,,,,,,,,,,,3275.127900599502,None,,,,,,,,,,,,,,,,,,,,,,,,,,,,,,,,,,,,,,,,,,,,,,,,,,,,,,,,,temple,199,107,sing,new,blue,3273.159969399683,None,y,3273.159969399683,None,"['y', 'return']","[1.2363138999789953, 1.9324137000367045]",3273.159969399683,None,,,50,001,2023_Apr_24_0953,ExactRep-v3-final,2021.2.3,59.93924573196245,
,,,,,,,,,,,,107,0,107,0,,,,,,,,,,,,,,,,,,,,,,,,,,,,,,,,,,,,,,,,,,,,,,,,,3277.680763599463,None,,,,,,,,,,,,,,,,,,,,,,,,,,,,,,,,,,,,,,,,,,,,,,,,,,,,,,,,,kiss,91,108,aloud,old,red,3275.6310238000005,None,y,3275.6310238000005,None,"['y', 'return']","[1.2373391995206475, 2.013457899913192]",3275.6310238000005,None,,,50,001,2023_Apr_24_0953,ExactRep-v3-final,2021.2.3,59.93924573196245,
,,,,,,,,,,,,108,0,108,0,,,,,,,,,,,,,,,,,,,,,,,,,,,,,,,,,,,,,,,,,,,,,,,,,3280.2517206994817,None,,,,,,,,,,,,,,,,,,,,,,,,,,,,,,,,,,,,,,,,,,,,,,,,,,,,,,,,,month,11,109,sing,old,blue,3278.197213700041,None,y,3278.197213700041,None,"['y', 'return']","[1.1511295000091195, 2.0150242000818253]",3278.197213700041,None,,,50,001,2023_Apr_24_0953,ExactRep-v3-final,2021.2.3,59.93924573196245,
,,,,,,,,,,,,109,0,109,0,,,,,,,,,,,,,,,,,,,,,,,,,,,,,,,,,,,,,,,,,,,,,,,,,3283.2375205000862,None,,,,,,,,,,,,,,,,,,,,,,,,,,,,,,,,,,,,,,,,,,,,,,,,,,,,,,,,,animal,233,110,sing,new,blue,3280.7678471999243,None,n,3280.7678471999243,None,"['n', 'return']","[1.581185999326408, 2.4285017997026443]",3280.7678471999243,None,,,50,001,2023_Apr_24_0953,ExactRep-v3-final,2021.2.3,59.93924573196245,
,,,,,,,,,,,,110,0,110,0,,,,,,,,,,,,,,,,,,,,,,,,,,,,,,,,,,,,,,,,,,,,,,,,,3285.9562077997252,None,,,,,,,,,,,,,,,,,,,,,,,,,,,,,,,,,,,,,,,,,,,,,,,,,,,,,,,,,meat,47,111,silent,old,white,3283.754239999689,None,n,3283.754239999689,None,"['n', 'return']","[1.3304070001468062, 2.162081000395119]",3283.754239999689,None,,,50,001,2023_Apr_24_0953,ExactRep-v3-final,2021.2.3,59.93924573196245,
,,,,,,,,,,,,111,0,111,0,,,,,,,,,,,,,,,,,,,,,,,,,,,,,,,,,,,,,,,,,,,,,,,,,3288.8933872999623,None,,,,,,,,,,,,,,,,,,,,,,,,,,,,,,,,,,,,,,,,,,,,,,,,,,,,,,,,,safety,57,112,silent,old,white,3286.4723881995305,None,n,3286.4723881995305,None,"['n', 'return']","[1.4677803004160523, 2.371954900212586]",3286.4723881995305,None,,,50,001,2023_Apr_24_0953,ExactRep-v3-final,2021.2.3,59.93924573196245,
,,,,,,,,,,,,112,0,112,0,,,,,,,,,,,,,,,,,,,,,,,,,,,,,,,,,,,,,,,,,,,,,,,,,3291.861552699469,None,,,,,,,,,,,,,,,,,,,,,,,,,,,,,,,,,,,,,,,,,,,,,,,,,,,,,,,,,shoes,109,113,aloud,old,red,3289.408374099992,None,n,3289.408374099992,None,"['n', 'return']","[1.579921199940145, 2.4200689997524023]",3289.408374099992,None,,,50,001,2023_Apr_24_0953,ExactRep-v3-final,2021.2.3,59.93924573196245,
,,,,,,,,,,,,113,0,113,0,,,,,,,,,,,,,,,,,,,,,,,,,,,,,,,,,,,,,,,,,,,,,,,,,3294.7643762994558,None,,,,,,,,,,,,,,,,,,,,,,,,,,,,,,,,,,,,,,,,,,,,,,,,,,,,,,,,,answer,217,114,sing,new,blue,3292.362483699806,None,y,3292.362483699806,None,"['y', 'return']","[1.6419888995587826, 2.3618879998102784]",3292.362483699806,None,,,50,001,2023_Apr_24_0953,ExactRep-v3-final,2021.2.3,59.93924573196245,
,,,,,,,,,,,,114,0,114,0,,,,,,,,,,,,,,,,,,,,,,,,,,,,,,,,,,,,,,,,,,,,,,,,,3299.9021878996864,None,,,,,,,,,,,,,,,,,,,,,,,,,,,,,,,,,,,,,,,,,,,,,,,,,,,,,,,,,slave,78,115,silent,old,white,3295.2751813996583,None,y,3295.2751813996583,None,"['y', 'return']","[3.8810759000480175, 4.5933681996539235]",3295.2751813996583,None,,,50,001,2023_Apr_24_0953,ExactRep-v3-final,2021.2.3,59.93924573196245,
,,,,,,,,,,,,115,0,115,0,,,,,,,,,,,,,,,,,,,,,,,,,,,,,,,,,,,,,,,,,,,,,,,,,3302.788755199872,None,,,,,,,,,,,,,,,,,,,,,,,,,,,,,,,,,,,,,,,,,,,,,,,,,,,,,,,,,ability,155,116,silent,new,white,3300.4175063995644,None,y,3300.4175063995644,None,"['y', 'return']","[1.6748720994219184, 2.322835799306631]",3300.4175063995644,None,,,50,001,2023_Apr_24_0953,ExactRep-v3-final,2021.2.3,59.93924573196245,
,,,,,,,,,,,,116,0,116,0,,,,,,,,,,,,,,,,,,,,,,,,,,,,,,,,,,,,,,,,,,,,,,,,,3305.725782999769,None,,,,,,,,,,,,,,,,,,,,,,,,,,,,,,,,,,,,,,,,,,,,,,,,,,,,,,,,,speech,230,117,aloud,new,red,3303.290533299558,None,y,3303.290533299558,None,"['y', 'return']","[1.6820123000070453, 2.393799099139869]",3303.290533299558,None,,,50,001,2023_Apr_24_0953,ExactRep-v3-final,2021.2.3,59.93924573196245,
,,,,,,,,,,,,117,0,117,0,,,,,,,,,,,,,,,,,,,,,,,,,,,,,,,,,,,,,,,,,,,,,,,,,3310.2465711999685,None,,,,,,,,,,,,,,,,,,,,,,,,,,,,,,,,,,,,,,,,,,,,,,,,,,,,,,,,,dust,104,118,aloud,old,red,3306.2424002997577,None,n,3306.2424002997577,None,"['n', 'return']","[3.25014999974519, 3.9619003999978304]",3306.2424002997577,None,,,50,001,2023_Apr_24_0953,ExactRep-v3-final,2021.2.3,59.93924573196245,
,,,,,,,,,,,,118,0,118,0,,,,,,,,,,,,,,,,,,,,,,,,,,,,,,,,,,,,,,,,,,,,,,,,,3316.03480209969,None,,,,,,,,,,,,,,,,,,,,,,,,,,,,,,,,,,,,,,,,,,,,,,,,,,,,,,,,,present,167,119,sing,new,blue,3310.7485501999035,None,y,3310.7485501999035,None,"['n', 'backspace', 'y', 'return']","[2.671798899769783, 4.216094699688256, 4.807774499990046, 5.247949900105596]",3310.7485501999035,None,,,50,001,2023_Apr_24_0953,ExactRep-v3-final,2021.2.3,59.93924573196245,
,,,,,,,,,,,,119,0,119,0,,,,,,,,,,,,,,,,,,,,,,,,,,,,,,,,,,,,,,,,,,,,,,,,,3319.0062623992562,None,,,,,,,,,,,,,,,,,,,,,,,,,,,,,,,,,,,,,,,,,,,,,,,,,,,,,,,,,forest,119,120,aloud,old,red,3316.5369084998965,None,y,3316.5369084998965,None,"['y', 'return']","[1.6833199001848698, 2.435469100251794]",3316.5369084998965,None,,,50,001,2023_Apr_24_0953,ExactRep-v3-final,2021.2.3,59.93924573196245,
,,,,,,,,,,,,120,0,120,0,,,,,,,,,,,,,,,,,,,,,,,,,,,,,,,,,,,,,,,,,,,,,,,,,3328.648204899393,None,,,,,,,,,,,,,,,,,,,,,,,,,,,,,,,,,,,,,,,,,,,,,,,,,,,,,,,,,woods,125,121,silent,new,white,3319.5224925996736,None,n,3319.5224925996736,None,"['n', 'return']","[8.601843400858343, 9.081897400319576]",3319.5224925996736,None,,,50,001,2023_Apr_24_0953,ExactRep-v3-final,2021.2.3,59.93924573196245,
,,,,,,,,,,,,121,0,121,0,,,,,,,,,,,,,,,,,,,,,,,,,,,,,,,,,,,,,,,,,,,,,,,,,3331.2008249992505,None,,,,,,,,,,,,,,,,,,,,,,,,,,,,,,,,,,,,,,,,,,,,,,,,,,,,,,,,,winter,69,122,silent,old,white,3329.1492612995207,None,y,3329.1492612995207,None,"['y', 'return']","[1.3431010004132986, 2.015343399718404]",3329.1492612995207,None,,,50,001,2023_Apr_24_0953,ExactRep-v3-final,2021.2.3,59.93924573196245,
,,,,,,,,,,,,122,0,122,0,,,,,,,,,,,,,,,,,,,,,,,,,,,,,,,,,,,,,,,,,,,,,,,,,3334.1041228994727,None,,,,,,,,,,,,,,,,,,,,,,,,,,,,,,,,,,,,,,,,,,,,,,,,,,,,,,,,,colony,62,123,silent,old,white,3331.7152354000136,None,y,3331.7152354000136,None,"['y', 'return']","[1.4890941996127367, 2.345113099552691]",3331.7152354000136,None,,,50,001,2023_Apr_24_0953,ExactRep-v3-final,2021.2.3,59.93924573196245,
,,,,,,,,,,,,123,0,123,0,,,,,,,,,,,,,,,,,,,,,,,,,,,,,,,,,,,,,,,,,,,,,,,,,3336.9721094993874,None,,,,,,,,,,,,,,,,,,,,,,,,,,,,,,,,,,,,,,,,,,,,,,,,,,,,,,,,,string,169,124,sing,new,blue,3334.6215996993706,None,y,3334.6215996993706,None,"['y', 'return']","[1.422808500006795, 2.3107515005394816]",3334.6215996993706,None,,,50,001,2023_Apr_24_0953,ExactRep-v3-final,2021.2.3,59.93924573196245,
,,,,,,,,,,,,124,0,124,0,,,,,,,,,,,,,,,,,,,,,,,,,,,,,,,,,,,,,,,,,,,,,,,,,3339.709641999565,None,,,,,,,,,,,,,,,,,,,,,,,,,,,,,,,,,,,,,,,,,,,,,,,,,,,,,,,,,blossom,179,125,sing,new,blue,3337.475528500043,None,y,3337.475528500043,None,"['y', 'return']","[1.5131268994882703, 2.184793099761009]",3337.475528500043,None,,,50,001,2023_Apr_24_0953,ExactRep-v3-final,2021.2.3,59.93924573196245,
,,,,,,,,,,,,125,0,125,0,,,,,,,,,,,,,,,,,,,,,,,,,,,,,,,,,,,,,,,,,,,,,,,,,3342.8455924997106,None,,,,,,,,,,,,,,,,,,,,,,,,,,,,,,,,,,,,,,,,,,,,,,,,,,,,,,,,,hotel,136,126,silent,new,white,3340.2262159995735,None,n,3340.2262159995735,None,"['n', 'return']","[1.746205199509859, 2.5703198993578553]",3340.2262159995735,None,,,50,001,2023_Apr_24_0953,ExactRep-v3-final,2021.2.3,59.93924573196245,
,,,,,,,,,,,,126,0,126,0,,,,,,,,,,,,,,,,,,,,,,,,,,,,,,,,,,,,,,,,,,,,,,,,,3345.5667175995186,None,,,,,,,,,,,,,,,,,,,,,,,,,,,,,,,,,,,,,,,,,,,,,,,,,,,,,,,,,body,141,127,silent,new,white,3343.3484977995977,None,y,3343.3484977995977,None,"['y', 'return']","[1.4641023995354772, 2.183776400052011]",3343.3484977995977,None,,,50,001,2023_Apr_24_0953,ExactRep-v3-final,2021.2.3,59.93924573196245,
,,,,,,,,,,,,127,0,127,0,,,,,,,,,,,,,,,,,,,,,,,,,,,,,,,,,,,,,,,,,,,,,,,,,3349.018659199588,None,,,,,,,,,,,,,,,,,,,,,,,,,,,,,,,,,,,,,,,,,,,,,,,,,,,,,,,,,avenue,55,128,silent,old,white,3346.082813099958,None,y,3346.082813099958,None,"['y', 'return']","[1.9456877000629902, 2.8975692000240088]",3346.082813099958,None,,,50,001,2023_Apr_24_0953,ExactRep-v3-final,2021.2.3,59.93924573196245,
,,,,,,,,,,,,128,0,128,0,,,,,,,,,,,,,,,,,,,,,,,,,,,,,,,,,,,,,,,,,,,,,,,,,3351.637926099822,None,,,,,,,,,,,,,,,,,,,,,,,,,,,,,,,,,,,,,,,,,,,,,,,,,,,,,,,,,time,34,129,sing,old,blue,3349.519655399956,None,y,3349.519655399956,None,"['y', 'return']","[1.2206598995253444, 2.076637700200081]",3349.519655399956,None,,,50,001,2023_Apr_24_0953,ExactRep-v3-final,2021.2.3,59.93924573196245,
,,,,,,,,,,,,129,0,129,0,,,,,,,,,,,,,,,,,,,,,,,,,,,,,,,,,,,,,,,,,,,,,,,,,3354.3255481999367,None,,,,,,,,,,,,,,,,,,,,,,,,,,,,,,,,,,,,,,,,,,,,,,,,,,,,,,,,,fun,18,130,sing,old,blue,3352.1385749001056,None,y,3352.1385749001056,None,"['y', 'return']","[1.233839999884367, 2.137827499769628]",3352.1385749001056,None,,,50,001,2023_Apr_24_0953,ExactRep-v3-final,2021.2.3,59.93924573196245,
,,,,,,,,,,,,130,0,130,0,,,,,,,,,,,,,,,,,,,,,,,,,,,,,,,,,,,,,,,,,,,,,,,,,3357.0265616998076,None,,,,,,,,,,,,,,,,,,,,,,,,,,,,,,,,,,,,,,,,,,,,,,,,,,,,,,,,,history,5,131,sing,old,blue,3354.841097000055,None,y,3354.841097000055,None,"['y', 'return']","[1.3552555004134774, 2.1473056003451347]",3354.841097000055,None,,,50,001,2023_Apr_24_0953,ExactRep-v3-final,2021.2.3,59.93924573196245,
,,,,,,,,,,,,131,0,131,0,,,,,,,,,,,,,,,,,,,,,,,,,,,,,,,,,,,,,,,,,,,,,,,,,3359.9800772992894,None,,,,,,,,,,,,,,,,,,,,,,,,,,,,,,,,,,,,,,,,,,,,,,,,,,,,,,,,,ticket,108,132,aloud,old,red,3357.5274717994034,None,y,3357.5274717994034,None,"['y', 'return']","[1.6208856999874115, 2.4129098001867533]",3357.5274717994034,None,,,50,001,2023_Apr_24_0953,ExactRep-v3-final,2021.2.3,59.93924573196245,
