trials_fam.thisRepN,trials_fam.thisTrialN,trials_fam.thisN,trials_fam.thisIndex,trials_prc.thisRepN,trials_prc.thisTrialN,trials_prc.thisN,trials_prc.thisIndex,StudyLoop.thisRepN,StudyLoop.thisTrialN,StudyLoop.thisN,StudyLoop.thisIndex,TestLoop.thisRepN,TestLoop.thisTrialN,TestLoop.thisN,TestLoop.thisIndex,text_colortest.started,text_colortest.stopped,key_colortest.keys,key_colortest.rt,key_colortest.started,key_colortest.stopped,textCondition.started,textCondition.stopped,keyCondition.keys,keyCondition.rt,keyCondition.started,keyCondition.stopped,Condition_between,Condition_counterbal,keyWelcome.keys,keyWelcome.rt,keyWelcome.started,keyWelcome.stopped,welcome_a.started,welcome_a.stopped,welcome_b.started,welcome_b.stopped,welcome_c.started,welcome_c.stopped,welcome_d.started,welcome_d.stopped,welcome_e.started,welcome_e.stopped,welcome_f.started,welcome_f.stopped,key_resp_fam_inst.keys,key_resp_fam_inst.rt,key_resp_fam_inst.started,key_resp_fam_inst.stopped,fam_a.started,fam_a.stopped,fam_b.started,fam_b.stopped,fam_c.started,fam_c.stopped,fam_d.started,fam_d.stopped,fam_e.started,fam_e.stopped,fam_f.started,fam_f.stopped,text_famil.started,text_famil.stopped,textBlank500.started,textBlank500.stopped,key_resp_prc_inst.keys,key_resp_prc_inst.rt,key_resp_prc_inst.started,key_resp_prc_inst.stopped,prac_a.started,prac_a.stopped,prac_b.started,prac_b.stopped,prac_c.started,prac_c.stopped,prac_d.started,prac_d.stopped,prac_e.started,prac_e.stopped,prac_f.started,prac_f.stopped,text_prc_trial.started,text_prc_trial.stopped,key_resp_study_inst.keys,key_resp_study_inst.rt,key_resp_study_inst.started,key_resp_study_inst.stopped,crit_a.started,crit_a.stopped,crit_b.started,crit_b.stopped,crit_c.started,crit_c.stopped,crit_d.started,crit_d.stopped,crit_e.started,crit_e.stopped,crit_f.started,crit_f.stopped,study_word,study_num,study_order,study_type,word_color,textStudy.started,textStudy.stopped,keyStudy.keys,keyStudy.started,keyStudy.stopped,post_study.started,post_study.stopped,key_resp_post_study.keys,key_resp_post_study.rt,key_resp_post_study.started,key_resp_post_study.stopped,test_inst.started,test_inst.stopped,key_resp_test_inst.keys,key_resp_test_inst.rt,key_resp_test_inst.started,key_resp_test_inst.stopped,test_word,test_num,test_order,test_condition,old_new_test,word_color_test,textConf.started,textConf.stopped,Participant Response,textInput.started,textInput.stopped,keyResp.keys,keyResp.rt,keyResp.started,keyResp.stopped,textEnd.started,textEnd.stopped,participant,session,date,expName,psychopyVersion,frameRate,
,,,,,,,,,,,,,,,,137.71797250024974,None,y,0.9482938004657626,137.71797250024974,None,,,,,,,,,,,,,,,,,,,,,,,,,,,,,,,,,,,,,,,,,,,,,,,,,,,,,,,,,,,,,,,,,,,,,,,,,,,,,,,,,,,,,,,,,,,,,,,,,,,,,,,,,,,,,,,,,,,,,,51,001,2023_Apr_24_1057,ExactRep-v3-final,2021.2.3,59.95344004123734,
,,,,,,,,,,,,,,,,,,,,,,138.68850489985198,None,c,0.22558979969471693,138.68850489985198,None,,,,,,,,,,,,,,,,,,,,,,,,,,,,,,,,,,,,,,,,,,,,,,,,,,,,,,,,,,,,,,,,,,,,,,,,,,,,,,,,,,,,,,,,,,,,,,,,,,,,,,,,,,,,,,,,51,001,2023_Apr_24_1057,ExactRep-v3-final,2021.2.3,59.95344004123734,
,,,,,,,,,,,,,,,,,,,,,,,,,,,,colorfoils,c,space,160.56163369957358,149.0326381996274,None,,,,,,,,,,,,,,,,,,,,,,,,,,,,,,,,,,,,,,,,,,,,,,,,,,,,,,,,,,,,,,,,,,,,,,,,,,,,,,,,,,,,,,,,,,,,,,,,,,,,,,,,,,51,001,2023_Apr_24_1057,ExactRep-v3-final,2021.2.3,59.95344004123734,
,,,,,,,,,,,,,,,,,,,,,,,,,,,,,,,,,,139.10075190011412,None,139.10075190011412,None,139.10075190011412,None,139.10075190011412,None,139.10075190011412,None,139.10075190011412,None,space,15.311934800818563,319.76228220015764,None,,,,,,,,,,,,,,,,,,,,,,,,,,,,,,,,,,,,,,,,,,,,,,,,,,,,,,,,,,,,,,,,,,,,,,,,,,,,,,,,,,,,,,,,,,51,001,2023_Apr_24_1057,ExactRep-v3-final,2021.2.3,59.95344004123734,
0,0,0,0,,,,,,,,,,,,,,,,,,,,,,,,,,,,,,,,,,,,,,,,,,,,,,,309.78859379980713,None,309.78859379980713,None,309.78859379980713,None,309.78859379980713,None,309.78859379980713,None,309.78859379980713,None,335.1843485003337,None,337.1869099000469,None,,,,,,,,,,,,,,,,,,,,,,,,,,,,,,,,,,,,,,,,,,,,,,,,,,,,,,,,,,,,,,,,,,,,,,,,,,51,001,2023_Apr_24_1057,ExactRep-v3-final,2021.2.3,59.95344004123734,
1,0,1,0,,,,,,,,,,,,,,,,,,,,,,,,,,,,,,,,,,,,,,,,,,,,,,,,,,,,,,,,,,,337.6959084002301,None,339.7060871999711,None,,,,,,,,,,,,,,,,,,,,,,,,,,,,,,,,,,,,,,,,,,,,,,,,,,,,,,,,,,,,,,,,,,,,,,,,,,51,001,2023_Apr_24_1057,ExactRep-v3-final,2021.2.3,59.95344004123734,
2,0,2,0,,,,,,,,,,,,,,,,,,,,,,,,,,,,,,,,,,,,,,,,,,,,,,,,,,,,,,,,,,,340.2178678000346,None,342.2250397996977,None,,,,,,,,,,,,,,,,,,,,,,,,,,,,,,,,,,,,,,,,,,,,,,,,,,,,,,,,,,,,,,,,,,,,,,,,,,51,001,2023_Apr_24_1057,ExactRep-v3-final,2021.2.3,59.95344004123734,
3,0,3,0,,,,,,,,,,,,,,,,,,,,,,,,,,,,,,,,,,,,,,,,,,,,,,,,,,,,,,,,,,,342.7313278997317,None,344.7443671002984,None,,,,,,,,,,,,,,,,,,,,,,,,,,,,,,,,,,,,,,,,,,,,,,,,,,,,,,,,,,,,,,,,,,,,,,,,,,51,001,2023_Apr_24_1057,ExactRep-v3-final,2021.2.3,59.95344004123734,
4,0,4,0,,,,,,,,,,,,,,,,,,,,,,,,,,,,,,,,,,,,,,,,,,,,,,,,,,,,,,,,,,,345.2498992998153,None,347.26358189992607,None,,,,,,,,,,,,,,,,,,,,,,,,,,,,,,,,,,,,,,,,,,,,,,,,,,,,,,,,,,,,,,,,,,,,,,,,,,51,001,2023_Apr_24_1057,ExactRep-v3-final,2021.2.3,59.95344004123734,
5,0,5,0,,,,,,,,,,,,,,,,,,,,,,,,,,,,,,,,,,,,,,,,,,,,,,,,,,,,,,,,,,,347.7639496996999,None,349.7659897003323,None,,,,,,,,,,,,,,,,,,,,,,,,,,,,,,,,,,,,,,,,,,,,,,,,,,,,,,,,,,,,,,,,,,,,,,,,,,51,001,2023_Apr_24_1057,ExactRep-v3-final,2021.2.3,59.95344004123734,
6,0,6,0,,,,,,,,,,,,,,,,,,,,,,,,,,,,,,,,,,,,,,,,,,,,,,,,,,,,,,,,,,,350.2668971000239,None,352.2685610996559,None,,,,,,,,,,,,,,,,,,,,,,,,,,,,,,,,,,,,,,,,,,,,,,,,,,,,,,,,,,,,,,,,,,,,,,,,,,51,001,2023_Apr_24_1057,ExactRep-v3-final,2021.2.3,59.95344004123734,
7,0,7,0,,,,,,,,,,,,,,,,,,,,,,,,,,,,,,,,,,,,,,,,,,,,,,,,,,,,,,,,,,,352.7717987000942,None,354.77116240002215,None,,,,,,,,,,,,,,,,,,,,,,,,,,,,,,,,,,,,,,,,,,,,,,,,,,,,,,,,,,,,,,,,,,,,,,,,,,51,001,2023_Apr_24_1057,ExactRep-v3-final,2021.2.3,59.95344004123734,
8,0,8,0,,,,,,,,,,,,,,,,,,,,,,,,,,,,,,,,,,,,,,,,,,,,,,,,,,,,,,,,,,,355.27223759982735,None,357.2735385997221,None,,,,,,,,,,,,,,,,,,,,,,,,,,,,,,,,,,,,,,,,,,,,,,,,,,,,,,,,,,,,,,,,,,,,,,,,,,51,001,2023_Apr_24_1057,ExactRep-v3-final,2021.2.3,59.95344004123734,
9,0,9,0,,,,,,,,,,,,,,,,,,,,,,,,,,,,,,,,,,,,,,,,,,,,,,,,,,,,,,,,,,,357.77751530054957,None,359.79300899989903,None,,,,,,,,,,,,,,,,,,,,,,,,,,,,,,,,,,,,,,,,,,,,,,,,,,,,,,,,,,,,,,,,,,,,,,,,,,51,001,2023_Apr_24_1057,ExactRep-v3-final,2021.2.3,59.95344004123734,
10,0,10,0,,,,,,,,,,,,,,,,,,,,,,,,,,,,,,,,,,,,,,,,,,,,,,,,,,,,,,,,,,,360.29345079977065,None,362.2952185003087,None,,,,,,,,,,,,,,,,,,,,,,,,,,,,,,,,,,,,,,,,,,,,,,,,,,,,,,,,,,,,,,,,,,,,,,,,,,51,001,2023_Apr_24_1057,ExactRep-v3-final,2021.2.3,59.95344004123734,
11,0,11,0,,,,,,,,,,,,,,,,,,,,,,,,,,,,,,,,,,,,,,,,,,,,,,,,,,,,,,,,,,,362.8046176005155,None,364.81455569993705,None,,,,,,,,,,,,,,,,,,,,,,,,,,,,,,,,,,,,,,,,,,,,,,,,,,,,,,,,,,,,,,,,,,,,,,,,,,51,001,2023_Apr_24_1057,ExactRep-v3-final,2021.2.3,59.95344004123734,
12,0,12,0,,,,,,,,,,,,,,,,,,,,,,,,,,,,,,,,,,,,,,,,,,,,,,,,,,,,,,,,,,,365.3204477997497,None,367.33355419989675,None,,,,,,,,,,,,,,,,,,,,,,,,,,,,,,,,,,,,,,,,,,,,,,,,,,,,,,,,,,,,,,,,,,,,,,,,,,51,001,2023_Apr_24_1057,ExactRep-v3-final,2021.2.3,59.95344004123734,
13,0,13,0,,,,,,,,,,,,,,,,,,,,,,,,,,,,,,,,,,,,,,,,,,,,,,,,,,,,,,,,,,,367.834062400274,None,369.8361013997346,None,,,,,,,,,,,,,,,,,,,,,,,,,,,,,,,,,,,,,,,,,,,,,,,,,,,,,,,,,,,,,,,,,,,,,,,,,,51,001,2023_Apr_24_1057,ExactRep-v3-final,2021.2.3,59.95344004123734,
14,0,14,0,,,,,,,,,,,,,,,,,,,,,,,,,,,,,,,,,,,,,,,,,,,,,,,,,,,,,,,,,,,370.3374543003738,None,372.33858119975775,None,,,,,,,,,,,,,,,,,,,,,,,,,,,,,,,,,,,,,,,,,,,,,,,,,,,,,,,,,,,,,,,,,,,,,,,,,,51,001,2023_Apr_24_1057,ExactRep-v3-final,2021.2.3,59.95344004123734,
,,,,,,,,,,,,,,,,,,,,,,,,,,,,,,,,,,,,,,,,,,,,,,,,,,,,,,,,,,,,,,,,,,space,17.143260300159454,382.95494830049574,None,,,,,,,,,,,,,,,,,,,,,,,,,,,,,,,,,,,,,,,,,,,,,,,,,,,,,,,,,,,,,,,,,,,,,,51,001,2023_Apr_24_1057,ExactRep-v3-final,2021.2.3,59.95344004123734,
,,,,0,0,0,0,,,,,,,,,,,,,,,,,,,,,,,,,,,,,,,,,,,,,,,,,,,,,,,,,,,,,,,,,402.201848000288,None,,,,,372.9912021998316,None,372.9912021998316,None,372.9912021998316,None,372.9912021998316,None,372.9912021998316,None,372.9912021998316,None,400.2000353997573,None,,,,,,,,,,,,,,,,,,,,,,,,,,,,,,,,,,,,,,,,,,,,,,,,,,,,,,,,51,001,2023_Apr_24_1057,ExactRep-v3-final,2021.2.3,59.95344004123734,
,,,,1,0,1,0,,,,,,,,,,,,,,,,,,,,,,,,,,,,,,,,,,,,,,,,,,,,,,,,,,,,,,,,,404.7044572997838,None,,,,,,,,,,,,,,,,,402.7025044998154,None,,,,,,,,,,,,,,,,,,,,,,,,,,,,,,,,,,,,,,,,,,,,,,,,,,,,,,,,51,001,2023_Apr_24_1057,ExactRep-v3-final,2021.2.3,59.95344004123734,
,,,,2,0,2,0,,,,,,,,,,,,,,,,,,,,,,,,,,,,,,,,,,,,,,,,,,,,,,,,,,,,,,,,,407.20691230054945,None,,,,,,,,,,,,,,,,,405.20483050029725,None,,,,,,,,,,,,,,,,,,,,,,,,,,,,,,,,,,,,,,,,,,,,,,,,,,,,,,,,51,001,2023_Apr_24_1057,ExactRep-v3-final,2021.2.3,59.95344004123734,
,,,,3,0,3,0,,,,,,,,,,,,,,,,,,,,,,,,,,,,,,,,,,,,,,,,,,,,,,,,,,,,,,,,,409.70929680019617,None,,,,,,,,,,,,,,,,,407.7076075999066,None,,,,,,,,,,,,,,,,,,,,,,,,,,,,,,,,,,,,,,,,,,,,,,,,,,,,,,,,51,001,2023_Apr_24_1057,ExactRep-v3-final,2021.2.3,59.95344004123734,
,,,,4,0,4,0,,,,,,,,,,,,,,,,,,,,,,,,,,,,,,,,,,,,,,,,,,,,,,,,,,,,,,,,,412.2120984001085,None,,,,,,,,,,,,,,,,,410.2099663997069,None,,,,,,,,,,,,,,,,,,,,,,,,,,,,,,,,,,,,,,,,,,,,,,,,,,,,,,,,51,001,2023_Apr_24_1057,ExactRep-v3-final,2021.2.3,59.95344004123734,
,,,,5,0,5,0,,,,,,,,,,,,,,,,,,,,,,,,,,,,,,,,,,,,,,,,,,,,,,,,,,,,,,,,,414.7144261999056,None,,,,,,,,,,,,,,,,,412.71265270002186,None,,,,,,,,,,,,,,,,,,,,,,,,,,,,,,,,,,,,,,,,,,,,,,,,,,,,,,,,51,001,2023_Apr_24_1057,ExactRep-v3-final,2021.2.3,59.95344004123734,
,,,,6,0,6,0,,,,,,,,,,,,,,,,,,,,,,,,,,,,,,,,,,,,,,,,,,,,,,,,,,,,,,,,,417.2167311999947,None,,,,,,,,,,,,,,,,,415.2149608004838,None,,,,,,,,,,,,,,,,,,,,,,,,,,,,,,,,,,,,,,,,,,,,,,,,,,,,,,,,51,001,2023_Apr_24_1057,ExactRep-v3-final,2021.2.3,59.95344004123734,
,,,,7,0,7,0,,,,,,,,,,,,,,,,,,,,,,,,,,,,,,,,,,,,,,,,,,,,,,,,,,,,,,,,,419.7195129999891,None,,,,,,,,,,,,,,,,,417.71753299981356,None,,,,,,,,,,,,,,,,,,,,,,,,,,,,,,,,,,,,,,,,,,,,,,,,,,,,,,,,51,001,2023_Apr_24_1057,ExactRep-v3-final,2021.2.3,59.95344004123734,
,,,,8,0,8,0,,,,,,,,,,,,,,,,,,,,,,,,,,,,,,,,,,,,,,,,,,,,,,,,,,,,,,,,,422.2217779997736,None,,,,,,,,,,,,,,,,,420.2198969004676,None,,,,,,,,,,,,,,,,,,,,,,,,,,,,,,,,,,,,,,,,,,,,,,,,,,,,,,,,51,001,2023_Apr_24_1057,ExactRep-v3-final,2021.2.3,59.95344004123734,
,,,,9,0,9,0,,,,,,,,,,,,,,,,,,,,,,,,,,,,,,,,,,,,,,,,,,,,,,,,,,,,,,,,,424.72448419965804,None,,,,,,,,,,,,,,,,,422.7226093998179,None,,,,,,,,,,,,,,,,,,,,,,,,,,,,,,,,,,,,,,,,,,,,,,,,,,,,,,,,51,001,2023_Apr_24_1057,ExactRep-v3-final,2021.2.3,59.95344004123734,
,,,,10,0,10,0,,,,,,,,,,,,,,,,,,,,,,,,,,,,,,,,,,,,,,,,,,,,,,,,,,,,,,,,,427.2269355999306,None,,,,,,,,,,,,,,,,,425.2249499997124,None,,,,,,,,,,,,,,,,,,,,,,,,,,,,,,,,,,,,,,,,,,,,,,,,,,,,,,,,51,001,2023_Apr_24_1057,ExactRep-v3-final,2021.2.3,59.95344004123734,
,,,,11,0,11,0,,,,,,,,,,,,,,,,,,,,,,,,,,,,,,,,,,,,,,,,,,,,,,,,,,,,,,,,,429.7292288998142,None,,,,,,,,,,,,,,,,,427.727614399977,None,,,,,,,,,,,,,,,,,,,,,,,,,,,,,,,,,,,,,,,,,,,,,,,,,,,,,,,,51,001,2023_Apr_24_1057,ExactRep-v3-final,2021.2.3,59.95344004123734,
,,,,12,0,12,0,,,,,,,,,,,,,,,,,,,,,,,,,,,,,,,,,,,,,,,,,,,,,,,,,,,,,,,,,432.23162470012903,None,,,,,,,,,,,,,,,,,430.22989059984684,None,,,,,,,,,,,,,,,,,,,,,,,,,,,,,,,,,,,,,,,,,,,,,,,,,,,,,,,,51,001,2023_Apr_24_1057,ExactRep-v3-final,2021.2.3,59.95344004123734,
,,,,13,0,13,0,,,,,,,,,,,,,,,,,,,,,,,,,,,,,,,,,,,,,,,,,,,,,,,,,,,,,,,,,434.7344580003992,None,,,,,,,,,,,,,,,,,432.7325291996822,None,,,,,,,,,,,,,,,,,,,,,,,,,,,,,,,,,,,,,,,,,,,,,,,,,,,,,,,,51,001,2023_Apr_24_1057,ExactRep-v3-final,2021.2.3,59.95344004123734,
,,,,14,0,14,0,,,,,,,,,,,,,,,,,,,,,,,,,,,,,,,,,,,,,,,,,,,,,,,,,,,,,,,,,437.23699059989303,None,,,,,,,,,,,,,,,,,435.23493350017816,None,,,,,,,,,,,,,,,,,,,,,,,,,,,,,,,,,,,,,,,,,,,,,,,,,,,,,,,,51,001,2023_Apr_24_1057,ExactRep-v3-final,2021.2.3,59.95344004123734,
,,,,,,,,,,,,,,,,,,,,,,,,,,,,,,,,,,,,,,,,,,,,,,,,,,,,,,,,,,,,,,,,,,,,,,,,,,,,,,,,,,,,space,24.910879200324416,447.89140820037574,None,,,,,,,,,,,,,,,,,,,,,,,,,,,,,,,,,,,,,,,,,,,,,,,,,,,,51,001,2023_Apr_24_1057,ExactRep-v3-final,2021.2.3,59.95344004123734,
,,,,,,,,0,0,0,0,,,,,,,,,,,,,,,,,,,,,,,,,,,,,,,,,,,,,,,,,,,,,,,,,,,,,474.89132220018655,None,,,,,,,,,,,,,,,,,,,,,,,437.9057656005025,None,437.9057656005025,None,437.9057656005025,None,437.9057656005025,None,437.9057656005025,None,437.9057656005025,None,table,113,1,aloud,blue,472.8913996005431,None,None,472.8913996005431,None,,,,,,,,,,,,,,,,,,,,,,,,,,,,,,51,001,2023_Apr_24_1057,ExactRep-v3-final,2021.2.3,59.95344004123734,
,,,,,,,,1,0,1,0,,,,,,,,,,,,,,,,,,,,,,,,,,,,,,,,,,,,,,,,,,,,,,,,,,,,,477.41053370013833,None,,,,,,,,,,,,,,,,,,,,,,,,,,,,,,,,,,,shore,81,2,aloud,blue,475.39843450021,None,None,475.39843450021,None,,,,,,,,,,,,,,,,,,,,,,,,,,,,,,51,001,2023_Apr_24_1057,ExactRep-v3-final,2021.2.3,59.95344004123734,
,,,,,,,,2,0,2,0,,,,,,,,,,,,,,,,,,,,,,,,,,,,,,,,,,,,,,,,,,,,,,,,,,,,,479.9294881001115,None,,,,,,,,,,,,,,,,,,,,,,,,,,,,,,,,,,,devil,59,3,silent,red,477.91690929979086,None,None,477.91690929979086,None,,,,,,,,,,,,,,,,,,,,,,,,,,,,,,51,001,2023_Apr_24_1057,ExactRep-v3-final,2021.2.3,59.95344004123734,
,,,,,,,,3,0,3,0,,,,,,,,,,,,,,,,,,,,,,,,,,,,,,,,,,,,,,,,,,,,,,,,,,,,,482.4316536001861,None,,,,,,,,,,,,,,,,,,,,,,,,,,,,,,,,,,,bowl,70,4,silent,red,480.4300202000886,None,None,480.4300202000886,None,,,,,,,,,,,,,,,,,,,,,,,,,,,,,,51,001,2023_Apr_24_1057,ExactRep-v3-final,2021.2.3,59.95344004123734,
,,,,,,,,4,0,4,0,,,,,,,,,,,,,,,,,,,,,,,,,,,,,,,,,,,,,,,,,,,,,,,,,,,,,484.9512596996501,None,,,,,,,,,,,,,,,,,,,,,,,,,,,,,,,,,,,quality,118,5,aloud,blue,482.93823810014874,None,None,482.93823810014874,None,,,,,,,,,,,,,,,,,,,,,,,,,,,,,,51,001,2023_Apr_24_1057,ExactRep-v3-final,2021.2.3,59.95344004123734,
,,,,,,,,5,0,5,0,,,,,,,,,,,,,,,,,,,,,,,,,,,,,,,,,,,,,,,,,,,,,,,,,,,,,487.470534699969,None,,,,,,,,,,,,,,,,,,,,,,,,,,,,,,,,,,,poet,3,6,sing,white,485.4574097003788,None,None,485.4574097003788,None,,,,,,,,,,,,,,,,,,,,,,,,,,,,,,51,001,2023_Apr_24_1057,ExactRep-v3-final,2021.2.3,59.95344004123734,
,,,,,,,,6,0,6,0,,,,,,,,,,,,,,,,,,,,,,,,,,,,,,,,,,,,,,,,,,,,,,,,,,,,,489.989519700408,None,,,,,,,,,,,,,,,,,,,,,,,,,,,,,,,,,,,camp,51,7,silent,red,487.9765884997323,None,None,487.9765884997323,None,,,,,,,,,,,,,,,,,,,,,,,,,,,,,,51,001,2023_Apr_24_1057,ExactRep-v3-final,2021.2.3,59.95344004123734,
,,,,,,,,7,0,7,0,,,,,,,,,,,,,,,,,,,,,,,,,,,,,,,,,,,,,,,,,,,,,,,,,,,,,492.4918828997761,None,,,,,,,,,,,,,,,,,,,,,,,,,,,,,,,,,,,chief,106,8,aloud,blue,490.49173850007355,None,None,490.49173850007355,None,,,,,,,,,,,,,,,,,,,,,,,,,,,,,,51,001,2023_Apr_24_1057,ExactRep-v3-final,2021.2.3,59.95344004123734,
,,,,,,,,8,0,8,0,,,,,,,,,,,,,,,,,,,,,,,,,,,,,,,,,,,,,,,,,,,,,,,,,,,,,495.01140379998833,None,,,,,,,,,,,,,,,,,,,,,,,,,,,,,,,,,,,plant,28,9,sing,white,492.9963787002489,None,None,492.9963787002489,None,,,,,,,,,,,,,,,,,,,,,,,,,,,,,,51,001,2023_Apr_24_1057,ExactRep-v3-final,2021.2.3,59.95344004123734,
,,,,,,,,9,0,9,0,,,,,,,,,,,,,,,,,,,,,,,,,,,,,,,,,,,,,,,,,,,,,,,,,,,,,497.5138870999217,None,,,,,,,,,,,,,,,,,,,,,,,,,,,,,,,,,,,grass,94,10,aloud,blue,495.5139981005341,None,None,495.5139981005341,None,,,,,,,,,,,,,,,,,,,,,,,,,,,,,,51,001,2023_Apr_24_1057,ExactRep-v3-final,2021.2.3,59.95344004123734,
,,,,,,,,10,0,10,0,,,,,,,,,,,,,,,,,,,,,,,,,,,,,,,,,,,,,,,,,,,,,,,,,,,,,500.0164184998721,None,,,,,,,,,,,,,,,,,,,,,,,,,,,,,,,,,,,world,4,11,sing,white,498.0164398001507,None,None,498.0164398001507,None,,,,,,,,,,,,,,,,,,,,,,,,,,,,,,51,001,2023_Apr_24_1057,ExactRep-v3-final,2021.2.3,59.95344004123734,
,,,,,,,,11,0,11,0,,,,,,,,,,,,,,,,,,,,,,,,,,,,,,,,,,,,,,,,,,,,,,,,,,,,,502.5352480998263,None,,,,,,,,,,,,,,,,,,,,,,,,,,,,,,,,,,,pupil,63,12,silent,red,500.5199905000627,None,None,500.5199905000627,None,,,,,,,,,,,,,,,,,,,,,,,,,,,,,,51,001,2023_Apr_24_1057,ExactRep-v3-final,2021.2.3,59.95344004123734,
,,,,,,,,12,0,12,0,,,,,,,,,,,,,,,,,,,,,,,,,,,,,,,,,,,,,,,,,,,,,,,,,,,,,505.0380728999153,None,,,,,,,,,,,,,,,,,,,,,,,,,,,,,,,,,,,grief,111,13,aloud,blue,503.03609209973365,None,None,503.03609209973365,None,,,,,,,,,,,,,,,,,,,,,,,,,,,,,,51,001,2023_Apr_24_1057,ExactRep-v3-final,2021.2.3,59.95344004123734,
,,,,,,,,13,0,13,0,,,,,,,,,,,,,,,,,,,,,,,,,,,,,,,,,,,,,,,,,,,,,,,,,,,,,507.540575100109,None,,,,,,,,,,,,,,,,,,,,,,,,,,,,,,,,,,,ability,83,14,aloud,blue,505.5400954997167,None,None,505.5400954997167,None,,,,,,,,,,,,,,,,,,,,,,,,,,,,,,51,001,2023_Apr_24_1057,ExactRep-v3-final,2021.2.3,59.95344004123734,
,,,,,,,,14,0,14,0,,,,,,,,,,,,,,,,,,,,,,,,,,,,,,,,,,,,,,,,,,,,,,,,,,,,,510.0429880004376,None,,,,,,,,,,,,,,,,,,,,,,,,,,,,,,,,,,,speech,53,15,silent,red,508.04220550041646,None,None,508.04220550041646,None,,,,,,,,,,,,,,,,,,,,,,,,,,,,,,51,001,2023_Apr_24_1057,ExactRep-v3-final,2021.2.3,59.95344004123734,
,,,,,,,,15,0,15,0,,,,,,,,,,,,,,,,,,,,,,,,,,,,,,,,,,,,,,,,,,,,,,,,,,,,,512.5623041000217,None,,,,,,,,,,,,,,,,,,,,,,,,,,,,,,,,,,,moral,64,16,silent,red,510.5477708997205,None,None,510.5477708997205,None,,,,,,,,,,,,,,,,,,,,,,,,,,,,,,51,001,2023_Apr_24_1057,ExactRep-v3-final,2021.2.3,59.95344004123734,
,,,,,,,,16,0,16,0,,,,,,,,,,,,,,,,,,,,,,,,,,,,,,,,,,,,,,,,,,,,,,,,,,,,,515.0646417001262,None,,,,,,,,,,,,,,,,,,,,,,,,,,,,,,,,,,,river,17,17,sing,white,513.0626387000084,None,None,513.0626387000084,None,,,,,,,,,,,,,,,,,,,,,,,,,,,,,,51,001,2023_Apr_24_1057,ExactRep-v3-final,2021.2.3,59.95344004123734,
,,,,,,,,17,0,17,0,,,,,,,,,,,,,,,,,,,,,,,,,,,,,,,,,,,,,,,,,,,,,,,,,,,,,517.5672415997833,None,,,,,,,,,,,,,,,,,,,,,,,,,,,,,,,,,,,hide,20,18,sing,white,515.5653341999277,None,None,515.5653341999277,None,,,,,,,,,,,,,,,,,,,,,,,,,,,,,,51,001,2023_Apr_24_1057,ExactRep-v3-final,2021.2.3,59.95344004123734,
,,,,,,,,18,0,18,0,,,,,,,,,,,,,,,,,,,,,,,,,,,,,,,,,,,,,,,,,,,,,,,,,,,,,520.0697825998068,None,,,,,,,,,,,,,,,,,,,,,,,,,,,,,,,,,,,victory,54,19,silent,red,518.0704888002947,None,None,518.0704888002947,None,,,,,,,,,,,,,,,,,,,,,,,,,,,,,,51,001,2023_Apr_24_1057,ExactRep-v3-final,2021.2.3,59.95344004123734,
,,,,,,,,19,0,19,0,,,,,,,,,,,,,,,,,,,,,,,,,,,,,,,,,,,,,,,,,,,,,,,,,,,,,522.5723155997694,None,,,,,,,,,,,,,,,,,,,,,,,,,,,,,,,,,,,slave,119,20,aloud,blue,520.5720223998651,None,None,520.5720223998651,None,,,,,,,,,,,,,,,,,,,,,,,,,,,,,,51,001,2023_Apr_24_1057,ExactRep-v3-final,2021.2.3,59.95344004123734,
,,,,,,,,20,0,20,0,,,,,,,,,,,,,,,,,,,,,,,,,,,,,,,,,,,,,,,,,,,,,,,,,,,,,525.0913578001782,None,,,,,,,,,,,,,,,,,,,,,,,,,,,,,,,,,,,diamond,97,21,aloud,blue,523.0769012002274,None,None,523.0769012002274,None,,,,,,,,,,,,,,,,,,,,,,,,,,,,,,51,001,2023_Apr_24_1057,ExactRep-v3-final,2021.2.3,59.95344004123734,
,,,,,,,,21,0,21,0,,,,,,,,,,,,,,,,,,,,,,,,,,,,,,,,,,,,,,,,,,,,,,,,,,,,,527.5940094999969,None,,,,,,,,,,,,,,,,,,,,,,,,,,,,,,,,,,,person,47,22,silent,red,525.5920110996813,None,None,525.5920110996813,None,,,,,,,,,,,,,,,,,,,,,,,,,,,,,,51,001,2023_Apr_24_1057,ExactRep-v3-final,2021.2.3,59.95344004123734,
,,,,,,,,22,0,22,0,,,,,,,,,,,,,,,,,,,,,,,,,,,,,,,,,,,,,,,,,,,,,,,,,,,,,530.0965183004737,None,,,,,,,,,,,,,,,,,,,,,,,,,,,,,,,,,,,lake,21,23,sing,white,528.097310599871,None,None,528.097310599871,None,,,,,,,,,,,,,,,,,,,,,,,,,,,,,,51,001,2023_Apr_24_1057,ExactRep-v3-final,2021.2.3,59.95344004123734,
,,,,,,,,23,0,23,0,,,,,,,,,,,,,,,,,,,,,,,,,,,,,,,,,,,,,,,,,,,,,,,,,,,,,532.5990155003965,None,,,,,,,,,,,,,,,,,,,,,,,,,,,,,,,,,,,pipe,41,24,silent,red,530.5994001002982,None,None,530.5994001002982,None,,,,,,,,,,,,,,,,,,,,,,,,,,,,,,51,001,2023_Apr_24_1057,ExactRep-v3-final,2021.2.3,59.95344004123734,
,,,,,,,,24,0,24,0,,,,,,,,,,,,,,,,,,,,,,,,,,,,,,,,,,,,,,,,,,,,,,,,,,,,,535.1181966997683,None,,,,,,,,,,,,,,,,,,,,,,,,,,,,,,,,,,,fate,18,25,sing,white,533.106016700156,None,None,533.106016700156,None,,,,,,,,,,,,,,,,,,,,,,,,,,,,,,51,001,2023_Apr_24_1057,ExactRep-v3-final,2021.2.3,59.95344004123734,
,,,,,,,,25,0,25,0,,,,,,,,,,,,,,,,,,,,,,,,,,,,,,,,,,,,,,,,,,,,,,,,,,,,,537.6373500004411,None,,,,,,,,,,,,,,,,,,,,,,,,,,,,,,,,,,,passion,30,26,sing,white,535.6287954002619,None,None,535.6287954002619,None,,,,,,,,,,,,,,,,,,,,,,,,,,,,,,51,001,2023_Apr_24_1057,ExactRep-v3-final,2021.2.3,59.95344004123734,
,,,,,,,,26,0,26,0,,,,,,,,,,,,,,,,,,,,,,,,,,,,,,,,,,,,,,,,,,,,,,,,,,,,,540.1398815996945,None,,,,,,,,,,,,,,,,,,,,,,,,,,,,,,,,,,,life,80,27,aloud,blue,538.137859900482,None,None,538.137859900482,None,,,,,,,,,,,,,,,,,,,,,,,,,,,,,,51,001,2023_Apr_24_1057,ExactRep-v3-final,2021.2.3,59.95344004123734,
,,,,,,,,27,0,27,0,,,,,,,,,,,,,,,,,,,,,,,,,,,,,,,,,,,,,,,,,,,,,,,,,,,,,542.6424716999754,None,,,,,,,,,,,,,,,,,,,,,,,,,,,,,,,,,,,flower,78,28,silent,red,540.6422265004367,None,None,540.6422265004367,None,,,,,,,,,,,,,,,,,,,,,,,,,,,,,,51,001,2023_Apr_24_1057,ExactRep-v3-final,2021.2.3,59.95344004123734,
,,,,,,,,28,0,28,0,,,,,,,,,,,,,,,,,,,,,,,,,,,,,,,,,,,,,,,,,,,,,,,,,,,,,545.1616997998208,None,,,,,,,,,,,,,,,,,,,,,,,,,,,,,,,,,,,crime,37,29,sing,white,543.152511799708,None,None,543.152511799708,None,,,,,,,,,,,,,,,,,,,,,,,,,,,,,,51,001,2023_Apr_24_1057,ExactRep-v3-final,2021.2.3,59.95344004123734,
,,,,,,,,29,0,29,0,,,,,,,,,,,,,,,,,,,,,,,,,,,,,,,,,,,,,,,,,,,,,,,,,,,,,547.6637358004227,None,,,,,,,,,,,,,,,,,,,,,,,,,,,,,,,,,,,lip,84,30,aloud,blue,545.6618852997199,None,None,545.6618852997199,None,,,,,,,,,,,,,,,,,,,,,,,,,,,,,,51,001,2023_Apr_24_1057,ExactRep-v3-final,2021.2.3,59.95344004123734,
,,,,,,,,30,0,30,0,,,,,,,,,,,,,,,,,,,,,,,,,,,,,,,,,,,,,,,,,,,,,,,,,,,,,550.166588800028,None,,,,,,,,,,,,,,,,,,,,,,,,,,,,,,,,,,,time,14,31,sing,white,548.1642829999328,None,None,548.1642829999328,None,,,,,,,,,,,,,,,,,,,,,,,,,,,,,,51,001,2023_Apr_24_1057,ExactRep-v3-final,2021.2.3,59.95344004123734,
,,,,,,,,31,0,31,0,,,,,,,,,,,,,,,,,,,,,,,,,,,,,,,,,,,,,,,,,,,,,,,,,,,,,552.6772293997929,None,,,,,,,,,,,,,,,,,,,,,,,,,,,,,,,,,,,letter,110,32,aloud,blue,550.666930699721,None,None,550.666930699721,None,,,,,,,,,,,,,,,,,,,,,,,,,,,,,,51,001,2023_Apr_24_1057,ExactRep-v3-final,2021.2.3,59.95344004123734,
,,,,,,,,32,0,32,0,,,,,,,,,,,,,,,,,,,,,,,,,,,,,,,,,,,,,,,,,,,,,,,,,,,,,555.1882244003937,None,,,,,,,,,,,,,,,,,,,,,,,,,,,,,,,,,,,length,99,33,aloud,blue,553.1883306996897,None,None,553.1883306996897,None,,,,,,,,,,,,,,,,,,,,,,,,,,,,,,51,001,2023_Apr_24_1057,ExactRep-v3-final,2021.2.3,59.95344004123734,
,,,,,,,,33,0,33,0,,,,,,,,,,,,,,,,,,,,,,,,,,,,,,,,,,,,,,,,,,,,,,,,,,,,,557.6908702002838,None,,,,,,,,,,,,,,,,,,,,,,,,,,,,,,,,,,,church,62,34,silent,red,555.6900164997205,None,None,555.6900164997205,None,,,,,,,,,,,,,,,,,,,,,,,,,,,,,,51,001,2023_Apr_24_1057,ExactRep-v3-final,2021.2.3,59.95344004123734,
,,,,,,,,34,0,34,0,,,,,,,,,,,,,,,,,,,,,,,,,,,,,,,,,,,,,,,,,,,,,,,,,,,,,560.1932955002412,None,,,,,,,,,,,,,,,,,,,,,,,,,,,,,,,,,,,paper,24,35,sing,white,558.1911738999188,None,None,558.1911738999188,None,,,,,,,,,,,,,,,,,,,,,,,,,,,,,,51,001,2023_Apr_24_1057,ExactRep-v3-final,2021.2.3,59.95344004123734,
,,,,,,,,35,0,35,0,,,,,,,,,,,,,,,,,,,,,,,,,,,,,,,,,,,,,,,,,,,,,,,,,,,,,562.7122908001766,None,,,,,,,,,,,,,,,,,,,,,,,,,,,,,,,,,,,insect,55,36,silent,red,560.7006422998384,None,None,560.7006422998384,None,,,,,,,,,,,,,,,,,,,,,,,,,,,,,,51,001,2023_Apr_24_1057,ExactRep-v3-final,2021.2.3,59.95344004123734,
,,,,,,,,36,0,36,0,,,,,,,,,,,,,,,,,,,,,,,,,,,,,,,,,,,,,,,,,,,,,,,,,,,,,565.2316156998277,None,,,,,,,,,,,,,,,,,,,,,,,,,,,,,,,,,,,rock,16,37,sing,white,563.2236085999757,None,None,563.2236085999757,None,,,,,,,,,,,,,,,,,,,,,,,,,,,,,,51,001,2023_Apr_24_1057,ExactRep-v3-final,2021.2.3,59.95344004123734,
,,,,,,,,37,0,37,0,,,,,,,,,,,,,,,,,,,,,,,,,,,,,,,,,,,,,,,,,,,,,,,,,,,,,567.7341120000929,None,,,,,,,,,,,,,,,,,,,,,,,,,,,,,,,,,,,doll,116,38,aloud,blue,565.7324091996998,None,None,565.7324091996998,None,,,,,,,,,,,,,,,,,,,,,,,,,,,,,,51,001,2023_Apr_24_1057,ExactRep-v3-final,2021.2.3,59.95344004123734,
,,,,,,,,38,0,38,0,,,,,,,,,,,,,,,,,,,,,,,,,,,,,,,,,,,,,,,,,,,,,,,,,,,,,570.2532818000764,None,,,,,,,,,,,,,,,,,,,,,,,,,,,,,,,,,,,hall,90,39,aloud,blue,568.2431886997074,None,None,568.2431886997074,None,,,,,,,,,,,,,,,,,,,,,,,,,,,,,,51,001,2023_Apr_24_1057,ExactRep-v3-final,2021.2.3,59.95344004123734,
,,,,,,,,39,0,39,0,,,,,,,,,,,,,,,,,,,,,,,,,,,,,,,,,,,,,,,,,,,,,,,,,,,,,572.7559406999499,None,,,,,,,,,,,,,,,,,,,,,,,,,,,,,,,,,,,boulder,98,40,aloud,blue,570.7546977996826,None,None,570.7546977996826,None,,,,,,,,,,,,,,,,,,,,,,,,,,,,,,51,001,2023_Apr_24_1057,ExactRep-v3-final,2021.2.3,59.95344004123734,
,,,,,,,,40,0,40,0,,,,,,,,,,,,,,,,,,,,,,,,,,,,,,,,,,,,,,,,,,,,,,,,,,,,,575.2750712996349,None,,,,,,,,,,,,,,,,,,,,,,,,,,,,,,,,,,,horse,45,41,silent,red,573.265362800099,None,None,573.265362800099,None,,,,,,,,,,,,,,,,,,,,,,,,,,,,,,51,001,2023_Apr_24_1057,ExactRep-v3-final,2021.2.3,59.95344004123734,
,,,,,,,,41,0,41,0,,,,,,,,,,,,,,,,,,,,,,,,,,,,,,,,,,,,,,,,,,,,,,,,,,,,,577.7793786004186,None,,,,,,,,,,,,,,,,,,,,,,,,,,,,,,,,,,,beast,102,42,aloud,blue,575.7754215998575,None,None,575.7754215998575,None,,,,,,,,,,,,,,,,,,,,,,,,,,,,,,51,001,2023_Apr_24_1057,ExactRep-v3-final,2021.2.3,59.95344004123734,
,,,,,,,,42,0,42,0,,,,,,,,,,,,,,,,,,,,,,,,,,,,,,,,,,,,,,,,,,,,,,,,,,,,,580.3133715000004,None,,,,,,,,,,,,,,,,,,,,,,,,,,,,,,,,,,,cash,85,43,aloud,blue,578.3013024004176,None,None,578.3013024004176,None,,,,,,,,,,,,,,,,,,,,,,,,,,,,,,51,001,2023_Apr_24_1057,ExactRep-v3-final,2021.2.3,59.95344004123734,
,,,,,,,,43,0,43,0,,,,,,,,,,,,,,,,,,,,,,,,,,,,,,,,,,,,,,,,,,,,,,,,,,,,,582.8157412,None,,,,,,,,,,,,,,,,,,,,,,,,,,,,,,,,,,,fur,105,44,aloud,blue,580.8147269003093,None,None,580.8147269003093,None,,,,,,,,,,,,,,,,,,,,,,,,,,,,,,51,001,2023_Apr_24_1057,ExactRep-v3-final,2021.2.3,59.95344004123734,
,,,,,,,,44,0,44,0,,,,,,,,,,,,,,,,,,,,,,,,,,,,,,,,,,,,,,,,,,,,,,,,,,,,,585.3182488996536,None,,,,,,,,,,,,,,,,,,,,,,,,,,,,,,,,,,,pride,91,45,aloud,blue,583.3177557997406,None,None,583.3177557997406,None,,,,,,,,,,,,,,,,,,,,,,,,,,,,,,51,001,2023_Apr_24_1057,ExactRep-v3-final,2021.2.3,59.95344004123734,
,,,,,,,,45,0,45,0,,,,,,,,,,,,,,,,,,,,,,,,,,,,,,,,,,,,,,,,,,,,,,,,,,,,,587.8209605002776,None,,,,,,,,,,,,,,,,,,,,,,,,,,,,,,,,,,,college,42,46,silent,red,585.8214496998116,None,None,585.8214496998116,None,,,,,,,,,,,,,,,,,,,,,,,,,,,,,,51,001,2023_Apr_24_1057,ExactRep-v3-final,2021.2.3,59.95344004123734,
,,,,,,,,46,0,46,0,,,,,,,,,,,,,,,,,,,,,,,,,,,,,,,,,,,,,,,,,,,,,,,,,,,,,590.3234082004055,None,,,,,,,,,,,,,,,,,,,,,,,,,,,,,,,,,,,toy,75,47,silent,red,588.3212035000324,None,None,588.3212035000324,None,,,,,,,,,,,,,,,,,,,,,,,,,,,,,,51,001,2023_Apr_24_1057,ExactRep-v3-final,2021.2.3,59.95344004123734,
,,,,,,,,47,0,47,0,,,,,,,,,,,,,,,,,,,,,,,,,,,,,,,,,,,,,,,,,,,,,,,,,,,,,592.825659500435,None,,,,,,,,,,,,,,,,,,,,,,,,,,,,,,,,,,,history,13,48,sing,white,590.8266786998138,None,None,590.8266786998138,None,,,,,,,,,,,,,,,,,,,,,,,,,,,,,,51,001,2023_Apr_24_1057,ExactRep-v3-final,2021.2.3,59.95344004123734,
,,,,,,,,48,0,48,0,,,,,,,,,,,,,,,,,,,,,,,,,,,,,,,,,,,,,,,,,,,,,,,,,,,,,595.3451385004446,None,,,,,,,,,,,,,,,,,,,,,,,,,,,,,,,,,,,nail,10,49,sing,white,593.3350843004882,None,None,593.3350843004882,None,,,,,,,,,,,,,,,,,,,,,,,,,,,,,,51,001,2023_Apr_24_1057,ExactRep-v3-final,2021.2.3,59.95344004123734,
,,,,,,,,49,0,49,0,,,,,,,,,,,,,,,,,,,,,,,,,,,,,,,,,,,,,,,,,,,,,,,,,,,,,597.8473915001377,None,,,,,,,,,,,,,,,,,,,,,,,,,,,,,,,,,,,wife,65,50,silent,red,595.8468505004421,None,None,595.8468505004421,None,,,,,,,,,,,,,,,,,,,,,,,,,,,,,,51,001,2023_Apr_24_1057,ExactRep-v3-final,2021.2.3,59.95344004123734,
,,,,,,,,50,0,50,0,,,,,,,,,,,,,,,,,,,,,,,,,,,,,,,,,,,,,,,,,,,,,,,,,,,,,600.3667425997555,None,,,,,,,,,,,,,,,,,,,,,,,,,,,,,,,,,,,death,77,51,silent,red,598.357691699639,None,None,598.357691699639,None,,,,,,,,,,,,,,,,,,,,,,,,,,,,,,51,001,2023_Apr_24_1057,ExactRep-v3-final,2021.2.3,59.95344004123734,
,,,,,,,,51,0,51,0,,,,,,,,,,,,,,,,,,,,,,,,,,,,,,,,,,,,,,,,,,,,,,,,,,,,,602.8690635999665,None,,,,,,,,,,,,,,,,,,,,,,,,,,,,,,,,,,,picture,73,52,silent,red,600.86730839964,None,None,600.86730839964,None,,,,,,,,,,,,,,,,,,,,,,,,,,,,,,51,001,2023_Apr_24_1057,ExactRep-v3-final,2021.2.3,59.95344004123734,
,,,,,,,,52,0,52,0,,,,,,,,,,,,,,,,,,,,,,,,,,,,,,,,,,,,,,,,,,,,,,,,,,,,,605.3882847996429,None,,,,,,,,,,,,,,,,,,,,,,,,,,,,,,,,,,,party,36,53,sing,white,603.3775764005259,None,None,603.3775764005259,None,,,,,,,,,,,,,,,,,,,,,,,,,,,,,,51,001,2023_Apr_24_1057,ExactRep-v3-final,2021.2.3,59.95344004123734,
,,,,,,,,53,0,53,0,,,,,,,,,,,,,,,,,,,,,,,,,,,,,,,,,,,,,,,,,,,,,,,,,,,,,607.8907858999446,None,,,,,,,,,,,,,,,,,,,,,,,,,,,,,,,,,,,child,39,54,silent,red,605.8888205001131,None,None,605.8888205001131,None,,,,,,,,,,,,,,,,,,,,,,,,,,,,,,51,001,2023_Apr_24_1057,ExactRep-v3-final,2021.2.3,59.95344004123734,
,,,,,,,,54,0,54,0,,,,,,,,,,,,,,,,,,,,,,,,,,,,,,,,,,,,,,,,,,,,,,,,,,,,,610.3933068998158,None,,,,,,,,,,,,,,,,,,,,,,,,,,,,,,,,,,,meeting,96,55,aloud,blue,608.3913364997134,None,None,608.3913364997134,None,,,,,,,,,,,,,,,,,,,,,,,,,,,,,,51,001,2023_Apr_24_1057,ExactRep-v3-final,2021.2.3,59.95344004123734,
,,,,,,,,55,0,55,0,,,,,,,,,,,,,,,,,,,,,,,,,,,,,,,,,,,,,,,,,,,,,,,,,,,,,612.8959277002141,None,,,,,,,,,,,,,,,,,,,,,,,,,,,,,,,,,,,effort,67,56,silent,red,610.8937395997345,None,None,610.8937395997345,None,,,,,,,,,,,,,,,,,,,,,,,,,,,,,,51,001,2023_Apr_24_1057,ExactRep-v3-final,2021.2.3,59.95344004123734,
,,,,,,,,56,0,56,0,,,,,,,,,,,,,,,,,,,,,,,,,,,,,,,,,,,,,,,,,,,,,,,,,,,,,615.4152079997584,None,,,,,,,,,,,,,,,,,,,,,,,,,,,,,,,,,,,teacher,93,57,aloud,blue,613.4034895002842,None,None,613.4034895002842,None,,,,,,,,,,,,,,,,,,,,,,,,,,,,,,51,001,2023_Apr_24_1057,ExactRep-v3-final,2021.2.3,59.95344004123734,
,,,,,,,,57,0,57,0,,,,,,,,,,,,,,,,,,,,,,,,,,,,,,,,,,,,,,,,,,,,,,,,,,,,,617.9344608997926,None,,,,,,,,,,,,,,,,,,,,,,,,,,,,,,,,,,,author,44,58,silent,red,615.9238098999485,None,None,615.9238098999485,None,,,,,,,,,,,,,,,,,,,,,,,,,,,,,,51,001,2023_Apr_24_1057,ExactRep-v3-final,2021.2.3,59.95344004123734,
,,,,,,,,58,0,58,0,,,,,,,,,,,,,,,,,,,,,,,,,,,,,,,,,,,,,,,,,,,,,,,,,,,,,620.4535590996966,None,,,,,,,,,,,,,,,,,,,,,,,,,,,,,,,,,,,stone,31,59,sing,white,618.4400599999353,None,None,618.4400599999353,None,,,,,,,,,,,,,,,,,,,,,,,,,,,,,,51,001,2023_Apr_24_1057,ExactRep-v3-final,2021.2.3,59.95344004123734,
,,,,,,,,59,0,59,0,,,,,,,,,,,,,,,,,,,,,,,,,,,,,,,,,,,,,,,,,,,,,,,,,,,,,622.9560898002237,None,,,,,,,,,,,,,,,,,,,,,,,,,,,,,,,,,,,season,60,60,silent,red,620.9552330998704,None,None,620.9552330998704,None,,,,,,,,,,,,,,,,,,,,,,,,,,,,,,51,001,2023_Apr_24_1057,ExactRep-v3-final,2021.2.3,59.95344004123734,
,,,,,,,,60,0,60,0,,,,,,,,,,,,,,,,,,,,,,,,,,,,,,,,,,,,,,,,,,,,,,,,,,,,,625.4753032000735,None,,,,,,,,,,,,,,,,,,,,,,,,,,,,,,,,,,,door,8,61,sing,white,623.4649905003607,None,None,623.4649905003607,None,,,,,,,,,,,,,,,,,,,,,,,,,,,,,,51,001,2023_Apr_24_1057,ExactRep-v3-final,2021.2.3,59.95344004123734,
,,,,,,,,61,0,61,0,,,,,,,,,,,,,,,,,,,,,,,,,,,,,,,,,,,,,,,,,,,,,,,,,,,,,627.977741099894,None,,,,,,,,,,,,,,,,,,,,,,,,,,,,,,,,,,,leader,79,62,sing,white,625.9770841002464,None,None,625.9770841002464,None,,,,,,,,,,,,,,,,,,,,,,,,,,,,,,51,001,2023_Apr_24_1057,ExactRep-v3-final,2021.2.3,59.95344004123734,
,,,,,,,,62,0,62,0,,,,,,,,,,,,,,,,,,,,,,,,,,,,,,,,,,,,,,,,,,,,,,,,,,,,,630.496922600083,None,,,,,,,,,,,,,,,,,,,,,,,,,,,,,,,,,,,freedom,11,63,sing,white,628.4815269997343,None,None,628.4815269997343,None,,,,,,,,,,,,,,,,,,,,,,,,,,,,,,51,001,2023_Apr_24_1057,ExactRep-v3-final,2021.2.3,59.95344004123734,
,,,,,,,,63,0,63,0,,,,,,,,,,,,,,,,,,,,,,,,,,,,,,,,,,,,,,,,,,,,,,,,,,,,,632.9994189999998,None,,,,,,,,,,,,,,,,,,,,,,,,,,,,,,,,,,,shock,103,64,aloud,blue,631.0002252999693,None,None,631.0002252999693,None,,,,,,,,,,,,,,,,,,,,,,,,,,,,,,51,001,2023_Apr_24_1057,ExactRep-v3-final,2021.2.3,59.95344004123734,
,,,,,,,,64,0,64,0,,,,,,,,,,,,,,,,,,,,,,,,,,,,,,,,,,,,,,,,,,,,,,,,,,,,,635.5186302000657,None,,,,,,,,,,,,,,,,,,,,,,,,,,,,,,,,,,,officer,71,65,silent,red,633.505157600157,None,None,633.505157600157,None,,,,,,,,,,,,,,,,,,,,,,,,,,,,,,51,001,2023_Apr_24_1057,ExactRep-v3-final,2021.2.3,59.95344004123734,
,,,,,,,,65,0,65,0,,,,,,,,,,,,,,,,,,,,,,,,,,,,,,,,,,,,,,,,,,,,,,,,,,,,,638.0376348998398,None,,,,,,,,,,,,,,,,,,,,,,,,,,,,,,,,,,,weapon,50,66,silent,red,636.0260984003544,None,None,636.0260984003544,None,,,,,,,,,,,,,,,,,,,,,,,,,,,,,,51,001,2023_Apr_24_1057,ExactRep-v3-final,2021.2.3,59.95344004123734,
,,,,,,,,66,0,66,0,,,,,,,,,,,,,,,,,,,,,,,,,,,,,,,,,,,,,,,,,,,,,,,,,,,,,640.540153699927,None,,,,,,,,,,,,,,,,,,,,,,,,,,,,,,,,,,,iron,29,67,sing,white,638.5381112005562,None,None,638.5381112005562,None,,,,,,,,,,,,,,,,,,,,,,,,,,,,,,51,001,2023_Apr_24_1057,ExactRep-v3-final,2021.2.3,59.95344004123734,
,,,,,,,,67,0,67,0,,,,,,,,,,,,,,,,,,,,,,,,,,,,,,,,,,,,,,,,,,,,,,,,,,,,,643.0426117004827,None,,,,,,,,,,,,,,,,,,,,,,,,,,,,,,,,,,,skin,6,68,sing,white,641.0413741003722,None,None,641.0413741003722,None,,,,,,,,,,,,,,,,,,,,,,,,,,,,,,51,001,2023_Apr_24_1057,ExactRep-v3-final,2021.2.3,59.95344004123734,
,,,,,,,,68,0,68,0,,,,,,,,,,,,,,,,,,,,,,,,,,,,,,,,,,,,,,,,,,,,,,,,,,,,,645.5452607003972,None,,,,,,,,,,,,,,,,,,,,,,,,,,,,,,,,,,,shoes,35,69,sing,white,643.5450005996972,None,None,643.5450005996972,None,,,,,,,,,,,,,,,,,,,,,,,,,,,,,,51,001,2023_Apr_24_1057,ExactRep-v3-final,2021.2.3,59.95344004123734,
,,,,,,,,69,0,69,0,,,,,,,,,,,,,,,,,,,,,,,,,,,,,,,,,,,,,,,,,,,,,,,,,,,,,648.0476344004273,None,,,,,,,,,,,,,,,,,,,,,,,,,,,,,,,,,,,month,104,70,aloud,blue,646.0472950004041,None,None,646.0472950004041,None,,,,,,,,,,,,,,,,,,,,,,,,,,,,,,51,001,2023_Apr_24_1057,ExactRep-v3-final,2021.2.3,59.95344004123734,
,,,,,,,,70,0,70,0,,,,,,,,,,,,,,,,,,,,,,,,,,,,,,,,,,,,,,,,,,,,,,,,,,,,,650.5501679005101,None,,,,,,,,,,,,,,,,,,,,,,,,,,,,,,,,,,,dream,107,71,aloud,blue,648.5489969002083,None,None,648.5489969002083,None,,,,,,,,,,,,,,,,,,,,,,,,,,,,,,51,001,2023_Apr_24_1057,ExactRep-v3-final,2021.2.3,59.95344004123734,
,,,,,,,,71,0,71,0,,,,,,,,,,,,,,,,,,,,,,,,,,,,,,,,,,,,,,,,,,,,,,,,,,,,,653.0529517000541,None,,,,,,,,,,,,,,,,,,,,,,,,,,,,,,,,,,,method,22,72,sing,white,651.0523116001859,None,None,651.0523116001859,None,,,,,,,,,,,,,,,,,,,,,,,,,,,,,,51,001,2023_Apr_24_1057,ExactRep-v3-final,2021.2.3,59.95344004123734,
,,,,,,,,72,0,72,0,,,,,,,,,,,,,,,,,,,,,,,,,,,,,,,,,,,,,,,,,,,,,,,,,,,,,655.5552930999547,None,,,,,,,,,,,,,,,,,,,,,,,,,,,,,,,,,,,metal,82,73,aloud,blue,653.5535192005336,None,None,653.5535192005336,None,,,,,,,,,,,,,,,,,,,,,,,,,,,,,,51,001,2023_Apr_24_1057,ExactRep-v3-final,2021.2.3,59.95344004123734,
,,,,,,,,73,0,73,0,,,,,,,,,,,,,,,,,,,,,,,,,,,,,,,,,,,,,,,,,,,,,,,,,,,,,658.0742814000696,None,,,,,,,,,,,,,,,,,,,,,,,,,,,,,,,,,,,kiss,56,74,silent,red,656.0603751996532,None,None,656.0603751996532,None,,,,,,,,,,,,,,,,,,,,,,,,,,,,,,51,001,2023_Apr_24_1057,ExactRep-v3-final,2021.2.3,59.95344004123734,
,,,,,,,,74,0,74,0,,,,,,,,,,,,,,,,,,,,,,,,,,,,,,,,,,,,,,,,,,,,,,,,,,,,,660.5937203001231,None,,,,,,,,,,,,,,,,,,,,,,,,,,,,,,,,,,,theory,40,75,silent,red,658.5793629996479,None,None,658.5793629996479,None,,,,,,,,,,,,,,,,,,,,,,,,,,,,,,51,001,2023_Apr_24_1057,ExactRep-v3-final,2021.2.3,59.95344004123734,
,,,,,,,,75,0,75,0,,,,,,,,,,,,,,,,,,,,,,,,,,,,,,,,,,,,,,,,,,,,,,,,,,,,,663.0961388004944,None,,,,,,,,,,,,,,,,,,,,,,,,,,,,,,,,,,,square,7,76,sing,white,661.0943485004827,None,None,661.0943485004827,None,,,,,,,,,,,,,,,,,,,,,,,,,,,,,,51,001,2023_Apr_24_1057,ExactRep-v3-final,2021.2.3,59.95344004123734,
,,,,,,,,76,0,76,0,,,,,,,,,,,,,,,,,,,,,,,,,,,,,,,,,,,,,,,,,,,,,,,,,,,,,665.5986609002575,None,,,,,,,,,,,,,,,,,,,,,,,,,,,,,,,,,,,ship,38,77,sing,white,663.5984519999474,None,None,663.5984519999474,None,,,,,,,,,,,,,,,,,,,,,,,,,,,,,,51,001,2023_Apr_24_1057,ExactRep-v3-final,2021.2.3,59.95344004123734,
,,,,,,,,77,0,77,0,,,,,,,,,,,,,,,,,,,,,,,,,,,,,,,,,,,,,,,,,,,,,,,,,,,,,668.1012334004045,None,,,,,,,,,,,,,,,,,,,,,,,,,,,,,,,,,,,coffee,109,78,aloud,blue,666.1010651001707,None,None,666.1010651001707,None,,,,,,,,,,,,,,,,,,,,,,,,,,,,,,51,001,2023_Apr_24_1057,ExactRep-v3-final,2021.2.3,59.95344004123734,
,,,,,,,,78,0,78,0,,,,,,,,,,,,,,,,,,,,,,,,,,,,,,,,,,,,,,,,,,,,,,,,,,,,,670.6202039998025,None,,,,,,,,,,,,,,,,,,,,,,,,,,,,,,,,,,,street,88,79,aloud,blue,668.6122500998899,None,None,668.6122500998899,None,,,,,,,,,,,,,,,,,,,,,,,,,,,,,,51,001,2023_Apr_24_1057,ExactRep-v3-final,2021.2.3,59.95344004123734,
,,,,,,,,79,0,79,0,,,,,,,,,,,,,,,,,,,,,,,,,,,,,,,,,,,,,,,,,,,,,,,,,,,,,673.1228331997991,None,,,,,,,,,,,,,,,,,,,,,,,,,,,,,,,,,,,thought,27,80,sing,white,671.1207245998085,None,None,671.1207245998085,None,,,,,,,,,,,,,,,,,,,,,,,,,,,,,,51,001,2023_Apr_24_1057,ExactRep-v3-final,2021.2.3,59.95344004123734,
,,,,,,,,80,0,80,0,,,,,,,,,,,,,,,,,,,,,,,,,,,,,,,,,,,,,,,,,,,,,,,,,,,,,675.6420047003776,None,,,,,,,,,,,,,,,,,,,,,,,,,,,,,,,,,,,sea,52,81,silent,red,673.6318976003677,None,None,673.6318976003677,None,,,,,,,,,,,,,,,,,,,,,,,,,,,,,,51,001,2023_Apr_24_1057,ExactRep-v3-final,2021.2.3,59.95344004123734,
,,,,,,,,81,0,81,0,,,,,,,,,,,,,,,,,,,,,,,,,,,,,,,,,,,,,,,,,,,,,,,,,,,,,678.144330999814,None,,,,,,,,,,,,,,,,,,,,,,,,,,,,,,,,,,,flesh,0,82,sing,white,676.1425382001325,None,None,676.1425382001325,None,,,,,,,,,,,,,,,,,,,,,,,,,,,,,,51,001,2023_Apr_24_1057,ExactRep-v3-final,2021.2.3,59.95344004123734,
,,,,,,,,82,0,82,0,,,,,,,,,,,,,,,,,,,,,,,,,,,,,,,,,,,,,,,,,,,,,,,,,,,,,680.6637955997139,None,,,,,,,,,,,,,,,,,,,,,,,,,,,,,,,,,,,owner,46,83,silent,red,678.6506839003414,None,None,678.6506839003414,None,,,,,,,,,,,,,,,,,,,,,,,,,,,,,,51,001,2023_Apr_24_1057,ExactRep-v3-final,2021.2.3,59.95344004123734,
,,,,,,,,83,0,83,0,,,,,,,,,,,,,,,,,,,,,,,,,,,,,,,,,,,,,,,,,,,,,,,,,,,,,683.1829163003713,None,,,,,,,,,,,,,,,,,,,,,,,,,,,,,,,,,,,humour,57,84,silent,red,681.1684293998405,None,None,681.1684293998405,None,,,,,,,,,,,,,,,,,,,,,,,,,,,,,,51,001,2023_Apr_24_1057,ExactRep-v3-final,2021.2.3,59.95344004123734,
,,,,,,,,84,0,84,0,,,,,,,,,,,,,,,,,,,,,,,,,,,,,,,,,,,,,,,,,,,,,,,,,,,,,685.6854143003002,None,,,,,,,,,,,,,,,,,,,,,,,,,,,,,,,,,,,mind,1,85,sing,white,683.6841505998746,None,None,683.6841505998746,None,,,,,,,,,,,,,,,,,,,,,,,,,,,,,,51,001,2023_Apr_24_1057,ExactRep-v3-final,2021.2.3,59.95344004123734,
,,,,,,,,85,0,85,0,,,,,,,,,,,,,,,,,,,,,,,,,,,,,,,,,,,,,,,,,,,,,,,,,,,,,688.18795960024,None,,,,,,,,,,,,,,,,,,,,,,,,,,,,,,,,,,,star,76,86,silent,red,686.186550100334,None,None,686.186550100334,None,,,,,,,,,,,,,,,,,,,,,,,,,,,,,,51,001,2023_Apr_24_1057,ExactRep-v3-final,2021.2.3,59.95344004123734,
,,,,,,,,86,0,86,0,,,,,,,,,,,,,,,,,,,,,,,,,,,,,,,,,,,,,,,,,,,,,,,,,,,,,690.7072243997827,None,,,,,,,,,,,,,,,,,,,,,,,,,,,,,,,,,,,library,43,87,silent,red,688.6943413000554,None,None,688.6943413000554,None,,,,,,,,,,,,,,,,,,,,,,,,,,,,,,51,001,2023_Apr_24_1057,ExactRep-v3-final,2021.2.3,59.95344004123734,
,,,,,,,,87,0,87,0,,,,,,,,,,,,,,,,,,,,,,,,,,,,,,,,,,,,,,,,,,,,,,,,,,,,,693.2096095001325,None,,,,,,,,,,,,,,,,,,,,,,,,,,,,,,,,,,,glory,95,88,aloud,blue,691.2076316997409,None,None,691.2076316997409,None,,,,,,,,,,,,,,,,,,,,,,,,,,,,,,51,001,2023_Apr_24_1057,ExactRep-v3-final,2021.2.3,59.95344004123734,
,,,,,,,,88,0,88,0,,,,,,,,,,,,,,,,,,,,,,,,,,,,,,,,,,,,,,,,,,,,,,,,,,,,,695.7287998003885,None,,,,,,,,,,,,,,,,,,,,,,,,,,,,,,,,,,,prayer,15,89,sing,white,693.7188055003062,None,None,693.7188055003062,None,,,,,,,,,,,,,,,,,,,,,,,,,,,,,,51,001,2023_Apr_24_1057,ExactRep-v3-final,2021.2.3,59.95344004123734,
,,,,,,,,89,0,89,0,,,,,,,,,,,,,,,,,,,,,,,,,,,,,,,,,,,,,,,,,,,,,,,,,,,,,698.2478659003973,None,,,,,,,,,,,,,,,,,,,,,,,,,,,,,,,,,,,moment,100,90,aloud,blue,696.2333260001615,None,None,696.2333260001615,None,,,,,,,,,,,,,,,,,,,,,,,,,,,,,,51,001,2023_Apr_24_1057,ExactRep-v3-final,2021.2.3,59.95344004123734,
,,,,,,,,90,0,90,0,,,,,,,,,,,,,,,,,,,,,,,,,,,,,,,,,,,,,,,,,,,,,,,,,,,,,700.7501990003511,None,,,,,,,,,,,,,,,,,,,,,,,,,,,,,,,,,,,form,115,91,aloud,blue,698.7483507003635,None,None,698.7483507003635,None,,,,,,,,,,,,,,,,,,,,,,,,,,,,,,51,001,2023_Apr_24_1057,ExactRep-v3-final,2021.2.3,59.95344004123734,
,,,,,,,,91,0,91,0,,,,,,,,,,,,,,,,,,,,,,,,,,,,,,,,,,,,,,,,,,,,,,,,,,,,,703.2695299005136,None,,,,,,,,,,,,,,,,,,,,,,,,,,,,,,,,,,,tool,5,92,sing,white,701.2581807002425,None,None,701.2581807002425,None,,,,,,,,,,,,,,,,,,,,,,,,,,,,,,51,001,2023_Apr_24_1057,ExactRep-v3-final,2021.2.3,59.95344004123734,
,,,,,,,,92,0,92,0,,,,,,,,,,,,,,,,,,,,,,,,,,,,,,,,,,,,,,,,,,,,,,,,,,,,,705.7719833999872,None,,,,,,,,,,,,,,,,,,,,,,,,,,,,,,,,,,,home,69,93,silent,red,703.7700704997405,None,None,703.7700704997405,None,,,,,,,,,,,,,,,,,,,,,,,,,,,,,,51,001,2023_Apr_24_1057,ExactRep-v3-final,2021.2.3,59.95344004123734,
,,,,,,,,93,0,93,0,,,,,,,,,,,,,,,,,,,,,,,,,,,,,,,,,,,,,,,,,,,,,,,,,,,,,708.274522099644,None,,,,,,,,,,,,,,,,,,,,,,,,,,,,,,,,,,,disease,89,94,aloud,blue,706.27270879969,None,None,706.27270879969,None,,,,,,,,,,,,,,,,,,,,,,,,,,,,,,51,001,2023_Apr_24_1057,ExactRep-v3-final,2021.2.3,59.95344004123734,
,,,,,,,,94,0,94,0,,,,,,,,,,,,,,,,,,,,,,,,,,,,,,,,,,,,,,,,,,,,,,,,,,,,,710.7938767001033,None,,,,,,,,,,,,,,,,,,,,,,,,,,,,,,,,,,,arm,2,95,sing,white,708.7787619996816,None,None,708.7787619996816,None,,,,,,,,,,,,,,,,,,,,,,,,,,,,,,51,001,2023_Apr_24_1057,ExactRep-v3-final,2021.2.3,59.95344004123734,
,,,,,,,,95,0,95,0,,,,,,,,,,,,,,,,,,,,,,,,,,,,,,,,,,,,,,,,,,,,,,,,,,,,,713.3132490003482,None,,,,,,,,,,,,,,,,,,,,,,,,,,,,,,,,,,,house,48,96,silent,red,711.2984196003526,None,None,711.2984196003526,None,,,,,,,,,,,,,,,,,,,,,,,,,,,,,,51,001,2023_Apr_24_1057,ExactRep-v3-final,2021.2.3,59.95344004123734,
,,,,,,,,96,0,96,0,,,,,,,,,,,,,,,,,,,,,,,,,,,,,,,,,,,,,,,,,,,,,,,,,,,,,715.8155330000445,None,,,,,,,,,,,,,,,,,,,,,,,,,,,,,,,,,,,lord,92,97,aloud,blue,713.8135876003653,None,None,713.8135876003653,None,,,,,,,,,,,,,,,,,,,,,,,,,,,,,,51,001,2023_Apr_24_1057,ExactRep-v3-final,2021.2.3,59.95344004123734,
,,,,,,,,97,0,97,0,,,,,,,,,,,,,,,,,,,,,,,,,,,,,,,,,,,,,,,,,,,,,,,,,,,,,718.3179101999849,None,,,,,,,,,,,,,,,,,,,,,,,,,,,,,,,,,,,cabin,68,98,silent,red,716.3185866000131,None,None,716.3185866000131,None,,,,,,,,,,,,,,,,,,,,,,,,,,,,,,51,001,2023_Apr_24_1057,ExactRep-v3-final,2021.2.3,59.95344004123734,
,,,,,,,,98,0,98,0,,,,,,,,,,,,,,,,,,,,,,,,,,,,,,,,,,,,,,,,,,,,,,,,,,,,,720.8388820001855,None,,,,,,,,,,,,,,,,,,,,,,,,,,,,,,,,,,,soil,58,99,silent,red,718.8289051000029,None,None,718.8289051000029,None,,,,,,,,,,,,,,,,,,,,,,,,,,,,,,51,001,2023_Apr_24_1057,ExactRep-v3-final,2021.2.3,59.95344004123734,
,,,,,,,,99,0,99,0,,,,,,,,,,,,,,,,,,,,,,,,,,,,,,,,,,,,,,,,,,,,,,,,,,,,,723.3396094003692,None,,,,,,,,,,,,,,,,,,,,,,,,,,,,,,,,,,,hope,117,100,aloud,blue,721.3377231005579,None,None,721.3377231005579,None,,,,,,,,,,,,,,,,,,,,,,,,,,,,,,51,001,2023_Apr_24_1057,ExactRep-v3-final,2021.2.3,59.95344004123734,
,,,,,,,,100,0,100,0,,,,,,,,,,,,,,,,,,,,,,,,,,,,,,,,,,,,,,,,,,,,,,,,,,,,,725.8589276997373,None,,,,,,,,,,,,,,,,,,,,,,,,,,,,,,,,,,,justice,33,101,sing,white,723.8560891002417,None,None,723.8560891002417,None,,,,,,,,,,,,,,,,,,,,,,,,,,,,,,51,001,2023_Apr_24_1057,ExactRep-v3-final,2021.2.3,59.95344004123734,
,,,,,,,,101,0,101,0,,,,,,,,,,,,,,,,,,,,,,,,,,,,,,,,,,,,,,,,,,,,,,,,,,,,,728.3781182998791,None,,,,,,,,,,,,,,,,,,,,,,,,,,,,,,,,,,,sky,23,102,sing,white,726.3675356004387,None,None,726.3675356004387,None,,,,,,,,,,,,,,,,,,,,,,,,,,,,,,51,001,2023_Apr_24_1057,ExactRep-v3-final,2021.2.3,59.95344004123734,
,,,,,,,,102,0,102,0,,,,,,,,,,,,,,,,,,,,,,,,,,,,,,,,,,,,,,,,,,,,,,,,,,,,,730.8971038004383,None,,,,,,,,,,,,,,,,,,,,,,,,,,,,,,,,,,,hotel,49,103,silent,red,728.8907885998487,None,None,728.8907885998487,None,,,,,,,,,,,,,,,,,,,,,,,,,,,,,,51,001,2023_Apr_24_1057,ExactRep-v3-final,2021.2.3,59.95344004123734,
,,,,,,,,103,0,103,0,,,,,,,,,,,,,,,,,,,,,,,,,,,,,,,,,,,,,,,,,,,,,,,,,,,,,733.3995661996305,None,,,,,,,,,,,,,,,,,,,,,,,,,,,,,,,,,,,advice,101,104,aloud,blue,731.3976410003379,None,None,731.3976410003379,None,,,,,,,,,,,,,,,,,,,,,,,,,,,,,,51,001,2023_Apr_24_1057,ExactRep-v3-final,2021.2.3,59.95344004123734,
,,,,,,,,104,0,104,0,,,,,,,,,,,,,,,,,,,,,,,,,,,,,,,,,,,,,,,,,,,,,,,,,,,,,735.9023331999779,None,,,,,,,,,,,,,,,,,,,,,,,,,,,,,,,,,,,steam,32,105,sing,white,733.9016132997349,None,None,733.9016132997349,None,,,,,,,,,,,,,,,,,,,,,,,,,,,,,,51,001,2023_Apr_24_1057,ExactRep-v3-final,2021.2.3,59.95344004123734,
,,,,,,,,105,0,105,0,,,,,,,,,,,,,,,,,,,,,,,,,,,,,,,,,,,,,,,,,,,,,,,,,,,,,738.4048167997971,None,,,,,,,,,,,,,,,,,,,,,,,,,,,,,,,,,,,animal,72,106,silent,red,736.4041537996382,None,None,736.4041537996382,None,,,,,,,,,,,,,,,,,,,,,,,,,,,,,,51,001,2023_Apr_24_1057,ExactRep-v3-final,2021.2.3,59.95344004123734,
,,,,,,,,106,0,106,0,,,,,,,,,,,,,,,,,,,,,,,,,,,,,,,,,,,,,,,,,,,,,,,,,,,,,740.9238294996321,None,,,,,,,,,,,,,,,,,,,,,,,,,,,,,,,,,,,deed,112,107,aloud,blue,738.9093947997317,None,None,738.9093947997317,None,,,,,,,,,,,,,,,,,,,,,,,,,,,,,,51,001,2023_Apr_24_1057,ExactRep-v3-final,2021.2.3,59.95344004123734,
,,,,,,,,107,0,107,0,,,,,,,,,,,,,,,,,,,,,,,,,,,,,,,,,,,,,,,,,,,,,,,,,,,,,743.4430034998804,None,,,,,,,,,,,,,,,,,,,,,,,,,,,,,,,,,,,book,87,108,aloud,blue,741.4295621998608,None,None,741.4295621998608,None,,,,,,,,,,,,,,,,,,,,,,,,,,,,,,51,001,2023_Apr_24_1057,ExactRep-v3-final,2021.2.3,59.95344004123734,
,,,,,,,,108,0,108,0,,,,,,,,,,,,,,,,,,,,,,,,,,,,,,,,,,,,,,,,,,,,,,,,,,,,,745.9624576997012,None,,,,,,,,,,,,,,,,,,,,,,,,,,,,,,,,,,,boy,86,109,aloud,blue,743.9488471001387,None,None,743.9488471001387,None,,,,,,,,,,,,,,,,,,,,,,,,,,,,,,51,001,2023_Apr_24_1057,ExactRep-v3-final,2021.2.3,59.95344004123734,
,,,,,,,,109,0,109,0,,,,,,,,,,,,,,,,,,,,,,,,,,,,,,,,,,,,,,,,,,,,,,,,,,,,,748.4815608002245,None,,,,,,,,,,,,,,,,,,,,,,,,,,,,,,,,,,,anger,25,110,sing,white,746.4674776997417,None,None,746.4674776997417,None,,,,,,,,,,,,,,,,,,,,,,,,,,,,,,51,001,2023_Apr_24_1057,ExactRep-v3-final,2021.2.3,59.95344004123734,
,,,,,,,,110,0,110,0,,,,,,,,,,,,,,,,,,,,,,,,,,,,,,,,,,,,,,,,,,,,,,,,,,,,,751.0008158003911,None,,,,,,,,,,,,,,,,,,,,,,,,,,,,,,,,,,,fault,9,111,sing,white,748.986748999916,None,None,748.986748999916,None,,,,,,,,,,,,,,,,,,,,,,,,,,,,,,51,001,2023_Apr_24_1057,ExactRep-v3-final,2021.2.3,59.95344004123734,
,,,,,,,,111,0,111,0,,,,,,,,,,,,,,,,,,,,,,,,,,,,,,,,,,,,,,,,,,,,,,,,,,,,,753.5031305002049,None,,,,,,,,,,,,,,,,,,,,,,,,,,,,,,,,,,,lad,61,112,silent,red,751.5021620998159,None,None,751.5021620998159,None,,,,,,,,,,,,,,,,,,,,,,,,,,,,,,51,001,2023_Apr_24_1057,ExactRep-v3-final,2021.2.3,59.95344004123734,
,,,,,,,,112,0,112,0,,,,,,,,,,,,,,,,,,,,,,,,,,,,,,,,,,,,,,,,,,,,,,,,,,,,,756.0057185003534,None,,,,,,,,,,,,,,,,,,,,,,,,,,,,,,,,,,,cost,19,113,sing,white,754.0035846000537,None,None,754.0035846000537,None,,,,,,,,,,,,,,,,,,,,,,,,,,,,,,51,001,2023_Apr_24_1057,ExactRep-v3-final,2021.2.3,59.95344004123734,
,,,,,,,,113,0,113,0,,,,,,,,,,,,,,,,,,,,,,,,,,,,,,,,,,,,,,,,,,,,,,,,,,,,,758.5251251002774,None,,,,,,,,,,,,,,,,,,,,,,,,,,,,,,,,,,,girl,26,114,sing,white,756.5142475003377,None,None,756.5142475003377,None,,,,,,,,,,,,,,,,,,,,,,,,,,,,,,51,001,2023_Apr_24_1057,ExactRep-v3-final,2021.2.3,59.95344004123734,
,,,,,,,,114,0,114,0,,,,,,,,,,,,,,,,,,,,,,,,,,,,,,,,,,,,,,,,,,,,,,,,,,,,,761.0272669997066,None,,,,,,,,,,,,,,,,,,,,,,,,,,,,,,,,,,,dust,114,115,aloud,blue,759.0254383999854,None,None,759.0254383999854,None,,,,,,,,,,,,,,,,,,,,,,,,,,,,,,51,001,2023_Apr_24_1057,ExactRep-v3-final,2021.2.3,59.95344004123734,
,,,,,,,,115,0,115,0,,,,,,,,,,,,,,,,,,,,,,,,,,,,,,,,,,,,,,,,,,,,,,,,,,,,,763.5465967003256,None,,,,,,,,,,,,,,,,,,,,,,,,,,,,,,,,,,,water,66,116,silent,red,761.5359891001135,None,None,761.5359891001135,None,,,,,,,,,,,,,,,,,,,,,,,,,,,,,,51,001,2023_Apr_24_1057,ExactRep-v3-final,2021.2.3,59.95344004123734,
,,,,,,,,116,0,116,0,,,,,,,,,,,,,,,,,,,,,,,,,,,,,,,,,,,,,,,,,,,,,,,,,,,,,766.0491164000705,None,,,,,,,,,,,,,,,,,,,,,,,,,,,,,,,,,,,fun,34,117,sing,white,764.0469011999667,None,None,764.0469011999667,None,,,,,,,,,,,,,,,,,,,,,,,,,,,,,,51,001,2023_Apr_24_1057,ExactRep-v3-final,2021.2.3,59.95344004123734,
,,,,,,,,117,0,117,0,,,,,,,,,,,,,,,,,,,,,,,,,,,,,,,,,,,,,,,,,,,,,,,,,,,,,768.5515676997602,None,,,,,,,,,,,,,,,,,,,,,,,,,,,,,,,,,,,forest,108,118,aloud,blue,766.5524075999856,None,None,766.5524075999856,None,,,,,,,,,,,,,,,,,,,,,,,,,,,,,,51,001,2023_Apr_24_1057,ExactRep-v3-final,2021.2.3,59.95344004123734,
,,,,,,,,118,0,118,0,,,,,,,,,,,,,,,,,,,,,,,,,,,,,,,,,,,,,,,,,,,,,,,,,,,,,771.0541538000107,None,,,,,,,,,,,,,,,,,,,,,,,,,,,,,,,,,,,vessel,12,119,sing,white,769.0535875996575,None,None,769.0535875996575,None,,,,,,,,,,,,,,,,,,,,,,,,,,,,,,51,001,2023_Apr_24_1057,ExactRep-v3-final,2021.2.3,59.95344004123734,
,,,,,,,,119,0,119,0,,,,,,,,,,,,,,,,,,,,,,,,,,,,,,,,,,,,,,,,,,,,,,,,,,,,,773.5733353998512,None,,,,,,,,,,,,,,,,,,,,,,,,,,,,,,,,,,,factory,74,120,silent,red,771.5579193001613,None,None,771.5579193001613,None,,,,,,,,,,,,,,,,,,,,,,,,,,,,,,51,001,2023_Apr_24_1057,ExactRep-v3-final,2021.2.3,59.95344004123734,
,,,,,,,,,,,,,,,,,,,,,,,,,,,,,,,,,,,,,,,,,,,,,,,,,,,,,,,,,,,,,,,,,,,,,,,,,,,,,,,,,,,,,,,,,,,,,,,,,,,,,,,,,,,,,,774.0753480996937,None,space,0.9274932993575931,784.0516416002065,None,,,,,,,,,,,,,,,,,,,,,,,,51,001,2023_Apr_24_1057,ExactRep-v3-final,2021.2.3,59.95344004123734,
,,,,,,,,,,,,,,,,,,,,,,,,,,,,,,,,,,,,,,,,,,,,,,,,,,,,,,,,,,,,,,,,,,,,,,,,,,,,,,,,,,,,,,,,,,,,,,,,,,,,,,,,,,,,,,,,,,,,785.0032496005297,None,space,26.359543999657035,794.9795172996819,None,,,,,,,,,,,,,,,,,,51,001,2023_Apr_24_1057,ExactRep-v3-final,2021.2.3,59.95344004123734,
,,,,,,,,,,,,0,0,0,0,,,,,,,,,,,,,,,,,,,,,,,,,,,,,,,,,,,,,,,,,,,,,,,,,826.6262487005442,None,,,,,,,,,,,,,,,,,,,,,,,,,,,,,,,,,,,,,,,,,,,,,,,,,,,,,,,,,horse,45,1,silent,old,red,821.8714971998706,None,n,821.8714971998706,None,"['n', 'return']","[3.3552085999399424, 4.723229099996388]",821.8714971998706,None,,,51,001,2023_Apr_24_1057,ExactRep-v3-final,2021.2.3,59.95344004123734,
,,,,,,,,,,,,1,0,1,0,,,,,,,,,,,,,,,,,,,,,,,,,,,,,,,,,,,,,,,,,,,,,,,,,833.1993909999728,None,,,,,,,,,,,,,,,,,,,,,,,,,,,,,,,,,,,,,,,,,,,,,,,,,,,,,,,,,effort,67,2,silent,old,red,827.1291912002489,None,y,827.1291912002489,None,"['y', 'return']","[4.849667700007558, 6.033511999994516]",827.1291912002489,None,,,51,001,2023_Apr_24_1057,ExactRep-v3-final,2021.2.3,59.95344004123734,
,,,,,,,,,,,,2,0,2,0,,,,,,,,,,,,,,,,,,,,,,,,,,,,,,,,,,,,,,,,,,,,,,,,,838.5548579003662,None,,,,,,,,,,,,,,,,,,,,,,,,,,,,,,,,,,,,,,,,,,,,,,,,,,,,,,,,,fact,217,3,sing,new,white,833.7084605004638,None,n,833.7084605004638,None,"['n', 'return']","[3.7982377000153065, 4.798257499933243]",833.7084605004638,None,,,51,001,2023_Apr_24_1057,ExactRep-v3-final,2021.2.3,59.95344004123734,
,,,,,,,,,,,,3,0,3,0,,,,,,,,,,,,,,,,,,,,,,,,,,,,,,,,,,,,,,,,,,,,,,,,,841.6580819999799,None,,,,,,,,,,,,,,,,,,,,,,,,,,,,,,,,,,,,,,,,,,,,,,,,,,,,,,,,,breast,159,4,silent,new,red,839.0718491999432,None,n,839.0718491999432,None,"['n', 'return']","[1.346871799789369, 2.5471935998648405]",839.0718491999432,None,,,51,001,2023_Apr_24_1057,ExactRep-v3-final,2021.2.3,59.95344004123734,
,,,,,,,,,,,,4,0,4,0,,,,,,,,,,,,,,,,,,,,,,,,,,,,,,,,,,,,,,,,,,,,,,,,,844.4108122996986,None,,,,,,,,,,,,,,,,,,,,,,,,,,,,,,,,,,,,,,,,,,,,,,,,,,,,,,,,,virtue,141,5,silent,new,red,842.172801299952,None,n,842.172801299952,None,"['n', 'return']","[1.2938692001625896, 2.1898355009034276]",842.172801299952,None,,,51,001,2023_Apr_24_1057,ExactRep-v3-final,2021.2.3,59.95344004123734,
,,,,,,,,,,,,5,0,5,0,,,,,,,,,,,,,,,,,,,,,,,,,,,,,,,,,,,,,,,,,,,,,,,,,848.7984754005447,None,,,,,,,,,,,,,,,,,,,,,,,,,,,,,,,,,,,,,,,,,,,,,,,,,,,,,,,,,student,233,6,sing,new,white,844.9205649001524,None,n,844.9205649001524,None,"['n', 'return']","[3.1701512997969985, 3.834092100150883]",844.9205649001524,None,,,51,001,2023_Apr_24_1057,ExactRep-v3-final,2021.2.3,59.95344004123734,
,,,,,,,,,,,,6,0,6,0,,,,,,,,,,,,,,,,,,,,,,,,,,,,,,,,,,,,,,,,,,,,,,,,,851.5678725996986,None,,,,,,,,,,,,,,,,,,,,,,,,,,,,,,,,,,,,,,,,,,,,,,,,,,,,,,,,,troops,126,7,silent,new,red,849.3024121997878,None,n,849.3024121997878,None,"['n', 'return']","[1.5724099995568395, 2.228387299925089]",849.3024121997878,None,,,51,001,2023_Apr_24_1057,ExactRep-v3-final,2021.2.3,59.95344004123734,
,,,,,,,,,,,,7,0,7,0,,,,,,,,,,,,,,,,,,,,,,,,,,,,,,,,,,,,,,,,,,,,,,,,,860.159774100408,None,,,,,,,,,,,,,,,,,,,,,,,,,,,,,,,,,,,,,,,,,,,,,,,,,,,,,,,,,fur,105,8,aloud,old,blue,852.0777395004407,None,y,852.0777395004407,None,"['y', 'return']","[7.452974699437618, 8.037038799375296]",852.0777395004407,None,,,51,001,2023_Apr_24_1057,ExactRep-v3-final,2021.2.3,59.95344004123734,
,,,,,,,,,,,,8,0,8,0,,,,,,,,,,,,,,,,,,,,,,,,,,,,,,,,,,,,,,,,,,,,,,,,,862.8459339998662,None,,,,,,,,,,,,,,,,,,,,,,,,,,,,,,,,,,,,,,,,,,,,,,,,,,,,,,,,,murder,158,9,silent,new,red,860.6708409003913,None,n,860.6708409003913,None,"['n', 'return']","[1.851926300674677, 2.131857800297439]",860.6708409003913,None,,,51,001,2023_Apr_24_1057,ExactRep-v3-final,2021.2.3,59.95344004123734,
,,,,,,,,,,,,9,0,9,0,,,,,,,,,,,,,,,,,,,,,,,,,,,,,,,,,,,,,,,,,,,,,,,,,865.1814395003021,None,,,,,,,,,,,,,,,,,,,,,,,,,,,,,,,,,,,,,,,,,,,,,,,,,,,,,,,,,pole,203,10,sing,new,white,863.3542585000396,None,n,863.3542585000396,None,"['n', 'return']","[1.504730999469757, 1.7845177995041013]",863.3542585000396,None,,,51,001,2023_Apr_24_1057,ExactRep-v3-final,2021.2.3,59.95344004123734,
,,,,,,,,,,,,10,0,10,0,,,,,,,,,,,,,,,,,,,,,,,,,,,,,,,,,,,,,,,,,,,,,,,,,868.1843852000311,None,,,,,,,,,,,,,,,,,,,,,,,,,,,,,,,,,,,,,,,,,,,,,,,,,,,,,,,,,pipe,41,11,silent,old,red,865.6904175002128,None,n,865.6904175002128,None,"['n', 'return']","[2.032285099849105, 2.456348800100386]",865.6904175002128,None,,,51,001,2023_Apr_24_1057,ExactRep-v3-final,2021.2.3,59.95344004123734,
,,,,,,,,,,,,11,0,11,0,,,,,,,,,,,,,,,,,,,,,,,,,,,,,,,,,,,,,,,,,,,,,,,,,871.9561047004536,None,,,,,,,,,,,,,,,,,,,,,,,,,,,,,,,,,,,,,,,,,,,,,,,,,,,,,,,,,body,195,12,sing,new,white,868.6953789005056,None,n,868.6953789005056,None,"['n', 'return']","[2.475467199459672, 3.2274318002164364]",868.6953789005056,None,,,51,001,2023_Apr_24_1057,ExactRep-v3-final,2021.2.3,59.95344004123734,
,,,,,,,,,,,,12,0,12,0,,,,,,,,,,,,,,,,,,,,,,,,,,,,,,,,,,,,,,,,,,,,,,,,,874.6409179996699,None,,,,,,,,,,,,,,,,,,,,,,,,,,,,,,,,,,,,,,,,,,,,,,,,,,,,,,,,,master,226,13,aloud,new,blue,872.4643253004178,None,n,872.4643253004178,None,"['n', 'return']","[1.354678500443697, 2.1384065002202988]",872.4643253004178,None,,,51,001,2023_Apr_24_1057,ExactRep-v3-final,2021.2.3,59.95344004123734,
,,,,,,,,,,,,13,0,13,0,,,,,,,,,,,,,,,,,,,,,,,,,,,,,,,,,,,,,,,,,,,,,,,,,876.4094954002649,None,,,,,,,,,,,,,,,,,,,,,,,,,,,,,,,,,,,,,,,,,,,,,,,,,,,,,,,,,safety,206,14,aloud,new,blue,875.1508085997775,None,n,875.1508085997775,None,"['n', 'return']","[1.0759739000350237, 1.2119877999648452]",875.1508085997775,None,,,51,001,2023_Apr_24_1057,ExactRep-v3-final,2021.2.3,59.95344004123734,
,,,,,,,,,,,,14,0,14,0,,,,,,,,,,,,,,,,,,,,,,,,,,,,,,,,,,,,,,,,,,,,,,,,,878.6448403997347,None,,,,,,,,,,,,,,,,,,,,,,,,,,,,,,,,,,,,,,,,,,,,,,,,,,,,,,,,,tree,185,15,sing,new,white,876.9186826003715,None,n,876.9186826003715,None,"['n', 'return']","[1.3240795005112886, 1.6920237001031637]",876.9186826003715,None,,,51,001,2023_Apr_24_1057,ExactRep-v3-final,2021.2.3,59.95344004123734,
,,,,,,,,,,,,15,0,15,0,,,,,,,,,,,,,,,,,,,,,,,,,,,,,,,,,,,,,,,,,,,,,,,,,880.1964789004996,None,,,,,,,,,,,,,,,,,,,,,,,,,,,,,,,,,,,,,,,,,,,,,,,,,,,,,,,,,engine,208,16,aloud,new,blue,879.1524417996407,None,n,879.1524417996407,None,"['n', 'return']","[0.6585857002064586, 1.0101773999631405]",879.1524417996407,None,,,51,001,2023_Apr_24_1057,ExactRep-v3-final,2021.2.3,59.95344004123734,
,,,,,,,,,,,,16,0,16,0,,,,,,,,,,,,,,,,,,,,,,,,,,,,,,,,,,,,,,,,,,,,,,,,,881.8648055996746,None,,,,,,,,,,,,,,,,,,,,,,,,,,,,,,,,,,,,,,,,,,,,,,,,,,,,,,,,,storm,142,17,silent,new,red,880.7046154001728,None,n,880.7046154001728,None,"['n', 'return']","[0.7462243000045419, 1.1221779994666576]",880.7046154001728,None,,,51,001,2023_Apr_24_1057,ExactRep-v3-final,2021.2.3,59.95344004123734,
,,,,,,,,,,,,17,0,17,0,,,,,,,,,,,,,,,,,,,,,,,,,,,,,,,,,,,,,,,,,,,,,,,,,884.3005408998579,None,,,,,,,,,,,,,,,,,,,,,,,,,,,,,,,,,,,,,,,,,,,,,,,,,,,,,,,,,grief,111,18,aloud,old,blue,882.3662783997133,None,y,882.3662783997133,None,"['y', 'return']","[1.5805935999378562, 1.9004164999350905]",882.3662783997133,None,,,51,001,2023_Apr_24_1057,ExactRep-v3-final,2021.2.3,59.95344004123734,
,,,,,,,,,,,,18,0,18,0,,,,,,,,,,,,,,,,,,,,,,,,,,,,,,,,,,,,,,,,,,,,,,,,,887.1702503999695,None,,,,,,,,,,,,,,,,,,,,,,,,,,,,,,,,,,,,,,,,,,,,,,,,,,,,,,,,,trouble,197,19,sing,new,white,884.809817600064,None,n,884.809817600064,None,"['n', 'return']","[2.033026199787855, 2.312953899614513]",884.809817600064,None,,,51,001,2023_Apr_24_1057,ExactRep-v3-final,2021.2.3,59.95344004123734,
,,,,,,,,,,,,19,0,19,0,,,,,,,,,,,,,,,,,,,,,,,,,,,,,,,,,,,,,,,,,,,,,,,,,889.0719279004261,None,,,,,,,,,,,,,,,,,,,,,,,,,,,,,,,,,,,,,,,,,,,,,,,,,,,,,,,,,cash,85,20,aloud,old,blue,887.6815875004977,None,y,887.6815875004977,None,"['y', 'return']","[1.0252573993057013, 1.3452137000858784]",887.6815875004977,None,,,51,001,2023_Apr_24_1057,ExactRep-v3-final,2021.2.3,59.95344004123734,
,,,,,,,,,,,,20,0,20,0,,,,,,,,,,,,,,,,,,,,,,,,,,,,,,,,,,,,,,,,,,,,,,,,,891.4577174000442,None,,,,,,,,,,,,,,,,,,,,,,,,,,,,,,,,,,,,,,,,,,,,,,,,,,,,,,,,,fire,130,21,silent,new,red,889.5723772002384,None,n,889.5723772002384,None,"['n', 'return']","[1.5423976005986333, 1.838391400873661]",889.5723772002384,None,,,51,001,2023_Apr_24_1057,ExactRep-v3-final,2021.2.3,59.95344004123734,
,,,,,,,,,,,,21,0,21,0,,,,,,,,,,,,,,,,,,,,,,,,,,,,,,,,,,,,,,,,,,,,,,,,,895.6119732996449,None,,,,,,,,,,,,,,,,,,,,,,,,,,,,,,,,,,,,,,,,,,,,,,,,,,,,,,,,,hope,117,22,aloud,old,blue,891.9708374002948,None,n,891.9708374002948,None,"['n', 'return']","[2.239880600012839, 3.607950800098479]",891.9708374002948,None,,,51,001,2023_Apr_24_1057,ExactRep-v3-final,2021.2.3,59.95344004123734,
,,,,,,,,,,,,22,0,22,0,,,,,,,,,,,,,,,,,,,,,,,,,,,,,,,,,,,,,,,,,,,,,,,,,898.9985891999677,None,,,,,,,,,,,,,,,,,,,,,,,,,,,,,,,,,,,,,,,,,,,,,,,,,,,,,,,,,chance,234,23,aloud,new,blue,896.121714499779,None,n,896.121714499779,None,"['n', 'return']","[2.5850138999521732, 2.8329702001065016]",896.121714499779,None,,,51,001,2023_Apr_24_1057,ExactRep-v3-final,2021.2.3,59.95344004123734,
,,,,,,,,,,,,23,0,23,0,,,,,,,,,,,,,,,,,,,,,,,,,,,,,,,,,,,,,,,,,,,,,,,,,900.5503289001063,None,,,,,,,,,,,,,,,,,,,,,,,,,,,,,,,,,,,,,,,,,,,,,,,,,,,,,,,,,honour,238,24,aloud,new,blue,899.5085728997365,None,n,899.5085728997365,None,"['n', 'return']","[0.7662166003137827, 1.006296000443399]",899.5085728997365,None,,,51,001,2023_Apr_24_1057,ExactRep-v3-final,2021.2.3,59.95344004123734,
,,,,,,,,,,,,24,0,24,0,,,,,,,,,,,,,,,,,,,,,,,,,,,,,,,,,,,,,,,,,,,,,,,,,902.151778800413,None,,,,,,,,,,,,,,,,,,,,,,,,,,,,,,,,,,,,,,,,,,,,,,,,,,,,,,,,,artist,223,25,sing,new,white,901.0631585000083,None,n,901.0631585000083,None,"['n', 'return']","[0.8275167997926474, 1.051613800227642]",901.0631585000083,None,,,51,001,2023_Apr_24_1057,ExactRep-v3-final,2021.2.3,59.95344004123734,
,,,,,,,,,,,,25,0,25,0,,,,,,,,,,,,,,,,,,,,,,,,,,,,,,,,,,,,,,,,,,,,,,,,,903.5864917002618,None,,,,,,,,,,,,,,,,,,,,,,,,,,,,,,,,,,,,,,,,,,,,,,,,,,,,,,,,,market,169,26,sing,new,white,902.6598017001525,None,n,902.6598017001525,None,"['n', 'return']","[0.6231411006301641, 0.8789844000712037]",902.6598017001525,None,,,51,001,2023_Apr_24_1057,ExactRep-v3-final,2021.2.3,59.95344004123734,
,,,,,,,,,,,,26,0,26,0,,,,,,,,,,,,,,,,,,,,,,,,,,,,,,,,,,,,,,,,,,,,,,,,,905.6219003004953,None,,,,,,,,,,,,,,,,,,,,,,,,,,,,,,,,,,,,,,,,,,,,,,,,,,,,,,,,,sky,23,27,sing,old,white,904.0966721996665,None,y,904.0966721996665,None,"['y', 'return']","[1.2740422999486327, 1.490012800320983]",904.0966721996665,None,,,51,001,2023_Apr_24_1057,ExactRep-v3-final,2021.2.3,59.95344004123734,
,,,,,,,,,,,,27,0,27,0,,,,,,,,,,,,,,,,,,,,,,,,,,,,,,,,,,,,,,,,,,,,,,,,,908.8918294999748,None,,,,,,,,,,,,,,,,,,,,,,,,,,,,,,,,,,,,,,,,,,,,,,,,,,,,,,,,,thought,27,28,sing,old,white,906.131705599837,None,y,906.131705599837,None,"['y', 'return']","[2.1671505998820066, 2.7190838996320963]",906.131705599837,None,,,51,001,2023_Apr_24_1057,ExactRep-v3-final,2021.2.3,59.95344004123734,
,,,,,,,,,,,,28,0,28,0,,,,,,,,,,,,,,,,,,,,,,,,,,,,,,,,,,,,,,,,,,,,,,,,,910.8771614003927,None,,,,,,,,,,,,,,,,,,,,,,,,,,,,,,,,,,,,,,,,,,,,,,,,,,,,,,,,,author,44,29,silent,old,red,909.392501800321,None,n,909.392501800321,None,"['n', 'return']","[1.338489099405706, 1.4502775995060802]",909.392501800321,None,,,51,001,2023_Apr_24_1057,ExactRep-v3-final,2021.2.3,59.95344004123734,
,,,,,,,,,,,,29,0,29,0,,,,,,,,,,,,,,,,,,,,,,,,,,,,,,,,,,,,,,,,,,,,,,,,,912.812336999923,None,,,,,,,,,,,,,,,,,,,,,,,,,,,,,,,,,,,,,,,,,,,,,,,,,,,,,,,,,valley,186,30,aloud,new,blue,911.3854870004579,None,n,911.3854870004579,None,"['n', 'return']","[1.1052663996815681, 1.385368099436164]",911.3854870004579,None,,,51,001,2023_Apr_24_1057,ExactRep-v3-final,2021.2.3,59.95344004123734,
,,,,,,,,,,,,30,0,30,0,,,,,,,,,,,,,,,,,,,,,,,,,,,,,,,,,,,,,,,,,,,,,,,,,924.2070781998336,None,,,,,,,,,,,,,,,,,,,,,,,,,,,,,,,,,,,,,,,,,,,,,,,,,,,,,,,,,factory,74,31,silent,old,red,913.3221084000543,None,n,913.3221084000543,None,"['n', 'return']","[10.616678299382329, 10.848764799535275]",913.3221084000543,None,,,51,001,2023_Apr_24_1057,ExactRep-v3-final,2021.2.3,59.95344004123734,
,,,,,,,,,,,,31,0,31,0,,,,,,,,,,,,,,,,,,,,,,,,,,,,,,,,,,,,,,,,,,,,,,,,,925.5583749003708,None,,,,,,,,,,,,,,,,,,,,,,,,,,,,,,,,,,,,,,,,,,,,,,,,,,,,,,,,,season,60,32,silent,old,red,924.7099607000127,None,n,924.7099607000127,None,"['n', 'return']","[0.5968193002045155, 0.8128390004858375]",924.7099607000127,None,,,51,001,2023_Apr_24_1057,ExactRep-v3-final,2021.2.3,59.95344004123734,
,,,,,,,,,,,,32,0,32,0,,,,,,,,,,,,,,,,,,,,,,,,,,,,,,,,,,,,,,,,,,,,,,,,,926.9599337996915,None,,,,,,,,,,,,,,,,,,,,,,,,,,,,,,,,,,,,,,,,,,,,,,,,,,,,,,,,,blood,175,33,sing,new,white,926.0708648003638,None,n,926.0708648003638,None,"['n', 'return']","[0.6278846999630332, 0.8519433001056314]",926.0708648003638,None,,,51,001,2023_Apr_24_1057,ExactRep-v3-final,2021.2.3,59.95344004123734,
,,,,,,,,,,,,33,0,33,0,,,,,,,,,,,,,,,,,,,,,,,,,,,,,,,,,,,,,,,,,,,,,,,,,929.045334899798,None,,,,,,,,,,,,,,,,,,,,,,,,,,,,,,,,,,,,,,,,,,,,,,,,,,,,,,,,,skin,6,34,sing,old,white,927.4693833999336,None,y,927.4693833999336,None,"['y', 'return']","[1.237363399937749, 1.533415799960494]",927.4693833999336,None,,,51,001,2023_Apr_24_1057,ExactRep-v3-final,2021.2.3,59.95344004123734,
,,,,,,,,,,,,34,0,34,0,,,,,,,,,,,,,,,,,,,,,,,,,,,,,,,,,,,,,,,,,,,,,,,,,932.3486158000305,None,,,,,,,,,,,,,,,,,,,,,,,,,,,,,,,,,,,,,,,,,,,,,,,,,,,,,,,,,excuse,196,35,aloud,new,blue,929.5545180998743,None,y,929.5545180998743,None,"['y', 'return']","[2.4162470996379852, 2.7522933995351195]",929.5545180998743,None,,,51,001,2023_Apr_24_1057,ExactRep-v3-final,2021.2.3,59.95344004123734,
,,,,,,,,,,,,35,0,35,0,,,,,,,,,,,,,,,,,,,,,,,,,,,,,,,,,,,,,,,,,,,,,,,,,934.4674129998311,None,,,,,,,,,,,,,,,,,,,,,,,,,,,,,,,,,,,,,,,,,,,,,,,,,,,,,,,,,fortune,124,36,silent,new,red,932.8585061999038,None,n,932.8585061999038,None,"['n', 'return']","[1.424198499880731, 1.5684215994551778]",932.8585061999038,None,,,51,001,2023_Apr_24_1057,ExactRep-v3-final,2021.2.3,59.95344004123734,
,,,,,,,,,,,,36,0,36,0,,,,,,,,,,,,,,,,,,,,,,,,,,,,,,,,,,,,,,,,,,,,,,,,,936.4693379001692,None,,,,,,,,,,,,,,,,,,,,,,,,,,,,,,,,,,,,,,,,,,,,,,,,,,,,,,,,,cost,19,37,sing,old,white,934.976509200409,None,y,934.976509200409,None,"['y', 'return']","[1.3062852006405592, 1.458220100030303]",934.976509200409,None,,,51,001,2023_Apr_24_1057,ExactRep-v3-final,2021.2.3,59.95344004123734,
,,,,,,,,,,,,37,0,37,0,,,,,,,,,,,,,,,,,,,,,,,,,,,,,,,,,,,,,,,,,,,,,,,,,938.4215756999329,None,,,,,,,,,,,,,,,,,,,,,,,,,,,,,,,,,,,,,,,,,,,,,,,,,,,,,,,,,prison,212,38,aloud,new,blue,936.97524430044,None,n,936.97524430044,None,"['n', 'return']","[1.2116640005260706, 1.4034878006204963]",936.97524430044,None,,,51,001,2023_Apr_24_1057,ExactRep-v3-final,2021.2.3,59.95344004123734,
,,,,,,,,,,,,38,0,38,0,,,,,,,,,,,,,,,,,,,,,,,,,,,,,,,,,,,,,,,,,,,,,,,,,940.2397234998643,None,,,,,,,,,,,,,,,,,,,,,,,,,,,,,,,,,,,,,,,,,,,,,,,,,,,,,,,,,hotel,49,39,silent,old,red,938.931749000214,None,n,938.931749000214,None,"['n', 'return']","[0.9670460000634193, 1.263047999702394]",938.931749000214,None,,,51,001,2023_Apr_24_1057,ExactRep-v3-final,2021.2.3,59.95344004123734,
,,,,,,,,,,,,39,0,39,0,,,,,,,,,,,,,,,,,,,,,,,,,,,,,,,,,,,,,,,,,,,,,,,,,941.8249156996608,None,,,,,,,,,,,,,,,,,,,,,,,,,,,,,,,,,,,,,,,,,,,,,,,,,,,,,,,,,cat,216,40,aloud,new,blue,940.7514444999397,None,n,940.7514444999397,None,"['n', 'return']","[0.8834872003644705, 1.0356147000566125]",940.7514444999397,None,,,51,001,2023_Apr_24_1057,ExactRep-v3-final,2021.2.3,59.95344004123734,
,,,,,,,,,,,,40,0,40,0,,,,,,,,,,,,,,,,,,,,,,,,,,,,,,,,,,,,,,,,,,,,,,,,,943.5931740999222,None,,,,,,,,,,,,,,,,,,,,,,,,,,,,,,,,,,,,,,,,,,,,,,,,,,,,,,,,,lord,92,41,aloud,old,blue,942.3406408000737,None,y,942.3406408000737,None,"['y', 'return']","[1.0861889999359846, 1.2142118997871876]",942.3406408000737,None,,,51,001,2023_Apr_24_1057,ExactRep-v3-final,2021.2.3,59.95344004123734,
,,,,,,,,,,,,41,0,41,0,,,,,,,,,,,,,,,,,,,,,,,,,,,,,,,,,,,,,,,,,,,,,,,,,945.344878599979,None,,,,,,,,,,,,,,,,,,,,,,,,,,,,,,,,,,,,,,,,,,,,,,,,,,,,,,,,,mother,144,42,silent,new,red,944.104169299826,None,n,944.104169299826,None,"['n', 'return']","[1.0585324000567198, 1.1947633000090718]",944.104169299826,None,,,51,001,2023_Apr_24_1057,ExactRep-v3-final,2021.2.3,59.95344004123734,
,,,,,,,,,,,,42,0,42,0,,,,,,,,,,,,,,,,,,,,,,,,,,,,,,,,,,,,,,,,,,,,,,,,,946.7295618997887,None,,,,,,,,,,,,,,,,,,,,,,,,,,,,,,,,,,,,,,,,,,,,,,,,,,,,,,,,,power,147,43,silent,new,red,945.8540885001421,None,n,945.8540885001421,None,"['n', 'return']","[0.6206911001354456, 0.836786400526762]",945.8540885001421,None,,,51,001,2023_Apr_24_1057,ExactRep-v3-final,2021.2.3,59.95344004123734,
,,,,,,,,,,,,43,0,43,0,,,,,,,,,,,,,,,,,,,,,,,,,,,,,,,,,,,,,,,,,,,,,,,,,948.4813198996708,None,,,,,,,,,,,,,,,,,,,,,,,,,,,,,,,,,,,,,,,,,,,,,,,,,,,,,,,,,car,167,44,sing,new,white,947.2355450000614,None,n,947.2355450000614,None,"['n', 'return']","[1.0712448004633188, 1.1993233002722263]",947.2355450000614,None,,,51,001,2023_Apr_24_1057,ExactRep-v3-final,2021.2.3,59.95344004123734,
,,,,,,,,,,,,44,0,44,0,,,,,,,,,,,,,,,,,,,,,,,,,,,,,,,,,,,,,,,,,,,,,,,,,950.1663592001423,None,,,,,,,,,,,,,,,,,,,,,,,,,,,,,,,,,,,,,,,,,,,,,,,,,,,,,,,,,city,236,45,aloud,new,blue,948.9915215997025,None,n,948.9915215997025,None,"['n', 'return']","[0.9951900998130441, 1.1394416997209191]",948.9915215997025,None,,,51,001,2023_Apr_24_1057,ExactRep-v3-final,2021.2.3,59.95344004123734,
,,,,,,,,,,,,45,0,45,0,,,,,,,,,,,,,,,,,,,,,,,,,,,,,,,,,,,,,,,,,,,,,,,,,957.2901595998555,None,,,,,,,,,,,,,,,,,,,,,,,,,,,,,,,,,,,,,,,,,,,,,,,,,,,,,,,,,kiss,56,46,silent,old,red,950.6772541003302,None,y,950.6772541003302,None,"['n', 'y', 'backspace', 'y', 'return']","[2.2375619001686573, 3.5495290998369455, 4.965660499408841, 5.429605700075626, 6.573584999889135]",950.6772541003302,None,,,51,001,2023_Apr_24_1057,ExactRep-v3-final,2021.2.3,59.95344004123734,
,,,,,,,,,,,,46,0,46,0,,,,,,,,,,,,,,,,,,,,,,,,,,,,,,,,,,,,,,,,,,,,,,,,,959.2086954005063,None,,,,,,,,,,,,,,,,,,,,,,,,,,,,,,,,,,,,,,,,,,,,,,,,,,,,,,,,,gift,220,47,aloud,new,blue,957.7943497002125,None,n,957.7943497002125,None,"['n', 'return']","[1.1764505999162793, 1.3766347002238035]",957.7943497002125,None,,,51,001,2023_Apr_24_1057,ExactRep-v3-final,2021.2.3,59.95344004123734,
,,,,,,,,,,,,47,0,47,0,,,,,,,,,,,,,,,,,,,,,,,,,,,,,,,,,,,,,,,,,,,,,,,,,961.4778155004606,None,,,,,,,,,,,,,,,,,,,,,,,,,,,,,,,,,,,,,,,,,,,,,,,,,,,,,,,,,picture,73,48,silent,old,red,959.7169396998361,None,n,959.7169396998361,None,"['n', 'return']","[1.63785620033741, 1.7260764995589852]",959.7169396998361,None,,,51,001,2023_Apr_24_1057,ExactRep-v3-final,2021.2.3,59.95344004123734,
,,,,,,,,,,,,48,0,48,0,,,,,,,,,,,,,,,,,,,,,,,,,,,,,,,,,,,,,,,,,,,,,,,,,963.1960158003494,None,,,,,,,,,,,,,,,,,,,,,,,,,,,,,,,,,,,,,,,,,,,,,,,,,,,,,,,,,plain,180,49,aloud,new,blue,961.9816971002147,None,n,961.9816971002147,None,"['n', 'return']","[1.0370640000328422, 1.1812148001044989]",961.9816971002147,None,,,51,001,2023_Apr_24_1057,ExactRep-v3-final,2021.2.3,59.95344004123734,
,,,,,,,,,,,,49,0,49,0,,,,,,,,,,,,,,,,,,,,,,,,,,,,,,,,,,,,,,,,,,,,,,,,,964.5809366004542,None,,,,,,,,,,,,,,,,,,,,,,,,,,,,,,,,,,,,,,,,,,,,,,,,,,,,,,,,,charm,230,50,aloud,new,blue,963.7013723999262,None,n,963.7013723999262,None,"['n', 'return']","[0.6455902000889182, 0.8374595008790493]",963.7013723999262,None,,,51,001,2023_Apr_24_1057,ExactRep-v3-final,2021.2.3,59.95344004123734,
,,,,,,,,,,,,50,0,50,0,,,,,,,,,,,,,,,,,,,,,,,,,,,,,,,,,,,,,,,,,,,,,,,,,966.2824406996369,None,,,,,,,,,,,,,,,,,,,,,,,,,,,,,,,,,,,,,,,,,,,,,,,,,,,,,,,,,freedom,11,51,sing,old,white,965.0991316996515,None,y,965.0991316996515,None,"['y', 'return']","[0.9838052000850439, 1.151911299675703]",965.0991316996515,None,,,51,001,2023_Apr_24_1057,ExactRep-v3-final,2021.2.3,59.95344004123734,
,,,,,,,,,,,,51,0,51,0,,,,,,,,,,,,,,,,,,,,,,,,,,,,,,,,,,,,,,,,,,,,,,,,,969.5525700002909,None,,,,,,,,,,,,,,,,,,,,,,,,,,,,,,,,,,,,,,,,,,,,,,,,,,,,,,,,,dress,137,52,silent,new,red,966.7953599002212,None,n,966.7953599002212,None,"['n', 'return']","[2.4793960992246866, 2.7196360994130373]",966.7953599002212,None,,,51,001,2023_Apr_24_1057,ExactRep-v3-final,2021.2.3,59.95344004123734,
,,,,,,,,,,,,52,0,52,0,,,,,,,,,,,,,,,,,,,,,,,,,,,,,,,,,,,,,,,,,,,,,,,,,971.3208718001842,None,,,,,,,,,,,,,,,,,,,,,,,,,,,,,,,,,,,,,,,,,,,,,,,,,,,,,,,,,queen,163,53,sing,new,white,970.0659870002419,None,n,970.0659870002419,None,"['n', 'return']","[0.9288398995995522, 1.208937699906528]",970.0659870002419,None,,,51,001,2023_Apr_24_1057,ExactRep-v3-final,2021.2.3,59.95344004123734,
,,,,,,,,,,,,53,0,53,0,,,,,,,,,,,,,,,,,,,,,,,,,,,,,,,,,,,,,,,,,,,,,,,,,972.838901700452,None,,,,,,,,,,,,,,,,,,,,,,,,,,,,,,,,,,,,,,,,,,,,,,,,,,,,,,,,,ocean,156,54,silent,new,red,971.8215709002689,None,n,971.8215709002689,None,"['n', 'return']","[0.6533541996032, 0.9813834996894002]",971.8215709002689,None,,,51,001,2023_Apr_24_1057,ExactRep-v3-final,2021.2.3,59.95344004123734,
,,,,,,,,,,,,54,0,54,0,,,,,,,,,,,,,,,,,,,,,,,,,,,,,,,,,,,,,,,,,,,,,,,,,974.9411444999278,None,,,,,,,,,,,,,,,,,,,,,,,,,,,,,,,,,,,,,,,,,,,,,,,,,,,,,,,,,chief,106,55,aloud,old,blue,973.3436171002686,None,y,973.3436171002686,None,"['y', 'return']","[1.3711008001118898, 1.5552488006651402]",973.3436171002686,None,,,51,001,2023_Apr_24_1057,ExactRep-v3-final,2021.2.3,59.95344004123734,
,,,,,,,,,,,,55,0,55,0,,,,,,,,,,,,,,,,,,,,,,,,,,,,,,,,,,,,,,,,,,,,,,,,,976.6761733004823,None,,,,,,,,,,,,,,,,,,,,,,,,,,,,,,,,,,,,,,,,,,,,,,,,,,,,,,,,,college,42,56,silent,old,red,975.4455845002085,None,y,975.4455845002085,None,"['y', 'return']","[1.0212497999891639, 1.1893304996192455]",975.4455845002085,None,,,51,001,2023_Apr_24_1057,ExactRep-v3-final,2021.2.3,59.95344004123734,
,,,,,,,,,,,,56,0,56,0,,,,,,,,,,,,,,,,,,,,,,,,,,,,,,,,,,,,,,,,,,,,,,,,,978.7283340003341,None,,,,,,,,,,,,,,,,,,,,,,,,,,,,,,,,,,,,,,,,,,,,,,,,,,,,,,,,,maiden,191,57,sing,new,white,977.1898645004258,None,n,977.1898645004258,None,"['n', 'return']","[1.3649448994547129, 1.5009842002764344]",977.1898645004258,None,,,51,001,2023_Apr_24_1057,ExactRep-v3-final,2021.2.3,59.95344004123734,
,,,,,,,,,,,,57,0,57,0,,,,,,,,,,,,,,,,,,,,,,,,,,,,,,,,,,,,,,,,,,,,,,,,,980.8804652001709,None,,,,,,,,,,,,,,,,,,,,,,,,,,,,,,,,,,,,,,,,,,,,,,,,,,,,,,,,,cattle,138,58,silent,new,red,979.2389820003882,None,n,979.2389820003882,None,"['n', 'return']","[1.3080555004999042, 1.5958739006891847]",979.2389820003882,None,,,51,001,2023_Apr_24_1057,ExactRep-v3-final,2021.2.3,59.95344004123734,
,,,,,,,,,,,,58,0,58,0,,,,,,,,,,,,,,,,,,,,,,,,,,,,,,,,,,,,,,,,,,,,,,,,,983.1661814004183,None,,,,,,,,,,,,,,,,,,,,,,,,,,,,,,,,,,,,,,,,,,,,,,,,,,,,,,,,,event,140,59,silent,new,red,981.3808479001746,None,n,981.3808479001746,None,"['n', 'return']","[1.5741576002910733, 1.7419892000034451]",981.3808479001746,None,,,51,001,2023_Apr_24_1057,ExactRep-v3-final,2021.2.3,59.95344004123734,
,,,,,,,,,,,,59,0,59,0,,,,,,,,,,,,,,,,,,,,,,,,,,,,,,,,,,,,,,,,,,,,,,,,,985.3849213998765,None,,,,,,,,,,,,,,,,,,,,,,,,,,,,,,,,,,,,,,,,,,,,,,,,,,,,,,,,,apple,127,60,silent,new,red,983.6773709999397,None,n,983.6773709999397,None,"['n', 'return']","[1.525471200235188, 1.6695672003552318]",983.6773709999397,None,,,51,001,2023_Apr_24_1057,ExactRep-v3-final,2021.2.3,59.95344004123734,
,,,,,,,,,,,,60,0,60,0,,,,,,,,,,,,,,,,,,,,,,,,,,,,,,,,,,,,,,,,,,,,,,,,,988.1543664000928,None,,,,,,,,,,,,,,,,,,,,,,,,,,,,,,,,,,,,,,,,,,,,,,,,,,,,,,,,,butter,171,61,sing,new,white,985.8974003000185,None,n,985.8974003000185,None,"['n', 'return']","[2.0893569998443127, 2.2094259997829795]",985.8974003000185,None,,,51,001,2023_Apr_24_1057,ExactRep-v3-final,2021.2.3,59.95344004123734,
,,,,,,,,,,,,61,0,61,0,,,,,,,,,,,,,,,,,,,,,,,,,,,,,,,,,,,,,,,,,,,,,,,,,989.9561125999317,None,,,,,,,,,,,,,,,,,,,,,,,,,,,,,,,,,,,,,,,,,,,,,,,,,,,,,,,,,dream,107,62,aloud,old,blue,988.6653281999752,None,y,988.6653281999752,None,"['y', 'return']","[1.1136184008792043, 1.2576042003929615]",988.6653281999752,None,,,51,001,2023_Apr_24_1057,ExactRep-v3-final,2021.2.3,59.95344004123734,
,,,,,,,,,,,,62,0,62,0,,,,,,,,,,,,,,,,,,,,,,,,,,,,,,,,,,,,,,,,,,,,,,,,,991.6079336004332,None,,,,,,,,,,,,,,,,,,,,,,,,,,,,,,,,,,,,,,,,,,,,,,,,,,,,,,,,,woman,150,63,silent,new,red,990.4602147005498,None,n,990.4602147005498,None,"['n', 'return']","[1.0067747998982668, 1.1106690997257829]",990.4602147005498,None,,,51,001,2023_Apr_24_1057,ExactRep-v3-final,2021.2.3,59.95344004123734,
,,,,,,,,,,,,63,0,63,0,,,,,,,,,,,,,,,,,,,,,,,,,,,,,,,,,,,,,,,,,,,,,,,,,993.5430473005399,None,,,,,,,,,,,,,,,,,,,,,,,,,,,,,,,,,,,,,,,,,,,,,,,,,,,,,,,,,style,204,64,aloud,new,blue,992.1162312999368,None,n,992.1162312999368,None,"['n', 'return']","[1.2627496998757124, 1.3826471995562315]",992.1162312999368,None,,,51,001,2023_Apr_24_1057,ExactRep-v3-final,2021.2.3,59.95344004123734,
,,,,,,,,,,,,64,0,64,0,,,,,,,,,,,,,,,,,,,,,,,,,,,,,,,,,,,,,,,,,,,,,,,,,995.3784701004624,None,,,,,,,,,,,,,,,,,,,,,,,,,,,,,,,,,,,,,,,,,,,,,,,,,,,,,,,,,law,121,65,silent,new,red,994.046108099632,None,n,994.046108099632,None,"['n', 'return']","[1.1490075001493096, 1.2928889002650976]",994.046108099632,None,,,51,001,2023_Apr_24_1057,ExactRep-v3-final,2021.2.3,59.95344004123734,
,,,,,,,,,,,,65,0,65,0,,,,,,,,,,,,,,,,,,,,,,,,,,,,,,,,,,,,,,,,,,,,,,,,,997.129989400506,None,,,,,,,,,,,,,,,,,,,,,,,,,,,,,,,,,,,,,,,,,,,,,,,,,,,,,,,,,sugar,219,66,sing,new,white,995.8882969003171,None,n,995.8882969003171,None,"['n', 'return']","[1.0104926005005836, 1.2025917004793882]",995.8882969003171,None,,,51,001,2023_Apr_24_1057,ExactRep-v3-final,2021.2.3,59.95344004123734,
,,,,,,,,,,,,66,0,66,0,,,,,,,,,,,,,,,,,,,,,,,,,,,,,,,,,,,,,,,,,,,,,,,,,998.3145014001057,None,,,,,,,,,,,,,,,,,,,,,,,,,,,,,,,,,,,,,,,,,,,,,,,,,,,,,,,,,person,47,67,silent,old,red,997.6414262996987,None,n,997.6414262996987,None,"['n', 'return']","[0.513501700013876, 0.6336046000942588]",997.6414262996987,None,,,51,001,2023_Apr_24_1057,ExactRep-v3-final,2021.2.3,59.95344004123734,
,,,,,,,,,,,,67,0,67,0,,,,,,,,,,,,,,,,,,,,,,,,,,,,,,,,,,,,,,,,,,,,,,,,,1000.0830800998956,None,,,,,,,,,,,,,,,,,,,,,,,,,,,,,,,,,,,,,,,,,,,,,,,,,,,,,,,,,church,62,68,silent,old,red,998.824204900302,None,y,998.824204900302,None,"['y', 'return']","[1.0825872998684645, 1.210614699870348]",998.824204900302,None,,,51,001,2023_Apr_24_1057,ExactRep-v3-final,2021.2.3,59.95344004123734,
,,,,,,,,,,,,68,0,68,0,,,,,,,,,,,,,,,,,,,,,,,,,,,,,,,,,,,,,,,,,,,,,,,,,1001.8680653003976,None,,,,,,,,,,,,,,,,,,,,,,,,,,,,,,,,,,,,,,,,,,,,,,,,,,,,,,,,,library,43,69,silent,old,red,1000.5856611998752,None,n,1000.5856611998752,None,"['n', 'return']","[1.129220400005579, 1.249384299851954]",1000.5856611998752,None,,,51,001,2023_Apr_24_1057,ExactRep-v3-final,2021.2.3,59.95344004123734,
,,,,,,,,,,,,69,0,69,0,,,,,,,,,,,,,,,,,,,,,,,,,,,,,,,,,,,,,,,,,,,,,,,,,1003.2361112004146,None,,,,,,,,,,,,,,,,,,,,,,,,,,,,,,,,,,,,,,,,,,,,,,,,,,,,,,,,,paper,24,70,sing,old,white,1002.3867664001882,None,n,1002.3867664001882,None,"['n', 'return']","[0.6640887996181846, 0.8161663999781013]",1002.3867664001882,None,,,51,001,2023_Apr_24_1057,ExactRep-v3-final,2021.2.3,59.95344004123734,
,,,,,,,,,,,,70,0,70,0,,,,,,,,,,,,,,,,,,,,,,,,,,,,,,,,,,,,,,,,,,,,,,,,,1004.7042463002726,None,,,,,,,,,,,,,,,,,,,,,,,,,,,,,,,,,,,,,,,,,,,,,,,,,,,,,,,,,ship,38,71,sing,old,white,1003.7419976005331,None,n,1003.7419976005331,None,"['n', 'return']","[0.7810084000229836, 0.9168720999732614]",1003.7419976005331,None,,,51,001,2023_Apr_24_1057,ExactRep-v3-final,2021.2.3,59.95344004123734,
,,,,,,,,,,,,71,0,71,0,,,,,,,,,,,,,,,,,,,,,,,,,,,,,,,,,,,,,,,,,,,,,,,,,1006.539587800391,None,,,,,,,,,,,,,,,,,,,,,,,,,,,,,,,,,,,,,,,,,,,,,,,,,,,,,,,,,friend,170,72,aloud,new,blue,1005.2171964999288,None,n,1005.2171964999288,None,"['n', 'return']","[1.1616458995267749, 1.2896354999393225]",1005.2171964999288,None,,,51,001,2023_Apr_24_1057,ExactRep-v3-final,2021.2.3,59.95344004123734,
,,,,,,,,,,,,72,0,72,0,,,,,,,,,,,,,,,,,,,,,,,,,,,,,,,,,,,,,,,,,,,,,,,,,1008.1243463996798,None,,,,,,,,,,,,,,,,,,,,,,,,,,,,,,,,,,,,,,,,,,,,,,,,,,,,,,,,,silence,215,73,sing,new,white,1007.0494523001835,None,n,1007.0494523001835,None,"['n', 'return']","[0.8655050005763769, 1.0333732003346086]",1007.0494523001835,None,,,51,001,2023_Apr_24_1057,ExactRep-v3-final,2021.2.3,59.95344004123734,
,,,,,,,,,,,,73,0,73,0,,,,,,,,,,,,,,,,,,,,,,,,,,,,,,,,,,,,,,,,,,,,,,,,,1009.8593647005036,None,,,,,,,,,,,,,,,,,,,,,,,,,,,,,,,,,,,,,,,,,,,,,,,,,,,,,,,,,hall,90,74,aloud,old,blue,1008.6248856000602,None,n,1008.6248856000602,None,"['n', 'return']","[0.8261785004287958, 1.1941978000104427]",1008.6248856000602,None,,,51,001,2023_Apr_24_1057,ExactRep-v3-final,2021.2.3,59.95344004123734,
,,,,,,,,,,,,74,0,74,0,,,,,,,,,,,,,,,,,,,,,,,,,,,,,,,,,,,,,,,,,,,,,,,,,1011.4610855998471,None,,,,,,,,,,,,,,,,,,,,,,,,,,,,,,,,,,,,,,,,,,,,,,,,,,,,,,,,,answer,139,75,silent,new,red,1010.366681500338,None,n,1010.366681500338,None,"['n', 'return']","[0.9322726000100374, 1.0603326000273228]",1010.366681500338,None,,,51,001,2023_Apr_24_1057,ExactRep-v3-final,2021.2.3,59.95344004123734,
,,,,,,,,,,,,75,0,75,0,,,,,,,,,,,,,,,,,,,,,,,,,,,,,,,,,,,,,,,,,,,,,,,,,1013.7467767996714,None,,,,,,,,,,,,,,,,,,,,,,,,,,,,,,,,,,,,,,,,,,,,,,,,,,,,,,,,,glory,95,76,aloud,old,blue,1011.971052300185,None,y,1011.971052300185,None,"['y', 'return']","[1.607901600189507, 1.7362670004367828]",1011.971052300185,None,,,51,001,2023_Apr_24_1057,ExactRep-v3-final,2021.2.3,59.95344004123734,
,,,,,,,,,,,,76,0,76,0,,,,,,,,,,,,,,,,,,,,,,,,,,,,,,,,,,,,,,,,,,,,,,,,,1021.6713736001402,None,,,,,,,,,,,,,,,,,,,,,,,,,,,,,,,,,,,,,,,,,,,,,,,,,,,,,,,,,cottage,152,77,silent,new,red,1014.2566499998793,None,n,1014.2566499998793,None,"['return', 'n', 'return']","[1.9703997001051903, 6.162289300002158, 7.37836670037359]",1014.2566499998793,None,,,51,001,2023_Apr_24_1057,ExactRep-v3-final,2021.2.3,59.95344004123734,
,,,,,,,,,,,,77,0,77,0,,,,,,,,,,,,,,,,,,,,,,,,,,,,,,,,,,,,,,,,,,,,,,,,,1023.3562901001424,None,,,,,,,,,,,,,,,,,,,,,,,,,,,,,,,,,,,,,,,,,,,,,,,,,,,,,,,,,star,76,78,silent,old,red,1022.1772512001917,None,n,1022.1772512001917,None,"['n', 'return']","[0.9696347992867231, 1.1456383997574449]",1022.1772512001917,None,,,51,001,2023_Apr_24_1057,ExactRep-v3-final,2021.2.3,59.95344004123734,
,,,,,,,,,,,,78,0,78,0,,,,,,,,,,,,,,,,,,,,,,,,,,,,,,,,,,,,,,,,,,,,,,,,,1026.4092843998224,None,,,,,,,,,,,,,,,,,,,,,,,,,,,,,,,,,,,,,,,,,,,,,,,,,,,,,,,,,girl,26,79,sing,old,white,1023.8579422999173,None,y,1023.8579422999173,None,"['y', 'return']","[2.2728989999741316, 2.5129590006545186]",1023.8579422999173,None,,,51,001,2023_Apr_24_1057,ExactRep-v3-final,2021.2.3,59.95344004123734,
,,,,,,,,,,,,79,0,79,0,,,,,,,,,,,,,,,,,,,,,,,,,,,,,,,,,,,,,,,,,,,,,,,,,1032.0148940002546,None,,,,,,,,,,,,,,,,,,,,,,,,,,,,,,,,,,,,,,,,,,,,,,,,,,,,,,,,,memory,228,80,aloud,new,blue,1026.917113300413,None,n,1026.917113300413,None,"['n', 'return']","[4.845880099572241, 5.053774199448526]",1026.917113300413,None,,,51,001,2023_Apr_24_1057,ExactRep-v3-final,2021.2.3,59.95344004123734,
,,,,,,,,,,,,80,0,80,0,,,,,,,,,,,,,,,,,,,,,,,,,,,,,,,,,,,,,,,,,,,,,,,,,1035.434960800223,None,,,,,,,,,,,,,,,,,,,,,,,,,,,,,,,,,,,,,,,,,,,,,,,,,,,,,,,,,sea,52,81,silent,old,red,1032.5179661000147,None,n,1032.5179661000147,None,"['n', 'return']","[2.628917899914086, 2.8769299993291497]",1032.5179661000147,None,,,51,001,2023_Apr_24_1057,ExactRep-v3-final,2021.2.3,59.95344004123734,
,,,,,,,,,,,,81,0,81,0,,,,,,,,,,,,,,,,,,,,,,,,,,,,,,,,,,,,,,,,,,,,,,,,,1038.6217104997486,None,,,,,,,,,,,,,,,,,,,,,,,,,,,,,,,,,,,,,,,,,,,,,,,,,,,,,,,,,letter,110,82,aloud,old,blue,1035.9449289999902,None,n,1035.9449289999902,None,"['n', 'return']","[2.329995700158179, 2.6419219002127647]",1035.9449289999902,None,,,51,001,2023_Apr_24_1057,ExactRep-v3-final,2021.2.3,59.95344004123734,
,,,,,,,,,,,,82,0,82,0,,,,,,,,,,,,,,,,,,,,,,,,,,,,,,,,,,,,,,,,,,,,,,,,,1041.6745706005022,None,,,,,,,,,,,,,,,,,,,,,,,,,,,,,,,,,,,,,,,,,,,,,,,,,,,,,,,,,ticket,188,83,aloud,new,blue,1039.1222109002993,None,n,1039.1222109002993,None,"['n', 'return']","[2.1846397006884217, 2.5127711007371545]",1039.1222109002993,None,,,51,001,2023_Apr_24_1057,ExactRep-v3-final,2021.2.3,59.95344004123734,
,,,,,,,,,,,,83,0,83,0,,,,,,,,,,,,,,,,,,,,,,,,,,,,,,,,,,,,,,,,,,,,,,,,,1045.5617883000523,None,,,,,,,,,,,,,,,,,,,,,,,,,,,,,,,,,,,,,,,,,,,,,,,,,,,,,,,,,present,174,84,aloud,new,blue,1042.1750851999968,None,n,1042.1750851999968,None,"['n', 'return']","[1.059892900288105, 3.339988499879837]",1042.1750851999968,None,,,51,001,2023_Apr_24_1057,ExactRep-v3-final,2021.2.3,59.95344004123734,
,,,,,,,,,,,,84,0,84,0,,,,,,,,,,,,,,,,,,,,,,,,,,,,,,,,,,,,,,,,,,,,,,,,,1049.515730000101,None,,,,,,,,,,,,,,,,,,,,,,,,,,,,,,,,,,,,,,,,,,,,,,,,,,,,,,,,,arm,2,85,sing,old,white,1046.069484599866,None,y,1046.069484599866,None,"['y', 'return']","[3.069374400191009, 3.413366900756955]",1046.069484599866,None,,,51,001,2023_Apr_24_1057,ExactRep-v3-final,2021.2.3,59.95344004123734,
,,,,,,,,,,,,85,0,85,0,,,,,,,,,,,,,,,,,,,,,,,,,,,,,,,,,,,,,,,,,,,,,,,,,1051.367818299681,None,,,,,,,,,,,,,,,,,,,,,,,,,,,,,,,,,,,,,,,,,,,,,,,,,,,,,,,,,volume,125,86,silent,new,red,1050.0317652001977,None,n,1050.0317652001977,None,"['n', 'return']","[1.0511771002784371, 1.29111810028553]",1050.0317652001977,None,,,51,001,2023_Apr_24_1057,ExactRep-v3-final,2021.2.3,59.95344004123734,
,,,,,,,,,,,,86,0,86,0,,,,,,,,,,,,,,,,,,,,,,,,,,,,,,,,,,,,,,,,,,,,,,,,,1053.5364164998755,None,,,,,,,,,,,,,,,,,,,,,,,,,,,,,,,,,,,,,,,,,,,,,,,,,,,,,,,,,pride,91,87,aloud,old,blue,1051.8744475999847,None,n,1051.8744475999847,None,"['n', 'return']","[1.4647369999438524, 1.6249075001105666]",1051.8744475999847,None,,,51,001,2023_Apr_24_1057,ExactRep-v3-final,2021.2.3,59.95344004123734,
,,,,,,,,,,,,87,0,87,0,,,,,,,,,,,,,,,,,,,,,,,,,,,,,,,,,,,,,,,,,,,,,,,,,1054.95468240045,None,,,,,,,,,,,,,,,,,,,,,,,,,,,,,,,,,,,,,,,,,,,,,,,,,,,,,,,,,plant,28,88,sing,old,white,1054.0421660998836,None,n,1054.0421660998836,None,"['n', 'return']","[0.6807794999331236, 0.880769900046289]",1054.0421660998836,None,,,51,001,2023_Apr_24_1057,ExactRep-v3-final,2021.2.3,59.95344004123734,
,,,,,,,,,,,,88,0,88,0,,,,,,,,,,,,,,,,,,,,,,,,,,,,,,,,,,,,,,,,,,,,,,,,,1056.6395928002894,None,,,,,,,,,,,,,,,,,,,,,,,,,,,,,,,,,,,,,,,,,,,,,,,,,,,,,,,,,animal,72,89,silent,old,red,1055.4660876998678,None,n,1055.4660876998678,None,"['n', 'return']","[0.7688380004838109, 1.1288442006334662]",1055.4660876998678,None,,,51,001,2023_Apr_24_1057,ExactRep-v3-final,2021.2.3,59.95344004123734,
,,,,,,,,,,,,89,0,89,0,,,,,,,,,,,,,,,,,,,,,,,,,,,,,,,,,,,,,,,,,,,,,,,,,1058.2744819996879,None,,,,,,,,,,,,,,,,,,,,,,,,,,,,,,,,,,,,,,,,,,,,,,,,,,,,,,,,,heaven,211,90,sing,new,white,1057.1504512997344,None,n,1057.1504512997344,None,"['n', 'return']","[0.7887447001412511, 1.0924613000825047]",1057.1504512997344,None,,,51,001,2023_Apr_24_1057,ExactRep-v3-final,2021.2.3,59.95344004123734,
,,,,,,,,,,,,90,0,90,0,,,,,,,,,,,,,,,,,,,,,,,,,,,,,,,,,,,,,,,,,,,,,,,,,1059.5593242999166,None,,,,,,,,,,,,,,,,,,,,,,,,,,,,,,,,,,,,,,,,,,,,,,,,,,,,,,,,,shadow,205,91,sing,new,white,1058.7845163000748,None,n,1058.7845163000748,None,"['n', 'return']","[0.48236520029604435, 0.7385178003460169]",1058.7845163000748,None,,,51,001,2023_Apr_24_1057,ExactRep-v3-final,2021.2.3,59.95344004123734,
,,,,,,,,,,,,91,0,91,0,,,,,,,,,,,,,,,,,,,,,,,,,,,,,,,,,,,,,,,,,,,,,,,,,1061.0939576998353,None,,,,,,,,,,,,,,,,,,,,,,,,,,,,,,,,,,,,,,,,,,,,,,,,,,,,,,,,,air,123,92,silent,new,red,1060.0692383004352,None,n,1060.0692383004352,None,"['n', 'return']","[0.6376904007047415, 0.9816434001550078]",1060.0692383004352,None,,,51,001,2023_Apr_24_1057,ExactRep-v3-final,2021.2.3,59.95344004123734,
,,,,,,,,,,,,92,0,92,0,,,,,,,,,,,,,,,,,,,,,,,,,,,,,,,,,,,,,,,,,,,,,,,,,1063.1627126997337,None,,,,,,,,,,,,,,,,,,,,,,,,,,,,,,,,,,,,,,,,,,,,,,,,,,,,,,,,,theory,40,93,silent,old,red,1061.6018337002024,None,n,1061.6018337002024,None,"['n', 'return']","[1.2331009991467, 1.5292157996445894]",1061.6018337002024,None,,,51,001,2023_Apr_24_1057,ExactRep-v3-final,2021.2.3,59.95344004123734,
,,,,,,,,,,,,93,0,93,0,,,,,,,,,,,,,,,,,,,,,,,,,,,,,,,,,,,,,,,,,,,,,,,,,1065.9487837003544,None,,,,,,,,,,,,,,,,,,,,,,,,,,,,,,,,,,,,,,,,,,,,,,,,,,,,,,,,,vessel,12,94,sing,old,white,1063.668080800213,None,y,1063.668080800213,None,"['return', 'y', 'return']","[1.2470248993486166, 1.3669094992801547, 2.2387124998494983]",1063.668080800213,None,,,51,001,2023_Apr_24_1057,ExactRep-v3-final,2021.2.3,59.95344004123734,
,,,,,,,,,,,,94,0,94,0,,,,,,,,,,,,,,,,,,,,,,,,,,,,,,,,,,,,,,,,,,,,,,,,,1068.1679319003597,None,,,,,,,,,,,,,,,,,,,,,,,,,,,,,,,,,,,,,,,,,,,,,,,,,,,,,,,,,flower,78,95,silent,old,red,1066.4621166000143,None,n,1066.4621166000143,None,"['n', 'return']","[1.3728713998571038, 1.6688367007300258]",1066.4621166000143,None,,,51,001,2023_Apr_24_1057,ExactRep-v3-final,2021.2.3,59.95344004123734,
,,,,,,,,,,,,95,0,95,0,,,,,,,,,,,,,,,,,,,,,,,,,,,,,,,,,,,,,,,,,,,,,,,,,1069.8527111001313,None,,,,,,,,,,,,,,,,,,,,,,,,,,,,,,,,,,,,,,,,,,,,,,,,,,,,,,,,,weapon,50,96,silent,old,red,1068.6765397004783,None,n,1068.6765397004783,None,"['n', 'return']","[0.8385514002293348, 1.1344293002039194]",1068.6765397004783,None,,,51,001,2023_Apr_24_1057,ExactRep-v3-final,2021.2.3,59.95344004123734,
,,,,,,,,,,,,96,0,96,0,,,,,,,,,,,,,,,,,,,,,,,,,,,,,,,,,,,,,,,,,,,,,,,,,1071.2708187000826,None,,,,,,,,,,,,,,,,,,,,,,,,,,,,,,,,,,,,,,,,,,,,,,,,,,,,,,,,,product,213,97,sing,new,white,1070.353263599798,None,n,1070.353263599798,None,"['n', 'return']","[0.6415723999962211, 0.8818115992471576]",1070.353263599798,None,,,51,001,2023_Apr_24_1057,ExactRep-v3-final,2021.2.3,59.95344004123734,
,,,,,,,,,,,,97,0,97,0,,,,,,,,,,,,,,,,,,,,,,,,,,,,,,,,,,,,,,,,,,,,,,,,,1073.7232605004683,None,,,,,,,,,,,,,,,,,,,,,,,,,,,,,,,,,,,,,,,,,,,,,,,,,,,,,,,,,colony,129,98,silent,new,red,1071.7713905004784,None,n,1071.7713905004784,None,"['n', 'return']","[0.503567099571228, 1.9116392992436886]",1071.7713905004784,None,,,51,001,2023_Apr_24_1057,ExactRep-v3-final,2021.2.3,59.95344004123734,
,,,,,,,,,,,,98,0,98,0,,,,,,,,,,,,,,,,,,,,,,,,,,,,,,,,,,,,,,,,,,,,,,,,,1075.5751438997686,None,,,,,,,,,,,,,,,,,,,,,,,,,,,,,,,,,,,,,,,,,,,,,,,,,,,,,,,,,anger,25,99,sing,old,white,1074.2297879001126,None,n,1074.2297879001126,None,"['n', 'return']","[0.9331899005919695, 1.3092317003756762]",1074.2297879001126,None,,,51,001,2023_Apr_24_1057,ExactRep-v3-final,2021.2.3,59.95344004123734,
,,,,,,,,,,,,99,0,99,0,,,,,,,,,,,,,,,,,,,,,,,,,,,,,,,,,,,,,,,,,,,,,,,,,1079.4790182998404,None,,,,,,,,,,,,,,,,,,,,,,,,,,,,,,,,,,,,,,,,,,,,,,,,,,,,,,,,,lip,84,100,aloud,old,blue,1076.0843051997945,None,n,1076.0843051997945,None,"['n', 'return']","[3.0228005992248654, 3.3586580995470285]",1076.0843051997945,None,,,51,001,2023_Apr_24_1057,ExactRep-v3-final,2021.2.3,59.95344004123734,
,,,,,,,,,,,,100,0,100,0,,,,,,,,,,,,,,,,,,,,,,,,,,,,,,,,,,,,,,,,,,,,,,,,,1081.5811900002882,None,,,,,,,,,,,,,,,,,,,,,,,,,,,,,,,,,,,,,,,,,,,,,,,,,,,,,,,,,metal,82,101,aloud,old,blue,1079.9869657000527,None,y,1079.9869657000527,None,"['y', 'return']","[1.2402733005583286, 1.5599807007238269]",1079.9869657000527,None,,,51,001,2023_Apr_24_1057,ExactRep-v3-final,2021.2.3,59.95344004123734,
,,,,,,,,,,,,101,0,101,0,,,,,,,,,,,,,,,,,,,,,,,,,,,,,,,,,,,,,,,,,,,,,,,,,1084.1004106001928,None,,,,,,,,,,,,,,,,,,,,,,,,,,,,,,,,,,,,,,,,,,,,,,,,,,,,,,,,,diamond,97,102,aloud,old,blue,1082.0910542998463,None,n,1082.0910542998463,None,"['n', 'return']","[1.6719367001205683, 1.9679375002160668]",1082.0910542998463,None,,,51,001,2023_Apr_24_1057,ExactRep-v3-final,2021.2.3,59.95344004123734,
,,,,,,,,,,,,102,0,102,0,,,,,,,,,,,,,,,,,,,,,,,,,,,,,,,,,,,,,,,,,,,,,,,,,1085.7686034003273,None,,,,,,,,,,,,,,,,,,,,,,,,,,,,,,,,,,,,,,,,,,,,,,,,,,,,,,,,,seat,187,103,sing,new,white,1084.6066182004288,None,n,1084.6066182004288,None,"['n', 'return']","[0.7962720999494195, 1.1164095997810364]",1084.6066182004288,None,,,51,001,2023_Apr_24_1057,ExactRep-v3-final,2021.2.3,59.95344004123734,
,,,,,,,,,,,,103,0,103,0,,,,,,,,,,,,,,,,,,,,,,,,,,,,,,,,,,,,,,,,,,,,,,,,,1087.637249100022,None,,,,,,,,,,,,,,,,,,,,,,,,,,,,,,,,,,,,,,,,,,,,,,,,,,,,,,,,,dollar,222,104,aloud,new,blue,1086.2820522002876,None,n,1086.2820522002876,None,"['n', 'return']","[1.0489427000284195, 1.3208496998995543]",1086.2820522002876,None,,,51,001,2023_Apr_24_1057,ExactRep-v3-final,2021.2.3,59.95344004123734,
,,,,,,,,,,,,104,0,104,0,,,,,,,,,,,,,,,,,,,,,,,,,,,,,,,,,,,,,,,,,,,,,,,,,1089.1720844004303,None,,,,,,,,,,,,,,,,,,,,,,,,,,,,,,,,,,,,,,,,,,,,,,,,,,,,,,,,,cabin,68,105,silent,old,red,1088.1487397002056,None,n,1088.1487397002056,None,"['n', 'return']","[0.6303241001442075, 0.9822487002238631]",1088.1487397002056,None,,,51,001,2023_Apr_24_1057,ExactRep-v3-final,2021.2.3,59.95344004123734,
,,,,,,,,,,,,105,0,105,0,,,,,,,,,,,,,,,,,,,,,,,,,,,,,,,,,,,,,,,,,,,,,,,,,1090.757055199705,None,,,,,,,,,,,,,,,,,,,,,,,,,,,,,,,,,,,,,,,,,,,,,,,,,,,,,,,,,quality,118,106,aloud,old,blue,1089.6906808000058,None,n,1089.6906808000058,None,"['n', 'return']","[0.8242253996431828, 1.0242352997884154]",1089.6906808000058,None,,,51,001,2023_Apr_24_1057,ExactRep-v3-final,2021.2.3,59.95344004123734,
,,,,,,,,,,,,106,0,106,0,,,,,,,,,,,,,,,,,,,,,,,,,,,,,,,,,,,,,,,,,,,,,,,,,1093.1094883996993,None,,,,,,,,,,,,,,,,,,,,,,,,,,,,,,,,,,,,,,,,,,,,,,,,,,,,,,,,,tool,5,107,sing,old,white,1091.2615638999268,None,n,1091.2615638999268,None,"['n', 'return']","[0.7094964999705553, 1.8133677998557687]",1091.2615638999268,None,,,51,001,2023_Apr_24_1057,ExactRep-v3-final,2021.2.3,59.95344004123734,
,,,,,,,,,,,,107,0,107,0,,,,,,,,,,,,,,,,,,,,,,,,,,,,,,,,,,,,,,,,,,,,,,,,,1094.3606575997546,None,,,,,,,,,,,,,,,,,,,,,,,,,,,,,,,,,,,,,,,,,,,,,,,,,,,,,,,,,wife,65,108,silent,old,red,1093.618455500342,None,n,1093.618455500342,None,"['n', 'return']","[0.5685109999030828, 0.7045003995299339]",1093.618455500342,None,,,51,001,2023_Apr_24_1057,ExactRep-v3-final,2021.2.3,59.95344004123734,
,,,,,,,,,,,,108,0,108,0,,,,,,,,,,,,,,,,,,,,,,,,,,,,,,,,,,,,,,,,,,,,,,,,,1095.6119184996933,None,,,,,,,,,,,,,,,,,,,,,,,,,,,,,,,,,,,,,,,,,,,,,,,,,,,,,,,,,bird,207,109,sing,new,white,1094.8700625002384,None,n,1094.8700625002384,None,"['n', 'return']","[0.5169686991721392, 0.700972699560225]",1094.8700625002384,None,,,51,001,2023_Apr_24_1057,ExactRep-v3-final,2021.2.3,59.95344004123734,
,,,,,,,,,,,,109,0,109,0,,,,,,,,,,,,,,,,,,,,,,,,,,,,,,,,,,,,,,,,,,,,,,,,,1097.164067399688,None,,,,,,,,,,,,,,,,,,,,,,,,,,,,,,,,,,,,,,,,,,,,,,,,,,,,,,,,,child,39,110,silent,old,red,1096.1129844002426,None,n,1096.1129844002426,None,"['n', 'return']","[0.8499249005690217, 1.0181144000962377]",1096.1129844002426,None,,,51,001,2023_Apr_24_1057,ExactRep-v3-final,2021.2.3,59.95344004123734,
,,,,,,,,,,,,110,0,110,0,,,,,,,,,,,,,,,,,,,,,,,,,,,,,,,,,,,,,,,,,,,,,,,,,1098.481322299689,None,,,,,,,,,,,,,,,,,,,,,,,,,,,,,,,,,,,,,,,,,,,,,,,,,,,,,,,,,truth,155,111,silent,new,red,1097.678230700083,None,n,1097.678230700083,None,"['n', 'return']","[0.5807776004076004, 0.7568268002942204]",1097.678230700083,None,,,51,001,2023_Apr_24_1057,ExactRep-v3-final,2021.2.3,59.95344004123734,
,,,,,,,,,,,,111,0,111,0,,,,,,,,,,,,,,,,,,,,,,,,,,,,,,,,,,,,,,,,,,,,,,,,,1099.7661204002798,None,,,,,,,,,,,,,,,,,,,,,,,,,,,,,,,,,,,,,,,,,,,,,,,,,,,,,,,,,hide,20,112,sing,old,white,1098.992600900121,None,n,1098.992600900121,None,"['n', 'return']","[0.5545720998197794, 0.7383523005992174]",1098.992600900121,None,,,51,001,2023_Apr_24_1057,ExactRep-v3-final,2021.2.3,59.95344004123734,
,,,,,,,,,,,,112,0,112,0,,,,,,,,,,,,,,,,,,,,,,,,,,,,,,,,,,,,,,,,,,,,,,,,,1101.0338976997882,None,,,,,,,,,,,,,,,,,,,,,,,,,,,,,,,,,,,,,,,,,,,,,,,,,,,,,,,,,nail,10,113,sing,old,white,1100.2776044001803,None,n,1100.2776044001803,None,"['n', 'return']","[0.5332541996613145, 0.7175498995929956]",1100.2776044001803,None,,,51,001,2023_Apr_24_1057,ExactRep-v3-final,2021.2.3,59.95344004123734,
,,,,,,,,,,,,113,0,113,0,,,,,,,,,,,,,,,,,,,,,,,,,,,,,,,,,,,,,,,,,,,,,,,,,1102.385265099816,None,,,,,,,,,,,,,,,,,,,,,,,,,,,,,,,,,,,,,,,,,,,,,,,,,,,,,,,,,world,4,114,sing,old,white,1101.534286700189,None,n,1101.534286700189,None,"['n', 'return']","[0.5807339996099472, 0.8046662993729115]",1101.534286700189,None,,,51,001,2023_Apr_24_1057,ExactRep-v3-final,2021.2.3,59.95344004123734,
,,,,,,,,,,,,114,0,114,0,,,,,,,,,,,,,,,,,,,,,,,,,,,,,,,,,,,,,,,,,,,,,,,,,1104.8877683002502,None,,,,,,,,,,,,,,,,,,,,,,,,,,,,,,,,,,,,,,,,,,,,,,,,,,,,,,,,,book,87,115,aloud,old,blue,1102.8956479998305,None,n,1102.8956479998305,None,"['n', 'return']","[0.5714953998103738, 1.9552959995344281]",1102.8956479998305,None,,,51,001,2023_Apr_24_1057,ExactRep-v3-final,2021.2.3,59.95344004123734,
,,,,,,,,,,,,115,0,115,0,,,,,,,,,,,,,,,,,,,,,,,,,,,,,,,,,,,,,,,,,,,,,,,,,1106.3893009005114,None,,,,,,,,,,,,,,,,,,,,,,,,,,,,,,,,,,,,,,,,,,,,,,,,,,,,,,,,,window,146,116,silent,new,red,1105.3917084001005,None,n,1105.3917084001005,None,"['n', 'return']","[0.6673218999058008, 0.9552468005567789]",1105.3917084001005,None,,,51,001,2023_Apr_24_1057,ExactRep-v3-final,2021.2.3,59.95344004123734,
,,,,,,,,,,,,116,0,116,0,,,,,,,,,,,,,,,,,,,,,,,,,,,,,,,,,,,,,,,,,,,,,,,,,1107.9241140000522,None,,,,,,,,,,,,,,,,,,,,,,,,,,,,,,,,,,,,,,,,,,,,,,,,,,,,,,,,,machine,194,117,aloud,new,blue,1106.897637899965,None,n,1106.897637899965,None,"['n', 'return']","[0.5614359993487597, 0.9934588000178337]",1106.897637899965,None,,,51,001,2023_Apr_24_1057,ExactRep-v3-final,2021.2.3,59.95344004123734,
,,,,,,,,,,,,117,0,117,0,,,,,,,,,,,,,,,,,,,,,,,,,,,,,,,,,,,,,,,,,,,,,,,,,1109.3756096996367,None,,,,,,,,,,,,,,,,,,,,,,,,,,,,,,,,,,,,,,,,,,,,,,,,,,,,,,,,,coast,161,118,sing,new,white,1108.432218500413,None,n,1108.432218500413,None,"['n', 'return']","[0.6027552001178265, 0.8987062005326152]",1108.432218500413,None,,,51,001,2023_Apr_24_1057,ExactRep-v3-final,2021.2.3,59.95344004123734,
,,,,,,,,,,,,118,0,118,0,,,,,,,,,,,,,,,,,,,,,,,,,,,,,,,,,,,,,,,,,,,,,,,,,1110.9604853997007,None,,,,,,,,,,,,,,,,,,,,,,,,,,,,,,,,,,,,,,,,,,,,,,,,,,,,,,,,,door,8,119,sing,old,white,1109.886421199888,None,n,1109.886421199888,None,"['n', 'return']","[0.7805375996977091, 1.0365446992218494]",1109.886421199888,None,,,51,001,2023_Apr_24_1057,ExactRep-v3-final,2021.2.3,59.95344004123734,
,,,,,,,,,,,,119,0,119,0,,,,,,,,,,,,,,,,,,,,,,,,,,,,,,,,,,,,,,,,,,,,,,,,,1112.2450788002461,None,,,,,,,,,,,,,,,,,,,,,,,,,,,,,,,,,,,,,,,,,,,,,,,,,,,,,,,,,humour,57,120,silent,old,red,1111.4704427998513,None,n,1111.4704427998513,None,"['n', 'return']","[0.45255530066788197, 0.732493800111115]",1111.4704427998513,None,,,51,001,2023_Apr_24_1057,ExactRep-v3-final,2021.2.3,59.95344004123734,
,,,,,,,,,,,,120,0,120,0,,,,,,,,,,,,,,,,,,,,,,,,,,,,,,,,,,,,,,,,,,,,,,,,,1113.5130580998957,None,,,,,,,,,,,,,,,,,,,,,,,,,,,,,,,,,,,,,,,,,,,,,,,,,,,,,,,,,steam,32,121,sing,old,white,1112.7508070003241,None,n,1112.7508070003241,None,"['n', 'return']","[0.4202835001051426, 0.7162286005914211]",1112.7508070003241,None,,,51,001,2023_Apr_24_1057,ExactRep-v3-final,2021.2.3,59.95344004123734,
,,,,,,,,,,,,121,0,121,0,,,,,,,,,,,,,,,,,,,,,,,,,,,,,,,,,,,,,,,,,,,,,,,,,1114.7142647001892,None,,,,,,,,,,,,,,,,,,,,,,,,,,,,,,,,,,,,,,,,,,,,,,,,,,,,,,,,,board,193,122,sing,new,white,1114.023196700029,None,n,1114.023196700029,None,"['n', 'return']","[0.2917916998267174, 0.6517945993691683]",1114.023196700029,None,,,51,001,2023_Apr_24_1057,ExactRep-v3-final,2021.2.3,59.95344004123734,
,,,,,,,,,,,,122,0,122,0,,,,,,,,,,,,,,,,,,,,,,,,,,,,,,,,,,,,,,,,,,,,,,,,,1115.8821627004072,None,,,,,,,,,,,,,,,,,,,,,,,,,,,,,,,,,,,,,,,,,,,,,,,,,,,,,,,,,officer,71,123,silent,old,red,1115.2313342997804,None,n,1115.2313342997804,None,"['n', 'return']","[0.32360680028796196, 0.6118262000381947]",1115.2313342997804,None,,,51,001,2023_Apr_24_1057,ExactRep-v3-final,2021.2.3,59.95344004123734,
,,,,,,,,,,,,123,0,123,0,,,,,,,,,,,,,,,,,,,,,,,,,,,,,,,,,,,,,,,,,,,,,,,,,1117.0665982002392,None,,,,,,,,,,,,,,,,,,,,,,,,,,,,,,,,,,,,,,,,,,,,,,,,,,,,,,,,,spirit,145,124,silent,new,red,1116.3919556997716,None,n,1116.3919556997716,None,"['n', 'return']","[0.2511499999091029, 0.6269684005528688]",1116.3919556997716,None,,,51,001,2023_Apr_24_1057,ExactRep-v3-final,2021.2.3,59.95344004123734,
,,,,,,,,,,,,124,0,124,0,,,,,,,,,,,,,,,,,,,,,,,,,,,,,,,,,,,,,,,,,,,,,,,,,1118.3345490004867,None,,,,,,,,,,,,,,,,,,,,,,,,,,,,,,,,,,,,,,,,,,,,,,,,,,,,,,,,,idea,133,125,silent,new,red,1117.579921300523,None,n,1117.579921300523,None,"['n', 'return']","[0.47910350002348423, 0.7110375994816422]",1117.579921300523,None,,,51,001,2023_Apr_24_1057,ExactRep-v3-final,2021.2.3,59.95344004123734,
,,,,,,,,,,,,125,0,125,0,,,,,,,,,,,,,,,,,,,,,,,,,,,,,,,,,,,,,,,,,,,,,,,,,1119.5191919002682,None,,,,,,,,,,,,,,,,,,,,,,,,,,,,,,,,,,,,,,,,,,,,,,,,,,,,,,,,,duty,231,126,sing,new,white,1118.844320899807,None,n,1118.844320899807,None,"['n', 'return']","[0.4627141999080777, 0.6386983999982476]",1118.844320899807,None,,,51,001,2023_Apr_24_1057,ExactRep-v3-final,2021.2.3,59.95344004123734,
,,,,,,,,,,,,126,0,126,0,,,,,,,,,,,,,,,,,,,,,,,,,,,,,,,,,,,,,,,,,,,,,,,,,1120.9372880002484,None,,,,,,,,,,,,,,,,,,,,,,,,,,,,,,,,,,,,,,,,,,,,,,,,,,,,,,,,,king,162,127,aloud,new,blue,1120.0297881998122,None,n,1120.0297881998122,None,"['n', 'return']","[0.6132629998028278, 0.869251599535346]",1120.0297881998122,None,,,51,001,2023_Apr_24_1057,ExactRep-v3-final,2021.2.3,59.95344004123734,
,,,,,,,,,,,,127,0,127,0,,,,,,,,,,,,,,,,,,,,,,,,,,,,,,,,,,,,,,,,,,,,,,,,,1122.4386397004128,None,,,,,,,,,,,,,,,,,,,,,,,,,,,,,,,,,,,,,,,,,,,,,,,,,,,,,,,,,palace,122,128,silent,new,red,1121.4440628001466,None,n,1121.4440628001466,None,"['n', 'return']","[0.6469735000282526, 0.9508001003414392]",1121.4440628001466,None,,,51,001,2023_Apr_24_1057,ExactRep-v3-final,2021.2.3,59.95344004123734,
,,,,,,,,,,,,128,0,128,0,,,,,,,,,,,,,,,,,,,,,,,,,,,,,,,,,,,,,,,,,,,,,,,,,1123.7232339996845,None,,,,,,,,,,,,,,,,,,,,,,,,,,,,,,,,,,,,,,,,,,,,,,,,,,,,,,,,,insect,55,129,silent,old,red,1122.9472126001492,None,n,1122.9472126001492,None,"['n', 'return']","[0.4078476997092366, 0.7358969002962112]",1122.9472126001492,None,,,51,001,2023_Apr_24_1057,ExactRep-v3-final,2021.2.3,59.95344004123734,
,,,,,,,,,,,,129,0,129,0,,,,,,,,,,,,,,,,,,,,,,,,,,,,,,,,,,,,,,,,,,,,,,,,,1125.041240800172,None,,,,,,,,,,,,,,,,,,,,,,,,,,,,,,,,,,,,,,,,,,,,,,,,,,,,,,,,,meeting,96,130,aloud,old,blue,1124.234249100089,None,n,1124.234249100089,None,"['n', 'return']","[0.30499899946153164, 0.7687686998397112]",1124.234249100089,None,,,51,001,2023_Apr_24_1057,ExactRep-v3-final,2021.2.3,59.95344004123734,
,,,,,,,,,,,,130,0,130,0,,,,,,,,,,,,,,,,,,,,,,,,,,,,,,,,,,,,,,,,,,,,,,,,,1126.225755000487,None,,,,,,,,,,,,,,,,,,,,,,,,,,,,,,,,,,,,,,,,,,,,,,,,,,,,,,,,,death,77,131,silent,old,red,1125.5487230997533,None,n,1125.5487230997533,None,"['n', 'return']","[0.3343724003061652, 0.638395800255239]",1125.5487230997533,None,,,51,001,2023_Apr_24_1057,ExactRep-v3-final,2021.2.3,59.95344004123734,
,,,,,,,,,,,,131,0,131,0,,,,,,,,,,,,,,,,,,,,,,,,,,,,,,,,,,,,,,,,,,,,,,,,,1127.3270206004381,None,,,,,,,,,,,,,,,,,,,,,,,,,,,,,,,,,,,,,,,,,,,,,,,,,,,,,,,,,passion,30,132,sing,old,white,1126.73738639988,None,n,1126.73738639988,None,"['n', 'return']","[0.2656721994280815, 0.5537768993526697]",1126.73738639988,None,,,51,001,2023_Apr_24_1057,ExactRep-v3-final,2021.2.3,59.95344004123734,
,,,,,,,,,,,,132,0,132,0,,,,,,,,,,,,,,,,,,,,,,,,,,,,,,,,,,,,,,,,,,,,,,,,,1128.81184390001,None,,,,,,,,,,,,,,,,,,,,,,,,,,,,,,,,,,,,,,,,,,,,,,,,,,,,,,,,,disease,89,133,aloud,old,blue,1127.8369771996513,None,n,1127.8369771996513,None,"['n', 'return']","[0.6380072999745607, 0.9419936006888747]",1127.8369771996513,None,,,51,001,2023_Apr_24_1057,ExactRep-v3-final,2021.2.3,59.95344004123734,
